File: Figure_codes/Fig_3-5/rawdata_trumpetplot_data/after 10th/20221101_1-115_003_TrumpetPlot_ParaChange_from10_every3_02_CV_C01_9.csv
mode,ox/red,error,control changes,counter inc.,time/s,control/V,Ewe/V,<I>/mA,cycle number,(Q-Qo)/C,I Range,P/W,log(|I|),Tafel slope mV/dec,alpha_eff,dI/d(E-IR),E-IR/V,
2,0,0,1,0,18071.2,2.44065e-05,-0.000325324,-0.359531,10,0.0000000E+000,10,1.16964e-07,-3.44426, , , ,-0.000325324,
2,0,0,1,0,18072.5,0.00129791,0.00094084,-0.172139,10,-0.000248921,10,-1.61955e-07,-3.76412, , , ,0.00094084,
2,0,0,1,0,18074,0.00279612,0.00247001,-0.138585,10,-0.000456641,10,-3.42307e-07,-3.85828,-0.017554,-3.36106,19.512,0.00247001,
2,0,0,1,0,18075.5,0.00429431,0.00399378,-0.117705,10,-0.000627506,10,-4.7009e-07,-3.9292,-0.0251119,-2.34948,11.0539,0.00399378,
2,0,0,1,0,18077,0.00579242,0.00550053,-0.103927,10,-0.000772672,10,-5.71655e-07,-3.98327,-0.0267515,-2.20548,9.09677,0.005500528,
2,0,0,1,0,18078.5,0.00729061,0.00699358,-0.0923647,10,-0.000898987,10,-6.45959e-07,-4.03449,-0.0305466,-1.93147,7.04716,0.00699358,
2,0,0,1,0,18080,0.00878882,0.00847395,-0.0828092,10,-0.00100994,10,-7.01721e-07,-4.08192,-0.0345899,-1.7057,5.59894,0.00847395,
2,0,0,1,0,18081.5,0.010287,0.00994046,-0.0754364,10,-0.00110859,10,-7.49873e-07,-4.12242,-0.036927,-1.59775,4.7492,0.00994046,
2,0,0,1,0,18083,0.0117852,0.0114665,-0.0691752,10,-0.00119693,10,-7.93194e-07,-4.16005,-0.036898,-1.599,4.30255,0.0114665,
2,0,0,1,0,18084.5,0.0132834,0.0130167,-0.0630842,10,-0.0012759,10,-8.21148e-07,-4.20008,-0.0366865,-1.60822,3.93741,0.0130167,
2,0,0,1,0,18086,0.0147815,0.014497,-0.0578341,10,-0.00134615,10,-8.3842e-07,-4.23782,-0.0375285,-1.57214,3.53309,0.014497,
2,0,0,1,0,18087.5,0.0162797,0.015971,-0.0523575,10,-0.00140852,10,-8.36198e-07,-4.28102,-0.0417376,-1.4136,2.91376,0.015971,
2,0,0,1,0,18089,0.0177779,0.0174524,-0.0482145,10,-0.00146417,10,-8.41458e-07,-4.31682,-0.0378791,-1.55759,2.90962,0.0174524,
2,0,0,1,0,18090.5,0.0192761,0.0189337,-0.0433254,10,-0.00151387,10,-8.2031e-07,-4.36326,-0.037499,-1.57338,2.69886,0.0189337,
2,0,0,1,0,18092,0.0207743,0.0204491,-0.0396865,10,-0.00155684,10,-8.11553e-07,-4.40136,-0.0390325,-1.51156,2.35961,0.02044907,
2,0,0,1,0,18093.5,0.0222725,0.021975,-0.0361661,10,-0.00159446,10,-7.94749e-07,-4.4417,-0.0375794,-1.57001,2.22819,0.021975,
2,0,0,1,0,18094.9,0.0237707,0.0234702,-0.0329565,10,-0.00162697,10,-7.73497e-07,-4.48206,-0.0396455,-1.48819,1.92777,0.0234702,
2,0,0,1,0,18096.4,0.0252689,0.0249569,-0.0298686,10,-0.00165499,10,-7.45427e-07,-4.52479,-0.0318244,-1.85392,2.14069,0.0249569,
2,0,0,1,0,18097.9,0.0267671,0.0264394,-0.0273149,10,-0.00167824,10,-7.22189e-07,-4.5636,-0.0292311,-2.0184,2.12722,0.0264394,
2,0,0,1,0,18099.4,0.0282653,0.0279738,-0.0238564,10,-0.00169658,10,-6.67355e-07,-4.62239,-0.0278434,-2.11899,1.96362,0.0279738,
2,0,0,1,0,18100.9,0.0297635,0.0294541,-0.0212773,10,-0.00171061,10,-6.26703e-07,-4.67208,-0.0247707,-2.38185,1.93082,0.0294541,
2,0,0,1,0,18102.4,0.0312617,0.030928,-0.018456,10,-0.0017203,10,-5.70808e-07,-4.73386,-0.0207561,-2.84254,2.00385,0.030928,
2,0,0,1,0,18103.9,0.0327599,0.0324445,-0.0156494,10,-0.0017259,10,-5.07736e-07,-4.8055,-0.0189984,-3.10553,1.84132,0.0324445,
2,0,0,1,0,18105.4,0.0342581,0.0339662,-0.0126596,10,-0.00172715,10,-4.29998e-07,-4.89758,-0.0166926,-3.53451,1.77547,0.0339662,
2,0,0,1,0,18106.9,0.0357563,0.0354263,-0.0104184,10,-0.00172439,10,-3.69086e-07,-4.9822,-0.014692,-4.01579,1.58153,0.0354263,
2,0,0,1,0,18108.4,0.0372544,0.036896,-0.00740012,10,-0.00171804,10,-2.73035e-07,-5.13076,-0.0109792,-5.37379,1.53218,0.03689599,
2,0,0,1,0,18109.9,0.0387526,0.0384145,-0.00544564,10,-0.001708,10,-2.09191e-07,-5.26395,-0.00602874,-9.78645,1.70709,0.0384145,
2,0,0,1,0,18111.4,0.0402508,0.0399075,-0.00299536,10,-0.0016941,10,-1.19538e-07,-5.52355,-0.00230407,-25.6069,1.49407,0.0399075,
2,0,0,1,0,18112.9,0.041749,0.0414081,-0.000610763,10,-0.0016764,10,-2.52905e-08,-6.21413,-0.013421,-4.3961,1.44667,0.0414081,
2,0,0,1,0,18114.4,0.0432472,0.0429912,0.001748,10,-0.0016556,10,7.51487e-08,-5.75746,0.00999022,5.90578,1.30578,0.0429912,
2,0,0,1,0,18115.9,0.0447454,0.0444027,0.00360925,10,-0.0016318,10,1.6026e-07,-5.44258,0.00378821,15.5746,1.49334,0.0444027,
2,0,0,1,0,18117.4,0.0462435,0.0459497,0.00568515,10,-0.00160472,10,2.61231e-07,-5.24526,0.00784363,7.52203,1.41198,0.0459497,
2,1,0,1,0,18118.9,0.0477417,0.0474109,0.00799384,10,-0.00157424,10,3.78995e-07,-5.09724,0.0110583,5.33536,1.51005,0.0474109,
2,0,0,1,0,18120.4,0.0492399,0.0488733,0.00943122,10,-0.00154085,10,4.60935e-07,-5.02543,0.0161931,3.64354,1.36078,0.0488733,
2,1,0,1,0,18121.9,0.0507381,0.0504416,0.0113204,10,-0.00150439,10,5.71017e-07,-4.94614,0.0183773,3.21049,1.42719,0.0504416,
2,1,0,1,0,18123.4,0.0522363,0.0519102,0.0134493,10,-0.00146474,10,6.98157e-07,-4.8713,0.0234162,2.51963,1.29177,0.05191024,
2,1,0,1,0,18124.9,0.0537345,0.0534161,0.0157941,10,-0.00142208,10,8.43659e-07,-4.80151,0.0279515,2.1108,1.25191,0.0534161,
2,1,0,1,0,18126.4,0.0552327,0.0549219,0.0176126,10,-0.00137698,10,9.67317e-07,-4.75418,0.0370768,1.59129,1.04562,0.0549219,
2,1,0,1,0,18127.9,0.0567309,0.0563884,0.0180384,10,-0.00132949,10,1.01716e-06,-4.7438,0.0385369,1.531,1.09427,0.0563884,
2,1,0,1,0,18129.4,0.0582291,0.057944,0.0209255,10,-0.00127954,10,1.21251e-06,-4.67932,0.0365268,1.61525,1.28984,0.057944,
2,1,0,1,0,18130.9,0.0597273,0.0594127,0.0223917,10,-0.00122651,10,1.33035e-06,-4.64991,0.0440116,1.34055,1.16676,0.0594127,
2,1,0,1,0,18132.4,0.0612255,0.0608899,0.0234961,10,-0.00117106,10,1.43067e-06,-4.629,0.0528725,1.11589,1.02751,0.0608899,
2,1,0,1,0,18133.9,0.0627237,0.0624105,0.0258453,10,-0.00111281,10,1.61302e-06,-4.58762,0.0454412,1.29838,1.31099,0.0624105,
2,1,0,1,0,18135.4,0.0642219,0.0639078,0.027152,10,-0.00105212,10,1.73522e-06,-4.5662,0.0483914,1.21922,1.33051,0.0639078,
2,1,0,1,0,18136.9,0.0657201,0.0653903,0.028996,10,-0.000988084,10,1.89605e-06,-4.53766,0.0671789,0.878252,1.0084,0.0653903,
2,1,0,1,0,18138.4,0.0672183,0.0669289,0.0309968,10,-0.000921783,10,2.07458e-06,-4.50868,0.0660664,0.893041,1.08746,0.0669289,
2,1,0,1,0,18139.9,0.0687164,0.0683869,0.0326044,10,-0.000853167,10,2.22971e-06,-4.48672,0.0628262,0.939099,1.17982,0.0683869,
2,1,0,1,0,18141.4,0.0702146,0.0698874,0.0344659,10,-0.000782249,10,2.40873e-06,-4.46261,0.0774233,0.762045,1.00366,0.0698874,
2,1,0,1,0,18142.9,0.0717128,0.0713528,0.0353156,10,-0.000708988,10,2.51987e-06,-4.45203,0.0767323,0.768907,1.05544,0.0713528,
2,1,0,1,0,18144.4,0.073211,0.0728767,0.0374915,10,-0.000633646,10,2.73225e-06,-4.42607,0.0869403,0.678626,0.985098,0.0728767,
2,1,0,1,0,18145.9,0.0747092,0.0743994,0.038146,10,-0.000555821,10,2.83804e-06,-4.41855,0.0949934,0.621096,0.929102,0.0743994,
2,1,0,1,0,18147.4,0.0762074,0.0758882,0.0394907,10,-0.000476401,10,2.99688e-06,-4.4035,0.0856639,0.688738,1.08641,0.0758882,
2,1,0,1,0,18148.9,0.0777055,0.0773674,0.0417788,10,-0.00039419,10,3.23232e-06,-4.37904,0.0731135,0.806965,1.30573,0.0773674,
2,1,0,1,0,18150.4,0.0792037,0.0788912,0.0440731,10,-0.000309237,10,3.47698e-06,-4.35583,0.0935479,0.630693,1.0611,0.0788912,
2,1,0,1,0,18151.9,0.0807019,0.0803896,0.0450091,10,-0.000221842,10,3.61826e-06,-4.3467,0.0962475,0.613003,1.06411,0.0803896,
2,1,0,1,0,18153.4,0.0822001,0.081888,0.0457088,10,-0.000132441,10,3.743e-06,-4.34,0.0980321,0.601844,1.08306,0.081888,
2,1,0,1,0,18154.9,0.0836983,0.0833556,0.047852,10,-4.10165e-05,10,3.98873e-06,-4.3201,0.104908,0.562398,1.05639,0.0833556,
2,1,0,1,0,18156.4,0.0851965,0.0848772,0.0490999,10,5.30437e-05,10,4.16746e-06,-4.30892,0.119469,0.493852,0.953367,0.0848772,
2,1,0,1,0,18157.9,0.0866947,0.086399,0.0512368,10,0.000149881,10,4.4268e-06,-4.29042,0.133153,0.443098,0.879264,0.086399,
2,1,0,1,0,18159.4,0.0881929,0.0879005,0.0527885,10,0.000249061,10,4.64013e-06,-4.27746,0.107262,0.550054,1.14827,0.0879005,
2,1,0,1,0,18160.9,0.0896911,0.0893713,0.0546203,10,0.000350576,10,4.88148e-06,-4.26265,0.109083,0.540875,1.15792,0.0893713,
2,1,0,1,0,18162.4,0.0911893,0.0909014,0.0568921,10,0.000455495,10,5.17157e-06,-4.24495,0.0978449,0.602995,1.32996,0.0909014,
2,1,0,1,0,18163.9,0.0926875,0.0923765,0.0588179,10,0.000563775,10,5.43339e-06,-4.23049,0.0994763,0.593106,1.35934,0.0923765,
2,1,0,1,0,18165.4,0.0941857,0.0939056,0.0608095,10,0.000674719,10,5.71036e-06,-4.21603,0.100696,0.58592,1.40108,0.0939056,
2,1,0,1,0,18166.9,0.0956839,0.0953669,0.0634348,10,0.000788659,10,6.04957e-06,-4.19767,0.0890017,0.662909,1.63528,0.09536688,
2,1,0,1,0,18168.4,0.0971821,0.0968874,0.0652067,10,0.000906171,10,6.31771e-06,-4.18571,0.0911292,0.647432,1.6455,0.0968874,
2,1,0,1,0,18169.9,0.0986803,0.0983795,0.0673011,10,0.00102776,10,6.62105e-06,-4.17198,0.0986142,0.598291,1.56772,0.0983795,
2,1,0,1,0,18171.4,0.100178,0.0998332,0.069906,10,0.00115255,10,6.97895e-06,-4.15549,0.124911,0.472335,1.29059,0.0998332,
2,1,0,1,0,18172.9,0.101677,0.101398,0.07101,10,0.00127952,10,7.20031e-06,-4.14868,0.120857,0.488181,1.37269,0.101398,
2,1,0,1,0,18174.4,0.103175,0.102835,0.0741291,10,0.00141049,10,7.62309e-06,-4.13001,0.0985015,0.598976,1.72157,0.102835,
2,1,0,1,0,18175.9,0.104673,0.104355,0.0772506,10,0.00154518,10,8.06147e-06,-4.1121,0.122316,0.482357,1.43323,0.104355,
2,1,0,1,0,18177.4,0.106171,0.10583,0.0785147,10,0.00168341,10,8.3092e-06,-4.10505,0.137489,0.429126,1.31276,0.10583,
2,1,0,1,0,18178.8,0.107669,0.107416,0.0809736,10,0.00182484,10,8.69788e-06,-4.09166,0.129106,0.456987,1.44267,0.107416,
2,1,0,1,0,18180.3,0.109167,0.108864,0.082761,10,0.00196906,10,9.00966e-06,-4.08217,0.143174,0.412086,1.34186,0.108864,
2,1,0,1,0,18181.8,0.110666,0.11031,0.0846898,10,0.00211684,10,9.34213e-06,-4.07217,0.148901,0.396236,1.31827,0.11031,
2,1,0,1,0,18183.3,0.112164,0.111853,0.087053,10,0.00226788,10,9.73713e-06,-4.06022,0.19729,0.299052,1.01089,0.111853,
2,1,0,1,0,18184.8,0.113662,0.113347,0.0888224,10,0.00242153,10,1.00678e-05,-4.05148,0.176848,0.33362,1.15085,0.113347,
2,1,0,1,0,18186.3,0.11516,0.114842,0.0905287,10,0.00257695,10,1.03965e-05,-4.04321,0.170901,0.34523,1.21768,0.114842,
2,1,0,1,0,18187.8,0.116658,0.116357,0.0921965,10,0.00273567,10,1.07277e-05,-4.03529,0.152431,0.387061,1.3943,0.116357,
2,1,0,1,0,18189.3,0.118157,0.117828,0.0944361,10,0.00289773,10,1.11273e-05,-4.02486,0.17336,0.340332,1.24781,0.117828,
2,1,0,1,0,18190.8,0.119655,0.119345,0.0963545,10,0.00306243,10,1.14994e-05,-4.01613,0.178549,0.330441,1.24286,0.119345,
2,1,0,1,0,18192.3,0.121153,0.120799,0.0979302,10,0.00322939,10,1.18298e-05,-4.00908,0.169339,0.348413,1.3379,0.120799,
2,1,0,1,0,18193.8,0.122651,0.122357,0.0996299,10,0.00340009,10,1.21904e-05,-4.00161,0.139004,0.424449,1.65803,0.122357,
2,1,0,1,0,18195.3,0.124149,0.123835,0.102225,10,0.00357396,10,1.26589e-05,-3.99044,0.18691,0.31566,1.2557,0.123835,
2,1,0,1,0,18196.8,0.125648,0.125302,0.104425,10,0.00375076,10,1.30847e-05,-3.9812,0.201264,0.293148,1.18862,0.125302,
2,1,0,1,0,18198.3,0.127146,0.126828,0.104709,10,0.00392976,10,1.328e-05,-3.98002,0.249587,0.236391,0.971112,0.126828,
2,1,0,1,0,18199.8,0.128644,0.128344,0.106976,10,0.00411074,10,1.37297e-05,-3.97071,0.477614,0.123531,0.511483,0.128344,
2,1,0,1,0,18201.3,0.130142,0.129818,0.108069,10,0.00429393,10,1.40293e-05,-3.9663,0.792026,0.0744925,0.311182,0.129818,
2,1,0,1,0,18202.8,0.13164,0.131325,0.1074,10,0.00447764,10,1.41044e-05,-3.96899,-0.894018,-0.0659942,-0.275811,0.131325,
2,1,0,1,0,18204.3,0.133139,0.132838,0.106865,10,0.00466099,10,1.41958e-05,-3.97116,-0.384819,-0.153319,-0.638759,0.132838,
2,1,0,1,0,18205.8,0.134637,0.134304,0.106193,10,0.00484266,10,1.42621e-05,-3.97391,-0.238444,-0.247437,-1.02363,0.134304,
2,1,0,1,0,18207.3,0.136135,0.135838,0.104859,10,0.00502259,10,1.42439e-05,-3.97939,-0.159327,-0.370308,-1.50058,0.135838,
2,1,0,1,0,18208.8,0.137633,0.137321,0.101695,10,0.0051994,10,1.39648e-05,-3.9927,-0.124383,-0.474339,-1.86669,0.1373208,
2,1,0,1,0,18210.3,0.139131,0.138855,0.099052,10,0.00537139,10,1.37539e-05,-4.00414,-0.094099,-0.626999,-2.39967,0.138855,
2,1,0,1,0,18211.8,0.14063,0.14029,0.0946654,10,0.00553761,10,1.32806e-05,-4.02381,-0.0838114,-0.703961,-2.58872,0.14029,
2,1,0,1,0,18213.3,0.142128,0.141821,0.0905591,10,0.00569784,10,1.28432e-05,-4.04307,-0.0730296,-0.807891,-2.84423,0.141821,
2,1,0,1,0,18214.8,0.143626,0.143292,0.0863503,10,0.00585197,10,1.23733e-05,-4.06374,-0.0652171,-0.904671,-3.02427,0.143292,
2,1,0,1,0,18216.3,0.145124,0.144801,0.0808034,10,0.00599845,10,1.17004e-05,-4.09257,-0.0564014,-1.04607,-3.35082,0.1448008,
2,1,0,1,0,18217.8,0.146622,0.146334,0.0765064,10,0.00613729,10,1.11955e-05,-4.1163,-0.0566535,-1.04142,-3.13777,0.146334,
2,1,0,1,0,18219.3,0.14812,0.147824,0.0726108,10,0.00627013,10,1.07336e-05,-4.139,-0.0728901,-0.809438,-2.30732,0.147824,
2,1,0,1,0,18220.8,0.149619,0.149283,0.0692679,10,0.00639683,10,1.03405e-05,-4.15947,-0.0791,-0.745891,-2.03019,0.1492832,
2,1,0,1,0,18222.3,0.151117,0.150794,0.0663734,10,0.00651832,10,1.00087e-05,-4.17801,-0.0883546,-0.667764,-1.7462,0.150794,
2,1,0,1,0,18223.8,0.152615,0.152334,0.0633725,10,0.00663557,10,9.65379e-06,-4.1981,-0.0939489,-0.628001,-1.56358,0.152334,
2,1,0,1,0,18225.3,0.154113,0.15381,0.0611383,10,0.00674913,10,9.40369e-06,-4.21369,-0.111668,-0.528353,-1.27432,0.15381,
2,1,0,1,0,18226.8,0.155611,0.155291,0.0603638,10,0.00685939,10,9.37398e-06,-4.21922,-0.126803,-0.465287,-1.0892,0.155291,
2,1,0,1,0,18228.3,0.15711,0.156791,0.0580651,10,0.00696744,10,9.10408e-06,-4.23608,-0.13893,-0.424675,-0.965259,0.1567909,
2,1,0,1,0,18229.8,0.158608,0.158279,0.0570463,10,0.00707298,10,9.02921e-06,-4.24377,-0.1594,-0.370139,-0.825966,0.158279,
2,1,0,1,0,18231.3,0.160106,0.15981,0.0553363,10,0.00717635,10,8.84328e-06,-4.25699,-0.184766,-0.319323,-0.696123,0.15981,
2,1,0,1,0,18232.8,0.161604,0.16128,0.054963,10,0.00727818,10,8.86441e-06,-4.25993,-0.173301,-0.340448,-0.727415,0.16128,
2,1,0,1,0,18234.3,0.163102,0.162819,0.0537912,10,0.00737845,10,8.75825e-06,-4.26929,-0.175241,-0.33668,-0.705987,0.162819,
2,1,0,1,0,18235.8,0.164601,0.164321,0.0528402,10,0.00747731,10,8.68274e-06,-4.27704,-0.338174,-0.174466,-0.359494,0.164321,
2,1,0,1,0,18237.3,0.166099,0.16581,0.0526031,10,0.00757454,10,8.7221e-06,-4.27899,-0.426162,-0.138445,-0.283083,0.1658096,
2,1,0,1,0,18238.8,0.167597,0.167256,0.0517967,10,0.00767134,10,8.66331e-06,-4.2857,-0.515058,-0.11455,-0.231429,0.167256,
2,1,0,1,0,18240.3,0.169095,0.168782,0.051515,10,0.00776759,10,8.6948e-06,-4.28807,-0.616182,-0.0957509,-0.193331,0.168782,
2,1,0,1,0,18241.8,0.170593,0.170272,0.0516546,10,0.00786345,10,8.79532e-06,-4.28689,-0.68178,-0.0865381,-0.173242,0.170272,
2,1,0,1,0,18243.3,0.172091,0.171752,0.0509394,10,0.00795855,10,8.74895e-06,-4.29295,-1.38875,-0.0424841,-0.0847489,0.171752,
2,1,0,1,0,18244.8,0.17359,0.173288,0.0501885,10,0.00805315,10,8.69703e-06,-4.2994,-4.5952,-0.0128395,-0.0254034,0.173288,
2,1,0,1,0,18246.3,0.175088,0.17476,0.0508887,10,0.00814754,10,8.89332e-06,-4.29338,-0.715691,-0.0824378,-0.163194,0.17476,
2,1,0,1,0,18247.8,0.176586,0.176238,0.0503618,10,0.00824159,10,8.87564e-06,-4.2979,-0.456618,-0.129211,-0.253081,0.1762376,
2,1,0,1,0,18249.3,0.178084,0.177767,0.049535,10,0.00833539,10,8.80568e-06,-4.30509,-2.41088,-0.0244724,-0.047729,0.177767,
2,1,0,1,0,18250.8,0.179582,0.179261,0.0496892,10,0.00842849,10,8.90733e-06,-4.30374,-1.19704,-0.0492881,-0.0965596,0.179261,
2,1,0,1,0,18252.3,0.181081,0.180793,0.0497287,10,0.00852181,10,8.99061e-06,-4.30339,-8.6069,-0.00685497,-0.0134338,0.180793,
2,1,0,1,0,18253.8,0.182579,0.182262,0.0497621,10,0.008615,10,9.06973e-06,-4.3031,-1.88826,-0.0312458,-0.0607986,0.182262,
2,1,0,1,0,18255.3,0.184077,0.18377,0.0498917,10,0.00870834,10,9.16858e-06,-4.30197,0.520613,0.113328,0.221341,0.18377,
2,1,0,1,0,18256.8,0.185575,0.185273,0.0505127,10,0.00880137,10,9.35865e-06,-4.2966,1.47084,0.0401132,0.0787725,0.185273,
2,1,0,1,0,18258.3,0.187073,0.186716,0.0501747,10,0.00889501,10,9.36839e-06,-4.29952,1.5888,0.0371349,0.0728171,0.186716,
2,1,0,1,0,18259.8,0.188572,0.188264,0.0503894,10,0.00898864,10,9.48649e-06,-4.29766,-5.96772,-0.00988652,-0.0193662,0.188264,
2,1,0,1,0,18261.2,0.19007,0.18979,0.0502222,10,0.00908242,10,9.53166e-06,-4.2991,-0.848361,-0.0695459,-0.135914,0.18979,
2,1,0,1,0,18262.7,0.191568,0.191266,0.0499836,10,0.00917552,10,9.56015e-06,-4.30117,-1.14816,-0.0513868,-0.100404,0.191266,
2,1,0,1,0,18264.2,0.193066,0.192732,0.0501065,10,0.00926868,10,9.65713e-06,-4.30011,0.459799,0.128317,0.249986,0.192732,
2,1,0,1,0,18265.7,0.194564,0.194235,0.0503992,10,0.00936208,10,9.78928e-06,-4.29758,0.958799,0.0615353,0.120517,0.194235,
2,1,0,1,0,18267.2,0.196063,0.195748,0.0502342,10,0.00945563,10,9.83324e-06,-4.299,-3.63748,-0.01622,-0.0318335,0.195748,
2,1,0,1,0,18268.7,0.197561,0.19722,0.0500263,10,0.00954911,10,9.86618e-06,-4.3008,1.23143,0.0479116,0.094766,0.19722,
2,1,0,1,0,18270.2,0.199059,0.198752,0.0505666,10,0.00964261,10,1.00502e-05,-4.29614,0.700301,0.0842495,0.165713,0.198752,
2,1,0,1,0,18271.7,0.200557,0.200237,0.0508394,10,0.00973654,10,1.01799e-05,-4.2938,1.35728,0.0434694,0.0861079,0.2002368,
2,1,0,1,0,18273.2,0.202055,0.201754,0.0505285,10,0.00983066,10,1.01943e-05,-4.29646,312.241,0.000188956,0.000374303,0.201754,
2,1,0,1,0,18274.7,0.203554,0.203259,0.0505249,10,0.00992492,10,1.02696e-05,-4.29649,0.564555,0.104507,0.207208,0.203259,
2,1,0,1,0,18276.2,0.205052,0.204704,0.0509036,10,0.0100192,10,1.04202e-05,-4.29325,0.580896,0.101567,0.204803,0.204704,
2,1,0,1,0,18277.7,0.20655,0.206205,0.0512623,10,0.010114,10,1.05705e-05,-4.2902,0.78079,0.0755645,0.151,0.206205,
2,1,0,1,0,18279.2,0.208048,0.207755,0.0512919,10,0.0102093,10,1.06562e-05,-4.28995,2.14601,0.0274929,0.0550534,0.207755,
2,1,0,1,0,18280.7,0.209546,0.209236,0.0514424,10,0.0103045,10,1.07636e-05,-4.28868,1.65749,0.035596,0.0717221,0.209236,
2,1,0,1,0,18282.2,0.211044,0.210752,0.0513867,10,0.0103994,10,1.08298e-05,-4.28915,-22.8112,-0.00258645,-0.00519841,0.210752,
2,1,0,1,0,18283.7,0.212543,0.212213,0.0519845,10,0.0104946,10,1.10318e-05,-4.28413,0.617014,0.0956218,0.193008,0.212213,
2,1,0,1,0,18285.2,0.214041,0.213729,0.0516382,10,0.0105902,10,1.10366e-05,-4.28703,0.857356,0.0688162,0.139702,0.213729,
2,1,0,1,0,18286.7,0.215539,0.215214,0.0519207,10,0.0106861,10,1.11741e-05,-4.28466,3.45793,0.0170622,0.0347118,0.215214,
2,1,0,1,0,18288.2,0.217037,0.21673,0.0521474,10,0.0107821,10,1.13019e-05,-4.28277,0.505992,0.116603,0.239133,0.21673,
2,1,0,1,0,18289.7,0.218535,0.218217,0.0524669,10,0.0108784,10,1.14492e-05,-4.28011,1.10427,0.0534289,0.109147,0.218217,
2,1,0,1,0,18291.2,0.220034,0.219751,0.0526805,10,0.0109753,10,1.15766e-05,-4.27835,-1.01074,-0.0583732,-0.120251,0.219751,
2,1,0,1,0,18292.7,0.221532,0.221238,0.0524469,10,0.0110719,10,1.16033e-05,-4.28028,-1.17675,-0.0501382,-0.103708,0.221238,
2,1,0,1,0,18294.2,0.22303,0.222728,0.0521765,10,0.0111682,10,1.16212e-05,-4.28253,0.888659,0.0663922,0.136576,0.222728,
2,1,0,1,0,18295.7,0.224528,0.224246,0.0528288,10,0.0112648,10,1.18466e-05,-4.27713,2.61398,0.0225709,0.0466058,0.224246,
2,1,0,1,0,18297.2,0.226026,0.225701,0.0530634,10,0.0113616,10,1.19765e-05,-4.27521,0.756112,0.0780308,0.161064,0.225701,
2,1,0,1,0,18298.7,0.227525,0.227215,0.0530749,10,0.0114589,10,1.20594e-05,-4.27511,0.342784,0.17212,0.358453,0.227215,
2,1,0,1,0,18300.2,0.229023,0.228719,0.0537008,10,0.0115567,10,1.22824e-05,-4.27002,0.378078,0.156052,0.326966,0.228719,
2,1,0,1,0,18301.7,0.230521,0.230209,0.054327,10,0.011655,10,1.25066e-05,-4.26498,0.583397,0.101132,0.212887,0.230209,
2,1,0,1,0,18303.2,0.232019,0.231697,0.0541384,10,0.0117541,10,1.25437e-05,-4.26649,0.612347,0.0963506,0.204723,0.2316969,
2,1,0,1,0,18304.7,0.233517,0.233181,0.0542479,10,0.0118531,10,1.26496e-05,-4.26562,-4.05799,-0.0145392,-0.0307596,0.233181,
2,1,0,1,0,18306.2,0.235016,0.234701,0.0545917,10,0.0119525,10,1.28127e-05,-4.26287,1.37704,0.0428454,0.0908489,0.234701,
2,1,0,1,0,18307.7,0.236514,0.236146,0.0550157,10,0.0120515,10,1.29918e-05,-4.25951,0.817533,0.0721684,0.154614,0.236146,
2,1,0,1,0,18309.2,0.238012,0.23771,0.0547114,10,0.0121511,10,1.30055e-05,-4.26192,2.69974,0.0218539,0.0466782,0.23771,
2,1,0,1,0,18310.7,0.23951,0.239246,0.0551963,10,0.012251,10,1.32055e-05,-4.25809,1.26243,0.0467353,0.10007,0.239246,
2,1,0,1,0,18312.2,0.241008,0.240689,0.0555168,10,0.0123511,10,1.33623e-05,-4.25558,-7.33447,-0.00804421,-0.0173313,0.2406891,
2,1,0,1,0,18313.7,0.242506,0.242257,0.0552857,10,0.0124511,10,1.33934e-05,-4.25739,2.2571,0.0261397,0.0567061,0.242257,
2,1,0,1,0,18315.2,0.244005,0.243675,0.0556226,10,0.0125517,10,1.35539e-05,-4.25475,0.557844,0.105764,0.229115,0.243675,
2,1,0,1,0,18316.7,0.245503,0.245196,0.0561169,10,0.012653,10,1.37596e-05,-4.25091,0.771807,0.0764439,0.167163,0.245196,
2,1,0,1,0,18318.2,0.247001,0.246642,0.0565981,10,0.0127548,10,1.39595e-05,-4.2472,0.835274,0.0706355,0.155391,0.246642,
2,1,0,1,0,18319.7,0.248499,0.248189,0.0561311,10,0.0128567,10,1.39311e-05,-4.2508,0.789066,0.074772,0.164663,0.248189,
2,1,0,1,0,18321.2,0.249997,0.249699,0.0568901,10,0.012959,10,1.42054e-05,-4.24496,0.748383,0.0788366,0.174652,0.249699,
2,1,0,1,0,18322.7,0.251496,0.251189,0.0569899,10,0.0130616,10,1.43153e-05,-4.2442,1.16836,0.0504983,0.11193,0.251189,
2,1,0,1,0,18324.2,0.252994,0.252684,0.0568231,10,0.0131644,10,1.43583e-05,-4.24547,-2.86107,-0.0206216,-0.0458644,0.252684,
2,1,0,1,0,18325.7,0.254492,0.254171,0.056733,10,0.0132672,10,1.44199e-05,-4.24616,1.33256,0.0442755,0.099041,0.254171,
2,1,0,1,0,18327.2,0.25599,0.255692,0.0572397,10,0.0133699,10,1.46357e-05,-4.2423,0.539976,0.109264,0.244481,0.255692,
2,1,0,1,0,18328.7,0.257488,0.257185,0.0577549,10,0.0134731,10,1.48537e-05,-4.23841,0.854317,0.069061,0.154781,0.257185,
2,1,0,1,0,18330.2,0.258987,0.258696,0.057754,10,0.0135767,10,1.49407e-05,-4.23842,0.588757,0.100211,0.225817,0.258696,
2,1,0,1,0,18331.7,0.260485,0.260183,0.0582163,10,0.0136808,10,1.51469e-05,-4.23496,0.4951,0.119168,0.268017,0.260183,
2,1,0,1,0,18333.2,0.261983,0.261695,0.0583134,10,0.013785,10,1.52603e-05,-4.23423,0.619266,0.0952741,0.217562,0.261695,
2,1,0,1,0,18334.7,0.263481,0.263189,0.0587557,10,0.0138897,10,1.54638e-05,-4.23095,1.67572,0.0352087,0.080176,0.263189,
2,1,0,1,0,18336.2,0.264979,0.264702,0.0593513,10,0.013995,10,1.57104e-05,-4.22657,0.79471,0.0742409,0.17068,0.264702,
2,1,0,1,0,18337.7,0.266477,0.266198,0.0594037,10,0.0141004,10,1.58132e-05,-4.22619,-1.1436,-0.0515913,-0.11921,0.266198,
2,1,0,1,0,18339.2,0.267976,0.267604,0.0586799,10,0.0142055,10,1.5703e-05,-4.23151,1.39607,0.0422614,0.0976508,0.267604,
2,1,0,1,0,18340.7,0.269474,0.269178,0.0588933,10,0.0143107,10,1.58528e-05,-4.22993,1.83651,0.0321261,0.0739639,0.269178,
2,1,0,1,0,18342.2,0.270972,0.270673,0.0594286,10,0.0144163,10,1.60857e-05,-4.226,1.07053,0.0551127,0.127266,0.270673,
2,1,0,1,0,18343.6,0.27247,0.272159,0.0592989,10,0.0145221,10,1.61387e-05,-4.22695,-46.5064,-0.00126864,-0.00294481,0.272159,
2,1,0,1,0,18345.1,0.273968,0.273642,0.0593787,10,0.0146279,10,1.62485e-05,-4.22637,0.387548,0.152239,0.354546,0.273642,
2,1,0,1,0,18346.6,0.275467,0.275122,0.0602277,10,0.0147344,10,1.65699e-05,-4.2202,1.84471,0.0319834,0.0744094,0.275122,
2,1,0,1,0,18348.1,0.276965,0.276667,0.0601132,10,0.0148417,10,1.66313e-05,-4.22103,1.06672,0.0553095,0.130255,0.276667,
2,1,0,1,0,18349.6,0.278463,0.278171,0.0602348,10,0.0149487,10,1.67556e-05,-4.22015,2.22096,0.0265651,0.0627057,0.278171,
2,1,0,1,0,18351.1,0.279961,0.279665,0.0607506,10,0.0150563,10,1.69898e-05,-4.21645,10.5776,0.00557784,0.0131765,0.279665,
2,1,0,1,0,18352.6,0.281459,0.281119,0.0605146,10,0.0151638,10,1.70118e-05,-4.21814,0.998919,0.0590638,0.140078,0.281119,
2,1,0,1,0,18354.1,0.282958,0.282675,0.0607269,10,0.0152713,10,1.7166e-05,-4.21662,1.09843,0.053713,0.127249,0.282675,
2,1,0,1,0,18355.6,0.284456,0.284185,0.0606319,10,0.0153793,10,1.72307e-05,-4.2173,5.39144,0.0109433,0.0258841,0.284185,
2,1,0,1,0,18357.1,0.285954,0.285624,0.0609181,10,0.0154873,10,1.73997e-05,-4.21525,0.959269,0.0615052,0.14635,0.285624,
2,1,0,1,0,18358.6,0.287452,0.287125,0.0610874,10,0.0155951,10,1.75398e-05,-4.21405,0.959242,0.0615069,0.145987,0.287125,
2,1,0,1,0,18360.1,0.28895,0.288617,0.0613114,10,0.0157036,10,1.76955e-05,-4.21246,0.403022,0.146394,0.35007,0.288617,
2,1,0,1,0,18361.6,0.290448,0.290134,0.0618003,10,0.0158123,10,1.79304e-05,-4.20901,1.54386,0.038216,0.0922068,0.290134,
2,1,0,1,0,18363.1,0.291947,0.291619,0.0620712,10,0.0159218,10,1.81012e-05,-4.20711,0.431607,0.136698,0.329672,0.291619,
2,1,0,1,0,18364.6,0.293445,0.293114,0.0622103,10,0.0160313,10,1.82347e-05,-4.20614,-3.55481,-0.0165972,-0.0402463,0.293114,
2,1,0,1,0,18366.1,0.294943,0.294607,0.0626023,10,0.0161412,10,1.84431e-05,-4.20341,3.3487,0.0176188,0.0428809,0.294607,
2,1,0,1,0,18367.6,0.296441,0.296119,0.0625209,10,0.0162511,10,1.85136e-05,-4.20397,-8.08229,-0.00729992,-0.0177645,0.296119,
2,1,0,1,0,18369.1,0.297939,0.297609,0.062445,10,0.016361,10,1.85842e-05,-4.2045,0.841856,0.0700832,0.170405,0.297609,
2,1,0,1,0,18370.6,0.299438,0.299136,0.0624034,10,0.0164707,10,1.86671e-05,-4.20479,-0.00512673,-11.5083,-18.9944,0.299136,
2,1,0,1,0,18371.5,0.299737,0.299428,0.0338974,10,0.0165196,10,1.01498e-05,-4.46983,0.00249849,23.6143,34.2382,0.299428,
2,1,0,1,0,18373,0.298239,0.297944,0.022079,10,0.0165423,10,6.5783e-06,-4.65602,0.00628064,9.39395,12.8239,0.297944,
2,1,0,1,0,18374.5,0.296741,0.29646,0.0177994,10,0.016555,10,5.2768e-06,-4.7496,0.0167262,3.52739,2.51492,0.29646,
2,1,0,1,0,18376,0.295243,0.294924,0.0145176,10,0.0165622,10,4.28159e-06,-4.8381,0.0191508,3.08081,1.7798,0.294924,
2,1,0,1,0,18377.5,0.293745,0.293419,0.0117838,10,0.0165653,10,3.45759e-06,-4.92872,0.0168201,3.50771,1.63189,0.293419,
2,1,0,1,0,18379,0.292246,0.291937,0.0096004,10,0.0165652,10,2.80271e-06,-5.01771,0.018457,3.19661,1.23062,0.291937,
2,1,0,1,0,18380.5,0.290748,0.290453,0.00782732,10,0.0165617,10,2.27347e-06,-5.10639,0.0162687,3.6266,1.12116,0.290453,
2,1,0,1,0,18382,0.28925,0.288929,0.00649224,10,0.016556,10,1.8758e-06,-5.18761,0.0122509,4.81596,1.11121,0.288929,
2,1,0,1,0,18383.5,0.287752,0.287442,0.00452741,10,0.0165477,10,1.30137e-06,-5.34415,0.0099821,5.91058,1.04568,0.287442,
2,1,0,1,0,18385,0.286254,0.285935,0.00366318,10,0.0165374,10,1.04743e-06,-5.43614,0.00705795,8.35937,0.924509,0.285935,
2,1,0,1,0,18386.4,0.284755,0.284427,0.00206061,10,0.0165249,10,5.86092e-07,-5.686,0.00316463,18.6436,0.973866,0.284427,
2,0,0,1,0,18387.9,0.283257,0.282945,0.00070817,10,0.0165103,10,2.00373e-07,-6.14986,0.00932627,6.32622,0.760415,0.282945,
2,1,0,1,0,18389.4,0.281759,0.281402,-0.000339748,10,0.0164942,10,-9.56058e-08,-6.46884,0.0383853,1.53704,0.519604,0.281402,
2,0,0,1,0,18390.9,0.280261,0.279946,-0.00123687,10,0.0164763,10,-3.46258e-07,-5.90768,-0.00402789,-14.6479,0.753255,0.279946,
2,0,0,1,0,18392.4,0.278763,0.278441,-0.00245042,10,0.0164572,10,-6.82298e-07,-5.61076,-0.00708446,-8.32809,0.615573,0.278441,
2,0,0,1,0,18393.9,0.277264,0.276958,-0.00371812,10,0.0164365,10,-1.02976e-06,-5.42968,-0.0102393,-5.7621,0.656402,0.276958,
2,0,0,1,0,18395.4,0.275766,0.275431,-0.00421599,10,0.0164141,10,-1.16122e-06,-5.3751,-0.019364,-3.04688,0.494876,0.275431,
2,0,0,1,0,18396.9,0.274268,0.273914,-0.00501122,10,0.0163903,10,-1.37264e-06,-5.30006,-0.0228713,-2.57965,0.526079,0.273914,
2,1,0,1,0,18398.4,0.27277,0.27245,-0.00646105,10,0.0163651,10,-1.76032e-06,-5.1897,-0.0213393,-2.76485,0.693752,0.27245,
2,1,0,1,0,18399.9,0.271272,0.270943,-0.00742163,10,0.0163381,10,-2.01084e-06,-5.1295,-0.0301619,-1.95611,0.542575,0.270943,
2,1,0,1,0,18401.4,0.269774,0.269453,-0.00806041,10,0.0163098,10,-2.1719e-06,-5.09364,-0.0336159,-1.75512,0.549313,0.269453,
2,1,0,1,0,18402.9,0.268275,0.267961,-0.00878008,10,0.0162804,10,-2.35272e-06,-5.0565,-0.0384409,-1.53482,0.523561,0.2679607,
2,1,0,1,0,18404.4,0.266777,0.266477,-0.00928659,10,0.0162502,10,-2.47467e-06,-5.03214,-0.0455089,-1.29645,0.478737,0.2664772,
2,0,0,1,0,18405.9,0.265279,0.265015,-0.00995636,10,0.0162188,10,-2.63858e-06,-5.0019,-0.0482064,-1.2239,0.4801,0.265015,
2,0,0,1,0,18407.4,0.263781,0.26346,-0.0106018,10,0.0161864,10,-2.79315e-06,-4.97462,-0.045244,-1.30404,0.549996,0.26346,
2,1,0,1,0,18408.9,0.262283,0.262001,-0.0115824,10,0.0161529,10,-3.03459e-06,-4.9362,-0.0576482,-1.02345,0.463873,0.262001,
2,0,0,1,0,18410.4,0.260784,0.260483,-0.0121904,10,0.0161181,10,-3.17539e-06,-4.91398,-0.0581173,-1.01519,0.486261,0.260483,
2,0,0,1,0,18411.9,0.259286,0.259012,-0.0128866,10,0.016082,10,-3.33777e-06,-4.88986,-0.0695081,-0.848822,0.430055,0.259012,
2,0,0,1,0,18413.4,0.257788,0.257467,-0.014143,10,0.0160449,10,-3.64134e-06,-4.84946,-0.0486438,-1.2129,0.652073,0.257467,
2,0,0,1,0,18414.9,0.25629,0.255955,-0.0148935,10,0.0160064,10,-3.81205e-06,-4.827,-0.0640548,-0.921087,0.516989,0.255955,
2,0,0,1,0,18416.4,0.254792,0.254475,-0.0148273,10,0.015967,10,-3.77319e-06,-4.82894,-0.0874859,-0.674395,0.407138,0.254475,
2,0,0,1,0,18417.9,0.253293,0.252992,-0.0160175,10,0.0159267,10,-4.0523e-06,-4.79541,-0.159183,-0.370644,0.228326,0.252992,
2,0,0,1,0,18419.4,0.251795,0.251518,-0.0163933,10,0.0158853,10,-4.12322e-06,-4.78533,-0.112869,-0.522728,0.335908,0.251518,
2,0,0,1,0,18420.9,0.250297,0.249977,-0.0169319,10,0.0158432,10,-4.2326e-06,-4.77129,-0.1072,-0.550372,0.367761,0.249977,
2,0,0,1,0,18422.4,0.248799,0.248477,-0.0177464,10,0.0157999,10,-4.40958e-06,-4.75089,-0.0960656,-0.614164,0.432899,0.2484768,
2,0,0,1,0,18423.9,0.247301,0.246996,-0.0183641,10,0.0157558,10,-4.53587e-06,-4.73603,-0.0989691,-0.596146,0.429329,0.246996,
2,0,0,1,0,18425.4,0.245802,0.245492,-0.0192929,10,0.0157106,10,-4.73624e-06,-4.7146,-0.19611,-0.300852,0.221161,0.245492,
2,0,0,1,0,18426.9,0.244304,0.243955,-0.0196611,10,0.0156645,10,-4.79643e-06,-4.70639,-0.0965131,-0.611316,0.458918,0.243955,
2,0,0,1,0,18428.4,0.242806,0.242532,-0.0202152,10,0.0156176,10,-4.90283e-06,-4.69432,-0.0867699,-0.67996,0.527623,0.242532,
2,0,0,1,0,18429.9,0.241308,0.241013,-0.0207735,10,0.0155698,10,-5.00667e-06,-4.68249,-0.102232,-0.577119,0.467483,0.241013,
2,0,0,1,0,18431.4,0.23981,0.239486,-0.0209442,10,0.0155207,10,-5.01584e-06,-4.67894,-0.135283,-0.436121,0.364958,0.239486,
2,0,0,1,0,18432.9,0.238312,0.237965,-0.0221967,10,0.0154707,10,-5.28204e-06,-4.65371,-0.131837,-0.447522,0.387995,0.237965,
2,0,0,1,0,18434.4,0.236813,0.236489,-0.0226951,10,0.0154197,10,-5.36713e-06,-4.64407,-0.1146,-0.514836,0.457663,0.236489,
2,0,0,1,0,18435.9,0.235315,0.235002,-0.0231802,10,0.015368,10,-5.4474e-06,-4.63488,-0.14109,-0.418174,0.383851,0.235002,
2,0,0,1,0,18437.4,0.233817,0.233488,-0.0238301,10,0.0153152,10,-5.56404e-06,-4.62287,-0.119687,-0.492952,0.45796,0.233488,
2,0,0,1,0,18438.9,0.232319,0.231988,-0.0246857,10,0.0152612,10,-5.7268e-06,-4.60755,-0.163568,-0.360707,0.343366,0.2319885,
2,0,0,1,0,18440.4,0.230821,0.230501,-0.0251897,10,0.0152062,10,-5.80624e-06,-4.59878,-0.149596,-0.394395,0.386085,0.2305008,
2,0,0,1,0,18441.9,0.229322,0.228998,-0.025401,10,0.0151511,10,-5.81679e-06,-4.59515,-0.41809,-0.141118,0.14124,0.228998,
2,0,0,1,0,18443.4,0.227824,0.227509,-0.0257194,10,0.0150951,10,-5.85141e-06,-4.58974,-0.134894,-0.437381,0.444524,0.227509,
2,0,0,1,0,18444.9,0.226326,0.22602,-0.0265662,10,0.0150384,10,-6.00449e-06,-4.57567,-0.333323,-0.177006,0.183001,0.22602,
2,0,0,1,0,18446.4,0.224828,0.224553,-0.0269044,10,0.0149808,10,-6.04145e-06,-4.57018,-0.188832,-0.312447,0.325496,0.2245529,
2,0,0,1,0,18447.9,0.22333,0.223017,-0.0269609,10,0.0149228,10,-6.01276e-06,-4.56927,-0.217917,-0.270745,0.290965,0.223017,
2,0,0,1,0,18449.4,0.221831,0.22151,-0.0278172,10,0.0148639,10,-6.16177e-06,-4.55569,-0.128254,-0.460023,0.506066,0.22151,
2,0,0,1,0,18450.9,0.220333,0.220006,-0.0287502,10,0.0148037,10,-6.32522e-06,-4.54136,-0.180388,-0.327072,0.361757,0.220006,
2,0,0,1,0,18452.4,0.218835,0.218521,-0.0292869,10,0.0147424,10,-6.39982e-06,-4.53333,-0.146607,-0.402437,0.463969,0.218521,
2,0,0,1,0,18453.9,0.217337,0.216971,-0.0298078,10,0.0146803,10,-6.46743e-06,-4.52567,-0.248747,-0.237188,0.274023,0.216971,
2,0,0,1,0,18455.4,0.215839,0.215556,-0.0306434,10,0.0146171,10,-6.60538e-06,-4.51366,-0.197985,-0.298003,0.355327,0.215556,
2,0,0,1,0,18456.9,0.21434,0.214005,-0.0308567,10,0.0145533,10,-6.60348e-06,-4.51065,-0.162233,-0.363674,0.441903,0.214005,
2,0,0,1,0,18458.4,0.212842,0.2125,-0.0316163,10,0.0144887,10,-6.71847e-06,-4.50009,-0.192527,-0.30645,0.380293,0.2125,
2,0,0,1,0,18459.9,0.211344,0.211054,-0.0324014,10,0.0144232,10,-6.83846e-06,-4.48944,-0.137799,-0.42816,0.538413,0.211054,
2,0,0,1,0,18461.4,0.209846,0.209537,-0.0327147,10,0.0143569,10,-6.85492e-06,-4.48526,-0.17702,-0.333296,0.427925,0.209537,
2,0,0,1,0,18462.9,0.208348,0.208057,-0.0335382,10,0.0142896,10,-6.97787e-06,-4.47446,-0.170469,-0.346104,0.447981,0.208057,
2,0,0,1,0,18464.4,0.20685,0.206528,-0.0346191,10,0.014221,10,-7.14982e-06,-4.46068,-0.155506,-0.379407,0.500975,0.206528,
2,0,0,1,0,18465.9,0.205351,0.205064,-0.0348457,10,0.0141516,10,-7.14559e-06,-4.45785,-0.265366,-0.222334,0.297759,0.2050638,
2,0,0,1,0,18467.4,0.203853,0.203545,-0.0351713,10,0.0140813,10,-7.15896e-06,-4.45381,-0.187531,-0.314615,0.431657,0.203545,
2,0,0,1,0,18468.8,0.202355,0.202042,-0.0354522,10,0.0140105,10,-7.16282e-06,-4.45036,-0.331463,-0.177999,0.248148,0.2020416,
2,0,0,1,0,18470.3,0.200857,0.200549,-0.0363238,10,0.0139383,10,-7.28469e-06,-4.43981,-0.251221,-0.234853,0.33117,0.200549,
2,0,0,1,0,18471.8,0.199359,0.19907,-0.0366506,10,0.0138655,10,-7.29606e-06,-4.43592,-0.272999,-0.216118,0.308659,0.19907,
2,0,0,1,0,18473.3,0.19786,0.197556,-0.0375957,10,0.0137918,10,-7.42726e-06,-4.42486,-0.199835,-0.295244,0.429841,0.197556,
2,0,0,1,0,18474.8,0.196362,0.196068,-0.0379168,10,0.0137173,10,-7.43429e-06,-4.42117,-0.161786,-0.364679,0.541813,0.196068,
2,0,0,1,0,18476.3,0.194864,0.194609,-0.0388539,10,0.0136415,10,-7.56133e-06,-4.41057,-0.180621,-0.32665,0.491528,0.194609,
2,0,0,1,0,18477.8,0.193366,0.193054,-0.0391507,10,0.0135645,10,-7.55819e-06,-4.40726,-0.256105,-0.230374,0.352433,0.193054,
2,0,0,1,0,18479.3,0.191868,0.191567,-0.0399306,10,0.0134866,10,-7.64938e-06,-4.39869,-0.240125,-0.245705,0.383373,0.191567,
2,0,0,1,0,18480.8,0.190369,0.190045,-0.0406521,10,0.0134079,10,-7.72573e-06,-4.39092,-0.218503,-0.270019,0.428411,0.190045,
2,0,0,1,0,18482.3,0.188871,0.188512,-0.0409809,10,0.013328,10,-7.72539e-06,-4.38742,-0.169332,-0.348429,0.562569,0.188512,
2,0,0,1,0,18483.8,0.187373,0.18709,-0.0421943,10,0.013247,10,-7.89413e-06,-4.37475,-0.17183,-0.343363,0.56592,0.18709,
2,0,0,1,0,18485.3,0.185875,0.185559,-0.0429486,10,0.0131647,10,-7.96947e-06,-4.36705,-0.177405,-0.332572,0.556601,0.185559,
2,0,0,1,0,18486.8,0.184377,0.184073,-0.0429278,10,0.0130815,10,-7.90186e-06,-4.36726,-0.218274,-0.270303,0.457855,0.184073,
2,0,0,1,0,18488.3,0.182878,0.182568,-0.0442803,10,0.0129973,10,-8.08418e-06,-4.35379,-0.168672,-0.349791,0.606151,0.182568,
2,0,0,1,0,18489.8,0.18138,0.181064,-0.044797,10,0.0129116,10,-8.11111e-06,-4.34875,-0.144251,-0.409009,0.71781,0.181064,
2,0,0,1,0,18491.3,0.179882,0.179543,-0.0461287,10,0.0128247,10,-8.28207e-06,-4.33603,-0.189182,-0.311869,0.554314,0.179543,
2,0,0,1,0,18492.8,0.178384,0.178066,-0.0465882,10,0.0127364,10,-8.29577e-06,-4.33172,-0.225348,-0.261817,0.472532,0.178066,
2,0,0,1,0,18494.3,0.176886,0.176562,-0.0474758,10,0.0126471,10,-8.38243e-06,-4.32353,-0.188091,-0.313678,0.583655,0.176562,
2,0,0,1,0,18495.8,0.175388,0.175061,-0.0484116,10,0.0125561,10,-8.47497e-06,-4.31505,-0.179915,-0.327933,0.621109,0.175061,
2,0,0,1,0,18497.3,0.173889,0.173567,-0.0493407,10,0.012464,10,-8.5639e-06,-4.30679,-0.165706,-0.356052,0.687558,0.173567,
2,0,0,1,0,18498.8,0.172391,0.172044,-0.0508117,10,0.0123698,10,-8.74184e-06,-4.29404,-0.132233,-0.446181,0.879899,0.172044,
2,0,0,1,0,18500.3,0.170893,0.170564,-0.0525695,10,0.012274,10,-8.9665e-06,-4.27927,-0.164637,-0.358364,0.720695,0.170564,
2,0,0,1,0,18501.8,0.169395,0.169075,-0.052868,10,0.0121762,10,-8.93864e-06,-4.27681,-0.153877,-0.383422,0.790388,0.169075,
2,0,0,1,0,18503.3,0.167897,0.167599,-0.0543872,10,0.0120765,10,-9.11521e-06,-4.2645,-0.155649,-0.379059,0.801991,0.167599,
2,0,0,1,0,18504.8,0.166398,0.166085,-0.0554436,10,0.0119751,10,-9.20836e-06,-4.25615,-0.139412,-0.423205,0.920602,0.166085,
2,0,0,1,0,18506.3,0.1649,0.164556,-0.0569848,10,0.0118717,10,-9.3772e-06,-4.24424,-0.140639,-0.419513,0.935222,0.164556,
2,0,0,1,0,18507.8,0.163402,0.163124,-0.0580962,10,0.0117659,10,-9.47686e-06,-4.23585,-0.118766,-0.496776,1.13346,0.163124,
2,0,0,1,0,18509.3,0.161904,0.161616,-0.0600061,10,0.0116575,10,-9.69792e-06,-4.2218,-0.125568,-0.469864,1.09981,0.161616,
2,0,0,1,0,18510.8,0.160406,0.160058,-0.0618725,10,0.0115466,10,-9.90318e-06,-4.2085,-0.127301,-0.463469,1.11612,0.160058,
2,0,0,1,0,18512.3,0.158907,0.158553,-0.0628304,10,0.0114329,10,-9.96196e-06,-4.20183,-0.115882,-0.509137,1.26444,0.158553,
2,0,0,1,0,18513.8,0.157409,0.157091,-0.0651925,10,0.0113164,10,-1.02412e-05,-4.1858,-0.0999557,-0.590261,1.51756,0.157091,
2,0,0,1,0,18515.3,0.155911,0.155601,-0.0684051,10,0.0111961,10,-1.06439e-05,-4.16491,-0.109643,-0.538109,1.42705,0.155601,
2,0,0,1,0,18516.8,0.154413,0.154076,-0.0700461,10,0.0110721,10,-1.07924e-05,-4.15462,-0.104979,-0.562017,1.54352,0.154076,
2,0,0,1,0,18518.3,0.152915,0.152592,-0.0727544,10,0.0109444,10,-1.11017e-05,-4.13814,-0.0931012,-0.633719,1.81168,0.152592,
2,0,0,1,0,18519.8,0.151417,0.151112,-0.0752187,10,0.0108128,10,-1.13665e-05,-4.12367,-0.0901725,-0.654301,1.94392,0.151112,
2,0,0,1,0,18521.3,0.149918,0.149601,-0.0789906,10,0.0106763,10,-1.18171e-05,-4.10242,-0.0819383,-0.720054,2.22311,0.149601,
2,0,0,1,0,18522.8,0.14842,0.148144,-0.0826257,10,0.0105345,10,-1.22405e-05,-4.08289,-0.0755149,-0.781302,2.51911,0.148144,
2,0,0,1,0,18524.3,0.146922,0.146594,-0.0861521,10,0.0103871,10,-1.26294e-05,-4.06473,-0.0738358,-0.79907,2.69332,0.146594,
2,0,0,1,0,18525.8,0.145424,0.145081,-0.0904752,10,0.0102339,10,-1.31262e-05,-4.04347,-0.0657735,-0.897017,3.17057,0.145081,
2,0,0,1,0,18527.3,0.143926,0.143626,-0.0947993,10,0.0100737,10,-1.36157e-05,-4.02319,-0.0649088,-0.908967,3.36752,0.143626,
2,0,0,1,0,18528.8,0.142427,0.142131,-0.100134,10,0.00990591,10,-1.42321e-05,-3.99942,-0.0656142,-0.899195,3.50765,0.142131,
2,0,0,1,0,18530.3,0.140929,0.140605,-0.104809,10,0.00973013,10,-1.47367e-05,-3.9796,-0.0687528,-0.858147,3.53819,0.140605,
2,0,0,1,0,18531.8,0.139431,0.139158,-0.109979,10,0.00954706,10,-1.53046e-05,-3.95869,-0.0739636,-0.797689,3.4563,0.139158,
2,0,0,1,0,18533.3,0.137933,0.137613,-0.116439,10,0.00935557,10,-1.60235e-05,-3.9339,-0.0730981,-0.807134,3.63943,0.137613,
2,0,0,1,0,18534.8,0.136435,0.136138,-0.121943,10,0.00915565,10,-1.66011e-05,-3.91384,-0.0753021,-0.783511,3.70249,0.136138,
2,0,0,1,0,18536.3,0.134936,0.134605,-0.126367,10,0.00894802,10,-1.70096e-05,-3.89837,-0.0924744,-0.638015,3.14161,0.134605,
2,0,0,1,0,18537.8,0.133438,0.133113,-0.130916,10,0.008733,10,-1.74267e-05,-3.88301,-0.0985812,-0.598492,3.06074,0.133113,
2,0,0,1,0,18539.3,0.13194,0.131636,-0.135765,10,0.00851125,10,-1.78715e-05,-3.86721,-0.102395,-0.576202,3.05429,0.131636,
2,0,0,1,0,18540.8,0.130442,0.130139,-0.139446,10,0.00828292,10,-1.81474e-05,-3.85559,-0.128036,-0.460807,2.50419,0.130139,
2,0,0,1,0,18542.3,0.128944,0.128637,-0.142931,10,0.00804854,10,-1.83862e-05,-3.84487,-0.183931,-0.320772,1.77745,0.128637,
2,0,0,1,0,18543.8,0.127445,0.127127,-0.145796,10,0.00781023,10,-1.85347e-05,-3.83625,-0.213281,-0.276631,1.56765,0.127127,
2,0,0,1,0,18545.3,0.125947,0.125629,-0.147685,10,0.00756919,10,-1.85534e-05,-3.83067,-0.281075,-0.209908,1.20377,0.125629,
2,0,0,1,0,18546.8,0.124449,0.124096,-0.149336,10,0.00732468,10,-1.85321e-05,-3.82583,-0.463708,-0.127235,0.736254,0.1240964,
2,0,0,1,0,18548.3,0.122951,0.122615,-0.150434,10,0.00707834,10,-1.84455e-05,-3.82265,-0.60753,-0.0971146,0.567867,0.122615,
2,0,0,1,0,18549.8,0.121453,0.121152,-0.150517,10,0.00683139,10,-1.82353e-05,-3.82242,-1.59075,-0.0370894,0.217737,0.121152,
2,0,0,1,0,18551.2,0.119955,0.119689,-0.150009,10,0.00658444,10,-1.79545e-05,-3.82388,-19.4265,-0.00303709,0.0178301,0.119689,
2,0,0,1,0,18552.7,0.118456,0.118188,-0.150241,10,0.00633707,10,-1.77566e-05,-3.82321,-7.52063,-0.00784509,0.0458377,0.1181878,
2,0,0,1,0,18554.2,0.116958,0.11662,-0.150096,10,0.00608986,10,-1.75041e-05,-3.82363,5.95028,0.00991549,-0.0581155,0.11662,
2,0,0,1,0,18555.7,0.11546,0.11514,-0.149873,10,0.00584344,10,-1.72564e-05,-3.82428,0.642753,0.0917927,-0.536029,0.11514,
2,0,0,1,0,18557.2,0.113962,0.113623,-0.148107,10,0.00559818,10,-1.68284e-05,-3.82942,1.18168,0.0499291,-0.290041,0.113623,
2,0,0,1,0,18558.7,0.112464,0.112164,-0.14818,10,0.00535402,10,-1.66204e-05,-3.82921,0.888231,0.0664242,-0.385085,0.112164,
2,0,0,1,0,18560.2,0.110965,0.110581,-0.148031,10,0.00511018,10,-1.63694e-05,-3.82965,1.36858,0.0431103,-0.247776,0.110581,
2,0,0,1,0,18561.7,0.109467,0.109128,-0.147046,10,0.00486724,10,-1.60468e-05,-3.83255,0.577967,0.102082,-0.585276,0.109128,
2,0,0,1,0,18563.2,0.107969,0.107629,-0.146032,10,0.00462557,10,-1.57173e-05,-3.83555,0.560493,0.105265,-0.601383,0.1076294,
2,0,0,1,0,18564.7,0.106471,0.106135,-0.146315,10,0.00438519,10,-1.55292e-05,-3.83471,0.734912,0.0802817,-0.457609,0.106135,
2,0,0,1,0,18566.2,0.104973,0.104633,-0.14489,10,0.00414601,10,-1.51603e-05,-3.83896,0.648051,0.0910422,-0.514797,0.104633,
2,0,0,1,0,18567.7,0.103474,0.10312,-0.144024,10,0.00390733,10,-1.48519e-05,-3.84156,0.569144,0.103664,-0.580856,0.10312,
2,0,0,1,0,18569.2,0.101976,0.101679,-0.143252,10,0.00367072,10,-1.45657e-05,-3.8439,0.453183,0.13019,-0.727145,0.101679,
2,0,0,1,0,18570.7,0.100478,0.100157,-0.142455,10,0.00343584,10,-1.42678e-05,-3.84632,0.544495,0.108357,-0.600015,0.100157,
2,0,0,1,0,18572.2,0.0989798,0.0986381,-0.141235,10,0.0032022,10,-1.39312e-05,-3.85006,0.55904,0.105538,-0.579219,0.09863814,
2,0,0,1,0,18573.7,0.0974816,0.0971737,-0.139884,10,0.00297016,10,-1.3593e-05,-3.85423,0.432415,0.136443,-0.743493,0.0971737,
2,0,0,1,0,18575.2,0.0959834,0.0956276,-0.1385,10,0.00274011,10,-1.32444e-05,-3.85855,0.45657,0.129224,-0.699302,0.0956276,
2,0,0,1,0,18576.7,0.0944852,0.0941738,-0.136838,10,0.00251258,10,-1.28865e-05,-3.86379,0.465039,0.126871,-0.681935,0.0941738,
2,0,0,1,0,18578.2,0.0929871,0.0926182,-0.136366,10,0.00228622,10,-1.263e-05,-3.86529,0.518943,0.113693,-0.60267,0.0926182,
2,0,0,1,0,18579.7,0.0914889,0.0911782,-0.135014,10,0.00206139,10,-1.23104e-05,-3.86962,0.334648,0.176305,-0.926613,0.0911782,
2,0,0,1,0,18581.2,0.0899907,0.0896502,-0.133536,10,0.0018391,10,-1.19716e-05,-3.8744,0.389533,0.151463,-0.789978,0.0896502,
2,0,0,1,0,18582.7,0.0884925,0.0882048,-0.131563,10,0.0016189,10,-1.16045e-05,-3.88087,0.505344,0.116752,-0.602377,0.0882048,
2,0,0,1,0,18584.2,0.0869943,0.0867107,-0.131597,10,0.00140005,10,-1.14108e-05,-3.88076,0.521088,0.113225,-0.579549,0.0867107,
2,0,0,1,0,18585.7,0.0854961,0.085207,-0.130311,10,0.00118244,10,-1.11034e-05,-3.88502,0.419154,0.14076,-0.71459,0.085207,
2,0,0,1,0,18587.2,0.083998,0.0836971,-0.128762,10,0.000966749,10,-1.0777e-05,-3.89021,0.305794,0.19294,-0.973051,0.0836971,
2,0,0,1,0,18588.7,0.0824998,0.0821574,-0.128232,10,0.000752795,10,-1.05352e-05,-3.892,0.503221,0.117245,-0.588,0.0821574,
2,0,0,1,0,18590.2,0.0810016,0.0807195,-0.127762,10,0.000540311,10,-1.03129e-05,-3.8936,0.491439,0.120056,-0.599195,0.0807195,
2,0,0,1,0,18591.7,0.0795034,0.079202,-0.126449,10,0.000328788,10,-1.00151e-05,-3.89808,0.35795,0.164828,-0.815198,0.079202,
2,0,0,1,0,18593.2,0.0780052,0.0776666,-0.125975,10,0.000118498,10,-9.78406e-06,-3.89972,0.386508,0.152649,-0.747288,0.0776666,
2,0,0,1,0,18594.7,0.076507,0.0761395,-0.124954,10,-9.03985e-05,10,-9.51396e-06,-3.90325,0.424615,0.138949,-0.676332,0.0761395,
2,0,0,1,0,18596.2,0.0750088,0.0746486,-0.124108,10,-0.000297381,10,-9.26446e-06,-3.9062,0.476931,0.123708,-0.598078,0.0746486,
2,0,0,1,0,18597.7,0.0735106,0.0731619,-0.123206,10,-0.000503541,10,-9.01396e-06,-3.90937,0.595328,0.099105,-0.476747,0.0731619,
2,0,0,1,0,18599.2,0.0720124,0.0716858,-0.122615,10,-0.000708708,10,-8.78973e-06,-3.91146,0.776738,0.0759587,-0.36386,0.0716858,
2,0,0,1,0,18600.7,0.0705142,0.0701886,-0.122016,10,-0.000912812,10,-8.56413e-06,-3.91358,1.02648,0.0574777,-0.274686,0.0701886,
2,0,0,1,0,18602.2,0.069016,0.0687103,-0.121338,10,-0.00111598,10,-8.33717e-06,-3.916,0.798829,0.0738581,-0.349536,0.06871026,
2,0,0,1,0,18603.7,0.0675178,0.0671981,-0.120553,10,-0.00131838,10,-8.10091e-06,-3.91882,0.745703,0.07912,-0.372293,0.0671981,
2,0,0,1,0,18605.2,0.0660196,0.0657231,-0.120696,10,-0.00152009,10,-7.93251e-06,-3.91831,0.528568,0.111622,-0.52219,0.0657231,
2,0,0,1,0,18606.7,0.0645214,0.0641971,-0.119844,10,-0.00172068,10,-7.69362e-06,-3.92138,0.525896,0.11219,-0.522687,0.0641971,
2,0,0,1,0,18608.2,0.0630233,0.0627254,-0.118049,10,-0.00191983,10,-7.40467e-06,-3.92794,0.551847,0.106914,-0.49512,0.0627254,
2,0,0,1,0,18609.7,0.0615251,0.0611952,-0.118175,10,-0.00211807,10,-7.23174e-06,-3.92747,0.69072,0.0854181,-0.394435,0.0611952,
2,0,0,1,0,18611.2,0.0600269,0.0596757,-0.11806,10,-0.00231565,10,-7.04532e-06,-3.9279,0.822228,0.0717562,-0.329682,0.0596757,
2,0,0,1,0,18612.7,0.0585287,0.0581752,-0.117497,10,-0.00251259,10,-6.83542e-06,-3.92997,0.464948,0.126896,-0.580768,0.0581752,
2,0,0,1,0,18614.2,0.0570305,0.0566874,-0.11656,10,-0.00270891,10,-6.60748e-06,-3.93345,0.791337,0.0745573,-0.340416,0.0566874,
2,0,0,1,0,18615.7,0.0555323,0.0551732,-0.116425,10,-0.00290385,10,-6.42353e-06,-3.93395,1.45466,0.0405593,-0.184645,0.0551732,
2,0,0,1,0,18617.2,0.0540342,0.0537195,-0.116105,10,-0.00309885,10,-6.23709e-06,-3.93515,0.828058,0.071251,-0.321833,0.05371945,
2,0,0,1,0,18618.7,0.052536,0.0522073,-0.11578,10,-0.00329341,10,-6.04456e-06,-3.93637,0.759122,0.0777213,-0.349709,0.0522073,
2,0,0,1,0,18620.2,0.0510378,0.0507312,-0.115319,10,-0.00348661,10,-5.85025e-06,-3.9381,0.560597,0.105245,-0.471265,0.0507312,
2,0,0,1,0,18621.7,0.0495396,0.0492371,-0.113747,10,-0.0036784,10,-5.60057e-06,-3.94406,0.690687,0.0854222,-0.379909,0.0492371,
2,0,0,1,0,18623.2,0.0480414,0.0477165,-0.113423,10,-0.00386953,10,-5.41215e-06,-3.9453,0.820882,0.071874,-0.317807,0.04771645,
2,0,0,1,0,18624.7,0.0465432,0.0462202,-0.112345,10,-0.00405957,10,-5.19261e-06,-3.94945,1.60524,0.0367546,-0.162195,0.0462202,
2,0,0,1,0,18626.2,0.045045,0.0447208,-0.112037,10,-0.00424898,10,-5.01038e-06,-3.95064,0.669752,0.0880923,-0.386346,0.0447208,
2,0,0,1,0,18627.7,0.0435468,0.0432097,-0.111737,10,-0.00443736,10,-4.82813e-06,-3.9518,0.629753,0.0936875,-0.409078,0.0432097,
2,0,0,1,0,18629.2,0.0420486,0.0417537,-0.111559,10,-0.0046253,10,-4.65801e-06,-3.95249,0.913962,0.0645541,-0.279912,0.0417537,
2,0,0,1,0,18630.7,0.0405504,0.0401971,-0.1111,10,-0.00481223,10,-4.46587e-06,-3.95429,0.547356,0.107791,-0.465534,0.0401971,
2,0,0,1,0,18632.2,0.0390522,0.0387263,-0.110342,10,-0.00499828,10,-4.27314e-06,-3.95726,0.477783,0.123487,-0.529859,0.0387263,
2,0,0,1,0,18633.6,0.037554,0.0371844,-0.109063,10,-0.00518303,10,-4.05545e-06,-3.96232,0.700751,0.0841954,-0.360228,0.0371844,
2,0,0,1,0,18635.1,0.0360558,0.0357051,-0.109675,10,-0.00536687,10,-3.91595e-06,-3.95989,1.06808,0.0552392,-0.236103,0.0357051,
2,0,0,1,0,18636.6,0.0345576,0.0342629,-0.108259,10,-0.00555048,10,-3.70928e-06,-3.96554,0.431418,0.136758,-0.578488,0.0342629,
2,0,0,1,0,18638.1,0.0330594,0.0327582,-0.108015,10,-0.00573333,10,-3.53839e-06,-3.96651,0.453284,0.130161,-0.549583,0.0327582,
2,0,0,1,0,18639.6,0.0315613,0.0312462,-0.107337,10,-0.00591497,10,-3.35388e-06,-3.96925,0.71692,0.0822965,-0.345898,0.0312462,
2,0,0,1,0,18641.1,0.0300631,0.0297785,-0.107275,10,-0.00609567,10,-3.1945e-06,-3.9695,0.695523,0.0848283,-0.35533,0.0297785,
2,0,0,1,0,18642.6,0.0285649,0.0282526,-0.106857,10,-0.00627598,10,-3.01898e-06,-3.9712,0.745384,0.0791539,-0.329058,0.0282526,
2,0,0,1,0,18644.1,0.0270667,0.0267818,-0.105962,10,-0.00645574,10,-2.83786e-06,-3.97485,0.519034,0.113673,-0.469004,0.02678185,
2,0,0,1,0,18645.6,0.0255685,0.0252591,-0.105477,10,-0.00663438,10,-2.66426e-06,-3.97684,0.589024,0.100166,-0.413143,0.0252591,
2,0,0,1,0,18647.1,0.0240703,0.0237904,-0.105031,10,-0.00681178,10,-2.49873e-06,-3.97868,2.04615,0.0288347,-0.118382,0.0237904,
2,0,0,1,0,18648.6,0.0225722,0.0222996,-0.104888,10,-0.00698894,10,-2.33896e-06,-3.97927,-1.34566,-0.0438448,0.17925,0.0222996,
2,0,0,1,0,18650.1,0.021074,0.0207291,-0.105031,10,-0.00716616,10,-2.1772e-06,-3.97868,0.809136,0.0729173,-0.297512,0.0207291,
2,0,0,1,0,18651.6,0.0195758,0.0192435,-0.104763,10,-0.00734321,10,-2.016e-06,-3.97979,2.57398,0.0229217,-0.0937548,0.0192435,
2,0,0,1,0,18653.1,0.0180776,0.0177356,-0.103983,10,-0.00751942,10,-1.8442e-06,-3.98304,2.90147,0.0203345,-0.08288,0.0177356,
2,0,0,1,0,18654.6,0.0165794,0.0162987,-0.10451,10,-0.00769552,10,-1.70338e-06,-3.98084,1.97255,0.0299106,-0.121966,0.0162987,
2,0,0,1,0,18656.1,0.0150812,0.0147113,-0.104978,10,-0.00787209,10,-1.54436e-06,-3.9789,-4.33738,-0.0136027,0.0555296,0.0147113,
2,0,0,1,0,18657.6,0.013583,0.013215,-0.104393,10,-0.00804881,10,-1.37955e-06,-3.98133,-9.07372,-0.0065023,0.0265263,0.013215,
2,0,0,1,0,18659.1,0.0120848,0.0117506,-0.104245,10,-0.00822544,10,-1.22493e-06,-3.98195,-3.25995,-0.0180984,0.0742511,0.0117506,
2,0,0,1,0,18660.6,0.0105866,0.0102713,-0.104823,10,-0.00840211,10,-1.07666e-06,-3.97954,-1.61968,-0.0364269,0.149606,0.01027128,
2,0,0,1,0,18662.1,0.00908843,0.00876341,-0.104996,10,-0.00857919,10,-9.20123e-07,-3.97883,-2.11185,-0.0279375,0.115111,0.00876341,
2,0,0,1,0,18663.6,0.00759024,0.00724703,-0.105618,10,-0.00875672,10,-7.65417e-07,-3.97626,-1.13113,-0.0521601,0.215161,0.00724703,
2,0,0,1,0,18665.1,0.00609203,0.00578151,-0.106256,10,-0.00893468,10,-6.14321e-07,-3.97365,-0.53816,-0.109633,0.454371,0.00578151,
2,0,0,1,0,18666.6,0.00459384,0.00429589,-0.106409,10,-0.00911337,10,-4.57121e-07,-3.97302,-0.702902,-0.0839378,0.348263,0.00429589,
2,0,0,1,0,18668.1,0.00309563,0.00277098,-0.107653,10,-0.00929342,10,-2.98305e-07,-3.96797,-0.438997,-0.134397,0.563585,0.00277098,
2,0,0,1,0,18669.6,0.00159744,0.00123448,-0.108379,10,-0.00947651,10,-1.33791e-07,-3.96505, , , ,0.00123448,
2,0,0,1,0,18671,0.000199235,-0.000172587,-0.108672,10,-0.00964643,10,1.87554e-08,-3.96388, , , ,-0.000172587,