File: Figure_codes/Fig_3-5/rawdata_trumpetplot_data/after 10th/20221101_1-115_003_TrumpetPlot_ParaChange_from10_every3_04_CV_C01_5.csv
mode,ox/red,error,control changes,counter inc.,time/s,control/V,Ewe/V,<I>/mA,cycle number,(Q-Qo)/C,I Range,P/W,log(|I|),Tafel slope mV/dec,alpha_eff,dI/d(E-IR),E-IR/V,
2,0,0,1,0,10910.7,2.44065e-05,-0.000382585,-0.37734,6,0.0000000E+000,10,1.44365e-07,-3.42327, , , ,-0.000382585,
2,1,0,1,0,10910.8,0.00129787,0.000912171,0.203381,6,6.49942e-06,10,1.85518e-07,-3.69169, , , ,0.000912171,
2,1,0,1,0,10910.9,0.00279606,0.00246779,0.311995,6,4.95795e-05,10,7.69937e-07,-3.50585,0.00814557,7.24321,58.6746,0.00246779,
2,1,0,1,0,10911.1,0.00429425,0.00398735,0.339268,6,0.000100972,10,1.35278e-06,-3.46946,0.0410576,1.43701,18.7651,0.00398735,
2,1,0,1,0,10911.2,0.00579244,0.00546874,0.362168,6,0.000156391,10,1.9806e-06,-3.44109,0.0518837,1.13716,15.991,0.00546874,
2,1,0,1,0,10911.4,0.00729063,0.00696921,0.386266,6,0.000215374,10,2.69197e-06,-3.41311,0.0668398,0.882707,13.1628,0.00696921,
2,1,0,1,0,10911.5,0.00878882,0.00847075,0.404546,6,0.000277393,10,3.42681e-06,-3.39303,0.0830886,0.710086,11.1082,0.00847075,
2,1,0,1,0,10911.7,0.010287,0.00996062,0.421628,6,0.000341869,10,4.19968e-06,-3.37507,0.104963,0.562103,9.17925,0.00996062,
2,1,0,1,0,10911.8,0.0117852,0.0114823,0.432954,6,0.000408498,10,4.97131e-06,-3.36356,0.108655,0.543004,9.16986,0.0114823,
2,1,0,1,0,10912,0.0132838,0.0129313,0.447057,6,0.000477002,10,5.78104e-06,-3.34964,0.1123,0.525381,9.2004,0.01293133,
2,1,0,1,0,10912.1,0.0147814,0.0144903,0.459589,6,0.000547582,10,6.65959e-06,-3.33763,0.120415,0.489971,8.7974,0.0144903,
2,1,0,1,0,10912.3,0.0162789,0.0159826,0.472455,6,0.000620276,10,7.55104e-06,-3.32564,0.147704,0.399446,7.33357,0.0159826,
2,1,0,1,0,10912.4,0.017778,0.0174492,0.482449,6,0.000694542,10,8.41835e-06,-3.31655,0.151212,0.390181,7.36357,0.0174492,
2,1,0,1,0,10912.6,0.0192761,0.0189571,0.494059,6,0.000770107,10,9.36593e-06,-3.30622,0.148283,0.397888,7.67402,0.0189571,
2,1,0,1,0,10912.7,0.0207743,0.0204194,0.506756,6,0.000847619,10,1.03477e-05,-3.2952,0.145424,0.405709,7.97102,0.0204194,
2,1,0,1,0,10912.9,0.0222725,0.0219655,0.517139,6,0.000926854,10,1.13592e-05,-3.28639,0.161089,0.366257,7.38828,0.0219655,
2,1,0,1,0,10913,0.0237707,0.0234511,0.527274,6,0.00100768,10,1.23652e-05,-3.27796,0.172536,0.341958,7.03744,0.0234511,
2,1,0,1,0,10913.2,0.0252689,0.0249526,0.53708,6,0.00108991,10,1.34016e-05,-3.26996,0.17043,0.346183,7.28412,0.0249526,
2,1,0,1,0,10913.3,0.0267671,0.0264892,0.549497,6,0.00117388,10,1.45557e-05,-3.26003,0.161495,0.365336,7.81023,0.0264892,
2,1,0,1,0,10913.5,0.0282662,0.0279385,0.559004,6,0.00125953,10,1.56177e-05,-3.25258,0.181439,0.325178,7.11267,0.02793848,
2,1,0,1,0,10913.6,0.0297635,0.0294243,0.569235,6,0.00134677,10,1.67494e-05,-3.24471,0.189775,0.310895,6.90228,0.0294243,
2,1,0,1,0,10913.8,0.031261,0.0309123,0.576865,6,0.00143539,10,1.78323e-05,-3.23893,0.180656,0.326587,7.4016,0.0309123,
2,1,0,1,0,10913.9,0.0327599,0.0324137,0.590265,6,0.00152572,10,1.91326e-05,-3.22895,0.193599,0.304753,7.01785,0.0324137,
2,1,0,1,0,10914.1,0.034258,0.0339173,0.601036,6,0.00161774,10,2.03855e-05,-3.2211,0.199164,0.296239,6.95934,0.0339173,
2,1,0,1,0,10914.2,0.0357562,0.0354284,0.612791,6,0.00171143,10,2.17102e-05,-3.21269,0.229616,0.256951,6.13418,0.0354284,
2,1,0,1,0,10914.4,0.0372544,0.0369066,0.621913,6,0.00180671,10,2.29527e-05,-3.20627,0.213892,0.27584,6.71493,0.0369066,
2,1,0,1,0,10914.5,0.0387526,0.0383891,0.633494,6,0.00190336,10,2.43192e-05,-3.19826,0.196579,0.300134,7.44225,0.0383891,
2,1,0,1,0,10914.7,0.0402508,0.0399309,0.644001,6,0.00200186,10,2.57155e-05,-3.19111,0.198764,0.296835,7.47515,0.0399309,
2,1,0,1,0,10914.8,0.041749,0.0414218,0.658196,6,0.00210221,10,2.72637e-05,-3.18164,0.235095,0.250962,6.42607,0.0414218,
2,1,0,1,0,10915,0.0432472,0.042952,0.669636,6,0.00220404,10,2.87622e-05,-3.17416,0.232968,0.253253,6.58502,0.042952,
2,1,0,1,0,10915.1,0.0447458,0.0444653,0.678132,6,0.00230724,10,3.01534e-05,-3.16869,0.245882,0.239952,6.33667,0.0444653,
2,1,0,1,0,10915.3,0.0462433,0.0459154,0.685154,6,0.00241202,10,3.14591e-05,-3.16421,0.190297,0.310042,8.29939,0.0459154,
2,1,0,1,0,10915.4,0.0477409,0.0474225,0.697736,6,0.00251831,10,3.30884e-05,-3.15631,0.239885,0.245951,6.70398,0.0474225,
2,1,0,1,0,10915.6,0.0492399,0.0489454,0.706317,6,0.00262625,10,3.4571e-05,-3.151,0.254517,0.231811,6.39406,0.0489454,
2,1,0,1,0,10915.7,0.0507381,0.0504321,0.713063,6,0.00273539,10,3.59613e-05,-3.14687,0.266591,0.221313,6.18898,0.05043209,
2,1,0,1,0,10915.9,0.0522363,0.0518997,0.726805,6,0.00284597,10,3.7721e-05,-3.13858,0.220407,0.267686,7.57511,0.0518997,
2,1,0,1,0,10916,0.0537345,0.053414,0.737067,6,0.00295821,10,3.93697e-05,-3.13249,0.285491,0.206661,5.93421,0.053414,
2,1,0,1,0,10916.2,0.0552327,0.054907,0.745421,6,0.00307199,10,4.09288e-05,-3.1276,0.287494,0.205222,5.95029,0.054907,
2,1,0,1,0,10916.3,0.0567309,0.056399,0.752135,6,0.00318698,10,4.24197e-05,-3.1237,0.298837,0.197432,5.8191,0.056399,
2,1,0,1,0,10916.5,0.0582291,0.0579069,0.762886,6,0.00330308,10,4.41763e-05,-3.11754,0.315999,0.186709,5.55895,0.0579069,
2,1,0,1,0,10916.6,0.0597282,0.0593967,0.774619,6,0.00342089,10,4.60098e-05,-3.11091,0.265745,0.222017,6.69258,0.05939668,
2,1,0,1,0,10916.8,0.0612255,0.06091,0.782049,6,0.00353994,10,4.76346e-05,-3.10677,0.372321,0.158465,4.81971,0.06091,
2,1,0,1,0,10916.9,0.062723,0.0624204,0.790291,6,0.00366039,10,4.93303e-05,-3.10221,0.296845,0.198757,6.1357,0.0624204,
2,1,0,1,0,10917.1,0.0642218,0.0638579,0.797847,6,0.00378175,10,5.09488e-05,-3.09808,0.280695,0.210193,6.55549,0.0638579,
2,1,0,1,0,10917.2,0.06572,0.0654178,0.808294,6,0.00390467,10,5.28768e-05,-3.09243,0.298009,0.19798,6.22066,0.0654178,
2,1,0,1,0,10917.4,0.0672182,0.0669151,0.816672,6,0.00402903,10,5.46476e-05,-3.08795,0.365988,0.161207,5.11475,0.06691505,
2,1,0,1,0,10917.5,0.0687164,0.0683816,0.822004,6,0.00415421,10,5.621e-05,-3.08513,0.447169,0.131941,4.23768,0.0683816,
2,1,0,1,0,10917.7,0.0702146,0.069898,0.828668,6,0.00428024,10,5.79222e-05,-3.08162,0.372308,0.158471,5.12861,0.069898,
2,1,0,1,0,10917.8,0.0717128,0.0714292,0.837248,6,0.00440771,10,5.9804e-05,-3.07715,0.339576,0.173746,5.67123,0.0714292,
2,1,0,1,0,10918,0.073211,0.072935,0.842976,6,0.00453633,10,6.14824e-05,-3.07419,0.40193,0.146792,4.84458,0.072935,
2,1,0,1,0,10918.1,0.0747092,0.0743814,0.852313,6,0.00466604,10,6.33962e-05,-3.0694,0.474205,0.124419,4.13085,0.0743814,
2,1,0,1,0,10918.3,0.0762078,0.0758972,0.855242,6,0.00479666,10,6.49105e-05,-3.06791,0.463771,0.127218,4.26121,0.0758972,
2,1,0,1,0,10918.4,0.0777053,0.0773631,0.864664,6,0.00492813,10,6.68931e-05,-3.06315,0.370686,0.159164,5.36407,0.0773631,
2,1,0,1,0,10918.6,0.0792029,0.0788917,0.873646,6,0.00506093,10,6.89234e-05,-3.05866,0.408888,0.144294,4.90339,0.0788917,
2,1,0,1,0,10918.7,0.0807019,0.0803812,0.879541,6,0.00519491,10,7.06986e-05,-3.05574,0.46071,0.128063,4.38276,0.0803812,
2,1,0,1,0,10918.9,0.0822001,0.0818975,0.882183,6,0.00532981,10,7.22486e-05,-3.05444,0.447142,0.131949,4.557,0.0818975,
2,1,0,1,0,10919,0.0836983,0.0834054,0.892398,6,0.00546544,10,7.44308e-05,-3.04944,0.415791,0.141898,4.94911,0.0834054,
2,1,0,1,0,10919.2,0.0851965,0.0848921,0.901437,6,0.00560247,10,7.65249e-05,-3.04506,0.35938,0.164172,5.77691,0.0848921,
2,1,0,1,0,10919.3,0.0866947,0.0863894,0.908675,6,0.00574077,10,7.84999e-05,-3.04159,0.482066,0.12239,4.33617,0.0863894,
2,1,0,1,0,10919.5,0.0881929,0.0878782,0.9198,6,0.00588043,10,8.08304e-05,-3.03631,0.356633,0.165436,5.93843,0.0878782,
2,1,0,1,0,10919.6,0.0896911,0.0893522,0.929131,6,0.00602101,10,8.30199e-05,-3.03192,0.295177,0.19988,7.25647,0.0893522,
2,1,0,1,0,10919.8,0.0911902,0.0908641,0.941479,6,0.00616365,10,8.55466e-05,-3.02619,0.245661,0.240169,8.80372,0.0908641,
2,1,0,1,0,10919.9,0.0926875,0.0924005,0.954268,6,0.00630812,10,8.81748e-05,-3.02033,0.265952,0.221844,8.24248,0.0924005,
2,1,0,1,0,10920.1,0.094185,0.0938903,0.966854,6,0.00645449,10,9.07782e-05,-3.01464,0.244437,0.241371,9.10462,0.09389028,
2,1,0,1,0,10920.2,0.0956838,0.0953615,0.976825,6,0.00660253,10,9.31515e-05,-3.01018,0.228895,0.25776,9.86028,0.0953615,
2,1,0,1,0,10920.4,0.097182,0.096897,0.992737,6,0.00675291,10,9.61933e-05,-3.00317,0.195669,0.301529,11.6833,0.096897,
2,1,0,1,0,10920.5,0.0986802,0.098355,1.01207,6,0.00690588,10,9.95418e-05,-2.99479,0.199416,0.295864,11.6761,0.09835504,
2,1,0,1,0,10920.7,0.100178,0.0998534,1.02737,6,0.00706137,10,0.000102587,-2.98827,0.207256,0.284672,11.4293,0.0998534,
2,1,0,1,0,10920.8,0.101677,0.101325,1.0429,6,0.00721934,10,0.000105673,-2.98176,0.198621,0.297048,12.1386,0.101325,
2,1,0,1,0,10921,0.103175,0.10284,1.0672,6,0.00738005,10,0.00010975,-2.97175,0.193529,0.304864,12.6913,0.10284,
2,1,0,1,0,10921.1,0.104673,0.104363,1.08703,6,0.00754391,10,0.000113446,-2.96376,0.190303,0.310032,13.1114,0.104363,
2,1,0,1,0,10921.3,0.106171,0.105872,1.1068,6,0.00771063,10,0.000117179,-2.95593,0.219681,0.268571,11.5536,0.105872,
2,1,0,1,0,10921.4,0.10767,0.10737,1.11856,6,0.00788021,10,0.0001201,-2.95134,0.210053,0.280881,12.2892,0.1073704,
2,1,0,1,0,10921.6,0.109167,0.108853,1.13851,6,0.008052,10,0.000123929,-2.94366,0.213462,0.276396,12.306,0.108853,
2,1,0,1,0,10921.7,0.110665,0.110297,1.15479,6,0.00822663,10,0.00012737,-2.9375,0.236062,0.249934,11.2715,0.110297,
2,1,0,1,0,10921.9,0.112164,0.11184,1.16896,6,0.00840394,10,0.000130737,-2.9322,0.296765,0.19881,9.07038,0.11184,
2,1,0,1,0,10922,0.113662,0.113379,1.18717,6,0.00858322,10,0.0001346,-2.92549,0.318777,0.185082,8.55374,0.113379,
2,1,0,1,0,10922.2,0.11516,0.114834,1.19965,6,0.00876425,10,0.00013776,-2.92095,0.316329,0.186515,8.72544,0.114834,
2,1,0,1,0,10922.3,0.116658,0.116335,1.21193,6,0.00894739,10,0.00014099,-2.91652,0.312441,0.188836,8.92168,0.1163353,
2,1,0,1,0,10922.5,0.118157,0.117819,1.22571,6,0.0091328,10,0.000144412,-2.91161,0.325923,0.181024,8.63678,0.1178188,
2,1,0,1,0,10922.6,0.119655,0.11935,1.23665,6,0.00931988,10,0.000147595,-2.90775,0.471893,0.125028,6.03393,0.11935,
2,1,0,1,0,10922.8,0.121153,0.120835,1.24353,6,0.00950829,10,0.000150261,-2.90535,0.349852,0.168643,8.21925,0.1208346,
2,1,0,1,0,10922.9,0.122652,0.1223,1.25791,6,0.00969861,10,0.000153843,-2.90035,0.298424,0.197705,9.70857,0.1223,
2,1,0,1,0,10923.1,0.124149,0.12383,1.27141,6,0.00989093,10,0.000157439,-2.89571,0.330674,0.178423,8.84761,0.12383,
2,1,0,1,0,10923.2,0.125647,0.12528,1.28433,6,0.0100852,10,0.000160902,-2.89132,0.38393,0.153674,7.69312,0.12528,
2,1,0,1,0,10923.4,0.127146,0.126812,1.29184,6,0.0102811,10,0.000163821,-2.88879,0.378361,0.155936,7.88285,0.126812,
2,1,0,1,0,10923.5,0.128644,0.12834,1.30764,6,0.0104786,10,0.000167823,-2.88351,0.430115,0.137173,7.00089,0.12834,
2,1,0,1,0,10923.7,0.130142,0.129807,1.31711,6,0.0106779,10,0.00017097,-2.88038,0.489493,0.120533,6.18967,0.1298067,
2,1,0,1,0,10923.8,0.13164,0.131302,1.32672,6,0.0108788,10,0.000174201,-2.87722,1.01645,0.0580449,2.99327,0.131302,
2,1,0,1,0,10924,0.133139,0.132825,1.33037,6,0.0110806,10,0.000176706,-2.87603,2.49319,0.0236644,1.22747,0.132825,
2,1,0,1,0,10924.1,0.134637,0.134306,1.33255,6,0.0112824,10,0.000178969,-2.87532,-3.01863,-0.0195453,-1.01482,0.134306,
2,1,0,1,0,10924.3,0.136135,0.13581,1.32718,6,0.0114843,10,0.000180243,-2.87707,-0.658362,-0.0896164,-4.62653,0.13581,
2,1,0,1,0,10924.4,0.137633,0.137329,1.32056,6,0.0116854,10,0.000181351,-2.87924,-0.329106,-0.179274,-9.17906,0.137329,
2,1,0,1,0,10924.6,0.139132,0.138838,1.30342,6,0.0118844,10,0.000180964,-2.88492,-0.221093,-0.266857,-13.4716,0.1388384,
2,1,0,1,0,10924.7,0.140629,0.140267,1.27705,6,0.0120799,10,0.000179128,-2.89379,-0.158297,-0.372718,-18.4719,0.140267,
2,1,0,1,0,10924.9,0.142127,0.141831,1.24523,6,0.0122715,10,0.000176613,-2.90475,-0.13596,-0.433952,-20.9611,0.141831,
2,1,0,1,0,10925,0.143626,0.143333,1.20984,6,0.0124583,10,0.000173411,-2.91727,-0.105186,-0.560912,-26.3595,0.143333,
2,1,0,1,0,10925.2,0.145124,0.144818,1.16508,6,0.012639,10,0.000168724,-2.93365,-0.087755,-0.672326,-30.5001,0.144818,
2,1,0,1,0,10925.3,0.146622,0.146281,1.1166,6,0.0128127,10,0.000163337,-2.9521,-0.0815649,-0.72335,-31.5695,0.1462812,
2,1,0,1,0,10925.5,0.14812,0.147793,1.072,6,0.0129792,10,0.000158434,-2.96981,-0.0770787,-0.765451,-31.9255,0.147793,
2,1,0,1,0,10925.6,0.149619,0.149336,1.02341,6,0.0131387,10,0.000152831,-2.98995,-0.0740117,-0.797171,-31.8276,0.149336,
2,1,0,1,0,10925.8,0.151117,0.150797,0.974181,6,0.0132909,10,0.000146904,-3.01136,-0.072747,-0.81103,-30.8515,0.150797,
2,1,0,1,0,10925.9,0.152615,0.152304,0.925733,6,0.0134359,10,0.000140993,-3.03351,-0.0729367,-0.808921,-29.4064,0.152304,
2,1,0,1,0,10926.1,0.154114,0.15379,0.886009,6,0.0135744,10,0.000136259,-3.05256,-0.0793664,-0.743387,-25.8568,0.15379,
2,1,0,1,0,10926.2,0.155612,0.155283,0.85019,6,0.0137072,10,0.00013202,-3.07048,-0.0846481,-0.697003,-23.1734,0.155283,
2,1,0,1,0,10926.4,0.157109,0.156791,0.817149,6,0.0138347,10,0.000128122,-3.0877,-0.0839478,-0.702818,-22.4311,0.156791,
2,1,0,1,0,10926.5,0.158608,0.158285,0.786221,6,0.0139573,10,0.000124447,-3.10446,-0.0957131,-0.616425,-18.9776,0.158285,
2,1,0,1,0,10926.7,0.160106,0.159794,0.757936,6,0.0140755,10,0.000121114,-3.12037,-0.105003,-0.561891,-16.7344,0.159794,
2,1,0,1,0,10926.8,0.161604,0.161333,0.735672,6,0.0141901,10,0.000118688,-3.13332,-0.117699,-0.501281,-14.4404,0.161333,
2,1,0,1,0,10927,0.163102,0.162812,0.716652,6,0.0143016,10,0.00011668,-3.14469,-0.128242,-0.460068,-12.8743,0.162812,
2,1,0,1,0,10927.1,0.164601,0.164275,0.699648,6,0.0144101,10,0.000114935,-3.15512,-0.136051,-0.433662,-11.8392,0.164275,
2,1,0,1,0,10927.3,0.166099,0.165764,0.682428,6,0.0145159,10,0.000113122,-3.16594,-0.152636,-0.386542,-10.3166,0.165764,
2,1,0,1,0,10927.4,0.167597,0.167297,0.669033,6,0.0146197,10,0.000111927,-3.17455,-0.180389,-0.32707,-8.53058,0.167297,
2,1,0,1,0,10927.6,0.169095,0.168741,0.655655,6,0.0147216,10,0.000110636,-3.18332,-0.188699,-0.312667,-8.02687,0.168741,
2,1,0,1,0,10927.7,0.170594,0.170265,0.644143,6,0.0148217,10,0.000109675,-3.19102,-0.183125,-0.322184,-8.12543,0.170265,
2,1,0,1,0,10927.9,0.172091,0.171786,0.633074,6,0.0149199,10,0.000108753,-3.19855,-0.207575,-0.284234,-7.05919,0.171786,
2,1,0,1,0,10928,0.173589,0.173253,0.623499,6,0.0150167,10,0.000108023,-3.20516,-0.261469,-0.225648,-5.50121,0.173253,
2,1,0,1,0,10928.2,0.175088,0.174748,0.618232,6,0.0151124,10,0.000108035,-3.20885,-0.267493,-0.220566,-5.31165,0.174748,
2,1,0,1,0,10928.3,0.176586,0.176259,0.608769,6,0.0152068,10,0.000107301,-3.21555,-0.234822,-0.251255,-5.96068,0.176259,
2,1,0,1,0,10928.5,0.178084,0.177807,0.60136,6,0.0153002,10,0.000106926,-3.22087,-0.306706,-0.192367,-4.52899,0.177807,
2,1,0,1,0,10928.6,0.179582,0.179304,0.595874,6,0.0153923,10,0.000106843,-3.22485,-0.362018,-0.162975,-3.79628,0.179304,
2,1,0,1,0,10928.8,0.181081,0.18074,0.591855,6,0.0154838,10,0.000106972,-3.22778,-0.39067,-0.151022,-3.49274,0.18074,
2,1,0,1,0,10928.9,0.182579,0.18226,0.585456,6,0.0155746,10,0.000106705,-3.23251,-0.360085,-0.16385,-3.74128,0.18226,
2,1,0,1,0,10929.1,0.184077,0.183751,0.582276,6,0.0156645,10,0.000106994,-3.23487,-0.455723,-0.129464,-2.94196,0.183751,
2,1,0,1,0,10929.2,0.185576,0.185235,0.578661,6,0.0157537,10,0.000107188,-3.23758,-0.482195,-0.122357,-2.75078,0.185235,
2,1,0,1,0,10929.4,0.187074,0.186787,0.575565,6,0.0158424,10,0.000107508,-3.23991,-0.570163,-0.103479,-2.3112,0.186787,
2,1,0,1,0,10929.5,0.188571,0.188241,0.570623,6,0.0159305,10,0.000107415,-3.24365,-0.733388,-0.0804485,-1.78667,0.188241,
2,1,0,1,0,10929.7,0.19007,0.189763,0.565445,6,0.0160181,10,0.000107301,-3.24761,-0.783233,-0.0753288,-1.66291,0.189763,
2,1,0,1,0,10929.8,0.191568,0.191226,0.560371,6,0.0161051,10,0.000107158,-3.25152,-0.627381,-0.0940418,-2.06603,0.1912265,
2,1,0,1,0,10930,0.193066,0.192745,0.559005,6,0.0161916,10,0.000107745,-3.25258,-0.877575,-0.0672307,-1.46794,0.192745,
2,1,0,1,0,10930.1,0.194564,0.194233,0.557056,6,0.016278,10,0.000108198,-3.2541,-0.644886,-0.091489,-1.98593,0.194233,
2,1,0,1,0,10930.3,0.196063,0.195754,0.552665,6,0.0163637,10,0.000108187,-3.25754,-0.5525,-0.106787,-2.31306,0.195754,
2,1,0,1,0,10930.4,0.197561,0.197287,0.548669,6,0.0164489,10,0.000108245,-3.26069,-0.713956,-0.0826382,-1.7751,0.197287,
2,1,0,1,0,10930.6,0.199059,0.198754,0.550086,6,0.0165337,10,0.000109332,-3.25957,-1.08478,-0.054389,-1.16426,0.198754,
2,1,0,1,0,10930.7,0.200557,0.20026,0.547556,6,0.0166183,10,0.000109654,-3.26157,-0.964409,-0.0611774,-1.30503,0.2002601,
2,1,0,1,0,10930.9,0.202056,0.201746,0.54496,6,0.0167026,10,0.000109943,-3.26364,-0.655911,-0.0899512,-1.91096,0.201746,
2,1,0,1,0,10931,0.203553,0.203249,0.542083,6,0.0167865,10,0.000110178,-3.26593,-1.14398,-0.0515742,-1.09487,0.203249,
2,1,0,1,0,10931.2,0.205051,0.204733,0.539427,6,0.0168699,10,0.000110439,-3.26807,3.54978,0.0166208,0.352654,0.204733,
2,1,0,1,0,10931.3,0.20655,0.20622,0.536084,6,0.0169532,10,0.000110551,-3.27077,-1.5316,-0.0385218,-0.8103,0.2062196,
2,1,0,1,0,10931.5,0.208048,0.207742,0.538101,6,0.0170365,10,0.000111786,-3.26914,-0.615719,-0.095823,-1.99968,0.207742,
2,1,0,1,0,10931.6,0.209546,0.209271,0.535319,6,0.0171193,10,0.000112027,-3.27139,-0.790319,-0.0746534,-1.55891,0.209271,
2,1,0,1,0,10931.8,0.211044,0.210759,0.532769,6,0.0172016,10,0.000112286,-3.27346,-0.956552,-0.0616799,-1.28073,0.210759,
2,1,0,1,0,10931.9,0.212543,0.212214,0.532292,6,0.0172838,10,0.00011296,-3.27385,-1.44269,-0.0408958,-0.845652,0.212214,
2,1,0,1,0,10932.1,0.214041,0.213728,0.529191,6,0.0173658,10,0.000113103,-3.27639,-1.03465,-0.0570239,-1.17866,0.213728,
2,1,0,1,0,10932.2,0.215539,0.215219,0.529073,6,0.0174475,10,0.000113867,-3.27648,-0.924101,-0.0638459,-1.31762,0.215219,
2,1,0,1,0,10932.4,0.217038,0.216705,0.526587,6,0.0175289,10,0.000114114,-3.27853,-1.68803,-0.0349519,-0.718074,0.216705,
2,1,0,1,0,10932.5,0.218535,0.218201,0.525642,6,0.0176102,10,0.000114696,-3.27931,6.04854,0.00975442,0.199949,0.218201,
2,1,0,1,0,10932.7,0.220033,0.219729,0.525184,6,0.0176914,10,0.000115398,-3.27969,-3.21511,-0.0183509,-0.375295,0.219729,
2,1,0,1,0,10932.8,0.221532,0.221223,0.52316,6,0.0177724,10,0.000115735,-3.28137,-1.54492,-0.0381897,-0.779856,0.221223,
2,1,0,1,0,10933,0.22303,0.222734,0.51819,6,0.0178531,10,0.000115419,-3.28551,-1.52144,-0.0387792,-0.787691,0.222734,
2,1,0,1,0,10933.1,0.224528,0.224208,0.51948,6,0.0179334,10,0.000116472,-3.28443,-2.55079,-0.0231301,-0.469491,0.224208,
2,1,0,1,0,10933.3,0.226026,0.225705,0.518808,6,0.0180137,10,0.000117097,-3.28499,-2.88456,-0.0204537,-0.413417,0.225705,
2,1,0,1,0,10933.4,0.227525,0.227227,0.518057,6,0.018094,10,0.000117717,-3.28562,-0.854044,-0.0690831,-1.39288,0.2272273,
2,1,0,1,0,10933.6,0.229023,0.228739,0.514886,6,0.0181741,10,0.000117775,-3.28829,-0.670742,-0.0879623,-1.77511,0.228739,
2,1,0,1,0,10933.7,0.230521,0.230207,0.514786,6,0.0182537,10,0.000118507,-3.28837,-1.29507,-0.0455575,-0.91991,0.230207,
2,1,0,1,0,10933.9,0.232019,0.231683,0.515638,6,0.0183333,10,0.000119465,-3.28766,-5.77898,-0.0102094,-0.205026,0.231683,
2,1,0,1,0,10934,0.233518,0.233186,0.513128,6,0.0184128,10,0.000119654,-3.28977,-1.39334,-0.0423443,-0.843263,0.233186,
2,1,0,1,0,10934.2,0.235015,0.234703,0.511939,6,0.0184922,10,0.000120154,-3.29078,-4.30026,-0.0137201,-0.273356,0.234703,
2,1,0,1,0,10934.3,0.236513,0.236216,0.510892,6,0.018571,10,0.000120681,-3.29167,-1.29572,-0.0455346,-0.907565,0.236216,
2,1,0,1,0,10934.5,0.238012,0.237712,0.508811,6,0.01865,10,0.00012095,-3.29344,-2.94683,-0.0200215,-0.398071,0.237712,
2,1,0,1,0,10934.6,0.23951,0.239207,0.507916,6,0.0187288,10,0.000121497,-3.29421,-2.45712,-0.0240119,-0.475878,0.239207,
2,1,0,1,0,10934.8,0.241008,0.240719,0.506744,6,0.0188074,10,0.000121983,-3.29521,-1.38238,-0.0426799,-0.846568,0.240719,
2,1,0,1,0,10934.9,0.242506,0.242179,0.503676,6,0.0188857,10,0.00012198,-3.29785,-1.5938,-0.0370185,-0.730404,0.242179,
2,1,0,1,0,10935.1,0.244005,0.243708,0.504777,6,0.0189639,10,0.000123018,-3.2969,130.662,0.000451548,0.0089025,0.243708,
2,1,0,1,0,10935.2,0.245503,0.245193,0.504294,6,0.0190421,10,0.000123649,-3.29732,-2.04648,-0.02883,-0.566343,0.245193,
2,1,0,1,0,10935.4,0.247001,0.246674,0.50569,6,0.0191201,10,0.000124741,-3.29612,-1.41407,-0.0417234,-0.817821,0.246674,
2,1,0,1,0,10935.5,0.2485,0.248166,0.500403,6,0.019198,10,0.000124183,-3.30068,-2.51332,-0.0234749,-0.458488,0.248166,
2,1,0,1,0,10935.7,0.249997,0.249656,0.503258,6,0.0192756,10,0.000125641,-3.29821,-1.90276,-0.0310076,-0.607096,0.249656,
2,1,0,1,0,10935.8,0.251495,0.251162,0.500235,6,0.0193532,10,0.00012564,-3.30083,-2.71367,-0.0217417,-0.424224,0.251162,
2,1,0,1,0,10936,0.252994,0.25269,0.500116,6,0.0194306,10,0.000126374,-3.30093,-1.22746,-0.0480668,-0.936759,0.25269,
2,1,0,1,0,10936.1,0.254492,0.254126,0.497675,6,0.019508,10,0.000126472,-3.30305,-2.39215,-0.024664,-0.479489,0.254126,
2,1,0,1,0,10936.3,0.25599,0.255711,0.497619,6,0.019585,10,0.000127247,-3.3031,-1.28082,-0.0460642,-0.896907,0.255711,
2,1,0,1,0,10936.4,0.257488,0.257154,0.495908,6,0.019662,10,0.000127525,-3.3046,-4.81385,-0.0122563,-0.237524,0.257154,
2,1,0,1,0,10936.6,0.258987,0.258709,0.497431,6,0.0197389,10,0.00012869,-3.30327,-1.21961,-0.048376,-0.936708,0.258709,
2,1,0,1,0,10936.7,0.260485,0.260175,0.496836,6,0.0198158,10,0.000129264,-3.30379,-1.2438,-0.0474353,-0.916691,0.2601752,
2,1,0,1,0,10936.9,0.261983,0.261663,0.493791,6,0.0198923,10,0.000129207,-3.30646,-1.23927,-0.0476086,-0.917909,0.261663,
2,1,0,1,0,10937,0.263481,0.263136,0.494026,6,0.0199688,10,0.000129996,-3.30625,-6.63309,-0.0088948,-0.170925,0.263136,
2,1,0,1,0,10937.2,0.26498,0.264668,0.493521,6,0.0200452,10,0.000130619,-3.30669,-2.74261,-0.0215123,-0.413355,0.264668,
2,1,0,1,0,10937.3,0.266477,0.26613,0.489718,6,0.0201214,10,0.000130329,-3.31005,-2.01499,-0.0292805,-0.562579,0.26613,
2,1,0,1,0,10937.5,0.267976,0.267652,0.489436,6,0.0201974,10,0.000130999,-3.3103,21.2113,0.00278154,0.053372,0.267652,
2,1,0,1,0,10937.6,0.269474,0.269136,0.489371,6,0.0202734,10,0.000131707,-3.31036,2.55969,0.0230496,0.440679,0.269136,
2,1,0,1,0,10937.8,0.270972,0.270684,0.492925,6,0.0203495,10,0.000133427,-3.30722,15.307,0.00385445,0.073424,0.270684,
2,1,0,1,0,10937.9,0.27247,0.272173,0.487286,6,0.0204255,10,0.000132626,-3.31222,-1.10893,-0.0532043,-1.01492,0.272173,
2,1,0,1,0,10938.1,0.273968,0.273603,0.48736,6,0.0205011,10,0.000133343,-3.31215,-1.22633,-0.0481112,-0.914584,0.273603,
2,1,0,1,0,10938.2,0.275467,0.275143,0.487743,6,0.0205766,10,0.000134199,-3.31181,-1.63096,-0.0361751,-0.687421,0.275143,
2,1,0,1,0,10938.4,0.276965,0.276642,0.484539,6,0.0206519,10,0.000134044,-3.31467,-1.74588,-0.0337939,-0.640979,0.276642,
2,1,0,1,0,10938.5,0.278463,0.278201,0.48398,6,0.0207272,10,0.000134644,-3.31517,-0.585588,-0.100753,-1.90435,0.278201,
2,1,0,1,0,10938.7,0.279962,0.279697,0.483855,6,0.0208023,10,0.000135333,-3.31528,-18.9955,-0.003106,-0.0586879,0.279697,
2,1,0,1,0,10938.8,0.281459,0.281152,0.483824,6,0.020877,10,0.000136028,-3.31531,-3.61104,-0.0163388,-0.308218,0.281152,
2,1,0,1,0,10939,0.282957,0.282636,0.480677,6,0.0209518,10,0.000135857,-3.31815,-2.36751,-0.0249207,-0.467545,0.282636,
2,1,0,1,0,10939.1,0.284456,0.284142,0.48107,6,0.0210266,10,0.000136693,-3.31779,26.4031,0.00223459,0.0419474,0.284142,
2,1,0,1,0,10939.3,0.285954,0.285633,0.479427,6,0.0211011,10,0.00013694,-3.31928,-1.53862,-0.0383461,-0.717492,0.285633,
2,1,0,1,0,10939.4,0.287452,0.287116,0.478977,6,0.0211754,10,0.000137522,-3.31969,-1.70028,-0.0347003,-0.649417,0.2871159,
2,1,0,1,0,10939.6,0.28895,0.28863,0.477622,6,0.0212496,10,0.000137856,-3.32092,4.7887,0.0123207,0.228799,0.28863,
2,1,0,1,0,10939.7,0.290449,0.290149,0.476088,6,0.0213238,10,0.000138136,-3.32231,-3.80521,-0.0155051,-0.289181,0.290149,
2,1,0,1,0,10939.9,0.291947,0.291619,0.475275,6,0.0213977,10,0.0001386,-3.32305,-1.21551,-0.0485395,-0.902498,0.291619,
2,1,0,1,0,10940,0.293445,0.293147,0.473862,6,0.0214715,10,0.000138911,-3.32435,-0.923079,-0.0639165,-1.18711,0.293147,
2,1,0,1,0,10940.2,0.294943,0.29467,0.476358,6,0.0215451,10,0.000140368,-3.32207,-2.6878,-0.0219511,-0.406317,0.29467,
2,1,0,1,0,10940.3,0.296442,0.296115,0.476784,6,0.0216187,10,0.000141183,-3.32168,-2.45772,-0.024006,-0.444386,0.296115,
2,1,0,1,0,10940.5,0.297939,0.297622,0.473621,6,0.0216923,10,0.00014096,-3.32457,-1.01649,-0.0580427,-1.06876,0.297622,
2,1,0,1,0,10940.6,0.299437,0.299137,0.470369,6,0.0217657,10,0.000140705,-3.32756,-0.00173672,-33.972,-242.487,0.299137,
2,1,0,1,0,10940.7,0.299738,0.299439,0.19015,6,0.0217996,10,5.69384e-05,-3.7209,0.000994632,59.3184,427.813,0.299439,
2,1,0,1,0,10940.8,0.29824,0.297949,-0.0152766,6,0.0218034,10,-4.55164e-06,-4.81597,0.00433705,13.6037,137.021,0.297949,
2,0,0,1,0,10941,0.296741,0.296434,-0.0496422,6,0.0217958,10,-1.47156e-05,-4.30415,-0.00359531,-16.4103,20.4677,0.296434,
2,0,0,1,0,10941.1,0.295243,0.294958,-0.0714263,6,0.0217839,10,-2.10677e-05,-4.14614,-0.0110126,-5.35752,13.2543,0.294958,
2,0,0,1,0,10941.3,0.293745,0.293396,-0.0887994,6,0.0217694,10,-2.60534e-05,-4.05159,-0.01865,-3.16354,10.1912,0.293396,
2,0,0,1,0,10941.4,0.292246,0.291976,-0.101096,6,0.0217527,10,-2.95176e-05,-3.99527,-0.0263406,-2.23989,8.60796,0.291976,
2,0,0,1,0,10941.6,0.290748,0.290439,-0.113852,6,0.0217339,10,-3.30671e-05,-3.94366,-0.0324201,-1.81986,7.79652,0.290439,
2,0,0,1,0,10941.7,0.28925,0.288919,-0.123967,6,0.0217135,10,-3.58163e-05,-3.9067,-0.0465846,-1.26651,6.10618,0.288919,
2,0,0,1,0,10941.9,0.287752,0.28745,-0.132076,6,0.0216917,10,-3.79653e-05,-3.87918,-0.0535519,-1.10173,5.70441,0.2874499,
2,0,0,1,0,10942,0.286253,0.285949,-0.141598,6,0.0216686,10,-4.04897e-05,-3.84894,-0.0632839,-0.932306,5.16092,0.285949,
2,0,0,1,0,10942.2,0.284755,0.284433,-0.148774,6,0.0216443,10,-4.23163e-05,-3.82747,-0.0596187,-0.989623,5.7099,0.284433,
2,0,0,1,0,10942.3,0.283258,0.282935,-0.157448,6,0.0216188,10,-4.45475e-05,-3.80286,-0.0750044,-0.78662,4.79642,0.282935,
2,0,0,1,0,10942.5,0.281759,0.281425,-0.1626,6,0.0215923,10,-4.57596e-05,-3.78888,-0.0817839,-0.721413,4.57603,0.2814247,
2,0,0,1,0,10942.6,0.280261,0.279956,-0.166643,6,0.0215649,10,-4.66526e-05,-3.77821,-0.0919774,-0.641462,4.23669,0.279956,
2,0,0,1,0,10942.8,0.278763,0.278443,-0.175376,6,0.0215366,10,-4.88323e-05,-3.75603,-0.114346,-0.515977,3.51688,0.2784428,
2,0,0,1,0,10942.9,0.277264,0.276971,-0.181634,6,0.0215072,10,-5.03072e-05,-3.7408,-0.106094,-0.55611,3.91486,0.276971,
2,0,0,1,0,10943.1,0.275766,0.275463,-0.187072,6,0.021477,10,-5.15315e-05,-3.72799,-0.157412,-0.374812,2.7075,0.2754631,
2,0,0,1,0,10943.2,0.274268,0.273927,-0.192903,6,0.021446,10,-5.28411e-05,-3.71466,-0.132352,-0.445782,3.34496,0.273927,
2,0,0,1,0,10943.4,0.27277,0.272514,-0.196719,6,0.0214144,10,-5.36086e-05,-3.70615,-0.132009,-0.446939,3.45877,0.272514,
2,0,0,1,0,10943.5,0.271272,0.270982,-0.203715,6,0.021382,10,-5.52031e-05,-3.69098,-0.134748,-0.437855,3.46534,0.270982,
2,0,0,1,0,10943.7,0.269773,0.269481,-0.208346,6,0.0213485,10,-5.61453e-05,-3.68121,-0.150476,-0.392089,3.15128,0.269481,
2,0,0,1,0,10943.8,0.268275,0.267923,-0.211829,6,0.0213145,10,-5.6754e-05,-3.67401,-0.179846,-0.328059,2.70449,0.267923,
2,0,0,1,0,10944,0.266778,0.266486,-0.216389,6,0.02128,10,-5.76646e-05,-3.66477,-0.159622,-0.369624,3.12766,0.266486,
2,0,0,1,0,10944.1,0.265279,0.264922,-0.219866,6,0.0212447,10,-5.82473e-05,-3.65784,-0.149848,-0.393734,3.36889,0.264922,
2,0,0,1,0,10944.3,0.263781,0.263473,-0.224666,6,0.0212087,10,-5.91934e-05,-3.64846,-0.172853,-0.34133,2.99222,0.263473,
2,0,0,1,0,10944.4,0.262283,0.261968,-0.228188,6,0.0211721,10,-5.97779e-05,-3.64171,-0.210191,-0.280697,2.50248,0.261968,
2,0,0,1,0,10944.6,0.260784,0.260498,-0.231382,6,0.021135,10,-6.02746e-05,-3.63567,-0.191505,-0.308087,2.7961,0.260498,
2,0,0,1,0,10944.7,0.259286,0.258989,-0.235437,6,0.0210973,10,-6.09755e-05,-3.62812,-0.18975,-0.310935,2.86414,0.258989,
2,0,0,1,0,10944.9,0.257788,0.257497,-0.243564,6,0.0210589,10,-6.2717e-05,-3.61339,-0.234439,-0.251665,2.35985,0.257497,
2,0,0,1,0,10945,0.25629,0.25598,-0.244766,6,0.0210199,10,-6.26552e-05,-3.61125,-0.238853,-0.247014,2.34375,0.25598,
2,0,0,1,0,10945.2,0.254791,0.254462,-0.246514,6,0.0209805,10,-6.27283e-05,-3.60816,-0.240106,-0.245725,2.38616,0.254462,
2,0,0,1,0,10945.3,0.253293,0.252992,-0.251352,6,0.0209406,10,-6.35898e-05,-3.59972,-0.256167,-0.230319,2.25612,0.252992,
2,0,0,1,0,10945.5,0.251796,0.251477,-0.255053,6,0.0209001,10,-6.41401e-05,-3.59337,-0.203269,-0.290256,2.90191,0.251477,
2,0,0,1,0,10945.6,0.250297,0.250003,-0.258019,6,0.020859,10,-6.45055e-05,-3.58835,-0.2858,-0.206438,2.07512,0.250003,
2,0,0,1,0,10945.8,0.248799,0.248492,-0.261727,6,0.0208174,10,-6.50369e-05,-3.58215,-0.258129,-0.228568,2.34103,0.248492,
2,0,0,1,0,10945.9,0.247301,0.246978,-0.264709,6,0.0207755,10,-6.53775e-05,-3.57723,-0.2531,-0.233109,2.41051,0.246978,
2,0,0,1,0,10946.1,0.245802,0.245475,-0.268526,6,0.0207329,10,-6.59163e-05,-3.57101,-0.241997,-0.243805,2.55318,0.2454748,
2,0,0,1,0,10946.2,0.244304,0.243981,-0.270531,6,0.0206898,10,-6.60043e-05,-3.56778,-0.350127,-0.16851,1.78003,0.243981,
2,0,0,1,0,10946.4,0.242806,0.242469,-0.27536,6,0.0206463,10,-6.67661e-05,-3.5601,-0.327754,-0.180013,1.93902,0.242469,
2,0,0,1,0,10946.5,0.241308,0.24099,-0.278399,6,0.0206024,10,-6.70914e-05,-3.55533,-0.342202,-0.172413,1.8708,0.24099,
2,0,0,1,0,10946.7,0.23981,0.239505,-0.280981,6,0.020558,10,-6.72963e-05,-3.55132,-0.21854,-0.269974,2.95384,0.239505,
2,0,0,1,0,10946.8,0.238311,0.237973,-0.284624,6,0.020513,10,-6.77328e-05,-3.54573,-0.311043,-0.189684,2.10919,0.237973,
2,0,0,1,0,10947,0.236814,0.236467,-0.287229,6,0.0204676,10,-6.79202e-05,-3.54177,-0.287524,-0.2052,2.30333,0.236467,
2,0,0,1,0,10947.1,0.235316,0.234996,-0.287758,6,0.0204218,10,-6.7622e-05,-3.54097,-0.260244,-0.22671,2.5646,0.234996,
2,0,0,1,0,10947.3,0.233817,0.23343,-0.293007,6,0.0203755,10,-6.83965e-05,-3.53312,-0.355354,-0.166032,1.89855,0.23343,
2,0,0,1,0,10947.4,0.232319,0.231989,-0.296629,6,0.0203286,10,-6.88145e-05,-3.52779,-0.346233,-0.170405,1.97301,0.231989,
2,0,0,1,0,10947.6,0.230821,0.230493,-0.300245,6,0.0202813,10,-6.92044e-05,-3.52252,-0.704841,-0.0837068,0.977213,0.230493,
2,0,0,1,0,10947.7,0.229322,0.229043,-0.300536,6,0.0202336,10,-6.88356e-05,-3.5221,-0.377703,-0.156207,1.84211,0.229043,
2,0,0,1,0,10947.9,0.227824,0.227521,-0.305086,6,0.0201856,10,-6.94134e-05,-3.51558,-0.345601,-0.170717,2.03635,0.227521,
2,0,0,1,0,10948,0.226326,0.226047,-0.307521,6,0.020137,10,-6.95142e-05,-3.51213,-0.338055,-0.174528,2.10533,0.226047,
2,0,0,1,0,10948.2,0.224828,0.224514,-0.312491,6,0.0200879,10,-7.01586e-05,-3.50516,-0.46811,-0.126039,1.53137,0.224514,
2,0,0,1,0,10948.3,0.223329,0.223,-0.315424,6,0.0200382,10,-7.03395e-05,-3.5011,-0.313131,-0.188419,2.3118,0.223,
2,0,0,1,0,10948.5,0.221831,0.221504,-0.318376,6,0.0199885,10,-7.05217e-05,-3.49706,-0.387891,-0.152105,1.88058,0.221504,
2,0,0,1,0,10948.6,0.220334,0.220034,-0.321521,6,0.019938,10,-7.07454e-05,-3.49279,-0.317793,-0.185655,2.32057,0.220034,
2,0,0,1,0,10948.8,0.218835,0.218525,-0.323392,6,0.0198871,10,-7.06691e-05,-3.49027,-0.317227,-0.185986,2.34624,0.218525,
2,0,0,1,0,10948.9,0.217337,0.216988,-0.326275,6,0.0198357,10,-7.07978e-05,-3.48642,-0.484693,-0.121727,1.55523,0.216988,
2,0,0,1,0,10949.1,0.215839,0.215541,-0.327462,6,0.019784,10,-7.05813e-05,-3.48484,-0.219514,-0.268775,3.48512,0.215541,
2,0,0,1,0,10949.2,0.21434,0.213984,-0.336192,6,0.0197316,10,-7.19397e-05,-3.47341,-0.214572,-0.274966,3.57404,0.213984,
2,0,0,1,0,10949.4,0.212842,0.212497,-0.33808,6,0.0196781,10,-7.1841e-05,-3.47098,-0.382704,-0.154166,2.0244,0.212497,
2,0,0,1,0,10949.5,0.211344,0.211034,-0.339205,6,0.0196245,10,-7.15837e-05,-3.46954,-2.50325,-0.0235693,0.315173,0.211034,
2,0,0,1,0,10949.7,0.209846,0.209542,-0.339726,6,0.0195707,10,-7.11868e-05,-3.46887,-0.451658,-0.13063,1.73911,0.209542,
2,0,0,1,0,10949.8,0.208348,0.208031,-0.345282,6,0.0195164,10,-7.18293e-05,-3.46183,-0.318,-0.185535,2.50269,0.208031,
2,0,0,1,0,10950,0.206849,0.206545,-0.353894,6,0.0194615,10,-7.30952e-05,-3.45113,-0.348953,-0.169077,2.30383,0.206545,
2,0,0,1,0,10950.1,0.205352,0.205016,-0.35325,6,0.0194059,10,-7.2422e-05,-3.45192,-0.529735,-0.111376,1.52783,0.205016,
2,0,0,1,0,10950.3,0.203854,0.203541,-0.355155,6,0.0193501,10,-7.22885e-05,-3.44958,-0.369609,-0.159628,2.22015,0.203541,
2,0,0,1,0,10950.4,0.202355,0.202032,-0.358156,6,0.0192938,10,-7.2359e-05,-3.44593,-0.345488,-0.170773,2.39937,0.202032,
2,0,0,1,0,10950.6,0.200857,0.200525,-0.362543,6,0.019237,10,-7.26991e-05,-3.44064,-0.342658,-0.172183,2.44195,0.200525,
2,0,0,1,0,10950.7,0.199359,0.199024,-0.366686,6,0.0191796,10,-7.29793e-05,-3.43571,-0.380663,-0.154993,2.21315,0.199024,
2,0,0,1,0,10950.9,0.19786,0.197507,-0.370441,6,0.0191217,10,-7.31648e-05,-3.43128,-0.360658,-0.16359,2.3594,0.197507,
2,0,0,1,0,10951,0.196362,0.196031,-0.37386,6,0.0190634,10,-7.32881e-05,-3.42729,-0.360082,-0.163851,2.38545,0.196031,
2,0,0,1,0,10951.2,0.194864,0.19454,-0.377146,6,0.0190044,10,-7.337e-05,-3.42349,-0.30229,-0.195177,2.86941,0.19454,
2,0,0,1,0,10951.3,0.193366,0.192983,-0.382843,6,0.0189447,10,-7.38821e-05,-3.41698,-0.299885,-0.196742,2.93823,0.192983,
2,0,0,1,0,10951.5,0.191867,0.191528,-0.386439,6,0.0188844,10,-7.40139e-05,-3.41292,-0.391656,-0.150642,2.28009,0.191528,
2,0,0,1,0,10951.6,0.190369,0.190002,-0.38989,6,0.0188238,10,-7.40797e-05,-3.40906,-0.320985,-0.183809,2.80093,0.190002,
2,0,0,1,0,10951.8,0.188872,0.188584,-0.393014,6,0.0187624,10,-7.41164e-05,-3.40559,-0.232364,-0.253912,3.90332,0.188584,
2,0,0,1,0,10951.9,0.187373,0.187054,-0.400735,6,0.0187003,10,-7.4959e-05,-3.39714,-0.241206,-0.244604,3.81469,0.187054,
2,0,0,1,0,10952.1,0.185875,0.185576,-0.404059,6,0.0186375,10,-7.49835e-05,-3.39355,-0.321629,-0.183441,2.87446,0.1855756,
2,0,0,1,0,10952.2,0.184377,0.184046,-0.406268,6,0.0185741,10,-7.47721e-05,-3.39119,-0.334365,-0.176454,2.80778,0.184046,
2,0,0,1,0,10952.4,0.182878,0.182562,-0.412104,6,0.01851,10,-7.52345e-05,-3.38499,-0.270412,-0.218185,3.51446,0.182562,
2,0,0,1,0,10952.5,0.18138,0.181089,-0.419939,6,0.018445,10,-7.60464e-05,-3.37681,-0.290834,-0.202865,3.32306,0.181089,
2,0,0,1,0,10952.7,0.179882,0.179563,-0.421421,6,0.0183792,10,-7.56716e-05,-3.37528,-0.311029,-0.189693,3.13295,0.179563,
2,0,0,1,0,10952.8,0.178384,0.178076,-0.429704,6,0.0183126,10,-7.65201e-05,-3.36683,-0.267335,-0.220697,3.70448,0.178076,
2,0,0,1,0,10953,0.176886,0.176559,-0.434624,6,0.0182452,10,-7.67368e-05,-3.36189,-0.246799,-0.239061,4.06931,0.176559,
2,0,0,1,0,10953.1,0.175387,0.175034,-0.443645,6,0.0181767,10,-7.76531e-05,-3.35296,-0.241569,-0.244236,4.2243,0.175034,
2,0,0,1,0,10953.3,0.17389,0.17357,-0.449541,6,0.0181072,10,-7.80268e-05,-3.34723,-0.203317,-0.290187,5.0795,0.17357,
2,0,0,1,0,10953.4,0.172392,0.172045,-0.457814,6,0.0180366,10,-7.87645e-05,-3.33931,-0.20722,-0.284722,5.08068,0.172045,
2,0,0,1,0,10953.6,0.170893,0.170568,-0.465056,6,0.0179649,10,-7.93236e-05,-3.33249,-0.190077,-0.3104,5.62064,0.170568,
2,0,0,1,0,10953.7,0.169395,0.169081,-0.472839,6,0.0178919,10,-7.99481e-05,-3.32529,-0.164066,-0.359611,6.63321,0.169081,
2,0,0,1,0,10953.9,0.167897,0.167578,-0.482271,6,0.0178175,10,-8.08181e-05,-3.31671,-0.169339,-0.348413,6.57258,0.167578,
2,0,0,1,0,10954,0.166398,0.166092,-0.49308,6,0.0177417,10,-8.18965e-05,-3.30708,-0.169449,-0.348187,6.71532,0.1660917,
2,0,0,1,0,10954.2,0.1649,0.164573,-0.501808,6,0.0176644,10,-8.25841e-05,-3.29946,-0.157821,-0.373842,7.36377,0.164573,
2,0,0,1,0,10954.3,0.163402,0.163084,-0.515739,6,0.0175854,10,-8.41089e-05,-3.28757,-0.146896,-0.401644,8.09774,0.163084,
2,0,0,1,0,10954.5,0.161904,0.16159,-0.528863,6,0.0175044,10,-8.54591e-05,-3.27666,-0.134785,-0.437734,9.04426,0.16159,
2,0,0,1,0,10954.6,0.160405,0.160098,-0.543401,6,0.0174214,10,-8.69975e-05,-3.26488,-0.135418,-0.435689,9.22536,0.160098,
2,0,0,1,0,10954.8,0.158907,0.158574,-0.553959,6,0.0173362,10,-8.78436e-05,-3.25652,-0.110979,-0.531632,11.5752,0.158574,
2,0,0,1,0,10954.9,0.15741,0.157077,-0.57592,6,0.0172488,10,-9.04637e-05,-3.23964,-0.104788,-0.563039,12.6877,0.157077,
2,0,0,1,0,10955.1,0.155911,0.155566,-0.59446,6,0.0171583,10,-9.24778e-05,-3.22588,-0.0995883,-0.592439,13.7901,0.155566,
2,0,0,1,0,10955.2,0.154413,0.154059,-0.615142,6,0.0170648,10,-9.47684e-05,-3.21102,-0.103194,-0.571738,13.7266,0.154059,
2,0,0,1,0,10955.4,0.152915,0.15257,-0.63958,6,0.016968,10,-9.75809e-05,-3.19411,-0.0928236,-0.635614,15.8998,0.15257,
2,0,0,1,0,10955.5,0.151417,0.151082,-0.663575,6,0.016868,10,-0.000100254,-3.17811,-0.088068,-0.669937,17.3963,0.151082,
2,0,0,1,0,10955.7,0.149918,0.149589,-0.691328,6,0.0167637,10,-0.000103415,-3.16032,-0.0782079,-0.754399,20.3961,0.149589,
2,0,0,1,0,10955.8,0.14842,0.148061,-0.723415,6,0.016655,10,-0.000107109,-3.14061,-0.0771129,-0.765112,21.6349,0.148061,
2,0,0,1,0,10956,0.146922,0.146579,-0.759198,6,0.0165411,10,-0.000111283,-3.11965,-0.0745517,-0.791397,23.4651,0.146579,
2,0,0,1,0,10956.1,0.145424,0.145099,-0.794821,6,0.0164223,10,-0.000115328,-3.09973,-0.0714473,-0.825783,25.7136,0.145099,
2,0,0,1,0,10956.3,0.143925,0.143607,-0.837619,6,0.0162973,10,-0.000120288,-3.07695,-0.0654259,-0.901783,29.4351,0.1436075,
2,0,0,1,0,10956.4,0.142428,0.142139,-0.881132,6,0.0161659,10,-0.000125244,-3.05496,-0.0684671,-0.861728,29.5811,0.142139,
2,0,0,1,0,10956.6,0.14093,0.140633,-0.921507,6,0.0160279,10,-0.000129595,-3.0355,-0.0713646,-0.82674,29.8312,0.1406332,
2,0,0,1,0,10956.7,0.139431,0.139119,-0.967056,6,0.0158833,10,-0.000134536,-3.01455,-0.0726917,-0.811647,30.7028,0.139119,
2,0,0,1,0,10956.9,0.137933,0.137641,-1.01686,6,0.0157317,10,-0.000139961,-2.99274,-0.0742614,-0.794491,31.4638,0.137641,
2,0,0,1,0,10957,0.136435,0.136101,-1.06252,6,0.015573,10,-0.00014461,-2.97366,-0.0811109,-0.727399,30.1203,0.136101,
2,0,0,1,0,10957.2,0.134936,0.134597,-1.11048,6,0.0154072,10,-0.000149467,-2.95449,-0.0884698,-0.666894,28.7112,0.134597,
2,0,0,1,0,10957.3,0.133438,0.133105,-1.15043,6,0.0152349,10,-0.000153127,-2.93914,-0.098711,-0.597705,26.7981,0.133105,
2,0,0,1,0,10957.5,0.13194,0.131637,-1.18918,6,0.0150568,10,-0.000156539,-2.92475,-0.108933,-0.541617,25.1417,0.131637,
2,0,0,1,0,10957.6,0.130442,0.130124,-1.22747,6,0.0148729,10,-0.000159723,-2.91099,-0.124411,-0.474234,22.6275,0.130124,
2,0,0,1,0,10957.8,0.128943,0.128637,-1.26086,6,0.0146834,10,-0.000162193,-2.89933,-0.149177,-0.395503,19.3598,0.128637,
2,0,0,1,0,10957.9,0.127445,0.127127,-1.28838,6,0.0144898,10,-0.000163787,-2.88996,-0.180993,-0.32598,16.3096,0.127127,
2,0,0,1,0,10958.1,0.125948,0.125625,-1.31003,6,0.0142927,10,-0.000164573,-2.88272,-0.210362,-0.280469,14.2859,0.125625,
2,0,0,1,0,10958.2,0.124449,0.124145,-1.32474,6,0.0140923,10,-0.00016446,-2.87787,-0.258558,-0.228188,11.7729,0.124145,
2,0,0,1,0,10958.4,0.122951,0.122615,-1.34334,6,0.0138894,10,-0.000164713,-2.87181,-0.341895,-0.172568,9.01928,0.122615,
2,0,0,1,0,10958.5,0.121453,0.121151,-1.35297,6,0.0136847,10,-0.000163913,-2.86871,-0.654882,-0.0900925,4.73756,0.121151,
2,0,0,1,0,10958.7,0.119955,0.11966,-1.35477,6,0.0134791,10,-0.000162111,-2.86813,-1.37887,-0.0427888,2.26528,0.11966,
2,0,0,1,0,10958.8,0.118456,0.118159,-1.35818,6,0.0132731,10,-0.000160481,-2.86704,-1.66703,-0.0353923,1.87444,0.1181592,
2,0,0,1,0,10959,0.116958,0.116639,-1.36383,6,0.0130664,10,-0.000159075,-2.86524,3.95666,0.0149116,-0.789974,0.116639,
2,0,0,1,0,10959.1,0.11546,0.115104,-1.35806,6,0.0128599,10,-0.000156318,-2.86708,0.705696,0.0836054,-4.41967,0.115104,
2,0,0,1,0,10959.3,0.113962,0.113637,-1.34858,6,0.0126545,10,-0.000153248,-2.87012,0.696293,0.0847345,-4.46527,0.113637,
2,0,0,1,0,10959.4,0.112463,0.112171,-1.34326,6,0.0124501,10,-0.000150675,-2.87184,0.616359,0.0957234,-5.01383,0.112171,
2,0,0,1,0,10959.6,0.110966,0.110628,-1.33414,6,0.0122468,10,-0.000147594,-2.8748,0.557347,0.105859,-5.50914,0.110628,
2,0,0,1,0,10959.7,0.109468,0.109181,-1.32476,6,0.0120446,10,-0.000144638,-2.87786,0.402227,0.146683,-7.56718,0.109181,
2,0,0,1,0,10959.9,0.107969,0.107626,-1.3131,6,0.0118439,10,-0.000141324,-2.8817,0.365834,0.161275,-8.27134,0.107626,
2,0,0,1,0,10960,0.106471,0.106151,-1.30013,6,0.0116454,10,-0.00013801,-2.88601,0.383518,0.153839,-7.82856,0.106151,
2,0,0,1,0,10960.2,0.104973,0.104642,-1.2903,6,0.0114484,10,-0.000135019,-2.88931,0.373204,0.15809,-7.96383,0.1046422,
2,0,0,1,0,10960.3,0.103474,0.103185,-1.27778,6,0.0112529,10,-0.000131848,-2.89354,0.314496,0.187602,-9.33945,0.103185,
2,0,0,1,0,10960.5,0.101976,0.101634,-1.26812,6,0.0110595,10,-0.000128884,-2.89684,0.303961,0.194104,-9.59183,0.101634,
2,0,0,1,0,10960.6,0.100478,0.100159,-1.25112,6,0.0108685,10,-0.000125311,-2.9027,0.326992,0.180433,-8.82017,0.100159,
2,0,0,1,0,10960.8,0.0989799,0.0986827,-1.24098,6,0.0106792,10,-0.000122463,-2.90624,0.37214,0.158543,-7.65647,0.0986827,
2,0,0,1,0,10960.9,0.0974808,0.097176,-1.22663,6,0.0104916,10,-0.000119199,-2.91129,0.335783,0.175709,-8.41477,0.097176,
2,0,0,1,0,10961.1,0.0959833,0.0956229,-1.21314,6,0.0103061,10,-0.000116004,-2.91609,0.326789,0.180545,-8.55537,0.0956229,
2,0,0,1,0,10961.2,0.0944857,0.0941889,-1.19507,6,0.0101228,10,-0.000112562,-2.92261,0.345586,0.170725,-8.00349,0.0941889,
2,0,0,1,0,10961.4,0.0929871,0.0926299,-1.18661,6,0.00994127,10,-0.000109915,-2.92569,0.408948,0.144272,-6.68735,0.09262991,
2,0,0,1,0,10961.5,0.0914889,0.0911475,-1.17761,6,0.00976134,10,-0.000107336,-2.929,0.369663,0.159605,-7.31538,0.0911475,
2,0,0,1,0,10961.7,0.0899907,0.0896481,-1.1656,6,0.00958314,10,-0.000104494,-2.93345,0.32585,0.181065,-8.21264,0.0896481,
2,0,0,1,0,10961.8,0.0884925,0.0882006,-1.14949,6,0.00940687,10,-0.000101386,-2.9395,0.344694,0.171166,-7.6993,0.0882006,
2,0,0,1,0,10962,0.0869943,0.0866641,-1.14149,6,0.00923258,10,-9.89263e-05,-2.94253,0.368526,0.160097,-7.14221,0.0866641,
2,0,0,1,0,10962.1,0.0854962,0.0851572,-1.13011,6,0.00905962,10,-9.62368e-05,-2.94688,0.411022,0.143545,-6.33927,0.08515723,
2,0,0,1,0,10962.3,0.083998,0.083679,-1.12242,6,0.00888813,10,-9.39229e-05,-2.94984,0.325707,0.181145,-7.91967,0.08367902,
2,0,0,1,0,10962.4,0.0824998,0.0821658,-1.11212,6,0.00871802,10,-9.13779e-05,-2.95385,0.417843,0.141201,-6.12935,0.08216583,
2,0,0,1,0,10962.6,0.0810011,0.0806722,-1.10256,6,0.00854961,10,-8.89459e-05,-2.9576,0.419497,0.140645,-6.06563,0.0806722,
2,0,0,1,0,10962.7,0.0795036,0.0791684,-1.09539,6,0.00838229,10,-8.672e-05,-2.96043,0.530772,0.111159,-4.74726,0.0791684,
2,0,0,1,0,10962.9,0.0780061,0.0777025,-1.08703,6,0.00821611,10,-8.44647e-05,-2.96376,0.478512,0.123299,-5.22399,0.0777025,
2,0,0,1,0,10963,0.076507,0.0761576,-1.07799,6,0.00805099,10,-8.20972e-05,-2.96738,0.46089,0.128013,-5.38617,0.0761576,
2,0,0,1,0,10963.2,0.0750088,0.0746444,-1.06813,6,0.00788769,10,-7.97301e-05,-2.97137,0.429882,0.137247,-5.73423,0.0746444,
2,0,0,1,0,10963.3,0.0735106,0.0731608,-1.06245,6,0.00772529,10,-7.77297e-05,-2.97369,0.693054,0.0851305,-3.52493,0.07316085,
2,0,0,1,0,10963.5,0.0720124,0.0716985,-1.0558,6,0.00756392,10,-7.56996e-05,-2.97642,0.512564,0.115108,-4.74271,0.0716985,
2,0,0,1,0,10963.6,0.0705142,0.0702331,-1.04887,6,0.00740355,10,-7.36651e-05,-2.97928,0.424362,0.139032,-5.68743,0.0702331,
2,0,0,1,0,10963.8,0.0690161,0.0687103,-1.03686,6,0.0072445,10,-7.12426e-05,-2.98428,0.466213,0.126552,-5.14278,0.06871032,
2,0,0,1,0,10963.9,0.0675179,0.0671992,-1.03334,6,0.00708648,10,-6.94396e-05,-2.98576,0.711207,0.0829575,-3.35022,0.0671992,
2,0,0,1,0,10964.1,0.0660188,0.0656797,-1.03258,6,0.00692919,10,-6.78193e-05,-2.98608,0.549359,0.107398,-4.30448,0.0656797,
2,0,0,1,0,10964.2,0.0645213,0.0642162,-1.02223,6,0.00677277,10,-6.56434e-05,-2.99045,0.464979,0.126887,-5.04567,0.0642162,
2,0,0,1,0,10964.4,0.0630237,0.0626889,-1.01114,6,0.00661777,10,-6.33872e-05,-2.99519,0.464798,0.126937,-5.02338,0.0626889,
2,0,0,1,0,10964.5,0.0615251,0.0612504,-1.0037,6,0.00646398,10,-6.14769e-05,-2.9984,0.481798,0.122458,-4.81612,0.0612504,
2,0,0,1,0,10964.7,0.0600269,0.0596693,-0.998723,6,0.00631108,10,-5.95931e-05,-3.00056,0.549064,0.107456,-4.19018,0.0596693,
2,0,0,1,0,10964.8,0.0585287,0.0582208,-0.992368,6,0.00615906,10,-5.77765e-05,-3.00333,0.405712,0.145423,-5.62661,0.0582208,
2,0,0,1,0,10965,0.0570305,0.056697,-0.985169,6,0.00600822,10,-5.58561e-05,-3.00649,0.41243,0.143055,-5.49797,0.056697,
2,0,0,1,0,10965.1,0.0555323,0.0552516,-0.975419,6,0.00585881,10,-5.38935e-05,-3.01081,0.474287,0.124397,-4.75032,0.0552516,
2,0,0,1,0,10965.3,0.0540342,0.0537087,-0.971252,6,0.00571028,10,-5.21648e-05,-3.01267,0.484986,0.121653,-4.60199,0.0537087,
2,0,0,1,0,10965.4,0.052536,0.0522168,-0.965116,6,0.00556246,10,-5.03952e-05,-3.01542,0.416788,0.141559,-5.31723,0.0522168,
2,0,0,1,0,10965.6,0.0510378,0.0507386,-0.95776,6,0.00541601,10,-4.85954e-05,-3.01874,0.366706,0.160892,-6.00104,0.0507386,
2,0,0,1,0,10965.7,0.0495391,0.0492398,-0.94678,6,0.00527088,10,-4.66192e-05,-3.02375,0.500145,0.117966,-4.36577,0.0492398,
2,0,0,1,0,10965.9,0.0480416,0.0477263,-0.938995,6,0.0051269,10,-4.48147e-05,-3.02734,0.558623,0.105617,-3.8635,0.0477263,
2,0,0,1,0,10966,0.0465441,0.0462562,-0.932351,6,0.00498376,10,-4.3127e-05,-3.03042,0.473106,0.124708,-4.53888,0.04625617,
2,0,0,1,0,10966.2,0.045045,0.0447706,-0.923303,6,0.00484173,10,-4.13368e-05,-3.03466,0.407864,0.144656,-5.22045,0.0447706,
2,0,0,1,0,10966.3,0.0435468,0.04325,-0.912617,6,0.00470121,10,-3.94706e-05,-3.03971,0.442767,0.133253,-4.77342,0.04325,
2,0,0,1,0,10966.5,0.0420486,0.0417505,-0.908521,6,0.00456191,10,-3.79312e-05,-3.04167,0.490241,0.120349,-4.26998,0.04175055,
2,0,0,1,0,10966.6,0.0405504,0.0401918,-0.905058,6,0.00442339,10,-3.63759e-05,-3.04332,0.448545,0.131537,-4.62883,0.0401918,
2,0,0,1,0,10966.8,0.0390523,0.0387422,-0.896613,6,0.00428591,10,-3.47367e-05,-3.04739,0.376235,0.156817,-5.46752,0.0387422,
2,0,0,1,0,10966.9,0.0375541,0.0372184,-0.886062,6,0.00414971,10,-3.29778e-05,-3.05254,0.411193,0.143485,-4.97487,0.03721837,
2,0,0,1,0,10967.1,0.0360559,0.0357486,-0.881434,6,0.0040149,10,-3.15101e-05,-3.05481,0.41459,0.142309,-4.89242,0.0357486,
2,0,0,1,0,10967.2,0.0345568,0.0342343,-0.872764,6,0.00388089,10,-2.98785e-05,-3.0591,0.424291,0.139055,-4.74299,0.0342343,
2,0,0,1,0,10967.4,0.0330593,0.0327453,-0.866167,6,0.00374799,10,-2.83629e-05,-3.0624,0.354058,0.166639,-5.62242,0.0327453,
2,0,0,1,0,10967.5,0.0315618,0.0312254,-0.859901,6,0.00361615,10,-2.68508e-05,-3.06555,0.435183,0.135575,-4.54706,0.0312254,
2,0,0,1,0,10967.7,0.0300631,0.0297446,-0.850845,6,0.00348568,10,-2.53081e-05,-3.07015,0.444532,0.132724,-4.40304,0.0297446,
2,0,0,1,0,10967.8,0.0285649,0.0282643,-0.844841,6,0.00335605,10,-2.38788e-05,-3.07322,0.50098,0.117769,-3.88181,0.0282643,
2,0,0,1,0,10968,0.0270667,0.0267394,-0.837553,6,0.00322726,10,-2.23957e-05,-3.07699,0.449084,0.131379,-4.29156,0.02673943,
2,0,0,1,0,10968.1,0.0255685,0.0252718,-0.829671,6,0.00309948,10,-2.09673e-05,-3.08109,0.354349,0.166502,-5.40146,0.0252718,
2,0,0,1,0,10968.3,0.0240704,0.0237894,-0.821685,6,0.00297297,10,-1.95474e-05,-3.08529,0.400039,0.147486,-4.74665,0.0237894,
2,0,0,1,0,10968.4,0.0225722,0.0222836,-0.818128,6,0.00284725,10,-1.82308e-05,-3.08718,0.648392,0.0909943,-2.90535,0.0222836,
2,0,0,1,0,10968.6,0.021074,0.0207704,-0.813149,6,0.00272235,10,-1.68894e-05,-3.08983,0.518512,0.113787,-3.61003,0.0207704,
2,0,0,1,0,10968.7,0.0195758,0.0192943,-0.809303,6,0.00259825,10,-1.56149e-05,-3.09189,0.47041,0.125422,-3.9547,0.01929432,
2,0,0,1,0,10968.9,0.0180772,0.0177499,-0.799416,6,0.00247495,10,-1.41895e-05,-3.09723,0.668828,0.088214,-2.7567,0.0177499,
2,0,0,1,0,10969,0.0165796,0.0162608,-0.79897,6,0.00235252,10,-1.29919e-05,-3.09747,0.801829,0.0735818,-2.29607,0.0162608,
2,0,0,1,0,10969.2,0.0150821,0.014796,-0.796762,6,0.00223054,10,-1.17889e-05,-3.09867,0.807963,0.0730232,-2.25955,0.01479605,
2,0,0,1,0,10969.3,0.013583,0.0132871,-0.790378,6,0.00210886,10,-1.05018e-05,-3.10217,0.627875,0.0939678,-2.8965,0.0132871,
2,0,0,1,0,10969.5,0.0120848,0.011775,-0.786203,6,0.00198795,10,-9.25752e-06,-3.10447,0.828616,0.0712031,-2.18876,0.011775,
2,0,0,1,0,10969.6,0.0105866,0.010266,-0.784707,6,0.00186769,10,-8.05581e-06,-3.10529,1.17186,0.0503475,-1.54534,0.010266,
2,0,0,1,0,10969.8,0.00908846,0.00870298,-0.782522,6,0.00174755,10,-6.81027e-06,-3.1065,0.949651,0.0621281,-1.89643,0.00870298,
2,0,0,1,0,10969.9,0.00759027,0.00729794,-0.78246,6,0.0016276,10,-5.71035e-06,-3.10654,1.08674,0.0542909,-1.65499,0.00729794,
2,0,0,1,0,10970.1,0.00609208,0.00580383,-0.780461,6,0.001508,10,-4.52966e-06,-3.10765,2.26033,0.0261023,-0.7943,0.00580383,
2,0,0,1,0,10970.2,0.00459389,0.0042832,-0.779527,6,0.0013888,10,-3.33887e-06,-3.10817,8.39172,0.00703074,-0.214045,0.0042832,
2,0,0,1,0,10970.4,0.0030948,0.00274829,-0.780152,6,0.00126937,10,-2.14408e-06,-3.10782,-1.21013,-0.0487552,1.48418,0.00274829,
2,0,0,1,0,10970.5,0.00159728,0.00122578,-0.78887,6,0.00114831,10,-9.66979e-07,-3.10299, , , ,0.00122578,
2,0,0,1,0,10970.6,0.000199195,-0.000191712,-0.778856,6,0.00103615,10,1.49316e-07,-3.10854, , , ,-0.0001917123,