File: Figure_codes/Fig_3-5/rawdata_trumpetplot_data/after 10th/20221101_1-115_003_TrumpetPlot_ParaChange_from10_every3_08_CV_C01_21.csv
mode,ox/red,error,control changes,counter inc.,time/s,control/V,Ewe/V,<I>/mA,cycle number,(Q-Qo)/C,I Range,P/W,log(|I|),Tafel slope mV/dec,alpha_eff,dI/d(E-IR),E-IR/V,
2,0,0,0,0,42547.8,2.44065e-05,-0.000229887,-4.00081,22,0.0000000E+000,10,9.19735e-07,-2.39785, , , ,-0.000229887,
2,0,0,1,0,42547.8,0.0012943,0.000909217,-2.40155,22,-4.83826e-05,10,-2.18353e-06,-2.61951, , , ,0.000909217,
2,0,0,1,0,42547.8,0.00279784,0.00246517,-1.20971,22,-8.14712e-05,10,-2.98214e-06,-2.91732,-0.00324119,-18.2032,678.06,0.00246517,
2,0,0,1,0,42547.8,0.00429425,0.00398249,-0.392873,22,-9.5838e-05,10,-1.56461e-06,-3.40575,-0.00685122,-8.61161,492.362,0.00398249,
2,1,0,1,0,42547.8,0.00579065,0.00546734,0.227384,22,-9.68707e-05,10,1.24319e-06,-3.64324,0.0317142,1.86036,380.091,0.00546734,
2,1,0,1,0,42547.8,0.00729419,0.00699875,0.722393,22,-8.74771e-05,10,5.05585e-06,-3.14123,0.00262762,22.4538,298.036,0.00699875,
2,1,0,1,0,42547.9,0.00878347,0.0084361,1.11579,22,-6.99754e-05,10,9.41292e-06,-2.95242,0.00918892,6.42078,244.57,0.0084361,
2,1,0,1,0,42547.9,0.010287,0.00997603,1.44089,22,-4.55885e-05,10,1.43743e-05,-2.84137,0.0155936,3.78359,199.962,0.00997603,
2,1,0,1,0,42547.9,0.0117905,0.0114451,1.70277,22,-1.56293e-05,10,1.94884e-05,-2.76884,0.0226204,2.60826,167.959,0.0114451,
2,1,0,1,0,42547.9,0.013278,0.0129421,1.93004,22,1.85314e-05,10,2.49787e-05,-2.71443,0.0304458,1.93787,143.438,0.0129421,
2,1,0,1,0,42547.9,0.0147816,0.0144564,2.12527,22,5.70254e-05,10,3.07238e-05,-2.67259,0.0398619,1.48011,121.197,0.01445644,
2,1,0,1,0,42548,0.0162851,0.0159933,2.29648,22,9.90054e-05,10,3.67283e-05,-2.63894,0.0495766,1.19008,105.425,0.01599331,
2,1,0,1,0,42548,0.0177744,0.0174382,2.44969,22,0.000143473,10,4.27181e-05,-2.61089,0.0620342,0.951088,90.107,0.0174382,
2,1,0,1,0,42548,0.0192779,0.0189372,2.57953,22,0.000190918,10,4.88491e-05,-2.58846,0.0743024,0.794052,79.4909,0.0189372,
2,1,0,1,0,42548,0.0207743,0.0204548,2.69852,22,0.000240476,10,5.51977e-05,-2.56888,0.0832413,0.708783,74.239,0.0204548,
2,1,0,1,0,42548,0.0222707,0.0219468,2.80664,22,0.000292155,10,6.15969e-05,-2.55181,0.0934275,0.631506,68.8876,0.0219468,
2,1,0,1,0,42548.1,0.0237743,0.0234415,2.9127,22,0.000346111,10,6.82779e-05,-2.5357,0.105989,0.556659,62.8552,0.0234415,
2,1,0,1,0,42548.1,0.0252636,0.0249207,2.99297,22,0.000401194,10,7.4587e-05,-2.5239,0.116195,0.507769,59.2975,0.0249207,
2,1,0,1,0,42548.1,0.0267671,0.0264566,3.08492,22,0.000458508,10,8.16163e-05,-2.51076,0.121784,0.484463,58.1674,0.0264566,
2,1,0,1,0,42548.1,0.0282706,0.0279413,3.16866,22,0.000517486,10,8.85364e-05,-2.49912,0.125175,0.471341,58.148,0.02794129,
2,1,0,1,0,42548.1,0.0297581,0.0294492,3.24801,22,0.000577381,10,9.56512e-05,-2.48838,0.141359,0.417377,52.778,0.0294492,
2,1,0,1,0,42548.1,0.0312617,0.0309029,3.31719,22,0.000639356,10,0.000102511,-2.47923,0.149059,0.395816,51.256,0.03090289,
2,1,0,1,0,42548.2,0.0327652,0.0324224,3.39394,22,0.00070269,10,0.00011004,-2.4693,0.159715,0.369408,48.9167,0.0324224,
2,1,0,1,0,42548.2,0.0342545,0.0339248,3.46761,22,0.000766751,10,0.000117638,-2.45997,0.161953,0.364304,49.2448,0.0339248,
2,1,0,1,0,42548.2,0.035758,0.0354999,3.5334,22,0.000832843,10,0.000125435,-2.45181,0.173118,0.340807,47.0375,0.0354999,
2,1,0,1,0,42548.2,0.0372544,0.0369193,3.60658,22,0.000899934,10,0.000133152,-2.4429,0.179132,0.329366,46.3554,0.0369193,
2,1,0,1,0,42548.2,0.0387508,0.0384103,3.67092,22,0.000968237,10,0.000141001,-2.43522,0.187718,0.314301,45.1243,0.03841034,
2,1,0,1,0,42548.3,0.0402544,0.0399227,3.7428,22,0.00103821,10,0.000149423,-2.4268,0.190776,0.309263,45.1876,0.0399227,
2,1,0,1,0,42548.3,0.0417436,0.0414234,3.81835,22,0.00110879,10,0.000158169,-2.41812,0.204871,0.287987,42.821,0.04142341,
2,1,0,1,0,42548.3,0.0432472,0.0429071,3.87912,22,0.00118133,10,0.000166442,-2.41127,0.209828,0.281183,42.5433,0.0429071,
2,1,0,1,0,42548.3,0.0447507,0.044443,3.94499,22,0.00125507,10,0.000175327,-2.40395,0.217402,0.271386,41.7222,0.044443,
2,1,0,1,0,42548.3,0.0462382,0.0459076,4.00727,22,0.00132922,10,0.000183964,-2.39715,0.213341,0.276552,43.2406,0.0459076,
2,1,0,1,0,42548.4,0.0477418,0.0474172,4.072,22,0.00140536,10,0.000193083,-2.39019,0.219041,0.269356,42.7757,0.0474172,
2,1,0,1,0,42548.4,0.0492453,0.0489257,4.14005,22,0.00148277,10,0.000202555,-2.38299,0.22672,0.260233,41.967,0.0489257,
2,1,0,1,0,42548.4,0.0507346,0.0503955,4.19652,22,0.00156046,10,0.000211486,-2.37711,0.229378,0.257217,42.1225,0.0503955,
2,1,0,1,0,42548.4,0.0522381,0.0519204,4.25901,22,0.00164014,10,0.000221129,-2.37069,0.225794,0.2613,43.4027,0.05192041,
2,1,0,1,0,42548.4,0.0537345,0.0533591,4.32872,22,0.0017206,10,0.000230976,-2.36364,0.226186,0.260847,43.9787,0.0533591,
2,1,0,1,0,42548.4,0.0552309,0.0549059,4.38198,22,0.00180226,10,0.000240597,-2.35833,0.232157,0.254139,43.4362,0.0549059,
2,1,0,1,0,42548.5,0.0567345,0.0564162,4.43653,22,0.00188549,10,0.000250292,-2.35296,0.252971,0.233228,40.4334,0.0564162,
2,1,0,1,0,42548.5,0.0582237,0.0579053,4.49704,22,0.00196886,10,0.000260402,-2.34707,0.259596,0.227276,39.946,0.0579053,
2,1,0,1,0,42548.5,0.0597273,0.0594282,4.55516,22,0.00205427,10,0.000270705,-2.3415,0.270531,0.21809,38.7879,0.0594282,
2,1,0,1,0,42548.5,0.0612308,0.0608914,4.61461,22,0.0021408,10,0.00028099,-2.33587,0.300564,0.196298,35.3565,0.0608914,
2,1,0,1,0,42548.5,0.0627183,0.0624399,4.67343,22,0.00222748,10,0.000291809,-2.33036,0.298273,0.197805,36.0797,0.0624399,
2,1,0,1,0,42548.6,0.0642218,0.0638888,4.72665,22,0.00231609,10,0.00030198,-2.32545,0.299529,0.196976,36.3843,0.06388884,
2,1,0,1,0,42548.6,0.0657254,0.0654141,4.78665,22,0.00240579,10,0.000313115,-2.31997,0.302889,0.194791,36.3911,0.0654141,
2,1,0,1,0,42548.6,0.0672147,0.066893,4.84927,22,0.00249565,10,0.000324383,-2.31432,0.32012,0.184306,34.8423,0.066893,
2,1,0,1,0,42548.6,0.0687182,0.0684016,4.90344,22,0.00258749,10,0.000335403,-2.3095,0.348475,0.169309,32.3515,0.0684016,
2,1,0,1,0,42548.6,0.0702146,0.0698946,4.94943,22,0.00267978,10,0.000345938,-2.30545,0.339653,0.173707,33.552,0.0698946,
2,1,0,1,0,42548.7,0.071711,0.0713966,5.00543,22,0.002773,10,0.000357371,-2.30056,0.318905,0.185008,36.1175,0.0713966,
2,1,0,1,0,42548.7,0.0732146,0.072898,5.05389,22,0.00286771,10,0.000368419,-2.29637,0.344518,0.171254,33.7345,0.072898,
2,1,0,1,0,42548.7,0.0747038,0.0743964,5.10521,22,0.00296238,10,0.000379809,-2.29199,0.350861,0.168158,33.4586,0.0743964,
2,1,0,1,0,42548.7,0.0762074,0.0758747,5.14594,22,0.00305889,10,0.000390447,-2.28854,0.365433,0.161452,32.4357,0.0758747,
2,1,0,1,0,42548.7,0.0777109,0.0773662,5.19197,22,0.00315628,10,0.000401683,-2.28467,0.342669,0.172178,34.8904,0.0773662,
2,1,0,1,0,42548.7,0.0791984,0.0788829,5.23798,22,0.00325354,10,0.000413187,-2.28084,0.367379,0.160597,32.8269,0.0788829,
2,1,0,1,0,42548.8,0.0807019,0.0803898,5.28541,22,0.00335272,10,0.000424893,-2.27692,0.413851,0.142563,29.3823,0.0803898,
2,1,0,1,0,42548.8,0.0822055,0.0819148,5.3249,22,0.00345275,10,0.000436188,-2.27369,0.409392,0.144116,29.9417,0.0819148,
2,1,0,1,0,42548.8,0.0836947,0.0833804,5.35792,22,0.0035524,10,0.000446746,-2.271,0.456312,0.129297,27.0933,0.0833804,
2,1,0,1,0,42548.8,0.0851983,0.0848767,5.40449,22,0.0036539,10,0.000458715,-2.26725,0.466845,0.12638,26.6824,0.0848767,
2,1,0,1,0,42548.8,0.0866947,0.0863406,5.44701,22,0.00375567,10,0.000470298,-2.26384,0.515926,0.114357,24.3103,0.0863406,
2,1,0,1,0,42548.9,0.0881911,0.0879038,5.48947,22,0.00385818,10,0.000482545,-2.26047,0.579816,0.101756,21.791,0.0879038,
2,1,0,1,0,42548.9,0.0896946,0.089384,5.52594,22,0.0039619,10,0.000493931,-2.25759,0.48867,0.120736,26.0501,0.089384,
2,1,0,1,0,42548.9,0.0911839,0.0909148,5.57,22,0.00406529,10,0.000506395,-2.25414,0.462592,0.127542,27.6929,0.0909148,
2,1,0,1,0,42548.9,0.0926857,0.092376,5.61748,22,0.0041706,10,0.00051892,-2.25046,0.474508,0.124339,27.2352,0.092376,
2,1,0,1,0,42548.9,0.0941892,0.0938604,5.6571,22,0.0042767,10,0.000530978,-2.24741,0.460907,0.128009,28.2477,0.0938604,
2,1,0,1,0,42549,0.0956785,0.0953625,5.69829,22,0.00438247,10,0.000543403,-2.24426,0.428901,0.137561,30.6164,0.09536247,
2,1,0,1,0,42549,0.097182,0.0968414,5.74777,22,0.00449023,10,0.000556622,-2.2405,0.365282,0.161519,36.227,0.0968414,
2,1,0,1,0,42549,0.0986856,0.0983442,5.80215,22,0.004599,10,0.000570608,-2.23641,0.347248,0.169908,38.4735,0.09834417,
2,1,0,1,0,42549,0.100175,0.0998746,5.85601,22,0.00470762,10,0.000584867,-2.2324,0.337517,0.174806,39.9775,0.0998746,
2,1,0,1,0,42549,0.101678,0.101358,5.90898,22,0.00481845,10,0.000598922,-2.22849,0.321441,0.183548,42.3998,0.101358,
2,1,0,1,0,42549,0.103175,0.102853,5.97819,22,0.00492984,10,0.000614873,-2.22343,0.280836,0.210087,49.0877,0.102853,
2,1,0,1,0,42549.1,0.104671,0.104347,6.05147,22,0.00504253,10,0.000631456,-2.21814,0.265958,0.221839,52.4247,0.104347,
2,1,0,1,0,42549.1,0.106175,0.105867,6.13178,22,0.0051573,10,0.00064915,-2.21241,0.27223,0.216729,51.84,0.105867,
2,1,0,1,0,42549.1,0.107662,0.107359,6.20643,22,0.00527234,10,0.000666315,-2.20716,0.265301,0.222389,53.9327,0.107359,
2,1,0,1,0,42549.1,0.109166,0.10886,6.29187,22,0.00539004,10,0.00068493,-2.20122,0.262423,0.224828,55.2663,0.10886,
2,1,0,1,0,42549.1,0.110669,0.110353,6.37898,22,0.0055094,10,0.000703941,-2.19525,0.250957,0.2351,58.5517,0.110353,
2,1,0,1,0,42549.2,0.112159,0.111817,6.47375,22,0.00562918,10,0.000723875,-2.18884,0.258061,0.228628,57.7149,0.1118171,
2,1,0,1,0,42549.2,0.113662,0.113319,6.56578,22,0.00575191,10,0.000744029,-2.18271,0.268069,0.220092,56.3443,0.1133192,
2,1,0,1,0,42549.2,0.115166,0.114817,6.65157,22,0.00587628,10,0.000763712,-2.17708,0.253684,0.232572,60.41,0.114817,
2,1,0,1,0,42549.2,0.116655,0.116342,6.75329,22,0.00600109,10,0.000785694,-2.17048,0.245499,0.240327,63.2938,0.116342,
2,1,0,1,0,42549.2,0.118158,0.117828,6.85368,22,0.00612912,10,0.000807557,-2.16408,0.255153,0.231234,61.7294,0.117828,
2,1,0,1,0,42549.3,0.119655,0.119328,6.94165,22,0.00625827,10,0.000828334,-2.15854,0.268997,0.219333,59.3552,0.119328,
2,1,0,1,0,42549.3,0.121151,0.120844,7.02464,22,0.00638899,10,0.000848886,-2.15338,0.284334,0.207503,56.8576,0.120844,
2,1,0,1,0,42549.3,0.122655,0.122312,7.11016,22,0.00652199,10,0.000869656,-2.14812,0.287481,0.205231,56.8611,0.1223117,
2,1,0,1,0,42549.3,0.124142,0.123876,7.18777,22,0.00665514,10,0.000890391,-2.14341,0.303614,0.194326,54.4508,0.123876,
2,1,0,1,0,42549.3,0.125646,0.125315,7.25882,22,0.00679116,10,0.000909641,-2.13913,0.330282,0.178635,50.5677,0.125315,
2,1,0,1,0,42549.3,0.127149,0.126793,7.31943,22,0.00692853,10,0.000928052,-2.13552,0.372409,0.158428,45.2783,0.1267928,
2,1,0,1,0,42549.4,0.128639,0.128309,7.38773,22,0.00706562,10,0.000947909,-2.13149,0.414872,0.142212,41.0022,0.128309,
2,1,0,1,0,42549.4,0.130142,0.12985,7.44422,22,0.00720536,10,0.000966633,-2.12818,0.433915,0.135971,39.5175,0.12985,
2,1,0,1,0,42549.4,0.131646,0.131345,7.50702,22,0.00734622,10,0.000986011,-2.12453,0.5238,0.112638,32.9712,0.131345,
2,1,0,1,0,42549.4,0.133135,0.132782,7.55568,22,0.00748658,10,0.00100326,-2.12173,0.549501,0.10737,31.6477,0.132782,
2,1,0,1,0,42549.4,0.134639,0.134324,7.59379,22,0.00762924,10,0.00102003,-2.11954,0.642051,0.091893,27.2587,0.134324,
2,1,0,1,0,42549.5,0.136135,0.135818,7.64594,22,0.00777206,10,0.00103846,-2.11657,0.641537,0.0919666,27.4252,0.135818,
2,1,0,1,0,42549.5,0.137631,0.137312,7.68967,22,0.00791562,10,0.00105589,-2.11409,0.877451,0.0672402,20.1507,0.137312,
2,1,0,1,0,42549.5,0.139135,0.13881,7.72151,22,0.00806066,10,0.00107183,-2.1123,1.02725,0.057435,17.282,0.13881,
2,1,0,1,0,42549.5,0.140622,0.140314,7.74779,22,0.00820465,10,0.00108712,-2.11082,1.20709,0.0488777,14.763,0.140314,
2,1,0,1,0,42549.5,0.142126,0.141826,7.76418,22,0.0083506,10,0.00110116,-2.1099,1.56732,0.037644,11.3919,0.141826,
2,1,0,1,0,42549.6,0.143629,0.143312,7.7809,22,0.00849692,10,0.0011151,-2.10897,3.87195,0.0152378,4.61731,0.143312,
2,1,0,1,0,42549.6,0.145119,0.144822,7.77568,22,0.00864179,10,0.00112609,-2.10926,-2.29042,-0.0257595,-7.80199,0.144822,
2,1,0,1,0,42549.6,0.146622,0.146274,7.75934,22,0.00878801,10,0.00113499,-2.11018,-1.05106,-0.0561341,-16.9638,0.146274,
2,1,0,1,0,42549.6,0.148126,0.147845,7.72242,22,0.00893372,10,0.00114172,-2.11225,-0.638353,-0.0924253,-27.7803,0.147845,
2,1,0,1,0,42549.6,0.149615,0.149307,7.66856,22,0.00907707,10,0.00114497,-2.11529,-0.42423,-0.139076,-41.5102,0.149307,
2,1,0,1,0,42549.6,0.151119,0.150773,7.58503,22,0.00922072,10,0.00114361,-2.12004,-0.292092,-0.201991,-59.6249,0.1507726,
2,1,0,1,0,42549.7,0.152615,0.152311,7.48376,22,0.00936196,10,0.00113986,-2.12588,-0.230307,-0.25618,-74.6484,0.152311,
2,1,0,1,0,42549.7,0.154111,0.153755,7.35812,22,0.00950099,10,0.00113135,-2.13323,-0.185632,-0.317834,-91.0979,0.153755,
2,1,0,1,0,42549.7,0.155615,0.155247,7.21458,22,0.00963827,10,0.00112004,-2.14179,-0.158601,-0.372003,-104.428,0.155247,
2,1,0,1,0,42549.7,0.157103,0.1568,7.04145,22,0.00977117,10,0.0011041,-2.15234,-0.133115,-0.443225,-121.497,0.1568,
2,1,0,1,0,42549.7,0.158606,0.158294,6.85201,22,0.00990207,10,0.00108464,-2.16418,-0.119271,-0.494673,-132.048,0.158294,
2,1,0,1,0,42549.8,0.16011,0.159776,6.64763,22,0.0100292,10,0.00106213,-2.17733,-0.105528,-0.559095,-144.791,0.159776,
2,1,0,1,0,42549.8,0.161599,0.161282,6.43849,22,0.0101511,10,0.00103841,-2.19122,-0.102068,-0.578047,-144.939,0.161282,
2,1,0,1,0,42549.8,0.163102,0.162801,6.21771,22,0.0102702,10,0.00101225,-2.20637,-0.0975779,-0.604645,-146.617,0.162801,
2,1,0,1,0,42549.8,0.164606,0.164297,6.00246,22,0.0103852,10,0.000986184,-2.22167,-0.0952436,-0.619464,-144.943,0.164297,
2,1,0,1,0,42549.8,0.166095,0.165751,5.78985,22,0.010495,10,0.000959673,-2.23733,-0.0975677,-0.604708,-136.678,0.165751,
2,1,0,1,0,42549.9,0.167599,0.167223,5.58239,22,0.010602,10,0.000933506,-2.25318,-0.0979665,-0.602247,-131.408,0.167223,
2,1,0,1,0,42549.9,0.169095,0.168793,5.39886,22,0.0107048,10,0.000911289,-2.2677,-0.102063,-0.578074,-121.757,0.168793,
2,1,0,1,0,42549.9,0.170592,0.170273,5.22073,22,0.0108042,10,0.000888952,-2.28227,-0.106001,-0.556598,-113.497,0.170273,
2,1,0,1,0,42549.9,0.172095,0.171749,5.04289,22,0.0109009,10,0.000866112,-2.29732,-0.110199,-0.535393,-105.681,0.1717492,
2,1,0,1,0,42549.9,0.173583,0.173274,4.88995,22,0.0109935,10,0.000847303,-2.3107,-0.115535,-0.510667,-97.6681,0.1732745,
2,1,0,1,0,42549.9,0.175086,0.17471,4.74879,22,0.0110843,10,0.000829663,-2.32342,-0.121211,-0.486753,-90.3986,0.17471,
2,1,0,1,0,42550,0.17659,0.176288,4.62082,22,0.0111727,10,0.000814596,-2.33528,-0.128468,-0.459259,-82.9535,0.176288,
2,1,0,1,0,42550,0.178079,0.177785,4.50566,22,0.0112578,10,0.000801038,-2.34624,-0.14093,-0.418649,-73.7342,0.177785,
2,1,0,1,0,42550,0.179582,0.179271,4.39316,22,0.0113416,10,0.000787568,-2.35722,-0.146068,-0.403922,-69.4698,0.179271,
2,1,0,1,0,42550,0.181086,0.180797,4.29933,22,0.0114236,10,0.000777307,-2.3666,-0.159226,-0.370542,-62.3302,0.180797,
2,1,0,1,0,42550,0.182575,0.182274,4.21258,22,0.011503,10,0.000767845,-2.37545,-0.166966,-0.353365,-58.1532,0.182274,
2,1,0,1,0,42550.1,0.184079,0.183726,4.12808,22,0.0115816,10,0.000758436,-2.38425,-0.172069,-0.342886,-55.3284,0.183726,
2,1,0,1,0,42550.1,0.185582,0.185282,4.05115,22,0.0116587,10,0.000750605,-2.39242,-0.190527,-0.309667,-49.0348,0.185282,
2,1,0,1,0,42550.1,0.18707,0.186768,3.98901,22,0.0117337,10,0.00074502,-2.39914,-0.21021,-0.280672,-43.6865,0.1867682,
2,1,0,1,0,42550.1,0.188573,0.188274,3.92686,22,0.0118082,10,0.000739325,-2.40595,-0.227473,-0.259371,-39.7448,0.188274,
2,1,0,1,0,42550.1,0.19007,0.189766,3.8702,22,0.0118812,10,0.000734431,-2.41227,-0.244322,-0.241485,-36.433,0.189766,
2,1,0,1,0,42550.2,0.191566,0.191244,3.81191,22,0.0119532,10,0.000729006,-2.41886,-0.261293,-0.2258,-33.6111,0.191244,
2,1,0,1,0,42550.2,0.19307,0.192763,3.7614,22,0.0120245,10,0.000725058,-2.42465,-0.293137,-0.201271,-29.5746,0.192763,
2,1,0,1,0,42550.2,0.194559,0.194253,3.72183,22,0.0120943,10,0.000722977,-2.42924,-0.328326,-0.1797,-26.095,0.194253,
2,1,0,1,0,42550.2,0.196063,0.195732,3.67475,22,0.012164,10,0.000719265,-2.43477,-0.316422,-0.18646,-26.7702,0.195732,
2,1,0,1,0,42550.2,0.197566,0.197249,3.62661,22,0.012233,10,0.000715344,-2.4405,-0.372851,-0.15824,-22.4671,0.197249,
2,1,0,1,0,42550.2,0.199055,0.198766,3.59997,22,0.0123004,10,0.000715551,-2.4437,-0.384116,-0.153599,-21.5938,0.198766,
2,1,0,1,0,42550.3,0.200559,0.200239,3.56356,22,0.012368,10,0.000713564,-2.44812,-0.377917,-0.156119,-21.7264,0.200239,
2,1,0,1,0,42550.3,0.202062,0.201756,3.53411,22,0.012435,10,0.000713027,-2.45172,-0.393603,-0.149897,-20.6684,0.201756,
2,1,0,1,0,42550.3,0.20355,0.203207,3.50022,22,0.0125006,10,0.000711268,-2.45591,-0.392454,-0.150336,-20.5698,0.203207,
2,1,0,1,0,42550.3,0.205053,0.204708,3.47374,22,0.0125665,10,0.000711101,-2.4592,-0.488691,-0.120731,-16.4201,0.204708,
2,1,0,1,0,42550.3,0.20655,0.206262,3.45577,22,0.0126315,10,0.000712793,-2.46146,-0.537644,-0.109738,-14.8021,0.206262,
2,1,0,1,0,42550.4,0.208046,0.207754,3.43669,22,0.0126962,10,0.000713986,-2.46386,-0.453343,-0.130144,-17.4364,0.207754,
2,1,0,1,0,42550.4,0.20955,0.209219,3.41936,22,0.0127608,10,0.000715396,-2.46606,-0.443807,-0.132941,-17.7213,0.209219,
2,1,0,1,0,42550.4,0.211039,0.210717,3.39592,22,0.0128243,10,0.000715577,-2.46904,-0.534261,-0.110433,-14.6229,0.210717,
2,1,0,1,0,42550.4,0.212543,0.212213,3.37382,22,0.012888,10,0.000715968,-2.47188,-0.726082,-0.0812581,-10.6911,0.212213,
2,1,0,1,0,42550.4,0.214046,0.2137,3.35735,22,0.0129515,10,0.000717467,-2.474,-0.700183,-0.0842637,-11.0235,0.2137,
2,1,0,1,0,42550.5,0.215535,0.215267,3.34466,22,0.0130139,10,0.000719995,-2.47565,-0.740363,-0.0796906,-10.3788,0.215267,
2,1,0,1,0,42550.5,0.217039,0.216676,3.31496,22,0.0130766,10,0.00071827,-2.47952,-0.821559,-0.0718147,-9.30784,0.216676,
2,1,0,1,0,42550.5,0.218543,0.218222,3.30481,22,0.0131391,10,0.000721181,-2.48085,-1.43961,-0.0409833,-5.28565,0.218222,
2,1,0,1,0,42550.5,0.22003,0.219741,3.29145,22,0.0132006,10,0.000723265,-2.48261,-0.988564,-0.0596825,-7.66509,0.219741,
2,1,0,1,0,42550.5,0.221534,0.221248,3.2761,22,0.0132626,10,0.000724831,-2.48464,-0.933829,-0.0631808,-8.08342,0.221248,
2,1,0,1,0,42550.5,0.22303,0.222712,3.25426,22,0.013324,10,0.000724762,-2.48755,-0.871916,-0.0676671,-8.62298,0.222712,
2,1,0,1,0,42550.6,0.224526,0.224249,3.24991,22,0.0133851,10,0.000728788,-2.48813,-1.1489,-0.0513534,-6.51857,0.224249,
2,1,0,1,0,42550.6,0.22603,0.225695,3.2363,22,0.0134463,10,0.000730418,-2.48995,-1.00584,-0.0586577,-7.41778,0.225695,
2,1,0,1,0,42550.6,0.227519,0.227249,3.23258,22,0.0135067,10,0.000734601,-2.49045,-0.804726,-0.0733169,-9.23509,0.227249,
2,1,0,1,0,42550.6,0.229023,0.22868,3.21367,22,0.0135675,10,0.000734901,-2.493,-0.763105,-0.0773157,-9.71124,0.22868,
2,1,0,1,0,42550.6,0.230526,0.230196,3.20598,22,0.0136281,10,0.000738006,-2.49404,-0.899485,-0.0655931,-8.21277,0.2301963,
2,1,0,1,0,42550.7,0.232016,0.231704,3.20048,22,0.0136879,10,0.000741561,-2.49479,-1.14048,-0.0517326,-6.45493,0.231704,
2,1,0,1,0,42550.7,0.233519,0.233183,3.18983,22,0.0137482,10,0.000743815,-2.49623,-0.919516,-0.0641642,-7.9821,0.233183,
2,1,0,1,0,42550.7,0.235023,0.234722,3.18928,22,0.0138083,10,0.000748592,-2.49631,-0.970721,-0.0607796,-7.54392,0.234722,
2,1,0,1,0,42550.7,0.23651,0.236216,3.17181,22,0.0138675,10,0.000749231,-2.49869,-1.17422,-0.0502463,-6.2232,0.236216,
2,1,0,1,0,42550.7,0.238014,0.237699,3.16456,22,0.0139273,10,0.000752213,-2.49969,-2.39909,-0.0245926,-3.03564,0.237699,
2,1,0,1,0,42550.8,0.23951,0.239204,3.16223,22,0.0139866,10,0.000756418,-2.50001,-1.86632,-0.031613,-3.89292,0.239204,
2,1,0,1,0,42550.8,0.241006,0.240735,3.15295,22,0.0140458,10,0.000759025,-2.50128,-1.4294,-0.0412762,-5.07194,0.240735,
2,1,0,1,0,42550.8,0.24251,0.242163,3.13748,22,0.0141051,10,0.000759783,-2.50342,-1.56933,-0.0375956,-4.60938,0.242163,
2,1,0,1,0,42550.8,0.243999,0.243692,3.13019,22,0.0141637,10,0.000762803,-2.50443,-3.16609,-0.0186349,-2.28017,0.243692,
2,1,0,1,0,42550.8,0.245503,0.245179,3.1278,22,0.0142227,10,0.000766871,-2.50476,-2.33955,-0.0252186,-3.07922,0.2451788,
2,1,0,1,0,42550.8,0.247006,0.246712,3.12063,22,0.0142817,10,0.000769898,-2.50576,-2.05328,-0.0287345,-3.49857,0.246712,
2,1,0,1,0,42550.9,0.248496,0.24824,3.11112,22,0.01434,10,0.000772303,-2.50708,-1.41165,-0.0417952,-5.08387,0.24824,
2,1,0,1,0,42550.9,0.249999,0.249712,3.10542,22,0.0143987,10,0.000775462,-2.50788,-1.15701,-0.0509934,-6.18515,0.249712,
2,1,0,1,0,42550.9,0.251503,0.251215,3.10359,22,0.0144573,10,0.00077967,-2.50814,-1.8593,-0.0317324,-3.84238,0.251215,
2,1,0,1,0,42550.9,0.25299,0.252695,3.09843,22,0.0145152,10,0.000782958,-2.50886,-1.06551,-0.0553726,-6.68299,0.252695,
2,1,0,1,0,42550.9,0.254494,0.254203,3.08746,22,0.0145736,10,0.00078484,-2.5104,-1.12717,-0.0523435,-6.32048,0.254203,
2,1,0,1,0,42551,0.25599,0.25564,3.08279,22,0.0146316,10,0.000788085,-2.51106,-1.36557,-0.0432055,-5.20675,0.25564,
2,1,0,1,0,42551,0.257487,0.257184,3.08479,22,0.0146894,10,0.000793358,-2.51077,-1.52527,-0.0386817,-4.65097,0.2571837,
2,1,0,1,0,42551,0.25899,0.258669,3.08196,22,0.0147475,10,0.000797208,-2.51117,-1.63177,-0.036157,-4.33586,0.258669,
2,1,0,1,0,42551,0.260479,0.260186,3.07681,22,0.0148049,10,0.000800542,-2.5119,-1.8194,-0.0324282,-3.88349,0.260186,
2,1,0,1,0,42551,0.261983,0.261679,3.06795,22,0.0148628,10,0.000802819,-2.51315,-2.09727,-0.0281318,-3.36509,0.261679,
2,1,0,1,0,42551,0.263486,0.263145,3.06088,22,0.0149205,10,0.000805455,-2.51415,-11.9869,-0.00492204,-0.587724,0.263145,
2,1,0,1,0,42551.1,0.264974,0.26467,3.05653,22,0.0149776,10,0.000808972,-2.51477,-3.67262,-0.0160648,-1.91435,0.26467,
2,1,0,1,0,42551.1,0.266477,0.266204,3.04648,22,0.0150352,10,0.000810986,-2.5162,-3.75917,-0.0156949,-1.8656,0.266204,
2,1,0,1,0,42551.1,0.267981,0.267632,3.03904,22,0.0150927,10,0.000813346,-2.51726,-3.99108,-0.014783,-1.75638,0.267632,
2,1,0,1,0,42551.1,0.26947,0.269198,3.03635,22,0.0151494,10,0.00081738,-2.51765,-4.24153,-0.0139101,-1.6503,0.269198,
2,1,0,1,0,42551.1,0.270974,0.270698,3.03181,22,0.0152067,10,0.000820704,-2.5183,-7.3359,-0.00804264,-0.952,0.270698,
2,1,0,1,0,42551.2,0.27247,0.272155,3.02679,22,0.0152636,10,0.000823755,-2.51902,-2.52705,-0.0233474,-2.75812,0.272155,
2,1,0,1,0,42551.2,0.273967,0.273642,3.02103,22,0.0153205,10,0.000826682,-2.51984,-1.32062,-0.0446759,-5.27011,0.273642,
2,1,0,1,0,42551.2,0.27547,0.275169,3.01428,22,0.0153775,10,0.000829436,-2.52082,-1.0569,-0.0558237,-6.58177,0.275169,
2,1,0,1,0,42551.2,0.276959,0.276624,3.01243,22,0.0154338,10,0.000833309,-2.52108,-1.45043,-0.0406777,-4.78423,0.276624,
2,1,0,1,0,42551.2,0.278463,0.278138,3.01441,22,0.0154906,10,0.000838423,-2.5208,-1.08882,-0.0541872,-6.35832,0.278138,
2,1,0,1,0,42551.3,0.279967,0.279652,3.00907,22,0.0155473,10,0.000841491,-2.52157,-1.40476,-0.0420001,-4.92369,0.279652,
2,1,0,1,0,42551.3,0.281454,0.281169,3.00251,22,0.0156033,10,0.000844214,-2.52252,-1.81573,-0.0324938,-3.80375,0.281169,
2,1,0,1,0,42551.3,0.282958,0.28264,2.99872,22,0.0156599,10,0.000847558,-2.52306,-2.89944,-0.0203488,-2.37638,0.28264,
2,1,0,1,0,42551.3,0.284461,0.284172,2.99604,22,0.0157163,10,0.00085139,-2.52345,-4.54761,-0.0129738,-1.51298,0.284172,
2,1,0,1,0,42551.3,0.28595,0.285666,2.99046,22,0.0157721,10,0.000854274,-2.52426,-1.73191,-0.0340665,-3.96828,0.285666,
2,1,0,1,0,42551.3,0.287454,0.28711,2.9766,22,0.0158284,10,0.000854612,-2.52628,-2.44132,-0.0241672,-2.80766,0.28711,
2,1,0,1,0,42551.4,0.28895,0.288615,2.97145,22,0.0158842,10,0.000857605,-2.52703,10.9969,0.00536514,0.621988,0.288615,
2,1,0,1,0,42551.4,0.290447,0.290125,2.96663,22,0.01594,10,0.000860692,-2.52774,-2.49689,-0.0236294,-2.7374,0.290125,
2,1,0,1,0,42551.4,0.29195,0.291636,2.95864,22,0.0159959,10,0.000862847,-2.52891,-2.10952,-0.0279684,-3.23314,0.291636,
2,1,0,1,0,42551.4,0.29344,0.293138,2.95287,22,0.0160512,10,0.0008656,-2.52976,-1.8093,-0.0326092,-3.76559,0.293138,
2,1,0,1,0,42551.4,0.294943,0.294645,2.95167,22,0.0161069,10,0.000869697,-2.52993,-2.27958,-0.025882,-2.9848,0.294645,
2,1,0,1,0,42551.5,0.296447,0.296179,2.94647,22,0.0161626,10,0.000872681,-2.5307,-2.75088,-0.0214477,-2.46569,0.296179,
2,1,0,1,0,42551.5,0.297934,0.297647,2.9457,22,0.0162177,10,0.000876778,-2.53081,-1.27746,-0.0461855,-5.3019,0.297647,
2,1,0,1,0,42551.5,0.299438,0.299162,2.93508,22,0.0162732,10,0.000878064,-2.53238,-0.0317073,-1.86077,-197.148,0.299162,
2,1,0,1,0,42551.5,0.300012,0.299689,2.94593,22,0.0162938,10,0.000882862,-2.53078,0.00181496,32.5077,2444.74,0.2996892,
2,1,0,1,0,42551.5,0.298737,0.298414,1.50673,22,0.0163269,10,0.000449629,-2.82197,0.00405557,14.5479,755.266,0.298414,
2,1,0,1,0,42551.5,0.29724,0.296942,0.654627,22,0.0163462,10,0.000194386,-3.18401,0.00175862,33.5491,484.294,0.296942,
2,1,0,1,0,42551.6,0.295744,0.295435,0.120043,22,0.0163529,10,3.54648e-05,-3.92066,0.00927102,6.36392,309.398,0.2954354,
2,0,0,1,0,42551.6,0.29424,0.293885,-0.238191,22,0.0163515,10,-7.00007e-05,-3.62307,-0.0128291,-4.59892,211.885,0.2938849,
2,0,0,1,0,42551.6,0.292751,0.292452,-0.487118,22,0.0163444,10,-0.000142459,-3.31237,-0.00527406,-11.1868,152.254,0.292452,
2,0,0,1,0,42551.6,0.291248,0.290952,-0.682204,22,0.0163331,10,-0.000198488,-3.16609,-0.0119545,-4.93538,118.217,0.290952,
2,0,0,1,0,42551.6,0.289744,0.289464,-0.833483,22,0.0163186,10,-0.000241263,-3.0791,-0.0197378,-2.9892,92.0776,0.289464,
2,0,0,1,0,42551.7,0.288257,0.287938,-0.947202,22,0.0163018,10,-0.000272735,-3.02356,-0.0286668,-2.05813,74.1017,0.287938,
2,0,0,1,0,42551.7,0.286753,0.286413,-1.04219,22,0.0162827,10,-0.000298498,-2.98205,-0.0384194,-1.53568,61.7862,0.286413,
2,0,0,1,0,42551.7,0.285249,0.284924,-1.1254,22,0.0162621,10,-0.000320653,-2.94869,-0.0512484,-1.15125,50.326,0.2849237,
2,0,0,1,0,42551.7,0.28376,0.283404,-1.2026,22,0.0162401,10,-0.00034082,-2.91988,-0.060312,-0.978246,45.538,0.283404,
2,0,0,1,0,42551.7,0.282257,0.281944,-1.269,22,0.0162167,10,-0.000357787,-2.89654,-0.0761906,-0.774374,37.9686,0.281944,
2,0,0,1,0,42551.7,0.28076,0.280454,-1.32427,22,0.0161922,10,-0.000371397,-2.87802,-0.0872374,-0.676316,34.7635,0.280454,
2,0,0,1,0,42551.8,0.279264,0.278947,-1.37567,22,0.0161668,10,-0.000383739,-2.86149,-0.103707,-0.56891,30.3719,0.278947,
2,0,0,1,0,42551.8,0.27776,0.277439,-1.42218,22,0.0161403,10,-0.000394568,-2.84705,-0.114119,-0.517004,28.566,0.277439,
2,0,0,1,0,42551.8,0.276271,0.275941,-1.469,22,0.0161133,10,-0.000405358,-2.83298,-0.124253,-0.474837,27.0546,0.275941,
2,0,0,1,0,42551.8,0.274767,0.274446,-1.50985,22,0.0160852,10,-0.000414371,-2.82107,-0.138964,-0.424571,24.8308,0.274446,
2,0,0,1,0,42551.8,0.273264,0.27293,-1.54116,22,0.0160564,10,-0.000420628,-2.81215,-0.15099,-0.390755,23.4356,0.27293,
2,0,0,1,0,42551.9,0.271776,0.27146,-1.5715,22,0.0160273,10,-0.0004266,-2.80369,-0.140805,-0.41902,25.7144,0.27146,
2,0,0,1,0,42551.9,0.270273,0.269925,-1.6103,22,0.0159972,10,-0.000434662,-2.79309,-0.162655,-0.362731,22.7517,0.269925,
2,0,0,1,0,42551.9,0.268769,0.268506,-1.64,22,0.0159664,10,-0.00044035,-2.78516,-0.179098,-0.329429,21.0505,0.268506,
2,0,0,1,0,42551.9,0.26728,0.266944,-1.6646,22,0.0159354,10,-0.000444355,-2.77869,-0.195497,-0.301794,19.6799,0.266944,
2,0,0,1,0,42551.9,0.265777,0.265428,-1.69557,22,0.0159036,10,-0.000450053,-2.77068,-0.204716,-0.288204,19.0911,0.265428,
2,0,0,1,0,42552,0.26428,0.263958,-1.72315,22,0.0158714,10,-0.000454839,-2.76368,-0.216805,-0.272133,18.3312,0.263958,
2,0,0,1,0,42552,0.262784,0.262472,-1.75181,22,0.0158386,10,-0.0004598,-2.75651,-0.27088,-0.217808,14.8572,0.262472,
2,0,0,1,0,42552,0.26128,0.260957,-1.77167,22,0.0158053,10,-0.00046233,-2.75162,-0.264527,-0.223039,15.4643,0.260957,
2,0,0,1,0,42552,0.259791,0.259483,-1.7985,22,0.0157718,10,-0.00046668,-2.74509,-0.295461,-0.199688,14.0423,0.259483,
2,0,0,1,0,42552,0.258287,0.25797,-1.82557,22,0.0157376,10,-0.000470942,-2.7386,-0.297297,-0.198455,14.1279,0.25797,
2,0,0,1,0,42552,0.256786,0.256476,-1.85101,22,0.0157028,10,-0.000474742,-2.73259,-0.323639,-0.182302,13.1283,0.256476,
2,0,0,1,0,42552.1,0.255296,0.255014,-1.87098,22,0.015668,10,-0.000477125,-2.72793,-0.357224,-0.165162,12.0613,0.255014,
2,0,0,1,0,42552.1,0.253793,0.253455,-1.89302,22,0.0156325,10,-0.000479794,-2.72285,-0.351259,-0.167967,12.3738,0.253455,
2,0,0,1,0,42552.1,0.252289,0.251966,-1.91026,22,0.0155966,10,-0.00048132,-2.71891,-0.294153,-0.200576,14.9397,0.251966,
2,0,0,1,0,42552.1,0.2508,0.250495,-1.93377,22,0.0155607,10,-0.000484398,-2.7136,-0.297296,-0.198455,14.9544,0.2504946,
2,0,0,1,0,42552.1,0.249296,0.248963,-1.95345,22,0.015524,10,-0.000486337,-2.7092,-0.342844,-0.17209,13.0982,0.248963,
2,0,0,1,0,42552.2,0.2478,0.247468,-1.96825,22,0.0154871,10,-0.000487079,-2.70592,-0.291654,-0.202294,15.5637,0.247468,
2,0,0,1,0,42552.2,0.246304,0.245996,-1.99097,22,0.0154499,10,-0.00048977,-2.70094,-0.281752,-0.209404,16.2525,0.245996,
2,0,0,1,0,42552.2,0.2448,0.244505,-2.011,22,0.0154121,10,-0.000491699,-2.69659,-0.339023,-0.17403,13.636,0.244505,
2,0,0,1,0,42552.2,0.243313,0.242964,-2.02734,22,0.0153743,10,-0.000492571,-2.69307,-0.365203,-0.161554,12.7678,0.242964,
2,0,0,1,0,42552.2,0.241809,0.241467,-2.03675,22,0.0153358,10,-0.000491809,-2.69106,-0.380473,-0.15507,12.3829,0.241467,
2,0,0,1,0,42552.3,0.240306,0.24,-2.05825,22,0.0152971,10,-0.00049398,-2.6865,-0.376391,-0.156752,12.6286,0.2399997,
2,0,0,1,0,42552.3,0.238816,0.238492,-2.08039,22,0.0152583,10,-0.000496157,-2.68186,-0.475491,-0.124082,10.0675,0.238492,
2,0,0,1,0,42552.3,0.237313,0.236973,-2.09712,22,0.0152188,10,-0.00049696,-2.67838,-0.471348,-0.125173,10.2329,0.236973,
2,0,0,1,0,42552.3,0.235809,0.235485,-2.1132,22,0.015179,10,-0.000497626,-2.67506,-0.557922,-0.105749,8.73625,0.235485,
2,0,0,1,0,42552.3,0.23432,0.233973,-2.13215,22,0.0151393,10,-0.000498864,-2.67118,-0.598518,-0.0985769,8.20611,0.233973,
2,0,0,1,0,42552.3,0.232816,0.232468,-2.14875,22,0.0150989,10,-0.000499515,-2.66781,-0.512293,-0.115168,9.64778,0.232468,
2,0,0,1,0,42552.4,0.23132,0.231059,-2.17206,22,0.0150584,10,-0.000501875,-2.66313,-0.553747,-0.106547,8.99822,0.231059,
2,0,0,1,0,42552.4,0.229824,0.229482,-2.18911,22,0.0150175,10,-0.00050236,-2.65973,-0.552658,-0.106757,9.08547,0.229482,
2,0,0,1,0,42552.4,0.22832,0.227981,-2.20122,22,0.0149762,10,-0.000501838,-2.65734,-0.50314,-0.117264,10.0479,0.227981,
2,0,0,1,0,42552.4,0.226833,0.226527,-2.21528,22,0.014935,10,-0.00050182,-2.65457,-0.426933,-0.138195,11.929,0.226527,
2,0,0,1,0,42552.4,0.225329,0.225029,-2.23316,22,0.0148931,10,-0.000502526,-2.65108,-0.38817,-0.151995,13.224,0.225029,
2,0,0,1,0,42552.5,0.223825,0.223488,-2.24568,22,0.0148509,10,-0.000501882,-2.64865,-0.413063,-0.142835,12.5053,0.223488,
2,0,0,1,0,42552.5,0.222336,0.222003,-2.25432,22,0.0148088,10,-0.000500467,-2.64698,-0.389599,-0.151438,13.3671,0.2220034,
2,0,0,1,0,42552.5,0.220833,0.220556,-2.26934,22,0.014766,10,-0.000500517,-2.6441,-0.423052,-0.139463,12.3783,0.220556,
2,0,0,1,0,42552.5,0.219329,0.219034,-2.29602,22,0.0147229,10,-0.000502906,-2.63903,-0.381662,-0.154587,13.821,0.2190343,
2,0,0,1,0,42552.5,0.21784,0.21754,-2.30473,22,0.0146799,10,-0.00050137,-2.63738,-0.569256,-0.103644,9.32418,0.21754,
2,0,0,1,0,42552.6,0.216336,0.216047,-2.31584,22,0.0146362,10,-0.000500331,-2.63529,-0.57004,-0.103501,9.38698,0.216047,
2,0,0,1,0,42552.6,0.21484,0.21452,-2.33564,22,0.0145924,10,-0.000501043,-2.63159,-0.656392,-0.0898854,8.20742,0.21452,
2,0,0,1,0,42552.6,0.213343,0.212996,-2.35158,22,0.0145484,10,-0.000500875,-2.62864,-0.621416,-0.0949445,8.71677,0.212996,
2,0,0,1,0,42552.6,0.21184,0.211491,-2.36849,22,0.0145038,10,-0.000500916,-2.62553,-0.702674,-0.083965,7.75369,0.211491,
2,0,0,1,0,42552.6,0.210352,0.210034,-2.38489,22,0.0144594,10,-0.000500908,-2.62253,-0.725764,-0.0812937,7.56053,0.210034,
2,0,0,1,0,42552.6,0.208849,0.208519,-2.39458,22,0.0144143,10,-0.000499314,-2.62077,-0.547922,-0.10768,10.0898,0.208519,
2,0,0,1,0,42552.7,0.207345,0.207011,-2.41633,22,0.0143689,10,-0.000500206,-2.61684,-0.516588,-0.114211,10.7569,0.207011,
2,0,0,1,0,42552.7,0.205856,0.205484,-2.43837,22,0.0143236,10,-0.000501046,-2.6129,-0.475169,-0.124166,11.7731,0.205484,
2,0,0,1,0,42552.7,0.204353,0.20403,-2.45401,22,0.0142775,10,-0.000500691,-2.61012,-0.603023,-0.0978404,9.34297,0.20403,
2,0,0,1,0,42552.7,0.202849,0.202523,-2.46219,22,0.0142312,10,-0.000498649,-2.60868,-0.570772,-0.103369,9.93601,0.202523,
2,0,0,1,0,42552.7,0.20136,0.201042,-2.48058,22,0.0141851,10,-0.000498702,-2.60545,-0.398836,-0.147931,14.2985,0.201042,
2,0,0,1,0,42552.8,0.199856,0.199535,-2.49144,22,0.0141382,10,-0.000497129,-2.60355,-0.478373,-0.123335,12.0092,0.199535,
2,0,0,1,0,42552.8,0.19836,0.198015,-2.50962,22,0.0140912,10,-0.000496942,-2.60039,-0.519483,-0.113574,11.1207,0.198015,
2,0,0,1,0,42552.8,0.196863,0.196589,-2.51847,22,0.014044,10,-0.000495104,-2.59886,-0.476928,-0.123708,12.1919,0.196589,
2,0,0,1,0,42552.8,0.19536,0.195044,-2.53884,22,0.0139962,10,-0.000495184,-2.59537,-0.436559,-0.135148,13.4208,0.195044,
2,0,0,1,0,42552.8,0.193872,0.193526,-2.56033,22,0.0139485,10,-0.00049549,-2.5917,-0.40881,-0.144321,14.4208,0.193526,
2,0,0,1,0,42552.9,0.192369,0.192035,-2.57586,22,0.0139,10,-0.000494655,-2.58908,-0.51917,-0.113643,11.4088,0.192035,
2,0,0,1,0,42552.9,0.190865,0.19051,-2.58985,22,0.0138512,10,-0.000493392,-2.58673,-0.538255,-0.109613,11.1054,0.19051,
2,0,0,1,0,42552.9,0.189376,0.189033,-2.60587,22,0.0138026,10,-0.000492596,-2.58405,-0.562081,-0.104967,10.694,0.189033,
2,0,0,1,0,42552.9,0.187872,0.187517,-2.62655,22,0.0137532,10,-0.000492524,-2.58061,-0.569616,-0.103579,10.6321,0.1875174,
2,0,0,1,0,42552.9,0.186369,0.186029,-2.64913,22,0.0137034,10,-0.000492814,-2.5769,-0.624758,-0.0944366,9.74348,0.186029,
2,0,0,1,0,42552.9,0.18488,0.184536,-2.66851,22,0.0136537,10,-0.000492436,-2.57373,-0.578126,-0.102054,10.6127,0.184536,
2,0,0,1,0,42553,0.183376,0.183103,-2.68738,22,0.0136033,10,-0.000492067,-2.57067,-0.550295,-0.107215,11.2401,0.1831031,
2,0,0,1,0,42553,0.18188,0.181539,-2.71302,22,0.0135527,10,-0.00049252,-2.56655,-0.450889,-0.130853,13.8335,0.181539,
2,0,0,1,0,42553,0.180383,0.180023,-2.73167,22,0.0135017,10,-0.000491763,-2.56357,-0.39766,-0.148368,15.7964,0.180023,
2,0,0,1,0,42553,0.17888,0.178536,-2.75621,22,0.01345,10,-0.000492084,-2.55969,-0.416549,-0.14164,15.1914,0.178536,
2,0,0,1,0,42553,0.177392,0.177091,-2.76232,22,0.0133985,10,-0.000489183,-2.55873,-0.381968,-0.154463,16.698,0.177091,
2,0,0,1,0,42553.1,0.175889,0.175562,-2.79292,22,0.0133461,10,-0.000490332,-2.55394,-0.339804,-0.17363,18.9218,0.175562,
2,0,0,1,0,42553.1,0.174385,0.174034,-2.81222,22,0.0132931,10,-0.000489423,-2.55095,-0.381864,-0.154505,16.9913,0.174034,
2,0,0,1,0,42553.1,0.172896,0.172596,-2.83927,22,0.0132403,10,-0.000490048,-2.54679,-0.379936,-0.155289,17.2147,0.172596,
2,0,0,1,0,42553.1,0.171392,0.171068,-2.86026,22,0.0131865,10,-0.000489297,-2.5436,-0.373557,-0.157941,17.6797,0.171068,
2,0,0,1,0,42553.1,0.169889,0.169549,-2.88927,22,0.0131322,10,-0.000489874,-2.53921,-0.345659,-0.170689,19.2929,0.169549,
2,0,0,1,0,42553.2,0.1684,0.168032,-2.92127,22,0.0130779,10,-0.000490866,-2.53443,-0.337025,-0.175061,20.0004,0.168032,
2,0,0,1,0,42553.2,0.166896,0.16656,-2.95419,22,0.0130224,10,-0.000492049,-2.52956,-0.387357,-0.152314,17.5484,0.16656,
2,0,0,1,0,42553.2,0.165392,0.165086,-2.98359,22,0.0129663,10,-0.000492549,-2.52526,-0.349738,-0.168698,19.6834,0.1650857,
2,0,0,1,0,42553.2,0.163905,0.163586,-3.0226,22,0.0129103,10,-0.000494455,-2.51962,-0.332868,-0.177248,20.9198,0.163586,
2,0,0,1,0,42553.2,0.162401,0.162037,-3.05659,22,0.012853,10,-0.000495279,-2.51476,-0.272834,-0.216249,25.8419,0.162037,
2,0,0,1,0,42553.2,0.160905,0.160575,-3.093,22,0.0127952,10,-0.000496658,-2.50962,-0.287979,-0.204876,24.7459,0.160575,
2,0,0,1,0,42553.3,0.159409,0.159064,-3.14506,22,0.0127367,10,-0.000500264,-2.50237,-0.254466,-0.231858,28.427,0.159064,
2,0,0,1,0,42553.3,0.157905,0.157567,-3.18298,22,0.0126772,10,-0.000501534,-2.49717,-0.230887,-0.255537,31.7671,0.157567,
2,0,0,1,0,42553.3,0.156416,0.156044,-3.23389,22,0.0126173,10,-0.000504631,-2.49027,-0.206885,-0.285182,35.9827,0.156044,
2,0,0,1,0,42553.3,0.154912,0.15461,-3.29061,22,0.0125559,10,-0.000508762,-2.48272,-0.199662,-0.295499,37.9019,0.15461,
2,0,0,1,0,42553.3,0.153409,0.153093,-3.34376,22,0.0124934,10,-0.000511908,-2.47576,-0.19531,-0.302083,39.4675,0.1530934,
2,0,0,1,0,42553.4,0.151919,0.151574,-3.39997,22,0.0124305,10,-0.000515346,-2.46852,-0.173149,-0.340748,45.3317,0.1515736,
2,0,0,1,0,42553.4,0.150416,0.150095,-3.47174,22,0.0123657,10,-0.000521089,-2.45945,-0.154718,-0.381338,51.7584,0.150095,
2,0,0,1,0,42553.4,0.148912,0.148612,-3.54284,22,0.0122995,10,-0.000526507,-2.45065,-0.145124,-0.40655,56.3752,0.148612,
2,0,0,1,0,42553.4,0.147425,0.147144,-3.62858,22,0.0122325,10,-0.000533923,-2.44026,-0.139278,-0.423614,60.1685,0.147144,
2,0,0,1,0,42553.4,0.145921,0.145609,-3.71923,22,0.0121631,10,-0.000541553,-2.42955,-0.1349,-0.437361,63.6473,0.145609,
2,0,0,1,0,42553.5,0.144425,0.144135,-3.82144,22,0.0120924,10,-0.000550804,-2.41777,-0.129573,-0.45534,68.0909,0.144135,
2,0,0,1,0,42553.5,0.142929,0.142609,-3.92695,22,0.0120197,10,-0.000560017,-2.40594,-0.118552,-0.497674,76.5619,0.142609,
2,0,0,1,0,42553.5,0.141425,0.141094,-4.05186,22,0.0119444,10,-0.000571695,-2.39235,-0.114905,-0.513468,81.3588,0.141094,
2,0,0,1,0,42553.5,0.139936,0.139608,-4.19342,22,0.0118675,10,-0.000585436,-2.37743,-0.107711,-0.547764,89.6315,0.139608,
2,0,0,1,0,42553.5,0.138432,0.138118,-4.32907,22,0.0117873,10,-0.000597922,-2.3636,-0.103868,-0.568029,96.1836,0.138118,
2,0,0,1,0,42553.5,0.136929,0.136624,-4.4825,22,0.0117043,10,-0.000612419,-2.34848,-0.0996951,-0.591804,103.583,0.136624,
2,0,0,1,0,42553.6,0.135439,0.135124,-4.64626,22,0.0116193,10,-0.00062782,-2.3329,-0.0996121,-0.592297,107.23,0.135124,
2,0,0,1,0,42553.6,0.133936,0.133566,-4.81015,22,0.0115303,10,-0.000642471,-2.31784,-0.0966378,-0.610527,114.46,0.133566,
2,0,0,1,0,42553.6,0.132432,0.132152,-4.97138,22,0.0114382,10,-0.000656978,-2.30352,-0.0987129,-0.597693,116.057,0.1321519,
2,0,0,1,0,42553.6,0.130945,0.130617,-5.15048,22,0.011344,10,-0.000672739,-2.28815,-0.0988168,-0.597065,119.812,0.130617,
2,0,0,1,0,42553.6,0.129441,0.129138,-5.32328,22,0.0112453,10,-0.000687436,-2.27382,-0.102798,-0.573941,119.112,0.1291378,
2,0,0,1,0,42553.7,0.127945,0.127624,-5.50007,22,0.0111439,10,-0.000701939,-2.25963,-0.110299,-0.53491,114.646,0.127624,
2,0,0,1,0,42553.7,0.126448,0.126109,-5.66397,22,0.0110393,10,-0.00071428,-2.24688,-0.113013,-0.522064,115.451,0.126109,
2,0,0,1,0,42553.7,0.124945,0.12462,-5.83292,22,0.0109309,10,-0.000726896,-2.23411,-0.11732,-0.502896,114.551,0.12462,
2,0,0,1,0,42553.7,0.123456,0.123145,-6.00211,22,0.0108205,10,-0.00073913,-2.2217,-0.125967,-0.468376,109.701,0.123145,
2,0,0,1,0,42553.7,0.121952,0.121618,-6.16768,22,0.0107058,10,-0.000750101,-2.20988,-0.134234,-0.439531,105.695,0.121618,
2,0,0,1,0,42553.8,0.120449,0.120116,-6.32079,22,0.010588,10,-0.000759225,-2.19923,-0.145167,-0.406427,100.259,0.120116,
2,0,0,1,0,42553.8,0.118959,0.11863,-6.47769,22,0.0104688,10,-0.000768445,-2.18858,-0.153578,-0.38417,97.0474,0.11863,
2,0,0,1,0,42553.8,0.117456,0.117132,-6.62633,22,0.0103455,10,-0.000776157,-2.17873,-0.161955,-0.364299,94.0661,0.117132,
2,0,0,1,0,42553.8,0.115952,0.115627,-6.7679,22,0.0102193,10,-0.000782553,-2.16955,-0.176166,-0.334912,88.2312,0.115627,
2,0,0,1,0,42553.8,0.114465,0.114167,-6.89642,22,0.0100921,10,-0.000787341,-2.16138,-0.191574,-0.307976,82.8026,0.114167,
2,0,0,1,0,42553.8,0.112961,0.112627,-7.01558,22,0.00996115,10,-0.000790141,-2.15394,-0.199672,-0.295484,80.8606,0.112627,
2,0,0,1,0,42553.9,0.111465,0.111138,-7.14186,22,0.00982862,10,-0.000793729,-2.14619,-0.215269,-0.274076,76.1991,0.111138,
2,0,0,1,0,42553.9,0.109968,0.10967,-7.24816,22,0.00969398,10,-0.000794904,-2.13977,-0.235967,-0.250035,70.5783,0.10967,
2,0,0,1,0,42553.9,0.108465,0.108134,-7.33963,22,0.00955666,10,-0.000793665,-2.13433,-0.259614,-0.22726,65.0248,0.108134,
2,0,0,1,0,42553.9,0.106976,0.1067,-7.42882,22,0.0094191,10,-0.000792653,-2.12908,-0.291924,-0.202107,58.553,0.1067,
2,0,0,1,0,42553.9,0.105472,0.105155,-7.50957,22,0.00927849,10,-0.000789666,-2.12438,-0.324165,-0.182006,53.2757,0.1051546,
2,0,0,1,0,42554,0.103968,0.103662,-7.57839,22,0.00913639,10,-0.000785591,-2.12042,-0.370256,-0.159349,47.0974,0.103662,
2,0,0,1,0,42554,0.102479,0.102162,-7.6422,22,0.00899456,10,-0.00078074,-2.11678,-0.471913,-0.125023,37.2378,0.102162,
2,0,0,1,0,42554,0.100976,0.100673,-7.68235,22,0.0088502,10,-0.000773406,-2.11451,-0.595134,-0.0991373,29.7234,0.100673,
2,0,0,1,0,42554,0.0994721,0.0991571,-7.72598,22,0.00870505,10,-0.000766086,-2.11205,-0.766089,-0.0770145,23.204,0.0991571,
2,0,0,1,0,42554,0.0979846,0.0976546,-7.75261,22,0.00856083,10,-0.000757078,-2.11055,-1.17622,-0.0501607,15.1644,0.0976546,
2,0,0,1,0,42554.1,0.0964811,0.0961382,-7.77476,22,0.00841457,10,-0.000747452,-2.10931,-3.49892,-0.0168624,5.10884,0.0961382,
2,0,0,1,0,42554.1,0.0949847,0.0946558,-7.77732,22,0.00826887,10,-0.000736169,-2.10917,8.32866,0.00708397,-2.14821,0.0946558,
2,0,0,1,0,42554.1,0.0934883,0.0931661,-7.77702,22,0.00812324,10,-0.000724554,-2.10919,2.17856,0.0270821,-8.21368,0.0931661,
2,0,0,1,0,42554.1,0.0919847,0.0916537,-7.7653,22,0.00797696,10,-0.000711719,-2.10984,1.62605,0.0362843,-10.9872,0.0916537,
2,0,0,1,0,42554.1,0.0904955,0.0901615,-7.75336,22,0.0078325,10,-0.000699054,-2.11051,0.96212,0.0613229,-18.5093,0.09016151,
2,0,0,1,0,42554.1,0.0889919,0.0886608,-7.72667,22,0.00768693,10,-0.000685053,-2.11201,0.767878,0.0768351,-23.1121,0.0886608,
2,0,0,1,0,42554.2,0.0874884,0.0871686,-7.68463,22,0.00754208,10,-0.000669858,-2.11438,0.67022,0.0880307,-26.3733,0.0871686,
2,0,0,1,0,42554.2,0.0860009,0.0856736,-7.63919,22,0.00739947,10,-0.000654477,-2.11695,0.691137,0.0853666,-25.4329,0.0856736,
2,0,0,1,0,42554.2,0.0844974,0.084177,-7.59715,22,0.0072561,10,-0.000639505,-2.11935,0.615382,0.0958754,-28.4051,0.084177,
2,0,0,1,0,42554.2,0.0829938,0.0826571,-7.55306,22,0.00711356,10,-0.000624315,-2.12188,0.56387,0.104634,-30.7974,0.0826571,
2,0,0,1,0,42554.2,0.0815045,0.0811755,-7.49528,22,0.00697348,10,-0.000608433,-2.12521,0.571763,0.10319,-30.1911,0.0811755,
2,0,0,1,0,42554.3,0.080001,0.0796614,-7.44648,22,0.00683281,10,-0.000593197,-2.12805,0.606997,0.0971998,-28.2513,0.0796614,
2,0,0,1,0,42554.3,0.0785046,0.078191,-7.40299,22,0.00669372,10,-0.000578847,-2.13059,0.637562,0.09254,-26.746,0.078191,
2,0,0,1,0,42554.3,0.0770082,0.0766852,-7.35676,22,0.00655548,10,-0.000564155,-2.13331,0.560507,0.105262,-30.2329,0.0766852,
2,0,0,1,0,42554.3,0.0755046,0.0751688,-7.307,22,0.00641732,10,-0.000549258,-2.13626,0.576873,0.102276,-29.2129,0.0751688,
2,0,0,1,0,42554.3,0.0740154,0.0737099,-7.27468,22,0.00628148,10,-0.000536216,-2.13819,0.567411,0.103981,-29.5252,0.07370995,
2,0,0,1,0,42554.4,0.0725118,0.0721915,-7.23672,22,0.00614488,10,-0.000522429,-2.14046,0.633565,0.0931239,-26.2934,0.0721915,
2,0,0,1,0,42554.4,0.0710083,0.0706952,-7.19762,22,0.00600897,10,-0.000508837,-2.14281,0.58693,0.100523,-28.2517,0.0706952,
2,0,0,1,0,42554.4,0.0695208,0.06919,-7.16685,22,0.00587517,10,-0.000495874,-2.14467,0.651169,0.0906062,-25.3492,0.06919,
2,0,0,1,0,42554.4,0.0680173,0.0676831,-7.13165,22,0.00574064,10,-0.000482692,-2.14681,0.730719,0.0807423,-22.4917,0.0676831,
2,0,0,1,0,42554.4,0.0665137,0.0661725,-7.09805,22,0.00560669,10,-0.000469696,-2.14886,0.776124,0.0760188,-21.0712,0.06617251,
2,0,0,1,0,42554.4,0.0650244,0.0646745,-7.07888,22,0.00547467,10,-0.000457823,-2.15004,0.803577,0.0734217,-20.2514,0.0646745,
2,0,0,1,0,42554.5,0.0635209,0.0632293,-7.04946,22,0.00534178,10,-0.000445732,-2.15184,0.72647,0.0812147,-22.3212,0.0632293,
2,0,0,1,0,42554.5,0.0620245,0.0616644,-7.01214,22,0.00521024,10,-0.000432399,-2.15415,0.815638,0.072336,-19.79,0.0616644,
2,0,0,1,0,42554.5,0.0605281,0.060219,-6.98053,22,0.00507928,10,-0.00042036,-2.15611,0.99566,0.0592572,-16.1425,0.060219,
2,0,0,1,0,42554.5,0.0590246,0.0587036,-6.94786,22,0.00494816,10,-0.000407864,-2.15815,0.870255,0.0677962,-18.3887,0.0587036,
2,0,0,1,0,42554.5,0.0575353,0.0571698,-6.91897,22,0.00481896,10,-0.000395556,-2.15996,0.798894,0.0738521,-19.942,0.0571698,
2,0,0,1,0,42554.6,0.0560317,0.0557362,-6.88248,22,0.004689,10,-0.000383603,-2.16225,0.796483,0.0740757,-19.9107,0.0557362,
2,0,0,1,0,42554.6,0.0545282,0.0542204,-6.85028,22,0.00455966,10,-0.000371425,-2.16429,0.89702,0.0657734,-17.5981,0.0542204,
2,0,0,1,0,42554.6,0.0530407,0.0526948,-6.81893,22,0.00443224,10,-0.000359322,-2.16628,0.824828,0.0715301,-19.0501,0.0526948,
2,0,0,1,0,42554.6,0.0515372,0.0512558,-6.79093,22,0.00430399,10,-0.000348074,-2.16807,0.67476,0.0874384,-23.1668,0.0512558,
2,0,0,1,0,42554.6,0.0500336,0.0496954,-6.75375,22,0.00417637,10,-0.00033563,-2.17045,0.651209,0.0906007,-23.9036,0.0496954,
2,0,0,1,0,42554.6,0.0485444,0.0482277,-6.72486,22,0.00405082,10,-0.000324324,-2.17232,0.635797,0.092797,-24.358,0.0482277,
2,0,0,1,0,42554.7,0.0470408,0.0467161,-6.69181,22,0.0039245,10,-0.000312615,-2.17446,0.606468,0.0972846,-25.3954,0.0467161,
2,0,0,1,0,42554.7,0.0455444,0.0452124,-6.65778,22,0.00379949,10,-0.000301014,-2.17667,0.582859,0.101225,-26.2876,0.0452124,
2,0,0,1,0,42554.7,0.044048,0.0437299,-6.62346,22,0.00367516,10,-0.000289643,-2.17891,0.568762,0.103734,-26.7963,0.0437299,
2,0,0,1,0,42554.7,0.0425445,0.0421982,-6.58532,22,0.00355091,10,-0.000277889,-2.18142,0.570734,0.103376,-26.56,0.0421982,
2,0,0,1,0,42554.7,0.0410552,0.0407434,-6.54766,22,0.00342866,10,-0.000266774,-2.18391,0.625484,0.0943269,-24.0973,0.0407434,
2,0,0,1,0,42554.8,0.0395516,0.0391759,-6.51696,22,0.00330579,10,-0.000255308,-2.18595,0.604953,0.0975283,-24.7595,0.0391759,
2,0,0,1,0,42554.8,0.0380481,0.0377096,-6.47279,22,0.00318359,10,-0.000244086,-2.18891,0.574111,0.102768,-25.9343,0.0377096,
2,0,0,1,0,42554.8,0.0365606,0.036233,-6.42564,22,0.00306349,10,-0.00023282,-2.19208,0.542007,0.108855,-27.3086,0.036233,
2,0,0,1,0,42554.8,0.0350571,0.0347357,-6.38451,22,0.00294293,10,-0.00022177,-2.19487,0.587212,0.100475,-25.0252,0.0347357,
2,0,0,1,0,42554.8,0.0335535,0.0331831,-6.33839,22,0.0028231,10,-0.000210328,-2.19802,0.579119,0.101879,-25.1976,0.0331831,
2,0,0,1,0,42554.9,0.0320643,0.0317179,-6.29255,22,0.00270538,10,-0.000199586,-2.20117,0.494485,0.119316,-29.3099,0.0317179,
2,0,0,1,0,42554.9,0.0305607,0.030213,-6.24054,22,0.00258727,10,-0.000188545,-2.20478,0.499291,0.118168,-28.8206,0.030213,
2,0,0,1,0,42554.9,0.0290643,0.0287644,-6.19999,22,0.00247066,10,-0.000178339,-2.20761,0.465586,0.126722,-30.6754,0.0287644,
2,0,0,1,0,42554.9,0.0275679,0.0272385,-6.15432,22,0.00235488,10,-0.000167634,-2.21082,0.420738,0.14023,-33.6872,0.0272385,
2,0,0,1,0,42554.9,0.0260644,0.0257422,-6.10552,22,0.00223938,10,-0.000157169,-2.21428,0.401128,0.147085,-35.043,0.0257422,
2,0,0,1,0,42554.9,0.0245751,0.0242247,-6.0586,22,0.00212601,10,-0.000146768,-2.21763,0.382632,0.154195,-36.4581,0.0242247,
2,0,0,1,0,42555,0.0230716,0.0227843,-6.0109,22,0.00201244,10,-0.000136954,-2.22106,0.3964,0.148839,-34.9064,0.0227843,
2,0,0,1,0,42555,0.021568,0.0211847,-5.95988,22,0.00189976,10,-0.000126258,-2.22476,0.449643,0.131215,-30.5243,0.02118472,
2,0,0,1,0,42555,0.0200805,0.0197129,-5.91442,22,0.00178915,10,-0.000116591,-2.22809,0.392974,0.150137,-34.6367,0.0197129,
2,0,0,1,0,42555,0.018577,0.0182054,-5.8697,22,0.00167824,10,-0.00010686,-2.23138,0.412658,0.142976,-32.7242,0.0182054,
2,0,0,1,0,42555,0.0170735,0.0167299,-5.81187,22,0.00156833,10,-9.72319e-05,-2.23568,0.447445,0.13186,-29.9511,0.0167299,
2,0,0,1,0,42555.1,0.0155842,0.0152479,-5.77498,22,0.00146044,10,-8.80562e-05,-2.23845,0.479756,0.122979,-27.7009,0.01524788,
2,0,0,1,0,42555.1,0.0140806,0.0137434,-5.73552,22,0.00135213,10,-7.88255e-05,-2.24143,0.476922,0.12371,-27.6441,0.0137434,
2,0,0,1,0,42555.1,0.0125842,0.0122661,-5.68504,22,0.0012452,10,-6.9733e-05,-2.24527,0.489902,0.120432,-26.7148,0.0122661,
2,0,0,1,0,42555.1,0.0110878,0.0107596,-5.63887,22,0.00113917,10,-6.06722e-05,-2.24881,0.496209,0.118902,-26.1909,0.0107596,
2,0,0,1,0,42555.1,0.00958429,0.00924492,-5.59594,22,0.00103333,10,-5.1734e-05,-2.25213,0.541851,0.108886,-23.8105,0.00924492,
2,0,0,1,0,42555.2,0.0080968,0.00774077,-5.55654,22,0.000929328,10,-4.30119e-05,-2.2552,0.559165,0.105514,-22.9196,0.00774077,
2,0,0,1,0,42555.2,0.00659326,0.00629968,-5.52212,22,0.000824867,10,-3.47876e-05,-2.25789,0.528384,0.111661,-24.0971,0.00629968,
2,0,0,1,0,42555.2,0.00508972,0.00478769,-5.48764,22,0.000721083,10,-2.62731e-05,-2.26061,0.640461,0.0921211,-19.7641,0.00478769,
2,0,0,1,0,42555.2,0.00360044,0.00323787,-5.46031,22,0.000618998,10,-1.76798e-05,-2.26278,0.96745,0.0609851,-13.0418,0.00323787,
2,0,0,1,0,42555.2,0.0020969,0.00172009,-5.47304,22,0.000516247,10,-9.41411e-06,-2.26177,0.879108,0.0671135,-14.2706,0.001720087,
2,0,0,1,0,42555.2,0.000593362,0.000235366,-5.43235,22,0.000413549,10,-1.27859e-06,-2.26501, , , ,0.000235366,
2,0,0,1,0,42555.3,0.000199195,-0.000155446,-5.42069,22,0.000386919,10,8.42627e-07,-2.26595, , , ,-0.0001554464,