File: Figure_codes/Fig_3-5/rawdata_trumpetplot_data/after 10th/20221101_1-115_003_TrumpetPlot_ParaChange_from10_every3_10_CV_C01_19.csv
mode,ox/red,error,control changes,counter inc.,time/s,control/V,Ewe/V,<I>/mA,cycle number,(Q-Qo)/C,I Range,P/W,log(|I|),Tafel slope mV/dec,alpha_eff,dI/d(E-IR),E-IR/V,
2,1,0,0,0,38623,-2.44065e-05,-0.000363498,5.19366,20,0.0000000E+000,10,-1.88789e-06,-2.28453, , , ,-0.000363498,
2,1,0,1,0,38623,0.00179726,0.0014148,5.98898,20,4.97951e-05,10,8.47323e-06,-2.22265, , , ,0.0014148,
2,1,0,1,0,38623,0.00379485,0.00348021,6.59464,20,0.000113083,10,2.29507e-05,-2.18081,0.0585546,1.00761,255.462,0.00348021,
2,1,0,1,0,38623,0.00579244,0.00549631,7.03165,20,0.0001813,10,3.86481e-05,-2.15294,0.078458,0.751995,205.232,0.00549631,
2,1,0,1,0,38623,0.00779002,0.00743924,7.40716,20,0.000253603,10,5.51036e-05,-2.13035,0.0952486,0.619432,178.337,0.007439238,
2,1,0,1,0,38623,0.00977853,0.00943263,7.73364,20,0.000328649,10,7.29486e-05,-2.11162,0.117463,0.502284,151.031,0.00943263,
2,1,0,1,0,38623.1,0.0117761,0.0114307,8.01,20,0.000407502,10,9.15601e-05,-2.09637,0.139919,0.421672,131.526,0.0114307,
2,1,0,1,0,38623.1,0.0137737,0.0134097,8.25673,20,0.00048886,10,0.000110721,-2.08319,0.162157,0.363845,117.064,0.0134097,
2,1,0,1,0,38623.1,0.0157713,0.0154694,8.48279,20,0.000572636,10,0.000131224,-2.07146,0.181777,0.324574,107.336,0.01546943,
2,1,0,1,0,38623.1,0.017778,0.0174857,8.69424,20,0.000658552,10,0.000152025,-2.06077,0.206743,0.285379,96.5921,0.0174857,
2,1,0,1,0,38623.1,0.0197755,0.0194318,8.86552,20,0.000746386,10,0.000172273,-2.0523,0.235959,0.250043,86.4964,0.0194318,
2,1,0,1,0,38623.1,0.0217731,0.0214316,9.03554,20,0.000835885,10,0.000193646,-2.04405,0.257566,0.229068,80.7003,0.0214316,
2,1,0,1,0,38623.1,0.0237707,0.0234601,9.1906,20,0.000927081,10,0.000215612,-2.03666,0.273177,0.215977,77.453,0.0234601,
2,1,0,1,0,38623.1,0.0257774,0.0254157,9.34412,20,0.00101975,10,0.000237487,-2.02946,0.295827,0.199441,72.6557,0.0254157,
2,1,0,1,0,38623.1,0.027775,0.0274424,9.47994,20,0.00111391,10,0.000260152,-2.02319,0.319843,0.184466,68.259,0.0274424,
2,1,0,1,0,38623.1,0.0297726,0.029463,9.62039,20,0.0012094,10,0.000283446,-2.01681,0.347886,0.169596,63.5824,0.029463,
2,1,0,1,0,38623.2,0.0317701,0.031436,9.73386,20,0.00130624,10,0.000305993,-2.01171,0.353212,0.167038,63.5357,0.031436,
2,1,0,1,0,38623.2,0.0337586,0.0334425,9.87323,20,0.0014033,10,0.000330186,-2.00554,0.343338,0.171842,66.1694,0.0334425,
2,1,0,1,0,38623.2,0.0357562,0.0354634,10.0004,20,0.0015027,10,0.000354646,-1.99998,0.367489,0.160549,62.6338,0.0354634,
2,1,0,1,0,38623.2,0.0377538,0.0373872,10.1203,20,0.00160328,10,0.00037837,-1.99481,0.377195,0.156418,61.7865,0.0373872,
2,1,0,1,0,38623.2,0.0397514,0.0393994,10.2435,20,0.00170512,10,0.000403589,-1.98955,0.368967,0.159906,63.9529,0.0393994,
2,1,0,1,0,38623.2,0.0417399,0.0413926,10.3765,20,0.00180714,10,0.000429509,-1.98395,0.3828,0.154128,62.3621,0.0413926,
2,1,0,1,0,38623.2,0.0437375,0.0433924,10.4926,20,0.00191153,10,0.000455298,-1.97912,0.403475,0.14623,59.8979,0.0433924,
2,1,0,1,0,38623.2,0.0457351,0.0453905,10.6159,20,0.00201702,10,0.000481862,-1.97404,0.403273,0.146303,60.6035,0.0453905,
2,1,0,1,0,38623.2,0.0477327,0.0474173,10.7365,20,0.00212383,10,0.000509095,-1.96914,0.389061,0.151647,63.5881,0.0474173,
2,1,0,1,0,38623.2,0.0497393,0.049444,10.8737,20,0.00223185,10,0.000537638,-1.96362,0.382042,0.154433,65.4883,0.049444,
2,1,0,1,0,38623.3,0.0517369,0.0513805,10.996,20,0.00234121,10,0.000564981,-1.95876,0.403911,0.146072,62.6956,0.0513805,
2,1,0,1,0,38623.3,0.0537345,0.0534194,11.1229,20,0.00245179,10,0.000594179,-1.95378,0.385802,0.152928,66.4216,0.0534194,
2,1,0,1,0,38623.3,0.0557321,0.0554018,11.2631,20,0.00256377,10,0.000623998,-1.94834,0.404739,0.145773,63.9982,0.0554018,
2,1,0,1,0,38623.3,0.0577297,0.0573852,11.3767,20,0.00267692,10,0.000652855,-1.94398,0.400634,0.147267,65.4879,0.05738518,
2,1,0,1,0,38623.3,0.0597364,0.0594275,11.5268,20,0.00279153,10,0.000685007,-1.93829,0.386716,0.152567,68.5481,0.0594275,
2,1,0,1,0,38623.3,0.0617339,0.061364,11.6495,20,0.00290739,10,0.000714858,-1.93369,0.412073,0.143179,65.1315,0.061364,
2,1,0,1,0,38623.3,0.0637315,0.0634107,11.7862,20,0.00302462,10,0.000747371,-1.92863,0.406794,0.145037,66.6946,0.0634107,
2,1,0,1,0,38623.3,0.0657291,0.0653784,11.9172,20,0.00314312,10,0.000779128,-1.92383,0.380673,0.154989,72.1531,0.0653784,
2,1,0,1,0,38623.3,0.0677176,0.067375,12.0722,20,0.00326195,10,0.000813366,-1.91821,0.401174,0.147068,69.1891,0.067375,
2,1,0,1,0,38623.3,0.0697152,0.0693672,12.1932,20,0.00338328,10,0.000845807,-1.91388,0.4306,0.137018,65.2507,0.0693672,
2,1,0,1,0,38623.4,0.0717128,0.0713778,12.3334,20,0.00350596,10,0.000880331,-1.90892,0.425417,0.138687,66.7171,0.0713778,
2,1,0,1,0,38623.4,0.0737104,0.0733756,12.4606,20,0.0036299,10,0.000914304,-1.90446,0.419643,0.140596,68.4146,0.0733756,
2,1,0,1,0,38623.4,0.0756989,0.0753403,12.6045,20,0.00375406,10,0.000949627,-1.89947,0.444264,0.132804,65.2531,0.0753403,
2,1,0,1,0,38623.4,0.0776965,0.0773566,12.7204,20,0.00388067,10,0.000984005,-1.8955,0.464593,0.126993,63.097,0.0773566,
2,1,0,1,0,38623.4,0.0796941,0.079366,12.8585,20,0.00400862,10,0.00102053,-1.89081,0.444691,0.132676,66.5587,0.079366,
2,1,0,1,0,38623.4,0.0816917,0.0813936,12.9891,20,0.00413786,10,0.00105723,-1.88642,0.430026,0.137201,69.5885,0.0813936,
2,1,0,1,0,38623.4,0.0836983,0.0833379,13.1349,20,0.00426853,10,0.00109464,-1.88157,0.452587,0.130362,66.7568,0.0833379,
2,1,0,1,0,38623.4,0.0856959,0.0853733,13.2547,20,0.00440047,10,0.0011316,-1.87763,0.486535,0.121266,62.759,0.0853733,
2,1,0,1,0,38623.4,0.0876935,0.087367,13.3878,20,0.00453376,10,0.00116965,-1.87329,0.49878,0.118289,61.7576,0.087367,
2,1,0,1,0,38623.4,0.0896911,0.0893694,13.5015,20,0.00466818,10,0.00120663,-1.86962,0.501163,0.117726,62.0789,0.0893694,
2,1,0,1,0,38623.5,0.0916977,0.0913693,13.6362,20,0.00480389,10,0.00124593,-1.86531,0.50956,0.115786,61.5599,0.0913693,
2,1,0,1,0,38623.5,0.0936953,0.0933327,13.7455,20,0.00494082,10,0.00128291,-1.86184,0.558346,0.105669,56.6988,0.0933327,
2,1,0,1,0,38623.5,0.0956929,0.0953473,13.8618,20,0.00507891,10,0.00132168,-1.85818,0.542346,0.108787,58.8673,0.0953473,
2,1,0,1,0,38623.5,0.0976905,0.09742,13.9861,20,0.00521817,10,0.00136253,-1.8543,0.502258,0.117469,64.1323,0.09741997,
2,1,0,1,0,38623.5,0.099679,0.0993288,14.1171,20,0.00535727,10,0.00140224,-1.85025,0.561374,0.105099,57.8309,0.0993288,
2,1,0,1,0,38623.5,0.101677,0.101344,14.2131,20,0.00549891,10,0.00144041,-1.84731,0.57078,0.103367,57.416,0.101344,
2,1,0,1,0,38623.5,0.103674,0.103365,14.3489,20,0.00564178,10,0.00148317,-1.84318,0.511001,0.11546,64.6216,0.103365,
2,1,0,1,0,38623.5,0.105672,0.105321,14.47,20,0.00578586,10,0.00152399,-1.83953,0.500423,0.1179,66.6323,0.105321,
2,1,0,1,0,38623.5,0.107656,0.107351,14.6145,20,0.00592984,10,0.00156889,-1.83522,0.497656,0.118556,67.5767,0.107351,
2,1,0,1,0,38623.5,0.109658,0.109337,14.7414,20,0.00607666,10,0.00161177,-1.83146,0.464988,0.126885,73.0873,0.109337,
2,1,0,1,0,38623.6,0.111655,0.111329,14.9052,20,0.00622493,10,0.00165939,-1.82666,0.426408,0.138365,80.4657,0.111329,
2,1,0,1,0,38623.6,0.113653,0.113321,15.0621,20,0.00637472,10,0.00170685,-1.82212,0.428546,0.137675,80.9489,0.113321,
2,1,0,1,0,38623.6,0.115651,0.115311,15.2275,20,0.00652615,10,0.0017559,-1.81737,0.410939,0.143574,85.3506,0.115311,
2,1,0,1,0,38623.6,0.117657,0.117328,15.404,20,0.00667934,10,0.00180732,-1.81237,0.380398,0.155101,93.2993,0.117328,
2,1,0,1,0,38623.6,0.119655,0.119313,15.6009,20,0.00683441,10,0.0018614,-1.80685,0.392355,0.150374,91.4702,0.119313,
2,1,0,1,0,38623.6,0.121652,0.121329,15.77,20,0.00699127,10,0.00191337,-1.80217,0.378379,0.155928,96.1133,0.121329,
2,1,0,1,0,38623.6,0.12365,0.123349,15.9889,20,0.00715014,10,0.00197221,-1.79618,0.355729,0.165857,103.414,0.123349,
2,1,0,1,0,38623.6,0.125657,0.125342,16.185,20,0.00731107,10,0.00202866,-1.79089,0.361683,0.163126,103.092,0.1253421,
2,1,0,1,0,38623.6,0.127654,0.127335,16.3998,20,0.00747406,10,0.00208826,-1.78516,0.366468,0.160996,102.966,0.127335,
2,1,0,1,0,38623.6,0.129652,0.129293,16.5918,20,0.00763904,10,0.00214521,-1.78011,0.369406,0.159716,103.498,0.129293,
2,1,0,1,0,38623.7,0.131649,0.131303,16.8104,20,0.0078061,10,0.00220725,-1.77442,0.380605,0.155016,101.595,0.131303,
2,1,0,1,0,38623.7,0.133638,0.133272,16.9961,20,0.00797352,10,0.00226511,-1.76965,0.399262,0.147773,98.0757,0.133272,
2,1,0,1,0,38623.7,0.135636,0.135308,17.2033,20,0.00814458,10,0.00232775,-1.76439,0.409495,0.14408,96.6541,0.135308,
2,1,0,1,0,38623.7,0.137633,0.137282,17.3836,20,0.0083175,10,0.00238645,-1.75986,0.434117,0.135908,92.2206,0.137282,
2,1,0,1,0,38623.7,0.139631,0.139302,17.5716,20,0.00849232,10,0.00244776,-1.75519,0.467157,0.126296,86.5329,0.139302,
2,1,0,1,0,38623.7,0.141619,0.141282,17.7297,20,0.00866706,10,0.00250489,-1.7513,0.492847,0.119713,82.869,0.141282,
2,1,0,1,0,38623.7,0.143617,0.143315,17.9042,20,0.00884526,10,0.00256594,-1.74705,0.527497,0.111849,78.0751,0.1433154,
2,1,0,1,0,38623.7,0.145614,0.1453,18.0434,20,0.00902502,10,0.00262171,-1.74368,0.587557,0.100416,70.7123,0.1453,
2,1,0,1,0,38623.7,0.147612,0.147277,18.1843,20,0.00920614,10,0.00267812,-1.7403,0.643871,0.0916333,64.9876,0.147277,
2,1,0,1,0,38623.7,0.149619,0.149279,18.3021,20,0.00938857,10,0.00273212,-1.7375,0.725133,0.0813643,58.1129,0.149279,
2,1,0,1,0,38623.8,0.151616,0.151303,18.4182,20,0.00957223,10,0.00278673,-1.73475,0.941744,0.0626497,44.9699,0.151303,
2,1,0,1,0,38623.8,0.153614,0.153304,18.4831,20,0.00975677,10,0.00283353,-1.73323,1.18786,0.0496692,35.8409,0.153304,
2,1,0,1,0,38623.8,0.155611,0.155292,18.5612,20,0.00994206,10,0.0028824,-1.73139,1.55829,0.037862,27.3924,0.155292,
2,1,0,1,0,38623.8,0.157618,0.157317,18.593,20,0.0101279,10,0.00292499,-1.73065,5.90391,0.00999338,7.24472,0.157317,
2,1,0,1,0,38623.8,0.159616,0.1593,18.5902,20,0.0103138,10,0.00296143,-1.73071,-2.91343,-0.0202511,-14.6718,0.1593,
2,1,0,1,0,38623.8,0.161613,0.161271,18.535,20,0.0104995,10,0.00298915,-1.73201,-1.28174,-0.0460314,-33.2777,0.161271,
2,1,0,1,0,38623.8,0.163611,0.163272,18.4581,20,0.0106845,10,0.00301369,-1.73381,-0.747687,-0.0789101,-56.7283,0.1632721,
2,1,0,1,0,38623.8,0.165618,0.165295,18.3067,20,0.0108683,10,0.00302601,-1.73739,-0.517006,-0.114119,-81.4802,0.165295,
2,1,0,1,0,38623.8,0.167597,0.167264,18.1328,20,0.0110487,10,0.00303296,-1.74153,-0.389509,-0.151473,-106.961,0.167264,
2,1,0,1,0,38623.8,0.169595,0.169262,17.8824,20,0.0112288,10,0.00302681,-1.74757,-0.300841,-0.196117,-136.686,0.169262,
2,1,0,1,0,38623.9,0.171592,0.171258,17.5869,20,0.0114062,10,0.00301189,-1.75481,-0.246039,-0.2398,-164.3,0.171258,
2,1,0,1,0,38623.9,0.173572,0.17321,17.2336,20,0.0115785,10,0.00298504,-1.76362,-0.220041,-0.268131,-180.226,0.17321,
2,1,0,1,0,38623.9,0.175578,0.175269,16.8639,20,0.011749,10,0.00295573,-1.77304,-0.19373,-0.304547,-199.976,0.175269,
2,1,0,1,0,38623.9,0.177576,0.177263,16.4232,20,0.0119154,10,0.00291123,-1.78454,-0.166696,-0.353938,-226.657,0.177263,
2,1,0,1,0,38623.9,0.179573,0.179248,15.9621,20,0.0120773,10,0.00286117,-1.79691,-0.155854,-0.37856,-235.628,0.179248,
2,1,0,1,0,38623.9,0.181571,0.181251,15.4836,20,0.0122344,10,0.00280642,-1.81013,-0.152014,-0.388122,-234.498,0.181251,
2,1,0,1,0,38623.9,0.183578,0.183307,15.0103,20,0.0123869,10,0.0027515,-1.82361,-0.142071,-0.415284,-242.985,0.183307,
2,1,0,1,0,38623.9,0.185575,0.185251,14.5116,20,0.0125345,10,0.00268828,-1.83829,-0.138005,-0.427521,-242.34,0.185251,
2,1,0,1,0,38623.9,0.187573,0.187272,14.0495,20,0.0126772,10,0.00263107,-1.85234,-0.140544,-0.419797,-230.073,0.1872718,
2,1,0,1,0,38623.9,0.18957,0.189279,13.5848,20,0.0128153,10,0.00257132,-1.86695,-0.139669,-0.422428,-224.196,0.189279,
2,1,0,1,0,38624,0.191577,0.191245,13.1586,20,0.012949,10,0.00251652,-1.88079,-0.14188,-0.415844,-213.51,0.191245,
2,1,0,1,0,38624,0.193575,0.193253,12.7364,20,0.0130784,10,0.00246134,-1.89495,-0.149972,-0.393406,-195.885,0.193253,
2,1,0,1,0,38624,0.195572,0.195289,12.3664,20,0.0132038,10,0.00241503,-1.90776,-0.151822,-0.388613,-187.472,0.195289,
2,1,0,1,0,38624,0.19757,0.197217,11.9932,20,0.0133255,10,0.00236526,-1.92107,-0.16071,-0.36712,-172.262,0.197217,
2,1,0,1,0,38624,0.199558,0.199238,11.6862,20,0.0134427,10,0.00232834,-1.93233,-0.175552,-0.336083,-153.2,0.199238,
2,1,0,1,0,38624,0.201556,0.201268,11.3726,20,0.0135579,10,0.00228894,-1.94414,-0.179671,-0.328379,-145.95,0.201268,
2,1,0,1,0,38624,0.203553,0.203283,11.0959,20,0.0136702,10,0.0022556,-1.95484,-0.187617,-0.31447,-136.217,0.203283,
2,1,0,1,0,38624,0.205551,0.205251,10.83,20,0.0137797,10,0.00222287,-1.96537,-0.204351,-0.288719,-122.303,0.205251,
2,1,0,1,0,38624,0.20754,0.207206,10.6161,20,0.0138857,10,0.00219971,-1.97404,-0.21743,-0.271352,-112.323,0.207206,
2,1,0,1,0,38624,0.209537,0.209202,10.3862,20,0.0139907,10,0.00217282,-1.98354,-0.226705,-0.260251,-105.632,0.209202,
2,1,0,1,0,38624.1,0.211535,0.211265,10.1873,20,0.0140935,10,0.00215222,-1.99194,-0.242767,-0.243031,-96.6529,0.2112654,
2,1,0,1,0,38624.1,0.213532,0.21323,9.99696,20,0.0141944,10,0.00213165,-2.00013,-0.261919,-0.22526,-88.0275,0.21323,
2,1,0,1,0,38624.1,0.215539,0.215199,9.84099,20,0.0142935,10,0.00211777,-2.00696,-0.276721,-0.213211,-81.8176,0.215199,
2,1,0,1,0,38624.1,0.217537,0.217222,9.67029,20,0.014391,10,0.0021006,-2.01456,-0.28801,-0.204854,-77.4136,0.217222,
2,1,0,1,0,38624.1,0.219534,0.21926,9.52666,20,0.0144869,10,0.00208881,-2.02106,-0.313504,-0.188196,-69.9943,0.21926,
2,1,0,1,0,38624.1,0.221532,0.221213,9.39094,20,0.0145815,10,0.0020774,-2.02729,-0.340059,-0.173499,-63.6529,0.221213,
2,1,0,1,0,38624.1,0.223534,0.223202,9.27571,20,0.0146748,10,0.00207036,-2.03265,-0.358128,-0.164746,-59.6157,0.2232019,
2,1,0,1,0,38624.1,0.225536,0.22518,9.15446,20,0.0147669,10,0.0020614,-2.03837,-0.37905,-0.155652,-55.662,0.22518,
2,1,0,1,0,38624.1,0.227534,0.227234,9.0513,20,0.0148579,10,0.00205676,-2.04329,-0.382162,-0.154385,-54.4906,0.227234,
2,1,0,1,0,38624.1,0.229531,0.229224,8.93411,20,0.0149479,10,0.00204791,-2.04895,-0.410147,-0.143851,-50.2478,0.229224,
2,1,0,1,0,38624.2,0.231529,0.231236,8.85019,20,0.0150368,10,0.00204648,-2.05305,-0.488658,-0.120739,-41.7084,0.231236,
2,1,0,1,0,38624.2,0.233517,0.233177,8.76923,20,0.015124,10,0.00204478,-2.05704,-0.492758,-0.119734,-40.9774,0.233177,
2,1,0,1,0,38624.2,0.235515,0.235175,8.68879,20,0.0152113,10,0.00204338,-2.06104,-0.486875,-0.121181,-41.0788,0.235175,
2,1,0,1,0,38624.2,0.237512,0.237217,8.60327,20,0.0152977,10,0.00204084,-2.06534,-0.518375,-0.113817,-38.2529,0.237217,
2,1,0,1,0,38624.2,0.23951,0.23919,8.53522,20,0.0153834,10,0.00204153,-2.06879,-0.574242,-0.102744,-34.2225,0.23919,
2,1,0,1,0,38624.2,0.241499,0.241211,8.4666,20,0.0154675,10,0.00204223,-2.07229,-0.591595,-0.0997304,-32.9645,0.241211,
2,1,0,1,0,38624.2,0.243496,0.243169,8.40403,20,0.0155518,10,0.0020436,-2.07551,-0.625646,-0.0943025,-30.9315,0.243169,
2,1,0,1,0,38624.2,0.245494,0.245213,8.3428,20,0.0156355,10,0.00204576,-2.07869,-0.652057,-0.0904829,-29.4656,0.245213,
2,1,0,1,0,38624.2,0.247491,0.247221,8.28465,20,0.0157186,10,0.00204814,-2.08173,-0.659037,-0.0895245,-28.9454,0.247221,
2,1,0,1,0,38624.2,0.249498,0.249222,8.22675,20,0.0158012,10,0.00205029,-2.08477,-0.680185,-0.0867411,-27.8593,0.249222,
2,1,0,1,0,38624.3,0.251496,0.25116,8.17489,20,0.0158832,10,0.00205321,-2.08752,-0.714936,-0.0825249,-26.3289,0.25116,
2,1,0,1,0,38624.3,0.253493,0.253152,8.1233,20,0.0159647,10,0.00205643,-2.09027,-0.767509,-0.076872,-24.3788,0.253152,
2,1,0,1,0,38624.3,0.255491,0.255159,8.0774,20,0.0160457,10,0.00206102,-2.09273,-0.868261,-0.0679519,-21.4262,0.255159,
2,1,0,1,0,38624.3,0.257497,0.257241,8.03568,20,0.0161263,10,0.00206711,-2.09498,-0.969743,-0.0608408,-19.0877,0.257241,
2,1,0,1,0,38624.3,0.259495,0.259193,8.00041,20,0.0162065,10,0.00207365,-2.09689,-0.806977,-0.0731124,-22.8001,0.259193,
2,1,0,1,0,38624.3,0.261493,0.261182,7.94582,20,0.0162862,10,0.00207531,-2.09986,-0.845387,-0.0697905,-21.6727,0.261182,
2,1,0,1,0,38624.3,0.26349,0.263187,7.91384,20,0.0163655,10,0.00208282,-2.10161,-1.11394,-0.0529652,-16.357,0.263187,
2,1,0,1,0,38624.3,0.265479,0.265169,7.88061,20,0.0164436,10,0.00208969,-2.10344,-1.05642,-0.055849,-17.1749,0.265169,
2,1,0,1,0,38624.3,0.267476,0.267147,7.84584,20,0.0165223,10,0.00209599,-2.10536,-0.929958,-0.0634438,-19.4171,0.267147,
2,1,0,1,0,38624.3,0.269474,0.269131,7.80367,20,0.0166005,10,0.00210021,-2.1077,-1.03639,-0.0569284,-17.3543,0.269131,
2,1,0,1,0,38624.4,0.271471,0.27114,7.77654,20,0.0166783,10,0.00210853,-2.10921,-1.26931,-0.046482,-14.1046,0.2711401,
2,1,0,1,0,38624.4,0.27346,0.273159,7.74685,20,0.0167551,10,0.00211613,-2.11087,-1.05842,-0.0557436,-16.8443,0.273159,
2,1,0,1,0,38624.4,0.275458,0.275146,7.70905,20,0.0168323,10,0.00212112,-2.113,-0.917172,-0.0643282,-19.3518,0.275146,
2,1,0,1,0,38624.4,0.277455,0.27714,7.66982,20,0.0169092,10,0.00212561,-2.11521,-1.18634,-0.049733,-14.9046,0.27714,
2,1,0,1,0,38624.4,0.279453,0.279155,7.64931,20,0.0169858,10,0.00213534,-2.11638,-1.15646,-0.0510178,-15.2101,0.279155,
2,1,0,1,0,38624.4,0.281455,0.281164,7.60862,20,0.0170621,10,0.00213927,-2.11869,-1.22799,-0.048046,-14.29,0.281164,
2,1,0,1,0,38624.4,0.283457,0.283111,7.59278,20,0.0171381,10,0.0021496,-2.1196,-1.38616,-0.0425637,-12.5971,0.283111,
2,1,0,1,0,38624.4,0.285455,0.285152,7.55839,20,0.0172138,10,0.00215529,-2.12157,-1.06505,-0.0553965,-16.3442,0.285152,
2,1,0,1,0,38624.4,0.287452,0.287125,7.52716,20,0.0172893,10,0.00216124,-2.12337,-1.08088,-0.0545853,-16.0331,0.287125,
2,1,0,1,0,38624.4,0.28945,0.289156,7.49419,20,0.0173644,10,0.00216699,-2.12528,-1.48485,-0.0397347,-11.6365,0.289156,
2,1,0,1,0,38624.5,0.291456,0.291113,7.48076,20,0.0174394,10,0.00217775,-2.12605,-1.30461,-0.0452243,-13.1809,0.2911129,
2,1,0,1,0,38624.5,0.293454,0.29311,7.44206,20,0.017514,10,0.00218134,-2.12831,-1.138,-0.0518452,-15.0745,0.2931101,
2,1,0,1,0,38624.5,0.295452,0.295157,7.4198,20,0.0175883,10,0.00219001,-2.12961,-1.38538,-0.0425877,-12.3283,0.295157,
2,1,0,1,0,38624.5,0.297449,0.2971,7.39287,20,0.0176624,10,0.00219642,-2.13119,-1.68729,-0.0349673,-10.0982,0.2971,
2,1,0,1,0,38624.5,0.299438,0.299124,7.37974,20,0.0177355,10,0.00220746,-2.13196,-0.0671513,-0.878613,-243.431,0.299124,
2,1,0,1,0,38624.5,0.299746,0.29948,6.81355,20,0.0177665,10,0.00204052,-2.16663,0.00719811,8.1966,1826.72,0.29948,
2,1,0,1,0,38624.5,0.29774,0.297446,4.31422,20,0.0178205,10,0.00128325,-2.3651,0.0101643,5.80462,1014.01,0.297446,
2,1,0,1,0,38624.5,0.295742,0.295469,2.7464,20,0.0178552,10,0.000811476,-2.56124,0.00927645,6.36019,677.375,0.295469,
2,1,0,1,0,38624.5,0.293745,0.293423,1.58968,20,0.0178764,10,0.000466448,-2.79869,0.00674198,8.75114,509.473,0.2934233,
2,1,0,1,0,38624.5,0.291747,0.29144,0.693651,20,0.0178876,10,0.000202158,-3.15886,0.00210865,27.98,402.858,0.29144,
2,1,0,1,0,38624.5,0.289745,0.289427,-0.020237,20,0.0178907,10,-5.85713e-06,-4.69385,0.0594901,0.991762,317.914,0.289427,
2,0,0,1,0,38624.6,0.287743,0.287393,-0.59307,20,0.0178875,10,-0.000170444,-3.22689,-0.00231904,-25.4415,261.465,0.287393,
2,0,0,1,0,38624.6,0.285745,0.285437,-1.06352,20,0.017879,10,-0.000303567,-2.97326,-0.0101194,-5.83039,219.083,0.285437,
2,0,0,1,0,38624.6,0.283748,0.283429,-1.46134,20,0.0178663,10,-0.000414187,-2.83525,-0.0175437,-3.36302,183.605,0.283429,
2,0,0,1,0,38624.6,0.28175,0.281435,-1.79835,20,0.0178499,10,-0.000506118,-2.74513,-0.0256872,-2.29686,157.554,0.281435,
2,0,0,1,0,38624.6,0.279761,0.27943,-2.09153,20,0.0178306,10,-0.000584434,-2.67954,-0.0343687,-1.71668,137.905,0.27943,
2,0,0,1,0,38624.6,0.277764,0.27749,-2.34237,20,0.0178083,10,-0.000649985,-2.63034,-0.0449014,-1.31399,119.034,0.27749,
2,0,0,1,0,38624.6,0.275766,0.275434,-2.56714,20,0.0177838,10,-0.000707079,-2.59055,-0.0574083,-1.02773,101.927,0.2754339,
2,0,0,1,0,38624.6,0.273769,0.27348,-2.75109,20,0.0177571,10,-0.000752368,-2.5605,-0.0674185,-0.87513,93.9388,0.27348,
2,0,0,1,0,38624.6,0.27178,0.27144,-2.94234,20,0.0177289,10,-0.000798669,-2.53131,-0.0780479,-0.755946,86.1675,0.27144,
2,0,0,1,0,38624.6,0.269783,0.269464,-3.09717,20,0.0176986,10,-0.000834575,-2.50903,-0.0927518,-0.636106,76.7122,0.269464,
2,0,0,1,0,38624.7,0.267785,0.267524,-3.24271,20,0.0176669,10,-0.000867503,-2.48909,-0.106472,-0.554138,69.9325,0.267524,
2,0,0,1,0,38624.7,0.265787,0.265503,-3.37415,20,0.0176338,10,-0.000895846,-2.47184,-0.120686,-0.488873,64.3202,0.265503,
2,0,0,1,0,38624.7,0.263781,0.263476,-3.50309,20,0.0175994,10,-0.000922981,-2.45555,-0.134661,-0.438138,59.7389,0.263476,
2,0,0,1,0,38624.7,0.261783,0.261455,-3.61599,20,0.0175637,10,-0.000945416,-2.44177,-0.154757,-0.381242,53.7097,0.261455,
2,0,0,1,0,38624.7,0.259786,0.259461,-3.71875,20,0.0175271,10,-0.00096487,-2.4296,-0.163673,-0.360475,52.3259,0.259461,
2,0,0,1,0,38624.7,0.257788,0.257463,-3.82486,20,0.0174893,10,-0.00098476,-2.41738,-0.173561,-0.339938,50.6669,0.257463,
2,0,0,1,0,38624.7,0.255781,0.255465,-3.92122,20,0.0174506,10,-0.00100173,-2.40658,-0.198915,-0.296608,45.3089,0.255465,
2,0,0,1,0,38624.7,0.253784,0.253492,-4.00479,20,0.0174109,10,-0.00101518,-2.39742,-0.220686,-0.267348,41.7778,0.2534917,
2,0,0,1,0,38624.7,0.251786,0.251469,-4.08814,20,0.0173704,10,-0.00102804,-2.38847,-0.225366,-0.261796,41.7639,0.251469,
2,0,0,1,0,38624.7,0.249789,0.249496,-4.17165,20,0.0173291,10,-0.00104081,-2.37969,-0.229014,-0.257627,41.9339,0.249496,
2,0,0,1,0,38624.8,0.2478,0.247504,-4.2544,20,0.0172874,10,-0.00105298,-2.37116,-0.254181,-0.232118,38.4814,0.2475044,
2,0,0,1,0,38624.8,0.245802,0.245507,-4.32515,20,0.0172444,10,-0.00106186,-2.364,-0.27044,-0.218163,36.8529,0.245507,
2,0,0,1,0,38624.8,0.243805,0.243466,-4.40324,20,0.0172008,10,-0.00107204,-2.35623,-0.302713,-0.194904,33.4109,0.243466,
2,0,0,1,0,38624.8,0.241807,0.24146,-4.46037,20,0.0171565,10,-0.001077,-2.35063,-0.299865,-0.196755,34.3308,0.24146,
2,0,0,1,0,38624.8,0.239819,0.239504,-4.53924,20,0.017112,10,-0.00108717,-2.34302,-0.293005,-0.201362,35.6021,0.2395042,
2,0,0,1,0,38624.8,0.237821,0.237507,-4.60111,20,0.0170662,10,-0.0010928,-2.33714,-0.349283,-0.168917,30.3204,0.237507,
2,0,0,1,0,38624.8,0.235824,0.235522,-4.65999,20,0.0170199,10,-0.00109753,-2.33162,-0.364404,-0.161908,29.4446,0.2355219,
2,0,0,1,0,38624.8,0.233826,0.2335,-4.71911,20,0.0169731,10,-0.00110191,-2.32614,-0.342262,-0.172383,31.7776,0.2335,
2,0,0,1,0,38624.8,0.231824,0.231507,-4.78758,20,0.0169256,10,-0.00110836,-2.31988,-0.363304,-0.162399,30.2882,0.2315066,
2,0,0,1,0,38624.8,0.229822,0.229535,-4.83918,20,0.0168774,10,-0.00111076,-2.31523,-0.426888,-0.138209,26.104,0.229535,
2,0,0,1,0,38624.9,0.227824,0.22751,-4.89192,20,0.0168287,10,-0.00111296,-2.31052,-0.418111,-0.141111,26.9474,0.22751,
2,0,0,1,0,38624.9,0.225827,0.225511,-4.94763,20,0.0167795,10,-0.00111574,-2.3056,-0.415581,-0.14197,27.4119,0.225511,
2,0,0,1,0,38624.9,0.223829,0.223445,-5.00334,20,0.0167298,10,-0.00111797,-2.30074,-0.403922,-0.146068,28.5306,0.223445,
2,0,0,1,0,38624.9,0.221822,0.221483,-5.06254,20,0.0166794,10,-0.00112127,-2.29563,-0.433436,-0.136122,26.8583,0.221483,
2,0,0,1,0,38624.9,0.219825,0.219527,-5.10858,20,0.0166285,10,-0.00112147,-2.2917,-0.443359,-0.133075,26.5641,0.219527,
2,0,0,1,0,38624.9,0.217827,0.21753,-5.16754,20,0.0165771,10,-0.0011241,-2.28672,-0.452905,-0.13027,26.2369,0.21753,
2,0,0,1,0,38624.9,0.21583,0.215544,-5.21306,20,0.0165252,10,-0.00112365,-2.28291,-0.45214,-0.130491,26.5888,0.215544,
2,0,0,1,0,38624.9,0.213841,0.213494,-5.27487,20,0.0164732,10,-0.00112615,-2.27779,-0.449234,-0.131335,26.9987,0.213494,
2,0,0,1,0,38624.9,0.211844,0.211502,-5.32221,20,0.0164203,10,-0.00112566,-2.27391,-0.510696,-0.115529,23.997,0.211502,
2,0,0,1,0,38624.9,0.209846,0.209524,-5.37014,20,0.0163668,10,-0.00112517,-2.27001,-0.508663,-0.11599,24.3081,0.2095238,
2,0,0,1,0,38625,0.207848,0.207567,-5.41787,20,0.0163129,10,-0.00112457,-2.26617,-0.421845,-0.139862,29.6304,0.207567,
2,0,0,1,0,38625,0.20586,0.205575,-5.48715,20,0.0162589,10,-0.00112802,-2.26065,-0.480049,-0.122904,26.2401,0.205575,
2,0,0,1,0,38625,0.203862,0.203534,-5.52368,20,0.0162038,10,-0.00112426,-2.25777,-0.595658,-0.0990502,21.3789,0.203534,
2,0,0,1,0,38625,0.201865,0.201506,-5.57414,20,0.0161483,10,-0.00112322,-2.25382,-0.534976,-0.110285,23.9818,0.201506,
2,0,0,1,0,38625,0.199867,0.199504,-5.62032,20,0.0160924,10,-0.00112128,-2.25024,-0.473259,-0.124668,27.3872,0.199504,
2,0,0,1,0,38625,0.19786,0.197487,-5.6842,20,0.0160358,10,-0.00112256,-2.24533,-0.505854,-0.116634,25.8137,0.197487,
2,0,0,1,0,38625,0.195863,0.195565,-5.722,20,0.0159788,10,-0.00111902,-2.24245,-0.513788,-0.114833,25.7016,0.195565,
2,0,0,1,0,38625,0.193865,0.193528,-5.78595,20,0.0159212,10,-0.00111974,-2.23763,-0.488881,-0.120684,27.2083,0.193528,
2,0,0,1,0,38625,0.191868,0.191522,-5.83201,20,0.0158632,10,-0.00111696,-2.23418,-0.489367,-0.120564,27.482,0.191522,
2,0,0,1,0,38625,0.189861,0.189528,-5.89587,20,0.0158045,10,-0.00111744,-2.22945,-0.524825,-0.112418,25.8135,0.189528,
2,0,0,1,0,38625.1,0.187863,0.18751,-5.93557,20,0.0157454,10,-0.00111298,-2.22654,-0.518902,-0.113702,26.3944,0.18751,
2,0,0,1,0,38625.1,0.185866,0.185556,-6.00073,20,0.0156856,10,-0.00111347,-2.2218,-0.485763,-0.121459,28.3986,0.185556,
2,0,0,1,0,38625.1,0.183868,0.183588,-6.04696,20,0.0156254,10,-0.00111015,-2.21846,-0.470717,-0.125341,29.6438,0.183588,
2,0,0,1,0,38625.1,0.18188,0.181538,-6.11983,20,0.0155652,10,-0.00111098,-2.21326,-0.436768,-0.135083,32.2221,0.181538,
2,0,0,1,0,38625.1,0.179882,0.179532,-6.17765,20,0.0155037,10,-0.00110909,-2.20918,-0.505542,-0.116706,28.1281,0.179532,
2,0,0,1,0,38625.1,0.177885,0.177558,-6.23178,20,0.0154416,10,-0.0011065,-2.20539,-0.492947,-0.119688,29.128,0.177558,
2,0,0,1,0,38625.1,0.175887,0.175523,-6.29442,20,0.015379,10,-0.00110482,-2.20104,-0.43032,-0.137107,33.7038,0.175523,
2,0,0,1,0,38625.1,0.173907,0.173569,-6.36623,20,0.0153163,10,-0.00110498,-2.19612,-0.399001,-0.147869,36.7397,0.1735688,
2,0,0,1,0,38625.1,0.171901,0.17159,-6.43893,20,0.0152523,10,-0.00110485,-2.19119,-0.390738,-0.150996,37.9573,0.17159,
2,0,0,1,0,38625.1,0.169903,0.169605,-6.5167,20,0.0151875,10,-0.00110526,-2.18597,-0.396801,-0.148689,37.8021,0.169605,
2,0,0,1,0,38625.2,0.167906,0.167582,-6.59042,20,0.015122,10,-0.00110444,-2.18109,-0.387418,-0.15229,39.2024,0.167582,
2,0,0,1,0,38625.2,0.165908,0.165546,-6.67581,20,0.0150556,10,-0.00110515,-2.1755,-0.365354,-0.161487,42.0597,0.165546,
2,0,0,1,0,38625.2,0.163901,0.163607,-6.75762,20,0.0149885,10,-0.00110559,-2.17021,-0.335174,-0.176028,46.4914,0.163607,
2,0,0,1,0,38625.2,0.161904,0.161585,-6.85998,20,0.0149203,10,-0.00110847,-2.16368,-0.329236,-0.179203,47.9356,0.161585,
2,0,0,1,0,38625.2,0.159906,0.159563,-6.95147,20,0.0148513,10,-0.0011092,-2.15792,-0.322247,-0.18309,49.7276,0.159563,
2,0,0,1,0,38625.2,0.157909,0.157568,-7.05974,20,0.0147812,10,-0.00111239,-2.15121,-0.283493,-0.208118,57.3973,0.157568,
2,0,0,1,0,38625.2,0.155902,0.155525,-7.18323,20,0.0147099,10,-0.00111717,-2.14368,-0.254724,-0.231623,64.9812,0.155525,
2,0,0,1,0,38625.2,0.153904,0.153578,-7.31896,20,0.0146374,10,-0.00112403,-2.13555,-0.248859,-0.237082,67.6841,0.153578,
2,0,0,1,0,38625.2,0.151907,0.151603,-7.44871,20,0.0145635,10,-0.00112925,-2.12792,-0.233335,-0.252856,73.6642,0.151603,
2,0,0,1,0,38625.2,0.149909,0.149592,-7.61264,20,0.0144882,10,-0.00113879,-2.11846,-0.20749,-0.284351,84.5173,0.149592,
2,0,0,1,0,38625.3,0.147921,0.147615,-7.78576,20,0.0144119,10,-0.00114929,-2.1087,-0.194103,-0.303962,92.4665,0.1476149,
2,0,0,1,0,38625.3,0.145923,0.145622,-7.97971,20,0.014333,10,-0.00116202,-2.09801,-0.183782,-0.321033,100.059,0.145622,
2,0,0,1,0,38625.3,0.143926,0.143574,-8.19009,20,0.0142522,10,-0.00117588,-2.08671,-0.165498,-0.3565,114.185,0.143574,
2,0,0,1,0,38625.3,0.141928,0.141603,-8.43858,20,0.0141691,10,-0.00119493,-2.07373,-0.152785,-0.386163,127.21,0.1416032,
2,0,0,1,0,38625.3,0.139939,0.139592,-8.69668,20,0.0140843,10,-0.00121398,-2.06065,-0.149002,-0.395967,134.51,0.139592,
2,0,0,1,0,38625.3,0.137942,0.137612,-8.97547,20,0.013996,10,-0.00123513,-2.04694,-0.139393,-0.423264,148.449,0.137612,
2,0,0,1,0,38625.3,0.135944,0.135641,-9.28322,20,0.0139047,10,-0.00125918,-2.0323,-0.131543,-0.448522,162.761,0.135641,
2,0,0,1,0,38625.3,0.133947,0.133598,-9.62871,20,0.0138101,10,-0.00128638,-2.01643,-0.127016,-0.46451,174.532,0.133598,
2,0,0,1,0,38625.3,0.13194,0.131646,-9.98038,20,0.0137121,10,-0.00131388,-2.00085,-0.124956,-0.472165,184.1,0.1316461,
2,0,0,1,0,38625.3,0.129942,0.129617,-10.3617,20,0.0136103,10,-0.00134305,-1.98457,-0.124897,-0.472387,190.995,0.1296168,
2,0,0,1,0,38625.4,0.127945,0.127621,-10.7491,20,0.0135048,10,-0.00137181,-1.96863,-0.125813,-0.468952,196.734,0.127621,
2,0,0,1,0,38625.4,0.125947,0.125626,-11.1469,20,0.0133952,10,-0.00140033,-1.95285,-0.126582,-0.466101,202.776,0.1256258,
2,0,0,1,0,38625.4,0.123941,0.123645,-11.5554,20,0.0132817,10,-0.00142877,-1.93722,-0.130477,-0.452186,203.816,0.123645,
2,0,0,1,0,38625.4,0.121943,0.12163,-11.9613,20,0.013164,10,-0.00145485,-1.92222,-0.140132,-0.42103,196.3,0.12163,
2,0,0,1,0,38625.4,0.119945,0.119615,-12.3465,20,0.0130425,10,-0.00147682,-1.90846,-0.142713,-0.413418,199.354,0.119615,
2,0,0,1,0,38625.4,0.117948,0.117629,-12.7589,20,0.0129169,10,-0.00150081,-1.89419,-0.143425,-0.411366,204.685,0.117629,
2,0,0,1,0,38625.4,0.115946,0.115634,-13.1612,20,0.0127873,10,-0.00152189,-1.8807,-0.153666,-0.38395,197.017,0.115634,
2,0,0,1,0,38625.4,0.113962,0.113637,-13.5454,20,0.0126549,10,-0.00153926,-1.86821,-0.167409,-0.35243,186.058,0.1136371,
2,0,0,1,0,38625.4,0.111964,0.111663,-13.9001,20,0.0125177,10,-0.00155213,-1.85698,-0.175324,-0.336519,182.606,0.111663,
2,0,0,1,0,38625.4,0.109967,0.109674,-14.269,20,0.0123767,10,-0.00156494,-1.84561,-0.188258,-0.3134,174.246,0.109674,
2,0,0,1,0,38625.5,0.107969,0.107658,-14.598,20,0.0122324,10,-0.00157159,-1.83571,-0.200591,-0.294131,167.604,0.107658,
2,0,0,1,0,38625.5,0.10598,0.105683,-14.9379,20,0.0120861,10,-0.00157869,-1.82571,-0.215731,-0.273489,159.179,0.105683,
2,0,0,1,0,38625.5,0.103983,0.103664,-15.2338,20,0.0119353,10,-0.00157919,-1.81719,-0.23552,-0.250509,148.933,0.103664,
2,0,0,1,0,38625.5,0.101985,0.101687,-15.5331,20,0.0117813,10,-0.00157951,-1.80874,-0.256173,-0.230313,139.404,0.101687,
2,0,0,1,0,38625.5,0.0999877,0.0996879,-15.7881,20,0.0116248,10,-0.00157388,-1.80167,-0.276915,-0.213062,131.329,0.0996879,
2,0,0,1,0,38625.5,0.0979811,0.0976924,-16.0577,20,0.0114654,10,-0.00156871,-1.79432,-0.301834,-0.195471,122.31,0.0976924,
2,0,0,1,0,38625.5,0.0959835,0.0956631,-16.2803,20,0.0113037,10,-0.00155743,-1.78834,-0.340589,-0.17323,110.042,0.0956631,
2,0,0,1,0,38625.5,0.0939859,0.0936884,-16.4983,20,0.0111397,10,-0.0015457,-1.78256,-0.380704,-0.154976,99.661,0.0936884,
2,0,0,1,0,38625.5,0.0919883,0.091686,-16.6767,20,0.0109738,10,-0.00152902,-1.77789,-0.409654,-0.144024,93.7896,0.091686,
2,0,0,1,0,38625.5,0.0899816,0.0896679,-16.8754,20,0.010806,10,-0.00151318,-1.77275,-0.502825,-0.117337,77.0799,0.0896679,
2,0,0,1,0,38625.6,0.087984,0.0876368,-16.9888,20,0.0106367,10,-0.00148884,-1.76984,-0.644977,-0.0914761,60.6735,0.0876368,
2,0,0,1,0,38625.6,0.0859865,0.0857073,-17.1157,20,0.0104661,10,-0.00146694,-1.76661,-0.809031,-0.0729267,48.6281,0.0857073,
2,0,0,1,0,38625.6,0.0839889,0.0836372,-17.1833,20,0.0102946,10,-0.00143716,-1.76489,-1.0656,-0.0553677,37.1436,0.0836372,
2,0,0,1,0,38625.6,0.0820004,0.0817255,-17.2636,20,0.010124,10,-0.00141088,-1.76287,-1.54123,-0.0382812,25.7477,0.0817255,
2,0,0,1,0,38625.6,0.0800028,0.0796871,-17.285,20,0.00995128,10,-0.00137739,-1.76233,-3.28998,-0.0179332,12.0997,0.0796871,
2,0,0,1,0,38625.6,0.0780052,0.0776408,-17.313,20,0.00977824,10,-0.0013442,-1.76163,-34.7245,-0.00169909,1.14632,0.0776408,
2,0,0,1,0,38625.6,0.0760076,0.0756541,-17.2896,20,0.00960525,10,-0.00130803,-1.76221,4.7433,0.0124386,-8.39643,0.0756541,
2,0,0,1,0,38625.6,0.0740191,0.0737248,-17.2801,20,0.00943418,10,-0.00127397,-1.76245,2.28128,0.0258627,-17.4161,0.0737248,
2,0,0,1,0,38625.6,0.0720215,0.071672,-17.2203,20,0.00926168,10,-0.00123421,-1.76396,1.52952,0.0385741,-25.936,0.07167203,
2,0,0,1,0,38625.6,0.0700239,0.0697381,-17.1767,20,0.00908968,10,-0.00119787,-1.76506,1.18018,0.0499923,-33.4684,0.0697381,
2,0,0,1,0,38625.7,0.0680263,0.0677227,-17.0881,20,0.00891837,10,-0.00115725,-1.76731,1.25748,0.0469193,-31.3367,0.0677227,
2,0,0,1,0,38625.7,0.0660197,0.0657047,-17.0503,20,0.0087477,10,-0.00112029,-1.76827,1.18308,0.0498699,-33.1282,0.0657047,
2,0,0,1,0,38625.7,0.0640221,0.0637031,-16.9549,20,0.00857769,10,-0.00108008,-1.7707,0.912998,0.0646223,-42.7855,0.0637031,
2,0,0,1,0,38625.7,0.0620245,0.0617163,-16.8797,20,0.0084085,10,-0.00104175,-1.77264,0.927037,0.0636437,-41.9065,0.0617163,
2,0,0,1,0,38625.7,0.0600269,0.0597442,-16.789,20,0.00824016,10,-0.00100305,-1.77497,1.04268,0.0565848,-37.1102,0.0597442,
2,0,0,1,0,38625.7,0.0580248,0.0576793,-16.7299,20,0.00807256,10,-0.000964968,-1.77651,0.993417,0.0593909,-38.7321,0.0576793,
2,0,0,1,0,38625.7,0.0560227,0.0556907,-16.632,20,0.00790576,10,-0.00092625,-1.77905,0.968533,0.0609169,-39.5836,0.0556907,
2,0,0,1,0,38625.7,0.0540251,0.0536484,-16.5703,20,0.00773973,10,-0.000888971,-1.78067,1.06158,0.0555775,-35.9192,0.0536484,
2,0,0,1,0,38625.7,0.0520275,0.0516937,-16.4885,20,0.00757446,10,-0.000852349,-1.78282,1.00027,0.0589841,-37.9726,0.0516937,
2,0,0,1,0,38625.7,0.0500299,0.0497251,-16.4213,20,0.00740988,10,-0.000816553,-1.78459,1.06714,0.0552878,-35.4245,0.0497251,
2,0,0,1,0,38625.8,0.0480414,0.0477015,-16.347,20,0.0072477,10,-0.000779779,-1.78656,1.08405,0.0544258,-34.7307,0.0477015,
2,0,0,1,0,38625.8,0.0460438,0.0456823,-16.2809,20,0.00708457,10,-0.00074375,-1.78832,0.945242,0.0624179,-39.6271,0.0456823,
2,0,0,1,0,38625.8,0.0440462,0.0436916,-16.1881,20,0.00692227,10,-0.000707286,-1.7908,0.957753,0.0616025,-38.9567,0.0436916,
2,0,0,1,0,38625.8,0.0420486,0.0417336,-16.1271,20,0.00676072,10,-0.000673042,-1.79244,1.07189,0.0550432,-34.6264,0.0417336,
2,0,0,1,0,38625.8,0.0400601,0.0397095,-16.0503,20,0.00660149,10,-0.000637347,-1.79452,1.01197,0.0583024,-36.5291,0.03970946,
2,0,0,1,0,38625.8,0.0380625,0.0377495,-15.9816,20,0.00644136,10,-0.000603297,-1.79638,0.81887,0.0720505,-44.8831,0.0377495,
2,0,0,1,0,38625.8,0.036065,0.0357757,-15.8737,20,0.00628213,10,-0.000567893,-1.79932,0.85177,0.0692675,-42.969,0.0357757,
2,0,0,1,0,38625.8,0.0340674,0.0337291,-15.8088,20,0.0061237,10,-0.000533216,-1.8011,0.947769,0.0622515,-38.3762,0.0337291,
2,0,0,1,0,38625.8,0.0320607,0.031737,-15.7187,20,0.00596606,10,-0.000498865,-1.80358,0.848817,0.0695085,-42.6558,0.031737,
2,0,0,1,0,38625.8,0.0300631,0.0297815,-15.6404,20,0.00580928,10,-0.000465795,-1.80575,0.749192,0.0787515,-48.0144,0.02978145,
2,0,0,1,0,38625.9,0.0280655,0.0277356,-15.5266,20,0.00565347,10,-0.000430639,-1.80892,0.776292,0.0760023,-46.1124,0.0277356,
2,0,0,1,0,38625.9,0.0260679,0.0257072,-15.4526,20,0.00549852,10,-0.000397242,-1.811,0.768571,0.0767659,-46.24,0.0257072,
2,0,0,1,0,38625.9,0.0240613,0.0237507,-15.3423,20,0.00534457,10,-0.000364391,-1.81411,0.687015,0.0858787,-51.4464,0.0237507,
2,0,0,1,0,38625.9,0.0220637,0.0217249,-15.2477,20,0.00519162,10,-0.000331254,-1.8168,0.658083,0.0896544,-53.306,0.0217249,
2,0,0,1,0,38625.9,0.0200661,0.0197311,-15.128,20,0.00503978,10,-0.000298493,-1.82022,0.58915,0.100144,-59.1277,0.0197311,
2,0,0,1,0,38625.9,0.0180685,0.0177096,-15.0103,20,0.00488907,10,-0.000265826,-1.82361,0.57889,0.101919,-59.6974,0.01770959,
2,0,0,1,0,38625.9,0.01608,0.0157351,-14.8895,20,0.00474111,10,-0.000234287,-1.82712,0.602454,0.0979328,-56.9333,0.0157351,
2,0,0,1,0,38625.9,0.0140824,0.013711,-14.7826,20,0.00459277,10,-0.000202685,-1.83025,0.527945,0.111754,-64.3798,0.013711,
2,0,0,1,0,38625.9,0.0120848,0.0117617,-14.6337,20,0.00444573,10,-0.000172117,-1.83465,0.489671,0.120489,-68.8664,0.0117617,
2,0,0,1,0,38625.9,0.0100872,0.00973369,-14.5087,20,0.00430008,10,-0.000141223,-1.83837,0.504852,0.116866,-66.134,0.00973369,
2,0,0,1,0,38626,0.00810328,0.00773647,-14.3675,20,0.00415723,10,-0.000111154,-1.84262,0.480213,0.122862,-68.9138,0.00773647,
2,0,0,1,0,38626,0.00610116,0.00578522,-14.2366,20,0.00401422,10,-8.23619e-05,-1.84659,0.449837,0.131159,-72.8051,0.00578522,
2,0,0,1,0,38626,0.00410357,0.00378973,-14.0801,20,0.00387267,10,-5.33599e-05,-1.85139,0.567459,0.103972,-57.2951,0.00378973,
2,0,0,1,0,38626,0.00210598,0.0017283,-14.0042,20,0.00373243,10,-2.42034e-05,-1.85374,0.540893,0.109079,-59.424,0.0017283,
2,0,0,1,0,38626,0.00010174,-0.0002724,-13.8388,20,0.00359324,10,3.76967e-06,-1.8589,0.447192,0.131934,-71.3621,-0.0002724,
2,0,0,1,0,38626,-0.00189827,-0.00231301,-13.7158,20,0.00345543,10,3.17247e-05,-1.86278,0.485471,0.121531,-65.0144,-0.00231301,
2,0,0,1,0,38626,-0.00389586,-0.00429809,-13.577,20,0.00331898,10,5.83553e-05,-1.8672,0.48276,0.122214,-64.8059,-0.00429809,
2,0,0,1,0,38626,-0.00589345,-0.00626842,-13.4594,20,0.0031838,10,8.43694e-05,-1.87097,0.494693,0.119266,-62.6163,-0.00626842,
2,0,0,1,0,38626,-0.00789103,-0.00825958,-13.329,20,0.00304985,10,0.000110092,-1.8752,0.572022,0.103143,-53.7422,-0.00825958,
2,0,0,1,0,38626,-0.0098977,-0.010295,-13.243,20,0.00291696,10,0.000136337,-1.87801,0.637391,0.0925649,-47.8018,-0.01029498,
2,0,0,1,0,38626.1,-0.0118953,-0.0122957,-13.136,20,0.0027851,10,0.000161517,-1.88154,0.594654,0.0992174,-50.8871,-0.01229568,
2,0,0,1,0,38626.1,-0.0138929,-0.0142625,-13.0411,20,0.00265419,10,0.000186,-1.88468,0.637122,0.092604,-47.1369,-0.0142625,
2,0,0,1,0,38626.1,-0.0158905,-0.0162468,-12.9498,20,0.00252427,10,0.000210392,-1.88774,0.787277,0.0749418,-37.921,-0.0162468,
2,0,0,1,0,38626.1,-0.017879,-0.0182396,-12.8903,20,0.00239632,10,0.000235114,-1.88974,0.865695,0.0681533,-34.2621,-0.0182396,
2,0,0,1,0,38626.1,-0.0198766,-0.0202318,-12.8133,20,0.00226783,10,0.000259236,-1.89234,0.883912,0.0667487,-33.4051,-0.0202318,
2,0,0,1,0,38626.1,-0.0218741,-0.0222344,-12.7569,20,0.00214001,10,0.000283641,-1.89426,0.993819,0.059367,-29.5493,-0.0222344,
2,0,0,1,0,38626.1,-0.0238717,-0.0242529,-12.6944,20,0.00201275,10,0.000307877,-1.89639,1.42528,0.0413954,-20.5426,-0.0242529,
2,0,0,1,0,38626.1,-0.0258602,-0.0262398,-12.6746,20,0.00188717,10,0.000332579,-1.89707,1.52754,0.0386241,-19.0779,-0.0262398,
2,0,0,1,0,38626.1,-0.0278578,-0.0282397,-12.6184,20,0.00176078,10,0.000356339,-1.899,1.63671,0.036048,-17.781,-0.0282397,
2,0,0,1,0,38626.1,-0.0298554,-0.0302412,-12.6034,20,0.00163468,10,0.000381144,-1.89951,2.63471,0.0223933,-11.0085,-0.0302412,
2,0,0,1,0,38626.2,-0.031853,-0.0322315,-12.5744,20,0.00150884,10,0.000405293,-1.90051,2.80679,0.0210204,-10.3223,-0.0322315,
2,0,0,1,0,38626.2,-0.0338597,-0.0342756,-12.5618,20,0.00138317,10,0.000430563,-1.90095,3.46642,0.0170204,-8.34162,-0.0342756,
2,0,0,1,0,38626.2,-0.0358573,-0.0362017,-12.5413,20,0.00125763,10,0.000454017,-1.90166,11.5966,0.00508769,-2.49326,-0.0362017,
2,0,0,1,0,38626.2,-0.0378548,-0.0382128,-12.552,20,0.0011321,10,0.000479647,-1.90129,25.4953,0.00231416,-1.13245,-0.0382128,
2,0,0,1,0,38626.2,-0.0398524,-0.0402482,-12.5367,20,0.00100662,10,0.000504581,-1.90182,-5.77352,-0.0102191,5.01,-0.0402482,
2,0,0,1,0,38626.2,-0.0418591,-0.0422524,-12.5722,20,0.000881064,10,0.000531206,-1.90059,-3.41544,-0.0172745,8.46323,-0.0422524,
2,0,0,1,0,38626.2,-0.0438567,-0.0442296,-12.5704,20,0.000755357,10,0.000555986,-1.90065,-5.30378,-0.0111241,5.46282,-0.0442296,
2,0,0,1,0,38626.2,-0.0458543,-0.0462269,-12.5939,20,0.000629496,10,0.000582178,-1.89984,-3.23072,-0.0182622,8.97186,-0.0462269,
2,0,0,1,0,38626.2,-0.0478519,-0.0482059,-12.6061,20,0.000503502,10,0.000607688,-1.89942,-1.83885,-0.0320853,15.8098,-0.0482059,
2,0,0,1,0,38626.2,-0.0498585,-0.0502508,-12.6576,20,0.000377199,10,0.000636053,-1.89765,-1.76829,-0.0333656,16.4581,-0.0502508,
2,0,0,1,0,38626.3,-0.051838,-0.0522262,-12.6723,20,0.000251822,10,0.000661824,-1.89715,-1.96964,-0.0299547,14.8312,-0.0522262,
2,0,0,1,0,38626.3,-0.0538356,-0.0541826,-12.7159,20,0.000124876,10,0.000688979,-1.89565,-1.50651,-0.0391633,19.4274,-0.0541826,
2,0,0,1,0,38626.3,-0.0558331,-0.0561971,-12.7494,20,-2.4205e-06,10,0.00071648,-1.89451,-1.33017,-0.0443553,22.0882,-0.0561971,
2,0,0,1,0,38626.3,-0.0578126,-0.0581851,-12.8043,20,-0.00012891,10,0.000745018,-1.89264,-1.29625,-0.0455158,22.7279,-0.0581851,
2,0,0,1,0,38626.3,-0.0598192,-0.0601945,-12.8403,20,-0.000257152,10,0.000772913,-1.89143,-1.1362,-0.0519274,26.0538,-0.0601945,
2,0,0,1,0,38626.3,-0.0618168,-0.0621726,-12.9082,20,-0.000385896,10,0.000802534,-1.88914,-1.03469,-0.0570219,28.7021,-0.0621726,
2,0,0,1,0,38626.3,-0.0638144,-0.0641933,-12.955,20,-0.000515205,10,0.000831627,-1.88756,-1.08414,-0.0544209,27.5318,-0.0641933,
2,0,0,1,0,38626.3,-0.065812,-0.0661618,-13.018,20,-0.000645044,10,0.000861295,-1.88546,-0.967823,-0.0609615,30.968,-0.0661618,
2,0,0,1,0,38626.3,-0.0678187,-0.068166,-13.0781,20,-0.000775554,10,0.00089148,-1.88346,-0.928484,-0.0635444,32.4463,-0.068166,
2,0,0,1,0,38626.3,-0.0698162,-0.0702057,-13.1492,20,-0.000906744,10,0.00092315,-1.8811,-0.957008,-0.0616505,31.6203,-0.0702057,
2,0,0,1,0,38626.4,-0.0718138,-0.0722256,-13.2064,20,-0.00103855,10,0.000953842,-1.87921,-0.865525,-0.0681667,35.1661,-0.0722256,
2,0,0,1,0,38626.4,-0.0738114,-0.0741647,-13.2884,20,-0.00117107,10,0.000985531,-1.87653,-0.729181,-0.0809127,41.964,-0.0741647,
2,0,0,1,0,38626.4,-0.0758181,-0.0761749,-13.3722,20,-0.00130443,10,0.00101862,-1.8738,-0.750646,-0.0785989,41.0114,-0.0761749,
2,0,0,1,0,38626.4,-0.0778157,-0.0781409,-13.4515,20,-0.0014386,10,0.00105111,-1.87123,-0.77771,-0.0758638,39.8287,-0.0781409,
2,0,0,1,0,38626.4,-0.0798133,-0.0802092,-13.5328,20,-0.00157355,10,0.00108546,-1.86861,-0.708189,-0.0833111,44.0228,-0.08020924,
2,0,0,1,0,38626.4,-0.0818109,-0.0821596,-13.6284,20,-0.0017094,10,0.00111971,-1.86555,-0.629826,-0.0936767,49.8326,-0.0821596,
2,0,0,1,0,38626.4,-0.0837994,-0.0841465,-13.7291,20,-0.00184481,10,0.00115525,-1.86236,-0.639677,-0.092234,49.4128,-0.0841465,
2,0,0,1,0,38626.4,-0.085797,-0.0861714,-13.8266,20,-0.00198256,10,0.00119146,-1.85928,-0.645007,-0.0914719,49.3649,-0.0861714,
2,0,0,1,0,38626.4,-0.0877945,-0.0881747,-13.9279,20,-0.0021213,10,0.00122809,-1.85611,-0.617499,-0.0955467,51.9433,-0.0881747,
2,0,0,1,0,38626.4,-0.0897921,-0.0901598,-14.0338,20,-0.00226113,10,0.00126529,-1.85282,-0.603676,-0.0977345,53.5289,-0.0901598,
2,0,0,1,0,38626.5,-0.0917806,-0.0921432,-14.1403,20,-0.00240055,10,0.00130294,-1.84954,-0.569473,-0.103604,57.2043,-0.0921432,
2,0,0,1,0,38626.5,-0.0937782,-0.0941526,-14.2622,20,-0.00254255,10,0.00134282,-1.84581,-0.584728,-0.100902,56.1264,-0.0941526,
2,0,0,1,0,38626.5,-0.0957758,-0.0961671,-14.3662,20,-0.00268568,10,0.00138155,-1.84266,-0.603064,-0.0978337,54.8708,-0.0961671,
2,0,0,1,0,38626.5,-0.0977734,-0.0981305,-14.4805,20,-0.00282995,10,0.00142098,-1.83922,-0.554026,-0.106493,60.2005,-0.0981305,
2,0,0,1,0,38626.5,-0.0997412,-0.100121,-14.6042,20,-0.00297247,10,0.00146219,-1.83552,0.102533,0.575426,-318.346,-0.100121,
2,0,0,1,1,38626.5,-0.0996711,-0.100031,-13.8753,20,-0.00301536,10,0.00138797,-1.85776,-0.0159429,-3.70071,1827.39,-0.100031,
2,0,0,1,1,38626.5,-0.0976826,-0.098085,-10.8832,20,-0.00313622,10,0.00106748,-1.96324,-0.0198407,-2.97368,1290.76,-0.098085,
2,0,0,1,1,38626.5,-0.095685,-0.0960681,-8.75967,20,-0.00323375,10,0.000841525,-2.05751,-0.0209124,-2.82129,970.611,-0.0960681,
2,0,0,1,1,38626.5,-0.0936874,-0.0941125,-7.02744,20,-0.00331227,10,0.00066137,-2.1532,-0.0198592,-2.97091,814.01,-0.0941125,
2,0,0,1,1,38626.5,-0.0916898,-0.0920988,-5.52858,20,-0.00337468,10,0.000509175,-2.25739,-0.0182802,-3.22754,694.82,-0.09209878,
2,0,0,1,1,38626.5,-0.0897013,-0.0900991,-4.23885,20,-0.00342275,10,0.000381916,-2.37275,-0.015637,-3.7731,614.288,-0.0900991,
2,0,0,1,1,38626.6,-0.0877037,-0.0880758,-3.05733,20,-0.00345894,10,0.000269277,-2.51466,-0.0122934,-4.79931,559.675,-0.0880758,
2,0,0,1,1,38626.6,-0.0857061,-0.0861194,-2.01151,20,-0.0034841,10,0.00017323,-2.69648,-0.00860429,-6.85705,503.981,-0.0861194,
2,0,0,1,1,38626.6,-0.0837086,-0.0841065,-1.05688,20,-0.0034992,10,8.88907e-05,-2.97597,-0.00387501,-15.2258,451.392,-0.0841065,
2,0,0,1,1,38626.6,-0.0817019,-0.0820633,-0.180633,20,-0.00350522,10,1.48233e-05,-3.7432,-0.0171112,-3.44804,418.287,-0.0820633,
2,1,0,1,1,38626.6,-0.0797043,-0.0801051,0.61685,20,-0.00350283,10,-4.94129e-05,-3.20982,0.0045612,12.9352,383.294,-0.0801051,
2,1,0,1,1,38626.6,-0.0777067,-0.0780906,1.3421,20,-0.00349288,10,-0.000104805,-2.87222,0.00777347,7.58992,350.283,-0.0780906,
2,1,0,1,1,38626.6,-0.0757091,-0.076102,2.01908,20,-0.00347592,10,-0.000153656,-2.69485,0.0135372,4.35835,326.701,-0.076102,
2,1,0,1,1,38626.6,-0.0737025,-0.0741004,2.64568,20,-0.00345251,10,-0.000196046,-2.57746,0.0194452,3.03417,305.084,-0.0741004,
2,1,0,1,1,38626.6,-0.0717049,-0.0721397,3.22793,20,-0.00342303,10,-0.000232862,-2.49108,0.026513,2.22532,274.991,-0.0721397,
2,1,0,1,1,38626.6,-0.0697073,-0.07008,3.75127,20,-0.0033881,10,-0.000262889,-2.42582,0.0333688,1.76812,256.641,-0.07007996,
2,1,0,1,1,38626.7,-0.0677097,-0.0681261,4.25797,20,-0.00334791,10,-0.000290079,-2.3708,0.0399732,1.47599,242.871,-0.0681261,
2,1,0,1,1,38626.7,-0.0657212,-0.0660987,4.71822,20,-0.0033034,10,-0.000311868,-2.32622,0.048627,1.21332,222.176,-0.06609866,
2,1,0,1,1,38626.7,-0.0637236,-0.0640905,5.15459,20,-0.00325393,10,-0.00033036,-2.28781,0.0568131,1.03849,207.476,-0.0640905,
2,1,0,1,1,38626.7,-0.061726,-0.0621269,5.54226,20,-0.00320042,10,-0.000344324,-2.25631,0.0656205,0.89911,194.223,-0.0621269,
2,1,0,1,1,38626.7,-0.0597284,-0.0600782,5.93387,20,-0.00314292,10,-0.000356496,-2.22666,0.0743476,0.793569,182.722,-0.0600782,
2,1,0,1,1,38626.7,-0.0577399,-0.0581304,6.2725,20,-0.00308253,10,-0.000364623,-2.20256,0.0851185,0.693152,169.366,-0.0581304,
2,1,0,1,1,38626.7,-0.0557423,-0.0561471,6.59967,20,-0.00301808,10,-0.000370552,-2.18048,0.0980485,0.601743,154.432,-0.05614708,
2,1,0,1,1,38626.7,-0.0537447,-0.0541377,6.88911,20,-0.0029506,10,-0.00037296,-2.16184,0.113188,0.521255,139.964,-0.0541377,
2,1,0,1,1,38626.7,-0.0517472,-0.0520823,7.16859,20,-0.00288021,10,-0.000373357,-2.14457,0.123613,0.477296,133.224,-0.0520823,
2,1,0,1,1,38626.7,-0.049745,-0.0501406,7.42161,20,-0.00280723,10,-0.000372124,-2.1295,0.134658,0.438147,126.879,-0.0501406,
2,1,0,1,1,38626.8,-0.0477429,-0.0480731,7.67727,20,-0.0027316,10,-0.00036907,-2.11479,0.15259,0.386658,115.449,-0.0480731,
2,1,0,1,1,38626.8,-0.0457453,-0.0461323,7.88437,20,-0.00265373,10,-0.000363724,-2.10323,0.170488,0.346065,106.48,-0.0461323,
2,1,0,1,1,38626.8,-0.0437477,-0.0441559,8.09437,20,-0.00257376,10,-0.000357414,-2.09182,0.190769,0.309274,97.5178,-0.0441559,
2,1,0,1,1,38626.8,-0.0417501,-0.0421005,8.27754,20,-0.00249185,10,-0.000348489,-2.0821,0.206272,0.286031,92.413,-0.0421005,
2,1,0,1,1,38626.8,-0.0397435,-0.0401389,8.4656,20,-0.00240799,10,-0.0003398,-2.07234,0.229743,0.256809,84.6505,-0.0401389,
2,1,0,1,1,38626.8,-0.0377459,-0.0380913,8.61692,20,-0.00232256,10,-0.00032823,-2.06465,0.253642,0.232611,78.2636,-0.0380913,
2,1,0,1,1,38626.8,-0.0357483,-0.0361392,8.77863,20,-0.00223553,10,-0.000317253,-2.05657,0.275515,0.214145,73.2305,-0.0361392,
2,1,0,1,1,38626.8,-0.0337507,-0.0340969,8.90943,20,-0.00214707,10,-0.000303784,-2.05015,0.310328,0.190122,66.1077,-0.0340969,
2,1,0,1,1,38626.8,-0.0317622,-0.0321582,9.0418,20,-0.00205816,10,-0.000290768,-2.04375,0.348142,0.169471,59.7019,-0.0321582,
2,1,0,1,1,38626.8,-0.0297646,-0.0301517,9.14497,20,-0.00196724,10,-0.000275736,-2.03882,0.388766,0.151762,54.1968,-0.0301517,
2,1,0,1,1,38626.9,-0.027767,-0.02813,9.26012,20,-0.00187517,10,-0.000260487,-2.03338,0.433392,0.136136,49.1083,-0.02813,
2,1,0,1,1,38626.9,-0.0257694,-0.0261393,9.34201,20,-0.00178217,10,-0.000244194,-2.02956,0.473699,0.124552,45.4483,-0.0261393,
2,1,0,1,1,38626.9,-0.0237809,-0.0241689,9.44014,20,-0.00168919,10,-0.000228158,-2.02502,0.521109,0.11322,41.6472,-0.0241689,
2,1,0,1,1,38626.9,-0.0217833,-0.0221239,9.50924,20,-0.00159442,10,-0.000210382,-2.02185,0.630114,0.0936338,34.7482,-0.0221239,
2,1,0,1,1,38626.9,-0.0197858,-0.0201952,9.57822,20,-0.00149892,10,-0.000193434,-2.01872,0.704248,0.0837774,31.2913,-0.0201952,
2,1,0,1,1,38626.9,-0.0177882,-0.0182023,9.63195,20,-0.00140286,10,-0.000175324,-2.01629,0.67108,0.087918,33.0951,-0.01820234,
2,1,0,1,1,38626.9,-0.0157815,-0.0161227,9.713,20,-0.00130609,10,-0.0001566,-2.01265,0.821781,0.0717953,27.1429,-0.0161227,
2,1,0,1,1,38626.9,-0.0137839,-0.0141272,9.74256,20,-0.00120883,10,-0.000137635,-2.01133,1.12676,0.0523623,19.9305,-0.0141272,
2,1,0,1,1,38626.9,-0.0117863,-0.0121083,9.79301,20,-0.00111112,10,-0.000118577,-2.00908,1.02748,0.0574218,21.9308,-0.0121083,
2,1,0,1,1,38626.9,-0.00978874,-0.010144,9.82992,20,-0.00101301,10,-9.97148e-05,-2.00745,1.07679,0.0547924,21.0313,-0.010144,
2,1,0,1,1,38627,-0.00778207,-0.008093,9.87746,20,-0.000914449,10,-7.99382e-05,-2.00535,1.48407,0.0397556,15.299,-0.008093,
2,1,0,1,1,38627,-0.00578449,-0.00613221,9.89129,20,-0.000815638,10,-6.06555e-05,-2.00475,1.95406,0.0301936,11.666,-0.00613221,
2,1,0,1,1,38627,-0.0037869,-0.00418617,9.92304,20,-0.000716538,10,-4.15395e-05,-2.00336,1.74718,0.0337688,13.0698,-0.00418617,
2,1,0,1,1,38627,-0.00178931,-0.00215944,9.94322,20,-0.000617202,10,-2.14718e-05,-2.00247,2.36834,0.024912,9.66585,-0.00215944,
2,1,0,1,1,38627,-2.55332e-05,-0.000287149,9.96072,20,-0.000530605,10,-2.86021e-06,-2.00171, , , ,-0.0002871489,