File: Figure_codes/Fig_3-5/rawdata_trumpetplot_data/after 10th/20221101_1-115_003_TrumpetPlot_ParaChange_from10_every3_08_CV_C01_16.csv
mode,ox/red,error,control changes,counter inc.,time/s,control/V,Ewe/V,<I>/mA,cycle number,(Q-Qo)/C,I Range,P/W,log(|I|),Tafel slope mV/dec,alpha_eff,dI/d(E-IR),E-IR/V,
2,0,0,0,0,32697.1,2.44065e-05,-0.000439847,-4.00336,17,0.0000000E+000,10,1.76087e-06,-2.39758, , , ,-0.000439847,
2,0,0,1,0,32697.1,0.0012943,0.000932054,-2.12286,17,-4.55911e-05,10,-1.97862e-06,-2.67308, , , ,0.000932054,
2,0,0,1,0,32697.1,0.00279784,0.00248903,-0.790193,17,-7.19263e-05,10,-1.96682e-06,-3.10227,-0.00436443,-13.5184,738.98,0.00248903,
2,0,0,1,0,32697.2,0.00429425,0.00402132,0.0797531,17,-7.78548e-05,10,3.20713e-07,-4.09825,-0.0331006,-1.78245,512.593,0.00402132,
2,1,0,1,0,32697.2,0.00579065,0.00549051,0.72086,17,-6.98549e-05,10,3.95789e-06,-3.14215,0.00461542,12.7832,384.26,0.005490514,
2,1,0,1,0,32697.2,0.0072942,0.00697728,1.21369,17,-5.13318e-05,10,8.46828e-06,-2.91589,0.00778219,7.58141,295.678,0.00697728,
2,1,0,1,0,32697.2,0.00878347,0.00842553,1.58737,17,-2.49938e-05,10,1.33744e-05,-2.79932,0.0146852,4.01765,229.931,0.00842553,
2,1,0,1,0,32697.2,0.010287,0.00996035,1.8929,17,8.00174e-06,10,1.8854e-05,-2.72287,0.0223529,2.63948,186.388,0.00996035,
2,1,0,1,0,32697.3,0.0117905,0.011458,2.13727,17,4.6201e-05,10,2.44889e-05,-2.67014,0.031055,1.89986,154.494,0.011458,
2,1,0,1,0,32697.3,0.013278,0.0129353,2.33356,17,8.8088e-05,10,3.01852e-05,-2.63198,0.0401022,1.47124,132.344,0.0129353,
2,1,0,1,0,32697.3,0.0147816,0.0144878,2.50829,17,0.000134001,10,3.63396e-05,-2.60062,0.0526252,1.12114,108.797,0.0144878,
2,1,0,1,0,32697.3,0.0162851,0.0159408,2.65851,17,0.000182957,10,4.23788e-05,-2.57536,0.0644847,0.914946,94.1094,0.0159408,
2,1,0,1,0,32697.3,0.0177744,0.0174685,2.78939,17,0.000233974,10,4.87265e-05,-2.55449,0.0783112,0.753405,81.5099,0.0174685,
2,1,0,1,0,32697.3,0.0192779,0.0189621,2.89584,17,0.000287728,10,5.49112e-05,-2.53822,0.0942548,0.625963,70.6896,0.01896207,
2,1,0,1,0,32697.4,0.0207743,0.0203989,3.0062,17,0.000343233,10,6.13231e-05,-2.52198,0.104135,0.566574,66.2655,0.0203989,
2,1,0,1,0,32697.4,0.0222707,0.0219745,3.10189,17,0.000400642,10,6.81623e-05,-2.50837,0.118524,0.497789,60.1925,0.0219745,
2,1,0,1,0,32697.4,0.0237743,0.0234745,3.19264,17,0.000460079,10,7.49457e-05,-2.49585,0.137797,0.428166,53.2493,0.0234745,
2,1,0,1,0,32697.4,0.0252636,0.0249327,3.27403,17,0.000520451,10,8.16304e-05,-2.48492,0.142726,0.413381,52.8136,0.0249327,
2,1,0,1,0,32697.4,0.0267671,0.0264709,3.35573,17,0.000582981,10,8.88291e-05,-2.47421,0.150665,0.391598,51.1848,0.0264709,
2,1,0,1,0,32697.5,0.0282706,0.0279212,3.436,17,0.000647026,10,9.59372e-05,-2.46395,0.161317,0.36574,48.9396,0.0279212,
2,1,0,1,0,32697.5,0.0297581,0.0294056,3.50912,17,0.000711783,10,0.000103188,-2.4548,0.166817,0.353681,48.3203,0.02940556,
2,1,0,1,0,32697.5,0.0312617,0.030969,3.57297,17,0.000778563,10,0.000110652,-2.44697,0.17417,0.338749,47.2484,0.030969,
2,1,0,1,0,32697.5,0.0327652,0.0324476,3.64698,17,0.000846662,10,0.000118336,-2.43807,0.172577,0.341876,48.6523,0.0324476,
2,1,0,1,0,32697.5,0.0342545,0.0339538,3.72099,17,0.000915361,10,0.000126342,-2.42934,0.178347,0.330815,47.9537,0.0339538,
2,1,0,1,0,32697.6,0.035758,0.0354143,3.78432,17,0.00098614,10,0.000134019,-2.42201,0.190432,0.309822,45.6592,0.0354143,
2,1,0,1,0,32697.6,0.0372544,0.036915,3.85029,17,0.00105781,10,0.000142134,-2.41451,0.187975,0.313872,47.1764,0.036915,
2,1,0,1,0,32697.6,0.0387508,0.0383981,3.91092,17,0.00113062,10,0.000150172,-2.40772,0.193769,0.304487,46.5775,0.0383981,
2,1,0,1,0,32697.6,0.0402544,0.0399472,3.97785,17,0.00120518,10,0.000158904,-2.40035,0.188341,0.313261,48.7449,0.0399472,
2,1,0,1,0,32697.6,0.0417437,0.0414309,4.05188,17,0.00128025,10,0.000167873,-2.39234,0.215742,0.273475,43.2666,0.0414309,
2,1,0,1,0,32697.6,0.0432472,0.0429371,4.11998,17,0.00135738,10,0.0001769,-2.38511,0.217463,0.271311,43.6279,0.0429371,
2,1,0,1,0,32697.7,0.0447507,0.0444586,4.18111,17,0.00143567,10,0.000185887,-2.37871,0.234703,0.251381,41.0422,0.0444586,
2,1,0,1,0,32697.7,0.0462382,0.0459192,4.24625,17,0.00151434,10,0.000194984,-2.37199,0.228659,0.258026,42.8012,0.0459192,
2,1,0,1,0,32697.7,0.0477418,0.0474223,4.31232,17,0.00159507,10,0.0002045,-2.36529,0.242425,0.243374,40.9533,0.0474223,
2,1,0,1,0,32697.7,0.0492453,0.0489145,4.37465,17,0.00167706,10,0.000213984,-2.35906,0.24232,0.24348,41.5888,0.0489145,
2,1,0,1,0,32697.7,0.0507346,0.0504146,4.43736,17,0.00175929,10,0.000223708,-2.35287,0.254636,0.231704,40.1802,0.0504146,
2,1,0,1,0,32697.8,0.0522381,0.0518877,4.50559,17,0.00184358,10,0.000233785,-2.34625,0.251067,0.234997,41.31,0.0518877,
2,1,0,1,0,32697.8,0.0537345,0.0534074,4.5734,17,0.00192864,10,0.000244254,-2.33976,0.244782,0.241031,42.9512,0.0534074,
2,1,0,1,0,32697.8,0.0552309,0.0548929,4.63887,17,0.0020149,10,0.000254641,-2.33359,0.26912,0.219233,39.6093,0.05489292,
2,1,0,1,0,32697.8,0.0567345,0.0564196,4.6904,17,0.00210279,10,0.00026463,-2.32879,0.271496,0.217315,39.771,0.0564196,
2,1,0,1,0,32697.8,0.0582237,0.0579401,4.74894,17,0.00219076,10,0.000275154,-2.3234,0.272562,0.216464,40.1478,0.05794007,
2,1,0,1,0,32697.9,0.0597273,0.0593716,4.81394,17,0.00228083,10,0.000285811,-2.3175,0.262002,0.225189,42.2633,0.05937162,
2,1,0,1,0,32697.9,0.0612308,0.0609119,4.86451,17,0.00237208,10,0.000296307,-2.31296,0.281506,0.209587,39.7881,0.0609119,
2,1,0,1,0,32697.9,0.0627183,0.0623813,4.92299,17,0.00246345,10,0.000307103,-2.30777,0.304998,0.193444,37.1806,0.0623813,
2,1,0,1,0,32697.9,0.0642219,0.0639025,4.97591,17,0.00255676,10,0.000317973,-2.30313,0.298013,0.197978,38.5343,0.0639025,
2,1,0,1,0,32697.9,0.0657254,0.0653923,5.03364,17,0.00265115,10,0.000329162,-2.29812,0.294955,0.20003,39.3222,0.0653923,
2,1,0,1,0,32697.9,0.0672147,0.0668862,5.0906,17,0.00274569,10,0.000340491,-2.29323,0.315425,0.187049,37.1574,0.0668862,
2,1,0,1,0,32698,0.0687182,0.0683883,5.14756,17,0.00284226,10,0.000352033,-2.2884,0.379927,0.155293,31.1905,0.0683883,
2,1,0,1,0,32698,0.0702146,0.0698604,5.19675,17,0.00293927,10,0.000363047,-2.28427,0.363661,0.162239,32.9231,0.0698604,
2,1,0,1,0,32698,0.071711,0.0714038,5.2544,17,0.00303722,10,0.000375184,-2.27948,0.379738,0.15537,31.8268,0.0714038,
2,1,0,1,0,32698,0.0732146,0.0729113,5.30487,17,0.00313668,10,0.000386785,-2.27533,0.394569,0.14953,30.9582,0.0729113,
2,1,0,1,0,32698,0.0747038,0.0743807,5.35716,17,0.003236,10,0.000398469,-2.27107,0.402422,0.146612,30.6083,0.0743807,
2,1,0,1,0,32698.1,0.0762074,0.0758505,5.40075,17,0.0033373,10,0.00040965,-2.26755,0.42654,0.138322,29.1421,0.0758505,
2,1,0,1,0,32698.1,0.0777109,0.0774023,5.45417,17,0.00343945,10,0.000422166,-2.26327,0.385017,0.15324,32.5722,0.0774023,
2,1,0,1,0,32698.1,0.0791984,0.0788905,5.49501,17,0.00354139,10,0.000433504,-2.26003,0.370501,0.159244,34.1267,0.0788905,
2,1,0,1,0,32698.1,0.0807019,0.0803646,5.53995,17,0.00364532,10,0.000445216,-2.25649,0.418196,0.141082,30.4593,0.0803646,
2,1,0,1,0,32698.1,0.0822055,0.0818977,5.5775,17,0.00375011,10,0.000456785,-2.25356,0.420323,0.140368,30.5431,0.0818977,
2,1,0,1,0,32698.2,0.0836947,0.0833521,5.61494,17,0.00385444,10,0.000468017,-2.25065,0.468333,0.125979,27.6404,0.0833521,
2,1,0,1,0,32698.2,0.0851983,0.0848174,5.65916,17,0.00396071,10,0.000479995,-2.24725,0.448113,0.131663,29.0769,0.08481741,
2,1,0,1,0,32698.2,0.0866947,0.0863574,5.69517,17,0.00406717,10,0.00049182,-2.24449,0.479028,0.123166,27.3927,0.0863574,
2,1,0,1,0,32698.2,0.0881911,0.0878639,5.73786,17,0.00417438,10,0.000504151,-2.24125,0.47254,0.124857,27.9804,0.0878639,
2,1,0,1,0,32698.2,0.0896946,0.0893411,5.77537,17,0.00428288,10,0.000515978,-2.23842,0.493889,0.11946,26.9534,0.0893411,
2,1,0,1,0,32698.2,0.0911839,0.0908773,5.81933,17,0.00439101,10,0.000528845,-2.23513,0.434682,0.135731,30.8486,0.09087728,
2,1,0,1,0,32698.3,0.0926857,0.0923313,5.86582,17,0.00450116,10,0.000541599,-2.23167,0.439158,0.134348,30.7809,0.0923313,
2,1,0,1,0,32698.3,0.0941892,0.0938801,5.91133,17,0.00461218,10,0.000554957,-2.22831,0.447405,0.131872,30.4492,0.0938801,
2,1,0,1,0,32698.3,0.0956785,0.0953004,5.95851,17,0.00472288,10,0.000567848,-2.22486,0.431722,0.136662,31.8483,0.0953004,
2,1,0,1,0,32698.3,0.097182,0.0968966,6.01981,17,0.00483571,10,0.000583299,-2.22042,0.363856,0.162152,38.1141,0.0968966,
2,1,0,1,0,32698.3,0.0986856,0.0983653,6.08422,17,0.00494971,10,0.000598476,-2.2158,0.344699,0.171164,40.6512,0.0983653,
2,1,0,1,0,32698.4,0.100175,0.099849,6.14931,17,0.00506365,10,0.000614002,-2.21117,0.333154,0.177095,42.5012,0.099849,
2,1,0,1,0,32698.4,0.101678,0.101335,6.21587,17,0.00518006,10,0.000629886,-2.2065,0.305974,0.192827,46.7845,0.101335,
2,1,0,1,0,32698.4,0.103175,0.102852,6.293,17,0.00529717,10,0.000647249,-2.20114,0.276108,0.213684,52.4979,0.102852,
2,1,0,1,0,32698.4,0.104671,0.104386,6.37822,17,0.00541572,10,0.000665796,-2.1953,0.258091,0.228601,56.8168,0.104386,
2,1,0,1,0,32698.4,0.106175,0.105867,6.46154,17,0.00553656,10,0.000684061,-2.18966,0.24808,0.237826,59.9096,0.105867,
2,1,0,1,0,32698.5,0.107662,0.10732,6.53955,17,0.00565767,10,0.000701822,-2.18445,0.228886,0.25777,65.9004,0.10732,
2,1,0,1,0,32698.5,0.109166,0.108835,6.63796,17,0.00578177,10,0.000722443,-2.17797,0.223455,0.264035,68.5054,0.108835,
2,1,0,1,0,32698.5,0.110669,0.110345,6.73811,17,0.00590786,10,0.000743515,-2.17146,0.219351,0.268975,70.7844,0.110345,
2,1,0,1,0,32698.5,0.112159,0.11183,6.83927,17,0.00603453,10,0.000764838,-2.16499,0.236152,0.249839,66.7398,0.11183,
2,1,0,1,0,32698.5,0.113662,0.113325,6.94736,17,0.00616448,10,0.00078731,-2.15818,0.239798,0.246041,66.7228,0.113325,
2,1,0,1,0,32698.5,0.115166,0.114858,7.04475,17,0.00629627,10,0.000809147,-2.15213,0.252556,0.233612,64.2806,0.114858,
2,1,0,1,0,32698.6,0.116655,0.116369,7.15408,17,0.00642861,10,0.000832512,-2.14545,0.249522,0.236452,65.974,0.116369,
2,1,0,1,0,32698.6,0.118158,0.117821,7.25052,17,0.0065643,10,0.000854267,-2.13963,0.261905,0.225273,63.7482,0.117821,
2,1,0,1,0,32698.6,0.119655,0.119324,7.35185,17,0.00670114,10,0.000877248,-2.1336,0.292648,0.201608,57.8067,0.119324,
2,1,0,1,0,32698.6,0.121151,0.120808,7.43259,17,0.0068396,10,0.000897918,-2.12886,0.308732,0.191104,55.4706,0.120808,
2,1,0,1,0,32698.6,0.122655,0.122392,7.53005,17,0.00698048,10,0.000921619,-2.1232,0.313061,0.188462,55.2912,0.122392,
2,1,0,1,0,32698.7,0.124142,0.123842,7.62044,17,0.00712148,10,0.000943731,-2.11802,0.330814,0.178348,52.9177,0.123842,
2,1,0,1,0,32698.7,0.125646,0.125301,7.68881,17,0.00726544,10,0.000963412,-2.11414,0.361922,0.163019,48.8311,0.125301,
2,1,0,1,0,32698.7,0.127149,0.126859,7.74911,17,0.0074108,10,0.000983044,-2.11075,0.379914,0.155298,46.9514,0.126859,
2,1,0,1,0,32698.7,0.128639,0.128274,7.8149,17,0.00755574,10,0.00100245,-2.10708,0.4288,0.137593,41.9494,0.128274,
2,1,0,1,0,32698.7,0.130142,0.129827,7.87961,17,0.00770346,10,0.00102299,-2.1035,0.423639,0.139269,42.7773,0.129827,
2,1,0,1,0,32698.7,0.131646,0.131356,7.92502,17,0.00785229,10,0.001041,-2.101,0.514753,0.114618,35.4424,0.131356,
2,1,0,1,0,32698.8,0.133135,0.132786,7.97455,17,0.00800049,10,0.0010589,-2.09829,0.590745,0.099874,31.0896,0.132786,
2,1,0,1,0,32698.8,0.134639,0.134303,8.01735,17,0.00815108,10,0.00107675,-2.09597,0.651471,0.0905642,28.3552,0.134303,
2,1,0,1,0,32698.8,0.136135,0.135796,8.05995,17,0.00830174,10,0.0010945,-2.09367,0.649338,0.0908618,28.5779,0.135796,
2,1,0,1,0,32698.8,0.137631,0.137344,8.10424,17,0.00845315,10,0.00111307,-2.09129,0.837406,0.0704557,22.265,0.137344,
2,1,0,1,0,32698.8,0.139135,0.138843,8.13248,17,0.00860604,10,0.00112914,-2.08978,1.14957,0.0513235,16.2757,0.138843,
2,1,0,1,0,32698.9,0.140622,0.140298,8.14827,17,0.00875772,10,0.00114318,-2.08893,1.82795,0.0322765,10.2612,0.140298,
2,1,0,1,0,32698.9,0.142126,0.141811,8.1666,17,0.00891137,10,0.00115811,-2.08796,4.61069,0.0127964,4.07326,0.141811,
2,1,0,1,0,32698.9,0.143629,0.143325,8.17534,17,0.00906525,10,0.00117173,-2.08749,-4.23753,-0.0139232,-4.43346,0.143325,
2,1,0,1,0,32698.9,0.145119,0.144819,8.16131,17,0.00921739,10,0.00118191,-2.08824,-0.983859,-0.0599679,-19.0552,0.144819,
2,1,0,1,0,32698.9,0.146622,0.146345,8.11969,17,0.00937063,10,0.00118828,-2.09046,-0.574843,-0.102637,-32.4478,0.146345,
2,1,0,1,0,32699,0.148126,0.147843,8.06772,17,0.00952297,10,0.00119275,-2.09325,-0.395741,-0.149087,-46.7754,0.147843,
2,1,0,1,0,32699,0.149615,0.149271,7.98535,17,0.00967237,10,0.00119198,-2.09771,-0.276755,-0.213185,-66.1582,0.149271,
2,1,0,1,0,32699,0.151119,0.150782,7.87282,17,0.0098216,10,0.00118708,-2.10387,-0.215734,-0.273486,-83.643,0.150782,
2,1,0,1,0,32699,0.152615,0.152313,7.72949,17,0.00996765,10,0.0011773,-2.11185,-0.174991,-0.33716,-101.298,0.152313,
2,1,0,1,0,32699,0.154111,0.153769,7.55721,17,0.0101108,10,0.00116206,-2.12164,-0.146531,-0.402644,-118.394,0.153769,
2,1,0,1,0,32699,0.155615,0.155288,7.36138,17,0.0102512,10,0.00114313,-2.13304,-0.126842,-0.465144,-133.195,0.155288,
2,1,0,1,0,32699.1,0.157103,0.156818,7.14297,17,0.0103864,10,0.00112015,-2.14612,-0.110192,-0.535429,-148.8,0.156818,
2,1,0,1,0,32699.1,0.158606,0.158329,6.90317,17,0.0105188,10,0.00109298,-2.16095,-0.0963274,-0.612494,-164.755,0.158329,
2,1,0,1,0,32699.1,0.16011,0.1598,6.65045,17,0.0106464,10,0.00106274,-2.17715,-0.091571,-0.644309,-167.107,0.1598,
2,1,0,1,0,32699.1,0.161599,0.161259,6.39949,17,0.0107681,10,0.00103197,-2.19385,-0.0885206,-0.666512,-166.346,0.161259,
2,1,0,1,0,32699.1,0.163102,0.162839,6.1443,17,0.0108863,10,0.00100053,-2.21153,-0.0844083,-0.698983,-167.735,0.162839,
2,1,0,1,0,32699.2,0.164606,0.164257,5.89632,17,0.0109998,10,0.000968512,-2.22942,-0.0830007,-0.710838,-163.852,0.164257,
2,1,0,1,0,32699.2,0.166095,0.165797,5.6674,17,0.0111075,10,0.00093964,-2.24662,-0.0845552,-0.697769,-154.621,0.1657974,
2,1,0,1,0,32699.2,0.167599,0.167281,5.45193,17,0.0112122,10,0.000912006,-2.26345,-0.0907321,-0.650266,-138.586,0.167281,
2,1,0,1,0,32699.2,0.169095,0.168767,5.25195,17,0.0113124,10,0.000886353,-2.27968,-0.0934052,-0.631656,-129.641,0.168767,
2,1,0,1,0,32699.2,0.170592,0.170265,5.07,17,0.011409,10,0.000863245,-2.29499,-0.0975936,-0.604548,-119.771,0.1702652,
2,1,0,1,0,32699.3,0.172095,0.171794,4.89223,17,0.0115028,10,0.000840458,-2.31049,-0.102121,-0.577747,-110.613,0.171794,
2,1,0,1,0,32699.3,0.173583,0.173238,4.74452,17,0.0115925,10,0.000821931,-2.32381,-0.115912,-0.509007,-94.3506,0.173238,
2,1,0,1,0,32699.3,0.175086,0.17477,4.60801,17,0.0116806,10,0.000805341,-2.33649,-0.125601,-0.46974,-84.5328,0.17477,
2,1,0,1,0,32699.3,0.17659,0.176291,4.48032,17,0.0117661,10,0.000789843,-2.34869,-0.13108,-0.450107,-78.735,0.176291,
2,1,0,1,0,32699.3,0.178079,0.177772,4.36303,17,0.0118486,10,0.000775625,-2.36021,-0.144867,-0.407271,-69.559,0.177772,
2,1,0,1,0,32699.3,0.179582,0.179266,4.25922,17,0.0119299,10,0.000763531,-2.37067,-0.153078,-0.385425,-64.3136,0.179266,
2,1,0,1,0,32699.4,0.181086,0.180778,4.16802,17,0.0120094,10,0.000753486,-2.38007,-0.172516,-0.341997,-55.8202,0.180778,
2,1,0,1,0,32699.4,0.182575,0.182284,4.09633,17,0.0120865,10,0.000746695,-2.3876,-0.181632,-0.324833,-51.9345,0.182284,
2,1,0,1,0,32699.4,0.184079,0.183777,4.01483,17,0.012163,10,0.000737834,-2.39633,-0.187486,-0.314691,-49.3888,0.1837773,
2,1,0,1,0,32699.4,0.185582,0.185266,3.93848,17,0.0122381,10,0.000729666,-2.40467,-0.207458,-0.284395,-43.8965,0.185266,
2,1,0,1,0,32699.4,0.18707,0.186816,3.88466,17,0.0123111,10,0.000725719,-2.41065,-0.219702,-0.268546,-40.7596,0.186816,
2,1,0,1,0,32699.5,0.188573,0.188296,3.83191,17,0.0123839,10,0.000721533,-2.41658,-0.243469,-0.24233,-36.2303,0.1882959,
2,1,0,1,0,32699.5,0.19007,0.189732,3.77934,17,0.0124552,10,0.000717061,-2.42258,-0.246832,-0.239029,-35.2446,0.189732,
2,1,0,1,0,32699.5,0.191566,0.191273,3.73087,17,0.0125256,10,0.000713615,-2.42819,-0.258732,-0.228035,-33.218,0.191273,
2,1,0,1,0,32699.5,0.19307,0.19274,3.68292,17,0.0125955,10,0.000709847,-2.43381,-0.307932,-0.191601,-27.5825,0.19274,
2,1,0,1,0,32699.5,0.194559,0.194255,3.65355,17,0.0126639,10,0.000709719,-2.43728,-0.337569,-0.174779,-24.9177,0.194255,
2,1,0,1,0,32699.6,0.196063,0.195741,3.6165,17,0.0127324,10,0.000707898,-2.44171,-0.328433,-0.179641,-25.3253,0.1957413,
2,1,0,1,0,32699.6,0.197566,0.197223,3.57504,17,0.0128001,10,0.000705082,-2.44672,-0.361501,-0.163208,-22.7981,0.197223,
2,1,0,1,0,32699.6,0.199055,0.198781,3.54776,17,0.0128665,10,0.000705227,-2.45005,-0.425167,-0.138769,-19.1943,0.198781,
2,1,0,1,0,32699.6,0.200559,0.200279,3.52218,17,0.0129331,10,0.000705417,-2.45319,-0.472182,-0.124952,-17.1454,0.200279,
2,1,0,1,0,32699.6,0.202062,0.201705,3.4862,17,0.0129992,10,0.000703182,-2.45765,-0.510312,-0.115616,-15.729,0.201705,
2,1,0,1,0,32699.6,0.20355,0.203247,3.46217,17,0.013064,10,0.000703676,-2.46065,-0.542408,-0.108774,-14.7173,0.203247,
2,1,0,1,0,32699.7,0.205053,0.204681,3.43185,17,0.0131291,10,0.000702437,-2.46447,-0.735237,-0.0802462,-10.804,0.204681,
2,1,0,1,0,32699.7,0.20655,0.20624,3.41074,17,0.0131934,10,0.000703431,-2.46715,-0.737195,-0.0800331,-10.6799,0.20624,
2,1,0,1,0,32699.7,0.208046,0.207728,3.40246,17,0.0132576,10,0.000706786,-2.46821,-0.616203,-0.0957476,-12.702,0.207728,
2,1,0,1,0,32699.7,0.20955,0.209256,3.37893,17,0.0133216,10,0.00070706,-2.47122,-0.525933,-0.112181,-14.8164,0.2092558,
2,1,0,1,0,32699.7,0.211039,0.210749,3.36193,17,0.0133846,10,0.000708521,-2.47341,-0.532841,-0.110727,-14.5442,0.2107487,
2,1,0,1,0,32699.8,0.212543,0.212241,3.34508,17,0.0134479,10,0.000709964,-2.47559,-0.602496,-0.097926,-12.7923,0.212241,
2,1,0,1,0,32699.8,0.214046,0.213733,3.33234,17,0.0135109,10,0.000712231,-2.47725,-0.632001,-0.0933542,-12.1433,0.213733,
2,1,0,1,0,32699.8,0.215535,0.215243,3.32196,17,0.0135729,10,0.00071503,-2.47861,-0.633361,-0.0931538,-12.0655,0.215243,
2,1,0,1,0,32699.8,0.217039,0.21672,3.30252,17,0.0136354,10,0.000715722,-2.48115,-0.659543,-0.0894559,-11.5332,0.21672,
2,1,0,1,0,32699.8,0.218543,0.218224,3.29059,17,0.0136975,10,0.000718087,-2.48273,-1.04303,-0.056566,-7.26566,0.218224,
2,1,0,1,0,32699.9,0.22003,0.219736,3.28535,17,0.0137588,10,0.000721908,-2.48342,-1.12992,-0.052216,-6.68721,0.219736,
2,1,0,1,0,32699.9,0.221534,0.221256,3.27046,17,0.0138206,10,0.000723608,-2.48539,-0.977377,-0.0603656,-7.68687,0.2212556,
2,1,0,1,0,32699.9,0.22303,0.222702,3.25372,17,0.0138818,10,0.000724612,-2.48762,-1.14908,-0.0513456,-6.52037,0.222702,
2,1,0,1,0,32699.9,0.224526,0.224225,3.24519,17,0.0139427,10,0.000727653,-2.48876,-1.49055,-0.0395827,-5.00976,0.224225,
2,1,0,1,0,32699.9,0.22603,0.225711,3.22989,17,0.0140038,10,0.00072902,-2.49081,-3.01849,-0.0195462,-2.46739,0.225711,
2,1,0,1,0,32699.9,0.227519,0.227213,3.22547,17,0.0140641,10,0.000732869,-2.49141,-1.246,-0.0473516,-5.95285,0.227213,
2,1,0,1,0,32700,0.229023,0.228756,3.20836,17,0.0141249,10,0.000733932,-2.49372,-1.32311,-0.044592,-5.59508,0.228756,
2,1,0,1,0,32700,0.230526,0.230239,3.19848,17,0.0141854,10,0.000736413,-2.49506,-1.4979,-0.0393884,-4.92953,0.230239,
2,1,0,1,0,32700,0.232016,0.231677,3.19377,17,0.0142451,10,0.000739921,-2.4957,-1.57499,-0.0374604,-4.67411,0.231677,
2,1,0,1,0,32700,0.233519,0.233245,3.18783,17,0.0143055,10,0.000743545,-2.49651,-1.07575,-0.0548453,-6.82633,0.233245,
2,1,0,1,0,32700,0.235023,0.234704,3.18121,17,0.0143656,10,0.000746641,-2.49741,-1.07101,-0.055088,-6.84104,0.234704,
2,1,0,1,0,32700.1,0.23651,0.236192,3.17059,17,0.0144249,10,0.00074887,-2.49886,-1.25414,-0.0470442,-5.82946,0.236192,
2,1,0,1,0,32700.1,0.238014,0.237737,3.16557,17,0.0144847,10,0.000752573,-2.49955,-1.6486,-0.0357879,-4.42319,0.237737,
2,1,0,1,0,32700.1,0.23951,0.239184,3.15996,17,0.0145441,10,0.000755811,-2.50032,-1.05504,-0.055922,-6.89947,0.239184,
2,1,0,1,0,32700.1,0.241006,0.240681,3.15875,17,0.0146034,10,0.000760252,-2.50049,-1.06158,-0.0555774,-6.84174,0.240681,
2,1,0,1,0,32700.1,0.24251,0.242228,3.14415,17,0.0146628,10,0.0007616,-2.5025,-1.38275,-0.0426687,-5.23836,0.242228,
2,1,0,1,0,32700.2,0.243999,0.243717,3.14484,17,0.0147215,10,0.000766452,-2.5024,-2.42698,-0.02431,-2.97948,0.243717,
2,1,0,1,0,32700.2,0.245503,0.245193,3.14034,17,0.0147807,10,0.00076999,-2.50302,-4.50799,-0.0130879,-1.60109,0.245193,
2,1,0,1,0,32700.2,0.247006,0.246705,3.13508,17,0.0148398,10,0.00077344,-2.50375,-2.19374,-0.0268947,-3.28324,0.246705,
2,1,0,1,0,32700.2,0.248496,0.248148,3.12243,17,0.0148982,10,0.000774822,-2.50551,-2.99255,-0.0197156,-2.40459,0.248148,
2,1,0,1,0,32700.2,0.249999,0.249626,3.11797,17,0.0149571,10,0.000778326,-2.50613,-4.88529,-0.0120771,-1.4689,0.2496255,
2,1,0,1,0,32700.2,0.251503,0.251195,3.10904,17,0.0150159,10,0.000780977,-2.50737,2512.39,2.34836e-05,0.00285276,0.2511954,
2,1,0,1,0,32700.3,0.25299,0.252703,3.10228,17,0.0150739,10,0.000783956,-2.50832,-2.31696,-0.0254644,-3.08537,0.252703,
2,1,0,1,0,32700.3,0.254494,0.254184,3.1016,17,0.0151325,10,0.000788377,-2.50841,-2.05714,-0.0286806,-3.47284,0.254184,
2,1,0,1,0,32700.3,0.25599,0.255682,3.0938,17,0.0151907,10,0.000791029,-2.50951,-1.90089,-0.031038,-3.75168,0.255682,
2,1,0,1,0,32700.3,0.257487,0.257191,3.08886,17,0.0152487,10,0.000794429,-2.5102,-1.86065,-0.0317093,-3.82656,0.257191,
2,1,0,1,0,32700.3,0.25899,0.25871,3.08639,17,0.0153071,10,0.000798481,-2.51055,-1.64102,-0.0359533,-4.3279,0.25871,
2,1,0,1,0,32700.4,0.260479,0.260179,3.08235,17,0.0153647,10,0.000801963,-2.51112,-1.17494,-0.0502154,-6.0335,0.260179,
2,1,0,1,0,32700.4,0.261983,0.261699,3.07762,17,0.0154228,10,0.000805411,-2.51179,-1.19055,-0.0495571,-5.94987,0.261699,
2,1,0,1,0,32700.4,0.263486,0.263171,3.06789,17,0.0154807,10,0.00080738,-2.51316,-2.82515,-0.0208838,-2.50121,0.263171,
2,1,0,1,0,32700.4,0.264974,0.264698,3.07404,17,0.015538,10,0.000813694,-2.51229,-1.6426,-0.0359187,-4.30046,0.264698,
2,1,0,1,0,32700.4,0.266477,0.266142,3.06435,17,0.0155959,10,0.000815554,-2.51366,-1.58148,-0.0373067,-4.4522,0.266142,
2,1,0,1,0,32700.5,0.267981,0.267707,3.05099,17,0.0156536,10,0.000816773,-2.51556,-2.71182,-0.0217566,-2.59703,0.267707,
2,1,0,1,0,32700.5,0.26947,0.269142,3.05581,17,0.0157106,10,0.000822448,-2.51487,-5.54062,-0.0106486,-1.26771,0.269142,
2,1,0,1,0,32700.5,0.270974,0.270665,3.05286,17,0.0157682,10,0.000826303,-2.51529,-3.45555,-0.017074,-2.03022,0.270665,
2,1,0,1,0,32700.5,0.27247,0.27215,3.04591,17,0.0158254,10,0.000828946,-2.51628,-3.31816,-0.017781,-2.10984,0.27215,
2,1,0,1,0,32700.5,0.273967,0.273639,3.03192,17,0.0158825,10,0.00082965,-2.51828,-1.66792,-0.0353734,-4.19729,0.273639,
2,1,0,1,0,32700.5,0.27547,0.275131,3.02859,17,0.0159397,10,0.000833261,-2.51876,-3.3446,-0.0176404,-2.08884,0.275131,
2,1,0,1,0,32700.6,0.276959,0.276658,3.02265,17,0.0159963,10,0.000836241,-2.51961,270.628,0.000218011,0.0257499,0.276658,
2,1,0,1,0,32700.6,0.278463,0.278178,3.02251,17,0.0160534,10,0.000840795,-2.51963,-1.75323,-0.0336521,-3.96399,0.278178,
2,1,0,1,0,32700.6,0.279967,0.27967,3.01211,17,0.0161104,10,0.000842396,-2.52113,-1.50447,-0.0392166,-4.62115,0.27967,
2,1,0,1,0,32700.6,0.281454,0.281162,3.00652,17,0.0161667,10,0.000845321,-2.52194,-1.57446,-0.0374731,-4.41135,0.2811625,
2,1,0,1,0,32700.6,0.282958,0.282618,3.00572,17,0.0162235,10,0.00084947,-2.52205,-1.55486,-0.0379456,-4.45261,0.282618,
2,1,0,1,0,32700.7,0.284461,0.284134,2.99906,17,0.0162802,10,0.000852133,-2.52302,-1.50458,-0.0392135,-4.59095,0.284134,
2,1,0,1,0,32700.7,0.28595,0.285618,2.99909,17,0.0163363,10,0.000856592,-2.52301,-1.20245,-0.0490665,-5.74043,0.285618,
2,1,0,1,0,32700.7,0.287454,0.28714,2.9939,17,0.0163927,10,0.000859666,-2.52376,-1.15219,-0.0512068,-5.98103,0.28714,
2,1,0,1,0,32700.7,0.28895,0.288624,2.9898,17,0.0164489,10,0.00086293,-2.52436,-2.31676,-0.0254666,-2.96717,0.288624,
2,1,0,1,0,32700.7,0.290447,0.290117,2.9824,17,0.0165049,10,0.000865245,-2.52543,-1.34998,-0.0437044,-5.08895,0.290117,
2,1,0,1,0,32700.8,0.29195,0.291609,2.9788,17,0.0165611,10,0.000868644,-2.52596,-1.55868,-0.0378526,-4.39469,0.291609,
2,1,0,1,0,32700.8,0.29344,0.293125,2.97046,17,0.0166167,10,0.000870719,-2.52718,-2.28039,-0.0258728,-2.99843,0.293125,
2,1,0,1,0,32700.8,0.294943,0.294637,2.96388,17,0.0166727,10,0.00087327,-2.52814,-13.5458,-0.00435558,-0.504037,0.294637,
2,1,0,1,0,32700.8,0.296447,0.296143,2.97124,17,0.0167286,10,0.000879912,-2.52706,-2.40771,-0.0245047,-2.83357,0.296143,
2,1,0,1,0,32700.8,0.297934,0.297642,2.9564,17,0.0167839,10,0.000879948,-2.52924,-5.16438,-0.0114244,-1.31641,0.297642,
2,1,0,1,0,32700.8,0.299438,0.299158,2.94414,17,0.0168397,10,0.000880765,-2.53104,-0.0263263,-2.2411,-234.266,0.299158,
2,1,0,1,0,32700.9,0.300012,0.299632,2.96374,17,0.0168604,10,0.00088803,-2.52816,0.00140134,42.1027,2859.73,0.299632,
2,1,0,1,0,32700.9,0.298737,0.298426,1.27918,17,0.0168912,10,0.000381739,-2.89307,0.00256811,22.9741,862.819,0.298426,
2,1,0,1,0,32700.9,0.29724,0.296924,0.366746,17,0.0169055,10,0.000108896,-3.43563,0.00519611,11.3547,501.342,0.296924,
2,0,0,1,0,32700.9,0.295744,0.295433,-0.167501,17,0.0169068,10,-4.94853e-05,-3.77598,0.210237,0.280636,294.586,0.295433,
2,0,0,1,0,32700.9,0.29424,0.29393,-0.496704,17,0.0169001,10,-0.000145996,-3.3039,-0.00270901,-21.7792,187.248,0.2939302,
2,0,0,1,0,32700.9,0.292751,0.292434,-0.723688,17,0.0168885,10,-0.000211631,-3.14045,-0.0111008,-5.31492,131.207,0.292434,
2,0,0,1,0,32701,0.291248,0.290911,-0.893026,17,0.0168731,10,-0.000259791,-3.04914,-0.0193642,-3.04685,98.8776,0.290911,
2,0,0,1,0,32701,0.289744,0.289408,-1.01173,17,0.016855,10,-0.000292801,-2.99494,-0.0296367,-1.99077,76.2763,0.289408,
2,0,0,1,0,32701,0.288257,0.287926,-1.11246,17,0.016835,10,-0.000320305,-2.95372,-0.0400047,-1.47483,62.5962,0.2879259,
2,0,0,1,0,32701,0.286753,0.286437,-1.19077,17,0.0168132,10,-0.000341081,-2.92417,-0.0510684,-1.15531,53.2008,0.286437,
2,0,0,1,0,32701,0.285249,0.284904,-1.25697,17,0.0167899,10,-0.000358115,-2.90068,-0.062336,-0.946483,46.4057,0.284904,
2,0,0,1,0,32701.1,0.28376,0.283427,-1.32167,17,0.0167657,10,-0.000374598,-2.87888,-0.078404,-0.752513,38.4926,0.283427,
2,0,0,1,0,32701.1,0.282257,0.28195,-1.37335,17,0.01674,10,-0.000387216,-2.86222,-0.0938689,-0.628536,33.5255,0.28195,
2,0,0,1,0,32701.1,0.28076,0.280468,-1.42161,17,0.0167136,10,-0.000398716,-2.84722,-0.106335,-0.554849,30.8063,0.280468,
2,0,0,1,0,32701.1,0.279264,0.278959,-1.46183,17,0.0166864,10,-0.000407789,-2.8351,-0.123738,-0.476815,27.2947,0.278959,
2,0,0,1,0,32701.1,0.27776,0.277474,-1.50801,17,0.0166582,10,-0.000418433,-2.8216,-0.138483,-0.426044,24.9657,0.277474,
2,0,0,1,0,32701.2,0.276271,0.27597,-1.54148,17,0.0166296,10,-0.000425403,-2.81206,-0.158971,-0.371137,22.3927,0.27597,
2,0,0,1,0,32701.2,0.274767,0.274461,-1.58123,17,0.0166,10,-0.000433987,-2.801,-0.17768,-0.332057,20.4534,0.274461,
2,0,0,1,0,32701.2,0.273264,0.272946,-1.61418,17,0.0165698,10,-0.000440584,-2.79205,-0.192878,-0.305892,19.2547,0.272946,
2,0,0,1,0,32701.2,0.271776,0.271452,-1.64662,17,0.0165393,10,-0.000446978,-2.78341,-0.170495,-0.346051,22.2121,0.2714515,
2,0,0,1,0,32701.2,0.270273,0.269931,-1.68157,17,0.0165078,10,-0.000453909,-2.77428,-0.199959,-0.295061,19.3047,0.269931,
2,0,0,1,0,32701.2,0.268769,0.268426,-1.71358,17,0.0164758,10,-0.000459969,-2.7661,-0.221273,-0.266639,17.7334,0.268426,
2,0,0,1,0,32701.3,0.26728,0.266957,-1.73162,17,0.0164436,10,-0.000462267,-2.76155,-0.222438,-0.265243,17.9345,0.2669571,
2,0,0,1,0,32701.3,0.265777,0.265463,-1.76279,17,0.0164106,10,-0.000467957,-2.7538,-0.221459,-0.266415,18.2953,0.2654632,
2,0,0,1,0,32701.3,0.26428,0.263984,-1.78553,17,0.0163773,10,-0.00047135,-2.74823,-0.21133,-0.279184,19.4329,0.263984,
2,0,0,1,0,32701.3,0.262784,0.262465,-1.81101,17,0.0163434,10,-0.000475326,-2.74208,-0.256664,-0.229873,16.2042,0.262465,
2,0,0,1,0,32701.3,0.26128,0.260975,-1.82791,17,0.016309,10,-0.00047704,-2.73804,-0.258532,-0.228212,16.3388,0.260975,
2,0,0,1,0,32701.4,0.259791,0.259471,-1.85468,17,0.0162745,10,-0.000481235,-2.73173,-0.2577,-0.228948,16.6052,0.259471,
2,0,0,1,0,32701.4,0.258287,0.257955,-1.87495,17,0.0162392,10,-0.000483652,-2.72701,-0.251971,-0.234154,17.1718,0.257955,
2,0,0,1,0,32701.4,0.256786,0.256488,-1.90105,17,0.0162035,10,-0.000487595,-2.72101,-0.294392,-0.200413,14.8393,0.256488,
2,0,0,1,0,32701.4,0.255296,0.254932,-1.91895,17,0.0161677,10,-0.000489201,-2.71694,-0.359767,-0.163995,12.2838,0.254932,
2,0,0,1,0,32701.4,0.253793,0.25351,-1.93541,17,0.0161312,10,-0.000490648,-2.71323,-0.39059,-0.151054,11.4453,0.25351,
2,0,0,1,0,32701.5,0.252289,0.251947,-1.9556,17,0.0160943,10,-0.000492707,-2.70872,-0.354733,-0.166322,12.7096,0.251947,
2,0,0,1,0,32701.5,0.2508,0.250442,-1.98132,17,0.0160575,10,-0.000496204,-2.70305,-0.44268,-0.133279,10.3128,0.250442,
2,0,0,1,0,32701.5,0.249296,0.248982,-2.0007,17,0.0160198,10,-0.000498137,-2.69882,-0.479563,-0.123029,9.59492,0.248982,
2,0,0,1,0,32701.5,0.2478,0.247435,-2.01671,17,0.0159821,10,-0.000499004,-2.69536,-0.419362,-0.14069,11.0883,0.247435,
2,0,0,1,0,32701.5,0.246304,0.245981,-2.04051,17,0.015944,10,-0.000501927,-2.69026,-0.356065,-0.1657,13.1688,0.245981,
2,0,0,1,0,32701.5,0.2448,0.244474,-2.0643,17,0.0159053,10,-0.000504667,-2.68523,-0.375672,-0.157052,12.5962,0.244474,
2,0,0,1,0,32701.6,0.243313,0.242999,-2.07616,17,0.0158667,10,-0.000504505,-2.68274,-0.39329,-0.150016,12.1361,0.242999,
2,0,0,1,0,32701.6,0.241809,0.241505,-2.08652,17,0.0158273,10,-0.000503905,-2.68058,-0.360288,-0.163758,13.3707,0.241505,
2,0,0,1,0,32701.6,0.240306,0.239956,-2.11078,17,0.0157877,10,-0.000506494,-2.67556,-0.384635,-0.153392,12.6374,0.239956,
2,0,0,1,0,32701.6,0.238816,0.238476,-2.12811,17,0.0157481,10,-0.000507502,-2.67201,-0.368513,-0.160103,13.2799,0.238476,
2,0,0,1,0,32701.6,0.237313,0.236953,-2.13847,17,0.0157077,10,-0.000506718,-2.6699,-0.422188,-0.139748,11.6783,0.236953,
2,0,0,1,0,32701.7,0.235809,0.235484,-2.15367,17,0.0156671,10,-0.000507156,-2.66682,-0.438736,-0.134477,11.3461,0.235484,
2,0,0,1,0,32701.7,0.23432,0.233981,-2.16879,17,0.0156266,10,-0.000507455,-2.66378,-0.416413,-0.141686,12.0383,0.233981,
2,0,0,1,0,32701.7,0.232816,0.232492,-2.18622,17,0.0155854,10,-0.000508278,-2.66031,-0.441732,-0.133565,11.4388,0.232492,
2,0,0,1,0,32701.7,0.23132,0.231018,-2.20682,17,0.015544,10,-0.000509816,-2.65623,-0.474382,-0.124372,10.7186,0.2310182,
2,0,0,1,0,32701.7,0.229824,0.229482,-2.22631,17,0.0155023,10,-0.000510897,-2.65241,-0.619535,-0.0952327,8.27639,0.229482,
2,0,0,1,0,32701.8,0.22832,0.228014,-2.23806,17,0.0154602,10,-0.00051031,-2.65013,-0.546002,-0.108058,9.44251,0.228014,
2,0,0,1,0,32701.8,0.226833,0.226479,-2.25444,17,0.0154182,10,-0.000510584,-2.64696,-0.489063,-0.120639,10.6255,0.226479,
2,0,0,1,0,32701.8,0.225329,0.224983,-2.273,17,0.0153754,10,-0.000511388,-2.6434,-0.561099,-0.105151,9.31772,0.224983,
2,0,0,1,0,32701.8,0.223825,0.223505,-2.29121,17,0.0153323,10,-0.000512097,-2.63993,-0.652995,-0.0903529,8.0743,0.223505,
2,0,0,1,0,32701.8,0.222336,0.222004,-2.30428,17,0.0152895,10,-0.000511558,-2.63747,-0.62612,-0.0942311,8.48628,0.222004,
2,0,0,1,0,32701.8,0.220833,0.220486,-2.32307,17,0.0152458,10,-0.000512203,-2.63394,-0.450559,-0.130948,11.8417,0.220486,
2,0,0,1,0,32701.9,0.219329,0.219001,-2.34496,17,0.0152018,10,-0.000513548,-2.62987,-0.441861,-0.133526,12.1686,0.219001,
2,0,0,1,0,32701.9,0.21784,0.217549,-2.3597,17,0.015158,10,-0.000513352,-2.62714,-0.534511,-0.110381,10.126,0.217549,
2,0,0,1,0,32701.9,0.216336,0.216022,-2.36597,17,0.0151135,10,-0.000511103,-2.62599,-0.637121,-0.0926041,8.54373,0.216022,
2,0,0,1,0,32701.9,0.21484,0.214534,-2.37917,17,0.0150689,10,-0.000510414,-2.62357,-0.515524,-0.114447,10.6408,0.214534,
2,0,0,1,0,32701.9,0.213343,0.213025,-2.39659,17,0.0150241,10,-0.000510534,-2.62041,-0.520727,-0.113303,10.5999,0.213025,
2,0,0,1,0,32702,0.21184,0.211569,-2.41339,17,0.0149787,10,-0.000510599,-2.61737,-0.495368,-0.119103,11.1929,0.211569,
2,0,0,1,0,32702,0.210352,0.210012,-2.42647,17,0.0149334,10,-0.000509587,-2.61503,-0.455753,-0.129456,12.2663,0.2100118,
2,0,0,1,0,32702,0.208849,0.208517,-2.43797,17,0.0148875,10,-0.000508359,-2.61297,-0.450566,-0.130946,12.5092,0.208517,
2,0,0,1,0,32702,0.207345,0.207034,-2.45342,17,0.0148412,10,-0.000507941,-2.61023,-0.464439,-0.127035,12.1883,0.2070342,
2,0,0,1,0,32702,0.205856,0.205529,-2.48148,17,0.014795,10,-0.000510016,-2.60529,-0.56826,-0.103826,10.038,0.205529,
2,0,0,1,0,32702.1,0.204353,0.203988,-2.49476,17,0.0147481,10,-0.000508902,-2.60297,-0.831329,-0.0709707,6.91099,0.203988,
2,0,0,1,0,32702.1,0.202849,0.202508,-2.50726,17,0.0147009,10,-0.000507741,-2.6008,-0.69674,-0.0846801,8.29057,0.202508,
2,0,0,1,0,32702.1,0.20136,0.201055,-2.52435,17,0.0146539,10,-0.000507533,-2.59785,-0.60884,-0.0969056,9.55161,0.201055,
2,0,0,1,0,32702.1,0.199856,0.199504,-2.54364,17,0.0146061,10,-0.000507464,-2.59454,-0.569418,-0.103615,10.2969,0.199504,
2,0,0,1,0,32702.1,0.19836,0.198029,-2.56451,17,0.0145581,10,-0.000507849,-2.591,-0.545841,-0.10809,10.8059,0.198029,
2,0,0,1,0,32702.1,0.196863,0.196558,-2.57331,17,0.01451,10,-0.000505804,-2.58951,-0.505338,-0.116754,11.7431,0.196558,
2,0,0,1,0,32702.2,0.19536,0.195019,-2.59597,17,0.0144612,10,-0.000506263,-2.5857,-0.452412,-0.130412,13.2073,0.195019,
2,0,0,1,0,32702.2,0.193872,0.193513,-2.61573,17,0.0144126,10,-0.000506178,-2.58241,-0.427033,-0.138162,14.0809,0.1935132,
2,0,0,1,0,32702.2,0.192369,0.192063,-2.63014,17,0.0143632,10,-0.000505151,-2.58002,-0.452848,-0.130287,13.3651,0.192063,
2,0,0,1,0,32702.2,0.190865,0.1905,-2.64145,17,0.0143134,10,-0.000503197,-2.57816,-0.446995,-0.131992,13.6464,0.1905,
2,0,0,1,0,32702.2,0.189376,0.189086,-2.6605,17,0.0142638,10,-0.000503063,-2.57504,-0.447559,-0.131826,13.7213,0.189086,
2,0,0,1,0,32702.3,0.187872,0.187532,-2.68208,17,0.0142133,10,-0.000502975,-2.57153,-0.420923,-0.140168,14.694,0.187532,
2,0,0,1,0,32702.3,0.186369,0.186053,-2.69911,17,0.0141624,10,-0.000502177,-2.56878,-0.521784,-0.113074,11.9208,0.186053,
2,0,0,1,0,32702.3,0.18488,0.184514,-2.71998,17,0.0141117,10,-0.000501873,-2.56543,-0.504807,-0.116876,12.4398,0.184514,
2,0,0,1,0,32702.3,0.183376,0.183074,-2.74208,17,0.0140602,10,-0.000502006,-2.56192,-0.51834,-0.113825,12.2146,0.183074,
2,0,0,1,0,32702.3,0.18188,0.181546,-2.76612,17,0.0140085,10,-0.000502177,-2.55813,-0.434653,-0.13574,14.6702,0.181546,
2,0,0,1,0,32702.3,0.180383,0.180094,-2.79484,17,0.0139563,10,-0.000503333,-2.55364,-0.448644,-0.131507,14.3025,0.1800938,
2,0,0,1,0,32702.4,0.17888,0.178493,-2.82069,17,0.0139034,10,-0.000503472,-2.54965,-0.44322,-0.133117,14.5963,0.178493,
2,0,0,1,0,32702.4,0.177392,0.177052,-2.83597,17,0.0138507,10,-0.000502114,-2.5473,-0.479507,-0.123043,13.6253,0.1770521,
2,0,0,1,0,32702.4,0.175889,0.175541,-2.86121,17,0.0137969,10,-0.000502259,-2.54345,-0.398612,-0.148014,16.5221,0.175541,
2,0,0,1,0,32702.4,0.174385,0.174032,-2.89043,17,0.0137427,10,-0.000503025,-2.53904,-0.36819,-0.160243,18.0665,0.174032,
2,0,0,1,0,32702.4,0.172896,0.172543,-2.92178,17,0.0136885,10,-0.000504132,-2.53435,-0.375494,-0.157126,17.897,0.172543,
2,0,0,1,0,32702.5,0.171392,0.171048,-2.94508,17,0.0136332,10,-0.00050375,-2.5309,-0.323465,-0.1824,20.9571,0.171048,
2,0,0,1,0,32702.5,0.169889,0.169556,-2.97639,17,0.0135774,10,-0.000504665,-2.52631,-0.304158,-0.193978,22.5739,0.169556,
2,0,0,1,0,32702.5,0.1684,0.168034,-3.01577,17,0.0135215,10,-0.000506752,-2.5206,-0.281111,-0.209881,24.6581,0.168034,
2,0,0,1,0,32702.5,0.166896,0.16658,-3.04956,17,0.0134644,10,-0.000507997,-2.51576,-0.284145,-0.207641,24.6679,0.16658,
2,0,0,1,0,32702.5,0.165392,0.16505,-3.08439,17,0.0134065,10,-0.000509077,-2.51083,-0.271319,-0.217456,26.1827,0.16505,
2,0,0,1,0,32702.6,0.163905,0.163612,-3.11367,17,0.0133487,10,-0.000509434,-2.50673,-0.24791,-0.237989,29.0564,0.163612,
2,0,0,1,0,32702.6,0.162401,0.162052,-3.15798,17,0.0132894,10,-0.000511757,-2.50059,-0.235721,-0.250296,30.9438,0.162052,
2,0,0,1,0,32702.6,0.160905,0.160547,-3.20775,17,0.0132296,10,-0.000514993,-2.4938,-0.240953,-0.244861,30.6822,0.160547,
2,0,0,1,0,32702.6,0.159409,0.15904,-3.2544,17,0.0131688,10,-0.000517579,-2.48753,-0.236334,-0.249647,31.8059,0.1590398,
2,0,0,1,0,32702.6,0.157905,0.15758,-3.31181,17,0.0131069,10,-0.000521874,-2.47993,-0.219913,-0.268288,34.7108,0.15758,
2,0,0,1,0,32702.6,0.156416,0.156097,-3.36989,17,0.0130446,10,-0.00052603,-2.47238,-0.189132,-0.311951,41.0664,0.156097,
2,0,0,1,0,32702.7,0.154912,0.154562,-3.44112,17,0.0129803,10,-0.000531866,-2.4633,-0.182102,-0.323994,43.5392,0.154562,
2,0,0,1,0,32702.7,0.153409,0.153053,-3.5083,17,0.0129149,10,-0.000536955,-2.4549,-0.177918,-0.331614,45.465,0.153053,
2,0,0,1,0,32702.7,0.151919,0.151559,-3.58564,17,0.0128488,10,-0.000543438,-2.44543,-0.159894,-0.368995,51.6644,0.151559,
2,0,0,1,0,32702.7,0.150416,0.150066,-3.66647,17,0.0127805,10,-0.000550213,-2.43575,-0.14204,-0.415375,59.496,0.150066,
2,0,0,1,0,32702.7,0.148912,0.148597,-3.76385,17,0.0127105,10,-0.000559298,-2.42437,-0.128648,-0.458616,67.3786,0.148597,
2,0,0,1,0,32702.8,0.147425,0.147082,-3.86785,17,0.0126394,10,-0.000568893,-2.41253,-0.12456,-0.473666,71.4578,0.147082,
2,0,0,1,0,32702.8,0.145921,0.145597,-3.96926,17,0.0125656,10,-0.000577912,-2.40129,-0.114739,-0.514212,79.8667,0.145597,
2,0,0,1,0,32702.8,0.144425,0.144081,-4.09439,17,0.01249,10,-0.000589926,-2.38781,-0.104972,-0.562053,89.9945,0.144081,
2,0,0,1,0,32702.8,0.142929,0.142623,-4.23228,17,0.012412,10,-0.00060362,-2.37343,-0.0992751,-0.594308,98.3558,0.142623,
2,0,0,1,0,32702.8,0.141425,0.141116,-4.37991,17,0.0123308,10,-0.000618078,-2.35853,-0.0990845,-0.595451,101.88,0.141116,
2,0,0,1,0,32702.9,0.139936,0.139615,-4.54154,17,0.0122476,10,-0.000634069,-2.3428,-0.0943632,-0.625244,110.922,0.139615,
2,0,0,1,0,32702.9,0.138432,0.138117,-4.70236,17,0.0121605,10,-0.000649478,-2.32768,-0.0961267,-0.613774,112.852,0.138117,
2,0,0,1,0,32702.9,0.136929,0.136626,-4.87718,17,0.0120701,10,-0.000666347,-2.31183,-0.0939935,-0.627703,119.736,0.1366255,
2,0,0,1,0,32702.9,0.135439,0.135106,-5.06492,17,0.0119774,10,-0.000684299,-2.29543,-0.0931768,-0.633205,125.308,0.135106,
2,0,0,1,0,32702.9,0.133936,0.133597,-5.26916,17,0.0118801,10,-0.000703944,-2.27826,-0.0937447,-0.629369,129.092,0.133597,
2,0,0,1,0,32702.9,0.132432,0.13213,-5.46479,17,0.011779,10,-0.000722062,-2.26243,-0.095722,-0.616368,131.361,0.13213,
2,0,0,1,0,32703,0.130945,0.130601,-5.67091,17,0.0116754,10,-0.000740627,-2.24635,-0.0987591,-0.597413,131.891,0.130601,
2,0,0,1,0,32703,0.129441,0.129107,-5.86707,17,0.0115668,10,-0.000757479,-2.23158,-0.102038,-0.578213,132.169,0.1291068,
2,0,0,1,0,32703,0.127945,0.127601,-6.06443,17,0.011455,10,-0.000773828,-2.21721,-0.107177,-0.550493,130.042,0.127601,
2,0,0,1,0,32703,0.126448,0.126117,-6.25203,17,0.0113397,10,-0.000788488,-2.20398,-0.117162,-0.503574,122.694,0.126117,
2,0,0,1,0,32703,0.124945,0.124616,-6.44184,17,0.0112202,10,-0.000802758,-2.19099,-0.117635,-0.501552,125.873,0.124616,
2,0,0,1,0,32703.1,0.123456,0.12316,-6.62901,17,0.0110986,10,-0.00081643,-2.17855,-0.126306,-0.46712,120.491,0.12316,
2,0,0,1,0,32703.1,0.121952,0.121635,-6.79765,17,0.0109722,10,-0.000826833,-2.16764,-0.135903,-0.434133,114.918,0.121635,
2,0,0,1,0,32703.1,0.120449,0.120166,-6.95785,17,0.0108427,10,-0.0008361,-2.15752,-0.147187,-0.400852,108.739,0.120166,
2,0,0,1,0,32703.1,0.118959,0.118614,-7.11386,17,0.0107117,10,-0.000843803,-2.14789,-0.157903,-0.373648,103.602,0.118614,
2,0,0,1,0,32703.1,0.117456,0.117131,-7.26177,17,0.0105763,10,-0.000850578,-2.13896,-0.16753,-0.352177,99.6561,0.117131,
2,0,0,1,0,32703.2,0.115952,0.115577,-7.4009,17,0.0104382,10,-0.000855376,-2.13072,-0.188893,-0.312346,90.0621,0.1155773,
2,0,0,1,0,32703.2,0.114465,0.114136,-7.52812,17,0.010299,10,-0.00085923,-2.12331,-0.214092,-0.275583,80.9149,0.1141362,
2,0,0,1,0,32703.2,0.112961,0.112639,-7.64654,17,0.0101561,10,-0.000861295,-2.11653,-0.237245,-0.248688,74.1924,0.112639,
2,0,0,1,0,32703.2,0.111465,0.111151,-7.75603,17,0.0100118,10,-0.000862086,-2.11036,-0.25668,-0.229858,69.512,0.111151,
2,0,0,1,0,32703.2,0.109968,0.109677,-7.86428,17,0.00986552,10,-0.000862532,-2.10434,-0.301852,-0.19546,59.8757,0.109677,
2,0,0,1,0,32703.2,0.108465,0.108154,-7.95325,17,0.00971663,10,-0.000860176,-2.09946,-0.352295,-0.167473,51.8609,0.108154,
2,0,0,1,0,32703.3,0.106976,0.106612,-8.02741,17,0.00956786,10,-0.000855822,-2.09542,-0.402894,-0.14644,45.8094,0.1066124,
2,0,0,1,0,32703.3,0.105472,0.105151,-8.09738,17,0.00941618,10,-0.000851449,-2.09166,-0.442821,-0.133237,42.0257,0.105151,
2,0,0,1,0,32703.3,0.103968,0.103648,-8.15566,17,0.00926331,10,-0.000845322,-2.08854,-0.606097,-0.0973442,30.9154,0.103648,
2,0,0,1,0,32703.3,0.102479,0.102158,-8.1925,17,0.00911114,10,-0.000836929,-2.08658,-0.875493,-0.0673906,21.5004,0.102158,
2,0,0,1,0,32703.3,0.100976,0.100695,-8.21522,17,0.00895676,10,-0.000827228,-2.08538,-1.2402,-0.047573,15.2309,0.100695,
2,0,0,1,0,32703.4,0.0994721,0.0991806,-8.22881,17,0.00880204,10,-0.000816138,-2.08466,-2.1442,-0.0275161,8.82467,0.0991806,
2,0,0,1,0,32703.4,0.0979846,0.0976506,-8.23547,17,0.00864877,10,-0.000804198,-2.08431,-10.6424,-0.00554386,1.77882,0.09765055,
2,0,0,1,0,32703.4,0.0964811,0.096159,-8.22193,17,0.00849387,10,-0.000790613,-2.08503,2.44475,0.0241334,-7.73371,0.096159,
2,0,0,1,0,32703.4,0.0949847,0.0946255,-8.19786,17,0.00834003,10,-0.000775726,-2.0863,1.16933,0.0504564,-16.1343,0.0946255,
2,0,0,1,0,32703.4,0.0934883,0.0931746,-8.16413,17,0.00818678,10,-0.000760689,-2.08809,0.861362,0.0684962,-21.8375,0.0931746,
2,0,0,1,0,32703.5,0.0919847,0.0916684,-8.12523,17,0.00803334,10,-0.000744826,-2.09016,0.702671,0.0839654,-26.6266,0.09166839,
2,0,0,1,0,32703.5,0.0904955,0.0901165,-8.08187,17,0.00788227,10,-0.00072831,-2.09249,0.51017,0.115648,-36.4455,0.0901165,
2,0,0,1,0,32703.5,0.0889919,0.0886441,-8.02727,17,0.00773056,10,-0.00071157,-2.09543,0.45052,0.13096,-41,0.0886441,
2,0,0,1,0,32703.5,0.0874884,0.0871324,-7.96063,17,0.0075801,10,-0.000693629,-2.09905,0.407243,0.144877,-45.0279,0.0871324,
2,0,0,1,0,32703.5,0.0860009,0.085675,-7.8962,17,0.00743237,10,-0.000676506,-2.10258,0.415856,0.141876,-43.7333,0.085675,
2,0,0,1,0,32703.5,0.0844973,0.0842001,-7.83352,17,0.00728429,10,-0.000659584,-2.10604,0.402307,0.146654,-44.8428,0.0842001,
2,0,0,1,0,32703.6,0.0829938,0.0826885,-7.77175,17,0.00713741,10,-0.000642634,-2.10948,0.368952,0.159912,-48.469,0.0826885,
2,0,0,1,0,32703.6,0.0815045,0.0811554,-7.70423,17,0.0069934,10,-0.00062524,-2.11327,0.384937,0.153272,-46.0922,0.0811554,
2,0,0,1,0,32703.6,0.080001,0.0797064,-7.63734,17,0.00684911,10,-0.000608745,-2.11706,0.445959,0.132299,-39.4401,0.0797064,
2,0,0,1,0,32703.6,0.0785046,0.0781387,-7.58373,17,0.00670665,10,-0.000592583,-2.12012,0.466285,0.126532,-37.4279,0.0781387,
2,0,0,1,0,32703.6,0.0770082,0.0766794,-7.52299,17,0.00656531,10,-0.000576859,-2.12361,0.455916,0.12941,-37.9896,0.0766794,
2,0,0,1,0,32703.7,0.0755046,0.0751971,-7.46381,17,0.00642428,10,-0.000561257,-2.12704,0.519101,0.113658,-33.1196,0.0751971,
2,0,0,1,0,32703.7,0.0740154,0.0737072,-7.4131,17,0.00628574,10,-0.000546399,-2.13,0.577212,0.102215,-29.5973,0.0737072,
2,0,0,1,0,32703.7,0.0725118,0.0721492,-7.37481,17,0.0061466,10,-0.000532087,-2.13225,0.616541,0.0956951,-27.5283,0.0721492,
2,0,0,1,0,32703.7,0.0710083,0.0707075,-7.32526,17,0.00600826,10,-0.000517951,-2.13518,0.647717,0.0910891,-26.051,0.0707075,
2,0,0,1,0,32703.7,0.0695208,0.0691753,-7.27977,17,0.00587216,10,-0.000503581,-2.13788,0.658063,0.089657,-25.5031,0.0691753,
2,0,0,1,0,32703.8,0.0680173,0.0676654,-7.24072,17,0.00573541,10,-0.000489946,-2.14022,0.719479,0.0820037,-23.2159,0.0676654,
2,0,0,1,0,32703.8,0.0665137,0.0661687,-7.20603,17,0.00559934,10,-0.000476814,-2.1423,0.753019,0.0783513,-22.053,0.0661687,
2,0,0,1,0,32703.8,0.0650244,0.0647089,-7.17246,17,0.00546529,10,-0.000464122,-2.14433,0.649533,0.0908345,-25.4317,0.0647089,
2,0,0,1,0,32703.8,0.0635209,0.0631659,-7.1394,17,0.00533049,10,-0.000450967,-2.14634,0.598992,0.0984988,-27.4487,0.0631659,
2,0,0,1,0,32703.8,0.0620245,0.0617009,-7.10724,17,0.00519712,10,-0.000438523,-2.1483,0.621387,0.094949,-26.3254,0.0617009,
2,0,0,1,0,32703.8,0.0605281,0.0601849,-7.07426,17,0.00506441,10,-0.000425763,-2.15032,0.649298,0.0908674,-25.0755,0.0601849,
2,0,0,1,0,32703.9,0.0590246,0.0586691,-7.03886,17,0.00493161,10,-0.000412964,-2.1525,0.673253,0.0876342,-24.061,0.0586691,
2,0,0,1,0,32703.9,0.0575353,0.0572086,-7.00805,17,0.00480082,10,-0.000400921,-2.1544,0.683525,0.0863173,-23.5923,0.0572086,
2,0,0,1,0,32703.9,0.0560317,0.0557021,-6.96908,17,0.00466934,10,-0.000388193,-2.15682,0.630005,0.09365,-25.478,0.0557021,
2,0,0,1,0,32703.9,0.0545282,0.0542003,-6.9332,17,0.00453852,10,-0.000375782,-2.15907,0.77934,0.0757051,-20.4888,0.0542003,
2,0,0,1,0,32703.9,0.0530407,0.0527091,-6.903,17,0.00440972,10,-0.000363851,-2.16096,0.799842,0.0737646,-19.86,0.0527091,
2,0,0,1,0,32704,0.0515372,0.0512077,-6.86651,17,0.00428014,10,-0.000351618,-2.16326,0.701902,0.0840573,-22.5018,0.0512077,
2,0,0,1,0,32704,0.0500336,0.04968,-6.8179,17,0.00415128,10,-0.000338714,-2.16635,0.702969,0.0839298,-22.3535,0.04968,
2,0,0,1,0,32704,0.0485444,0.0482383,-6.78601,17,0.00402457,10,-0.000327345,-2.16839,0.684134,0.0862404,-22.8368,0.0482383,
2,0,0,1,0,32704,0.0470408,0.0467065,-6.74629,17,0.00389713,10,-0.000315096,-2.17093,0.67302,0.0876646,-23.0815,0.0467065,
2,0,0,1,0,32704,0.0455444,0.0452006,-6.70582,17,0.00377102,10,-0.000303107,-2.17355,0.573602,0.102859,-26.9362,0.04520056,
2,0,0,1,0,32704.1,0.044048,0.0437599,-6.66633,17,0.00364569,10,-0.000291718,-2.17611,0.540621,0.109134,-28.4362,0.0437599,
2,0,0,1,0,32704.1,0.0425445,0.0422111,-6.62065,17,0.00352052,10,-0.000279465,-2.1791,0.58506,0.100844,-26.1159,0.0422111,
2,0,0,1,0,32704.1,0.0410552,0.0407247,-6.58538,17,0.00339738,10,-0.000268187,-2.18142,0.563372,0.104726,-26.935,0.04072468,
2,0,0,1,0,32704.1,0.0395517,0.0392512,-6.55094,17,0.00327363,10,-0.000257132,-2.1837,0.508764,0.115967,-29.6367,0.0392512,
2,0,0,1,0,32704.1,0.0380481,0.0377222,-6.51206,17,0.00315068,10,-0.000245649,-2.18628,0.488752,0.120716,-30.6454,0.0377222,
2,0,0,1,0,32704.1,0.0365606,0.0362208,-6.46145,17,0.00302993,10,-0.000234038,-2.18967,0.464496,0.127019,-32.0192,0.0362208,
2,0,0,1,0,32704.2,0.0350571,0.0346948,-6.41492,17,0.00290874,10,-0.000222564,-2.19281,0.486733,0.121216,-30.3252,0.0346948,
2,0,0,1,0,32704.2,0.0335535,0.0332254,-6.36832,17,0.00278841,10,-0.00021159,-2.19598,0.448206,0.131636,-32.694,0.0332254,
2,0,0,1,0,32704.2,0.0320643,0.0317271,-6.32027,17,0.00267025,10,-0.000200524,-2.19926,0.415861,0.141874,-34.983,0.0317271,
2,0,0,1,0,32704.2,0.0305607,0.0302403,-6.26694,17,0.0025518,10,-0.000189514,-2.20294,0.407901,0.144643,-35.3844,0.0302403,
2,0,0,1,0,32704.2,0.0290643,0.0287042,-6.22005,17,0.00243495,10,-0.000178541,-2.20621,0.469081,0.125778,-30.5074,0.0287042,
2,0,0,1,0,32704.3,0.0275679,0.0272235,-6.17357,17,0.002319,10,-0.000168066,-2.20946,0.443937,0.132902,-31.9669,0.0272235,
2,0,0,1,0,32704.3,0.0260644,0.0257599,-6.11376,17,0.00220335,10,-0.00015749,-2.21369,0.396055,0.148969,-35.5159,0.0257599,
2,0,0,1,0,32704.3,0.0245751,0.0242772,-6.05888,17,0.00208991,10,-0.000147093,-2.21761,0.425365,0.138705,-32.8124,0.0242772,
2,0,0,1,0,32704.3,0.0230716,0.0227547,-6.0005,17,0.00197636,10,-0.000136539,-2.22181,0.422719,0.139573,-32.7232,0.0227547,
2,0,0,1,0,32704.3,0.021568,0.0212328,-5.95588,17,0.0018637,10,-0.00012646,-2.22505,0.421055,0.140124,-32.5682,0.02123278,
2,0,0,1,0,32704.4,0.0200805,0.0197181,-5.89822,17,0.0017532,10,-0.000116301,-2.22928,0.394489,0.149561,-34.4527,0.01971806,
2,0,0,1,0,32704.4,0.018577,0.0182282,-5.84872,17,0.00164247,10,-0.000106612,-2.23294,0.3845,0.153446,-35.0758,0.0182282,
2,0,0,1,0,32704.4,0.0170735,0.0167374,-5.79494,17,0.00153272,10,-9.6992e-05,-2.23695,0.406227,0.145239,-32.9209,0.0167374,
2,0,0,1,0,32704.4,0.0155842,0.0152441,-5.75429,17,0.00142508,10,-8.77191e-05,-2.24001,0.399084,0.147839,-33.2154,0.0152441,
2,0,0,1,0,32704.4,0.0140806,0.0137396,-5.71055,17,0.00131707,10,-7.8461e-05,-2.24332,0.411657,0.143323,-31.9328,0.0137396,
2,0,0,1,0,32704.4,0.0125842,0.0122404,-5.67209,17,0.00121045,10,-6.94286e-05,-2.24626,0.41279,0.14293,-31.6167,0.0122404,
2,0,0,1,0,32704.5,0.0110878,0.0107573,-5.62442,17,0.00110476,10,-6.05033e-05,-2.24992,0.418254,0.141063,-30.993,0.0107573,
2,0,0,1,0,32704.5,0.00958429,0.00925685,-5.59017,17,0.000999241,10,-5.17474e-05,-2.25257,0.506996,0.116372,-25.3606,0.00925685,
2,0,0,1,0,32704.5,0.0080968,0.00773293,-5.55207,17,0.000895533,10,-4.29338e-05,-2.25554,0.580386,0.101657,-22.0283,0.00773293,
2,0,0,1,0,32704.5,0.00659326,0.00624923,-5.51647,17,0.000791385,10,-3.44737e-05,-2.25834,0.598169,0.0986343,-21.2255,0.00624923,
2,0,0,1,0,32704.5,0.00508972,0.00478531,-5.47784,17,0.000687856,10,-2.62131e-05,-2.26139,0.641681,0.091946,-19.6709,0.00478531,
2,0,0,1,0,32704.6,0.00360044,0.00327843,-5.45366,17,0.000586056,10,-1.78794e-05,-2.26331,1.81503,0.0325064,-6.94118,0.00327843,
2,0,0,1,0,32704.6,0.0020969,0.00171293,-5.47177,17,0.000483536,10,-9.37275e-06,-2.26187,1.52296,0.0387404,-8.21399,0.00171293,
2,0,0,1,0,32704.6,0.000593362,0.000153905,-5.42045,17,0.000380982,10,-8.34232e-07,-2.26596, , , ,0.000153905,
2,0,0,1,0,32704.6,0.000199195,-0.000199347,-5.41656,17,0.00035437,10,1.07978e-06,-2.26628, , , ,-0.000199347,