File: Figure_codes/Fig_3-5/rawdata_trumpetplot_data/after 10th/20221101_1-115_003_TrumpetPlot_ParaChange_from10_every3_13_CV_C01_20.csv
mode,ox/red,error,control changes,counter inc.,time/s,control/V,Ewe/V,<I>/mA,cycle number,(Q-Qo)/C,I Range,P/W,log(|I|),Tafel slope mV/dec,alpha_eff,dI/d(E-IR),E-IR/V,
2,1,0,1,0,40600.5,2.44065e-05,-0.000325324,16.8133,21,0.0000000E+000,10,-5.46977e-06,-1.77435, , , ,-0.000325324,
2,1,0,1,0,40600.5,0.00266289,0.00227267,18.0153,21,5.44845e-05,10,4.09429e-05,-1.74436, , , ,0.00227267,
2,1,0,1,0,40600.5,0.00586735,0.00549525,19.0546,21,0.0001288,10,0.00010471,-1.72, , , ,0.00549525,
2,1,0,1,0,40600.5,0.00906349,0.00870722,19.9608,21,0.00020693,10,0.000173803,-1.69982,0.164637,0.358364,275.958,0.00870722,
2,1,0,1,0,40600.5,0.0122624,0.0119266,20.7797,21,0.000288517,10,0.000247831,-1.68236,0.188841,0.312433,251.437,0.0119266,
2,1,0,1,0,40600.5,0.0154641,0.0150919,21.5529,21,0.000373281,10,0.000325275,-1.66649,0.210523,0.280254,234.333,0.0150919,
2,1,0,1,0,40600.5,0.0186602,0.0182869,22.2709,21,0.000461027,10,0.000407267,-1.65226,0.230093,0.256418,221.827,0.01828693,
2,1,0,1,0,40600.5,0.0218675,0.021501,22.9588,21,0.000551562,10,0.000493637,-1.63905,0.251101,0.234965,209.733,0.021501,
2,1,0,1,0,40600.5,0.0250636,0.0247045,23.6142,21,0.000644787,10,0.000583377,-1.62683,0.269286,0.219098,201.262,0.0247045,
2,1,0,1,0,40600.5,0.0282597,0.0279207,24.2435,21,0.000740576,10,0.000676897,-1.6154,0.288504,0.204503,192.918,0.0279207,
2,1,0,1,0,40600.5,0.031467,0.0311072,24.8512,21,0.000838856,10,0.000773052,-1.60465,0.306725,0.192355,186.055,0.0311072,
2,1,0,1,0,40600.5,0.0346631,0.0342938,25.4267,21,0.000939469,10,0.000871978,-1.59471,0.325446,0.181289,179.538,0.0342938,
2,1,0,1,0,40600.5,0.0378704,0.0374856,25.9922,21,0.00104236,10,0.000974331,-1.58516,0.342892,0.172066,174.252,0.0374856,
2,1,0,1,0,40600.5,0.0410665,0.0407272,26.5428,21,0.00114748,10,0.00108101,-1.57605,0.358866,0.164407,170.037,0.04072725,
2,1,0,1,0,40600.5,0.0442626,0.0438894,27.0785,21,0.00125478,10,0.00118846,-1.56738,0.377376,0.156343,164.956,0.0438894,
2,1,0,1,0,40600.5,0.0474671,0.0471035,27.6048,21,0.0013642,10,0.00130028,-1.55901,0.391405,0.150739,162.149,0.04710348,
2,1,0,1,0,40600.5,0.0506632,0.0502974,28.1055,21,0.00147567,10,0.00141364,-1.55121,0.406067,0.145296,159.258,0.0502974,
2,1,0,1,0,40600.5,0.0538621,0.0534702,28.609,21,0.00158915,10,0.00152973,-1.5435,0.419478,0.140651,156.995,0.0534702,
2,1,0,1,0,40600.5,0.0570638,0.0566906,29.1172,21,0.00170467,10,0.00165067,-1.53585,0.426981,0.138179,156.915,0.0566906,
2,1,0,1,0,40600.5,0.06026,0.0599418,29.6204,21,0.00182219,10,0.0017755,-1.52841,0.438312,0.134607,155.472,0.0599418,
2,1,0,1,0,40600.5,0.0634672,0.0630891,30.1128,21,0.00194171,10,0.00189979,-1.52125,0.451033,0.130811,153.613,0.06308911,
2,1,0,1,0,40600.5,0.0666633,0.0662979,30.6034,21,0.00206318,10,0.00202894,-1.51423,0.456902,0.12913,154.18,0.0662979,
2,1,0,1,0,40600.6,0.0698595,0.069495,31.0841,21,0.0021866,10,0.00216019,-1.50746,0.467546,0.126191,153.078,0.069495,
2,1,0,1,0,40600.6,0.0730667,0.072707,31.5885,21,0.002312,10,0.00229671,-1.50047,0.472347,0.124908,153.944,0.07270699,
2,1,0,1,0,40600.6,0.0762629,0.0758988,32.0736,21,0.00243937,10,0.00243435,-1.49385,0.48035,0.122827,153.678,0.0758988,
2,1,0,1,0,40600.6,0.0794701,0.0791161,32.5767,21,0.00256871,10,0.00257734,-1.48709,0.488222,0.120847,153.568,0.0791161,
2,1,0,1,0,40600.6,0.0826662,0.0823175,33.0546,21,0.00270001,10,0.00272097,-1.48077,0.491054,0.12015,155.004,0.0823175,
2,1,0,1,0,40600.6,0.0858624,0.085505,33.5539,21,0.00283327,10,0.00286903,-1.47426,0.498276,0.118408,155.086,0.085505,
2,1,0,1,0,40600.6,0.0890668,0.0887096,34.0594,21,0.00296855,10,0.00302139,-1.46776,0.497877,0.118503,157.471,0.0887096,
2,1,0,1,0,40600.6,0.092263,0.0919279,34.5636,21,0.00310583,10,0.00317736,-1.46138,0.50715,0.116336,156.865,0.0919279,
2,1,0,1,0,40600.6,0.0954674,0.0950752,35.0636,21,0.00324514,10,0.00333368,-1.45514,0.516012,0.114338,156.413,0.0950752,
2,1,0,1,0,40600.6,0.0986636,0.0983285,35.5655,21,0.00338647,10,0.0034971,-1.44897,0.515598,0.11443,158.848,0.0983285,
2,1,0,1,0,40600.6,0.10186,0.10153,36.0646,21,0.0035298,10,0.00366164,-1.44292,0.522691,0.112877,158.904,0.1015299,
2,1,0,1,0,40600.6,0.105067,0.104713,36.5945,21,0.00367516,10,0.00383193,-1.43658,0.522583,0.112901,161.188,0.104713,
2,1,0,1,0,40600.6,0.108263,0.107881,37.0985,21,0.00382262,10,0.00400221,-1.43064,0.52916,0.111498,161.378,0.107881,
2,1,0,1,0,40600.6,0.111465,0.111065,37.6184,21,0.00397211,10,0.00417809,-1.4246,0.540702,0.109117,160.16,0.111065,
2,1,0,1,0,40600.6,0.114666,0.114313,38.1276,21,0.00412365,10,0.00435848,-1.41876,0.54319,0.108618,161.617,0.1143131,
2,1,0,1,0,40600.6,0.117863,0.117503,38.6429,21,0.00427724,10,0.00454065,-1.41293,0.545463,0.108165,163.166,0.1175028,
2,1,0,1,0,40600.6,0.12107,0.120715,39.1727,21,0.00443292,10,0.00472872,-1.40702,0.542298,0.108796,166.353,0.120715,
2,1,0,1,0,40600.6,0.124266,0.123857,39.7056,21,0.00459071,10,0.00491781,-1.40115,0.541906,0.108875,168.742,0.123857,
2,1,0,1,0,40600.6,0.127462,0.12707,40.2497,21,0.00475068,10,0.00511452,-1.39524,0.546941,0.107873,169.44,0.1270698,
2,1,0,1,0,40600.6,0.130667,0.130301,40.8025,21,0.00491283,10,0.0053166,-1.38931,0.54586,0.108086,172.1,0.130301,
2,1,0,1,0,40600.6,0.133863,0.133518,41.3421,21,0.00507717,10,0.00551992,-1.38361,0.548711,0.107525,173.524,0.133518,
2,1,0,1,0,40600.6,0.137067,0.136675,41.9116,21,0.00524371,10,0.00572827,-1.37767,0.553902,0.106517,174.198,0.136675,
2,1,0,1,0,40600.6,0.140263,0.139879,42.4725,21,0.00541255,10,0.00594103,-1.37189,0.546069,0.108045,179.09,0.139879,
2,1,0,1,0,40600.6,0.143459,0.143067,43.0263,21,0.0055836,10,0.00615565,-1.36627,0.541644,0.108928,183.099,0.143067,
2,1,0,1,0,40600.6,0.146667,0.146251,43.6225,21,0.00575692,10,0.00637985,-1.36029,0.533179,0.110657,188.57,0.146251,
2,1,0,1,0,40600.7,0.149863,0.149454,44.2514,21,0.00593273,10,0.00661355,-1.35407,0.52802,0.111738,192.979,0.149454,
2,1,0,1,0,40600.7,0.153064,0.152641,44.879,21,0.00611104,10,0.0068504,-1.34796,0.536143,0.110045,192.61,0.152641,
2,1,0,1,0,40600.7,0.156266,0.155902,45.5032,21,0.00629188,10,0.00709406,-1.34196,0.551057,0.107067,189.959,0.155902,
2,1,0,1,0,40600.7,0.159462,0.159096,46.0965,21,0.00647515,10,0.00733378,-1.33633,0.5723,0.103093,185.32,0.1590962,
2,1,0,1,0,40600.7,0.16267,0.162306,46.6928,21,0.00666078,10,0.00757852,-1.33075,0.588212,0.100304,182.659,0.162306,
2,1,0,1,0,40600.7,0.165866,0.165505,47.2629,21,0.00684875,10,0.00782226,-1.32548,0.605833,0.0973866,179.523,0.165505,
2,1,0,1,0,40600.7,0.169062,0.168691,47.8392,21,0.007039,10,0.00807003,-1.32022,0.63148,0.0934314,174.286,0.168691,
2,1,0,1,0,40600.7,0.172266,0.171874,48.3904,21,0.00723154,10,0.00831706,-1.31524,0.65819,0.0896398,169.096,0.171874,
2,1,0,1,0,40600.7,0.175462,0.175083,48.9196,21,0.00742623,10,0.00856499,-1.31052,0.698908,0.0844174,160.994,0.175083,
2,1,0,1,0,40600.7,0.178667,0.17829,49.4247,21,0.00762298,10,0.00881191,-1.30606,0.738833,0.0798556,153.862,0.17829,
2,1,0,1,0,40600.7,0.181863,0.181548,49.9091,21,0.00782171,10,0.00906091,-1.30182,0.788179,0.0748561,145.633,0.181548,
2,1,0,1,0,40600.7,0.185059,0.184689,50.3622,21,0.00802231,10,0.00930134,-1.2979,0.852144,0.0692371,135.888,0.184689,
2,1,0,1,0,40600.7,0.188266,0.187947,50.793,21,0.0082247,10,0.00954638,-1.2942,0.939628,0.0627908,124.234,0.187947,
2,1,0,1,0,40600.7,0.191463,0.191095,51.1648,21,0.00842867,10,0.00977734,-1.29103,1.06931,0.0551755,109.952,0.191095,
2,1,0,1,0,40600.7,0.194664,0.194297,51.493,21,0.00863402,10,0.010005,-1.28825,1.27116,0.0464145,93.0768,0.194297,
2,1,0,1,0,40600.7,0.197866,0.197464,51.7668,21,0.0088406,10,0.0102221,-1.28595,1.5577,0.0378763,76.3508,0.197464,
2,1,0,1,0,40600.7,0.201062,0.200686,51.9788,21,0.00904812,10,0.0104314,-1.28417,2.05457,0.0287165,58.1256,0.2006864,
2,1,0,1,0,40600.7,0.204269,0.203884,52.1412,21,0.0092564,10,0.0106307,-1.28282,3.21434,0.0183553,37.2541,0.203884,
2,1,0,1,0,40600.7,0.207465,0.207119,52.2383,21,0.00946517,10,0.0108195,-1.28201,6.84855,0.00861496,17.5138,0.207119,
2,1,0,1,0,40600.7,0.210662,0.210306,52.2452,21,0.00967415,10,0.0109875,-1.28195,-26.1444,-0.0022567,-4.58958,0.210306,
2,1,0,1,0,40600.7,0.213866,0.21353,52.2037,21,0.00988307,10,0.0111471,-1.2823,-4.71749,-0.0125067,-25.4175,0.21353,
2,1,0,1,0,40600.7,0.217062,0.216694,52.0824,21,0.0100917,10,0.011286,-1.28331,-2.59329,-0.022751,-46.1257,0.216694,
2,1,0,1,0,40600.7,0.220267,0.219961,51.9119,21,0.0102996,10,0.0114186,-1.28473,-1.75271,-0.0336622,-68.0084,0.2199614,
2,1,0,1,0,40600.7,0.223463,0.22312,51.6542,21,0.0105068,10,0.0115251,-1.28689,-1.35011,-0.0437,-87.859,0.22312,
2,1,0,1,0,40600.7,0.226659,0.226327,51.3334,21,0.0107127,10,0.0116181,-1.2896,-1.06941,-0.0551707,-110.253,0.226327,
2,1,0,1,0,40600.8,0.229866,0.229544,50.9534,21,0.0109173,10,0.0116961,-1.29283,-0.905619,-0.0651488,-129.221,0.229544,
2,1,0,1,0,40600.8,0.233062,0.232717,50.5055,21,0.0111202,10,0.0117535,-1.29666,-0.789705,-0.0747114,-146.911,0.232717,
2,1,0,1,0,40600.8,0.236264,0.235913,50.0011,21,0.0113212,10,0.0117959,-1.30102,-0.688634,-0.0856769,-166.781,0.2359131,
2,1,0,1,0,40600.8,0.239466,0.239154,49.449,21,0.01152,10,0.0118259,-1.30584,-0.625452,-0.0943317,-181.606,0.239154,
2,1,0,1,0,40600.8,0.242662,0.242337,48.8199,21,0.0117165,10,0.0118309,-1.3114,-0.566669,-0.104117,-197.983,0.242337,
2,1,0,1,0,40600.8,0.245869,0.245564,48.1725,21,0.0119104,10,0.0118294,-1.3172,-0.522481,-0.112923,-211.915,0.245564,
2,1,0,1,0,40600.8,0.249065,0.248705,47.4685,21,0.0121017,10,0.0118057,-1.32359,-0.495925,-0.11897,-220.053,0.248705,
2,1,0,1,0,40600.8,0.252261,0.2519,46.748,21,0.01229,10,0.0117758,-1.33024,-0.467622,-0.12617,-229.883,0.2519,
2,1,0,1,0,40600.8,0.255466,0.255165,45.9971,21,0.0124755,10,0.0117368,-1.33727,-0.450947,-0.130836,-234.594,0.255165,
2,1,0,1,0,40600.8,0.258662,0.258363,45.2302,21,0.0126578,10,0.0116858,-1.34457,-0.436199,-0.135259,-238.581,0.258363,
2,1,0,1,0,40600.8,0.261866,0.261563,44.452,21,0.0128371,10,0.011627,-1.35211,-0.420719,-0.140236,-243.167,0.261563,
2,1,0,1,0,40600.8,0.265063,0.26476,43.6797,21,0.0130133,10,0.0115646,-1.35972,-0.416509,-0.141654,-241.431,0.26476,
2,1,0,1,0,40600.8,0.268259,0.267902,42.8997,21,0.0131864,10,0.0114929,-1.36755,-0.410981,-0.143559,-240.343,0.267902,
2,1,0,1,0,40600.8,0.271466,0.271122,42.1498,21,0.0133564,10,0.0114277,-1.3752,-0.410936,-0.143575,-236.171,0.271122,
2,1,0,1,0,40600.8,0.274662,0.274342,41.3807,21,0.0135234,10,0.0113525,-1.3832,-0.411666,-0.14332,-231.532,0.274342,
2,1,0,1,0,40600.8,0.277869,0.277571,40.6541,21,0.0136874,10,0.0112844,-1.3909,-0.410845,-0.143607,-227.95,0.277571,
2,1,0,1,0,40600.8,0.281065,0.280753,39.9243,21,0.0138485,10,0.0112089,-1.39876,-0.416179,-0.141766,-221.034,0.280753,
2,1,0,1,0,40600.8,0.284262,0.283929,39.2303,21,0.0140067,10,0.0111386,-1.40638,-0.416958,-0.141501,-216.786,0.283929,
2,1,0,1,0,40600.8,0.287469,0.287131,38.554,21,0.0141622,10,0.01107,-1.41393,-0.423102,-0.139446,-209.901,0.287131,
2,1,0,1,0,40600.8,0.290665,0.290319,37.8905,21,0.014315,10,0.0110003,-1.42147,-0.435459,-0.135489,-200.549,0.290319,
2,1,0,1,0,40600.8,0.293861,0.293514,37.2457,21,0.0144652,10,0.0109322,-1.42892,-0.440821,-0.133841,-195.122,0.2935144,
2,1,0,1,0,40600.8,0.297066,0.296778,36.6535,21,0.014613,10,0.010878,-1.43589,-0.44423,-0.132814,-191.715,0.296778,
2,1,0,1,0,40600.8,0.299638,0.299288,36.1818,21,0.0147295,10,0.0108288,-1.44151,-0.134843,-0.437547,-608.124,0.299288,
2,1,0,1,0,40600.8,0.300012,0.29967,36.0978,21,0.0147476,10,0.0108174,-1.44252,0.0118184,4.99223,6373.96,0.29967,
2,1,0,1,0,40600.8,0.298983,0.298806,34.0279,21,0.0147923,10,0.0101677,-1.46816,0.0440109,1.34058,1587.5,0.2988058,
2,1,0,1,0,40600.8,0.295787,0.295589,29.0699,21,0.0149176,10,0.00859273,-1.53656,0.048115,1.22623,1357.12,0.295589,
2,1,0,1,0,40600.8,0.292579,0.292351,25.1689,21,0.0150255,10,0.00735815,-1.59914,0.0501493,1.17649,1180.16,0.2923511,
2,1,0,1,0,40600.9,0.289383,0.289144,21.8132,21,0.015119,10,0.00630717,-1.66128,0.0506774,1.16423,999.84,0.289144,
2,1,0,1,0,40600.9,0.286187,0.285955,18.8616,21,0.0152,10,0.00539357,-1.72442,0.0490882,1.20192,886.885,0.285955,
2,1,0,1,0,40600.9,0.282983,0.282707,16.1902,21,0.0152697,10,0.00457707,-1.79075,0.0466237,1.26545,797.714,0.282707,
2,1,0,1,0,40600.9,0.279786,0.279512,13.7818,21,0.0153294,10,0.00385218,-1.86069,0.0434135,1.35902,725.748,0.279512,
2,1,0,1,0,40600.9,0.276582,0.276301,11.5677,21,0.0153798,10,0.00319615,-1.93675,0.039577,1.49076,664.294,0.276301,
2,1,0,1,0,40600.9,0.273386,0.273128,9.55267,21,0.0154218,10,0.0026091,-2.01988,0.0352611,1.67323,609.981,0.273128,
2,1,0,1,0,40600.9,0.27019,0.269912,7.69062,21,0.0154561,10,0.00207579,-2.11404,0.0303509,1.94393,561.502,0.269912,
2,1,0,1,0,40600.9,0.266982,0.266714,5.97524,21,0.0154832,10,0.00159368,-2.22364,0.0247685,2.38205,519.162,0.266714,
2,1,0,1,0,40600.9,0.263786,0.263501,4.38032,21,0.0155037,10,0.00115422,-2.35849,0.0182824,3.22715,479.671,0.2635006,
2,1,0,1,0,40600.9,0.260585,0.260324,2.90511,21,0.0155181,10,0.00075627,-2.53684,0.00934245,6.31526,446.044,0.260324,
2,1,0,1,0,40600.9,0.257383,0.257053,1.52277,21,0.0155268,10,0.000391433,-2.81737,0.0193174,3.05424,417.329,0.257053,
2,1,0,1,0,40600.9,0.254187,0.253885,0.253038,21,0.0155302,10,6.42426e-05,-3.59681,0.0870415,0.677838,387.116,0.253885,
2,0,0,1,0,40600.9,0.25098,0.250717,-0.954468,21,0.0155287,10,-0.000239302,-3.02024,-0.0407603,-1.44749,365.156,0.250717,
2,0,0,1,0,40600.9,0.247783,0.247477,-2.06809,21,0.0155225,10,-0.000511804,-2.68443,-0.0105918,-5.57034,340.683,0.247477,
2,0,0,1,0,40600.9,0.244587,0.244323,-3.12574,21,0.015512,10,-0.000763691,-2.50505,-0.0177191,-3.32974,319.179,0.244323,
2,0,0,1,0,40600.9,0.241383,0.241052,-4.11897,21,0.0154974,10,-0.000992886,-2.38521,-0.02798,-2.10865,301.39,0.241052,
2,0,0,1,0,40600.9,0.238187,0.237908,-5.04306,21,0.0154789,10,-0.00119978,-2.29731,-0.0383358,-1.53903,282.711,0.237908,
2,0,0,1,0,40600.9,0.234982,0.234698,-5.91954,21,0.0154569,10,-0.0013893,-2.22771,-0.0486519,-1.2127,267.718,0.234698,
2,0,0,1,0,40600.9,0.231786,0.23151,-6.74808,21,0.0154315,10,-0.00156225,-2.17082,-0.059641,-0.989253,252.158,0.23151,
2,0,0,1,0,40600.9,0.22859,0.228287,-7.53644,21,0.0154028,10,-0.00172047,-2.12283,-0.0704353,-0.837648,240.16,0.228287,
2,0,0,1,0,40600.9,0.225383,0.225043,-8.28703,21,0.0153711,10,-0.00186494,-2.0816,-0.0821599,-0.718112,227.539,0.225043,
2,0,0,1,0,40600.9,0.222187,0.221929,-8.986,21,0.0153364,10,-0.00199426,-2.04643,-0.0943884,-0.625077,215.779,0.221929,
2,0,0,1,0,40600.9,0.218979,0.218695,-9.66401,21,0.0152991,10,-0.00211347,-2.01484,-0.106479,-0.554098,206.316,0.218695,
2,0,0,1,0,40600.9,0.215783,0.215491,-10.2975,21,0.0152591,10,-0.00221902,-1.98727,-0.11934,-0.494386,196.716,0.215491,
2,0,0,1,0,40600.9,0.212587,0.212305,-10.915,21,0.0152166,10,-0.00231731,-1.96198,-0.132048,-0.446806,188.731,0.212305,
2,0,0,1,0,40601,0.20938,0.209104,-11.509,21,0.0151716,10,-0.00240658,-1.93896,-0.146162,-0.403662,179.766,0.209104,
2,0,0,1,0,40601,0.206184,0.205938,-12.0718,21,0.0151244,10,-0.00248603,-1.91823,-0.160005,-0.368738,172.513,0.205938,
2,0,0,1,0,40601,0.202988,0.20267,-12.6022,21,0.015075,10,-0.00255409,-1.89955,-0.175105,-0.336941,164.857,0.20267,
2,0,0,1,0,40601,0.199783,0.199473,-13.1287,21,0.0150235,10,-0.00261882,-1.88178,-0.189205,-0.31183,159.063,0.199473,
2,0,0,1,0,40601,0.196587,0.196273,-13.6243,21,0.0149699,10,-0.00267407,-1.86569,-0.203408,-0.290057,153.533,0.196273,
2,0,0,1,0,40601,0.193382,0.193045,-14.1225,21,0.0149144,10,-0.00272628,-1.85009,-0.218039,-0.270594,148.452,0.193045,
2,0,0,1,0,40601,0.190186,0.189845,-14.5713,21,0.014857,10,-0.00276629,-1.8365,-0.230915,-0.255505,144.892,0.1898448,
2,0,0,1,0,40601,0.18699,0.186673,-15.0289,21,0.0147977,10,-0.00280549,-1.82307,-0.245216,-0.240604,140.875,0.186673,
2,0,0,1,0,40601,0.183783,0.183492,-15.4761,21,0.0147366,10,-0.00283975,-1.81034,-0.254665,-0.231677,139.653,0.1834919,
2,0,0,1,0,40601,0.180587,0.180296,-15.9185,21,0.0146738,10,-0.00287004,-1.7981,-0.269853,-0.218638,135.52,0.180296,
2,0,0,1,0,40601,0.17738,0.17708,-16.354,21,0.0146092,10,-0.00289597,-1.78637,-0.282769,-0.208651,132.831,0.17708,
2,0,0,1,0,40601,0.174183,0.173844,-16.7675,21,0.0145429,10,-0.00291493,-1.77553,-0.2919,-0.202124,132.136,0.173844,
2,0,0,1,0,40601,0.170987,0.170679,-17.1781,21,0.0144749,10,-0.00293194,-1.76503,-0.302104,-0.195297,130.94,0.170679,
2,0,0,1,0,40601,0.16778,0.16748,-17.612,21,0.0144053,10,-0.00294965,-1.75419,-0.304481,-0.193772,133.123,0.16748,
2,0,0,1,0,40601,0.164584,0.16426,-18.0326,21,0.014334,10,-0.00296204,-1.74394,-0.311689,-0.189291,133.104,0.16426,
2,0,0,1,0,40601,0.161382,0.161079,-18.4668,21,0.014261,10,-0.00297462,-1.73361,-0.316888,-0.186186,134.131,0.161079,
2,0,0,1,0,40601,0.158183,0.157863,-18.884,21,0.0141862,10,-0.00298108,-1.72391,-0.316871,-0.186196,137.321,0.157863,
2,0,0,1,0,40601,0.154987,0.154644,-19.3337,21,0.0141097,10,-0.00298984,-1.71368,-0.315779,-0.18684,141.14,0.154644,
2,0,0,1,0,40601,0.151783,0.151466,-19.7896,21,0.0140315,10,-0.00299744,-1.70356,-0.3086,-0.191186,147.827,0.151466,
2,0,0,1,0,40601,0.148587,0.148279,-20.2734,21,0.0139513,10,-0.00300612,-1.69307,-0.30226,-0.195196,154.662,0.148279,
2,0,0,1,0,40601,0.145385,0.145102,-20.7704,21,0.0138692,10,-0.00301382,-1.68256,-0.296011,-0.199317,161.851,0.145102,
2,0,0,1,0,40601,0.142183,0.14191,-21.3031,21,0.013785,10,-0.00302313,-1.67156,-0.28544,-0.206699,172.267,0.14191,
2,0,0,1,0,40601,0.138987,0.138682,-21.8586,21,0.0136986,10,-0.0030314,-1.66038,-0.274929,-0.214601,183.612,0.138682,
2,0,0,1,0,40601,0.13578,0.135502,-22.4744,21,0.0136099,10,-0.00304533,-1.64831,-0.26519,-0.222482,195.681,0.135502,
2,0,0,1,0,40601,0.132584,0.132316,-23.1181,21,0.0135187,10,-0.00305888,-1.63605,-0.254127,-0.232167,210.045,0.132316,
2,0,0,1,0,40601.1,0.129388,0.129063,-23.817,21,0.0134247,10,-0.0030739,-1.62311,-0.244519,-0.24129,224.937,0.129063,
2,0,0,1,0,40601.1,0.12618,0.125833,-24.5574,21,0.0133279,10,-0.00309014,-1.60982,-0.235156,-0.250897,241.15,0.125833,
2,0,0,1,0,40601.1,0.122984,0.122686,-25.3572,21,0.013228,10,-0.00311098,-1.5959,-0.227397,-0.259458,257.438,0.122686,
2,0,0,1,0,40601.1,0.119782,0.119527,-26.202,21,0.0131249,10,-0.00313185,-1.58166,-0.221709,-0.266115,272.706,0.119527,
2,0,0,1,0,40601.1,0.116584,0.116305,-27.1016,21,0.0130182,10,-0.00315204,-1.56701,-0.218857,-0.269582,285.603,0.116305,
2,0,0,1,0,40601.1,0.113387,0.11308,-28.0354,21,0.0129078,10,-0.00317024,-1.55229,-0.218654,-0.269833,295.46,0.11308,
2,0,0,1,0,40601.1,0.110183,0.109871,-29.0173,21,0.0127936,10,-0.00318816,-1.53734,-0.219236,-0.269116,304.731,0.109871,
2,0,0,1,0,40601.1,0.106987,0.106681,-29.9974,21,0.0126755,10,-0.00320017,-1.52292,-0.221517,-0.266345,311.709,0.106681,
2,0,0,1,0,40601.1,0.103785,0.103462,-31.0151,21,0.0125534,10,-0.00320889,-1.50843,-0.226649,-0.260314,314.785,0.103462,
2,0,0,1,0,40601.1,0.100583,0.10027,-32.0283,21,0.0124272,10,-0.00321148,-1.49447,-0.233703,-0.252458,314.979,0.10027,
2,0,0,1,0,40601.1,0.0973873,0.0970921,-33.0399,21,0.012297,10,-0.00320791,-1.48096,-0.242104,-0.243697,313.666,0.0970921,
2,0,0,1,0,40601.1,0.0941801,0.0938939,-34.0252,21,0.0121627,10,-0.00319476,-1.4682,-0.252993,-0.233208,309.157,0.0938939,
2,0,0,1,0,40601.1,0.0909839,0.0906735,-35.0264,21,0.0120245,10,-0.00317597,-1.4556,-0.265172,-0.222497,303.401,0.0906735,
2,0,0,1,0,40601.1,0.0877878,0.0874721,-35.9849,21,0.0118824,10,-0.00314767,-1.44388,-0.278102,-0.212152,297.086,0.0874721,
2,0,0,1,0,40601.1,0.0845806,0.0843269,-36.9128,21,0.0117365,10,-0.00311275,-1.43282,-0.291004,-0.202747,291.567,0.0843269,
2,0,0,1,0,40601.1,0.0813844,0.0811743,-37.804,21,0.011587,10,-0.00306872,-1.42246,-0.305943,-0.192846,284.233,0.0811743,
2,0,0,1,0,40601.1,0.0781828,0.0779613,-38.7329,21,0.0114338,10,-0.00301967,-1.41192,-0.323412,-0.18243,275.145,0.0779613,
2,0,0,1,0,40601.1,0.0749839,0.0747366,-39.6048,21,0.011277,10,-0.00295992,-1.40225,-0.34003,-0.173514,267.462,0.07473661,
2,0,0,1,0,40601.1,0.0717877,0.0715363,-40.4321,21,0.0111169,10,-0.00289236,-1.39327,-0.365121,-0.16159,254.406,0.0715363,
2,0,0,1,0,40601.1,0.0685832,0.0683296,-41.2395,21,0.0109534,10,-0.00281788,-1.38469,-0.392633,-0.150268,241.215,0.06832964,
2,0,0,1,0,40601.1,0.0653871,0.0651452,-41.9934,21,0.0107869,10,-0.00273567,-1.37682,-0.422104,-0.139776,228.456,0.0651452,
2,0,0,1,0,40601.1,0.0621854,0.0619163,-42.6972,21,0.0106174,10,-0.00264365,-1.3696,-0.45926,-0.128468,213.544,0.0619163,
2,0,0,1,0,40601.1,0.0589837,0.0587117,-43.362,21,0.0104452,10,-0.00254586,-1.36289,-0.493593,-0.119532,201.886,0.0587117,
2,0,0,1,0,40601.1,0.0557876,0.0555231,-43.9743,21,0.0102704,10,-0.00244159,-1.3568,-0.530709,-0.111172,190.478,0.0555231,
2,0,0,1,0,40601.1,0.0525804,0.0522984,-44.587,21,0.0100933,10,-0.00233183,-1.35079,-0.576532,-0.102336,177.689,0.0522984,
2,0,0,1,0,40601.2,0.0493842,0.0491469,-45.1295,21,0.00991376,10,-0.00221797,-1.34554,-0.618541,-0.0953857,167.663,0.0491469,
2,0,0,1,0,40601.2,0.0461881,0.0458989,-45.6387,21,0.00973218,10,-0.00209476,-1.34067,-0.677329,-0.0871068,154.916,0.0458989,
2,0,0,1,0,40601.2,0.0429808,0.0427198,-46.1209,21,0.00954859,10,-0.00197027,-1.3361,-0.737777,-0.0799699,143.707,0.0427198,
2,0,0,1,0,40601.2,0.0397847,0.039512,-46.5678,21,0.00936317,10,-0.00183999,-1.33191,-0.80146,-0.0736157,133.564,0.039512,
2,0,0,1,0,40601.2,0.036583,0.0363128,-46.9739,21,0.00917604,10,-0.00170575,-1.32814,-0.892206,-0.0661282,121.017,0.0363128,
2,0,0,1,0,40601.2,0.0333841,0.0330775,-47.3512,21,0.00898735,10,-0.00156626,-1.32467,-0.988425,-0.0596909,110.117,0.0330775,
2,0,0,1,0,40601.2,0.030188,0.029909,-47.6712,21,0.00879726,10,-0.0014258,-1.32174,-1.10082,-0.0535966,99.583,0.029909,
2,0,0,1,0,40601.2,0.0269835,0.0267013,-47.9785,21,0.0086059,10,-0.00128109,-1.31895,-1.22361,-0.0482179,90.1862,0.0267013,
2,0,0,1,0,40601.2,0.0237874,0.0235105,-48.2487,21,0.00841341,10,-0.00113435,-1.31651,-1.3577,-0.0434559,81.7362,0.0235105,
2,0,0,1,0,40601.2,0.0205857,0.0202847,-48.5049,21,0.00821987,10,-0.000983909,-1.31421,-1.52788,-0.0386156,73.0081,0.0202847,
2,0,0,1,0,40601.2,0.017384,0.0170452,-48.7227,21,0.00802537,10,-0.000830487,-1.31227,-1.72137,-0.034275,65.0954,0.0170452,
2,0,0,1,0,40601.2,0.0141879,0.0138915,-48.9137,21,0.00783007,10,-0.000679487,-1.31057,-2.00031,-0.0294955,56.2489,0.0138915,
2,0,0,1,0,40601.2,0.0109806,0.0107124,-49.0818,21,0.00763405,10,-0.000525787,-1.30908,-2.30299,-0.0256188,49.026,0.0107124,
2,0,0,1,0,40601.2,0.00778448,0.00746018,-49.2263,21,0.00743742,10,-0.000367237,-1.3078,-2.48883,-0.0237059,45.5247,0.00746018,
2,0,0,1,0,40601.2,0.00458834,0.00428957,-49.348,21,0.00724026,10,-0.000211682,-1.30673,-3.1533,-0.0187105,36.0094,0.00428957,
2,0,0,1,0,40601.2,0.0013811,0.000982158,-49.5014,21,0.00704258,10,-4.86182e-05,-1.30538,-3.88788,-0.0151753,29.2652,0.000982158,
2,0,0,1,0,40601.2,-0.00181504,-0.00217361,-49.5459,21,0.00684448,10,0.000107693,-1.30499,-5.4011,-0.0109237,21.0958,-0.00217361,
2,0,0,1,0,40601.2,-0.0050195,-0.0053771,-49.6019,21,0.00664618,10,0.000266715,-1.3045,-11.0123,-0.00535766,10.3642,-0.0053771,
2,0,0,1,0,40601.2,-0.00821564,-0.00858589,-49.6196,21,0.00644774,10,0.000426029,-1.30435,-21.2657,-0.00277442,5.3684,-0.00858589,
2,0,0,1,0,40601.2,-0.0114118,-0.0117618,-49.6335,21,0.00624923,10,0.000583779,-1.30423,39.839,0.00148096,-2.8658,-0.0117618,
2,0,0,1,0,40601.2,-0.0146162,-0.0150088,-49.6148,21,0.00605071,10,0.000744657,-1.30439,12.5132,0.004715,-9.11984,-0.0150088,
2,0,0,1,0,40601.2,-0.0178124,-0.0181762,-49.5653,21,0.00585234,10,0.000900909,-1.30482,6.774,0.00870977,-16.8344,-0.0181762,
2,0,0,1,0,40601.2,-0.0210196,-0.0213988,-49.5028,21,0.0056542,10,0.0010593,-1.30537,4.71275,0.0125192,-24.1657,-0.02139879,
2,0,0,1,0,40601.2,-0.0242158,-0.0245906,-49.4175,21,0.00545636,10,0.00121521,-1.30612,3.99124,0.0147824,-28.4893,-0.0245906,
2,0,0,1,0,40601.2,-0.0274119,-0.0277708,-49.3064,21,0.0052589,10,0.00136928,-1.3071,3.05092,0.0193384,-37.1808,-0.0277708,
2,0,0,1,0,40601.3,-0.0306191,-0.0309849,-49.2003,21,0.00506191,10,0.00152447,-1.30803,2.67915,0.0220219,-42.2394,-0.0309849,
2,0,0,1,0,40601.3,-0.0338153,-0.0342011,-49.0268,21,0.00486547,10,0.00167677,-1.30957,2.39804,0.0246034,-47.0535,-0.0342011,
2,0,0,1,0,40601.3,-0.037017,-0.0373622,-48.878,21,0.00466968,10,0.00182619,-1.31089,2.13132,0.0276824,-52.7873,-0.0373622,
2,0,0,1,0,40601.3,-0.0402187,-0.0405911,-48.7031,21,0.00447454,10,0.00197691,-1.31244,2.0546,0.0287161,-54.5519,-0.0405911,
2,0,0,1,0,40601.3,-0.0434148,-0.0438116,-48.5233,21,0.00428011,10,0.00212588,-1.31405,1.90681,0.0309417,-58.5676,-0.0438116,
2,0,0,1,0,40601.3,-0.0466193,-0.0470055,-48.3283,21,0.00408644,10,0.00227169,-1.3158,1.78977,0.032965,-62.146,-0.0470055,
2,0,0,1,0,40601.3,-0.0498154,-0.0502111,-48.1255,21,0.00389355,10,0.00241643,-1.31762,1.75498,0.0336187,-63.1325,-0.0502111,
2,0,0,1,0,40601.3,-0.0530115,-0.0533552,-47.9099,21,0.00370152,10,0.00255624,-1.31957,1.71776,0.034347,-64.2302,-0.0533552,
2,0,0,1,0,40601.3,-0.056216,-0.0566085,-47.7154,21,0.00351028,10,0.0027011,-1.32134,1.75837,0.0335538,-62.4963,-0.0566085,
2,0,0,1,0,40601.3,-0.0594121,-0.0597845,-47.5075,21,0.00331985,10,0.00284021,-1.32324,1.76574,0.0334138,-61.9552,-0.0597845,
2,0,0,1,0,40601.3,-0.0626194,-0.0629805,-47.3275,21,0.00313021,10,0.00298071,-1.32489,1.76165,0.0334913,-61.8487,-0.0629805,
2,0,0,1,0,40601.3,-0.0658155,-0.066219,-47.1129,21,0.00294134,10,0.00311977,-1.32686,1.84429,0.0319906,-58.842,-0.066219,
2,0,0,1,0,40601.3,-0.0690117,-0.0693928,-46.9247,21,0.00275327,10,0.00325623,-1.3286,1.90199,0.0310202,-56.8545,-0.0693928,
2,0,0,1,0,40601.3,-0.0722189,-0.0725645,-46.7555,21,0.00256592,10,0.00339279,-1.33017,2.06912,0.0285145,-52.0593,-0.0725645,
2,0,0,1,0,40601.3,-0.075415,-0.0757648,-46.6006,21,0.00237923,10,0.00353069,-1.33161,2.22266,0.0265447,-48.2904,-0.0757648,
2,0,0,1,0,40601.3,-0.0786167,-0.0789428,-46.4505,21,0.00219315,10,0.00366693,-1.33301,2.33635,0.0252531,-45.7901,-0.0789428,
2,0,0,1,0,40601.3,-0.0818184,-0.0822184,-46.3053,21,0.00200766,10,0.00380715,-1.33437,2.59861,0.0227044,-41.0585,-0.0822184,
2,0,0,1,0,40601.3,-0.0850146,-0.0853774,-46.1688,21,0.00182273,10,0.00394177,-1.33565,2.87045,0.0205543,-37.0699,-0.0853774,
2,0,0,1,0,40601.3,-0.088219,-0.0885766,-46.0746,21,0.00163828,10,0.00408113,-1.33654,3.34558,0.0176352,-31.7302,-0.0885766,
2,0,0,1,0,40601.3,-0.0914152,-0.0917844,-45.9745,21,0.00145419,10,0.00421974,-1.33748,3.99865,0.014755,-26.4881,-0.0917844,
2,0,0,1,0,40601.3,-0.0946141,-0.0949582,-45.9011,21,0.00127045,10,0.00435868,-1.33818,4.5691,0.0129128,-23.1443,-0.0949582,
2,0,0,1,0,40601.3,-0.0978158,-0.0981839,-45.8296,21,0.00108698,10,0.00449973,-1.33885,6.1459,0.0095999,-17.1833,-0.0981839,
2,0,0,1,0,40601.3,-0.101012,-0.101401,-45.7778,21,0.00090376,10,0.00464192,-1.33935,8.61768,0.00684639,-12.2434,-0.101401,
2,0,0,1,0,40601.3,-0.104219,-0.104579,-45.7546,21,0.000720706,10,0.00478498,-1.33957,14.6806,0.0040189,-7.18093,-0.104579,
2,0,0,1,0,40601.3,-0.107415,-0.107812,-45.7437,21,0.00053771,10,0.00493174,-1.33967,135.097,0.000436723,-0.780147,-0.107812,
2,0,0,1,0,40601.4,-0.110611,-0.110972,-45.7377,21,0.000354744,10,0.00507563,-1.33973,-51.3802,-0.0011483,2.05107,-0.110972,
2,0,0,1,0,40601.4,-0.113819,-0.114174,-45.7678,21,0.000171731,10,0.00522548,-1.33944,-14.1242,-0.00417722,7.4651,-0.114174,
2,0,0,1,0,40601.4,-0.117015,-0.11738,-45.7809,21,-1.13638e-05,10,0.00537378,-1.33932,-8.06178,-0.00731849,13.0874,-0.11738,
2,0,0,1,0,40601.4,-0.120216,-0.120597,-45.8391,21,-0.000194593,10,0.00552805,-1.33876,-6.18167,-0.00954435,17.0886,-0.120597,
2,0,0,1,0,40601.4,-0.123418,-0.123792,-45.9055,21,-0.000378097,10,0.00568272,-1.33814,-4.69202,-0.0125746,22.5373,-0.123792,
2,0,0,1,0,40601.4,-0.126614,-0.126979,-45.9866,21,-0.000561872,10,0.00583935,-1.33737,-4.04745,-0.0145771,26.173,-0.126979,
2,0,0,1,0,40601.4,-0.129819,-0.130158,-46.0688,21,-0.000745999,10,0.00599625,-1.33659,-3.57801,-0.0164896,29.6638,-0.130158,
2,0,0,1,0,40601.4,-0.133015,-0.133398,-46.1742,21,-0.00093048,10,0.00615954,-1.3356,-3.10964,-0.0189733,34.2136,-0.133398,
2,0,0,1,0,40601.4,-0.136214,-0.13658,-46.2848,21,-0.0011154,10,0.00632159,-1.33456,-2.78372,-0.0211946,38.3083,-0.13658,
2,0,0,1,0,40601.4,-0.139416,-0.139788,-46.4248,21,-0.00130084,10,0.00648963,-1.33325,-2.53606,-0.0232645,42.1674,-0.139788,
2,0,0,1,0,40601.4,-0.142612,-0.142929,-46.5581,21,-0.00148682,10,0.00665449,-1.33201,-2.43378,-0.0242422,44.0564,-0.142929,
2,0,0,1,0,40601.4,-0.145819,-0.146174,-46.7129,21,-0.00167338,10,0.0068282,-1.33056,-2.32897,-0.0253331,46.1896,-0.1461737,
2,0,0,1,0,40601.4,-0.149015,-0.149395,-46.8494,21,-0.00186053,10,0.00699908,-1.3293,-2.20003,-0.0268178,49.058,-0.1493952,
2,0,0,1,0,40601.4,-0.152211,-0.152544,-47.014,21,-0.00204828,10,0.00717169,-1.32777,-2.13196,-0.0276741,50.8013,-0.152544,
2,0,0,1,0,40601.4,-0.155418,-0.155798,-47.1894,21,-0.00223672,10,0.00735201,-1.32616,-2.05932,-0.0286502,52.7597,-0.155798,
2,0,0,1,0,40601.4,-0.158615,-0.158956,-47.3623,21,-0.00242584,10,0.00752851,-1.32457,-2.02519,-0.0291331,53.8443,-0.158956,
2,0,0,1,0,40601.4,-0.161816,-0.162173,-47.5236,21,-0.00261562,10,0.00770705,-1.32309,-2.08869,-0.0282474,52.39,-0.162173,
2,0,0,1,0,40601.4,-0.165018,-0.165336,-47.7028,21,-0.00280609,10,0.00788701,-1.32146,-2.07849,-0.0283859,52.8423,-0.165336,
2,0,0,1,0,40601.4,-0.168214,-0.168572,-47.8586,21,-0.00299722,10,0.0080676,-1.32004,-2.07058,-0.0284945,53.2254,-0.168572,
2,0,0,1,0,40601.4,-0.171419,-0.171754,-48.0385,21,-0.00318902,10,0.0082508,-1.31841,-2.15128,-0.0274255,51.4087,-0.1717539,
2,0,0,1,0,40601.4,-0.174615,-0.174936,-48.2029,21,-0.00338152,10,0.00843243,-1.31693,-2.17388,-0.0271404,51.036,-0.174936,
2,0,0,1,0,40601.4,-0.177814,-0.178117,-48.3599,21,-0.00357466,10,0.00861374,-1.31551,-2.2805,-0.0258715,48.8186,-0.178117,
2,0,0,1,0,40601.4,-0.181015,-0.181326,-48.5095,21,-0.00376842,10,0.00879605,-1.31417,-2.32962,-0.025326,47.9467,-0.1813262,
2,0,0,1,0,40601.4,-0.184211,-0.184555,-48.6635,21,-0.00396278,10,0.00898109,-1.3128,-2.37716,-0.0248195,47.1355,-0.1845551,
2,0,0,1,0,40601.4,-0.187419,-0.187759,-48.8177,21,-0.00415778,10,0.00916594,-1.31142,-2.4829,-0.0237626,45.2556,-0.187759,
2,0,0,1,0,40601.5,-0.190615,-0.190966,-48.9655,21,-0.00435335,10,0.00935077,-1.31011,-2.56252,-0.0230242,43.9803,-0.190966,
2,0,0,1,0,40601.5,-0.193811,-0.194166,-49.0906,21,-0.00454949,10,0.00953171,-1.309,-2.79733,-0.0210916,40.3861,-0.194166,
2,0,0,1,0,40601.5,-0.197018,-0.197389,-49.2279,21,-0.00474615,10,0.00971706,-1.30779,-3.58637,-0.0164512,31.5345,-0.197389,
2,0,0,1,0,40601.5,-0.199647,-0.19996,-49.3105,21,-0.00490876,10,0.0098601,-1.30706,0.269972,0.218541,-409.449,-0.19996,
2,0,0,1,0,40601.5,-0.200134,-0.200532,-49.2672,21,-0.00493835,10,0.00987966,-1.30744,-0.0171705,-3.43612,6097.59,-0.200532,
2,0,0,1,1,40601.5,-0.198935,-0.19942,-46.9392,21,-0.00500979,10,0.00936062,-1.32846,-0.0614255,-0.960514,1626.17,-0.19942,
2,0,0,1,1,40601.5,-0.195739,-0.196189,-41.9085,21,-0.00518654,10,0.00822198,-1.3777,-0.0702164,-0.840259,1359.87,-0.196189,
2,0,0,1,1,40601.5,-0.192535,-0.192972,-37.9467,21,-0.00534565,10,0.00732263,-1.42083,-0.0741952,-0.7952,1201.38,-0.192972,
2,0,0,1,1,40601.5,-0.189339,-0.189702,-34.54,21,-0.00549015,10,0.00655232,-1.46168,-0.0786794,-0.749878,1022.16,-0.189702,
2,0,0,1,1,40601.5,-0.186137,-0.186574,-31.5065,21,-0.00562184,10,0.00587831,-1.5016,-0.0802247,-0.735435,911.018,-0.186574,
2,0,0,1,1,40601.5,-0.182935,-0.183334,-28.7682,21,-0.00574205,10,0.00527418,-1.54109,-0.0797058,-0.740222,834.686,-0.183334,
2,0,0,1,1,40601.5,-0.179739,-0.180134,-26.2517,21,-0.00585177,10,0.00472883,-1.58084,-0.0788856,-0.747918,767.659,-0.180134,
2,0,0,1,1,40601.5,-0.176532,-0.176953,-23.8984,21,-0.0059518,10,0.00422889,-1.62163,-0.0770552,-0.765685,714.491,-0.176953,
2,0,0,1,1,40601.5,-0.173336,-0.1738,-21.7007,21,-0.00604274,10,0.0037716,-1.66353,-0.0747468,-0.789332,667.773,-0.1738,
2,0,0,1,1,40601.5,-0.17014,-0.170547,-19.6325,21,-0.00612517,10,0.00334827,-1.70702,-0.0715875,-0.824166,629.677,-0.170547,
2,0,0,1,1,40601.5,-0.166932,-0.16728,-17.668,21,-0.00619952,10,0.0029555,-1.75281,-0.0679021,-0.868898,596.458,-0.16728,
2,0,0,1,1,40601.5,-0.163736,-0.164108,-15.8103,21,-0.00626628,10,0.00259461,-1.80106,-0.0633228,-0.931734,570.806,-0.164108,
2,0,0,1,1,40601.5,-0.160532,-0.160945,-14.0331,21,-0.00632577,10,0.00225856,-1.85285,-0.0584275,-1.0098,547.455,-0.160945,
2,0,0,1,1,40601.5,-0.157336,-0.157749,-12.3273,21,-0.0063783,10,0.00194462,-1.90913,-0.0534739,-1.10334,523.591,-0.1577491,
2,0,0,1,1,40601.5,-0.154139,-0.154545,-10.6959,21,-0.00642416,10,0.00165299,-1.97078,-0.0480004,-1.22916,503.418,-0.154545,
2,0,0,1,1,40601.5,-0.150935,-0.151329,-9.11939,21,-0.00646361,10,0.00138003,-2.04003,-0.042346,-1.39328,482.711,-0.1513294,
2,0,0,1,1,40601.5,-0.147739,-0.148181,-7.6074,21,-0.00649688,10,0.00112727,-2.11876,-0.0360645,-1.63596,466.643,-0.148181,
2,0,0,1,1,40601.5,-0.144532,-0.144932,-6.14032,21,-0.00652422,10,0.000889928,-2.21181,-0.0293472,-2.01041,451.946,-0.144932,
2,0,0,1,1,40601.5,-0.141335,-0.141751,-4.72571,21,-0.00654577,10,0.000669873,-2.32553,-0.0222428,-2.65254,436.285,-0.141751,
2,0,0,1,1,40601.5,-0.138139,-0.138561,-3.34877,21,-0.00656177,10,0.00046401,-2.47511,-0.0138422,-4.26234,423.181,-0.138561,
2,0,0,1,1,40601.5,-0.134932,-0.135377,-2.02102,21,-0.00657236,10,0.000273599,-2.69443,-0.0132537,-4.45159,409.798,-0.135377,
2,0,0,1,1,40601.5,-0.131736,-0.132154,-0.732952,21,-0.00657773,10,9.68626e-05,-3.13492,-0.0454786,-1.29731,397.453,-0.132154,
2,1,0,1,1,40601.6,-0.12854,-0.128968,0.512822,21,-0.00657803,10,-6.61374e-05,-3.29003,0.0789308,0.74749,387.129,-0.128968,
2,1,0,1,1,40601.6,-0.125333,-0.125734,1.74923,21,-0.00657336,10,-0.000219939,-2.75715,0.0171033,3.44963,377.954,-0.125734,
2,1,0,1,1,40601.6,-0.122136,-0.122571,2.93635,21,-0.00656386,10,-0.000359912,-2.53219,0.0127156,4.63996,367.565,-0.122571,
2,1,0,1,1,40601.6,-0.118932,-0.119363,4.10131,21,-0.00654967,10,-0.000489547,-2.38708,0.02277,2.59113,360.129,-0.119363,
2,1,0,1,1,40601.6,-0.115736,-0.116149,5.22433,21,-0.0065309,10,-0.000606803,-2.28197,0.0317071,1.86078,351.336,-0.116149,
2,1,0,1,1,40601.6,-0.11254,-0.113018,6.32877,21,-0.00650768,10,-0.000715264,-2.19868,0.0404603,1.45822,343.243,-0.113018,
2,1,0,1,1,40601.6,-0.109335,-0.1098,7.42345,21,-0.00648004,10,-0.000815092,-2.12939,0.0487742,1.20966,338.299,-0.1098,
2,1,0,1,1,40601.6,-0.106139,-0.106581,8.4887,21,-0.00644811,10,-0.000904736,-2.07116,0.0577499,1.02165,329.36,-0.106581,
2,1,0,1,1,40601.6,-0.102932,-0.103399,9.53776,21,-0.00641195,10,-0.000986195,-2.02055,0.0666764,0.884871,322.253,-0.103399,
2,1,0,1,1,40601.6,-0.0997357,-0.100201,10.5502,21,-0.00637168,10,-0.00105714,-1.97674,0.0758185,0.778174,315.208,-0.100201,
2,1,0,1,1,40601.6,-0.0965395,-0.0970206,11.5415,21,-0.00632738,10,-0.00111976,-1.93774,0.0853578,0.691208,307.485,-0.0970206,
2,1,0,1,1,40601.6,-0.0933323,-0.0937567,12.5311,21,-0.00627913,10,-0.00117488,-1.90201,0.0943889,0.625073,302.168,-0.09375672,
2,1,0,1,1,40601.6,-0.0901362,-0.0905554,13.487,21,-0.00622698,10,-0.00122132,-1.87009,0.10402,0.5672,295.571,-0.0905554,
2,1,0,1,1,40601.6,-0.0869345,-0.0873784,14.4247,21,-0.00617106,10,-0.00126041,-1.84089,0.113604,0.519349,289.953,-0.0873784,
2,1,0,1,1,40601.6,-0.0837328,-0.0841569,15.3437,21,-0.00611142,10,-0.00129128,-1.81407,0.12333,0.478392,284.457,-0.0841569,
2,1,0,1,1,40601.6,-0.0805366,-0.080965,16.2401,21,-0.00604816,10,-0.00131488,-1.78941,0.133819,0.440894,277.715,-0.080965,
2,1,0,1,1,40601.6,-0.0773322,-0.0777488,17.1299,21,-0.00598133,10,-0.00133183,-1.76625,0.14476,0.407571,270.75,-0.07774882,
2,1,0,1,1,40601.6,-0.074136,-0.0745549,17.986,21,-0.00591102,10,-0.00134095,-1.74506,0.155047,0.380529,265.642,-0.0745549,
2,1,0,1,1,40601.6,-0.0709371,-0.0713259,18.8176,21,-0.00583732,10,-0.00134219,-1.72543,0.167439,0.352366,257.668,-0.0713259,
2,1,0,1,1,40601.6,-0.0677354,-0.0681574,19.6423,21,-0.0057603,10,-0.00133877,-1.70681,0.176402,0.334464,255.484,-0.0681574,
2,1,0,1,1,40601.6,-0.0645393,-0.0648956,20.4417,21,-0.00568004,10,-0.00132658,-1.68948,0.187784,0.314191,249.828,-0.0648956,
2,1,0,1,1,40601.6,-0.0613321,-0.0617791,21.25,21,-0.00559657,10,-0.00131281,-1.67264,0.200001,0.294999,243.677,-0.0617791,
2,1,0,1,1,40601.6,-0.0581359,-0.0585289,22.0147,21,-0.00550995,10,-0.0012885,-1.65729,0.210173,0.280721,240.336,-0.0585289,
2,1,0,1,1,40601.6,-0.0549398,-0.0553403,22.7656,21,-0.0054203,10,-0.00125985,-1.64272,0.225768,0.26133,231.561,-0.0553403,
2,1,0,1,1,40601.6,-0.0517325,-0.0521548,23.5038,21,-0.00532767,10,-0.00122584,-1.62886,0.236168,0.249822,228.57,-0.0521548,
2,1,0,1,1,40601.7,-0.0485364,-0.0489365,24.2239,21,-0.00523214,10,-0.00118543,-1.61576,0.250089,0.235916,222.504,-0.0489365,
2,1,0,1,1,40601.7,-0.0453347,-0.0457606,24.9332,21,-0.00513376,10,-0.00114096,-1.60322,0.264547,0.223023,216.421,-0.0457606,
2,1,0,1,1,40601.7,-0.042133,-0.0424935,25.624,21,-0.00503258,10,-0.00108885,-1.59135,0.277386,0.2127,212.168,-0.04249347,
2,1,0,1,1,40601.7,-0.0389369,-0.0393388,26.2775,21,-0.0049287,10,-0.00103372,-1.58042,0.294508,0.200334,205.06,-0.0393388,
2,1,0,1,1,40601.7,-0.0357324,-0.0361215,26.9428,21,-0.00482221,10,-0.000973214,-1.56956,0.306996,0.192185,201.67,-0.0361215,
2,1,0,1,1,40601.7,-0.0325363,-0.0329191,27.5664,21,-0.00471312,10,-0.000907461,-1.55962,0.322932,0.182701,196.177,-0.0329191,
2,1,0,1,1,40601.7,-0.0293374,-0.0297559,28.1928,21,-0.00460154,10,-0.000838902,-1.54986,0.342607,0.172209,189.104,-0.0297559,
2,1,0,1,1,40601.7,-0.0261357,-0.0265439,28.7875,21,-0.0044875,10,-0.000764133,-1.5408,0.356078,0.165694,185.824,-0.0265439,
2,1,0,1,1,40601.7,-0.0229395,-0.0233043,29.3666,21,-0.00437112,10,-0.000684369,-1.53215,0.377719,0.156201,178.744,-0.0233043,
2,1,0,1,1,40601.7,-0.0197323,-0.0201518,29.9389,21,-0.00425245,10,-0.000603321,-1.52376,0.397221,0.148532,173.243,-0.0201518,
2,1,0,1,1,40601.7,-0.0165361,-0.016962,30.4796,21,-0.00413156,10,-0.000516997,-1.51599,0.410132,0.143856,170.909,-0.016962,
2,1,0,1,1,40601.7,-0.01334,-0.0136992,31.0128,21,-0.0040085,10,-0.00042485,-1.50846,0.436263,0.135239,163.46,-0.0136992,
2,1,0,1,1,40601.7,-0.0101328,-0.0105689,31.5432,21,-0.00388333,10,-0.000333375,-1.50109,0.457744,0.128893,158.379,-0.0105689,
2,1,0,1,1,40601.7,-0.00693663,-0.00738975,32.025,21,-0.00375613,10,-0.000236657,-1.49451,0.480151,0.122878,153.283,-0.00738975,
2,1,0,1,1,40601.7,-0.00373494,-0.00412688,32.5125,21,-0.00362701,10,-0.000134175,-1.48795, , , ,-0.00412688,
2,1,0,1,1,40601.7,-0.000774629,-0.00116676,32.9338,21,-0.00350591,10,-3.84257e-05,-1.48236, , , ,-0.00116676,
2,1,0,0,1,40601.7,-0.000125413,-0.000516197,33.0442,21,-0.00347953,10,-1.70573e-05,-1.4809, , , ,-0.000516197,