File: Figure_codes/Fig_3-5/rawdata_trumpetplot_data/after 10th/20221101_1-115_003_TrumpetPlot_ParaChange_from10_every3_08_CV_C01_6.csv
mode,ox/red,error,control changes,counter inc.,time/s,control/V,Ewe/V,<I>/mA,cycle number,(Q-Qo)/C,I Range,P/W,log(|I|),Tafel slope mV/dec,alpha_eff,dI/d(E-IR),E-IR/V,
2,0,0,0,0,12995.8,2.44065e-05,-0.000478022,-4.04979,7,0.0000000E+000,10,1.93589e-06,-2.39257, , , ,-0.000478022,
2,0,0,1,0,12995.8,0.0012943,0.000896265,-2.09961,7,-4.61415e-05,10,-1.88181e-06,-2.67786, , , ,0.000896265,
2,0,0,1,0,12995.8,0.00279784,0.00244438,-0.64478,7,-7.06458e-05,10,-1.57609e-06,-3.19059,-0.0056364,-10.4677,811.441,0.00244438,
2,1,0,1,0,12995.9,0.00429425,0.00399993,0.285005,7,-7.31129e-05,10,1.14e-06,-3.54515,0.180646,0.326605,537.054,0.003999928,
2,1,0,1,0,12995.9,0.00579065,0.00548745,0.931563,7,-6.10823e-05,10,5.1119e-06,-3.03079,0.00188357,31.3236,386.75,0.00548745,
2,1,0,1,0,12995.9,0.0072942,0.00698444,1.41366,7,-3.85156e-05,10,9.8736e-06,-2.84966,0.010205,5.78146,277.923,0.00698444,
2,1,0,1,0,12995.9,0.00878347,0.00847802,1.78026,7,-8.40081e-06,10,1.5093e-05,-2.74952,0.0176932,3.33462,217.38,0.00847802,
2,1,0,1,0,12995.9,0.010287,0.00999989,2.06581,7,2.80981e-05,10,2.06579e-05,-2.68491,0.0273266,2.15907,167.779,0.00999989,
2,1,0,1,0,12995.9,0.0117905,0.0114737,2.29284,7,6.94065e-05,10,2.63074e-05,-2.63963,0.0378048,1.56065,136.764,0.0114737,
2,1,0,1,0,12996,0.013278,0.0129288,2.47675,7,0.000113994,10,3.20213e-05,-2.60612,0.0491709,1.1999,114.751,0.0129288,
2,1,0,1,0,12996,0.0147816,0.0144513,2.63701,7,0.000162307,10,3.81083e-05,-2.57889,0.0624059,0.945423,96.3634,0.0144513,
2,1,0,1,0,12996,0.0162851,0.0159865,2.77823,7,0.000213448,10,4.44142e-05,-2.55623,0.0731387,0.806687,86.6908,0.0159865,
2,1,0,1,0,12996,0.0177744,0.0174538,2.90142,7,0.000266391,10,5.06409e-05,-2.53739,0.0861924,0.684515,76.8778,0.0174538,
2,1,0,1,0,12996,0.0192779,0.018988,3.00243,7,0.000321999,10,5.701e-05,-2.52253,0.0964833,0.611505,71.3396,0.018988,
2,1,0,1,0,12996.1,0.0207743,0.020467,3.09912,7,0.000379234,10,6.34298e-05,-2.50876,0.105879,0.557238,67.1563,0.020467,
2,1,0,1,0,12996.1,0.0222707,0.0220041,3.19332,7,0.000438304,10,7.02662e-05,-2.49576,0.114523,0.515178,64.0526,0.0220041,
2,1,0,1,0,12996.1,0.0237743,0.0234503,3.2773,7,0.000499417,10,7.68537e-05,-2.48448,0.131569,0.448434,57.334,0.0234503,
2,1,0,1,0,12996.1,0.0252636,0.0249538,3.35525,7,0.000561384,10,8.37261e-05,-2.47428,0.139949,0.421582,55.3112,0.0249538,
2,1,0,1,0,12996.1,0.0267671,0.0264399,3.43654,7,0.000625524,10,9.08617e-05,-2.46388,0.143348,0.411585,55.2168,0.0264399,
2,1,0,1,0,12996.2,0.0282706,0.0279358,3.5184,7,0.000691224,10,9.82893e-05,-2.45366,0.146739,0.402075,55.2339,0.0279358,
2,1,0,1,0,12996.2,0.0297581,0.0294097,3.59713,7,0.000757696,10,0.00010579,-2.44404,0.164449,0.358774,50.3566,0.0294097,
2,1,0,1,0,12996.2,0.0312617,0.0309298,3.6664,7,0.000826331,10,0.000113401,-2.43576,0.17517,0.336816,48.2603,0.0309298,
2,1,0,1,0,12996.2,0.0327652,0.0324265,3.74297,7,0.000896283,10,0.000121371,-2.42678,0.184442,0.319883,46.8052,0.0324265,
2,1,0,1,0,12996.2,0.0342545,0.0339282,3.82322,7,0.000966914,10,0.000129715,-2.41757,0.187745,0.314257,46.8543,0.03392823,
2,1,0,1,0,12996.2,0.035758,0.0354412,3.89853,7,0.00103971,10,0.000138169,-2.4091,0.203704,0.289636,43.9964,0.0354412,
2,1,0,1,0,12996.3,0.0372544,0.0369351,3.97348,7,0.00111348,10,0.000146761,-2.40083,0.197458,0.298797,46.2398,0.0369351,
2,1,0,1,0,12996.3,0.0387508,0.0384431,4.04108,7,0.00118849,10,0.000155352,-2.3935,0.199571,0.295634,46.6159,0.0384431,
2,1,0,1,0,12996.3,0.0402544,0.0399199,4.11379,7,0.00126527,10,0.000164222,-2.38576,0.192538,0.306434,49.1496,0.0399199,
2,1,0,1,0,12996.3,0.0417437,0.0414306,4.1925,7,0.00134267,10,0.000173698,-2.37753,0.198491,0.297243,48.4864,0.04143057,
2,1,0,1,0,12996.3,0.0432472,0.0429177,4.26163,7,0.0014222,10,0.000182899,-2.37042,0.212012,0.278286,46.1933,0.0429177,
2,1,0,1,0,12996.4,0.0447507,0.0444413,4.32408,7,0.00150301,10,0.000192167,-2.36411,0.203708,0.289631,48.8435,0.0444413,
2,1,0,1,0,12996.4,0.0462382,0.045943,4.38822,7,0.00158424,10,0.000201608,-2.35771,0.204612,0.288351,49.3736,0.045943,
2,1,0,1,0,12996.4,0.0477418,0.047438,4.45335,7,0.00166765,10,0.000211258,-2.35131,0.217466,0.271307,47.2193,0.047438,
2,1,0,1,0,12996.4,0.0492453,0.048935,4.51888,7,0.00175234,10,0.000221131,-2.34497,0.231422,0.254945,45.0123,0.048935,
2,1,0,1,0,12996.4,0.0507346,0.0504176,4.58266,7,0.00183734,10,0.000231047,-2.33888,0.233491,0.252687,45.2778,0.0504176,
2,1,0,1,0,12996.5,0.0522381,0.05193,4.65196,7,0.00192448,10,0.000241576,-2.33236,0.234036,0.252098,45.8257,0.05193,
2,1,0,1,0,12996.5,0.0537345,0.0534374,4.72411,7,0.00201249,10,0.000252444,-2.32568,0.252943,0.233255,43.001,0.0534374,
2,1,0,1,0,12996.5,0.0552309,0.0549294,4.79022,7,0.00210174,10,0.000263124,-2.31964,0.28096,0.209994,39.236,0.0549294,
2,1,0,1,0,12996.5,0.0567345,0.0564404,4.85268,7,0.0021927,10,0.000273887,-2.31402,0.286201,0.206149,39.0565,0.0564404,
2,1,0,1,0,12996.5,0.0582237,0.0578685,4.9192,7,0.00228378,10,0.000284667,-2.30811,0.299294,0.197131,37.8382,0.0578685,
2,1,0,1,0,12996.5,0.0597273,0.0594159,4.9884,7,0.00237703,10,0.00029639,-2.30204,0.282128,0.209125,40.6447,0.0594159,
2,1,0,1,0,12996.6,0.0612308,0.0609501,5.04892,7,0.00247147,10,0.000307732,-2.2968,0.295968,0.199346,39.2008,0.0609501,
2,1,0,1,0,12996.6,0.0627183,0.0624195,5.10731,7,0.00256608,10,0.000318796,-2.29181,0.298529,0.197636,39.3342,0.0624195,
2,1,0,1,0,12996.6,0.0642219,0.0639144,5.16589,7,0.00266276,10,0.000330175,-2.28686,0.301793,0.195498,39.4033,0.0639144,
2,1,0,1,0,12996.6,0.0657254,0.0654189,5.22412,7,0.00276057,10,0.000341756,-2.28199,0.28161,0.20951,42.6966,0.0654189,
2,1,0,1,0,12996.6,0.0672147,0.0669179,5.2888,7,0.00285854,10,0.000353915,-2.27664,0.289539,0.203772,41.996,0.0669179,
2,1,0,1,0,12996.7,0.0687182,0.0683975,5.34376,7,0.00295869,10,0.0003655,-2.27215,0.316512,0.186407,38.8287,0.0683975,
2,1,0,1,0,12996.7,0.0702146,0.069866,5.39349,7,0.00305931,10,0.000376822,-2.26813,0.324367,0.181893,38.2898,0.069866,
2,1,0,1,0,12996.7,0.071711,0.0713711,5.45013,7,0.00316091,10,0.000388981,-2.26359,0.314777,0.187435,39.8476,0.0713711,
2,1,0,1,0,12996.7,0.0732146,0.0728732,5.49857,7,0.00326412,10,0.000400698,-2.25975,0.333722,0.176794,37.9772,0.0728732,
2,1,0,1,0,12996.7,0.0747038,0.0743933,5.55108,7,0.00336724,10,0.000412963,-2.25562,0.365623,0.161368,34.9912,0.0743933,
2,1,0,1,0,12996.8,0.0762074,0.0759006,5.59817,7,0.00347241,10,0.000424904,-2.25195,0.385358,0.153105,33.5166,0.0759006,
2,1,0,1,0,12996.8,0.0777109,0.0774068,5.65613,7,0.00357853,10,0.000437822,-2.24748,0.372137,0.158544,35.0268,0.0774068,
2,1,0,1,0,12996.8,0.0791984,0.0788683,5.70859,7,0.00368451,10,0.000450227,-2.24347,0.428505,0.137688,30.671,0.0788683,
2,1,0,1,0,12996.8,0.0807019,0.0804041,5.75921,7,0.00379261,10,0.000463064,-2.23964,0.470994,0.125267,28.1433,0.08040414,
2,1,0,1,0,12996.8,0.0822055,0.0818575,5.80528,7,0.00390156,10,0.000475206,-2.23618,0.460703,0.128065,29.0188,0.0818575,
2,1,0,1,0,12996.8,0.0836947,0.0834012,5.85168,7,0.00401015,10,0.000488037,-2.23272,0.481666,0.122492,27.9764,0.0834012,
2,1,0,1,0,12996.9,0.0851983,0.0848573,5.89881,7,0.00412081,10,0.000500557,-2.22924,0.469759,0.125596,28.9075,0.0848573,
2,1,0,1,0,12996.9,0.0866947,0.086365,5.94926,7,0.00423178,10,0.000513808,-2.22554,0.472498,0.124868,28.9633,0.086365,
2,1,0,1,0,12996.9,0.0881911,0.0878475,5.99287,7,0.00434356,10,0.000526459,-2.22237,0.451678,0.130624,30.5354,0.0878475,
2,1,0,1,0,12996.9,0.0896946,0.0893779,6.03885,7,0.0044568,10,0.00053974,-2.21905,0.399252,0.147776,34.8336,0.08937791,
2,1,0,1,0,12996.9,0.0911839,0.0908592,6.09197,7,0.00456975,10,0.000553511,-2.21524,0.348426,0.169333,40.271,0.0908592,
2,1,0,1,0,12997,0.0926857,0.0923818,6.15265,7,0.00468505,10,0.000568393,-2.21094,0.340249,0.173402,41.6038,0.0923818,
2,1,0,1,0,12997,0.0941892,0.0939043,6.20582,7,0.00480143,10,0.000582754,-2.2072,0.362668,0.162683,39.3912,0.0939043,
2,1,0,1,0,12997,0.0956785,0.095311,6.25803,7,0.0049176,10,0.000596459,-2.20356,0.344417,0.171304,41.9162,0.095311,
2,1,0,1,0,12997,0.097182,0.0968492,6.31611,7,0.0050361,10,0.000611711,-2.19955,0.320932,0.183839,45.4019,0.0968492,
2,1,0,1,0,12997,0.0986856,0.0983749,6.38877,7,0.0051559,10,0.000628494,-2.19458,0.309052,0.190907,47.6492,0.0983749,
2,1,0,1,0,12997.1,0.100175,0.0998575,6.45765,7,0.0052757,10,0.000644845,-2.18993,0.301235,0.195861,49.4639,0.0998575,
2,1,0,1,0,12997.1,0.101678,0.101314,6.53725,7,0.0053982,10,0.000662312,-2.18461,0.276336,0.213509,54.5667,0.101314,
2,1,0,1,0,12997.1,0.103175,0.102869,6.63472,7,0.00552161,10,0.000682507,-2.17818,0.25251,0.233654,60.5631,0.102869,
2,1,0,1,0,12997.1,0.104671,0.104392,6.7353,7,0.00564676,10,0.00070311,-2.17164,0.244866,0.240948,63.2927,0.1043918,
2,1,0,1,0,12997.1,0.106175,0.10592,6.83263,7,0.00577452,10,0.000723716,-2.16541,0.250805,0.235242,62.6754,0.10592,
2,1,0,1,0,12997.1,0.107662,0.107335,6.93398,7,0.00590278,10,0.000744256,-2.15902,0.239849,0.245988,66.6029,0.107335,
2,1,0,1,0,12997.2,0.109166,0.108891,7.04322,7,0.00603423,10,0.000766942,-2.15223,0.235428,0.250608,68.8935,0.108891,
2,1,0,1,0,12997.2,0.110669,0.110334,7.14689,7,0.00616775,10,0.000788546,-2.14588,0.227297,0.259572,72.3717,0.110334,
2,1,0,1,0,12997.2,0.112159,0.111852,7.26248,7,0.00630191,10,0.000812325,-2.13891,0.226822,0.260115,73.6459,0.111852,
2,1,0,1,0,12997.2,0.113662,0.113354,7.37176,7,0.00643959,10,0.000835616,-2.13243,0.231857,0.254467,73.105,0.113354,
2,1,0,1,0,12997.2,0.115166,0.114882,7.47292,7,0.00657928,10,0.000858507,-2.12651,0.230936,0.255482,74.5342,0.114882,
2,1,0,1,0,12997.3,0.116655,0.116338,7.58452,7,0.00671951,10,0.000882369,-2.12007,0.230875,0.255549,75.5999,0.116338,
2,1,0,1,0,12997.3,0.118158,0.117833,7.69181,7,0.00686333,10,0.000906347,-2.11397,0.250183,0.235827,70.7016,0.117833,
2,1,0,1,0,12997.3,0.119655,0.119352,7.79024,7,0.00700838,10,0.000929784,-2.10845,0.267501,0.22056,67.0122,0.119352,
2,1,0,1,0,12997.3,0.121151,0.120838,7.87588,7,0.00715514,10,0.000951705,-2.1037,0.287208,0.205426,63.1805,0.120838,
2,1,0,1,0,12997.3,0.122655,0.122371,7.96716,7,0.0073044,10,0.00097495,-2.0987,0.304978,0.193457,60.1695,0.122371,
2,1,0,1,0,12997.4,0.124142,0.123859,8.05132,7,0.00745373,10,0.00099723,-2.09413,0.331034,0.178229,55.9961,0.123859,
2,1,0,1,0,12997.4,0.125646,0.125344,8.13482,7,0.00760621,10,0.00101965,-2.08965,0.369683,0.159596,50.645,0.125344,
2,1,0,1,0,12997.4,0.127149,0.126825,8.20451,7,0.00776015,10,0.00104054,-2.08595,0.40918,0.144191,46.1749,0.126825,
2,1,0,1,0,12997.4,0.128639,0.128368,8.27591,7,0.00791371,10,0.00106236,-2.08218,0.437351,0.134903,43.598,0.128368,
2,1,0,1,0,12997.4,0.130142,0.129793,8.34849,7,0.00807025,10,0.00108357,-2.07839,0.450196,0.131054,42.6896,0.129793,
2,1,0,1,0,12997.4,0.131646,0.13134,8.41981,7,0.00822811,10,0.00110586,-2.0747,0.493474,0.119561,39.2436,0.13134,
2,1,0,1,0,12997.5,0.133135,0.132817,8.48611,7,0.00838546,10,0.0011271,-2.07129,0.529515,0.111423,36.8562,0.132817,
2,1,0,1,0,12997.5,0.134639,0.134348,8.53816,7,0.00854555,10,0.00114708,-2.06864,0.501754,0.117587,39.1746,0.134348,
2,1,0,1,0,12997.5,0.136135,0.135857,8.60195,7,0.00870594,10,0.00116864,-2.0654,0.490613,0.120258,40.3218,0.135857,
2,1,0,1,0,12997.5,0.137631,0.137333,8.65573,7,0.00886743,10,0.00118872,-2.0627,0.544551,0.108346,36.5539,0.1373331,
2,1,0,1,0,12997.5,0.139135,0.13884,8.70906,7,0.00903079,10,0.00120917,-2.06003,0.606351,0.0973033,33.0099,0.13884,
2,1,0,1,0,12997.6,0.140622,0.140318,8.744,7,0.00919324,10,0.00122694,-2.05829,0.740376,0.0796893,27.174,0.140318,
2,1,0,1,0,12997.6,0.142126,0.141802,8.77409,7,0.00935815,10,0.00124418,-2.0568,0.965966,0.0610787,20.8936,0.141802,
2,1,0,1,0,12997.6,0.143629,0.143339,8.79834,7,0.00952365,10,0.00126115,-2.0556,2.0129,0.0293109,10.0471,0.143339,
2,1,0,1,0,12997.6,0.145119,0.144823,8.80259,7,0.00968762,10,0.00127482,-2.05539,-3.52387,-0.0167429,-5.73811,0.144823,
2,1,0,1,0,12997.6,0.146622,0.146316,8.77327,7,0.00985313,10,0.00128367,-2.05684,-0.857624,-0.0687947,-23.5148,0.146316,
2,1,0,1,0,12997.7,0.148126,0.147843,8.72472,7,0.010018,10,0.00128989,-2.05925,-0.481385,-0.122563,-41.6347,0.147843,
2,1,0,1,0,12997.7,0.149615,0.149323,8.65662,7,0.0101799,10,0.00129263,-2.06265,-0.304679,-0.193646,-65.1943,0.149323,
2,1,0,1,0,12997.7,0.151119,0.150805,8.54083,7,0.0103419,10,0.001288,-2.0685,-0.21531,-0.274023,-90.988,0.150805,
2,1,0,1,0,12997.7,0.152615,0.152292,8.3909,7,0.0105005,10,0.00127787,-2.07619,-0.169382,-0.348325,-113.683,0.152292,
2,1,0,1,0,12997.7,0.154111,0.153793,8.21437,7,0.010656,10,0.00126331,-2.08543,-0.138141,-0.427099,-136.392,0.153793,
2,1,0,1,0,12997.7,0.155615,0.155287,7.99969,7,0.0108086,10,0.00124225,-2.09693,-0.120623,-0.489127,-152.066,0.155287,
2,1,0,1,0,12997.8,0.157103,0.156774,7.75915,7,0.0109553,10,0.00121643,-2.11019,-0.103195,-0.571734,-172.35,0.156774,
2,1,0,1,0,12997.8,0.158606,0.158295,7.48688,7,0.0110988,10,0.00118514,-2.1257,-0.0927691,-0.635988,-185.228,0.158295,
2,1,0,1,0,12997.8,0.16011,0.159737,7.1957,7,0.0112369,10,0.00114942,-2.14293,-0.0865894,-0.681377,-190.99,0.1597365,
2,1,0,1,0,12997.8,0.161599,0.161321,6.91059,7,0.0113682,10,0.00111482,-2.16048,-0.0822057,-0.717712,-193.241,0.161321,
2,1,0,1,0,12997.8,0.163102,0.162799,6.61542,7,0.0114955,10,0.00107698,-2.17944,-0.0815162,-0.723782,-186.809,0.162799,
2,1,0,1,0,12997.9,0.164606,0.164273,6.33681,7,0.0116174,10,0.00104097,-2.19813,-0.0795036,-0.742105,-183.557,0.164273,
2,1,0,1,0,12997.9,0.166095,0.165795,6.0639,7,0.0117328,10,0.00100536,-2.21725,-0.0830691,-0.710252,-168.547,0.165795,
2,1,0,1,0,12997.9,0.167599,0.167309,5.82002,7,0.0118446,10,0.00097374,-2.23508,-0.0889476,-0.663312,-150.971,0.1673087,
2,1,0,1,0,12997.9,0.169095,0.168778,5.60003,7,0.0119516,10,0.000945164,-2.25181,-0.0927903,-0.635842,-139.286,0.168778,
2,1,0,1,0,12997.9,0.170592,0.170268,5.39147,7,0.0120546,10,0.000917997,-2.26829,-0.0964723,-0.611574,-129.056,0.170268,
2,1,0,1,0,12998,0.172095,0.17176,5.20026,7,0.0121544,10,0.000893198,-2.28397,-0.10271,-0.57443,-117.131,0.17176,
2,1,0,1,0,12998,0.173583,0.173301,5.03995,7,0.0122499,10,0.000873427,-2.29757,-0.108882,-0.541873,-106.906,0.173301,
2,1,0,1,0,12998,0.175086,0.17477,4.89889,7,0.0123436,10,0.00085618,-2.3099,-0.118644,-0.497284,-95.2021,0.17477,
2,1,0,1,0,12998,0.17659,0.176295,4.75851,7,0.0124346,10,0.000838901,-2.32253,-0.124713,-0.473085,-88.0174,0.176295,
2,1,0,1,0,12998,0.178079,0.1778,4.64348,7,0.0125222,10,0.00082561,-2.33316,-0.130732,-0.451305,-81.8802,0.1777999,
2,1,0,1,0,12998,0.179582,0.179275,4.53152,7,0.0126085,10,0.000812389,-2.34376,-0.144137,-0.409332,-72.5717,0.1792751,
2,1,0,1,0,12998.1,0.181086,0.180802,4.43514,7,0.012693,10,0.000801882,-2.35309,-0.163533,-0.360784,-62.5432,0.180802,
2,1,0,1,0,12998.1,0.182575,0.18228,4.35445,7,0.0127748,10,0.00079373,-2.36107,-0.164838,-0.357927,-60.7176,0.18228,
2,1,0,1,0,12998.1,0.184079,0.183757,4.26896,7,0.0128559,10,0.000784453,-2.36968,-0.183919,-0.320793,-53.3919,0.183757,
2,1,0,1,0,12998.1,0.185582,0.185303,4.18622,7,0.0129355,10,0.000775717,-2.37818,-0.208774,-0.282602,-46.2229,0.1853026,
2,1,0,1,0,12998.1,0.18707,0.186786,4.12083,7,0.0130129,10,0.000769712,-2.38502,-0.216143,-0.272967,-43.9047,0.186786,
2,1,0,1,0,12998.2,0.188573,0.188259,4.0558,7,0.0130899,10,0.000763542,-2.39192,-0.251308,-0.234772,-37.1779,0.188259,
2,1,0,1,0,12998.2,0.19007,0.189758,3.99655,7,0.0131654,10,0.000758377,-2.39831,-0.25415,-0.232146,-36.2357,0.189758,
2,1,0,1,0,12998.2,0.191566,0.191223,3.93417,7,0.0132398,10,0.000752304,-2.40515,-0.271823,-0.217053,-33.4379,0.191223,
2,1,0,1,0,12998.2,0.19307,0.192774,3.88426,7,0.0133136,10,0.000748784,-2.41069,-0.320473,-0.184103,-27.9881,0.192774,
2,1,0,1,0,12998.2,0.194559,0.194238,3.8483,7,0.0133858,10,0.000747487,-2.41473,-0.334128,-0.176579,-26.5277,0.194238,
2,1,0,1,0,12998.3,0.196063,0.195754,3.80398,7,0.013458,10,0.000744645,-2.41976,-0.315068,-0.187261,-27.8086,0.195754,
2,1,0,1,0,12998.3,0.197566,0.19725,3.75322,7,0.0135294,10,0.000740323,-2.4256,-0.326327,-0.1808,-26.6157,0.19725,
2,1,0,1,0,12998.3,0.199055,0.198793,3.72563,7,0.0135992,10,0.000740628,-2.4288,-0.325876,-0.181051,-26.3534,0.198793,
2,1,0,1,0,12998.3,0.200559,0.200228,3.68734,7,0.0136692,10,0.000738307,-2.43329,-0.367109,-0.160715,-23.1767,0.200228,
2,1,0,1,0,12998.3,0.202062,0.201771,3.66021,7,0.0137385,10,0.000738523,-2.43649,-0.369387,-0.159724,-22.7986,0.201771,
2,1,0,1,0,12998.3,0.20355,0.203246,3.63177,7,0.0138066,10,0.000738145,-2.43988,-0.393691,-0.149864,-21.2534,0.203246,
2,1,0,1,0,12998.4,0.205053,0.204743,3.60267,7,0.0138747,10,0.000737623,-2.44337,-0.438312,-0.134607,-18.9726,0.204743,
2,1,0,1,0,12998.4,0.20655,0.20625,3.58136,7,0.0139421,10,0.000738655,-2.44595,-0.452791,-0.130303,-18.214,0.20625,
2,1,0,1,0,12998.4,0.208046,0.207712,3.56181,7,0.0140091,10,0.000739831,-2.44833,-0.531862,-0.110931,-15.3928,0.207712,
2,1,0,1,0,12998.4,0.20955,0.20927,3.53745,7,0.014076,10,0.000740285,-2.45131,-0.491147,-0.120127,-16.5696,0.20927,
2,1,0,1,0,12998.4,0.211039,0.210767,3.51257,7,0.0141416,10,0.000740335,-2.45438,-0.576651,-0.102315,-14.0309,0.210767,
2,1,0,1,0,12998.5,0.212543,0.212241,3.49039,7,0.0142076,10,0.000740803,-2.45713,-0.82063,-0.071896,-9.78595,0.212241,
2,1,0,1,0,12998.5,0.214046,0.213752,3.47091,7,0.0142732,10,0.000741913,-2.45956,-0.800856,-0.0736711,-9.97347,0.213752,
2,1,0,1,0,12998.5,0.215535,0.215245,3.45491,7,0.0143378,10,0.000743652,-2.46156,-0.820743,-0.071886,-9.68676,0.215245,
2,1,0,1,0,12998.5,0.217039,0.216727,3.42678,7,0.0144027,10,0.000742676,-2.46511,-0.711115,-0.0829683,-11.1255,0.216727,
2,1,0,1,0,12998.5,0.218543,0.218269,3.41155,7,0.0144673,10,0.000744635,-2.46705,-1.30375,-0.045254,-6.03705,0.218269,
2,1,0,1,0,12998.6,0.22003,0.219737,3.4045,7,0.014531,10,0.000748095,-2.46795,-0.943058,-0.0625624,-8.31428,0.219737,
2,1,0,1,0,12998.6,0.221534,0.22125,3.38845,7,0.0145951,10,0.000749693,-2.47,-0.79172,-0.0745213,-9.84917,0.22125,
2,1,0,1,0,12998.6,0.22303,0.222744,3.37313,7,0.0146586,10,0.000751344,-2.47197,-0.69491,-0.0849031,-11.1847,0.222744,
2,1,0,1,0,12998.6,0.224526,0.224271,3.36195,7,0.0147218,10,0.000753987,-2.47341,-0.719298,-0.0820244,-10.7688,0.224271,
2,1,0,1,0,12998.6,0.22603,0.225734,3.35062,7,0.0147851,10,0.000756349,-2.47487,-0.83889,-0.070331,-9.19259,0.225734,
2,1,0,1,0,12998.6,0.227519,0.227215,3.34278,7,0.0148475,10,0.00075953,-2.47589,-0.759385,-0.0776944,-10.1185,0.227215,
2,1,0,1,0,12998.7,0.229023,0.228717,3.32904,7,0.0149104,10,0.000761408,-2.47768,-0.768023,-0.0768206,-9.98145,0.228717,
2,1,0,1,0,12998.7,0.230526,0.230305,3.31342,7,0.0149731,10,0.000763097,-2.47972,-0.96235,-0.0613083,-7.94782,0.230305,
2,1,0,1,0,12998.7,0.232016,0.231751,3.31271,7,0.0150349,10,0.000767723,-2.47982,-1.48705,-0.0396757,-5.12262,0.231751,
2,1,0,1,0,12998.7,0.233519,0.233255,3.30465,7,0.0150972,10,0.000770827,-2.48087,-1.12155,-0.0526056,-6.75961,0.233255,
2,1,0,1,0,12998.7,0.235023,0.234727,3.29524,7,0.0151593,10,0.000773482,-2.48211,-1.41497,-0.0416969,-5.3447,0.234727,
2,1,0,1,0,12998.8,0.23651,0.236208,3.27905,7,0.0152206,10,0.00077454,-2.48425,-1.4997,-0.0393411,-5.03543,0.236208,
2,1,0,1,0,12998.8,0.238014,0.237667,3.26498,7,0.0152823,10,0.000775977,-2.48612,-2.34805,-0.0251272,-3.20496,0.237667,
2,1,0,1,0,12998.8,0.23951,0.239184,3.25678,7,0.0153436,10,0.000778967,-2.48721,-2.49296,-0.0236666,-3.01309,0.239184,
2,1,0,1,0,12998.8,0.241006,0.24071,3.25132,7,0.0154047,10,0.000782626,-2.48794,-1.9522,-0.0302223,-3.83752,0.24071,
2,1,0,1,0,12998.8,0.24251,0.242184,3.23673,7,0.015466,10,0.000783885,-2.48989,-1.5203,-0.0388081,-4.91593,0.242184,
2,1,0,1,0,12998.9,0.243999,0.243724,3.22897,7,0.0155264,10,0.000786977,-2.49094,-2.03879,-0.0289387,-3.65608,0.243724,
2,1,0,1,0,12998.9,0.245503,0.24522,3.23064,7,0.0155875,10,0.000792217,-2.49071,-1.18224,-0.0499054,-6.29049,0.24522,
2,1,0,1,0,12998.9,0.247006,0.246715,3.22303,7,0.0156484,10,0.000795169,-2.49174,-0.902136,-0.0654004,-8.21919,0.246715,
2,1,0,1,0,12998.9,0.248496,0.248205,3.21047,7,0.0157085,10,0.000796854,-2.49343,-1.0452,-0.0564486,-7.08609,0.248205,
2,1,0,1,0,12998.9,0.249999,0.249692,3.20414,7,0.015769,10,0.000800049,-2.49429,-1.08909,-0.0541735,-6.78864,0.249692,
2,1,0,1,0,12998.9,0.251503,0.251218,3.20143,7,0.0158295,10,0.000804258,-2.49466,-1.46174,-0.0403628,-5.04317,0.251218,
2,1,0,1,0,12999,0.25299,0.252728,3.19956,7,0.0158892,10,0.000808617,-2.49491,-1.05682,-0.0558277,-6.95767,0.252728,
2,1,0,1,0,12999,0.254494,0.254205,3.19386,7,0.0159495,10,0.000811894,-2.49568,-1.21606,-0.0485172,-6.04021,0.254205,
2,1,0,1,0,12999,0.25599,0.255685,3.18423,7,0.0160092,10,0.00081416,-2.497,-1.87191,-0.0315185,-3.9182,0.255685,
2,1,0,1,0,12999,0.257487,0.257207,3.18055,7,0.0160688,10,0.000818062,-2.4975,-3.38364,-0.0174368,-2.15983,0.257207,
2,1,0,1,0,12999,0.25899,0.258735,3.17371,7,0.0161287,10,0.000821149,-2.49843,-5.22757,-0.0112863,-1.39549,0.258735,
2,1,0,1,0,12999.1,0.260479,0.260206,3.17062,7,0.0161878,10,0.000825016,-2.49886,-2.29929,-0.0256601,-3.17019,0.260206,
2,1,0,1,0,12999.1,0.261983,0.261697,3.15757,7,0.0162474,10,0.000826327,-2.50065,-2.86802,-0.0205717,-2.53646,0.261697,
2,1,0,1,0,12999.1,0.263486,0.263217,3.1475,7,0.0163069,10,0.000828476,-2.50203,8.84892,0.00666748,0.819462,0.263217,
2,1,0,1,0,12999.1,0.264974,0.264706,3.14403,7,0.0163657,10,0.000832241,-2.50251,-12.9304,-0.0045629,-0.560236,0.264706,
2,1,0,1,0,12999.1,0.266477,0.266159,3.13142,7,0.0164249,10,0.000833453,-2.50426,-1.75658,-0.0335881,-4.11483,0.266159,
2,1,0,1,0,12999.2,0.267981,0.267714,3.11722,7,0.0164841,10,0.000834524,-2.50623,-1.59496,-0.0369915,-4.52201,0.267714,
2,1,0,1,0,12999.2,0.26947,0.269165,3.12131,7,0.0165425,10,0.000840146,-2.50566,-1.69658,-0.0347759,-4.24465,0.269165,
2,1,0,1,0,12999.2,0.270974,0.270703,3.12459,7,0.0166014,10,0.000845838,-2.50521,-1.87744,-0.0314257,-3.82947,0.270703,
2,1,0,1,0,12999.2,0.27247,0.27215,3.11895,7,0.01666,10,0.000848824,-2.50599,-1.14336,-0.0516023,-6.26978,0.27215,
2,1,0,1,0,12999.2,0.273967,0.273685,3.10976,7,0.0167185,10,0.000851094,-2.50727,-0.901429,-0.0654517,-7.94551,0.273685,
2,1,0,1,0,12999.2,0.27547,0.275166,3.10348,7,0.0167771,10,0.000853971,-2.50815,-0.948971,-0.0621726,-7.53991,0.275166,
2,1,0,1,0,12999.3,0.276959,0.276692,3.09434,7,0.016835,10,0.000856181,-2.50943,-2.0311,-0.0290483,-3.51268,0.276692,
2,1,0,1,0,12999.3,0.278463,0.278176,3.09567,7,0.0168934,10,0.000861141,-2.50925,-1.1579,-0.0509545,-6.14795,0.278176,
2,1,0,1,0,12999.3,0.279967,0.279675,3.09238,7,0.0169517,10,0.000864861,-2.50971,-1.79962,-0.0327847,-3.9471,0.279675,
2,1,0,1,0,12999.3,0.281454,0.281181,3.08088,7,0.0170092,10,0.000866283,-2.51133,-1.94407,-0.0303487,-3.64932,0.281181,
2,1,0,1,0,12999.3,0.282958,0.282704,3.07479,7,0.0170672,10,0.000869255,-2.51218,-4.28768,-0.0137604,-1.64927,0.282704,
2,1,0,1,0,12999.4,0.284461,0.284195,3.07268,7,0.0171252,10,0.000873239,-2.51248,-17.0784,-0.00345466,-0.413677,0.284195,
2,1,0,1,0,12999.4,0.28595,0.285702,3.06119,7,0.0171825,10,0.000874587,-2.51411,-1.81898,-0.0324358,-3.87698,0.285702,
2,1,0,1,0,12999.4,0.287454,0.287142,3.05058,7,0.0172402,10,0.000875947,-2.51562,-3.85427,-0.0153077,-1.82653,0.287142,
2,1,0,1,0,12999.4,0.28895,0.288651,3.04598,7,0.0172974,10,0.000879225,-2.51627,-4.42257,-0.0133407,-1.58712,0.288651,
2,1,0,1,0,12999.4,0.290447,0.290154,3.0421,7,0.0173546,10,0.000882676,-2.51683,-3.22405,-0.0182999,-2.17374,0.290154,
2,1,0,1,0,12999.4,0.29195,0.291648,3.03106,7,0.017412,10,0.000884005,-2.5184,-1.47612,-0.0399698,-4.73829,0.291648,
2,1,0,1,0,12999.5,0.29344,0.293152,3.02123,7,0.0174686,10,0.000885678,-2.51982,-1.37242,-0.0429898,-5.08425,0.293152,
2,1,0,1,0,12999.5,0.294943,0.294664,3.02388,7,0.0175257,10,0.000891029,-2.51944,-1.59929,-0.0368914,-4.3529,0.294664,
2,1,0,1,0,12999.5,0.296447,0.296203,3.02031,7,0.0175827,10,0.000894627,-2.51995,-1.72087,-0.034285,-4.03525,0.296203,
2,1,0,1,0,12999.5,0.297934,0.297669,3.01374,7,0.0176391,10,0.000897097,-2.52089,-1.26167,-0.0467634,-5.50129,0.297669,
2,1,0,1,0,12999.5,0.299438,0.299146,3.00388,7,0.0176958,10,0.0008986,-2.52232,-0.0258767,-2.28004,-242.534,0.2991465,
2,1,0,1,0,12999.6,0.300012,0.299766,3.00253,7,0.0177169,10,0.000900056,-2.52251,0.00109727,53.7696,3430.71,0.299766,
2,1,0,1,0,12999.6,0.298737,0.298443,1.16235,7,0.0177473,10,0.000346896,-2.93466,0.00145076,40.6683,911.461,0.298443,
2,1,0,1,0,12999.6,0.29724,0.296967,0.18699,7,0.0177586,10,5.55299e-05,-3.72818,0.00674129,8.75204,531.383,0.296967,
2,0,0,1,0,12999.6,0.295744,0.295457,-0.315395,7,0.0177568,10,-9.31857e-05,-3.50115,-0.0211682,-2.7872,282.328,0.295457,
2,0,0,1,0,12999.6,0.29424,0.293931,-0.607567,7,0.0177477,10,-0.000178583,-3.21641,-0.00593331,-9.94385,166.811,0.293931,
2,0,0,1,0,12999.6,0.292751,0.292454,-0.787325,7,0.0177343,10,-0.000230256,-3.10385,-0.0149597,-3.94394,111.524,0.292454,
2,0,0,1,0,12999.7,0.291248,0.290925,-0.927962,7,0.0177178,10,-0.000269967,-3.03247,-0.0248389,-2.37531,82.5806,0.290925,
2,0,0,1,0,12999.7,0.289744,0.289435,-1.03177,7,0.0176991,10,-0.000298631,-2.98642,-0.0359044,-1.64325,64.6316,0.289435,
2,0,0,1,0,12999.7,0.288257,0.287975,-1.11111,7,0.0176789,10,-0.000319971,-2.95424,-0.0502853,-1.1733,50.328,0.287975,
2,0,0,1,0,12999.7,0.286753,0.286416,-1.17984,7,0.017657,10,-0.000337924,-2.92818,-0.065121,-0.906006,41.5889,0.286416,
2,0,0,1,0,12999.7,0.285249,0.284939,-1.24405,7,0.017634,10,-0.000354479,-2.90516,-0.076322,-0.773041,37.5863,0.284939,
2,0,0,1,0,12999.8,0.28376,0.283426,-1.30424,7,0.01761,10,-0.000369657,-2.88464,-0.0910406,-0.648062,32.8606,0.283426,
2,0,0,1,0,12999.8,0.282257,0.28195,-1.35814,7,0.0175848,10,-0.000382927,-2.86706,-0.108986,-0.541353,28.4806,0.28195,
2,0,0,1,0,12999.8,0.28076,0.280435,-1.40388,7,0.0175588,10,-0.000393696,-2.85267,-0.121307,-0.486371,26.4879,0.280435,
2,0,0,1,0,12999.8,0.279264,0.27897,-1.44567,7,0.0175321,10,-0.000403299,-2.83993,-0.127422,-0.46303,26.0545,0.27897,
2,0,0,1,0,12999.8,0.27776,0.277431,-1.48526,7,0.0175044,10,-0.000412056,-2.8282,-0.130893,-0.450751,26.04,0.277431,
2,0,0,1,0,12999.8,0.276271,0.275963,-1.5273,7,0.0174763,10,-0.000421477,-2.81608,-0.1446,-0.408023,24.1535,0.275963,
2,0,0,1,0,12999.9,0.274767,0.274436,-1.55925,7,0.0174472,10,-0.000427913,-2.80709,-0.147906,-0.398901,24.1623,0.274436,
2,0,0,1,0,12999.9,0.273264,0.272954,-1.58677,7,0.0174175,10,-0.000433115,-2.79949,-0.150936,-0.390894,24.1907,0.272954,
2,0,0,1,0,12999.9,0.271776,0.271455,-1.62036,7,0.0173875,10,-0.000439855,-2.79039,-0.140141,-0.421006,26.5598,0.271455,
2,0,0,1,0,12999.9,0.270273,0.270021,-1.65179,7,0.0173566,10,-0.000446019,-2.78204,-0.172618,-0.341795,22,0.270021,
2,0,0,1,0,12999.9,0.268769,0.268424,-1.67842,7,0.017325,10,-0.000450528,-2.7751,-0.185017,-0.31889,20.8999,0.268424,
2,0,0,1,0,13000,0.26728,0.26699,-1.69755,7,0.0172933,10,-0.00045323,-2.77018,-0.217607,-0.27113,18.0656,0.26699,
2,0,0,1,0,13000,0.265777,0.26546,-1.73132,7,0.0172608,10,-0.000459597,-2.76162,-0.213362,-0.276525,18.7226,0.2654601,
2,0,0,1,0,13000,0.26428,0.263955,-1.75846,7,0.0172279,10,-0.000464155,-2.75487,-0.226256,-0.260767,17.9198,0.263955,
2,0,0,1,0,13000,0.262784,0.262438,-1.78682,7,0.0171946,10,-0.000468928,-2.74792,-0.277695,-0.212463,14.7962,0.262438,
2,0,0,1,0,13000,0.26128,0.26094,-1.80792,7,0.0171605,10,-0.000471758,-2.74282,-0.313948,-0.187929,13.2883,0.26094,
2,0,0,1,0,13000.1,0.259791,0.259494,-1.8283,7,0.0171265,10,-0.000474433,-2.73795,-0.302872,-0.194802,13.9618,0.2594943,
2,0,0,1,0,13000.1,0.258287,0.257969,-1.85946,7,0.0170916,10,-0.000479683,-2.73061,-0.34519,-0.17092,12.381,0.257969,
2,0,0,1,0,13000.1,0.256786,0.256476,-1.88284,7,0.0170562,10,-0.000482904,-2.72519,-0.378641,-0.15582,11.3965,0.256476,
2,0,0,1,0,13000.1,0.255296,0.254937,-1.90422,7,0.0170208,10,-0.000485456,-2.72028,-0.42293,-0.139503,10.3478,0.254937,
2,0,0,1,0,13000.1,0.253793,0.253454,-1.92528,7,0.0169848,10,-0.000487971,-2.71551,-0.35478,-0.1663,12.4714,0.253454,
2,0,0,1,0,13000.1,0.252289,0.251945,-1.94541,7,0.0169483,10,-0.000490137,-2.71099,-0.287412,-0.20528,15.5254,0.251945,
2,0,0,1,0,13000.2,0.2508,0.250451,-1.96833,7,0.0169117,10,-0.000492969,-2.7059,-0.294588,-0.20028,15.3639,0.2504507,
2,0,0,1,0,13000.2,0.249296,0.248979,-1.99032,7,0.0168744,10,-0.000495548,-2.70108,-0.362408,-0.1628,12.6071,0.248979,
2,0,0,1,0,13000.2,0.2478,0.247513,-1.99918,7,0.0168369,10,-0.000494822,-2.69915,-0.310153,-0.190229,14.884,0.247513,
2,0,0,1,0,13000.2,0.246304,0.245996,-2.02078,7,0.0167991,10,-0.000497103,-2.69448,-0.280043,-0.210682,16.6568,0.245996,
2,0,0,1,0,13000.2,0.2448,0.24449,-2.04374,7,0.0167607,10,-0.000499675,-2.68957,-0.311373,-0.189483,15.1073,0.24449,
2,0,0,1,0,13000.3,0.243313,0.242966,-2.05846,7,0.0167222,10,-0.000500135,-2.68646,-0.385976,-0.152859,12.2935,0.242966,
2,0,0,1,0,13000.3,0.241809,0.241516,-2.06844,7,0.0166831,10,-0.000499561,-2.68436,-0.453306,-0.130155,10.576,0.241516,
2,0,0,1,0,13000.3,0.240306,0.239987,-2.09209,7,0.0166437,10,-0.000502075,-2.67942,-0.364529,-0.161853,13.2686,0.239987,
2,0,0,1,0,13000.3,0.238816,0.238511,-2.11346,7,0.0166043,10,-0.000504084,-2.67501,-0.450619,-0.130931,10.8074,0.238511,
2,0,0,1,0,13000.3,0.237313,0.236976,-2.13288,7,0.0165641,10,-0.000505442,-2.67103,-0.59321,-0.099459,8.27401,0.236976,
2,0,0,1,0,13000.4,0.235809,0.235502,-2.14601,7,0.0165236,10,-0.000505389,-2.66837,-0.501392,-0.117672,9.87881,0.235502,
2,0,0,1,0,13000.4,0.23432,0.234036,-2.17048,7,0.0164833,10,-0.00050797,-2.66344,-0.597728,-0.0987071,8.36935,0.234036,
2,0,0,1,0,13000.4,0.232816,0.232423,-2.19054,7,0.0164422,10,-0.000509132,-2.65945,-0.548775,-0.107512,9.16374,0.232423,
2,0,0,1,0,13000.4,0.23132,0.230998,-2.21173,7,0.0164009,10,-0.000510906,-2.65527,-0.448878,-0.131439,11.3062,0.230998,
2,0,0,1,0,13000.4,0.229824,0.229467,-2.23,7,0.0163594,10,-0.000511711,-2.65169,-0.473682,-0.124556,10.7967,0.229467,
2,0,0,1,0,13000.4,0.22832,0.228027,-2.24043,7,0.0163173,10,-0.000510879,-2.64967,-0.48656,-0.12126,10.5893,0.228027,
2,0,0,1,0,13000.5,0.226833,0.226501,-2.25772,7,0.0162753,10,-0.000511375,-2.64633,-0.392755,-0.150221,13.2147,0.226501,
2,0,0,1,0,13000.5,0.225329,0.225033,-2.2695,7,0.0162326,10,-0.000510712,-2.64407,-0.388378,-0.151914,13.4608,0.225033,
2,0,0,1,0,13000.5,0.223825,0.2235,-2.29126,7,0.0161895,10,-0.000512098,-2.63993,-0.459778,-0.128323,11.4536,0.2235004,
2,0,0,1,0,13000.5,0.222336,0.222045,-2.29843,7,0.0161466,10,-0.000510354,-2.63857,-0.437572,-0.134835,12.145,0.222045,
2,0,0,1,0,13000.5,0.220833,0.220528,-2.31749,7,0.016103,10,-0.000511071,-2.63498,-0.416008,-0.141824,12.856,0.220528,
2,0,0,1,0,13000.6,0.219329,0.219008,-2.3412,7,0.016059,10,-0.000512742,-2.63056,-0.393029,-0.150116,13.6963,0.219008,
2,0,0,1,0,13000.6,0.21784,0.21751,-2.35354,7,0.0160152,10,-0.000511918,-2.62828,-0.502803,-0.117342,10.7536,0.21751,
2,0,0,1,0,13000.6,0.216336,0.216045,-2.36104,7,0.0159705,10,-0.000510091,-2.6269,-0.571073,-0.103314,9.56499,0.2160451,
2,0,0,1,0,13000.6,0.21484,0.214488,-2.38252,7,0.0159259,10,-0.000511022,-2.62296,-0.636917,-0.0926337,8.63455,0.214488,
2,0,0,1,0,13000.6,0.213343,0.213026,-2.40309,7,0.0158809,10,-0.000511921,-2.61923,-0.588321,-0.100285,9.40678,0.213026,
2,0,0,1,0,13000.7,0.21184,0.211542,-2.42326,7,0.0158354,10,-0.000512622,-2.6156,-0.837827,-0.0704202,6.64753,0.2115422,
2,0,0,1,0,13000.7,0.210352,0.210084,-2.44143,7,0.01579,10,-0.000512904,-2.61236,-0.548882,-0.107491,10.2267,0.210084,
2,0,0,1,0,13000.7,0.208849,0.208566,-2.45405,7,0.0157439,10,-0.000511831,-2.61012,-0.468389,-0.125964,12.0773,0.208566,
2,0,0,1,0,13000.7,0.207345,0.207007,-2.47079,7,0.0156974,10,-0.000511472,-2.60716,-0.459565,-0.128382,12.395,0.207007,
2,0,0,1,0,13000.7,0.205856,0.205557,-2.50487,7,0.015651,10,-0.000514894,-2.60121,-0.403494,-0.146223,14.2061,0.205557,
2,0,0,1,0,13000.7,0.204353,0.204033,-2.5173,7,0.0156037,10,-0.000513611,-2.59907,-0.559529,-0.105446,10.3332,0.2040327,
2,0,0,1,0,13000.8,0.202849,0.20256,-2.52592,7,0.0155562,10,-0.000511651,-2.59758,-0.488871,-0.120686,11.8894,0.20256,
2,0,0,1,0,13000.8,0.20136,0.201047,-2.54231,7,0.0155089,10,-0.000511125,-2.59477,-0.376784,-0.156588,15.5353,0.201047,
2,0,0,1,0,13000.8,0.199856,0.199527,-2.56019,7,0.0154607,10,-0.000510828,-2.59173,-0.412839,-0.142913,14.2799,0.199527,
2,0,0,1,0,13000.8,0.19836,0.19803,-2.57995,7,0.0154124,10,-0.000510908,-2.58839,-0.446394,-0.13217,13.3004,0.19803,
2,0,0,1,0,13000.8,0.196863,0.196521,-2.59417,7,0.0153639,10,-0.000509809,-2.586,-0.424931,-0.138846,14.0765,0.196521,
2,0,0,1,0,13000.9,0.19536,0.195034,-2.61447,7,0.0153147,10,-0.000509911,-2.58262,-0.421572,-0.139952,14.2877,0.1950344,
2,0,0,1,0,13000.9,0.193872,0.193544,-2.63805,7,0.0152656,10,-0.000510579,-2.57872,-0.433783,-0.136013,13.98,0.193544,
2,0,0,1,0,13000.9,0.192369,0.192041,-2.65677,7,0.0152156,10,-0.00051021,-2.57565,-0.489864,-0.120442,12.4831,0.192041,
2,0,0,1,0,13000.9,0.190865,0.190571,-2.66855,7,0.0151653,10,-0.000508548,-2.57372,-0.576873,-0.102276,10.6809,0.190571,
2,0,0,1,0,13000.9,0.189376,0.189058,-2.69451,7,0.0151151,10,-0.000509419,-2.56952,-0.555955,-0.106124,11.1949,0.189058,
2,0,0,1,0,13001,0.187872,0.187531,-2.71908,7,0.015064,10,-0.000509913,-2.56558,-0.518737,-0.113738,12.0927,0.1875314,
2,0,0,1,0,13001,0.186369,0.186059,-2.74527,7,0.0150124,10,-0.000510781,-2.56141,-0.468034,-0.126059,13.5151,0.186059,
2,0,0,1,0,13001,0.18488,0.184523,-2.77389,7,0.0149609,10,-0.000511846,-2.55691,-0.502771,-0.11735,12.6873,0.184523,
2,0,0,1,0,13001,0.183376,0.183046,-2.79429,7,0.0149085,10,-0.000511482,-2.55373,-0.442054,-0.133468,14.5511,0.183046,
2,0,0,1,0,13001,0.18188,0.181552,-2.82378,7,0.0148558,10,-0.000512663,-2.54917,-0.370205,-0.159371,17.5303,0.181552,
2,0,0,1,0,13001,0.180383,0.180044,-2.85181,7,0.0148027,10,-0.000513451,-2.54488,-0.312911,-0.188552,20.9174,0.180044,
2,0,0,1,0,13001.1,0.17888,0.178527,-2.87613,7,0.0147487,10,-0.000513467,-2.54119,-0.325215,-0.181418,20.3355,0.178527,
2,0,0,1,0,13001.1,0.177392,0.177085,-2.90286,7,0.0146949,10,-0.000514053,-2.53717,-0.314165,-0.1878,21.2807,0.177085,
2,0,0,1,0,13001.1,0.175889,0.175533,-2.93074,7,0.0146399,10,-0.00051444,-2.53302,-0.27728,-0.212782,24.3498,0.175533,
2,0,0,1,0,13001.1,0.174385,0.174062,-2.96233,7,0.0145843,10,-0.000515627,-2.52837,-0.268771,-0.219518,25.3768,0.174062,
2,0,0,1,0,13001.1,0.172896,0.172577,-2.99823,7,0.0145287,10,-0.000517428,-2.52313,-0.289665,-0.203683,23.8055,0.172577,
2,0,0,1,0,13001.2,0.171392,0.171071,-3.023,7,0.0144718,10,-0.000517146,-2.51956,-0.27023,-0.218333,25.884,0.171071,
2,0,0,1,0,13001.2,0.169889,0.169566,-3.07086,7,0.0144143,10,-0.000520715,-2.51274,-0.258478,-0.228259,27.395,0.169566,
2,0,0,1,0,13001.2,0.1684,0.168053,-3.11398,7,0.0143565,10,-0.000523314,-2.50668,-0.246174,-0.239667,29.1334,0.168053,
2,0,0,1,0,13001.2,0.166896,0.166578,-3.15635,7,0.0142974,10,-0.000525776,-2.50082,-0.267203,-0.220806,27.1821,0.166578,
2,0,0,1,0,13001.2,0.165392,0.165088,-3.20213,7,0.0142373,10,-0.000528633,-2.49456,-0.249663,-0.236319,29.5857,0.165088,
2,0,0,1,0,13001.3,0.163905,0.163603,-3.24693,7,0.0141772,10,-0.000531209,-2.48853,-0.22132,-0.266582,33.9371,0.163603,
2,0,0,1,0,13001.3,0.162401,0.162115,-3.30925,7,0.0141154,10,-0.000536479,-2.48027,-0.20876,-0.282621,36.4997,0.1621149,
2,0,0,1,0,13001.3,0.160905,0.160567,-3.36885,7,0.0140528,10,-0.000540925,-2.47252,-0.199177,-0.296219,38.9007,0.1605666,
2,0,0,1,0,13001.3,0.159409,0.1591,-3.43537,7,0.013989,10,-0.000546569,-2.46403,-0.193423,-0.305031,40.8318,0.1591,
2,0,0,1,0,13001.3,0.157905,0.157577,-3.49768,7,0.0139238,10,-0.000551155,-2.45622,-0.172167,-0.342691,46.8062,0.157577,
2,0,0,1,0,13001.3,0.156416,0.156069,-3.57381,7,0.013858,10,-0.00055776,-2.44687,-0.150844,-0.391131,54.5857,0.156069,
2,0,0,1,0,13001.4,0.154912,0.15458,-3.65868,7,0.0137898,10,-0.000565559,-2.43668,-0.141572,-0.416748,59.5575,0.15458,
2,0,0,1,0,13001.4,0.153409,0.153082,-3.74097,7,0.0137201,10,-0.000572674,-2.42702,-0.137958,-0.427668,62.6115,0.153082,
2,0,0,1,0,13001.4,0.151919,0.151565,-3.8355,7,0.0136494,10,-0.000581327,-2.41618,-0.126996,-0.464582,69.7866,0.151565,
2,0,0,1,0,13001.4,0.150416,0.150073,-3.94292,7,0.0135761,10,-0.000591727,-2.40418,-0.115096,-0.512614,79.0642,0.150073,
2,0,0,1,0,13001.4,0.148912,0.148556,-4.06262,7,0.0135006,10,-0.000603527,-2.39119,-0.11112,-0.530959,84.3778,0.148556,
2,0,0,1,0,13001.5,0.147425,0.147073,-4.19077,7,0.0134236,10,-0.000616349,-2.37771,-0.105905,-0.557104,91.2543,0.147073,
2,0,0,1,0,13001.5,0.145921,0.145646,-4.32242,7,0.0133433,10,-0.000629543,-2.36427,-0.102463,-0.575817,97.5224,0.145646,
2,0,0,1,0,13001.5,0.144425,0.144109,-4.47892,7,0.0132607,10,-0.000645455,-2.34883,-0.0965839,-0.610868,107.24,0.1441094,
2,0,0,1,0,13001.5,0.142929,0.142595,-4.65684,7,0.0131751,10,-0.000664042,-2.33191,-0.0931795,-0.633186,115.154,0.142595,
2,0,0,1,0,13001.5,0.141425,0.141079,-4.83217,7,0.0130857,10,-0.000681716,-2.31586,-0.0918496,-0.642355,121.191,0.141079,
2,0,0,1,0,13001.6,0.139936,0.139615,-5.02529,7,0.0129938,10,-0.000701606,-2.29884,-0.090494,-0.651977,127.947,0.139615,
2,0,0,1,0,13001.6,0.138432,0.138123,-5.22269,7,0.0128973,10,-0.000721375,-2.28211,-0.0894899,-0.659292,134.583,0.138123,
2,0,0,1,0,13001.6,0.136929,0.1366,-5.43628,7,0.0127969,10,-0.000742594,-2.2647,-0.0882098,-0.66886,141.922,0.1366,
2,0,0,1,0,13001.6,0.135439,0.135068,-5.65577,7,0.0126936,10,-0.000763915,-2.24751,-0.0882725,-0.668385,147.504,0.135068,
2,0,0,1,0,13001.6,0.133936,0.13358,-5.88974,7,0.012585,10,-0.000786751,-2.2299,-0.0902655,-0.653628,149.843,0.13358,
2,0,0,1,0,13001.6,0.132432,0.132156,-6.11184,7,0.0124721,10,-0.000807716,-2.21383,-0.0935728,-0.630525,150.112,0.132156,
2,0,0,1,0,13001.7,0.130945,0.130602,-6.34114,7,0.0123561,10,-0.000828165,-2.19783,-0.0944086,-0.624943,154.352,0.130602,
2,0,0,1,0,13001.7,0.129441,0.129156,-6.55717,7,0.0122348,10,-0.000846898,-2.18328,-0.0995712,-0.592541,151.712,0.129156,
2,0,0,1,0,13001.7,0.127945,0.127619,-6.78732,7,0.0121097,10,-0.000866193,-2.1683,-0.103513,-0.569978,150.687,0.127619,
2,0,0,1,0,13001.7,0.126448,0.126106,-7.00143,7,0.0119806,10,-0.000882922,-2.15481,-0.113077,-0.521768,142.425,0.126106,
2,0,0,1,0,13001.7,0.124945,0.124615,-7.21239,7,0.0118467,10,-0.000898776,-2.14192,-0.119475,-0.493828,138.731,0.124615,
2,0,0,1,0,13001.8,0.123456,0.123179,-7.41308,7,0.0117104,10,-0.000913134,-2.13,-0.129222,-0.456577,131.938,0.123179,
2,0,0,1,0,13001.8,0.121952,0.121622,-7.60282,7,0.011569,10,-0.000924668,-2.11903,-0.14571,-0.404913,119.959,0.121622,
2,0,0,1,0,13001.8,0.120449,0.120116,-7.77529,7,0.0114241,10,-0.00093394,-2.10928,-0.16078,-0.366961,111.29,0.120116,
2,0,0,1,0,13001.8,0.118959,0.118643,-7.9466,7,0.0112776,10,-0.000942808,-2.09982,-0.172554,-0.341922,105.975,0.118643,
2,0,0,1,0,13001.8,0.117456,0.117168,-8.10091,7,0.0111265,10,-0.000949171,-2.09147,-0.192081,-0.307162,96.999,0.117168,
2,0,0,1,0,13001.9,0.115952,0.115616,-8.24948,7,0.0109725,10,-0.000953774,-2.08357,-0.220127,-0.268028,86.0679,0.115616,
2,0,0,1,0,13001.9,0.114465,0.114155,-8.37435,7,0.0108177,10,-0.000955977,-2.07705,-0.247101,-0.238769,77.9252,0.1141553,
2,0,0,1,0,13001.9,0.112961,0.112609,-8.49057,7,0.010659,10,-0.000956117,-2.07106,-0.276268,-0.213561,70.6701,0.112609,
2,0,0,1,0,13001.9,0.111465,0.111154,-8.5866,7,0.0104992,10,-0.000954433,-2.06618,-0.305746,-0.192971,64.58,0.111154,
2,0,0,1,0,13001.9,0.109968,0.109634,-8.69104,7,0.0103375,10,-0.000952834,-2.06093,-0.363474,-0.162323,54.9001,0.109634,
2,0,0,1,0,13001.9,0.108465,0.108153,-8.75928,7,0.0101733,10,-0.000947339,-2.05753,-0.440982,-0.133792,45.6457,0.108153,
2,0,0,1,0,13002,0.106976,0.106686,-8.82238,7,0.0100097,10,-0.000941222,-2.05441,-0.504863,-0.116863,40.1807,0.106686,
2,0,0,1,0,13002,0.105472,0.105122,-8.87394,7,0.0098432,10,-0.000932845,-2.05188,-0.586476,-0.100601,34.7986,0.105122,
2,0,0,1,0,13002,0.103968,0.103695,-8.91802,7,0.00967582,10,-0.000924755,-2.04973,-0.810314,-0.0728113,25.2994,0.1036951,
2,0,0,1,0,13002,0.102479,0.102153,-8.94099,7,0.00950953,10,-0.00091335,-2.04861,-1.59077,-0.0370891,12.9188,0.102153,
2,0,0,1,0,13002,0.100976,0.100657,-8.94389,7,0.00934115,10,-0.000900266,-2.04847,-3.85394,-0.015309,5.34145,0.100657,
2,0,0,1,0,13002.1,0.0994721,0.0991656,-8.94338,7,0.00917274,10,-0.000886876,-2.0485,6.06405,0.00972947,-3.3933,0.0991656,
2,0,0,1,0,13002.1,0.0979846,0.097655,-8.9317,7,0.00900625,10,-0.000872225,-2.04907,1.78505,0.0330524,-11.5107,0.097655,
2,0,0,1,0,13002.1,0.0964811,0.0961416,-8.90559,7,0.00883829,10,-0.000856198,-2.05034,0.8802,0.0670302,-23.2674,0.0961416,
2,0,0,1,0,13002.1,0.0949847,0.0946752,-8.86332,7,0.00867183,10,-0.000839137,-2.0524,0.599007,0.0984963,-34.0484,0.0946752,
2,0,0,1,0,13002.1,0.0934883,0.0931664,-8.81269,7,0.00850635,10,-0.000821047,-2.05489,0.511525,0.115341,-39.6763,0.0931664,
2,0,0,1,0,13002.2,0.0919847,0.091605,-8.75366,7,0.00834101,10,-0.000801879,-2.05781,0.456268,0.12931,-44.1417,0.091605,
2,0,0,1,0,13002.2,0.0904955,0.0901912,-8.69286,7,0.00817854,10,-0.000784019,-2.06084,0.387243,0.152359,-51.5805,0.0901912,
2,0,0,1,0,13002.2,0.0889919,0.0886465,-8.61386,7,0.00801576,10,-0.000763588,-2.0648,0.338366,0.174367,-58.5403,0.0886465,
2,0,0,1,0,13002.2,0.0874884,0.0871767,-8.51975,7,0.0078546,10,-0.000742724,-2.06957,0.331103,0.178192,-59.2309,0.0871767,
2,0,0,1,0,13002.2,0.0860009,0.0856293,-8.43747,7,0.00769679,10,-0.000722495,-2.07379,0.328036,0.179858,-59.1707,0.0856293,
2,0,0,1,0,13002.2,0.0844973,0.0842039,-8.34842,7,0.00753898,10,-0.00070297,-2.0784,0.317019,0.186109,-60.5552,0.0842039,
2,0,0,1,0,13002.3,0.0829938,0.0827573,-8.24845,7,0.00738283,10,-0.000682619,-2.08363,0.324957,0.181563,-58.4416,0.0827573,
2,0,0,1,0,13002.3,0.0815045,0.0811895,-8.15617,7,0.00723015,10,-0.000662195,-2.08851,0.321576,0.183471,-58.4391,0.0811895,
2,0,0,1,0,13002.3,0.080001,0.0797139,-8.06435,7,0.0070775,10,-0.000642841,-2.09343,0.344215,0.171405,-54.0019,0.0797139,
2,0,0,1,0,13002.3,0.0785046,0.0781808,-7.98922,7,0.00692719,10,-0.000624603,-2.0975,0.379257,0.155567,-48.5338,0.0781808,
2,0,0,1,0,13002.3,0.0770082,0.0766651,-7.90629,7,0.00677833,10,-0.000606137,-2.10203,0.366069,0.161172,-49.776,0.0766651,
2,0,0,1,0,13002.4,0.0755046,0.0751964,-7.82986,7,0.00663009,10,-0.000588777,-2.10625,0.38765,0.152199,-46.6062,0.07519637,
2,0,0,1,0,13002.4,0.0740154,0.0736377,-7.767,7,0.00648479,10,-0.000571944,-2.10975,0.425913,0.138526,-42.0452,0.0736377,
2,0,0,1,0,13002.4,0.0725118,0.0722164,-7.70802,7,0.0063391,10,-0.000556645,-2.11306,0.465276,0.126806,-38.1692,0.0722164,
2,0,0,1,0,13002.4,0.0710083,0.0706706,-7.65105,7,0.00619448,10,-0.000540704,-2.11628,0.440422,0.133962,-39.9991,0.0706706,
2,0,0,1,0,13002.4,0.0695208,0.069174,-7.597,7,0.00605243,10,-0.000525515,-2.11936,0.470502,0.125398,-37.2066,0.069174,
2,0,0,1,0,13002.5,0.0680173,0.0676889,-7.54689,7,0.00590992,10,-0.000510841,-2.12223,0.533589,0.110572,-32.6158,0.0676889,
2,0,0,1,0,13002.5,0.0665137,0.0661585,-7.50292,7,0.00576826,10,-0.000496382,-2.12477,0.58041,0.101652,-29.7728,0.0661585,
2,0,0,1,0,13002.5,0.0650244,0.0646963,-7.46736,7,0.00562887,10,-0.00048311,-2.12683,0.540802,0.109097,-31.7516,0.0646963,
2,0,0,1,0,13002.5,0.0635209,0.0632055,-7.42492,7,0.00548876,10,-0.000469295,-2.12931,0.569897,0.103527,-29.9609,0.0632055,
2,0,0,1,0,13002.5,0.0620245,0.0617081,-7.38105,7,0.00535031,10,-0.000455471,-2.13188,0.600633,0.0982296,-28.2878,0.0617081,
2,0,0,1,0,13002.5,0.0605281,0.0602237,-7.34334,7,0.00521261,10,-0.000442243,-2.13411,0.711378,0.0829376,-23.7389,0.06022374,
2,0,0,1,0,13002.6,0.0590246,0.0586879,-7.30138,7,0.00507484,10,-0.000428503,-2.13659,0.678826,0.0869148,-24.752,0.0586879,
2,0,0,1,0,13002.6,0.0575353,0.0572437,-7.26947,7,0.00493929,10,-0.000416131,-2.1385,0.639978,0.0921907,-26.1233,0.0572437,
2,0,0,1,0,13002.6,0.0560317,0.055712,-7.21543,7,0.00480307,10,-0.000401986,-2.14174,0.74565,0.0791256,-22.2895,0.055712,
2,0,0,1,0,13002.6,0.0545282,0.0541553,-7.18225,7,0.00466755,10,-0.000388957,-2.14374,0.835494,0.0706169,-19.791,0.0541553,
2,0,0,1,0,13002.6,0.0530407,0.0527078,-7.14818,7,0.00453412,10,-0.000376765,-2.1458,0.809255,0.0729066,-20.3241,0.0527078,
2,0,0,1,0,13002.7,0.0515372,0.0511723,-7.10123,7,0.00439992,10,-0.000363386,-2.14867,0.612282,0.0963609,-26.7096,0.05117226,
2,0,0,1,0,13002.7,0.0500336,0.0497077,-7.05293,7,0.00426651,10,-0.000350585,-2.15163,0.566655,0.10412,-28.7005,0.0497077,
2,0,0,1,0,13002.7,0.0485444,0.0482205,-7.01569,7,0.00413538,10,-0.0003383,-2.15393,0.590079,0.0999866,-27.4176,0.0482205,
2,0,0,1,0,13002.7,0.0470408,0.0467215,-6.97871,7,0.00400355,10,-0.000326056,-2.15622,0.583728,0.101074,-27.5449,0.0467215,
2,0,0,1,0,13002.7,0.0455444,0.0452187,-6.94315,7,0.00387311,10,-0.00031396,-2.15844,0.525834,0.112203,-30.3867,0.0452187,
2,0,0,1,0,13002.8,0.044048,0.0437296,-6.90239,7,0.00374345,10,-0.000301838,-2.161,0.485606,0.121498,-32.7284,0.0437296,
2,0,0,1,0,13002.8,0.0425445,0.0422268,-6.85591,7,0.00361397,10,-0.000289503,-2.16393,0.513266,0.11495,-30.7852,0.0422268,
2,0,0,1,0,13002.8,0.0410552,0.0407468,-6.82141,7,0.00348666,10,-0.000277951,-2.16613,0.549739,0.107324,-28.5516,0.0407468,
2,0,0,1,0,13002.8,0.0395517,0.0392263,-6.78436,7,0.00335869,10,-0.000266126,-2.16849,0.516948,0.114131,-30.1625,0.0392263,
2,0,0,1,0,13002.8,0.0380481,0.0377034,-6.73886,7,0.00323155,10,-0.000254078,-2.17141,0.465129,0.126846,-33.2997,0.0377034,
2,0,0,1,0,13002.8,0.0365606,0.0362443,-6.68288,7,0.0031067,10,-0.000242216,-2.17504,0.482386,0.122309,-31.8767,0.0362443,
2,0,0,1,0,13002.9,0.0350571,0.0347193,-6.63442,7,0.00298144,10,-0.000230343,-2.1782,0.525001,0.112381,-29.0837,0.0347193,
2,0,0,1,0,13002.9,0.0335535,0.0332677,-6.58188,7,0.00285704,10,-0.000218964,-2.18165,0.493352,0.11959,-30.7049,0.0332677,
2,0,0,1,0,13002.9,0.0320643,0.0317427,-6.53165,7,0.00273491,10,-0.000207332,-2.18498,0.434059,0.135926,-34.6152,0.0317427,
2,0,0,1,0,13002.9,0.0305607,0.0302444,-6.46665,7,0.00261252,10,-0.00019558,-2.18932,0.428704,0.137624,-34.768,0.03024438,
2,0,0,1,0,13002.9,0.0290643,0.0287098,-6.41047,7,0.00249186,10,-0.000184043,-2.19311,0.449622,0.131221,-32.8694,0.0287098,
2,0,0,1,0,13003,0.0275679,0.0271945,-6.36333,7,0.00237219,10,-0.000173048,-2.19632,0.414858,0.142217,-35.2966,0.0271945,
2,0,0,1,0,13003,0.0260644,0.025737,-6.30637,7,0.00225286,10,-0.000162307,-2.20022,0.376921,0.156531,-38.4891,0.025737,
2,0,0,1,0,13003,0.0245751,0.0242527,-6.23972,7,0.00213592,10,-0.00015133,-2.20483,0.350899,0.168139,-40.967,0.0242527,
2,0,0,1,0,13003,0.0230716,0.022769,-6.1836,7,0.00201891,10,-0.000140794,-2.20876,0.338801,0.174143,-42.0545,0.022769,
2,0,0,1,0,13003,0.021568,0.0212427,-6.12341,7,0.00190297,10,-0.000130078,-2.21301,0.387453,0.152277,-36.424,0.0212427,
2,0,0,1,0,13003,0.0200805,0.019777,-6.069,7,0.00178931,10,-0.000120027,-2.21688,0.34362,0.171701,-40.6783,0.01977703,
2,0,0,1,0,13003.1,0.018577,0.0182163,-6.01357,7,0.00167551,10,-0.000109545,-2.22087,0.347521,0.169774,-39.8584,0.0182163,
2,0,0,1,0,13003.1,0.0170735,0.0167742,-5.95325,7,0.00156289,10,-9.98609e-05,-2.22525,0.35631,0.165586,-38.5019,0.0167742,
2,0,0,1,0,13003.1,0.0155842,0.0152598,-5.90153,7,0.00145245,10,-9.00563e-05,-2.22904,0.381324,0.154724,-35.6347,0.0152598,
2,0,0,1,0,13003.1,0.0140806,0.0137536,-5.85197,7,0.0013418,10,-8.04858e-05,-2.2327,0.37939,0.155513,-35.5029,0.0137536,
2,0,0,1,0,13003.1,0.0125842,0.0122394,-5.80401,7,0.00123269,10,-7.10375e-05,-2.23627,0.389397,0.151516,-34.3126,0.0122394,
2,0,0,1,0,13003.2,0.0110878,0.0107647,-5.74943,7,0.00112458,10,-6.18912e-05,-2.24038,0.411503,0.143377,-32.1763,0.0107647,
2,0,0,1,0,13003.2,0.00958429,0.00924969,-5.70453,7,0.00101679,10,-5.27651e-05,-2.24378,0.471228,0.125205,-27.8617,0.00924969,
2,0,0,1,0,13003.2,0.0080968,0.00777145,-5.66292,7,0.000910956,10,-4.40091e-05,-2.24696,0.530433,0.11123,-24.5783,0.00777145,
2,0,0,1,0,13003.2,0.00659326,0.00628877,-5.6148,7,0.000804779,10,-3.53102e-05,-2.25067,0.510893,0.115484,-25.322,0.00628877,
2,0,0,1,0,13003.2,0.00508972,0.00478906,-5.57481,7,0.00069936,10,-2.66981e-05,-2.25377,0.595137,0.0991369,-21.6078,0.00478906,
2,0,0,1,0,13003.3,0.00360044,0.00328422,-5.53853,7,0.000595789,10,-1.81898e-05,-2.25661,1.37084,0.0430393,-9.3488,0.00328422,
2,0,0,1,0,13003.3,0.0020969,0.00172997,-5.55612,7,0.00049157,10,-9.61192e-06,-2.25523,1.04823,0.0562854,-12.1398,0.00172997,
2,0,0,1,0,13003.3,0.000593362,0.000180831,-5.50865,7,0.000387349,10,-9.96137e-07,-2.25895, , , ,0.000180831,
2,0,0,1,0,13003.3,0.000199195,-0.000151629,-5.50287,7,0.000360336,10,8.34394e-07,-2.25941, , , ,-0.000151629,