File: Figure_codes/Fig_3-5/rawdata_trumpetplot_data/after 10th/20221101_1-115_003_TrumpetPlot_ParaChange_from10_every3_08_CV_C01_4.csv
mode,ox/red,error,control changes,counter inc.,time/s,control/V,Ewe/V,<I>/mA,cycle number,(Q-Qo)/C,I Range,P/W,log(|I|),Tafel slope mV/dec,alpha_eff,dI/d(E-IR),E-IR/V,
2,0,0,0,0,9055.54,2.44065e-05,-0.000248974,-3.99318,5,0.0000000E+000,10,9.94199e-07,-2.39868, , , ,-0.000248974,
2,0,0,1,0,9055.56,0.0012943,0.000916034,-1.75668,5,-4.25989e-05,10,-1.60918e-06,-2.75531, , , ,0.000916034,
2,0,0,1,0,9055.57,0.00279784,0.00247608,-0.170868,5,-5.93735e-05,10,-4.23083e-07,-3.76734,-0.0103633,-5.69317,864.998,0.00247608,
2,1,0,1,0,9055.59,0.00429425,0.00402395,0.772655,5,-5.29327e-05,10,3.10913e-06,-3.11201,0.00987892,5.97231,552.374,0.00402395,
2,1,0,1,0,9055.61,0.00579065,0.00544654,1.39599,5,-3.20794e-05,10,7.60333e-06,-2.85512,0.00661867,8.91418,367.829,0.00544654,
2,1,0,1,0,9055.63,0.0072942,0.00701886,1.84242,5,-1.20331e-06,10,1.29317e-05,-2.73461,0.0145239,4.06227,266.886,0.00701886,
2,1,0,1,0,9055.65,0.00878347,0.00843644,2.16804,5,3.64811e-05,10,1.82906e-05,-2.66393,0.0239489,2.46358,199.419,0.00843644,
2,1,0,1,0,9055.67,0.010287,0.00999614,2.41684,5,7.99679e-05,10,2.41591e-05,-2.61675,0.0360094,1.63846,150.409,0.00999614,
2,1,0,1,0,9055.69,0.0117905,0.0114976,2.6082,5,0.00012757,10,2.99879e-05,-2.58366,0.0505258,1.16772,117.17,0.0114976,
2,1,0,1,0,9055.71,0.013278,0.0129635,2.76117,5,0.000177821,10,3.57945e-05,-2.55891,0.063654,0.926886,99.1963,0.01296354,
2,1,0,1,0,9055.72,0.0147816,0.0144769,2.894,5,0.000231336,10,4.18962e-05,-2.5385,0.0812758,0.725923,81.6243,0.0144769,
2,1,0,1,0,9055.74,0.0162851,0.0159896,3.01384,5,0.000287261,10,4.819e-05,-2.52088,0.0978075,0.603226,70.5358,0.0159896,
2,1,0,1,0,9055.76,0.0177744,0.0174518,3.11557,5,0.000344531,10,5.43722e-05,-2.50646,0.11865,0.497259,60.2924,0.0174518,
2,1,0,1,0,9055.78,0.0192779,0.0189508,3.19854,5,0.000404147,10,6.06149e-05,-2.49505,0.129111,0.456971,57.0303,0.0189508,
2,1,0,1,0,9055.8,0.0207743,0.0205082,3.29683,5,0.000465158,10,6.7612e-05,-2.4819,0.136599,0.431921,55.4263,0.0205082,
2,1,0,1,0,9055.82,0.0222707,0.021983,3.37998,5,0.000527764,10,7.43021e-05,-2.47109,0.147123,0.401025,52.7652,0.021983,
2,1,0,1,0,9055.84,0.0237743,0.0234394,3.46024,5,0.000592207,10,8.11061e-05,-2.46089,0.163575,0.360691,48.5615,0.0234394,
2,1,0,1,0,9055.86,0.0252636,0.0249654,3.52297,5,0.000657313,10,8.79523e-05,-2.45309,0.16533,0.356862,49.0977,0.0249654,
2,1,0,1,0,9055.87,0.0267671,0.026459,3.60831,5,0.000724503,10,9.54721e-05,-2.4427,0.157054,0.375667,52.8053,0.026459,
2,1,0,1,0,9055.89,0.0282706,0.0279805,3.68065,5,0.000793144,10,0.000102986,-2.43408,0.158198,0.37295,53.5205,0.0279805,
2,1,0,1,0,9055.91,0.0297581,0.0294475,3.75669,5,0.000862493,10,0.000110625,-2.4252,0.17224,0.342546,50.0414,0.0294475,
2,1,0,1,0,9055.93,0.0312617,0.0309257,3.81905,5,0.000933932,10,0.000118107,-2.41804,0.174332,0.338436,50.4796,0.0309257,
2,1,0,1,0,9055.95,0.0327652,0.0324565,3.88641,5,0.00100662,10,0.000126139,-2.41045,0.179937,0.327893,49.7953,0.0324565,
2,1,0,1,0,9055.97,0.0342545,0.0339177,3.95501,5,0.0010799,10,0.000134145,-2.40285,0.173731,0.339606,52.5453,0.0339177,
2,1,0,1,0,9055.99,0.035758,0.0354818,4.03213,5,0.00115535,10,0.000143067,-2.39447,0.201762,0.292424,46.0049,0.0354818,
2,1,0,1,0,9056.01,0.0372544,0.0369492,4.10747,5,0.0012318,10,0.000151768,-2.38643,0.195053,0.302481,48.4991,0.0369492,
2,1,0,1,0,9056.02,0.0387508,0.0383977,4.17859,5,0.00130944,10,0.000160448,-2.37897,0.206378,0.285883,46.6422,0.0383977,
2,1,0,1,0,9056.04,0.0402544,0.0399591,4.24755,5,0.0013889,10,0.000169729,-2.37186,0.200653,0.29404,48.766,0.0399591,
2,1,0,1,0,9056.06,0.0417437,0.0414292,4.32338,5,0.00146891,10,0.000179114,-2.36418,0.221533,0.266326,44.9069,0.0414292,
2,1,0,1,0,9056.08,0.0432472,0.0429974,4.39809,5,0.00155114,10,0.000189107,-2.35674,0.232215,0.254074,43.5627,0.0429974,
2,1,0,1,0,9056.1,0.0447507,0.0444859,4.46421,5,0.00163462,10,0.000198594,-2.35026,0.229894,0.25664,44.723,0.0444859,
2,1,0,1,0,9056.12,0.0462382,0.0459028,4.53318,5,0.00171846,10,0.000208086,-2.3436,0.226014,0.261045,46.1747,0.0459028,
2,1,0,1,0,9056.14,0.0477418,0.04744,4.60746,5,0.00180454,10,0.000218578,-2.33654,0.228871,0.257787,46.2898,0.04744,
2,1,0,1,0,9056.16,0.0492453,0.0489738,4.67554,5,0.00189199,10,0.000228979,-2.33017,0.229108,0.25752,46.8858,0.0489738,
2,1,0,1,0,9056.17,0.0507346,0.0503992,4.73947,5,0.00197975,10,0.000238865,-2.32427,0.237364,0.248564,45.9635,0.0503992,
2,1,0,1,0,9056.19,0.0522381,0.0519027,4.8083,5,0.00206967,10,0.000249564,-2.31801,0.226503,0.260482,48.9085,0.0519027,
2,1,0,1,0,9056.21,0.0537345,0.0534594,4.88556,5,0.00216043,10,0.000261179,-2.31109,0.231149,0.255247,48.5793,0.0534594,
2,1,0,1,0,9056.23,0.0552309,0.0549229,4.94726,5,0.00225256,10,0.000271718,-2.30564,0.25,0.236,45.469,0.0549229,
2,1,0,1,0,9056.25,0.0567345,0.0564349,5.00005,5,0.0023464,10,0.000282178,-2.30103,0.256795,0.229755,44.9085,0.0564349,
2,1,0,1,0,9056.27,0.0582237,0.0579111,5.06864,5,0.00244031,10,0.00029353,-2.29511,0.258309,0.228409,45.2605,0.0579111,
2,1,0,1,0,9056.29,0.0597273,0.0594446,5.1317,5,0.00253647,10,0.000305051,-2.28974,0.277734,0.212433,42.5771,0.0594446,
2,1,0,1,0,9056.31,0.0612308,0.0609491,5.20177,5,0.00263394,10,0.000317043,-2.28385,0.290375,0.203185,41.1924,0.0609491,
2,1,0,1,0,9056.32,0.0627183,0.0623741,5.25797,5,0.00273152,10,0.000327961,-2.27918,0.306065,0.19277,39.5884,0.0623741,
2,1,0,1,0,9056.34,0.0642219,0.0639536,5.32162,5,0.00283126,10,0.000340337,-2.27396,0.300745,0.196179,40.794,0.0639536,
2,1,0,1,0,9056.36,0.0657254,0.0654451,5.38898,5,0.0029322,10,0.000352683,-2.26849,0.314912,0.187354,39.3799,0.0654451,
2,1,0,1,0,9056.38,0.0672147,0.0669145,5.4544,5,0.00303331,10,0.000364978,-2.26325,0.316623,0.186341,39.5951,0.0669145,
2,1,0,1,0,9056.4,0.0687182,0.0683877,5.51581,5,0.0031366,10,0.000377214,-2.25839,0.349132,0.16899,36.3428,0.0683877,
2,1,0,1,0,9056.42,0.0702146,0.069941,5.57048,5,0.00324039,10,0.000389605,-2.25411,0.351856,0.167682,36.4379,0.069941,
2,1,0,1,0,9056.44,0.071711,0.0713878,5.63247,5,0.00334525,10,0.000402089,-2.2493,0.332492,0.177448,38.9358,0.0713878,
2,1,0,1,0,9056.46,0.0732146,0.0728851,5.69379,5,0.00345182,10,0.000414992,-2.2446,0.338216,0.174445,38.6873,0.0728851,
2,1,0,1,0,9056.47,0.0747038,0.0744019,5.74597,5,0.00355831,10,0.000427511,-2.24064,0.348791,0.169156,37.8853,0.0744019,
2,1,0,1,0,9056.49,0.0762074,0.0758777,5.79237,5,0.00366694,10,0.000439512,-2.23714,0.357048,0.165244,37.3666,0.0758777,
2,1,0,1,0,9056.51,0.0777109,0.0773952,5.85135,5,0.00377656,10,0.000452866,-2.23274,0.339241,0.173918,39.6828,0.0773952,
2,1,0,1,0,9056.53,0.0791984,0.0788874,5.90352,5,0.00388607,10,0.000465713,-2.22889,0.352904,0.167184,38.4907,0.0788874,
2,1,0,1,0,9056.55,0.0807019,0.0803779,5.9528,5,0.00399776,10,0.000478473,-2.22528,0.382358,0.154306,35.8231,0.0803779,
2,1,0,1,0,9056.57,0.0822055,0.0818851,5.99908,5,0.00411041,10,0.000491235,-2.22192,0.405159,0.145622,34.1076,0.0818851,
2,1,0,1,0,9056.59,0.0836947,0.0833746,6.04286,5,0.00422271,10,0.000503821,-2.21876,0.423413,0.139344,32.9029,0.0833746,
2,1,0,1,0,9056.6,0.0851983,0.0849163,6.09339,5,0.00433716,10,0.000517428,-2.21514,0.416779,0.141562,33.7132,0.0849163,
2,1,0,1,0,9056.62,0.0866947,0.0864035,6.15407,5,0.004452,10,0.000531733,-2.21084,0.433157,0.136209,32.7071,0.0864035,
2,1,0,1,0,9056.64,0.0881911,0.0878905,6.20795,5,0.00456782,10,0.00054562,-2.20705,0.470204,0.125477,30.399,0.0878905,
2,1,0,1,0,9056.66,0.0896946,0.0894001,6.25593,5,0.00468515,10,0.00055928,-2.20371,0.421783,0.139882,34.2032,0.0894001,
2,1,0,1,0,9056.68,0.0911839,0.0908834,6.32119,5,0.00480226,10,0.000574491,-2.1992,0.361762,0.163091,40.2122,0.0908834,
2,1,0,1,0,9056.7,0.0926857,0.0924148,6.38371,5,0.00492188,10,0.00058995,-2.19493,0.36427,0.161968,40.313,0.0924148,
2,1,0,1,0,9056.72,0.0941892,0.0938846,6.44202,5,0.00504266,10,0.000604807,-2.19098,0.368956,0.15991,40.2101,0.0938846,
2,1,0,1,0,9056.74,0.0956785,0.0954228,6.50431,5,0.00516325,10,0.00062066,-2.1868,0.346619,0.170216,43.2456,0.0954228,
2,1,0,1,0,9056.75,0.097182,0.0969143,6.57927,5,0.00528636,10,0.000637626,-2.18182,0.300271,0.196489,50.4411,0.0969143,
2,1,0,1,0,9056.77,0.0986856,0.0983673,6.655,5,0.0054109,10,0.000654634,-2.17685,0.279053,0.211429,54.9278,0.0983673,
2,1,0,1,0,9056.79,0.100175,0.0998885,6.73743,5,0.00553559,10,0.000672992,-2.17151,0.260993,0.22606,59.4749,0.0998885,
2,1,0,1,0,9056.81,0.101678,0.101366,6.82026,5,0.00566325,10,0.000691341,-2.1662,0.238606,0.24727,65.8879,0.101366,
2,1,0,1,0,9056.83,0.103175,0.102857,6.91708,5,0.00579199,10,0.000711473,-2.16008,0.225897,0.261181,70.6174,0.102857,
2,1,0,1,0,9056.85,0.104671,0.104351,7.03231,5,0.00592262,10,0.000733827,-2.1529,0.222581,0.265073,72.7149,0.104351,
2,1,0,1,0,9056.87,0.106175,0.105842,7.13176,5,0.00605606,10,0.000754843,-2.1468,0.225707,0.261401,72.7726,0.105842,
2,1,0,1,0,9056.89,0.107662,0.10737,7.24718,5,0.00619014,10,0.000778128,-2.13983,0.225477,0.261668,74.0445,0.10737,
2,1,0,1,0,9056.9,0.109166,0.10889,7.35794,5,0.00632764,10,0.000801208,-2.13324,0.227618,0.259206,74.5206,0.10889,
2,1,0,1,0,9056.92,0.110669,0.110349,7.476,5,0.00646737,10,0.00082497,-2.12633,0.221313,0.266591,77.8337,0.110349,
2,1,0,1,0,9056.94,0.112159,0.111886,7.59975,5,0.00660786,10,0.000850308,-2.1192,0.22462,0.262666,77.8832,0.111886,
2,1,0,1,0,9056.96,0.113662,0.113349,7.72311,5,0.00675208,10,0.000875406,-2.11221,0.237255,0.248678,74.8943,0.113349,
2,1,0,1,0,9056.98,0.115166,0.11486,7.83366,5,0.00689854,10,0.000899772,-2.10604,0.234642,0.251446,76.8464,0.11486,
2,1,0,1,0,9057,0.116655,0.116344,7.95577,5,0.00704556,10,0.000925602,-2.09932,0.246659,0.239196,74.2011,0.116344,
2,1,0,1,0,9057.02,0.118158,0.117885,8.07314,5,0.00719639,10,0.0009517,-2.09296,0.25388,0.232393,73.0921,0.117885,
2,1,0,1,0,9057.04,0.119655,0.119292,8.18159,5,0.00734853,10,0.000976,-2.08716,0.270699,0.217954,69.4795,0.119292,
2,1,0,1,0,9057.05,0.121151,0.12086,8.27806,5,0.00750254,10,0.00100049,-2.08207,0.296073,0.199275,64.3168,0.12086,
2,1,0,1,0,9057.07,0.122655,0.122327,8.36855,5,0.00765918,10,0.0010237,-2.07735,0.301047,0.195983,63.9519,0.122327,
2,1,0,1,0,9057.09,0.124142,0.123859,8.45741,5,0.00781585,10,0.00104753,-2.07276,0.318469,0.185261,61.112,0.123859,
2,1,0,1,0,9057.11,0.125646,0.125362,8.54452,5,0.00797587,10,0.00107116,-2.06831,0.346277,0.170384,56.7314,0.125362,
2,1,0,1,0,9057.13,0.127149,0.12683,8.61499,5,0.00813746,10,0.00109264,-2.06475,0.363022,0.162525,54.6313,0.12683,
2,1,0,1,0,9057.15,0.128639,0.12838,8.6864,5,0.00829866,10,0.00111516,-2.06116,0.382181,0.154377,52.3987,0.12838,
2,1,0,1,0,9057.17,0.130142,0.129861,8.76866,5,0.00846303,10,0.00113871,-2.05707,0.404526,0.14585,49.9043,0.129861,
2,1,0,1,0,9057.19,0.131646,0.131373,8.83608,5,0.00862889,10,0.00116083,-2.05374,0.454781,0.129733,44.7327,0.131373,
2,1,0,1,0,9057.2,0.133135,0.132831,8.90155,5,0.00879421,10,0.0011824,-2.05053,0.499283,0.11817,41.0849,0.132831,
2,1,0,1,0,9057.22,0.134639,0.134331,8.9672,5,0.00896247,10,0.00120457,-2.04734,0.511634,0.115317,40.392,0.134331,
2,1,0,1,0,9057.24,0.136135,0.135838,9.03856,5,0.00913111,10,0.00122778,-2.0439,0.521109,0.11322,39.9132,0.135838,
2,1,0,1,0,9057.26,0.137631,0.137351,9.10495,5,0.00930094,10,0.00125058,-2.04072,0.598811,0.0985286,34.9592,0.137351,
2,1,0,1,0,9057.28,0.139135,0.138848,9.1556,5,0.00947273,10,0.00127123,-2.03831,0.724378,0.0814492,29.0674,0.138848,
2,1,0,1,0,9057.3,0.140622,0.140317,9.19731,5,0.00964355,10,0.00129053,-2.03634,0.872724,0.0676044,24.2323,0.1403165,
2,1,0,1,0,9057.32,0.142126,0.141829,9.2347,5,0.00981693,10,0.00130974,-2.03458,1.25256,0.0471035,16.9326,0.141829,
2,1,0,1,0,9057.34,0.143629,0.14332,9.25282,5,0.00999086,10,0.00132611,-2.03373,3.87992,0.0152065,5.47735,0.14332,
2,1,0,1,0,9057.35,0.145119,0.144836,9.24415,5,0.010163,10,0.00133889,-2.03413,-1.4189,-0.0415816,-14.9544,0.144836,
2,1,0,1,0,9057.37,0.146622,0.146336,9.19933,5,0.0103366,10,0.00134619,-2.03624,-0.666654,-0.0885016,-31.6905,0.146336,
2,1,0,1,0,9057.39,0.148126,0.147836,9.13552,5,0.0105093,10,0.00135056,-2.03927,-0.411766,-0.143285,-50.9124,0.1478359,
2,1,0,1,0,9057.41,0.149615,0.149277,9.03618,5,0.0106786,10,0.00134889,-2.04402,-0.269484,-0.218937,-76.9131,0.149277,
2,1,0,1,0,9057.43,0.151119,0.150805,8.89222,5,0.0108474,10,0.00134099,-2.05099,-0.191274,-0.308459,-106.577,0.150805,
2,1,0,1,0,9057.45,0.152615,0.152338,8.70488,5,0.0110123,10,0.00132608,-2.06024,-0.147843,-0.399073,-135.079,0.152338,
2,1,0,1,0,9057.47,0.154111,0.153803,8.48711,5,0.0111734,10,0.00130534,-2.07124,-0.120724,-0.488717,-161.374,0.153803,
2,1,0,1,0,9057.49,0.155615,0.155304,8.23965,5,0.0113309,10,0.00127965,-2.08409,-0.104236,-0.566022,-181.323,0.155304,
2,1,0,1,0,9057.5,0.157103,0.156778,7.94837,5,0.0114817,10,0.00124613,-2.09972,-0.0905757,-0.651389,-201.305,0.156778,
2,1,0,1,0,9057.52,0.158606,0.158288,7.64034,5,0.0116286,10,0.00120938,-2.11689,-0.0822499,-0.717326,-213.415,0.158288,
2,1,0,1,0,9057.54,0.16011,0.15979,7.31182,5,0.0117694,10,0.00116835,-2.13597,-0.0768863,-0.767367,-218.93,0.15979,
2,1,0,1,0,9057.56,0.161599,0.161318,6.99945,5,0.0119027,10,0.00112914,-2.15494,-0.0754132,-0.782356,-213.437,0.161318,
2,1,0,1,0,9057.58,0.163102,0.162862,6.68349,5,0.0120314,10,0.00108849,-2.175,-0.0754025,-0.782468,-204.13,0.162862,
2,1,0,1,0,9057.6,0.164606,0.164315,6.39095,5,0.0121543,10,0.00105013,-2.19443,-0.0756189,-0.780228,-194.671,0.164315,
2,1,0,1,0,9057.62,0.166095,0.165771,6.11092,5,0.0122705,10,0.00101301,-2.21389,-0.0799104,-0.738326,-176.375,0.165771,
2,1,0,1,0,9057.63,0.167599,0.167297,5.85551,5,0.012383,10,0.000979609,-2.23244,-0.0881884,-0.669023,-153.207,0.167297,
2,1,0,1,0,9057.65,0.169095,0.16881,5.62568,5,0.0124905,10,0.000949673,-2.24982,-0.0937795,-0.629135,-138.531,0.16881,
2,1,0,1,0,9057.67,0.170592,0.17031,5.42203,5,0.0125939,10,0.000923427,-2.26584,-0.0977662,-0.603481,-128.063,0.17031,
2,1,0,1,0,9057.69,0.172095,0.171829,5.22955,5,0.0126943,10,0.00089859,-2.28154,-0.107009,-0.551356,-113.046,0.171829,
2,1,0,1,0,9057.71,0.173583,0.173287,5.07206,5,0.0127903,10,0.000878925,-2.29482,-0.114893,-0.513519,-101.925,0.173287,
2,1,0,1,0,9057.73,0.175086,0.174793,4.92623,5,0.0128845,10,0.000861072,-2.30749,-0.125945,-0.468459,-90.2755,0.1747933,
2,1,0,1,0,9057.75,0.17659,0.176308,4.79176,5,0.0129761,10,0.000844824,-2.31951,-0.131677,-0.448067,-83.9556,0.176308,
2,1,0,1,0,9057.77,0.178079,0.177769,4.67079,5,0.0130644,10,0.000830322,-2.33061,-0.141612,-0.416631,-76.1774,0.1777689,
2,1,0,1,0,9057.78,0.179582,0.179251,4.55991,5,0.0131515,10,0.000817366,-2.34104,-0.152957,-0.38573,-68.9686,0.179251,
2,1,0,1,0,9057.8,0.181086,0.180806,4.47063,5,0.0132367,10,0.000808317,-2.34963,-0.164906,-0.357779,-62.5978,0.180806,
2,1,0,1,0,9057.82,0.182575,0.182296,4.38912,5,0.0133193,10,0.000800119,-2.35762,-0.164953,-0.357677,-61.2519,0.182296,
2,1,0,1,0,9057.84,0.184079,0.183778,4.30057,5,0.0134012,10,0.000790349,-2.36647,-0.179324,-0.329014,-55.3072,0.183778,
2,1,0,1,0,9057.86,0.185582,0.185299,4.23248,5,0.0134815,10,0.000784273,-2.3734,-0.199175,-0.296222,-48.9612,0.1852985,
2,1,0,1,0,9057.88,0.18707,0.186787,4.16535,5,0.0135597,10,0.000778034,-2.38035,-0.222089,-0.265659,-43.1544,0.186787,
2,1,0,1,0,9057.9,0.188573,0.18828,4.10104,5,0.0136376,10,0.000772143,-2.38711,-0.231135,-0.255262,-40.8146,0.18828,
2,1,0,1,0,9057.92,0.19007,0.189752,4.04059,5,0.0137138,10,0.000766712,-2.39356,-0.250849,-0.235201,-37.0692,0.189752,
2,1,0,1,0,9057.93,0.191566,0.191231,3.98096,5,0.0137889,10,0.000761283,-2.40001,-0.271878,-0.217009,-33.7393,0.191231,
2,1,0,1,0,9057.95,0.19307,0.192732,3.92962,5,0.0138635,10,0.000757363,-2.40565,-0.310748,-0.189864,-29.1343,0.192732,
2,1,0,1,0,9057.97,0.194559,0.194216,3.8869,5,0.0139364,10,0.000754896,-2.4104,-0.323256,-0.182518,-27.707,0.194216,
2,1,0,1,0,9057.99,0.196063,0.195765,3.83933,5,0.0140093,10,0.000751606,-2.41574,-0.31493,-0.187343,-28.097,0.195765,
2,1,0,1,0,9058.01,0.197566,0.197243,3.7841,5,0.0140813,10,0.000746387,-2.42204,-0.316976,-0.186134,-27.6299,0.197243,
2,1,0,1,0,9058.03,0.199055,0.198772,3.75914,5,0.0141517,10,0.000747212,-2.42491,-0.379204,-0.155589,-22.8496,0.198772,
2,1,0,1,0,9058.05,0.200559,0.200255,3.72327,5,0.0142223,10,0.000745604,-2.42908,-0.369502,-0.159674,-23.2116,0.200255,
2,1,0,1,0,9058.07,0.202062,0.201773,3.69374,5,0.0142923,10,0.000745297,-2.43253,-0.374943,-0.157357,-22.6706,0.201773,
2,1,0,1,0,9058.08,0.20355,0.203256,3.65209,5,0.0143609,10,0.000742309,-2.43746,-0.37764,-0.156233,-22.3429,0.203256,
2,1,0,1,0,9058.1,0.205053,0.204748,3.61923,5,0.0144295,10,0.00074103,-2.44138,-0.462993,-0.127432,-18.1027,0.204748,
2,1,0,1,0,9058.12,0.20655,0.206272,3.60005,5,0.0144973,10,0.000742589,-2.44369,-0.465018,-0.126877,-17.8608,0.206272,
2,1,0,1,0,9058.14,0.208046,0.207771,3.58469,5,0.0145649,10,0.000744794,-2.44555,-0.430367,-0.137092,-19.1393,0.207771,
2,1,0,1,0,9058.16,0.20955,0.209275,3.55695,5,0.0146323,10,0.00074438,-2.44892,-0.391678,-0.150634,-20.9305,0.209275,
2,1,0,1,0,9058.18,0.211039,0.210752,3.53133,5,0.0146983,10,0.000744234,-2.45206,-0.459488,-0.128404,-17.7236,0.210752,
2,1,0,1,0,9058.2,0.212543,0.212273,3.51348,5,0.0147647,10,0.000745816,-2.45426,-0.666106,-0.0885744,-12.1281,0.212273,
2,1,0,1,0,9058.22,0.214046,0.213767,3.49554,5,0.0148308,10,0.00074723,-2.45649,-0.730624,-0.0807528,-11.0071,0.213767,
2,1,0,1,0,9058.23,0.215535,0.21525,3.48039,5,0.0148957,10,0.000749154,-2.45837,-0.703885,-0.0838205,-11.3595,0.21525,
2,1,0,1,0,9058.25,0.217039,0.216742,3.45325,5,0.014961,10,0.000748465,-2.46177,-0.978525,-0.0602948,-8.12674,0.216742,
2,1,0,1,0,9058.27,0.218543,0.218301,3.4379,5,0.015026,10,0.000750497,-2.46371,-1.29313,-0.0456256,-6.12048,0.218301,
2,1,0,1,0,9058.29,0.22003,0.219744,3.42478,5,0.0150901,10,0.000752576,-2.46537,-1.11372,-0.0529755,-7.0757,0.219744,
2,1,0,1,0,9058.31,0.221534,0.221261,3.40642,5,0.0151545,10,0.000753709,-2.4677,-0.738307,-0.0799126,-10.6224,0.221261,
2,1,0,1,0,9058.33,0.22303,0.222738,3.37909,5,0.0152184,10,0.000752652,-2.4712,-0.797253,-0.0740041,-9.80456,0.222738,
2,1,0,1,0,9058.35,0.224526,0.224232,3.37218,5,0.0152818,10,0.000756149,-2.47209,-0.777382,-0.0758958,-10.0109,0.224232,
2,1,0,1,0,9058.37,0.22603,0.225749,3.36346,5,0.0153455,10,0.000759299,-2.47321,-0.964312,-0.0611835,-8.03853,0.225749,
2,1,0,1,0,9058.38,0.227519,0.227211,3.35473,5,0.0154082,10,0.000762231,-2.47434,-0.674056,-0.0875298,-11.4489,0.227211,
2,1,0,1,0,9058.4,0.229023,0.228722,3.34081,5,0.0154714,10,0.000764115,-2.47615,-0.698104,-0.0845146,-11.0298,0.228722,
2,1,0,1,0,9058.42,0.230526,0.230238,3.32689,5,0.0155343,10,0.000765977,-2.47796,-0.892594,-0.0660995,-8.60248,0.230238,
2,1,0,1,0,9058.44,0.232016,0.231717,3.32325,5,0.0155963,10,0.000770056,-2.47844,-1.09116,-0.0540709,-7.0107,0.231717,
2,1,0,1,0,9058.46,0.233519,0.233229,3.3207,5,0.0156589,10,0.000774483,-2.47877,-0.965204,-0.061127,-7.89581,0.233229,
2,1,0,1,0,9058.48,0.235023,0.234742,3.31039,5,0.0157214,10,0.000777089,-2.48012,-1.2424,-0.0474889,-6.1124,0.234742,
2,1,0,1,0,9058.5,0.23651,0.236224,3.29111,5,0.0157828,10,0.00077744,-2.48266,-1.2699,-0.0464603,-5.96627,0.236224,
2,1,0,1,0,9058.52,0.238014,0.237729,3.2836,5,0.0158448,10,0.000780606,-2.48365,-2.15657,-0.0273582,-3.50144,0.237729,
2,1,0,1,0,9058.53,0.23951,0.239251,3.27953,5,0.0159063,10,0.00078463,-2.48419,-1.96713,-0.0299929,-3.82914,0.239251,
2,1,0,1,0,9058.55,0.241006,0.24073,3.26817,5,0.0159677,10,0.000786745,-2.4857,-1.37363,-0.0429518,-5.46995,0.24073,
2,1,0,1,0,9058.57,0.24251,0.242247,3.24782,5,0.0160292,10,0.000786773,-2.48841,-2.10664,-0.0280066,-3.55984,0.242247,
2,1,0,1,0,9058.59,0.243999,0.243716,3.24255,5,0.0160898,10,0.00079026,-2.48911,-5.28217,-0.0111697,-1.41616,0.243716,
2,1,0,1,0,9058.61,0.245503,0.245202,3.24152,5,0.0161511,10,0.000794826,-2.48925,-1.82297,-0.0323648,-4.09593,0.245202,
2,1,0,1,0,9058.63,0.247006,0.246729,3.22914,5,0.0162122,10,0.000796723,-2.49091,-1.23033,-0.0479546,-6.04815,0.246729,
2,1,0,1,0,9058.65,0.248496,0.248239,3.22298,5,0.0162726,10,0.00080007,-2.49174,-1.2739,-0.0463143,-5.83193,0.248239,
2,1,0,1,0,9058.66,0.249999,0.249692,3.21673,5,0.0163333,10,0.000803192,-2.49258,-1.12122,-0.0526215,-6.61009,0.249692,
2,1,0,1,0,9058.68,0.251503,0.251166,3.2107,5,0.016394,10,0.000806417,-2.4934,-1.61575,-0.0365155,-4.57804,0.251166,
2,1,0,1,0,9058.7,0.25299,0.252698,3.20752,5,0.016454,10,0.000810535,-2.49383,-0.768436,-0.0767793,-9.60126,0.252698,
2,1,0,1,0,9058.72,0.254494,0.254218,3.20224,5,0.0165144,10,0.000814068,-2.49455,-0.964038,-0.0612009,-7.64904,0.254218,
2,1,0,1,0,9058.74,0.25599,0.255717,3.19524,5,0.0165743,10,0.000817077,-2.4955,-1.768,-0.033371,-4.15607,0.255717,
2,1,0,1,0,9058.76,0.257487,0.257176,3.19132,5,0.0166341,10,0.000820731,-2.49603,-1.70415,-0.0346213,-4.30661,0.257176,
2,1,0,1,0,9058.78,0.25899,0.258743,3.18692,5,0.0166942,10,0.000824595,-2.49663,-3.21293,-0.0183633,-2.27588,0.258743,
2,1,0,1,0,9058.8,0.260479,0.260184,3.18656,5,0.0167536,10,0.000829092,-2.49668,-1.22005,-0.0483587,-5.98771,0.260184,
2,1,0,1,0,9058.81,0.261983,0.261684,3.1666,5,0.0168133,10,0.00082865,-2.49941,-2.13229,-0.0276698,-3.41843,0.261684,
2,1,0,1,0,9058.83,0.263486,0.263185,3.16148,5,0.016873,10,0.000832054,-2.50011,5.33407,0.011061,1.3643,0.263185,
2,1,0,1,0,9058.85,0.264974,0.264655,3.1577,5,0.0169319,10,0.000835699,-2.50063,-4.98254,-0.0118413,-1.45911,0.2646547,
2,1,0,1,0,9058.87,0.266477,0.266217,3.14866,5,0.0169914,10,0.000838226,-2.50187,-3.02261,-0.0195196,-2.39634,0.266217,
2,1,0,1,0,9058.89,0.267981,0.267679,3.1326,5,0.0170508,10,0.000838529,-2.5041,-4.1349,-0.0142688,-1.75001,0.267679,
2,1,0,1,0,9058.91,0.26947,0.269187,3.13072,5,0.0171093,10,0.000842749,-2.50436,-4.96696,-0.0118785,-1.45324,0.269187,
2,1,0,1,0,9058.93,0.270974,0.270719,3.12883,5,0.0171684,10,0.000847032,-2.50462,-2.42401,-0.0243398,-2.97296,0.270719,
2,1,0,1,0,9058.95,0.27247,0.272152,3.13024,5,0.0172272,10,0.000851902,-2.50442,-1.50805,-0.0391235,-4.75888,0.272152,
2,1,0,1,0,9058.96,0.273967,0.273712,3.11504,5,0.0172858,10,0.000852626,-2.50654,-0.769433,-0.0766798,-9.33963,0.273712,
2,1,0,1,0,9058.98,0.27547,0.275202,3.10299,5,0.0173445,10,0.00085395,-2.50822,-0.94345,-0.0625365,-7.60316,0.275202,
2,1,0,1,0,9059,0.276959,0.27668,3.10796,5,0.0174025,10,0.000859911,-2.50752,-1.31829,-0.0447549,-5.42538,0.27668,
2,1,0,1,0,9059.02,0.278463,0.278166,3.1052,5,0.017461,10,0.000863761,-2.50791,-1.10553,-0.0533682,-6.44778,0.278166,
2,1,0,1,0,9059.04,0.279967,0.279727,3.09757,5,0.0175195,10,0.000866473,-2.50898,-1.39098,-0.042416,-5.12157,0.279727,
2,1,0,1,0,9059.06,0.281454,0.28116,3.08696,5,0.0175771,10,0.00086793,-2.51047,-1.15349,-0.0511491,-6.16754,0.28116,
2,1,0,1,0,9059.08,0.282958,0.282666,3.08435,5,0.0176353,10,0.000871841,-2.51084,-2.35666,-0.0250354,-3.00532,0.2826663,
2,1,0,1,0,9059.1,0.284461,0.284191,3.08325,5,0.0176934,10,0.000876231,-2.51099,-5.69618,-0.0103578,-1.24172,0.284191,
2,1,0,1,0,9059.11,0.28595,0.285644,3.06968,5,0.0177508,10,0.000876836,-2.51291,-2.35523,-0.0250506,-3.0002,0.285644,
2,1,0,1,0,9059.13,0.287454,0.287181,3.06107,5,0.0178086,10,0.000879083,-2.51413,-1.59358,-0.0370236,-4.42572,0.2871815,
2,1,0,1,0,9059.15,0.28895,0.28867,3.05272,5,0.017866,10,0.00088123,-2.51531,24.2208,0.00243593,0.290602,0.28867,
2,1,0,1,0,9059.17,0.290447,0.290168,3.04448,5,0.0179232,10,0.000883411,-2.51649,-3.41664,-0.0172684,-2.0555,0.290168,
2,1,0,1,0,9059.19,0.29195,0.291675,3.03691,5,0.0179807,10,0.000885792,-2.51757,-1.8409,-0.0320495,-3.8033,0.291675,
2,1,0,1,0,9059.21,0.29344,0.293158,3.02575,5,0.0180375,10,0.000887021,-2.51917,-2.21665,-0.0266167,-3.15524,0.293158,
2,1,0,1,0,9059.23,0.294943,0.294632,3.02837,5,0.0180947,10,0.000892254,-2.51879,-1.87233,-0.0315115,-3.72277,0.294632,
2,1,0,1,0,9059.25,0.296447,0.296181,3.02316,5,0.0181518,10,0.000895403,-2.51954,-1.58002,-0.0373414,-4.40372,0.296181,
2,1,0,1,0,9059.26,0.297934,0.297662,3.01648,5,0.0182082,10,0.000897891,-2.5205,-1.34201,-0.0439641,-5.17417,0.297662,
2,1,0,1,0,9059.28,0.299438,0.299148,3.01234,5,0.0182651,10,0.000901134,-2.5211,-0.0218987,-2.69422,-281.945,0.299148,
2,1,0,1,0,9059.29,0.300012,0.299689,3.00444,5,0.0182862,10,0.000900399,-2.52224,0.000881072,66.9639,3623.42,0.2996892,
2,1,0,1,0,9059.31,0.298737,0.298486,0.911647,5,0.018314,10,0.000272114,-3.04017,0.00315056,18.7268,1008.08,0.298486,
2,1,0,1,0,9059.32,0.29724,0.296983,-0.0876932,5,0.0183202,10,-2.60434e-05,-4.05703,0.0113271,5.20876,537.172,0.296983,
2,0,0,1,0,9059.34,0.295744,0.295481,-0.55234,5,0.0183136,10,-0.000163206,-3.25779,-0.00555932,-10.6128,256.405,0.295481,
2,0,0,1,0,9059.36,0.29424,0.293918,-0.803305,5,0.0183004,10,-0.000236106,-3.09512,-0.0108561,-5.43475,142.865,0.293918,
2,0,0,1,0,9059.38,0.292751,0.292438,-0.95028,5,0.0182837,10,-0.000277898,-3.02215,-0.0222063,-2.65691,93.9845,0.292438,
2,0,0,1,0,9059.4,0.291248,0.290925,-1.06981,5,0.0182645,10,-0.000311235,-2.97069,-0.0349214,-1.68951,68.6548,0.290925,
2,0,0,1,0,9059.42,0.289744,0.289418,-1.15467,5,0.0182433,10,-0.000334182,-2.93754,-0.0466477,-1.2648,55.9315,0.289418,
2,0,0,1,0,9059.44,0.288257,0.287941,-1.22462,5,0.0182209,10,-0.000352618,-2.912,-0.0644105,-0.916,43.3103,0.287941,
2,0,0,1,0,9059.46,0.286753,0.286447,-1.28081,5,0.0181971,10,-0.000366885,-2.89251,-0.0795525,-0.741648,37.0768,0.286447,
2,0,0,1,0,9059.47,0.285249,0.284974,-1.33609,5,0.0181722,10,-0.000380751,-2.87416,-0.0905362,-0.651673,34.0514,0.284974,
2,0,0,1,0,9059.49,0.28376,0.283507,-1.38682,5,0.0181466,10,-0.000393174,-2.85798,-0.106928,-0.551773,29.901,0.283507,
2,0,0,1,0,9059.51,0.282257,0.281937,-1.43653,5,0.0181198,10,-0.000405009,-2.84269,-0.135136,-0.436598,24.4309,0.281937,
2,0,0,1,0,9059.53,0.28076,0.280437,-1.48292,5,0.0180923,10,-0.000415866,-2.82888,-0.145445,-0.405651,23.3523,0.280437,
2,0,0,1,0,9059.55,0.279264,0.278966,-1.52162,5,0.0180641,10,-0.00042448,-2.81769,-0.149652,-0.394247,23.3685,0.2789661,
2,0,0,1,0,9059.57,0.27776,0.277506,-1.55997,5,0.0180351,10,-0.000432901,-2.80688,-0.142625,-0.413673,25.0582,0.277506,
2,0,0,1,0,9059.59,0.276271,0.275983,-1.6026,5,0.0180056,10,-0.000442292,-2.79517,-0.151788,-0.388701,24.0768,0.275983,
2,0,0,1,0,9059.61,0.274767,0.274422,-1.63047,5,0.0179752,10,-0.000447436,-2.78769,-0.169413,-0.348262,22.0405,0.2744216,
2,0,0,1,0,9059.62,0.273264,0.272996,-1.65462,5,0.0179442,10,-0.000451704,-2.7813,-0.152726,-0.386313,24.9808,0.272996,
2,0,0,1,0,9059.64,0.271776,0.271474,-1.68309,5,0.017913,10,-0.000456914,-2.77389,-0.148334,-0.397752,26.1371,0.271474,
2,0,0,1,0,9059.66,0.270273,0.270003,-1.71684,5,0.0178808,10,-0.000463552,-2.76527,-0.185691,-0.317732,21.257,0.270003,
2,0,0,1,0,9059.68,0.268769,0.268423,-1.74215,5,0.0178481,10,-0.000467632,-2.75892,-0.210186,-0.280703,19.0736,0.268423,
2,0,0,1,0,9059.7,0.26728,0.266952,-1.75982,5,0.0178152,10,-0.000469788,-2.75453,-0.216199,-0.272896,18.8248,0.266952,
2,0,0,1,0,9059.72,0.265777,0.26548,-1.7897,5,0.0177815,10,-0.00047513,-2.74722,-0.245456,-0.240369,16.8572,0.26548,
2,0,0,1,0,9059.74,0.26428,0.263973,-1.81905,5,0.0177475,10,-0.000480181,-2.74015,-0.265647,-0.222099,15.7888,0.263973,
2,0,0,1,0,9059.76,0.262784,0.262481,-1.84,5,0.0177131,10,-0.000482965,-2.73518,-0.316443,-0.186447,13.41,0.262481,
2,0,0,1,0,9059.77,0.26128,0.260987,-1.86523,5,0.0176779,10,-0.000486801,-2.72927,-0.296437,-0.19903,14.4876,0.260987,
2,0,0,1,0,9059.79,0.259791,0.259503,-1.88921,5,0.0176429,10,-0.000490255,-2.72372,-0.387793,-0.152143,11.2579,0.2595025,
2,0,0,1,0,9059.81,0.258287,0.25802,-1.9159,5,0.0176069,10,-0.000494339,-2.71763,-0.307063,-0.192143,14.3479,0.2580198,
2,0,0,1,0,9059.83,0.256786,0.256479,-1.94222,5,0.0175705,10,-0.000498139,-2.7117,-0.349814,-0.168661,12.7034,0.256479,
2,0,0,1,0,9059.85,0.255296,0.254987,-1.96272,5,0.0175341,10,-0.000500467,-2.70714,-0.412901,-0.142891,10.9259,0.254987,
2,0,0,1,0,9059.87,0.253793,0.253489,-1.97824,5,0.017497,10,-0.000501461,-2.70372,-0.3892,-0.151593,11.677,0.253489,
2,0,0,1,0,9059.89,0.252289,0.251946,-1.99909,5,0.0174595,10,-0.000503662,-2.69917,-0.282533,-0.208826,16.2573,0.251946,
2,0,0,1,0,9059.91,0.2508,0.250492,-2.01814,5,0.017422,10,-0.000505528,-2.69505,-0.29937,-0.19708,15.5093,0.250492,
2,0,0,1,0,9059.92,0.249296,0.248996,-2.03919,5,0.0173837,10,-0.00050775,-2.69054,-0.332432,-0.17748,14.1089,0.248996,
2,0,0,1,0,9059.94,0.2478,0.247522,-2.04968,5,0.0173453,10,-0.000507339,-2.68831,-0.309768,-0.190465,15.3119,0.2475215,
2,0,0,1,0,9059.96,0.246304,0.246051,-2.07466,5,0.0173065,10,-0.000510473,-2.68305,-0.283441,-0.208156,16.8448,0.246051,
2,0,0,1,0,9059.98,0.2448,0.244465,-2.09568,5,0.0172671,10,-0.00051232,-2.67867,-0.284233,-0.207576,16.9418,0.244465,
2,0,0,1,0,9060,0.243313,0.243036,-2.1102,5,0.0172277,10,-0.000512856,-2.67568,-0.437757,-0.134778,11.1032,0.243036,
2,0,0,1,0,9060.02,0.241809,0.24154,-2.11658,5,0.0171876,10,-0.000511238,-2.67437,-0.434098,-0.135914,11.3152,0.24154,
2,0,0,1,0,9060.04,0.240306,0.240005,-2.14161,5,0.0171473,10,-0.000513997,-2.66926,-0.544521,-0.108352,9.09521,0.240005,
2,0,0,1,0,9060.05,0.238816,0.238491,-2.16825,5,0.0171069,10,-0.000517109,-2.66389,-0.516558,-0.114218,9.66215,0.2384911,
2,0,0,1,0,9060.07,0.237313,0.236995,-2.18382,5,0.0170658,10,-0.000517555,-2.66078,-0.626187,-0.094221,8.01856,0.2369948,
2,0,0,1,0,9060.09,0.235809,0.235514,-2.20214,5,0.0170244,10,-0.000518635,-2.65715,-0.529584,-0.111408,9.56659,0.235514,
2,0,0,1,0,9060.11,0.23432,0.233988,-2.21953,5,0.0169832,10,-0.000519344,-2.65374,-0.577211,-0.102216,8.85906,0.233988,
2,0,0,1,0,9060.13,0.232816,0.232487,-2.24031,5,0.0169412,10,-0.000520843,-2.64969,-0.496851,-0.118748,10.3626,0.232487,
2,0,0,1,0,9060.15,0.23132,0.231018,-2.26344,5,0.016899,10,-0.000522896,-2.64523,-0.46764,-0.126165,11.0869,0.231018,
2,0,0,1,0,9060.17,0.229824,0.229512,-2.27753,5,0.0168565,10,-0.00052272,-2.64254,-0.47841,-0.123325,10.9272,0.229512,
2,0,0,1,0,9060.19,0.22832,0.228028,-2.28927,5,0.0168135,10,-0.000522018,-2.6403,-0.388789,-0.151753,13.534,0.228028,
2,0,0,1,0,9060.2,0.226833,0.226501,-2.30516,5,0.0167706,10,-0.00052212,-2.6373,-0.332129,-0.177642,15.9573,0.226501,
2,0,0,1,0,9060.22,0.225329,0.22501,-2.32306,5,0.0167269,10,-0.000522712,-2.63394,-0.398517,-0.148049,13.43,0.22501,
2,0,0,1,0,9060.24,0.223825,0.223492,-2.33277,5,0.016683,10,-0.000521356,-2.63213,-0.423753,-0.139232,12.6926,0.223492,
2,0,0,1,0,9060.26,0.222336,0.222037,-2.34467,5,0.0166392,10,-0.000520603,-2.62992,-0.457878,-0.128855,11.8267,0.222037,
2,0,0,1,0,9060.28,0.220833,0.220535,-2.36779,5,0.0165947,10,-0.00052218,-2.62566,-0.383478,-0.153855,14.2234,0.220535,
2,0,0,1,0,9060.3,0.219329,0.218997,-2.38582,5,0.0165498,10,-0.000522488,-2.62236,-0.405192,-0.14561,13.5601,0.218997,
2,0,0,1,0,9060.32,0.21784,0.21754,-2.40274,5,0.0165049,10,-0.000522694,-2.61929,-0.607351,-0.0971432,9.10995,0.2175404,
2,0,0,1,0,9060.34,0.216336,0.216008,-2.41303,5,0.0164594,10,-0.000521235,-2.61744,-0.743915,-0.0793101,7.49802,0.216008,
2,0,0,1,0,9060.35,0.21484,0.214521,-2.44098,5,0.0164138,10,-0.000523642,-2.61244,-0.586473,-0.100601,9.57378,0.214521,
2,0,0,1,0,9060.37,0.213343,0.213044,-2.45377,5,0.0163679,10,-0.000522761,-2.61017,-0.50598,-0.116605,11.1666,0.213044,
2,0,0,1,0,9060.39,0.21184,0.211511,-2.47801,5,0.0163214,10,-0.000524125,-2.6059,-0.919977,-0.064132,6.1809,0.211511,
2,0,0,1,0,9060.41,0.210352,0.210036,-2.49236,5,0.016275,10,-0.000523485,-2.60339,-0.63392,-0.0930716,9.04412,0.210036,
2,0,0,1,0,9060.43,0.208849,0.208567,-2.50806,5,0.0162279,10,-0.000523099,-2.60066,-0.451122,-0.130785,12.8103,0.208567,
2,0,0,1,0,9060.45,0.207345,0.207064,-2.53061,5,0.0161805,10,-0.000523998,-2.59677,-0.437726,-0.134787,13.2759,0.207064,
2,0,0,1,0,9060.47,0.205856,0.205519,-2.55979,5,0.016133,10,-0.000526085,-2.5918,-0.399514,-0.147679,14.6502,0.205519,
2,0,0,1,0,9060.49,0.204353,0.204022,-2.57264,5,0.0160847,10,-0.000524875,-2.58962,-0.567333,-0.103995,10.4209,0.204022,
2,0,0,1,0,9060.5,0.202849,0.202508,-2.58276,5,0.0160362,10,-0.000523029,-2.58792,-0.437109,-0.134978,13.5989,0.202508,
2,0,0,1,0,9060.52,0.20136,0.201034,-2.60188,5,0.0159879,10,-0.000523067,-2.58471,-0.357168,-0.165188,16.7552,0.201034,
2,0,0,1,0,9060.54,0.199856,0.199545,-2.61955,5,0.0159386,10,-0.000522718,-2.58177,-0.425469,-0.13867,14.1677,0.199545,
2,0,0,1,0,9060.56,0.19836,0.198022,-2.63847,5,0.0158892,10,-0.000522475,-2.57865,-0.420173,-0.140418,14.4782,0.198022,
2,0,0,1,0,9060.58,0.196863,0.196532,-2.65147,5,0.0158395,10,-0.000521098,-2.57651,-0.416205,-0.141757,14.7206,0.196532,
2,0,0,1,0,9060.6,0.19536,0.195091,-2.67486,5,0.0157892,10,-0.00052184,-2.5727,-0.368128,-0.16027,16.7511,0.195091,
2,0,0,1,0,9060.62,0.193872,0.193552,-2.70749,5,0.0157389,10,-0.00052404,-2.56743,-0.381817,-0.154524,16.2846,0.193552,
2,0,0,1,0,9060.64,0.192369,0.192055,-2.72146,5,0.0156877,10,-0.00052267,-2.5652,-0.502569,-0.117397,12.4731,0.192055,
2,0,0,1,0,9060.65,0.190865,0.190558,-2.73839,5,0.0156361,10,-0.000521823,-2.5625,-0.515157,-0.114528,12.2855,0.190558,
2,0,0,1,0,9060.67,0.189376,0.189093,-2.76799,5,0.0155846,10,-0.000523406,-2.55784,-0.506978,-0.116376,12.5814,0.189093,
2,0,0,1,0,9060.69,0.187872,0.187551,-2.79602,5,0.0155321,10,-0.000524396,-2.55346,-0.460161,-0.128216,13.9766,0.187551,
2,0,0,1,0,9060.71,0.186369,0.186105,-2.82769,5,0.0154791,10,-0.000526249,-2.54857,-0.457366,-0.128999,14.1827,0.186105,
2,0,0,1,0,9060.73,0.18488,0.184575,-2.85042,5,0.0154263,10,-0.000526117,-2.54509,-0.461744,-0.127776,14.1938,0.184575,
2,0,0,1,0,9060.75,0.183376,0.183097,-2.87378,5,0.0153724,10,-0.000526181,-2.54155,-0.354976,-0.166208,18.6709,0.183097,
2,0,0,1,0,9060.77,0.18188,0.181636,-2.90384,5,0.0153183,10,-0.000527442,-2.53703,-0.292118,-0.201973,22.9031,0.181636,
2,0,0,1,0,9060.79,0.180383,0.180076,-2.93996,5,0.0152635,10,-0.000529416,-2.53166,-0.285778,-0.206454,23.6084,0.180076,
2,0,0,1,0,9060.8,0.17888,0.178561,-2.96982,5,0.0152079,10,-0.000530294,-2.52727,-0.293394,-0.201095,23.2521,0.178561,
2,0,0,1,0,9060.82,0.177392,0.17708,-2.99313,5,0.0151523,10,-0.000530022,-2.52387,-0.277443,-0.212656,24.8839,0.17708,
2,0,0,1,0,9060.84,0.175889,0.175573,-3.02156,5,0.0150955,10,-0.000530504,-2.51977,-0.254799,-0.231555,27.3776,0.175573,
2,0,0,1,0,9060.86,0.174385,0.174083,-3.06461,5,0.015038,10,-0.000533497,-2.51362,-0.267607,-0.220472,26.4175,0.174083,
2,0,0,1,0,9060.88,0.172896,0.172573,-3.10458,5,0.0149803,10,-0.000535768,-2.508,-0.27397,-0.215352,26.1315,0.172573,
2,0,0,1,0,9060.9,0.171392,0.171069,-3.14226,5,0.0149213,10,-0.000537543,-2.50276,-0.248218,-0.237695,29.2256,0.171069,
2,0,0,1,0,9060.92,0.169889,0.169552,-3.19076,5,0.0148615,10,-0.000541,-2.49611,-0.231806,-0.254523,31.7862,0.169552,
2,0,0,1,0,9060.94,0.1684,0.168047,-3.24457,5,0.0148015,10,-0.000545241,-2.48884,-0.231775,-0.254557,32.2652,0.168047,
2,0,0,1,0,9060.95,0.166896,0.166565,-3.29963,5,0.0147397,10,-0.000549604,-2.48153,-0.236028,-0.249971,32.1275,0.166565,
2,0,0,1,0,9060.97,0.165392,0.165053,-3.35343,5,0.014677,10,-0.000553493,-2.47451,-0.214106,-0.275565,36.1012,0.165053,
2,0,0,1,0,9060.99,0.163905,0.163606,-3.41476,5,0.014614,10,-0.000558676,-2.46664,-0.193926,-0.30424,40.6026,0.163606,
2,0,0,1,0,9061.01,0.162401,0.162122,-3.47836,5,0.014549,10,-0.000563921,-2.45862,-0.182021,-0.324138,44.0484,0.162122,
2,0,0,1,0,9061.03,0.160905,0.160574,-3.55845,5,0.0144831,10,-0.000571394,-2.44874,-0.169477,-0.348131,48.2524,0.160574,
2,0,0,1,0,9061.05,0.159409,0.159102,-3.63261,5,0.0144159,10,-0.000577955,-2.43978,-0.158986,-0.371102,52.5347,0.159102,
2,0,0,1,0,9061.07,0.157905,0.157567,-3.71119,5,0.0143468,10,-0.000584762,-2.43049,-0.147305,-0.400531,58.0659,0.157567,
2,0,0,1,0,9061.08,0.156416,0.156091,-3.80404,5,0.0142768,10,-0.000593778,-2.41975,-0.127788,-0.461703,68.5954,0.156091,
2,0,0,1,0,9061.1,0.154912,0.154577,-3.90497,5,0.0142042,10,-0.00060362,-2.40838,-0.122267,-0.482551,73.5824,0.154577,
2,0,0,1,0,9061.12,0.153409,0.153096,-4.01457,5,0.0141296,10,-0.000614614,-2.39636,-0.120433,-0.4899,76.7736,0.1530958,
2,0,0,1,0,9061.14,0.151919,0.151627,-4.12372,5,0.0140538,10,-0.000625266,-2.38471,-0.111245,-0.530359,85.728,0.151627,
2,0,0,1,0,9061.16,0.150416,0.150102,-4.25554,5,0.0139748,10,-0.000638764,-2.37105,-0.102531,-0.575438,95.857,0.150102,
2,0,0,1,0,9061.18,0.148912,0.148608,-4.39845,5,0.0138931,10,-0.000653644,-2.3567,-0.0966626,-0.61037,105.151,0.148608,
2,0,0,1,0,9061.2,0.147425,0.147158,-4.55534,5,0.0138095,10,-0.000670357,-2.34148,-0.0978358,-0.603051,107.52,0.147158,
2,0,0,1,0,9061.22,0.145921,0.145618,-4.72188,5,0.013722,10,-0.00068759,-2.32589,-0.094971,-0.621242,114.883,0.145618,
2,0,0,1,0,9061.23,0.144425,0.144076,-4.90853,5,0.0136316,10,-0.000707202,-2.30905,-0.0896602,-0.65804,126.491,0.144076,
2,0,0,1,0,9061.25,0.142929,0.142611,-5.1107,5,0.0135377,10,-0.000728844,-2.29152,-0.0886479,-0.665554,132.98,0.142611,
2,0,0,1,0,9061.27,0.141425,0.141122,-5.33024,5,0.0134394,10,-0.000752214,-2.27325,-0.0859583,-0.686379,142.728,0.141122,
2,0,0,1,0,9061.29,0.139936,0.13962,-5.55706,5,0.013338,10,-0.000775877,-2.25515,-0.0843189,-0.699725,151.655,0.13962,
2,0,0,1,0,9061.31,0.138432,0.138135,-5.78229,5,0.0132313,10,-0.000798736,-2.2379,-0.0849335,-0.694661,156.957,0.138135,
2,0,0,1,0,9061.33,0.136929,0.136625,-6.03505,5,0.0131201,10,-0.00082454,-2.21932,-0.0824318,-0.715743,168.451,0.136625,
2,0,0,1,0,9061.35,0.135439,0.135118,-6.28492,5,0.0130055,10,-0.000849205,-2.2017,-0.0877221,-0.672579,164.443,0.135118,
2,0,0,1,0,9061.37,0.133936,0.133621,-6.52848,5,0.0128849,10,-0.00087234,-2.18519,-0.0879405,-0.670908,170.677,0.1336206,
2,0,0,1,0,9061.38,0.132432,0.13216,-6.77075,5,0.0127598,10,-0.000894823,-2.16936,-0.0913435,-0.645914,170.61,0.1321601,
2,0,0,1,0,9061.4,0.130945,0.130644,-7.02677,5,0.0126313,10,-0.000918003,-2.15324,-0.0915477,-0.644473,176.435,0.130644,
2,0,0,1,0,9061.42,0.129441,0.129151,-7.2786,5,0.0124966,10,-0.000940042,-2.13795,-0.100165,-0.589029,166.99,0.129151,
2,0,0,1,0,9061.44,0.127945,0.127609,-7.51113,5,0.012358,10,-0.00095849,-2.12429,-0.112233,-0.525692,153.882,0.127609,
2,0,0,1,0,9061.46,0.126448,0.126143,-7.73065,5,0.0122151,10,-0.000975168,-2.11178,-0.122195,-0.482833,145.624,0.126143,
2,0,0,1,0,9061.48,0.124945,0.12465,-7.95193,5,0.0120673,10,-0.000991205,-2.09953,-0.129413,-0.455903,141.343,0.12465,
2,0,0,1,0,9061.5,0.123456,0.123179,-8.16118,5,0.0119172,10,-0.00100529,-2.08825,-0.143969,-0.409811,130.292,0.123179,
2,0,0,1,0,9061.52,0.121952,0.121676,-8.34863,5,0.0117617,10,-0.00101583,-2.07838,-0.163452,-0.360962,117.408,0.1216757,
2,0,0,1,0,9061.53,0.120449,0.120155,-8.51978,5,0.0116028,10,-0.00102369,-2.06957,-0.182329,-0.32359,107.493,0.120155,
2,0,0,1,0,9061.55,0.118959,0.118664,-8.68223,5,0.0114426,10,-0.00103027,-2.06137,-0.201154,-0.293307,99.2067,0.118664,
2,0,0,1,0,9061.57,0.117456,0.117159,-8.83852,5,0.0112779,10,-0.00103551,-2.05362,-0.217271,-0.27155,93.4077,0.117159,
2,0,0,1,0,9061.59,0.115952,0.115649,-8.96691,5,0.0111104,10,-0.00103701,-2.04736,-0.256273,-0.230223,80.3082,0.115649,
2,0,0,1,0,9061.61,0.114465,0.114163,-9.07819,5,0.0109425,10,-0.0010364,-2.042,-0.302395,-0.195109,68.9479,0.114163,
2,0,0,1,0,9061.63,0.112961,0.112703,-9.16641,5,0.0107709,10,-0.00103308,-2.0378,-0.344826,-0.171101,61.127,0.112703,
2,0,0,1,0,9061.65,0.111465,0.111153,-9.25008,5,0.0105985,10,-0.00102818,-2.03385,-0.404827,-0.145741,52.4912,0.111153,
2,0,0,1,0,9061.67,0.109968,0.109673,-9.32055,5,0.0104248,10,-0.00102221,-2.03056,-0.517745,-0.113956,41.3695,0.1096725,
2,0,0,1,0,9061.68,0.108465,0.108138,-9.37486,5,0.0102489,10,-0.00101378,-2.02804,-0.700233,-0.0842577,30.7511,0.108138,
2,0,0,1,0,9061.7,0.106976,0.106711,-9.39569,5,0.0100742,10,-0.00100262,-2.02707,-1.09336,-0.053962,19.7645,0.1067109,
2,0,0,1,0,9061.72,0.105472,0.105206,-9.42296,5,0.00989707,10,-0.000991352,-2.02581,-1.60459,-0.0367694,13.5085,0.105206,
2,0,0,1,0,9061.74,0.103968,0.103656,-9.42743,5,0.0097196,10,-0.000977208,-2.02561,-5.19596,-0.011355,4.17536,0.1036559,
2,0,0,1,0,9061.76,0.102479,0.102197,-9.42587,5,0.00954396,10,-0.000963293,-2.02568,1.93925,0.0304241,-11.1812,0.102197,
2,0,0,1,0,9061.78,0.100976,0.100676,-9.39833,5,0.00936671,10,-0.000946189,-2.02695,1.12778,0.052315,-19.1809,0.100676,
2,0,0,1,0,9061.8,0.0994721,0.0991397,-9.36477,5,0.00919002,10,-0.00092842,-2.0285,0.736337,0.0801263,-29.2717,0.09913972,
2,0,0,1,0,9061.82,0.0979846,0.0976574,-9.32496,5,0.00901599,10,-0.000910651,-2.03035,0.5749,0.102627,-37.2981,0.0976574,
2,0,0,1,0,9061.83,0.0964811,0.0961549,-9.26371,5,0.00884105,10,-0.000890751,-2.03322,0.44062,0.133902,-48.3307,0.0961549,
2,0,0,1,0,9061.85,0.0949847,0.0946594,-9.18692,5,0.0086683,10,-0.000869629,-2.03683,0.379127,0.155621,-55.7422,0.09465941,
2,0,0,1,0,9061.87,0.0934883,0.0931616,-9.10136,5,0.00849716,10,-0.000847898,-2.04089,0.349911,0.168614,-59.9,0.0931616,
2,0,0,1,0,9061.89,0.0919847,0.0916987,-9.01086,5,0.00832669,10,-0.000826284,-2.04523,0.319426,0.184706,-64.8937,0.0916987,
2,0,0,1,0,9061.91,0.0904955,0.0901762,-8.91763,5,0.00815976,10,-0.000804157,-2.04975,0.285805,0.206435,-71.7639,0.0901762,
2,0,0,1,0,9061.93,0.0889919,0.0887051,-8.81215,5,0.00799305,10,-0.000781683,-2.05492,0.274061,0.215281,-73.9194,0.0887051,
2,0,0,1,0,9061.95,0.0874884,0.0871982,-8.69521,5,0.00782844,10,-0.000758207,-2.06072,0.277967,0.212256,-71.9976,0.08719822,
2,0,0,1,0,9061.97,0.0860009,0.0856934,-8.58701,5,0.00766765,10,-0.00073585,-2.06616,0.287725,0.205057,-68.6712,0.0856934,
2,0,0,1,0,9061.98,0.0844973,0.084208,-8.47661,5,0.00750713,10,-0.000713798,-2.07178,0.286028,0.206274,-68.2208,0.084208,
2,0,0,1,0,9062,0.0829938,0.0827124,-8.36466,5,0.00734865,10,-0.000691861,-2.07755,0.284208,0.207595,-67.836,0.0827124,
2,0,0,1,0,9062.02,0.0815045,0.0811966,-8.2583,5,0.00719387,10,-0.000670546,-2.08311,0.29318,0.201241,-64.9439,0.0811966,
2,0,0,1,0,9062.04,0.080001,0.0796553,-8.16238,5,0.00703929,10,-0.000650177,-2.08818,0.317306,0.18594,-59.3071,0.0796553,
2,0,0,1,0,9062.06,0.0785046,0.0781749,-8.07617,5,0.00688722,10,-0.000631354,-2.09279,0.337214,0.174963,-55.21,0.0781749,
2,0,0,1,0,9062.08,0.0770082,0.0766531,-7.99432,5,0.00673668,10,-0.000612789,-2.09722,0.32671,0.180588,-56.382,0.0766531,
2,0,0,1,0,9062.1,0.0755046,0.0751664,-7.91276,5,0.00658685,10,-0.000594774,-2.10167,0.353461,0.166921,-51.6386,0.0751664,
2,0,0,1,0,9062.11,0.0740154,0.073695,-7.84702,5,0.00644008,10,-0.000578286,-2.1053,0.378366,0.155934,-47.8203,0.073695,
2,0,0,1,0,9062.13,0.0725118,0.0722017,-7.789,5,0.00629295,10,-0.000562379,-2.10852,0.433499,0.136102,-41.3777,0.0722017,
2,0,0,1,0,9062.15,0.0710083,0.070701,-7.73145,5,0.0061469,10,-0.000546621,-2.11174,0.415784,0.141901,-42.7822,0.070701,
2,0,0,1,0,9062.17,0.0695208,0.0692404,-7.67249,5,0.00600348,10,-0.000531247,-2.11506,0.472035,0.124991,-37.4512,0.0692404,
2,0,0,1,0,9062.19,0.0680173,0.0677165,-7.62114,5,0.00585967,10,-0.000516077,-2.11798,0.52371,0.112658,-33.5247,0.0677165,
2,0,0,1,0,9062.21,0.0665137,0.0662165,-7.56605,5,0.00571671,10,-0.000500997,-2.12113,0.581422,0.101475,-29.9928,0.0662165,
2,0,0,1,0,9062.23,0.0650244,0.0647103,-7.5369,5,0.00557612,10,-0.000487715,-2.12281,0.572098,0.103129,-30.2819,0.0647103,
2,0,0,1,0,9062.25,0.0635209,0.0632313,-7.48601,5,0.00543485,10,-0.000473351,-2.12575,0.579649,0.101786,-29.7068,0.0632313,
2,0,0,1,0,9062.26,0.0620245,0.0616959,-7.43009,5,0.00529526,10,-0.000458407,-2.12901,0.596139,0.0989702,-28.7237,0.0616959,
2,0,0,1,0,9062.28,0.0605281,0.0602104,-7.38992,5,0.00515652,10,-0.00044495,-2.13136,0.634197,0.0930311,-26.8352,0.0602104,
2,0,0,1,0,9062.3,0.0590246,0.0587244,-7.34282,5,0.00501778,10,-0.000431202,-2.13414,0.65064,0.09068,-26.0032,0.0587244,
2,0,0,1,0,9062.32,0.0575353,0.0572349,-7.3026,5,0.00488133,10,-0.000417964,-2.13652,0.581291,0.101498,-28.941,0.0572349,
2,0,0,1,0,9062.34,0.0560317,0.0556966,-7.25065,5,0.00474425,10,-0.000403837,-2.13962,0.605724,0.0974041,-27.6027,0.0556966,
2,0,0,1,0,9062.36,0.0545282,0.0542078,-7.21329,5,0.004608,10,-0.000391017,-2.14187,0.660248,0.0893604,-25.1875,0.0542078,
2,0,0,1,0,9062.38,0.0530407,0.0526941,-7.17485,5,0.00447392,10,-0.000378073,-2.14419,0.576784,0.102291,-28.6542,0.0526941,
2,0,0,1,0,9062.4,0.0515372,0.0511968,-7.13646,5,0.00433914,10,-0.000365364,-2.14652,0.48698,0.121155,-33.7022,0.0511968,
2,0,0,1,0,9062.41,0.0500336,0.0497301,-7.08439,5,0.00420519,10,-0.000352308,-2.1497,0.502342,0.11745,-32.4822,0.0497301,
2,0,0,1,0,9062.43,0.0485444,0.0482229,-7.04593,5,0.00407363,10,-0.000339775,-2.15206,0.470381,0.12543,-34.4897,0.0482229,
2,0,0,1,0,9062.45,0.0470408,0.0467365,-7.00054,5,0.00394143,10,-0.000327181,-2.15487,0.522143,0.112996,-30.8737,0.0467365,
2,0,0,1,0,9062.47,0.0455444,0.0452262,-6.95745,5,0.00381077,10,-0.000314659,-2.15755,0.449459,0.131269,-35.606,0.0452262,
2,0,0,1,0,9062.49,0.044048,0.0437504,-6.91892,5,0.00368096,10,-0.000302705,-2.15996,0.472681,0.12482,-33.6512,0.0437504,
2,0,0,1,0,9062.51,0.0425445,0.0422322,-6.86235,5,0.00355147,10,-0.000289812,-2.16353,0.516768,0.114171,-30.5727,0.0422322,
2,0,0,1,0,9062.53,0.0410552,0.0407349,-6.813,5,0.00342422,10,-0.000277527,-2.16666,0.5516,0.106962,-28.4181,0.0407349,
2,0,0,1,0,9062.55,0.0395517,0.0392389,-6.76928,5,0.00329643,10,-0.000265619,-2.16946,0.526055,0.112156,-29.5697,0.0392389,
2,0,0,1,0,9062.56,0.0380481,0.0377154,-6.7156,5,0.00316956,10,-0.000253281,-2.17292,0.463612,0.127262,-33.3053,0.0377154,
2,0,0,1,0,9062.58,0.0365606,0.0362627,-6.65253,5,0.00304512,10,-0.000241239,-2.17701,0.443311,0.133089,-34.5606,0.0362627,
2,0,0,1,0,9062.6,0.0350571,0.0347002,-6.59229,5,0.0029204,10,-0.000228754,-2.18096,0.466782,0.126397,-32.541,0.0347002,
2,0,0,1,0,9062.62,0.0335535,0.0332271,-6.53592,5,0.00279671,10,-0.00021717,-2.18469,0.428777,0.137601,-35.1159,0.0332271,
2,0,0,1,0,9062.64,0.0320643,0.0317639,-6.47895,5,0.00267538,10,-0.000205796,-2.1885,0.360881,0.163489,-41.3209,0.0317639,
2,0,0,1,0,9062.66,0.0305607,0.0302587,-6.40705,5,0.00255393,10,-0.000193869,-2.19334,0.349407,0.168857,-42.3124,0.0302587,
2,0,0,1,0,9062.68,0.0290643,0.0287243,-6.35128,5,0.00243433,10,-0.000182436,-2.19714,0.345851,0.170594,-42.3323,0.0287243,
2,0,0,1,0,9062.7,0.0275679,0.0272627,-6.29789,5,0.00231585,10,-0.000171697,-2.2008,0.338785,0.174152,-42.792,0.0272627,
2,0,0,1,0,9062.71,0.0260644,0.0257865,-6.23644,5,0.00219788,10,-0.000160816,-2.20506,0.305413,0.193181,-46.9483,0.0257865,
2,0,0,1,0,9062.73,0.0245751,0.0242837,-6.16584,5,0.00208231,10,-0.000149729,-2.21001,0.308924,0.190986,-45.9391,0.0242837,
2,0,0,1,0,9062.75,0.0230716,0.0227625,-6.10741,5,0.00196686,10,-0.00013902,-2.21414,0.305552,0.193093,-46.0149,0.02276249,
2,0,0,1,0,9062.77,0.021568,0.0212447,-6.04843,5,0.00185255,10,-0.000128497,-2.21836,0.346534,0.170257,-40.1654,0.02124471,
2,0,0,1,0,9062.79,0.0200805,0.0197804,-5.98485,5,0.00174055,10,-0.000118383,-2.22295,0.335028,0.176105,-41.0891,0.0197804,
2,0,0,1,0,9062.81,0.018577,0.0182691,-5.92381,5,0.0016285,10,-0.000108223,-2.2274,0.33478,0.176235,-40.7186,0.0182691,
2,0,0,1,0,9062.83,0.0170735,0.0167718,-5.85906,5,0.00151764,10,-9.8267e-05,-2.23217,0.389704,0.151397,-34.6555,0.0167718,
2,0,0,1,0,9062.85,0.0155842,0.015283,-5.8027,5,0.00140904,10,-8.86826e-05,-2.23637,0.428438,0.13771,-31.2208,0.015283,
2,0,0,1,0,9062.86,0.0140806,0.0137107,-5.75798,5,0.00130016,10,-7.89458e-05,-2.23973,0.435925,0.135344,-30.3781,0.0137107,
2,0,0,1,0,9062.88,0.0125842,0.0122614,-5.70268,5,0.00119279,10,-6.9923e-05,-2.24392,0.406063,0.145298,-32.341,0.0122614,
2,0,0,1,0,9062.9,0.0110878,0.0108084,-5.64579,5,0.00108646,10,-6.10218e-05,-2.24828,0.420081,0.140449,-31.0192,0.0108084,
2,0,0,1,0,9062.92,0.00958429,0.00926708,-5.60696,5,0.000980405,10,-5.19601e-05,-2.25127,0.474822,0.124257,-27.2313,0.00926708,
2,0,0,1,0,9062.94,0.0080968,0.00778304,-5.5676,5,0.000876219,10,-4.33328e-05,-2.25433,0.490839,0.120202,-26.1592,0.00778304,
2,0,0,1,0,9062.96,0.00659326,0.00623969,-5.52734,5,0.000771649,10,-3.44889e-05,-2.25748,0.501895,0.117555,-25.3979,0.00623969,
2,0,0,1,0,9062.98,0.00508972,0.00476485,-5.4877,5,0.000667778,10,-2.61481e-05,-2.26061,0.524974,0.112386,-24.1231,0.00476485,
2,0,0,1,0,9063,0.00360044,0.00325798,-5.46914,5,0.000565652,10,-1.78183e-05,-2.26208,1.29197,0.0456667,-9.79166,0.00325798,
2,0,0,1,0,9063.01,0.0020969,0.00178519,-5.49634,5,0.000462792,10,-9.812e-06,-2.25993,1.25386,0.0470548,-10.0258,0.00178519,
2,0,0,1,0,9063.03,0.000593362,0.0002006,-5.44875,5,0.000359716,10,-1.09302e-06,-2.2637, , , ,0.0002006,
2,0,0,1,0,9063.04,0.000199195,-0.000206982,-5.43952,5,0.000332989,10,1.12588e-06,-2.26444, , , ,-0.000206982,