File: Figure_codes/Fig_3-5/rawdata_trumpetplot_data/after 10th/20221101_1-115_003_TrumpetPlot_ParaChange_from10_every3_09_CV_C01_27.csv
mode,ox/red,error,control changes,counter inc.,time/s,control/V,Ewe/V,<I>/mA,cycle number,(Q-Qo)/C,I Range,P/W,log(|I|),Tafel slope mV/dec,alpha_eff,dI/d(E-IR),E-IR/V,
2,0,0,0,0,54376,2.44065e-05,-0.000344411,-5.24044,28,0.0000000E+000,10,1.80486e-06,-2.28063, , , ,-0.000344411,
2,0,0,1,0,54376.1,0.00179726,0.00140623,-3.03308,28,-6.99794e-05,10,-4.2652e-06,-2.51812, , , ,0.00140623,
2,0,0,1,0,54376.1,0.00379485,0.00343488,-1.53399,28,-0.000114248,10,-5.26907e-06,-2.81418,-0.0050854,-11.6018,626.898,0.00343488,
2,0,0,1,0,54376.1,0.00579244,0.0054793,-0.479679,28,-0.000133668,10,-2.6283e-06,-3.31905,-0.00594932,-9.91709,461.267,0.0054793,
2,1,0,1,0,54376.1,0.00779002,0.00746064,0.322959,28,-0.000134769,10,2.40948e-06,-3.49085,0.0130559,4.51905,367.081,0.00746064,
2,1,0,1,0,54376.1,0.00978761,0.00939099,0.956231,28,-0.000121592,10,8.97995e-06,-3.01944,0.00606085,9.73462,285.968,0.00939099,
2,1,0,1,0,54376.2,0.0117852,0.0114264,1.45703,28,-9.71503e-05,10,1.66486e-05,-2.83653,0.0137245,4.29887,228.664,0.01142639,
2,1,0,1,0,54376.2,0.0137828,0.0133928,1.87131,28,-6.3681e-05,10,2.50621e-05,-2.72785,0.0218977,2.69435,190.5,0.0133928,
2,1,0,1,0,54376.2,0.0157804,0.0154295,2.21963,28,-2.25769e-05,10,3.42478e-05,-2.65372,0.0312835,1.88598,160.353,0.0154295,
2,1,0,1,0,54376.2,0.017778,0.0174246,2.51782,28,2.47339e-05,10,4.38721e-05,-2.59898,0.0420434,1.40331,135.76,0.0174246,
2,1,0,1,0,54376.2,0.0197755,0.0193919,2.75756,28,7.75716e-05,10,5.34742e-05,-2.55948,0.0543635,1.08529,116.182,0.0193919,
2,1,0,1,0,54376.3,0.0217731,0.0214139,2.9813,28,0.000135085,10,6.38413e-05,-2.52559,0.0672195,0.877721,101.311,0.0214139,
2,1,0,1,0,54376.3,0.0237707,0.0234338,3.16705,28,0.000196675,10,7.42161e-05,-2.49934,0.0794526,0.742581,91.6112,0.0234338,
2,1,0,1,0,54376.3,0.0257683,0.025417,3.34803,28,0.000261602,10,8.50967e-05,-2.47521,0.0913593,0.645802,84.0127,0.025417,
2,1,0,1,0,54376.3,0.0277659,0.027461,3.50539,28,0.000330204,10,9.62616e-05,-2.45526,0.105196,0.560856,76.5535,0.027461,
2,1,0,1,0,54376.3,0.0297635,0.0293776,3.65123,28,0.000401836,10,0.000107264,-2.43756,0.119875,0.492181,69.9543,0.0293776,
2,1,0,1,0,54376.4,0.0317611,0.0314134,3.78187,28,0.00047623,10,0.000118802,-2.42229,0.130299,0.452803,66.8676,0.0314134,
2,1,0,1,0,54376.4,0.0337587,0.0333941,3.9198,28,0.000552884,10,0.000130898,-2.40674,0.142114,0.415158,63.3077,0.03339408,
2,1,0,1,0,54376.4,0.0357562,0.0354198,4.03551,28,0.000632498,10,0.000142937,-2.3941,0.162113,0.363944,57.3005,0.0354198,
2,1,0,1,0,54376.4,0.0377538,0.0374265,4.15086,28,0.000714428,10,0.000155352,-2.38186,0.166344,0.354688,57.4197,0.0374265,
2,1,0,1,0,54376.4,0.0397514,0.0393784,4.26281,28,0.000798613,10,0.000167862,-2.3703,0.169458,0.348169,57.968,0.0393784,
2,1,0,1,0,54376.5,0.041749,0.0414399,4.38351,28,0.000884726,10,0.000181652,-2.35818,0.180718,0.326476,55.7259,0.0414399,
2,1,0,1,0,54376.5,0.0437466,0.0433898,4.48635,28,0.000973508,10,0.000194662,-2.34811,0.199491,0.295753,51.7759,0.0433898,
2,1,0,1,0,54376.5,0.0457442,0.0454196,4.58956,28,0.00106428,10,0.000208456,-2.33823,0.207609,0.284188,50.8779,0.0454196,
2,1,0,1,0,54376.5,0.0477418,0.0473886,4.6898,28,0.00115717,10,0.000222243,-2.32885,0.202106,0.291925,53.4832,0.0473886,
2,1,0,1,0,54376.5,0.0497484,0.0493702,4.80086,28,0.00125212,10,0.000237019,-2.31868,0.213362,0.276525,51.7252,0.0493702,
2,1,0,1,0,54376.6,0.0517369,0.0514067,4.89764,28,0.00134865,10,0.000251771,-2.31001,0.231504,0.254856,48.7193,0.0514067,
2,1,0,1,0,54376.6,0.0537345,0.0533963,4.997,28,0.00144762,10,0.000266822,-2.30129,0.240647,0.245172,47.7662,0.0533963,
2,1,0,1,0,54376.6,0.0557321,0.0553885,5.08783,28,0.00154855,10,0.000281807,-2.29347,0.251195,0.234877,46.6528,0.0553885,
2,1,0,1,0,54376.6,0.0577206,0.0573847,5.18307,28,0.0016508,10,0.000297429,-2.28541,0.240937,0.244877,49.5673,0.0573847,
2,1,0,1,0,54376.6,0.0597273,0.0593993,5.28664,28,0.00175558,10,0.000314023,-2.27682,0.253145,0.233068,48.008,0.0593993,
2,1,0,1,0,54376.7,0.0617249,0.0613618,5.37401,28,0.0018622,10,0.000329759,-2.2697,0.293897,0.200751,42.0759,0.0613618,
2,1,0,1,0,54376.7,0.0637225,0.0634055,5.4552,28,0.00197059,10,0.00034589,-2.26319,0.289346,0.203908,43.4519,0.0634055,
2,1,0,1,0,54376.7,0.06572,0.0653511,5.54735,28,0.00208066,10,0.000362525,-2.25591,0.26994,0.218567,47.3256,0.0653511,
2,1,0,1,0,54376.7,0.0677176,0.0673554,5.64213,28,0.00219215,10,0.000380028,-2.24856,0.295097,0.199934,43.9722,0.0673554,
2,1,0,1,0,54376.7,0.0697152,0.0693791,5.72447,28,0.00230588,10,0.000397158,-2.24227,0.324281,0.181941,40.636,0.0693791,
2,1,0,1,0,54376.8,0.0717128,0.07135,5.80446,28,0.0024212,10,0.000414148,-2.23624,0.325232,0.181409,41.1033,0.07135,
2,1,0,1,0,54376.8,0.0737104,0.0733496,5.88767,28,0.00253814,10,0.000431859,-2.23006,0.33888,0.174103,39.9881,0.0733496,
2,1,0,1,0,54376.8,0.075708,0.0754062,5.96666,28,0.00265619,10,0.000449923,-2.22427,0.357873,0.164863,38.3729,0.0754062,
2,1,0,1,0,54376.8,0.0777056,0.0773453,6.04099,28,0.00277628,10,0.000467243,-2.21889,0.369604,0.15963,37.6362,0.0773453,
2,1,0,1,0,54376.8,0.0797031,0.0793868,6.11647,28,0.00289787,10,0.000485567,-2.2135,0.396753,0.148707,35.4708,0.0793868,
2,1,0,1,0,54376.9,0.0817007,0.0813584,6.18334,28,0.0030209,10,0.000503067,-2.20878,0.406158,0.145264,35.0697,0.08135841,
2,1,0,1,0,54376.9,0.0836983,0.0833676,6.25608,28,0.00314471,10,0.000521554,-2.2037,0.420808,0.140206,34.209,0.0833676,
2,1,0,1,0,54376.9,0.0856959,0.0853792,6.32089,28,0.00327054,10,0.000539673,-2.19922,0.435256,0.135552,33.4434,0.0853792,
2,1,0,1,0,54376.9,0.0876935,0.0873103,6.38794,28,0.0033977,10,0.000557733,-2.19464,0.469365,0.125702,31.312,0.0873103,
2,1,0,1,0,54376.9,0.0896911,0.0893411,6.44494,28,0.00352604,10,0.000575798,-2.19078,0.450801,0.130878,32.9661,0.0893411,
2,1,0,1,0,54377,0.0916887,0.0913398,6.52077,28,0.00365507,10,0.000595606,-2.1857,0.434296,0.135852,34.5353,0.0913398,
2,1,0,1,0,54377,0.0936862,0.0933422,6.58313,28,0.00378619,10,0.000614484,-2.18157,0.473745,0.12454,31.9998,0.0933422,
2,1,0,1,0,54377,0.0956838,0.0952909,6.64721,28,0.00391857,10,0.000633418,-2.17736,0.434604,0.135756,35.2501,0.0952909,
2,1,0,1,0,54377,0.0976814,0.0973388,6.72401,28,0.00405233,10,0.000654507,-2.17237,0.381186,0.15478,40.6469,0.09733884,
2,1,0,1,0,54377,0.099679,0.0993308,6.81142,28,0.00418699,10,0.000676583,-2.16676,0.37517,0.157262,41.7785,0.0993308,
2,1,0,1,0,54377.1,0.101677,0.101335,6.89098,28,0.00432407,10,0.0006983,-2.16172,0.369204,0.159803,43.0101,0.101335,
2,1,0,1,0,54377.1,0.103674,0.103298,6.98207,28,0.00446282,10,0.000721237,-2.15602,0.318819,0.185058,50.4843,0.103298,
2,1,0,1,0,54377.1,0.105672,0.105282,7.09023,28,0.00460361,10,0.000746476,-2.14934,0.291309,0.202534,56.0692,0.105282,
2,1,0,1,0,54377.1,0.107667,0.107295,7.20618,28,0.00474586,10,0.00077319,-2.1423,0.285414,0.206717,58.1482,0.107295,
2,1,0,1,0,54377.1,0.109667,0.109345,7.32646,28,0.0048912,10,0.00080111,-2.13511,0.275251,0.21435,61.3153,0.109345,
2,1,0,1,0,54377.2,0.111665,0.111345,7.45447,28,0.00503909,10,0.000830019,-2.12758,0.26268,0.224608,65.3578,0.111345,
2,1,0,1,0,54377.2,0.113662,0.113333,7.58713,28,0.00518956,10,0.000859873,-2.11992,0.260711,0.226304,66.9965,0.113333,
2,1,0,1,0,54377.2,0.11566,0.115286,7.71849,28,0.00534266,10,0.000889831,-2.11247,0.254096,0.232196,70.0153,0.115286,
2,1,0,1,0,54377.2,0.117657,0.117334,7.86727,28,0.00549784,10,0.000923101,-2.10418,0.263669,0.223766,68.5916,0.117334,
2,1,0,1,0,54377.2,0.119655,0.119272,7.99195,28,0.0056565,10,0.000953219,-2.09735,0.284413,0.207445,64.7281,0.119272,
2,1,0,1,0,54377.3,0.121652,0.121307,8.12439,28,0.00581774,10,0.000985541,-2.09021,0.287636,0.20512,65.0303,0.121307,
2,1,0,1,0,54377.3,0.12365,0.123341,8.25649,28,0.00598161,10,0.00101836,-2.0832,0.291396,0.202474,65.2208,0.123341,
2,1,0,1,0,54377.3,0.125648,0.125296,8.38456,28,0.00614731,10,0.00105055,-2.07652,0.343162,0.17193,56.1438,0.125296,
2,1,0,1,0,54377.3,0.127645,0.127305,8.4791,28,0.00631606,10,0.00107944,-2.07165,0.38061,0.155014,51.3455,0.127305,
2,1,0,1,0,54377.3,0.129643,0.129311,8.59075,28,0.00648683,10,0.00111088,-2.06597,0.383779,0.153734,51.4875,0.1293114,
2,1,0,1,0,54377.4,0.13164,0.131303,8.6849,28,0.00665961,10,0.00114035,-2.06124,0.474638,0.124305,42.0836,0.131303,
2,1,0,1,0,54377.4,0.133638,0.133319,8.75941,28,0.00683331,10,0.0011678,-2.05753,0.533849,0.110518,37.7837,0.133319,
2,1,0,1,0,54377.4,0.135636,0.135293,8.83566,28,0.00700933,10,0.0011954,-2.05376,0.584853,0.10088,34.7595,0.135293,
2,1,0,1,0,54377.4,0.137633,0.137326,8.89868,28,0.00718671,10,0.00122202,-2.05067,0.674309,0.0874969,30.3769,0.137326,
2,1,0,1,0,54377.4,0.139631,0.139264,8.9563,28,0.00736531,10,0.00124729,-2.04787,0.837111,0.0704805,24.6102,0.139264,
2,1,0,1,0,54377.5,0.141628,0.141269,8.99572,28,0.007544,10,0.00127081,-2.04596,1.20888,0.0488057,17.1255,0.141269,
2,1,0,1,0,54377.5,0.143626,0.143323,9.02581,28,0.00772432,10,0.0012936,-2.04451,1.9579,0.0301343,10.6046,0.1433228,
2,1,0,1,0,54377.5,0.145624,0.145312,9.03859,28,0.007905,10,0.00131341,-2.0439,-6.49749,-0.00908043,-3.19634,0.145312,
2,1,0,1,0,54377.5,0.147621,0.14726,9.01322,28,0.00808551,10,0.00132728,-2.04512,-1.27224,-0.0463749,-16.3001,0.14726,
2,1,0,1,0,54377.5,0.149619,0.149276,8.97397,28,0.00826459,10,0.0013396,-2.04702,-0.709535,-0.0831531,-29.0601,0.149276,
2,1,0,1,0,54377.6,0.151616,0.151273,8.89658,28,0.0084434,10,0.00134581,-2.05078,-0.410581,-0.143699,-49.7635,0.151273,
2,1,0,1,0,54377.6,0.153614,0.1533,8.77372,28,0.00862016,10,0.00134501,-2.05682,-0.291124,-0.202663,-69.2661,0.1533,
2,1,0,1,0,54377.6,0.155611,0.155266,8.62001,28,0.00879415,10,0.0013384,-2.06449,-0.230223,-0.256273,-86.0312,0.155266,
2,1,0,1,0,54377.6,0.157609,0.157271,8.43212,28,0.0089638,10,0.00132613,-2.07406,-0.179559,-0.328582,-107.76,0.157271,
2,1,0,1,0,54377.6,0.159607,0.159255,8.19021,28,0.00913009,10,0.00130433,-2.0867,-0.149885,-0.393636,-125.682,0.159255,
2,1,0,1,0,54377.7,0.161604,0.161224,7.93526,28,0.00929136,10,0.00127936,-2.10044,-0.135593,-0.435125,-134.463,0.1612241,
2,1,0,1,0,54377.7,0.163602,0.163255,7.65229,28,0.00944722,10,0.00124928,-2.11621,-0.123817,-0.476512,-142.147,0.163255,
2,1,0,1,0,54377.7,0.165606,0.165276,7.35927,28,0.00959735,10,0.00121631,-2.13317,-0.115323,-0.511605,-146.884,0.165276,
2,1,0,1,0,54377.7,0.167597,0.167229,7.0686,28,0.00974097,10,0.00118207,-2.15067,-0.114744,-0.514187,-141.917,0.167229,
2,1,0,1,0,54377.7,0.169595,0.169269,6.79259,28,0.00987961,10,0.00114978,-2.16796,-0.115087,-0.512656,-135.861,0.169269,
2,1,0,1,0,54377.8,0.171592,0.171268,6.51986,28,0.0100127,10,0.00111664,-2.18576,-0.113677,-0.519014,-132.226,0.171268,
2,1,0,1,0,54377.8,0.173581,0.17322,6.27019,28,0.0101399,10,0.00108612,-2.20272,-0.119202,-0.49496,-121.266,0.17322,
2,1,0,1,0,54377.8,0.175587,0.175211,6.04173,28,0.0102631,10,0.00105858,-2.21884,-0.12818,-0.460289,-108.647,0.175211,
2,1,0,1,0,54377.8,0.177585,0.177258,5.83144,28,0.0103818,10,0.00103367,-2.23422,-0.133458,-0.442086,-100.717,0.177258,
2,1,0,1,0,54377.8,0.179582,0.179219,5.63803,28,0.0104965,10,0.00101044,-2.24887,-0.142225,-0.414834,-91.4239,0.1792191,
2,1,0,1,0,54377.9,0.18158,0.181249,5.46657,28,0.0106075,10,0.000990812,-2.26228,-0.15471,-0.381358,-81.4794,0.181249,
2,1,0,1,0,54377.9,0.183578,0.183192,5.31434,28,0.0107148,10,0.000973543,-2.27455,-0.164895,-0.357803,-74.2218,0.183192,
2,1,0,1,0,54377.9,0.185575,0.185289,5.16675,28,0.0108196,10,0.000957341,-2.28678,-0.176788,-0.333733,-67.4228,0.185289,
2,1,0,1,0,54377.9,0.187573,0.187242,5.04126,28,0.0109216,10,0.000943935,-2.29746,-0.190164,-0.310258,-61.094,0.187242,
2,1,0,1,0,54377.9,0.18957,0.189224,4.92635,28,0.0110213,10,0.000932182,-2.30747,-0.214659,-0.274855,-52.9309,0.189224,
2,1,0,1,0,54378,0.191568,0.191248,4.82924,28,0.0111184,10,0.00092358,-2.31612,-0.224141,-0.263227,-49.5864,0.191248,
2,1,0,1,0,54378,0.193566,0.193208,4.72881,28,0.011214,10,0.000913642,-2.32525,-0.234382,-0.251726,-46.5232,0.1932075,
2,1,0,1,0,54378,0.195563,0.195245,4.64324,28,0.0113077,10,0.000906572,-2.33318,-0.249168,-0.236788,-42.9066,0.1952455,
2,1,0,1,0,54378,0.197561,0.197182,4.55826,28,0.0113998,10,0.000898809,-2.3412,-0.279621,-0.211,-37.62,0.197182,
2,1,0,1,0,54378,0.199558,0.199198,4.49456,28,0.0114899,10,0.000895306,-2.34731,-0.328256,-0.179738,-31.5271,0.199198,
2,1,0,1,0,54378.1,0.201556,0.201209,4.43132,28,0.0115792,10,0.00089162,-2.35347,-0.318975,-0.184968,-31.9849,0.201209,
2,1,0,1,0,54378.1,0.203554,0.203163,4.36772,28,0.0116672,10,0.000887361,-2.35975,-0.341363,-0.172836,-29.4912,0.203163,
2,1,0,1,0,54378.1,0.205551,0.205204,4.31348,28,0.011754,10,0.000885146,-2.36517,-0.446877,-0.132027,-22.2723,0.205204,
2,1,0,1,0,54378.1,0.207549,0.207208,4.27763,28,0.0118395,10,0.00088636,-2.3688,-0.447667,-0.131794,-21.9608,0.207208,
2,1,0,1,0,54378.1,0.209546,0.209188,4.22601,28,0.0119246,10,0.000884029,-2.37407,-0.377869,-0.156139,-25.7502,0.209188,
2,1,0,1,0,54378.2,0.211544,0.21122,4.17432,28,0.0120086,10,0.000881701,-2.37941,-0.456498,-0.129245,-21.1013,0.21122,
2,1,0,1,0,54378.2,0.213541,0.21321,4.14114,28,0.0120919,10,0.000882931,-2.38288,-0.582531,-0.101282,-16.3717,0.21321,
2,1,0,1,0,54378.2,0.215539,0.215173,4.1096,28,0.012174,10,0.000884277,-2.3862,-0.507775,-0.116193,-18.6082,0.215173,
2,1,0,1,0,54378.2,0.217537,0.217237,4.06619,28,0.0122558,10,0.000883329,-2.39081,-0.525733,-0.112224,-17.8422,0.217237,
2,1,0,1,0,54378.2,0.219534,0.219178,4.03816,28,0.0123369,10,0.000885074,-2.39382,-0.688191,-0.085732,-13.5156,0.219178,
2,1,0,1,0,54378.3,0.221532,0.221176,4.01296,28,0.0124175,10,0.00088757,-2.39654,-0.704833,-0.0837078,-13.1061,0.221176,
2,1,0,1,0,54378.3,0.223525,0.223183,3.98567,28,0.0124971,10,0.000889532,-2.3995,-0.773526,-0.0762741,-11.874,0.223183,
2,1,0,1,0,54378.3,0.225527,0.225213,3.96502,28,0.0125767,10,0.000892975,-2.40175,-0.767066,-0.0769164,-11.8923,0.225213,
2,1,0,1,0,54378.3,0.227525,0.227204,3.93785,28,0.0126558,10,0.000894694,-2.40474,-0.656642,-0.0898511,-13.8083,0.227204,
2,1,0,1,0,54378.3,0.229522,0.229148,3.91069,28,0.0127344,10,0.000896126,-2.40775,-0.835938,-0.0705794,-10.7879,0.229148,
2,1,0,1,0,54378.4,0.23152,0.231161,3.89515,28,0.0128125,10,0.000900409,-2.40948,-1.20133,-0.0491122,-7.46691,0.231161,
2,1,0,1,0,54378.4,0.233517,0.233152,3.88079,28,0.01289,10,0.000904815,-2.41108,-1.04538,-0.0564389,-8.54184,0.233152,
2,1,0,1,0,54378.4,0.235515,0.235169,3.86092,28,0.0129675,10,0.000907969,-2.41331,-0.961941,-0.0613343,-9.24512,0.235169,
2,1,0,1,0,54378.4,0.237512,0.237148,3.84385,28,0.0130445,10,0.000911561,-2.41523,-1.1188,-0.0527349,-7.91324,0.237148,
2,1,0,1,0,54378.4,0.23951,0.239195,3.82906,28,0.0131213,10,0.000915892,-2.41691,-1.37176,-0.0430106,-6.43016,0.239195,
2,1,0,1,0,54378.5,0.241508,0.241221,3.81766,28,0.0131975,10,0.0009209,-2.4182,-1.09551,-0.0538561,-8.01446,0.241221,
2,1,0,1,0,54378.5,0.243505,0.243178,3.79714,28,0.0132736,10,0.000923381,-2.42054,-1.18139,-0.0499412,-7.41231,0.243178,
2,1,0,1,0,54378.5,0.245503,0.245161,3.78846,28,0.0133495,10,0.000928781,-2.42154,-1.45023,-0.0406833,-6.00983,0.245161,
2,1,0,1,0,54378.5,0.2475,0.247166,3.77317,28,0.0134252,10,0.0009326,-2.42329,-1.22888,-0.0480112,-7.07201,0.247166,
2,1,0,1,0,54378.5,0.249498,0.24916,3.76018,28,0.0135002,10,0.000936884,-2.42479,-1.28695,-0.0458449,-6.72687,0.24916,
2,1,0,1,0,54378.6,0.251496,0.251152,3.74636,28,0.0135754,10,0.000940906,-2.42639,-1.66019,-0.0355381,-5.20077,0.251152,
2,1,0,1,0,54378.6,0.253493,0.253143,3.73946,28,0.0136503,10,0.00094662,-2.42719,-1.3808,-0.0427287,-6.22654,0.253143,
2,1,0,1,0,54378.6,0.255491,0.255149,3.72147,28,0.013725,10,0.00094953,-2.42929,-1.70835,-0.0345363,-5.02673,0.255149,
2,1,0,1,0,54378.6,0.257488,0.257118,3.71948,28,0.0137991,10,0.000956346,-2.42952,-2.77335,-0.0212739,-3.08464,0.257118,
2,1,0,1,0,54378.6,0.259486,0.25915,3.70913,28,0.0138735,10,0.000961222,-2.43073,-1.50117,-0.0393026,-5.6873,0.25915,
2,1,0,1,0,54378.7,0.261484,0.261208,3.69622,28,0.0139476,10,0.000965482,-2.43224,-1.22742,-0.0480683,-6.93219,0.261208,
2,1,0,1,0,54378.7,0.263481,0.26314,3.68147,28,0.0140215,10,0.000968743,-2.43398,-2.31854,-0.025447,-3.66359,0.26314,
2,1,0,1,0,54378.7,0.265479,0.265161,3.68174,28,0.0140948,10,0.000976252,-2.43395,-2.69803,-0.0218678,-3.13653,0.265161,
2,1,0,1,0,54378.7,0.267476,0.267141,3.66892,28,0.0141684,10,0.000980118,-2.43546,-1.40849,-0.041889,-5.99945,0.267141,
2,1,0,1,0,54378.7,0.269474,0.26912,3.65798,28,0.0142417,10,0.000984437,-2.43676,-1.85475,-0.0318103,-4.54356,0.26912,
2,1,0,1,0,54378.8,0.271471,0.271124,3.65082,28,0.0143149,10,0.000989826,-2.43761,-5.77043,-0.0102245,-1.45848,0.271124,
2,1,0,1,0,54378.8,0.273469,0.273153,3.6521,28,0.0143875,10,0.000997583,-2.43746,-2.31373,-0.0255,-3.62608,0.273153,
2,1,0,1,0,54378.8,0.275467,0.27509,3.63644,28,0.0144604,10,0.00100035,-2.43932,-1.30855,-0.045088,-6.40384,0.27509,
2,1,0,1,0,54378.8,0.277464,0.277152,3.6265,28,0.0145331,10,0.00100509,-2.44051,-1.81008,-0.0325952,-4.61396,0.277152,
2,1,0,1,0,54378.8,0.279462,0.279146,3.61773,28,0.0146056,10,0.00100987,-2.44156,-1.80102,-0.0327592,-4.6247,0.279146,
2,1,0,1,0,54378.9,0.281464,0.28112,3.60814,28,0.0146778,10,0.00101432,-2.44272,-1.70106,-0.0346842,-4.88392,0.28112,
2,1,0,1,0,54378.9,0.283457,0.283101,3.59841,28,0.0147496,10,0.00101871,-2.44389,-2.32384,-0.0253891,-3.56812,0.283101,
2,1,0,1,0,54378.9,0.285455,0.285093,3.59397,28,0.0148216,10,0.00102462,-2.44443,-1.56221,-0.037767,-5.28826,0.285093,
2,1,0,1,0,54378.9,0.287452,0.287086,3.57734,28,0.0148934,10,0.001027,-2.44644,-1.73937,-0.0339203,-4.7452,0.287086,
2,1,0,1,0,54378.9,0.28945,0.289072,3.57509,28,0.0149649,10,0.00103346,-2.44671,-2.52461,-0.0233699,-3.25675,0.289072,
2,1,0,1,0,54379,0.291447,0.291112,3.56423,28,0.0150361,10,0.00103759,-2.44803,-1.51202,-0.0390206,-5.42771,0.291112,
2,1,0,1,0,54379,0.293445,0.293088,3.55329,28,0.0151074,10,0.00104143,-2.44937,-1.83726,-0.0321131,-4.45574,0.293088,
2,1,0,1,0,54379,0.295442,0.295123,3.54636,28,0.0151784,10,0.00104661,-2.45022,-2.06922,-0.0285131,-3.94521,0.295123,
2,1,0,1,0,54379,0.29744,0.297095,3.53748,28,0.0152494,10,0.00105097,-2.45131,-3.20959,-0.0183824,-2.54051,0.297095,
2,1,0,1,0,54379,0.299438,0.299148,3.53613,28,0.0153198,10,0.00105783,-2.45147,-0.0366485,-1.60989,-206.724,0.299148,
2,1,0,1,0,54379,0.299737,0.29943,3.05484,28,0.0153487,10,0.00091471,-2.51501,0.0043077,13.6964,1223.39,0.29943,
2,1,0,1,0,54379.1,0.29774,0.297382,1.37614,28,0.0153905,10,0.000409239,-2.86134,0.0050146,11.7657,637.489,0.297382,
2,1,0,1,0,54379.1,0.295742,0.295386,0.477127,28,0.0154082,10,0.000140937,-3.32137,0.00364219,16.1991,374.606,0.295386,
2,0,0,1,0,54379.1,0.293745,0.293411,-0.111728,28,0.0154113,10,-3.2782e-05,-3.95184,-0.125213,-0.471196,248.933,0.293411,
2,0,0,1,0,54379.1,0.291747,0.291407,-0.513347,28,0.0154048,10,-0.000149593,-3.28959,-0.00463327,-12.734,175.771,0.291407,
2,0,0,1,0,54379.1,0.289754,0.289414,-0.8142,28,0.0153915,10,-0.000235641,-3.08927,-0.013239,-4.45655,129.417,0.289414,
2,0,0,1,0,54379.2,0.287752,0.287373,-1.03539,28,0.0153728,10,-0.000297545,-2.98489,-0.0230251,-2.56242,100.048,0.287373,
2,0,0,1,0,54379.2,0.285754,0.285427,-1.21314,28,0.0153503,10,-0.000346263,-2.91609,-0.0337914,-1.74601,81.0183,0.285427,
2,0,0,1,0,54379.2,0.283757,0.283403,-1.35705,28,0.0153245,10,-0.000384591,-2.86741,-0.0477653,-1.23521,64.5656,0.283403,
2,0,0,1,0,54379.2,0.281759,0.281386,-1.47405,28,0.0152961,10,-0.000414776,-2.83149,-0.0615281,-0.958912,54.7966,0.281386,
2,0,0,1,0,54379.2,0.279761,0.279391,-1.57693,28,0.0152656,10,-0.00044058,-2.80219,-0.0720873,-0.818452,50.188,0.2793906,
2,0,0,1,0,54379.3,0.277764,0.277429,-1.67262,28,0.0152331,10,-0.000464033,-2.7766,-0.0888876,-0.66376,43.0539,0.277429,
2,0,0,1,0,54379.3,0.275766,0.275368,-1.75013,28,0.0151989,10,-0.00048193,-2.75693,-0.115611,-0.510332,34.6836,0.275368,
2,0,0,1,0,54379.3,0.273769,0.273407,-1.81212,28,0.0151632,10,-0.000495446,-2.74181,-0.124448,-0.474094,33.5942,0.2734071,
2,0,0,1,0,54379.3,0.271771,0.271418,-1.88281,28,0.0151263,10,-0.00051103,-2.72519,-0.128108,-0.460549,33.7648,0.271418,
2,0,0,1,0,54379.3,0.269774,0.269424,-1.9466,28,0.015088,10,-0.000524462,-2.71072,-0.153427,-0.384547,29.1221,0.269424,
2,0,0,1,0,54379.4,0.267776,0.267418,-1.99932,28,0.0150485,10,-0.000534652,-2.69912,-0.180155,-0.327495,25.527,0.2674177,
2,0,0,1,0,54379.4,0.265778,0.265422,-2.04876,28,0.0150081,10,-0.000543786,-2.68851,-0.182198,-0.323824,25.9088,0.2654222,
2,0,0,1,0,54379.4,0.263781,0.263465,-2.10173,28,0.0149668,10,-0.000553732,-2.67742,-0.203249,-0.290284,23.7427,0.263465,
2,0,0,1,0,54379.4,0.261783,0.261432,-2.14349,28,0.0149243,10,-0.000560378,-2.66888,-0.247757,-0.238137,19.8998,0.261432,
2,0,0,1,0,54379.4,0.259786,0.259473,-2.18117,28,0.0148811,10,-0.000565954,-2.66131,-0.233059,-0.253155,21.593,0.259473,
2,0,0,1,0,54379.5,0.257788,0.25751,-2.22818,28,0.0148371,10,-0.000573779,-2.65205,-0.239996,-0.245838,21.339,0.25751,
2,0,0,1,0,54379.5,0.25579,0.25542,-2.26766,28,0.0147923,10,-0.000579206,-2.64442,-0.292824,-0.201487,17.805,0.25542,
2,0,0,1,0,54379.5,0.253793,0.253432,-2.30079,28,0.0147466,10,-0.000583094,-2.63812,-0.317311,-0.185938,16.694,0.2534323,
2,0,0,1,0,54379.5,0.251795,0.251461,-2.33375,28,0.0147003,10,-0.000586846,-2.63195,-0.337219,-0.174961,15.9278,0.251461,
2,0,0,1,0,54379.5,0.249798,0.249412,-2.36482,28,0.0146532,10,-0.000589815,-2.6262,-0.313928,-0.187941,17.3718,0.249412,
2,0,0,1,0,54379.6,0.2478,0.247449,-2.40345,28,0.0146057,10,-0.00059473,-2.61917,-0.312469,-0.188819,17.6843,0.247449,
2,0,0,1,0,54379.6,0.245802,0.245434,-2.43517,28,0.0145574,10,-0.000597674,-2.61347,-0.378728,-0.155785,14.7924,0.245434,
2,0,0,1,0,54379.6,0.243805,0.243431,-2.46287,28,0.0145083,10,-0.000599541,-2.60856,-0.424,-0.139151,13.3678,0.243431,
2,0,0,1,0,54379.6,0.241807,0.241473,-2.48812,28,0.0144587,10,-0.000600814,-2.60413,-0.347888,-0.169595,16.5186,0.241473,
2,0,0,1,0,54379.6,0.23981,0.239437,-2.52886,28,0.0144088,10,-0.000605502,-2.59707,-0.347743,-0.169666,16.6965,0.239437,
2,0,0,1,0,54379.7,0.237812,0.23745,-2.55529,28,0.014358,10,-0.000606753,-2.59256,-0.476021,-0.123944,12.3509,0.23745,
2,0,0,1,0,54379.7,0.235815,0.235461,-2.57797,28,0.0143066,10,-0.00060701,-2.58872,-0.477183,-0.123642,12.449,0.235461,
2,0,0,1,0,54379.7,0.233817,0.233481,-2.6047,28,0.0142548,10,-0.000608148,-2.58424,-0.402114,-0.146725,14.9344,0.233481,
2,0,0,1,0,54379.7,0.231815,0.231413,-2.63841,28,0.0142025,10,-0.000610564,-2.57866,-0.422476,-0.139653,14.3535,0.231413,
2,0,0,1,0,54379.7,0.229822,0.229444,-2.66264,28,0.0141497,10,-0.000610928,-2.57469,-0.515164,-0.114527,11.8969,0.229444,
2,0,0,1,0,54379.8,0.227824,0.227484,-2.68516,28,0.0140963,10,-0.000610831,-2.57103,-0.525936,-0.112181,11.7595,0.227484,
2,0,0,1,0,54379.8,0.225827,0.225458,-2.70952,28,0.0140424,10,-0.000610883,-2.56711,-0.528381,-0.111662,11.8041,0.225458,
2,0,0,1,0,54379.8,0.223829,0.223481,-2.73241,28,0.0139879,10,-0.000610642,-2.56345,-0.492518,-0.119793,12.7869,0.223481,
2,0,0,1,0,54379.8,0.221831,0.221445,-2.76083,28,0.0139332,10,-0.000611372,-2.55896,-0.492932,-0.119692,12.8836,0.221445,
2,0,0,1,0,54379.8,0.219834,0.21948,-2.78395,28,0.0138777,10,-0.000611023,-2.55534,-0.480576,-0.122769,13.3562,0.21948,
2,0,0,1,0,54379.9,0.217836,0.217424,-2.81454,28,0.0138217,10,-0.000611948,-2.55059,-0.583421,-0.101128,11.075,0.217424,
2,0,0,1,0,54379.9,0.215839,0.215463,-2.82845,28,0.0137653,10,-0.000609426,-2.54845,-0.568967,-0.103697,11.4815,0.215463,
2,0,0,1,0,54379.9,0.213841,0.213488,-2.85973,28,0.0137086,10,-0.000610518,-2.54367,-0.462101,-0.127678,14.2325,0.213488,
2,0,0,1,0,54379.9,0.211843,0.211539,-2.8843,28,0.0136513,10,-0.000610141,-2.53996,-0.642304,-0.0918568,10.3257,0.211539,
2,0,0,1,0,54379.9,0.209846,0.209487,-2.90104,28,0.0135934,10,-0.000607731,-2.53745,-0.650637,-0.0906803,10.2814,0.209487,
2,0,0,1,0,54380,0.207848,0.207465,-2.92618,28,0.0135351,10,-0.00060708,-2.5337,-0.440684,-0.133883,15.3178,0.207465,
2,0,0,1,0,54380,0.205851,0.20548,-2.96243,28,0.0134764,10,-0.000608719,-2.52835,-0.517153,-0.114086,13.1446,0.20548,
2,0,0,1,0,54380,0.203853,0.203489,-2.97845,28,0.013417,10,-0.000606081,-2.52601,-0.704079,-0.0837974,9.75115,0.203489,
2,0,0,1,0,54380,0.201856,0.201522,-3.00102,28,0.0133572,10,-0.000604771,-2.52273,-0.587216,-0.100474,11.7716,0.201522,
2,0,0,1,0,54380,0.199858,0.199466,-3.0258,28,0.0132969,10,-0.000603545,-2.51916,-0.502247,-0.117472,13.887,0.199466,
2,0,0,1,0,54380.1,0.19786,0.197469,-3.0573,28,0.0132363,10,-0.000603723,-2.51466,-0.568522,-0.103778,12.3533,0.197469,
2,0,0,1,0,54380.1,0.195863,0.19552,-3.07454,28,0.013175,10,-0.000601136,-2.51222,-0.572753,-0.103011,12.3894,0.19552,
2,0,0,1,0,54380.1,0.193865,0.193507,-3.10639,28,0.0131132,10,-0.000601108,-2.50774,-0.536585,-0.109955,13.3079,0.193507,
2,0,0,1,0,54380.1,0.191868,0.1915,-3.12805,28,0.0130508,10,-0.000599021,-2.50473,-0.544093,-0.108437,13.2586,0.1915,
2,0,0,1,0,54380.1,0.18987,0.189486,-3.1597,28,0.0129883,10,-0.00059872,-2.50035,-0.516518,-0.114226,14.0687,0.189486,
2,0,0,1,0,54380.2,0.187872,0.187527,-3.18394,28,0.0129249,10,-0.000597076,-2.49704,-0.559152,-0.105517,13.1188,0.187527,
2,0,0,1,0,54380.2,0.185875,0.18551,-3.21187,28,0.0128609,10,-0.000595832,-2.49324,-0.602092,-0.0979917,12.27,0.18551,
2,0,0,1,0,54380.2,0.183877,0.183526,-3.23304,28,0.0127965,10,-0.000593346,-2.49039,-0.458342,-0.128725,16.2985,0.183526,
2,0,0,1,0,54380.2,0.18188,0.181515,-3.27697,28,0.0127317,10,-0.00059482,-2.48453,-0.415422,-0.142024,18.1222,0.181515,
2,0,0,1,0,54380.2,0.179882,0.179484,-3.30629,28,0.0126659,10,-0.000593425,-2.48066,-0.5995,-0.0984153,12.6832,0.179484,
2,0,0,1,0,54380.3,0.177885,0.177528,-3.32754,28,0.0125996,10,-0.000590732,-2.47788,-0.559896,-0.105377,13.709,0.177528,
2,0,0,1,0,54380.3,0.175887,0.175507,-3.3608,28,0.0125327,10,-0.000589845,-2.47356,-0.414957,-0.142183,18.6699,0.175507,
2,0,0,1,0,54380.3,0.173896,0.173547,-3.40187,28,0.0124654,10,-0.000590384,-2.46828,-0.406616,-0.1451,19.2484,0.1735467,
2,0,0,1,0,54380.3,0.171892,0.171513,-3.43769,28,0.012397,10,-0.000589608,-2.46373,-0.464938,-0.126899,17.0172,0.171513,
2,0,0,1,0,54380.3,0.169894,0.169508,-3.47059,28,0.0123279,10,-0.000588295,-2.4596,-0.39498,-0.149375,20.2753,0.169508,
2,0,0,1,0,54380.4,0.167897,0.167523,-3.51859,28,0.012258,10,-0.000589444,-2.45363,-0.349927,-0.168607,23.1389,0.167523,
2,0,0,1,0,54380.4,0.165899,0.165527,-3.56271,28,0.0121873,10,-0.000589726,-2.44822,-0.371918,-0.158637,22.0542,0.1655274,
2,0,0,1,0,54380.4,0.163901,0.163548,-3.60626,28,0.0121159,10,-0.000589795,-2.44294,-0.338766,-0.174161,24.5474,0.163548,
2,0,0,1,0,54380.4,0.161904,0.161533,-3.66077,28,0.0120433,10,-0.000591334,-2.43643,-0.321191,-0.183691,26.227,0.161533,
2,0,0,1,0,54380.4,0.159906,0.159549,-3.71114,28,0.0119696,10,-0.000592107,-2.43049,-0.308466,-0.191269,27.741,0.159549,
2,0,0,1,0,54380.5,0.157909,0.157508,-3.77242,28,0.0118947,10,-0.000594186,-2.42338,-0.277576,-0.212555,31.3039,0.157508,
2,0,0,1,0,54380.5,0.155911,0.155531,-3.83691,28,0.011819,10,-0.000596758,-2.41602,-0.242241,-0.243559,36.5448,0.155531,
2,0,0,1,0,54380.5,0.153913,0.15353,-3.9178,28,0.0117413,10,-0.0006015,-2.40696,-0.229794,-0.256751,39.2148,0.15353,
2,0,0,1,0,54380.5,0.151916,0.151595,-3.99126,28,0.0116622,10,-0.000605055,-2.39889,-0.21777,-0.270928,42.3047,0.151595,
2,0,0,1,0,54380.5,0.149918,0.149568,-4.08541,28,0.0115815,10,-0.000611046,-2.38876,-0.185408,-0.318218,50.8195,0.1495678,
2,0,0,1,0,54380.6,0.147921,0.147595,-4.19455,28,0.011499,10,-0.000619093,-2.37731,-0.175913,-0.335394,54.9126,0.147595,
2,0,0,1,0,54380.6,0.145923,0.145533,-4.30696,28,0.011414,10,-0.000626806,-2.36583,-0.163199,-0.361522,60.8959,0.145533,
2,0,0,1,0,54380.6,0.143926,0.143565,-4.43995,28,0.0113265,10,-0.000637421,-2.35262,-0.141119,-0.418086,72.6147,0.143565,
2,0,0,1,0,54380.6,0.141928,0.14154,-4.59691,28,0.0112361,10,-0.000650648,-2.33753,-0.129675,-0.454983,81.7073,0.14154,
2,0,0,1,0,54380.6,0.13993,0.139563,-4.76696,28,0.0111429,10,-0.00066529,-2.32176,-0.123177,-0.478987,89.1704,0.139563,
2,0,0,1,0,54380.7,0.137933,0.137606,-4.94772,28,0.0110459,10,-0.000680837,-2.30559,-0.116488,-0.506491,98.0106,0.137606,
2,0,0,1,0,54380.7,0.135935,0.135605,-5.15481,28,0.0109449,10,-0.00069902,-2.28779,-0.110155,-0.535607,107.87,0.135605,
2,0,0,1,0,54380.7,0.133938,0.133606,-5.37925,28,0.0108395,10,-0.000718699,-2.26928,-0.106765,-0.552616,116.107,0.133606,
2,0,0,1,0,54380.7,0.13194,0.131607,-5.61905,28,0.0107301,10,-0.000739507,-2.25034,-0.107429,-0.549198,120.419,0.131607,
2,0,0,1,0,54380.7,0.129942,0.129578,-5.86426,28,0.0106152,10,-0.000759879,-2.23179,-0.109796,-0.537362,122.91,0.129578,
2,0,0,1,0,54380.8,0.127945,0.127618,-6.10937,28,0.0104955,10,-0.000779664,-2.214,-0.115138,-0.512426,122.127,0.127618,
2,0,0,1,0,54380.8,0.125947,0.125552,-6.35596,28,0.0103707,10,-0.000798003,-2.19682,-0.117704,-0.501256,124.373,0.1255518,
2,0,0,1,0,54380.8,0.12395,0.123571,-6.61269,28,0.0102417,10,-0.000817136,-2.17962,-0.120335,-0.490296,126.34,0.123571,
2,0,0,1,0,54380.8,0.121952,0.121597,-6.85566,28,0.0101069,10,-0.000833625,-2.16395,-0.132256,-0.446106,119.201,0.121597,
2,0,0,1,0,54380.8,0.119955,0.119599,-7.0861,28,0.00996739,10,-0.000847493,-2.14959,-0.140679,-0.419393,115.929,0.119599,
2,0,0,1,0,54380.9,0.117957,0.117634,-7.31501,28,0.0098233,10,-0.000860496,-2.13579,-0.146945,-0.40151,114.597,0.1176343,
2,0,0,1,0,54380.9,0.115955,0.115593,-7.54524,28,0.00967464,10,-0.000872175,-2.12233,-0.164409,-0.35886,105.412,0.115593,
2,0,0,1,0,54380.9,0.113962,0.113581,-7.74231,28,0.00952242,10,-0.000879377,-2.11113,-0.181479,-0.325106,98.2114,0.113581,
2,0,0,1,0,54380.9,0.111964,0.111581,-7.93927,28,0.00936554,10,-0.00088587,-2.10022,-0.190774,-0.309266,95.7198,0.1115807,
2,0,0,1,0,54380.9,0.109967,0.109615,-8.12189,28,0.00920483,10,-0.000890282,-2.09034,-0.208011,-0.283639,89.8491,0.109615,
2,0,0,1,0,54381,0.107969,0.1076,-8.29696,28,0.0090406,10,-0.000892751,-2.08108,-0.230588,-0.255868,82.7336,0.1076,
2,0,0,1,0,54381,0.105971,0.105641,-8.45069,28,0.00887388,10,-0.000892739,-2.07311,-0.25674,-0.229805,75.7415,0.105641,
2,0,0,1,0,54381,0.103974,0.103662,-8.59525,28,0.00870332,10,-0.000890996,-2.06574,-0.304827,-0.193552,64.8086,0.103662,
2,0,0,1,0,54381,0.101976,0.10164,-8.70996,28,0.0085301,10,-0.000885284,-2.05998,-0.371674,-0.158741,53.9184,0.10164,
2,0,0,1,0,54381,0.0999787,0.0996371,-8.81224,28,0.00835476,10,-0.000878026,-2.05491,-0.409813,-0.143968,49.4927,0.0996371,
2,0,0,1,0,54381.1,0.0979811,0.0976354,-8.90818,28,0.00817827,10,-0.000869753,-2.05021,-0.523794,-0.11264,39.0849,0.0976354,
2,0,0,1,0,54381.1,0.0959835,0.0955913,-8.97037,28,0.00799942,10,-0.000857489,-2.04719,-0.806836,-0.0731251,25.5672,0.0955913,
2,0,0,1,0,54381.1,0.0939859,0.0936648,-9.0097,28,0.00781958,10,-0.000843891,-2.04529,-1.27048,-0.046439,16.3158,0.0936648,
2,0,0,1,0,54381.1,0.0919883,0.0916494,-9.03468,28,0.00763908,10,-0.000828023,-2.04409,-1.93422,-0.0305033,10.7515,0.0916494,
2,0,0,1,0,54381.1,0.0899907,0.0896059,-9.05334,28,0.007459,10,-0.000811232,-2.04319,19.6935,0.00299591,-1.05609,0.0896059,
2,0,0,1,0,54381.2,0.0879931,0.0876329,-9.03044,28,0.00727812,10,-0.000791364,-2.04429,1.61432,0.036548,-12.8763,0.0876329,
2,0,0,1,0,54381.2,0.0859955,0.0855806,-9.00151,28,0.00709775,10,-0.000770354,-2.04568,1.22965,0.0479811,-16.8475,0.0855806,
2,0,0,1,0,54381.2,0.083998,0.0836754,-8.96376,28,0.00691806,10,-0.000750046,-2.04751,0.976925,0.0603936,-21.1176,0.0836754,
2,0,0,1,0,54381.2,0.0820004,0.0816203,-8.91787,28,0.0067401,10,-0.000727879,-2.04974,0.748143,0.078862,-27.4174,0.0816203,
2,0,0,1,0,54381.2,0.0800028,0.0796381,-8.85307,28,0.00656236,10,-0.000705042,-2.05291,0.696792,0.0846738,-29.2765,0.0796381,
2,0,0,1,0,54381.3,0.0780052,0.0776372,-8.80126,28,0.00638577,10,-0.000683306,-2.05545,0.66857,0.088248,-30.2825,0.07763724,
2,0,0,1,0,54381.3,0.0760076,0.07566,-8.73261,28,0.00621042,10,-0.000660709,-2.05886,0.691614,0.0853077,-29.1085,0.07566,
2,0,0,1,0,54381.3,0.07401,0.0736528,-8.68528,28,0.00603716,10,-0.000639695,-2.06122,0.717319,0.0822507,-27.8495,0.0736528,
2,0,0,1,0,54381.3,0.0720124,0.0715957,-8.61942,28,0.00586409,10,-0.000617113,-2.06452,0.690441,0.0854526,-28.7718,0.0715957,
2,0,0,1,0,54381.3,0.0700148,0.0696358,-8.56971,28,0.00569216,10,-0.000596758,-2.06703,0.708628,0.0832595,-27.8299,0.0696358,
2,0,0,1,0,54381.4,0.0680173,0.0676754,-8.51032,28,0.0055214,10,-0.000575939,-2.07005,0.864497,0.0682478,-22.7049,0.0676754,
2,0,0,1,0,54381.4,0.0660106,0.0656595,-8.47943,28,0.00535157,10,-0.000556755,-2.07163,0.979575,0.0602302,-19.91,0.0656595,
2,0,0,1,0,54381.4,0.0640221,0.0636512,-8.43019,28,0.00518334,10,-0.000536592,-2.07416,0.786694,0.0749974,-24.6738,0.0636512,
2,0,0,1,0,54381.4,0.0620245,0.0616578,-8.38069,28,0.00501522,10,-0.000516735,-2.07672,0.859149,0.0686726,-22.4739,0.0616578,
2,0,0,1,0,54381.4,0.0600269,0.0596835,-8.34103,28,0.00484797,10,-0.000497822,-2.07878,1.00414,0.0587566,-19.1301,0.0596835,
2,0,0,1,0,54381.5,0.0580361,0.0576719,-8.30444,28,0.00468238,10,-0.000478933,-2.08069,0.931405,0.0633451,-20.5184,0.0576719,
2,0,0,1,0,54381.5,0.0560317,0.0556695,-8.25866,28,0.00451668,10,-0.000459756,-2.08309,0.885611,0.0666207,-21.4801,0.05566949,
2,0,0,1,0,54381.5,0.0540342,0.0536883,-8.21887,28,0.00435189,10,-0.000441257,-2.08519,0.973743,0.0605909,-19.4363,0.0536883,
2,0,0,1,0,54381.5,0.0520366,0.0516382,-8.18031,28,0.00418786,10,-0.000422416,-2.08723,0.841403,0.070121,-22.3693,0.0516382,
2,0,0,1,0,54381.5,0.050039,0.0496947,-8.12954,28,0.00402471,10,-0.000403995,-2.08993,0.875054,0.0674244,-21.413,0.0496947,
2,0,0,1,0,54381.6,0.0480414,0.047656,-8.09504,28,0.00386321,10,-0.000385778,-2.09178,0.868446,0.0679374,-21.4404,0.047656,
2,0,0,1,0,54381.6,0.0460438,0.0456859,-8.04358,28,0.00370178,10,-0.000367478,-2.09455,0.749861,0.0786813,-24.7066,0.0456859,
2,0,0,1,0,54381.6,0.0440462,0.0436921,-7.99711,28,0.00354132,10,-0.00034941,-2.09707,0.727435,0.0811069,-25.3019,0.0436921,
2,0,0,1,0,54381.6,0.0420486,0.0417278,-7.94344,28,0.00338193,10,-0.000331462,-2.09999,0.754078,0.0782412,-24.27,0.04172777,
2,0,0,1,0,54381.6,0.040051,0.0396726,-7.89955,28,0.0032242,10,-0.000313396,-2.1024,0.744984,0.0791963,-24.3982,0.0396726,
2,0,0,1,0,54381.7,0.0380535,0.0376715,-7.84447,28,0.00306666,10,-0.000295513,-2.10544,0.652778,0.0903829,-27.6699,0.0376715,
2,0,0,1,0,54381.7,0.0360559,0.035692,-7.78941,28,0.0029103,10,-0.00027802,-2.1085,0.640805,0.0920716,-27.9834,0.03569201,
2,0,0,1,0,54381.7,0.0340583,0.0336262,-7.73127,28,0.00275509,10,-0.000259974,-2.11175,0.654272,0.0901765,-27.2203,0.03362624,
2,0,0,1,0,54381.7,0.0320607,0.0316717,-7.67997,28,0.00260171,10,-0.000243238,-2.11464,0.574772,0.102649,-30.73,0.0316717,
2,0,0,1,0,54381.7,0.0300631,0.0297028,-7.6107,28,0.00244881,10,-0.000226059,-2.11858,0.507743,0.1162,-34.5195,0.02970276,
2,0,0,1,0,54381.8,0.0280655,0.0277397,-7.54424,28,0.00229726,10,-0.000209275,-2.12238,0.519733,0.11352,-33.4234,0.0277397,
2,0,0,1,0,54381.8,0.0260679,0.0257367,-7.47814,28,0.00214698,10,-0.000192463,-2.12621,0.510781,0.115509,-33.7025,0.0257367,
2,0,0,1,0,54381.8,0.0240704,0.0237143,-7.40858,28,0.00199881,10,-0.000175689,-2.13027,0.486973,0.121157,-35.0231,0.0237143,
2,0,0,1,0,54381.8,0.0220728,0.0216889,-7.33638,28,0.00185128,10,-0.000159118,-2.13452,0.480162,0.122875,-35.188,0.02168886,
2,0,0,1,0,54381.8,0.0200752,0.0197051,-7.2675,28,0.0017052,10,-0.000143207,-2.13861,0.458112,0.12879,-36.5058,0.0197051,
2,0,0,1,0,54381.9,0.0180776,0.017684,-7.19017,28,0.00156057,10,-0.000127151,-2.14326,0.471754,0.125065,-35.1308,0.017684,
2,0,0,1,0,54381.9,0.01608,0.0157387,-7.12816,28,0.00141809,10,-0.000112188,-2.14702,0.511937,0.115249,-32.049,0.0157387,
2,0,0,1,0,54381.9,0.0140824,0.0136599,-7.06121,28,0.0012762,10,-9.64552e-05,-2.15112,0.482886,0.122182,-33.6657,0.0136599,
2,0,0,1,0,54381.9,0.0120848,0.0117142,-6.99267,28,0.00113567,10,-8.19136e-05,-2.15536,0.461902,0.127733,-34.857,0.0117142,
2,0,0,1,0,54381.9,0.0100872,0.00972332,-6.92399,28,0.000996558,10,-6.73242e-05,-2.15964,0.524779,0.112428,-30.4131,0.00972332,
2,0,0,1,0,54382,0.00809193,0.00769742,-6.87051,28,0.000859379,10,-5.28852e-05,-2.16301,0.54636,0.107987,-28.9369,0.00769742,
2,0,0,1,0,54382,0.00609208,0.00573967,-6.80871,28,0.000722594,10,-3.90798e-05,-2.16693,0.50961,0.115775,-30.7671,0.00573967,
2,0,0,1,0,54382,0.00409449,0.00373724,-6.74867,28,0.000587042,10,-2.52214e-05,-2.17078,0.95766,0.0616085,-16.2911,0.00373724,
2,0,0,1,0,54382,0.0020969,0.00167668,-6.74252,28,0.000452423,10,-1.1305e-05,-2.17118,0.881539,0.0669284,-17.5339,0.00167668,
2,0,0,1,0,54382,9.14991e-05,-0.000345279,-6.67708,28,0.000318294,10,2.30545e-06,-2.17541,0.547351,0.107792,-28.1271,-0.000345279,
2,0,0,1,0,54382.1,-0.00189827,-0.00232202,-6.63005,28,0.000185839,10,1.53951e-05,-2.17848,0.65907,0.0895201,-23.1669,-0.00232202,
2,0,0,1,0,54382.1,-0.00389586,-0.00430918,-6.58525,28,5.36407e-05,10,2.8377e-05,-2.18143,0.791773,0.0745163,-19.1706,-0.00430918,
2,0,0,1,0,54382.1,-0.00589345,-0.00627808,-6.55421,28,-7.78301e-05,10,4.11479e-05,-2.18348,0.965313,0.0611201,-15.6332,-0.006278079,
2,0,0,1,0,54382.1,-0.00789103,-0.00831088,-6.52269,28,-0.000208625,10,5.42093e-05,-2.18557,1.33585,0.0441668,-11.2587,-0.00831088,
2,0,0,1,0,54382.1,-0.00988862,-0.0102637,-6.50934,28,-0.000338372,10,6.68102e-05,-2.18646,1.76849,0.0333617,-8.4708,-0.0102637,
2,0,0,1,0,54382.2,-0.0118862,-0.0122545,-6.48929,28,-0.000468407,10,7.95228e-05,-2.1878,1.52682,0.0386425,-9.78706,-0.0122545,
2,0,0,1,0,54382.2,-0.0138838,-0.0142782,-6.47005,28,-0.000598102,10,9.23804e-05,-2.18909,2.28148,0.0258604,-6.53601,-0.0142782,
2,0,0,1,0,54382.2,-0.0158814,-0.0162884,-6.46292,28,-0.000727495,10,0.000105271,-2.18957,16.4648,0.0035834,-0.904578,-0.0162884,
2,0,0,1,0,54382.2,-0.017879,-0.0182379,-6.46647,28,-0.000856258,10,0.000117935,-2.18933,-9.77331,-0.00603685,1.52337,-0.0182379,
2,0,0,1,0,54382.2,-0.0198766,-0.0202716,-6.46899,28,-0.000985654,10,0.000131137,-2.18916,-16.3982,-0.00359796,0.908261,-0.0202716,
2,0,0,1,0,54382.3,-0.0218741,-0.022265,-6.47012,28,-0.00111501,10,0.000144057,-2.18909,-4.45574,-0.0132414,3.34644,-0.022265,
2,0,0,1,0,54382.3,-0.0238717,-0.0242878,-6.48243,28,-0.00124452,10,0.000157444,-2.18826,-1.96768,-0.0299846,7.58931,-0.0242878,
2,0,0,1,0,54382.3,-0.0258693,-0.0263062,-6.50079,28,-0.00137372,10,0.000171011,-2.18703,-2.22906,-0.0264686,6.70998,-0.0263062,
2,0,0,1,0,54382.3,-0.0278669,-0.0282505,-6.50902,28,-0.00150378,10,0.000183883,-2.18648,-2.15648,-0.0273594,6.95598,-0.0282505,
2,0,0,1,0,54382.3,-0.0298645,-0.0302785,-6.52843,28,-0.00163418,10,0.000197671,-2.18519,-1.42326,-0.0414541,10.5648,-0.0302785,
2,0,0,1,0,54382.4,-0.0318621,-0.0322732,-6.55152,28,-0.00176501,10,0.000211438,-2.18366,-1.13094,-0.052169,13.3457,-0.03227317,
2,0,0,1,0,54382.4,-0.0338597,-0.034246,-6.58137,28,-0.0018957,10,0.000225386,-2.18168,-1.09655,-0.0538053,13.8151,-0.03424599,
2,0,0,1,0,54382.4,-0.0358573,-0.0362663,-6.60668,28,-0.00202762,10,0.0002396,-2.18002,-1.10728,-0.0532835,13.7432,-0.0362663,
2,0,0,1,0,54382.4,-0.0378548,-0.0382643,-6.6366,28,-0.00216016,10,0.000253945,-2.17805,-0.976239,-0.060436,15.6566,-0.0382643,
2,0,0,1,0,54382.4,-0.0398524,-0.0402718,-6.6694,28,-0.0022933,10,0.000268588,-2.17591,-0.768357,-0.0767872,20.0073,-0.0402718,
2,0,0,1,0,54382.5,-0.04185,-0.0422411,-6.71616,28,-0.00242647,10,0.000283698,-2.17288,-0.781981,-0.0754494,19.7542,-0.0422411,
2,0,0,1,0,54382.5,-0.0438476,-0.044263,-6.74824,28,-0.00256114,10,0.000298698,-2.17081,-0.969874,-0.0608326,16.022,-0.044263,
2,0,0,1,0,54382.5,-0.0458452,-0.0463011,-6.78121,28,-0.00269656,10,0.000313977,-2.16869,-0.775248,-0.0761047,20.1615,-0.0463011,
2,0,0,1,0,54382.5,-0.0478428,-0.0482254,-6.82813,28,-0.00283273,10,0.000329289,-2.1657,-0.568819,-0.103724,27.6708,-0.0482254,
2,0,0,1,0,54382.5,-0.0498495,-0.0502465,-6.89039,28,-0.00296987,10,0.000346218,-2.16176,-0.626546,-0.094167,25.2805,-0.0502465,
2,0,0,1,0,54382.6,-0.051838,-0.0522582,-6.93008,28,-0.00310738,10,0.000362153,-2.15926,-0.750479,-0.0786165,21.2717,-0.0522582,
2,0,0,1,0,54382.6,-0.0538355,-0.0542669,-6.97591,28,-0.00324642,10,0.000378561,-2.1564,-0.656578,-0.0898598,24.4746,-0.0542669,
2,0,0,1,0,54382.6,-0.0558331,-0.0562558,-7.02792,28,-0.0033865,10,0.000395361,-2.15317,-0.585405,-0.100785,27.6536,-0.0562558,
2,0,0,1,0,54382.6,-0.0578217,-0.0582319,-7.08555,28,-0.00352695,10,0.000412606,-2.14963,-0.559484,-0.105454,29.1613,-0.0582319,
2,0,0,1,0,54382.6,-0.0598283,-0.0602257,-7.14369,28,-0.00366929,10,0.000430233,-2.14608,-0.5391,-0.109442,30.5223,-0.0602257,
2,0,0,1,0,54382.7,-0.0618259,-0.0622125,-7.20705,28,-0.00381276,10,0.000448369,-2.14224,-0.548149,-0.107635,30.2619,-0.0622125,
2,0,0,1,0,54382.7,-0.0638235,-0.0642288,-7.26483,28,-0.0039575,10,0.000466611,-2.13877,-0.575314,-0.102553,29.0797,-0.0642288,
2,0,0,1,0,54382.7,-0.0658211,-0.0662586,-7.32471,28,-0.00410341,10,0.000485325,-2.13521,-0.514399,-0.114697,32.8134,-0.0662586,
2,0,0,1,0,54382.7,-0.0678187,-0.0682451,-7.39662,28,-0.00424998,10,0.000504783,-2.13097,-0.476574,-0.1238,35.7346,-0.0682451,
2,0,0,1,0,54382.7,-0.0698162,-0.0702683,-7.468,28,-0.00439867,10,0.000524764,-2.1268,-0.482555,-0.122266,35.6297,-0.07026834,
2,0,0,1,0,54382.8,-0.0718138,-0.0722057,-7.53773,28,-0.00454874,10,0.000544267,-2.12276,-0.474147,-0.124434,36.6155,-0.0722057,
2,0,0,1,0,54382.8,-0.0738114,-0.0742045,-7.61212,28,-0.00470024,10,0.000564853,-2.11849,-0.432464,-0.136428,40.5639,-0.0742045,
2,0,0,1,0,54382.8,-0.075809,-0.0762061,-7.7,28,-0.00485268,10,0.000586788,-2.11351,-0.438185,-0.134646,40.4201,-0.0762061,
2,0,0,1,0,54382.8,-0.0778066,-0.0781708,-7.77244,28,-0.00500745,10,0.000607578,-2.10944,-0.459086,-0.128516,39.0061,-0.0781708,
2,0,0,1,0,54382.8,-0.0798042,-0.0801659,-7.85446,28,-0.00516379,10,0.00062966,-2.10488,-0.420163,-0.140422,43.0663,-0.0801659,
2,0,0,1,0,54382.9,-0.0818018,-0.0821822,-7.94519,28,-0.00532187,10,0.000652953,-2.0999,-0.401249,-0.147041,45.6007,-0.0821822,
2,0,0,1,0,54382.9,-0.0837994,-0.0842137,-8.03904,28,-0.00548098,10,0.000676998,-2.0948,-0.405352,-0.145553,45.65,-0.0842137,
2,0,0,1,0,54382.9,-0.0857969,-0.0861897,-8.12813,28,-0.00564268,10,0.000700561,-2.09001,-0.401439,-0.146971,46.6431,-0.08618965,
2,0,0,1,0,54382.9,-0.0877945,-0.0882104,-8.22546,28,-0.00580627,10,0.000725571,-2.08484,-0.393218,-0.150044,48.1582,-0.0882104,
2,0,0,1,0,54382.9,-0.0897921,-0.0901897,-8.32077,28,-0.00597173,10,0.000750448,-2.07984,-0.401936,-0.146789,47.6674,-0.0901897,
2,0,0,1,0,54383,-0.0917897,-0.0922247,-8.41681,28,-0.00613825,10,0.000776238,-2.07485,-0.405431,-0.145524,47.7983,-0.0922247,
2,0,0,1,0,54383,-0.0937873,-0.0941959,-8.51226,28,-0.00630758,10,0.00080182,-2.06996,-0.404425,-0.145886,48.4616,-0.0941959,
2,0,0,1,0,54383,-0.0957849,-0.096158,-8.60743,28,-0.00647883,10,0.000827673,-2.06513,-0.410653,-0.143674,48.2596,-0.096158,
2,0,0,1,0,54383,-0.0977825,-0.0981292,-8.70208,28,-0.00665195,10,0.000853928,-2.06038,-0.410381,-0.143769,48.8414,-0.09812922,
2,0,0,1,0,54383,-0.0997501,-0.100161,-8.80294,28,-0.00682346,10,0.000881712,-2.05537,0.0101589,5.80773,-1763.35,-0.100161,
2,0,0,1,1,54383.1,-0.0987313,-0.0991369,-6.92511,28,-0.00694323,10,0.000686535,-2.15957,-0.0132018,-4.46908,1192.47,-0.0991369,
2,0,0,1,1,54383.1,-0.0967337,-0.0971297,-5.18813,28,-0.00706303,10,0.000503922,-2.28499,-0.0161429,-3.65485,750.373,-0.0971297,
2,0,0,1,1,54383.1,-0.0947362,-0.0950883,-3.88709,28,-0.00715311,10,0.000369617,-2.41037,-0.0150712,-3.91476,594.032,-0.0950883,
2,0,0,1,1,54383.1,-0.0927386,-0.0931531,-2.82587,28,-0.0072198,10,0.000263238,-2.54885,-0.0129524,-4.55515,497.235,-0.0931531,
2,0,0,1,1,54383.1,-0.090741,-0.0911577,-1.93271,28,-0.00726686,10,0.000176181,-2.71383,-0.0105381,-5.59873,411.695,-0.0911577,
2,0,0,1,1,54383.2,-0.0887434,-0.0891536,-1.17931,28,-0.00729769,10,0.000105139,-2.92837,-0.00690053,-8.55007,355.063,-0.0891536,
2,0,0,1,1,54383.2,-0.0867458,-0.0871378,-0.505369,28,-0.00731425,10,4.40367e-05,-3.29639,-0.0034213,-17.2449,314.069,-0.0871378,
2,1,0,1,1,54383.2,-0.0847482,-0.0851457,0.0794623,28,-0.0073183,10,-6.76587e-06,-4.09984,0.0560752,1.05216,276.362,-0.08514566,
2,1,0,1,1,54383.2,-0.0827529,-0.0831556,0.595145,28,-0.00731149,10,-4.94897e-05,-3.22538,0.0035576,16.5842,244.252,-0.0831556,
2,1,0,1,1,54383.2,-0.080753,-0.0811493,1.05558,28,-0.00729479,10,-8.56597e-05,-2.97651,0.0102268,5.76914,217.674,-0.0811493,
2,1,0,1,1,54383.3,-0.0787555,-0.0791456,1.46803,28,-0.00726941,10,-0.000116188,-2.83326,0.0165688,3.56091,195.816,-0.0791456,
2,1,0,1,1,54383.3,-0.0767579,-0.0771752,1.83377,28,-0.00723628,10,-0.000141521,-2.73666,0.0232341,2.53938,178.133,-0.0771752,
2,1,0,1,1,54383.3,-0.0747603,-0.0751893,2.17278,28,-0.00719608,10,-0.00016337,-2.66298,0.0305896,1.92876,161.288,-0.0751893,
2,1,0,1,1,54383.3,-0.0727627,-0.0731406,2.48451,28,-0.00714952,10,-0.000181719,-2.60476,0.0388801,1.51748,145.206,-0.0731406,
2,1,0,1,1,54383.3,-0.0707651,-0.0711874,2.75387,28,-0.00709703,10,-0.000196041,-2.56006,0.0474587,1.24319,132.783,-0.0711874,
2,1,0,1,1,54383.4,-0.0687675,-0.0692161,3.00562,28,-0.00703932,10,-0.000208037,-2.52207,0.0574391,1.02717,119.806,-0.06921605,
2,1,0,1,1,54383.4,-0.0667699,-0.0671604,3.23633,28,-0.00697685,10,-0.000217353,-2.48995,0.0683836,0.86278,108.432,-0.0671604,
2,1,0,1,1,54383.4,-0.0647724,-0.0651645,3.44494,28,-0.00691026,10,-0.000224488,-2.46282,0.079997,0.737528,98.7176,-0.0651645,
2,1,0,1,1,54383.4,-0.0627748,-0.0631669,3.63056,28,-0.0068395,10,-0.000229331,-2.44003,0.0929355,0.634849,89.6756,-0.0631669,
2,1,0,1,1,54383.4,-0.0607772,-0.0612083,3.79972,28,-0.00676509,10,-0.000232574,-2.42025,0.108083,0.545878,80.7558,-0.0612083,
2,1,0,1,1,54383.5,-0.0587796,-0.0591447,3.95538,28,-0.00668741,10,-0.00023394,-2.40281,0.121103,0.487187,75.0807,-0.0591447,
2,1,0,1,1,54383.5,-0.056782,-0.0571848,4.1018,28,-0.00660718,10,-0.000234561,-2.38703,0.138996,0.424472,67.7223,-0.0571848,
2,1,0,1,1,54383.5,-0.0547844,-0.0551827,4.22369,28,-0.00652389,10,-0.000233075,-2.37431,0.161063,0.366316,60.3575,-0.05518271,
2,1,0,1,1,54383.5,-0.0527868,-0.0531657,4.34439,28,-0.00643814,10,-0.000230972,-2.36207,0.183818,0.320969,54.2557,-0.0531657,
2,1,0,1,1,54383.5,-0.0507892,-0.0511827,4.44072,28,-0.00635029,10,-0.000227288,-2.35255,0.20135,0.293022,50.8357,-0.0511827,
2,1,0,1,1,54383.6,-0.0487916,-0.0491633,4.54785,28,-0.0062608,10,-0.000223587,-2.34219,0.221804,0.266001,47.067,-0.0491633,
2,1,0,1,1,54383.6,-0.0467941,-0.0471964,4.62834,28,-0.006169,10,-0.000218441,-2.33457,0.266842,0.221104,39.9176,-0.0471964,
2,1,0,1,1,54383.6,-0.0447965,-0.045227,4.70498,28,-0.00607563,10,-0.000212792,-2.32744,0.299537,0.196971,36.133,-0.045227,
2,1,0,1,1,54383.6,-0.0427989,-0.0431851,4.77328,28,-0.00598084,10,-0.000206134,-2.32118,0.329226,0.179208,33.3777,-0.0431851,
2,1,0,1,1,54383.6,-0.0408013,-0.0411693,4.84042,28,-0.00588515,10,-0.000199277,-2.31512,0.389861,0.151336,28.5234,-0.0411693,
2,1,0,1,1,54383.7,-0.0388037,-0.0392332,4.886,28,-0.00578781,10,-0.000191693,-2.31105,0.464462,0.127029,24.2338,-0.0392332,
2,1,0,1,1,54383.7,-0.0368061,-0.0372054,4.93648,28,-0.00568954,10,-0.000183663,-2.30658,0.476208,0.123895,23.8565,-0.0372054,
2,1,0,1,1,54383.7,-0.0348085,-0.0352074,4.98204,28,-0.0055903,10,-0.000175405,-2.30259,0.564262,0.104561,20.3112,-0.0352074,
2,1,0,1,1,54383.7,-0.0328109,-0.0331659,5.01852,28,-0.00549079,10,-0.000166444,-2.29942,0.701024,0.0841626,16.4724,-0.0331659,
2,1,0,1,1,54383.7,-0.0308134,-0.0311934,5.04816,28,-0.00539009,10,-0.00015747,-2.29687,0.83283,0.0708428,13.9514,-0.0311934,
2,1,0,1,1,54383.8,-0.0288158,-0.0291997,5.07386,28,-0.00528882,10,-0.000148155,-2.29466,0.988659,0.0596768,11.8116,-0.0291997,
2,1,0,1,1,54383.8,-0.0268182,-0.0272289,5.09499,28,-0.00518704,10,-0.000138731,-2.29286,1.0171,0.0580083,11.5392,-0.0272289,
2,1,0,1,1,54383.8,-0.0248138,-0.0251723,5.12033,28,-0.00508494,10,-0.00012889,-2.2907,1.12506,0.0524418,10.4703,-0.02517225,
2,1,0,1,1,54383.8,-0.022823,-0.0232339,5.13682,28,-0.00498285,10,-0.000119348,-2.28931,1.81778,0.0324572,6.50238,-0.02323385,
2,1,0,1,1,54383.8,-0.0208254,-0.0211766,5.14631,28,-0.00487999,10,-0.000108981,-2.2885,5.19705,0.0113526,2.27794,-0.0211766,
2,1,0,1,1,54383.9,-0.0188278,-0.0191973,5.14602,28,-0.00477703,10,-9.87896e-05,-2.28853,3.52268,0.0167486,3.36821,-0.0191973,
2,1,0,1,1,54383.9,-0.0168393,-0.0172232,5.15963,28,-0.00467439,10,-8.88655e-05,-2.28738,2.01409,0.0292937,5.89666,-0.0172232,
2,1,0,1,1,54383.9,-0.0148327,-0.0151813,5.1697,28,-0.00457096,10,-7.84829e-05,-2.28653,6.32986,0.0093209,1.87826,-0.0151813,
2,1,0,1,1,54383.9,-0.0128351,-0.0132175,5.16715,28,-0.00446758,10,-6.82969e-05,-2.28675,-42.87,-0.00137625,-0.277639,-0.0132175,
2,1,0,1,1,54383.9,-0.0108375,-0.0111982,5.16859,28,-0.00436418,10,-5.78787e-05,-2.28663,8.07954,0.00730239,1.47342,-0.0111982,
2,1,0,1,1,54384,-0.00883989,-0.00922436,5.17304,28,-0.0042607,10,-4.77179e-05,-2.28625,12.1731,0.00484676,0.978027,-0.00922436,
2,1,0,1,1,54384,-0.0068423,-0.00722124,5.17248,28,-0.00415766,10,-3.73517e-05,-2.2863,-260.502,-0.000226486,-0.0457238,-0.00722124,
2,1,0,1,1,54384,-0.00484471,-0.00523824,5.17285,28,-0.00405421,10,-2.70966e-05,-2.28627,-27.0568,-0.0021806,-0.440114,-0.00523824,
2,1,0,1,1,54384,-0.00284713,-0.00324693,5.17073,28,-0.00395078,10,-1.6789e-05,-2.28645,-4.43257,-0.0133106,-2.68435,-0.00324693,
2,1,0,1,1,54384,-0.000849538,-0.00123861,5.16212,28,-0.00384737,10,-6.39385e-06,-2.28717, , , ,-0.00123861,
2,1,0,1,1,54384,-2.55332e-05,-0.000344411,5.17522,28,-0.00380552,10,-1.7824e-06,-2.28607, , , ,-0.000344411,