File: Figure_codes/Fig_3-5/rawdata_trumpetplot_data/after 10th/20221101_1-115_003_TrumpetPlot_ParaChange_from10_every3_08_CV_C01_33.csv
mode,ox/red,error,control changes,counter inc.,time/s,control/V,Ewe/V,<I>/mA,cycle number,(Q-Qo)/C,I Range,P/W,log(|I|),Tafel slope mV/dec,alpha_eff,dI/d(E-IR),E-IR/V,
2,0,0,0,0,66189.3,2.44065e-05,-0.000325324,-3.99,34,0.0000000E+000,10,1.29804e-06,-2.39903, , , ,-0.000325324,
2,0,0,1,0,66189.3,0.0012943,0.000893197,-2.58596,34,-4.99446e-05,10,-2.30977e-06,-2.58738, , , ,0.000893197,
2,0,0,1,0,66189.4,0.00279784,0.00248392,-1.52015,34,-8.77943e-05,10,-3.77594e-06,-2.81811,-0.00542421,-10.8772,613.132,0.00248392,
2,0,0,1,0,66189.4,0.00429425,0.00399697,-0.75715,34,-0.00010851,10,-3.0263e-06,-3.12082,-0.00212463,-27.7695,461.931,0.00399697,
2,0,0,1,0,66189.4,0.00579065,0.00546529,-0.154945,34,-0.000116554,10,-8.46817e-07,-3.80982,-0.0125993,-4.68282,372.131,0.00546529,
2,1,0,1,0,66189.4,0.0072942,0.00699194,0.341643,34,-0.000114409,10,2.38875e-06,-3.46643,0.00993641,5.93776,297.554,0.00699194,
2,1,0,1,0,66189.4,0.00878347,0.00846643,0.741872,34,-0.000103994,10,6.28101e-06,-3.12967,0.00493455,11.9565,247.851,0.00846643,
2,1,0,1,0,66189.4,0.010287,0.0099549,1.08094,34,-8.65749e-05,10,1.07607e-05,-2.9662,0.010709,5.5094,208.662,0.0099549,
2,1,0,1,0,66189.5,0.0117905,0.0114863,1.36023,34,-6.3282e-05,10,1.5624e-05,-2.86639,0.0163371,3.61141,182.127,0.0114863,
2,1,0,1,0,66189.5,0.013278,0.0129373,1.60194,34,-3.5387e-05,10,2.07248e-05,-2.79535,0.0233232,2.52967,154.433,0.0129373,
2,1,0,1,0,66189.5,0.0147816,0.0144598,1.81397,34,-2.90931e-06,10,2.62297e-05,-2.74137,0.031262,1.88727,131.441,0.0144598,
2,1,0,1,0,66189.5,0.0162851,0.0159735,2.00934,34,3.34036e-05,10,3.20962e-05,-2.69695,0.0395185,1.49297,115.093,0.0159735,
2,1,0,1,0,66189.5,0.0177744,0.0174678,2.17065,34,7.25636e-05,10,3.79166e-05,-2.66341,0.0491603,1.20016,100.547,0.0174678,
2,1,0,1,0,66189.6,0.0192779,0.0189532,2.30962,34,0.000114944,10,4.37746e-05,-2.63646,0.0590987,0.998331,89.6258,0.0189532,
2,1,0,1,0,66189.6,0.0207743,0.0204351,2.44278,34,0.000159694,10,4.99184e-05,-2.61212,0.0672094,0.877853,83.1574,0.0204351,
2,1,0,1,0,66189.6,0.0222707,0.0219724,2.56772,34,0.000206764,10,5.6419e-05,-2.59045,0.079536,0.741802,73.935,0.0219724,
2,1,0,1,0,66189.6,0.0237743,0.0234697,2.67569,34,0.000256233,10,6.27977e-05,-2.57256,0.0890737,0.662373,68.842,0.0234697,
2,1,0,1,0,66189.6,0.0252636,0.0249446,2.77545,34,0.000307089,10,6.92325e-05,-2.55667,0.0989876,0.596034,64.3363,0.0249446,
2,1,0,1,0,66189.7,0.0267671,0.0264603,2.86821,34,0.000360276,10,7.58938e-05,-2.54239,0.108524,0.543657,60.6252,0.0264603,
2,1,0,1,0,66189.7,0.0282706,0.0279413,2.95946,34,0.000415219,10,8.26911e-05,-2.52879,0.116489,0.506485,58.2232,0.0279413,
2,1,0,1,0,66189.7,0.0297581,0.0293998,3.03924,34,0.000471165,10,8.9353e-05,-2.51723,0.129458,0.455747,53.887,0.0293998,
2,1,0,1,0,66189.7,0.0312617,0.0309216,3.11324,34,0.00052921,10,9.62664e-05,-2.50679,0.134202,0.439635,53.3937,0.0309216,
2,1,0,1,0,66189.7,0.0327652,0.0324544,3.18637,34,0.000588651,10,0.000103412,-2.4967,0.141319,0.417496,51.8927,0.0324544,
2,1,0,1,0,66189.7,0.0342545,0.0339569,3.2607,34,0.000648879,10,0.000110723,-2.48669,0.150313,0.392515,49.9017,0.0339569,
2,1,0,1,0,66189.8,0.035758,0.0354344,3.32981,34,0.000711122,10,0.00011799,-2.47758,0.163576,0.360689,46.8345,0.0354344,
2,1,0,1,0,66189.8,0.0372544,0.0369278,3.39585,34,0.000774333,10,0.000125402,-2.46905,0.171032,0.344965,45.7818,0.0369278,
2,1,0,1,0,66189.8,0.0387508,0.0384369,3.46468,34,0.000838743,10,0.000133172,-2.46034,0.186685,0.316041,42.7871,0.0384369,
2,1,0,1,0,66189.8,0.0402544,0.0399748,3.52517,34,0.000904764,10,0.000140918,-2.45282,0.190364,0.309933,42.7567,0.03997482,
2,1,0,1,0,66189.8,0.0417437,0.041437,3.60198,34,0.000971337,10,0.000149255,-2.44346,0.198839,0.296723,41.6165,0.041437,
2,1,0,1,0,66189.9,0.0432472,0.0429613,3.66235,34,0.00103983,10,0.000157339,-2.43624,0.208544,0.282914,40.4169,0.0429613,
2,1,0,1,0,66189.9,0.0447507,0.0444365,3.7226,34,0.00110948,10,0.000165419,-2.42915,0.215945,0.273218,39.7168,0.0444365,
2,1,0,1,0,66189.9,0.0462382,0.0458973,3.7862,34,0.00117953,10,0.000173777,-2.4218,0.21927,0.269075,39.751,0.0458973,
2,1,0,1,0,66189.9,0.0477418,0.0474329,3.84931,34,0.0012515,10,0.000182584,-2.41462,0.228659,0.258026,38.7329,0.0474329,
2,1,0,1,0,66189.9,0.0492453,0.0489159,3.90983,34,0.00132464,10,0.000191253,-2.40784,0.230444,0.256028,38.9978,0.0489159,
2,1,0,1,0,66190,0.0507346,0.0504507,3.96369,34,0.00139805,10,0.000199971,-2.4019,0.238802,0.247066,38.2336,0.05045069,
2,1,0,1,0,66190,0.0522381,0.0519235,4.02313,34,0.0014733,10,0.000208895,-2.39544,0.221594,0.266253,41.8087,0.05192348,
2,1,0,1,0,66190,0.0537345,0.0534186,4.08765,34,0.00154931,10,0.000218357,-2.38853,0.233717,0.252442,40.2293,0.0534186,
2,1,0,1,0,66190,0.0552309,0.054942,4.1464,34,0.00162644,10,0.000227811,-2.38233,0.238241,0.247649,39.9553,0.054942,
2,1,0,1,0,66190,0.0567345,0.0563977,4.19343,34,0.00170505,10,0.0002365,-2.37743,0.257518,0.22911,37.4981,0.0563977,
2,1,0,1,0,66190,0.0582237,0.0579476,4.24747,34,0.00178381,10,0.00024613,-2.37187,0.253863,0.232409,38.5716,0.0579476,
2,1,0,1,0,66190.1,0.0597273,0.059405,4.30184,34,0.00186446,10,0.000255551,-2.36635,0.26557,0.222164,37.3386,0.059405,
2,1,0,1,0,66190.1,0.0612308,0.0609324,4.35989,34,0.00194618,10,0.000265658,-2.36052,0.287493,0.205222,34.9108,0.0609324,
2,1,0,1,0,66190.1,0.0627183,0.062385,4.41084,34,0.00202805,10,0.00027517,-2.35548,0.292544,0.201679,34.7272,0.062385,
2,1,0,1,0,66190.1,0.0642219,0.0639584,4.4613,34,0.00211173,10,0.000285337,-2.35054,0.304495,0.193763,33.7909,0.0639584,
2,1,0,1,0,66190.1,0.0657254,0.0654175,4.51584,34,0.00219639,10,0.000295415,-2.34526,0.302126,0.195283,34.4456,0.0654175,
2,1,0,1,0,66190.2,0.0672146,0.0668965,4.57392,34,0.00228118,10,0.000305979,-2.33971,0.312656,0.188706,33.655,0.0668965,
2,1,0,1,0,66190.2,0.0687182,0.0683917,4.62072,34,0.00236784,10,0.000316019,-2.33529,0.348251,0.169418,30.5442,0.06839174,
2,1,0,1,0,66190.2,0.0702146,0.0698907,4.67036,34,0.00245493,10,0.000326414,-2.33065,0.348365,0.169362,30.8624,0.0698907,
2,1,0,1,0,66190.2,0.071711,0.0713885,4.72431,34,0.00254293,10,0.000337261,-2.32566,0.338698,0.174196,32.0737,0.0713885,
2,1,0,1,0,66190.2,0.0732146,0.0729114,4.7676,34,0.0026323,10,0.000347612,-2.3217,0.354409,0.166474,30.9552,0.0729114,
2,1,0,1,0,66190.3,0.0747038,0.0743715,4.81467,34,0.00272163,10,0.000358074,-2.31743,0.35108,0.168053,31.5472,0.0743715,
2,1,0,1,0,66190.3,0.0762074,0.0759101,4.85212,34,0.00281271,10,0.000368325,-2.31407,0.380031,0.155251,29.4242,0.0759101,
2,1,0,1,0,66190.3,0.0777109,0.0773952,4.90484,34,0.00290465,10,0.000379611,-2.30938,0.377174,0.156427,29.9041,0.0773952,
2,1,0,1,0,66190.3,0.0791984,0.0788649,4.94645,34,0.00299641,10,0.000390101,-2.30571,0.38445,0.153466,29.6077,0.0788649,
2,1,0,1,0,66190.3,0.0807019,0.080383,4.98074,34,0.00308995,10,0.000400367,-2.30271,0.407532,0.144774,28.1511,0.08038301,
2,1,0,1,0,66190.3,0.0822055,0.0818841,5.0215,34,0.00318429,10,0.000411181,-2.29917,0.437768,0.134775,26.4203,0.0818841,
2,1,0,1,0,66190.4,0.0836948,0.083364,5.06012,34,0.0032783,10,0.000421832,-2.29584,0.444608,0.132701,26.2176,0.083364,
2,1,0,1,0,66190.4,0.0851983,0.0848743,5.09579,34,0.00337407,10,0.000432502,-2.29279,0.428053,0.137833,27.4424,0.0848743,
2,1,0,1,0,66190.4,0.0866947,0.0863841,5.13811,34,0.00347006,10,0.000443851,-2.2892,0.490027,0.120402,24.1465,0.0863841,
2,1,0,1,0,66190.4,0.0881911,0.0878925,5.1732,34,0.00356676,10,0.000454686,-2.28624,0.543342,0.108587,21.9343,0.0878925,
2,1,0,1,0,66190.4,0.0896946,0.0893643,5.2072,34,0.00366461,10,0.000465338,-2.2834,0.535729,0.11013,22.4117,0.0893643,
2,1,0,1,0,66190.5,0.0911839,0.0908579,5.2507,34,0.0037621,10,0.000477067,-2.27978,0.487004,0.121149,24.8228,0.0908579,
2,1,0,1,0,66190.5,0.0926857,0.0923746,5.29251,34,0.0038614,10,0.000488893,-2.27634,0.485358,0.12156,25.092,0.0923746,
2,1,0,1,0,66190.5,0.0941892,0.093888,5.33236,34,0.00396147,10,0.000500645,-2.27308,0.475155,0.12417,25.8241,0.09388797,
2,1,0,1,0,66190.5,0.0956785,0.095357,5.37005,34,0.00406114,10,0.000512072,-2.27002,0.476106,0.123922,25.9729,0.095357,
2,1,0,1,0,66190.5,0.097182,0.0968755,5.41428,34,0.00416266,10,0.000524511,-2.26646,0.40967,0.144018,30.4031,0.0968755,
2,1,0,1,0,66190.6,0.0986856,0.0983278,5.45447,34,0.00426503,10,0.000536326,-2.26325,0.39383,0.149811,31.9206,0.0983278,
2,1,0,1,0,66190.6,0.100175,0.0998524,5.50648,34,0.00436717,10,0.000549835,-2.25913,0.379034,0.155659,33.4515,0.0998524,
2,1,0,1,0,66190.6,0.101678,0.101343,5.554,34,0.00447134,10,0.000562859,-2.25539,0.342979,0.172022,37.3401,0.101343,
2,1,0,1,0,66190.6,0.103175,0.102857,5.61615,34,0.00457598,10,0.000577661,-2.25056,0.308545,0.19122,41.951,0.102857,
2,1,0,1,0,66190.6,0.104671,0.104346,5.68126,34,0.00468177,10,0.000592817,-2.24556,0.289247,0.203978,45.2352,0.104346,
2,1,0,1,0,66190.6,0.106175,0.105836,5.74406,34,0.00478943,10,0.000607928,-2.24078,0.281221,0.2098,47.0301,0.105836,
2,1,0,1,0,66190.7,0.107662,0.107388,5.81096,34,0.0048972,10,0.000624028,-2.23575,0.273239,0.215928,49.0334,0.107388,
2,1,0,1,0,66190.7,0.109166,0.108847,5.88221,34,0.00500738,10,0.000640259,-2.23046,0.270664,0.217983,50.1229,0.108847,
2,1,0,1,0,66190.7,0.110669,0.110378,5.96127,34,0.00511903,10,0.000657996,-2.22466,0.265722,0.222037,51.6815,0.110378,
2,1,0,1,0,66190.7,0.112159,0.111816,6.04182,34,0.00523094,10,0.000675573,-2.21883,0.267266,0.220754,52.0755,0.111816,
2,1,0,1,0,66190.7,0.113662,0.113367,6.12459,34,0.00534555,10,0.000694326,-2.21292,0.265668,0.222082,53.0764,0.113367,
2,1,0,1,0,66190.8,0.115166,0.114823,6.20649,34,0.00546167,10,0.00071265,-2.20715,0.260477,0.226507,54.8644,0.114823,
2,1,0,1,0,66190.8,0.116655,0.116296,6.29105,34,0.00557809,10,0.000731625,-2.20128,0.259238,0.22759,55.8568,0.116296,
2,1,0,1,0,66190.8,0.118158,0.117824,6.38571,34,0.00569741,10,0.000752388,-2.19479,0.2648,0.222809,55.4169,0.117824,
2,1,0,1,0,66190.8,0.119655,0.119304,6.46403,34,0.00581771,10,0.000771183,-2.1895,0.283028,0.20846,52.5124,0.119304,
2,1,0,1,0,66190.8,0.121151,0.120822,6.53796,34,0.00593946,10,0.000789928,-2.18456,0.29489,0.200074,51.0359,0.120822,
2,1,0,1,0,66190.9,0.122655,0.122361,6.61549,34,0.00606328,10,0.000809476,-2.17944,0.300109,0.196595,50.7115,0.122361,
2,1,0,1,0,66190.9,0.124142,0.123854,6.69037,34,0.00618724,10,0.000828632,-2.17455,0.31053,0.189998,49.5572,0.123854,
2,1,0,1,0,66190.9,0.125646,0.125305,6.75696,34,0.00631384,10,0.00084668,-2.17025,0.345271,0.17088,45.0197,0.125305,
2,1,0,1,0,66190.9,0.127149,0.126793,6.81336,34,0.00644172,10,0.000863889,-2.16664,0.36125,0.163322,43.4445,0.126793,
2,1,0,1,0,66190.9,0.128639,0.128308,6.87385,34,0.00656934,10,0.000881966,-2.1628,0.403449,0.146239,39.268,0.128308,
2,1,0,1,0,66190.9,0.130142,0.12982,6.93553,34,0.00669943,10,0.000900372,-2.15892,0.439327,0.134296,36.3371,0.12982,
2,1,0,1,0,66191,0.131646,0.13129,6.98347,34,0.00683058,10,0.00091686,-2.15593,0.495153,0.119155,32.4579,0.13129,
2,1,0,1,0,66191,0.133135,0.132832,7.0321,34,0.00696125,10,0.000934087,-2.15292,0.559192,0.105509,28.9527,0.132832,
2,1,0,1,0,66191,0.134639,0.134308,7.07139,34,0.00709409,10,0.000949748,-2.15049,0.61436,0.096035,26.526,0.134308,
2,1,0,1,0,66191,0.136135,0.135847,7.11184,34,0.00722702,10,0.000966123,-2.14802,0.703891,0.0838198,23.2663,0.135847,
2,1,0,1,0,66191,0.137631,0.137304,7.15482,34,0.00736066,10,0.000982383,-2.1454,0.768702,0.0767528,21.4051,0.137304,
2,1,0,1,0,66191.1,0.139135,0.138827,7.18407,34,0.00749563,10,0.000997343,-2.14363,1.19386,0.0494195,13.8378,0.138827,
2,1,0,1,0,66191.1,0.140622,0.140355,7.20715,34,0.00762963,10,0.00101156,-2.14224,1.20433,0.0489897,13.7682,0.140355,
2,1,0,1,0,66191.1,0.142126,0.141792,7.22539,34,0.00776544,10,0.0010245,-2.14114,1.75548,0.0336091,9.4632,0.141792,
2,1,0,1,0,66191.1,0.143629,0.143323,7.23994,34,0.0079016,10,0.00103765,-2.14026,5.13742,0.0114844,3.23749,0.143323,
2,1,0,1,0,66191.1,0.145119,0.144813,7.23578,34,0.0080364,10,0.00104783,-2.14051,-3.01724,-0.0195543,-5.51273,0.144813,
2,1,0,1,0,66191.2,0.146622,0.146316,7.21871,34,0.00817248,10,0.00105622,-2.14154,-1.37375,-0.0429481,-12.0823,0.146316,
2,1,0,1,0,66191.2,0.148126,0.147801,7.19546,34,0.00830821,10,0.0010635,-2.14294,-0.762756,-0.0773511,-21.6793,0.147801,
2,1,0,1,0,66191.2,0.149615,0.149335,7.15418,34,0.00844186,10,0.00106837,-2.14544,-0.517387,-0.114035,-31.7683,0.149335,
2,1,0,1,0,66191.2,0.151119,0.150812,7.09151,34,0.00857603,10,0.00106949,-2.14926,-0.365622,-0.161369,-44.5542,0.150812,
2,1,0,1,0,66191.2,0.152615,0.152253,7.01172,34,0.0087082,10,0.00106756,-2.15418,-0.281582,-0.20953,-57.248,0.152253,
2,1,0,1,0,66191.2,0.154111,0.153762,6.92121,34,0.00883868,10,0.00106422,-2.15982,-0.234054,-0.252079,-67.9426,0.1537625,
2,1,0,1,0,66191.3,0.155615,0.15528,6.80081,34,0.00896794,10,0.00105603,-2.16744,-0.200084,-0.294876,-78.1435,0.15528,
2,1,0,1,0,66191.3,0.157102,0.156807,6.67511,34,0.00909363,10,0.0010467,-2.17554,-0.17019,-0.346671,-90.0936,0.156807,
2,1,0,1,0,66191.3,0.158606,0.158275,6.52831,34,0.00921802,10,0.00103327,-2.1852,-0.145992,-0.404131,-102.806,0.158275,
2,1,0,1,0,66191.3,0.16011,0.159807,6.36603,34,0.00933946,10,0.00101734,-2.19613,-0.132195,-0.44631,-110.777,0.159807,
2,1,0,1,0,66191.3,0.161599,0.161265,6.20349,34,0.00945661,10,0.0010004,-2.20736,-0.124011,-0.475763,-114.976,0.161265,
2,1,0,1,0,66191.4,0.163102,0.162816,6.02875,34,0.00957179,10,0.000981577,-2.21977,-0.116229,-0.507617,-119.34,0.162816,
2,1,0,1,0,66191.4,0.164606,0.164315,5.85242,34,0.00968368,10,0.000961641,-2.23266,-0.113833,-0.518303,-118.262,0.164315,
2,1,0,1,0,66191.4,0.166095,0.165791,5.6789,34,0.00979108,10,0.000941512,-2.24574,-0.113123,-0.521556,-115.634,0.165791,
2,1,0,1,0,66191.4,0.167599,0.167276,5.50916,34,0.00989639,10,0.000921551,-2.25891,-0.117596,-0.501717,-107.941,0.167276,
2,1,0,1,0,66191.4,0.169095,0.168816,5.35032,34,0.00999809,10,0.000903222,-2.27162,-0.119192,-0.495001,-103.375,0.168816,
2,1,0,1,0,66191.5,0.170592,0.170237,5.19452,34,0.0100968,10,0.000884298,-2.28445,-0.11652,-0.506353,-102.642,0.170237,
2,1,0,1,0,66191.5,0.172095,0.171798,5.04375,34,0.0101932,10,0.000866507,-2.29725,-0.1245,-0.473897,-93.3686,0.171798,
2,1,0,1,0,66191.5,0.173583,0.173276,4.90977,34,0.0102859,10,0.000850742,-2.30894,-0.130482,-0.45217,-86.7185,0.173276,
2,1,0,1,0,66191.5,0.175086,0.174766,4.78346,34,0.0103772,10,0.000835985,-2.32026,-0.136039,-0.4337,-81.0111,0.174766,
2,1,0,1,0,66191.5,0.17659,0.17629,4.65793,34,0.0104661,10,0.000821146,-2.33181,-0.141927,-0.415706,-75.6639,0.17629,
2,1,0,1,0,66191.5,0.178079,0.177783,4.5448,34,0.0105519,10,0.000807986,-2.34249,-0.14961,-0.394358,-70.1163,0.177783,
2,1,0,1,0,66191.6,0.179582,0.179241,4.44321,34,0.0106366,10,0.000796404,-2.3523,-0.154944,-0.380783,-66.1821,0.179241,
2,1,0,1,0,66191.6,0.181086,0.180731,4.34398,34,0.0107195,10,0.000785092,-2.36211,-0.165758,-0.355941,-60.5287,0.180731,
2,1,0,1,0,66191.6,0.182575,0.182242,4.2622,34,0.0107998,10,0.000776752,-2.37037,-0.169105,-0.348896,-58.0727,0.182242,
2,1,0,1,0,66191.6,0.184079,0.183772,4.18221,34,0.0108795,10,0.000768573,-2.37859,-0.173549,-0.339962,-55.5439,0.183772,
2,1,0,1,0,66191.6,0.185582,0.185286,4.10059,34,0.0109575,10,0.000759782,-2.38715,-0.187059,-0.315408,-50.5923,0.185286,
2,1,0,1,0,66191.7,0.18707,0.186761,4.03798,34,0.0110334,10,0.000754139,-2.39384,-0.201903,-0.292219,-46.0724,0.186761,
2,1,0,1,0,66191.7,0.188573,0.188275,3.96971,34,0.0111089,10,0.000747398,-2.40124,-0.213074,-0.276899,-42.9538,0.188275,
2,1,0,1,0,66191.7,0.19007,0.189778,3.91158,34,0.0111828,10,0.00074233,-2.40765,-0.221502,-0.266364,-40.698,0.189778,
2,1,0,1,0,66191.7,0.191566,0.191243,3.85621,34,0.0112556,10,0.000737474,-2.41384,-0.247912,-0.237988,-35.8157,0.191243,
2,1,0,1,0,66191.7,0.19307,0.192764,3.80112,34,0.0113277,10,0.000732717,-2.42009,-0.267103,-0.220889,-32.8092,0.1927637,
2,1,0,1,0,66191.8,0.194559,0.194216,3.75946,34,0.0113982,10,0.000730148,-2.42487,-0.292403,-0.201776,-29.5972,0.194216,
2,1,0,1,0,66191.8,0.196063,0.195766,3.7125,34,0.0114686,10,0.000726779,-2.43033,-0.293824,-0.2008,-29.0547,0.1957655,
2,1,0,1,0,66191.8,0.197566,0.197228,3.6569,34,0.0115381,10,0.000721241,-2.43689,-0.322855,-0.182745,-26.1587,0.197228,
2,1,0,1,0,66191.8,0.199055,0.198758,3.62512,34,0.0116061,10,0.000720521,-2.44068,-0.316035,-0.186688,-26.4278,0.1987581,
2,1,0,1,0,66191.8,0.200559,0.200262,3.58616,34,0.011674,10,0.00071817,-2.44537,-0.355914,-0.165771,-23.2081,0.200262,
2,1,0,1,0,66191.8,0.202062,0.201781,3.55018,34,0.0117413,10,0.00071636,-2.44975,-0.350781,-0.168196,-23.3284,0.201781,
2,1,0,1,0,66191.9,0.20355,0.203205,3.51243,34,0.0118073,10,0.000713742,-2.45439,-0.37985,-0.155325,-21.3371,0.203205,
2,1,0,1,0,66191.9,0.205053,0.204736,3.48425,34,0.0118733,10,0.000713352,-2.45789,-0.42304,-0.139467,-19.0284,0.2047362,
2,1,0,1,0,66191.9,0.20655,0.206208,3.46032,34,0.0119385,10,0.000713544,-2.46088,-0.453694,-0.130043,-17.5704,0.206208,
2,1,0,1,0,66191.9,0.208046,0.207747,3.43564,34,0.0120033,10,0.000713745,-2.46399,-0.413819,-0.142574,-19.1131,0.207747,
2,1,0,1,0,66191.9,0.20955,0.209241,3.41122,34,0.0120679,10,0.000713768,-2.46709,-0.410419,-0.143755,-19.1375,0.209241,
2,1,0,1,0,66192,0.211039,0.21074,3.3886,34,0.0121313,10,0.000714114,-2.46998,-0.475344,-0.124121,-16.418,0.21074,
2,1,0,1,0,66192,0.212543,0.212229,3.3677,34,0.0121949,10,0.000714725,-2.47267,-0.490077,-0.120389,-15.8075,0.212229,
2,1,0,1,0,66192,0.214046,0.213756,3.34741,34,0.0122582,10,0.00071553,-2.47529,-0.596037,-0.0989871,-12.9156,0.213756,
2,1,0,1,0,66192,0.215535,0.215244,3.32498,34,0.0123203,10,0.000715684,-2.47821,-0.592976,-0.0994981,-12.9148,0.215244,
2,1,0,1,0,66192,0.217039,0.216732,3.30483,34,0.0123828,10,0.000716262,-2.48085,-0.603828,-0.0977099,-12.6016,0.216732,
2,1,0,1,0,66192.1,0.218543,0.218238,3.28592,34,0.0124449,10,0.000717114,-2.48334,-0.944487,-0.0624678,-8.01092,0.218238,
2,1,0,1,0,66192.1,0.22003,0.219775,3.27335,34,0.0125061,10,0.000719402,-2.48501,-0.941801,-0.0626459,-7.99313,0.219775,
2,1,0,1,0,66192.1,0.221534,0.221229,3.2569,34,0.0125676,10,0.000720522,-2.4872,-0.822314,-0.0717487,-9.10793,0.221229,
2,1,0,1,0,66192.1,0.22303,0.22273,3.23362,34,0.0126285,10,0.000720222,-2.49031,-0.98396,-0.0599618,-7.57391,0.2227297,
2,1,0,1,0,66192.1,0.224526,0.224216,3.22177,34,0.0126891,10,0.000722374,-2.49191,-0.919094,-0.0641936,-8.07815,0.224216,
2,1,0,1,0,66192.1,0.22603,0.225698,3.20722,34,0.0127498,10,0.000723862,-2.49387,-0.853944,-0.0690912,-8.65278,0.225698,
2,1,0,1,0,66192.2,0.227519,0.227226,3.1942,34,0.0128097,10,0.000725804,-2.49564,-0.910836,-0.0647757,-8.08028,0.227226,
2,1,0,1,0,66192.2,0.229023,0.228726,3.18655,34,0.0128699,10,0.000728844,-2.49668,-0.810984,-0.0727511,-9.04806,0.228726,
2,1,0,1,0,66192.2,0.230526,0.23022,3.1731,34,0.0129299,10,0.000730512,-2.49852,-1.04786,-0.0563053,-6.9809,0.23022,
2,1,0,1,0,66192.2,0.232016,0.231672,3.16029,34,0.012989,10,0.000732153,-2.50027,-1.04332,-0.0565504,-6.9816,0.231672,
2,1,0,1,0,66192.2,0.233519,0.233249,3.15386,34,0.0130486,10,0.000735634,-2.50116,-0.983701,-0.0599776,-7.37785,0.233249,
2,1,0,1,0,66192.3,0.235023,0.234686,3.14682,34,0.0131081,10,0.000738513,-2.50213,-0.958117,-0.0615791,-7.55539,0.2346859,
2,1,0,1,0,66192.3,0.23651,0.236187,3.13902,34,0.0131666,10,0.000741396,-2.50321,-1.01469,-0.0581459,-7.11362,0.236187,
2,1,0,1,0,66192.3,0.238014,0.237744,3.12581,34,0.0132257,10,0.000743141,-2.50504,-1.25067,-0.0471747,-5.7512,0.2377436,
2,1,0,1,0,66192.3,0.23951,0.239221,3.11725,34,0.0132843,10,0.000745713,-2.50623,-1.41121,-0.0418082,-5.08461,0.239221,
2,1,0,1,0,66192.3,0.241006,0.240723,3.11163,34,0.0133427,10,0.000749042,-2.50701,-1.12737,-0.0523341,-6.35042,0.240723,
2,1,0,1,0,66192.4,0.24251,0.242191,3.10093,34,0.0134012,10,0.000751016,-2.50851,-1.63973,-0.0359815,-4.35016,0.242191,
2,1,0,1,0,66192.4,0.243999,0.243697,3.09282,34,0.013459,10,0.000753711,-2.50965,-2.49666,-0.0236316,-2.85219,0.243697,
2,1,0,1,0,66192.4,0.245503,0.245216,3.08642,34,0.0135173,10,0.000756839,-2.51055,-2.27936,-0.0258844,-3.11712,0.2452163,
2,1,0,1,0,66192.4,0.247006,0.246719,3.07755,34,0.0135755,10,0.00075929,-2.51179,-1.39329,-0.042346,-5.08502,0.246719,
2,1,0,1,0,66192.4,0.248496,0.248168,3.06831,34,0.0136329,10,0.000761458,-2.5131,-1.77254,-0.0332855,-3.99261,0.248168,
2,1,0,1,0,66192.4,0.249999,0.249705,3.06562,34,0.0136908,10,0.000765501,-2.51348,-1.92691,-0.030619,-3.66197,0.249705,
2,1,0,1,0,66192.5,0.251503,0.251192,3.05495,34,0.0137486,10,0.000767379,-2.515,-2.05763,-0.0286738,-3.42113,0.251192,
2,1,0,1,0,66192.5,0.25299,0.252683,3.0503,34,0.0138057,10,0.000770758,-2.51566,-1.26293,-0.0467166,-5.5627,0.252683,
2,1,0,1,0,66192.5,0.254494,0.254171,3.04335,34,0.0138632,10,0.000773532,-2.51665,-1.32829,-0.0444181,-5.28006,0.254171,
2,1,0,1,0,66192.5,0.25599,0.255652,3.03833,34,0.0139203,10,0.000776755,-2.51736,-1.44942,-0.0407059,-4.83177,0.255652,
2,1,0,1,0,66192.5,0.257487,0.257169,3.03677,34,0.0139773,10,0.000780963,-2.51759,-1.54972,-0.0380713,-4.5086,0.257169,
2,1,0,1,0,66192.6,0.25899,0.258685,3.03305,34,0.0140345,10,0.000784604,-2.51812,-2.05172,-0.0287563,-3.3992,0.258685,
2,1,0,1,0,66192.6,0.260479,0.260222,3.03127,34,0.0140911,10,0.000788803,-2.51837,-1.23551,-0.0477536,-5.63449,0.260222,
2,1,0,1,0,66192.6,0.261983,0.261684,3.01995,34,0.014148,10,0.000790272,-2.52,-1.74962,-0.0337215,-3.97221,0.261684,
2,1,0,1,0,66192.6,0.263486,0.263175,3.0145,34,0.0142049,10,0.00079334,-2.52078,-5.07864,-0.0116173,-1.36526,0.263175,
2,1,0,1,0,66192.6,0.264974,0.26468,3.01232,34,0.0142611,10,0.000797303,-2.5211,-4.39969,-0.01341,-1.57507,0.26468,
2,1,0,1,0,66192.7,0.266477,0.26618,3.00212,34,0.0143178,10,0.000799106,-2.52257,-2.57101,-0.0229482,-2.68903,0.26618,
2,1,0,1,0,66192.7,0.267981,0.267645,2.99416,34,0.0143745,10,0.000801371,-2.52372,-2.9389,-0.0200755,-2.3491,0.267645,
2,1,0,1,0,66192.7,0.26947,0.269148,2.99324,34,0.0144304,10,0.000805623,-2.52386,-5.06352,-0.011652,-1.36134,0.269148,
2,1,0,1,0,66192.7,0.270974,0.270699,2.99398,34,0.0144868,10,0.000810468,-2.52375,-3.00244,-0.0196507,-2.29096,0.270699,
2,1,0,1,0,66192.7,0.27247,0.272156,2.98158,34,0.0145429,10,0.000811453,-2.52555,-2.54193,-0.0232107,-2.70081,0.272156,
2,1,0,1,0,66192.7,0.273967,0.273643,2.97525,34,0.0145989,10,0.000814156,-2.52648,-2.19201,-0.0269159,-3.12986,0.2736434,
2,1,0,1,0,66192.8,0.27547,0.275176,2.96767,34,0.014655,10,0.00081663,-2.52759,-1.49743,-0.0394009,-4.57242,0.2751759,
2,1,0,1,0,66192.8,0.276959,0.276649,2.97142,34,0.0147105,10,0.000822039,-2.52704,-2.29826,-0.0256715,-2.97502,0.2766487,
2,1,0,1,0,66192.8,0.278463,0.278158,2.96276,34,0.0147665,10,0.000824115,-2.5283,-1.15523,-0.0510722,-5.90795,0.278158,
2,1,0,1,0,66192.8,0.279967,0.279675,2.96014,34,0.0148224,10,0.000827877,-2.52869,-1.3687,-0.0431065,-4.97754,0.279675,
2,1,0,1,0,66192.8,0.281454,0.281154,2.95741,34,0.0148776,10,0.00083149,-2.52909,-1.32629,-0.0444851,-5.12977,0.281154,
2,1,0,1,0,66192.9,0.282958,0.282637,2.95193,34,0.0149333,10,0.000834327,-2.52989,-2.26685,-0.0260273,-2.99676,0.282637,
2,1,0,1,0,66192.9,0.284461,0.284145,2.94832,34,0.0149889,10,0.00083775,-2.53042,-1.87473,-0.0314712,-3.61723,0.284145,
2,1,0,1,0,66192.9,0.28595,0.285676,2.94352,34,0.0150439,10,0.000840892,-2.53113,-1.62409,-0.0363281,-4.16371,0.285676,
2,1,0,1,0,66192.9,0.287454,0.287161,2.9351,34,0.0150993,10,0.000842846,-2.53238,-1.89991,-0.0310541,-3.55656,0.287161,
2,1,0,1,0,66192.9,0.28895,0.288614,2.92822,34,0.0151543,10,0.000845124,-2.5334,-6.10041,-0.00967148,-1.1057,0.288614,
2,1,0,1,0,66193,0.290447,0.290136,2.92859,34,0.0152092,10,0.000849689,-2.53334,-4.9532,-0.0119115,-1.36108,0.290136,
2,1,0,1,0,66193,0.29195,0.291647,2.91847,34,0.0152644,10,0.000851161,-2.53484,-1.82984,-0.0322433,-3.67081,0.291647,
2,1,0,1,0,66193,0.29344,0.293088,2.91064,34,0.0153189,10,0.000853074,-2.53601,-2.45126,-0.0240693,-2.7401,0.293088,
2,1,0,1,0,66193,0.294943,0.294619,2.90959,34,0.0153738,10,0.000857221,-2.53617,-6.6243,-0.0089066,-1.01237,0.294619,
2,1,0,1,0,66193,0.296447,0.296171,2.90599,34,0.0154287,10,0.000860669,-2.53671,-2.55192,-0.0231199,-2.61896,0.296171,
2,1,0,1,0,66193,0.297934,0.297664,2.90327,34,0.0154829,10,0.000864197,-2.53711,-2.57994,-0.0228687,-2.58774,0.297664,
2,1,0,1,0,66193.1,0.299438,0.29915,2.89063,34,0.0155376,10,0.000864731,-2.53901,-0.0390799,-1.50973,-159.906,0.29915,
2,1,0,1,0,66193.1,0.300012,0.29967,2.9084,34,0.0155579,10,0.000871561,-2.53635,0.00222724,26.4902,2122.92,0.29967,
2,1,0,1,0,66193.1,0.298737,0.298424,1.68362,34,0.0155926,10,0.000502435,-2.77375,0.00516379,11.4257,695.667,0.298424,
2,1,0,1,0,66193.1,0.29724,0.296981,0.908377,34,0.0156161,10,0.000269771,-3.04173,0.00437072,13.4989,447.172,0.296981,
2,1,0,1,0,66193.1,0.295744,0.295418,0.379725,34,0.0156277,10,0.000112178,-3.42053,0.00376608,15.6662,304.07,0.295418,
2,1,0,1,0,66193.1,0.29424,0.293906,0.00505717,34,0.0156309,10,1.48633e-06,-5.29609,0.0213001,2.76993,222.93,0.2939063,
2,0,0,1,0,66193.2,0.292751,0.29247,-0.270475,34,0.0156281,10,-7.91058e-05,-3.56787,-0.0060911,-9.68626,167.635,0.29247,
2,0,0,1,0,66193.2,0.291248,0.290937,-0.489094,34,0.0156207,10,-0.000142296,-3.31061,-0.00673989,-8.75385,133.202,0.290937,
2,0,0,1,0,66193.2,0.289744,0.289432,-0.661266,34,0.0156096,10,-0.000191391,-3.17962,-0.0126697,-4.65676,110.155,0.289432,
2,0,0,1,0,66193.2,0.288257,0.287951,-0.801914,34,0.0155958,10,-0.000230912,-3.09587,-0.0205059,-2.87723,85.8307,0.287951,
2,0,0,1,0,66193.2,0.286753,0.286409,-0.911056,34,0.0155794,10,-0.000260935,-3.04045,-0.0280511,-2.1033,73.3376,0.286409,
2,0,0,1,0,66193.3,0.285249,0.284963,-1.0123,34,0.015561,10,-0.000288468,-2.99469,-0.0367597,-1.60502,62.668,0.284963,
2,0,0,1,0,66193.3,0.28376,0.283484,-1.09727,34,0.0155411,10,-0.000311059,-2.95969,-0.0465137,-1.26844,53.924,0.283484,
2,0,0,1,0,66193.3,0.282257,0.281948,-1.17365,34,0.0155194,10,-0.000330907,-2.93046,-0.0610431,-0.966531,43.8889,0.281948,
2,0,0,1,0,66193.3,0.28076,0.280467,-1.24183,34,0.0154966,10,-0.000348292,-2.90594,-0.0729322,-0.80897,38.9243,0.280467,
2,0,0,1,0,66193.3,0.279264,0.27892,-1.29893,34,0.0154726,10,-0.000362297,-2.88642,-0.0821118,-0.718533,36.2681,0.27892,
2,0,0,1,0,66193.3,0.27776,0.277391,-1.35586,34,0.0154475,10,-0.000376104,-2.86778,-0.0920321,-0.641081,33.71,0.277391,
2,0,0,1,0,66193.4,0.276271,0.275962,-1.41078,34,0.0154217,10,-0.000389321,-2.85054,-0.10517,-0.560999,30.6347,0.275962,
2,0,0,1,0,66193.4,0.274767,0.274441,-1.4518,34,0.0153947,10,-0.000398434,-2.83809,-0.12081,-0.488369,27.4901,0.274441,
2,0,0,1,0,66193.4,0.273264,0.272904,-1.49036,34,0.0153669,10,-0.000406724,-2.82671,-0.119147,-0.495189,28.6953,0.272904,
2,0,0,1,0,66193.4,0.271776,0.271485,-1.52756,34,0.0153387,10,-0.00041471,-2.816,-0.127299,-0.463477,27.5401,0.271485,
2,0,0,1,0,66193.4,0.270273,0.26995,-1.56442,34,0.0153095,10,-0.000422315,-2.80565,-0.140278,-0.420592,25.6144,0.26995,
2,0,0,1,0,66193.5,0.268769,0.268427,-1.60109,34,0.0152795,10,-0.000429775,-2.79558,-0.159289,-0.370395,23.0661,0.268427,
2,0,0,1,0,66193.5,0.26728,0.266932,-1.62677,34,0.0152493,10,-0.000434238,-2.78867,-0.172812,-0.341412,21.6989,0.266932,
2,0,0,1,0,66193.5,0.265777,0.26547,-1.66293,34,0.0152182,10,-0.000441459,-2.77913,-0.182419,-0.323431,20.9209,0.26547,
2,0,0,1,0,66193.5,0.26428,0.263979,-1.6889,34,0.0151866,10,-0.000445836,-2.7724,-0.1738,-0.339471,22.3536,0.263979,
2,0,0,1,0,66193.5,0.262784,0.262453,-1.71937,34,0.0151546,10,-0.000451253,-2.76463,-0.217679,-0.271042,18.1205,0.262453,
2,0,0,1,0,66193.6,0.26128,0.260951,-1.7445,34,0.0151218,10,-0.00045523,-2.75833,-0.234743,-0.251339,17.1065,0.260951,
2,0,0,1,0,66193.6,0.259791,0.259487,-1.76875,34,0.015089,10,-0.000458967,-2.75233,-0.244596,-0.241214,16.6826,0.259487,
2,0,0,1,0,66193.6,0.258287,0.257988,-1.79323,34,0.0150553,10,-0.000462633,-2.74636,-0.26041,-0.226566,15.867,0.2579881,
2,0,0,1,0,66193.6,0.256786,0.25647,-1.8202,34,0.0150211,10,-0.000466826,-2.73988,-0.2803,-0.210489,14.9237,0.25647,
2,0,0,1,0,66193.6,0.255296,0.254975,-1.84527,34,0.0149868,10,-0.000470498,-2.73394,-0.333295,-0.17702,12.7065,0.254975,
2,0,0,1,0,66193.6,0.253793,0.253462,-1.86411,34,0.0149518,10,-0.000472481,-2.72953,-0.332531,-0.177427,12.8953,0.253462,
2,0,0,1,0,66193.7,0.252289,0.25193,-1.88485,34,0.0149164,10,-0.00047485,-2.72472,-0.295953,-0.199356,14.6707,0.25193,
2,0,0,1,0,66193.7,0.2508,0.25047,-1.90992,34,0.0148809,10,-0.000478379,-2.71898,-0.337816,-0.174651,12.9954,0.25047,
2,0,0,1,0,66193.7,0.249296,0.248959,-1.9321,34,0.0148446,10,-0.000481015,-2.71397,-0.333892,-0.176704,13.2774,0.248959,
2,0,0,1,0,66193.7,0.2478,0.247492,-1.9494,34,0.0148082,10,-0.000482461,-2.7101,-0.33801,-0.174551,13.2728,0.247492,
2,0,0,1,0,66193.7,0.246304,0.245991,-1.97072,34,0.0147715,10,-0.000484781,-2.70537,-0.283589,-0.208048,15.9654,0.245991,
2,0,0,1,0,66193.8,0.2448,0.244488,-1.99148,34,0.0147341,10,-0.000486892,-2.70082,-0.300603,-0.196272,15.2123,0.244488,
2,0,0,1,0,66193.8,0.243313,0.243001,-2.00285,34,0.0146968,10,-0.000486695,-2.69835,-0.346053,-0.170494,13.3198,0.243001,
2,0,0,1,0,66193.8,0.241809,0.241492,-2.0165,34,0.0146587,10,-0.000486969,-2.6954,-0.3444,-0.171312,13.5242,0.241492,
2,0,0,1,0,66193.8,0.240306,0.239996,-2.03512,34,0.0146204,10,-0.000488422,-2.69141,-0.366423,-0.161016,12.8145,0.239996,
2,0,0,1,0,66193.8,0.238816,0.238507,-2.05834,34,0.014582,10,-0.000490928,-2.68648,-0.401816,-0.146833,11.7934,0.238507,
2,0,0,1,0,66193.9,0.237313,0.236955,-2.07253,34,0.014543,10,-0.000491096,-2.6835,-0.455027,-0.129663,10.475,0.2369549,
2,0,0,1,0,66193.9,0.235809,0.235467,-2.09264,34,0.0145036,10,-0.000492747,-2.67931,-0.565256,-0.104377,8.50517,0.235467,
2,0,0,1,0,66193.9,0.23432,0.233978,-2.10397,34,0.0144644,10,-0.000492282,-2.67696,-0.494502,-0.119312,9.82926,0.233978,
2,0,0,1,0,66193.9,0.232816,0.232515,-2.1205,34,0.0144245,10,-0.000493047,-2.67356,-0.510452,-0.115584,9.57528,0.232515,
2,0,0,1,0,66193.9,0.23132,0.231032,-2.14478,34,0.0143844,10,-0.000495513,-2.66862,-0.494036,-0.119425,9.97419,0.231032,
2,0,0,1,0,66193.9,0.229824,0.229513,-2.15577,34,0.0143439,10,-0.000494777,-2.6664,-0.544433,-0.10837,9.11527,0.2295129,
2,0,0,1,0,66194,0.22832,0.228005,-2.17415,34,0.0143031,10,-0.000495718,-2.66271,-0.607602,-0.0971031,8.23346,0.228005,
2,0,0,1,0,66194,0.226833,0.226516,-2.18859,34,0.0142623,10,-0.00049575,-2.65984,-0.442307,-0.133391,11.3823,0.226516,
2,0,0,1,0,66194,0.225329,0.22502,-2.20646,34,0.0142209,10,-0.000496496,-2.6563,-0.445467,-0.132445,11.3904,0.22502,
2,0,0,1,0,66194,0.223825,0.223481,-2.22017,34,0.0141791,10,-0.000496166,-2.65361,-0.468945,-0.125814,10.8945,0.223481,
2,0,0,1,0,66194,0.222336,0.222022,-2.23466,34,0.0141375,10,-0.000496144,-2.65079,-0.451945,-0.130547,11.3757,0.222022,
2,0,0,1,0,66194.1,0.220833,0.220504,-2.24588,34,0.0140952,10,-0.000495226,-2.64861,-0.416278,-0.141732,12.4382,0.220504,
2,0,0,1,0,66194.1,0.219329,0.219022,-2.26652,34,0.0140525,10,-0.00049642,-2.64464,-0.407143,-0.144912,12.7982,0.219022,
2,0,0,1,0,66194.1,0.21784,0.21753,-2.27662,34,0.01401,10,-0.000495235,-2.64271,-0.528535,-0.111629,9.92567,0.21753,
2,0,0,1,0,66194.1,0.216336,0.21604,-2.29081,34,0.0139668,10,-0.000494906,-2.64001,-0.539032,-0.109456,9.80478,0.21604,
2,0,0,1,0,66194.1,0.21484,0.214516,-2.30937,34,0.0139235,10,-0.000495398,-2.63651,-0.476561,-0.123804,11.1711,0.214516,
2,0,0,1,0,66194.2,0.213343,0.213032,-2.32677,34,0.01388,10,-0.000495675,-2.63325,-0.551658,-0.10695,9.70167,0.213032,
2,0,0,1,0,66194.2,0.21184,0.211507,-2.3392,34,0.0138359,10,-0.000494758,-2.63093,-0.623722,-0.0945934,8.63602,0.211507,
2,0,0,1,0,66194.2,0.210352,0.210023,-2.3509,34,0.0137921,10,-0.000493743,-2.62877,-0.692096,-0.0852483,7.8361,0.210023,
2,0,0,1,0,66194.2,0.208849,0.20852,-2.36597,34,0.0137476,10,-0.000493351,-2.62599,-0.576402,-0.102359,9.46756,0.20852,
2,0,0,1,0,66194.2,0.207345,0.207035,-2.3806,34,0.0137027,10,-0.000492866,-2.62331,-0.521193,-0.113202,10.5349,0.207035,
2,0,0,1,0,66194.2,0.205856,0.20552,-2.40733,34,0.013658,10,-0.000494754,-2.61846,-0.574121,-0.102766,9.62087,0.20552,
2,0,0,1,0,66194.3,0.204353,0.204003,-2.41947,34,0.0136125,10,-0.000493581,-2.61628,-0.660048,-0.0893874,8.42135,0.204003,
2,0,0,1,0,66194.3,0.202849,0.202506,-2.42963,34,0.0135668,10,-0.000492014,-2.61446,-0.541654,-0.108926,10.3309,0.202506,
2,0,0,1,0,66194.3,0.20136,0.201036,-2.44502,34,0.0135213,10,-0.000491537,-2.61172,-0.515947,-0.114353,10.8983,0.201036,
2,0,0,1,0,66194.3,0.199856,0.199507,-2.46076,34,0.013475,10,-0.00049094,-2.60893,-0.523834,-0.112631,10.8154,0.199507,
2,0,0,1,0,66194.3,0.19836,0.198023,-2.47574,34,0.0134287,10,-0.000490253,-2.6063,-0.556695,-0.105983,10.2378,0.198023,
2,0,0,1,0,66194.4,0.196863,0.196526,-2.48689,34,0.0133821,10,-0.000488738,-2.60434,-0.529814,-0.11136,10.8185,0.1965259,
2,0,0,1,0,66194.4,0.19536,0.194989,-2.50823,34,0.013335,10,-0.000489077,-2.60063,-0.460646,-0.128081,12.5183,0.194989,
2,0,0,1,0,66194.4,0.193872,0.193556,-2.51865,34,0.0132881,10,-0.0004875,-2.59883,-0.416041,-0.141813,13.9473,0.193556,
2,0,0,1,0,66194.4,0.192369,0.192045,-2.53389,34,0.0132403,10,-0.00048662,-2.59621,-0.524291,-0.112533,11.1274,0.192045,
2,0,0,1,0,66194.4,0.190865,0.190532,-2.54719,34,0.0131922,10,-0.00048532,-2.59394,-0.600058,-0.0983239,9.7877,0.190532,
2,0,0,1,0,66194.5,0.189376,0.188999,-2.56619,34,0.0131444,10,-0.000485007,-2.59071,-0.615396,-0.0958732,9.62002,0.188999,
2,0,0,1,0,66194.5,0.187872,0.187524,-2.58274,34,0.0130958,10,-0.000484325,-2.58792,-0.559452,-0.10546,10.6387,0.187524,
2,0,0,1,0,66194.5,0.186369,0.186063,-2.60552,34,0.0130468,10,-0.000484792,-2.58411,-0.602601,-0.097909,9.9398,0.186063,
2,0,0,1,0,66194.5,0.18488,0.184529,-2.61987,34,0.012998,10,-0.000483443,-2.58172,-0.644657,-0.0915215,9.35932,0.184529,
2,0,0,1,0,66194.5,0.183376,0.18305,-2.63373,34,0.0129485,10,-0.000482104,-2.57943,-0.600576,-0.098239,10.1155,0.18305,
2,0,0,1,0,66194.5,0.18188,0.181508,-2.65657,34,0.0128988,10,-0.00048219,-2.57568,-0.480647,-0.122751,12.726,0.181508,
2,0,0,1,0,66194.6,0.180383,0.180049,-2.68003,34,0.0128488,10,-0.000482535,-2.57186,-0.46832,-0.125982,13.1468,0.180049,
2,0,0,1,0,66194.6,0.17888,0.178581,-2.69723,34,0.0127981,10,-0.000481674,-2.56908,-0.477403,-0.123585,12.9875,0.178581,
2,0,0,1,0,66194.6,0.177392,0.177071,-2.71328,34,0.0127476,10,-0.000480443,-2.56651,-0.447336,-0.131892,13.9747,0.177071,
2,0,0,1,0,66194.6,0.175889,0.17558,-2.73194,34,0.0126963,10,-0.000479675,-2.56353,-0.415963,-0.14184,15.1151,0.17558,
2,0,0,1,0,66194.6,0.174385,0.174043,-2.75201,34,0.0126445,10,-0.000478968,-2.56035,-0.379773,-0.155356,16.6823,0.174043,
2,0,0,1,0,66194.7,0.172896,0.172568,-2.77456,34,0.0125929,10,-0.0004788,-2.55681,-0.407042,-0.144948,15.686,0.172568,
2,0,0,1,0,66194.7,0.171392,0.17104,-2.79093,34,0.0125403,10,-0.000477362,-2.55425,-0.408051,-0.14459,15.8079,0.17104,
2,0,0,1,0,66194.7,0.169889,0.169548,-2.81642,34,0.0124873,10,-0.000477519,-2.5503,-0.36852,-0.1601,17.6382,0.169548,
2,0,0,1,0,66194.7,0.1684,0.168087,-2.84477,34,0.0124344,10,-0.000478167,-2.54595,-0.350197,-0.168477,18.7192,0.168087,
2,0,0,1,0,66194.7,0.166896,0.166575,-2.87022,34,0.0123805,10,-0.000478106,-2.54209,-0.419654,-0.140592,15.7609,0.166575,
2,0,0,1,0,66194.8,0.165392,0.165031,-2.89089,34,0.012326,10,-0.000477087,-2.53897,-0.379046,-0.155654,17.6161,0.165031,
2,0,0,1,0,66194.8,0.163905,0.163598,-2.92137,34,0.0122717,10,-0.000477931,-2.53441,-0.364705,-0.161774,18.4835,0.163598,
2,0,0,1,0,66194.8,0.162401,0.162049,-2.95514,34,0.0122162,10,-0.000478878,-2.52942,-0.343215,-0.171904,19.8281,0.162049,
2,0,0,1,0,66194.8,0.160905,0.160577,-2.98712,34,0.0121605,10,-0.000479663,-2.52475,-0.348289,-0.1694,19.7525,0.160577,
2,0,0,1,0,66194.8,0.159409,0.159123,-3.0237,34,0.0121041,10,-0.00048114,-2.51946,-0.313303,-0.188316,22.2143,0.159123,
2,0,0,1,0,66194.8,0.157905,0.157584,-3.05957,34,0.0120468,10,-0.000482141,-2.51434,-0.303675,-0.194287,23.1994,0.157584,
2,0,0,1,0,66194.9,0.156416,0.156072,-3.09445,34,0.0119894,10,-0.000482957,-2.50942,-0.257192,-0.2294,27.7196,0.156072,
2,0,0,1,0,66194.9,0.154912,0.154556,-3.14347,34,0.0119306,10,-0.00048584,-2.50259,-0.23499,-0.251075,30.7605,0.154556,
2,0,0,1,0,66194.9,0.153409,0.153045,-3.18903,34,0.0118709,10,-0.000488064,-2.49634,-0.221451,-0.266425,33.1303,0.153045,
2,0,0,1,0,66194.9,0.151919,0.151582,-3.23503,34,0.0118111,10,-0.000490373,-2.49012,-0.209682,-0.281379,35.5478,0.151582,
2,0,0,1,0,66194.9,0.150416,0.150117,-3.28833,34,0.0117496,10,-0.000493634,-2.48302,-0.190455,-0.309784,39.7574,0.150117,
2,0,0,1,0,66195,0.148912,0.148566,-3.34192,34,0.0116871,10,-0.000496495,-2.476,-0.178706,-0.330152,43.1326,0.148566,
2,0,0,1,0,66195,0.147425,0.147095,-3.40256,34,0.0116241,10,-0.000500498,-2.46819,-0.175694,-0.335811,44.6909,0.147095,
2,0,0,1,0,66195,0.145921,0.145569,-3.46852,34,0.0115592,10,-0.000504907,-2.45986,-0.15758,-0.374413,50.8671,0.145569,
2,0,0,1,0,66195,0.144425,0.144086,-3.55197,34,0.0114933,10,-0.000511788,-2.44953,-0.150699,-0.391508,54.451,0.144086,
2,0,0,1,0,66195,0.142929,0.142618,-3.63494,34,0.0114258,10,-0.000518407,-2.4395,-0.138963,-0.424575,60.3704,0.142618,
2,0,0,1,0,66195.1,0.141425,0.141074,-3.73607,34,0.0113562,10,-0.000527061,-2.42758,-0.137252,-0.429867,62.723,0.141074,
2,0,0,1,0,66195.1,0.139936,0.139593,-3.83422,34,0.0112856,10,-0.00053523,-2.41632,-0.129192,-0.456685,68.4755,0.139593,
2,0,0,1,0,66195.1,0.138432,0.138064,-3.94243,34,0.0112123,10,-0.000544309,-2.40424,-0.126114,-0.46783,72.1923,0.138064,
2,0,0,1,0,66195.1,0.136929,0.136565,-4.05935,34,0.0111369,10,-0.000554365,-2.39154,-0.113766,-0.518609,82.3915,0.136565,
2,0,0,1,0,66195.1,0.135439,0.135096,-4.19259,34,0.01106,10,-0.000566405,-2.37752,-0.112084,-0.526389,86.1007,0.135096,
2,0,0,1,0,66195.1,0.133936,0.133591,-4.33019,34,0.0109797,10,-0.000578475,-2.36349,-0.109358,-0.539514,91.1231,0.133591,
2,0,0,1,0,66195.2,0.132432,0.132077,-4.47036,34,0.0108969,10,-0.00059043,-2.34966,-0.108726,-0.542646,94.637,0.132077,
2,0,0,1,0,66195.2,0.130945,0.130616,-4.61167,34,0.0108123,10,-0.000602357,-2.33614,-0.105252,-0.56056,100.925,0.130616,
2,0,0,1,0,66195.2,0.129441,0.129133,-4.76303,34,0.010724,10,-0.000615065,-2.32212,-0.108294,-0.544812,101.159,0.129133,
2,0,0,1,0,66195.2,0.127945,0.127614,-4.91191,34,0.0106333,10,-0.000626827,-2.30875,-0.112555,-0.524188,100.439,0.127614,
2,0,0,1,0,66195.2,0.126448,0.12612,-5.05723,34,0.0105399,10,-0.00063782,-2.29609,-0.115357,-0.511457,100.938,0.12612,
2,0,0,1,0,66195.3,0.124945,0.124618,-5.20684,34,0.0104432,10,-0.000648867,-2.28343,-0.116493,-0.50647,102.915,0.124618,
2,0,0,1,0,66195.3,0.123456,0.123148,-5.35518,34,0.0103447,10,-0.000659482,-2.27123,-0.122572,-0.481349,100.529,0.123148,
2,0,0,1,0,66195.3,0.121952,0.121596,-5.50234,34,0.0102424,10,-0.000669063,-2.25945,-0.131361,-0.449145,96.3353,0.121596,
2,0,0,1,0,66195.3,0.120449,0.120123,-5.6397,34,0.0101374,10,-0.000677458,-2.24874,-0.136337,-0.432752,95.2559,0.120123,
2,0,0,1,0,66195.3,0.118959,0.118635,-5.77844,34,0.0100309,10,-0.000685526,-2.23819,-0.145889,-0.404416,91.2702,0.118635,
2,0,0,1,0,66195.4,0.117456,0.117155,-5.91839,34,0.00992074,10,-0.00069337,-2.2278,-0.153709,-0.383841,88.6026,0.117155,
2,0,0,1,0,66195.4,0.115952,0.115614,-6.05353,34,0.0098079,10,-0.000699871,-2.21799,-0.16368,-0.360458,85.0197,0.115614,
2,0,0,1,0,66195.4,0.114465,0.114166,-6.1788,34,0.00969393,10,-0.000705408,-2.2091,-0.18075,-0.326418,78.6501,0.114166,
2,0,0,1,0,66195.4,0.112961,0.112651,-6.29859,34,0.00957649,10,-0.000709541,-2.20076,-0.188018,-0.3138,77.1072,0.1126508,
2,0,0,1,0,66195.4,0.111465,0.11116,-6.41497,34,0.00945745,10,-0.000713088,-2.19281,-0.19903,-0.296437,74.1107,0.11116,
2,0,0,1,0,66195.4,0.109968,0.1096,-6.52665,34,0.00933628,10,-0.00071532,-2.18531,-0.20878,-0.282594,71.8756,0.1095999,
2,0,0,1,0,66195.5,0.108465,0.108159,-6.63003,34,0.00921244,10,-0.000717099,-2.17848,-0.233934,-0.252208,65.1631,0.108159,
2,0,0,1,0,66195.5,0.106976,0.106678,-6.72656,34,0.00908807,10,-0.000717575,-2.17221,-0.238863,-0.247003,64.7616,0.106678,
2,0,0,1,0,66195.5,0.105472,0.105144,-6.81648,34,0.00896062,10,-0.000716709,-2.16644,-0.263589,-0.223833,59.4557,0.105144,
2,0,0,1,0,66195.5,0.103968,0.103624,-6.90025,34,0.00883147,10,-0.000715028,-2.16114,-0.287719,-0.205061,55.1354,0.103624,
2,0,0,1,0,66195.5,0.102479,0.10216,-6.97822,34,0.00870224,10,-0.000712892,-2.15626,-0.338201,-0.174453,47.4017,0.10216,
2,0,0,1,0,66195.6,0.100976,0.100707,-7.03357,34,0.0085703,10,-0.000708331,-2.15282,-0.392673,-0.150252,41.2121,0.100707,
2,0,0,1,0,66195.6,0.0994721,0.0991336,-7.09526,34,0.00843724,10,-0.000703378,-2.14903,-0.449955,-0.131124,36.2671,0.0991336,
2,0,0,1,0,66195.6,0.0979846,0.0976512,-7.13801,34,0.00830466,10,-0.000697035,-2.14642,-0.555835,-0.106147,29.5564,0.0976512,
2,0,0,1,0,66195.6,0.0964811,0.0961369,-7.17386,34,0.00816981,10,-0.000689673,-2.14425,-0.758244,-0.0778114,21.7758,0.0961369,
2,0,0,1,0,66195.6,0.0949847,0.0946367,-7.20501,34,0.00803502,10,-0.000681858,-2.14237,-1.12478,-0.0524546,14.7376,0.0946367,
2,0,0,1,0,66195.7,0.0934883,0.0931466,-7.22182,34,0.0078999,10,-0.000672688,-2.14135,-2.19332,-0.0268999,7.58073,0.09314663,
2,0,0,1,0,66195.7,0.0919847,0.0916469,-7.23258,34,0.00776379,10,-0.000662844,-2.14071,-6.32945,-0.00932151,2.63095,0.09164691,
2,0,0,1,0,66195.7,0.0904954,0.0901523,-7.24341,34,0.00762895,10,-0.00065301,-2.14006,4.23282,0.0139387,-3.93275,0.0901523,
2,0,0,1,0,66195.7,0.0889919,0.0886512,-7.23315,34,0.00749272,10,-0.000641228,-2.14067,2.31805,0.0254525,-7.17921,0.0886512,
2,0,0,1,0,66195.7,0.0874884,0.0871553,-7.21839,34,0.00735671,10,-0.00062912,-2.14156,1.4595,0.0404249,-11.3797,0.08715526,
2,0,0,1,0,66195.7,0.0860009,0.0856583,-7.20651,34,0.00722243,10,-0.000617297,-2.14227,1.29228,0.0456557,-12.8133,0.0856583,
2,0,0,1,0,66195.8,0.0844973,0.0841466,-7.17992,34,0.0070871,10,-0.000604166,-2.14388,0.946519,0.0623337,-17.4483,0.0841466,
2,0,0,1,0,66195.8,0.0829938,0.0826568,-7.15019,34,0.00695223,10,-0.000591011,-2.14568,0.882129,0.0668836,-18.6526,0.0826568,
2,0,0,1,0,66195.8,0.0815045,0.0811673,-7.12272,34,0.00681937,10,-0.000578132,-2.14735,0.883142,0.0668069,-18.5586,0.0811673,
2,0,0,1,0,66195.8,0.080001,0.0796587,-7.08443,34,0.0066857,10,-0.000564337,-2.14969,0.800785,0.0736777,-20.3745,0.0796587,
2,0,0,1,0,66195.8,0.0785046,0.0781854,-7.05569,34,0.00655325,10,-0.000551652,-2.15146,0.839529,0.0702775,-19.3426,0.0781854,
2,0,0,1,0,66195.9,0.0770082,0.0766753,-7.02239,34,0.00642144,10,-0.000538444,-2.15351,0.742106,0.0795034,-21.7992,0.0766753,
2,0,0,1,0,66195.9,0.0755046,0.075193,-6.9832,34,0.00628952,10,-0.000525088,-2.15595,0.766407,0.0769826,-21.0101,0.075193,
2,0,0,1,0,66195.9,0.0740154,0.0736513,-6.95716,34,0.00615963,10,-0.000512404,-2.15757,0.786282,0.0750366,-20.3816,0.0736513,
2,0,0,1,0,66195.9,0.0725118,0.0721663,-6.92768,34,0.00602887,10,-0.000499945,-2.15941,0.792029,0.0744922,-20.1439,0.0721663,
2,0,0,1,0,66195.9,0.0710083,0.0706856,-6.9042,34,0.00589863,10,-0.000488028,-2.16089,0.793423,0.0743613,-20.0315,0.0706856,
2,0,0,1,0,66196,0.0695208,0.0691992,-6.8729,34,0.00577029,10,-0.000475599,-2.16286,0.835913,0.0705815,-18.939,0.0691992,
2,0,0,1,0,66196,0.0680173,0.0676995,-6.84677,34,0.00564115,10,-0.000463523,-2.16451,0.898597,0.0656579,-17.5627,0.0676995,
2,0,0,1,0,66196,0.0665137,0.0661943,-6.82385,34,0.00551243,10,-0.0004517,-2.16597,0.99128,0.059519,-15.8635,0.0661943,
2,0,0,1,0,66196,0.0650244,0.0647007,-6.81026,34,0.00538545,10,-0.000440629,-2.16684,0.874342,0.0674793,-17.9148,0.06470073,
2,0,0,1,0,66196,0.0635209,0.0632075,-6.78759,34,0.00525753,10,-0.000429026,-2.16828,0.840256,0.0702167,-18.5781,0.0632075,
2,0,0,1,0,66196,0.0620245,0.061669,-6.76279,34,0.00513077,10,-0.000417054,-2.16987,0.929072,0.0635043,-16.7549,0.061669,
2,0,0,1,0,66196.1,0.0605281,0.060191,-6.73914,34,0.00500446,10,-0.000405636,-2.1714,1.12983,0.0522202,-13.727,0.060191,
2,0,0,1,0,66196.1,0.0590246,0.0587036,-6.71393,34,0.00487787,10,-0.000394132,-2.17302,1.02137,0.0577656,-15.1258,0.0587036,
2,0,0,1,0,66196.1,0.0575353,0.0572086,-6.69098,34,0.00475305,10,-0.000382782,-2.17451,1.09046,0.0541058,-14.1208,0.0572086,
2,0,0,1,0,66196.1,0.0560317,0.0557201,-6.66091,34,0.0046274,10,-0.000371147,-2.17647,1.02997,0.0572834,-14.8949,0.0557201,
2,0,0,1,0,66196.1,0.0545282,0.0542252,-6.63249,34,0.00450222,10,-0.000359648,-2.17832,1.09441,0.0539103,-13.9648,0.05422521,
2,0,0,1,0,66196.2,0.0530407,0.0526955,-6.61517,34,0.00437879,10,-0.000348589,-2.17946,1.04053,0.0567018,-14.6337,0.0526955,
2,0,0,1,0,66196.2,0.0515372,0.0512268,-6.58632,34,0.00425447,10,-0.000337396,-2.18136,0.903208,0.0653227,-16.7901,0.0512268,
2,0,0,1,0,66196.2,0.0500336,0.0497053,-6.55014,34,0.00413067,10,-0.000325576,-2.18375,0.7899,0.074693,-19.1164,0.0497053,
2,0,0,1,0,66196.2,0.0485444,0.048179,-6.52816,34,0.00400876,10,-0.00031452,-2.18521,0.811717,0.0726854,-18.5331,0.04817896,
2,0,0,1,0,66196.2,0.0470408,0.0467031,-6.50131,34,0.00388604,10,-0.000303631,-2.187,0.788899,0.0747878,-18.9797,0.0467031,
2,0,0,1,0,66196.3,0.0455444,0.0451996,-6.47368,34,0.00376446,10,-0.000292608,-2.18885,0.664735,0.0887571,-22.4149,0.0451996,
2,0,0,1,0,66196.3,0.044048,0.0436893,-6.44311,34,0.00364346,10,-0.000281495,-2.1909,0.622861,0.0947242,-23.8252,0.0436893,
2,0,0,1,0,66196.3,0.0425445,0.0421947,-6.41041,34,0.00352245,10,-0.000270486,-2.19311,0.661046,0.0892525,-22.3488,0.0421947,
2,0,0,1,0,66196.3,0.0410552,0.0407083,-6.38346,34,0.00340331,10,-0.00025986,-2.19494,0.623516,0.0946247,-23.557,0.0407083,
2,0,0,1,0,66196.3,0.0395517,0.0392069,-6.35792,34,0.00328341,10,-0.000249274,-2.19668,0.61723,0.0955883,-23.6676,0.0392069,
2,0,0,1,0,66196.3,0.0380481,0.0377321,-6.32525,34,0.00316414,10,-0.000238665,-2.19892,0.605887,0.0973778,-23.9973,0.0377321,
2,0,0,1,0,66196.4,0.0365606,0.0362283,-6.28362,34,0.00304682,10,-0.000227644,-2.20179,0.619444,0.0952466,-23.3585,0.0362283,
2,0,0,1,0,66196.4,0.0350571,0.0347244,-6.2473,34,0.0029289,10,-0.000216934,-2.20431,0.650453,0.090706,-22.1056,0.0347244,
2,0,0,1,0,66196.4,0.0335535,0.0332544,-6.21168,34,0.00281163,10,-0.000206566,-2.20679,0.615155,0.0959108,-23.2347,0.0332544,
2,0,0,1,0,66196.4,0.0320643,0.0317564,-6.16923,34,0.00269629,10,-0.000195912,-2.20977,0.549741,0.107323,-25.8459,0.0317564,
2,0,0,1,0,66196.4,0.0305607,0.030229,-6.12601,34,0.00258047,10,-0.000185183,-2.21282,0.571599,0.103219,-24.6955,0.030229,
2,0,0,1,0,66196.5,0.0290643,0.0287526,-6.08426,34,0.00246603,10,-0.000174938,-2.21579,0.53484,0.110313,-26.2114,0.0287526,
2,0,0,1,0,66196.5,0.0275679,0.0272661,-6.05135,34,0.00235234,10,-0.000164996,-2.21815,0.505174,0.116791,-27.5683,0.0272661,
2,0,0,1,0,66196.5,0.0260644,0.0257694,-6.00426,34,0.00223881,10,-0.000154726,-2.22154,0.493526,0.119548,-28.009,0.0257694,
2,0,0,1,0,66196.5,0.0245751,0.0242516,-5.96033,34,0.00212725,10,-0.000144548,-2.22473,0.471435,0.12515,-29.138,0.0242516,
2,0,0,1,0,66196.5,0.0230716,0.0227328,-5.91696,34,0.00201538,10,-0.000134509,-2.2279,0.447572,0.131822,-30.4793,0.0227328,
2,0,0,1,0,66196.6,0.021568,0.0212573,-5.8778,34,0.00190428,10,-0.000124946,-2.23079,0.464342,0.127062,-29.1337,0.0212573,
2,0,0,1,0,66196.6,0.0200805,0.0197477,-5.8336,34,0.00179513,10,-0.0001152,-2.23406,0.440346,0.133986,-30.5086,0.0197477,
2,0,0,1,0,66196.6,0.018577,0.0182235,-5.79821,34,0.00168563,10,-0.000105663,-2.23671,0.44386,0.132925,-30.0576,0.0182235,
2,0,0,1,0,66196.6,0.0170735,0.0167343,-5.75423,34,0.00157696,10,-9.6293e-05,-2.24001,0.458872,0.128576,-28.8653,0.0167343,
2,0,0,1,0,66196.6,0.0155842,0.0152639,-5.71226,34,0.00147021,10,-8.71914e-05,-2.24319,0.50119,0.11772,-26.2432,0.0152639,
2,0,0,1,0,66196.6,0.0140806,0.0137802,-5.67901,34,0.00136303,10,-7.82579e-05,-2.24573,0.522706,0.112874,-24.9761,0.0137802,
2,0,0,1,0,66196.7,0.0125842,0.0122335,-5.63726,34,0.00125711,10,-6.89632e-05,-2.24893,0.501423,0.117665,-25.8594,0.0122335,
2,0,0,1,0,66196.7,0.0110878,0.0107634,-5.59017,34,0.00115201,10,-6.01692e-05,-2.25257,0.525464,0.112282,-24.5141,0.0107634,
2,0,0,1,0,66196.7,0.00958428,0.00926162,-5.55702,34,0.00104706,10,-5.1467e-05,-2.25516,0.599934,0.0983441,-21.3165,0.00926162,
2,0,0,1,0,66196.7,0.0080968,0.00778576,-5.5184,34,0.000943868,10,-4.2965e-05,-2.25819,0.60334,0.097789,-21.0771,0.00778576,
2,0,0,1,0,66196.7,0.00659326,0.0062414,-5.48616,34,0.000840182,10,-3.42413e-05,-2.26073,0.610229,0.096685,-20.7055,0.0062414,
2,0,0,1,0,66196.8,0.00508972,0.00476758,-5.45006,34,0.000737139,10,-2.59836e-05,-2.2636,0.655952,0.0899456,-19.1666,0.00476758,
2,0,0,1,0,66196.8,0.00360044,0.00326582,-5.42554,34,0.000635756,10,-1.77188e-05,-2.26556,1.1507,0.0512732,-10.8889,0.00326582,
2,0,0,1,0,66196.8,0.0020969,0.00170679,-5.43053,34,0.000533712,10,-9.2688e-06,-2.26516,0.985202,0.0598862,-12.6475,0.00170679,
2,0,0,1,0,66196.8,0.000593362,0.000209462,-5.3894,34,0.000431774,10,-1.12888e-06,-2.26846, , , ,0.000209462,
2,0,0,1,0,66196.8,0.000199195,-0.000151629,-5.3866,34,0.000405336,10,8.16764e-07,-2.26869, , , ,-0.000151629,