File: Figure_codes/Fig_3-5/rawdata_trumpetplot_data/after 10th/20221101_1-115_003_TrumpetPlot_ParaChange_from10_every3_11_CV_C01_34.csv
mode,ox/red,error,control changes,counter inc.,time/s,control/V,Ewe/V,<I>/mA,cycle number,(Q-Qo)/C,I Range,P/W,log(|I|),Tafel slope mV/dec,alpha_eff,dI/d(E-IR),E-IR/V,
2,1,0,1,0,68179,2.44065e-05,-0.00042076,9.46843,35,0.0000000E+000,10,-3.98394e-06,-2.02372, , , ,-0.00042076,
2,1,0,1,0,68179,0.00214129,0.00177216,10.5063,35,5.15333e-05,10,1.86188e-05,-1.97855, , , ,0.00177216,
2,1,0,1,0,68179,0.0045495,0.00420367,11.287,35,0.000117137,10,4.74468e-05,-1.94742,0.086933,0.678684,294.062,0.00420367,
2,1,0,1,0,68179,0.0069466,0.00655459,11.8796,35,0.000186745,10,7.78659e-05,-1.9252,0.113603,0.519353,239.073,0.00655459,
2,1,0,1,0,68179,0.0093437,0.00898823,12.4104,35,0.000259716,10,0.000111547,-1.90622,0.134139,0.439841,212.129,0.00898823,
2,1,0,1,0,68179,0.0117408,0.0114017,12.8987,35,0.000335696,10,0.000147068,-1.88945,0.155142,0.380296,190.663,0.0114017,
2,1,0,1,0,68179,0.0141462,0.0137834,13.3407,35,0.000414475,10,0.00018388,-1.87482,0.174019,0.339043,175.911,0.0137834,
2,1,0,1,0,68179,0.0165433,0.0162244,13.7376,35,0.000495749,10,0.000222884,-1.86209,0.196099,0.300869,160.948,0.0162244,
2,1,0,1,0,68179,0.0189404,0.0186019,14.109,35,0.000579337,10,0.000262454,-1.8505,0.211698,0.278699,153.24,0.0186019,
2,1,0,1,0,68179,0.0213486,0.0210376,14.4679,35,0.000665108,10,0.00030437,-1.83959,0.231078,0.255325,143.82,0.0210376,
2,1,0,1,0,68179,0.0237457,0.023414,14.7926,35,0.000752959,10,0.000346354,-1.82996,0.25659,0.229938,132.545,0.023414,
2,1,0,1,0,68179,0.0261428,0.0258116,15.0966,35,0.000842654,10,0.000389666,-1.82112,0.275932,0.213821,125.966,0.0258116,
2,1,0,1,0,68179,0.02854,0.0281901,15.4009,35,0.000934189,10,0.000434152,-1.81245,0.293692,0.200891,120.552,0.0281901,
2,1,0,1,0,68179,0.0309482,0.0306301,15.6834,35,0.0010275,10,0.000480383,-1.80456,0.316512,0.186407,113.952,0.0306301,
2,1,0,1,0,68179,0.0333453,0.0330011,15.9461,35,0.00112241,10,0.000526238,-1.79735,0.332358,0.177519,110.476,0.0330011,
2,1,0,1,0,68179,0.0357424,0.0353966,16.2096,35,0.00121889,10,0.000573763,-1.79023,0.349252,0.168933,106.794,0.0353966,
2,1,0,1,0,68179,0.0381478,0.0377963,16.4635,35,0.00131696,10,0.00062226,-1.78348,0.369653,0.159609,102.445,0.0377963,
2,1,0,1,0,68179.1,0.0405449,0.0401864,16.703,35,0.00141648,10,0.000671233,-1.77721,0.393116,0.150083,97.8068,0.0401864,
2,1,0,1,0,68179.1,0.042942,0.0426561,16.9394,35,0.00151743,10,0.00072257,-1.7711,0.391667,0.150638,99.5703,0.0426561,
2,1,0,1,0,68179.1,0.0453391,0.044988,17.1693,35,0.00161979,10,0.000772413,-1.76525,0.410729,0.143647,96.2327,0.044988,
2,1,0,1,0,68179.1,0.0477473,0.0473919,17.4017,35,0.00172356,10,0.000824699,-1.75941,0.429659,0.137318,93.2038,0.04739191,
2,1,0,1,0,68179.1,0.0501444,0.0498446,17.6179,35,0.00182866,10,0.00087816,-1.75404,0.441306,0.133694,91.9484,0.0498446,
2,1,0,1,0,68179.1,0.0525415,0.0521648,17.8458,35,0.00193506,10,0.00093092,-1.74847,0.440812,0.133844,93.2194,0.0521648,
2,1,0,1,0,68179.1,0.0549469,0.0546122,18.0795,35,0.00204286,10,0.000987359,-1.74281,0.458444,0.128696,90.7032,0.0546122,
2,1,0,1,0,68179.1,0.057344,0.0570151,18.2809,35,0.00215194,10,0.00104229,-1.738,0.470022,0.125526,89.5904,0.0570151,
2,1,0,1,0,68179.1,0.0597412,0.0593989,18.5076,35,0.00226232,10,0.00109933,-1.73265,0.461809,0.127758,92.2575,0.0593989,
2,1,0,1,0,68179.1,0.0621438,0.0617869,18.7306,35,0.00237404,10,0.00115731,-1.72745,0.475542,0.124069,90.6278,0.0617869,
2,1,0,1,0,68179.1,0.0645465,0.0642025,18.9381,35,0.00248706,10,0.00121587,-1.72266,0.475099,0.124185,91.8004,0.0642025,
2,1,0,1,0,68179.1,0.0669435,0.0665948,19.1606,35,0.00260135,10,0.001276,-1.71759,0.482069,0.122389,91.4997,0.0665948,
2,1,0,1,0,68179.1,0.0693407,0.0690221,19.381,35,0.00271701,10,0.00133772,-1.71262,0.479302,0.123096,93.0714,0.0690221,
2,1,0,1,0,68179.1,0.0717489,0.0713868,19.5994,35,0.00283397,10,0.00139914,-1.70776,0.491378,0.120071,91.8466,0.0713868,
2,1,0,1,0,68179.1,0.074146,0.0738278,19.8187,35,0.00295224,10,0.00146317,-1.70293,0.501784,0.11758,90.9425,0.07382784,
2,1,0,1,0,68179.1,0.0765431,0.0761395,20.0404,35,0.00307184,10,0.00152586,-1.69809,0.503158,0.117259,91.7066,0.0761395,
2,1,0,1,0,68179.2,0.0789485,0.0785976,20.2643,35,0.00319275,10,0.00159272,-1.69327,0.509582,0.115781,91.5426,0.0785976,
2,1,0,1,0,68179.2,0.0813456,0.080993,20.4808,35,0.003315,10,0.0016588,-1.68865,0.505015,0.116828,93.3671,0.080993,
2,1,0,1,0,68179.2,0.0837427,0.0833853,20.7042,35,0.00343858,10,0.00172643,-1.68394,0.502052,0.117518,94.9677,0.0833853,
2,1,0,1,0,68179.2,0.0861398,0.085768,20.9309,35,0.0035635,10,0.0017952,-1.67921,0.513853,0.114819,93.7655,0.085768,
2,1,0,1,0,68179.2,0.088548,0.0881942,21.1536,35,0.00368979,10,0.00186563,-1.67462,0.512407,0.115143,95.0811,0.0881942,
2,1,0,1,0,68179.2,0.0909451,0.0906183,21.3865,35,0.00381742,10,0.00193801,-1.66986,0.516886,0.114145,95.2768,0.0906183,
2,1,0,1,0,68179.2,0.0933422,0.0930074,21.6197,35,0.00394646,10,0.00201079,-1.66515,0.528285,0.111682,94.1621,0.0930074,
2,1,0,1,0,68179.2,0.0957476,0.0953785,21.839,35,0.00407685,10,0.00208297,-1.66077,0.546727,0.107915,91.9432,0.0953785,
2,1,0,1,0,68179.2,0.0981447,0.0978047,22.0527,35,0.00420855,10,0.00215686,-1.65654,0.548687,0.107529,92.5428,0.0978047,
2,1,0,1,0,68179.2,0.100542,0.100233,22.2816,35,0.00434157,10,0.00223335,-1.65205,0.557394,0.10585,92.0138,0.100233,
2,1,0,1,0,68179.2,0.102939,0.10261,22.4844,35,0.00447589,10,0.00230714,-1.64812,0.586138,0.100659,88.3285,0.10261,
2,1,0,1,0,68179.2,0.105347,0.104992,22.7108,35,0.00461152,10,0.00238445,-1.64377,0.570827,0.103359,91.6084,0.104992,
2,1,0,1,0,68179.2,0.107744,0.107327,22.9227,35,0.00474839,10,0.00246023,-1.63973,0.5563,0.106058,94.9506,0.107327,
2,1,0,1,0,68179.2,0.110141,0.109767,23.1715,35,0.00488668,10,0.00254347,-1.63505,0.529137,0.111502,100.805,0.109767,
2,1,0,1,0,68179.2,0.11255,0.112191,23.4121,35,0.00502643,10,0.00262663,-1.63056,0.529955,0.11133,101.708,0.112191,
2,1,0,1,0,68179.2,0.114947,0.114578,23.6522,35,0.00516764,10,0.00271003,-1.62613,0.529759,0.111371,102.829,0.114578,
2,1,0,1,0,68179.2,0.117344,0.116992,23.903,35,0.00531033,10,0.00279645,-1.62155,0.524483,0.112492,104.94,0.116992,
2,1,0,1,0,68179.3,0.119744,0.119392,24.1509,35,0.00545453,10,0.00288344,-1.61707,0.530329,0.111252,104.878,0.119392,
2,1,0,1,0,68179.3,0.122146,0.121788,24.4013,35,0.00560024,10,0.00297178,-1.61259,0.519856,0.113493,108.144,0.121788,
2,1,0,1,0,68179.3,0.124543,0.124252,24.6772,35,0.00574751,10,0.00306619,-1.6077,0.511377,0.115375,111.098,0.124252,
2,1,0,1,0,68179.3,0.126941,0.126563,24.943,35,0.00589641,10,0.00315686,-1.60305,0.503263,0.117235,114.175,0.126563,
2,1,0,1,0,68179.3,0.129349,0.12902,25.2284,35,0.00604693,10,0.00325496,-1.59811,0.481083,0.12264,120.8,0.12902,
2,1,0,1,0,68179.3,0.131746,0.131426,25.5199,35,0.00619919,10,0.00335398,-1.59312,0.487295,0.121077,120.539,0.131426,
2,1,0,1,0,68179.3,0.134143,0.133807,25.8045,35,0.00635322,10,0.00345281,-1.5883,0.488134,0.120868,121.74,0.133807,
2,1,0,1,0,68179.3,0.13654,0.136231,26.0935,35,0.00650892,10,0.00355473,-1.58347,0.495866,0.118984,121.196,0.136231,
2,1,0,1,0,68179.3,0.138945,0.138576,26.3947,35,0.00666644,10,0.00365768,-1.57848,0.490011,0.120406,124.001,0.138576,
2,1,0,1,0,68179.3,0.141343,0.140998,26.6804,35,0.00682569,10,0.00376189,-1.57381,0.510021,0.115682,120.442,0.140998,
2,1,0,1,0,68179.3,0.14374,0.143417,26.9699,35,0.00698671,10,0.00386794,-1.56912,0.519514,0.113568,119.517,0.143417,
2,1,0,1,0,68179.3,0.146148,0.14581,27.2523,35,0.00714943,10,0.00397367,-1.5646,0.537472,0.109773,116.755,0.14581,
2,1,0,1,0,68179.3,0.148545,0.148209,27.5353,35,0.00731385,10,0.00408098,-1.56011,0.564794,0.104463,112.231,0.148209,
2,1,0,1,0,68179.3,0.150942,0.150607,27.8065,35,0.00747991,10,0.00418784,-1.55585,0.579628,0.101789,110.434,0.150607,
2,1,0,1,0,68179.3,0.153345,0.152981,28.0649,35,0.00764753,10,0.0042934,-1.55184,0.599634,0.0983934,107.751,0.152981,
2,1,0,1,0,68179.3,0.155747,0.155416,28.3242,35,0.00781672,10,0.00440201,-1.54784,0.632558,0.0932721,103.017,0.155416,
2,1,0,1,0,68179.3,0.158144,0.157799,28.5639,35,0.00798742,10,0.00450737,-1.54418,0.686271,0.0859719,95.7517,0.157799,
2,1,0,1,0,68179.4,0.160542,0.16015,28.7715,35,0.00815943,10,0.00460776,-1.54104,0.754299,0.0782183,87.8297,0.16015,
2,1,0,1,0,68179.4,0.162947,0.162617,28.9906,35,0.00833275,10,0.00471435,-1.53774,0.810768,0.0727705,82.2469,0.162617,
2,1,0,1,0,68179.4,0.165344,0.164992,29.1697,35,0.00850726,10,0.00481277,-1.53507,0.958316,0.0615663,70.027,0.164992,
2,1,0,1,0,68179.4,0.167741,0.167449,29.3196,35,0.00868277,10,0.00490954,-1.53284,1.14464,0.0515447,58.9377,0.167449,
2,1,0,1,0,68179.4,0.170149,0.169811,29.4532,35,0.00885911,10,0.00500147,-1.53087,1.50801,0.0391244,44.9177,0.169811,
2,1,0,1,0,68179.4,0.172547,0.172234,29.5412,35,0.00903612,10,0.00508798,-1.52957,2.23969,0.0263429,30.3338,0.172234,
2,1,0,1,0,68179.4,0.174944,0.174605,29.591,35,0.00921355,10,0.00516672,-1.52884,5.35359,0.0110207,12.7129,0.174605,
2,1,0,1,0,68179.4,0.177341,0.177017,29.602,35,0.00939114,10,0.00524005,-1.52868,-24.0679,-0.0024514,-2.82924,0.177017,
2,1,0,1,0,68179.4,0.179746,0.179431,29.5828,35,0.00956871,10,0.00530806,-1.52896,-3.52061,-0.0167584,-19.3181,0.179431,
2,1,0,1,0,68179.4,0.182143,0.181849,29.5139,35,0.00974602,10,0.00536708,-1.52997,-1.74896,-0.0337344,-38.7958,0.181849,
2,1,0,1,0,68179.4,0.18454,0.184181,29.3924,35,0.00992274,10,0.00541353,-1.53176,-1.23898,-0.0476199,-54.5749,0.184181,
2,1,0,1,0,68179.4,0.186949,0.186569,29.2475,35,0.0100986,10,0.00545668,-1.53391,-0.939722,-0.0627845,-71.5738,0.1865692,
2,1,0,1,0,68179.4,0.189346,0.189016,29.0535,35,0.0102736,10,0.00549157,-1.5368,-0.753729,-0.0782775,-88.6204,0.189016,
2,1,0,1,0,68179.4,0.191743,0.191443,28.8098,35,0.0104472,10,0.00551543,-1.54046,-0.635265,-0.0928747,-104.341,0.191443,
2,1,0,1,0,68179.4,0.19414,0.193801,28.536,35,0.0106192,10,0.00553032,-1.54461,-0.543256,-0.108604,-120.845,0.193801,
2,1,0,1,0,68179.4,0.196548,0.196191,28.2469,35,0.0107895,10,0.00554179,-1.54903,-0.480063,-0.122901,-135.235,0.196191,
2,1,0,1,0,68179.5,0.198945,0.19862,27.8898,35,0.0109579,10,0.00553945,-1.55456,-0.428297,-0.137755,-149.798,0.19862,
2,1,0,1,0,68179.5,0.201342,0.201007,27.5166,35,0.0111241,10,0.00553101,-1.56041,-0.395893,-0.14903,-159.909,0.201007,
2,1,0,1,0,68179.5,0.203748,0.203382,27.1218,35,0.011288,10,0.00551609,-1.56668,-0.369876,-0.159513,-168.653,0.203382,
2,1,0,1,0,68179.5,0.206145,0.205784,26.7021,35,0.0114494,10,0.00549487,-1.57345,-0.339736,-0.173664,-180.837,0.205784,
2,1,0,1,0,68179.5,0.208542,0.208225,26.2577,35,0.0116083,10,0.00546751,-1.58074,-0.330768,-0.178373,-182.721,0.208225,
2,1,0,1,0,68179.5,0.210939,0.210611,25.803,35,0.0117644,10,0.0054344,-1.58833,-0.314922,-0.187348,-188.635,0.210611,
2,1,0,1,0,68179.5,0.213347,0.21304,25.3578,35,0.0119179,10,0.00540223,-1.59589,-0.300896,-0.196081,-193.848,0.21304,
2,1,0,1,0,68179.5,0.215744,0.215402,24.8831,35,0.0120685,10,0.00535987,-1.6041,-0.29385,-0.200783,-194.955,0.215402,
2,1,0,1,0,68179.5,0.218141,0.217846,24.4089,35,0.0122163,10,0.00531738,-1.61245,-0.292506,-0.201705,-192.226,0.217846,
2,1,0,1,0,68179.5,0.220547,0.220285,23.9628,35,0.0123614,10,0.00527864,-1.62046,-0.288245,-0.204687,-191.294,0.220285,
2,1,0,1,0,68179.5,0.222944,0.222632,23.4958,35,0.0125038,10,0.00523091,-1.62901,-0.284044,-0.207715,-190.529,0.222632,
2,1,0,1,0,68179.5,0.225341,0.225031,23.0504,35,0.0126433,10,0.00518707,-1.63732,-0.29024,-0.20328,-182.98,0.225031,
2,1,0,1,0,68179.5,0.227744,0.22743,22.6226,35,0.0127803,10,0.00514505,-1.64546,-0.293408,-0.201085,-177.524,0.22743,
2,1,0,1,0,68179.5,0.230146,0.229821,22.1976,35,0.0129147,10,0.00510147,-1.65369,-0.297901,-0.198052,-171.593,0.229821,
2,1,0,1,0,68179.5,0.232543,0.232237,21.7812,35,0.0130466,10,0.00505839,-1.66192,-0.300981,-0.196026,-166.727,0.232237,
2,1,0,1,0,68179.5,0.234941,0.234651,21.3933,35,0.0131761,10,0.00501997,-1.66972,-0.308564,-0.191208,-159.718,0.234651,
2,1,0,1,0,68179.5,0.237349,0.237031,21.0233,35,0.0133033,10,0.00498317,-1.6773,-0.313988,-0.187905,-154.172,0.237031,
2,1,0,1,0,68179.6,0.239746,0.239454,20.6517,35,0.0134283,10,0.00494512,-1.68504,-0.319278,-0.184792,-149.049,0.239454,
2,1,0,1,0,68179.6,0.242143,0.241874,20.2986,35,0.0135511,10,0.0049097,-1.69253,-0.330721,-0.178398,-141.484,0.241874,
2,1,0,1,0,68179.6,0.244548,0.244216,19.9832,35,0.0136719,10,0.00488022,-1.69933,-0.339491,-0.173789,-135.568,0.2442161,
2,1,0,1,0,68179.6,0.246946,0.246622,19.6623,35,0.0137908,10,0.00484916,-1.70637,-0.346897,-0.170079,-130.541,0.246622,
2,1,0,1,0,68179.6,0.249343,0.249004,19.352,35,0.0139078,10,0.00481873,-1.71327,-0.360667,-0.163586,-123.686,0.249004,
2,1,0,1,0,68179.6,0.25174,0.251405,19.0686,35,0.014023,10,0.00479392,-1.71968,-0.372721,-0.158295,-117.827,0.251405,
2,1,0,1,0,68179.6,0.254148,0.253828,18.7995,35,0.0141366,10,0.00477184,-1.72585,-0.388044,-0.152045,-111.558,0.2538276,
2,1,0,1,0,68179.6,0.256545,0.256188,18.5311,35,0.0142485,10,0.00474746,-1.7321,-0.393576,-0.149908,-108.504,0.256188,
2,1,0,1,0,68179.6,0.258942,0.258666,18.2845,35,0.0143589,10,0.00472958,-1.73792,-0.418916,-0.14084,-100.544,0.258666,
2,1,0,1,0,68179.6,0.261348,0.261034,18.0539,35,0.0144679,10,0.00471269,-1.74343,-0.426631,-0.138293,-97.4132,0.261034,
2,1,0,1,0,68179.6,0.263745,0.263424,17.8199,35,0.0145755,10,0.0046942,-1.74909,-0.444227,-0.132815,-92.4044,0.263424,
2,1,0,1,0,68179.6,0.266142,0.265889,17.5979,35,0.0146817,10,0.00467909,-1.75454,-0.469676,-0.125619,-86.3539,0.265889,
2,1,0,1,0,68179.6,0.268539,0.268212,17.3922,35,0.0147867,10,0.0046648,-1.75964,-0.469889,-0.125562,-85.2643,0.268212,
2,1,0,1,0,68179.6,0.270947,0.270675,17.2019,35,0.0148904,10,0.00465613,-1.76442,-0.486734,-0.121216,-81.3556,0.270675,
2,1,0,1,0,68179.6,0.273344,0.273014,17.0034,35,0.014993,10,0.00464215,-1.76947,-0.501311,-0.117691,-78.1445,0.2730135,
2,1,0,1,0,68179.6,0.275741,0.275403,16.8258,35,0.0150945,10,0.00463388,-1.77402,-0.520777,-0.113292,-74.4266,0.275403,
2,1,0,1,0,68179.6,0.278149,0.277856,16.6567,35,0.0151949,10,0.00462816,-1.77841,-0.551776,-0.106927,-69.4836,0.277856,
2,1,0,1,0,68179.7,0.280547,0.280207,16.4744,35,0.0152943,10,0.00461626,-1.78319,-0.543136,-0.108628,-69.9139,0.280207,
2,1,0,1,0,68179.7,0.282944,0.282585,16.3233,35,0.0153927,10,0.00461271,-1.78719,-0.593098,-0.0994776,-63.422,0.282585,
2,1,0,1,0,68179.7,0.285344,0.285046,16.1751,35,0.0154901,10,0.00461064,-1.79115,-0.594207,-0.0992919,-62.6607,0.285046,
2,1,0,1,0,68179.7,0.287746,0.287446,16.015,35,0.0155867,10,0.00460343,-1.79547,-0.603567,-0.0977522,-61.1397,0.287446,
2,1,0,1,0,68179.7,0.290143,0.289822,15.8737,35,0.0156824,10,0.00460054,-1.79932,-0.626243,-0.0942126,-58.3895,0.289822,
2,1,0,1,0,68179.7,0.29254,0.292221,15.7431,35,0.0157772,10,0.00460047,-1.80291,-0.655568,-0.0899983,-55.294,0.292221,
2,1,0,1,0,68179.7,0.294949,0.294611,15.6141,35,0.0158713,10,0.00460009,-1.80648,-0.661209,-0.0892305,-54.3664,0.294611,
2,1,0,1,0,68179.7,0.297346,0.297052,15.4829,35,0.0159645,10,0.00459922,-1.81015,-0.727826,-0.0810633,-49.092,0.297052,
2,1,0,1,0,68179.7,0.299621,0.299272,15.3615,35,0.0160524,10,0.00459727,-1.81357,-0.0906569,-0.650805,-379.687,0.299272,
2,1,0,1,0,68179.7,0.299962,0.299727,15.2226,35,0.0160709,10,0.00456263,-1.81751,0.013947,4.23029,2199.61,0.299727,
2,1,0,1,0,68179.7,0.297903,0.297643,12.2767,35,0.0161396,10,0.00365408,-1.91092,0.0250721,2.35322,1109.77,0.297643,
2,1,0,1,0,68179.7,0.295506,0.295228,9.97857,35,0.0162059,10,0.00294595,-2.00093,0.0267716,2.20383,872.965,0.295228,
2,1,0,1,0,68179.7,0.293101,0.292822,8.13319,35,0.0162599,10,0.00238158,-2.08974,0.0262566,2.24705,717.601,0.292822,
2,1,0,1,0,68179.7,0.290704,0.2904,6.57813,35,0.0163038,10,0.00191029,-2.1819,0.0246948,2.38916,611.452,0.2904,
2,1,0,1,0,68179.7,0.288307,0.288014,5.21384,35,0.0163389,10,0.00150166,-2.28284,0.0222072,2.6568,535.969,0.288014,
2,1,0,1,0,68179.7,0.28591,0.28561,4.0175,35,0.0163664,10,0.00114744,-2.39604,0.0193183,3.0541,469.887,0.28561,
2,1,0,1,0,68179.7,0.283501,0.283206,2.94649,35,0.0163872,10,0.000834465,-2.53069,0.0153635,3.84026,424.831,0.283206,
2,1,0,1,0,68179.8,0.281104,0.280813,1.99273,35,0.0164018,10,0.000559583,-2.70055,0.0108746,5.42548,382.698,0.2808128,
2,1,0,1,0,68179.8,0.278707,0.278406,1.12497,35,0.0164111,10,0.000313197,-2.94886,0.00473113,12.4706,343.156,0.2784057,
2,1,0,1,0,68179.8,0.276302,0.276013,0.342542,35,0.0164154,10,9.45462e-05,-3.46529,0.0168384,3.5039,311.484,0.276013,
2,0,0,1,0,68179.8,0.273905,0.273629,-0.360803,35,0.0164152,10,-9.8726e-05,-3.44273,-0.0205334,-2.87337,283.171,0.273629,
2,0,0,1,0,68179.8,0.271508,0.271181,-1.0168,35,0.016411,10,-0.000275737,-2.99276,-0.0056814,-10.3848,261.96,0.271181,
2,0,0,1,0,68179.8,0.269105,0.268774,-1.6222,35,0.016403,10,-0.000436004,-2.7899,-0.0139039,-4.24343,238.174,0.268774,
2,0,0,1,0,68179.8,0.266702,0.266426,-2.16367,35,0.0163916,10,-0.000576459,-2.66481,-0.0214247,-2.75383,220.922,0.2664263,
2,0,0,1,0,68179.8,0.264305,0.264036,-2.67599,35,0.016377,10,-0.000706559,-2.57251,-0.0290073,-2.03397,205.074,0.264036,
2,0,0,1,0,68179.8,0.261908,0.261626,-3.15592,35,0.0163594,10,-0.000825669,-2.50087,-0.0375202,-1.57249,189.01,0.261626,
2,0,0,1,0,68179.8,0.2595,0.259184,-3.5857,35,0.0163392,10,-0.000929354,-2.44543,-0.0466335,-1.26518,174.493,0.2591837,
2,0,0,1,0,68179.8,0.257103,0.256777,-3.99728,35,0.0163164,10,-0.00102641,-2.39824,-0.0552535,-1.06781,164.629,0.2567766,
2,0,0,1,0,68179.8,0.254706,0.254383,-4.38289,35,0.0162912,10,-0.00111493,-2.35824,-0.0649286,-0.908691,153.939,0.254383,
2,0,0,1,0,68179.8,0.2523,0.251988,-4.74045,35,0.0162638,10,-0.00119453,-2.32418,-0.0750786,-0.785843,144.358,0.251988,
2,0,0,1,0,68179.8,0.249903,0.249593,-5.06797,35,0.0162343,10,-0.00126493,-2.29517,-0.0859872,-0.686148,135.054,0.249593,
2,0,0,1,0,68179.8,0.247506,0.247178,-5.38507,35,0.0162028,10,-0.00133107,-2.26881,-0.096877,-0.60902,127.502,0.247178,
2,0,0,1,0,68179.8,0.245109,0.244809,-5.68902,35,0.0161696,10,-0.00139272,-2.24496,-0.109066,-0.540958,119.603,0.244809,
2,0,0,1,0,68179.8,0.242701,0.242418,-5.96803,35,0.0161346,10,-0.00144675,-2.22417,-0.11803,-0.499871,116.084,0.242418,
2,0,0,1,0,68179.9,0.240304,0.239955,-6.24332,35,0.0160979,10,-0.00149812,-2.20458,-0.133753,-0.441112,107.069,0.239955,
2,0,0,1,0,68179.9,0.237906,0.23758,-6.49671,35,0.0160597,10,-0.00154349,-2.18731,-0.14472,-0.407684,103.003,0.23758,
2,0,0,1,0,68179.9,0.235501,0.23521,-6.72868,35,0.01602,10,-0.00158265,-2.17207,-0.157316,-0.375041,98.3753,0.23521,
2,0,0,1,0,68179.9,0.233104,0.232802,-6.96518,35,0.0159789,10,-0.00162151,-2.15707,-0.169549,-0.347983,94.3783,0.232802,
2,0,0,1,0,68179.9,0.230707,0.230366,-7.18702,35,0.0159364,10,-0.00165564,-2.14345,-0.182519,-0.323254,90.429,0.230366,
2,0,0,1,0,68179.9,0.22831,0.227987,-7.38344,35,0.0158926,10,-0.00168333,-2.13174,-0.199215,-0.296163,85.3785,0.227987,
2,0,0,1,0,68179.9,0.225902,0.22563,-7.59454,35,0.0158477,10,-0.00171356,-2.1195,-0.212403,-0.277774,82.2093,0.22563,
2,0,0,1,0,68179.9,0.223504,0.223179,-7.79683,35,0.0158015,10,-0.00174009,-2.10808,-0.228604,-0.258088,78.3333,0.223179,
2,0,0,1,0,68179.9,0.221107,0.220816,-7.97287,35,0.0157541,10,-0.00176054,-2.09839,-0.240185,-0.245644,76.4344,0.220816,
2,0,0,1,0,68179.9,0.218699,0.218362,-8.1647,35,0.0157057,10,-0.00178286,-2.08806,-0.251703,-0.234404,74.5365,0.2183623,
2,0,0,1,0,68179.9,0.216302,0.215986,-8.32912,35,0.0156562,10,-0.00179897,-2.0794,-0.271638,-0.217201,70.5696,0.215986,
2,0,0,1,0,68179.9,0.213905,0.213577,-8.50141,35,0.0156057,10,-0.0018157,-2.07051,-0.28288,-0.208569,69.1823,0.213577,
2,0,0,1,0,68179.9,0.211505,0.211209,-8.65742,35,0.0155542,10,-0.00182852,-2.06261,-0.29731,-0.198446,67.0263,0.211209,
2,0,0,1,0,68179.9,0.209102,0.208792,-8.81996,35,0.0155018,10,-0.00184154,-2.05453,-0.300349,-0.196438,67.6255,0.208792,
2,0,0,1,0,68179.9,0.206705,0.206422,-8.98677,35,0.0154483,10,-0.00185507,-2.0464,-0.324849,-0.181623,63.5447,0.206422,
2,0,0,1,0,68179.9,0.204308,0.203955,-9.12914,35,0.015394,10,-0.00186193,-2.03957,-0.337977,-0.174568,62.1796,0.203955,
2,0,0,1,0,68179.9,0.2019,0.20156,-9.27695,35,0.0153388,10,-0.00186986,-2.03259,-0.34384,-0.171592,62.1095,0.20156,
2,0,0,1,0,68180,0.199503,0.199195,-9.42701,35,0.0152826,10,-0.00187782,-2.02563,-0.367346,-0.160611,59.0087,0.199195,
2,0,0,1,0,68180,0.197106,0.196762,-9.55977,35,0.0152257,10,-0.001881,-2.01955,-0.377883,-0.156133,58.2823,0.196762,
2,0,0,1,0,68180,0.194709,0.194337,-9.69369,35,0.0151679,10,-0.00188384,-2.01351,-0.382752,-0.154147,58.3898,0.194337,
2,0,0,1,0,68180,0.192303,0.192012,-9.84729,35,0.0151092,10,-0.0018908,-2.00668,-0.389177,-0.151602,58.1611,0.192012,
2,0,0,1,0,68180,0.189906,0.189614,-9.97584,35,0.0150497,10,-0.00189155,-2.00105,-0.420158,-0.140424,54.6607,0.189614,
2,0,0,1,0,68180,0.187509,0.187206,-10.1011,35,0.0149895,10,-0.00189098,-1.99563,-0.420291,-0.140379,55.3873,0.187206,
2,0,0,1,0,68180,0.185101,0.18477,-10.2505,35,0.0149284,10,-0.00189398,-1.98926,-0.411074,-0.143527,57.371,0.1847697,
2,0,0,1,0,68180,0.182704,0.182357,-10.377,35,0.0148665,10,-0.00189232,-1.98393,-0.441472,-0.133644,54.1238,0.182357,
2,0,0,1,0,68180,0.180307,0.179989,-10.5078,35,0.0148039,10,-0.00189129,-1.97849,-0.427897,-0.137884,56.5698,0.179989,
2,0,0,1,0,68180,0.177904,0.177572,-10.6382,35,0.0147404,10,-0.00188905,-1.97313,-0.427537,-0.138,57.3347,0.177572,
2,0,0,1,0,68180,0.175501,0.17519,-10.7848,35,0.0146761,10,-0.00188939,-1.96719,-0.432063,-0.136554,57.4421,0.17519,
2,0,0,1,0,68180,0.173104,0.172761,-10.9203,35,0.014611,10,-0.00188659,-1.96177,-0.453702,-0.130041,55.4088,0.172761,
2,0,0,1,0,68180,0.170707,0.170429,-11.0485,35,0.0145451,10,-0.00188298,-1.9567,-0.432613,-0.13638,58.8851,0.170429,
2,0,0,1,0,68180,0.168302,0.167982,-11.202,35,0.0144783,10,-0.00188174,-1.9507,-0.430151,-0.137161,59.9283,0.167982,
2,0,0,1,0,68180,0.165905,0.165601,-11.3518,35,0.0144106,10,-0.00187986,-1.94494,-0.433956,-0.135958,60.1787,0.165601,
2,0,0,1,0,68180,0.163507,0.163175,-11.4874,35,0.0143421,10,-0.00187446,-1.93978,-0.414261,-0.142422,63.9365,0.163175,
2,0,0,1,0,68180.1,0.161099,0.160794,-11.6596,35,0.0142727,10,-0.00187479,-1.93332,-0.39288,-0.150173,68.2786,0.1607939,
2,0,0,1,0,68180.1,0.158702,0.158394,-11.806,35,0.0142023,10,-0.00187001,-1.9279,-0.390211,-0.1512,69.6719,0.158394,
2,0,0,1,0,68180.1,0.156305,0.15597,-11.9711,35,0.014131,10,-0.00186714,-1.92186,-0.373879,-0.157805,73.8473,0.15597,
2,0,0,1,0,68180.1,0.153908,0.153582,-12.1545,35,0.0140586,10,-0.00186671,-1.91526,-0.362972,-0.162547,77.1785,0.153582,
2,0,0,1,0,68180.1,0.151503,0.151204,-12.3527,35,0.013985,10,-0.00186778,-1.90824,-0.342823,-0.1721,83.0106,0.151204,
2,0,0,1,0,68180.1,0.149105,0.14881,-12.5533,35,0.0139102,10,-0.00186806,-1.90124,-0.339426,-0.173823,85.2408,0.14881,
2,0,0,1,0,68180.1,0.146708,0.14639,-12.7644,35,0.0138343,10,-0.00186859,-1.894,-0.308743,-0.191098,95.4149,0.14639,
2,0,0,1,0,68180.1,0.1443,0.143986,-13.0124,35,0.0137569,10,-0.00187361,-1.88564,-0.286918,-0.205634,104.54,0.143986,
2,0,0,1,0,68180.1,0.141903,0.141568,-13.2792,35,0.013678,10,-0.00187991,-1.87683,-0.269766,-0.218708,113.418,0.141568,
2,0,0,1,0,68180.1,0.139506,0.139196,-13.5434,35,0.0135975,10,-0.00188518,-1.86827,-0.245791,-0.240041,127.313,0.139196,
2,0,0,1,0,68180.1,0.137109,0.136792,-13.8717,35,0.0135153,10,-0.00189753,-1.85787,-0.229174,-0.257447,139.662,0.136792,
2,0,0,1,0,68180.1,0.134701,0.134386,-14.2283,35,0.0134309,10,-0.00191207,-1.84685,-0.215833,-0.273359,151.898,0.134386,
2,0,0,1,0,68180.1,0.132303,0.131974,-14.5968,35,0.0133444,10,-0.0019264,-1.83574,-0.20751,-0.284324,162.311,0.131974,
2,0,0,1,0,68180.1,0.129906,0.129596,-15.0062,35,0.0132556,10,-0.00194474,-1.82373,-0.19374,-0.304531,178.624,0.129596,
2,0,0,1,0,68180.1,0.127501,0.127201,-15.4653,35,0.0131641,10,-0.00196721,-1.81064,-0.187227,-0.315126,190.212,0.1272013,
2,0,0,1,0,68180.1,0.125104,0.124767,-15.9247,35,0.0130699,10,-0.00198687,-1.79793,-0.183739,-0.321108,199.745,0.124767,
2,0,0,1,0,68180.1,0.122707,0.122415,-16.4149,35,0.0129729,10,-0.00200943,-1.78476,-0.177489,-0.332414,213.222,0.122415,
2,0,0,1,0,68180.2,0.12031,0.119966,-16.9292,35,0.0128728,10,-0.00203093,-1.77136,-0.177681,-0.332056,219.535,0.119966,
2,0,0,1,0,68180.2,0.117901,0.117594,-17.4712,35,0.0127695,10,-0.00205451,-1.75768,-0.180743,-0.32643,222.537,0.117594,
2,0,0,1,0,68180.2,0.115504,0.115212,-18.0131,35,0.012663,10,-0.00207533,-1.74441,-0.184023,-0.320612,225.341,0.115212,
2,0,0,1,0,68180.2,0.113107,0.11277,-18.5569,35,0.0125533,10,-0.00209267,-1.73149,-0.187852,-0.314077,227.355,0.11277,
2,0,0,1,0,68180.2,0.110702,0.110399,-19.1171,35,0.0124402,10,-0.00211051,-1.71858,-0.195835,-0.301274,224.329,0.110399,
2,0,0,1,0,68180.2,0.108305,0.108013,-19.6161,35,0.0123239,10,-0.0021188,-1.70739,-0.200895,-0.293686,225.102,0.108013,
2,0,0,1,0,68180.2,0.105908,0.105643,-20.1711,35,0.0122045,10,-0.00213094,-1.69527,-0.199841,-0.295235,232.492,0.105643,
2,0,0,1,0,68180.2,0.103505,0.103233,-20.7386,35,0.0120817,10,-0.0021409,-1.68322,-0.213612,-0.276202,223.152,0.103233,
2,0,0,1,0,68180.2,0.101102,0.100848,-21.2616,35,0.0119556,10,-0.00214419,-1.6724,-0.224654,-0.262626,217.608,0.100848,
2,0,0,1,0,68180.2,0.0987052,0.0984462,-21.7676,35,0.0118265,10,-0.00214294,-1.66219,-0.238352,-0.247533,210.27,0.0984462,
2,0,0,1,0,68180.2,0.0963081,0.0959893,-22.2776,35,0.0116943,10,-0.00213841,-1.65213,-0.248845,-0.237096,205.88,0.0959893,
2,0,0,1,0,68180.2,0.0938999,0.0936235,-22.7688,35,0.0115591,10,-0.0021317,-1.64266,-0.264818,-0.222794,197.698,0.0936235,
2,0,0,1,0,68180.2,0.0915028,0.0912047,-23.2269,35,0.0114211,10,-0.00211841,-1.63401,-0.284136,-0.207647,188.008,0.0912047,
2,0,0,1,0,68180.2,0.0891057,0.0887912,-23.6654,35,0.0112804,10,-0.00210128,-1.62589,-0.300846,-0.196114,180.996,0.0887912,
2,0,0,1,0,68180.2,0.0867002,0.0864128,-24.0912,35,0.0111371,10,-0.00208179,-1.61814,-0.325088,-0.181489,170.432,0.0864128,
2,0,0,1,0,68180.2,0.0843031,0.084012,-24.4808,35,0.0109913,10,-0.00205668,-1.61117,-0.351924,-0.16765,160.018,0.084012,
2,0,0,1,0,68180.2,0.081906,0.0816536,-24.843,35,0.0108432,10,-0.00202852,-1.6048,-0.379231,-0.155578,150.794,0.0816536,
2,0,0,1,0,68180.3,0.0795089,0.0792497,-25.1986,35,0.0106931,10,-0.00199698,-1.59862,-0.412094,-0.143171,140.659,0.0792497,
2,0,0,1,0,68180.3,0.0771007,0.0768468,-25.5309,35,0.0105408,10,-0.00196197,-1.59293,-0.460604,-0.128093,127.443,0.0768468,
2,0,0,1,0,68180.3,0.0747036,0.0743877,-25.8197,35,0.0103867,10,-0.00192067,-1.58805,-0.50722,-0.11632,117.163,0.0743877,
2,0,0,1,0,68180.3,0.0723065,0.0720114,-26.0973,35,0.0102309,10,-0.0018793,-1.5834,-0.550595,-0.107157,109.033,0.0720114,
2,0,0,1,0,68180.3,0.0699011,0.0696074,-26.3672,35,0.0100735,10,-0.00183535,-1.57894,-0.619673,-0.0952116,97.8056,0.0696074,
2,0,0,1,0,68180.3,0.067504,0.0671971,-26.5622,35,0.00991473,10,-0.0017849,-1.57574,-0.702285,-0.0840115,87.0481,0.0671971,
2,0,0,1,0,68180.3,0.0651069,0.0648038,-26.7692,35,0.00975472,10,-0.00173475,-1.57236,-0.789689,-0.0747129,77.9854,0.0648038,
2,0,0,1,0,68180.3,0.0627098,0.0624274,-26.9311,35,0.00959357,10,-0.00168124,-1.56975,-0.932967,-0.0632391,66.418,0.0624274,
2,0,0,1,0,68180.3,0.0603016,0.0600415,-27.0786,35,0.00943147,10,-0.00162584,-1.56737,-1.10661,-0.0533161,56.3226,0.0600415,
2,0,0,1,0,68180.3,0.0579045,0.0575782,-27.2084,35,0.00926859,10,-0.00156661,-1.5653,-1.30723,-0.0451337,47.901,0.0575782,
2,0,0,1,0,68180.3,0.0555074,0.0552368,-27.3122,35,0.00910501,10,-0.00150864,-1.56364,-1.43596,-0.0410876,43.7847,0.0552368,
2,0,0,1,0,68180.3,0.0530992,0.0527883,-27.4228,35,0.0089408,10,-0.0014476,-1.56189,-1.76816,-0.0333679,35.6663,0.0527883,
2,0,0,1,0,68180.3,0.0507021,0.050395,-27.4871,35,0.00877607,10,-0.00138521,-1.56087,-2.19882,-0.0268325,28.7755,0.050395,
2,0,0,1,0,68180.3,0.048305,0.0480016,-27.5522,35,0.00861097,10,-0.00132255,-1.55984,-2.64176,-0.0223336,24.003,0.0480016,
2,0,0,1,0,68180.3,0.0459051,0.045603,-27.6005,35,0.00844552,10,-0.00125867,-1.55908,-3.79873,-0.0155315,16.7192,0.045603,
2,0,0,1,0,68180.3,0.0435024,0.0431895,-27.6222,35,0.0082798,10,-0.00119299,-1.55874,-4.7966,-0.0123004,13.2596,0.0431895,
2,0,0,1,0,68180.4,0.0411053,0.0407962,-27.6524,35,0.00811397,10,-0.00112811,-1.55827,-8.217,-0.00718023,7.74904,0.0407962,
2,0,0,1,0,68180.4,0.0387082,0.0383615,-27.6727,35,0.00794797,10,-0.00106157,-1.55795,-12.729,-0.00463507,5.00262,0.0383615,
2,0,0,1,0,68180.4,0.0363,0.0359766,-27.6711,35,0.00778191,10,-0.000995511,-1.55797,59.4917,0.000991735,-1.07088,0.03597663,
2,0,0,1,0,68180.4,0.0339029,0.0335907,-27.6718,35,0.00761588,10,-0.000929517,-1.55796,13.9771,0.0042212,-4.55722,0.0335907,
2,0,0,1,0,68180.4,0.0315058,0.0311444,-27.6674,35,0.00744988,10,-0.000861684,-1.55803,10.6657,0.00553175,-5.97002,0.03114436,
2,0,0,1,0,68180.4,0.0291087,0.0287913,-27.6345,35,0.007284,10,-0.000795633,-1.55855,6.26422,0.00941857,-10.1584,0.0287913,
2,0,0,1,0,68180.4,0.0267033,0.0263662,-27.6095,35,0.00711824,10,-0.000727958,-1.55894,5.01774,0.0117583,-12.6676,0.0263662,
2,0,0,1,0,68180.4,0.0243062,0.0240227,-27.5697,35,0.00695266,10,-0.000662297,-1.55957,3.57712,0.0164937,-17.7453,0.0240227,
2,0,0,1,0,68180.4,0.0219091,0.0216092,-27.5345,35,0.00678733,10,-0.000594997,-1.56012,3.07473,0.0191887,-20.617,0.0216092,
2,0,0,1,0,68180.4,0.0195009,0.0191724,-27.4872,35,0.00662227,10,-0.000526994,-1.56087,2.68684,0.0219589,-23.5441,0.01917237,
2,0,0,1,0,68180.4,0.0171038,0.016778,-27.421,35,0.00645757,10,-0.000460068,-1.56192,2.40713,0.0245105,-26.2342,0.016778,
2,0,0,1,0,68180.4,0.0147067,0.0143677,-27.3636,35,0.00629323,10,-0.000393151,-1.56283,2.25411,0.0261745,-27.9338,0.01436767,
2,0,0,1,0,68180.4,0.012304,0.012004,-27.2837,35,0.00612929,10,-0.000327515,-1.5641,1.9004,0.0310461,-33.0458,0.012004,
2,0,0,1,0,68180.4,0.00990136,0.00959478,-27.1925,35,0.00596588,10,-0.000260906,-1.56555,1.73024,0.0340993,-36.1861,0.00959478,
2,0,0,1,0,68180.4,0.00750426,0.00717281,-27.1048,35,0.00580298,10,-0.000194417,-1.56695,1.51747,0.0388806,-41.1085,0.00717281,
2,0,0,1,0,68180.4,0.00510715,0.0047466,-26.9946,35,0.00564066,10,-0.000128133,-1.56872,1.61438,0.0365466,-38.5337,0.0047466,
2,0,0,1,0,68180.4,0.00270173,0.00238083,-26.8859,35,0.00547902,10,-6.40109e-05,-1.57048,1.39561,0.0422754,-44.3823,0.00238083,
2,0,0,1,0,68180.5,0.000304623,-7.18863e-05,-26.8045,35,0.00531786,10,1.92688e-06,-1.57179,1.2756,0.0462526,-48.3184,-7.18863e-05,
2,0,0,1,0,68180.5,-0.00209248,-0.00246629,-26.6646,35,0.00515747,10,6.57626e-05,-1.57406,1.06558,0.0553692,-57.6129,-0.00246629,
2,0,0,1,0,68180.5,-0.00450068,-0.00486811,-26.5319,35,0.00499793,10,0.00012916,-1.57623,1.02445,0.057592,-59.6011,-0.00486811,
2,0,0,1,0,68180.5,-0.00689779,-0.00726463,-26.3903,35,0.00483922,10,0.000191716,-1.57856,1.02045,0.0578176,-59.5046,-0.00726463,
2,0,0,1,0,68180.5,-0.00929489,-0.00966751,-26.2312,35,0.0046814,10,0.000253591,-1.58118,0.953616,0.0618698,-63.3241,-0.00966751,
2,0,0,1,0,68180.5,-0.011692,-0.0120789,-26.0748,35,0.0045245,10,0.000314954,-1.58378,0.946769,0.0623172,-63.413,-0.0120789,
2,0,0,1,0,68180.5,-0.0140974,-0.014486,-25.9184,35,0.00436852,10,0.000375454,-1.58639,0.92811,0.06357,-64.3093,-0.014486,
2,0,0,1,0,68180.5,-0.0164945,-0.0168645,-25.7691,35,0.00421347,10,0.000434584,-1.5889,0.897277,0.0657545,-66.1109,-0.0168645,
2,0,0,1,0,68180.5,-0.0188916,-0.0192377,-25.609,35,0.00405935,10,0.000492658,-1.59161,0.893874,0.0660048,-65.9657,-0.01923768,
2,0,0,1,0,68180.5,-0.0212998,-0.0216756,-25.4492,35,0.00390622,10,0.000551625,-1.59433,0.925566,0.0637448,-63.3339,-0.0216756,
2,0,0,1,0,68180.5,-0.0236969,-0.0240647,-25.3007,35,0.00375397,10,0.000608853,-1.59687,0.929219,0.0634942,-62.6817,-0.0240647,
2,0,0,1,0,68180.5,-0.026094,-0.0264697,-25.1598,35,0.00360259,10,0.000665971,-1.59929,0.945607,0.0623938,-61.2655,-0.0264697,
2,0,0,1,0,68180.5,-0.0284912,-0.0288471,-25.0011,35,0.00345215,10,0.000721208,-1.60204,0.975127,0.060505,-59.0841,-0.0288471,
2,0,0,1,0,68180.5,-0.0308994,-0.0313019,-24.8809,35,0.00330252,10,0.000778821,-1.60413,1.05952,0.0556855,-54.0667,-0.0313019,
2,0,0,1,0,68180.5,-0.0332965,-0.0336539,-24.7432,35,0.00315367,10,0.000832704,-1.60654,1.10069,0.0536025,-51.7775,-0.0336539,
2,0,0,1,0,68180.5,-0.0356936,-0.0360483,-24.6197,35,0.0030056,10,0.0008875,-1.60872,1.17612,0.0501648,-48.2284,-0.0360483,
2,0,0,1,0,68180.5,-0.038099,-0.0384883,-24.5086,35,0.0028582,10,0.000943296,-1.61068,1.26555,0.0466201,-44.6074,-0.0384883,
2,0,0,1,0,68180.6,-0.0404961,-0.0408573,-24.4057,35,0.00271146,10,0.000997149,-1.61251,1.29791,0.0454578,-43.311,-0.0408573,
2,0,0,1,0,68180.6,-0.0428932,-0.0432368,-24.3053,35,0.00256532,10,0.00105088,-1.6143,1.46872,0.0401711,-38.1197,-0.0432368,
2,0,0,1,0,68180.6,-0.0452903,-0.0456598,-24.2152,35,0.00241976,10,0.00110566,-1.61591,1.63121,0.0361695,-34.2055,-0.0456598,
2,0,0,1,0,68180.6,-0.0476985,-0.048015,-24.1478,35,0.00227468,10,0.00115946,-1.61712,1.87268,0.0315057,-29.6929,-0.048015,
2,0,0,1,0,68180.6,-0.0500956,-0.0504667,-24.0796,35,0.00213002,10,0.00121522,-1.61835,1.89465,0.0311403,-29.2633,-0.0504667,
2,0,0,1,0,68180.6,-0.0524927,-0.0528293,-24.0021,35,0.00198578,10,0.00126802,-1.61975,2.47287,0.0238589,-22.3701,-0.0528293,
2,0,0,1,0,68180.6,-0.0548982,-0.0552311,-23.9659,35,0.00184189,10,0.00132366,-1.62041,2.99833,0.0196776,-18.4104,-0.0552311,
2,0,0,1,0,68180.6,-0.0572953,-0.0576234,-23.9189,35,0.00169823,10,0.00137829,-1.62126,3.13395,0.0188261,-17.576,-0.0576234,
2,0,0,1,0,68180.6,-0.0596924,-0.0600485,-23.873,35,0.00155484,10,0.00143354,-1.62209,4.35746,0.01354,-12.6284,-0.0600485,
2,0,0,1,0,68180.6,-0.062095,-0.0624365,-23.864,35,0.00141167,10,0.00148998,-1.62226,6.54783,0.00901061,-8.39084,-0.06243654,
2,0,0,1,0,68180.6,-0.0644977,-0.0648734,-23.8476,35,0.00126853,10,0.00154707,-1.62256,14.926,0.00395283,-3.67756,-0.06487336,
2,0,0,1,0,68180.6,-0.0668948,-0.0672624,-23.8287,35,0.00112552,10,0.00160278,-1.6229,11.3629,0.00519235,-4.83081,-0.0672624,
2,0,0,1,0,68180.6,-0.0692919,-0.069659,-23.8191,35,0.000982567,10,0.00165921,-1.62307,-39.1206,-0.00150816,1.40311,-0.069659,
2,0,0,1,0,68180.6,-0.0717001,-0.0720672,-23.8339,35,0.000839585,10,0.00171765,-1.6228,-11.8218,-0.00499079,4.6431,-0.0720672,
2,0,0,1,0,68180.6,-0.0740972,-0.074451,-23.8491,35,0.000696541,10,0.00177559,-1.62253,-12.6582,-0.004661,4.33968,-0.074451,
2,0,0,1,0,68180.6,-0.0764943,-0.0768994,-23.8673,35,0.000553404,10,0.00183538,-1.6222,-5.37681,-0.0109731,10.2236,-0.0768994,
2,0,0,1,0,68180.7,-0.0788997,-0.0792493,-23.8985,35,0.000410154,10,0.00189394,-1.62163,-4.14106,-0.0142476,13.2901,-0.0792493,
2,0,0,1,0,68180.7,-0.0812968,-0.0816766,-23.9286,35,0.00026666,10,0.00195441,-1.62108,-3.68186,-0.0160245,14.9602,-0.0816766,
2,0,0,1,0,68180.7,-0.0836939,-0.0840922,-23.961,35,0.000122962,10,0.00201493,-1.6205,-3.19831,-0.0184473,17.2624,-0.08409217,
2,0,0,1,0,68180.7,-0.086091,-0.0864357,-24.0092,35,-2.09393e-05,10,0.00207525,-1.61962,-2.34266,-0.025185,23.6186,-0.0864357,
2,0,0,1,0,68180.7,-0.0884992,-0.088863,-24.0808,35,-0.000165234,10,0.00213989,-1.61833,-2.16899,-0.0272016,25.5563,-0.088863,
2,0,0,1,0,68180.7,-0.0908963,-0.0912658,-24.1243,35,-0.000309885,10,0.00220172,-1.61755,-2.36964,-0.0248983,23.4588,-0.09126582,
2,0,0,1,0,68180.7,-0.0932935,-0.0936178,-24.1917,35,-0.000454861,10,0.00226478,-1.61633,-1.86771,-0.0315895,29.8494,-0.0936178,
2,0,0,1,0,68180.7,-0.0956989,-0.0960578,-24.2872,35,-0.000600283,10,0.00233298,-1.61462,-1.77278,-0.0332812,31.5292,-0.09605781,
2,0,0,1,0,68180.7,-0.098096,-0.0984543,-24.3611,35,-0.000746208,10,0.00239846,-1.6133,-2.43072,-0.0242727,23.0255,-0.0984543,
2,0,0,0,0,68180.7,-0.0999548,-0.100438,-24.4079,35,-0.000860817,10,0.00245149,-1.61247,0.0290048,2.03415,-1824.36,-0.100438,
2,0,0,1,1,68180.7,-0.0994555,-0.0999092,-23.1084,35,-0.000900901,10,0.00230874,-1.63623,-0.0277852,-2.12343,1766.47,-0.0999092,
2,0,0,1,1,68180.7,-0.0970583,-0.0974565,-19.4597,35,-0.00102744,10,0.00189648,-1.71086,-0.0335016,-1.76111,1362.68,-0.0974565,
2,0,0,1,1,68180.7,-0.0946502,-0.0950674,-16.7524,35,-0.00113558,10,0.00159261,-1.77592,-0.0373446,-1.57988,1043.84,-0.0950674,
2,0,0,1,1,68180.7,-0.092253,-0.0926475,-14.4858,35,-0.00122894,10,0.00134207,-1.83906,-0.0377249,-1.56395,888.584,-0.09264753,
2,0,0,1,1,68180.7,-0.0898559,-0.0902574,-12.4994,35,-0.00130959,10,0.00112816,-1.90311,-0.0364579,-1.61831,789.515,-0.0902574,
2,0,0,1,1,68180.7,-0.0874588,-0.0878789,-10.7057,35,-0.00137898,10,0.000940807,-1.97038,-0.0341368,-1.72834,719.624,-0.08787889,
2,0,0,1,1,68180.7,-0.0850534,-0.0854696,-9.05681,35,-0.00143802,10,0.000774082,-2.04302,-0.0316412,-1.86466,655.985,-0.0854696,
2,0,0,1,1,68180.7,-0.0826563,-0.083053,-7.54418,35,-0.0014876,10,0.000626567,-2.12239,-0.0280946,-2.10005,612.785,-0.08305297,
2,0,0,1,1,68180.8,-0.0802592,-0.0806649,-6.1436,35,-0.00152848,10,0.000495573,-2.21158,-0.0243121,-2.42677,572.372,-0.0806649,
2,0,0,1,1,68180.8,-0.077851,-0.0782345,-4.81811,35,-0.00156121,10,0.000376943,-2.31712,-0.0203067,-2.90545,532.553,-0.0782345,
2,0,0,1,1,68180.8,-0.0754539,-0.0758507,-3.60093,35,-0.00158632,10,0.000273133,-2.44359,-0.0158255,-3.72817,497.844,-0.0758507,
2,0,0,1,1,68180.8,-0.0730568,-0.0734457,-2.44066,35,-0.00160427,10,0.000179256,-2.61249,-0.0105886,-5.57201,469.269,-0.0734457,
2,0,0,1,1,68180.8,-0.0706597,-0.0710523,-1.36245,35,-0.00161553,10,9.68051e-05,-2.86568,-0.00267006,-22.0969,441.906,-0.0710523,
2,0,0,1,1,68180.8,-0.0682542,-0.068676,-0.313525,35,-0.0016204,10,2.15316e-05,-3.50373,-0.0256319,-2.30182,418.781,-0.06867598,
2,1,0,1,1,68180.8,-0.0658571,-0.0662943,0.652537,35,-0.00161926,10,-4.32595e-05,-3.18539,0.0140318,4.20473,396.447,-0.0662943,
2,1,0,1,1,68180.8,-0.06346,-0.0638829,1.5604,35,-0.0016125,10,-9.96831e-05,-2.80676,0.00706414,8.35205,375.415,-0.06388294,
2,1,0,1,1,68180.8,-0.0610518,-0.0614472,2.45972,35,-0.00160033,10,-0.000151143,-2.60912,0.0142304,4.14605,356.954,-0.0614472,
2,1,0,1,1,68180.8,-0.0586547,-0.0590337,3.28656,35,-0.00158299,10,-0.000194018,-2.48326,0.0212733,2.77342,337.73,-0.0590337,
2,1,0,1,1,68180.8,-0.0562576,-0.0567061,4.06916,35,-0.00156084,10,-0.000230746,-2.3905,0.0282903,2.08552,322.049,-0.0567061,
2,1,0,1,1,68180.8,-0.053855,-0.0541919,4.83211,35,-0.00153408,10,-0.000261861,-2.31586,0.0352581,1.67337,308.976,-0.0541919,
2,1,0,1,1,68180.8,-0.0514523,-0.0518982,5.54761,35,-0.00150283,10,-0.000287911,-2.25589,0.0427224,1.38101,294.518,-0.0518982,
2,1,0,1,1,68180.8,-0.0490552,-0.0494837,6.2393,35,-0.00146736,10,-0.000308743,-2.20486,0.0507979,1.16146,279.768,-0.0494837,
2,1,0,1,1,68180.8,-0.0466581,-0.0470309,6.88862,35,-0.00142788,10,-0.000323978,-2.16187,0.0587603,1.00408,267.847,-0.0470309,
2,1,0,1,1,68180.8,-0.0442527,-0.0446715,7.52317,35,-0.00138456,10,-0.000336071,-2.1236,0.0680507,0.867001,252.431,-0.0446715,
2,1,0,1,1,68180.8,-0.0418556,-0.0422156,8.11496,35,-0.00133755,10,-0.000342578,-2.09071,0.0772814,0.763444,240.094,-0.0422156,
2,1,0,1,1,68180.9,-0.0394585,-0.039835,8.67682,35,-0.00128712,10,-0.000345641,-2.06164,0.0865683,0.681543,229.937,-0.039835,
2,1,0,1,1,68180.9,-0.0370558,-0.0374661,9.22158,35,-0.00123339,10,-0.000345496,-2.03519,0.0959518,0.614892,220.35,-0.0374661,
2,1,0,1,1,68180.9,-0.0346532,-0.0350091,9.75122,35,-0.00117639,10,-0.000341382,-2.01094,0.106119,0.555979,210.256,-0.0350091,
2,1,0,1,1,68180.9,-0.0322561,-0.0326179,10.2247,35,-0.00111641,10,-0.000333507,-1.99035,0.118428,0.498192,198.28,-0.0326179,
2,1,0,1,1,68180.9,-0.0298589,-0.0302405,10.6852,35,-0.00105363,10,-0.000323126,-1.97122,0.129192,0.456685,190.109,-0.0302405,
2,1,0,1,1,68180.9,-0.0274535,-0.0278344,11.1405,35,-0.000988071,10,-0.000310089,-1.9531,0.142925,0.412804,178.826,-0.0278344,
2,1,0,1,1,68180.9,-0.0250564,-0.0254347,11.5488,35,-0.000919949,10,-0.000293741,-1.93746,0.156592,0.376775,169.529,-0.0254347,
2,1,0,1,1,68180.9,-0.0226593,-0.0230658,11.945,35,-0.000849406,10,-0.00027552,-1.92281,0.166655,0.354024,164.778,-0.0230658,
2,1,0,1,1,68180.9,-0.0202511,-0.0206077,12.3455,35,-0.000776492,10,-0.000254412,-1.90849,0.182745,0.322855,155.042,-0.0206077,
2,1,0,1,1,68180.9,-0.017854,-0.0181688,12.6947,35,-0.000701345,10,-0.000230647,-1.89638,0.20223,0.291747,144.242,-0.0181688,
2,1,0,1,1,68180.9,-0.0154569,-0.0158232,13.0309,35,-0.000624118,10,-0.00020619,-1.88503,0.214667,0.274844,139.632,-0.0158232,
2,1,0,1,1,68180.9,-0.0130598,-0.0134288,13.3588,35,-0.000544921,10,-0.000179392,-1.87423,0.230056,0.256459,133.566,-0.0134288,
2,1,0,1,1,68180.9,-0.0106516,-0.0110482,13.6813,35,-0.000463762,10,-0.000151153,-1.86387,0.248975,0.236971,126.227,-0.0110482,
2,1,0,1,1,68180.9,-0.00825448,-0.00863997,13.9651,35,-0.000380798,10,-0.000120658,-1.85496,0.272358,0.216627,117.926,-0.00863997,
2,1,0,1,1,68180.9,-0.00585738,-0.00626042,14.238,35,-0.000296182,10,-8.91361e-05,-1.84655,0.289464,0.203825,113.195,-0.00626042,
2,1,0,1,1,68180.9,-0.00345195,-0.00386496,14.5139,35,-0.000209901,10,-5.60957e-05,-1.83822,0.310141,0.190236,107.455,-0.00386496,
2,1,0,1,1,68181,-0.00105485,-0.00143875,14.7548,35,-0.000122057,10,-2.12285e-05,-1.83107, , , ,-0.001438751,
2,1,0,0,1,68181,-7.54729e-05,-0.000535284,14.8429,35,-8.50679e-05,10,-7.94517e-06,-1.82848, , , ,-0.000535284,