File: Figure_codes/Fig_3-5/rawdata_trumpetplot_data/after 10th/20221101_1-115_003_TrumpetPlot_ParaChange_from10_every3_04_CV_C01_7.csv
mode,ox/red,error,control changes,counter inc.,time/s,control/V,Ewe/V,<I>/mA,cycle number,(Q-Qo)/C,I Range,P/W,log(|I|),Tafel slope mV/dec,alpha_eff,dI/d(E-IR),E-IR/V,
2,0,0,1,0,14850.9,2.44065e-05,-0.000325324,-0.398329,8,0.0000000E+000,10,1.29586e-07,-3.39976, , , ,-0.000325324,
2,1,0,1,0,14851.1,0.00129787,0.000966252,0.199812,8,6.70989e-06,10,1.93069e-07,-3.69938, , , ,0.000966252,
2,1,0,1,0,14851.2,0.00279606,0.00248157,0.304872,8,4.91199e-05,10,7.56562e-07,-3.51588,0.00824666,7.15441,57.0046,0.00248157,
2,1,0,1,0,14851.4,0.00429425,0.00395554,0.330737,8,9.93794e-05,10,1.30824e-06,-3.48052,0.0429389,1.37405,17.4056,0.00395554,
2,1,0,1,0,14851.5,0.00579244,0.00545707,0.352091,8,0.000153598,10,1.92139e-06,-3.45334,0.0529727,1.11378,15.2767,0.005457073,
2,1,0,1,0,14851.7,0.00729063,0.00698194,0.37546,8,0.000211111,10,2.62144e-06,-3.42544,0.0671016,0.879264,12.8053,0.00698194,
2,1,0,1,0,14851.8,0.00878882,0.00844424,0.394965,8,0.000271729,10,3.33518e-06,-3.40344,0.0810024,0.728373,11.1235,0.00844424,
2,1,0,1,0,14852,0.010287,0.00999349,0.410624,8,0.000334795,10,4.10357e-06,-3.38656,0.103918,0.567756,9.01893,0.00999349,
2,1,0,1,0,14852.1,0.0117852,0.011477,0.423397,8,0.000400083,10,4.85933e-06,-3.37325,0.105607,0.558677,9.2302,0.011477,
2,1,0,1,0,14852.3,0.0132838,0.0129462,0.437008,8,0.000467176,10,5.65761e-06,-3.35951,0.107459,0.549047,9.36852,0.0129462,
2,1,0,1,0,14852.4,0.0147814,0.0144734,0.449215,8,0.000536447,10,6.50165e-06,-3.34755,0.112596,0.523999,9.17762,0.0144734,
2,1,0,1,0,14852.6,0.0162789,0.016004,0.461208,8,0.000607635,10,7.3812e-06,-3.3361,0.137769,0.428253,7.68372,0.016004,
2,1,0,1,0,14852.7,0.017778,0.0174884,0.472593,8,0.000680565,10,8.26492e-06,-3.32551,0.147596,0.399741,7.37674,0.0174884,
2,1,0,1,0,14852.9,0.0192761,0.0189836,0.486041,8,0.000754865,10,9.22682e-06,-3.31333,0.148776,0.396569,7.4806,0.0189836,
2,1,0,1,0,14853,0.0207743,0.0204533,0.49635,8,0.000831078,10,1.0152e-05,-3.30421,0.145989,0.404141,7.80255,0.0204533,
2,1,0,1,0,14853.2,0.0222725,0.0219803,0.506871,8,0.000908995,10,1.11412e-05,-3.2951,0.152966,0.385705,7.6311,0.0219803,
2,1,0,1,0,14853.3,0.0237707,0.0234394,0.518897,8,0.000988586,10,1.21626e-05,-3.28492,0.188095,0.313672,6.34297,0.0234394,
2,1,0,1,0,14853.5,0.0252689,0.0249505,0.528266,8,0.00106952,10,1.31805e-05,-3.27715,0.174241,0.338612,6.98649,0.0249505,
2,1,0,1,0,14853.6,0.0267671,0.0264595,0.539049,8,0.00115215,10,1.4263e-05,-3.26837,0.151884,0.388455,8.16878,0.0264595,
2,1,0,1,0,14853.8,0.0282662,0.0279336,0.552258,8,0.00123662,10,1.54265e-05,-3.25786,0.164794,0.358023,7.70752,0.0279336,
2,1,0,1,0,14853.9,0.0297635,0.0294424,0.56104,8,0.00132268,10,1.65184e-05,-3.25101,0.178923,0.32975,7.2164,0.0294424,
2,1,0,1,0,14854.1,0.031261,0.0309115,0.567693,8,0.00141026,10,1.75482e-05,-3.24589,0.181956,0.324255,7.22915,0.0309115,
2,1,0,1,0,14854.2,0.0327599,0.0324476,0.583312,8,0.00149942,10,1.89271e-05,-3.2341,0.181659,0.324783,7.38849,0.0324476,
2,1,0,1,0,14854.4,0.034258,0.0339608,0.591955,8,0.00159023,10,2.01033e-05,-3.22771,0.186312,0.316673,7.3172,0.0339608,
2,1,0,1,0,14854.5,0.0357562,0.0354687,0.603792,8,0.00168273,10,2.14157e-05,-3.21911,0.229214,0.257402,6.05021,0.0354687,
2,1,0,1,0,14854.7,0.0372544,0.0369215,0.613821,8,0.00177683,10,2.26632e-05,-3.21196,0.200909,0.293665,7.04592,0.0369215,
2,1,0,1,0,14854.8,0.0387526,0.0384145,0.624961,8,0.00187229,10,2.40076e-05,-3.20415,0.187807,0.314152,7.6924,0.0384145,
2,1,0,1,0,14855,0.0402508,0.0399744,0.636471,8,0.00196962,10,2.54425e-05,-3.19622,0.198249,0.297606,7.37012,0.0399744,
2,1,0,1,0,14855.1,0.041749,0.0414133,0.64878,8,0.00206883,10,2.68681e-05,-3.1879,0.229063,0.257571,6.48815,0.0414133,
2,1,0,1,0,14855.3,0.0432472,0.0429244,0.658094,8,0.00216935,10,2.82483e-05,-3.18171,0.22695,0.259969,6.65541,0.0429244,
2,1,0,1,0,14855.4,0.0447458,0.0444201,0.667246,8,0.0022711,10,2.96391e-05,-3.17571,0.238258,0.247631,6.44801,0.0444201,
2,1,0,1,0,14855.6,0.0462433,0.0459113,0.677147,8,0.00237446,10,3.10887e-05,-3.16932,0.201807,0.292358,7.70322,0.0459113,
2,1,0,1,0,14855.7,0.0477409,0.0474099,0.685287,8,0.00247945,10,3.24894e-05,-3.16413,0.205503,0.2871,7.69491,0.0474099,
2,1,0,1,0,14855.9,0.0492399,0.0489189,0.695122,8,0.00258595,10,3.40046e-05,-3.15794,0.261117,0.225952,6.14231,0.0489189,
2,1,0,1,0,14856,0.0507381,0.0504151,0.70367,8,0.00269369,10,3.54756e-05,-3.15263,0.250435,0.23559,6.50106,0.0504151,
2,1,0,1,0,14856.2,0.0522363,0.0519008,0.715436,8,0.00280286,10,3.71317e-05,-3.14543,0.25625,0.230244,6.41874,0.0519008,
2,1,0,1,0,14856.3,0.0537345,0.0534405,0.727053,8,0.00291368,10,3.8854e-05,-3.13843,0.285606,0.206578,5.84185,0.05344047,
2,1,0,1,0,14856.4,0.0552327,0.0549515,0.733837,8,0.00302582,10,4.03255e-05,-3.1344,0.33864,0.174226,4.98191,0.0549515,
2,1,0,1,0,14856.6,0.0567309,0.056399,0.739561,8,0.00313917,10,4.17105e-05,-3.13103,0.297208,0.198514,5.75055,0.056399,
2,1,0,1,0,14856.7,0.0582291,0.0579111,0.752744,8,0.00325374,10,4.35923e-05,-3.12335,0.277422,0.212673,6.23553,0.0579111,
2,1,0,1,0,14856.9,0.0597282,0.0594137,0.761187,8,0.00336982,10,4.52249e-05,-3.11851,0.291559,0.20236,6.00301,0.0594137,
2,1,0,1,0,14857,0.0612255,0.060927,0.769228,8,0.00348729,10,4.68668e-05,-3.11394,0.399741,0.147595,4.41146,0.060927,
2,1,0,1,0,14857.2,0.062723,0.0624035,0.778088,8,0.00360594,10,4.85554e-05,-3.10897,0.326635,0.18063,5.49127,0.0624035,
2,1,0,1,0,14857.3,0.0642218,0.0639258,0.783848,8,0.00372554,10,5.01081e-05,-3.10577,0.276247,0.213577,6.55452,0.0639258,
2,1,0,1,0,14857.5,0.06572,0.0653711,0.792411,8,0.00384657,10,5.18008e-05,-3.10105,0.31194,0.189139,5.84404,0.0653711,
2,1,0,1,0,14857.6,0.0672182,0.0669235,0.804354,8,0.00396904,10,5.38302e-05,-3.09455,0.354469,0.166446,5.18435,0.0669235,
2,1,0,1,0,14857.8,0.0687164,0.0684102,0.807749,8,0.00409245,10,5.52583e-05,-3.09272,0.449492,0.131259,4.13713,0.0684102,
2,1,0,1,0,14857.9,0.0702146,0.0698895,0.811819,8,0.00421655,10,5.67376e-05,-3.09054,0.492424,0.119815,3.81595,0.0698895,
2,1,0,1,0,14858.1,0.0717128,0.0714059,0.821256,8,0.00434182,10,5.86425e-05,-3.08552,0.346425,0.170311,5.44582,0.07140588,
2,1,0,1,0,14858.2,0.073211,0.0728883,0.830175,8,0.00446829,10,6.05101e-05,-3.08083,0.42865,0.137642,4.44965,0.0728883,
2,1,0,1,0,14858.4,0.0747092,0.0743941,0.835357,8,0.00459566,10,6.21456e-05,-3.07813,0.463853,0.127196,4.14381,0.0743941,
2,1,0,1,0,14858.5,0.0762078,0.0758791,0.839033,8,0.00472387,10,6.36651e-05,-3.07622,0.52173,0.113085,3.71251,0.0758791,
2,1,0,1,0,14858.7,0.0777053,0.0773612,0.847232,8,0.00485295,10,6.55429e-05,-3.072,0.401514,0.146944,4.85731,0.0773612,
2,1,0,1,0,14858.8,0.0792029,0.0788816,0.857161,8,0.00498316,10,6.76143e-05,-3.06694,0.422027,0.139801,4.65639,0.0788816,
2,1,0,1,0,14859,0.0807019,0.0803928,0.860195,8,0.0051146,10,6.91535e-05,-3.0654,0.492519,0.119792,4.01274,0.0803928,
2,1,0,1,0,14859.1,0.0822001,0.0819018,0.86536,8,0.00524679,10,7.08746e-05,-3.0628,0.471633,0.125097,4.23198,0.0819018,
2,1,0,1,0,14859.3,0.0836983,0.0833492,0.873337,8,0.0053798,10,7.2792e-05,-3.05882,0.407037,0.14495,4.95001,0.0833492,
2,1,0,1,0,14859.4,0.0851965,0.0848858,0.881544,8,0.00551411,10,7.48305e-05,-3.05476,0.395818,0.149058,5.13686,0.0848858,
2,1,0,1,0,14859.6,0.0866947,0.0863862,0.888899,8,0.00564972,10,7.67887e-05,-3.05115,0.412376,0.143073,4.95968,0.0863862,
2,1,0,1,0,14859.7,0.0881929,0.0879111,0.899568,8,0.00578651,10,7.9082e-05,-3.04597,0.357287,0.165134,5.80537,0.0879111,
2,1,0,1,0,14859.9,0.0896911,0.0893861,0.909011,8,0.00592436,10,8.1253e-05,-3.04143,0.283201,0.208333,7.39457,0.0893861,
2,1,0,1,0,14860,0.0911902,0.0908539,0.920934,8,0.00606412,10,8.36704e-05,-3.03577,0.255328,0.231075,8.28892,0.0908539,
2,1,0,1,0,14860.2,0.0926875,0.0923512,0.932805,8,0.00620573,10,8.61457e-05,-3.03021,0.246308,0.239538,8.71639,0.0923512,
2,1,0,1,0,14860.3,0.094185,0.093887,0.943521,8,0.00634906,10,8.85843e-05,-3.02525,0.247254,0.238621,8.81522,0.093887,
2,1,0,1,0,14860.5,0.0956838,0.0953605,0.954938,8,0.00649421,10,9.10633e-05,-3.02002,0.213408,0.276466,10.333,0.0953605,
2,1,0,1,0,14860.6,0.097182,0.0968524,0.972308,8,0.00664166,10,9.41704e-05,-3.0122,0.184761,0.319331,12.1335,0.0968524,
2,1,0,1,0,14860.8,0.0986802,0.0983762,0.988524,8,0.0067916,10,9.72473e-05,-3.00501,0.195183,0.302281,11.6812,0.0983762,
2,1,0,1,0,14860.9,0.100178,0.0998566,1.00794,8,0.00694424,10,0.00010065,-2.99656,0.207385,0.284494,11.2021,0.0998566,
2,1,0,1,0,14861.1,0.101677,0.101314,1.02149,8,0.00709936,10,0.000103491,-2.99077,0.197478,0.298768,11.961,0.101314,
2,1,0,1,0,14861.2,0.103175,0.102863,1.04615,8,0.00725711,10,0.00010761,-2.98041,0.196452,0.300328,12.2515,0.102863,
2,1,0,1,0,14861.4,0.104673,0.10438,1.0685,8,0.00741786,10,0.00011153,-2.97123,0.192421,0.306619,12.7215,0.10438,
2,1,0,1,0,14861.5,0.106171,0.105861,1.0824,8,0.00758158,10,0.000114584,-2.96561,0.231727,0.25461,10.7294,0.105861,
2,1,0,1,0,14861.7,0.10767,0.107372,1.09768,8,0.00774797,10,0.00011786,-2.95952,0.232034,0.254273,10.8999,0.107372,
2,1,0,1,0,14861.8,0.109167,0.10885,1.11394,8,0.00791628,10,0.000121252,-2.95314,0.224937,0.262296,11.4377,0.10885,
2,1,0,1,0,14862,0.110665,0.110339,1.13268,8,0.00808754,10,0.000124979,-2.94589,0.23488,0.251192,11.0791,0.110339,
2,1,0,1,0,14862.1,0.112164,0.111869,1.14603,8,0.00826136,10,0.000128205,-2.9408,0.324824,0.181637,8.10345,0.111869,
2,1,0,1,0,14862.3,0.113662,0.113362,1.15959,8,0.00843705,10,0.000131454,-2.93569,0.314861,0.187385,8.46688,0.113362,
2,1,0,1,0,14862.4,0.11516,0.114804,1.17162,8,0.00861415,10,0.000134507,-2.93121,0.345917,0.170561,7.79124,0.114804,
2,1,0,1,0,14862.6,0.116658,0.116336,1.18387,8,0.00879336,10,0.000137727,-2.9267,0.299381,0.197073,9.08794,0.116336,
2,1,0,1,0,14862.7,0.118157,0.117803,1.1972,8,0.00897446,10,0.000141034,-2.92183,0.420365,0.140354,6.5334,0.1178029,
2,1,0,1,0,14862.9,0.119655,0.11933,1.20531,8,0.00915719,10,0.00014383,-2.9189,0.469374,0.125699,5.91288,0.11933,
2,1,0,1,0,14863,0.121153,0.120879,1.20945,8,0.00934081,10,0.000146198,-2.91741,0.41112,0.14351,6.80469,0.120879,
2,1,0,1,0,14863.2,0.122652,0.122358,1.22368,8,0.00952622,10,0.000149727,-2.91233,0.323152,0.182577,8.70281,0.122358,
2,1,0,1,0,14863.3,0.124149,0.123865,1.2357,8,0.00971335,10,0.00015306,-2.90809,0.336281,0.175449,8.45385,0.123865,
2,1,0,1,0,14863.5,0.125647,0.125317,1.24505,8,0.00990217,10,0.000156027,-2.90481,0.424257,0.139067,6.75017,0.125317,
2,1,0,1,0,14863.6,0.127146,0.126836,1.25076,8,0.0100926,10,0.000158642,-2.90283,0.451551,0.130661,6.40201,0.126836,
2,1,0,1,0,14863.8,0.128644,0.128335,1.26644,8,0.0102841,10,0.000162528,-2.89742,0.497329,0.118634,5.85958,0.128335,
2,1,0,1,0,14863.9,0.130142,0.129839,1.27604,8,0.0104773,10,0.000165679,-2.89414,0.541846,0.108887,5.39889,0.129839,
2,1,0,1,0,14864.1,0.13164,0.131339,1.27981,8,0.0106717,10,0.00016809,-2.89285,1.93408,0.0305055,1.51752,0.131339,
2,1,0,1,0,14864.2,0.133139,0.132796,1.28149,8,0.0108665,10,0.000170176,-2.89229,-8.18594,-0.00720748,-0.359881,0.132796,
2,1,0,1,0,14864.4,0.134637,0.134316,1.27981,8,0.0110611,10,0.000171898,-2.89285,-0.99661,-0.0592007,-2.95246,0.134316,
2,1,0,1,0,14864.5,0.136135,0.135809,1.27567,8,0.0112553,10,0.000173247,-2.89426,-0.464537,-0.127008,-6.28875,0.1358086,
2,1,0,1,0,14864.7,0.137633,0.137323,1.26399,8,0.0114483,10,0.000173574,-2.89826,-0.261167,-0.225909,-11.0655,0.137323,
2,1,0,1,0,14864.8,0.139132,0.138814,1.24256,8,0.0116388,10,0.000172484,-2.90568,-0.179598,-0.328512,-15.8303,0.138814,
2,1,0,1,0,14865,0.140629,0.140313,1.21399,8,0.0118255,10,0.000170339,-2.91578,-0.148626,-0.396971,-18.7325,0.140313,
2,1,0,1,0,14865.1,0.142127,0.141809,1.18112,8,0.0120077,10,0.000167493,-2.9277,-0.122305,-0.482399,-22.1418,0.141809,
2,1,0,1,0,14865.3,0.143626,0.143308,1.14636,8,0.0121852,10,0.000164283,-2.94068,-0.0999024,-0.590576,-26.262,0.143308,
2,1,0,1,0,14865.4,0.145124,0.144816,1.10181,8,0.0123563,10,0.000159559,-2.95789,-0.0828707,-0.711952,-30.5362,0.1448157,
2,1,0,1,0,14865.6,0.146622,0.146247,1.05132,8,0.0125205,10,0.000153752,-2.97827,-0.0770162,-0.766072,-31.5246,0.146247,
2,1,0,1,0,14865.7,0.14812,0.147808,1.00753,8,0.0126776,10,0.000148921,-2.99674,-0.0763395,-0.772863,-30.3509,0.147808,
2,1,0,1,0,14865.9,0.149619,0.149322,0.961236,8,0.0128279,10,0.000143534,-3.01717,-0.0705104,-0.836756,-31.4006,0.149322,
2,1,0,1,0,14866,0.151117,0.150844,0.917276,8,0.0129713,10,0.000138366,-3.0375,-0.0712407,-0.828178,-29.5747,0.150844,
2,1,0,1,0,14866.2,0.152615,0.152284,0.871865,8,0.0131079,10,0.000132771,-3.05955,-0.0730315,-0.807871,-27.5762,0.152284,
2,1,0,1,0,14866.3,0.154114,0.153783,0.835318,8,0.0132384,10,0.000128458,-3.07815,-0.0807779,-0.730398,-23.8749,0.153783,
2,1,0,1,0,14866.5,0.155612,0.15534,0.802487,8,0.0133635,10,0.000124658,-3.09556,-0.0865497,-0.681689,-21.3647,0.15534,
2,1,0,1,0,14866.6,0.157109,0.156807,0.768682,8,0.0134839,10,0.000120535,-3.11425,-0.0862481,-0.684073,-20.5678,0.156807,
2,1,0,1,0,14866.8,0.158608,0.158327,0.742341,8,0.0135999,10,0.000117533,-3.1294,-0.0995267,-0.592806,-17.2532,0.1583274,
2,1,0,1,0,14866.9,0.160106,0.159805,0.717012,8,0.0137118,10,0.000114582,-3.14447,-0.114128,-0.516964,-14.5395,0.159805,
2,1,0,1,0,14867.1,0.161604,0.161291,0.699845,8,0.0138207,10,0.000112879,-3.155,-0.135027,-0.436948,-11.932,0.161291,
2,1,0,1,0,14867.2,0.163102,0.162807,0.681615,8,0.0139268,10,0.000110971,-3.16646,-0.140556,-0.41976,-11.1718,0.162807,
2,1,0,1,0,14867.4,0.164601,0.164277,0.666789,8,0.0140305,10,0.000109538,-3.17601,-0.15976,-0.369304,-9.61834,0.164277,
2,1,0,1,0,14867.5,0.166099,0.165795,0.652254,8,0.0141317,10,0.00010814,-3.18558,-0.167139,-0.353,-8.97987,0.165795,
2,1,0,1,0,14867.7,0.167597,0.16724,0.640959,8,0.0142313,10,0.000107194,-3.19317,-0.226614,-0.260355,-6.50683,0.16724,
2,1,0,1,0,14867.8,0.169095,0.168767,0.629422,8,0.0143292,10,0.000106226,-3.20106,-0.211243,-0.2793,-6.87087,0.168767,
2,1,0,1,0,14868,0.170594,0.170249,0.620694,8,0.0144257,10,0.000105673,-3.20712,-0.215718,-0.273505,-6.63219,0.170249,
2,1,0,1,0,14868.1,0.172091,0.171818,0.607543,8,0.0145205,10,0.000104387,-3.21642,-0.278193,-0.212083,-5.06316,0.171818,
2,1,0,1,0,14868.3,0.173589,0.173266,0.604981,8,0.0146141,10,0.000104823,-3.21826,-0.351667,-0.167772,-3.95637,0.173266,
2,1,0,1,0,14868.4,0.175088,0.174755,0.596978,8,0.0147068,10,0.000104325,-3.22404,-0.355757,-0.165844,-3.85748,0.174755,
2,1,0,1,0,14868.6,0.176586,0.176266,0.590109,8,0.0147985,10,0.000104016,-3.22907,-0.356217,-0.16563,-3.81411,0.1762663,
2,1,0,1,0,14868.7,0.178084,0.177725,0.583318,8,0.0148892,10,0.000103671,-3.23409,-0.357093,-0.165223,-3.77402,0.177725,
2,1,0,1,0,14868.9,0.179582,0.179249,0.579965,8,0.0149791,10,0.000103958,-3.2366,-0.459833,-0.128308,-2.91032,0.179249,
2,1,0,1,0,14869,0.181081,0.18077,0.575453,8,0.0150684,10,0.000104025,-3.23999,-0.434441,-0.135807,-3.05769,0.18077,
2,1,0,1,0,14869.2,0.182579,0.182294,0.570833,8,0.0151571,10,0.000104059,-3.24349,-0.333077,-0.177136,-3.95948,0.182294,
2,1,0,1,0,14869.3,0.184077,0.18377,0.568092,8,0.0152452,10,0.000104398,-3.24558,-0.524866,-0.11241,-2.49511,0.18377,
2,1,0,1,0,14869.5,0.185576,0.185245,0.566585,8,0.0153326,10,0.000104957,-3.24674,-0.611916,-0.0964184,-2.12919,0.185245,
2,1,0,1,0,14869.6,0.187074,0.186736,0.561727,8,0.0154196,10,0.000104895,-3.25047,-0.83512,-0.0706486,-1.54855,0.186736,
2,1,0,1,0,14869.8,0.188571,0.188241,0.559674,8,0.0155061,10,0.000105354,-3.25206,-0.768776,-0.0767454,-1.67128,0.188241,
2,1,0,1,0,14869.9,0.19007,0.189776,0.555466,8,0.0155923,10,0.000105414,-3.25534,-0.727054,-0.0811494,-1.75572,0.189776,
2,1,0,1,0,14870.1,0.191568,0.191208,0.552241,8,0.0156778,10,0.000105593,-3.25787,-1.00756,-0.0585573,-1.26571,0.191208,
2,1,0,1,0,14870.2,0.193066,0.192734,0.549641,8,0.0157631,10,0.000105935,-3.25992,-1.89051,-0.0312086,-0.669419,0.192734,
2,1,0,1,0,14870.4,0.194564,0.194249,0.547842,8,0.0158482,10,0.000106418,-3.26134,-0.749329,-0.0787371,-1.68598,0.194249,
2,1,0,1,0,14870.5,0.196063,0.195758,0.546007,8,0.0159329,10,0.000106885,-3.2628,-0.659261,-0.0894941,-1.90975,0.195758,
2,1,0,1,0,14870.7,0.197561,0.197205,0.54321,8,0.0160172,10,0.000107124,-3.26503,-0.74639,-0.0790471,-1.68135,0.197205,
2,1,0,1,0,14870.8,0.199059,0.198686,0.542224,8,0.0161012,10,0.000107733,-3.26582,-1.07849,-0.0547064,-1.15746,0.198686,
2,1,0,1,0,14871,0.200557,0.200205,0.54145,8,0.0161849,10,0.000108401,-3.26644,-0.838565,-0.0703583,-1.48365,0.200205,
2,1,0,1,0,14871.1,0.202056,0.201768,0.538269,8,0.0162686,10,0.000108606,-3.269,-0.791376,-0.0745537,-1.56469,0.201768,
2,1,0,1,0,14871.3,0.203553,0.203254,0.534937,8,0.0163517,10,0.000108728,-3.2717,-0.902803,-0.065352,-1.37119,0.203254,
2,1,0,1,0,14871.4,0.205051,0.204778,0.536313,8,0.0164346,10,0.000109825,-3.27058,5.66188,0.0104206,0.219443,0.204778,
2,1,0,1,0,14871.6,0.20655,0.206229,0.534962,8,0.0165175,10,0.000110325,-3.27168,-1.38564,-0.0425795,-0.888349,0.206229,
2,1,0,1,0,14871.7,0.208048,0.207773,0.532283,8,0.0166005,10,0.000110594,-3.27386,-0.813323,-0.0725419,-1.50481,0.2077731,
2,1,0,1,0,14871.9,0.209546,0.209267,0.530675,8,0.0166828,10,0.000111053,-3.27517,-0.839768,-0.0702575,-1.45895,0.209267,
2,1,0,1,0,14872,0.211044,0.210757,0.528817,8,0.0167648,10,0.000111452,-3.27669,-1.148,-0.0513937,-1.06238,0.210757,
2,1,0,1,0,14872.2,0.212543,0.21221,0.529524,8,0.0168467,10,0.00011237,-3.27611,-1.90077,-0.03104,-0.638958,0.21221,
2,1,0,1,0,14872.3,0.214041,0.21375,0.527704,8,0.0169285,10,0.000112796,-3.27761,-1.34883,-0.0437417,-0.900713,0.21375,
2,1,0,1,0,14872.5,0.215539,0.21521,0.525242,8,0.01701,10,0.000113037,-3.27964,-1.84835,-0.0319203,-0.654489,0.21521,
2,1,0,1,0,14872.6,0.217038,0.2167,0.524281,8,0.0170912,10,0.000113612,-3.28044,-3.43889,-0.0171567,-0.35136,0.2167,
2,1,0,1,0,14872.8,0.218535,0.218234,0.521144,8,0.0171724,10,0.000113731,-3.28304,9.60984,0.00613954,0.125258,0.218234,
2,1,0,1,0,14872.9,0.220033,0.219749,0.522734,8,0.0172534,10,0.00011487,-3.28172,-1.33355,-0.0442427,-0.900866,0.219749,
2,1,0,1,0,14873.1,0.221532,0.22124,0.520557,8,0.0173343,10,0.000115168,-3.28353,-1.32368,-0.0445727,-0.90651,0.22124,
2,1,0,1,0,14873.2,0.22303,0.222696,0.516182,8,0.0174148,10,0.000114952,-3.2872,-1.50747,-0.0391385,-0.79477,0.222696,
2,1,0,1,0,14873.4,0.224528,0.224232,0.518087,8,0.0174951,10,0.000116171,-3.2856,-1.06022,-0.0556488,-1.12409,0.224232,
2,1,0,1,0,14873.5,0.226026,0.225744,0.518947,8,0.0175753,10,0.000117149,-3.28488,-1.35589,-0.0435139,-0.878574,0.2257438,
2,1,0,1,0,14873.7,0.227525,0.227263,0.51604,8,0.0176554,10,0.000117277,-3.28732,-0.883172,-0.0668046,-1.34068,0.227263,
2,1,0,1,0,14873.8,0.229023,0.228722,0.514633,8,0.0177353,10,0.000117708,-3.2885,-1.22572,-0.0481352,-0.970228,0.2287225,
2,1,0,1,0,14874,0.230521,0.230248,0.511944,8,0.0178149,10,0.000117874,-3.29078,-2.63846,-0.0223615,-0.449216,0.230248,
2,1,0,1,0,14874.1,0.232019,0.231712,0.513248,8,0.0178945,10,0.000118926,-3.28967,-1.43548,-0.0411012,-0.823505,0.231712,
2,1,0,1,0,14874.3,0.233518,0.233186,0.512128,8,0.017974,10,0.000119421,-3.29062,-2.19564,-0.0268714,-0.535497,0.233186,
2,1,0,1,0,14874.4,0.235015,0.234743,0.511239,8,0.0180533,10,0.00012001,-3.29138,-2.7406,-0.0215281,-0.429037,0.234743,
2,1,0,1,0,14874.6,0.236513,0.236171,0.509211,8,0.0181323,10,0.000120261,-3.2931,-0.965233,-0.0611251,-1.21432,0.236171,
2,1,0,1,0,14874.7,0.238012,0.237678,0.508593,8,0.0182113,10,0.000120881,-3.29363,-3.15477,-0.0187018,-0.370622,0.237678,
2,1,0,1,0,14874.9,0.23951,0.239161,0.50678,8,0.0182902,10,0.000121202,-3.29518,-1.37802,-0.0428152,-0.849178,0.239161,
2,1,0,1,0,14875,0.241008,0.240727,0.506653,8,0.0183689,10,0.000121965,-3.29529,-1.76664,-0.0333967,-0.66172,0.240727,
2,1,0,1,0,14875.2,0.242506,0.242188,0.504615,8,0.0184473,10,0.000122212,-3.29704,-1.08013,-0.0546228,-1.07935,0.242188,
2,1,0,1,0,14875.3,0.244005,0.24372,0.504792,8,0.0185257,10,0.000123028,-3.29689,3.11677,0.0189298,0.373403,0.24372,
2,1,0,1,0,14875.5,0.245503,0.245196,0.505031,8,0.018604,10,0.000123831,-3.29668,-2.73473,-0.0215744,-0.425082,0.2451959,
2,1,0,1,0,14875.6,0.247001,0.246729,0.504383,8,0.0186822,10,0.000124446,-3.29724,-1.20143,-0.0491083,-0.964446,0.246729,
2,1,0,1,0,14875.8,0.2485,0.248194,0.499382,8,0.0187602,10,0.000123944,-3.30157,-2.34857,-0.0251217,-0.491239,0.248194,
2,1,0,1,0,14875.9,0.249997,0.249707,0.500842,8,0.018838,10,0.000125063,-3.3003,-1.45866,-0.0404481,-0.790801,0.249707,
2,1,0,1,0,14876.1,0.251495,0.251186,0.500495,8,0.0189157,10,0.000125718,-3.3006,-4.30658,-0.0137,-0.267583,0.251186,
2,1,0,1,0,14876.2,0.252994,0.252678,0.50009,8,0.0189933,10,0.000126362,-3.30095,-0.600475,-0.0982555,-1.91447,0.252678,
2,1,0,1,0,14876.4,0.254492,0.254216,0.497816,8,0.0190708,10,0.000126553,-3.30293,-1.19149,-0.0495178,-0.963506,0.254216,
2,1,0,1,0,14876.5,0.25599,0.255684,0.496936,8,0.0191479,10,0.000127059,-3.3037,-1.51428,-0.0389624,-0.757715,0.255684,
2,1,0,1,0,14876.7,0.257488,0.257173,0.497163,8,0.019225,10,0.000127857,-3.3035,-3.32846,-0.0177259,-0.343816,0.257173,
2,1,0,1,0,14876.8,0.258987,0.258683,0.497219,8,0.0193022,10,0.000128622,-3.30345,-2.86782,-0.0205731,-0.398469,0.2586832,
2,1,0,1,0,14877,0.260485,0.260192,0.495016,8,0.0193792,10,0.000128799,-3.30538,-2.66128,-0.0221698,-0.428041,0.260192,
2,1,0,1,0,14877.1,0.261983,0.26169,0.493709,8,0.0194558,10,0.000129199,-3.30653,-1.2254,-0.0481474,-0.929931,0.2616905,
2,1,0,1,0,14877.3,0.263481,0.263147,0.49365,8,0.0195324,10,0.000129903,-3.30658,-10.0461,-0.00587294,-0.112949,0.2631475,
2,1,0,1,0,14877.4,0.26498,0.264701,0.492537,8,0.019609,10,0.000130375,-3.30756,-2.98732,-0.0197501,-0.379888,0.264701,
2,1,0,1,0,14877.6,0.266477,0.266159,0.492157,8,0.0196854,10,0.000130992,-3.3079,-1.70066,-0.0346924,-0.665982,0.266159,
2,1,0,1,0,14877.7,0.267976,0.267683,0.488185,8,0.0197615,10,0.000130679,-3.31142,-4.16438,-0.0141678,-0.271882,0.267683,
2,1,0,1,0,14877.9,0.269474,0.269157,0.489545,8,0.0198376,10,0.000131764,-3.31021,-11.3903,-0.00517983,-0.0986614,0.269157,
2,1,0,1,0,14878,0.270972,0.270693,0.490381,8,0.0199137,10,0.000132743,-3.30947,-1.58602,-0.0372001,-0.707999,0.270693,
2,1,0,1,0,14878.2,0.27247,0.272184,0.488023,8,0.0199896,10,0.000132832,-3.31156,-0.860887,-0.068534,-1.29897,0.272184,
2,1,0,1,0,14878.3,0.273968,0.273686,0.485794,8,0.0200653,10,0.000132955,-3.31355,-1.98217,-0.0297653,-0.565774,0.273686,
2,1,0,1,0,14878.5,0.275467,0.275124,0.485358,8,0.0201406,10,0.000133533,-3.31394,-1.76669,-0.0333958,-0.633956,0.275124,
2,1,0,1,0,14878.6,0.276965,0.276666,0.485308,8,0.0202161,10,0.000134268,-3.31398,-2.21228,-0.0266693,-0.505365,0.2766656,
2,1,0,1,0,14878.8,0.278463,0.278152,0.483429,8,0.0202915,10,0.000134467,-3.31567,-0.849128,-0.0694831,-1.30882,0.278152,
2,1,0,1,0,14878.9,0.279962,0.279668,0.48482,8,0.0203667,10,0.000135589,-3.31442,-1.57888,-0.0373681,-0.706503,0.279668,
2,1,0,1,0,14879.1,0.281459,0.281158,0.482649,8,0.0204416,10,0.000135701,-3.31637,-3.38792,-0.0174148,-0.327722,0.281158,
2,1,0,1,0,14879.2,0.282957,0.282669,0.481592,8,0.0205165,10,0.000136131,-3.31732,-2.89028,-0.0204132,-0.383693,0.282669,
2,1,0,1,0,14879.4,0.284456,0.284165,0.48029,8,0.0205914,10,0.000136482,-3.3185,-2.54653,-0.0231688,-0.433352,0.284165,
2,1,0,1,0,14879.5,0.285954,0.285653,0.481274,8,0.0206661,10,0.000137477,-3.31761,-3.06775,-0.0192323,-0.360853,0.285653,
2,1,0,1,0,14879.7,0.287452,0.287143,0.477802,8,0.0207405,10,0.000137198,-3.32075,-1.17128,-0.0503721,-0.938971,0.287143,
2,1,0,1,0,14879.8,0.28895,0.288649,0.477399,8,0.0208148,10,0.000137801,-3.32112,-74.3632,-0.000793403,-0.0147864,0.288649,
2,1,0,1,0,14880,0.290449,0.290161,0.475452,8,0.0208891,10,0.000137958,-3.32289,-3.28778,-0.0179452,-0.333948,0.290161,
2,1,0,1,0,14880.1,0.291947,0.291618,0.477328,8,0.0209632,10,0.000139198,-3.32118,-1.04353,-0.0565386,-1.05245,0.291618,
2,1,0,1,0,14880.3,0.293445,0.293116,0.471954,8,0.021037,10,0.000138337,-3.3261,-0.99689,-0.0591841,-1.09598,0.293116,
2,1,0,1,0,14880.4,0.294943,0.294656,0.475642,8,0.0211108,10,0.000140151,-3.32272,-2.67643,-0.0220443,-0.40805,0.294656,
2,1,0,1,0,14880.6,0.296442,0.296171,0.475268,8,0.0211845,10,0.00014076,-3.32306,-1.9688,-0.0299675,-0.552549,0.296171,
2,1,0,1,0,14880.7,0.297939,0.297678,0.473413,8,0.0212582,10,0.000140925,-3.32476,-0.992822,-0.0594266,-1.09487,0.297678,
2,1,0,1,0,14880.9,0.299437,0.299136,0.470827,8,0.0213315,10,0.000140841,-3.32714,-0.00178811,-32.9958,-242.441,0.2991356,
2,1,0,1,0,14881,0.299738,0.299451,0.189559,8,0.0213653,10,5.67638e-05,-3.72225,0.00089024,66.2743,424.575,0.299451,
2,1,0,1,0,14881.1,0.29824,0.297924,-0.00778881,8,0.0213697,10,-2.32048e-06,-5.10853,0.00390959,15.0911,138.429,0.297924,
2,0,0,1,0,14881.3,0.296741,0.296415,-0.0398897,8,0.021363,10,-1.18239e-05,-4.39914,-0.00490239,-12.0349,20.308,0.296415,
2,0,0,1,0,14881.4,0.295243,0.294919,-0.0629017,8,0.0213523,10,-1.85509e-05,-4.20134,-0.0100944,-5.84481,12.1798,0.294919,
2,0,0,1,0,14881.6,0.293745,0.293422,-0.0815498,8,0.0213387,10,-2.39285e-05,-4.08858,-0.0172904,-3.41229,9.96908,0.2934221,
2,0,0,1,0,14881.7,0.292246,0.29194,-0.0935755,8,0.0213231,10,-2.73184e-05,-4.02884,-0.0246355,-2.39492,8.42038,0.29194,
2,0,0,1,0,14881.9,0.290748,0.290408,-0.105319,8,0.0213054,10,-3.05854e-05,-3.9775,-0.0300286,-1.9648,7.90982,0.290408,
2,0,0,1,0,14882,0.28925,0.288956,-0.117212,8,0.021286,10,-3.3869e-05,-3.93103,-0.040905,-1.44237,6.43096,0.288956,
2,0,0,1,0,14882.2,0.287752,0.287438,-0.125783,8,0.0212651,10,-3.6155e-05,-3.90038,-0.0531895,-1.10924,5.4197,0.287438,
2,0,0,1,0,14882.3,0.286253,0.285908,-0.13212,8,0.0212431,10,-3.77743e-05,-3.87903,-0.0606467,-0.972848,5.03829,0.285908,
2,0,0,1,0,14882.5,0.284755,0.284504,-0.14144,8,0.0212198,10,-4.02402e-05,-3.84943,-0.0602992,-0.978454,5.39699,0.284504,
2,0,0,1,0,14882.6,0.283258,0.282953,-0.151001,8,0.0211953,10,-4.27262e-05,-3.82102,-0.0692276,-0.852262,4.93225,0.282953,
2,0,0,1,0,14882.8,0.281759,0.2815,-0.156946,8,0.0211696,10,-4.41803e-05,-3.80425,-0.0812836,-0.725853,4.39377,0.2815,
2,0,0,1,0,14882.9,0.280261,0.279969,-0.159505,8,0.0211431,10,-4.46564e-05,-3.79723,-0.0926526,-0.636787,4.01912,0.279969,
2,0,0,1,0,14883.1,0.278763,0.278473,-0.168032,8,0.0211157,10,-4.67924e-05,-3.77461,-0.106974,-0.551537,3.62664,0.278473,
2,0,0,1,0,14883.2,0.277264,0.276933,-0.174178,8,0.0210873,10,-4.82356e-05,-3.75901,-0.124256,-0.474828,3.20963,0.276933,
2,0,0,1,0,14883.4,0.275766,0.275444,-0.179437,8,0.0210579,10,-4.94248e-05,-3.74609,-0.108065,-0.545965,3.8232,0.275444,
2,0,0,1,0,14883.5,0.274268,0.273954,-0.184584,8,0.0210278,10,-5.05676e-05,-3.73381,-0.129867,-0.454309,3.29555,0.273954,
2,0,0,1,0,14883.7,0.27277,0.272494,-0.190032,8,0.0209969,10,-5.17824e-05,-3.72117,-0.118588,-0.497522,3.74606,0.272494,
2,0,0,1,0,14883.8,0.271272,0.270948,-0.196094,8,0.0209652,10,-5.31314e-05,-3.70753,-0.153045,-0.385509,2.9315,0.270948,
2,0,0,1,0,14884,0.269773,0.269404,-0.203009,8,0.0209325,10,-5.46915e-05,-3.69248,-0.158389,-0.3725,2.91281,0.269404,
2,0,0,1,0,14884.1,0.268275,0.267972,-0.206467,8,0.0208992,10,-5.53274e-05,-3.68515,-0.148082,-0.398427,3.17973,0.267972,
2,0,0,1,0,14884.3,0.266778,0.266457,-0.210127,8,0.0208655,10,-5.59897e-05,-3.67752,-0.170158,-0.346736,2.85112,0.266457,
2,0,0,1,0,14884.4,0.265279,0.265005,-0.213738,8,0.0208309,10,-5.66418e-05,-3.67012,-0.124542,-0.473734,3.95506,0.265005,
2,0,0,1,0,14884.6,0.263781,0.263505,-0.219745,8,0.0207956,10,-5.7904e-05,-3.65808,-0.177474,-0.332443,2.84401,0.263505,
2,0,0,1,0,14884.7,0.262283,0.261995,-0.223629,8,0.0207596,10,-5.85897e-05,-3.65047,-0.197332,-0.298989,2.60656,0.261995,
2,0,0,1,0,14884.9,0.260784,0.260554,-0.226521,8,0.0207232,10,-5.90209e-05,-3.64489,-0.198662,-0.296987,2.64025,0.260554,
2,0,0,1,0,14885,0.259286,0.259006,-0.231665,8,0.020686,10,-6.00026e-05,-3.63514,-0.17092,-0.34519,3.10395,0.259006,
2,0,0,1,0,14885.2,0.257788,0.257444,-0.236945,8,0.0206482,10,-6.09999e-05,-3.62535,-0.239346,-0.246505,2.27292,0.257444,
2,0,0,1,0,14885.3,0.25629,0.255956,-0.239038,8,0.0206099,10,-6.11833e-05,-3.62153,-0.25167,-0.234434,2.17451,0.255956,
2,0,0,1,0,14885.5,0.254791,0.254466,-0.242957,8,0.0205711,10,-6.18243e-05,-3.61447,-0.255249,-0.231147,2.18359,0.254466,
2,0,0,1,0,14885.6,0.253293,0.253004,-0.247634,8,0.0205319,10,-6.26526e-05,-3.60619,-0.239654,-0.246188,2.36548,0.253004,
2,0,0,1,0,14885.7,0.251796,0.251533,-0.250625,8,0.020492,10,-6.30407e-05,-3.60097,-0.188263,-0.313392,3.07169,0.251533,
2,0,0,1,0,14885.9,0.250297,0.250001,-0.252987,8,0.0204515,10,-6.32469e-05,-3.5969,-0.307235,-0.192035,1.89473,0.2500006,
2,0,0,1,0,14886,0.248799,0.248465,-0.257018,8,0.0204106,10,-6.386e-05,-3.59004,-0.253375,-0.232857,2.34567,0.248465,
2,0,0,1,0,14886.2,0.247301,0.247023,-0.259156,8,0.0203693,10,-6.40175e-05,-3.58644,-0.233408,-0.252776,2.55606,0.247023,
2,0,0,1,0,14886.3,0.245802,0.245504,-0.265387,8,0.0203273,10,-6.51536e-05,-3.57612,-0.265676,-0.222075,2.28219,0.245504,
2,0,0,1,0,14886.5,0.244304,0.243929,-0.267062,8,0.0202847,10,-6.51441e-05,-3.57339,-0.318364,-0.185323,1.91977,0.243929,
2,0,0,1,0,14886.6,0.242806,0.242496,-0.271806,8,0.0202418,10,-6.59119e-05,-3.56574,-0.422551,-0.139628,1.47971,0.2424961,
2,0,0,1,0,14886.8,0.241308,0.241026,-0.272819,8,0.0201985,10,-6.57565e-05,-3.56413,-0.40121,-0.147055,1.57428,0.241026,
2,0,0,1,0,14886.9,0.23981,0.239537,-0.277648,8,0.0201546,10,-6.65068e-05,-3.55651,-0.240314,-0.245512,2.64543,0.239537,
2,0,0,1,0,14887.1,0.238311,0.237979,-0.278725,8,0.0201103,10,-6.63306e-05,-3.55482,-0.28194,-0.209264,2.27566,0.237979,
2,0,0,1,0,14887.2,0.236814,0.236506,-0.283569,8,0.0200654,10,-6.70658e-05,-3.54734,-0.312591,-0.188745,2.08741,0.236506,
2,0,0,1,0,14887.4,0.235316,0.235001,-0.284106,8,0.0200202,10,-6.67652e-05,-3.54652,-0.302089,-0.195306,2.18349,0.235001,
2,0,0,1,0,14887.5,0.233817,0.233476,-0.289255,8,0.0199744,10,-6.75343e-05,-3.53872,-0.303867,-0.194164,2.18772,0.2334763,
2,0,0,1,0,14887.7,0.232319,0.231994,-0.291752,8,0.0199281,10,-6.76848e-05,-3.53499,-0.36216,-0.162912,1.84221,0.231994,
2,0,0,1,0,14887.8,0.230821,0.230511,-0.296152,8,0.0198813,10,-6.82664e-05,-3.52849,-0.489086,-0.120633,1.38583,0.230511,
2,0,0,1,0,14888,0.229322,0.228972,-0.294659,8,0.0198342,10,-6.74685e-05,-3.53068,-0.417389,-0.141355,1.6382,0.228972,
2,0,0,1,0,14888.1,0.227824,0.227525,-0.301325,8,0.0197867,10,-6.85591e-05,-3.52096,-0.432988,-0.136262,1.60787,0.227525,
2,0,0,1,0,14888.3,0.226326,0.225986,-0.303219,8,0.0197387,10,-6.85231e-05,-3.51824,-0.402795,-0.146477,1.73041,0.225986,
2,0,0,1,0,14888.4,0.224828,0.224507,-0.307391,8,0.0196902,10,-6.90116e-05,-3.51231,-0.398123,-0.148195,1.76923,0.224507,
2,0,0,1,0,14888.6,0.223329,0.223013,-0.31067,8,0.0196411,10,-6.92835e-05,-3.5077,-0.351789,-0.167714,2.02704,0.223013,
2,0,0,1,0,14888.7,0.221831,0.221531,-0.312917,8,0.0195919,10,-6.93206e-05,-3.50457,-0.373017,-0.15817,1.93309,0.221531,
2,0,0,1,0,14888.9,0.220334,0.22001,-0.314352,8,0.019542,10,-6.91605e-05,-3.50258,-0.296635,-0.198898,2.44337,0.22001,
2,0,0,1,0,14889,0.218835,0.218491,-0.319452,8,0.0194916,10,-6.97973e-05,-3.49559,-0.291092,-0.202685,2.52402,0.218491,
2,0,0,1,0,14889.2,0.217337,0.217038,-0.320498,8,0.0194408,10,-6.95601e-05,-3.49418,-0.407404,-0.144819,1.81807,0.217038,
2,0,0,1,0,14889.3,0.215839,0.215544,-0.323545,8,0.0193897,10,-6.97382e-05,-3.49006,-0.322446,-0.182976,2.32665,0.215544,
2,0,0,1,0,14889.5,0.21434,0.213997,-0.328333,8,0.019338,10,-7.02622e-05,-3.48369,-0.242501,-0.243298,3.09726,0.213997,
2,0,0,1,0,14889.6,0.212842,0.21257,-0.331817,8,0.0192858,10,-7.05344e-05,-3.4791,-0.347857,-0.16961,2.19414,0.21257,
2,0,0,1,0,14889.8,0.211344,0.211038,-0.333751,8,0.019233,10,-7.04342e-05,-3.47658,-0.636487,-0.0926964,1.20804,0.211038,
2,0,0,1,0,14889.9,0.209846,0.209565,-0.334629,8,0.01918,10,-7.01265e-05,-3.47544,-0.464161,-0.127111,1.67095,0.209565,
2,0,0,1,0,14890.1,0.208348,0.208057,-0.341195,8,0.0191265,10,-7.09881e-05,-3.467,-0.355269,-0.166071,2.21427,0.208057,
2,0,0,1,0,14890.2,0.206849,0.206553,-0.349568,8,0.0190723,10,-7.22044e-05,-3.45647,-0.32374,-0.182245,2.44488,0.206553,
2,0,0,1,0,14890.4,0.205352,0.205026,-0.345263,8,0.0190175,10,-7.07879e-05,-3.46185,-0.479942,-0.122931,1.65346,0.205026,
2,0,0,1,0,14890.5,0.203854,0.203527,-0.350389,8,0.0189625,10,-7.13136e-05,-3.45545,-0.377855,-0.156145,2.14318,0.203527,
2,0,0,1,0,14890.7,0.202355,0.202044,-0.352479,8,0.0189071,10,-7.12161e-05,-3.45287,-0.409654,-0.144024,1.98633,0.202044,
2,0,0,1,0,14890.8,0.200857,0.200503,-0.358082,8,0.018851,10,-7.17966e-05,-3.44602,-0.282188,-0.20908,2.91558,0.200503,
2,0,0,1,0,14891,0.199359,0.199051,-0.359575,8,0.0187944,10,-7.15739e-05,-3.44421,-0.500314,-0.117926,1.65277,0.199051,
2,0,0,1,0,14891.1,0.19786,0.197516,-0.364734,8,0.0187374,10,-7.20408e-05,-3.43802,-0.365287,-0.161517,2.29381,0.197516,
2,0,0,1,0,14891.3,0.196362,0.196057,-0.367249,8,0.0186799,10,-7.20016e-05,-3.43504,-0.341311,-0.172863,2.47095,0.196057,
2,0,0,1,0,14891.4,0.194864,0.194548,-0.372049,8,0.0186218,10,-7.23812e-05,-3.4294,-0.292836,-0.201478,2.91642,0.1945477,
2,0,0,1,0,14891.6,0.193366,0.19297,-0.37598,8,0.018563,10,-7.25527e-05,-3.42484,-0.315245,-0.187156,2.73725,0.19297,
2,0,0,1,0,14891.7,0.191867,0.191552,-0.378772,8,0.0185036,10,-7.25546e-05,-3.42162,-0.394437,-0.14958,2.23203,0.191552,
2,0,0,1,0,14891.9,0.190369,0.190049,-0.382598,8,0.018444,10,-7.27123e-05,-3.41726,-0.326861,-0.180505,2.69849,0.1900491,
2,0,0,1,0,14892,0.188872,0.188521,-0.386975,8,0.0183836,10,-7.29528e-05,-3.41232,-0.216642,-0.272339,4.10876,0.188521,
2,0,0,1,0,14892.2,0.187373,0.187072,-0.391972,8,0.0183225,10,-7.33269e-05,-3.40675,-0.284221,-0.207585,3.16759,0.187072,
2,0,0,1,0,14892.3,0.185875,0.18557,-0.396869,8,0.0182608,10,-7.3647e-05,-3.40135,-0.346543,-0.170253,2.62283,0.18557,
2,0,0,1,0,14892.5,0.184377,0.184075,-0.395252,8,0.0181985,10,-7.27561e-05,-3.40313,-0.322714,-0.182825,2.84843,0.184075,
2,0,0,1,0,14892.6,0.182878,0.182555,-0.405237,8,0.0181357,10,-7.39779e-05,-3.39229,-0.322027,-0.183215,2.89434,0.1825545,
2,0,0,1,0,14892.8,0.18138,0.181069,-0.409907,8,0.018072,10,-7.42214e-05,-3.38731,-0.285733,-0.206487,3.295,0.181069,
2,0,0,1,0,14892.9,0.179882,0.179565,-0.413794,8,0.0180075,10,-7.4303e-05,-3.38322,-0.374779,-0.157426,2.53755,0.179565,
2,0,0,1,0,14893.1,0.178384,0.178028,-0.41867,8,0.0179423,10,-7.45349e-05,-3.37813,-0.276283,-0.213549,3.49494,0.178028,
2,0,0,1,0,14893.2,0.176886,0.176549,-0.424657,8,0.0178766,10,-7.49729e-05,-3.37196,-0.233076,-0.253137,4.19695,0.176549,
2,0,0,1,0,14893.4,0.175387,0.175035,-0.432057,8,0.0178097,10,-7.56249e-05,-3.36446,-0.239529,-0.246317,4.12538,0.175035,
2,0,0,1,0,14893.5,0.17389,0.173551,-0.438164,8,0.0177418,10,-7.60436e-05,-3.35836,-0.214792,-0.274684,4.67556,0.173551,
2,0,0,1,0,14893.7,0.172392,0.172086,-0.443377,8,0.0176731,10,-7.6299e-05,-3.35323,-0.20103,-0.293488,5.0857,0.172086,
2,0,0,1,0,14893.8,0.170893,0.170626,-0.448723,8,0.0176035,10,-7.65638e-05,-3.34802,-0.213638,-0.276169,4.8654,0.170626,
2,0,0,1,0,14894,0.169395,0.169078,-0.458042,8,0.0175326,10,-7.74448e-05,-3.33909,-0.176971,-0.333388,5.93934,0.1690778,
2,0,0,1,0,14894.1,0.167897,0.167615,-0.4671,8,0.0174603,10,-7.82932e-05,-3.33059,-0.169288,-0.348518,6.36538,0.167615,
2,0,0,1,0,14894.3,0.166398,0.166061,-0.47422,8,0.0173868,10,-7.87494e-05,-3.32402,-0.200179,-0.294736,5.484,0.166061,
2,0,0,1,0,14894.4,0.1649,0.164577,-0.483148,8,0.0173122,10,-7.95153e-05,-3.31592,-0.177673,-0.33207,6.3039,0.164577,
2,0,0,1,0,14894.6,0.163402,0.163108,-0.494429,8,0.017236,10,-8.06451e-05,-3.3059,-0.146483,-0.402776,7.78777,0.163108,
2,0,0,1,0,14894.7,0.161904,0.161565,-0.508869,8,0.0171582,10,-8.22153e-05,-3.29339,-0.147768,-0.399275,7.89929,0.161565,
2,0,0,1,0,14894.9,0.160405,0.160095,-0.520726,8,0.0170785,10,-8.33653e-05,-3.28339,-0.150532,-0.391943,7.92554,0.160095,
2,0,0,1,0,14895,0.158907,0.158561,-0.528553,8,0.016997,10,-8.38076e-05,-3.27691,-0.130388,-0.452494,9.40648,0.158561,
2,0,0,1,0,14895.2,0.15741,0.157052,-0.547527,8,0.0169135,10,-8.59905e-05,-3.26159,-0.117284,-0.50305,10.7821,0.157052,
2,0,0,1,0,14895.3,0.155911,0.155576,-0.561445,8,0.0168275,10,-8.73471e-05,-3.25069,-0.108534,-0.543607,11.9942,0.155576,
2,0,0,1,0,14895.5,0.154413,0.154083,-0.580858,8,0.0167388,10,-8.95002e-05,-3.23593,-0.108958,-0.541494,12.2841,0.1540826,
2,0,0,1,0,14895.6,0.152915,0.152567,-0.602613,8,0.0166473,10,-9.1939e-05,-3.21996,-0.0968061,-0.609466,14.3563,0.152567,
2,0,0,1,0,14895.8,0.151417,0.151048,-0.622507,8,0.0165529,10,-9.40282e-05,-3.20586,-0.0924145,-0.638428,15.5866,0.151048,
2,0,0,1,0,14895.9,0.149918,0.149563,-0.648313,8,0.0164548,10,-9.69638e-05,-3.18822,-0.086287,-0.683765,17.3505,0.149563,
2,0,0,1,0,14896.1,0.14842,0.148109,-0.676705,8,0.0163526,10,-0.000100226,-3.1696,-0.0815068,-0.723866,19.1563,0.148109,
2,0,0,1,0,14896.2,0.146922,0.146588,-0.7078,8,0.0162462,10,-0.000103755,-3.15009,-0.0773982,-0.762291,21.1207,0.146588,
2,0,0,1,0,14896.4,0.145424,0.145131,-0.740049,8,0.0161352,10,-0.000107404,-3.13074,-0.0708512,-0.832732,24.1246,0.145131,
2,0,0,1,0,14896.5,0.143925,0.14364,-0.776361,8,0.0160188,10,-0.000111517,-3.10994,-0.0669605,-0.881117,26.7154,0.14364,
2,0,0,1,0,14896.7,0.142428,0.142053,-0.817495,8,0.0158965,10,-0.000116127,-3.08752,-0.0677308,-0.871096,27.7626,0.142053,
2,0,0,1,0,14896.8,0.14093,0.140617,-0.856658,8,0.0157682,10,-0.000120461,-3.06719,-0.0719504,-0.82001,27.4499,0.140617,
2,0,0,1,0,14897,0.139431,0.139099,-0.89636,8,0.0156337,10,-0.000124683,-3.04752,-0.0712193,-0.828427,29.1002,0.139099,
2,0,0,1,0,14897.1,0.137933,0.137598,-0.943897,8,0.0154929,10,-0.000129878,-3.02508,-0.0740006,-0.797291,29.3027,0.1375975,
2,0,0,1,0,14897.3,0.136435,0.136076,-0.987881,8,0.0153452,10,-0.000134427,-3.0053,-0.0782543,-0.753952,28.9911,0.136076,
2,0,0,1,0,14897.4,0.134936,0.134581,-1.031,8,0.015191,10,-0.000138752,-2.98674,-0.086773,-0.679935,27.255,0.134581,
2,0,0,1,0,14897.6,0.133438,0.133102,-1.07248,8,0.0150303,10,-0.00014275,-2.96961,-0.0885915,-0.665978,27.83,0.133102,
2,0,0,1,0,14897.7,0.13194,0.131604,-1.11315,8,0.0148639,10,-0.000146495,-2.95345,-0.100441,-0.587407,25.5352,0.131604,
2,0,0,1,0,14897.9,0.130442,0.130123,-1.15061,8,0.0146912,10,-0.000149721,-2.93907,-0.112563,-0.524152,23.4675,0.130123,
2,0,0,1,0,14898,0.128943,0.128637,-1.18544,8,0.0145131,10,-0.000152492,-2.92612,-0.136492,-0.432258,19.8882,0.128637,
2,0,0,1,0,14898.2,0.127445,0.127115,-1.21262,8,0.0143305,10,-0.000154142,-2.91627,-0.152489,-0.386912,18.2608,0.127115,
2,0,0,1,0,14898.3,0.125948,0.125618,-1.23735,8,0.0141443,10,-0.000155433,-2.90751,-0.185734,-0.317659,15.3025,0.125618,
2,0,0,1,0,14898.5,0.124449,0.124118,-1.26059,8,0.0139542,10,-0.000156462,-2.89943,-0.210635,-0.280105,13.7068,0.124118,
2,0,0,1,0,14898.6,0.122951,0.122631,-1.27805,8,0.0137612,10,-0.000156729,-2.89345,-0.280719,-0.210174,10.4333,0.122631,
2,0,0,1,0,14898.8,0.121453,0.121156,-1.29055,8,0.0135659,10,-0.000156357,-2.88923,-0.392967,-0.15014,7.54165,0.121156,
2,0,0,1,0,14898.9,0.119955,0.119634,-1.29615,8,0.0133693,10,-0.000155064,-2.88734,-0.640231,-0.0921542,4.66297,0.119634,
2,0,0,1,0,14899.1,0.118456,0.118106,-1.30363,8,0.0131714,10,-0.000153967,-2.88485,-0.740989,-0.0796233,4.04515,0.118106,
2,0,0,1,0,14899.2,0.116958,0.116601,-1.30978,8,0.0129727,10,-0.000152723,-2.8828,-3.78381,-0.0155927,0.794792,0.116601,
2,0,0,1,0,14899.4,0.11546,0.115136,-1.30937,8,0.0127737,10,-0.000150755,-2.88294,1.77781,0.0331868,-1.68944,0.115136,
2,0,0,1,0,14899.5,0.113962,0.113663,-1.30104,8,0.012575,10,-0.00014788,-2.88571,0.893692,0.0660183,-3.35296,0.113663,
2,0,0,1,0,14899.7,0.112463,0.112134,-1.30001,8,0.0123771,10,-0.000145775,-2.88605,0.701266,0.0841335,-4.26744,0.112134,
2,0,0,1,0,14899.8,0.110966,0.110604,-1.2945,8,0.01218,10,-0.000143177,-2.8879,0.758449,0.0777904,-3.91983,0.1106042,
2,0,0,1,0,14900,0.109468,0.109125,-1.28445,8,0.0119837,10,-0.000140166,-2.89128,0.454792,0.129729,-6.49559,0.109125,
2,0,0,1,0,14900.1,0.107969,0.107679,-1.27697,8,0.0117886,10,-0.000137504,-2.89382,0.461312,0.127896,-6.37588,0.1076792,
2,0,0,1,0,14900.3,0.106471,0.106166,-1.26819,8,0.0115954,10,-0.000134639,-2.89681,0.449308,0.131313,-6.50632,0.106166,
2,0,0,1,0,14900.4,0.104973,0.104645,-1.25801,8,0.0114033,10,-0.000131644,-2.90032,0.437917,0.134729,-6.60242,0.104645,
2,0,0,1,0,14900.6,0.103474,0.103144,-1.2486,8,0.0112125,10,-0.000128786,-2.90358,0.3385,0.174298,-8.48142,0.103144,
2,0,0,1,0,14900.7,0.101976,0.101639,-1.23713,8,0.0110235,10,-0.00012574,-2.90759,0.355552,0.165939,-8.00774,0.101639,
2,0,0,1,0,14900.9,0.100478,0.100185,-1.22569,8,0.0108365,10,-0.000122796,-2.91162,0.35682,0.165349,-7.90924,0.100185,
2,0,0,1,0,14901,0.0989799,0.0986488,-1.21266,8,0.010651,10,-0.000119628,-2.91626,0.425367,0.138704,-6.55904,0.0986488,
2,0,0,1,0,14901.2,0.0974808,0.0971728,-1.2036,8,0.0104669,10,-0.000116957,-2.91952,0.35619,0.165642,-7.77829,0.0971728,
2,0,0,1,0,14901.3,0.0959833,0.0956741,-1.19162,8,0.0102848,10,-0.000114007,-2.92386,0.358797,0.164438,-7.6482,0.0956741,
2,0,0,1,0,14901.5,0.0944857,0.0941901,-1.17524,8,0.0101045,10,-0.000110696,-2.92987,0.378206,0.156,-7.18917,0.0941901,
2,0,0,1,0,14901.6,0.0929871,0.0926586,-1.16806,8,0.00992579,10,-0.000108231,-2.93254,0.468633,0.125898,-5.73928,0.09265855,
2,0,0,1,0,14901.8,0.0914889,0.0911782,-1.15958,8,0.0097485,10,-0.000105729,-2.9357,0.412693,0.142963,-6.46254,0.0911782,
2,0,0,1,0,14901.9,0.0899907,0.089683,-1.14817,8,0.00957283,10,-0.000102971,-2.93999,0.356567,0.165467,-7.40565,0.089683,
2,0,0,1,0,14902.1,0.0884925,0.0881306,-1.13453,8,0.00939877,10,-9.99868e-05,-2.94518,0.386789,0.152538,-6.77486,0.0881306,
2,0,0,1,0,14902.2,0.0869943,0.0866651,-1.12764,8,0.00922651,10,-9.77273e-05,-2.94783,0.398737,0.147967,-6.51678,0.0866651,
2,0,0,1,0,14902.4,0.0854962,0.0851816,-1.11913,8,0.00905533,10,-9.53293e-05,-2.95112,0.408296,0.144503,-6.30966,0.0851816,
2,0,0,1,0,14902.5,0.083998,0.083679,-1.10935,8,0.00888553,10,-9.28292e-05,-2.95493,0.340634,0.173206,-7.49031,0.08367902,
2,0,0,1,0,14902.7,0.0824998,0.0821785,-1.10156,8,0.00871714,10,-9.05243e-05,-2.95799,0.3928,0.150204,-6.46421,0.0821785,
2,0,0,1,0,14902.8,0.0810011,0.0806981,-1.09185,8,0.0085503,10,-8.81103e-05,-2.96184,0.532863,0.110723,-4.72412,0.0806981,
2,0,0,1,0,14903,0.0795036,0.0791696,-1.0854,8,0.00838438,10,-8.59305e-05,-2.96441,0.611425,0.0964959,-4.08253,0.0791696,
2,0,0,1,0,14903.1,0.0780061,0.0776726,-1.07781,8,0.00821947,10,-8.37162e-05,-2.96746,0.490739,0.120227,-5.05133,0.0776726,
2,0,0,1,0,14903.3,0.076507,0.0761777,-1.06971,8,0.00805564,10,-8.14879e-05,-2.97073,0.463302,0.127347,-5.31415,0.0761777,
2,0,0,1,0,14903.4,0.0750088,0.0746836,-1.06003,8,0.00789349,10,-7.91666e-05,-2.97468,0.509338,0.115837,-4.79771,0.0746836,
2,0,0,1,0,14903.6,0.0735106,0.0732096,-1.05262,8,0.00773214,10,-7.7062e-05,-2.97773,0.749515,0.0787176,-3.23529,0.0732096,
2,0,0,1,0,14903.7,0.0720124,0.0717113,-1.04751,8,0.00757173,10,-7.51186e-05,-2.97984,0.52182,0.113066,-4.62908,0.0717113,
2,0,0,1,0,14903.9,0.0705142,0.0701885,-1.04218,8,0.00741238,10,-7.31494e-05,-2.98206,0.509073,0.115897,-4.7126,0.0701885,
2,0,0,1,0,14904,0.0690161,0.0687411,-1.02895,8,0.00725429,10,-7.07315e-05,-2.9876,0.573566,0.102865,-4.15408,0.0687411,
2,0,0,1,0,14904.2,0.0675179,0.0672173,-1.02966,8,0.00709708,10,-6.9211e-05,-2.98731,0.666931,0.0884649,-3.54764,0.0672173,
2,0,0,1,0,14904.3,0.0660188,0.0656362,-1.02499,8,0.00694064,10,-6.72767e-05,-2.98928,0.583623,0.101093,-4.02905,0.0656362,
2,0,0,1,0,14904.5,0.0645213,0.0641924,-1.01587,8,0.00678504,10,-6.52114e-05,-2.99316,0.508845,0.115949,-4.58465,0.0641924,
2,0,0,1,0,14904.6,0.0630237,0.0627132,-1.0051,8,0.0066307,10,-6.30328e-05,-2.99779,0.532591,0.110779,-4.35713,0.0627132,
2,0,0,1,0,14904.8,0.0615251,0.0611814,-1.00085,8,0.00647753,10,-6.12335e-05,-2.99963,0.536572,0.109957,-4.30087,0.0611814,
2,0,0,1,0,14904.9,0.0600269,0.0597022,-0.995866,8,0.00632516,10,-5.94554e-05,-3.0018,0.592666,0.0995501,-3.86694,0.0597022,
2,0,0,1,0,14905.1,0.0585287,0.0581847,-0.988175,8,0.00617364,10,-5.74967e-05,-3.00517,0.376835,0.156567,-6.02731,0.0581847,
2,0,0,1,0,14905.2,0.0570305,0.0566991,-0.98342,8,0.00602324,10,-5.5759e-05,-3.00726,0.509423,0.115817,-4.4403,0.0566991,
2,0,0,1,0,14905.4,0.0555323,0.0552569,-0.975287,8,0.00587415,10,-5.38914e-05,-3.01087,0.607897,0.097056,-3.69579,0.0552569,
2,0,0,1,0,14905.5,0.0540342,0.0537183,-0.968611,8,0.00572572,10,-5.20321e-05,-3.01385,0.606361,0.0973018,-3.67058,0.0537183,
2,0,0,1,0,14905.7,0.052536,0.0522369,-0.96309,8,0.00557807,10,-5.03089e-05,-3.01633,0.483825,0.121945,-4.57704,0.0522369,
2,0,0,1,0,14905.8,0.0510378,0.0507089,-0.954183,8,0.00543167,10,-4.83855e-05,-3.02037,0.403125,0.146357,-5.45274,0.05070886,
2,0,0,1,0,14906,0.0495391,0.0492265,-0.947191,8,0.00528648,10,-4.66269e-05,-3.02356,0.496696,0.118785,-4.39422,0.0492265,
2,0,0,1,0,14906.1,0.0480416,0.0477452,-0.938032,8,0.00514244,10,-4.47865e-05,-3.02778,0.683603,0.0863074,-3.16249,0.0477452,
2,0,0,1,0,14906.3,0.0465441,0.0462346,-0.931776,8,0.00499929,10,-4.30803e-05,-3.03069,0.537598,0.109747,-4.00126,0.0462346,
2,0,0,1,0,14906.4,0.045045,0.0447282,-0.925184,8,0.00485715,10,-4.13818e-05,-3.03377,0.42109,0.140113,-5.05916,0.0447282,
2,0,0,1,0,14906.6,0.0435468,0.0432022,-0.91572,8,0.00471623,10,-3.95612e-05,-3.03824,0.455083,0.129647,-4.65039,0.0432022,
2,0,0,1,0,14906.7,0.0420486,0.0417707,-0.911298,8,0.00457657,10,-3.80655e-05,-3.04034,0.476534,0.123811,-4.40072,0.0417707,
2,0,0,1,0,14906.9,0.0405504,0.0402161,-0.908756,8,0.00443769,10,-3.65467e-05,-3.04155,0.483577,0.122008,-4.30605,0.04021614,
2,0,0,1,0,14907,0.0390523,0.0387613,-0.89636,8,0.0042998,10,-3.4744e-05,-3.04752,0.36832,0.160187,-5.59827,0.0387613,
2,0,0,1,0,14907.2,0.0375541,0.0372322,-0.888194,8,0.00416321,10,-3.30694e-05,-3.05149,0.370856,0.159091,-5.53354,0.0372322,
2,0,0,1,0,14907.3,0.0360559,0.0357476,-0.881516,8,0.00402795,10,-3.15121e-05,-3.05477,0.432967,0.136269,-4.70219,0.0357476,
2,0,0,1,0,14907.5,0.0345568,0.0342397,-0.87713,8,0.00389343,10,-3.00326e-05,-3.05694,0.454078,0.129934,-4.44359,0.0342397,
2,0,0,1,0,14907.6,0.0330593,0.0327699,-0.869312,8,0.00376001,10,-2.84873e-05,-3.06082,0.367839,0.160396,-5.43007,0.0327699,
2,0,0,1,0,14907.8,0.0315618,0.0312415,-0.860472,8,0.00362766,10,-2.68825e-05,-3.06526,0.456903,0.12913,-4.34525,0.0312415,
2,0,0,1,0,14907.9,0.0300631,0.0297849,-0.851696,8,0.00349668,10,-2.53677e-05,-3.06972,0.425189,0.138762,-4.62308,0.02978492,
2,0,0,1,0,14908.1,0.0285649,0.0282335,-0.849635,8,0.00336646,10,-2.39882e-05,-3.07077,0.534813,0.110319,-3.6451,0.0282335,
2,0,0,1,0,14908.2,0.0270667,0.0267256,-0.839732,8,0.00323713,10,-2.24424e-05,-3.07586,0.376142,0.156855,-5.13794,0.0267256,
2,0,0,1,0,14908.4,0.0255685,0.0252443,-0.83531,8,0.00310887,10,-2.10868e-05,-3.07815,0.382367,0.154302,-5.02845,0.0252443,
2,0,0,1,0,14908.5,0.0240704,0.0237491,-0.824091,8,0.00298191,10,-1.95714e-05,-3.08403,0.404696,0.145788,-4.71314,0.0237491,
2,0,0,1,0,14908.7,0.0225722,0.0223027,-0.821435,8,0.0028557,10,-1.83202e-05,-3.08543,0.615914,0.0957926,-3.07126,0.0223027,
2,0,0,1,0,14908.8,0.021074,0.0207937,-0.815342,8,0.00273028,10,-1.6954e-05,-3.08866,0.481346,0.122573,-3.89885,0.0207937,
2,0,0,1,0,14909,0.0195758,0.0192508,-0.811429,8,0.00260565,10,-1.56207e-05,-3.09075,0.527062,0.111941,-3.53933,0.0192508,
2,0,0,1,0,14909.1,0.0180772,0.0177468,-0.800138,8,0.00248187,10,-1.41999e-05,-3.09684,0.546773,0.107906,-3.38804,0.01774683,
2,0,0,1,0,14909.3,0.0165796,0.0162998,-0.800305,8,0.00235906,10,-1.30448e-05,-3.09674,0.661851,0.0891439,-2.78952,0.0162998,
2,0,0,1,0,14909.4,0.0150821,0.0147693,-0.796883,8,0.00223672,10,-1.17694e-05,-3.09861,0.989529,0.0596243,-1.85065,0.0147693,
2,0,0,1,0,14909.6,0.013583,0.0132574,-0.792245,8,0.00211468,10,-1.05031e-05,-3.10114,0.516375,0.114258,-3.52913,0.0132574,
2,0,0,1,0,14909.7,0.0120848,0.0117442,-0.785643,8,0.00199359,10,-9.22677e-06,-3.10477,0.766494,0.0769739,-2.37324,0.0117442,
2,0,0,1,0,14909.9,0.0105866,0.0103084,-0.784733,8,0.00187317,10,-8.08937e-06,-3.10528,1.02607,0.0575008,-1.7645,0.0103084,
2,0,0,1,0,14910,0.00908846,0.00874645,-0.783234,8,0.00175284,10,-6.85052e-06,-3.10611,1.72657,0.0341717,-1.04225,0.00874645,
2,0,0,1,0,14910.2,0.00759027,0.00727567,-0.782213,8,0.00163279,10,-5.69112e-06,-3.10668,0.987492,0.0597473,-1.82019,0.00727567,
2,0,0,1,0,14910.3,0.00609208,0.00577944,-0.780199,8,0.00151309,10,-4.50911e-06,-3.10779,1.37691,0.0428495,-1.30389,0.00577944,
2,0,0,1,0,14910.5,0.00459389,0.00426093,-0.778694,8,0.00139378,10,-3.31796e-06,-3.10863,3.61897,0.016303,-0.495795,0.00426093,
2,0,0,1,0,14910.6,0.0030948,0.00278514,-0.77804,8,0.00127447,10,-2.16695e-06,-3.109,-1.22299,-0.0482424,1.46752,0.002785142,
2,0,0,1,0,14910.8,0.00159728,0.00124823,-0.789701,8,0.00115348,10,-9.85728e-07,-3.10254, , , ,0.00124823,
2,0,0,1,0,14910.9,0.000199195,-0.000166899,-0.779731,8,0.00104154,10,1.30136e-07,-3.10806, , , ,-0.000166899,