File: Figure_codes/Fig_3-5/rawdata_trumpetplot_data/after 10th/20221101_1-115_003_TrumpetPlot_ParaChange_from10_every3_05_CV_C01_5.csv
mode,ox/red,error,control changes,counter inc.,time/s,control/V,Ewe/V,<I>/mA,cycle number,(Q-Qo)/C,I Range,P/W,log(|I|),Tafel slope mV/dec,alpha_eff,dI/d(E-IR),E-IR/V,
2,0,0,1,0,10970.7,2.44065e-05,-0.000554371,-0.757687,6,0.0000000E+000,10,4.2004e-07,-3.12051, , , ,-0.000554371,
2,1,0,1,0,10970.7,0.00129787,0.000932666,0.249117,6,-5.15964e-06,10,2.32343e-07,-3.6036, , , ,0.000932666,
2,1,0,1,0,10970.8,0.00279606,0.00247395,0.574982,6,2.90995e-05,10,1.42248e-06,-3.24035,0.00269882,21.8614,163.845,0.00247395,
2,1,0,1,0,10970.9,0.00429425,0.00398182,0.664811,6,7.72862e-05,10,2.64716e-06,-3.1773,0.0245172,2.40647,57.6502,0.00398182,
2,1,0,1,0,10971,0.00579244,0.00547305,0.718278,6,0.000130824,10,3.93117e-06,-3.14371,0.0478571,1.23284,34.0173,0.00547305,
2,1,0,1,0,10971,0.00729063,0.00698723,0.768496,6,0.00018802,10,5.36966e-06,-3.11436,0.0667794,0.883506,26.1018,0.00698723,
2,1,0,1,0,10971.1,0.00878882,0.00844956,0.801025,6,0.000248135,10,6.76831e-06,-3.09635,0.08835,0.667798,20.778,0.00844956,
2,1,0,1,0,10971.2,0.010287,0.00992718,0.833353,6,0.000310647,10,8.27285e-06,-3.07917,0.110953,0.531756,17.129,0.00992718,
2,1,0,1,0,10971.3,0.0117852,0.0114824,0.856256,6,0.00037533,10,9.83187e-06,-3.0674,0.11508,0.512689,17.094,0.0114824,
2,1,0,1,0,10971.3,0.0132847,0.0129651,0.878534,6,0.000441759,10,1.13903e-05,-3.05624,0.119506,0.4937,17.0198,0.0129651,
2,1,0,1,0,10971.4,0.0147802,0.0144782,0.905513,6,0.000509938,10,1.31102e-05,-3.04311,0.134415,0.438941,15.5008,0.01447817,
2,1,0,1,0,10971.5,0.0162798,0.0159745,0.927188,6,0.000580175,10,1.48114e-05,-3.03283,0.161331,0.365708,13.1959,0.0159745,
2,1,0,1,0,10971.6,0.017778,0.0174824,0.949444,6,0.00065188,10,1.65985e-05,-3.02253,0.16563,0.356216,13.1643,0.0174824,
2,1,0,1,0,10971.6,0.0192761,0.0189303,0.964588,6,0.000724769,10,1.82599e-05,-3.01566,0.163612,0.36061,13.6292,0.0189303,
2,1,0,1,0,10971.7,0.0207743,0.0204662,0.989132,6,0.000799334,10,2.02437e-05,-3.00475,0.150453,0.392148,15.0562,0.0204662,
2,1,0,1,0,10971.8,0.0222725,0.0219679,1.00729,6,0.000875536,10,2.2128e-05,-2.99685,0.168826,0.349472,13.7416,0.0219679,
2,1,0,1,0,10971.9,0.0237707,0.0234543,1.02905,6,0.000953201,10,2.41357e-05,-2.98756,0.189646,0.311105,12.4849,0.0234543,
2,1,0,1,0,10971.9,0.0252689,0.0249676,1.0459,6,0.00103218,10,2.61135e-05,-2.98051,0.186381,0.316556,12.9439,0.0249676,
2,1,0,1,0,10972,0.0267671,0.0264944,1.06627,6,0.00111266,10,2.82501e-05,-2.97213,0.165839,0.355766,14.8025,0.0264944,
2,1,0,1,0,10972.1,0.0282653,0.0279544,1.08758,6,0.00119471,10,3.04026e-05,-2.96354,0.179559,0.328583,13.9375,0.0279544,
2,1,0,1,0,10972.2,0.0297644,0.0294651,1.1074,6,0.00127845,10,3.26297e-05,-2.9557,0.193934,0.304227,13.1368,0.0294651,
2,1,0,1,0,10972.2,0.0312599,0.0309539,1.1225,6,0.00136341,10,3.47458e-05,-2.94981,0.196436,0.300352,13.1966,0.0309539,
2,1,0,1,0,10972.3,0.0327599,0.0324585,1.14765,6,0.00144997,10,3.72509e-05,-2.94019,0.212309,0.277897,12.4656,0.03245851,
2,1,0,1,0,10972.4,0.034258,0.0339287,1.16755,6,0.00153803,10,3.96135e-05,-2.93272,0.190477,0.309749,14.1014,0.0339287,
2,1,0,1,0,10972.5,0.0357562,0.035476,1.18712,6,0.00162766,10,4.21143e-05,-2.9255,0.225265,0.261914,12.1084,0.035476,
2,1,0,1,0,10972.5,0.0372544,0.0369162,1.20832,6,0.00171878,10,4.46068e-05,-2.91782,0.210735,0.279973,13.2108,0.0369162,
2,1,0,1,0,10972.6,0.0387526,0.0384367,1.2283,6,0.00181115,10,4.72116e-05,-2.9107,0.206371,0.285892,13.7252,0.03843667,
2,1,0,1,0,10972.7,0.0402508,0.0399236,1.24627,6,0.00190523,10,4.97557e-05,-2.90439,0.187065,0.315398,15.3697,0.0399236,
2,1,0,1,0,10972.8,0.041749,0.0414844,1.27015,6,0.00200103,10,5.26915e-05,-2.89614,0.23176,0.254574,12.5819,0.0414844,
2,1,0,1,0,10972.8,0.0432472,0.0429486,1.29009,6,0.00209826,10,5.54076e-05,-2.88938,0.231534,0.254822,12.8056,0.0429486,
2,1,0,1,0,10972.9,0.0447449,0.0444415,1.30592,6,0.00219663,10,5.80371e-05,-2.88408,0.229214,0.257401,13.1223,0.04444151,
2,1,0,1,0,10973,0.0462445,0.0459479,1.32615,6,0.0022966,10,6.09336e-05,-2.87741,0.212332,0.277867,14.3585,0.0459479,
2,1,0,1,0,10973.1,0.04774,0.0474071,1.34336,6,0.00239781,10,6.36849e-05,-2.87181,0.238505,0.247374,12.9756,0.0474071,
2,1,0,1,0,10973.1,0.0492399,0.0489241,1.36318,6,0.00250081,10,6.66922e-05,-2.86545,0.25483,0.231527,12.3191,0.0489241,
2,1,0,1,0,10973.2,0.0507381,0.050379,1.37982,6,0.00260489,10,6.9514e-05,-2.86018,0.251678,0.234427,12.6377,0.05037903,
2,1,0,1,0,10973.3,0.0522363,0.0518783,1.39742,6,0.00271032,10,7.24956e-05,-2.85467,0.254161,0.232136,12.6547,0.0518783,
2,1,0,1,0,10973.4,0.0537345,0.0534489,1.42196,6,0.00281733,10,7.60024e-05,-2.84711,0.270248,0.218318,12.0617,0.0534489,
2,1,0,1,0,10973.4,0.0552327,0.0549327,1.43766,6,0.00292572,10,7.89748e-05,-2.84234,0.317132,0.186042,10.3983,0.0549327,
2,1,0,1,0,10973.5,0.0567309,0.0564055,1.45024,6,0.00303525,10,8.18013e-05,-2.83856,0.304786,0.193578,10.9919,0.0564055,
2,1,0,1,0,10973.6,0.0582291,0.0579108,1.46863,6,0.00314589,10,8.50498e-05,-2.83309,0.308753,0.191091,10.9596,0.0579108,
2,1,0,1,0,10973.7,0.0597291,0.0594243,1.48582,6,0.00325811,10,8.82939e-05,-2.82803,0.303686,0.194279,11.2654,0.0594243,
2,1,0,1,0,10973.7,0.0612246,0.0609661,1.50511,6,0.00337135,10,9.17605e-05,-2.82243,0.33331,0.177012,10.3658,0.0609661,
2,1,0,1,0,10973.8,0.0627241,0.0623895,1.51974,6,0.00348606,10,9.48157e-05,-2.81823,0.31369,0.188084,11.1594,0.0623895,
2,1,0,1,0,10973.9,0.0642219,0.0639183,1.53247,6,0.00360162,10,9.79527e-05,-2.81461,0.306672,0.192388,11.5417,0.0639183,
2,1,0,1,0,10974,0.06572,0.0653848,1.55122,6,0.00371859,10,0.000101426,-2.80933,0.308043,0.191532,11.5854,0.0653848,
2,1,0,1,0,10974,0.0672182,0.0669343,1.57133,6,0.00383688,10,0.000105176,-2.80373,0.342737,0.172144,10.5157,0.0669343,
2,1,0,1,0,10974.1,0.0687164,0.0683516,1.58158,6,0.00395628,10,0.000108104,-2.80091,0.462936,0.127447,7.8613,0.0683516,
2,1,0,1,0,10974.2,0.0702146,0.0698924,1.59083,6,0.00407647,10,0.000111187,-2.79837,0.398043,0.148225,9.23615,0.0698924,
2,1,0,1,0,10974.3,0.0717128,0.0714155,1.60913,6,0.00419779,10,0.000114917,-2.79341,0.329243,0.179199,11.2381,0.0714155,
2,1,0,1,0,10974.3,0.073211,0.0728915,1.62638,6,0.00432038,10,0.000118549,-2.78878,0.372609,0.158343,10.0361,0.0728915,
2,1,0,1,0,10974.4,0.0747092,0.0743538,1.64024,6,0.00444402,10,0.000121958,-2.78509,0.475882,0.12398,7.93173,0.0743538,
2,1,0,1,0,10974.5,0.0762087,0.0758569,1.6477,6,0.00456867,10,0.000124989,-2.78312,0.405636,0.145451,9.37249,0.0758569,
2,1,0,1,0,10974.6,0.0777042,0.0774029,1.66365,6,0.00469392,10,0.000128772,-2.77894,0.387183,0.152383,9.89678,0.07740292,
2,1,0,1,0,10974.6,0.0792037,0.0788952,1.68001,6,0.0048206,10,0.000132545,-2.77469,0.401148,0.147078,9.63272,0.0788952,
2,1,0,1,0,10974.7,0.0807019,0.0803835,1.68847,6,0.00494819,10,0.000135725,-2.77251,0.502935,0.117311,7.71911,0.0803835,
2,1,0,1,0,10974.8,0.0822001,0.081872,1.69965,6,0.00507672,10,0.000139154,-2.76964,0.472916,0.124758,8.28933,0.081872,
2,1,0,1,0,10974.9,0.0836983,0.0833694,1.71335,6,0.00520596,10,0.000142841,-2.76615,0.443745,0.132959,8.91693,0.0833694,
2,1,0,1,0,10974.9,0.0851965,0.0848668,1.72854,6,0.00533639,10,0.000146696,-2.76232,0.38312,0.153999,10.4029,0.0848668,
2,1,0,1,0,10975,0.0866947,0.0863482,1.74502,6,0.00546794,10,0.00015068,-2.7582,0.438406,0.134578,9.16114,0.0863482,
2,1,0,1,0,10975.1,0.0881929,0.0879039,1.7629,6,0.00560073,10,0.000154965,-2.75377,0.40674,0.145056,9.97216,0.0879039,
2,1,0,1,0,10975.2,0.0896911,0.0893802,1.77625,6,0.00573443,10,0.000158762,-2.7505,0.335334,0.175944,12.237,0.0893802,
2,1,0,1,0,10975.2,0.0911893,0.0908666,1.79986,6,0.00586962,10,0.000163547,-2.74476,0.279797,0.210867,14.801,0.0908666,
2,1,0,1,0,10975.3,0.0926884,0.0923674,1.82199,6,0.00600674,10,0.000168292,-2.73945,0.290244,0.203277,14.4438,0.0923674,
2,1,0,1,0,10975.4,0.0941839,0.0938854,1.84058,6,0.00614513,10,0.000172804,-2.73505,0.267549,0.220521,15.8695,0.0938854,
2,1,0,1,0,10975.5,0.0956838,0.0953798,1.8637,6,0.0062855,10,0.000177759,-2.72962,0.235478,0.250554,18.2852,0.0953798,
2,1,0,1,0,10975.5,0.097182,0.0968494,1.89516,6,0.00642776,10,0.000183545,-2.72235,0.212563,0.277565,20.5253,0.0968494,
2,1,0,1,0,10975.6,0.0986802,0.0983891,1.92593,6,0.0065722,10,0.000189491,-2.71536,0.211972,0.278339,20.9401,0.0983891,
2,1,0,1,0,10975.7,0.100178,0.0998905,1.95758,6,0.00671896,10,0.000195544,-2.70828,0.211436,0.279044,21.3018,0.0998905,
2,1,0,1,0,10975.8,0.101677,0.101352,1.98474,6,0.00686818,10,0.000201157,-2.7023,0.200822,0.293792,22.8085,0.1013518,
2,1,0,1,0,10975.8,0.103175,0.102862,2.0251,6,0.00701978,10,0.000208305,-2.69355,0.199048,0.296411,23.4619,0.1028619,
2,1,0,1,0,10975.9,0.104673,0.104358,2.0653,6,0.00717417,10,0.000215532,-2.68502,0.194528,0.303298,24.3956,0.104358,
2,1,0,1,0,10976,0.106171,0.105883,2.09908,6,0.00733151,10,0.000222257,-2.67797,0.203191,0.290367,23.732,0.105883,
2,1,0,1,0,10976.1,0.107669,0.107355,2.13388,6,0.00749146,10,0.000229084,-2.67083,0.210364,0.280466,23.3525,0.107355,
2,1,0,1,0,10976.1,0.109168,0.108856,2.16615,6,0.00765404,10,0.000235799,-2.66431,0.209472,0.28166,23.8655,0.108856,
2,1,0,1,0,10976.2,0.110664,0.110373,2.20443,6,0.00781902,10,0.000243308,-2.6567,0.218846,0.269596,23.1499,0.110373,
2,1,0,1,0,10976.3,0.112164,0.11186,2.23462,6,0.00798705,10,0.000249964,-2.6508,0.253642,0.232611,20.2593,0.11186,
2,1,0,1,0,10976.4,0.113662,0.113347,2.26546,6,0.00815713,10,0.000256782,-2.64484,0.290161,0.203335,17.9578,0.113347,
2,1,0,1,0,10976.4,0.11516,0.114882,2.29276,6,0.00832908,10,0.000263396,-2.63964,0.303415,0.194453,17.3771,0.114882,
2,1,0,1,0,10976.5,0.116658,0.116387,2.318,6,0.00850303,10,0.000269785,-2.63489,0.325746,0.181123,16.3684,0.1163872,
2,1,0,1,0,10976.6,0.118157,0.11786,2.34289,6,0.00867905,10,0.000276133,-2.63025,0.3326,0.17739,16.2006,0.11786,
2,1,0,1,0,10976.7,0.119655,0.119354,2.36671,6,0.00885685,10,0.000282477,-2.62586,0.434358,0.135833,12.5219,0.119354,
2,1,0,1,0,10976.7,0.121153,0.120831,2.38129,6,0.00903598,10,0.000287735,-2.62319,0.413604,0.142649,13.2792,0.120831,
2,1,0,1,0,10976.8,0.122653,0.122344,2.40206,6,0.00921674,10,0.000293878,-2.61942,0.379501,0.155467,14.5899,0.122344,
2,1,0,1,0,10976.9,0.124149,0.123852,2.42565,6,0.00939879,10,0.000300423,-2.61517,0.400236,0.147413,13.952,0.123852,
2,1,0,1,0,10977,0.125648,0.125347,2.44596,6,0.00958293,10,0.000306595,-2.61155,0.407809,0.144676,13.8027,0.125347,
2,1,0,1,0,10977,0.127146,0.126802,2.4626,6,0.0097683,10,0.000312262,-2.60861,0.380547,0.15504,14.9297,0.126802,
2,1,0,1,0,10977.1,0.128644,0.128311,2.48656,6,0.00995502,10,0.000319052,-2.6044,0.407136,0.144915,14.0714,0.128311,
2,1,0,1,0,10977.2,0.130142,0.129822,2.50979,6,0.0101436,10,0.000325826,-2.60036,0.437853,0.134748,13.1718,0.129822,
2,1,0,1,0,10977.3,0.13164,0.131325,2.52893,6,0.0103338,10,0.000332113,-2.59706,0.586155,0.100656,9.90502,0.1313251,
2,1,0,1,0,10977.3,0.133139,0.1328,2.54396,6,0.0105251,10,0.000337838,-2.59449,0.829116,0.0711602,7.05498,0.1328,
2,1,0,1,0,10977.4,0.134637,0.134255,2.551,6,0.010717,10,0.000342484,-2.59329,1.28133,0.0460461,4.58186,0.134255,
2,1,0,1,0,10977.5,0.136135,0.135796,2.55947,6,0.0109097,10,0.000347566,-2.59185,4.64856,0.0126921,1.26142,0.135796,
2,1,0,1,0,10977.5,0.137633,0.137366,2.55289,6,0.0111026,10,0.000350679,-2.59297,-0.951455,-0.0620103,-6.15256,0.137366,
2,1,0,1,0,10977.6,0.139133,0.138836,2.54143,6,0.011295,10,0.000352842,-2.59492,-0.402628,-0.146537,-14.4406,0.138836,
2,1,0,1,0,10977.7,0.140628,0.140309,2.51022,6,0.0114851,10,0.000352208,-2.60029,-0.262909,-0.224412,-21.8906,0.140309,
2,1,0,1,0,10977.8,0.142128,0.141778,2.46723,6,0.0116732,10,0.000349798,-2.60779,-0.201174,-0.293279,-28.1357,0.141778,
2,1,0,1,0,10977.8,0.143626,0.143295,2.41924,6,0.0118578,10,0.000346665,-2.61632,-0.142243,-0.414782,-38.9088,0.143295,
2,1,0,1,0,10977.9,0.145124,0.144834,2.35174,6,0.012038,10,0.000340612,-2.62861,-0.109099,-0.540791,-49.423,0.144834,
2,1,0,1,0,10978,0.146622,0.146264,2.27043,6,0.0122125,10,0.000332083,-2.64389,-0.0966357,-0.61054,-53.979,0.146264,
2,1,0,1,0,10978.1,0.14812,0.147805,2.18459,6,0.0123808,10,0.000322894,-2.66063,-0.0860996,-0.685253,-58.2451,0.147805,
2,1,0,1,0,10978.1,0.149619,0.149324,2.09376,6,0.0125426,10,0.000312649,-2.67907,-0.0778957,-0.757423,-61.7744,0.149324,
2,1,0,1,0,10978.2,0.151117,0.150793,2.00387,6,0.0126974,10,0.00030217,-2.69813,-0.0715782,-0.824274,-64.2961,0.1507933,
2,1,0,1,0,10978.3,0.152615,0.152282,1.90512,6,0.0128451,10,0.000290115,-2.72008,-0.0714572,-0.825669,-61.5054,0.152282,
2,1,0,1,0,10978.4,0.154113,0.153796,1.81826,6,0.0129857,10,0.000279642,-2.74034,-0.0726263,-0.812378,-57.7312,0.153796,
2,1,0,1,0,10978.4,0.155613,0.155301,1.73463,6,0.0131202,10,0.00026939,-2.76079,-0.0772919,-0.76334,-51.725,0.155301,
2,1,0,1,0,10978.5,0.157108,0.156791,1.65659,6,0.0132484,10,0.000259738,-2.78079,-0.0747503,-0.789295,-51.1305,0.156791,
2,1,0,1,0,10978.6,0.158608,0.15832,1.58522,6,0.0133713,10,0.000250972,-2.79991,-0.0819949,-0.719557,-44.6949,0.15832,
2,1,0,1,0,10978.7,0.160106,0.159804,1.52256,6,0.0134888,10,0.000243312,-2.81743,-0.0897818,-0.657149,-39.2134,0.159804,
2,1,0,1,0,10978.7,0.161604,0.16131,1.4692,6,0.0136022,10,0.000236996,-2.83292,-0.100692,-0.585945,-33.6528,0.16131,
2,1,0,1,0,10978.8,0.163102,0.162767,1.42017,6,0.0137117,10,0.000231157,-2.84766,-0.102862,-0.573583,-31.8747,0.162767,
2,1,0,1,0,10978.9,0.164601,0.164257,1.37564,6,0.0138177,10,0.000225959,-2.86149,-0.109007,-0.541247,-29.1524,0.164257,
2,1,0,1,0,10979,0.166099,0.165738,1.33516,6,0.0139205,10,0.000221286,-2.87447,-0.12671,-0.46563,-24.3596,0.165738,
2,1,0,1,0,10979,0.167597,0.167268,1.30289,6,0.0140207,10,0.000217932,-2.88509,-0.146724,-0.402115,-20.4739,0.167268,
2,1,0,1,0,10979.1,0.169095,0.168813,1.2746,6,0.0141185,10,0.00021517,-2.89463,-0.157111,-0.375531,-18.7157,0.168813,
2,1,0,1,0,10979.2,0.170593,0.170279,1.24495,6,0.0142141,10,0.000211989,-2.90485,-0.163796,-0.360205,-17.5849,0.170279,
2,1,0,1,0,10979.3,0.172092,0.171732,1.21376,6,0.0143079,10,0.000208441,-2.91587,-0.17367,-0.339724,-16.1894,0.171732,
2,1,0,1,0,10979.3,0.173588,0.173261,1.19726,6,0.0143995,10,0.000207439,-2.92181,-0.205541,-0.287048,-13.4357,0.1732613,
2,1,0,1,0,10979.4,0.175088,0.174767,1.17854,6,0.0144899,10,0.000205969,-2.92866,-0.244862,-0.240952,-11.0851,0.174767,
2,1,0,1,0,10979.5,0.176586,0.176259,1.15923,6,0.0145787,10,0.000204325,-2.93583,-0.214793,-0.274683,-12.4194,0.176259,
2,1,0,1,0,10979.6,0.178084,0.177783,1.13964,6,0.0146663,10,0.000202608,-2.94323,-0.252829,-0.233359,-10.4234,0.177783,
2,1,0,1,0,10979.6,0.179582,0.179236,1.12792,6,0.0147527,10,0.000202163,-2.94772,-0.280934,-0.210014,-9.27077,0.179236,
2,1,0,1,0,10979.7,0.181081,0.180759,1.11773,6,0.0148381,10,0.00020204,-2.95166,-0.336386,-0.175394,-7.6622,0.180759,
2,1,0,1,0,10979.8,0.182579,0.182278,1.10507,6,0.0149227,10,0.000201429,-2.95661,-0.290791,-0.202895,-8.73718,0.182278,
2,1,0,1,0,10979.9,0.184077,0.183803,1.09262,6,0.0150064,10,0.000200828,-2.96153,-0.368912,-0.15993,-6.83901,0.183803,
2,1,0,1,0,10979.9,0.185577,0.185328,1.08616,6,0.0150892,10,0.000201295,-2.96411,-0.41973,-0.140566,-5.94955,0.1853279,
2,1,0,1,0,10980,0.187073,0.186795,1.07689,6,0.0151713,10,0.000201159,-2.96783,-0.514392,-0.114699,-4.80745,0.186795,
2,1,0,1,0,10980.1,0.188572,0.188261,1.06765,6,0.015253,10,0.000200997,-2.97157,-0.514106,-0.114762,-4.77833,0.188261,
2,1,0,1,0,10980.2,0.19007,0.189784,1.0602,6,0.0153339,10,0.000201208,-2.97461,-0.493446,-0.119567,-4.94184,0.1897836,
2,1,0,1,0,10980.2,0.191568,0.191279,1.05005,6,0.0154143,10,0.000200852,-2.97879,-0.49573,-0.119017,-4.8853,0.191279,
2,1,0,1,0,10980.3,0.193066,0.192722,1.04437,6,0.0154941,10,0.000201273,-2.98115,-0.883037,-0.0668149,-2.72905,0.192722,
2,1,0,1,0,10980.4,0.194564,0.19424,1.04232,6,0.0155736,10,0.00020246,-2.982,-0.630589,-0.0935634,-3.79854,0.19424,
2,1,0,1,0,10980.5,0.196063,0.195744,1.03324,6,0.0156527,10,0.000202251,-2.9858,-0.471467,-0.125141,-5.0538,0.195744,
2,1,0,1,0,10980.5,0.197561,0.197249,1.02478,6,0.0157312,10,0.000202136,-2.98937,-0.69801,-0.084526,-3.39508,0.197249,
2,1,0,1,0,10980.6,0.199059,0.198744,1.02499,6,0.0158093,10,0.00020371,-2.98928,-0.665025,-0.0887184,-3.54424,0.198744,
2,1,0,1,0,10980.7,0.200557,0.200247,1.02089,6,0.0158871,10,0.000204431,-2.99102,-0.693756,-0.0850443,-3.37662,0.200247,
2,1,0,1,0,10980.8,0.202057,0.201752,1.01556,6,0.0159647,10,0.000204891,-2.9933,-0.663451,-0.0889289,-3.50757,0.201752,
2,1,0,1,0,10980.8,0.203552,0.203283,1.00908,6,0.0160417,10,0.000205128,-2.99608,-1.03265,-0.0571345,-2.25056,0.203283,
2,1,0,1,0,10980.9,0.205052,0.204726,1.00345,6,0.0161184,10,0.000205432,-2.99851,-8.82965,-0.00668203,-0.263966,0.204726,
2,1,0,1,0,10981,0.20655,0.206199,0.999796,6,0.0161949,10,0.000206157,-3.00009,-1.36527,-0.0432148,-1.68816,0.206199,
2,1,0,1,0,10981.1,0.208048,0.207689,0.997368,6,0.0162715,10,0.000207142,-3.00114,-0.803301,-0.073447,-2.85158,0.207689,
2,1,0,1,0,10981.1,0.209546,0.20926,0.992561,6,0.0163474,10,0.000207703,-3.00324,-0.75354,-0.0782971,-3.04459,0.20926,
2,1,0,1,0,10981.2,0.211044,0.210727,0.989659,6,0.0164229,10,0.000208548,-3.00451,-0.724882,-0.0813926,-3.14412,0.210727,
2,1,0,1,0,10981.3,0.212543,0.212222,0.985632,6,0.0164983,10,0.000209173,-3.00629,-1.03308,-0.0571109,-2.19481,0.212222,
2,1,0,1,0,10981.4,0.214041,0.213714,0.983303,6,0.0165735,10,0.000210146,-3.00731,-0.824287,-0.071577,-2.74679,0.213714,
2,1,0,1,0,10981.4,0.215539,0.215216,0.979702,6,0.0166483,10,0.000210848,-3.00891,-0.905992,-0.065122,-2.49222,0.215216,
2,1,0,1,0,10981.5,0.217037,0.216684,0.975139,6,0.0167229,10,0.000211297,-3.01093,-1.45861,-0.0404496,-1.54442,0.216684,
2,1,0,1,0,10981.6,0.218536,0.21824,0.973382,6,0.0167973,10,0.00021243,-3.01172,-16.0471,-0.00367667,-0.139553,0.21824,
2,1,0,1,0,10981.7,0.220032,0.219718,0.971684,6,0.0168715,10,0.000213497,-3.01248,-1.44096,-0.0409448,-1.55087,0.219718,
2,1,0,1,0,10981.7,0.221532,0.221257,0.967624,6,0.0169458,10,0.000214094,-3.01429,-0.817758,-0.0721485,-2.72928,0.221257,
2,1,0,1,0,10981.8,0.22303,0.222711,0.963293,6,0.0170195,10,0.000214536,-3.01624,-1.23162,-0.0479045,-1.8056,0.222711,
2,1,0,1,0,10981.9,0.224528,0.224248,0.963145,6,0.017093,10,0.000215983,-3.01631,-1.03954,-0.0567561,-2.13028,0.224248,
2,1,0,1,0,10982,0.226026,0.225664,0.959257,6,0.0171664,10,0.00021647,-3.01806,-1.81629,-0.0324838,-1.21649,0.225664,
2,1,0,1,0,10982,0.227525,0.22718,0.956889,6,0.0172396,10,0.000217386,-3.01914,-0.83448,-0.0707027,-2.63919,0.22718,
2,1,0,1,0,10982.1,0.229023,0.228718,0.954433,6,0.0173125,10,0.000218296,-3.02025,-1.10431,-0.0534269,-1.99371,0.228718,
2,1,0,1,0,10982.2,0.230521,0.23021,0.951197,6,0.0173852,10,0.000218975,-3.02173,-1.45899,-0.040439,-1.5075,0.23021,
2,1,0,1,0,10982.3,0.232019,0.231691,0.953236,6,0.0174578,10,0.000220856,-3.0208,-1.81062,-0.0325855,-1.20833,0.231691,
2,1,0,1,0,10982.3,0.233517,0.233243,0.949782,6,0.0175304,10,0.00022153,-3.02238,-1.50935,-0.0390895,-1.44443,0.233243,
2,1,0,1,0,10982.4,0.235016,0.234717,0.945956,6,0.0176028,10,0.000222032,-3.02413,-1.25456,-0.0470283,-1.73503,0.2347171,
2,1,0,1,0,10982.5,0.236512,0.236209,0.942777,6,0.0176746,10,0.000222693,-3.02559,-1.70798,-0.0345437,-1.27143,0.236209,
2,1,0,1,0,10982.6,0.238012,0.237696,0.941295,6,0.0177467,10,0.000223742,-3.02627,4.99586,0.0118098,0.433809,0.237696,
2,1,0,1,0,10982.6,0.23951,0.239228,0.936999,6,0.0178186,10,0.000224156,-3.02826,-1.40182,-0.042088,-1.54299,0.239228,
2,1,0,1,0,10982.7,0.241008,0.240698,0.937331,6,0.0178903,10,0.000225614,-3.02811,-1.69565,-0.0347949,-1.27471,0.240698,
2,1,0,1,0,10982.8,0.242506,0.242209,0.931719,6,0.0179617,10,0.00022567,-3.03072,-1.45409,-0.0405752,-1.48198,0.2422086,
2,1,0,1,0,10982.9,0.244005,0.243687,0.934107,6,0.018033,10,0.000227629,-3.0296,-3.71413,-0.0158853,-0.579026,0.243687,
2,1,0,1,0,10982.9,0.245503,0.2452,0.933459,6,0.0181043,10,0.000228884,-3.0299,-2.37205,-0.024873,-0.906762,0.2452,
2,1,0,1,0,10983,0.247001,0.246698,0.933865,6,0.0181754,10,0.000230382,-3.02972,-1.48235,-0.0398017,-1.44462,0.246698,
2,1,0,1,0,10983.1,0.248501,0.248188,0.924763,6,0.0182464,10,0.000229515,-3.03397,-1.62992,-0.0361982,-1.31042,0.248188,
2,1,0,1,0,10983.2,0.249997,0.249687,0.926562,6,0.0183171,10,0.00023135,-3.03313,-1.95743,-0.0301415,-1.0895,0.249687,
2,1,0,1,0,10983.2,0.251496,0.251159,0.924246,6,0.0183878,10,0.000232133,-3.03421,-5.08033,-0.0116134,-0.419009,0.251159,
2,1,0,1,0,10983.3,0.252994,0.252678,0.923811,6,0.0184584,10,0.000233427,-3.03442,-0.963568,-0.0612308,-2.2008,0.252678,
2,1,0,1,0,10983.4,0.254492,0.254223,0.922628,6,0.0185288,10,0.000234553,-3.03497,-1.51019,-0.0390679,-1.40392,0.254223,
2,1,0,1,0,10983.5,0.25599,0.255688,0.918458,6,0.0185989,10,0.000234838,-3.03694,-2.1833,-0.0270234,-0.969618,0.2556878,
2,1,0,1,0,10983.5,0.257488,0.257219,0.917518,6,0.0186691,10,0.000236003,-3.03739,-2.1042,-0.0280391,-1.00455,0.257219,
2,1,0,1,0,10983.6,0.258987,0.258697,0.916372,6,0.0187392,10,0.000237063,-3.03793,-1.37591,-0.0428808,-1.5339,0.258697,
2,1,0,1,0,10983.7,0.260485,0.260198,0.915397,6,0.0188091,10,0.000238185,-3.03839,-1.33897,-0.0440637,-1.57133,0.260198,
2,1,0,1,0,10983.8,0.261983,0.261696,0.913659,6,0.0188787,10,0.0002391,-3.03922,-1.91992,-0.0307304,-1.09236,0.261696,
2,1,0,1,0,10983.8,0.263481,0.263187,0.910209,6,0.0189483,10,0.000239555,-3.04086,-7.80993,-0.00755449,-0.268045,0.2631869,
2,1,0,1,0,10983.9,0.264981,0.264672,0.908723,6,0.0190178,10,0.000240514,-3.04157,-1.86429,-0.0316475,-1.12563,0.2646721,
2,1,0,1,0,10984,0.266476,0.266163,0.905704,6,0.019087,10,0.000241065,-3.04301,-1.27327,-0.0463374,-1.64037,0.266163,
2,1,0,1,0,10984.1,0.267976,0.267699,0.903107,6,0.0191563,10,0.000241761,-3.04426,-1.84404,-0.0319949,-1.13098,0.267699,
2,1,0,1,0,10984.1,0.269474,0.269204,0.902597,6,0.0192253,10,0.000242983,-3.04451,7.9436,0.00742737,0.261488,0.269204,
2,1,0,1,0,10984.2,0.270972,0.270666,0.906078,6,0.0192943,10,0.000245244,-3.04283,-1.31465,-0.0448789,-1.57841,0.270666,
2,1,0,1,0,10984.3,0.27247,0.272189,0.902265,6,0.0193632,10,0.000245586,-3.04467,-1.1087,-0.0532153,-1.86319,0.2721886,
2,1,0,1,0,10984.4,0.273968,0.273671,0.895768,6,0.0194319,10,0.000245146,-3.0478,-1.08713,-0.0542716,-1.90491,0.273671,
2,1,0,1,0,10984.4,0.275467,0.275203,0.89594,6,0.0195004,10,0.000246565,-3.04772,-2.34981,-0.0251084,-0.880308,0.275203,
2,1,0,1,0,10984.5,0.276965,0.276726,0.893901,6,0.0195688,10,0.000247365,-3.04871,-2.24798,-0.0262458,-0.915605,0.276726,
2,1,0,1,0,10984.6,0.278463,0.278113,0.89172,6,0.0196371,10,0.000247999,-3.04977,-0.719097,-0.0820473,-2.85597,0.278113,
2,1,0,1,0,10984.7,0.279961,0.279654,0.891012,6,0.0197053,10,0.000249175,-3.05012,-1.80464,-0.0326935,-1.13586,0.279654,
2,1,0,1,0,10984.7,0.28146,0.281124,0.888516,6,0.0197733,10,0.000249783,-3.05133,-2.14105,-0.0275566,-0.956197,0.281124,
2,1,0,1,0,10984.8,0.282956,0.28265,0.888478,6,0.019841,10,0.000251128,-3.05135,-2.12116,-0.027815,-0.960215,0.28265,
2,1,0,1,0,10984.9,0.284456,0.28414,0.885265,6,0.0199089,10,0.000251539,-3.05293,-1.1535,-0.0511489,-1.76567,0.28414,
2,1,0,1,0,10985,0.285954,0.285664,0.881395,6,0.0199765,10,0.000251783,-3.05483,-1.55545,-0.0379311,-1.30635,0.285664,
2,1,0,1,0,10985,0.287452,0.287103,0.879686,6,0.0200439,10,0.00025256,-3.05567,-1.18108,-0.0499541,-1.72193,0.287103,
2,1,0,1,0,10985.1,0.28895,0.28867,0.879245,6,0.0201111,10,0.000253811,-3.05589,-2.79423,-0.0211149,-0.723879,0.28867,
2,1,0,1,0,10985.2,0.290449,0.290123,0.877379,6,0.0201783,10,0.000254548,-3.05681,-1.11663,-0.0528374,-1.81207,0.290123,
2,1,0,1,0,10985.3,0.291947,0.291616,0.87494,6,0.0202454,10,0.000255147,-3.05802,-1.00867,-0.058493,-1.99911,0.291616,
2,1,0,1,0,10985.3,0.293445,0.293146,0.870811,6,0.0203122,10,0.000255275,-3.06008,-1.67609,-0.0352011,-1.20285,0.293146,
2,1,0,1,0,10985.4,0.294943,0.294631,0.8741,6,0.0203789,10,0.000257537,-3.05844,-1.70698,-0.034564,-1.17834,0.294631,
2,1,0,1,0,10985.5,0.296441,0.296135,0.873029,6,0.0204456,10,0.000258534,-3.05897,-1.93204,-0.0305377,-1.03595,0.296135,
2,1,0,1,0,10985.6,0.29794,0.297666,0.870234,6,0.0205123,10,0.000259039,-3.06036,-0.860227,-0.0685865,-2.31611,0.297666,
2,1,0,1,0,10985.6,0.299436,0.299124,0.865211,6,0.0205785,10,0.000258806,-3.06288,-0.002152,-27.4164,-415.702,0.299124,
2,1,0,1,0,10985.7,0.299739,0.299407,0.455595,6,0.0206109,10,0.000136408,-3.34142,0.00129516,45.5542,813.949,0.299407,
2,0,0,1,0,10985.8,0.298239,0.297968,-0.063398,6,0.0206171,10,-1.88906e-05,-4.19792,0.00547232,10.7815,266.592,0.297968,
2,0,0,1,0,10985.8,0.296741,0.29645,-0.147636,6,0.0206072,10,-4.37667e-05,-3.83081,-0.00197271,-29.908,51.4049,0.29645,
2,0,0,1,0,10985.9,0.295243,0.294927,-0.19177,6,0.0205928,10,-5.65581e-05,-3.71722,-0.0154097,-3.82877,26.1581,0.294927,
2,0,0,1,0,10986,0.293745,0.293478,-0.226595,6,0.0205758,10,-6.65008e-05,-3.64475,-0.0276481,-2.13396,18.0064,0.293478,
2,0,0,1,0,10986.1,0.292246,0.291936,-0.248631,6,0.0205567,10,-7.25846e-05,-3.60444,-0.0347253,-1.69905,16.184,0.291936,
2,0,0,1,0,10986.1,0.290748,0.290471,-0.26985,6,0.0205358,10,-7.83834e-05,-3.56888,-0.0481355,-1.22571,12.7651,0.290471,
2,0,0,1,0,10986.2,0.28925,0.288932,-0.291223,6,0.0205133,10,-8.41437e-05,-3.53577,-0.0561769,-1.05025,11.7652,0.288932,
2,0,0,1,0,10986.3,0.287752,0.287398,-0.306586,6,0.0204896,10,-8.81123e-05,-3.51345,-0.0702254,-0.840152,10.0493,0.287398,
2,0,0,1,0,10986.4,0.286254,0.285923,-0.319347,6,0.0204648,10,-9.13086e-05,-3.49574,-0.0753482,-0.783031,9.80619,0.285923,
2,0,0,1,0,10986.4,0.284754,0.284454,-0.339527,6,0.0204387,10,-9.65797e-05,-3.46913,-0.0719336,-0.820201,10.6731,0.284454,
2,0,0,1,0,10986.5,0.283259,0.282954,-0.350816,6,0.0204116,10,-9.92646e-05,-3.45492,-0.0911167,-0.647521,8.81665,0.282954,
2,0,0,1,0,10986.6,0.281759,0.281448,-0.36231,6,0.0203835,10,-0.000101971,-3.44092,-0.107796,-0.547328,7.68434,0.281448,
2,0,0,1,0,10986.7,0.280261,0.279917,-0.371735,6,0.0203546,10,-0.000104055,-3.42977,-0.10377,-0.568565,8.27001,0.279917,
2,0,0,1,0,10986.7,0.278763,0.278419,-0.38387,6,0.0203249,10,-0.000106876,-3.41582,-0.129976,-0.453929,6.81877,0.278419,
2,0,0,1,0,10986.8,0.277264,0.27697,-0.39536,6,0.0202944,10,-0.000109503,-3.40301,-0.144561,-0.408132,6.28432,0.27697,
2,0,0,1,0,10986.9,0.275766,0.275441,-0.40166,6,0.0202631,10,-0.000110634,-3.39614,-0.18879,-0.312517,4.89549,0.275441,
2,0,0,1,0,10987,0.274268,0.273896,-0.413193,6,0.0202311,10,-0.000113172,-3.38385,-0.16882,-0.349485,5.62639,0.273896,
2,0,0,1,0,10987,0.27277,0.272479,-0.420939,6,0.0201986,10,-0.000114697,-3.37578,-0.155383,-0.379708,6.28287,0.272479,
2,0,0,1,0,10987.1,0.271272,0.270959,-0.431785,6,0.0201653,10,-0.000116996,-3.36473,-0.181967,-0.324234,5.45164,0.270959,
2,0,0,1,0,10987.2,0.269774,0.269477,-0.441417,6,0.0201313,10,-0.000118952,-3.35515,-0.193828,-0.304393,5.21787,0.269477,
2,0,0,1,0,10987.3,0.268274,0.267951,-0.447515,6,0.0200966,10,-0.000119912,-3.34919,-0.194429,-0.303452,5.28203,0.267951,
2,0,0,1,0,10987.3,0.266779,0.266479,-0.452589,6,0.0200616,10,-0.000120605,-3.3443,-0.196157,-0.30078,5.3464,0.266479,
2,0,0,1,0,10987.4,0.265279,0.264955,-0.460929,6,0.0200258,10,-0.000122125,-3.33637,-0.180055,-0.327678,5.90377,0.264955,
2,0,0,1,0,10987.5,0.263781,0.263462,-0.468331,6,0.0199895,10,-0.000123387,-3.32945,-0.203169,-0.290398,5.33159,0.263462,
2,0,0,1,0,10987.6,0.262283,0.261962,-0.476581,6,0.0199526,10,-0.000124846,-3.32186,-0.234343,-0.251767,4.68055,0.261962,
2,0,0,1,0,10987.6,0.260784,0.260516,-0.480484,6,0.0199153,10,-0.000125174,-3.31832,-0.2301,-0.25641,4.8633,0.2605156,
2,0,0,1,0,10987.7,0.259286,0.258989,-0.492785,6,0.0198774,10,-0.000127626,-3.30734,-0.220709,-0.267321,5.1214,0.258989,
2,0,0,1,0,10987.8,0.257788,0.257498,-0.502926,6,0.019839,10,-0.000129502,-3.2985,-0.252724,-0.233456,4.52492,0.257498,
2,0,0,1,0,10987.9,0.25629,0.256014,-0.505362,6,0.0198,10,-0.00012938,-3.2964,-0.295838,-0.199433,3.90386,0.256014,
2,0,0,1,0,10987.9,0.25479,0.254463,-0.508026,6,0.0197606,10,-0.000129274,-3.29411,-0.263883,-0.223584,4.44986,0.254463,
2,0,0,1,0,10988,0.253294,0.252941,-0.518177,6,0.0197209,10,-0.000131068,-3.28552,-0.293517,-0.201011,4.05132,0.2529408,
2,0,0,1,0,10988.1,0.251795,0.251507,-0.520203,6,0.0196805,10,-0.000130835,-3.28383,-0.289837,-0.203562,4.15937,0.251507,
2,0,0,1,0,10988.2,0.250297,0.249976,-0.52561,6,0.0196398,10,-0.00013139,-3.27934,-0.397678,-0.148361,3.05301,0.249976,
2,0,0,1,0,10988.2,0.248799,0.248444,-0.53519,6,0.0195985,10,-0.000132965,-3.27149,-0.313471,-0.188215,3.92712,0.248444,
2,0,0,1,0,10988.3,0.247301,0.247014,-0.540373,6,0.0195571,10,-0.00013348,-3.26731,-0.346255,-0.170394,3.59685,0.247014,
2,0,0,1,0,10988.4,0.245802,0.245493,-0.547273,6,0.019515,10,-0.000134351,-3.2618,-0.308936,-0.190978,4.05182,0.245493,
2,0,0,1,0,10988.5,0.244304,0.243969,-0.550504,6,0.0194723,10,-0.000134306,-3.25924,-0.302885,-0.194793,4.18509,0.243969,
2,0,0,1,0,10988.5,0.242806,0.242474,-0.557313,6,0.0194293,10,-0.000135134,-3.2539,-0.621327,-0.094958,2.06924,0.242474,
2,0,0,1,0,10988.6,0.241308,0.241025,-0.561883,6,0.0193861,10,-0.000135428,-3.25035,-0.407469,-0.144796,3.18716,0.241025,
2,0,0,1,0,10988.7,0.23981,0.239477,-0.567633,6,0.0193424,10,-0.000135935,-3.24593,-0.27659,-0.213312,4.70913,0.239477,
2,0,0,1,0,10988.8,0.23831,0.23801,-0.574813,6,0.0192981,10,-0.000136811,-3.24047,-0.34421,-0.171407,3.83881,0.23801,
2,0,0,1,0,10988.8,0.236815,0.236512,-0.579427,6,0.0192535,10,-0.000137042,-3.237,-0.346633,-0.170209,3.85155,0.2365125,
2,0,0,1,0,10988.9,0.235315,0.234954,-0.582262,6,0.0192086,10,-0.000136805,-3.23488,-0.337082,-0.175032,3.99974,0.234954,
2,0,0,1,0,10989,0.233817,0.233523,-0.58994,6,0.0191632,10,-0.000137764,-3.22919,-0.340031,-0.173514,3.99136,0.233523,
2,0,0,1,0,10989.1,0.232319,0.231988,-0.597248,6,0.0191173,10,-0.000138554,-3.22385,-0.365619,-0.16137,3.74599,0.2319877,
2,0,0,1,0,10989.1,0.230821,0.230483,-0.600003,6,0.019071,10,-0.00013829,-3.22185,-0.618206,-0.0954375,2.23604,0.230483,
2,0,0,1,0,10989.2,0.229322,0.228988,-0.606299,6,0.0190244,10,-0.000138835,-3.21731,-0.443512,-0.133029,3.15003,0.228988,
2,0,0,1,0,10989.3,0.227824,0.227503,-0.608236,6,0.0189775,10,-0.000138375,-3.21593,-0.447058,-0.131974,3.14902,0.227503,
2,0,0,1,0,10989.4,0.226326,0.226008,-0.616053,6,0.0189301,10,-0.000139233,-3.21038,-0.395135,-0.149316,3.59023,0.226008,
2,0,0,1,0,10989.4,0.224828,0.224543,-0.622244,6,0.0188823,10,-0.000139721,-3.20604,-0.538296,-0.109605,2.66006,0.224543,
2,0,0,1,0,10989.5,0.22333,0.223011,-0.629653,6,0.0188341,10,-0.000140419,-3.2009,-0.423458,-0.139329,3.4047,0.223011,
2,0,0,1,0,10989.6,0.22183,0.221526,-0.632402,6,0.0187856,10,-0.000140094,-3.19901,-0.369619,-0.159624,3.9436,0.2215264,
2,0,0,1,0,10989.7,0.220335,0.220008,-0.637621,6,0.0187367,10,-0.000140281,-3.19544,-0.368515,-0.160102,3.9714,0.220008,
2,0,0,1,0,10989.7,0.218835,0.218522,-0.643862,6,0.0186872,10,-0.000140698,-3.19121,-0.359506,-0.164114,4.12349,0.218522,
2,0,0,1,0,10989.8,0.217337,0.217033,-0.647523,6,0.0186375,10,-0.000140534,-3.18875,-0.610543,-0.0966352,2.44688,0.217033,
2,0,0,1,0,10989.9,0.215839,0.215521,-0.649972,6,0.0185875,10,-0.000140083,-3.18711,-0.451468,-0.130685,3.33524,0.215521,
2,0,0,1,0,10990,0.21434,0.214022,-0.657819,6,0.018537,10,-0.000140788,-3.18189,-0.343936,-0.171543,4.39696,0.214022,
2,0,0,1,0,10990,0.212842,0.212513,-0.663098,6,0.0184861,10,-0.000140917,-3.17842,-0.420242,-0.140395,3.64189,0.212513,
2,0,0,1,0,10990.1,0.211344,0.211065,-0.670605,6,0.0184347,10,-0.000141541,-3.17353,-0.53308,-0.110678,2.89271,0.211065,
2,0,0,1,0,10990.2,0.209846,0.20952,-0.669811,6,0.018383,10,-0.000140339,-3.17405,-0.510037,-0.115678,3.04238,0.20952,
2,0,0,1,0,10990.3,0.208348,0.208045,-0.679653,6,0.018331,10,-0.000141398,-3.16771,-0.304214,-0.193942,5.1609,0.208045,
2,0,0,1,0,10990.3,0.20685,0.206501,-0.694637,6,0.0182783,10,-0.000143443,-3.15824,-0.350743,-0.168214,4.49532,0.2065011,
2,0,0,1,0,10990.4,0.20535,0.205019,-0.694902,6,0.018225,10,-0.000142468,-3.15808,-0.55915,-0.105517,2.84552,0.205019,
2,0,0,1,0,10990.5,0.203855,0.203504,-0.695193,6,0.0181716,10,-0.000141474,-3.15789,-0.423975,-0.139159,3.79881,0.203504,
2,0,0,1,0,10990.6,0.202355,0.20205,-0.700716,6,0.0181177,10,-0.00014158,-3.15446,-0.34654,-0.170255,4.67554,0.20205,
2,0,0,1,0,10990.6,0.200857,0.200578,-0.710434,6,0.0180633,10,-0.000142498,-3.14848,-0.331018,-0.178238,4.93293,0.200578,
2,0,0,1,0,10990.7,0.199359,0.199043,-0.716402,6,0.0180085,10,-0.000142595,-3.14484,-0.468421,-0.125955,3.5169,0.199043,
2,0,0,1,0,10990.8,0.19786,0.197552,-0.72177,6,0.0179532,10,-0.000142587,-3.1416,-0.371409,-0.158854,4.48089,0.197552,
2,0,0,1,0,10990.9,0.196362,0.196072,-0.729231,6,0.0178975,10,-0.000142982,-3.13713,-0.367618,-0.160493,4.55803,0.196072,
2,0,0,1,0,10990.9,0.194864,0.194563,-0.737705,6,0.0178412,10,-0.00014353,-3.13212,-0.376611,-0.15666,4.49561,0.194563,
2,0,0,1,0,10991,0.193366,0.193012,-0.744254,6,0.0177843,10,-0.00014365,-3.12828,-0.349916,-0.168612,4.89779,0.193012,
2,0,0,1,0,10991.1,0.191866,0.191522,-0.749559,6,0.0177269,10,-0.000143557,-3.12519,-0.484331,-0.121818,3.57921,0.191522,
2,0,0,1,0,10991.2,0.19037,0.190081,-0.755002,6,0.0176692,10,-0.000143512,-3.12205,-0.344694,-0.171166,5.06615,0.190081,
2,0,0,1,0,10991.2,0.188871,0.188534,-0.762906,6,0.0176108,10,-0.000143834,-3.11753,-0.356959,-0.165285,4.93207,0.188534,
2,0,0,1,0,10991.3,0.187373,0.187042,-0.772866,6,0.0175519,10,-0.000144558,-3.1119,-0.322581,-0.1829,5.51644,0.187042,
2,0,0,1,0,10991.4,0.185875,0.185539,-0.781021,6,0.0174923,10,-0.000144909,-3.10734,-0.356648,-0.165429,5.01946,0.185539,
2,0,0,1,0,10991.5,0.184377,0.18408,-0.782551,6,0.0174322,10,-0.000144052,-3.10649,-0.325342,-0.181348,5.57511,0.18408,
2,0,0,1,0,10991.5,0.182878,0.182528,-0.796295,6,0.0173716,10,-0.000145346,-3.09893,-0.285505,-0.206651,6.43713,0.182528,
2,0,0,1,0,10991.6,0.18138,0.181062,-0.804914,6,0.01731,10,-0.00014574,-3.09425,-0.244523,-0.241286,7.61278,0.1810623,
2,0,0,1,0,10991.7,0.179882,0.179576,-0.815241,6,0.0172477,10,-0.000146397,-3.08871,-0.427707,-0.137945,4.39295,0.1795758,
2,0,0,1,0,10991.8,0.178384,0.178074,-0.825902,6,0.0171847,10,-0.000147072,-3.08307,-0.300243,-0.196507,6.35216,0.1780742,
2,0,0,1,0,10991.8,0.176886,0.176612,-0.838873,6,0.0171211,10,-0.000148155,-3.0763,-0.261509,-0.225614,7.38955,0.176612,
2,0,0,1,0,10991.9,0.175386,0.175101,-0.851233,6,0.0170565,10,-0.000149051,-3.06995,-0.21237,-0.277817,9.20476,0.175101,
2,0,0,1,0,10992,0.173891,0.173553,-0.862084,6,0.0169911,10,-0.000149617,-3.06445,-0.225509,-0.261631,8.79961,0.173553,
2,0,0,1,0,10992.1,0.172391,0.172067,-0.874184,6,0.0169245,10,-0.000150419,-3.0584,-0.219577,-0.268698,9.17869,0.172067,
2,0,0,1,0,10992.1,0.170893,0.170569,-0.886264,6,0.0168572,10,-0.000151169,-3.05244,-0.217746,-0.270957,9.42876,0.170569,
2,0,0,1,0,10992.2,0.169395,0.169092,-0.903396,6,0.0167888,10,-0.000152757,-3.04412,-0.178003,-0.331456,11.6673,0.169092,
2,0,0,1,0,10992.3,0.167897,0.167576,-0.920007,6,0.0167191,10,-0.000154171,-3.03621,-0.186718,-0.315984,11.3391,0.167576,
2,0,0,1,0,10992.3,0.166398,0.16608,-0.936143,6,0.0166481,10,-0.000155475,-3.02866,-0.201493,-0.292814,10.7471,0.16608,
2,0,0,1,0,10992.4,0.1649,0.16455,-0.950476,6,0.0165759,10,-0.000156401,-3.02206,-0.16036,-0.367923,13.7673,0.16455,
2,0,0,1,0,10992.5,0.163402,0.163096,-0.975975,6,0.0165022,10,-0.000159178,-3.01056,-0.152427,-0.387071,14.7596,0.163096,
2,0,0,1,0,10992.6,0.161904,0.161552,-1.00007,6,0.0164268,10,-0.000161563,-2.99997,-0.147318,-0.400495,15.6001,0.1615523,
2,0,0,1,0,10992.6,0.160406,0.160079,-1.0266,6,0.0163496,10,-0.000164337,-2.9886,-0.143115,-0.412255,16.4681,0.160079,
2,0,0,1,0,10992.7,0.158906,0.15858,-1.04935,6,0.0162704,10,-0.000166406,-2.97908,-0.131422,-0.448937,18.4685,0.15858,
2,0,0,1,0,10992.8,0.157411,0.157067,-1.08198,6,0.0161894,10,-0.000169943,-2.96578,-0.112586,-0.524046,22.1882,0.157067,
2,0,0,1,0,10992.9,0.155911,0.155569,-1.11427,6,0.0161057,10,-0.000173346,-2.95301,-0.109001,-0.541282,23.5744,0.155569,
2,0,0,1,0,10992.9,0.154413,0.154073,-1.1501,6,0.0160193,10,-0.000177199,-2.93927,-0.106821,-0.552327,24.819,0.154073,
2,0,0,1,0,10993,0.152915,0.152568,-1.19223,6,0.0159302,10,-0.000181895,-2.92364,-0.0980823,-0.601536,28.0102,0.152568,
2,0,0,1,0,10993.1,0.151417,0.151071,-1.23558,6,0.0158381,10,-0.000186661,-2.90813,-0.0924587,-0.638123,30.8282,0.151071,
2,0,0,1,0,10993.2,0.149918,0.149568,-1.28404,6,0.0157424,10,-0.000192051,-2.89142,-0.0837421,-0.704544,35.354,0.149568,
2,0,0,1,0,10993.2,0.14842,0.148095,-1.34122,6,0.0156426,10,-0.000198628,-2.8725,-0.0799828,-0.737658,38.6681,0.148095,
2,0,0,1,0,10993.3,0.146922,0.146584,-1.40364,6,0.0155386,10,-0.000205752,-2.85274,-0.0775277,-0.761019,41.6495,0.146584,
2,0,0,1,0,10993.4,0.145424,0.145078,-1.45911,6,0.0154302,10,-0.000211685,-2.83591,-0.0745084,-0.791857,45.3951,0.145078,
2,0,0,1,0,10993.5,0.143926,0.143601,-1.5335,6,0.0153165,10,-0.000220213,-2.81432,-0.0686109,-0.859922,51.5291,0.143601,
2,0,0,1,0,10993.5,0.142426,0.142096,-1.61496,6,0.0151969,10,-0.000229479,-2.79184,-0.0703099,-0.839142,52.8656,0.142096,
2,0,0,1,0,10993.6,0.140931,0.140608,-1.69382,6,0.0150718,10,-0.000238164,-2.77113,-0.0736852,-0.800703,52.9331,0.140608,
2,0,0,1,0,10993.7,0.139431,0.139161,-1.76806,6,0.0149404,10,-0.000246045,-2.7525,-0.0742027,-0.795119,55.0637,0.1391613,
2,0,0,1,0,10993.8,0.137933,0.137675,-1.85773,6,0.014803,10,-0.000255763,-2.73102,-0.0757826,-0.778543,56.4616,0.137675,
2,0,0,1,0,10993.8,0.136435,0.136127,-1.94722,6,0.014659,10,-0.000265069,-2.71059,-0.077634,-0.759977,57.5807,0.136127,
2,0,0,1,0,10993.9,0.134936,0.134604,-2.03206,6,0.0145086,10,-0.000273523,-2.69206,-0.0859882,-0.686141,54.1398,0.134604,
2,0,0,1,0,10994,0.133438,0.133137,-2.11053,6,0.014352,10,-0.000280989,-2.67561,-0.0933203,-0.632231,51.9943,0.1331367,
2,0,0,1,0,10994.1,0.13194,0.131597,-2.18545,6,0.0141896,10,-0.000287598,-2.66046,-0.100563,-0.586698,50.0038,0.131597,
2,0,0,1,0,10994.1,0.130442,0.130105,-2.2612,6,0.0140215,10,-0.000294193,-2.64566,-0.108567,-0.543443,47.8171,0.1301048,
2,0,0,1,0,10994.2,0.128942,0.128635,-2.33049,6,0.0138478,10,-0.000299783,-2.63255,-0.129086,-0.457059,41.374,0.128635,
2,0,0,1,0,10994.3,0.127446,0.127096,-2.38737,6,0.01367,10,-0.000303426,-2.62208,-0.15082,-0.391194,36.3206,0.127096,
2,0,0,1,0,10994.4,0.125947,0.125598,-2.43408,6,0.0134878,10,-0.000305715,-2.61367,-0.171997,-0.343029,32.5451,0.125598,
2,0,0,1,0,10994.4,0.124449,0.124114,-2.48355,6,0.0133021,10,-0.000308244,-2.60493,-0.189948,-0.310611,29.9964,0.124114,
2,0,0,1,0,10994.5,0.122951,0.122639,-2.52011,6,0.0131131,10,-0.000309063,-2.59858,-0.245523,-0.240303,23.6067,0.122639,
2,0,0,1,0,10994.6,0.121453,0.121174,-2.55271,6,0.0129215,10,-0.000309322,-2.593,-0.376058,-0.15689,15.5944,0.1211739,
2,0,0,1,0,10994.7,0.119955,0.119681,-2.57075,6,0.0127281,10,-0.000307669,-2.58994,-0.46245,-0.127581,12.7907,0.119681,
2,0,0,1,0,10994.7,0.118456,0.118126,-2.5914,6,0.0125332,10,-0.000306113,-2.58646,-0.566106,-0.104221,10.5162,0.118126,
2,0,0,1,0,10994.8,0.116958,0.116597,-2.60766,6,0.0123371,10,-0.000304046,-2.58375,-1.12355,-0.0525122,5.32721,0.1165971,
2,0,0,1,0,10994.9,0.11546,0.115111,-2.60988,6,0.0121404,10,-0.000300427,-2.58338,-5.60697,-0.0105226,1.06923,0.115111,
2,0,0,1,0,10995,0.113962,0.113638,-2.60051,6,0.0119436,10,-0.000295518,-2.58494,2.02882,0.0290809,-2.9526,0.113638,
2,0,0,1,0,10995,0.112462,0.112155,-2.60091,6,0.011747,10,-0.000291704,-2.58487,1.0018,0.058894,-5.97214,0.112155,
2,0,0,1,0,10995.1,0.110967,0.110631,-2.59246,6,0.0115514,10,-0.000286805,-2.58629,0.907633,0.0650043,-6.56997,0.110631,
2,0,0,1,0,10995.2,0.109467,0.109174,-2.58103,6,0.011356,10,-0.000281782,-2.58821,0.529625,0.1114,-11.1921,0.109174,
2,0,0,1,0,10995.3,0.107969,0.107654,-2.56192,6,0.0111619,10,-0.000275801,-2.59143,0.467807,0.12612,-12.6017,0.107654,
2,0,0,1,0,10995.3,0.106471,0.10614,-2.54198,6,0.0109694,10,-0.000269807,-2.59483,0.414035,0.1425,-14.1538,0.10614,
2,0,0,1,0,10995.4,0.104973,0.104696,-2.52448,6,0.0107783,10,-0.000264304,-2.59783,0.41719,0.141422,-13.9158,0.104696,
2,0,0,1,0,10995.5,0.103474,0.103113,-2.50217,6,0.0105886,10,-0.000258007,-2.60168,0.351358,0.16792,-16.3535,0.1031132,
2,0,0,1,0,10995.6,0.101976,0.101684,-2.47333,6,0.0104009,10,-0.000251498,-2.60672,0.286284,0.206089,-19.878,0.101684,
2,0,0,1,0,10995.6,0.100478,0.100187,-2.44436,6,0.0102155,10,-0.000244894,-2.61183,0.287241,0.205403,-19.5907,0.100187,
2,0,0,1,0,10995.7,0.0989799,0.0986727,-2.41664,6,0.0100322,10,-0.000238456,-2.61679,0.33758,0.174773,-16.4818,0.0986727,
2,0,0,1,0,10995.8,0.0974817,0.0971183,-2.39143,6,0.00985089,10,-0.000232252,-2.62134,0.300175,0.196552,-18.3239,0.0971183,
2,0,0,1,0,10995.9,0.0959821,0.095657,-2.3614,6,0.00967137,10,-0.000225885,-2.62683,0.293872,0.200768,-18.4902,0.095657,
2,0,0,1,0,10995.9,0.0944866,0.0941704,-2.32672,6,0.00949455,10,-0.000219108,-2.63326,0.287139,0.205475,-18.7045,0.0941704,
2,0,0,1,0,10996,0.0929871,0.0926648,-2.30265,6,0.00931944,10,-0.000213375,-2.63777,0.309753,0.190474,-17.1387,0.0926648,
2,0,0,1,0,10996.1,0.0914889,0.0911581,-2.28196,6,0.00914633,10,-0.000208019,-2.64169,0.322638,0.182868,-16.2741,0.0911581,
2,0,0,1,0,10996.2,0.0899907,0.0896969,-2.25537,6,0.00897495,10,-0.0002023,-2.64678,0.295247,0.199833,-17.5626,0.0896969,
2,0,0,1,0,10996.2,0.0884925,0.0881551,-2.22528,6,0.00880557,10,-0.00019617,-2.65262,0.318139,0.185454,-16.1657,0.0881551,
2,0,0,1,0,10996.3,0.0869943,0.086629,-2.20642,6,0.00863813,10,-0.00019114,-2.65631,0.366863,0.160823,-13.8756,0.086629,
2,0,0,1,0,10996.4,0.0854961,0.0851544,-2.18917,6,0.00847206,10,-0.000186418,-2.65972,0.343441,0.171791,-14.6715,0.0851544,
2,0,0,1,0,10996.5,0.083998,0.0836175,-2.16687,6,0.00830743,10,-0.000181188,-2.66417,0.346565,0.170242,-14.4021,0.0836175,
2,0,0,1,0,10996.5,0.0824998,0.0821965,-2.15282,6,0.00814429,10,-0.000176954,-2.66699,0.403,0.146402,-12.302,0.0821965,
2,0,0,1,0,10996.6,0.081002,0.080733,-2.12955,6,0.00798281,10,-0.000171925,-2.67171,0.472415,0.12489,-10.4013,0.080733,
2,0,0,1,0,10996.7,0.0795025,0.0791934,-2.11745,6,0.0078221,10,-0.000167688,-2.67419,0.578938,0.101911,-8.41177,0.0791934,
2,0,0,1,0,10996.8,0.078007,0.0776603,-2.1047,6,0.00766281,10,-0.000163452,-2.67681,0.528929,0.111546,-9.14611,0.0776603,
2,0,0,1,0,10996.8,0.076507,0.0761807,-2.08922,6,0.0075042,10,-0.000159158,-2.68001,0.483059,0.122138,-9.94588,0.0761807,
2,0,0,1,0,10996.9,0.0750088,0.0746932,-2.07186,6,0.00734713,10,-0.000154754,-2.68364,0.51401,0.114784,-9.29013,0.07469324,
2,0,0,1,0,10997,0.0735106,0.0731944,-2.05758,6,0.00719109,10,-0.000150603,-2.68664,0.639069,0.0923218,-7.41198,0.0731944,
2,0,0,1,0,10997.1,0.0720124,0.0717017,-2.04382,6,0.00703596,10,-0.000146545,-2.68956,0.516986,0.114123,-9.10936,0.0717017,
2,0,0,1,0,10997.1,0.0705142,0.0701598,-2.03271,6,0.00688179,10,-0.000142614,-2.69193,0.489903,0.120432,-9.54873,0.0701598,
2,0,0,1,0,10997.2,0.0690161,0.068687,-2.016,6,0.00672875,10,-0.000138473,-2.69551,0.556143,0.106088,-8.36321,0.068687,
2,0,0,1,0,10997.3,0.0675179,0.0671696,-2.00499,6,0.00657671,10,-0.000134675,-2.69789,0.63359,0.0931202,-7.29501,0.0671696,
2,0,0,1,0,10997.4,0.0660179,0.065671,-1.99978,6,0.00642523,10,-0.000131328,-2.69902,0.538038,0.109658,-8.53175,0.065671,
2,0,0,1,0,10997.4,0.0645224,0.0641914,-1.98453,6,0.0062749,10,-0.00012739,-2.70234,0.560411,0.10528,-8.13115,0.0641914,
2,0,0,1,0,10997.5,0.0630229,0.0627464,-1.96729,6,0.00612541,10,-0.00012344,-2.70613,0.459545,0.128388,-9.86986,0.0627464,
2,0,0,1,0,10997.6,0.0615251,0.061241,-1.9539,6,0.00597726,10,-0.000119659,-2.7091,0.575478,0.102523,-7.82583,0.06124099,
2,0,0,1,0,10997.7,0.0600269,0.0596884,-1.9413,6,0.00582992,10,-0.000115873,-2.71191,0.542029,0.10885,-8.25187,0.0596884,
2,0,0,1,0,10997.7,0.0585287,0.058183,-1.92941,6,0.00568344,10,-0.000112259,-2.71457,0.461379,0.127878,-9.62351,0.058183,
2,0,0,1,0,10997.8,0.0570305,0.0566682,-1.91658,6,0.00553799,10,-0.000108609,-2.71747,0.437954,0.134717,-10.0766,0.0566682,
2,0,0,1,0,10997.9,0.0555323,0.0552041,-1.90038,6,0.0053938,10,-0.000104909,-2.72116,0.494904,0.119215,-8.85064,0.0552041,
2,0,0,1,0,10998,0.0540342,0.0537108,-1.89141,6,0.00525043,10,-0.000101589,-2.72322,0.577722,0.102125,-7.52259,0.0537108,
2,0,0,1,0,10998,0.052536,0.0522484,-1.87964,6,0.00510784,10,-9.82083e-05,-2.72592,0.480049,0.122904,-8.99659,0.0522484,
2,0,0,1,0,10998.1,0.0510378,0.0507343,-1.86315,6,0.00496639,10,-9.45255e-05,-2.72975,0.397334,0.14849,-10.7984,0.05073427,
2,0,0,1,0,10998.2,0.0495382,0.0491987,-1.84388,6,0.00482603,10,-9.07166e-05,-2.73427,0.476351,0.123858,-8.93381,0.0491987,
2,0,0,1,0,10998.3,0.0480427,0.0477371,-1.83269,6,0.00468705,10,-8.74873e-05,-2.73691,0.535388,0.1102,-7.87351,0.0477371,
2,0,0,1,0,10998.3,0.0465432,0.0462331,-1.81687,6,0.00454872,10,-8.39996e-05,-2.74068,0.454175,0.129906,-9.22868,0.0462331,
2,0,0,1,0,10998.4,0.045045,0.044742,-1.8032,6,0.00441166,10,-8.06786e-05,-2.74396,0.383916,0.153679,-10.8051,0.044742,
2,0,0,1,0,10998.5,0.0435468,0.0432318,-1.78251,6,0.00427577,10,-7.7061e-05,-2.74897,0.389396,0.151517,-10.5668,0.0432318,
2,0,0,1,0,10998.6,0.0420486,0.0417594,-1.77037,6,0.00414122,10,-7.39295e-05,-2.75194,0.421464,0.139988,-9.693,0.04175942,
2,0,0,1,0,10998.6,0.0405504,0.0402086,-1.76,6,0.00400761,10,-7.07671e-05,-2.75449,0.405297,0.145572,-9.9713,0.0402086,
2,0,0,1,0,10998.7,0.0390523,0.0386995,-1.74499,6,0.00387502,10,-6.75303e-05,-2.75821,0.345166,0.170932,-11.6059,0.0386995,
2,0,0,1,0,10998.8,0.0375541,0.0372343,-1.7232,6,0.00374376,10,-6.4162e-05,-2.76367,0.376395,0.15675,-10.574,0.0372343,
2,0,0,1,0,10998.9,0.0360559,0.0357316,-1.70889,6,0.00361388,10,-6.10615e-05,-2.76729,0.344273,0.171376,-11.4473,0.0357316,
2,0,0,1,0,10998.9,0.0345577,0.0342438,-1.69453,6,0.00348495,10,-5.80272e-05,-2.77095,0.397408,0.148462,-9.81551,0.0342438,
2,0,0,1,0,10999,0.0330582,0.0327386,-1.67938,6,0.00335704,10,-5.49805e-05,-2.77485,0.367147,0.160699,-10.5257,0.0327386,
2,0,0,1,0,10999.1,0.0315626,0.031244,-1.66497,6,0.00323061,10,-5.20203e-05,-2.77859,0.353393,0.166953,-10.8283,0.031244,
2,0,0,1,0,10999.2,0.0300631,0.0297467,-1.64457,6,0.00310521,10,-4.89205e-05,-2.78395,0.365793,0.161293,-10.3601,0.0297467,
2,0,0,1,0,10999.2,0.0285649,0.0282282,-1.63255,6,0.00298106,10,-4.60841e-05,-2.78713,0.470781,0.125324,-7.97439,0.0282282,
2,0,0,1,0,10999.3,0.0270667,0.0267609,-1.62119,6,0.00285782,10,-4.33845e-05,-2.79017,0.43291,0.136287,-8.60807,0.0267609,
2,0,0,1,0,10999.4,0.0255685,0.0252528,-1.6039,6,0.00273562,10,-4.0503e-05,-2.79482,0.334346,0.176464,-11.0537,0.02525278,
2,0,0,1,0,10999.5,0.0240704,0.0237703,-1.58655,6,0.00261469,10,-3.77128e-05,-2.79955,0.37791,0.156122,-9.70309,0.0237703,
2,0,0,1,0,10999.5,0.0225722,0.0222646,-1.57912,6,0.00249476,10,-3.51586e-05,-2.80158,0.520089,0.113442,-6.97405,0.0222646,
2,0,0,1,0,10999.6,0.021074,0.0207734,-1.56633,6,0.0023757,10,-3.2538e-05,-2.80512,0.458039,0.12881,-7.86985,0.0207734,
2,0,0,1,0,10999.7,0.0195758,0.0192855,-1.55144,6,0.00225754,10,-2.99203e-05,-2.80926,0.424356,0.139034,-8.42516,0.0192855,
2,0,0,1,0,10999.8,0.018078,0.0177712,-1.5365,6,0.00214028,10,-2.73056e-05,-2.81347,0.523875,0.112622,-6.78364,0.0177712,
2,0,0,1,0,10999.8,0.0165785,0.0162477,-1.53165,6,0.0020238,10,-2.48858e-05,-2.81484,0.577673,0.102134,-6.11293,0.0162477,
2,0,0,1,0,10999.9,0.015083,0.0147541,-1.52397,6,0.00190821,10,-2.24848e-05,-2.81702,0.820331,0.0719222,-4.27192,0.0147541,
2,0,0,1,0,11000,0.013583,0.0132936,-1.51452,6,0.00179286,10,-2.01334e-05,-2.81972,0.531707,0.110963,-6.54611,0.0132936,
2,0,0,1,0,11000.1,0.0120848,0.0117598,-1.50278,6,0.00167832,10,-1.76724e-05,-2.82311,0.575606,0.102501,-6.02958,0.01175982,
2,0,0,1,0,11000.1,0.0105866,0.0102694,-1.49725,6,0.00156471,10,-1.53759e-05,-2.82471,0.841593,0.0701051,-4.10671,0.0102694,
2,0,0,1,0,11000.2,0.00908846,0.00877401,-1.49083,6,0.00145141,10,-1.30806e-05,-2.82657,1.18244,0.0498966,-2.90366,0.00877401,
2,0,0,1,0,11000.3,0.00759027,0.00728413,-1.48686,6,0.00133844,10,-1.08304e-05,-2.82773,0.835202,0.0706416,-4.09589,0.00728413,
2,0,0,1,0,11000.4,0.00609208,0.00577992,-1.48439,6,0.00122583,10,-8.57963e-06,-2.82845,1.66079,0.0355252,-2.05322,0.00577992,
2,0,0,1,0,11000.4,0.00459389,0.00430966,-1.47991,6,0.00111374,10,-6.3779e-06,-2.82976,1.3419,0.0439676,-2.53922,0.00430966,
2,0,0,1,0,11000.5,0.00309391,0.00279784,-1.47884,6,0.00100164,10,-4.13755e-06,-2.83008,-1.4067,-0.0419422,2.423,0.00279784,
2,0,0,1,0,11000.6,0.0015984,0.00121709,-1.49568,6,0.000888671,10,-1.82037e-06,-2.82516, , , ,0.00121709,
2,0,0,1,0,11000.7,0.000199195,-0.000186171,-1.47706,6,0.000783394,10,2.74985e-07,-2.8306, , , ,-0.000186171,