File: Figure_codes/Fig_3-5/rawdata_trumpetplot_data/after 10th/20221101_1-115_003_TrumpetPlot_ParaChange_from10_every3_10_CV_C01_14.csv
mode,ox/red,error,control changes,counter inc.,time/s,control/V,Ewe/V,<I>/mA,cycle number,(Q-Qo)/C,I Range,P/W,log(|I|),Tafel slope mV/dec,alpha_eff,dI/d(E-IR),E-IR/V,
2,1,0,0,0,28772.3,-2.44065e-05,-0.000458935,5.06582,15,0.0000000E+000,10,-2.32488e-06,-2.29535, , , ,-0.000458935,
2,1,0,1,0,28772.4,0.00179726,0.00139572,5.83162,15,4.84443e-05,10,8.13928e-06,-2.23421, , , ,0.00139572,
2,1,0,1,0,28772.4,0.00379485,0.00348578,6.43615,15,0.000110066,10,2.2435e-05,-2.19137,0.0566131,1.04216,257.948,0.00348578,
2,1,0,1,0,28772.4,0.00579244,0.00546609,6.88156,15,0.000176776,10,3.76152e-05,-2.16231,0.0763343,0.772916,206.254,0.00546609,
2,1,0,1,0,28772.4,0.00779002,0.00745833,7.25551,15,0.000247544,10,5.41139e-05,-2.13933,0.0941993,0.626332,176.765,0.00745833,
2,1,0,1,0,28772.4,0.00977853,0.00949163,7.59314,15,0.000321159,10,7.20713e-05,-2.11958,0.114874,0.513608,151.432,0.00949163,
2,1,0,1,0,28772.4,0.0117761,0.0114646,7.86218,15,0.000398508,10,9.01365e-05,-2.10446,0.13623,0.433093,132.722,0.0114646,
2,1,0,1,0,28772.4,0.0137737,0.013441,8.1173,15,0.000478462,10,0.000109104,-2.09059,0.15647,0.37707,119.159,0.01344097,
2,1,0,1,0,28772.4,0.0157713,0.0154503,8.33712,15,0.000560792,10,0.000128811,-2.07898,0.177488,0.332417,108.107,0.0154503,
2,1,0,1,0,28772.4,0.017778,0.0174684,8.55269,15,0.000645313,10,0.000149402,-2.0679,0.203575,0.28982,96.4529,0.0174684,
2,1,0,1,0,28772.4,0.0197755,0.0194283,8.72081,15,0.000731706,10,0.000169431,-2.05944,0.230868,0.255557,87.0204,0.0194283,
2,1,0,1,0,28772.5,0.0217731,0.0214568,8.89976,15,0.000819861,10,0.00019096,-2.05062,0.253165,0.23305,80.7811,0.0214568,
2,1,0,1,0,28772.5,0.0237707,0.0234367,9.0446,15,0.000909638,10,0.000211975,-2.04361,0.269608,0.218836,77.3238,0.0234367,
2,1,0,1,0,28772.5,0.0257774,0.0254634,9.20957,15,0.00100097,10,0.000234507,-2.03576,0.282448,0.208888,74.946,0.02546338,
2,1,0,1,0,28772.5,0.027775,0.0274259,9.34358,15,0.00109375,10,0.000256256,-2.02949,0.305543,0.193099,70.4501,0.0274259,
2,1,0,1,0,28772.5,0.0297726,0.0294249,9.48866,15,0.00118795,10,0.000279202,-2.0228,0.333814,0.176745,65.3487,0.0294249,
2,1,0,1,0,28772.5,0.0317701,0.0314308,9.6053,15,0.00128344,10,0.000301902,-2.01749,0.332516,0.177435,66.6242,0.0314308,
2,1,0,1,0,28772.5,0.0337586,0.0334218,9.75495,15,0.00137928,10,0.000326029,-2.01077,0.338167,0.17447,66.3046,0.0334218,
2,1,0,1,0,28772.5,0.0357562,0.0354451,9.87146,15,0.00147742,10,0.000349895,-2.00562,0.369961,0.159476,61.4753,0.0354451,
2,1,0,1,0,28772.5,0.0377538,0.0374206,10.0008,15,0.0015768,10,0.000374236,-1.99997,0.363278,0.16241,63.3592,0.0374206,
2,1,0,1,0,28772.5,0.0397514,0.0393978,10.1219,15,0.00167743,10,0.00039878,-1.99474,0.341871,0.17258,68.2717,0.0393978,
2,1,0,1,0,28772.6,0.0417399,0.0414143,10.2734,15,0.00177837,10,0.000425467,-1.98828,0.360631,0.163602,65.4462,0.0414143,
2,1,0,1,0,28772.6,0.0437375,0.0433343,10.3795,15,0.00188164,10,0.00044979,-1.98382,0.395219,0.149284,60.562,0.0433343,
2,1,0,1,0,28772.6,0.0457351,0.0454426,10.5174,15,0.00198613,10,0.000477938,-1.97809,0.378755,0.155773,63.8935,0.0454426,
2,1,0,1,0,28772.6,0.0477327,0.0474329,10.6414,15,0.00209193,10,0.000504753,-1.973,0.356023,0.165719,68.896,0.0474329,
2,1,0,1,0,28772.6,0.0497393,0.049385,10.789,15,0.00219905,10,0.000532815,-1.96702,0.375282,0.157215,66.0865,0.049385,
2,1,0,1,0,28772.6,0.0517369,0.0513701,10.9016,15,0.00230749,10,0.000560016,-1.96251,0.388841,0.151733,64.6551,0.0513701,
2,1,0,1,0,28772.6,0.0537345,0.0534037,11.0488,15,0.00241725,10,0.00059005,-1.95668,0.385416,0.153081,65.9224,0.0534037,
2,1,0,1,0,28772.6,0.0557321,0.055414,11.1682,15,0.00252838,10,0.000618874,-1.95202,0.393383,0.149981,65.4369,0.05541398,
2,1,0,1,0,28772.6,0.0577297,0.0574129,11.3112,15,0.00264081,10,0.000649409,-1.94649,0.374845,0.157398,69.4496,0.0574129,
2,1,0,1,0,28772.6,0.0597364,0.0593972,11.4448,15,0.00275465,10,0.000679789,-1.94139,0.379513,0.155462,69.4634,0.0593972,
2,1,0,1,0,28772.7,0.0617339,0.061397,11.5879,15,0.00286986,10,0.000711464,-1.93599,0.393768,0.149835,67.7135,0.061397,
2,1,0,1,0,28772.7,0.0637315,0.0633986,11.7158,15,0.00298641,10,0.000742763,-1.93123,0.392034,0.150497,68.8668,0.0633986,
2,1,0,1,0,28772.7,0.0657291,0.0653975,11.8634,15,0.00310433,10,0.00077584,-1.92579,0.370887,0.159078,73.6445,0.0653975,
2,1,0,1,0,28772.7,0.0677176,0.0673925,12.0099,15,0.00322257,10,0.000809377,-1.92046,0.396423,0.148831,69.7193,0.0673925,
2,1,0,1,0,28772.7,0.0697152,0.0694221,12.144,15,0.00334338,10,0.000843065,-1.91564,0.413524,0.142676,67.6214,0.0694221,
2,1,0,1,0,28772.7,0.0717128,0.0713802,12.2795,15,0.00346546,10,0.000876516,-1.91082,0.40772,0.144707,69.3562,0.0713802,
2,1,0,1,0,28772.7,0.0737104,0.0733851,12.4189,15,0.00358897,10,0.000911362,-1.90592,0.418008,0.141146,68.3856,0.0733851,
2,1,0,1,0,28772.7,0.0756989,0.0753446,12.5507,15,0.0037126,10,0.000945625,-1.90133,0.435067,0.135611,66.425,0.0753446,
2,1,0,1,0,28772.7,0.0776965,0.0773713,12.6837,15,0.00383878,10,0.000981353,-1.89675,0.448024,0.13169,65.1715,0.0773713,
2,1,0,1,0,28772.7,0.0796941,0.0793486,12.8116,15,0.00396625,10,0.00101658,-1.8924,0.42697,0.138183,69.1352,0.0793486,
2,1,0,1,0,28772.8,0.0816917,0.0813233,12.9569,15,0.00409511,10,0.0010537,-1.8875,0.435448,0.135493,68.4659,0.0813233,
2,1,0,1,0,28772.8,0.0836983,0.0833405,13.0849,15,0.00422532,10,0.0010905,-1.88323,0.445199,0.132525,67.7155,0.0833405,
2,1,0,1,0,28772.8,0.0856959,0.0853455,13.2293,15,0.00435689,10,0.00112906,-1.87846,0.479941,0.122932,63.3868,0.0853455,
2,1,0,1,0,28772.8,0.0876935,0.0873653,13.34,15,0.00448977,10,0.00116546,-1.87484,0.519808,0.113504,59.1215,0.0873653,
2,1,0,1,0,28772.8,0.0896911,0.0893287,13.4648,15,0.00462382,10,0.00120279,-1.8708,0.492766,0.119732,62.9258,0.0893287,
2,1,0,1,0,28772.8,0.0916977,0.0913962,13.5937,15,0.00475913,10,0.00124241,-1.86666,0.497246,0.118654,62.9385,0.0913962,
2,1,0,1,0,28772.8,0.0936953,0.0933734,13.7193,15,0.0048957,10,0.00128102,-1.86267,0.554139,0.106472,56.9544,0.09337344,
2,1,0,1,0,28772.8,0.0956929,0.0953733,13.8202,15,0.00503343,10,0.00131808,-1.85949,0.556444,0.10603,57.2417,0.0953733,
2,1,0,1,0,28772.8,0.0976905,0.0973584,13.9474,15,0.00517228,10,0.0013579,-1.85551,0.516261,0.114283,62.1922,0.0973584,
2,1,0,1,0,28772.8,0.099679,0.0993685,14.0687,15,0.00531093,10,0.00139798,-1.85175,0.550525,0.10717,58.8263,0.0993685,
2,1,0,1,0,28772.9,0.101677,0.101359,14.1828,15,0.0054522,10,0.00143756,-1.84824,0.561032,0.105163,58.2159,0.101359,
2,1,0,1,0,28772.9,0.103674,0.103359,14.3009,15,0.00559465,10,0.00147813,-1.84464,0.501831,0.117569,65.6756,0.103359,
2,1,0,1,0,28772.9,0.105672,0.105352,14.445,15,0.00573836,10,0.00152182,-1.84028,0.497547,0.118582,66.797,0.1053524,
2,1,0,1,0,28772.9,0.107656,0.107344,14.5671,15,0.00588196,10,0.00156369,-1.83663,0.483931,0.121918,69.3819,0.107344,
2,1,0,1,0,28772.9,0.109658,0.10931,14.7196,15,0.0060284,10,0.00160899,-1.8321,0.459484,0.128405,73.726,0.10931,
2,1,0,1,0,28772.9,0.111655,0.111289,14.8581,15,0.00617629,10,0.00165354,-1.82804,0.442701,0.133273,77.3665,0.111289,
2,1,0,1,0,28772.9,0.113653,0.113333,15.0309,15,0.00632575,10,0.00170349,-1.82302,0.429989,0.137213,80.433,0.113333,
2,1,0,1,0,28772.9,0.115651,0.115336,15.1835,15,0.00647682,10,0.00175121,-1.81863,0.394828,0.149432,88.688,0.115336,
2,1,0,1,0,28772.9,0.117657,0.117332,15.3855,15,0.0066297,10,0.0018052,-1.81289,0.370095,0.159419,95.6454,0.117332,
2,1,0,1,0,28772.9,0.119655,0.119317,15.5642,15,0.00678447,10,0.00185707,-1.80787,0.38372,0.153758,93.4367,0.119317,
2,1,0,1,0,28773,0.121652,0.121318,15.758,15,0.00694107,10,0.00191173,-1.8025,0.375583,0.157089,96.6036,0.121318,
2,1,0,1,0,28773,0.12365,0.123331,15.9521,15,0.00709964,10,0.00196738,-1.79718,0.356754,0.16538,103.037,0.123331,
2,1,0,1,0,28773,0.125657,0.125338,16.1722,15,0.00726032,10,0.00202698,-1.79123,0.364704,0.161775,101.999,0.125338,
2,1,0,1,0,28773,0.127654,0.127336,16.3605,15,0.00742304,10,0.00208328,-1.7862,0.363518,0.162303,103.741,0.127336,
2,1,0,1,0,28773,0.129652,0.129324,16.5857,15,0.0075878,10,0.00214494,-1.78027,0.362085,0.162945,105.367,0.129324,
2,1,0,1,0,28773,0.131649,0.131313,16.7796,15,0.00775466,10,0.00220338,-1.77522,0.38063,0.155006,101.553,0.131313,
2,1,0,1,0,28773,0.133638,0.133308,16.9903,15,0.00792193,10,0.00226495,-1.7698,0.380472,0.155071,102.771,0.133308,
2,1,0,1,0,28773,0.135636,0.135258,17.1851,15,0.00809284,10,0.00232442,-1.76485,0.403242,0.146314,98.1339,0.135258,
2,1,0,1,0,28773,0.137633,0.137307,17.3827,15,0.00826571,10,0.00238677,-1.75988,0.426534,0.138324,93.792,0.137307,
2,1,0,1,0,28773,0.139631,0.139306,17.5647,15,0.00844045,10,0.00244686,-1.75536,0.441559,0.133617,91.5821,0.139306,
2,1,0,1,0,28773.1,0.141619,0.141244,17.7433,15,0.00861519,10,0.00250615,-1.75097,0.472029,0.124992,86.5154,0.141244,
2,1,0,1,0,28773.1,0.143617,0.14327,17.9077,15,0.00879347,10,0.00256564,-1.74696,0.51064,0.115541,80.7424,0.1432703,
2,1,0,1,0,28773.1,0.145614,0.145288,18.0698,15,0.00897338,10,0.00262534,-1.74305,0.5703,0.103454,72.8904,0.145288,
2,1,0,1,0,28773.1,0.147612,0.147279,18.1999,15,0.00915475,10,0.00268045,-1.73993,0.589108,0.100151,71.18,0.147279,
2,1,0,1,0,28773.1,0.149619,0.149269,18.3532,15,0.00933755,10,0.00273956,-1.73629,0.636525,0.0926908,66.317,0.149269,
2,1,0,1,0,28773.1,0.151616,0.151293,18.4661,15,0.00952168,10,0.00279379,-1.73363,0.785785,0.0750841,54.0995,0.151293,
2,1,0,1,0,28773.1,0.153614,0.153304,18.5715,15,0.00970686,10,0.00284709,-1.73115,0.991591,0.0595003,43.0789,0.153304,
2,1,0,1,0,28773.1,0.155611,0.155271,18.6374,15,0.00989293,10,0.00289385,-1.72961,1.18158,0.0499332,36.3307,0.155271,
2,1,0,1,0,28773.1,0.157618,0.157259,18.7152,15,0.0100797,10,0.00294312,-1.72781,2.46047,0.0239792,17.4743,0.157259,
2,1,0,1,0,28773.1,0.159616,0.159288,18.7076,15,0.0102668,10,0.0029799,-1.72798,-7.26798,-0.00811779,-5.92539,0.159288,
2,1,0,1,0,28773.2,0.161613,0.161303,18.6912,15,0.0104538,10,0.00301495,-1.72836,-1.77255,-0.0332854,-24.2389,0.161303,
2,1,0,1,0,28773.2,0.163611,0.163273,18.611,15,0.0106404,10,0.00303868,-1.73023,-0.893377,-0.0660416,-47.9263,0.163273,
2,1,0,1,0,28773.2,0.165618,0.165316,18.4989,15,0.010826,10,0.00305816,-1.73285,-0.581385,-0.101482,-73.1276,0.165316,
2,1,0,1,0,28773.2,0.167597,0.16728,18.318,15,0.0110082,10,0.00306424,-1.73712,-0.409791,-0.143976,-102.782,0.16728,
2,1,0,1,0,28773.2,0.169595,0.169324,18.0869,15,0.0111902,10,0.00306255,-1.74264,-0.305669,-0.193019,-135.936,0.169324,
2,1,0,1,0,28773.2,0.171592,0.17127,17.7757,15,0.0113695,10,0.00304443,-1.75017,-0.240174,-0.245655,-170.209,0.17127,
2,1,0,1,0,28773.2,0.173572,0.173213,17.425,15,0.0115437,10,0.00301824,-1.75883,-0.212615,-0.277497,-188.388,0.173213,
2,1,0,1,0,28773.2,0.175578,0.17528,17.0202,15,0.011716,10,0.0029833,-1.76904,-0.186646,-0.316106,-209.702,0.17528,
2,1,0,1,0,28773.2,0.177576,0.177249,16.5786,15,0.0118839,10,0.00293855,-1.78045,-0.160178,-0.368341,-237.852,0.177249,
2,1,0,1,0,28773.2,0.179573,0.17923,16.0806,15,0.0120471,10,0.00288213,-1.7937,-0.150156,-0.392925,-246.51,0.17923,
2,1,0,1,0,28773.3,0.181571,0.18129,15.5824,15,0.0122054,10,0.00282494,-1.80737,-0.144835,-0.407361,-247.557,0.18129,
2,1,0,1,0,28773.3,0.183578,0.183299,15.0733,15,0.0123586,10,0.00276292,-1.82179,-0.13628,-0.432933,-254.574,0.183299,
2,1,0,1,0,28773.3,0.185575,0.185294,14.5633,15,0.0125067,10,0.00269849,-1.83674,-0.130579,-0.451833,-256.774,0.185294,
2,1,0,1,0,28773.3,0.187573,0.187239,14.0617,15,0.0126498,10,0.00263289,-1.85196,-0.131434,-0.448893,-246.524,0.1872388,
2,1,0,1,0,28773.3,0.18957,0.189235,13.5916,15,0.012788,10,0.00257201,-1.86673,-0.136741,-0.431472,-228.911,0.189235,
2,1,0,1,0,28773.3,0.191577,0.191278,13.137,15,0.0129216,10,0.00251282,-1.8815,-0.140794,-0.419053,-215.099,0.191278,
2,1,0,1,0,28773.3,0.193575,0.193275,12.7227,15,0.0130508,10,0.00245898,-1.89542,-0.142672,-0.413537,-205.37,0.193275,
2,1,0,1,0,28773.3,0.195572,0.195248,12.3218,15,0.013176,10,0.0024058,-1.90933,-0.148894,-0.396255,-190.793,0.195248,
2,1,0,1,0,28773.3,0.19757,0.197273,11.9599,15,0.0132973,10,0.00235937,-1.92227,-0.161177,-0.366058,-171.095,0.197273,
2,1,0,1,0,28773.3,0.199558,0.199248,11.6374,15,0.0134141,10,0.00231873,-1.93414,-0.170014,-0.347029,-157.707,0.199248,
2,1,0,1,0,28773.4,0.201556,0.201238,11.3347,15,0.0135289,10,0.00228096,-1.94559,-0.175662,-0.335872,-148.617,0.201238,
2,1,0,1,0,28773.4,0.203554,0.203244,11.0435,15,0.0136407,10,0.00224452,-1.95689,-0.187471,-0.314715,-135.875,0.2032441,
2,1,0,1,0,28773.4,0.205551,0.205209,10.795,15,0.0137498,10,0.00221523,-1.96678,-0.211015,-0.279601,-117.923,0.205209,
2,1,0,1,0,28773.4,0.20754,0.207229,10.5735,15,0.0138555,10,0.00219115,-1.97578,-0.222746,-0.264876,-109.317,0.2072293,
2,1,0,1,0,28773.4,0.209537,0.209207,10.358,15,0.0139601,10,0.00216697,-1.98472,-0.223956,-0.263445,-106.524,0.209207,
2,1,0,1,0,28773.4,0.211535,0.211195,10.1511,15,0.0140626,10,0.00214386,-1.99349,-0.244125,-0.24168,-95.8875,0.211195,
2,1,0,1,0,28773.4,0.213532,0.213183,9.97675,15,0.0141632,10,0.00212687,-2.00101,-0.274417,-0.215002,-83.7438,0.213183,
2,1,0,1,0,28773.4,0.215539,0.215249,9.81163,15,0.0142621,10,0.00211194,-2.00826,-0.280458,-0.21037,-80.5684,0.215249,
2,1,0,1,0,28773.4,0.217537,0.217217,9.65171,15,0.0143593,10,0.00209652,-2.0154,-0.281949,-0.209258,-78.8567,0.217217,
2,1,0,1,0,28773.4,0.219534,0.219177,9.50184,15,0.0144551,10,0.00208259,-2.02219,-0.331535,-0.17796,-66.1053,0.2191771,
2,1,0,1,0,28773.5,0.221532,0.221241,9.38571,15,0.0145495,10,0.0020765,-2.02753,-0.353826,-0.166749,-61.0289,0.221241,
2,1,0,1,0,28773.5,0.223534,0.223218,9.2552,15,0.0146427,10,0.00206593,-2.03361,-0.365411,-0.161462,-58.4048,0.2232184,
2,1,0,1,0,28773.5,0.225536,0.225234,9.15251,15,0.0147347,10,0.00206146,-2.03846,-0.388921,-0.151702,-54.1475,0.225234,
2,1,0,1,0,28773.5,0.227534,0.227241,9.03736,15,0.0148257,10,0.00205366,-2.04396,-0.384269,-0.153538,-54.1925,0.227241,
2,1,0,1,0,28773.5,0.229531,0.229224,8.93628,15,0.0149155,10,0.00204841,-2.04884,-0.427175,-0.138117,-48.1937,0.229224,
2,1,0,1,0,28773.5,0.231529,0.231231,8.84511,15,0.0150044,10,0.00204526,-2.0533,-0.488883,-0.120683,-41.6947,0.231231,
2,1,0,1,0,28773.5,0.233517,0.233226,8.76943,15,0.0150917,10,0.00204526,-2.05703,-0.493513,-0.119551,-40.8885,0.233226,
2,1,0,1,0,28773.5,0.235515,0.235203,8.68267,15,0.0151789,10,0.00204219,-2.06135,-0.492636,-0.119764,-40.6121,0.235203,
2,1,0,1,0,28773.5,0.237513,0.237179,8.60888,15,0.0152653,10,0.00204184,-2.06505,-0.523472,-0.112709,-37.8602,0.237179,
2,1,0,1,0,28773.5,0.23951,0.239181,8.53209,15,0.015351,10,0.00204071,-2.06894,-0.576268,-0.102383,-34.1259,0.239181,
2,1,0,1,0,28773.6,0.241499,0.241165,8.47286,15,0.0154352,10,0.00204335,-2.07197,-0.589535,-0.100079,-33.0671,0.241165,
2,1,0,1,0,28773.6,0.243496,0.243153,8.40072,15,0.0155195,10,0.00204266,-2.07568,-0.647463,-0.0911249,-29.9176,0.243153,
2,1,0,1,0,28773.6,0.245494,0.24519,8.35244,15,0.0156032,10,0.00204793,-2.07819,-0.678084,-0.0870099,-28.3337,0.24519,
2,1,0,1,0,28773.6,0.247491,0.247152,8.28742,15,0.0156864,10,0.00204825,-2.08158,-0.66364,-0.0889036,-28.7821,0.247152,
2,1,0,1,0,28773.6,0.249498,0.249141,8.23872,15,0.015769,10,0.0020526,-2.08414,-0.685888,-0.0860199,-27.6359,0.249141,
2,1,0,1,0,28773.6,0.251496,0.251146,8.17706,15,0.0158511,10,0.00205363,-2.0874,-0.750897,-0.0785727,-25.1073,0.251146,
2,1,0,1,0,28773.6,0.253493,0.253193,8.13697,15,0.0159327,10,0.00206023,-2.08954,-0.753058,-0.0783472,-24.8506,0.253193,
2,1,0,1,0,28773.6,0.255491,0.255138,8.07784,15,0.0160138,10,0.00206097,-2.0927,-0.922,-0.0639913,-20.2197,0.255138,
2,1,0,1,0,28773.6,0.257497,0.257203,8.05591,15,0.0160945,10,0.002072,-2.09389,-1.00315,-0.0588149,-18.4556,0.257203,
2,1,0,1,0,28773.6,0.259495,0.25919,8.00306,15,0.0161748,10,0.00207431,-2.09674,-0.746007,-0.0790878,-24.7125,0.25919,
2,1,0,1,0,28773.7,0.261493,0.261192,7.95732,15,0.0162546,10,0.00207839,-2.09923,-0.84265,-0.0700172,-21.7504,0.261192,
2,1,0,1,0,28773.7,0.26349,0.263166,7.91657,15,0.016334,10,0.00208338,-2.10146,-1.25574,-0.0469842,-14.538,0.263166,
2,1,0,1,0,28773.7,0.265479,0.265155,7.8997,15,0.0164123,10,0.00209465,-2.10239,-1.09401,-0.0539301,-16.5926,0.265155,
2,1,0,1,0,28773.7,0.267476,0.267145,7.85055,15,0.016491,10,0.00209724,-2.1051,-0.91214,-0.0646831,-19.8409,0.267145,
2,1,0,1,0,28773.7,0.269474,0.26918,7.81984,15,0.0165693,10,0.00210495,-2.1068,-1.07646,-0.0548094,-16.7207,0.26918,
2,1,0,1,0,28773.7,0.271471,0.271166,7.78333,15,0.0166473,10,0.00211057,-2.10883,-1.21077,-0.0487291,-14.816,0.271166,
2,1,0,1,0,28773.7,0.27346,0.273107,7.76167,15,0.0167242,10,0.00211976,-2.11004,-1.02661,-0.0574706,-17.3793,0.273107,
2,1,0,1,0,28773.7,0.275458,0.275157,7.71397,15,0.0168015,10,0.00212255,-2.11272,-1.01453,-0.0581548,-17.5355,0.275157,
2,1,0,1,0,28773.7,0.277455,0.277139,7.69096,15,0.0168785,10,0.00213147,-2.11402,-1.21277,-0.0486491,-14.5905,0.277139,
2,1,0,1,0,28773.7,0.279453,0.279156,7.65561,15,0.0169553,10,0.00213711,-2.11602,-1.31394,-0.044903,-13.4305,0.279156,
2,1,0,1,0,28773.8,0.281455,0.281153,7.63705,15,0.0170317,10,0.00214718,-2.11707,-1.23209,-0.0478862,-14.2538,0.281153,
2,1,0,1,0,28773.8,0.283457,0.283156,7.5986,15,0.0171079,10,0.00215159,-2.11927,-1.16859,-0.0504881,-14.9884,0.283156,
2,1,0,1,0,28773.8,0.285455,0.28518,7.57669,15,0.0171838,10,0.00216072,-2.12052,-1.13233,-0.0521052,-15.3901,0.28518,
2,1,0,1,0,28773.8,0.287452,0.287091,7.53805,15,0.0172593,10,0.0021641,-2.12274,-1.17413,-0.0502502,-14.8014,0.287091,
2,1,0,1,0,28773.8,0.28945,0.289121,7.51836,15,0.0173346,10,0.00217371,-2.12388,-1.46861,-0.0401739,-11.7814,0.289121,
2,1,0,1,0,28773.8,0.291456,0.291122,7.49055,15,0.0174097,10,0.00218067,-2.12549,-1.25629,-0.0469635,-13.7289,0.291122,
2,1,0,1,0,28773.8,0.293454,0.293173,7.46272,15,0.0174845,10,0.00218787,-2.1271,-1.24194,-0.0475065,-13.8362,0.293173,
2,1,0,1,0,28773.8,0.295452,0.295129,7.43511,15,0.017559,10,0.00219432,-2.12871,-1.36968,-0.0430758,-12.5042,0.295129,
2,1,0,1,0,28773.8,0.297449,0.29712,7.41337,15,0.0176332,10,0.00220266,-2.12998,-1.60285,-0.0368095,-10.6505,0.29712,
2,1,0,1,0,28773.8,0.299438,0.299105,7.39277,15,0.0177065,10,0.00221121,-2.13119,-0.0668909,-0.882033,-245.364,0.299105,
2,1,0,1,0,28773.8,0.299746,0.299417,6.84988,15,0.0177376,10,0.00205097,-2.16432,0.00704296,8.37716,1870.09,0.299417,
2,1,0,1,0,28773.9,0.29774,0.297462,4.321,15,0.0177919,10,0.00128533,-2.36442,0.00996148,5.92282,1035.38,0.297462,
2,1,0,1,0,28773.9,0.295742,0.295439,2.73114,15,0.0178265,10,0.000806883,-2.56366,0.00915714,6.44306,683.245,0.295439,
2,1,0,1,0,28773.9,0.293745,0.293435,1.56989,15,0.0178476,10,0.00046066,-2.80413,0.00665116,8.87063,510.957,0.293435,
2,1,0,1,0,28773.9,0.291747,0.291426,0.680829,15,0.0178585,10,0.000198411,-3.16696,0.00207933,28.3746,395.198,0.291426,
2,1,0,1,0,28773.9,0.289745,0.289417,-0.0183289,15,0.0178617,10,-5.30468e-06,-4.73686,0.0550933,1.07091,315.938,0.289417,
2,0,0,1,0,28773.9,0.287743,0.287446,-0.576505,15,0.0178585,10,-0.000165714,-3.2392,-0.00227918,-25.8865,251.905,0.287446,
2,0,0,1,0,28773.9,0.285745,0.285438,-1.02061,15,0.0178504,10,-0.000291322,-2.99114,-0.0104332,-5.655,205.5,0.285438,
2,0,0,1,0,28773.9,0.283748,0.283401,-1.40789,15,0.0178381,10,-0.000398996,-2.85143,-0.0175751,-3.35702,175.936,0.283401,
2,0,0,1,0,28773.9,0.28175,0.281424,-1.72674,15,0.0178224,10,-0.000485946,-2.76277,-0.0256574,-2.29953,151.45,0.281424,
2,0,0,1,0,28773.9,0.279761,0.279477,-2.0021,15,0.0178038,10,-0.00055954,-2.69851,-0.0354076,-1.66631,128.162,0.279477,
2,0,0,1,0,28774,0.277764,0.277444,-2.23681,15,0.0177826,10,-0.000620589,-2.65037,-0.0462123,-1.27672,110.529,0.277444,
2,0,0,1,0,28774,0.275766,0.275429,-2.44953,15,0.0177591,10,-0.000674672,-2.61092,-0.0579222,-1.01861,96.3835,0.275429,
2,0,0,1,0,28774,0.273769,0.273442,-2.62253,15,0.0177337,10,-0.000717112,-2.58128,-0.0674058,-0.875295,89.6265,0.273442,
2,0,0,1,0,28774,0.27178,0.271452,-2.80598,15,0.0177067,10,-0.00076169,-2.55191,-0.0777663,-0.758684,82.4002,0.271452,
2,0,0,1,0,28774,0.269783,0.269471,-2.94976,15,0.0176779,10,-0.000794875,-2.53021,-0.0946454,-0.62338,71.718,0.269471,
2,0,0,1,0,28774,0.267785,0.267429,-3.09451,15,0.0176477,10,-0.000827562,-2.50941,-0.109459,-0.539013,64.7601,0.267429,
2,0,0,1,0,28774,0.265787,0.265437,-3.21102,15,0.0176162,10,-0.000852324,-2.49336,-0.119553,-0.493506,61.9391,0.265437,
2,0,0,1,0,28774,0.263781,0.263457,-3.34053,15,0.0175833,10,-0.000880085,-2.47619,-0.130761,-0.451205,58.5621,0.263457,
2,0,0,1,0,28774,0.261783,0.261475,-3.44301,15,0.0175494,10,-0.000900264,-2.46306,-0.155326,-0.379846,51.0086,0.261475,
2,0,0,1,0,28774,0.259786,0.259483,-3.54326,15,0.0175145,10,-0.000919414,-2.4506,-0.159956,-0.36885,51.0016,0.259483,
2,0,0,1,0,28774.1,0.257788,0.257517,-3.64488,15,0.0174785,10,-0.00093862,-2.43832,-0.169429,-0.348228,49.5001,0.2575174,
2,0,0,1,0,28774.1,0.255781,0.255443,-3.74322,15,0.0174415,10,-0.000956179,-2.42675,-0.197171,-0.299232,43.5865,0.255443,
2,0,0,1,0,28774.1,0.253784,0.253473,-3.82118,15,0.0174037,10,-0.000968564,-2.4178,-0.210795,-0.279893,41.7937,0.253473,
2,0,0,1,0,28774.1,0.251786,0.251449,-3.91016,15,0.017365,10,-0.000983205,-2.4078,-0.225326,-0.261843,39.858,0.251449,
2,0,0,1,0,28774.1,0.249789,0.24947,-3.98074,15,0.0173256,10,-0.000993072,-2.40004,-0.229112,-0.257516,40.0909,0.24947,
2,0,0,1,0,28774.1,0.2478,0.247483,-4.06915,15,0.0172857,10,-0.00100704,-2.3905,-0.239767,-0.246073,38.9794,0.247483,
2,0,0,1,0,28774.1,0.245802,0.245433,-4.13809,15,0.0172447,10,-0.00101562,-2.3832,-0.26575,-0.222013,35.8831,0.245433,
2,0,0,1,0,28774.1,0.243805,0.243432,-4.21452,15,0.0172029,10,-0.00102595,-2.37525,-0.304308,-0.193882,31.7848,0.243432,
2,0,0,1,0,28774.1,0.241807,0.241476,-4.26385,15,0.0171605,10,-0.00102962,-2.3702,-0.27613,-0.213668,35.7254,0.241476,
2,0,0,1,0,28774.1,0.239819,0.239507,-4.35474,15,0.0171179,10,-0.00104299,-2.36104,-0.275123,-0.214449,36.2882,0.239507,
2,0,0,1,0,28774.2,0.237821,0.237484,-4.4087,15,0.0170741,10,-0.001047,-2.35569,-0.34445,-0.171287,29.5055,0.237484,
2,0,0,1,0,28774.2,0.235824,0.235485,-4.47341,15,0.0170297,10,-0.00105342,-2.34936,-0.358632,-0.164514,28.6748,0.2354846,
2,0,0,1,0,28774.2,0.233826,0.23346,-4.52411,15,0.0169848,10,-0.0010562,-2.34447,-0.330718,-0.1784,31.5832,0.23346,
2,0,0,1,0,28774.2,0.231824,0.231487,-4.59968,15,0.0169392,10,-0.00106476,-2.33727,-0.343808,-0.171608,30.7087,0.231487,
2,0,0,1,0,28774.2,0.229822,0.229461,-4.64691,15,0.0168929,10,-0.00106628,-2.33284,-0.401473,-0.146959,26.6814,0.229461,
2,0,0,1,0,28774.2,0.227824,0.227543,-4.70492,15,0.0168462,10,-0.00107057,-2.32745,-0.404937,-0.145702,26.7234,0.227543,
2,0,0,1,0,28774.2,0.225827,0.2255,-4.75275,15,0.0167989,10,-0.00107175,-2.32306,-0.403295,-0.146295,27.1734,0.2255,
2,0,0,1,0,28774.2,0.223829,0.223518,-4.81428,15,0.016751,10,-0.00107608,-2.31747,-0.380558,-0.155035,29.1041,0.223518,
2,0,0,1,0,28774.2,0.221822,0.221539,-4.86804,15,0.0167026,10,-0.00107846,-2.31265,-0.407176,-0.1449,27.534,0.221539,
2,0,0,1,0,28774.2,0.219825,0.219532,-4.92403,15,0.0166536,10,-0.00108098,-2.30768,-0.451645,-0.130634,25.0756,0.219532,
2,0,0,1,0,28774.3,0.217827,0.2175,-4.96932,15,0.0166041,10,-0.00108083,-2.3037,-0.448903,-0.131431,25.5197,0.2175,
2,0,0,1,0,28774.3,0.21583,0.215506,-5.02676,15,0.0165541,10,-0.0010833,-2.29871,-0.430771,-0.136964,26.8492,0.215506,
2,0,0,1,0,28774.3,0.213841,0.213488,-5.07705,15,0.016504,10,-0.00108389,-2.29439,-0.431397,-0.136765,27.119,0.213488,
2,0,0,1,0,28774.3,0.211844,0.211504,-5.1353,15,0.0164529,10,-0.00108614,-2.28943,-0.472182,-0.124952,25,0.211504,
2,0,0,1,0,28774.3,0.209846,0.209507,-5.17656,15,0.0164013,10,-0.00108453,-2.28596,-0.480806,-0.122711,24.8273,0.209507,
2,0,0,1,0,28774.3,0.207848,0.20755,-5.23347,15,0.0163493,10,-0.00108621,-2.28121,-0.403639,-0.14617,29.8676,0.20755,
2,0,0,1,0,28774.3,0.20586,0.20553,-5.29536,15,0.0162971,10,-0.00108835,-2.2761,-0.436944,-0.135029,27.8731,0.20553,
2,0,0,1,0,28774.3,0.203862,0.203532,-5.34547,15,0.0162439,10,-0.00108797,-2.27201,-0.531799,-0.110944,23.1285,0.203532,
2,0,0,1,0,28774.3,0.201865,0.201511,-5.3883,15,0.0161903,10,-0.0010858,-2.26855,-0.503559,-0.117166,24.6665,0.201511,
2,0,0,1,0,28774.3,0.199867,0.199554,-5.44359,15,0.0161361,10,-0.00108629,-2.26411,-0.474454,-0.124353,26.4063,0.199554,
2,0,0,1,0,28774.4,0.19786,0.1975,-5.49422,15,0.0160814,10,-0.00108511,-2.26009,-0.479918,-0.122938,26.3699,0.1975,
2,0,0,1,0,28774.4,0.195863,0.195553,-5.54909,15,0.0160262,10,-0.00108514,-2.25578,-0.495745,-0.119013,25.7576,0.195553,
2,0,0,1,0,28774.4,0.193865,0.193499,-5.59728,15,0.0159705,10,-0.00108307,-2.25202,-0.491415,-0.120061,26.2461,0.1934986,
2,0,0,1,0,28774.4,0.191868,0.191553,-5.65406,15,0.0159142,10,-0.00108306,-2.24764,-0.45844,-0.128697,28.3956,0.191553,
2,0,0,1,0,28774.4,0.189861,0.189526,-5.71009,15,0.0158573,10,-0.00108221,-2.24336,-0.448099,-0.131667,29.3518,0.189526,
2,0,0,1,0,28774.4,0.187863,0.187588,-5.77044,15,0.0157999,10,-0.00108247,-2.23879,-0.506685,-0.116443,26.1835,0.187588,
2,0,0,1,0,28774.4,0.185866,0.185573,-5.81359,15,0.015742,10,-0.00107885,-2.23556,-0.505913,-0.116621,26.5058,0.185573,
2,0,0,1,0,28774.4,0.183868,0.183555,-5.87735,15,0.0156834,10,-0.00107882,-2.23082,-0.406761,-0.145048,33.2859,0.183555,
2,0,0,1,0,28774.4,0.18188,0.181562,-5.94708,15,0.0156249,10,-0.00107977,-2.2257,-0.410169,-0.143843,33.368,0.181562,
2,0,0,1,0,28774.4,0.179882,0.179546,-6.01111,15,0.0155651,10,-0.00107927,-2.22105,-0.486027,-0.121392,28.4434,0.179546,
2,0,0,1,0,28774.5,0.177885,0.177562,-6.06087,15,0.0155047,10,-0.00107618,-2.21747,-0.435869,-0.135362,32.0903,0.177562,
2,0,0,1,0,28774.5,0.175887,0.175579,-6.13844,15,0.0154437,10,-0.00107778,-2.21194,-0.396828,-0.148679,35.5798,0.175579,
2,0,0,1,0,28774.5,0.173908,0.173558,-6.20332,15,0.0153827,10,-0.00107664,-2.20738,-0.389992,-0.151285,36.6722,0.173558,
2,0,0,1,0,28774.5,0.171901,0.171594,-6.28456,15,0.0153202,10,-0.00107839,-2.20173,-0.392854,-0.150183,36.7838,0.171594,
2,0,0,1,0,28774.5,0.169903,0.1696,-6.34894,15,0.0152571,10,-0.00107678,-2.1973,-0.384056,-0.153623,38.1359,0.1696,
2,0,0,1,0,28774.5,0.167906,0.167579,-6.43768,15,0.0151931,10,-0.00107882,-2.19127,-0.347442,-0.169812,42.6422,0.167579,
2,0,0,1,0,28774.5,0.165908,0.165575,-6.52057,15,0.0151283,10,-0.00107964,-2.18571,-0.328658,-0.179518,45.7392,0.1655747,
2,0,0,1,0,28774.5,0.163901,0.163587,-6.62027,15,0.0150626,10,-0.00108299,-2.17912,-0.323811,-0.182205,47.0397,0.163587,
2,0,0,1,0,28774.5,0.161904,0.161533,-6.71067,15,0.0149959,10,-0.001084,-2.17323,-0.306098,-0.192749,50.5596,0.1615334,
2,0,0,1,0,28774.5,0.159906,0.159573,-6.82319,15,0.0149282,10,-0.0010888,-2.16601,-0.289749,-0.203625,54.1743,0.159573,
2,0,0,1,0,28774.6,0.157909,0.157584,-6.92462,15,0.0148595,10,-0.00109121,-2.1596,-0.263121,-0.224231,60.7648,0.157584,
2,0,0,1,0,28774.6,0.155902,0.155583,-7.06565,15,0.0147895,10,-0.0010993,-2.15085,-0.24075,-0.245068,67.516,0.155583,
2,0,0,1,0,28774.6,0.153904,0.153571,-7.19554,15,0.0147182,10,-0.00110503,-2.14294,-0.239273,-0.24658,69.3232,0.153571,
2,0,0,1,0,28774.6,0.151907,0.151574,-7.34358,15,0.0146454,10,-0.0011131,-2.13409,-0.221024,-0.26694,76.5427,0.151574,
2,0,0,1,0,28774.6,0.149909,0.149579,-7.50116,15,0.0145712,10,-0.00112201,-2.12487,-0.193798,-0.304441,89.3261,0.149579,
2,0,0,1,0,28774.6,0.147921,0.147635,-7.69547,15,0.0144959,10,-0.00113612,-2.11376,-0.185759,-0.317616,95.3127,0.147635,
2,0,0,1,0,28774.6,0.145923,0.145599,-7.88049,15,0.0144181,10,-0.00114739,-2.10345,-0.177623,-0.332165,102.417,0.1455988,
2,0,0,1,0,28774.6,0.143926,0.143595,-8.10917,15,0.0143381,10,-0.00116444,-2.09102,-0.158041,-0.37332,118.202,0.143595,
2,0,0,1,0,28774.6,0.141928,0.141626,-8.35005,15,0.0142558,10,-0.00118259,-2.07831,-0.147234,-0.400723,130.895,0.141626,
2,0,0,1,0,28774.6,0.139939,0.139571,-8.63597,15,0.0141717,10,-0.00120533,-2.06369,-0.141451,-0.417104,140.478,0.139571,
2,0,0,1,0,28774.7,0.137942,0.1376,-8.91571,15,0.014084,10,-0.0012268,-2.04984,-0.1327,-0.444613,155.079,0.1376,
2,0,0,1,0,28774.7,0.135944,0.13564,-9.2456,15,0.0139932,10,-0.00125407,-2.03406,-0.126817,-0.465236,167.89,0.1356397,
2,0,0,1,0,28774.7,0.133947,0.133608,-9.5859,15,0.013899,10,-0.00128075,-2.01837,-0.124656,-0.473303,177.325,0.133608,
2,0,0,1,0,28774.7,0.13194,0.131593,-9.96315,15,0.0138013,10,-0.00131108,-2.0016,-0.121326,-0.486292,189.024,0.1315932,
2,0,0,1,0,28774.7,0.129942,0.129599,-10.3436,15,0.0136997,10,-0.00134052,-1.98533,-0.120876,-0.488105,197.186,0.129599,
2,0,0,1,0,28774.7,0.127945,0.127605,-10.7496,15,0.0135942,10,-0.0013717,-1.96861,-0.123193,-0.478924,200.696,0.127605,
2,0,0,1,0,28774.7,0.125947,0.125623,-11.1416,15,0.0134847,10,-0.00139964,-1.95305,-0.122747,-0.480662,209.375,0.1256232,
2,0,0,1,0,28774.7,0.123941,0.123621,-11.5838,15,0.013371,10,-0.00143199,-1.93615,-0.124867,-0.472502,213.206,0.123621,
2,0,0,1,0,28774.7,0.121943,0.12163,-11.9929,15,0.0132531,10,-0.0014587,-1.92108,-0.135881,-0.434204,203.141,0.12163,
2,0,0,1,0,28774.7,0.119945,0.119597,-12.4012,15,0.013131,10,-0.00148314,-1.90654,-0.14414,-0.409325,197.796,0.119597,
2,0,0,1,0,28774.8,0.117948,0.117655,-12.7792,15,0.0130051,10,-0.00150353,-1.8935,-0.1447,-0.407742,203.71,0.117655,
2,0,0,1,0,28774.8,0.115946,0.115624,-13.2105,15,0.0128751,10,-0.00152745,-1.87908,-0.14829,-0.397869,204.701,0.115624,
2,0,0,1,0,28774.8,0.113962,0.113668,-13.5953,15,0.0127423,10,-0.00154535,-1.86661,-0.162188,-0.363776,192.956,0.113668,
2,0,0,1,0,28774.8,0.111964,0.111639,-13.9794,15,0.0126044,10,-0.00156065,-1.85451,-0.176915,-0.333493,181.667,0.111639,
2,0,0,1,0,28774.8,0.109967,0.109639,-14.3273,15,0.0124628,10,-0.00157083,-1.84384,-0.188336,-0.31327,175.177,0.109639,
2,0,0,1,0,28774.8,0.107969,0.107623,-14.6829,15,0.0123177,10,-0.00158022,-1.83319,-0.197867,-0.29818,170.623,0.107623,
2,0,0,1,0,28774.8,0.10598,0.105684,-15.0021,15,0.0121707,10,-0.00158548,-1.82385,-0.211333,-0.27918,163.496,0.105684,
2,0,0,1,0,28774.8,0.103983,0.103645,-15.3333,15,0.012019,10,-0.00158922,-1.81436,-0.232958,-0.253265,151.256,0.103645,
2,0,0,1,0,28774.8,0.101985,0.10168,-15.6077,15,0.0118643,10,-0.00158699,-1.80666,-0.257781,-0.228877,139.405,0.10168,
2,0,0,1,0,28774.8,0.0999877,0.0996983,-15.8835,15,0.0117068,10,-0.00158356,-1.79905,-0.28175,-0.209406,129.698,0.09969829,
2,0,0,1,0,28774.9,0.0979811,0.09761,-16.1356,15,0.0115466,10,-0.001575,-1.79222,-0.29975,-0.196831,123.92,0.09761,
2,0,0,1,0,28774.9,0.0959835,0.09567,-16.3827,15,0.0113839,10,-0.00156733,-1.78561,-0.339802,-0.17363,110.814,0.09567,
2,0,0,1,0,28774.9,0.0939859,0.0936641,-16.5729,15,0.0112191,10,-0.00155228,-1.7806,-0.387041,-0.152438,98.6291,0.0936641,
2,0,0,1,0,28774.9,0.0919883,0.0916825,-16.776,15,0.0110523,10,-0.00153806,-1.77531,-0.407629,-0.144739,94.6796,0.0916825,
2,0,0,1,0,28774.9,0.0899816,0.0896696,-16.951,15,0.0108836,10,-0.00151999,-1.7708,-0.496122,-0.118922,78.5942,0.0896696,
2,0,0,1,0,28774.9,0.087984,0.0876447,-17.0933,15,0.0107133,10,-0.00149814,-1.76717,-0.637469,-0.0925535,61.6765,0.0876447,
2,0,0,1,0,28774.9,0.0859865,0.085637,-17.1998,15,0.0105418,10,-0.00147294,-1.76448,-0.770763,-0.0765475,51.3712,0.085637,
2,0,0,1,0,28774.9,0.0839889,0.0836441,-17.2988,15,0.0103693,10,-0.00144695,-1.76198,-1.02117,-0.0577768,38.9567,0.0836441,
2,0,0,1,0,28774.9,0.0820004,0.0816714,-17.3543,15,0.0101977,10,-0.00141735,-1.76059,-1.65191,-0.0357162,24.18,0.0816714,
2,0,0,1,0,28774.9,0.0800028,0.0796434,-17.3956,15,0.010024,10,-0.00138544,-1.75956,-3.46113,-0.0170464,11.5606,0.0796434,
2,0,0,1,0,28775,0.0780052,0.0776885,-17.4003,15,0.00984999,10,-0.0013518,-1.75944,-124.938,-0.000472235,0.32061,0.0776885,
2,0,0,1,0,28775,0.0760076,0.0756708,-17.3969,15,0.00967599,10,-0.00131643,-1.75953,3.4924,0.0168938,-11.4572,0.0756708,
2,0,0,1,0,28775,0.0740191,0.0737161,-17.3548,15,0.00950404,10,-0.00127933,-1.76058,1.9473,0.0302984,-20.5225,0.0737161,
2,0,0,1,0,28775,0.0720215,0.0716824,-17.315,15,0.00933065,10,-0.00124118,-1.76158,1.38766,0.0425177,-28.7012,0.0716824,
2,0,0,1,0,28775,0.0700239,0.0696809,-17.239,15,0.00915788,10,-0.00120123,-1.76349,1.10969,0.053168,-35.7796,0.0696809,
2,0,0,1,0,28775,0.0680263,0.0676828,-17.1719,15,0.00898582,10,-0.00116224,-1.76518,1.10566,0.0533616,-35.7519,0.0676828,
2,0,0,1,0,28775,0.0660197,0.0656882,-17.0962,15,0.00881458,10,-0.00112302,-1.7671,1.02631,0.0574874,-38.3539,0.0656882,
2,0,0,1,0,28775,0.0640221,0.0636866,-17.0186,15,0.008644,10,-0.00108386,-1.76908,0.850756,0.0693501,-46.0208,0.0636866,
2,0,0,1,0,28775,0.0620245,0.0616755,-16.9116,15,0.00847438,10,-0.00104303,-1.77182,0.845838,0.0697533,-46.0777,0.0616755,
2,0,0,1,0,28775,0.0600269,0.0596861,-16.8343,15,0.00830564,10,-0.00100477,-1.77381,0.928164,0.0635664,-41.7459,0.0596861,
2,0,0,1,0,28775.1,0.0580248,0.0576602,-16.7439,15,0.00813776,10,-0.000965459,-1.77614,0.920663,0.0640842,-41.8922,0.0576602,
2,0,0,1,0,28775.1,0.0560227,0.0556751,-16.6663,15,0.0079707,10,-0.000927896,-1.77816,0.900343,0.0655306,-42.6051,0.05567513,
2,0,0,1,0,28775.1,0.0540251,0.0536892,-16.5747,15,0.00780453,10,-0.000889884,-1.78055,0.97074,0.0607784,-39.3462,0.0536892,
2,0,0,1,0,28775.1,0.0520275,0.0516963,-16.5097,15,0.00763911,10,-0.000853491,-1.78226,0.945895,0.0623748,-40.1527,0.0516963,
2,0,0,1,0,28775.1,0.0500299,0.0497043,-16.4147,15,0.00747447,10,-0.000815883,-1.78477,1.01983,0.0578525,-37.109,0.0497043,
2,0,0,1,0,28775.1,0.0480414,0.047723,-16.3623,15,0.00731221,10,-0.000780857,-1.78616,1.03461,0.0570263,-36.3699,0.047723,
2,0,0,1,0,28775.1,0.0460438,0.0457053,-16.2693,15,0.0071491,10,-0.000743594,-1.78863,0.939128,0.0628242,-39.9203,0.04570533,
2,0,0,1,0,28775.1,0.0440462,0.0437004,-16.2017,15,0.00698676,10,-0.000708019,-1.79044,0.907105,0.0650421,-41.0904,0.0437004,
2,0,0,1,0,28775.1,0.0420486,0.0417344,-16.1061,15,0.00682529,10,-0.000672179,-1.79301,1.02172,0.0577455,-36.3473,0.0417344,
2,0,0,1,0,28775.1,0.0400601,0.0396722,-16.0553,15,0.00666607,10,-0.000636947,-1.79438,1.03822,0.056828,-35.5617,0.0396722,
2,0,0,1,0,28775.2,0.0380625,0.0377131,-15.9631,15,0.00650601,10,-0.000602019,-1.79688,0.849187,0.0694782,-43.3019,0.0377131,
2,0,0,1,0,28775.2,0.036065,0.0357237,-15.8843,15,0.00634679,10,-0.000567445,-1.79903,0.85031,0.0693865,-42.9958,0.0357237,
2,0,0,1,0,28775.2,0.0340674,0.0337473,-15.7926,15,0.00618842,10,-0.000532958,-1.80155,0.932276,0.063286,-39.0382,0.0337473,
2,0,0,1,0,28775.2,0.0320607,0.0317127,-15.7277,15,0.00603079,10,-0.000498769,-1.80333,0.830486,0.0710427,-43.5443,0.0317127,
2,0,0,1,0,28775.2,0.0300631,0.0297467,-15.6184,15,0.00587406,10,-0.000464597,-1.80636,0.743142,0.0793926,-48.4334,0.0297467,
2,0,0,1,0,28775.2,0.0280655,0.0277486,-15.5357,15,0.00571825,10,-0.000431095,-1.80867,0.79587,0.0741327,-44.9253,0.02774865,
2,0,0,1,0,28775.2,0.0260679,0.0257315,-15.438,15,0.00556336,10,-0.000397243,-1.81141,0.772425,0.0763828,-46.0369,0.0257315,
2,0,0,1,0,28775.2,0.0240613,0.0237525,-15.3517,15,0.00540937,10,-0.000364642,-1.81384,0.702127,0.0840304,-50.2984,0.02375246,
2,0,0,1,0,28775.2,0.0220637,0.0217422,-15.2374,15,0.00525645,10,-0.000331294,-1.81709,0.66649,0.0885234,-52.6661,0.0217422,
2,0,0,1,0,28775.2,0.0200661,0.0196843,-15.1375,15,0.00510455,10,-0.00029797,-1.81995,0.598297,0.0986132,-58.1972,0.0196843,
2,0,0,1,0,28775.3,0.0180685,0.0177807,-15.0068,15,0.00495382,10,-0.000266832,-1.82371,0.603363,0.0977853,-57.3378,0.0177807,
2,0,0,1,0,28775.3,0.01608,0.0157573,-14.9123,15,0.00480575,10,-0.000234978,-1.82645,0.596267,0.098949,-57.5067,0.0157573,
2,0,0,1,0,28775.3,0.0140824,0.0137858,-14.7771,15,0.00465736,10,-0.000203714,-1.83041,0.52777,0.111791,-64.4929,0.01378577,
2,0,0,1,0,28775.3,0.0120848,0.0117363,-14.653,15,0.00451025,10,-0.000171972,-1.83407,0.489816,0.120453,-68.8109,0.01173627,
2,0,0,1,0,28775.3,0.0100872,0.0097488,-14.4993,15,0.00436455,10,-0.000141351,-1.83865,0.491402,0.120065,-68.0209,0.0097488,
2,0,0,1,0,28775.3,0.00810328,0.00773733,-14.381,15,0.00422162,10,-0.00011127,-1.84221,0.479304,0.123095,-68.9994,0.007737333,
2,0,0,1,0,28775.3,0.00610116,0.00580604,-14.2273,15,0.00407858,10,-8.2604e-05,-1.84688,0.441283,0.133701,-74.2706,0.00580604,
2,0,0,1,0,28775.3,0.00410357,0.00378539,-14.0875,15,0.00393701,10,-5.33266e-05,-1.85117,0.549907,0.107291,-59.0667,0.00378539,
2,0,0,1,0,28775.3,0.00210598,0.0017257,-13.9862,15,0.00379683,10,-2.4136e-05,-1.8543,0.525977,0.112172,-61.1254,0.0017257,
2,0,0,1,0,28775.3,0.00010174,-0.000281943,-13.8389,15,0.00365771,10,3.90177e-06,-1.8589,0.434112,0.135909,-73.4044,-0.000281943,
2,0,0,1,0,28775.4,-0.00189827,-0.00226876,-13.693,15,0.00352003,10,3.10662e-05,-1.8635,0.454364,0.129852,-69.4345,-0.00226876,
2,0,0,1,0,28775.4,-0.00389586,-0.00422955,-13.5648,15,0.00338375,10,5.73728e-05,-1.86759,0.460423,0.128143,-67.8058,-0.00422955,
2,0,0,1,0,28775.4,-0.00589345,-0.00622678,-13.4247,15,0.0032488,10,8.35923e-05,-1.8721,0.483232,0.122094,-64.0223,-0.006226778,
2,0,0,1,0,28775.4,-0.00789103,-0.00823702,-13.3082,15,0.00311512,10,0.00010962,-1.87588,0.539137,0.109434,-56.8419,-0.008237021,
2,0,0,1,0,28775.4,-0.0098977,-0.0102776,-13.1944,15,0.00298259,10,0.000135607,-1.87961,0.591185,0.0997995,-51.4276,-0.0102776,
2,0,0,1,0,28775.4,-0.0118953,-0.0122801,-13.1003,15,0.00285111,10,0.000160872,-1.88272,0.577995,0.102077,-52.1471,-0.0122801,
2,0,0,1,0,28775.4,-0.0138929,-0.014273,-12.9861,15,0.00272069,10,0.000185349,-1.88652,0.595412,0.0990911,-50.275,-0.014273,
2,0,0,1,0,28775.4,-0.0158905,-0.0162459,-12.9009,15,0.00259123,10,0.000209586,-1.88938,0.75195,0.0784627,-39.5228,-0.0162459,
2,0,0,1,0,28775.4,-0.017879,-0.0182714,-12.828,15,0.00246387,10,0.000234386,-1.89184,0.849881,0.0694215,-34.7643,-0.0182714,
2,0,0,1,0,28775.4,-0.0198766,-0.0202318,-12.7623,15,0.00233593,10,0.000258205,-1.89407,0.815141,0.0723801,-36.0325,-0.0202318,
2,0,0,1,0,28775.5,-0.0218741,-0.0222654,-12.6841,15,0.00220876,10,0.000282417,-1.89674,0.992953,0.0594187,-29.4563,-0.0222654,
2,0,0,1,0,28775.5,-0.0238717,-0.0242831,-12.643,15,0.00208215,10,0.000307011,-1.89815,1.32018,0.0446908,-22.0448,-0.0242831,
2,0,0,1,0,28775.5,-0.0258602,-0.0263223,-12.5947,15,0.00195725,10,0.00033152,-1.89981,1.207,0.0488817,-24.0286,-0.0263223,
2,0,0,1,0,28775.5,-0.0278578,-0.0282232,-12.5483,15,0.00183154,10,0.000354153,-1.90142,1.34087,0.0440014,-21.5558,-0.0282232,
2,0,0,1,0,28775.5,-0.0298554,-0.0302204,-12.5106,15,0.00170624,10,0.000378077,-1.90272,2.19866,0.0268346,-13.1141,-0.0302204,
2,0,0,1,0,28775.5,-0.031853,-0.0322012,-12.4961,15,0.00158118,10,0.00040239,-1.90322,2.84043,0.0207715,-10.1252,-0.0322012,
2,0,0,1,0,28775.5,-0.0338597,-0.0342435,-12.4699,15,0.00145635,10,0.000427014,-1.90414,4.76899,0.0123716,-6.02756,-0.0342435,
2,0,0,1,0,28775.5,-0.0358573,-0.0362399,-12.4718,15,0.00133164,10,0.000451976,-1.90407,8.45158,0.00698094,-3.39552,-0.0362399,
2,0,0,1,0,28775.5,-0.0378548,-0.0382111,-12.4564,15,0.00120698,10,0.000475974,-1.90461,8.22931,0.00716949,-3.48769,-0.03821107,
2,0,0,1,0,28775.5,-0.0398524,-0.0402352,-12.4579,15,0.00108238,10,0.000501244,-1.90456,-8.40782,-0.00701727,3.41323,-0.0402352,
2,0,0,1,0,28775.6,-0.0418591,-0.0422428,-12.4702,15,0.000957781,10,0.000526777,-1.90413,-4.22349,-0.0139695,6.79924,-0.0422428,
2,0,0,1,0,28775.6,-0.0438567,-0.0442236,-12.485,15,0.000833002,10,0.00055213,-1.90361,-6.34538,-0.0092981,4.52842,-0.0442236,
2,0,0,1,0,28775.6,-0.0458543,-0.0462425,-12.4883,15,0.000708136,10,0.000577491,-1.9035,-3.84739,-0.0153351,7.48095,-0.04624249,
2,0,0,1,0,28775.6,-0.0478519,-0.0482215,-12.5149,15,0.000583103,10,0.000603486,-1.90257,-1.87139,-0.0315274,15.4033,-0.0482215,
2,0,0,1,0,28775.6,-0.0498585,-0.0502083,-12.5494,15,0.000457781,10,0.000630084,-1.90138,-1.65478,-0.0356542,17.4624,-0.0502083,
2,0,0,1,0,28775.6,-0.051838,-0.0522015,-12.5844,15,0.000333362,10,0.000656924,-1.90017,-1.95808,-0.0301316,14.7923,-0.0522015,
2,0,0,1,0,28775.6,-0.0538355,-0.0542295,-12.6089,15,0.000207433,10,0.000683774,-1.89932,-1.66234,-0.0354921,17.4797,-0.0542295,
2,0,0,1,0,28775.6,-0.0558331,-0.0562154,-12.6545,15,8.11177e-05,10,0.00071138,-1.89775,-1.38147,-0.0427081,21.0856,-0.0562154,
2,0,0,1,0,28775.6,-0.0578126,-0.0581955,-12.6925,15,-4.43151e-05,10,0.000738647,-1.89645,-1.31691,-0.0448017,22.2037,-0.0581955,
2,0,0,1,0,28775.6,-0.0598192,-0.0602187,-12.7434,15,-0.000171508,10,0.000767394,-1.89471,-1.1309,-0.0521707,25.9483,-0.0602187,
2,0,0,1,0,28775.7,-0.0618168,-0.0621986,-12.7964,15,-0.000299177,10,0.000795917,-1.89291,-1.12258,-0.0525576,26.2457,-0.0621986,
2,0,0,1,0,28775.7,-0.0638144,-0.0641959,-12.8478,15,-0.000427389,10,0.000824777,-1.89117,-1.14864,-0.0513653,25.7554,-0.0641959,
2,0,0,1,0,28775.7,-0.065812,-0.0662122,-12.8998,15,-0.000556139,10,0.000854121,-1.88942,-0.918026,-0.0642684,32.3872,-0.06621217,
2,0,0,1,0,28775.7,-0.0678187,-0.0682007,-12.9775,15,-0.000685557,10,0.000885076,-1.88681,-0.894482,-0.06596,33.3768,-0.0682007,
2,0,0,1,0,28775.7,-0.0698163,-0.0701797,-13.0322,15,-0.000815609,10,0.000914595,-1.88498,-0.966129,-0.0610685,31.0773,-0.0701797,
2,0,0,1,0,28775.7,-0.0718138,-0.0721995,-13.1018,15,-0.000946338,10,0.000945943,-1.88267,-0.880351,-0.0670187,34.2651,-0.0721995,
2,0,0,1,0,28775.7,-0.0738114,-0.0741811,-13.1693,15,-0.00107771,10,0.000976913,-1.88044,-0.751166,-0.0785445,40.4082,-0.0741811,
2,0,0,1,0,28775.7,-0.0758181,-0.0761896,-13.263,15,-0.00120995,10,0.00101051,-1.87736,-0.767543,-0.0768686,39.7478,-0.0761896,
2,0,0,1,0,28775.7,-0.0778157,-0.0782259,-13.3301,15,-0.00134295,10,0.00104276,-1.87517,-0.769482,-0.0766749,39.925,-0.0782259,
2,0,0,1,0,28775.7,-0.0798133,-0.0801633,-13.4217,15,-0.00147675,10,0.00107593,-1.87219,-0.690788,-0.0854097,44.7251,-0.08016327,
2,0,0,1,0,28775.8,-0.0818109,-0.082157,-13.5059,15,-0.00161144,10,0.0011096,-1.86948,-0.636826,-0.092647,48.8811,-0.082157,
2,0,0,1,0,28775.8,-0.0837994,-0.0841561,-13.6168,15,-0.00174574,10,0.00114594,-1.86592,-0.641877,-0.0919179,48.8002,-0.0841561,
2,0,0,1,0,28775.8,-0.085797,-0.0861761,-13.702,15,-0.00188229,10,0.00118079,-1.86322,-0.644661,-0.091521,48.9867,-0.0861761,
2,0,0,1,0,28775.8,-0.0877945,-0.08817,-13.8135,15,-0.00201986,10,0.00121793,-1.8597,-0.623837,-0.094576,50.9497,-0.08817,
2,0,0,1,0,28775.8,-0.0897921,-0.0901789,-13.9059,15,-0.00215845,10,0.00125402,-1.8568,-0.593316,-0.0994411,54.0271,-0.0901789,
2,0,0,1,0,28775.8,-0.0917806,-0.0921744,-14.0298,15,-0.00229673,10,0.00129319,-1.85295,-0.570962,-0.103334,56.531,-0.0921744,
2,0,0,1,0,28775.8,-0.0937782,-0.0941447,-14.1301,15,-0.00243752,10,0.00133028,-1.84985,-0.594027,-0.0993221,54.8047,-0.0941447,
2,0,0,1,0,28775.8,-0.0957758,-0.0961559,-14.248,15,-0.00257945,10,0.00137003,-1.84625,-0.581386,-0.101482,56.4089,-0.0961559,
2,0,0,1,0,28775.8,-0.0977734,-0.0981513,-14.3562,15,-0.00272249,10,0.00140908,-1.84296,-0.532596,-0.110778,62.129,-0.0981513,
2,0,0,1,0,28775.8,-0.0997412,-0.100115,-14.494,15,-0.00286387,10,0.00145107,-1.83881,0.111889,0.527307,-289.679,-0.1001149,
2,0,0,1,1,28775.8,-0.0996711,-0.10007,-13.8002,15,-0.00290648,10,0.00138099,-1.86011,-0.0164151,-3.59424,1765.52,-0.10007,
2,0,0,1,1,28775.9,-0.0976826,-0.0980532,-10.8541,15,-0.0030269,10,0.00106428,-1.96441,-0.0201205,-2.93233,1266.99,-0.0980532,
2,0,0,1,1,28775.9,-0.095685,-0.0960674,-8.72828,15,-0.0031242,10,0.000838503,-2.05907,-0.0206002,-2.86405,980.394,-0.0960674,
2,0,0,1,1,28775.9,-0.0936874,-0.094095,-6.97344,15,-0.00320223,10,0.000656166,-2.15655,-0.0195759,-3.0139,819.774,-0.094095,
2,0,0,1,1,28775.9,-0.0916898,-0.092086,-5.46451,15,-0.00326408,10,0.000503205,-2.26245,-0.0178701,-3.3016,701.18,-0.092086,
2,0,0,1,1,28775.9,-0.0897013,-0.0900722,-4.15274,15,-0.00331134,10,0.000374046,-2.38167,-0.015245,-3.87012,618.367,-0.0900722,
2,0,0,1,1,28775.9,-0.0877037,-0.0880594,-2.97453,15,-0.00334672,10,0.000261935,-2.52658,-0.0119735,-4.92753,555.151,-0.0880594,
2,0,0,1,1,28775.9,-0.0857062,-0.08603,-1.90872,15,-0.00337088,10,0.000164207,-2.71926,-0.00806431,-7.31619,508.991,-0.08603,
2,0,0,1,1,28775.9,-0.0837086,-0.0841048,-0.961709,15,-0.00338506,10,8.08843e-05,-3.01696,-0.00286705,-20.5786,466.208,-0.0841048,
2,0,0,1,1,28775.9,-0.0817019,-0.0821119,-0.0820622,15,-0.00339006,10,6.73828e-06,-4.08586,-0.0294552,-2.00304,414.5,-0.08211191,
2,1,0,1,1,28775.9,-0.0797043,-0.0800895,0.702628,15,-0.00338682,10,-5.62731e-05,-3.15327,0.00322321,18.3047,378.498,-0.0800895,
2,1,0,1,1,28776,-0.0777067,-0.0781079,1.43344,15,-0.00337598,10,-0.000111963,-2.84362,0.00843612,6.99374,347.51,-0.0781079,
2,1,0,1,1,28776,-0.0757091,-0.0760933,2.09135,15,-0.00335828,10,-0.000159137,-2.67957,0.0144469,4.08393,319.726,-0.0760933,
2,1,0,1,1,28776,-0.0737025,-0.074103,2.71391,15,-0.00333411,10,-0.000201109,-2.56641,0.0206039,2.86353,294.902,-0.074103,
2,1,0,1,1,28776,-0.0717049,-0.0720815,3.27444,15,-0.00330409,10,-0.000236026,-2.48486,0.027352,2.15706,271.634,-0.0720815,
2,1,0,1,1,28776,-0.0697073,-0.0701034,3.80035,15,-0.00326861,10,-0.000266417,-2.42018,0.0338945,1.74069,255.143,-0.0701034,
2,1,0,1,1,28776,-0.0677097,-0.0681322,4.28209,15,-0.00322813,10,-0.000291748,-2.36834,0.0412611,1.42992,237.509,-0.0681322,
2,1,0,1,1,28776,-0.0657212,-0.0661185,4.74678,15,-0.00318334,10,-0.000313851,-2.3236,0.0505571,1.167,214.212,-0.0661185,
2,1,0,1,1,28776,-0.0637236,-0.0640738,5.15143,15,-0.00313382,10,-0.000330072,-2.28807,0.0599297,0.984487,197.209,-0.0640738,
2,1,0,1,1,28776,-0.061726,-0.0621007,5.53915,15,-0.00308027,10,-0.000343985,-2.25656,0.0667329,0.884122,190.404,-0.0621007,
2,1,0,1,1,28776,-0.0597284,-0.0601315,5.90207,15,-0.00302303,10,-0.0003549,-2.229,0.0767459,0.76877,176.453,-0.0601315,
2,1,0,1,1,28776.1,-0.0577399,-0.0581452,6.2371,15,-0.00296293,10,-0.000362657,-2.20502,0.0905911,0.651278,157.913,-0.0581452,
2,1,0,1,1,28776.1,-0.0557423,-0.056128,6.53427,15,-0.00289903,10,-0.000366756,-2.1848,0.104165,0.566408,144.261,-0.056128,
2,1,0,1,1,28776.1,-0.0537447,-0.054077,6.82399,15,-0.00283213,10,-0.000369021,-2.16596,0.115685,0.510006,135.356,-0.05407697,
2,1,0,1,1,28776.1,-0.0517472,-0.0521422,7.07377,15,-0.00276257,10,-0.000368842,-2.15035,0.127315,0.463416,127.959,-0.0521422,
2,1,0,1,1,28776.1,-0.049745,-0.0501033,7.33245,15,-0.00269049,10,-0.00036738,-2.13475,0.141963,0.4156,118.575,-0.0501033,
2,1,0,1,1,28776.1,-0.0477429,-0.0481035,7.55266,15,-0.00261601,10,-0.000363309,-2.1219,0.159718,0.369401,108.788,-0.0481035,
2,1,0,1,1,28776.1,-0.0457453,-0.0461392,7.76369,15,-0.00253934,10,-0.000358211,-2.10993,0.17906,0.329499,99.6383,-0.0461392,
2,1,0,1,1,28776.1,-0.0437477,-0.044142,7.94738,15,-0.00246076,10,-0.000350813,-2.09978,0.20119,0.293254,90.9294,-0.044142,
2,1,0,1,1,28776.1,-0.0417501,-0.0421196,8.1292,15,-0.00238032,10,-0.000342399,-2.08995,0.217095,0.271771,86.1207,-0.04211963,
2,1,0,1,1,28776.1,-0.0397435,-0.0401111,8.29452,15,-0.00229814,10,-0.000332703,-2.08121,0.247096,0.238773,77.1917,-0.0401111,
2,1,0,1,1,28776.2,-0.0377459,-0.0380931,8.44001,15,-0.00221442,10,-0.000321506,-2.07366,0.269003,0.219328,72.2115,-0.0380931,
2,1,0,1,1,28776.2,-0.0357483,-0.0361644,8.57952,15,-0.00212931,10,-0.000310273,-2.06654,0.291156,0.202641,67.8043,-0.0361644,
2,1,0,1,1,28776.2,-0.0337507,-0.0341298,8.70874,15,-0.00204282,10,-0.000297228,-2.06004,0.340877,0.173083,58.7588,-0.0341298,
2,1,0,1,1,28776.2,-0.0317622,-0.0320882,8.81903,15,-0.00195603,10,-0.000282987,-2.05458,0.367521,0.160535,55.2455,-0.0320882,
2,1,0,1,1,28776.2,-0.0297646,-0.0301628,8.9279,15,-0.00186728,10,-0.00026929,-2.04925,0.412221,0.143127,49.809,-0.0301628,
2,1,0,1,1,28776.2,-0.027767,-0.0281371,9.01583,15,-0.00177757,10,-0.00025368,-2.04499,0.471544,0.125121,44.0283,-0.0281371,
2,1,0,1,1,28776.2,-0.0257694,-0.0261242,9.10571,15,-0.00168694,10,-0.00023788,-2.04069,0.504344,0.116984,41.536,-0.0261242,
2,1,0,1,1,28776.2,-0.0237809,-0.0241793,9.18022,15,-0.00159644,10,-0.000221971,-2.03715,0.552499,0.106787,38.2644,-0.0241793,
2,1,0,1,1,28776.2,-0.0217833,-0.0221543,9.25762,15,-0.0015042,10,-0.000205096,-2.0335,0.660665,0.0893039,32.2184,-0.0221543,
2,1,0,1,1,28776.2,-0.0197858,-0.0201978,9.3085,15,-0.00141136,10,-0.000188012,-2.03112,0.763458,0.07728,28.0888,-0.0201978,
2,1,0,1,1,28776.3,-0.0177882,-0.0181824,9.36918,15,-0.00131794,10,-0.000170354,-2.0283,0.764402,0.0771845,28.2113,-0.0181824,
2,1,0,1,1,28776.3,-0.0157815,-0.0161505,9.42268,15,-0.001224,10,-0.000152181,-2.02583,0.902977,0.0653395,24.0154,-0.0161505,
2,1,0,1,1,28776.3,-0.0137839,-0.0141255,9.46661,15,-0.0011295,10,-0.00013372,-2.02381,1.19108,0.0495349,18.2864,-0.0141255,
2,1,0,1,1,28776.3,-0.0117863,-0.0121569,9.49571,15,-0.00103469,10,-0.000115438,-2.02247,1.16922,0.0504608,18.7161,-0.0121569,
2,1,0,1,1,28776.3,-0.00978874,-0.010144,9.54113,15,-0.000939451,10,-9.67854e-05,-2.0204,1.0482,0.0562867,20.9503,-0.010144,
2,1,0,1,1,28776.3,-0.00778207,-0.00819017,9.57881,15,-0.00084387,10,-7.84521e-05,-2.01869,1.39729,0.0422246,15.7744,-0.008190169,
2,1,0,1,1,28776.3,-0.00578449,-0.00616605,9.60388,15,-0.000747955,10,-5.9218e-05,-2.01755,2.09712,0.0281339,10.5407,-0.00616605,
2,1,0,1,1,28776.3,-0.0037869,-0.00415146,9.62138,15,-0.000651835,10,-3.99428e-05,-2.01676,2.0223,0.0291747,10.96,-0.00415146,
2,1,0,1,1,28776.3,-0.00178931,-0.00214209,9.64798,15,-0.000555448,10,-2.06668e-05,-2.01556,3.48497,0.0169298,6.3649,-0.00214209,
2,1,0,1,1,28776.3,-2.55332e-05,-0.000401673,9.64525,15,-0.000471486,10,-3.87424e-06,-2.01569, , , ,-0.000401673,