File: Figure_codes/Fig_3-5/rawdata_trumpetplot_data/after 10th/20221101_1-115_003_TrumpetPlot_ParaChange_from10_every3_03_CV_C01_6.csv
mode,ox/red,error,control changes,counter inc.,time/s,control/V,Ewe/V,<I>/mA,cycle number,(Q-Qo)/C,I Range,P/W,log(|I|),Tafel slope mV/dec,alpha_eff,dI/d(E-IR),E-IR/V,
2,0,0,1,0,12760.8,2.44065e-05,-0.000401673,-0.110207,7,0.0000000E+000,10,4.4267e-08,-3.95779, , , ,-0.000401673,
2,1,0,0,0,12761.1,0.00129787,0.000924896,0.144841,7,2.74682e-05,10,1.33963e-07,-3.83911, , , ,0.000924896,
2,1,0,0,0,12761.4,0.00279606,0.00248581,0.180484,7,8.27044e-05,10,4.48649e-07,-3.74356,0.0197914,2.98109,18.0713,0.00248581,
2,1,0,1,0,12761.7,0.00429469,0.00401632,0.189505,7,0.000142857,10,7.61111e-07,-3.72238,0.0769849,0.766384,5.74539,0.00401632,
2,1,0,1,0,12762,0.00579255,0.00546451,0.199034,7,0.000206142,10,1.08763e-06,-3.70107,0.0682893,0.863972,6.69749,0.00546451,
2,1,0,1,0,12762.3,0.00729041,0.00697332,0.211478,7,0.000272487,10,1.4747e-06,-3.67474,0.085441,0.690535,5.61018,0.00697332,
2,1,0,1,0,12762.6,0.00878882,0.00847499,0.218638,7,0.00034147,10,1.85296e-06,-3.66027,0.101949,0.578721,4.88895,0.00847499,
2,1,0,1,0,12762.8,0.010287,0.0099532,0.226064,7,0.000412657,10,2.25006e-06,-3.64577,0.129597,0.455259,3.9717,0.0099532,
2,1,0,1,0,12763.1,0.0117852,0.0114622,0.230089,7,0.000485725,10,2.63731e-06,-3.6381,0.133512,0.441908,3.96619,0.0114622,
2,1,0,1,0,12763.4,0.0132836,0.0130031,0.237836,7,0.000560575,10,3.0926e-06,-3.62372,0.117625,0.501593,4.65081,0.0130031,
2,1,0,1,0,12763.7,0.0147815,0.0144798,0.242925,7,0.000637258,10,3.51752e-06,-3.61453,0.139147,0.424013,4.00909,0.0144798,
2,1,0,1,0,12764,0.0162793,0.0159613,0.247779,7,0.000716047,10,3.95488e-06,-3.60594,0.165901,0.355633,3.42696,0.0159613,
2,1,0,0,0,12764.3,0.017778,0.0174948,0.254854,7,0.000796283,10,4.45862e-06,-3.59371,0.16561,0.356258,3.53354,0.0174948,
2,1,0,0,0,12764.6,0.0192761,0.0189751,0.259419,7,0.000877769,10,4.92251e-06,-3.586,0.156232,0.377642,3.81305,0.0189751,
2,1,0,1,0,12764.9,0.0207747,0.0204482,0.2656,7,0.000961202,10,5.43103e-06,-3.57577,0.155643,0.379072,3.90193,0.0204482,
2,1,0,1,0,12765.2,0.0222725,0.0219231,0.270383,7,0.00104631,10,5.92762e-06,-3.56802,0.151804,0.388659,4.09259,0.0219231,
2,1,0,1,0,12765.5,0.0237704,0.0234603,0.274594,7,0.00113312,10,6.44204e-06,-3.56131,0.18494,0.319023,3.43927,0.02346028,
2,1,0,1,0,12765.8,0.0252689,0.0249887,0.279394,7,0.00122128,10,6.98169e-06,-3.55378,0.184826,0.319219,3.50375,0.0249887,
2,1,0,1,0,12766.1,0.0267671,0.0265072,0.287051,7,0.0013112,10,7.60893e-06,-3.54204,0.143581,0.410917,4.58932,0.0265072,
2,1,0,1,0,12766.4,0.0282657,0.027936,0.293146,7,0.00140301,10,8.18934e-06,-3.53292,0.170094,0.346867,3.95608,0.027936,
2,1,0,1,0,12766.7,0.0297635,0.0294668,0.298414,7,0.00149654,10,8.7933e-06,-3.52518,0.185056,0.318823,3.70174,0.0294668,
2,1,0,1,0,12767,0.0312613,0.0309563,0.301816,7,0.00159159,10,9.34312e-06,-3.52026,0.180145,0.327515,3.87974,0.0309563,
2,1,0,0,0,12767.3,0.0327599,0.0324222,0.309536,7,0.00168813,10,1.00358e-05,-3.50929,0.193861,0.304342,3.67239,0.0324222,
2,1,0,0,0,12767.6,0.034258,0.0339258,0.314732,7,0.00178649,10,1.06775e-05,-3.50206,0.197857,0.298195,3.65986,0.0339258,
2,1,0,1,0,12767.9,0.0357567,0.0354394,0.32107,7,0.00188654,10,1.13785e-05,-3.4934,0.232784,0.253454,3.1524,0.0354394,
2,1,0,1,0,12768.2,0.0372545,0.0369375,0.324216,7,0.00198804,10,1.19757e-05,-3.48917,0.21293,0.277086,3.52508,0.0369375,
2,1,0,1,0,12768.5,0.0387524,0.0384154,0.331033,7,0.002091,10,1.27168e-05,-3.48013,0.179371,0.328927,4.26361,0.0384154,
2,1,0,1,0,12768.8,0.0402508,0.0399277,0.336506,7,0.00219593,10,1.34359e-05,-3.47301,0.211334,0.279179,3.67416,0.03992771,
2,1,0,1,0,12769.1,0.041749,0.0414208,0.342252,7,0.00230274,10,1.41763e-05,-3.46565,0.263058,0.224285,2.98521,0.0414208,
2,1,0,1,0,12769.4,0.0432472,0.042935,0.3472,7,0.00241089,10,1.4907e-05,-3.45942,0.241148,0.244663,3.31271,0.042935,
2,1,0,1,0,12769.7,0.0447456,0.0444294,0.352223,7,0.00252035,10,1.56491e-05,-3.45318,0.241575,0.244231,3.36251,0.0444294,
2,1,0,1,0,12770,0.0462435,0.0458988,0.357539,7,0.00263153,10,1.64106e-05,-3.44668,0.203795,0.289507,4.033,0.04589878,
2,1,0,1,0,12770.3,0.0477413,0.0473775,0.362039,7,0.00274435,10,1.71525e-05,-3.44124,0.233184,0.253019,3.58937,0.0473775,
2,1,0,0,0,12770.6,0.0492399,0.0489242,0.367899,7,0.00285876,10,1.79992e-05,-3.43427,0.266362,0.221503,3.17997,0.0489242,
2,1,0,0,0,12770.9,0.0507381,0.0504332,0.371856,7,0.00297453,10,1.87538e-05,-3.42963,0.261614,0.225523,3.28367,0.0504332,
2,1,0,1,0,12771.2,0.0522367,0.0519254,0.377295,7,0.00309184,10,1.95912e-05,-3.42332,0.222135,0.265605,3.90977,0.0519254,
2,1,0,1,0,12771.5,0.0537345,0.0534203,0.384653,7,0.00321092,10,2.05483e-05,-3.41493,0.275468,0.214181,3.19327,0.0534203,
2,1,0,1,0,12771.8,0.0552323,0.0549712,0.386793,7,0.00333138,10,2.12625e-05,-3.41252,0.322638,0.182868,2.76422,0.0549712,
2,1,0,1,0,12772.1,0.0567309,0.0563757,0.389292,7,0.003453,10,2.19466e-05,-3.40972,0.296562,0.198947,3.03854,0.0563757,
2,1,0,1,0,12772.4,0.0582291,0.0578868,0.396687,7,0.00357584,10,2.29629e-05,-3.40155,0.321601,0.183457,2.83752,0.0578868,
2,1,0,1,0,12772.7,0.0597277,0.0593939,0.401547,7,0.00370038,10,2.38494e-05,-3.39626,0.307115,0.19211,3.00696,0.0593939,
2,1,0,1,0,12773,0.0612255,0.0609036,0.404766,7,0.00382622,10,2.46517e-05,-3.3928,0.43373,0.136029,2.14903,0.0609036,
2,1,0,1,0,12773.3,0.0627233,0.0623794,0.410283,7,0.00395327,10,2.55932e-05,-3.38692,0.361591,0.163168,2.61642,0.0623794,
2,1,0,0,0,12773.6,0.0642218,0.0638929,0.412709,7,0.00408137,10,2.63692e-05,-3.38436,0.343349,0.171837,2.78251,0.0638929,
2,1,0,0,0,12773.9,0.06572,0.0653965,0.418064,7,0.00421092,10,2.73399e-05,-3.37876,0.29397,0.200701,3.27407,0.0653965,
2,1,0,1,0,12774.2,0.0672187,0.0668796,0.422953,7,0.00434203,10,2.82869e-05,-3.37371,0.391849,0.150568,2.4754,0.0668796,
2,1,0,1,0,12774.5,0.0687165,0.0683965,0.42695,7,0.00447414,10,2.92019e-05,-3.36962,0.399394,0.147724,2.45842,0.0683965,
2,1,0,1,0,12774.8,0.0702144,0.0699488,0.429136,7,0.00460697,10,3.00176e-05,-3.3674,0.37445,0.157564,2.64017,0.0699488,
2,1,0,1,0,12775.1,0.0717128,0.071373,0.433072,7,0.00474129,10,3.09097e-05,-3.36344,0.347175,0.169943,2.86946,0.071373,
2,1,0,1,0,12775.4,0.073211,0.0728968,0.437869,7,0.00487666,10,3.19192e-05,-3.35866,0.390452,0.151107,2.58125,0.0728968,
2,1,0,1,0,12775.7,0.0747092,0.0744111,0.439521,7,0.00501315,10,3.27053e-05,-3.35702,0.513331,0.114936,1.97458,0.0744111,
2,1,0,1,0,12776,0.0762076,0.0758947,0.441855,7,0.00515036,10,3.35344e-05,-3.35472,0.41768,0.141257,2.44698,0.0758947,
2,1,0,1,0,12776.3,0.0777054,0.0773685,0.447023,7,0.00528865,10,3.45855e-05,-3.34967,0.380711,0.154973,2.70251,0.0773685,
2,1,0,1,0,12776.6,0.0792033,0.0788641,0.451959,7,0.00542824,10,3.56434e-05,-3.3449,0.43466,0.135738,2.38734,0.0788641,
2,1,0,0,0,12776.9,0.0807019,0.0803992,0.454441,7,0.00556903,10,3.65367e-05,-3.34252,0.504905,0.116854,2.06747,0.0803992,
2,1,0,0,0,12777.2,0.0822001,0.0818763,0.455959,7,0.00571064,10,3.73322e-05,-3.34107,0.443566,0.133013,2.377,0.08187633,
2,1,0,1,0,12777.5,0.0836986,0.0834069,0.461067,7,0.00585331,10,3.84562e-05,-3.33624,0.343479,0.171772,3.09891,0.08340691,
2,1,0,1,0,12777.8,0.0851965,0.0848508,0.465942,7,0.00599719,10,3.95356e-05,-3.33167,0.432119,0.136537,2.48932,0.0848508,
2,1,0,1,0,12778.1,0.0866944,0.086403,0.470409,7,0.00614271,10,4.06447e-05,-3.32752,0.434247,0.135867,2.48921,0.08640296,
2,1,0,1,0,12778.4,0.0881929,0.0878878,0.475912,7,0.00628956,10,4.18268e-05,-3.32247,0.314245,0.187752,3.49429,0.0878878,
2,1,0,1,0,12778.7,0.0896911,0.0893586,0.4814,7,0.00643759,10,4.30172e-05,-3.31749,0.277349,0.212729,3.99593,0.0893586,
2,1,0,1,0,12779,0.0911897,0.0908924,0.488724,7,0.00658776,10,4.44213e-05,-3.31094,0.251094,0.234971,4.46667,0.09089236,
2,1,0,1,0,12779.3,0.0926875,0.0923712,0.494971,7,0.0067401,10,4.57211e-05,-3.30542,0.230996,0.255416,4.92635,0.0923712,
2,1,0,1,0,12779.6,0.0941853,0.093866,0.501932,7,0.00689418,10,4.71143e-05,-3.29936,0.253521,0.232723,4.5702,0.093866,
2,1,0,0,0,12779.9,0.0956838,0.0953955,0.507028,7,0.00705018,10,4.83682e-05,-3.29497,0.21331,0.276593,5.50442,0.0953955,
2,1,0,0,0,12780.2,0.097182,0.0968673,0.517502,7,0.00720869,10,5.01291e-05,-3.28609,0.186597,0.31619,6.37123,0.0968673,
2,1,0,1,0,12780.5,0.0986807,0.0983511,0.525222,7,0.00737004,10,5.16561e-05,-3.27966,0.195509,0.301776,6.18983,0.0983511,
2,1,0,1,0,12780.8,0.100179,0.0998873,0.533712,7,0.00753386,10,5.3311e-05,-3.27269,0.201518,0.292778,6.1252,0.0998873,
2,1,0,1,0,12781.1,0.101676,0.101375,0.541981,7,0.00770016,10,5.49432e-05,-3.26602,0.208949,0.282366,6.00389,0.101375,
2,1,0,1,0,12781.4,0.103175,0.102833,0.553351,7,0.00786924,10,5.69029e-05,-3.257,0.203162,0.290409,6.27293,0.102833,
2,1,0,1,0,12781.7,0.104673,0.104368,0.566162,7,0.0080415,10,5.90889e-05,-3.24706,0.207542,0.284279,6.23786,0.104368,
2,1,0,1,0,12782,0.106171,0.105814,0.572817,7,0.00821663,10,6.06121e-05,-3.24198,0.247961,0.237941,5.28774,0.105814,
2,1,0,1,0,12782.3,0.10767,0.107359,0.579948,7,0.00839441,10,6.22627e-05,-3.23661,0.224763,0.262498,5.95023,0.107359,
2,1,0,1,0,12782.6,0.109167,0.108846,0.589437,7,0.00857427,10,6.41581e-05,-3.22956,0.25427,0.232037,5.33914,0.108846,
2,1,0,1,0,12782.9,0.110665,0.11037,0.596825,7,0.00875706,10,6.58718e-05,-3.22415,0.251185,0.234887,5.47086,0.11037,
2,1,0,0,0,12783.2,0.112164,0.111856,0.605605,7,0.00894232,10,6.77406e-05,-3.21781,0.343241,0.171891,4.04203,0.111856,
2,1,0,0,0,12783.5,0.113662,0.113358,0.612758,7,0.00912975,10,6.94609e-05,-3.21271,0.335407,0.175905,4.19581,0.113358,
2,1,0,1,0,12783.8,0.115161,0.114828,0.617827,7,0.00931869,10,7.09437e-05,-3.20913,0.34176,0.172636,4.15606,0.114828,
2,1,0,1,0,12784.1,0.116658,0.116313,0.624405,7,0.00950979,10,7.26264e-05,-3.20453,0.318011,0.185528,4.50834,0.116313,
2,1,0,1,0,12784.4,0.118156,0.117841,0.630479,7,0.00970315,10,7.42961e-05,-3.20033,0.344157,0.171433,4.21588,0.117841,
2,1,0,1,0,12784.7,0.119655,0.119304,0.63644,7,0.00989823,10,7.59302e-05,-3.19624,0.426606,0.138301,3.43894,0.119304,
2,1,0,1,0,12785,0.121153,0.120831,0.639373,7,0.0100946,10,7.72564e-05,-3.19425,0.364249,0.161977,4.06787,0.120831,
2,1,0,1,0,12785.3,0.122652,0.122329,0.648668,7,0.0102932,10,7.93511e-05,-3.18798,0.288133,0.204767,5.1767,0.122329,
2,1,0,1,0,12785.6,0.124149,0.123813,0.655939,7,0.0104938,10,8.12139e-05,-3.18314,0.304976,0.193458,4.95059,0.123813,
2,1,0,1,0,12785.9,0.125647,0.125319,0.662427,7,0.0106965,10,8.30146e-05,-3.17886,0.384213,0.153561,3.95907,0.125319,
2,1,0,0,0,12786.2,0.127146,0.126874,0.665127,7,0.0109009,10,8.4387e-05,-3.1771,0.412758,0.142941,3.72411,0.126874,
2,1,0,0,0,12786.5,0.128644,0.128329,0.673014,7,0.0111066,10,8.63668e-05,-3.17198,0.501542,0.117637,3.09008,0.1283285,
2,1,0,1,0,12786.8,0.130143,0.129827,0.679222,7,0.0113143,10,8.81815e-05,-3.16799,0.589527,0.10008,2.64106,0.129827,
2,1,0,1,0,12787.1,0.131641,0.131351,0.681385,7,0.0115232,10,8.95005e-05,-3.16661,8.13653,0.00725125,0.191612,0.131351,
2,1,0,1,0,12787.4,0.133138,0.132834,0.680804,7,0.0117324,10,9.04338e-05,-3.16698,-3.68144,-0.0160263,-0.425301,0.132834,
2,1,0,1,0,12787.7,0.134637,0.13436,0.67884,7,0.0119408,10,9.12089e-05,-3.16823,-0.608918,-0.0968931,-2.56289,0.13436,
2,1,0,1,0,12788,0.136135,0.135876,0.674227,7,0.0121486,10,9.16116e-05,-3.17119,-0.372809,-0.158258,-4.14386,0.135876,
2,1,0,1,0,12788.3,0.137633,0.137322,0.666879,7,0.0123545,10,9.1577e-05,-3.17595,-0.209768,-0.281263,-7.25479,0.1373218,
2,1,0,1,0,12788.6,0.139132,0.138867,0.653609,7,0.0125574,10,9.07648e-05,-3.18468,-0.163661,-0.360502,-9.13454,0.138867,
2,1,0,1,0,12788.9,0.140629,0.140315,0.636869,7,0.0127554,10,8.93625e-05,-3.19595,-0.12872,-0.458359,-11.3457,0.1403154,
2,1,0,1,0,12789.2,0.142127,0.14183,0.618921,7,0.0129486,10,8.77817e-05,-3.20837,-0.109128,-0.540649,-12.9781,0.1418303,
2,1,0,0,0,12789.5,0.143626,0.143305,0.596877,7,0.0131362,10,8.55352e-05,-3.22412,-0.0917727,-0.642892,-14.9195,0.143305,
2,1,0,0,0,12789.8,0.145124,0.144814,0.572713,7,0.0133165,10,8.29367e-05,-3.24206,-0.0795371,-0.741792,-16.6283,0.144814,
2,1,0,1,0,12790.1,0.146623,0.146317,0.547831,7,0.0134892,10,8.01568e-05,-3.26135,-0.0765242,-0.770998,-16.5234,0.146317,
2,1,0,1,0,12790.4,0.14812,0.147838,0.524925,7,0.0136549,10,7.76037e-05,-3.2799,-0.0768241,-0.767988,-15.6943,0.147838,
2,1,0,1,0,12790.7,0.149618,0.149293,0.500804,7,0.0138134,10,7.47668e-05,-3.30033,-0.0733233,-0.804655,-15.7395,0.149293,
2,1,0,1,0,12791,0.151117,0.150809,0.47912,7,0.0139651,10,7.22556e-05,-3.31956,-0.0759945,-0.776372,-14.5025,0.150809,
2,1,0,1,0,12791.3,0.152615,0.152288,0.455432,7,0.0141099,10,6.9357e-05,-3.34158,-0.0808944,-0.729346,-13.0515,0.152288,
2,1,0,1,0,12791.6,0.154114,0.153774,0.438547,7,0.0142489,10,6.74373e-05,-3.35798,-0.0896868,-0.657845,-11.3142,0.153774,
2,1,0,1,0,12791.9,0.155612,0.155288,0.424166,7,0.014383,10,6.5868e-05,-3.37246,-0.0976699,-0.604076,-9.99334,0.1552884,
2,1,0,1,0,12792.2,0.157109,0.156797,0.408106,7,0.0145126,10,6.39897e-05,-3.38923,-0.100856,-0.584992,-9.32991,0.156797,
2,1,0,0,0,12792.5,0.158608,0.158304,0.395156,7,0.0146381,10,6.25548e-05,-3.40323,-0.115707,-0.509907,-7.91511,0.158304,
2,1,0,0,0,12792.8,0.160106,0.159848,0.385149,7,0.0147597,10,6.15653e-05,-3.41437,-0.130534,-0.451988,-6.8199,0.159848,
2,1,0,1,0,12793.1,0.161605,0.161289,0.375725,7,0.0148787,10,6.06004e-05,-3.42513,-0.150653,-0.391628,-5.7461,0.161289,
2,1,0,1,0,12793.4,0.163102,0.162785,0.3688,7,0.0149949,10,6.00353e-05,-3.43321,-0.165002,-0.357572,-5.13351,0.162785,
2,1,0,1,0,12793.7,0.1646,0.16425,0.360418,7,0.0151087,10,5.91985e-05,-3.44319,-0.187615,-0.314474,-4.42412,0.16425,
2,1,0,1,0,12794,0.166099,0.165799,0.353661,7,0.0152203,10,5.86366e-05,-3.45141,-0.194917,-0.302693,-4.18432,0.165799,
2,1,0,1,0,12794.3,0.167597,0.167284,0.347367,7,0.0153303,10,5.81088e-05,-3.45921,-0.250276,-0.23574,-3.20161,0.167284,
2,1,0,1,0,12794.6,0.169095,0.16877,0.344121,7,0.0154387,10,5.80774e-05,-3.46329,-0.267995,-0.220153,-2.95693,0.16877,
2,1,0,1,0,12794.9,0.170594,0.170243,0.33857,7,0.0155457,10,5.76393e-05,-3.47035,-0.254257,-0.232049,-3.07802,0.170243,
2,1,0,1,0,12795.2,0.172091,0.171785,0.333773,7,0.0156511,10,5.73372e-05,-3.47655,-0.260897,-0.226143,-2.96543,0.171785,
2,1,0,1,0,12795.5,0.173589,0.173258,0.331093,7,0.0157555,10,5.73643e-05,-3.48005,-0.38095,-0.154876,-2.00173,0.1732575,
2,1,0,0,0,12795.8,0.175088,0.174768,0.328597,7,0.0158589,10,5.74281e-05,-3.48334,-0.336898,-0.175127,-2.24107,0.174768,
2,1,0,0,0,12796.1,0.176586,0.176285,0.324614,7,0.0159614,10,5.72247e-05,-3.48863,-0.354753,-0.166313,-2.10777,0.176285,
2,1,0,1,0,12796.4,0.178085,0.177742,0.320502,7,0.0160629,10,5.69666e-05,-3.49417,-0.390518,-0.151082,-1.90126,0.177742,
2,1,0,1,0,12796.7,0.179582,0.179291,0.318693,7,0.0161636,10,5.71387e-05,-3.49663,-0.76522,-0.077102,-0.964795,0.179291,
2,1,0,1,0,12797,0.18108,0.180736,0.317098,7,0.0162637,10,5.73109e-05,-3.49881,-0.499571,-0.118101,-1.46242,0.180736,
2,1,0,1,0,12797.3,0.182579,0.182281,0.315194,7,0.0163634,10,5.74539e-05,-3.50142,-0.400738,-0.147228,-1.80685,0.182281,
2,1,0,1,0,12797.6,0.184077,0.183792,0.313367,7,0.0164623,10,5.75944e-05,-3.50395,-0.547556,-0.107751,-1.31894,0.183792,
2,1,0,1,0,12797.9,0.185576,0.185266,0.311557,7,0.0165605,10,5.77208e-05,-3.50646,-0.496458,-0.118842,-1.44449,0.185266,
2,1,0,1,0,12798.2,0.187074,0.186731,0.310136,7,0.0166583,10,5.79118e-05,-3.50845,-0.465884,-0.126641,-1.53023,0.186731,
2,1,0,1,0,12798.5,0.188571,0.188264,0.308119,7,0.0167556,10,5.80078e-05,-3.51128,-0.769438,-0.0766793,-0.92168,0.188264,
2,1,0,0,0,12798.8,0.19007,0.189741,0.306734,7,0.0168524,10,5.82001e-05,-3.51324,-0.592478,-0.0995817,-1.18944,0.1897409,
2,1,0,0,0,12799.1,0.191568,0.191248,0.305695,7,0.0169487,10,5.84635e-05,-3.51471,-0.653149,-0.0903316,-1.0767,0.191248,
2,1,0,1,0,12799.4,0.193067,0.192714,0.304009,7,0.0170446,10,5.85867e-05,-3.51711,-1.12866,-0.0522744,-0.619054,0.192714,
2,1,0,1,0,12799.7,0.194564,0.194253,0.302426,7,0.0171403,10,5.87472e-05,-3.51938,-1.00326,-0.0588082,-0.694218,0.1942531,
2,1,0,1,0,12800,0.196062,0.195748,0.301055,7,0.0172354,10,5.89309e-05,-3.52135,-0.723917,-0.081501,-0.96112,0.195748,
2,1,0,1,0,12800.3,0.197561,0.19725,0.299317,7,0.0173301,10,5.90402e-05,-3.52387,-0.910591,-0.0647931,-0.759517,0.19725,
2,1,0,1,0,12800.6,0.199059,0.198725,0.299572,7,0.0174245,10,5.95323e-05,-3.5235,-1.00961,-0.0584382,-0.683115,0.198725,
2,1,0,1,0,12800.9,0.200557,0.200238,0.299548,7,0.0175188,10,5.99807e-05,-3.52353,-0.853828,-0.0691006,-0.803256,0.200238,
2,1,0,1,0,12801.2,0.202056,0.201741,0.297516,7,0.0176128,10,6.00211e-05,-3.52649,-1.52649,-0.0386509,-0.447899,0.201741,
2,1,0,1,0,12801.5,0.203553,0.203247,0.295672,7,0.0177064,10,6.00944e-05,-3.52919,-0.811961,-0.0726636,-0.841025,0.2032471,
2,1,0,1,0,12801.8,0.205051,0.204687,0.295514,7,0.0177996,10,6.04878e-05,-3.52942,15.3013,0.00385589,0.0448567,0.204687,
2,1,0,0,0,12802.1,0.20655,0.206242,0.29432,7,0.0178926,10,6.07011e-05,-3.53118,-1.21419,-0.0485922,-0.559634,0.206242,
2,1,0,0,0,12802.4,0.208048,0.207715,0.293509,7,0.0179857,10,6.09661e-05,-3.53238,-0.618609,-0.0953752,-1.08856,0.207715,
2,1,0,1,0,12802.7,0.209547,0.209252,0.292798,7,0.0180782,10,6.12684e-05,-3.53343,-0.954583,-0.0618071,-0.70435,0.209252,
2,1,0,1,0,12803,0.211044,0.210757,0.29172,7,0.0181701,10,6.1482e-05,-3.53503,-0.768406,-0.0767823,-0.873514,0.210757,
2,1,0,1,0,12803.3,0.212542,0.212241,0.290463,7,0.018262,10,6.16482e-05,-3.53691,-1.17543,-0.0501945,-0.568144,0.212241,
2,1,0,1,0,12803.6,0.214041,0.213756,0.289943,7,0.0183537,10,6.1977e-05,-3.53769,-1.548,-0.0381138,-0.431375,0.213756,
2,1,0,1,0,12803.9,0.215539,0.215244,0.289647,7,0.0184451,10,6.23447e-05,-3.53813,-0.991857,-0.0594844,-0.670977,0.215244,
2,1,0,1,0,12804.2,0.217038,0.216725,0.288017,7,0.0185362,10,6.24207e-05,-3.54058,-1.53546,-0.0384249,-0.432473,0.216725,
2,1,0,1,0,12804.5,0.218535,0.218285,0.286791,7,0.0186271,10,6.26022e-05,-3.54243,-15.004,-0.00393227,-0.043937,0.218285,
2,1,0,1,0,12804.8,0.220033,0.219746,0.287222,7,0.018718,10,6.31159e-05,-3.54178,-1.45349,-0.040592,-0.455531,0.219746,
2,1,0,0,0,12805.1,0.221532,0.221235,0.285396,7,0.0188086,10,6.31397e-05,-3.54455,-2.86288,-0.0206086,-0.230394,0.221235,
2,1,0,0,0,12805.4,0.22303,0.222761,0.284594,7,0.0188989,10,6.33964e-05,-3.54577,-1.19652,-0.0493099,-0.548779,0.222761,
2,1,0,1,0,12805.7,0.224529,0.224244,0.284808,7,0.018989,10,6.38664e-05,-3.54545,-3.3534,-0.0175941,-0.195089,0.224244,
2,1,0,1,0,12806,0.226026,0.225765,0.284468,7,0.0190789,10,6.42229e-05,-3.54597,-1.65901,-0.0355634,-0.394814,0.225765,
2,1,0,1,0,12806.3,0.227524,0.227213,0.283955,7,0.0191687,10,6.45184e-05,-3.54675,-1.85753,-0.0317626,-0.351102,0.227213,
2,1,0,1,0,12806.6,0.229023,0.228727,0.282411,7,0.0192583,10,6.45948e-05,-3.54912,-2.05654,-0.028689,-0.317727,0.228727,
2,1,0,1,0,12806.9,0.230521,0.230211,0.281493,7,0.0193475,10,6.48029e-05,-3.55053,-3.98157,-0.0148183,-0.163676,0.230211,
2,1,0,1,0,12807.2,0.232019,0.231713,0.281387,7,0.0194368,10,6.52009e-05,-3.5507,-4.61492,-0.0127846,-0.140346,0.231713,
2,1,0,1,0,12807.5,0.233518,0.233218,0.281099,7,0.019526,10,6.55573e-05,-3.55114,-1.10344,-0.0534692,-0.587721,0.233218,
2,1,0,1,0,12807.8,0.235015,0.234696,0.280963,7,0.0196149,10,6.59408e-05,-3.55135,-0.91801,-0.0642694,-0.70447,0.234696,
2,1,0,1,0,12808.1,0.236513,0.236208,0.280912,7,0.0197035,10,6.63539e-05,-3.55143,-2.19089,-0.0269297,-0.294895,0.236208,
2,1,0,0,0,12808.4,0.238012,0.237708,0.28101,7,0.0197921,10,6.67985e-05,-3.55128,-3.14133,-0.0187818,-0.205088,0.237708,
2,1,0,0,0,12808.7,0.23951,0.239216,0.279706,7,0.0198807,10,6.69102e-05,-3.5533,-1.78287,-0.0330928,-0.361753,0.239216,
2,1,0,1,0,12809,0.241009,0.240717,0.278607,7,0.0199692,10,6.70655e-05,-3.55501,-2.00749,-0.02939,-0.321815,0.240717,
2,1,0,1,0,12809.3,0.242506,0.242141,0.278656,7,0.0200572,10,6.74741e-05,-3.55493,-1.05564,-0.0558902,-0.609629,0.2421408,
2,1,0,1,0,12809.6,0.244004,0.243721,0.277721,7,0.0201453,10,6.76865e-05,-3.55639,11.823,0.00499026,0.0541057,0.243721,
2,1,0,1,0,12809.9,0.245503,0.245193,0.278404,7,0.0202333,10,6.82628e-05,-3.55532,-2.46206,-0.0239637,-0.259928,0.245193,
2,1,0,1,0,12810.2,0.247001,0.24672,0.276875,7,0.0203211,10,6.83105e-05,-3.55772,-1.83886,-0.0320851,-0.347228,0.2467197,
2,1,0,1,0,12810.5,0.2485,0.248209,0.275725,7,0.0204087,10,6.84375e-05,-3.55952,80.4986,0.000732932,0.0079069,0.248209,
2,1,0,1,0,12810.8,0.249997,0.24972,0.276132,7,0.0204961,10,6.89557e-05,-3.55888,-2.42291,-0.0243509,-0.262295,0.24972,
2,1,0,1,0,12811.1,0.251495,0.25117,0.276436,7,0.0205834,10,6.94323e-05,-3.55841,-1.49628,-0.0394312,-0.423524,0.25117,
2,1,0,0,0,12811.4,0.252994,0.252678,0.274791,7,0.0206707,10,6.94338e-05,-3.561,-0.836568,-0.0705262,-0.755841,0.252678,
2,1,0,0,0,12811.7,0.254492,0.25417,0.27493,7,0.0207579,10,6.9879e-05,-3.56078,-1.54,-0.0383116,-0.411651,0.25417,
2,1,0,1,0,12812,0.255991,0.255668,0.274556,7,0.0208447,10,7.01951e-05,-3.56137,-5.27317,-0.0111887,-0.120231,0.2556679,
2,1,0,1,0,12812.3,0.257488,0.257176,0.274579,7,0.0209316,10,7.06152e-05,-3.56133,27.8548,0.00211813,0.0226272,0.257176,
2,1,0,1,0,12812.6,0.258986,0.258717,0.273655,7,0.0210185,10,7.07991e-05,-3.5628,-2.56531,-0.0229992,-0.245162,0.258717,
2,1,0,1,0,12812.9,0.260485,0.2602,0.273662,7,0.0211052,10,7.12068e-05,-3.56279,-2.85196,-0.0206875,-0.220437,0.2602,
2,1,0,1,0,12813.2,0.261983,0.261647,0.272954,7,0.0211916,10,7.14176e-05,-3.56391,-1.88226,-0.0313453,-0.332941,0.261647,
2,1,0,1,0,12813.5,0.263481,0.263198,0.272196,7,0.0212779,10,7.16415e-05,-3.56512,-4.02259,-0.0146672,-0.155547,0.263198,
2,1,0,1,0,12813.8,0.26498,0.264665,0.271661,7,0.0213642,10,7.18991e-05,-3.56597,-5.20765,-0.0113295,-0.12007,0.264665,
2,1,0,1,0,12814.1,0.266477,0.266203,0.27144,7,0.0214503,10,7.22584e-05,-3.56633,-2.61632,-0.0225508,-0.239342,0.266203,
2,1,0,0,0,12814.4,0.267976,0.267677,0.269388,7,0.0215361,10,7.21089e-05,-3.56962,-4.46773,-0.0132058,-0.140119,0.267677,
2,1,0,0,0,12814.7,0.269474,0.269194,0.271333,7,0.0216219,10,7.30412e-05,-3.5665,9.32858,0.00632465,0.0665945,0.269194,
2,1,0,0,0,12815,0.270972,0.270675,0.272807,7,0.0217078,10,7.38421e-05,-3.56414,29.4519,0.00200327,0.0211087,0.270675,
2,1,0,1,0,12815.3,0.27247,0.272167,0.270585,7,0.0217935,10,7.36441e-05,-3.5677,-2.19602,-0.0268668,-0.282713,0.272167,
2,1,0,1,0,12815.6,0.273968,0.273691,0.269248,7,0.021879,10,7.36908e-05,-3.56985,4.44869,0.0132623,0.139682,0.273691,
2,1,0,1,0,12815.9,0.275466,0.275155,0.268658,7,0.0219644,10,7.39226e-05,-3.5708,-3.30562,-0.0178484,-0.1877,0.275155,
2,1,0,1,0,12816.2,0.276965,0.27662,0.269181,7,0.0220497,10,7.44607e-05,-3.56996,-3.45814,-0.0170612,-0.179879,0.27662,
2,1,0,1,0,12816.5,0.278463,0.278145,0.268555,7,0.022135,10,7.46971e-05,-3.57097,-0.776554,-0.0759767,-0.795379,0.278145,
2,1,0,1,0,12816.8,0.279962,0.279656,0.269376,7,0.0222202,10,7.53327e-05,-3.56964,-2.04193,-0.0288942,-0.302555,0.279656,
2,1,0,1,0,12817.1,0.281459,0.281128,0.268257,7,0.022305,10,7.54145e-05,-3.57145,7.45422,0.00791498,0.0827206,0.281128,
2,1,0,1,0,12817.4,0.282957,0.28264,0.267692,7,0.0223897,10,7.56604e-05,-3.57236,16.5674,0.00356121,0.0371642,0.28264,
2,1,0,0,0,12817.7,0.284456,0.284202,0.268234,7,0.0224746,10,7.62326e-05,-3.57149,-1.09313,-0.0539737,-0.562616,0.284202,
2,1,0,0,0,12818,0.285954,0.285645,0.26663,7,0.0225593,10,7.61617e-05,-3.57409,-1.13986,-0.0517609,-0.538234,0.285645,
2,1,0,0,0,12818.3,0.287452,0.287135,0.266708,7,0.0226436,10,7.65811e-05,-3.57396,-1.77189,-0.0332979,-0.346313,0.287135,
2,1,0,1,0,12818.6,0.28895,0.288631,0.265833,7,0.022728,10,7.67278e-05,-3.57539,4.83954,0.0121912,0.126186,0.288631,
2,1,0,1,0,12818.9,0.290448,0.290118,0.264924,7,0.0228122,10,7.68592e-05,-3.57688,-27.4175,-0.00215191,-0.0223706,0.290118,
2,1,0,1,0,12819.2,0.291947,0.291689,0.264382,7,0.0228963,10,7.71175e-05,-3.57777,-1.47339,-0.0400437,-0.414921,0.291689,
2,1,0,1,0,12819.5,0.293445,0.293134,0.263256,7,0.0229801,10,7.71692e-05,-3.57962,-11.1879,-0.00527355,-0.0545092,0.293134,
2,1,0,1,0,12819.8,0.294943,0.294615,0.264474,7,0.0230639,10,7.7918e-05,-3.57762,-3.94501,-0.0149556,-0.154024,0.294615,
2,1,0,1,0,12820.1,0.296442,0.29614,0.265745,7,0.0231477,10,7.86977e-05,-3.57554,-4.20986,-0.0140147,-0.144126,0.2961401,
2,1,0,1,0,12820.4,0.297939,0.297641,0.26361,7,0.0232314,10,7.84614e-05,-3.57904,-1.44811,-0.0407428,-0.4175,0.297641,
2,1,0,1,0,12820.7,0.299437,0.299154,0.262093,7,0.0233149,10,7.84061e-05,-3.58155,-0.00238227,-24.7663,-120.438,0.299154,
2,1,0,1,0,12820.9,0.299737,0.299444,0.0989525,7,0.0233525,10,2.96308e-05,-4.00457,0.000864865,68.2188,221.478,0.299444,
2,1,0,1,0,12821.2,0.29824,0.297916,0.0205677,7,0.0233609,10,6.12745e-06,-4.68681,0.00210085,28.0839,69.0526,0.2979165,
2,1,0,0,0,12821.4,0.296741,0.296485,0.00184693,7,0.0233594,10,5.47585e-07,-5.73355,0.0124398,4.74284,10.6577,0.296485,
2,1,0,0,0,12821.7,0.295243,0.29489,-0.00864024,7,0.0233535,10,-2.54792e-06,-5.06347,-0.00856775,-6.88629,6.87491,0.29489,
2,0,0,1,0,12822,0.293744,0.293463,-0.0190375,7,0.0233448,10,-5.5868e-06,-4.72039,-0.00618369,-9.54123,5.41649,0.293463,
2,0,0,1,0,12822.3,0.292246,0.291937,-0.0256792,7,0.0233337,10,-7.49669e-06,-4.59042,-0.0111407,-5.2959,4.81268,0.291937,
2,0,0,1,0,12822.6,0.290749,0.290422,-0.0331599,7,0.0233204,10,-9.63036e-06,-4.47939,-0.0171319,-3.44386,4.17424,0.290422,
2,0,0,1,0,12822.9,0.28925,0.288948,-0.0393715,7,0.0233051,10,-1.13763e-05,-4.40482,-0.0245255,-2.40566,3.47837,0.2889483,
2,0,0,1,0,12823.2,0.287752,0.287431,-0.0434262,7,0.0232882,10,-1.2482e-05,-4.36225,-0.0305027,-1.93426,3.29221,0.287431,
2,0,0,1,0,12823.5,0.286253,0.285916,-0.0470781,7,0.02327,10,-1.34604e-05,-4.32718,-0.0346492,-1.70278,3.16139,0.285916,
2,0,0,1,0,12823.8,0.284755,0.284431,-0.0528284,7,0.0232503,10,-1.5026e-05,-4.27713,-0.0366895,-1.60809,3.24407,0.284431,
2,0,0,1,0,12824.1,0.283257,0.282965,-0.0569222,7,0.0232292,10,-1.6107e-05,-4.24472,-0.0459581,-1.28378,2.85,0.282965,
2,0,0,0,0,12824.4,0.281759,0.281437,-0.0606344,7,0.0232069,10,-1.70648e-05,-4.21728,-0.0570598,-1.034,2.41964,0.281437,
2,0,0,0,0,12824.7,0.280261,0.280011,-0.0627545,7,0.0231835,10,-1.7572e-05,-4.20236,-0.0607653,-0.970949,2.39119,0.280011,
2,0,0,0,0,12825,0.278763,0.278478,-0.0687366,7,0.0231591,10,-1.91416e-05,-4.16281,-0.065696,-0.898076,2.36208,0.278478,
2,0,0,1,0,12825.3,0.277264,0.276965,-0.072167,7,0.0231334,10,-1.99878e-05,-4.14166,-0.0631436,-0.934377,2.56762,0.276965,
2,0,0,1,0,12825.6,0.275766,0.275463,-0.0740365,7,0.0231068,10,-2.03943e-05,-4.13055,-0.0945533,-0.623987,1.7983,0.2754631,
2,0,0,1,0,12825.9,0.274269,0.273986,-0.0770113,7,0.0230792,10,-2.11e-05,-4.11345,-0.0832744,-0.708501,2.14467,0.273986,
2,0,0,1,0,12826.2,0.27277,0.272457,-0.0810257,7,0.0230508,10,-2.2076e-05,-4.09138,-0.0904387,-0.652376,2.0634,0.272457,
2,0,0,1,0,12826.5,0.271272,0.270956,-0.083321,7,0.0230213,10,-2.25764e-05,-4.07925,-0.108229,-0.545141,1.78039,0.270956,
2,0,0,1,0,12826.8,0.269773,0.26948,-0.0865077,7,0.0229909,10,-2.33121e-05,-4.06295,-0.117544,-0.50194,1.68474,0.26948,
2,0,0,1,0,12827.1,0.268275,0.26795,-0.0898717,7,0.0229598,10,-2.40811e-05,-4.04638,-0.114603,-0.514823,1.79252,0.26795,
2,0,0,1,0,12827.4,0.266778,0.266516,-0.0911513,7,0.0229281,10,-2.42933e-05,-4.04024,-0.117467,-0.502268,1.79468,0.266516,
2,0,0,0,0,12827.7,0.265279,0.265021,-0.0958281,7,0.0228954,10,-2.53965e-05,-4.01851,-0.115258,-0.511897,1.87577,0.265021,
2,0,0,0,0,12828,0.263781,0.263473,-0.0979497,7,0.0228619,10,-2.58071e-05,-4.009,-0.139214,-0.423809,1.61968,0.263473,
2,0,0,1,0,12828.3,0.262282,0.261988,-0.0998791,7,0.0228276,10,-2.61672e-05,-4.00053,-0.12896,-0.457506,1.79184,0.261988,
2,0,0,1,0,12828.6,0.260784,0.260475,-0.101478,7,0.0227928,10,-2.64324e-05,-3.99363,-0.169317,-0.348458,1.39064,0.260475,
2,0,0,1,0,12828.9,0.259286,0.259003,-0.104117,7,0.0227572,10,-2.69666e-05,-3.98248,-0.117367,-0.502695,2.0496,0.259003,
2,0,0,1,0,12829.2,0.257788,0.257497,-0.108759,7,0.0227207,10,-2.80052e-05,-3.96353,-0.162583,-0.362892,1.51269,0.257497,
2,0,0,1,0,12829.5,0.25629,0.255954,-0.109735,7,0.0226836,10,-2.80872e-05,-3.95965,-0.208065,-0.283565,1.20727,0.255954,
2,0,0,1,0,12829.8,0.254791,0.254451,-0.109925,7,0.022646,10,-2.79706e-05,-3.9589,-0.196775,-0.299835,1.29873,0.254451,
2,0,0,1,0,12830.1,0.253293,0.25298,-0.114279,7,0.0226078,10,-2.89105e-05,-3.94203,-0.174095,-0.338895,1.49378,0.25298,
2,0,0,1,0,12830.4,0.251795,0.251445,-0.115253,7,0.0225688,10,-2.89798e-05,-3.93835,-0.176747,-0.333811,1.51173,0.251445,
2,0,0,0,0,12830.7,0.250297,0.249979,-0.117855,7,0.0225291,10,-2.94614e-05,-3.92865,-0.236364,-0.249614,1.13886,0.249979,
2,0,0,0,0,12831,0.248799,0.248451,-0.119647,7,0.0224888,10,-2.97265e-05,-3.9221,-0.216079,-0.273049,1.27977,0.248451,
2,0,0,0,0,12831.3,0.247301,0.246992,-0.121717,7,0.022448,10,-3.00631e-05,-3.91465,-0.191609,-0.307918,1.47728,0.246992,
2,0,0,1,0,12831.6,0.245802,0.245519,-0.123913,7,0.0224066,10,-3.0423e-05,-3.90688,-0.234731,-0.251351,1.21354,0.245519,
2,0,0,1,0,12831.9,0.244304,0.243995,-0.12581,7,0.0223643,10,-3.06969e-05,-3.90029,-0.229173,-0.257447,1.25834,0.243995,
2,0,0,1,0,12832.2,0.242806,0.242501,-0.126983,7,0.0223216,10,-3.07937e-05,-3.89625,-0.262069,-0.225131,1.12462,0.242501,
2,0,0,1,0,12832.5,0.241308,0.241058,-0.129299,7,0.0222786,10,-3.11687e-05,-3.8884,-0.283764,-0.207919,1.05275,0.241058,
2,0,0,1,0,12832.8,0.23981,0.239513,-0.130858,7,0.0222347,10,-3.13423e-05,-3.8832,-0.159744,-0.369341,1.88709,0.239513,
2,0,0,1,0,12833.1,0.238311,0.237997,-0.132921,7,0.0221903,10,-3.16348e-05,-3.87641,-0.235085,-0.250973,1.30939,0.237997,
2,0,0,1,0,12833.4,0.236813,0.236522,-0.134938,7,0.0221453,10,-3.19158e-05,-3.86987,-0.236066,-0.249931,1.31967,0.236522,
2,0,0,1,0,12833.7,0.235316,0.235022,-0.135458,7,0.0221,10,-3.18355e-05,-3.8682,-0.268063,-0.220097,1.17674,0.235022,
2,0,0,0,0,12834,0.233817,0.233528,-0.139283,7,0.0220539,10,-3.25265e-05,-3.8561,-0.254941,-0.231426,1.25582,0.233528,
2,0,0,0,0,12834.3,0.232319,0.23201,-0.142325,7,0.0220074,10,-3.30207e-05,-3.84672,-0.289757,-0.203619,1.11009,0.23201,
2,0,0,1,0,12834.6,0.23082,0.230509,-0.143408,7,0.0219602,10,-3.30567e-05,-3.84343,-0.266464,-0.221419,1.22208,0.2305088,
2,0,0,1,0,12834.9,0.229322,0.229019,-0.143459,7,0.0219126,10,-3.28548e-05,-3.84327,-0.342374,-0.172326,0.967433,0.229019,
2,0,0,1,0,12835.2,0.227825,0.227522,-0.146266,7,0.0218646,10,-3.32789e-05,-3.83486,-0.279673,-0.21096,1.21124,0.227522,
2,0,0,1,0,12835.5,0.226326,0.226047,-0.147718,7,0.0218158,10,-3.33912e-05,-3.83057,-0.306102,-0.192746,1.11681,0.226047,
2,0,0,1,0,12835.8,0.224828,0.224496,-0.150343,7,0.0217665,10,-3.37513e-05,-3.82292,-0.708982,-0.0832179,0.483991,0.224496,
2,0,0,1,0,12836.1,0.223329,0.223048,-0.1519,7,0.0217167,10,-3.38808e-05,-3.81844,-0.297388,-0.198394,1.1723,0.223048,
2,0,0,1,0,12836.4,0.221831,0.221517,-0.153867,7,0.0216665,10,-3.40841e-05,-3.81285,-0.303028,-0.194702,1.16504,0.221517,
2,0,0,1,0,12836.7,0.220333,0.220089,-0.155421,7,0.0216157,10,-3.42065e-05,-3.80849,-0.267355,-0.22068,1.33489,0.220089,
2,0,0,0,0,12837,0.218835,0.218526,-0.157475,7,0.0215642,10,-3.44122e-05,-3.80279,-0.320167,-0.184279,1.12779,0.218526,
2,0,0,0,0,12837.3,0.217337,0.217027,-0.159729,7,0.0215122,10,-3.46655e-05,-3.79662,-0.370986,-0.159035,0.983963,0.217027,
2,0,0,0,0,12837.6,0.215839,0.215527,-0.160142,7,0.0214599,10,-3.45148e-05,-3.7955,-0.304154,-0.19398,1.21631,0.215527,
2,0,0,1,0,12837.9,0.21434,0.214038,-0.162386,7,0.0214069,10,-3.47568e-05,-3.78945,-0.190325,-0.309996,1.95097,0.214038,
2,0,0,1,0,12838.2,0.212842,0.212456,-0.164032,7,0.0213532,10,-3.48496e-05,-3.78507,-0.27185,-0.217031,1.39149,0.212456,
2,0,0,1,0,12838.5,0.211344,0.211054,-0.165649,7,0.0212991,10,-3.49608e-05,-3.78081,-0.271153,-0.217589,1.4096,0.211054,
2,0,0,1,0,12838.8,0.209846,0.20957,-0.165496,7,0.0212444,10,-3.4683e-05,-3.78121,-0.289566,-0.203753,1.3279,0.2095705,
2,0,0,1,0,12839.1,0.208348,0.208039,-0.16968,7,0.0211891,10,-3.53001e-05,-3.77037,-0.320469,-0.184105,1.22026,0.208039,
2,0,0,1,0,12839.4,0.206849,0.206538,-0.173748,7,0.021133,10,-3.58857e-05,-3.76008,-0.295671,-0.199546,1.33495,0.206538,
2,0,0,1,0,12839.7,0.205351,0.205002,-0.171847,7,0.0210763,10,-3.5229e-05,-3.76486,-0.363205,-0.162443,1.09577,0.205002,
2,0,0,1,0,12840,0.203854,0.203561,-0.174868,7,0.0210193,10,-3.55962e-05,-3.75729,-0.322929,-0.182703,1.25149,0.203561,
2,0,0,0,0,12840.3,0.202355,0.202017,-0.176857,7,0.0209618,10,-3.57282e-05,-3.75238,-0.256907,-0.229655,1.5904,0.202017,
2,0,0,0,0,12840.6,0.200857,0.200557,-0.178422,7,0.0209036,10,-3.57839e-05,-3.74855,-0.285862,-0.206394,1.44295,0.200557,
2,0,0,1,0,12840.9,0.199358,0.199021,-0.181426,7,0.0208447,10,-3.61077e-05,-3.7413,-0.34632,-0.170362,1.20287,0.199021,
2,0,0,1,0,12841.2,0.19786,0.197543,-0.183212,7,0.0207852,10,-3.61924e-05,-3.73705,-0.244717,-0.241095,1.7256,0.197543,
2,0,0,1,0,12841.5,0.196363,0.19601,-0.186391,7,0.0207253,10,-3.65345e-05,-3.72958,-0.2933,-0.201159,1.46323,0.19601,
2,0,0,1,0,12841.8,0.194864,0.194559,-0.187757,7,0.0206643,10,-3.65299e-05,-3.7264,-0.255776,-0.230671,1.68725,0.194559,
2,0,0,1,0,12842.1,0.193366,0.193047,-0.190538,7,0.0206026,10,-3.67828e-05,-3.72002,-0.316888,-0.186186,1.38053,0.193047,
2,0,0,1,0,12842.4,0.191867,0.191554,-0.192913,7,0.0205403,10,-3.69533e-05,-3.71464,-0.313283,-0.188328,1.42485,0.191554,
2,0,0,1,0,12842.7,0.190369,0.190017,-0.193961,7,0.0204775,10,-3.68558e-05,-3.71229,-0.273172,-0.215982,1.65225,0.1900166,
2,0,0,1,0,12843,0.188871,0.188549,-0.197297,7,0.0204137,10,-3.72001e-05,-3.70488,-0.207661,-0.284117,2.19521,0.188549,
2,0,0,0,0,12843.3,0.187373,0.187095,-0.200966,7,0.0203492,10,-3.75998e-05,-3.69688,-0.282496,-0.208852,1.63076,0.187095,
2,0,0,0,0,12843.6,0.185875,0.185544,-0.203662,7,0.0202838,10,-3.77882e-05,-3.69109,-0.26943,-0.218981,1.72894,0.185544,
2,0,0,0,0,12843.9,0.184377,0.18407,-0.204673,7,0.0202177,10,-3.76742e-05,-3.68894,-0.283847,-0.207858,1.66899,0.18407,
2,0,0,1,0,12844.2,0.182878,0.182559,-0.208386,7,0.0201507,10,-3.80429e-05,-3.68113,-0.238624,-0.247251,2.02044,0.182559,
2,0,0,1,0,12844.5,0.181381,0.181106,-0.21248,7,0.0200828,10,-3.84814e-05,-3.67268,-0.262609,-0.224669,1.85731,0.181106,
2,0,0,1,0,12844.8,0.179882,0.179516,-0.214258,7,0.0200138,10,-3.84629e-05,-3.66906,-0.412521,-0.143023,1.1962,0.179516,
2,0,0,1,0,12845.1,0.178384,0.17808,-0.217805,7,0.0199441,10,-3.87866e-05,-3.66193,-0.226926,-0.259997,2.21905,0.17808,
2,0,0,1,0,12845.4,0.176886,0.176571,-0.221618,7,0.0198737,10,-3.91313e-05,-3.65439,-0.197542,-0.29867,2.58649,0.176571,
2,0,0,1,0,12845.7,0.175387,0.175068,-0.226898,7,0.0198018,10,-3.97226e-05,-3.64417,-0.185988,-0.317224,2.77877,0.175068,
2,0,0,1,0,12846,0.173889,0.173577,-0.229314,7,0.0197288,10,-3.98037e-05,-3.63957,-0.203946,-0.289293,2.58583,0.173577,
2,0,0,1,0,12846.3,0.172392,0.172074,-0.232767,7,0.0196546,10,-4.00532e-05,-3.63308,-0.216377,-0.272672,2.47791,0.172074,
2,0,0,0,0,12846.6,0.170893,0.17058,-0.237743,7,0.0195794,10,-4.05543e-05,-3.62389,-0.207622,-0.28417,2.63705,0.1705804,
2,0,0,0,0,12846.9,0.169395,0.169072,-0.241714,7,0.0195028,10,-4.08671e-05,-3.6167,-0.158719,-0.371727,3.51239,0.169072,
2,0,0,1,0,12847.2,0.167896,0.167552,-0.247295,7,0.0194245,10,-4.14346e-05,-3.60679,-0.165852,-0.355738,3.43851,0.167552,
2,0,0,1,0,12847.5,0.166398,0.166093,-0.251369,7,0.0193448,10,-4.17505e-05,-3.59969,-0.17519,-0.336777,3.33206,0.166093,
2,0,0,1,0,12847.8,0.164901,0.164569,-0.256635,7,0.0192637,10,-4.22343e-05,-3.59068,-0.143944,-0.409882,4.13805,0.1645693,
2,0,0,1,0,12848.1,0.163402,0.163094,-0.263783,7,0.0191807,10,-4.30214e-05,-3.57875,-0.135952,-0.433975,4.47887,0.163094,
2,0,0,1,0,12848.4,0.161904,0.161573,-0.271289,7,0.0190957,10,-4.38331e-05,-3.56657,-0.134136,-0.439851,4.63991,0.161573,
2,0,0,1,0,12848.7,0.160405,0.160052,-0.27843,7,0.0190086,10,-4.45633e-05,-3.55528,-0.141224,-0.417777,4.52137,0.1600522,
2,0,0,1,0,12849,0.158907,0.158625,-0.28456,7,0.0189194,10,-4.51385e-05,-3.54583,-0.121721,-0.484716,5.41328,0.1586253,
2,0,0,1,0,12849.3,0.157409,0.157091,-0.294469,7,0.0188277,10,-4.62584e-05,-3.53096,-0.109675,-0.537955,6.20896,0.1570911,
2,0,0,0,0,12849.6,0.155911,0.155582,-0.304008,7,0.018733,10,-4.72982e-05,-3.51712,-0.107883,-0.546889,6.51663,0.155582,
2,0,0,0,0,12849.9,0.154413,0.154077,-0.314975,7,0.0186353,10,-4.85305e-05,-3.50172,-0.107753,-0.54755,6.73871,0.154077,
2,0,0,0,0,12850.2,0.152915,0.152607,-0.326806,7,0.0185342,10,-4.98727e-05,-3.48571,-0.0885678,-0.666156,8.50649,0.152607,
2,0,0,1,0,12850.5,0.151416,0.151074,-0.339331,7,0.0184296,10,-5.12641e-05,-3.46938,-0.082483,-0.715299,9.50904,0.151074,
2,0,0,1,0,12850.8,0.149919,0.149574,-0.353282,7,0.0183207,10,-5.28418e-05,-3.45188,-0.0819753,-0.719729,9.95751,0.149574,
2,0,0,1,0,12851.1,0.14842,0.148134,-0.370644,7,0.0182073,10,-5.49049e-05,-3.43104,-0.0750841,-0.785786,11.3822,0.1481337,
2,0,0,1,0,12851.4,0.146922,0.146604,-0.388004,7,0.0180889,10,-5.68827e-05,-3.41116,-0.0733585,-0.804269,12.1704,0.146604,
2,0,0,1,0,12851.7,0.145424,0.145097,-0.406072,7,0.0179655,10,-5.89197e-05,-3.3914,-0.0717814,-0.82194,13.0404,0.1450967,
2,0,0,1,0,12852,0.143925,0.143602,-0.425275,7,0.0178358,10,-6.10705e-05,-3.37133,-0.0645918,-0.913429,15.177,0.143602,
2,0,0,1,0,12852.3,0.142427,0.142164,-0.449526,7,0.0176997,10,-6.39064e-05,-3.34725,-0.0665335,-0.886771,15.5504,0.142164,
2,0,0,1,0,12852.6,0.14093,0.140595,-0.469997,7,0.0175567,10,-6.60791e-05,-3.32791,-0.0709134,-0.832,15.3386,0.140595,
2,0,0,0,0,12852.9,0.139431,0.139095,-0.492977,7,0.0174068,10,-6.85706e-05,-3.30717,-0.0714467,-0.825791,15.9903,0.1390948,
2,0,0,0,0,12853.2,0.137933,0.137617,-0.52112,7,0.0172498,10,-7.17148e-05,-3.28306,-0.0744934,-0.792017,16.0099,0.137617,
2,0,0,1,0,12853.5,0.136434,0.136093,-0.544043,7,0.0170851,10,-7.40401e-05,-3.26437,-0.0780528,-0.755898,15.9884,0.136093,
2,0,0,1,0,12853.8,0.134936,0.13459,-0.566388,7,0.0169133,10,-7.62302e-05,-3.24689,-0.0860638,-0.685538,15.0952,0.13459,
2,0,0,1,0,12854.1,0.133439,0.133074,-0.587707,7,0.0167347,10,-7.82087e-05,-3.23084,-0.0981241,-0.60128,13.7941,0.133074,
2,0,0,1,0,12854.4,0.13194,0.131633,-0.608788,7,0.01655,10,-8.01364e-05,-3.21553,-0.109143,-0.540576,12.8486,0.131633,
2,0,0,1,0,12854.7,0.130442,0.130076,-0.627675,7,0.0163592,10,-8.16454e-05,-3.20227,-0.128157,-0.460374,11.2556,0.130076,
2,0,0,1,0,12855,0.128943,0.128646,-0.644751,7,0.0161631,10,-8.29448e-05,-3.19061,-0.158591,-0.372027,9.30512,0.128646,
2,0,0,1,0,12855.3,0.127445,0.127127,-0.657547,7,0.0159628,10,-8.35918e-05,-3.18207,-0.18591,-0.317359,8.1253,0.1271268,
2,0,0,1,0,12855.6,0.125947,0.125631,-0.668158,7,0.0157595,10,-8.39414e-05,-3.17512,-0.233257,-0.252939,6.57009,0.125631,
2,0,0,0,0,12855.9,0.124449,0.124147,-0.677369,7,0.0155527,10,-8.40935e-05,-3.16917,-0.285813,-0.206428,5.42338,0.124147,
2,0,0,0,0,12856.2,0.122951,0.122619,-0.683938,7,0.0153436,10,-8.3864e-05,-3.16498,-0.445305,-0.132494,3.51816,0.122619,
2,0,0,0,0,12856.5,0.121453,0.121142,-0.688017,7,0.0151328,10,-8.33479e-05,-3.1624,-0.969691,-0.0608441,1.62869,0.121142,
2,0,0,1,0,12856.8,0.119954,0.119636,-0.687447,7,0.0149218,10,-8.22435e-05,-3.16276,-1.66193,-0.0355008,0.954225,0.1196361,
2,0,0,1,0,12857.1,0.118456,0.118124,-0.68932,7,0.0147101,10,-8.14254e-05,-3.16158,-1.85275,-0.0318445,0.853678,0.118124,
2,0,0,1,0,12857.4,0.116958,0.116657,-0.689772,7,0.0144981,10,-8.04664e-05,-3.16129,2.47371,0.0238508,-0.64095,0.1166566,
2,0,0,1,0,12857.7,0.11546,0.115124,-0.685942,7,0.0142867,10,-7.89686e-05,-3.16371,0.614823,0.0959626,-2.56687,0.115124,
2,0,0,1,0,12858,0.113962,0.113643,-0.681032,7,0.0140764,10,-7.73945e-05,-3.16683,0.681535,0.0865692,-2.30628,0.113643,
2,0,0,1,0,12858.3,0.112463,0.11214,-0.679244,7,0.0138674,10,-7.61705e-05,-3.16797,0.618845,0.0953389,-2.52772,0.11214,
2,0,0,1,0,12858.6,0.110965,0.110616,-0.677255,7,0.0136591,10,-7.4915e-05,-3.16925,0.541168,0.109023,-2.8696,0.110616,
2,0,0,1,0,12858.9,0.109468,0.109175,-0.671523,7,0.0134521,10,-7.33134e-05,-3.17294,0.384102,0.153605,-4.00823,0.109175,
2,0,0,0,0,12859.2,0.107969,0.107629,-0.666028,7,0.0132466,10,-7.16842e-05,-3.17651,0.418621,0.140939,-3.67025,0.107629,
2,0,0,0,0,12859.5,0.106471,0.106141,-0.661228,7,0.0130431,10,-7.01831e-05,-3.17965,0.498934,0.118252,-3.06056,0.106141,
2,0,0,1,0,12859.8,0.104972,0.104639,-0.657233,7,0.0128405,10,-6.8772e-05,-3.18228,0.428457,0.137704,-3.52396,0.104639,
2,0,0,1,0,12860.1,0.103474,0.10317,-0.651427,7,0.0126393,10,-6.72079e-05,-3.18613,0.379074,0.155642,-3.94721,0.10317,
2,0,0,1,0,12860.4,0.101977,0.101646,-0.645464,7,0.0124401,10,-6.56088e-05,-3.19013,0.359743,0.164006,-4.13282,0.101646,
2,0,0,1,0,12860.7,0.100478,0.100163,-0.638303,7,0.012243,10,-6.39344e-05,-3.19497,0.355532,0.165949,-4.1389,0.100163,
2,0,0,1,0,12861,0.0989799,0.098705,-0.633927,7,0.0120473,10,-6.25718e-05,-3.19796,0.446125,0.13225,-3.26387,0.098705,
2,0,0,1,0,12861.3,0.0974812,0.0971775,-0.627933,7,0.0118533,10,-6.1021e-05,-3.20209,0.336917,0.175117,-4.28684,0.0971775,
2,0,0,1,0,12861.6,0.0959834,0.0956266,-0.621373,7,0.011661,10,-5.94198e-05,-3.20665,0.337675,0.174724,-4.24241,0.0956266,
2,0,0,1,0,12861.9,0.0944855,0.0941688,-0.613631,7,0.011471,10,-5.77849e-05,-3.21209,0.368011,0.160321,-3.8596,0.0941688,
2,0,0,0,0,12862.2,0.0929871,0.0926999,-0.608153,7,0.0112826,10,-5.63758e-05,-3.21599,0.422796,0.139547,-3.31295,0.0926999,
2,0,0,0,0,12862.5,0.0914889,0.0911337,-0.603691,7,0.0110956,10,-5.50166e-05,-3.21919,0.351575,0.167816,-3.94814,0.0911337,
2,0,0,0,0,12862.8,0.0899907,0.0897,-0.597597,7,0.0109106,10,-5.36045e-05,-3.22359,0.295509,0.199656,-4.63641,0.0897,
2,0,0,1,0,12863.1,0.0884923,0.0881518,-0.588778,7,0.0107275,10,-5.19018e-05,-3.23005,0.331104,0.178192,-4.10852,0.0881518,
2,0,0,1,0,12863.4,0.0869946,0.0866367,-0.585976,7,0.0105465,10,-5.07671e-05,-3.23212,0.383413,0.153881,-3.5155,0.0866367,
2,0,0,1,0,12863.7,0.0854962,0.0851509,-0.580514,7,0.0103667,10,-4.94313e-05,-3.23619,0.360758,0.163545,-3.70123,0.0851509,
2,0,0,1,0,12864,0.083998,0.0836737,-0.573428,7,0.0101886,10,-4.79808e-05,-3.24152,0.33317,0.177087,-3.96581,0.0836737,
2,0,0,1,0,12864.3,0.0824998,0.082152,-0.568451,7,0.0100121,10,-4.66994e-05,-3.24531,0.382387,0.154294,-3.42895,0.082152,
2,0,0,1,0,12864.6,0.0810014,0.080701,-0.5641,7,0.00983732,10,-4.55234e-05,-3.24864,0.513144,0.114978,-2.53568,0.080701,
2,0,0,1,0,12864.9,0.0795035,0.0792128,-0.559808,7,0.00966374,10,-4.4344e-05,-3.25196,0.45834,0.128725,-2.81246,0.0792128,
2,0,0,1,0,12865.2,0.0780056,0.077685,-0.556301,7,0.00949122,10,-4.32162e-05,-3.25469,0.482574,0.122261,-2.65244,0.077685,
2,0,0,0,0,12865.5,0.076507,0.0762297,-0.552183,7,0.00932006,10,-4.20927e-05,-3.25792,0.456425,0.129266,-2.7828,0.0762297,
2,0,0,0,0,12865.8,0.0750088,0.0746772,-0.54691,7,0.00915048,10,-4.08417e-05,-3.26208,0.431338,0.136784,-2.9231,0.0746772,
2,0,0,1,0,12866.1,0.0735103,0.0731775,-0.543633,7,0.00898185,10,-3.97817e-05,-3.26469,0.628563,0.0938648,-1.99141,0.0731775,
2,0,0,1,0,12866.4,0.0720124,0.0716806,-0.539311,7,0.00881435,10,-3.86581e-05,-3.26816,0.506325,0.116526,-2.45948,0.0716806,
2,0,0,1,0,12866.7,0.0705146,0.0702058,-0.53633,7,0.00864796,10,-3.76535e-05,-3.27057,0.448655,0.131504,-2.75782,0.0702058,
2,0,0,1,0,12867,0.0690161,0.068722,-0.531696,7,0.00848289,10,-3.65392e-05,-3.27434,0.545434,0.108171,-2.25567,0.068722,
2,0,0,1,0,12867.3,0.0675179,0.0671939,-0.529945,7,0.00831882,10,-3.56091e-05,-3.27577,0.805137,0.0732794,-1.5143,0.06719394,
2,0,0,1,0,12867.6,0.0660192,0.0657186,-0.529855,7,0.00815542,10,-3.48213e-05,-3.27584,0.608779,0.0969153,-1.99234,0.0657186,
2,0,0,1,0,12867.9,0.0645214,0.0642279,-0.523547,7,0.00799296,10,-3.36264e-05,-3.28104,0.469532,0.125657,-2.56217,0.0642279,
2,0,0,1,0,12868.2,0.0630235,0.0627086,-0.517673,7,0.00783185,10,-3.24625e-05,-3.28594,0.519857,0.113493,-2.30087,0.0627086,
2,0,0,0,0,12868.5,0.0615251,0.0612185,-0.515056,7,0.00767201,10,-3.1531e-05,-3.28815,0.564978,0.104429,-2.10816,0.0612185,
2,0,0,0,0,12868.8,0.0600269,0.059734,-0.512413,7,0.00751298,10,-3.06085e-05,-3.29038,0.552743,0.10674,-2.13996,0.059734,
2,0,0,0,0,12869.1,0.0585287,0.0582059,-0.508744,7,0.00735498,10,-2.96119e-05,-3.2935,0.394444,0.149578,-2.96925,0.0582059,
2,0,0,1,0,12869.4,0.0570303,0.0566851,-0.506377,7,0.00719791,10,-2.8704e-05,-3.29553,0.520502,0.113352,-2.23911,0.0566851,
2,0,0,1,0,12869.7,0.0555325,0.0552243,-0.502683,7,0.00704233,10,-2.77603e-05,-3.29871,0.561147,0.105142,-2.06327,0.05522434,
2,0,0,1,0,12870,0.0540342,0.0536907,-0.499062,7,0.00688744,10,-2.6795e-05,-3.30185,0.577463,0.102171,-1.98684,0.0536907,
2,0,0,1,0,12870.3,0.052536,0.0521902,-0.496383,7,0.00673334,10,-2.59063e-05,-3.30418,0.447922,0.131719,-2.54725,0.0521902,
2,0,0,1,0,12870.6,0.0510378,0.0506919,-0.491321,7,0.00658056,10,-2.4906e-05,-3.30863,0.384243,0.153549,-2.94954,0.0506919,
2,0,0,1,0,12870.9,0.0495394,0.0492028,-0.487071,7,0.00642921,10,-2.39653e-05,-3.31241,0.464934,0.1269,-2.41746,0.0492028,
2,0,0,1,0,12871.2,0.0480415,0.0477091,-0.483253,7,0.00627869,10,-2.30555e-05,-3.31583,0.738152,0.0799293,-1.50674,0.0477091,
2,0,0,1,0,12871.5,0.0465436,0.0461866,-0.481022,7,0.00612912,10,-2.22168e-05,-3.31783,0.472843,0.124777,-2.34453,0.0461866,
2,0,0,0,0,12871.8,0.045045,0.0446974,-0.476969,7,0.00598062,10,-2.13193e-05,-3.32151,0.451345,0.13072,-2.4333,0.0446974,
2,0,0,0,0,12872.1,0.0435468,0.0432224,-0.470475,7,0.00583346,10,-2.0335e-05,-3.32746,0.406336,0.1452,-2.68165,0.04322239,
2,0,0,1,0,12872.4,0.0420483,0.0417566,-0.469735,7,0.00568727,10,-1.96145e-05,-3.32815,0.446779,0.132056,-2.41841,0.0417566,
2,0,0,1,0,12872.7,0.0405504,0.0402192,-0.467376,7,0.00554192,10,-1.87975e-05,-3.33033,0.421896,0.139845,-2.54618,0.04021924,
2,0,0,1,0,12873,0.0390526,0.0387056,-0.462695,7,0.00539767,10,-1.79089e-05,-3.3347,0.399115,0.147827,-2.6682,0.0387056,
2,0,0,1,0,12873.3,0.0375541,0.0372353,-0.457021,7,0.00525448,10,-1.70173e-05,-3.34006,0.467954,0.126081,-2.25759,0.0372353,
2,0,0,1,0,12873.6,0.0360559,0.0357698,-0.454393,7,0.00511269,10,-1.62536e-05,-3.34257,0.436892,0.135045,-2.40589,0.03576985,
2,0,0,1,0,12873.9,0.0345572,0.0342381,-0.452146,7,0.00497167,10,-1.54806e-05,-3.34472,0.449452,0.131271,-2.31678,0.0342381,
2,0,0,1,0,12874.2,0.0330594,0.0327317,-0.450351,7,0.00483153,10,-1.47407e-05,-3.34645,0.360964,0.163451,-2.85566,0.0327317,
2,0,0,1,0,12874.5,0.0315615,0.0312336,-0.445321,7,0.00469248,10,-1.3909e-05,-3.35133,0.494507,0.119311,-2.07286,0.0312336,
2,0,0,0,0,12874.8,0.0300631,0.0297722,-0.442957,7,0.00455481,10,-1.31878e-05,-3.35364,0.447133,0.131952,-2.27677,0.0297722,
2,0,0,0,0,12875.1,0.0285649,0.0282537,-0.439824,7,0.00441778,10,-1.24267e-05,-3.35672,0.61988,0.0951797,-1.62831,0.0282537,
2,0,0,0,0,12875.4,0.0270667,0.0267702,-0.435786,7,0.00428169,10,-1.16661e-05,-3.36073,0.444024,0.132876,-2.25869,0.0267702,
2,0,0,1,0,12875.7,0.0255683,0.0252259,-0.434281,7,0.00414637,10,-1.09552e-05,-3.36223,0.522531,0.112912,-1.90586,0.0252259,
2,0,0,1,0,12876,0.0240706,0.0237461,-0.429321,7,0.00401241,10,-1.01947e-05,-3.36722,0.497813,0.118518,-1.99245,0.0237461,
2,0,0,1,0,12876.3,0.0225722,0.0222274,-0.427036,7,0.00387908,10,-9.4919e-06,-3.36954,1.19961,0.0491828,-0.818702,0.0222274,
2,0,0,1,0,12876.6,0.021074,0.0207375,-0.424802,7,0.00374649,10,-8.80935e-06,-3.37181,0.667889,0.088338,-1.4679,0.0207375,
2,0,0,1,0,12876.9,0.0195758,0.0192805,-0.422036,7,0.00361458,10,-8.13708e-06,-3.37465,0.550622,0.107152,-1.76436,0.0192805,
2,0,0,1,0,12877.2,0.0180774,0.0177374,-0.418497,7,0.00348356,10,-7.42305e-06,-3.37831,0.621048,0.0950008,-1.55952,0.01773742,
2,0,0,1,0,12877.5,0.0165795,0.0162563,-0.419241,7,0.00335317,10,-6.81531e-06,-3.37754,1.31187,0.0449741,-0.734154,0.0162563,
2,0,0,1,0,12877.8,0.0150817,0.0148018,-0.418182,7,0.00322299,10,-6.18984e-06,-3.37863,0.722906,0.0816151,-1.32919,0.0148018,
2,0,0,0,0,12878.1,0.013583,0.0132839,-0.415374,7,0.00309322,10,-5.5178e-06,-3.38156,0.672591,0.0877205,-1.42375,0.0132839,
2,0,0,0,0,12878.4,0.0120848,0.0117803,-0.414337,7,0.00296402,10,-4.88101e-06,-3.38265,0.712234,0.0828379,-1.34314,0.0117803,
2,0,0,1,0,12878.7,0.0105863,0.0102837,-0.413425,7,0.00283519,10,-4.25153e-06,-3.3836,2.61646,0.0225495,-0.365009,0.0102837,
2,0,0,1,0,12879,0.00908846,0.00879093,-0.413021,7,0.0027065,10,-3.63084e-06,-3.38403,2.75485,0.0214168,-0.345801,0.00879093,
2,0,0,1,0,12879.3,0.0075906,0.00726535,-0.412527,7,0.00257786,10,-2.99715e-06,-3.38455,7.56382,0.00780029,-0.125669,0.00726535,
2,0,0,1,0,12879.6,0.00609208,0.0057402,-0.413155,7,0.00244935,10,-2.37159e-06,-3.38389,117.558,0.000501879,-0.00808793,0.005740202,
2,0,0,1,0,12879.9,0.00459389,0.00423973,-0.413651,7,0.00232103,10,-1.75377e-06,-3.38337,-86.0343,-0.000685773,0.0110333,0.00423973,
2,0,0,1,0,12880.2,0.00309525,0.00276125,-0.414672,7,0.00219234,10,-1.14501e-06,-3.3823,-0.91861,-0.0642275,1.03554,0.00276125,
2,0,0,1,0,12880.5,0.00159739,0.0012491,-0.417594,7,0.0020616,10,-5.21618e-07,-3.37925, , , ,0.0012491,
2,0,0,0,0,12880.8,0.000199195,-0.000168808,-0.415796,7,0.00194073,10,7.01895e-08,-3.38112, , , ,-0.000168808,