File: Figure_codes/Fig_3-5/rawdata_trumpetplot_data/after 10th/20221101_1-115_003_TrumpetPlot_ParaChange_from10_every3_03_CV_C01_27.csv
mode,ox/red,error,control changes,counter inc.,time/s,control/V,Ewe/V,<I>/mA,cycle number,(Q-Qo)/C,I Range,P/W,log(|I|),Tafel slope mV/dec,alpha_eff,dI/d(E-IR),E-IR/V,
2,0,0,1,0,54133.5,2.44065e-05,-0.00042076,-0.0917617,28,0.0000000E+000,10,3.86096e-08,-4.03734, , , ,-0.00042076,
2,1,0,0,0,54133.8,0.00129787,0.000934439,0.125754,28,2.05413e-05,10,1.17509e-07,-3.90048, , , ,0.000934439,
2,1,0,0,0,54134.1,0.00279606,0.00246142,0.166944,28,7.02908e-05,10,4.10921e-07,-3.77743,0.0142736,4.13351,21.6426,0.00246142,
2,1,0,1,0,54134.4,0.00429469,0.00395387,0.177792,28,0.000126373,10,7.02967e-07,-3.75009,0.0537022,1.09865,7.58723,0.00395387,
2,1,0,1,0,54134.7,0.00579255,0.00542553,0.188,28,0.000185736,10,1.02e-06,-3.72584,0.0656899,0.898159,6.54523,0.00542553,
2,1,0,1,0,54135,0.00729041,0.00696998,0.19751,28,0.000247989,10,1.37664e-06,-3.70441,0.086163,0.684749,5.2647,0.00696998,
2,1,0,1,0,54135.3,0.00878882,0.00844742,0.205876,28,0.000312825,10,1.73912e-06,-3.68639,0.0936576,0.629955,5.0204,0.00844742,
2,1,0,1,0,54135.6,0.010287,0.00988851,0.211957,28,0.000379674,10,2.09594e-06,-3.67375,0.124894,0.472399,3.88719,0.00988851,
2,1,0,1,0,54135.9,0.0117852,0.0114632,0.217568,28,0.000448391,10,2.49403e-06,-3.6624,0.118527,0.497778,4.22884,0.0114632,
2,1,0,1,0,54136.2,0.0132836,0.0128982,0.223702,28,0.000518726,10,2.88536e-06,-3.65033,0.125721,0.469293,4.11701,0.0128982,
2,1,0,1,0,54136.5,0.0147815,0.0144165,0.228439,28,0.000590872,10,3.29328e-06,-3.64123,0.144132,0.409347,3.65006,0.0144165,
2,1,0,1,0,54136.8,0.0162793,0.0159324,0.234856,28,0.000664869,10,3.7418e-06,-3.6292,0.174912,0.337313,3.08152,0.0159324,
2,1,0,0,0,54137.1,0.017778,0.017446,0.239813,28,0.000740199,10,4.18378e-06,-3.62013,0.176176,0.334892,3.13457,0.017446,
2,1,0,0,0,54137.4,0.0192761,0.0189147,0.245949,28,0.000816886,10,4.65205e-06,-3.60915,0.173714,0.339639,3.23913,0.01891469,
2,1,0,1,0,54137.7,0.0207747,0.0204538,0.250062,28,0.000895325,10,5.11471e-06,-3.60195,0.147228,0.400738,3.89079,0.0204538,
2,1,0,1,0,54138,0.0222725,0.021904,0.255333,28,0.000975403,10,5.59281e-06,-3.59289,0.168738,0.349654,3.47861,0.02190396,
2,1,0,1,0,54138.3,0.0237704,0.0234316,0.259388,28,0.00105688,10,6.07787e-06,-3.58605,0.188439,0.313098,3.18021,0.0234316,
2,1,0,1,0,54138.6,0.0252689,0.024942,0.264584,28,0.00113977,10,6.59926e-06,-3.57744,0.170451,0.346141,3.58787,0.02494204,
2,1,0,1,0,54138.9,0.0267671,0.0264181,0.270052,28,0.00122427,10,7.13427e-06,-3.56855,0.153065,0.385457,4.05708,0.0264181,
2,1,0,1,0,54139.2,0.0282657,0.0278957,0.276542,28,0.0013106,10,7.71431e-06,-3.55824,0.190225,0.310158,3.32932,0.0278957,
2,1,0,1,0,54139.5,0.0297635,0.0294371,0.28074,28,0.00139843,10,8.26418e-06,-3.5517,0.194925,0.30268,3.30856,0.0294371,
2,1,0,1,0,54139.8,0.0312613,0.0308811,0.283753,28,0.00148761,10,8.7626e-06,-3.54706,0.183721,0.321138,3.58304,0.0308811,
2,1,0,0,0,54140.1,0.0327599,0.0323469,0.29183,28,0.00157836,10,9.43979e-06,-3.53487,0.212381,0.277802,3.1472,0.03234686,
2,1,0,0,0,54140.4,0.034258,0.0339396,0.29538,28,0.00167073,10,1.00251e-05,-3.52962,0.212129,0.278133,3.2124,0.0339396,
2,1,0,1,0,54140.7,0.0357567,0.0354066,0.301738,28,0.00176464,10,1.06835e-05,-3.52037,0.251934,0.234189,2.7464,0.0354066,
2,1,0,1,0,54141,0.0372545,0.0368908,0.304806,28,0.00186001,10,1.12445e-05,-3.51598,0.23406,0.252073,3.01686,0.0368908,
2,1,0,1,0,54141.3,0.0387524,0.0383602,0.31099,28,0.00195667,10,1.19296e-05,-3.50725,0.182275,0.323686,3.94478,0.0383602,
2,1,0,1,0,54141.6,0.0402508,0.0399118,0.316042,28,0.00205512,10,1.26138e-05,-3.50025,0.227213,0.259668,3.20766,0.0399118,
2,1,0,1,0,54141.9,0.041749,0.0414261,0.32155,28,0.00215528,10,1.33206e-05,-3.49275,0.233679,0.252483,3.16375,0.0414261,
2,1,0,1,0,54142.2,0.0432472,0.0429223,0.327721,28,0.00225669,10,1.40665e-05,-3.4845,0.252244,0.233901,2.98293,0.0429223,
2,1,0,1,0,54142.5,0.0447456,0.0443771,0.330674,28,0.00235924,10,1.46744e-05,-3.4806,0.249826,0.236165,3.04716,0.0443771,
2,1,0,1,0,54142.8,0.0462435,0.0458955,0.336352,28,0.00246352,10,1.54371e-05,-3.47321,0.207715,0.284043,3.71368,0.0458955,
2,1,0,1,0,54143.1,0.0477413,0.0473808,0.340491,28,0.00256922,10,1.61327e-05,-3.46789,0.249778,0.23621,3.14152,0.0473808,
2,1,0,0,0,54143.4,0.0492399,0.0488966,0.344882,28,0.00267632,10,1.68635e-05,-3.46233,0.311419,0.189455,2.56049,0.0488966,
2,1,0,0,0,54143.7,0.0507381,0.0503706,0.348199,28,0.00278455,10,1.7539e-05,-3.45817,0.293457,0.201052,2.75157,0.0503706,
2,1,0,1,0,54144,0.0522367,0.0518724,0.354416,28,0.00289423,10,1.83844e-05,-3.45049,0.222948,0.264635,3.65927,0.0518724,
2,1,0,1,0,54144.3,0.0537345,0.0533524,0.360654,28,0.00300542,10,1.92417e-05,-3.44291,0.274167,0.215198,3.01037,0.0533524,
2,1,0,1,0,54144.6,0.0552323,0.0548895,0.363606,28,0.00311794,10,1.99581e-05,-3.43937,0.334237,0.176522,2.48978,0.0548895,
2,1,0,1,0,54144.9,0.0567309,0.0564287,0.364809,28,0.00323157,10,2.05857e-05,-3.43793,0.305452,0.193157,2.76146,0.0564287,
2,1,0,1,0,54145.2,0.0582291,0.0578221,0.370513,28,0.00334612,10,2.14238e-05,-3.4312,0.331609,0.17792,2.5759,0.0578221,
2,1,0,1,0,54145.5,0.0597277,0.0593771,0.374326,28,0.00346215,10,2.22264e-05,-3.42675,0.351113,0.168037,2.4573,0.0593771,
2,1,0,1,0,54145.8,0.0612255,0.060859,0.378971,28,0.00357942,10,2.30638e-05,-3.42139,0.416885,0.141526,2.08796,0.060859,
2,1,0,1,0,54146.1,0.0627233,0.0623783,0.381916,28,0.00369784,10,2.38233e-05,-3.41803,0.354399,0.166479,2.48416,0.0623783,
2,1,0,0,0,54146.4,0.0642218,0.0638462,0.385339,28,0.00381713,10,2.46024e-05,-3.41416,0.338395,0.174352,2.63367,0.0638462,
2,1,0,0,0,54146.7,0.06572,0.065369,0.388853,28,0.00393771,10,2.54189e-05,-3.41021,0.372549,0.158368,2.40429,0.06536898,
2,1,0,1,0,54147,0.0672187,0.0668731,0.393858,28,0.00405968,10,2.63385e-05,-3.40466,0.480013,0.122913,1.88187,0.0668731,
2,1,0,1,0,54147.3,0.0687165,0.0684147,0.396279,28,0.00418229,10,2.71113e-05,-3.402,0.530849,0.111143,1.7189,0.0684147,
2,1,0,1,0,54147.6,0.0702144,0.0698404,0.398826,28,0.00430559,10,2.78542e-05,-3.39922,0.37336,0.158024,2.46044,0.0698404,
2,1,0,1,0,54147.9,0.0717128,0.0713581,0.40173,28,0.00443014,10,2.86667e-05,-3.39607,0.342726,0.172149,2.69573,0.0713581,
2,1,0,1,0,54148.2,0.073211,0.0728353,0.404566,28,0.00455554,10,2.94666e-05,-3.39301,0.465735,0.126681,2.00439,0.0728353,
2,1,0,1,0,54148.5,0.0747092,0.074357,0.408095,28,0.0046818,10,3.03447e-05,-3.38924,0.551947,0.106894,1.699,0.074357,
2,1,0,1,0,54148.8,0.0762076,0.0758662,0.408845,28,0.00480879,10,3.10175e-05,-3.38844,0.47098,0.125271,2.0076,0.07586623,
2,1,0,1,0,54149.1,0.0777054,0.0773696,0.41386,28,0.00493657,10,3.20202e-05,-3.38315,0.446342,0.132186,2.12934,0.0773696,
2,1,0,1,0,54149.4,0.0792033,0.0788834,0.41753,28,0.00506546,10,3.29362e-05,-3.37931,0.463023,0.127424,2.06916,0.07888341,
2,1,0,0,0,54149.7,0.0807019,0.0803515,0.419882,28,0.00519542,10,3.37381e-05,-3.37687,0.535142,0.110251,1.80376,0.0803515,
2,1,0,0,0,54150,0.0822001,0.0818275,0.420821,28,0.00532596,10,3.44348e-05,-3.3759,0.580202,0.101689,1.67869,0.0818275,
2,1,0,1,0,54150.3,0.0836986,0.0833603,0.425868,28,0.00545727,10,3.55005e-05,-3.37072,0.442532,0.133324,2.21881,0.0833603,
2,1,0,1,0,54150.6,0.0851965,0.0848443,0.429447,28,0.00558991,10,3.64362e-05,-3.36709,0.337091,0.175027,2.92893,0.0848443,
2,1,0,1,0,54150.9,0.0866944,0.0863066,0.432783,28,0.00572365,10,3.73521e-05,-3.36373,0.443938,0.132901,2.247,0.0863066,
2,1,0,1,0,54151.2,0.0881929,0.0878528,0.437165,28,0.00585857,10,3.84062e-05,-3.35935,0.39938,0.147729,2.52211,0.0878528,
2,1,0,1,0,54151.5,0.0896911,0.0893342,0.440866,28,0.00599451,10,3.93844e-05,-3.35569,0.297779,0.198134,3.42136,0.08933416,
2,1,0,1,0,54151.8,0.0911897,0.0908468,0.447508,28,0.0061321,10,4.06546e-05,-3.3492,0.257349,0.22926,3.9976,0.0908468,
2,1,0,1,0,54152.1,0.0926875,0.0923372,0.453767,28,0.00627163,10,4.18996e-05,-3.34317,0.245676,0.240153,4.23993,0.0923372,
2,1,0,1,0,54152.4,0.0941853,0.0938385,0.459347,28,0.00641283,10,4.31045e-05,-3.33786,0.280382,0.210427,3.77318,0.0938385,
2,1,0,0,0,54152.7,0.0956838,0.0953265,0.465187,28,0.00655562,10,4.43447e-05,-3.33237,0.237611,0.248305,4.51647,0.0953265,
2,1,0,0,0,54153,0.097182,0.0968217,0.472321,28,0.00670059,10,4.57309e-05,-3.32576,0.197579,0.298614,5.49485,0.0968217,
2,1,0,1,0,54153.3,0.0986807,0.098365,0.479758,28,0.00684792,10,4.71914e-05,-3.31898,0.215389,0.273923,5.13166,0.098365,
2,1,0,1,0,54153.6,0.100179,0.099831,0.487891,28,0.00699746,10,4.87066e-05,-3.31168,0.216413,0.272626,5.1882,0.099831,
2,1,0,1,0,54153.9,0.101676,0.101262,0.493988,28,0.00714921,10,5.00224e-05,-3.30628,0.210944,0.279696,5.41886,0.101262,
2,1,0,1,0,54154.2,0.103175,0.102814,0.503692,28,0.00730339,10,5.17866e-05,-3.29783,0.19977,0.29534,5.80921,0.102814,
2,1,0,1,0,54154.5,0.104673,0.104304,0.51484,28,0.00746024,10,5.36999e-05,-3.28833,0.200173,0.294744,5.88915,0.104304,
2,1,0,1,0,54154.8,0.106171,0.105823,0.520739,28,0.00761968,10,5.51064e-05,-3.28338,0.265014,0.22263,4.50878,0.105823,
2,1,0,1,0,54155.1,0.10767,0.107348,0.526556,28,0.00778128,10,5.65245e-05,-3.27856,0.246171,0.239671,4.93877,0.107348,
2,1,0,1,0,54155.4,0.109167,0.108805,0.53561,28,0.00794478,10,5.82772e-05,-3.27115,0.249893,0.236101,4.93617,0.108805,
2,1,0,1,0,54155.7,0.110665,0.110311,0.54223,28,0.00811073,10,5.98138e-05,-3.26582,0.270255,0.218312,4.6263,0.110311,
2,1,0,0,0,54156,0.112164,0.111829,0.548818,28,0.0082787,10,6.13735e-05,-3.26057,0.351884,0.167669,3.58487,0.111829,
2,1,0,0,0,54156.3,0.113662,0.11333,0.556503,28,0.00844865,10,6.30686e-05,-3.25453,0.369001,0.159891,3.45585,0.1133301,
2,1,0,1,0,54156.6,0.115161,0.114789,0.559967,28,0.00861971,10,6.42784e-05,-3.25184,0.397967,0.148254,3.23641,0.114789,
2,1,0,1,0,54156.9,0.116658,0.116333,0.564819,28,0.00879249,10,6.57072e-05,-3.24809,0.338036,0.174538,3.8371,0.116333,
2,1,0,1,0,54157.2,0.118156,0.117814,0.570193,28,0.00896708,10,6.71767e-05,-3.24398,0.438191,0.134645,2.98418,0.117814,
2,1,0,1,0,54157.5,0.119655,0.119289,0.573021,28,0.00914279,10,6.83548e-05,-3.24183,0.721261,0.0818011,1.83075,0.119289,
2,1,0,1,0,54157.8,0.121153,0.120769,0.574804,28,0.00931917,10,6.94184e-05,-3.24048,0.638048,0.0924695,2.08244,0.120769,
2,1,0,1,0,54158.1,0.122652,0.122298,0.580083,28,0.00949678,10,7.09432e-05,-3.23651,0.519595,0.11355,2.56487,0.1222984,
2,1,0,1,0,54158.4,0.124149,0.123818,0.582589,28,0.00967551,10,7.21353e-05,-3.23464,0.731068,0.0807038,1.83393,0.123818,
2,1,0,1,0,54158.7,0.125647,0.125315,0.584199,28,0.009855,10,7.32092e-05,-3.23344,1.04216,0.0566132,1.29109,0.125315,
2,1,0,0,0,54159,0.127146,0.126793,0.58472,28,0.010035,10,7.41384e-05,-3.23305,1.59843,0.0369113,0.844658,0.126793,
2,1,0,0,0,54159.3,0.128644,0.128277,0.587987,28,0.0102153,10,7.54249e-05,-3.23063,2.85311,0.0206792,0.474308,0.128277,
2,1,0,1,0,54159.6,0.130143,0.129776,0.589755,28,0.0103962,10,7.65362e-05,-3.22933,-4.32849,-0.0136306,-0.312004,0.129776,
2,1,0,1,0,54159.9,0.131641,0.131288,0.587989,28,0.0105771,10,7.71961e-05,-3.23063,-0.65275,-0.0903868,-2.06249,0.131288,
2,1,0,1,0,54160.2,0.133138,0.132774,0.583729,28,0.0107572,10,7.75042e-05,-3.23379,-0.448855,-0.131446,-2.99189,0.132774,
2,1,0,1,0,54160.5,0.134637,0.134282,0.578822,28,0.0109356,10,7.77251e-05,-3.23746,-0.317374,-0.1859,-4.19218,0.134282,
2,1,0,1,0,54160.8,0.136135,0.135774,0.571486,28,0.0111124,10,7.75926e-05,-3.24299,-0.221148,-0.26679,-5.91744,0.1357736,
2,1,0,1,0,54161.1,0.137633,0.137275,0.560962,28,0.0112865,10,7.70062e-05,-3.25107,-0.163761,-0.36028,-7.8526,0.137275,
2,1,0,1,0,54161.4,0.139132,0.138779,0.549059,28,0.0114572,10,7.6198e-05,-3.26038,-0.129948,-0.454028,-9.65995,0.138779,
2,1,0,1,0,54161.7,0.140629,0.14025,0.53226,28,0.0116233,10,7.46493e-05,-3.27388,-0.108303,-0.544768,-11.274,0.14025,
2,1,0,1,0,54162,0.142127,0.141773,0.51401,28,0.0117845,10,7.28726e-05,-3.28903,-0.0956491,-0.616838,-12.3408,0.141773,
2,1,0,0,0,54162.3,0.143626,0.143288,0.495893,28,0.0119404,10,7.10554e-05,-3.30461,-0.0864961,-0.682112,-13.1556,0.143288,
2,1,0,0,0,54162.6,0.145124,0.144763,0.474071,28,0.0120899,10,6.86278e-05,-3.32416,-0.0730324,-0.807861,-14.9453,0.144763,
2,1,0,1,0,54162.9,0.146623,0.146281,0.45262,28,0.0122331,10,6.62094e-05,-3.34427,-0.077299,-0.76327,-13.4913,0.146281,
2,1,0,1,0,54163.2,0.14812,0.147755,0.432668,28,0.0123701,10,6.3929e-05,-3.36384,-0.0788499,-0.748257,-12.6447,0.147755,
2,1,0,1,0,54163.5,0.149618,0.149269,0.413728,28,0.0125013,10,6.17569e-05,-3.38329,-0.0812431,-0.726215,-11.7576,0.149269,
2,1,0,1,0,54163.8,0.151117,0.150736,0.395866,28,0.012627,10,5.96712e-05,-3.40245,-0.0816542,-0.722559,-11.2315,0.150736,
2,1,0,1,0,54164.1,0.152615,0.152287,0.379469,28,0.0127479,10,5.77883e-05,-3.42082,-0.0951313,-0.620196,-9.26646,0.152287,
2,1,0,1,0,54164.4,0.154114,0.15374,0.368664,28,0.0128644,10,5.66782e-05,-3.43337,-0.109494,-0.538843,-7.79866,0.15374,
2,1,0,1,0,54164.7,0.155612,0.155246,0.358805,28,0.0129776,10,5.57031e-05,-3.44514,-0.126733,-0.465546,-6.52468,0.155246,
2,1,0,1,0,54165,0.157109,0.156779,0.349423,28,0.0130878,10,5.47821e-05,-3.45665,-0.135381,-0.435806,-5.94021,0.156779,
2,1,0,0,0,54165.3,0.158608,0.15827,0.340393,28,0.0131954,10,5.3874e-05,-3.46802,-0.154944,-0.380784,-5.08282,0.15827,
2,1,0,0,0,54165.6,0.160106,0.159795,0.334219,28,0.0133006,10,5.34066e-05,-3.47597,-0.207685,-0.284085,-3.72367,0.159795,
2,1,0,1,0,54165.9,0.161605,0.161241,0.329903,28,0.0134042,10,5.31939e-05,-3.48161,-0.21494,-0.274496,-3.53232,0.1612408,
2,1,0,1,0,54166.2,0.163102,0.162807,0.324988,28,0.0135062,10,5.29102e-05,-3.48813,-0.24289,-0.242908,-3.07713,0.162807,
2,1,0,1,0,54166.5,0.1646,0.164199,0.32056,28,0.013607,10,5.26355e-05,-3.49409,-0.293196,-0.201231,-2.51694,0.164199,
2,1,0,1,0,54166.8,0.166099,0.165733,0.315595,28,0.0137064,10,5.23045e-05,-3.50087,-0.320958,-0.183825,-2.27046,0.165733,
2,1,0,1,0,54167.1,0.167597,0.167223,0.313179,28,0.0138048,10,5.23707e-05,-3.50421,-0.459836,-0.128306,-1.57033,0.167223,
2,1,0,1,0,54167.3,0.169095,0.168754,0.310954,28,0.0139025,10,5.24748e-05,-3.5073,-0.44793,-0.131717,-1.59766,0.168754,
2,1,0,1,0,54167.6,0.170594,0.170268,0.308192,28,0.0139995,10,5.24752e-05,-3.51118,-0.384074,-0.153616,-1.85391,0.170268,
2,1,0,1,0,54167.9,0.172091,0.171808,0.306457,28,0.0140956,10,5.26519e-05,-3.51363,-0.406354,-0.145194,-1.7358,0.171808,
2,1,0,1,0,54168.2,0.173589,0.173214,0.304464,28,0.0141912,10,5.27375e-05,-3.51646,-0.65039,-0.0907148,-1.0754,0.1732142,
2,1,0,0,0,54168.5,0.175088,0.174727,0.302989,28,0.0142863,10,5.29402e-05,-3.51857,-0.653392,-0.090298,-1.06543,0.174727,
2,1,0,0,0,54168.8,0.176586,0.17622,0.301547,28,0.0143809,10,5.31386e-05,-3.52064,-0.543009,-0.108654,-1.27441,0.17622,
2,1,0,1,0,54169.1,0.178085,0.177744,0.298525,28,0.014475,10,5.3061e-05,-3.52502,-0.686112,-0.0859918,-1.00635,0.177744,
2,1,0,1,0,54169.4,0.179582,0.17924,0.297565,28,0.0145686,10,5.33355e-05,-3.52642,-1.08419,-0.0544186,-0.633241,0.17924,
2,1,0,1,0,54169.7,0.18108,0.180749,0.297025,28,0.014662,10,5.3687e-05,-3.52721,-0.676314,-0.0872375,-1.01256,0.180749,
2,1,0,1,0,54170,0.182579,0.182223,0.295445,28,0.0147552,10,5.38367e-05,-3.52952,-0.63162,-0.0934106,-1.07852,0.182223,
2,1,0,1,0,54170.3,0.184077,0.183777,0.294455,28,0.0148478,10,5.41142e-05,-3.53098,-0.891408,-0.0661874,-0.764978,0.183777,
2,1,0,1,0,54170.6,0.185576,0.185219,0.294365,28,0.0149401,10,5.4522e-05,-3.53111,-0.842596,-0.0700217,-0.803076,0.185219,
2,1,0,1,0,54170.9,0.187074,0.186739,0.293502,28,0.0150323,10,5.48083e-05,-3.53239,-2.26027,-0.026103,-0.298833,0.186739,
2,1,0,1,0,54171.2,0.188571,0.188176,0.292923,28,0.0151242,10,5.51212e-05,-3.53325,-1.73421,-0.0340213,-0.388058,0.188176,
2,1,0,0,0,54171.5,0.19007,0.18974,0.29187,28,0.015216,10,5.53794e-05,-3.53481,-1.54308,-0.0382353,-0.436014,0.18974,
2,1,0,0,0,54171.8,0.191568,0.191182,0.291281,28,0.0153074,10,5.56877e-05,-3.53569,-1.03367,-0.0570784,-0.649084,0.191182,
2,1,0,1,0,54172.1,0.193067,0.192675,0.290305,28,0.0153988,10,5.59345e-05,-3.53715,-7.19624,-0.00819872,-0.0929021,0.192675,
2,1,0,1,0,54172.4,0.194564,0.194216,0.290935,28,0.01549,10,5.65043e-05,-3.5362,-1.57917,-0.0373614,-0.423623,0.194216,
2,1,0,1,0,54172.7,0.196062,0.195777,0.289889,28,0.015581,10,5.67534e-05,-3.53777,-1.08768,-0.0542439,-0.614617,0.195777,
2,1,0,1,0,54173,0.197561,0.197233,0.287402,28,0.0156718,10,5.6685e-05,-3.54151,-1.43158,-0.0412131,-0.463999,0.197233,
2,1,0,1,0,54173.3,0.199059,0.198702,0.28826,28,0.0157623,10,5.72779e-05,-3.54022,-3.61705,-0.0163116,-0.183201,0.198702,
2,1,0,1,0,54173.6,0.200557,0.200185,0.287972,28,0.0158528,10,5.76477e-05,-3.54065,-1.47527,-0.0399927,-0.448584,0.200185,
2,1,0,1,0,54173.9,0.202056,0.201719,0.287067,28,0.0159431,10,5.7907e-05,-3.54202,-1.21714,-0.0484744,-0.543457,0.201719,
2,1,0,1,0,54174.2,0.203553,0.20321,0.285885,28,0.0160332,10,5.80948e-05,-3.54381,-1.7769,-0.0332039,-0.371467,0.20321,
2,1,0,1,0,54174.5,0.205051,0.204719,0.286169,28,0.016123,10,5.85841e-05,-3.54338,1.5462,0.0381581,0.429248,0.204719,
2,1,0,0,0,54174.8,0.20655,0.206186,0.285751,28,0.0162129,10,5.89178e-05,-3.54401,-20.112,-0.00293358,-0.032737,0.206186,
2,1,0,0,0,54175.1,0.208048,0.207712,0.286016,28,0.0163029,10,5.94089e-05,-3.54361,-0.942339,-0.0626102,-0.695988,0.207712,
2,1,0,1,0,54175.4,0.209547,0.209193,0.285355,28,0.0163925,10,5.96943e-05,-3.54461,-1.59541,-0.036981,-0.411789,0.209193,
2,1,0,1,0,54175.7,0.211044,0.210701,0.285833,28,0.0164817,10,6.02253e-05,-3.54389,-2.82769,-0.0208651,-0.231839,0.210701,
2,1,0,1,0,54176,0.212542,0.212187,0.284956,28,0.0165711,10,6.04641e-05,-3.54522,15.0871,0.00391063,0.0433072,0.2121872,
2,1,0,1,0,54176.3,0.214041,0.213701,0.284366,28,0.0166603,10,6.07692e-05,-3.54612,-2.8707,-0.0205524,-0.227943,0.213701,
2,1,0,1,0,54176.6,0.215539,0.215191,0.283908,28,0.0167493,10,6.10943e-05,-3.54682,-23.7729,-0.00248182,-0.0274639,0.215191,
2,1,0,1,0,54176.9,0.217038,0.216706,0.282337,28,0.0168382,10,6.11842e-05,-3.54923,-3.75437,-0.015715,-0.173934,0.216706,
2,1,0,1,0,54177.2,0.218535,0.218214,0.282129,28,0.016927,10,6.15644e-05,-3.54955,11.9264,0.00494702,0.0546497,0.218214,
2,1,0,1,0,54177.5,0.220033,0.219719,0.282917,28,0.0170158,10,6.21624e-05,-3.54834,-3.36867,-0.0175143,-0.19321,0.219719,
2,1,0,0,0,54177.8,0.221532,0.221199,0.282115,28,0.0171045,10,6.24034e-05,-3.54957,-1.48615,-0.0396999,-0.436623,0.221199,
2,1,0,0,0,54178.1,0.22303,0.222686,0.280467,28,0.017193,10,6.2456e-05,-3.55212,-2.33883,-0.0252263,-0.278058,0.222686,
2,1,0,1,0,54178.4,0.224529,0.224222,0.282455,28,0.0172813,10,6.33328e-05,-3.54905,-2.48626,-0.0237304,-0.261159,0.2242225,
2,1,0,1,0,54178.7,0.226026,0.225683,0.281261,28,0.0173696,10,6.34759e-05,-3.55089,-3.18565,-0.0185205,-0.203241,0.225683,
2,1,0,1,0,54179,0.227524,0.2272,0.280796,28,0.0174579,10,6.37969e-05,-3.55161,-1.09159,-0.0540496,-0.591864,0.2272,
2,1,0,1,0,54179.3,0.229023,0.228709,0.28004,28,0.0175459,10,6.40476e-05,-3.55278,-2.82031,-0.0209197,-0.229512,0.2287087,
2,1,0,1,0,54179.6,0.230521,0.230188,0.280324,28,0.0176337,10,6.45273e-05,-3.55234,-1.89807,-0.0310842,-0.340605,0.230188,
2,1,0,1,0,54179.9,0.232019,0.231694,0.280088,28,0.0177216,10,6.48946e-05,-3.55271,-2.32523,-0.0253738,-0.277586,0.231694,
2,1,0,1,0,54180.2,0.233518,0.233185,0.279329,28,0.0178094,10,6.51354e-05,-3.55388,-4.52008,-0.0130529,-0.142531,0.233185,
2,1,0,1,0,54180.5,0.235015,0.234658,0.280374,28,0.0178972,10,6.57918e-05,-3.55226,-6.72521,-0.00877297,-0.095663,0.234658,
2,1,0,1,0,54180.8,0.236513,0.236153,0.279265,28,0.0179846,10,6.59493e-05,-3.55398,-3.63257,-0.0162419,-0.176887,0.236153,
2,1,0,0,0,54181.1,0.238012,0.237678,0.279529,28,0.0180721,10,6.64378e-05,-3.55357,5.10983,0.0115464,0.125428,0.2376776,
2,1,0,0,0,54181.4,0.23951,0.239157,0.277763,28,0.0181596,10,6.64288e-05,-3.55633,-3.09141,-0.0190852,-0.20735,0.239157,
2,1,0,1,0,54181.7,0.241009,0.240671,0.277939,28,0.0182469,10,6.68919e-05,-3.55605,-1.26958,-0.0464719,-0.50499,0.240671,
2,1,0,1,0,54182,0.242506,0.242147,0.27725,28,0.0183339,10,6.71353e-05,-3.55713,-82.096,-0.00071867,-0.00782606,0.242147,
2,1,0,1,0,54182.3,0.244004,0.243683,0.277042,28,0.0184209,10,6.75104e-05,-3.55746,1.87823,0.0314126,0.340168,0.243683,
2,1,0,1,0,54182.6,0.245503,0.245183,0.27829,28,0.0185081,10,6.82319e-05,-3.5555,-30.7904,-0.00191618,-0.0207274,0.245183,
2,1,0,1,0,54182.9,0.247001,0.246688,0.27726,28,0.0185952,10,6.83968e-05,-3.55711,-1.46177,-0.0403619,-0.435738,0.246688,
2,1,0,1,0,54183.2,0.2485,0.248186,0.276074,28,0.0186821,10,6.85175e-05,-3.55897,-1.81577,-0.0324931,-0.350781,0.248186,
2,1,0,1,0,54183.5,0.249997,0.249614,0.276267,28,0.0187687,10,6.896e-05,-3.55867,-1.96499,-0.0300256,-0.323755,0.249614,
2,1,0,1,0,54183.8,0.251495,0.251151,0.276291,28,0.0188553,10,6.93906e-05,-3.55863,-2.11904,-0.0278428,-0.300338,0.2511507,
2,1,0,0,0,54184.1,0.252994,0.252672,0.275709,28,0.0189419,10,6.96638e-05,-3.55955,-0.896115,-0.0658397,-0.706349,0.252672,
2,1,0,0,0,54184.4,0.254492,0.254134,0.275327,28,0.0190283,10,6.997e-05,-3.56015,-1.53365,-0.0384704,-0.413179,0.254134,
2,1,0,1,0,54184.7,0.255991,0.255669,0.273764,28,0.0191144,10,6.9993e-05,-3.56262,-4.97089,-0.0118691,-0.12768,0.255669,
2,1,0,1,0,54185,0.257488,0.257156,0.274603,28,0.0192005,10,7.06159e-05,-3.56129,-2.29162,-0.0257459,-0.275616,0.2571564,
2,1,0,1,0,54185.3,0.258986,0.258664,0.274551,28,0.0192867,10,7.10165e-05,-3.56138,-1.64062,-0.035962,-0.384203,0.258664,
2,1,0,1,0,54185.6,0.260485,0.260157,0.273446,28,0.0193727,10,7.11389e-05,-3.56313,-17.0004,-0.00347051,-0.0370537,0.260157,
2,1,0,1,0,54185.9,0.261983,0.261652,0.272568,28,0.0194585,10,7.13181e-05,-3.56452,5.88538,0.0100248,0.107068,0.261652,
2,1,0,1,0,54186.2,0.263481,0.263167,0.273978,28,0.0195442,10,7.2102e-05,-3.56228,-3.5078,-0.0168197,-0.1789,0.263167,
2,1,0,1,0,54186.5,0.26498,0.264666,0.272203,28,0.01963,10,7.20429e-05,-3.56511,-6.42867,-0.00917764,-0.09782,0.264666,
2,1,0,1,0,54186.8,0.266477,0.266137,0.273152,28,0.0197157,10,7.26958e-05,-3.5636,-1.51295,-0.0389966,-0.415055,0.266137,
2,1,0,0,0,54187.1,0.267976,0.267604,0.271987,28,0.0198011,10,7.27848e-05,-3.56545,-1.49389,-0.0394942,-0.420093,0.267604,
2,1,0,0,0,54187.4,0.269474,0.269143,0.271267,28,0.0198864,10,7.30095e-05,-3.5666,-4.40931,-0.0133808,-0.141919,0.269143,
2,1,0,0,0,54187.7,0.270972,0.270632,0.27238,28,0.0199717,10,7.37147e-05,-3.56483,-1.53169,-0.0385195,-0.407892,0.270632,
2,1,0,1,0,54188,0.27247,0.272137,0.271237,28,0.020057,10,7.38137e-05,-3.56665,-1.84512,-0.0319763,-0.337239,0.2721369,
2,1,0,1,0,54188.3,0.273968,0.273641,0.269781,28,0.0201419,10,7.38233e-05,-3.56899,-2.01381,-0.0292977,-0.3092,0.273641,
2,1,0,1,0,54188.6,0.275466,0.275128,0.271298,28,0.0202267,10,7.46416e-05,-3.56655,-4.82155,-0.0122367,-0.129367,0.275128,
2,1,0,1,0,54188.9,0.276965,0.276644,0.269448,28,0.0203115,10,7.45414e-05,-3.56952,-2.71347,-0.0217434,-0.229678,0.276644,
2,1,0,1,0,54189.2,0.278463,0.278123,0.269273,28,0.0203962,10,7.4891e-05,-3.56981,-1.17727,-0.0501158,-0.526429,0.278123,
2,1,0,1,0,54189.5,0.279962,0.279641,0.268963,28,0.0204808,10,7.52133e-05,-3.57031,-12.4584,-0.00473574,-0.0498449,0.279641,
2,1,0,1,0,54189.8,0.281459,0.281149,0.269006,28,0.0205651,10,7.56307e-05,-3.57024,-5.8867,-0.0100226,-0.105141,0.281149,
2,1,0,1,0,54190.1,0.282957,0.282604,0.269872,28,0.0206496,10,7.62668e-05,-3.56884,-5.81189,-0.0101516,-0.1063,0.282604,
2,1,0,0,0,54190.4,0.284456,0.284156,0.26854,28,0.0207339,10,7.63073e-05,-3.57099,-8.33333,-0.00708001,-0.0741343,0.284156,
2,1,0,0,0,54190.7,0.285954,0.28562,0.267954,28,0.020818,10,7.65329e-05,-3.57194,-1.1789,-0.0500467,-0.52317,0.28562,
2,1,0,0,0,54191,0.287452,0.287119,0.267859,28,0.0209019,10,7.69074e-05,-3.57209,-2.1352,-0.0276321,-0.288763,0.287119,
2,1,0,1,0,54191.3,0.28895,0.288612,0.267251,28,0.0209857,10,7.71319e-05,-3.57308,3.34334,0.017647,0.18373,0.288612,
2,1,0,1,0,54191.6,0.290448,0.290098,0.26668,28,0.0210695,10,7.73631e-05,-3.57401,-4.58388,-0.0128712,-0.13431,0.290098,
2,1,0,1,0,54191.9,0.291947,0.291626,0.267635,28,0.0211532,10,7.80491e-05,-3.57246,-2.83575,-0.0208058,-0.21654,0.291626,
2,1,0,1,0,54192.2,0.293445,0.293092,0.265104,28,0.0212367,10,7.76999e-05,-3.57658,-4.22486,-0.0139649,-0.145209,0.293092,
2,1,0,1,0,54192.5,0.294943,0.294566,0.266114,28,0.0213201,10,7.83882e-05,-3.57493,-5.73897,-0.0102806,-0.106554,0.2945663,
2,1,0,1,0,54192.8,0.296442,0.296158,0.266887,28,0.0214035,10,7.90406e-05,-3.57367,-8.72137,-0.00676499,-0.0701202,0.296158,
2,1,0,1,0,54193.1,0.297939,0.297631,0.26555,28,0.0214869,10,7.90357e-05,-3.57585,-4.50527,-0.0130958,-0.135251,0.297631,
2,1,0,1,0,54193.4,0.299437,0.299114,0.265146,28,0.02157,10,7.93087e-05,-3.57652,-0.00280892,-21.0045,-113.234,0.299114,
2,1,0,1,0,54193.6,0.299737,0.299413,0.128287,28,0.0216092,10,3.84108e-05,-3.89182,0.00100103,58.9395,209.442,0.299413,
2,1,0,1,0,54193.9,0.29824,0.297925,0.0271804,28,0.0216224,10,8.09771e-06,-4.56574,0.00153488,38.4394,72.1004,0.297925,
2,1,0,0,0,54194.2,0.296741,0.296427,0.0069661,28,0.0216233,10,2.06494e-06,-5.15701,0.00678344,8.69765,12.1805,0.296427,
2,0,0,0,0,54194.5,0.295243,0.294911,-0.00569417,28,0.0216195,10,-1.67927e-06,-5.24457,-0.0300421,-1.96391,7.24233,0.294911,
2,0,0,1,0,54194.8,0.293744,0.293434,-0.0159195,28,0.0216126,10,-4.67132e-06,-4.79807,-0.00394227,-14.966,5.63342,0.293434,
2,0,0,1,0,54195.1,0.292246,0.291929,-0.022519,28,0.0216033,10,-6.57395e-06,-4.64745,-0.0093825,-6.2883,4.87847,0.291929,
2,0,0,1,0,54195.4,0.290749,0.290388,-0.0302317,28,0.0215917,10,-8.77893e-06,-4.51954,-0.0144042,-4.09603,4.50066,0.290388,
2,0,0,1,0,54195.7,0.28925,0.288911,-0.0358277,28,0.0215782,10,-1.0351e-05,-4.44578,-0.0208512,-2.82957,3.7874,0.2889111,
2,0,0,1,0,54196,0.287752,0.287379,-0.0412619,28,0.021563,10,-1.18578e-05,-4.38445,-0.0256679,-2.29859,3.61586,0.287379,
2,0,0,1,0,54196.3,0.286253,0.285908,-0.0453497,28,0.0215463,10,-1.29658e-05,-4.34343,-0.0301662,-1.95583,3.49553,0.2859076,
2,0,0,1,0,54196.6,0.284755,0.284421,-0.0516373,28,0.0215281,10,-1.46867e-05,-4.28704,-0.0345182,-1.70924,3.31451,0.284421,
2,0,0,1,0,54196.9,0.283257,0.282921,-0.0550775,28,0.0215083,10,-1.55826e-05,-4.25903,-0.0424278,-1.3906,2.97004,0.282921,
2,0,0,0,0,54197.2,0.281759,0.281407,-0.0598055,28,0.0214873,10,-1.68297e-05,-4.22326,-0.0501731,-1.17593,2.70125,0.281407,
2,0,0,0,0,54197.5,0.280261,0.279915,-0.0624895,28,0.0214651,10,-1.74917e-05,-4.20419,-0.0535241,-1.10231,2.68479,0.279915,
2,0,0,0,0,54197.8,0.278763,0.278436,-0.0672088,28,0.021442,10,-1.87134e-05,-4.17257,-0.0535998,-1.10075,2.88181,0.278436,
2,0,0,1,0,54198.1,0.277264,0.276954,-0.0712427,28,0.0214175,10,-1.97309e-05,-4.14726,-0.0589918,-1.00014,2.74052,0.276954,
2,0,0,1,0,54198.4,0.275766,0.275439,-0.0732198,28,0.021392,10,-2.01676e-05,-4.13537,-0.0873712,-0.67528,1.92889,0.275439,
2,0,0,1,0,54198.7,0.274269,0.273938,-0.0772842,28,0.0213654,10,-2.1171e-05,-4.11191,-0.0889843,-0.663038,2.00354,0.273938,
2,0,0,1,0,54199,0.27277,0.272403,-0.0809506,28,0.021338,10,-2.20512e-05,-4.09178,-0.0810066,-0.728336,2.29154,0.2724027,
2,0,0,1,0,54199.3,0.271272,0.270912,-0.0837097,28,0.0213095,10,-2.26779e-05,-4.07722,-0.113189,-0.521254,1.68395,0.270912,
2,0,0,1,0,54199.6,0.269773,0.269424,-0.0870597,28,0.02128,10,-2.3456e-05,-4.06018,-0.102002,-0.578418,1.94896,0.269424,
2,0,0,1,0,54199.9,0.268275,0.267947,-0.0901445,28,0.0212498,10,-2.41539e-05,-4.04506,-0.103838,-0.568192,1.97561,0.267947,
2,0,0,1,0,54200.2,0.266778,0.26645,-0.0918476,28,0.0212188,10,-2.44728e-05,-4.03693,-0.126203,-0.467501,1.66712,0.26645,
2,0,0,0,0,54200.5,0.265279,0.264941,-0.0947254,28,0.021187,10,-2.50966e-05,-4.02353,-0.111717,-0.528122,1.93677,0.264941,
2,0,0,0,0,54200.8,0.263781,0.263405,-0.097087,28,0.0211544,10,-2.55732e-05,-4.01284,-0.110957,-0.531737,1.99473,0.263405,
2,0,0,1,0,54201.1,0.262282,0.261926,-0.100369,28,0.021121,10,-2.62892e-05,-3.9984,-0.161273,-0.365839,1.42573,0.261926,
2,0,0,1,0,54201.4,0.260784,0.26049,-0.101392,28,0.021087,10,-2.64117e-05,-3.99399,-0.119459,-0.493895,1.96587,0.2604903,
2,0,0,1,0,54201.7,0.259286,0.258959,-0.104684,28,0.0210521,10,-2.71089e-05,-3.98012,-0.127529,-0.462641,1.87477,0.258959,
2,0,0,1,0,54202,0.257788,0.257482,-0.107643,28,0.0210165,10,-2.77162e-05,-3.96801,-0.190241,-0.310132,1.30052,0.257482,
2,0,0,1,0,54202.3,0.25629,0.255936,-0.108494,28,0.0209801,10,-2.77676e-05,-3.96459,-0.130472,-0.452206,1.91386,0.255936,
2,0,0,1,0,54202.6,0.254791,0.254472,-0.109707,28,0.0209432,10,-2.79174e-05,-3.95976,-0.176154,-0.334934,1.44446,0.254472,
2,0,0,1,0,54202.9,0.253293,0.252908,-0.113485,28,0.0209056,10,-2.87013e-05,-3.94506,-0.146648,-0.402323,1.78368,0.252908,
2,0,0,1,0,54203.2,0.251795,0.251412,-0.115536,28,0.0208673,10,-2.90471e-05,-3.93728,-0.181175,-0.325651,1.47613,0.251412,
2,0,0,0,0,54203.5,0.250297,0.249968,-0.117718,28,0.0208283,10,-2.94258e-05,-3.92916,-0.27783,-0.21236,0.966856,0.249968,
2,0,0,0,0,54203.8,0.248799,0.248427,-0.118915,28,0.0207887,10,-2.95417e-05,-3.92476,-0.205569,-0.287009,1.33964,0.248427,
2,0,0,0,0,54204.1,0.247301,0.246974,-0.12225,28,0.0207488,10,-3.01925e-05,-3.91275,-0.208242,-0.283324,1.3494,0.246974,
2,0,0,1,0,54204.4,0.245802,0.24544,-0.124988,28,0.0207081,10,-3.0677e-05,-3.90313,-0.198442,-0.297317,1.43869,0.2454396,
2,0,0,1,0,54204.7,0.244304,0.243913,-0.126947,28,0.0206666,10,-3.09641e-05,-3.89638,-0.226255,-0.260767,1.27924,0.243913,
2,0,0,1,0,54205,0.242806,0.242426,-0.127406,28,0.0206246,10,-3.08865e-05,-3.89481,-0.293679,-0.200899,1.00613,0.242426,
2,0,0,1,0,54205.3,0.241308,0.240954,-0.129494,28,0.0205823,10,-3.1202e-05,-3.88775,-0.210587,-0.28017,1.41812,0.240954,
2,0,0,1,0,54205.6,0.23981,0.239443,-0.131007,28,0.0205393,10,-3.13688e-05,-3.8827,-0.192865,-0.305914,1.56195,0.239443,
2,0,0,1,0,54205.9,0.238311,0.237923,-0.133845,28,0.0204956,10,-3.18447e-05,-3.8734,-0.227607,-0.259218,1.35622,0.237923,
2,0,0,1,0,54206.2,0.236813,0.236453,-0.13602,28,0.0204514,10,-3.21622e-05,-3.8664,-0.274544,-0.214902,1.13558,0.236453,
2,0,0,1,0,54206.5,0.235316,0.234958,-0.136961,28,0.0204068,10,-3.21801e-05,-3.8634,-0.339464,-0.173803,0.932581,0.2349581,
2,0,0,0,0,54206.8,0.233817,0.233486,-0.139848,28,0.0203615,10,-3.26526e-05,-3.85434,-0.237283,-0.248648,1.34145,0.233486,
2,0,0,0,0,54207.1,0.232319,0.231947,-0.142067,28,0.0203157,10,-3.2952e-05,-3.84751,-0.339075,-0.174003,0.956172,0.231947,
2,0,0,1,0,54207.4,0.23082,0.23047,-0.14274,28,0.0202693,10,-3.28973e-05,-3.84545,-0.330081,-0.178744,0.986231,0.23047,
2,0,0,1,0,54207.7,0.229322,0.228979,-0.142218,28,0.0202225,10,-3.2565e-05,-3.84704,-0.295987,-0.199333,1.11797,0.2289792,
2,0,0,1,0,54208,0.227825,0.22747,-0.14577,28,0.0201753,10,-3.31583e-05,-3.83633,-0.347279,-0.169892,0.967906,0.22747,
2,0,0,1,0,54208.3,0.226326,0.22601,-0.148212,28,0.0201274,10,-3.34975e-05,-3.82912,-0.302158,-0.195262,1.12634,0.22601,
2,0,0,1,0,54208.6,0.224828,0.224458,-0.148245,28,0.020079,10,-3.32747e-05,-3.82902,-0.440395,-0.133971,0.77597,0.224458,
2,0,0,1,0,54208.9,0.223329,0.222981,-0.150625,28,0.0200301,10,-3.35864e-05,-3.8221,-0.361063,-0.163407,0.963012,0.222981,
2,0,0,1,0,54209.2,0.221831,0.221498,-0.153342,28,0.0199808,10,-3.39649e-05,-3.81434,-0.270081,-0.218453,1.29779,0.221498,
2,0,0,1,0,54209.5,0.220333,0.220052,-0.154726,28,0.0199308,10,-3.40478e-05,-3.81044,-0.278268,-0.212026,1.27367,0.220052,
2,0,0,0,0,54209.8,0.218835,0.218483,-0.155796,28,0.0198801,10,-3.40389e-05,-3.80744,-0.354165,-0.166589,1.0097,0.218483,
2,0,0,0,0,54210.1,0.217337,0.217005,-0.157196,28,0.0198292,10,-3.41124e-05,-3.80356,-0.360819,-0.163517,1.00853,0.217005,
2,0,0,0,0,54210.4,0.215839,0.215489,-0.158582,28,0.0197779,10,-3.41726e-05,-3.79975,-0.310978,-0.189724,1.17463,0.215489,
2,0,0,1,0,54210.7,0.21434,0.213978,-0.160696,28,0.0197259,10,-3.43854e-05,-3.794,-0.305027,-0.193426,1.20936,0.213978,
2,0,0,1,0,54211,0.212842,0.212497,-0.162621,28,0.0196734,10,-3.45564e-05,-3.78882,-0.306349,-0.19259,1.21811,0.212497,
2,0,0,1,0,54211.3,0.211344,0.211002,-0.163592,28,0.0196204,10,-3.45182e-05,-3.78624,-0.352748,-0.167258,1.07049,0.211002,
2,0,0,1,0,54211.6,0.209846,0.209507,-0.164442,28,0.0195669,10,-3.44516e-05,-3.78399,-0.494794,-0.119242,0.771043,0.209507,
2,0,0,1,0,54211.9,0.208348,0.207993,-0.167907,28,0.019513,10,-3.49235e-05,-3.77493,-0.330955,-0.178272,1.17013,0.207993,
2,0,0,1,0,54212.2,0.206849,0.206491,-0.171066,28,0.0194583,10,-3.53236e-05,-3.76684,-0.331144,-0.17817,1.17501,0.2064909,
2,0,0,1,0,54212.5,0.205351,0.204996,-0.170335,28,0.019403,10,-3.4918e-05,-3.7687,-0.359387,-0.164168,1.09475,0.204996,
2,0,0,1,0,54212.8,0.203854,0.20347,-0.172459,28,0.0193473,10,-3.50903e-05,-3.76331,-0.336822,-0.175167,1.18094,0.20347,
2,0,0,0,0,54213.1,0.202355,0.20198,-0.174391,28,0.0192913,10,-3.52236e-05,-3.75848,-0.424683,-0.138927,0.946996,0.20198,
2,0,0,0,0,54213.4,0.200857,0.200535,-0.1768,28,0.0192346,10,-3.54545e-05,-3.75252,-0.341427,-0.172804,1.19122,0.200535,
2,0,0,1,0,54213.7,0.199358,0.199018,-0.178797,28,0.0191773,10,-3.55839e-05,-3.74764,-0.364376,-0.161921,1.12236,0.199018,
2,0,0,1,0,54214,0.19786,0.197482,-0.180527,28,0.0191195,10,-3.56509e-05,-3.74346,-0.332903,-0.177229,1.24362,0.197482,
2,0,0,1,0,54214.3,0.196363,0.195974,-0.182301,28,0.0190614,10,-3.57263e-05,-3.73921,-0.376394,-0.156751,1.11265,0.195974,
2,0,0,1,0,54214.6,0.194864,0.194526,-0.183815,28,0.0190025,10,-3.5757e-05,-3.73562,-0.310711,-0.189887,1.35778,0.194526,
2,0,0,1,0,54214.9,0.193366,0.19297,-0.18477,28,0.0189429,10,-3.56549e-05,-3.73337,-0.360285,-0.163759,1.18405,0.1929698,
2,0,0,1,0,54215.2,0.191867,0.191541,-0.187239,28,0.0188828,10,-3.5864e-05,-3.7276,-0.396184,-0.148921,1.09596,0.191541,
2,0,0,1,0,54215.5,0.190369,0.189972,-0.189499,28,0.0188223,10,-3.59996e-05,-3.72239,-0.50761,-0.116231,0.859714,0.189972,
2,0,0,1,0,54215.8,0.188871,0.188533,-0.190726,28,0.018761,10,-3.59581e-05,-3.71959,-0.285972,-0.206314,1.54024,0.188533,
2,0,0,0,0,54216.1,0.187373,0.187023,-0.194481,28,0.0186992,10,-3.63724e-05,-3.71112,-0.382259,-0.154345,1.16722,0.187023,
2,0,0,0,0,54216.4,0.185875,0.185516,-0.195666,28,0.0186365,10,-3.62992e-05,-3.70848,-0.356779,-0.165369,1.25997,0.185516,
2,0,0,0,0,54216.7,0.184377,0.184036,-0.196149,28,0.0185734,10,-3.60984e-05,-3.70741,-0.413885,-0.142552,1.09896,0.184036,
2,0,0,1,0,54217,0.182878,0.182528,-0.19998,28,0.0185097,10,-3.6502e-05,-3.69901,-0.330706,-0.178406,1.38954,0.182528,
2,0,0,1,0,54217.3,0.181381,0.181016,-0.201314,28,0.0184452,10,-3.6441e-05,-3.69613,-0.235134,-0.25092,1.98028,0.181016,
2,0,0,1,0,54217.6,0.179882,0.179505,-0.204183,28,0.0183799,10,-3.66519e-05,-3.68998,-0.473819,-0.12452,0.989844,0.179505,
2,0,0,1,0,54217.9,0.178384,0.178031,-0.206889,28,0.018314,10,-3.68327e-05,-3.68426,-0.270673,-0.217975,1.75526,0.1780308,
2,0,0,1,0,54218.2,0.176886,0.176494,-0.209504,28,0.0182475,10,-3.69763e-05,-3.67881,-0.260465,-0.226518,1.8503,0.176494,
2,0,0,1,0,54218.5,0.175387,0.175036,-0.211702,28,0.01818,10,-3.70554e-05,-3.67428,-0.264136,-0.22337,1.84382,0.175036,
2,0,0,1,0,54218.8,0.173889,0.173526,-0.215344,28,0.0181117,10,-3.73679e-05,-3.66687,-0.311804,-0.189221,1.58525,0.173526,
2,0,0,1,0,54219.1,0.172392,0.172043,-0.217881,28,0.0180425,10,-3.74848e-05,-3.66178,-0.281643,-0.209485,1.77981,0.172043,
2,0,0,0,0,54219.4,0.170893,0.17051,-0.220847,28,0.0179727,10,-3.76567e-05,-3.65591,-0.237117,-0.248822,2.14619,0.1705104,
2,0,0,0,0,54219.7,0.169395,0.169046,-0.224576,28,0.0179017,10,-3.79637e-05,-3.64864,-0.201512,-0.292787,2.55108,0.169046,
2,0,0,1,0,54220,0.167896,0.167501,-0.228174,28,0.0178296,10,-3.82193e-05,-3.64173,-0.219849,-0.268367,2.38572,0.167501,
2,0,0,1,0,54220.3,0.166398,0.166008,-0.230293,28,0.0177566,10,-3.82305e-05,-3.63772,-0.227826,-0.25897,2.34237,0.166008,
2,0,0,1,0,54220.6,0.164901,0.164544,-0.23338,28,0.0176828,10,-3.84012e-05,-3.63194,-0.217074,-0.271797,2.49779,0.164544,
2,0,0,1,0,54220.9,0.163402,0.163045,-0.238273,28,0.0176078,10,-3.88492e-05,-3.62293,-0.186197,-0.31687,2.94721,0.163045,
2,0,0,1,0,54221.2,0.161904,0.161514,-0.242491,28,0.0175315,10,-3.91657e-05,-3.6153,-0.187145,-0.315264,2.98131,0.161514,
2,0,0,1,0,54221.5,0.160405,0.160046,-0.247008,28,0.017454,10,-3.95326e-05,-3.60729,-0.243334,-0.242465,2.33002,0.160046,
2,0,0,1,0,54221.8,0.158907,0.158543,-0.249913,28,0.0173752,10,-3.96219e-05,-3.60221,-0.169622,-0.347832,3.41435,0.158543,
2,0,0,1,0,54222.1,0.157409,0.157083,-0.256106,28,0.0172951,10,-4.02298e-05,-3.59158,-0.167429,-0.352388,3.54137,0.157083,
2,0,0,0,0,54222.4,0.155911,0.155566,-0.261435,28,0.0172132,10,-4.06704e-05,-3.58264,-0.168488,-0.350173,3.58994,0.155566,
2,0,0,0,0,54222.7,0.154413,0.154061,-0.268081,28,0.0171294,10,-4.13009e-05,-3.57173,-0.174243,-0.338607,3.53845,0.154061,
2,0,0,0,0,54223,0.152915,0.152539,-0.273848,28,0.017044,10,-4.17724e-05,-3.56249,-0.148481,-0.397358,4.27232,0.152539,
2,0,0,1,0,54223.3,0.151416,0.151031,-0.280848,28,0.0169568,10,-4.24166e-05,-3.55153,-0.129175,-0.456745,5.01248,0.151031,
2,0,0,1,0,54223.6,0.149919,0.149551,-0.290002,28,0.0168671,10,-4.337e-05,-3.5376,-0.115228,-0.512026,5.78422,0.1495508,
2,0,0,1,0,54223.9,0.14842,0.14807,-0.29762,28,0.0167748,10,-4.40686e-05,-3.52634,-0.110594,-0.533485,6.20403,0.14807,
2,0,0,1,0,54224.2,0.146922,0.146549,-0.307238,28,0.0166798,10,-4.50256e-05,-3.51252,-0.100754,-0.585586,7.03965,0.146549,
2,0,0,1,0,54224.5,0.145424,0.145056,-0.317041,28,0.0165818,10,-4.59888e-05,-3.49889,-0.0933928,-0.63174,7.84759,0.145056,
2,0,0,1,0,54224.8,0.143925,0.143555,-0.329675,28,0.01648,10,-4.73263e-05,-3.48191,-0.0866562,-0.680852,8.76987,0.143555,
2,0,0,1,0,54225.1,0.142427,0.142055,-0.344024,28,0.0163743,10,-4.88705e-05,-3.46341,-0.0857389,-0.688136,9.25777,0.142055,
2,0,0,1,0,54225.4,0.14093,0.140561,-0.358205,28,0.0162646,10,-5.03496e-05,-3.44587,-0.0900044,-0.655523,9.18958,0.140561,
2,0,0,0,0,54225.6,0.139431,0.139063,-0.370927,28,0.0161506,10,-5.15822e-05,-3.43071,-0.0824899,-0.715239,10.428,0.139063,
2,0,0,0,0,54225.9,0.137933,0.137583,-0.389921,28,0.0160319,10,-5.36463e-05,-3.40902,-0.0812237,-0.726389,11.0401,0.137583,
2,0,0,1,0,54226.2,0.136434,0.136048,-0.407829,28,0.0159081,10,-5.54843e-05,-3.38952,-0.0835148,-0.706461,11.2045,0.136048,
2,0,0,1,0,54226.5,0.134936,0.134586,-0.424094,28,0.0157791,10,-5.70771e-05,-3.37254,-0.0879579,-0.670775,11.0559,0.134586,
2,0,0,1,0,54226.8,0.133439,0.13308,-0.439795,28,0.0156448,10,-5.85278e-05,-3.35675,-0.0866262,-0.681087,11.7293,0.13308,
2,0,0,1,0,54227.1,0.13194,0.131608,-0.458206,28,0.0155056,10,-6.03037e-05,-3.33894,-0.0864032,-0.682845,12.2556,0.131608,
2,0,0,1,0,54227.4,0.130442,0.130085,-0.47644,28,0.0153608,10,-6.19775e-05,-3.32199,-0.0918687,-0.642221,11.9313,0.130085,
2,0,0,1,0,54227.7,0.128943,0.128532,-0.493969,28,0.0152105,10,-6.34907e-05,-3.3063,-0.105782,-0.557753,10.7147,0.128532,
2,0,0,1,0,54228,0.127445,0.127043,-0.510307,28,0.0150555,10,-6.4831e-05,-3.29217,-0.11885,-0.496425,9.86913,0.127043,
2,0,0,1,0,54228.3,0.125947,0.125561,-0.524646,28,0.0148964,10,-6.58751e-05,-3.28013,-0.129549,-0.455427,9.29114,0.125561,
2,0,0,0,0,54228.6,0.124449,0.124117,-0.537733,28,0.0147326,10,-6.67416e-05,-3.26943,-0.141954,-0.415627,8.68065,0.124117,
2,0,0,0,0,54228.9,0.122951,0.122591,-0.549747,28,0.0145649,10,-6.73939e-05,-3.25984,-0.164765,-0.358085,7.64821,0.122591,
2,0,0,0,0,54229.2,0.121453,0.121111,-0.559159,28,0.0143939,10,-6.77205e-05,-3.25247,-0.218949,-0.26947,5.87224,0.121111,
2,0,0,1,0,54229.5,0.119954,0.119602,-0.567228,28,0.0142204,10,-6.78416e-05,-3.24624,-0.252909,-0.233286,5.16221,0.119602,
2,0,0,1,0,54229.8,0.118456,0.118094,-0.57456,28,0.0140444,10,-6.78518e-05,-3.24066,-0.267541,-0.220527,4.93247,0.118094,
2,0,0,1,0,54230.1,0.116958,0.116598,-0.582267,28,0.0138661,10,-6.78914e-05,-3.23488,-0.428792,-0.137596,3.11233,0.116598,
2,0,0,1,0,54230.4,0.11546,0.11507,-0.585981,28,0.0136864,10,-6.74289e-05,-3.23212,-0.74463,-0.079234,1.80248,0.11507,
2,0,0,1,0,54230.7,0.113962,0.11363,-0.584011,28,0.0135061,10,-6.63612e-05,-3.23358,-1.24183,-0.0475104,1.08692,0.11363,
2,0,0,1,0,54231,0.112463,0.112165,-0.589027,28,0.0133253,10,-6.60679e-05,-3.22986,-1.6667,-0.0353992,0.812379,0.1121645,
2,0,0,1,0,54231.3,0.110965,0.1106,-0.590258,28,0.0131441,10,-6.52824e-05,-3.22896,-1216.85,-4.84859e-05,0.00111393,0.1106,
2,0,0,1,0,54231.6,0.109468,0.109108,-0.589327,28,0.0129626,10,-6.43003e-05,-3.22964,3.77612,0.0156245,-0.358662,0.109108,
2,0,0,0,0,54231.9,0.107969,0.107606,-0.586419,28,0.0127814,10,-6.31022e-05,-3.23179,1.97187,0.0299209,-0.688248,0.107606,
2,0,0,0,0,54232.2,0.106471,0.106194,-0.588118,28,0.0126007,10,-6.24544e-05,-3.23054,2.21878,0.0265912,-0.611125,0.106194,
2,0,0,1,0,54232.5,0.104972,0.104663,-0.586621,28,0.0124201,10,-6.13975e-05,-3.23164,2.72995,0.0216121,-0.493765,0.104663,
2,0,0,1,0,54232.8,0.103474,0.103097,-0.585936,28,0.0122396,10,-6.04083e-05,-3.23215,1.13984,0.0517615,-1.17882,0.103097,
2,0,0,1,0,54233.1,0.101977,0.10164,-0.583589,28,0.01206,10,-5.93162e-05,-3.23389,0.968962,0.0608899,-1.38427,0.10164,
2,0,0,1,0,54233.4,0.100478,0.100135,-0.580022,28,0.0118811,10,-5.80808e-05,-3.23656,1.32433,0.0445509,-1.00928,0.100135,
2,0,0,1,0,54233.7,0.0989798,0.0986286,-0.579155,28,0.0117027,10,-5.71213e-05,-3.23721,1.15634,0.0510232,-1.14974,0.0986286,
2,0,0,1,0,54234,0.0974812,0.0971024,-0.576953,28,0.0115248,10,-5.60235e-05,-3.23886,0.945079,0.0624286,-1.4056,0.0971024,
2,0,0,1,0,54234.3,0.0959834,0.0956042,-0.574297,28,0.0113476,10,-5.49052e-05,-3.24086,0.718033,0.0821689,-1.84279,0.0956042,
2,0,0,1,0,54234.6,0.0944855,0.0941242,-0.570809,28,0.0111714,10,-5.3727e-05,-3.24351,0.761942,0.0774337,-1.72511,0.0941242,
2,0,0,0,0,54234.9,0.0929871,0.0926766,-0.568036,28,0.0109957,10,-5.26436e-05,-3.24562,1.27513,0.0462698,-1.02648,0.0926766,
2,0,0,0,0,54235.2,0.0914889,0.0911358,-0.568256,28,0.0108207,10,-5.17884e-05,-3.24546,0.744457,0.0792524,-1.7517,0.0911358,
2,0,0,0,0,54235.5,0.0899907,0.0896523,-0.565102,28,0.0106464,10,-5.06627e-05,-3.24787,0.565534,0.104326,-2.29054,0.0896523,
2,0,0,1,0,54235.8,0.0884923,0.0881421,-0.558425,28,0.0104732,10,-4.92207e-05,-3.25304,0.621167,0.0949825,-2.07768,0.0881421,
2,0,0,1,0,54236.1,0.0869946,0.0866431,-0.557395,28,0.0103012,10,-4.82945e-05,-3.25384,0.623504,0.0946265,-2.06231,0.0866431,
2,0,0,1,0,54236.4,0.0854961,0.0851212,-0.554961,28,0.0101298,10,-4.72389e-05,-3.25574,0.597187,0.0987965,-2.13835,0.0851212,
2,0,0,1,0,54236.7,0.083998,0.0836631,-0.551801,28,0.00995931,10,-4.61654e-05,-3.25822,0.42479,0.138892,-2.98714,0.0836631,
2,0,0,1,0,54237,0.0824998,0.0821382,-0.547467,28,0.00978994,10,-4.4968e-05,-3.26164,0.501142,0.117731,-2.51662,0.0821382,
2,0,0,1,0,54237.3,0.0810014,0.0807,-0.543682,28,0.00962194,10,-4.38752e-05,-3.26466,0.632024,0.0933509,-1.98543,0.0807,
2,0,0,1,0,54237.6,0.0795035,0.0791586,-0.542269,28,0.00945477,10,-4.29253e-05,-3.26578,0.63112,0.0934847,-1.97443,0.0791586,
2,0,0,1,0,54237.9,0.0780056,0.0776236,-0.538039,28,0.00928843,10,-4.17645e-05,-3.26919,0.498478,0.11836,-2.48473,0.0776236,
2,0,0,0,0,54238.2,0.076507,0.0761576,-0.534936,28,0.00912307,10,-4.07394e-05,-3.2717,0.513886,0.114811,-2.39532,0.0761576,
2,0,0,0,0,54238.5,0.0750088,0.0746507,-0.530659,28,0.00895923,10,-3.96141e-05,-3.27518,0.473338,0.124647,-2.58338,0.0746507,
2,0,0,1,0,54238.8,0.0735103,0.0731638,-0.528242,28,0.00879607,10,-3.86482e-05,-3.27717,0.770547,0.076569,-1.57565,0.0731638,
2,0,0,1,0,54239.1,0.0720124,0.0716647,-0.524507,28,0.00863396,10,-3.75886e-05,-3.28025,0.599959,0.09834,-2.0156,0.0716647,
2,0,0,1,0,54239.4,0.0705146,0.0701964,-0.520873,28,0.0084728,10,-3.65634e-05,-3.28327,0.515138,0.114532,-2.33163,0.0701964,
2,0,0,1,0,54239.7,0.069016,0.0686828,-0.516294,28,0.00831279,10,-3.54605e-05,-3.2871,0.572281,0.103096,-2.08475,0.0686828,
2,0,0,1,0,54240,0.0675179,0.067195,-0.514261,28,0.00815378,10,-3.45557e-05,-3.28882,0.708903,0.0832272,-1.67039,0.067195,
2,0,0,1,0,54240.3,0.0660192,0.0656569,-0.514635,28,0.0079954,10,-3.37894e-05,-3.2885,0.56671,0.10411,-2.07558,0.06565693,
2,0,0,1,0,54240.6,0.0645214,0.0641884,-0.50869,28,0.00783797,10,-3.2652e-05,-3.29355,0.464468,0.127027,-2.51652,0.0641884,
2,0,0,1,0,54240.9,0.0630235,0.0626927,-0.503278,28,0.00768177,10,-3.15518e-05,-3.29819,0.545258,0.108206,-2.13569,0.0626927,
2,0,0,0,0,54241.2,0.0615251,0.0611687,-0.502238,28,0.0075266,10,-3.07212e-05,-3.29909,0.589693,0.100052,-1.96126,0.0611687,
2,0,0,0,0,54241.5,0.0600269,0.059681,-0.499892,28,0.00737218,10,-2.98341e-05,-3.30112,0.562379,0.104911,-2.04749,0.059681,
2,0,0,0,0,54241.8,0.0585287,0.0581868,-0.495135,28,0.00721868,10,-2.88103e-05,-3.30528,0.416976,0.141495,-2.73289,0.05818684,
2,0,0,1,0,54242.1,0.0570303,0.0566744,-0.493773,28,0.00706617,10,-2.79843e-05,-3.30647,0.504979,0.116836,-2.24594,0.05667438,
2,0,0,1,0,54242.4,0.0555325,0.0552018,-0.489931,28,0.00691492,10,-2.70451e-05,-3.30987,0.611974,0.0964093,-1.84285,0.0552018,
2,0,0,1,0,54242.7,0.0540342,0.0536589,-0.487368,28,0.00676441,10,-2.61516e-05,-3.31214,0.551153,0.107048,-2.02899,0.0536589,
2,0,0,1,0,54243,0.052536,0.0521796,-0.484424,28,0.00661456,10,-2.52771e-05,-3.31477,0.517356,0.114041,-2.14752,0.0521796,
2,0,0,1,0,54243.3,0.0510378,0.0507025,-0.479803,28,0.00646596,10,-2.43272e-05,-3.31894,0.408866,0.144302,-2.70114,0.0507025,
2,0,0,1,0,54243.6,0.0495394,0.0492093,-0.474548,28,0.00631868,10,-2.33522e-05,-3.32372,0.451419,0.130699,-2.42667,0.0492093,
2,0,0,1,0,54243.9,0.0480415,0.0476805,-0.472023,28,0.00617234,10,-2.25063e-05,-3.32604,0.713683,0.0826698,-1.52229,0.0476805,
2,0,0,1,0,54244.2,0.0465436,0.0462037,-0.467649,28,0.00602697,10,-2.16071e-05,-3.33008,0.497612,0.118566,-2.16993,0.0462037,
2,0,0,0,0,54244.5,0.045045,0.0446868,-0.465887,28,0.00588251,10,-2.0819e-05,-3.33172,0.42853,0.13768,-2.5009,0.0446868,
2,0,0,0,0,54244.8,0.0435468,0.0431969,-0.460223,28,0.00573927,10,-1.98802e-05,-3.33703,0.465652,0.126704,-2.28005,0.0431969,
2,0,0,1,0,54245.1,0.0420483,0.0417312,-0.458093,28,0.00559709,10,-1.91168e-05,-3.33905,0.54162,0.108932,-1.94643,0.04173116,
2,0,0,1,0,54245.4,0.0405504,0.0402216,-0.45706,28,0.00545571,10,-1.83837e-05,-3.34003,0.471753,0.125065,-2.21564,0.0402216,
2,0,0,1,0,54245.7,0.0390526,0.0386833,-0.451582,28,0.00531531,10,-1.74687e-05,-3.34526,0.401484,0.146955,-2.5867,0.03868331,
2,0,0,1,0,54246,0.0375541,0.0371738,-0.44719,28,0.00517605,10,-1.66238e-05,-3.34951,0.425331,0.138715,-2.42871,0.03717383,
2,0,0,1,0,54246.3,0.0360559,0.0357073,-0.444698,28,0.00503801,10,-1.58789e-05,-3.35194,0.522161,0.112992,-1.96432,0.0357073,
2,0,0,1,0,54246.6,0.0345572,0.0342201,-0.44085,28,0.00490066,10,-1.50859e-05,-3.35571,0.515128,0.114535,-1.97563,0.0342201,
2,0,0,1,0,54246.9,0.0330594,0.0327156,-0.439436,28,0.00476425,10,-1.43764e-05,-3.3571,0.367309,0.160627,-2.74729,0.0327156,
2,0,0,1,0,54247.2,0.0315615,0.0311637,-0.436588,28,0.00462886,10,-1.36057e-05,-3.35993,0.453666,0.130052,-2.21235,0.0311637,
2,0,0,0,0,54247.5,0.0300631,0.0296789,-0.433518,28,0.00449469,10,-1.28663e-05,-3.36299,0.532026,0.110897,-1.87224,0.0296789,
2,0,0,0,0,54247.8,0.0285649,0.0282208,-0.43041,28,0.00436106,10,-1.21465e-05,-3.36612,0.638339,0.0924274,-1.55038,0.0282208,
2,0,0,0,0,54248.1,0.0270667,0.0267352,-0.427542,28,0.00422822,10,-1.14304e-05,-3.36902,0.588792,0.100205,-1.67067,0.0267352,
2,0,0,1,0,54248.4,0.0255683,0.0251984,-0.424281,28,0.00409616,10,-1.06912e-05,-3.37235,0.499629,0.118088,-1.95701,0.0251984,
2,0,0,1,0,54248.7,0.0240706,0.023744,-0.421132,28,0.00396524,10,-9.99935e-06,-3.37558,0.592725,0.0995402,-1.64132,0.023744,
2,0,0,1,0,54249,0.0225722,0.0222189,-0.419015,28,0.00383483,10,-9.31006e-06,-3.37777,1.00658,0.0586144,-0.958274,0.0222189,
2,0,0,1,0,54249.3,0.021074,0.0207301,-0.416799,28,0.00370507,10,-8.64029e-06,-3.38007,0.742689,0.079441,-1.29592,0.0207301,
2,0,0,1,0,54249.6,0.0195758,0.0192052,-0.415071,28,0.00357596,10,-7.97153e-06,-3.38188,0.654266,0.0901775,-1.46258,0.0192052,
2,0,0,1,0,54249.9,0.0180774,0.0177203,-0.411855,28,0.00344752,10,-7.29819e-06,-3.38526,0.797743,0.0739587,-1.19412,0.01772031,
2,0,0,1,0,54250.2,0.0165795,0.016229,-0.413255,28,0.00331969,10,-6.7067e-06,-3.38378,1.32763,0.0444402,-0.715135,0.01622897,
2,0,0,1,0,54250.5,0.0150817,0.0147213,-0.411879,28,0.00319207,10,-6.06337e-06,-3.38523,1.37738,0.0428351,-0.685537,0.0147213,
2,0,0,0,0,54250.8,0.013583,0.0132171,-0.409426,28,0.00306463,10,-5.41143e-06,-3.38782,0.697964,0.0845316,-1.34989,0.0132171,
2,0,0,0,0,54251.1,0.0120848,0.0117442,-0.409199,28,0.00293775,10,-4.80572e-06,-3.38807,1.44168,0.0409245,-0.653942,0.0117442,
2,0,0,1,0,54251.4,0.0105863,0.0102677,-0.408291,28,0.00281129,10,-4.19222e-06,-3.38903,3.07539,0.0191845,-0.305839,0.0102677,
2,0,0,1,0,54251.7,0.00908846,0.00874011,-0.407311,28,0.00268482,10,-3.55994e-06,-3.39007,3.43546,0.0171738,-0.2734,0.00874011,
2,0,0,1,0,54252,0.0075906,0.00722192,-0.407113,28,0.00255837,10,-2.94014e-06,-3.39029,3.52302,0.016747,-0.266294,0.00722192,
2,0,0,1,0,54252.3,0.00609207,0.00571475,-0.408769,28,0.00243194,10,-2.33601e-06,-3.38852,140.731,0.000419239,-0.00667897,0.00571475,
2,0,0,1,0,54252.6,0.00459389,0.00423973,-0.40822,28,0.00230578,10,-1.73074e-06,-3.38911,-2.57564,-0.022907,0.365167,0.00423973,
2,0,0,1,0,54252.9,0.00309525,0.00275473,-0.409218,28,0.00217924,10,-1.12728e-06,-3.38805,-0.734903,-0.0802828,1.28218,0.00275473,
2,0,0,1,0,54253.2,0.00159739,0.00116249,-0.41252,28,0.00205087,10,-4.79549e-07,-3.38456, , , ,0.00116249,
2,0,0,0,0,54253.5,0.000199195,-0.000161173,-0.410149,28,0.00193183,10,6.61047e-08,-3.38706, , , ,-0.0001611726,