File: Figure_codes/Fig_3-5/rawdata_trumpetplot_data/after 10th/20221101_1-115_003_TrumpetPlot_ParaChange_from10_every3_05_CV_C01_20.csv
mode,ox/red,error,control changes,counter inc.,time/s,control/V,Ewe/V,<I>/mA,cycle number,(Q-Qo)/C,I Range,P/W,log(|I|),Tafel slope mV/dec,alpha_eff,dI/d(E-IR),E-IR/V,
2,0,0,1,0,40522.6,2.44065e-05,-0.000306236,-0.737334,21,0.0000000E+000,10,2.25798e-07,-3.13234, , , ,-0.000306236,
2,0,0,1,0,40522.7,0.00129787,0.000923882,0.0112395,21,-1.65934e-05,10,1.0384e-08,-4.94925, , , ,0.0009238823,
2,1,0,1,0,40522.8,0.00279606,0.00247975,0.360403,21,1.70577e-07,10,8.93708e-07,-3.44321,0.008788,6.7137,181.177,0.00247975,
2,1,0,1,0,40522.8,0.00429425,0.00397127,0.508377,21,3.43384e-05,10,2.0189e-06,-3.29381,0.0115187,5.12209,84.7068,0.00397127,
2,1,0,1,0,40522.9,0.00579244,0.00548557,0.591979,21,7.69178e-05,10,3.24734e-06,-3.22769,0.0249855,2.36137,51.9077,0.00548557,
2,1,0,1,0,40523,0.00729063,0.00698529,0.655071,21,0.000124911,10,4.57586e-06,-3.18371,0.0402609,1.46544,36.5237,0.00698529,
2,1,0,1,0,40523.1,0.00878882,0.00847393,0.699474,21,0.000176934,10,5.92729e-06,-3.15523,0.0582932,1.01212,27.2707,0.00847393,
2,1,0,1,0,40523.1,0.010287,0.0099722,0.737108,21,0.000231979,10,7.35059e-06,-3.13247,0.0774857,0.761431,21.6988,0.0099722,
2,1,0,1,0,40523.2,0.0117852,0.0114715,0.768547,21,0.000289459,10,8.81638e-06,-3.11433,0.0921213,0.64046,19.0821,0.0114715,
2,1,0,1,0,40523.3,0.0132847,0.0129575,0.793798,21,0.000349,10,1.02856e-05,-3.10029,0.103035,0.572619,17.7475,0.01295749,
2,1,0,1,0,40523.4,0.0147802,0.0144542,0.818176,21,0.000410468,10,1.18261e-05,-3.08715,0.109715,0.537756,17.1019,0.0144542,
2,1,0,1,0,40523.4,0.0162798,0.0159871,0.843529,21,0.000473991,10,1.34856e-05,-3.0739,0.139601,0.422633,13.8517,0.0159871,
2,1,0,1,0,40523.5,0.017778,0.0174612,0.863258,21,0.000539001,10,1.50735e-05,-3.06386,0.150972,0.390801,13.1404,0.0174612,
2,1,0,1,0,40523.6,0.0192761,0.0189741,0.882591,21,0.000605375,10,1.67464e-05,-3.05424,0.154336,0.382283,13.1699,0.0189741,
2,1,0,1,0,40523.7,0.0207743,0.0204345,0.903165,21,0.00067337,10,1.84557e-05,-3.04423,0.146727,0.402107,14.131,0.0204345,
2,1,0,1,0,40523.7,0.0222725,0.0219653,0.922145,21,0.000742896,10,2.02551e-05,-3.0352,0.159708,0.369424,13.2946,0.0219653,
2,1,0,1,0,40523.8,0.0237707,0.02346,0.941506,21,0.000813831,10,2.20877e-05,-3.02618,0.186806,0.315836,11.606,0.02346,
2,1,0,1,0,40523.9,0.0252689,0.0249344,0.956416,21,0.000886063,10,2.38477e-05,-3.01935,0.185304,0.318396,11.9394,0.0249344,
2,1,0,1,0,40524,0.0267671,0.0264592,0.979616,21,0.000959649,10,2.59199e-05,-3.00894,0.168459,0.350234,13.3598,0.0264592,
2,1,0,1,0,40524,0.0282653,0.0279417,0.998674,21,0.0010348,10,2.79047e-05,-3.00058,0.168238,0.350693,13.6302,0.0279417,
2,1,0,1,0,40524.1,0.0297644,0.0294401,1.01783,21,0.00111152,10,2.9965e-05,-2.99232,0.199745,0.295377,11.7141,0.02944007,
2,1,0,1,0,40524.2,0.0312599,0.030948,1.03181,21,0.00118936,10,3.19323e-05,-2.9864,0.195243,0.302187,12.204,0.030948,
2,1,0,1,0,40524.3,0.0327599,0.0324165,1.05253,21,0.00126871,10,3.41195e-05,-2.97776,0.198699,0.296931,12.2051,0.0324165,
2,1,0,1,0,40524.3,0.034258,0.0338973,1.07332,21,0.00134942,10,3.63826e-05,-2.96927,0.195534,0.301737,12.6146,0.0338973,
2,1,0,1,0,40524.4,0.0357562,0.0354358,1.08976,21,0.0014315,10,3.86166e-05,-2.96267,0.227232,0.259646,11.0353,0.0354358,
2,1,0,1,0,40524.5,0.0372544,0.0369046,1.10953,21,0.00151504,10,4.09467e-05,-2.95486,0.208543,0.282916,12.2408,0.0369046,
2,1,0,1,0,40524.6,0.0387526,0.0384068,1.12621,21,0.00159978,10,4.32541e-05,-2.94838,0.204607,0.288358,12.7107,0.0384068,
2,1,0,1,0,40524.6,0.0402508,0.0399222,1.14728,21,0.00168609,10,4.58021e-05,-2.94033,0.194954,0.302636,13.5487,0.0399222,
2,1,0,1,0,40524.7,0.041749,0.0414399,1.16975,21,0.00177392,10,4.84743e-05,-2.93191,0.229013,0.257628,11.7076,0.0414399,
2,1,0,1,0,40524.8,0.0432472,0.0429657,1.18858,21,0.00186316,10,5.10683e-05,-2.92497,0.232227,0.254062,11.7422,0.0429657,
2,1,0,1,0,40524.9,0.0447449,0.0444465,1.20062,21,0.00195356,10,5.33634e-05,-2.92059,0.231795,0.254536,11.9373,0.0444465,
2,1,0,1,0,40524.9,0.0462445,0.0459354,1.22077,21,0.00204549,10,5.60766e-05,-2.91337,0.213343,0.27655,13.1536,0.0459354,
2,1,0,1,0,40525,0.04774,0.047395,1.2386,21,0.00213859,10,5.87034e-05,-2.90707,0.225008,0.262213,12.6618,0.047395,
2,1,0,1,0,40525.1,0.0492399,0.0489352,1.25562,21,0.00223331,10,6.14442e-05,-2.90114,0.257881,0.228788,11.2116,0.0489352,
2,1,0,1,0,40525.2,0.0507381,0.0504119,1.27083,21,0.00232911,10,6.40647e-05,-2.89591,0.248498,0.237426,11.7978,0.0504119,
2,1,0,1,0,40525.2,0.0522363,0.0519252,1.28916,21,0.00242613,10,6.69396e-05,-2.88969,0.235452,0.250582,12.6186,0.0519252,
2,1,0,1,0,40525.3,0.0537345,0.053423,1.3109,21,0.00252455,10,7.00321e-05,-2.88243,0.257718,0.228932,11.6802,0.053423,
2,1,0,1,0,40525.4,0.0552327,0.0549216,1.32538,21,0.00262437,10,7.27919e-05,-2.87766,0.29804,0.19796,10.2127,0.0549216,
2,1,0,1,0,40525.5,0.0567309,0.0563884,1.33721,21,0.0027253,10,7.54034e-05,-2.8738,0.312852,0.188587,9.86876,0.0563884,
2,1,0,1,0,40525.5,0.0582291,0.057872,1.35436,21,0.00282725,10,7.83795e-05,-2.86827,0.288092,0.204796,10.8351,0.057872,
2,1,0,1,0,40525.6,0.0597291,0.0594331,1.37127,21,0.00293064,10,8.14985e-05,-2.86288,0.29902,0.197311,10.5574,0.0594331,
2,1,0,1,0,40525.7,0.0612246,0.0608972,1.38763,21,0.003035,10,8.45027e-05,-2.85773,0.347576,0.169747,9.17082,0.0608972,
2,1,0,1,0,40525.8,0.0627241,0.0623466,1.40248,21,0.00314073,10,8.74402e-05,-2.8531,0.331302,0.178085,9.73392,0.0623466,
2,1,0,1,0,40525.8,0.0642218,0.0639097,1.41606,21,0.00324725,10,9.05003e-05,-2.84892,0.342666,0.17218,9.52181,0.0639097,
2,1,0,1,0,40525.9,0.06572,0.0653551,1.42953,21,0.00335483,10,9.34271e-05,-2.84481,0.339113,0.173983,9.70153,0.0653551,
2,1,0,1,0,40526,0.0672182,0.0669022,1.44357,21,0.00346367,10,9.6578e-05,-2.84056,0.357743,0.164923,9.27515,0.0669022,
2,1,0,1,0,40526.1,0.0687164,0.0684166,1.45715,21,0.00357349,10,9.96934e-05,-2.8365,0.443429,0.133054,7.55562,0.0684166,
2,1,0,1,0,40526.1,0.0702146,0.0698579,1.46797,21,0.0036841,10,0.000102549,-2.83328,0.400508,0.147313,8.44615,0.0698579,
2,1,0,1,0,40526.2,0.0717128,0.0713626,1.47988,21,0.00379562,10,0.000105608,-2.82977,0.357482,0.165043,9.53466,0.0713626,
2,1,0,1,0,40526.3,0.073211,0.0728968,1.49312,21,0.00390816,10,0.000108844,-2.82591,0.441243,0.133713,7.79003,0.0728968,
2,1,0,1,0,40526.4,0.0747092,0.0743599,1.50474,21,0.00402162,10,0.000111893,-2.82254,0.491209,0.120112,7.04888,0.0743599,
2,1,0,1,0,40526.4,0.0762087,0.0758776,1.51279,21,0.00413591,10,0.000114786,-2.82022,0.494599,0.119289,7.0583,0.0758776,
2,1,0,1,0,40526.5,0.0777042,0.0773556,1.52589,21,0.00425062,10,0.000118036,-2.81648,0.505648,0.116682,6.94681,0.0773556,
2,1,0,1,0,40526.6,0.0792037,0.0788648,1.53645,21,0.00436657,10,0.000121172,-2.81348,0.471027,0.125258,7.50296,0.0788648,
2,1,0,1,0,40526.7,0.0807019,0.080362,1.54644,21,0.00448313,10,0.000124275,-2.81067,0.702747,0.0839563,5.05765,0.080362,
2,1,0,1,0,40526.7,0.0822001,0.081877,1.5519,21,0.00460039,10,0.000127065,-2.80914,0.592006,0.0996612,6.05054,0.081877,
2,1,0,1,0,40526.8,0.0836983,0.0833686,1.56439,21,0.00471816,10,0.000130421,-2.80566,0.563315,0.104737,6.40098,0.0833686,
2,1,0,1,0,40526.9,0.0851965,0.0849214,1.57442,21,0.00483679,10,0.000133702,-2.80288,0.462846,0.127472,7.84334,0.0849214,
2,1,0,1,0,40527,0.0866947,0.0863553,1.58749,21,0.00495636,10,0.000137088,-2.79929,0.530147,0.11129,6.88906,0.0863553,
2,1,0,1,0,40527,0.0881929,0.0878934,1.6002,21,0.00507682,10,0.000140647,-2.79582,0.489091,0.120632,7.5356,0.0878934,
2,1,0,1,0,40527.1,0.0896911,0.0893352,1.61188,21,0.00519805,10,0.000143997,-2.79267,0.406137,0.145271,9.14695,0.0893352,
2,1,0,1,0,40527.2,0.0911893,0.0908601,1.62574,21,0.00532039,10,0.000147715,-2.78895,0.334466,0.1764,11.1956,0.0908601,
2,1,0,1,0,40527.3,0.0926884,0.0923406,1.64461,21,0.00544419,10,0.000151865,-2.78394,0.337835,0.174641,11.1996,0.0923406,
2,1,0,1,0,40527.3,0.0941839,0.0938282,1.66127,21,0.00556885,10,0.000155874,-2.77956,0.328382,0.179669,11.6504,0.0938282,
2,1,0,1,0,40527.4,0.0956838,0.0953751,1.6764,21,0.00569502,10,0.000159886,-2.77562,0.30371,0.194264,12.7338,0.0953751,
2,1,0,1,0,40527.5,0.097182,0.09683,1.69764,21,0.00582255,10,0.000164383,-2.77015,0.238029,0.247869,16.4443,0.09683,
2,1,0,1,0,40527.6,0.0986802,0.0983486,1.72411,21,0.00595183,10,0.000169564,-2.76343,0.23239,0.253884,17.0975,0.09834861,
2,1,0,1,0,40527.6,0.100178,0.099833,1.74939,21,0.00608305,10,0.000174646,-2.75711,0.232776,0.253462,17.2949,0.099833,
2,1,0,1,0,40527.7,0.101677,0.101338,1.77439,21,0.00621617,10,0.000179813,-2.75095,0.22198,0.26579,18.4287,0.101338,
2,1,0,1,0,40527.8,0.103175,0.102853,1.80469,21,0.0063513,10,0.000185618,-2.7436,0.210299,0.280553,19.7713,0.102853,
2,1,0,1,0,40527.9,0.104673,0.10434,1.83799,21,0.00648875,10,0.000191775,-2.73566,0.199628,0.29555,21.176,0.10434,
2,1,0,1,0,40527.9,0.106171,0.10582,1.86875,21,0.00662869,10,0.000197751,-2.72845,0.208249,0.283314,20.6243,0.10582,
2,1,0,1,0,40528,0.107669,0.107324,1.89733,21,0.00677092,10,0.000203629,-2.72186,0.216072,0.273057,20.2197,0.1073239,
2,1,0,1,0,40528.1,0.109168,0.108868,1.92868,21,0.00691556,10,0.000209971,-2.71474,0.213474,0.276381,20.8201,0.108868,
2,1,0,1,0,40528.2,0.110664,0.11028,1.96192,21,0.00706219,10,0.00021636,-2.70732,0.212075,0.278203,21.2863,0.11028,
2,1,0,1,0,40528.2,0.112164,0.111839,1.9924,21,0.0072116,10,0.000222827,-2.70062,0.237788,0.248121,19.2526,0.111839,
2,1,0,1,0,40528.3,0.113662,0.113364,2.01977,21,0.00736295,10,0.00022897,-2.6947,0.274266,0.21512,16.9308,0.113364,
2,1,0,1,0,40528.4,0.11516,0.114768,2.04267,21,0.00751608,10,0.000234433,-2.6898,0.301513,0.19568,15.5833,0.114768,
2,1,0,1,0,40528.5,0.116658,0.116322,2.06691,21,0.0076711,10,0.000240427,-2.68468,0.299457,0.197024,15.8787,0.116322,
2,1,0,1,0,40528.5,0.118157,0.117825,2.09084,21,0.00782793,10,0.000246353,-2.67968,0.351455,0.167874,13.6739,0.117825,
2,1,0,1,0,40528.6,0.119655,0.1193,2.10791,21,0.00798639,10,0.000251474,-2.67615,0.42739,0.138047,11.3538,0.1193003,
2,1,0,1,0,40528.7,0.121153,0.120801,2.12294,21,0.00814602,10,0.000256454,-2.67306,0.451026,0.130813,10.8412,0.120801,
2,1,0,1,0,40528.8,0.122653,0.122297,2.14121,21,0.00830705,10,0.000261863,-2.66934,0.454895,0.1297,10.8226,0.1222967,
2,1,0,1,0,40528.8,0.124149,0.123838,2.15728,21,0.00846883,10,0.000267153,-2.66609,0.481203,0.122609,10.3052,0.123838,
2,1,0,1,0,40528.9,0.125648,0.12531,2.16772,21,0.00863206,10,0.000271636,-2.664,0.660287,0.0893551,7.54882,0.12531,
2,1,0,1,0,40529,0.127146,0.126815,2.17404,21,0.00879589,10,0.000275702,-2.66273,0.703347,0.0838847,7.12258,0.126815,
2,1,0,1,0,40529.1,0.128644,0.128358,2.18908,21,0.00896042,10,0.000280986,-2.65974,0.697158,0.0846293,7.23035,0.128358,
2,1,0,1,0,40529.1,0.130142,0.129809,2.19932,21,0.00912586,10,0.000285492,-2.65771,0.795259,0.0741896,6.3587,0.129809,
2,1,0,1,0,40529.2,0.13164,0.131312,2.20872,21,0.00929216,10,0.000290031,-2.65586,1.25971,0.0468361,4.03039,0.131312,
2,1,0,1,0,40529.3,0.133139,0.132792,2.21421,21,0.00945904,10,0.00029403,-2.65478,2.06898,0.0285165,2.46077,0.132792,
2,1,0,1,0,40529.4,0.134637,0.134296,2.21588,21,0.00962601,10,0.000297583,-2.65445,49.2253,0.00119857,0.103619,0.134296,
2,1,0,1,0,40529.4,0.136135,0.135781,2.21676,21,0.0097932,10,0.000300993,-2.65428,-2.63544,-0.0223871,-1.93193,0.135781,
2,1,0,1,0,40529.5,0.137633,0.137281,2.21078,21,0.00996021,10,0.000303499,-2.65545,-0.730716,-0.0807428,-6.94108,0.137281,
2,1,0,1,0,40529.6,0.139133,0.138791,2.19677,21,0.0101267,10,0.000304893,-2.65821,-0.402637,-0.146534,-12.5085,0.138791,
2,1,0,1,0,40529.7,0.140628,0.140286,2.17101,21,0.0102912,10,0.000304561,-2.66334,-0.278981,-0.211484,-17.8801,0.140286,
2,1,0,1,0,40529.7,0.142128,0.141835,2.13867,21,0.010454,10,0.000303338,-2.66986,-0.207742,-0.284006,-23.6234,0.141835,
2,1,0,1,0,40529.8,0.143626,0.143339,2.09883,21,0.0106141,10,0.000300845,-2.67802,-0.157568,-0.374442,-30.5377,0.143339,
2,1,0,1,0,40529.9,0.145124,0.14477,2.04619,21,0.0107706,10,0.000296226,-2.68905,-0.121135,-0.487059,-38.78,0.14477,
2,1,0,1,0,40530,0.146622,0.146286,1.98205,21,0.0109227,10,0.000289946,-2.70289,-0.104829,-0.562823,-43.4619,0.146286,
2,1,0,1,0,40530,0.14812,0.14777,1.91562,21,0.0110699,10,0.000283071,-2.71769,-0.092769,-0.635988,-47.4371,0.14777,
2,1,0,1,0,40530.1,0.149619,0.14929,1.84144,21,0.0112118,10,0.000274908,-2.73484,-0.0833499,-0.70786,-50.7189,0.14929,
2,1,0,1,0,40530.2,0.151117,0.15081,1.76729,21,0.011348,10,0.000266524,-2.75269,-0.0784047,-0.752505,-51.7175,0.1508095,
2,1,0,1,0,40530.3,0.152615,0.152273,1.68591,21,0.0114783,10,0.000256718,-2.77317,-0.0746014,-0.79087,-52.0835,0.152273,
2,1,0,1,0,40530.3,0.154113,0.153775,1.61264,21,0.0116028,10,0.000247983,-2.79246,-0.0783601,-0.752935,-47.4854,0.153775,
2,1,0,1,0,40530.4,0.155613,0.15534,1.54401,21,0.011722,10,0.000239847,-2.81135,-0.0800658,-0.736894,-44.394,0.15534,
2,1,0,1,0,40530.5,0.157108,0.156799,1.47842,21,0.0118361,10,0.000231815,-2.8302,-0.0796123,-0.741091,-42.7715,0.156799,
2,1,0,1,0,40530.6,0.158608,0.15829,1.41749,21,0.0119457,10,0.000224376,-2.84848,-0.0864961,-0.682112,-37.8311,0.15829,
2,1,0,1,0,40530.6,0.160106,0.159754,1.36328,21,0.0120507,10,0.000217789,-2.86541,-0.0945377,-0.62409,-33.369,0.159754,
2,1,0,1,0,40530.7,0.161604,0.161279,1.31655,21,0.0121521,10,0.000212333,-2.88056,-0.105672,-0.558334,-28.7696,0.1612794,
2,1,0,1,0,40530.8,0.163102,0.162785,1.27857,21,0.0122504,10,0.000208132,-2.89328,-0.117353,-0.502757,-25.1202,0.162785,
2,1,0,1,0,40530.9,0.164601,0.164294,1.24177,21,0.0123457,10,0.000204014,-2.90596,-0.125228,-0.471141,-22.8849,0.164294,
2,1,0,1,0,40530.9,0.166099,0.165767,1.20736,21,0.0124385,10,0.000200141,-2.91816,-0.143591,-0.410888,-19.454,0.165767,
2,1,0,1,0,40531,0.167597,0.167252,1.1818,21,0.012529,10,0.000197658,-2.92746,-0.168452,-0.350248,-16.1714,0.167252,
2,1,0,1,0,40531.1,0.169095,0.168775,1.15991,21,0.0126178,10,0.000195764,-2.93557,-0.178217,-0.331057,-15.002,0.168775,
2,1,0,1,0,40531.2,0.170593,0.170325,1.13845,21,0.0127049,10,0.000193906,-2.94369,-0.185249,-0.31849,-14.1642,0.1703255,
2,1,0,1,0,40531.2,0.172092,0.171749,1.11552,21,0.0127905,10,0.00019159,-2.95252,-0.217519,-0.271241,-11.8543,0.171749,
2,1,0,1,0,40531.3,0.173588,0.173276,1.10073,21,0.0128745,10,0.000190729,-2.95832,-0.266169,-0.221664,-9.5461,0.1732756,
2,1,0,1,0,40531.4,0.175088,0.174747,1.08772,21,0.0129577,10,0.000190076,-2.96348,-0.277455,-0.212647,-9.03399,0.174747,
2,1,0,1,0,40531.5,0.176586,0.176229,1.07629,21,0.0130397,10,0.000189674,-2.96807,-0.270338,-0.218246,-9.15545,0.176229,
2,1,0,1,0,40531.5,0.178084,0.177729,1.0602,21,0.0131208,10,0.000188429,-2.97461,-0.346436,-0.170306,-7.0773,0.177729,
2,1,0,1,0,40531.6,0.179582,0.179242,1.05208,21,0.0132011,10,0.000188576,-2.97795,-0.397582,-0.148397,-6.11937,0.179242,
2,1,0,1,0,40531.7,0.181081,0.180741,1.04408,21,0.0132807,10,0.000188708,-2.98127,-0.421307,-0.140041,-5.71479,0.180741,
2,1,0,1,0,40531.8,0.182579,0.182267,1.03778,21,0.0133598,10,0.000189154,-2.98389,-0.380866,-0.15491,-6.26574,0.1822675,
2,1,0,1,0,40531.8,0.184077,0.183766,1.02962,21,0.0134382,10,0.00018921,-2.98732,-0.460988,-0.127986,-5.14048,0.183766,
2,1,0,1,0,40531.9,0.185577,0.185234,1.02182,21,0.0135161,10,0.000189276,-2.99063,-0.544882,-0.10828,-4.31985,0.185234,
2,1,0,1,0,40532,0.187073,0.186752,1.01574,21,0.0135934,10,0.000189692,-2.99322,-0.75828,-0.0778077,-3.08209,0.1867516,
2,1,0,1,0,40532.1,0.188572,0.188273,1.01115,21,0.0136705,10,0.000190371,-2.99519,-0.652575,-0.090411,-3.5663,0.188273,
2,1,0,1,0,40532.1,0.19007,0.189733,1.00422,21,0.0137471,10,0.000190534,-2.99817,-0.578998,-0.1019,-3.99745,0.189733,
2,1,0,1,0,40532.2,0.191568,0.191246,0.997352,21,0.0138232,10,0.000190739,-3.00115,-0.708115,-0.0833198,-3.25169,0.191246,
2,1,0,1,0,40532.3,0.193066,0.192709,0.993414,21,0.0138989,10,0.00019144,-3.00287,-1.66836,-0.035364,-1.37262,0.192709,
2,1,0,1,0,40532.4,0.194564,0.194269,0.992242,21,0.0139745,10,0.000192762,-3.00338,-0.603425,-0.0977753,-3.78539,0.1942692,
2,1,0,1,0,40532.4,0.196063,0.19578,0.985677,21,0.0140497,10,0.000192976,-3.00627,-0.575649,-0.102493,-3.95146,0.19578,
2,1,0,1,0,40532.5,0.197561,0.197252,0.979276,21,0.0141246,10,0.000193164,-3.00909,-1.02973,-0.0572965,-2.19904,0.1972519,
2,1,0,1,0,40532.6,0.199059,0.198696,0.980881,21,0.0141991,10,0.000194897,-3.00838,-0.855305,-0.0689813,-2.63926,0.198696,
2,1,0,1,0,40532.7,0.200557,0.200256,0.97874,21,0.0142735,10,0.000195999,-3.00933,-1.38066,-0.0427333,-1.62947,0.200256,
2,1,0,1,0,40532.7,0.202057,0.201766,0.972913,21,0.0143478,10,0.0001963,-3.01193,-1.17835,-0.0500699,-1.90089,0.201766,
2,1,0,1,0,40532.8,0.203552,0.20319,0.970049,21,0.0144216,10,0.000197104,-3.01321,-1.28873,-0.0457816,-1.73577,0.20319,
2,1,0,1,0,40532.9,0.205052,0.204725,0.967865,21,0.0144953,10,0.000198146,-3.01419,9.50781,0.00620542,0.235418,0.204725,
2,1,0,1,0,40533,0.20655,0.206231,0.964792,21,0.0145688,10,0.00019897,-3.01557,-1.68815,-0.0349495,-1.31918,0.206231,
2,1,0,1,0,40533,0.208048,0.207706,0.964816,21,0.0146424,10,0.000200398,-3.01556,-0.940677,-0.0627208,-2.35354,0.207706,
2,1,0,1,0,40533.1,0.209546,0.209251,0.962024,21,0.0147157,10,0.000201305,-3.01681,-0.835323,-0.0706313,-2.65066,0.209251,
2,1,0,1,0,40533.2,0.211044,0.210746,0.957487,21,0.0147886,10,0.000201787,-3.01887,-1.02859,-0.0573599,-2.14911,0.210746,
2,1,0,1,0,40533.3,0.212543,0.212233,0.956909,21,0.0148614,10,0.000203088,-3.01913,-1.60876,-0.0366742,-1.36777,0.212233,
2,1,0,1,0,40533.3,0.214041,0.213734,0.956752,21,0.0149341,10,0.00020449,-3.0192,-1.32197,-0.0446303,-1.66329,0.213734,
2,1,0,1,0,40533.4,0.215539,0.215224,0.954037,21,0.0150066,10,0.000205332,-3.02043,-1.17221,-0.0503325,-1.87362,0.215224,
2,1,0,1,0,40533.5,0.217037,0.2167,0.94932,21,0.0150789,10,0.000205718,-3.02259,-1.60557,-0.0367472,-1.36572,0.2167,
2,1,0,1,0,40533.6,0.218536,0.218227,0.947933,21,0.0151512,10,0.000206865,-3.02322,-1.95274,-0.0302139,-1.12002,0.218227,
2,1,0,1,0,40533.6,0.220032,0.219669,0.950242,21,0.0152232,10,0.000208739,-3.02217,-2.37853,-0.0248053,-0.916318,0.219669,
2,1,0,1,0,40533.7,0.221532,0.221207,0.945407,21,0.0152954,10,0.00020913,-3.02438,-1.11124,-0.0530938,-1.95819,0.221207,
2,1,0,1,0,40533.8,0.22303,0.222682,0.940575,21,0.0153672,10,0.000209449,-3.02661,-3.51821,-0.0167699,-0.617919,0.222682,
2,1,0,1,0,40533.9,0.224528,0.224188,0.941411,21,0.0154388,10,0.000211053,-3.02622,-3.60465,-0.0163678,-0.602021,0.224188,
2,1,0,1,0,40533.9,0.226026,0.225737,0.941674,21,0.0155103,10,0.000212571,-3.0261,-1.76087,-0.0335061,-1.23026,0.225737,
2,1,0,1,0,40534,0.227525,0.227195,0.94046,21,0.0155818,10,0.000213667,-3.02666,-1.13632,-0.0519219,-1.89943,0.227195,
2,1,0,1,0,40534.1,0.229023,0.228708,0.937095,21,0.0156532,10,0.000214321,-3.02822,-1.31203,-0.0449684,-1.64719,0.228708,
2,1,0,1,0,40534.1,0.230521,0.230188,0.935065,21,0.0157243,10,0.000215241,-3.02916,-1.50598,-0.0391771,-1.43353,0.230188,
2,1,0,1,0,40534.2,0.232019,0.23173,0.933895,21,0.0157954,10,0.000216411,-3.0297,-3.82051,-0.015443,-0.56264,0.23173,
2,1,0,1,0,40534.3,0.233517,0.233193,0.933362,21,0.0158664,10,0.000217653,-3.02995,-2.49854,-0.0236138,-0.859805,0.233193,
2,1,0,1,0,40534.4,0.235016,0.234756,0.93324,21,0.0159374,10,0.000219084,-3.03001,-2.30299,-0.0256189,-0.932299,0.234756,
2,1,0,1,0,40534.4,0.236512,0.236195,0.929967,21,0.016008,10,0.000219653,-3.03153,-3.58837,-0.016442,-0.596783,0.236195,
2,1,0,1,0,40534.5,0.238012,0.237711,0.92806,21,0.0160788,10,0.00022061,-3.03242,10.2344,0.00576489,0.208839,0.237711,
2,1,0,1,0,40534.6,0.23951,0.239218,0.929053,21,0.0161495,10,0.000222246,-3.03196,-2.05501,-0.0287103,-1.04026,0.2392184,
2,1,0,1,0,40534.7,0.241008,0.240709,0.92665,21,0.01622,10,0.000223053,-3.03308,-1.17516,-0.0502061,-1.81429,0.240709,
2,1,0,1,0,40534.7,0.242506,0.242155,0.920741,21,0.0162903,10,0.000222962,-3.03586,-2.01538,-0.0292749,-1.05783,0.242155,
2,1,0,1,0,40534.8,0.244005,0.243668,0.92278,21,0.0163606,10,0.000224852,-3.0349,-3.71816,-0.015868,-0.57208,0.243668,
2,1,0,1,0,40534.9,0.245503,0.245211,0.924372,21,0.0164308,10,0.000226666,-3.03415,-2.24896,-0.0262343,-0.945039,0.245211,
2,1,0,1,0,40535,0.247001,0.246652,0.921946,21,0.016501,10,0.0002274,-3.03529,-1.68711,-0.034971,-1.25791,0.246652,
2,1,0,1,0,40535,0.248501,0.248183,0.919301,21,0.0165711,10,0.000228155,-3.03654,-7.97802,-0.00739532,-0.265671,0.248183,
2,1,0,1,0,40535.1,0.249997,0.249677,0.917781,21,0.0166409,10,0.000229148,-3.03726,-5.65469,-0.0104338,-0.374329,0.249677,
2,1,0,1,0,40535.2,0.251496,0.251165,0.918562,21,0.0167108,10,0.000230711,-3.03689,-3.68817,-0.0159971,-0.573384,0.251165,
2,1,0,1,0,40535.3,0.252994,0.252692,0.916569,21,0.0167806,10,0.00023161,-3.03783,-1.54193,-0.0382637,-1.36868,0.252692,
2,1,0,1,0,40535.3,0.254492,0.254143,0.913782,21,0.0168503,10,0.000232231,-3.03916,-1.82128,-0.0323947,-1.15793,0.254143,
2,1,0,1,0,40535.4,0.25599,0.255693,0.913833,21,0.0169198,10,0.00023366,-3.03913,-2.3862,-0.0247255,-0.883449,0.2556926,
2,1,0,1,0,40535.5,0.257488,0.257142,0.913624,21,0.0169893,10,0.000234931,-3.03923,-8.17397,-0.00721803,-0.257072,0.2571415,
2,1,0,1,0,40535.6,0.258987,0.258663,0.913625,21,0.0170588,10,0.000236321,-3.03923,-2.65052,-0.0222598,-0.792493,0.258663,
2,1,0,1,0,40535.6,0.260485,0.260161,0.911476,21,0.0171281,10,0.000237131,-3.04025,-1.2621,-0.0467473,-1.66118,0.260161,
2,1,0,1,0,40535.7,0.261983,0.261654,0.909573,21,0.0171973,10,0.000237994,-3.04116,-1.4233,-0.0414529,-1.47129,0.261654,
2,1,0,1,0,40535.8,0.263481,0.263181,0.909497,21,0.0172663,10,0.000239362,-3.0412,-3.26869,-0.0180501,-0.638916,0.263181,
2,1,0,1,0,40535.9,0.264981,0.264669,0.908301,21,0.0173354,10,0.000240399,-3.04177,-9.33253,-0.00632197,-0.223882,0.264669,
2,1,0,1,0,40535.9,0.266476,0.266177,0.903371,21,0.0174042,10,0.000240456,-3.04413,-2.20718,-0.0267309,-0.94574,0.2661767,
2,1,0,1,0,40536,0.267976,0.267664,0.902011,21,0.0174731,10,0.000241436,-3.04479,-3.66858,-0.0160825,-0.567494,0.267664,
2,1,0,1,0,40536.1,0.269474,0.269203,0.901309,21,0.0175418,10,0.000242635,-3.04513,-12.4336,-0.00474522,-0.167205,0.269203,
2,1,0,1,0,40536.2,0.270972,0.270634,0.903305,21,0.0176104,10,0.000244465,-3.04417,-1.65012,-0.035755,-1.25722,0.270634,
2,1,0,1,0,40536.2,0.27247,0.272097,0.900634,21,0.017679,10,0.00024506,-3.04545,-1.34917,-0.0437305,-1.53377,0.272097,
2,1,0,1,0,40536.3,0.273968,0.273595,0.89651,21,0.0177474,10,0.000245281,-3.04744,-1.43436,-0.0411333,-1.44217,0.273595,
2,1,0,1,0,40536.4,0.275467,0.275131,0.896019,21,0.0178156,10,0.000246523,-3.04768,-1.38457,-0.0426125,-1.49086,0.275131,
2,1,0,1,0,40536.5,0.276965,0.276605,0.895712,21,0.0178838,10,0.000247759,-3.04783,-2.25004,-0.0262218,-0.916287,0.2766051,
2,1,0,1,0,40536.5,0.278463,0.278159,0.894832,21,0.0179518,10,0.000248906,-3.04826,-1.65245,-0.0357047,-1.24308,0.278159,
2,1,0,1,0,40536.6,0.279961,0.279623,0.891788,21,0.0180198,10,0.000249364,-3.04974,-2.14049,-0.0275638,-0.959091,0.279623,
2,1,0,1,0,40536.7,0.28146,0.281124,0.890816,21,0.0180876,10,0.00025043,-3.05021,-1.79542,-0.0328614,-1.14293,0.281124,
2,1,0,1,0,40536.8,0.282956,0.282639,0.890699,21,0.0181552,10,0.000251746,-3.05027,-3.00706,-0.0196205,-0.681151,0.282639,
2,1,0,1,0,40536.8,0.284456,0.284148,0.888611,21,0.0182229,10,0.000252497,-3.05129,-1.69727,-0.0347616,-1.20396,0.284148,
2,1,0,1,0,40536.9,0.285954,0.285605,0.886332,21,0.0182904,10,0.000253141,-3.0524,-1.9596,-0.0301081,-1.04026,0.285605,
2,1,0,1,0,40537,0.287452,0.287096,0.883534,21,0.0183577,10,0.000253659,-3.05378,-1.46647,-0.0402327,-1.38798,0.2870959,
2,1,0,1,0,40537.1,0.28895,0.288616,0.881057,21,0.0184249,10,0.000254287,-3.055,-3.51908,-0.0167658,-0.576956,0.288616,
2,1,0,1,0,40537.1,0.290449,0.290117,0.879984,21,0.018492,10,0.000255298,-3.05553,-3.42016,-0.0172507,-0.592568,0.290117,
2,1,0,1,0,40537.2,0.291947,0.29164,0.878627,21,0.0185591,10,0.000256242,-3.0562,-1.32347,-0.0445798,-1.53026,0.29164,
2,1,0,1,0,40537.3,0.293445,0.293133,0.876452,21,0.0186259,10,0.000256917,-3.05727,-1.50136,-0.0392976,-1.34677,0.293133,
2,1,0,1,0,40537.4,0.294943,0.294623,0.878468,21,0.0186926,10,0.000258817,-3.05627,-2.41116,-0.0244695,-0.837485,0.294623,
2,1,0,1,0,40537.4,0.296441,0.296117,0.878951,21,0.0187592,10,0.000260272,-3.05604,-2.20587,-0.0267468,-0.911592,0.296117,
2,1,0,1,0,40537.5,0.29794,0.297651,0.874548,21,0.0188259,10,0.00026031,-3.05822,-1.65662,-0.0356147,-1.21337,0.297651,
2,1,0,1,0,40537.6,0.299436,0.299146,0.871068,21,0.0188922,10,0.000260577,-3.05995,-0.00405229,-14.5597,-311.02,0.2991465,
2,1,0,1,0,40537.6,0.299739,0.29943,0.586913,21,0.0189262,10,0.000175739,-3.23143,0.00061581,95.8087,724.465,0.29943,
2,1,0,1,0,40537.7,0.298239,0.297919,0.0739824,21,0.018945,10,2.20407e-05,-4.13087,0.00383083,15.4013,258.691,0.297919,
2,0,0,1,0,40537.8,0.296741,0.296409,-0.0646069,21,0.0189434,10,-1.91501e-05,-4.18972,0.0837637,0.704363,78.5403,0.296409,
2,0,0,1,0,40537.9,0.295243,0.294883,-0.131212,21,0.0189347,10,-3.8692e-05,-3.88203,-0.00532181,-11.0865,37.4166,0.294883,
2,0,0,1,0,40537.9,0.293745,0.293399,-0.173833,21,0.0189221,10,-5.10025e-05,-3.75987,-0.0145062,-4.06723,25.0784,0.293399,
2,0,0,1,0,40538,0.292246,0.291927,-0.201903,21,0.0189069,10,-5.89409e-05,-3.69486,-0.0236442,-2.49532,19.0618,0.291927,
2,0,0,1,0,40538.1,0.290748,0.290423,-0.230806,21,0.0188896,10,-6.70314e-05,-3.63675,-0.0314717,-1.8747,16.3003,0.290423,
2,0,0,1,0,40538.2,0.28925,0.288949,-0.251581,21,0.0188704,10,-7.26942e-05,-3.59932,-0.0400829,-1.47195,14.1893,0.288949,
2,0,0,1,0,40538.2,0.287752,0.287394,-0.271122,21,0.0188498,10,-7.79187e-05,-3.56684,-0.0529521,-1.11422,11.637,0.287394,
2,0,0,1,0,40538.3,0.286254,0.285931,-0.285385,21,0.018828,10,-8.16004e-05,-3.54457,-0.0600266,-0.982898,10.8667,0.285931,
2,0,0,1,0,40538.4,0.284754,0.284474,-0.302228,21,0.0188048,10,-8.5976e-05,-3.51967,-0.0662232,-0.890927,10.394,0.284474,
2,0,0,1,0,40538.5,0.283259,0.282896,-0.316902,21,0.0187807,10,-8.96503e-05,-3.49907,-0.0794935,-0.742199,9.12625,0.282896,
2,0,0,1,0,40538.5,0.281759,0.281431,-0.329041,21,0.0187554,10,-9.26022e-05,-3.48275,-0.0944862,-0.62443,7.96482,0.281431,
2,0,0,1,0,40538.6,0.280261,0.279953,-0.33443,21,0.0187293,10,-9.36247e-05,-3.47569,-0.104487,-0.564662,7.45797,0.279953,
2,0,0,1,0,40538.7,0.278763,0.278412,-0.351772,21,0.0187023,10,-9.79375e-05,-3.45374,-0.104469,-0.564762,7.75344,0.2784119,
2,0,0,1,0,40538.8,0.277264,0.27698,-0.363333,21,0.0186744,10,-0.000100636,-3.43969,-0.119661,-0.49306,6.98528,0.27698,
2,0,0,1,0,40538.8,0.275766,0.275432,-0.373042,21,0.0186457,10,-0.000102748,-3.42824,-0.158096,-0.373191,5.43498,0.275432,
2,0,0,1,0,40538.9,0.274268,0.273949,-0.383302,21,0.0186162,10,-0.000105005,-3.41646,-0.141016,-0.418391,6.26245,0.273949,
2,0,0,1,0,40539,0.27277,0.272459,-0.391962,21,0.0185862,10,-0.000106793,-3.40676,-0.132806,-0.444257,6.82851,0.272459,
2,0,0,1,0,40539.1,0.271272,0.270954,-0.403762,21,0.0185554,10,-0.000109401,-3.39388,-0.145781,-0.404715,6.349,0.270954,
2,0,0,1,0,40539.1,0.269774,0.269471,-0.413241,21,0.0185238,10,-0.000111356,-3.3838,-0.156645,-0.376649,6.01245,0.269471,
2,0,0,1,0,40539.2,0.268274,0.267964,-0.420613,21,0.0184915,10,-0.000112709,-3.37612,-0.190903,-0.309057,5.04775,0.2679643,
2,0,0,1,0,40539.3,0.266779,0.266487,-0.425009,21,0.0184589,10,-0.000113259,-3.3716,-0.191898,-0.307456,5.117,0.2664865,
2,0,0,1,0,40539.4,0.265279,0.26499,-0.434563,21,0.0184255,10,-0.000115155,-3.36195,-0.180951,-0.326055,5.52736,0.26499,
2,0,0,1,0,40539.4,0.263781,0.263478,-0.441792,21,0.0183916,10,-0.000116403,-3.35478,-0.222137,-0.265601,4.58833,0.263478,
2,0,0,1,0,40539.5,0.262283,0.261972,-0.448491,21,0.018357,10,-0.000117492,-3.34825,-0.223,-0.264574,4.63674,0.261972,
2,0,0,1,0,40539.6,0.260784,0.260514,-0.455344,21,0.018322,10,-0.000118624,-3.34166,-0.213591,-0.276228,4.93941,0.2605145,
2,0,0,1,0,40539.7,0.259286,0.258951,-0.464256,21,0.0182864,10,-0.00012022,-3.33324,-0.213849,-0.275895,5.01378,0.258951,
2,0,0,1,0,40539.7,0.257788,0.257507,-0.474411,21,0.0182502,10,-0.000122164,-3.32384,-0.250923,-0.235132,4.31904,0.257507,
2,0,0,1,0,40539.8,0.25629,0.255968,-0.479322,21,0.0182134,10,-0.000122691,-3.31937,-0.278063,-0.212182,3.95201,0.255968,
2,0,0,1,0,40539.9,0.25479,0.254454,-0.484339,21,0.0181762,10,-0.000123242,-3.31485,-0.264153,-0.223356,4.23397,0.254454,
2,0,0,1,0,40540,0.253294,0.252968,-0.491423,21,0.0181386,10,-0.000124314,-3.30854,-0.249434,-0.236536,4.5462,0.252968,
2,0,0,1,0,40540,0.251795,0.251475,-0.498295,21,0.0181004,10,-0.000125309,-3.30251,-0.233219,-0.252981,4.90672,0.251475,
2,0,0,1,0,40540.1,0.250297,0.249942,-0.502929,21,0.0180618,10,-0.000125703,-3.29849,-0.318066,-0.185496,3.64469,0.249942,
2,0,0,1,0,40540.2,0.248799,0.248447,-0.509607,21,0.0180226,10,-0.00012661,-3.29276,-0.315883,-0.186778,3.72139,0.248447,
2,0,0,1,0,40540.3,0.247301,0.246977,-0.515767,21,0.0179832,10,-0.000127383,-3.28755,-0.306302,-0.19262,3.88549,0.246977,
2,0,0,1,0,40540.3,0.245802,0.245463,-0.524024,21,0.0179432,10,-0.000128628,-3.28065,-0.276908,-0.213067,4.33697,0.245463,
2,0,0,1,0,40540.4,0.244304,0.243988,-0.529799,21,0.0179027,10,-0.000129265,-3.27589,-0.30098,-0.196027,4.04506,0.243988,
2,0,0,1,0,40540.5,0.242806,0.242504,-0.535095,21,0.0178617,10,-0.000129762,-3.27157,-0.368252,-0.160216,3.34385,0.242504,
2,0,0,1,0,40540.6,0.241308,0.24098,-0.538745,21,0.0178205,10,-0.000129827,-3.26862,-0.378853,-0.155733,3.28657,0.24098,
2,0,0,1,0,40540.6,0.23981,0.2395,-0.545335,21,0.0177788,10,-0.000130608,-3.26334,-0.328493,-0.179608,3.80894,0.2395,
2,0,0,1,0,40540.7,0.23831,0.237976,-0.549484,21,0.0177366,10,-0.000130764,-3.26005,-0.338938,-0.174073,3.73588,0.237976,
2,0,0,1,0,40540.8,0.236815,0.236448,-0.557091,21,0.017694,10,-0.000131723,-3.25407,-0.351362,-0.167918,3.64529,0.236448,
2,0,0,1,0,40540.9,0.235315,0.234991,-0.559693,21,0.017651,10,-0.000131523,-3.25205,-0.371163,-0.15896,3.49302,0.234991,
2,0,0,1,0,40540.9,0.233817,0.23352,-0.567996,21,0.0176077,10,-0.000132639,-3.24565,-0.407822,-0.144671,3.20208,0.23352,
2,0,0,1,0,40541,0.232319,0.231979,-0.574501,21,0.0175639,10,-0.000133272,-3.24071,-0.337389,-0.174872,3.89848,0.231979,
2,0,0,1,0,40541.1,0.230821,0.230513,-0.576683,21,0.0175196,10,-0.000132933,-3.23906,-0.548073,-0.10765,2.41955,0.2305126,
2,0,0,1,0,40541.2,0.229322,0.228998,-0.581025,21,0.017475,10,-0.000133054,-3.23581,-0.424169,-0.139095,3.16533,0.228998,
2,0,0,1,0,40541.2,0.227824,0.227506,-0.585462,21,0.0174301,10,-0.000133196,-3.2325,-0.422117,-0.139772,3.21424,0.227506,
2,0,0,1,0,40541.3,0.226326,0.225967,-0.593199,21,0.0173847,10,-0.000134044,-3.2268,-0.371686,-0.158736,3.67973,0.225967,
2,0,0,1,0,40541.4,0.224828,0.224494,-0.600269,21,0.0173389,10,-0.000134757,-3.22165,-0.474673,-0.124296,2.90534,0.2244937,
2,0,0,1,0,40541.5,0.22333,0.222978,-0.605058,21,0.0172927,10,-0.000134915,-3.2182,-0.484561,-0.12176,2.87109,0.222978,
2,0,0,1,0,40541.5,0.22183,0.221535,-0.608861,21,0.0172462,10,-0.000134884,-3.21548,-0.364845,-0.161713,3.84529,0.221535,
2,0,0,1,0,40541.6,0.220335,0.220014,-0.614048,21,0.0171993,10,-0.000135099,-3.2118,-0.321297,-0.183631,4.3914,0.220014,
2,0,0,1,0,40541.7,0.218835,0.218498,-0.62178,21,0.0171518,10,-0.000135858,-3.20636,-0.384377,-0.153495,3.71304,0.218498,
2,0,0,1,0,40541.8,0.217337,0.217002,-0.623435,21,0.0171041,10,-0.000135287,-3.20521,-0.687889,-0.0857696,2.09677,0.217002,
2,0,0,1,0,40541.8,0.215839,0.21552,-0.625277,21,0.0170561,10,-0.00013476,-3.20393,-0.478347,-0.123342,3.03129,0.21552,
2,0,0,1,0,40541.9,0.21434,0.214043,-0.633578,21,0.0170077,10,-0.000135613,-3.1982,-0.402967,-0.146414,3.61893,0.214043,
2,0,0,1,0,40542,0.212842,0.212519,-0.640045,21,0.0169589,10,-0.000136022,-3.19379,-0.421763,-0.139889,3.4935,0.212519,
2,0,0,1,0,40542.1,0.211344,0.211025,-0.643887,21,0.0169097,10,-0.000135876,-3.19119,-0.54854,-0.107558,2.70966,0.211025,
2,0,0,1,0,40542.1,0.209846,0.209527,-0.644606,21,0.0168601,10,-0.000135062,-3.19071,-0.49713,-0.118681,3.00568,0.209527,
2,0,0,1,0,40542.2,0.208348,0.208023,-0.654013,21,0.0168102,10,-0.00013605,-3.18441,-0.353215,-0.167037,4.27907,0.208023,
2,0,0,1,0,40542.3,0.20685,0.20655,-0.664699,21,0.0167599,10,-0.000137294,-3.17737,-0.430832,-0.136944,3.52995,0.20655,
2,0,0,1,0,40542.4,0.20535,0.205068,-0.665646,21,0.0167089,10,-0.000136502,-3.17676,-0.608141,-0.097017,2.51411,0.205068,
2,0,0,1,0,40542.4,0.203855,0.203557,-0.669928,21,0.0166578,10,-0.000136369,-3.17397,-0.566502,-0.104148,2.72757,0.203557,
2,0,0,1,0,40542.5,0.202355,0.201991,-0.674476,21,0.0166063,10,-0.000136238,-3.17103,-0.377994,-0.156087,4.1155,0.201991,
2,0,0,1,0,40542.6,0.200857,0.200556,-0.679535,21,0.0165545,10,-0.000136285,-3.16779,-0.385018,-0.15324,4.0711,0.200556,
2,0,0,1,0,40542.7,0.199359,0.199005,-0.685002,21,0.0165022,10,-0.000136319,-3.16431,-0.565334,-0.104363,2.78914,0.199005,
2,0,0,1,0,40542.7,0.19786,0.197538,-0.691878,21,0.0164494,10,-0.000136672,-3.15997,-0.444798,-0.132644,3.57262,0.197538,
2,0,0,1,0,40542.8,0.196362,0.195996,-0.696646,21,0.0163963,10,-0.00013654,-3.15699,-0.45119,-0.130765,3.56001,0.195996,
2,0,0,1,0,40542.9,0.194864,0.194538,-0.701417,21,0.0163428,10,-0.000136452,-3.15402,-0.364004,-0.162086,4.44498,0.194538,
2,0,0,1,0,40543,0.193366,0.193005,-0.708898,21,0.0162888,10,-0.000136821,-3.14942,-0.316794,-0.186241,5.15627,0.193005,
2,0,0,1,0,40543,0.191866,0.191518,-0.718028,21,0.0162341,10,-0.000137515,-3.14386,-0.431061,-0.136872,3.82766,0.191518,
2,0,0,1,0,40543.1,0.19037,0.190054,-0.720941,21,0.0161793,10,-0.000137017,-3.1421,-0.371148,-0.158966,4.47541,0.1900537,
2,0,0,1,0,40543.2,0.188871,0.188527,-0.728611,21,0.0161239,10,-0.000137363,-3.1375,-0.321025,-0.183786,5.22076,0.188527,
2,0,0,1,0,40543.3,0.187373,0.187021,-0.731889,21,0.0160681,10,-0.000136879,-3.13555,-0.333336,-0.176999,5.07152,0.187021,
2,0,0,1,0,40543.3,0.185875,0.185554,-0.741901,21,0.0160118,10,-0.000137663,-3.12965,-0.410267,-0.143809,4.14392,0.185554,
2,0,0,1,0,40543.4,0.184377,0.18407,-0.743794,21,0.0159549,10,-0.00013691,-3.12855,-0.385195,-0.153169,4.4622,0.18407,
2,0,0,1,0,40543.5,0.182878,0.18256,-0.749996,21,0.0158978,10,-0.000136919,-3.12494,-0.493207,-0.119625,3.51343,0.18256,
2,0,0,1,0,40543.6,0.18138,0.181083,-0.760151,21,0.01584,10,-0.000137651,-3.1191,-0.370838,-0.159099,4.72183,0.181083,
2,0,0,1,0,40543.6,0.179882,0.179551,-0.766411,21,0.0157817,10,-0.00013761,-3.11554,-0.442676,-0.13328,3.97952,0.179551,
2,0,0,1,0,40543.7,0.178384,0.178054,-0.775986,21,0.0157228,10,-0.000138168,-3.11015,-0.383129,-0.153995,4.66022,0.178054,
2,0,0,1,0,40543.8,0.176886,0.176574,-0.781227,21,0.0156635,10,-0.000137944,-3.10722,-0.334613,-0.176323,5.39752,0.176574,
2,0,0,1,0,40543.9,0.175386,0.175058,-0.790312,21,0.0156035,10,-0.00013835,-3.1022,-0.323421,-0.182425,5.61622,0.175058,
2,0,0,1,0,40543.9,0.173891,0.173579,-0.799054,21,0.0155429,10,-0.000138699,-3.09742,-0.321283,-0.183639,5.71976,0.173579,
2,0,0,1,0,40544,0.172391,0.172105,-0.808354,21,0.0154815,10,-0.000139122,-3.0924,-0.316859,-0.186203,5.87235,0.172105,
2,0,0,1,0,40544.1,0.170893,0.170572,-0.815626,21,0.0154197,10,-0.000139123,-3.08851,-0.300211,-0.196528,6.26845,0.1705717,
2,0,0,1,0,40544.2,0.169395,0.169077,-0.825977,21,0.015357,10,-0.000139654,-3.08303,-0.244559,-0.24125,7.76205,0.169077,
2,0,0,1,0,40544.2,0.167897,0.167554,-0.837484,21,0.0152934,10,-0.000140324,-3.07702,-0.255695,-0.230743,7.54627,0.167554,
2,0,0,1,0,40544.3,0.166398,0.166061,-0.847642,21,0.015229,10,-0.00014076,-3.07179,-0.271569,-0.217256,7.21196,0.166061,
2,0,0,1,0,40544.4,0.1649,0.164575,-0.857714,21,0.015164,10,-0.000141159,-3.06666,-0.278911,-0.211537,7.11506,0.164575,
2,0,0,1,0,40544.5,0.163402,0.16308,-0.872686,21,0.015098,10,-0.000142318,-3.05914,-0.226716,-0.260237,8.87028,0.16308,
2,0,0,1,0,40544.5,0.161904,0.161568,-0.888995,21,0.0150309,10,-0.000143633,-3.0511,-0.226582,-0.260391,9.01403,0.161568,
2,0,0,1,0,40544.6,0.160406,0.160076,-0.902624,21,0.0149628,10,-0.000144489,-3.04449,-0.213025,-0.276962,9.74009,0.160076,
2,0,0,1,0,40544.7,0.158906,0.158554,-0.916178,21,0.0148935,10,-0.000145264,-3.03802,-0.207052,-0.284953,10.2177,0.158554,
2,0,0,1,0,40544.8,0.157411,0.157078,-0.934702,21,0.0148233,10,-0.000146821,-3.02933,-0.166103,-0.355201,12.9995,0.157078,
2,0,0,1,0,40544.8,0.155911,0.155586,-0.952517,21,0.0147514,10,-0.000148198,-3.02113,-0.155201,-0.380151,14.1778,0.155586,
2,0,0,1,0,40544.9,0.154413,0.154067,-0.977135,21,0.0146779,10,-0.000150544,-3.01005,-0.153602,-0.38411,14.62,0.154067,
2,0,0,1,0,40545,0.152915,0.152575,-0.999681,21,0.0146028,10,-0.000152526,-3.00014,-0.152082,-0.387948,15.1626,0.152575,
2,0,0,1,0,40545.1,0.151417,0.15107,-1.02084,21,0.0145261,10,-0.000154218,-2.99104,-0.135622,-0.435034,17.42,0.1510701,
2,0,0,1,0,40545.1,0.149918,0.14959,-1.05154,21,0.0144472,10,-0.000157299,-2.97818,-0.115543,-0.510633,20.9926,0.1495897,
2,0,0,1,0,40545.2,0.14842,0.148124,-1.08782,21,0.014366,10,-0.000161132,-2.96344,-0.107026,-0.551268,23.3611,0.148124,
2,0,0,1,0,40545.3,0.146922,0.14655,-1.12072,21,0.0142823,10,-0.000164241,-2.9505,-0.105021,-0.561794,24.6425,0.1465503,
2,0,0,1,0,40545.4,0.145424,0.145096,-1.15651,21,0.0141958,10,-0.000167805,-2.93685,-0.0949617,-0.621303,28.1902,0.145096,
2,0,0,1,0,40545.4,0.143926,0.143601,-1.20363,21,0.0141062,10,-0.000172842,-2.91951,-0.0862863,-0.68377,32.1572,0.143601,
2,0,0,1,0,40545.5,0.142426,0.142083,-1.25563,21,0.0140129,10,-0.000178405,-2.90114,-0.0855257,-0.689851,33.7578,0.142083,
2,0,0,1,0,40545.6,0.140931,0.140605,-1.30252,21,0.0139162,10,-0.000183142,-2.88522,-0.0870553,-0.67773,34.4957,0.140605,
2,0,0,1,0,40545.7,0.139431,0.13912,-1.35481,21,0.0138152,10,-0.000188481,-2.86812,-0.0845361,-0.697926,36.9815,0.1391203,
2,0,0,1,0,40545.7,0.137933,0.137604,-1.41329,21,0.0137104,10,-0.000194474,-2.84977,-0.0840177,-0.702233,38.8303,0.137604,
2,0,0,1,0,40545.8,0.136435,0.136084,-1.47612,21,0.013601,10,-0.000200876,-2.83088,-0.0815632,-0.723365,41.6088,0.136084,
2,0,0,1,0,40545.9,0.134936,0.134602,-1.53543,21,0.0134871,10,-0.000206671,-2.81377,-0.0888761,-0.663846,39.6851,0.134602,
2,0,0,1,0,40546,0.133438,0.133152,-1.59664,21,0.0133685,10,-0.000212596,-2.79679,-0.091574,-0.644288,40.0807,0.1331521,
2,0,0,1,0,40546,0.13194,0.131611,-1.65865,21,0.0132454,10,-0.000218296,-2.78024,-0.0925792,-0.637292,41.2988,0.131611,
2,0,0,1,0,40546.1,0.130442,0.130133,-1.72067,21,0.0131177,10,-0.000223917,-2.7643,-0.0952185,-0.619627,41.5421,0.130133,
2,0,0,1,0,40546.2,0.128942,0.128559,-1.78287,21,0.0129851,10,-0.000229204,-2.74888,-0.106109,-0.556033,38.5406,0.1285588,
2,0,0,1,0,40546.3,0.127446,0.127107,-1.84008,21,0.0128484,10,-0.000233886,-2.73516,-0.115677,-0.51004,36.5114,0.127107,
2,0,0,1,0,40546.3,0.125947,0.125627,-1.89201,21,0.0127075,10,-0.000237687,-2.72308,-0.12002,-0.491584,36.2248,0.125627,
2,0,0,1,0,40546.4,0.124449,0.124075,-1.9422,21,0.0125627,10,-0.000240979,-2.71171,-0.133712,-0.441247,33.3778,0.124075,
2,0,0,1,0,40546.5,0.122951,0.122637,-1.99116,21,0.012414,10,-0.000244191,-2.70089,-0.143815,-0.410249,31.8246,0.122637,
2,0,0,1,0,40546.6,0.121453,0.121145,-2.03602,21,0.012262,10,-0.000246652,-2.69122,-0.170459,-0.346125,27.4368,0.1211445,
2,0,0,1,0,40546.6,0.119955,0.119655,-2.07426,21,0.0121068,10,-0.000248196,-2.68314,-0.185362,-0.318296,25.7424,0.1196555,
2,0,0,1,0,40546.7,0.118456,0.118116,-2.11298,21,0.0119488,10,-0.000249577,-2.67511,-0.204783,-0.28811,23.7069,0.118116,
2,0,0,1,0,40546.8,0.116958,0.116611,-2.14521,21,0.0117882,10,-0.000250155,-2.66853,-0.244654,-0.241156,20.1442,0.116611,
2,0,0,1,0,40546.9,0.11546,0.115126,-2.17294,21,0.0116252,10,-0.000250162,-2.66295,-0.315851,-0.186797,15.7915,0.115126,
2,0,0,1,0,40546.9,0.113962,0.113615,-2.19026,21,0.0114604,10,-0.000248845,-2.6595,-0.373498,-0.157966,13.4979,0.113615,
2,0,0,1,0,40547,0.112462,0.112145,-2.21029,21,0.0112942,10,-0.000247873,-2.65555,-0.530054,-0.111309,9.58838,0.112145,
2,0,0,1,0,40547.1,0.110967,0.110624,-2.22431,21,0.0111272,10,-0.000246063,-2.6528,-0.650766,-0.0906623,7.8536,0.110624,
2,0,0,1,0,40547.2,0.109467,0.109156,-2.23152,21,0.0109589,10,-0.000243583,-2.6514,-1.51861,-0.0388512,3.37348,0.109156,
2,0,0,1,0,40547.2,0.107969,0.107648,-2.23567,21,0.0107904,10,-0.000240666,-2.65059,-4.05205,-0.0145605,1.26829,0.107648,
2,0,0,1,0,40547.3,0.106471,0.106161,-2.23373,21,0.010622,10,-0.000237135,-2.65097,3.46569,0.017024,-1.4846,0.106161,
2,0,0,1,0,40547.4,0.104973,0.104642,-2.23037,21,0.0104536,10,-0.000233392,-2.65162,1.79964,0.0327844,-2.84836,0.104642,
2,0,0,1,0,40547.5,0.103474,0.103169,-2.22615,21,0.0102855,10,-0.00022967,-2.65245,0.890657,0.0662433,-5.74604,0.103169,
2,0,0,1,0,40547.5,0.101976,0.101661,-2.21576,21,0.0101179,10,-0.000225256,-2.65448,0.620729,0.0950495,-8.21219,0.101661,
2,0,0,1,0,40547.6,0.100478,0.100141,-2.2026,21,0.00995141,10,-0.00022057,-2.65707,0.540042,0.109251,-9.39803,0.100141,
2,0,0,1,0,40547.7,0.0989798,0.0986363,-2.19035,21,0.0097858,10,-0.000216048,-2.65949,0.597414,0.098759,-8.43647,0.0986363,
2,0,0,1,0,40547.8,0.0974817,0.0971437,-2.17694,21,0.00962112,10,-0.000211477,-2.66215,0.518116,0.113874,-9.6686,0.0971437,
2,0,0,1,0,40547.8,0.0959821,0.0956303,-2.16223,21,0.00945725,10,-0.000206774,-2.6651,0.472306,0.124919,-10.5326,0.0956303,
2,0,0,1,0,40547.9,0.0944866,0.0941707,-2.14345,21,0.00929505,10,-0.00020185,-2.66889,0.520495,0.113354,-9.49967,0.0941707,
2,0,0,1,0,40548,0.0929871,0.0926967,-2.12953,21,0.0091336,10,-0.000197401,-2.67172,0.571555,0.103227,-8.58538,0.0926967,
2,0,0,1,0,40548.1,0.0914889,0.0911211,-2.11922,21,0.00897329,10,-0.000193106,-2.67382,0.565375,0.104356,-8.62365,0.0911211,
2,0,0,1,0,40548.1,0.0899907,0.0896364,-2.10519,21,0.00881398,10,-0.000188702,-2.67671,0.484998,0.12165,-9.9777,0.0896364,
2,0,0,1,0,40548.2,0.0884925,0.0881203,-2.08844,21,0.00865578,10,-0.000184034,-2.68018,0.53782,0.109702,-8.94837,0.0881203,
2,0,0,1,0,40548.3,0.0869943,0.0866478,-2.07624,21,0.00849872,10,-0.000179902,-2.68272,0.544813,0.108294,-8.78643,0.0866478,
2,0,0,1,0,40548.4,0.0854961,0.0851605,-2.06535,21,0.00834248,10,-0.000175887,-2.68501,0.56669,0.104113,-8.39316,0.0851605,
2,0,0,1,0,40548.4,0.083998,0.0836613,-2.05413,21,0.00818711,10,-0.000171851,-2.68737,0.497398,0.118617,-9.49716,0.0836613,
2,0,0,1,0,40548.5,0.0824998,0.0821596,-2.04347,21,0.00803267,10,-0.00016789,-2.68963,0.547766,0.10771,-8.57617,0.0821596,
2,0,0,1,0,40548.6,0.081002,0.0806989,-2.02651,21,0.00787924,10,-0.000163537,-2.69325,0.626462,0.0941797,-7.45924,0.0806989,
2,0,0,1,0,40548.7,0.0795025,0.0791486,-2.01782,21,0.00772637,10,-0.000159707,-2.69512,0.718349,0.0821328,-6.46978,0.0791486,
2,0,0,1,0,40548.7,0.078007,0.0776659,-2.00804,21,0.0075746,10,-0.000155956,-2.69723,0.676112,0.0872637,-6.83794,0.0776659,
2,0,0,1,0,40548.8,0.076507,0.0761823,-1.99771,21,0.00742324,10,-0.00015219,-2.69947,0.579544,0.101804,-7.93539,0.0761823,
2,0,0,1,0,40548.9,0.0750088,0.0746315,-1.98117,21,0.00727308,10,-0.000147857,-2.70308,0.617392,0.0955633,-7.40461,0.0746315,
2,0,0,1,0,40548.9,0.0735106,0.0731937,-1.97539,21,0.00712369,10,-0.000144586,-2.70435,0.754794,0.078167,-6.01656,0.0731937,
2,0,0,1,0,40549,0.0720124,0.0716557,-1.96525,21,0.00697503,10,-0.000140821,-2.70658,0.65194,0.0904991,-6.93961,0.0716557,
2,0,0,1,0,40549.1,0.0705142,0.0701693,-1.95511,21,0.00682713,10,-0.000137189,-2.70883,0.567314,0.103999,-7.9233,0.07016933,
2,0,0,1,0,40549.2,0.069016,0.0686541,-1.93879,21,0.00668018,10,-0.000133106,-2.71247,0.536524,0.109967,-8.33398,0.06865412,
2,0,0,1,0,40549.2,0.0675179,0.0671885,-1.9294,21,0.00653413,10,-0.000129633,-2.71458,0.715927,0.0824106,-6.20831,0.0671885,
2,0,0,1,0,40549.3,0.0660179,0.0656917,-1.92339,21,0.00638864,10,-0.000126351,-2.71593,0.593152,0.0994686,-7.45128,0.0656917,
2,0,0,1,0,40549.4,0.0645224,0.0642324,-1.91161,21,0.00624418,10,-0.000122787,-2.7186,0.540361,0.109186,-8.12706,0.0642324,
2,0,0,1,0,40549.5,0.0630228,0.0627493,-1.89602,21,0.00610026,10,-0.000118974,-2.72216,0.553078,0.106676,-7.89289,0.0627493,
2,0,0,1,0,40549.5,0.0615251,0.0611962,-1.88424,21,0.00595758,10,-0.000115308,-2.72486,0.564667,0.104486,-7.70027,0.0611962,
2,0,0,1,0,40549.6,0.0600269,0.059688,-1.87626,21,0.00581567,10,-0.00011199,-2.72671,0.668783,0.08822,-6.456,0.059688,
2,0,0,1,0,40549.7,0.0585287,0.0582227,-1.86333,21,0.00567451,10,-0.000108488,-2.72971,0.49059,0.120263,-8.73447,0.0582227,
2,0,0,1,0,40549.8,0.0570305,0.0567277,-1.8533,21,0.00553413,10,-0.000105133,-2.73206,0.510195,0.115642,-8.35095,0.0567277,
2,0,0,1,0,40549.8,0.0555323,0.0552285,-1.83832,21,0.00539485,10,-0.000101528,-2.73558,0.596264,0.0989495,-7.11155,0.0552285,
2,0,0,1,0,40549.9,0.0540341,0.0537121,-1.82898,21,0.00525639,10,-9.82382e-05,-2.73779,0.653126,0.0903348,-6.44534,0.0537121,
2,0,0,1,0,40550,0.052536,0.0521867,-1.81773,21,0.00511856,10,-9.48612e-05,-2.74047,0.557239,0.105879,-7.51077,0.0521867,
2,0,0,1,0,40550.1,0.0510378,0.0507397,-1.80399,21,0.00498168,10,-9.15338e-05,-2.74377,0.462357,0.127607,-8.98922,0.0507397,
2,0,0,1,0,40550.1,0.0495382,0.0492339,-1.79259,21,0.00484564,10,-8.82562e-05,-2.74652,0.549798,0.107312,-7.51187,0.0492339,
2,0,0,1,0,40550.2,0.0480427,0.0477228,-1.78033,21,0.00471089,10,-8.49623e-05,-2.7495,0.562093,0.104965,-7.29439,0.04772282,
2,0,0,1,0,40550.3,0.0465432,0.046218,-1.76743,21,0.00457666,10,-8.16872e-05,-2.75266,0.529323,0.111463,-7.69442,0.046218,
2,0,0,1,0,40550.4,0.045045,0.0447174,-1.75638,21,0.00444348,10,-7.85409e-05,-2.75538,0.443576,0.13301,-9.11347,0.0447174,
2,0,0,1,0,40550.4,0.0435468,0.0432184,-1.74046,21,0.00431129,10,-7.52201e-05,-2.75933,0.434946,0.135649,-9.23089,0.0432184,
2,0,0,1,0,40550.5,0.0420486,0.0417451,-1.72962,21,0.00418022,10,-7.22031e-05,-2.76205,0.489823,0.120452,-8.14153,0.0417451,
2,0,0,1,0,40550.6,0.0405504,0.0402233,-1.72047,21,0.00404997,10,-6.92031e-05,-2.76435,0.489308,0.120578,-8.0749,0.0402233,
2,0,0,1,0,40550.7,0.0390523,0.0387308,-1.70347,21,0.00392058,10,-6.59769e-05,-2.76866,0.381882,0.154498,-10.258,0.0387308,
2,0,0,1,0,40550.7,0.0375541,0.0371949,-1.68875,21,0.00379227,10,-6.2813e-05,-2.77243,0.423662,0.139262,-9.18656,0.0371949,
2,0,0,1,0,40550.8,0.0360559,0.0357214,-1.67726,21,0.00366519,10,-5.99141e-05,-2.7754,0.444792,0.132646,-8.68618,0.03572141,
2,0,0,1,0,40550.9,0.0345577,0.0342015,-1.66295,21,0.00353901,10,-5.68754e-05,-2.77912,0.447988,0.1317,-8.54314,0.0342015,
2,0,0,1,0,40551,0.0330582,0.0327093,-1.64941,21,0.00341359,10,-5.3951e-05,-2.78267,0.409292,0.144151,-9.27075,0.0327093,
2,0,0,1,0,40551,0.0315626,0.0312161,-1.63446,21,0.00328954,10,-5.10214e-05,-2.78663,0.406566,0.145118,-9.26742,0.0312161,
2,0,0,1,0,40551.1,0.0300631,0.0297436,-1.62244,21,0.00316642,10,-4.82571e-05,-2.78983,0.420201,0.140409,-8.89527,0.0297436,
2,0,0,1,0,40551.2,0.0285649,0.0282208,-1.60764,21,0.00304429,10,-4.53688e-05,-2.79381,0.486205,0.121348,-7.61522,0.0282208,
2,0,0,1,0,40551.3,0.0270667,0.0267138,-1.59758,21,0.00292301,10,-4.26774e-05,-2.79654,0.417185,0.141424,-8.81608,0.02671382,
2,0,0,1,0,40551.3,0.0255685,0.0252221,-1.58572,21,0.00280262,10,-3.99953e-05,-2.79977,0.411601,0.143343,-8.86959,0.0252221,
2,0,0,1,0,40551.4,0.0240704,0.0237744,-1.56929,21,0.00268333,10,-3.73088e-05,-2.8043,0.397472,0.148438,-9.11916,0.0237744,
2,0,0,1,0,40551.5,0.0225722,0.0222339,-1.56084,21,0.00256494,10,-3.47035e-05,-2.80664,0.552122,0.106861,-6.5081,0.0222339,
2,0,0,1,0,40551.6,0.021074,0.0207521,-1.54755,21,0.00244733,10,-3.21149e-05,-2.81036,0.525899,0.112189,-6.78676,0.0207521,
2,0,0,1,0,40551.6,0.0195758,0.0192381,-1.54066,21,0.0023305,10,-2.96393e-05,-2.81229,0.478365,0.123337,-7.40352,0.0192381,
2,0,0,1,0,40551.7,0.018078,0.0177183,-1.5265,21,0.00221443,10,-2.7047e-05,-2.8163,0.511451,0.115358,-6.88176,0.0177183,
2,0,0,1,0,40551.8,0.0165785,0.0162641,-1.51881,21,0.00209913,10,-2.47021e-05,-2.8185,0.643306,0.0917137,-5.44751,0.0162641,
2,0,0,1,0,40551.9,0.015083,0.0147272,-1.51182,21,0.00198466,10,-2.22649e-05,-2.8205,0.766493,0.0769739,-4.53625,0.01472724,
2,0,0,1,0,40551.9,0.013583,0.0132418,-1.50228,21,0.00187043,10,-1.9893e-05,-2.82325,0.604224,0.0976459,-5.72977,0.0132418,
2,0,0,1,0,40552,0.0120848,0.011747,-1.49407,21,0.00175703,10,-1.75508e-05,-2.82563,0.642238,0.0918662,-5.36546,0.011747,
2,0,0,1,0,40552.1,0.0105866,0.0102395,-1.48615,21,0.00164435,10,-1.52174e-05,-2.82794,0.723046,0.0815992,-4.74153,0.0102395,
2,0,0,1,0,40552.2,0.00908846,0.00877823,-1.48025,21,0.00153206,10,-1.2994e-05,-2.82967,1.05572,0.0558859,-3.22911,0.00877823,
2,0,0,1,0,40552.2,0.00759027,0.00725353,-1.47705,21,0.00142009,10,-1.07138e-05,-2.83061,1.00354,0.0587916,-3.38838,0.00725353,
2,0,0,1,0,40552.3,0.00609208,0.00572232,-1.47428,21,0.00130851,10,-8.43629e-06,-2.83142,0.888376,0.0664133,-3.81606,0.00572232,
2,0,0,1,0,40552.4,0.00459389,0.00425981,-1.46802,21,0.00119735,10,-6.2535e-06,-2.83327,1.3671,0.043157,-2.47542,0.004259808,
2,0,0,1,0,40552.5,0.00309391,0.002771,-1.46574,21,0.00108621,10,-4.06156e-06,-2.83394,-1.35267,-0.0436173,2.50212,0.002771,
2,0,0,1,0,40552.5,0.0015984,0.0012458,-1.47961,21,0.000974661,10,-1.8433e-06,-2.82985, , , ,0.0012458,
2,0,0,1,0,40552.6,0.000199195,-0.000166622,-1.47227,21,0.00087048,10,2.45312e-07,-2.83201, , , ,-0.0001666217,