File: Figure_codes/Fig_3-5/rawdata_trumpetplot_data/after 10th/20221101_1-115_003_TrumpetPlot_ParaChange_from10_every3_08_CV_C01_12.csv
mode,ox/red,error,control changes,counter inc.,time/s,control/V,Ewe/V,<I>/mA,cycle number,(Q-Qo)/C,I Range,P/W,log(|I|),Tafel slope mV/dec,alpha_eff,dI/d(E-IR),E-IR/V,
2,0,0,0,0,24816.6,2.44065e-05,-0.000439847,-4.01671,13,0.0000000E+000,10,1.76674e-06,-2.39613, , , ,-0.000439847,
2,0,0,1,0,24816.6,0.0012943,0.000898651,-2.14713,13,-4.61201e-05,10,-1.92952e-06,-2.66814, , , ,0.000898651,
2,0,0,1,0,24816.6,0.00279784,0.00244711,-0.78933,13,-7.26074e-05,10,-1.93158e-06,-3.10274,-0.0043654,-13.5154,756.901,0.00244711,
2,0,0,1,0,24816.6,0.00429425,0.00398973,0.0957252,13,-7.83673e-05,10,3.81917e-07,-4.01897,-0.0353392,-1.66954,515.775,0.00398973,
2,1,0,1,0,24816.7,0.00579065,0.00547722,0.735324,13,-7.0125e-05,10,4.02753e-06,-3.13352,0.00440977,13.3794,376.61,0.00547722,
2,1,0,1,0,24816.7,0.0072942,0.00698069,1.22022,13,-5.13462e-05,10,8.51797e-06,-2.91356,0.0081334,7.25404,285.799,0.00698069,
2,1,0,1,0,24816.7,0.00878347,0.0084787,1.58886,13,-2.49062e-05,10,1.34714e-05,-2.79892,0.0148186,3.98148,228.761,0.0084787,
2,1,0,1,0,24816.7,0.010287,0.00997262,1.89514,13,8.08793e-06,10,1.88995e-05,-2.72236,0.0230694,2.5575,180.548,0.00997262,
2,1,0,1,0,24816.7,0.0117905,0.0114918,2.13368,13,4.62017e-05,10,2.45198e-05,-2.67087,0.0315666,1.86906,151.624,0.0114918,
2,1,0,1,0,24816.7,0.013278,0.0129939,2.32579,13,8.79229e-05,10,3.0221e-05,-2.63343,0.0412665,1.42973,128.111,0.0129939,
2,1,0,1,0,24816.8,0.0147816,0.0144261,2.49802,13,0.000133567,10,3.60367e-05,-2.6024,0.0533548,1.1058,106.769,0.0144261,
2,1,0,1,0,24816.8,0.0162851,0.0159875,2.64668,13,0.000182284,10,4.23139e-05,-2.5773,0.0642368,0.918477,94.0892,0.0159875,
2,1,0,1,0,24816.8,0.0177744,0.0174272,2.77152,13,0.000232951,10,4.82999e-05,-2.55728,0.0782124,0.754356,81.1982,0.0174272,
2,1,0,1,0,24816.8,0.0192779,0.0189362,2.88602,13,0.000286385,10,5.46502e-05,-2.5397,0.0896652,0.658003,73.7888,0.0189362,
2,1,0,1,0,24816.8,0.0207743,0.0204486,2.98851,13,0.000341603,10,6.11109e-05,-2.52454,0.09891,0.596502,69.3676,0.0204486,
2,1,0,1,0,24816.9,0.0222707,0.0219714,3.08644,13,0.000398689,10,6.78135e-05,-2.51054,0.115288,0.51176,61.5458,0.02197139,
2,1,0,1,0,24816.9,0.0237743,0.0234476,3.1742,13,0.000457855,10,7.44273e-05,-2.49837,0.12974,0.454757,56.2465,0.02344759,
2,1,0,1,0,24816.9,0.0252636,0.0249528,3.25145,13,0.000517991,10,8.11326e-05,-2.48792,0.138833,0.424972,54.0222,0.0249528,
2,1,0,1,0,24816.9,0.0267671,0.0264808,3.34324,13,0.000580291,10,8.85315e-05,-2.47583,0.144994,0.406913,53.0948,0.0264808,
2,1,0,1,0,24816.9,0.0282706,0.0279369,3.42931,13,0.000644162,10,9.58042e-05,-2.46479,0.158712,0.371743,49.6454,0.0279369,
2,1,0,1,0,24817,0.0297581,0.0294417,3.50824,13,0.000708835,10,0.000103288,-2.45491,0.163981,0.359798,49.0809,0.02944169,
2,1,0,1,0,24817,0.0312617,0.0309353,3.57173,13,0.000775576,10,0.000110492,-2.44712,0.174327,0.338444,47.1805,0.0309353,
2,1,0,1,0,24817,0.0327652,0.0324531,3.65196,13,0.000843661,10,0.000118517,-2.43747,0.175122,0.336908,48.0012,0.0324531,
2,1,0,1,0,24817,0.0342545,0.0339436,3.72483,13,0.000912398,10,0.000126434,-2.42889,0.172948,0.341143,49.4828,0.0339436,
2,1,0,1,0,24817,0.035758,0.0354706,3.79624,13,0.000983255,10,0.000134655,-2.42065,0.182607,0.323098,47.742,0.0354706,
2,1,0,1,0,24817,0.0372544,0.0369167,3.86599,13,0.00105509,10,0.000142719,-2.41274,0.184224,0.320263,48.2194,0.0369167,
2,1,0,1,0,24817.1,0.0387508,0.0384178,3.92802,13,0.00112813,10,0.000150906,-2.40583,0.191083,0.308767,47.3883,0.0384178,
2,1,0,1,0,24817.1,0.0402544,0.0399182,3.9975,13,0.00120289,10,0.000159573,-2.39821,0.185655,0.317794,49.6518,0.03991824,
2,1,0,1,0,24817.1,0.0417437,0.041435,4.07172,13,0.00127821,10,0.000168712,-2.39022,0.201528,0.292764,46.4809,0.041435,
2,1,0,1,0,24817.1,0.0432472,0.0429115,4.1369,13,0.00135567,10,0.000177521,-2.38333,0.211904,0.278428,44.9312,0.0429115,
2,1,0,1,0,24817.1,0.0447507,0.0444552,4.19554,13,0.00143431,10,0.000186514,-2.37721,0.216898,0.272018,44.6475,0.04445523,
2,1,0,1,0,24817.2,0.0462382,0.0459386,4.26799,13,0.00151337,10,0.000196066,-2.36978,0.212047,0.27824,46.3775,0.0459386,
2,1,0,1,0,24817.2,0.0477418,0.0474298,4.33415,13,0.00159451,10,0.000205568,-2.3631,0.230881,0.255542,43.2838,0.0474298,
2,1,0,1,0,24817.2,0.0492453,0.0489568,4.39704,13,0.00167696,10,0.000215265,-2.35684,0.252946,0.233251,40.0561,0.0489568,
2,1,0,1,0,24817.2,0.0507346,0.0504309,4.46571,13,0.00175971,10,0.00022521,-2.35011,0.255061,0.231317,40.3283,0.05043092,
2,1,0,1,0,24817.2,0.0522381,0.0519095,4.53099,13,0.00184451,10,0.000235201,-2.34381,0.255733,0.23071,40.8209,0.0519095,
2,1,0,1,0,24817.3,0.0537345,0.0534259,4.60781,13,0.00193011,10,0.000246176,-2.33651,0.257967,0.228711,41.0167,0.0534259,
2,1,0,1,0,24817.3,0.0552309,0.0549348,4.66912,13,0.00201693,10,0.000256498,-2.33076,0.260493,0.226493,41.1792,0.0549348,
2,1,0,1,0,24817.3,0.0567345,0.0564059,4.72511,13,0.00210539,10,0.000266524,-2.32559,0.263243,0.224128,41.2816,0.0564059,
2,1,0,1,0,24817.3,0.0582237,0.0579275,4.78822,13,0.00219398,10,0.000277369,-2.31983,0.261315,0.225781,42.1376,0.0579275,
2,1,0,1,0,24817.3,0.0597273,0.0593945,4.84788,13,0.00228468,10,0.000287937,-2.31445,0.258405,0.228323,43.1473,0.05939446,
2,1,0,1,0,24817.3,0.0612308,0.0609191,4.90877,13,0.00237657,10,0.000299038,-2.30903,0.273625,0.215624,41.2424,0.0609191,
2,1,0,1,0,24817.4,0.0627183,0.0623936,4.96218,13,0.00246858,10,0.000309608,-2.30433,0.283183,0.208346,40.33,0.0623936,
2,1,0,1,0,24817.4,0.0642219,0.0639366,5.01233,13,0.00256255,10,0.000320471,-2.29996,0.287053,0.205537,40.2717,0.0639366,
2,1,0,1,0,24817.4,0.0657254,0.0654475,5.07448,13,0.00265766,10,0.000332112,-2.29461,0.275237,0.214361,42.4515,0.0654475,
2,1,0,1,0,24817.4,0.0672147,0.0669384,5.13444,13,0.00275291,10,0.000343691,-2.28951,0.309727,0.19049,38.1515,0.0669384,
2,1,0,1,0,24817.4,0.0687182,0.0684231,5.18645,13,0.00285026,10,0.000354873,-2.28513,0.354052,0.166642,33.7298,0.0684231,
2,1,0,1,0,24817.5,0.0702146,0.0698959,5.23697,13,0.00294803,10,0.000366043,-2.28092,0.367288,0.160637,32.8493,0.0698959,
2,1,0,1,0,24817.5,0.071711,0.0713837,5.29462,13,0.00304673,10,0.00037795,-2.27617,0.36323,0.162432,33.5517,0.0713837,
2,1,0,1,0,24817.5,0.0732146,0.0729066,5.34387,13,0.00314703,10,0.000389603,-2.27214,0.363773,0.162189,33.838,0.0729066,
2,1,0,1,0,24817.5,0.0747038,0.0744315,5.39423,13,0.00324718,10,0.000401501,-2.26807,0.436493,0.135168,28.4811,0.0744315,
2,1,0,1,0,24817.5,0.0762074,0.0758845,5.43752,13,0.00334928,10,0.000412624,-2.2646,0.420039,0.140463,29.8331,0.0758845,
2,1,0,1,0,24817.6,0.0777109,0.0773993,5.49448,13,0.00345225,10,0.000425269,-2.26007,0.391461,0.150717,32.2633,0.0773993,
2,1,0,1,0,24817.6,0.0791984,0.0788577,5.54518,13,0.00355506,10,0.000437281,-2.25608,0.410635,0.14368,31.0397,0.0788577,
2,1,0,1,0,24817.6,0.0807019,0.0803936,5.58951,13,0.00365985,10,0.000449361,-2.25263,0.45848,0.128686,28.0192,0.0803936,
2,1,0,1,0,24817.6,0.0822055,0.0819376,5.62694,13,0.00376548,10,0.000461058,-2.24973,0.454884,0.129703,28.464,0.0819376,
2,1,0,1,0,24817.6,0.0836947,0.0833923,5.6692,13,0.0038707,10,0.000472768,-2.24648,0.439804,0.134151,29.6865,0.08339233,
2,1,0,1,0,24817.6,0.0851983,0.0849224,5.70921,13,0.00397787,10,0.00048484,-2.24342,0.418761,0.140892,31.4063,0.0849224,
2,1,0,1,0,24817.7,0.0866947,0.0863884,5.75515,13,0.00408532,10,0.000497178,-2.23994,0.447581,0.13182,29.5882,0.08638835,
2,1,0,1,0,24817.7,0.0881911,0.0878857,5.79815,13,0.00419352,10,0.000509575,-2.23671,0.468943,0.125815,28.4491,0.0878857,
2,1,0,1,0,24817.7,0.0896946,0.0893837,5.82678,13,0.00430306,10,0.000520819,-2.23457,0.435206,0.135568,30.8848,0.0893837,
2,1,0,1,0,24817.7,0.0911839,0.0908725,5.87493,13,0.00441224,10,0.00053387,-2.231,0.4228,0.139546,32.0291,0.0908725,
2,1,0,1,0,24817.7,0.0926857,0.0923808,5.92526,13,0.0045235,10,0.00054738,-2.22729,0.417776,0.141224,32.6801,0.0923808,
2,1,0,1,0,24817.8,0.0941892,0.0938876,5.97816,13,0.00463567,10,0.000561276,-2.22343,0.425733,0.138584,32.3479,0.0938876,
2,1,0,1,0,24817.8,0.0956785,0.0953713,6.02333,13,0.00474756,10,0.000574453,-2.22016,0.407441,0.144806,34.1169,0.0953713,
2,1,0,1,0,24817.8,0.097182,0.096867,6.08436,13,0.00486169,10,0.000589374,-2.21578,0.374744,0.157441,37.4252,0.096867,
2,1,0,1,0,24817.8,0.0986856,0.0983796,6.15361,13,0.00497703,10,0.00060539,-2.21087,0.342078,0.172475,41.445,0.0983796,
2,1,0,1,0,24817.8,0.100175,0.0998541,6.22195,13,0.0050923,10,0.000621288,-2.20607,0.34017,0.173443,42.1126,0.0998541,
2,1,0,1,0,24817.9,0.101678,0.101382,6.28646,13,0.00521012,10,0.000637337,-2.20159,0.303988,0.194087,47.6666,0.101382,
2,1,0,1,0,24817.9,0.103175,0.102886,6.37218,13,0.00532864,10,0.000655609,-2.19571,0.282274,0.209017,52.0079,0.102886,
2,1,0,1,0,24817.9,0.104671,0.104339,6.45566,13,0.00544867,10,0.000673579,-2.19006,0.258535,0.228209,57.4624,0.104339,
2,1,0,1,0,24817.9,0.106175,0.105838,6.54037,13,0.005571,10,0.000692222,-2.1844,0.247409,0.238472,60.8727,0.105838,
2,1,0,1,0,24817.9,0.107662,0.107343,6.63986,13,0.00569374,10,0.000712742,-2.17784,0.22482,0.262432,67.9884,0.107343,
2,1,0,1,0,24817.9,0.109166,0.108855,6.73514,13,0.00581958,10,0.000733155,-2.17165,0.221647,0.266188,69.9842,0.108855,
2,1,0,1,0,24818,0.110669,0.110348,6.83145,13,0.00594742,10,0.00075384,-2.16549,0.215758,0.273455,72.9547,0.1103484,
2,1,0,1,0,24818,0.112159,0.111836,6.94016,13,0.00607585,10,0.000776161,-2.15863,0.229625,0.256941,69.6151,0.111836,
2,1,0,1,0,24818,0.113662,0.113319,7.04505,13,0.00620757,10,0.000798337,-2.15212,0.23898,0.246882,67.874,0.113319,
2,1,0,1,0,24818,0.115166,0.114873,7.13836,13,0.00634117,10,0.000820008,-2.1464,0.236513,0.249457,69.5576,0.114873,
2,1,0,1,0,24818,0.116655,0.116299,7.24621,13,0.00647527,10,0.000842723,-2.13989,0.24436,0.241447,68.2835,0.116299,
2,1,0,1,0,24818.1,0.118158,0.11785,7.347,13,0.00661276,10,0.000865842,-2.13389,0.269786,0.218691,62.712,0.11785,
2,1,0,1,0,24818.1,0.119655,0.119324,7.44525,13,0.00675137,10,0.000888398,-2.12812,0.292851,0.201468,58.5061,0.119324,
2,1,0,1,0,24818.1,0.121151,0.120822,7.53383,13,0.00689165,10,0.000910254,-2.12298,0.300619,0.196261,57.6808,0.120822,
2,1,0,1,0,24818.1,0.122655,0.122348,7.62416,13,0.00703434,10,0.000932797,-2.11781,0.325085,0.181491,53.9424,0.122348,
2,1,0,1,0,24818.1,0.124142,0.123793,7.7047,13,0.0071771,10,0.000953791,-2.11324,0.347801,0.169637,50.9628,0.123793,
2,1,0,1,0,24818.2,0.125646,0.125325,7.78326,13,0.00732286,10,0.000975436,-2.10884,0.386211,0.152766,46.3099,0.125325,
2,1,0,1,0,24818.2,0.127149,0.126828,7.84493,13,0.00746997,10,0.000994954,-2.10541,0.427322,0.138069,42.2519,0.126828,
2,1,0,1,0,24818.2,0.128639,0.128349,7.91407,13,0.00761667,10,0.00101577,-2.1016,0.42751,0.138009,42.6013,0.128349,
2,1,0,1,0,24818.2,0.130142,0.129795,7.97534,13,0.00776614,10,0.00103516,-2.09825,0.445303,0.132494,41.1806,0.1297953,
2,1,0,1,0,24818.2,0.131646,0.131307,8.034,13,0.00791685,10,0.00105492,-2.09507,0.479789,0.122971,38.504,0.1313066,
2,1,0,1,0,24818.2,0.133135,0.132817,8.08626,13,0.00806693,10,0.00107399,-2.09225,0.52846,0.111645,35.2105,0.132817,
2,1,0,1,0,24818.3,0.134639,0.134309,8.12765,13,0.00821953,10,0.00109161,-2.09004,0.569383,0.103621,32.8675,0.134309,
2,1,0,1,0,24818.3,0.136135,0.135837,8.17284,13,0.00837221,10,0.00111017,-2.08763,0.56552,0.104329,33.2948,0.135837,
2,1,0,1,0,24818.3,0.137631,0.137328,8.2153,13,0.00852575,10,0.00112819,-2.08538,0.670581,0.0879835,28.1926,0.137328,
2,1,0,1,0,24818.3,0.139135,0.138797,8.25543,13,0.00868092,10,0.00114583,-2.08326,0.840117,0.0702283,22.6,0.138797,
2,1,0,1,0,24818.3,0.140622,0.140288,8.27502,13,0.00883495,10,0.00116089,-2.08223,1.21899,0.0484006,15.6323,0.140288,
2,1,0,1,0,24818.4,0.142126,0.14185,8.29828,13,0.00899109,10,0.00117711,-2.08101,2.18663,0.0269822,8.73278,0.14185,
2,1,0,1,0,24818.4,0.143629,0.143311,8.30686,13,0.00914755,10,0.00119046,-2.08056,-6.35229,-0.00928799,-3.00732,0.1433105,
2,1,0,1,0,24818.4,0.145119,0.144809,8.30064,13,0.00930233,10,0.00120201,-2.08089,-1.04485,-0.0564674,-18.2481,0.144809,
2,1,0,1,0,24818.4,0.146622,0.146304,8.26215,13,0.00945833,10,0.00120879,-2.08291,-0.567219,-0.104016,-33.4759,0.146304,
2,1,0,1,0,24818.4,0.148126,0.147793,8.21568,13,0.00961347,10,0.00121422,-2.08536,-0.389868,-0.151333,-48.3658,0.147793,
2,1,0,1,0,24818.5,0.149615,0.149297,8.13511,13,0.0097657,10,0.00121455,-2.08964,-0.272861,-0.216227,-68.3694,0.149297,
2,1,0,1,0,24818.5,0.151119,0.150794,8.02419,13,0.00991776,10,0.00121,-2.0956,-0.209714,-0.281335,-87.6795,0.150794,
2,1,0,1,0,24818.5,0.152615,0.152294,7.87653,13,0.0100666,10,0.00119955,-2.10366,-0.17444,-0.338225,-103.591,0.152294,
2,1,0,1,0,24818.5,0.154111,0.15375,7.70275,13,0.0102124,10,0.0011843,-2.11335,-0.140959,-0.418561,-125.404,0.15375,
2,1,0,1,0,24818.5,0.155615,0.1553,7.50352,13,0.0103556,10,0.00116529,-2.12473,-0.124016,-0.475744,-138.814,0.1553,
2,1,0,1,0,24818.5,0.157103,0.156796,7.27692,13,0.0104932,10,0.00114099,-2.13805,-0.107797,-0.547324,-154.878,0.156796,
2,1,0,1,0,24818.6,0.158606,0.158303,7.03053,13,0.010628,10,0.00111295,-2.15301,-0.0975915,-0.604561,-165.515,0.158303,
2,1,0,1,0,24818.6,0.16011,0.159791,6.76795,13,0.0107579,10,0.00108146,-2.16954,-0.0899184,-0.65615,-173.156,0.159791,
2,1,0,1,0,24818.6,0.161599,0.161307,6.50395,13,0.0108816,10,0.00104913,-2.18682,-0.0867611,-0.680029,-172.598,0.161307,
2,1,0,1,0,24818.6,0.163102,0.162769,6.24467,13,0.0110017,10,0.00101644,-2.20449,-0.0843519,-0.699451,-170.509,0.162769,
2,1,0,1,0,24818.6,0.164606,0.164313,5.9918,13,0.011117,10,0.000984533,-2.22244,-0.0837471,-0.704502,-164.899,0.164313,
2,1,0,1,0,24818.7,0.166095,0.165808,5.74652,13,0.0112264,10,0.000952818,-2.2406,-0.0829069,-0.711641,-160.047,0.165808,
2,1,0,1,0,24818.7,0.167599,0.167257,5.52264,13,0.0113325,10,0.000923702,-2.25785,-0.0871464,-0.677021,-146.249,0.167257,
2,1,0,1,0,24818.7,0.169095,0.168741,5.32217,13,0.0114341,10,0.00089807,-2.27391,-0.0926523,-0.63679,-132.507,0.168741,
2,1,0,1,0,24818.7,0.170592,0.170298,5.13453,13,0.0115321,10,0.0008744,-2.2895,-0.0942349,-0.626095,-125.674,0.170298,
2,1,0,1,0,24818.7,0.172095,0.171806,4.95395,13,0.011627,10,0.000851118,-2.30505,-0.0998353,-0.590973,-114.547,0.171806,
2,1,0,1,0,24818.8,0.173583,0.173295,4.80751,13,0.0117179,10,0.000833118,-2.31808,-0.110796,-0.53251,-99.8943,0.173295,
2,1,0,1,0,24818.8,0.175086,0.174763,4.66607,13,0.011807,10,0.000815456,-2.33105,-0.122249,-0.48262,-87.9059,0.174763,
2,1,0,1,0,24818.8,0.17659,0.176277,4.53532,13,0.0118936,10,0.000799472,-2.34339,-0.128629,-0.458685,-81.208,0.176277,
2,1,0,1,0,24818.8,0.178079,0.1778,4.4207,13,0.011977,10,0.000785999,-2.35451,-0.139361,-0.423361,-73.125,0.1778,
2,1,0,1,0,24818.8,0.179582,0.179247,4.31466,13,0.0120592,10,0.000773392,-2.36505,-0.156051,-0.378081,-63.7737,0.179247,
2,1,0,1,0,24818.8,0.181086,0.180769,4.21906,13,0.0121396,10,0.000762675,-2.37478,-0.177267,-0.332831,-54.9073,0.180769,
2,1,0,1,0,24818.9,0.182575,0.18228,4.1344,13,0.0122176,10,0.000753618,-2.38359,-0.177811,-0.331813,-53.6259,0.18228,
2,1,0,1,0,24818.9,0.184079,0.183781,4.0608,13,0.0122949,10,0.000746299,-2.39139,-0.193562,-0.304812,-48.3818,0.1837814,
2,1,0,1,0,24818.9,0.185582,0.185282,3.985,13,0.0123707,10,0.00073835,-2.39957,-0.214046,-0.275641,-42.9686,0.1852825,
2,1,0,1,0,24818.9,0.18707,0.186767,3.92699,13,0.0124445,10,0.000733434,-2.40594,-0.240329,-0.245497,-37.6452,0.186767,
2,1,0,1,0,24818.9,0.188573,0.188251,3.8642,13,0.012518,10,0.000727441,-2.41294,-0.231539,-0.254817,-38.5129,0.188251,
2,1,0,1,0,24819,0.19007,0.189741,3.81643,13,0.0125901,10,0.000724135,-2.41834,-0.241424,-0.244383,-36.4112,0.189741,
2,1,0,1,0,24819,0.191566,0.191256,3.76738,13,0.0126612,10,0.000720533,-2.42396,-0.2627,-0.224591,-33.0517,0.191256,
2,1,0,1,0,24819,0.19307,0.192747,3.71634,13,0.0127318,10,0.000716311,-2.42988,-0.307441,-0.191907,-27.9077,0.192747,
2,1,0,1,0,24819,0.194559,0.194247,3.68226,13,0.0128009,10,0.000715269,-2.43389,-0.312208,-0.188977,-27.2108,0.194247,
2,1,0,1,0,24819,0.196063,0.195711,3.65019,13,0.0128701,10,0.000714382,-2.43768,-0.310923,-0.189758,-27.0214,0.195711,
2,1,0,1,0,24819.1,0.197566,0.19725,3.61023,13,0.0129386,10,0.000712116,-2.44247,-0.331286,-0.178094,-25.1087,0.19725,
2,1,0,1,0,24819.1,0.199055,0.198751,3.58591,13,0.0130056,10,0.000712702,-2.4454,-0.394155,-0.149687,-20.9379,0.198751,
2,1,0,1,0,24819.1,0.200559,0.200234,3.55499,13,0.0130728,10,0.00071183,-2.44916,-0.433914,-0.135971,-18.833,0.200234,
2,1,0,1,0,24819.1,0.202062,0.201789,3.52807,13,0.0131395,10,0.000711927,-2.45246,-0.451759,-0.130601,-17.9431,0.201789,
2,1,0,1,0,24819.1,0.20355,0.203209,3.49881,13,0.013205,10,0.000710989,-2.45608,-0.555357,-0.106238,-14.5101,0.203209,
2,1,0,1,0,24819.1,0.205053,0.204697,3.47039,13,0.0132707,10,0.000710378,-2.45962,-0.869839,-0.0678286,-9.21526,0.204697,
2,1,0,1,0,24819.2,0.20655,0.206184,3.45319,13,0.0133357,10,0.000711994,-2.46178,-0.74404,-0.0792969,-10.6848,0.206184,
2,1,0,1,0,24819.2,0.208046,0.207725,3.43895,13,0.0134004,10,0.000714356,-2.46357,-0.670822,-0.0879519,-11.7917,0.207725,
2,1,0,1,0,24819.2,0.20955,0.209223,3.40938,13,0.0134651,10,0.000713322,-2.46732,-0.667702,-0.0883627,-11.7864,0.209223,
2,1,0,1,0,24819.2,0.211039,0.210719,3.39054,13,0.0135286,10,0.000714452,-2.46973,-0.668189,-0.0882984,-11.7106,0.210719,
2,1,0,1,0,24819.2,0.212543,0.212255,3.37371,13,0.0135925,10,0.000716086,-2.47189,-0.756792,-0.0779607,-10.2788,0.212255,
2,1,0,1,0,24819.3,0.214046,0.213745,3.35938,13,0.0136561,10,0.000718051,-2.47374,-0.655425,-0.0900179,-11.8114,0.213745,
2,1,0,1,0,24819.3,0.215535,0.21524,3.34632,13,0.0137188,10,0.000720262,-2.47543,-0.710078,-0.0830895,-10.8595,0.21524,
2,1,0,1,0,24819.3,0.217039,0.216741,3.32734,13,0.0137818,10,0.000721171,-2.4779,-0.628657,-0.0938509,-12.2075,0.216741,
2,1,0,1,0,24819.3,0.218543,0.218254,3.31957,13,0.0138445,10,0.000724509,-2.47892,-0.945914,-0.0623735,-8.08611,0.218254,
2,1,0,1,0,24819.3,0.22003,0.219731,3.31567,13,0.0139064,10,0.000728553,-2.47943,-0.998665,-0.0590788,-7.62345,0.219731,
2,1,0,1,0,24819.4,0.221534,0.221253,3.29947,13,0.0139687,10,0.000730016,-2.48156,-0.784611,-0.0751965,-9.67534,0.221253,
2,1,0,1,0,24819.4,0.22303,0.22273,3.2809,13,0.0140305,10,0.000730755,-2.48401,-0.956213,-0.0617017,-7.90545,0.22273,
2,1,0,1,0,24819.4,0.224526,0.224196,3.27561,13,0.014092,10,0.000734378,-2.48471,-0.879049,-0.067118,-8.57317,0.224196,
2,1,0,1,0,24819.4,0.22603,0.225734,3.26526,13,0.0141536,10,0.00073708,-2.48608,-1.19501,-0.0493719,-6.29052,0.225734,
2,1,0,1,0,24819.4,0.227519,0.227186,3.25682,13,0.0142144,10,0.000739905,-2.48721,-1.0435,-0.0565403,-7.18037,0.227186,
2,1,0,1,0,24819.4,0.229023,0.228732,3.24441,13,0.0142757,10,0.000742101,-2.48886,-1.55598,-0.0379182,-4.80184,0.228732,
2,1,0,1,0,24819.5,0.230526,0.230255,3.23027,13,0.0143368,10,0.000743785,-2.49076,-2.35798,-0.0250215,-3.1604,0.230255,
2,1,0,1,0,24819.5,0.232016,0.231731,3.22495,13,0.0143971,10,0.000747323,-2.49148,-1.65632,-0.0356211,-4.48947,0.231731,
2,1,0,1,0,24819.5,0.233519,0.233195,3.21799,13,0.014458,10,0.000750419,-2.49242,-1.65245,-0.0357045,-4.48204,0.233195,
2,1,0,1,0,24819.5,0.235023,0.234692,3.20535,13,0.0145186,10,0.000752271,-2.49412,-1.88371,-0.0313211,-3.92558,0.234692,
2,1,0,1,0,24819.5,0.23651,0.236191,3.19938,13,0.0145785,10,0.000755666,-2.49493,-1.30581,-0.0451826,-5.64781,0.236191,
2,1,0,1,0,24819.6,0.238014,0.237724,3.19183,13,0.0146388,10,0.000758773,-2.49596,-1.47772,-0.0399264,-4.9796,0.237724,
2,1,0,1,0,24819.6,0.23951,0.239237,3.18467,13,0.0146987,10,0.000761889,-2.49694,-1.08874,-0.0541913,-6.73732,0.239237,
2,1,0,1,0,24819.6,0.241006,0.240696,3.17742,13,0.0147585,10,0.000764793,-2.49793,-1.0359,-0.0569554,-7.07292,0.240696,
2,1,0,1,0,24819.6,0.24251,0.242199,3.16593,13,0.0148184,10,0.000766785,-2.4995,-1.29094,-0.0457032,-5.66016,0.242199,
2,1,0,1,0,24819.6,0.243999,0.243764,3.16732,13,0.0148776,10,0.000772076,-2.49931,-1.66477,-0.0354403,-4.38388,0.243764,
2,1,0,1,0,24819.7,0.245503,0.245229,3.1644,13,0.0149373,10,0.000776004,-2.49971,-1.38305,-0.0426594,-5.26324,0.245229,
2,1,0,1,0,24819.7,0.247006,0.246683,3.15934,13,0.014997,10,0.000779356,-2.5004,-1.39661,-0.0422451,-5.19826,0.246683,
2,1,0,1,0,24819.7,0.248496,0.248204,3.15352,13,0.0150558,10,0.000782717,-2.5012,-1.65641,-0.0356191,-4.37886,0.248204,
2,1,0,1,0,24819.7,0.249999,0.249683,3.14605,13,0.0151152,10,0.000785514,-2.50223,-1.64389,-0.0358906,-4.40572,0.249683,
2,1,0,1,0,24819.7,0.251503,0.251222,3.14627,13,0.0151744,10,0.000790411,-2.5022,-3.42381,-0.0172323,-2.11011,0.251222,
2,1,0,1,0,24819.7,0.25299,0.252685,3.13456,13,0.0152329,10,0.000792056,-2.50382,-2.66828,-0.0221116,-2.69963,0.252685,
2,1,0,1,0,24819.8,0.254494,0.2542,3.12811,13,0.015292,10,0.000795167,-2.50472,-2.39371,-0.0246479,-3.00671,0.2542,
2,1,0,1,0,24819.8,0.25599,0.255684,3.11867,13,0.0153506,10,0.000797396,-2.50603,-3.94762,-0.0149457,-1.82101,0.255684,
2,1,0,1,0,24819.8,0.257487,0.257217,3.11337,13,0.0154091,10,0.000800812,-2.50677,18.1686,0.00324736,0.394747,0.257217,
2,1,0,1,0,24819.8,0.25899,0.258681,3.1109,13,0.0154679,10,0.000804731,-2.50711,-2.86485,-0.0205945,-2.49911,0.2586807,
2,1,0,1,0,24819.8,0.260479,0.260209,3.10872,13,0.015526,10,0.000808915,-2.50742,-1.45083,-0.0406664,-4.92922,0.2602087,
2,1,0,1,0,24819.9,0.261983,0.261703,3.09594,13,0.0155845,10,0.000810219,-2.50921,-1.5049,-0.0392053,-4.74417,0.261703,
2,1,0,1,0,24819.9,0.263486,0.263192,3.09186,13,0.015643,10,0.000813753,-2.50978,-4.10597,-0.0143693,-1.7351,0.263192,
2,1,0,1,0,24819.9,0.264974,0.26471,3.08883,13,0.0157007,10,0.000817643,-2.51021,-1.2649,-0.0466442,-5.62473,0.26471,
2,1,0,1,0,24819.9,0.266477,0.266168,3.08194,13,0.015759,10,0.000820315,-2.51118,-1.31866,-0.0447422,-5.3887,0.266168,
2,1,0,1,0,24819.9,0.267981,0.267703,3.07849,13,0.0158171,10,0.000824122,-2.51166,-1.75746,-0.0335711,-4.03547,0.267703,
2,1,0,1,0,24820,0.26947,0.269192,3.07497,13,0.0158746,10,0.000827758,-2.51216,-1.77791,-0.0331851,-3.98196,0.269192,
2,1,0,1,0,24820,0.270974,0.270685,3.07774,13,0.0159325,10,0.000833097,-2.51177,-1.49254,-0.03953,-4.73271,0.270685,
2,1,0,1,0,24820,0.27247,0.272149,3.06966,13,0.0159902,10,0.000835403,-2.51291,-1.73287,-0.0340476,-4.06642,0.2721487,
2,1,0,1,0,24820,0.273967,0.273659,3.05924,13,0.0160476,10,0.000837189,-2.51439,-1.90304,-0.031003,-3.69927,0.273659,
2,1,0,1,0,24820,0.27547,0.27514,3.05375,13,0.0161053,10,0.000840209,-2.51517,-2.65463,-0.0222253,-2.64911,0.27514,
2,1,0,1,0,24820,0.276959,0.276638,3.05348,13,0.0161622,10,0.000844708,-2.51521,-7.54927,-0.00781533,-0.929552,0.276638,
2,1,0,1,0,24820.1,0.278463,0.278154,3.04352,13,0.0162197,10,0.000846569,-2.51662,-4.65886,-0.012664,-1.5015,0.278154,
2,1,0,1,0,24820.1,0.279967,0.279662,3.03705,13,0.0162771,10,0.000849347,-2.51755,-2.67472,-0.0220584,-2.61577,0.279662,
2,1,0,1,0,24820.1,0.281454,0.281152,3.02848,13,0.0163338,10,0.000851464,-2.51878,-4.26945,-0.0138191,-1.63741,0.281152,
2,1,0,1,0,24820.1,0.282958,0.282702,3.02267,13,0.0163909,10,0.000854514,-2.51961,-9.80617,-0.00601662,-0.710908,0.282702,
2,1,0,1,0,24820.1,0.284461,0.284181,3.02236,13,0.0164481,10,0.000858898,-2.51965,-2.09377,-0.0281788,-3.32159,0.284181,
2,1,0,1,0,24820.2,0.28595,0.285656,3.01964,13,0.0165045,10,0.000862578,-2.52004,-1.18968,-0.049593,-5.83916,0.285656,
2,1,0,1,0,24820.2,0.287454,0.287152,3.00633,13,0.0165614,10,0.000863272,-2.52196,-1.23009,-0.047964,-5.63419,0.287152,
2,1,0,1,0,24820.2,0.28895,0.288629,3.00255,13,0.0166178,10,0.000866624,-2.52251,-2.01516,-0.0292781,-3.43339,0.288629,
2,1,0,1,0,24820.2,0.290447,0.290163,3.00045,13,0.0166742,10,0.000870622,-2.52281,-1.38142,-0.0427096,-5.0069,0.290163,
2,1,0,1,0,24820.2,0.29195,0.291661,2.99781,13,0.0167308,10,0.000874343,-2.5232,-1.22584,-0.0481301,-5.63034,0.291661,
2,1,0,1,0,24820.3,0.29344,0.293131,2.99172,13,0.0167867,10,0.000876963,-2.52408,-1.45936,-0.0404287,-4.71735,0.293131,
2,1,0,1,0,24820.3,0.294943,0.294666,2.98454,13,0.016843,10,0.000879442,-2.52512,-2.63265,-0.0224109,-2.61022,0.294666,
2,1,0,1,0,24820.3,0.296447,0.296152,2.9864,13,0.0168993,10,0.000884429,-2.52485,-3.22618,-0.0182879,-2.12695,0.296152,
2,1,0,1,0,24820.3,0.297934,0.297624,2.98127,13,0.0169549,10,0.000887295,-2.5256,-3.12422,-0.0188847,-2.19192,0.2976236,
2,1,0,1,0,24820.3,0.299438,0.29918,2.96934,13,0.017011,10,0.000888366,-2.52734,-0.0261737,-2.25417,-237.227,0.29918,
2,1,0,1,0,24820.3,0.300012,0.299766,2.96119,13,0.0170319,10,0.000887663,-2.52853,0.00133894,44.0647,2952.79,0.299766,
2,1,0,1,0,24820.3,0.298737,0.298434,1.26534,13,0.0170627,10,0.000377621,-2.89779,0.00233338,25.2852,890.819,0.298434,
2,1,0,1,0,24820.4,0.29724,0.296941,0.333519,13,0.0170764,10,9.90355e-05,-3.47688,0.00538548,10.9554,507.087,0.296941,
2,0,0,1,0,24820.4,0.295744,0.29543,-0.176859,13,0.0170772,10,-5.22496e-05,-3.75237,-1.76708,-0.0333885,288.211,0.29543,
2,0,0,1,0,24820.4,0.29424,0.293926,-0.502445,13,0.0170703,10,-0.000147682,-3.29891,-0.00334134,-17.6576,180.66,0.293926,
2,0,0,1,0,24820.4,0.292751,0.292431,-0.714494,13,0.0170586,10,-0.00020894,-3.146,-0.0117317,-5.02911,124.188,0.292431,
2,0,0,1,0,24820.4,0.291248,0.290936,-0.870083,13,0.0170435,10,-0.000253138,-3.06044,-0.0209982,-2.80977,90.7795,0.290936,
2,0,0,1,0,24820.5,0.289744,0.289389,-0.996954,13,0.0170257,10,-0.000288508,-3.00132,-0.0313983,-1.87908,70.5058,0.289389,
2,0,0,1,0,24820.5,0.288257,0.287962,-1.08568,13,0.0170062,10,-0.000312635,-2.9643,-0.0433282,-1.3617,56.5424,0.287962,
2,0,0,1,0,24820.5,0.286753,0.286421,-1.15796,13,0.0169849,10,-0.000331664,-2.93631,-0.0540743,-1.09109,48.9108,0.2864207,
2,0,0,1,0,24820.5,0.285249,0.284934,-1.22785,13,0.0169623,10,-0.000349856,-2.91085,-0.0647896,-0.910639,43.379,0.284934,
2,0,0,1,0,24820.5,0.28376,0.283437,-1.28996,13,0.0169387,10,-0.000365623,-2.88942,-0.0740729,-0.796512,39.7349,0.283437,
2,0,0,1,0,24820.6,0.282257,0.28191,-1.34932,13,0.0169137,10,-0.000380386,-2.86989,-0.0883418,-0.66786,34.7765,0.28191,
2,0,0,1,0,24820.6,0.28076,0.280413,-1.38875,13,0.016888,10,-0.000389424,-2.85738,-0.09782,-0.603148,32.5409,0.280413,
2,0,0,1,0,24820.6,0.279264,0.278942,-1.4282,13,0.0168614,10,-0.000398385,-2.84521,-0.1125,-0.524444,29.2885,0.278942,
2,0,0,1,0,24820.6,0.27776,0.27747,-1.46916,13,0.016834,10,-0.000407649,-2.83293,-0.123774,-0.476676,27.3391,0.27747,
2,0,0,1,0,24820.6,0.276271,0.27598,-1.5079,13,0.016806,10,-0.000416152,-2.82163,-0.136596,-0.43193,25.4023,0.27598,
2,0,0,1,0,24820.6,0.274767,0.27442,-1.54893,13,0.016777,10,-0.000425059,-2.80997,-0.15213,-0.387826,23.3742,0.27442,
2,0,0,1,0,24820.7,0.273264,0.272942,-1.57252,13,0.0167475,10,-0.000429207,-2.8034,-0.1819,-0.324355,19.993,0.272942,
2,0,0,1,0,24820.7,0.271776,0.271468,-1.61062,13,0.0167176,10,-0.000437232,-2.79301,-0.17644,-0.334391,21.0399,0.271468,
2,0,0,1,0,24820.7,0.270273,0.26998,-1.64255,13,0.0166868,10,-0.000443456,-2.78448,-0.196446,-0.300337,19.2687,0.26998,
2,0,0,1,0,24820.7,0.268769,0.268423,-1.66994,13,0.0166555,10,-0.000448252,-2.7773,-0.236906,-0.249044,16.2216,0.268423,
2,0,0,1,0,24820.7,0.26728,0.266978,-1.69749,13,0.0166239,10,-0.000453193,-2.77019,-0.234838,-0.251238,16.6498,0.266978,
2,0,0,1,0,24820.8,0.265777,0.265469,-1.72885,13,0.0165915,10,-0.000458956,-2.76224,-0.264334,-0.223203,15.038,0.265469,
2,0,0,1,0,24820.8,0.26428,0.263976,-1.75335,13,0.0165588,10,-0.000462841,-2.75613,-0.244269,-0.241537,16.4839,0.263976,
2,0,0,1,0,24820.8,0.262784,0.262459,-1.78139,13,0.0165256,10,-0.00046754,-2.74924,-0.251968,-0.234157,16.2446,0.262459,
2,0,0,1,0,24820.8,0.26128,0.260975,-1.8056,13,0.0164918,10,-0.000471217,-2.74338,-0.271106,-0.217627,15.2928,0.260975,
2,0,0,1,0,24820.8,0.259791,0.259467,-1.82934,13,0.0164579,10,-0.000474654,-2.7377,-0.245359,-0.240464,17.1556,0.259467,
2,0,0,1,0,24820.9,0.258287,0.25798,-1.84833,13,0.0164232,10,-0.000476833,-2.73322,-0.236675,-0.249287,17.9473,0.25798,
2,0,0,1,0,24820.9,0.256786,0.256477,-1.87016,13,0.016388,10,-0.000479652,-2.72812,-0.260689,-0.226323,16.4885,0.256477,
2,0,0,1,0,24820.9,0.255296,0.25495,-1.89562,13,0.0163528,10,-0.000483287,-2.72225,-0.288549,-0.204471,15.0723,0.25495,
2,0,0,1,0,24820.9,0.253793,0.253453,-1.91115,13,0.0163169,10,-0.000484387,-2.7187,-0.291079,-0.202694,15.1345,0.253453,
2,0,0,1,0,24820.9,0.252289,0.251957,-1.92893,13,0.0162806,10,-0.000486007,-2.71468,-0.255594,-0.230835,17.3795,0.251957,
2,0,0,1,0,24820.9,0.2508,0.250476,-1.95077,13,0.0162442,10,-0.000488623,-2.70979,-0.33989,-0.173586,13.2282,0.250476,
2,0,0,1,0,24821,0.249296,0.248994,-1.96732,13,0.0162071,10,-0.000489852,-2.70612,-0.374507,-0.15754,12.1169,0.248994,
2,0,0,1,0,24821,0.2478,0.247491,-1.98522,13,0.0161699,10,-0.000491323,-2.70219,-0.398656,-0.147997,11.4975,0.2474909,
2,0,0,1,0,24821,0.246304,0.246001,-2.00856,13,0.0161323,10,-0.000494108,-2.69711,-0.351453,-0.167874,13.1701,0.246001,
2,0,0,1,0,24821,0.2448,0.244473,-2.03111,13,0.0160942,10,-0.000496551,-2.69227,-0.365274,-0.161523,12.7787,0.244473,
2,0,0,1,0,24821,0.243313,0.242979,-2.05202,13,0.016056,10,-0.000498599,-2.68782,-0.468307,-0.125986,10.0433,0.242979,
2,0,0,1,0,24821.1,0.241809,0.241457,-2.06426,13,0.0160171,10,-0.000498431,-2.68524,-0.46216,-0.127661,10.2924,0.241457,
2,0,0,1,0,24821.1,0.240306,0.239966,-2.08572,13,0.015978,10,-0.000500503,-2.68074,-0.386785,-0.15254,12.4056,0.239966,
2,0,0,1,0,24821.1,0.238816,0.238504,-2.10544,13,0.0159389,10,-0.000502156,-2.67666,-0.47916,-0.123132,10.0777,0.238504,
2,0,0,1,0,24821.1,0.237313,0.23696,-2.12169,13,0.0158991,10,-0.000502757,-2.67332,-0.413391,-0.142722,11.7816,0.23696,
2,0,0,1,0,24821.1,0.235809,0.235497,-2.13727,13,0.0158589,10,-0.000503321,-2.67014,-0.395343,-0.149237,12.4329,0.235497,
2,0,0,1,0,24821.2,0.23432,0.233992,-2.15354,13,0.0158189,10,-0.000503913,-2.66685,-0.360697,-0.163572,13.736,0.233992,
2,0,0,1,0,24821.2,0.232816,0.232529,-2.16663,13,0.0157781,10,-0.000503806,-2.66421,-0.391903,-0.150547,12.732,0.232529,
2,0,0,1,0,24821.2,0.23132,0.231021,-2.19099,13,0.0157372,10,-0.000506165,-2.65936,-0.415094,-0.142137,12.1162,0.231021,
2,0,0,1,0,24821.2,0.229824,0.229504,-2.20156,13,0.015696,10,-0.000505268,-2.65727,-0.433124,-0.13622,11.7044,0.229504,
2,0,0,1,0,24821.2,0.22832,0.227982,-2.21512,13,0.0156542,10,-0.000505008,-2.6546,-0.420586,-0.14028,12.1559,0.227982,
2,0,0,1,0,24821.2,0.226833,0.226491,-2.23066,13,0.0156127,10,-0.000505223,-2.65157,-0.39696,-0.14863,12.9548,0.226491,
2,0,0,1,0,24821.3,0.225329,0.224996,-2.24486,13,0.0155703,10,-0.000505085,-2.64881,-0.590217,-0.0999632,8.77252,0.224996,
2,0,0,1,0,24821.3,0.223825,0.223523,-2.26274,13,0.0155276,10,-0.000505775,-2.64536,-0.739784,-0.079753,7.05421,0.223523,
2,0,0,1,0,24821.3,0.222336,0.222027,-2.27306,13,0.0154851,10,-0.00050468,-2.64339,-0.572447,-0.103066,9.18282,0.222027,
2,0,0,1,0,24821.3,0.220833,0.220534,-2.29235,13,0.015442,10,-0.000505541,-2.63972,-0.472686,-0.124819,11.1963,0.220534,
2,0,0,1,0,24821.3,0.219329,0.218959,-2.32025,13,0.0153984,10,-0.000508039,-2.63447,-0.51589,-0.114365,10.3287,0.218959,
2,0,0,1,0,24821.4,0.21784,0.217498,-2.33163,13,0.0153549,10,-0.000507126,-2.63234,-0.687866,-0.0857725,7.79369,0.217498,
2,0,0,1,0,24821.4,0.216336,0.216034,-2.34716,13,0.0153107,10,-0.000507068,-2.62946,-0.750915,-0.0785708,7.19709,0.216034,
2,0,0,1,0,24821.4,0.21484,0.214487,-2.36047,13,0.0152666,10,-0.000506288,-2.627,-0.542049,-0.108846,10.0399,0.214487,
2,0,0,1,0,24821.4,0.213343,0.213024,-2.38225,13,0.0152221,10,-0.000507475,-2.62301,-0.476782,-0.123746,11.4797,0.2130235,
2,0,0,1,0,24821.4,0.21184,0.211505,-2.39877,13,0.015177,10,-0.000507352,-2.62001,-0.577847,-0.102103,9.51989,0.211505,
2,0,0,1,0,24821.5,0.210352,0.210026,-2.41231,13,0.0151322,10,-0.000506649,-2.61757,-0.457188,-0.12905,12.1495,0.210026,
2,0,0,1,0,24821.5,0.208849,0.208553,-2.41953,13,0.0150866,10,-0.0005046,-2.61627,-0.380197,-0.155183,14.7114,0.208553,
2,0,0,1,0,24821.5,0.207345,0.207037,-2.44063,13,0.0150407,10,-0.000505299,-2.6125,-0.37525,-0.157228,15.0024,0.207037,
2,0,0,1,0,24821.5,0.205856,0.205534,-2.46155,13,0.0149948,10,-0.000505931,-2.60879,-0.443099,-0.133153,12.7806,0.205534,
2,0,0,1,0,24821.5,0.204353,0.204054,-2.47491,13,0.0149481,10,-0.000505015,-2.60644,-0.622932,-0.0947133,9.16463,0.204054,
2,0,0,1,0,24821.5,0.202849,0.202523,-2.48579,13,0.0149013,10,-0.00050343,-2.60454,-0.530615,-0.111192,10.8204,0.202523,
2,0,0,1,0,24821.6,0.20136,0.201054,-2.5048,13,0.0148546,10,-0.000503602,-2.60123,-0.460915,-0.128006,12.5291,0.201054,
2,0,0,1,0,24821.6,0.199856,0.199537,-2.52346,13,0.0148071,10,-0.000503523,-2.598,-0.520799,-0.113288,11.1683,0.199537,
2,0,0,1,0,24821.6,0.19836,0.198028,-2.54075,13,0.0147594,10,-0.000503141,-2.59504,-0.664572,-0.088779,8.81546,0.198028,
2,0,0,1,0,24821.6,0.196863,0.196552,-2.55499,13,0.0147115,10,-0.000502189,-2.59261,-0.63856,-0.0923953,9.23168,0.196552,
2,0,0,1,0,24821.6,0.19536,0.194999,-2.57967,13,0.0146631,10,-0.000503033,-2.58844,-0.557077,-0.10591,10.6589,0.194999,
2,0,0,1,0,24821.7,0.193872,0.193479,-2.60382,13,0.0146148,10,-0.000503784,-2.58439,-0.471302,-0.125185,12.6739,0.193479,
2,0,0,1,0,24821.7,0.192369,0.192021,-2.62687,13,0.0145655,10,-0.000504414,-2.58056,-0.565044,-0.104417,10.6453,0.192021,
2,0,0,1,0,24821.7,0.190865,0.190555,-2.63383,13,0.014516,10,-0.00050189,-2.57941,-0.53954,-0.109352,11.2475,0.190555,
2,0,0,1,0,24821.7,0.189376,0.189047,-2.65753,13,0.0144667,10,-0.000502398,-2.57552,-0.429138,-0.137485,14.2622,0.189047,
2,0,0,1,0,24821.7,0.187872,0.187533,-2.67545,13,0.0144164,10,-0.000501735,-2.5726,-0.364918,-0.16168,16.8702,0.1875331,
2,0,0,1,0,24821.8,0.186369,0.18602,-2.69452,13,0.0143658,10,-0.000501235,-2.56952,-0.426246,-0.138418,14.5428,0.18602,
2,0,0,1,0,24821.8,0.18488,0.184538,-2.71627,13,0.0143152,10,-0.000501257,-2.56603,-0.401049,-0.147114,15.5901,0.184538,
2,0,0,1,0,24821.8,0.183376,0.183055,-2.73213,13,0.0142638,10,-0.000500129,-2.5635,-0.430587,-0.137022,14.6602,0.183055,
2,0,0,1,0,24821.8,0.18188,0.181568,-2.75697,13,0.0142123,10,-0.000500576,-2.55957,-0.339501,-0.173784,18.7196,0.181568,
2,0,0,1,0,24821.8,0.180383,0.180068,-2.78138,13,0.0141603,10,-0.000500835,-2.55574,-0.355843,-0.165803,18.0032,0.180068,
2,0,0,1,0,24821.8,0.17888,0.178555,-2.80597,13,0.0141075,10,-0.000501018,-2.55192,-0.395262,-0.149268,16.3595,0.178555,
2,0,0,1,0,24821.9,0.177392,0.177051,-2.8232,13,0.0140549,10,-0.000499851,-2.54926,-0.410655,-0.143673,15.9055,0.177051,
2,0,0,1,0,24821.9,0.175889,0.175561,-2.85413,13,0.0140012,10,-0.000501073,-2.54453,-0.348734,-0.169183,18.8547,0.175561,
2,0,0,1,0,24821.9,0.174385,0.174039,-2.88356,13,0.013947,10,-0.000501852,-2.54007,-0.381308,-0.154731,17.418,0.174039,
2,0,0,1,0,24821.9,0.172896,0.17257,-2.91365,13,0.0138929,10,-0.000502808,-2.53556,-0.378791,-0.155759,17.7151,0.17257,
2,0,0,1,0,24821.9,0.171392,0.171043,-2.94181,13,0.0138376,10,-0.000503176,-2.53139,-0.357601,-0.164988,18.9741,0.171043,
2,0,0,1,0,24822,0.169889,0.169529,-2.98062,13,0.0137818,10,-0.000505302,-2.52569,-0.305722,-0.192986,22.476,0.169529,
2,0,0,1,0,24822,0.1684,0.168054,-3.02395,13,0.0137259,10,-0.000508188,-2.51943,-0.3048,-0.193569,22.7684,0.168054,
2,0,0,1,0,24822,0.166896,0.166548,-3.05918,13,0.0136686,10,-0.000509499,-2.51439,-0.302702,-0.194911,23.1842,0.166548,
2,0,0,1,0,24822,0.165392,0.165048,-3.09304,13,0.0136107,10,-0.0005105,-2.50961,-0.256134,-0.230348,27.8105,0.165048,
2,0,0,1,0,24822,0.163905,0.163597,-3.13451,13,0.0135527,10,-0.000512795,-2.50383,-0.242787,-0.243012,29.7375,0.163597,
2,0,0,1,0,24822.1,0.162401,0.162025,-3.17816,13,0.0134933,10,-0.000514941,-2.49782,-0.218046,-0.270585,33.5717,0.162025,
2,0,0,1,0,24822.1,0.160905,0.160567,-3.22194,13,0.0134332,10,-0.000517337,-2.49188,-0.217497,-0.271269,34.1355,0.160567,
2,0,0,1,0,24822.1,0.159409,0.159065,-3.27818,13,0.0133722,10,-0.000521445,-2.48437,-0.202907,-0.290774,37.1827,0.159065,
2,0,0,1,0,24822.1,0.157905,0.157556,-3.32701,13,0.01331,10,-0.000524191,-2.47795,-0.194408,-0.303485,39.5093,0.1575561,
2,0,0,1,0,24822.1,0.156416,0.156089,-3.38779,13,0.0132473,10,-0.000528798,-2.47008,-0.174627,-0.337864,44.7755,0.156089,
2,0,0,1,0,24822.1,0.154912,0.154549,-3.45965,13,0.0131826,10,-0.000534685,-2.46097,-0.163914,-0.359945,48.729,0.154549,
2,0,0,1,0,24822.2,0.153409,0.153057,-3.52978,13,0.0131166,10,-0.000540256,-2.45225,-0.161884,-0.364458,50.4047,0.153057,
2,0,0,1,0,24822.2,0.151919,0.151612,-3.6118,13,0.0130499,10,-0.000547592,-2.44228,-0.154058,-0.382972,54.1855,0.151612,
2,0,0,1,0,24822.2,0.150416,0.150092,-3.70153,13,0.0129809,10,-0.00055557,-2.43162,-0.133538,-0.44182,63.9559,0.150092,
2,0,0,1,0,24822.2,0.148912,0.148625,-3.80459,13,0.0129101,10,-0.000565456,-2.41969,-0.130024,-0.453762,67.5014,0.1486246,
2,0,0,1,0,24822.2,0.147425,0.147087,-3.91568,13,0.0128382,10,-0.000575946,-2.40719,-0.12425,-0.474847,72.5778,0.147087,
2,0,0,1,0,24822.3,0.145921,0.145616,-4.02469,13,0.0127634,10,-0.00058606,-2.39527,-0.115136,-0.512438,80.7818,0.145616,
2,0,0,1,0,24822.3,0.144425,0.144102,-4.15988,13,0.0126866,10,-0.000599447,-2.38092,-0.10476,-0.563194,91.6193,0.144102,
2,0,0,1,0,24822.3,0.142929,0.142642,-4.30868,13,0.0126074,10,-0.000614599,-2.36566,-0.0997981,-0.591194,99.3974,0.1426421,
2,0,0,1,0,24822.3,0.141425,0.141142,-4.46155,13,0.0125248,10,-0.000629714,-2.35051,-0.0962247,-0.613148,106.679,0.141142,
2,0,0,1,0,24822.3,0.139936,0.13962,-4.62814,13,0.0124402,10,-0.00064618,-2.33459,-0.0933877,-0.631775,114.176,0.13962,
2,0,0,1,0,24822.4,0.138432,0.138111,-4.80154,13,0.0123515,10,-0.000663143,-2.31862,-0.089578,-0.658644,123.49,0.138111,
2,0,0,1,0,24822.4,0.136929,0.136585,-4.98982,13,0.0122593,10,-0.000681534,-2.30192,-0.0891556,-0.661765,128.818,0.136585,
2,0,0,1,0,24822.4,0.135439,0.135114,-5.17774,13,0.0121645,10,-0.000699583,-2.28586,-0.0912373,-0.646665,130.624,0.135114,
2,0,0,1,0,24822.4,0.133936,0.133589,-5.36961,13,0.0120652,10,-0.000717321,-2.27006,-0.0908893,-0.649141,136.223,0.133589,
2,0,0,1,0,24822.4,0.132432,0.132107,-5.57448,13,0.011962,10,-0.000736427,-2.2538,-0.0928745,-0.635266,138.235,0.1321069,
2,0,0,1,0,24822.4,0.130945,0.130569,-5.78544,13,0.0118561,10,-0.000755399,-2.23766,-0.0917652,-0.642945,145.18,0.130569,
2,0,0,1,0,24822.5,0.129441,0.129066,-5.99409,13,0.011745,10,-0.00077363,-2.22228,-0.101191,-0.583057,136.393,0.129066,
2,0,0,1,0,24822.5,0.127945,0.127588,-6.19853,13,0.0116306,10,-0.000790858,-2.20771,-0.107908,-0.546761,132.196,0.127588,
2,0,0,1,0,24822.5,0.126448,0.126162,-6.39693,13,0.0115126,10,-0.000807051,-2.19403,-0.11488,-0.51358,128.262,0.126162,
2,0,0,1,0,24822.5,0.124945,0.124632,-6.59877,13,0.0113902,10,-0.000822419,-2.18054,-0.120785,-0.488471,125.549,0.124632,
2,0,0,1,0,24822.5,0.123456,0.123125,-6.78396,13,0.0112655,10,-0.000835276,-2.16852,-0.129488,-0.45564,120.419,0.123125,
2,0,0,1,0,24822.6,0.121952,0.121615,-6.96645,13,0.0111361,10,-0.000847227,-2.15699,-0.140152,-0.420972,114.213,0.121615,
2,0,0,1,0,24822.6,0.120449,0.120117,-7.13014,13,0.0110034,10,-0.000856451,-2.1469,-0.154914,-0.380857,105.838,0.120117,
2,0,0,1,0,24822.6,0.118959,0.118656,-7.29493,13,0.0108691,10,-0.000865588,-2.13698,-0.162179,-0.363796,103.356,0.118656,
2,0,0,1,0,24822.6,0.117456,0.117135,-7.4458,13,0.0107305,10,-0.00087216,-2.12809,-0.169285,-0.348524,101.055,0.117135,
2,0,0,1,0,24822.6,0.115952,0.115644,-7.5889,13,0.0105889,10,-0.000877612,-2.11982,-0.188716,-0.31264,92.338,0.1156441,
2,0,0,1,0,24822.7,0.114465,0.11416,-7.71789,13,0.0104464,10,-0.000881075,-2.1125,-0.210171,-0.280724,84.3796,0.11416,
2,0,0,1,0,24822.7,0.112961,0.112628,-7.82464,13,0.0103002,10,-0.00088127,-2.10654,-0.232274,-0.25401,77.57,0.112628,
2,0,0,1,0,24822.7,0.111465,0.111095,-7.93917,13,0.0101526,10,-0.000882004,-2.10022,-0.250573,-0.23546,72.855,0.111095,
2,0,0,1,0,24822.7,0.109968,0.109666,-8.02952,13,0.010003,10,-0.000880563,-2.09531,-0.294135,-0.200588,62.8237,0.109666,
2,0,0,1,0,24822.7,0.108465,0.108134,-8.12054,13,0.00985078,10,-0.000878109,-2.09042,-0.343789,-0.171617,54.3285,0.108134,
2,0,0,1,0,24822.7,0.106976,0.106691,-8.19496,13,0.00969878,10,-0.000874332,-2.08645,-0.42201,-0.139807,44.6801,0.106691,
2,0,0,1,0,24822.8,0.105472,0.105155,-8.25391,13,0.00954388,10,-0.00086794,-2.08334,-0.482429,-0.122298,39.3823,0.105155,
2,0,0,1,0,24822.8,0.103968,0.103657,-8.31573,13,0.00938786,10,-0.000861984,-2.0801,-0.652979,-0.0903551,29.2871,0.103657,
2,0,0,1,0,24822.8,0.102479,0.102123,-8.34772,13,0.00923261,10,-0.000852499,-2.07843,-1.20188,-0.0490898,15.9735,0.102123,
2,0,0,1,0,24822.8,0.100976,0.100651,-8.37229,13,0.00907518,10,-0.000842682,-2.07716,-2.16273,-0.0272803,8.90896,0.100651,
2,0,0,1,0,24822.8,0.0994721,0.0991629,-8.39183,13,0.00891743,10,-0.000832158,-2.07614,-4.30237,-0.0137134,4.48362,0.0991629,
2,0,0,1,0,24822.9,0.0979846,0.0976884,-8.39314,13,0.00876119,10,-0.000819912,-2.07608,5.7908,0.0101886,-3.33223,0.0976884,
2,0,0,1,0,24822.9,0.0964811,0.0961399,-8.38792,13,0.00860332,10,-0.000806414,-2.07635,1.40487,0.0419968,-13.7127,0.0961399,
2,0,0,1,0,24822.9,0.0949847,0.0946564,-8.35619,13,0.0084466,10,-0.000790967,-2.07799,1.01364,0.0582059,-18.9655,0.0946564,
2,0,0,1,0,24822.9,0.0934883,0.0932148,-8.32454,13,0.00829054,10,-0.00077597,-2.07964,0.812391,0.0726252,-23.5758,0.0932148,
2,0,0,1,0,24822.9,0.0919847,0.0916776,-8.28515,13,0.00813429,10,-0.000759563,-2.0817,0.672421,0.0877427,-28.3265,0.0916776,
2,0,0,1,0,24823,0.0904955,0.0901711,-8.23503,13,0.0079805,10,-0.000742562,-2.08433,0.528974,0.111537,-35.7707,0.0901711,
2,0,0,1,0,24823,0.0889919,0.088655,-8.17549,13,0.00782611,10,-0.000724798,-2.08749,0.459399,0.128429,-40.9297,0.088655,
2,0,0,1,0,24823,0.0874884,0.0871812,-8.09784,13,0.00767301,10,-0.000705979,-2.09163,0.432184,0.136516,-43.171,0.0871812,
2,0,0,1,0,24823,0.0860009,0.0856896,-8.03024,13,0.0075228,10,-0.000688108,-2.09527,0.412604,0.142994,-44.7984,0.0856896,
2,0,0,1,0,24823,0.0844974,0.0841848,-7.95873,13,0.00737228,10,-0.000670004,-2.09916,0.399157,0.147812,-45.9085,0.0841848,
2,0,0,1,0,24823,0.0829938,0.0826697,-7.88367,13,0.00722308,10,-0.000651741,-2.10327,0.377153,0.156435,-48.166,0.0826697,
2,0,0,1,0,24823.1,0.0815045,0.0811857,-7.8118,13,0.00707686,10,-0.000634206,-2.10725,0.383715,0.15376,-46.9179,0.0811857,
2,0,0,1,0,24823.1,0.080001,0.0796921,-7.74286,13,0.00693041,10,-0.000617045,-2.1111,0.40225,0.146675,-44.3602,0.0796921,
2,0,0,1,0,24823.1,0.0785046,0.0781861,-7.68493,13,0.00678592,10,-0.000600854,-2.11436,0.417657,0.141264,-42.3879,0.0781861,
2,0,0,1,0,24823.1,0.0770082,0.0766692,-7.62842,13,0.0066426,10,-0.000584864,-2.11757,0.412912,0.142888,-42.5111,0.0766692,
2,0,0,1,0,24823.1,0.0755046,0.0751572,-7.55757,13,0.00649966,10,-0.000568005,-2.12162,0.441105,0.133755,-39.5073,0.07515718,
2,0,0,1,0,24823.2,0.0740154,0.0736728,-7.51365,13,0.00635933,10,-0.000553551,-2.12415,0.476629,0.123786,-36.2982,0.0736728,
2,0,0,1,0,24823.2,0.0725118,0.072124,-7.46307,13,0.00621845,10,-0.000538267,-2.12708,0.498221,0.118421,-34.4831,0.072124,
2,0,0,1,0,24823.2,0.0710083,0.0706717,-7.41596,13,0.00607845,10,-0.000524098,-2.12983,0.561213,0.105129,-30.4093,0.0706717,
2,0,0,1,0,24823.2,0.0695208,0.0692163,-7.37216,13,0.0059408,10,-0.000510273,-2.13241,0.602613,0.0979069,-28.168,0.0692163,
2,0,0,1,0,24823.2,0.0680173,0.0677131,-7.32991,13,0.00580251,10,-0.000496331,-2.1349,0.672384,0.0877474,-25.121,0.0677131,
2,0,0,1,0,24823.3,0.0665137,0.066178,-7.29098,13,0.00566494,10,-0.000482502,-2.13721,0.804492,0.0733382,-20.8718,0.066178,
2,0,0,1,0,24823.3,0.0650244,0.0647127,-7.25741,13,0.00552945,10,-0.000469646,-2.13922,0.723392,0.0815602,-23.0827,0.0647127,
2,0,0,1,0,24823.3,0.0635209,0.0631863,-7.21682,13,0.00539318,10,-0.000456005,-2.14165,0.697969,0.084531,-23.8131,0.0631863,
2,0,0,1,0,24823.3,0.0620245,0.061744,-7.17762,13,0.00525837,10,-0.000443175,-2.14402,0.711918,0.0828748,-23.2242,0.061744,
2,0,0,1,0,24823.3,0.0605281,0.0602122,-7.14478,13,0.00512423,10,-0.000430203,-2.14601,0.740012,0.0797284,-22.2436,0.0602122,
2,0,0,1,0,24823.3,0.0590246,0.0586811,-7.10727,13,0.00498999,10,-0.000417062,-2.1483,0.739016,0.0798359,-22.1596,0.0586811,
2,0,0,1,0,24823.4,0.0575353,0.0572073,-7.07651,13,0.00485781,10,-0.000404828,-2.15018,0.603288,0.0977974,-27.0028,0.0572073,
2,0,0,1,0,24823.4,0.0560317,0.0557495,-7.03255,13,0.00472493,10,-0.000392061,-2.15289,0.643368,0.0917049,-25.2081,0.0557495,
2,0,0,1,0,24823.4,0.0545282,0.0541693,-6.99928,13,0.00459275,10,-0.000379146,-2.15495,0.684705,0.0861686,-23.5576,0.0541693,
2,0,0,1,0,24823.4,0.0530407,0.0527388,-6.97171,13,0.00446259,10,-0.00036768,-2.15666,0.631497,0.0934288,-25.4155,0.0527388,
2,0,0,1,0,24823.4,0.0515372,0.0511873,-6.94172,13,0.00433164,10,-0.000355328,-2.15853,0.598189,0.098631,-26.6803,0.0511873,
2,0,0,1,0,24823.5,0.0500336,0.0497114,-6.89038,13,0.00420141,10,-0.00034253,-2.16176,0.596646,0.0988861,-26.6187,0.0497114,
2,0,0,1,0,24823.5,0.0485444,0.0482188,-6.86219,13,0.00407335,10,-0.000330887,-2.16354,0.591119,0.0998107,-26.7255,0.0482188,
2,0,0,1,0,24823.5,0.0470408,0.0467011,-6.82451,13,0.00394457,10,-0.000318712,-2.16593,0.612369,0.0963472,-25.6462,0.0467011,
2,0,0,1,0,24823.5,0.0455444,0.0452506,-6.78726,13,0.00381715,10,-0.000307127,-2.16831,0.6049,0.0975367,-25.8178,0.0452506,
2,0,0,1,0,24823.5,0.044048,0.0436982,-6.74716,13,0.00369047,10,-0.000294839,-2.17088,0.626675,0.0941477,-24.7833,0.0436982,
2,0,0,1,0,24823.6,0.0425445,0.0422108,-6.70892,13,0.0035639,10,-0.000283189,-2.17335,0.623107,0.0946868,-24.7901,0.0422108,
2,0,0,1,0,24823.6,0.0410552,0.040739,-6.663,13,0.00343941,10,-0.000271444,-2.17633,0.648269,0.0910115,-23.6589,0.040739,
2,0,0,1,0,24823.6,0.0395517,0.0392205,-6.62704,13,0.00331431,10,-0.000259916,-2.17868,0.60553,0.0974354,-25.1696,0.0392205,
2,0,0,1,0,24823.6,0.0380481,0.0377116,-6.58595,13,0.00318993,10,-0.000248367,-2.18138,0.543015,0.108653,-27.8887,0.0377116,
2,0,0,1,0,24823.6,0.0365606,0.0362375,-6.53152,13,0.00306774,10,-0.000236686,-2.18499,0.518538,0.113782,-29.0427,0.0362375,
2,0,0,1,0,24823.6,0.0350571,0.0347204,-6.48874,13,0.00294513,10,-0.000225291,-2.18784,0.535919,0.110091,-27.8854,0.0347204,
2,0,0,1,0,24823.7,0.0335535,0.0331787,-6.44127,13,0.00282331,10,-0.000213713,-2.19103,0.483789,0.121954,-30.6742,0.0331787,
2,0,0,1,0,24823.7,0.0320643,0.0317523,-6.3941,13,0.00270368,10,-0.000203027,-2.19422,0.42296,0.139493,-34.824,0.0317523,
2,0,0,1,0,24823.7,0.0305607,0.0302171,-6.33754,13,0.00258371,10,-0.000191502,-2.19808,0.393794,0.149825,-37.1032,0.0302171,
2,0,0,1,0,24823.7,0.0290643,0.0287384,-6.28918,13,0.00246536,10,-0.000180741,-2.20141,0.39333,0.150001,-36.8501,0.0287384,
2,0,0,1,0,24823.7,0.0275679,0.0272105,-6.25037,13,0.00234798,10,-0.000170076,-2.20409,0.400961,0.147147,-35.8503,0.0272105,
2,0,0,1,0,24823.8,0.0260644,0.0257251,-6.19585,13,0.00223085,10,-0.000159389,-2.2079,0.377879,0.156135,-37.71,0.0257251,
2,0,0,1,0,24823.8,0.0245751,0.024221,-6.14229,13,0.00211599,10,-0.000148772,-2.21167,0.363983,0.162095,-38.8281,0.024221,
2,0,0,1,0,24823.8,0.0230716,0.0227696,-6.0882,13,0.00200096,10,-0.000138626,-2.21551,0.389756,0.151377,-35.9531,0.02276965,
2,0,0,1,0,24823.8,0.021568,0.0212849,-6.02736,13,0.00188696,10,-0.000128292,-2.21987,0.410747,0.143641,-33.8051,0.02128493,
2,0,0,1,0,24823.8,0.0200805,0.0197671,-5.98296,13,0.00177509,10,-0.000118266,-2.22308,0.401813,0.146835,-34.2371,0.0197671,
2,0,0,1,0,24823.9,0.018577,0.0182504,-5.92434,13,0.00166301,10,-0.000108121,-2.22736,0.415203,0.142099,-32.8681,0.0182504,
2,0,0,1,0,24823.9,0.0170735,0.0167132,-5.86972,13,0.001552,10,-9.81017e-05,-2.23138,0.42259,0.139615,-32.0318,0.0167132,
2,0,0,1,0,24823.9,0.0155842,0.01524,-5.82155,13,0.00144307,10,-8.87206e-05,-2.23496,0.45429,0.129873,-29.5179,0.01524,
2,0,0,1,0,24823.9,0.0140806,0.0137591,-5.77625,13,0.00133383,10,-7.94759e-05,-2.23835,0.455075,0.129649,-29.214,0.0137591,
2,0,0,1,0,24823.9,0.0125842,0.0122424,-5.73054,13,0.00122603,10,-7.01552e-05,-2.2418,0.43231,0.136476,-30.5224,0.0122424,
2,0,0,1,0,24823.9,0.0110878,0.0107593,-5.67495,13,0.00111915,10,-6.10584e-05,-2.24604,0.434338,0.135839,-30.1548,0.0107593,
2,0,0,1,0,24824,0.00958429,0.00920402,-5.63409,13,0.00101254,10,-5.18563e-05,-2.24918,0.498105,0.118449,-26.0869,0.00920402,
2,0,0,1,0,24824,0.0080968,0.00773464,-5.59739,13,0.000907778,10,-4.32938e-05,-2.25201,0.483725,0.12197,-26.6759,0.00773464,
2,0,0,1,0,24824,0.00659326,0.00626185,-5.5609,13,0.000802634,10,-3.48215e-05,-2.25485,0.479881,0.122947,-26.7034,0.00626185,
2,0,0,1,0,24824,0.00508972,0.00480644,-5.52099,13,0.000698201,10,-2.65363e-05,-2.25798,0.511208,0.115413,-24.916,0.004806438,
2,0,0,1,0,24824,0.00360044,0.00322526,-5.49785,13,0.00059557,10,-1.7732e-05,-2.25981,0.92981,0.0634538,-13.6629,0.00322526,
2,0,0,1,0,24824.1,0.0020969,0.00170952,-5.51847,13,0.000492217,10,-9.43394e-06,-2.25818,1.02561,0.0575266,-12.2982,0.00170952,
2,0,0,1,0,24824.1,0.000593362,0.000194806,-5.46824,13,0.000388865,10,-1.06524e-06,-2.26215, , , ,0.000194806,
2,0,0,1,0,24824.1,0.000199195,-0.000168808,-5.45364,13,0.000362054,10,9.20615e-07,-2.26331, , , ,-0.000168808,