File: Figure_codes/Fig_3-5/rawdata_trumpetplot_data/after 10th/20221101_1-115_003_TrumpetPlot_ParaChange_from10_every3_02_CV_C01_1.csv
mode,ox/red,error,control changes,counter inc.,time/s,control/V,Ewe/V,<I>/mA,cycle number,(Q-Qo)/C,I Range,P/W,log(|I|),Tafel slope mV/dec,alpha_eff,dI/d(E-IR),E-IR/V,
2,0,0,1,0,2310.16,2.44065e-05,-0.000229887,-0.332818,2,0.0000000E+000,10,7.65104e-08,-3.47779, , , ,-0.000229887,
2,0,0,1,0,2311.43,0.00129791,0.000934507,-0.169744,2,-0.00023555,10,-1.58627e-07,-3.77021, , , ,0.000934507,
2,0,0,1,0,2312.93,0.00279612,0.00246574,-0.138528,2,-0.000437126,10,-3.41573e-07,-3.85846,-0.0186855,-3.15753,18.2375,0.00246574,
2,0,0,1,0,2314.43,0.00429431,0.00399589,-0.119387,2,-0.00060435,10,-4.77058e-07,-3.92304,-0.0267384,-2.20656,10.4484,0.00399589,
2,0,0,1,0,2315.93,0.00579242,0.00550694,-0.10482,2,-0.000747405,10,-5.77238e-07,-3.97956,-0.0290973,-2.02768,8.46898,0.005506942,
2,0,0,1,0,2317.43,0.00729061,0.00699147,-0.094021,2,-0.000871811,10,-6.57344e-07,-4.02678,-0.0326671,-1.8061,6.71811,0.006991466,
2,0,0,1,0,2318.92,0.00878882,0.00849515,-0.0848117,2,-0.000981696,10,-7.20487e-07,-4.07154,-0.0348858,-1.69123,5.67635,0.00849515,
2,0,0,1,0,2320.42,0.010287,0.00994368,-0.0776384,2,-0.00107936,10,-7.72011e-07,-4.10992,-0.038825,-1.51964,4.67102,0.009943678,
2,0,0,1,0,2321.92,0.0117852,0.0115152,-0.072008,2,-0.00116698,10,-8.29185e-07,-4.14262,-0.0414397,-1.42376,3.97939,0.0115152,
2,0,0,1,0,2323.42,0.0132834,0.0129733,-0.0658549,2,-0.00124582,10,-8.54354e-07,-4.18141,-0.0425983,-1.38503,3.55473,0.01297328,
2,0,0,1,0,2324.92,0.0147815,0.0145129,-0.0607639,2,-0.00131657,10,-8.81859e-07,-4.21635,-0.0445433,-1.32455,3.15761,0.01451287,
2,0,0,1,0,2326.42,0.0162797,0.0159763,-0.0565359,2,-0.00138009,10,-9.03232e-07,-4.24768,-0.0449938,-1.31129,2.89931,0.0159763,
2,0,0,1,0,2327.91,0.0177779,0.0174661,-0.0520176,2,-0.00143708,10,-9.08547e-07,-4.28385,-0.049782,-1.18517,2.42319,0.0174661,
2,0,0,1,0,2329.41,0.0192761,0.0189581,-0.048375,2,-0.001489,10,-9.17099e-07,-4.31538,-0.048743,-1.21043,2.29251,0.01895812,
2,0,0,1,0,2330.91,0.0207743,0.0204958,-0.04543,2,-0.0015355,10,-9.31123e-07,-4.34266,-0.0477652,-1.23521,2.18879,0.0204958,
2,0,0,1,0,2332.41,0.0222725,0.0219167,-0.041652,2,-0.00157703,10,-9.12873e-07,-4.38036,-0.0447211,-1.31929,2.1757,0.0219167,
2,0,0,1,0,2333.91,0.0237707,0.0234299,-0.0386826,2,-0.00161366,10,-9.06329e-07,-4.41248,-0.0421892,-1.39846,2.11556,0.0234299,
2,0,0,1,0,2335.41,0.0252689,0.0249611,-0.0358314,2,-0.00164609,10,-8.94392e-07,-4.44574,-0.0419143,-1.40763,1.95507,0.0249611,
2,0,0,1,0,2336.9,0.0267671,0.0264563,-0.0327454,2,-0.00167347,10,-8.66323e-07,-4.48485,-0.0362565,-1.62729,2.08189,0.0264563,
2,0,0,1,0,2338.4,0.0282653,0.0279504,-0.0301105,2,-0.00169682,10,-8.416e-07,-4.52128,-0.0370951,-1.59051,1.85966,0.0279504,
2,0,0,1,0,2339.9,0.0297635,0.02947,-0.0274674,2,-0.00171558,10,-8.09464e-07,-4.56118,-0.0346586,-1.70232,1.79474,0.02947,
2,0,0,1,0,2341.4,0.0312617,0.0309546,-0.0254891,2,-0.0017305,10,-7.89007e-07,-4.59364,-0.036588,-1.61255,1.55319,0.03095462,
2,0,0,1,0,2342.9,0.0327599,0.0324615,-0.0220301,2,-0.00174172,10,-7.15128e-07,-4.65698,-0.0331446,-1.78008,1.54698,0.0324615,
2,0,0,1,0,2344.39,0.0342581,0.033981,-0.0198477,2,-0.00174894,10,-6.74445e-07,-4.70229,-0.0284581,-2.07323,1.60734,0.033981,
2,0,0,1,0,2345.89,0.0357563,0.0354805,-0.0172842,2,-0.00175256,10,-6.13252e-07,-4.76235,-0.0264477,-2.23082,1.49555,0.0354805,
2,0,0,1,0,2347.39,0.0372544,0.0369246,-0.0154549,2,-0.0017526,10,-5.70668e-07,-4.81093,-0.0200878,-2.93711,1.6591,0.0369246,
2,0,0,1,0,2348.89,0.0387526,0.0384378,-0.0127995,2,-0.00174915,10,-4.91983e-07,-4.89281,-0.0153017,-3.85579,1.78102,0.03843778,
2,0,0,1,0,2350.39,0.0402508,0.0399489,-0.00958494,2,-0.00174177,10,-3.82908e-07,-5.01841,-0.0138696,-4.25391,1.563,0.0399489,
2,0,0,1,0,2351.89,0.041749,0.0414675,-0.00781772,2,-0.00173031,10,-3.24181e-07,-5.10692,-0.0112025,-5.26667,1.49439,0.0414675,
2,0,0,1,0,2353.38,0.0432472,0.0429743,-0.00532487,2,-0.00171525,10,-2.28833e-07,-5.27369,-0.00720063,-8.19372,1.5182,0.0429743,
2,0,0,1,0,2354.88,0.0447454,0.0444345,-0.00236023,2,-0.00169705,10,-1.04876e-07,-5.62705,-0.00376197,-15.6833,1.59054,0.0444345,
2,0,0,1,0,2356.38,0.0462435,0.0459497,-0.000354757,2,-0.00167534,10,-1.6301e-08,-6.45007,-0.0281923,-2.09277,1.68842,0.0459497,
2,0,0,1,0,2357.88,0.0477417,0.0474374,0.00220434,2,-0.0016496,10,1.04568e-07,-5.65672,0.00667857,8.83423,1.53018,0.0474374,
2,1,0,1,0,2359.38,0.0492399,0.0489114,0.00452367,2,-0.00162034,10,2.21259e-07,-5.34451,0.00627631,9.40043,1.47561,0.0489114,
2,1,0,1,0,2360.87,0.0507381,0.0504554,0.00590578,2,-0.00158834,10,2.97979e-07,-5.22872,0.008955,6.5885,1.56759,0.05045541,
2,1,0,1,0,2362.37,0.0522363,0.0519379,0.00870846,2,-0.00155226,10,4.52299e-07,-5.06006,0.0116297,5.0732,1.60653,0.0519379,
2,1,0,1,0,2363.87,0.0537345,0.0534065,0.0105222,2,-0.00151251,10,5.61954e-07,-4.97789,0.0166081,3.55249,1.51041,0.0534065,
2,1,0,1,0,2365.37,0.0552327,0.0549219,0.0130398,2,-0.00147012,10,7.16169e-07,-4.88473,0.0196531,3.00207,1.49941,0.0549219,
2,1,0,1,0,2366.87,0.0567309,0.0563937,0.0145053,2,-0.00142419,10,8.18005e-07,-4.83847,0.0236334,2.49646,1.45488,0.0563937,
2,1,0,1,0,2368.37,0.0582291,0.0579154,0.0181742,2,-0.00137493,10,1.05256e-06,-4.74055,0.0278254,2.12036,1.44955,0.0579154,
2,1,0,1,0,2369.86,0.0597273,0.0594074,0.0192735,2,-0.00132206,10,1.14499e-06,-4.71504,0.0324265,1.8195,1.35238,0.0594074,
2,1,0,1,0,2371.36,0.0612255,0.0609142,0.0220694,2,-0.00126629,10,1.34434e-06,-4.65621,0.0400218,1.4742,1.23598,0.06091423,
2,1,0,1,0,2372.86,0.0627237,0.062421,0.0235225,2,-0.00120741,10,1.4683e-06,-4.62852,0.0406863,1.45012,1.34072,0.062421,
2,1,0,1,0,2374.36,0.0642219,0.0638876,0.0249924,2,-0.00114609,10,1.59671e-06,-4.60219,0.0455767,1.29452,1.30365,0.0638876,
2,1,0,1,0,2375.86,0.0657201,0.0654263,0.0278094,2,-0.00108178,10,1.81947e-06,-4.55581,0.0522926,1.12827,1.20232,0.06542632,
2,1,0,1,0,2377.35,0.0672183,0.0669321,0.0296839,2,-0.00101429,10,1.9868e-06,-4.52748,0.060656,0.972698,1.09155,0.0669321,
2,1,0,1,0,2378.85,0.0687164,0.0684038,0.0310568,2,-0.000944248,10,2.12441e-06,-4.50784,0.0550399,1.07195,1.29303,0.0684038,
2,1,0,1,0,2380.35,0.0702146,0.0698767,0.0329447,2,-0.000872067,10,2.30207e-06,-4.48221,0.0612661,0.963012,1.21391,0.06987673,
2,1,0,1,0,2381.85,0.0717128,0.0713931,0.0348214,2,-0.000796712,10,2.48601e-06,-4.45815,0.0612279,0.963613,1.30335,0.07139314,
2,1,0,1,0,2383.35,0.073211,0.0728692,0.036303,2,-0.000718745,10,2.64537e-06,-4.44006,0.0631347,0.93451,1.33218,0.0728692,
2,1,0,1,0,2384.85,0.0747092,0.0744058,0.0386172,2,-0.000637389,10,2.87334e-06,-4.41322,0.085028,0.693889,1.04283,0.0744058,
2,1,0,1,0,2386.34,0.0762074,0.0758829,0.0397246,2,-0.000554157,10,3.01442e-06,-4.40094,0.0862373,0.684158,1.07572,0.0758829,
2,1,0,1,0,2387.84,0.0777055,0.077413,0.0422399,2,-0.000467835,10,3.26991e-06,-4.37428,0.0677506,0.870841,1.40663,0.07741297,
2,1,0,1,0,2389.34,0.0792037,0.0789251,0.0431406,2,-0.000378903,10,3.40488e-06,-4.36511,0.0980518,0.601723,1.02288,0.0789251,
2,1,0,1,0,2390.84,0.0807019,0.0804023,0.0453584,2,-0.000287427,10,3.64692e-06,-4.34334,0.0919647,0.64155,1.12799,0.0804023,
2,1,0,1,0,2392.34,0.0822001,0.0818954,0.047027,2,-0.000193765,10,3.85129e-06,-4.32765,0.100063,0.58963,1.06923,0.0818954,
2,1,0,1,0,2393.83,0.0836983,0.0833927,0.0489745,2,-9.7345e-05,10,4.08412e-06,-4.31003,0.100145,0.589147,1.11726,0.0833927,
2,1,0,1,0,2395.33,0.0851965,0.0848836,0.0499288,2,1.63376e-06,10,4.23814e-06,-4.30165,0.110864,0.532184,1.04468,0.0848836,
2,1,0,1,0,2396.83,0.0866947,0.0863682,0.0520014,2,0.000103253,10,4.49127e-06,-4.28398,0.130663,0.451544,0.917328,0.0863682,
2,1,0,1,0,2398.33,0.0881929,0.0878655,0.053652,2,0.000207702,10,4.71416e-06,-4.27041,0.0844783,0.698404,1.48514,0.0878655,
2,1,0,1,0,2399.83,0.0896911,0.0893968,0.0559042,2,0.000314886,10,4.99765e-06,-4.25256,0.0874804,0.674437,1.49534,0.0893968,
2,1,0,1,0,2401.33,0.0911893,0.0909205,0.0581728,2,0.000425237,10,5.2891e-06,-4.23528,0.120105,0.491238,1.11901,0.09092053,
2,1,0,1,0,2402.82,0.0926875,0.0923967,0.0606172,2,0.000539035,10,5.60083e-06,-4.2174,0.103198,0.571717,1.32789,0.0923967,
2,1,0,1,0,2404.32,0.0941857,0.0939024,0.0626732,2,0.000655731,10,5.88516e-06,-4.20292,0.0968756,0.609028,1.47641,0.0939024,
2,1,0,1,0,2405.82,0.0956839,0.0953827,0.0640446,2,0.000774805,10,6.10875e-06,-4.19352,0.0885257,0.666473,1.67267,0.0953827,
2,1,0,1,0,2407.32,0.0971821,0.096878,0.0672757,2,0.000898076,10,6.51754e-06,-4.17214,0.0785585,0.751032,1.95106,0.096878,
2,1,0,1,0,2408.82,0.0986803,0.0983806,0.0690392,2,0.00102501,10,6.79212e-06,-4.1609,0.0943477,0.625346,1.68272,0.0983806,
2,1,0,1,0,2410.31,0.100178,0.0999022,0.0716115,2,0.00115577,10,7.15414e-06,-4.14502,0.0898762,0.656459,1.84807,0.0999022,
2,1,0,1,0,2411.81,0.101677,0.101356,0.0736118,2,0.00128977,10,7.461e-06,-4.13305,0.088512,0.666576,1.93265,0.101356,
2,1,0,1,0,2413.31,0.103175,0.102861,0.0772323,2,0.00142846,10,7.94417e-06,-4.1122,0.0899567,0.655871,1.96101,0.102861,
2,1,0,1,0,2414.81,0.104673,0.104394,0.0811844,2,0.00157217,10,8.47517e-06,-4.09053,0.099022,0.595827,1.85744,0.104394,
2,1,0,1,0,2416.31,0.106171,0.105887,0.0832749,2,0.00172028,10,8.81774e-06,-4.07949,0.106251,0.55529,1.79582,0.105887,
2,1,0,1,0,2417.81,0.107669,0.107405,0.0853931,2,0.00187211,10,9.17161e-06,-4.06858,0.109065,0.540961,1.81018,0.107405,
2,1,0,1,0,2419.3,0.109167,0.108875,0.0885475,2,0.00202833,10,9.64063e-06,-4.05282,0.107283,0.549948,1.90485,0.108875,
2,1,0,1,0,2420.8,0.110666,0.1103,0.0905984,2,0.0021888,10,9.99305e-06,-4.04288,0.11592,0.508973,1.82416,0.1103,
2,1,0,1,0,2422.3,0.112164,0.111894,0.0941324,2,0.00235364,10,1.05329e-05,-4.02626,0.154166,0.382705,1.39804,0.111894,
2,1,0,1,0,2423.8,0.113662,0.113403,0.0963498,2,0.00252259,10,1.09264e-05,-4.01615,0.130486,0.452157,1.70629,0.113403,
2,1,0,1,0,2425.3,0.11516,0.114824,0.0989307,2,0.00269432,10,1.13596e-05,-4.00467,0.119804,0.49247,1.90149,0.114824,
2,1,0,1,0,2426.79,0.116658,0.116349,0.101662,2,0.00287069,10,1.18282e-05,-3.99284,0.138843,0.424941,1.68332,0.116349,
2,1,0,1,0,2428.29,0.118157,0.117846,0.104412,2,0.00305157,10,1.23046e-05,-3.98125,0.128401,0.4595,1.86239,0.117846,
2,1,0,1,0,2429.79,0.119655,0.119326,0.107353,2,0.00323635,10,1.28099e-05,-3.96919,0.14583,0.404582,1.68531,0.119326,
2,1,0,1,0,2431.29,0.121153,0.12087,0.109284,2,0.00342406,10,1.32091e-05,-3.96144,0.158274,0.37277,1.59728,0.12087,
2,1,0,1,0,2432.79,0.122651,0.122356,0.111777,2,0.00361644,10,1.36766e-05,-3.95165,0.130831,0.450963,1.96943,0.122356,
2,1,0,1,0,2434.29,0.124149,0.123864,0.114081,2,0.00381289,10,1.41305e-05,-3.94279,0.170751,0.345532,1.54499,0.123864,
2,1,0,1,0,2435.78,0.125648,0.125342,0.116505,2,0.00401287,10,1.4603e-05,-3.93366,0.178939,0.329721,1.50244,0.1253424,
2,1,0,1,0,2437.28,0.127146,0.126827,0.118424,2,0.00421607,10,1.50193e-05,-3.92656,0.170657,0.345724,1.6042,0.126827,
2,1,0,1,0,2438.78,0.128644,0.128341,0.121322,2,0.00442286,10,1.55706e-05,-3.91606,0.177464,0.332463,1.57592,0.128341,
2,1,0,1,0,2440.28,0.130142,0.129893,0.123635,2,0.00463316,10,1.60592e-05,-3.90786,0.227541,0.259294,1.24323,0.129893,
2,1,0,1,0,2441.78,0.13164,0.131302,0.125195,2,0.00484661,10,1.64384e-05,-3.90241,0.275943,0.213812,1.03686,0.131302,
2,1,0,1,0,2443.27,0.133139,0.132798,0.125508,2,0.00506195,10,1.66672e-05,-3.90133,0.404957,0.145694,0.717988,0.132798,
2,1,0,1,0,2444.77,0.134637,0.134364,0.127527,2,0.00527856,10,1.71351e-05,-3.8944,0.76452,0.0771726,0.38331,0.134364,
2,1,0,1,0,2446.27,0.136135,0.135823,0.127522,2,0.00549652,10,1.73205e-05,-3.89441,-1.00881,-0.0584848,-0.290506,0.135823,
2,1,0,1,0,2447.77,0.137633,0.137306,0.12692,2,0.00571421,10,1.74268e-05,-3.89647,-0.257617,-0.229022,-1.12539,0.137306,
2,1,0,1,0,2449.27,0.139131,0.138797,0.125543,2,0.00593034,10,1.7425e-05,-3.90121,-0.213147,-0.276804,-1.34284,0.138797,
2,1,0,1,0,2450.77,0.14063,0.140344,0.122936,2,0.00614217,10,1.72533e-05,-3.91032,-0.142143,-0.415076,-1.98044,0.140344,
2,1,0,1,0,2452.26,0.142128,0.141838,0.120197,2,0.00635055,10,1.70485e-05,-3.92011,-0.127098,-0.464209,-2.14632,0.141838,
2,1,0,1,0,2453.76,0.143626,0.143347,0.115524,2,0.00655357,10,1.656e-05,-3.93733,-0.0933705,-0.631892,-2.8309,0.143347,
2,1,0,1,0,2455.26,0.145124,0.144833,0.11087,2,0.00674971,10,1.60576e-05,-3.95519,-0.0781235,-0.755215,-3.27493,0.1448326,
2,1,0,1,0,2456.76,0.146622,0.146297,0.105556,2,0.00693828,10,1.54425e-05,-3.97652,-0.0715649,-0.824426,-3.40606,0.146297,
2,1,0,1,0,2458.26,0.14812,0.147804,0.101083,2,0.00711922,10,1.49405e-05,-3.99532,-0.0697397,-0.846003,-3.32052,0.147804,
2,1,0,1,0,2459.75,0.149619,0.149251,0.0957492,2,0.0072923,10,1.42907e-05,-4.01886,-0.0648875,-0.909267,-3.39736,0.149251,
2,1,0,1,0,2461.25,0.151117,0.150809,0.0913278,2,0.00745757,10,1.37731e-05,-4.0394,-0.0609515,-0.967983,-3.45554,0.150809,
2,1,0,1,0,2462.75,0.152615,0.152294,0.0858365,2,0.0076149,10,1.30724e-05,-4.06633,-0.0636831,-0.926462,-3.11878,0.1522937,
2,1,0,1,0,2464.25,0.154113,0.153804,0.0823124,2,0.00776517,10,1.266e-05,-4.08453,-0.0647412,-0.911321,-2.92237,0.153804,
2,1,0,1,0,2465.75,0.155611,0.1553,0.0784304,2,0.00790928,10,1.21802e-05,-4.10552,-0.0737649,-0.799839,-2.43533,0.1553,
2,1,0,1,0,2467.25,0.15711,0.156786,0.0742009,2,0.00804765,10,1.16336e-05,-4.12959,-0.0728543,-0.809836,-2.33546,0.156786,
2,1,0,1,0,2468.74,0.158608,0.158309,0.0707057,2,0.00818061,10,1.11934e-05,-4.15055,-0.0747242,-0.789571,-2.18905,0.158309,
2,1,0,1,0,2470.24,0.160106,0.159792,0.0676023,2,0.00830861,10,1.08023e-05,-4.17004,-0.0961241,-0.61379,-1.64659,0.159792,
2,1,0,1,0,2471.74,0.161604,0.161305,0.0661262,2,0.00843281,10,1.06665e-05,-4.17963,-0.101038,-0.58394,-1.50315,0.161305,
2,1,0,1,0,2473.24,0.163102,0.162803,0.0637544,2,0.00855412,10,1.03794e-05,-4.19549,-0.127014,-0.464517,-1.16258,0.162803,
2,1,0,1,0,2474.74,0.164601,0.164267,0.0625451,2,0.00867248,10,1.02741e-05,-4.20381,-0.117461,-0.502292,-1.21315,0.164267,
2,1,0,1,0,2476.23,0.166099,0.165782,0.0601066,2,0.008788,10,9.9646e-06,-4.22108,-0.152163,-0.387741,-0.919209,0.165782,
2,1,0,1,0,2477.73,0.167597,0.167301,0.0588795,2,0.00890121,10,9.85057e-06,-4.23004,-0.1631,-0.361742,-0.829951,0.167301,
2,1,0,1,0,2479.23,0.169095,0.168765,0.057729,2,0.00901262,10,9.74264e-06,-4.23861,-0.177085,-0.333174,-0.750598,0.168765,
2,1,0,1,0,2480.73,0.170593,0.170267,0.0565242,2,0.0091217,10,9.62418e-06,-4.24777,-0.141064,-0.418251,-0.922817,0.170267,
2,1,0,1,0,2482.23,0.172091,0.171824,0.0557078,2,0.00922881,10,9.57195e-06,-4.25408,-0.167873,-0.351457,-0.763543,0.1718242,
2,1,0,1,0,2483.73,0.17359,0.173265,0.0545447,2,0.00933465,10,9.4507e-06,-4.26325,-0.282368,-0.208947,-0.443253,0.173265,
2,1,0,1,0,2485.22,0.175088,0.174782,0.0537179,2,0.0094394,10,9.38891e-06,-4.26988,-0.301675,-0.195574,-0.410851,0.174782,
2,1,0,1,0,2486.72,0.176586,0.176303,0.0531963,2,0.00954331,10,9.37868e-06,-4.27412,-0.312325,-0.188906,-0.392098,0.176303,
2,1,0,1,0,2488.22,0.178084,0.177767,0.0526945,2,0.00964578,10,9.36734e-06,-4.27823,-0.198445,-0.297311,-0.614369,0.177767,
2,1,0,1,0,2489.72,0.179582,0.179245,0.0518123,2,0.00974711,10,9.2871e-06,-4.28557,-0.221079,-0.266873,-0.53886,0.179245,
2,1,0,1,0,2491.22,0.181081,0.18078,0.0513823,2,0.0098479,10,9.28892e-06,-4.28919,-0.435632,-0.135435,-0.271771,0.18078,
2,1,0,1,0,2492.72,0.182579,0.182278,0.0509935,2,0.0099478,10,9.29499e-06,-4.29248,-0.282085,-0.209157,-0.417203,0.182278,
2,1,0,1,0,2494.21,0.184077,0.183756,0.0504566,2,0.0100473,10,9.27171e-06,-4.29708,-0.403405,-0.146255,-0.291577,0.183756,
2,1,0,1,0,2495.71,0.185575,0.18526,0.0503978,2,0.010146,10,9.33668e-06,-4.29759,-0.361779,-0.163083,-0.321625,0.18526,
2,1,0,1,0,2497.21,0.187073,0.186773,0.0508091,2,0.0102444,10,9.48976e-06,-4.29406,-1.18501,-0.0497887,-0.0974397,0.186773,
2,1,0,1,0,2498.71,0.188572,0.188268,0.0500612,2,0.0103423,10,9.42492e-06,-4.3005,-1.22762,-0.0480604,-0.0936713,0.188268,
2,1,0,1,0,2500.21,0.19007,0.189789,0.0498904,2,0.0104401,10,9.46864e-06,-4.30198,-0.904536,-0.0652268,-0.126932,0.189789,
2,1,0,1,0,2501.7,0.191568,0.191232,0.0494356,2,0.0105373,10,9.45367e-06,-4.30596,-3.23396,-0.0182439,-0.0355731,0.191232,
2,1,0,1,0,2503.2,0.193066,0.192795,0.0494528,2,0.0106345,10,9.53425e-06,-4.30581,1.12509,0.0524404,0.102258,0.192795,
2,1,0,1,0,2504.7,0.194564,0.194286,0.0496268,2,0.0107321,10,9.64178e-06,-4.30428,-3.16087,-0.0186657,-0.036262,0.194286,
2,1,0,1,0,2506.2,0.196063,0.195786,0.0494912,2,0.0108298,10,9.68968e-06,-4.30547,-0.339627,-0.17372,-0.337161,0.195786,
2,1,0,1,0,2507.7,0.197561,0.197266,0.0491613,2,0.0109267,10,9.69782e-06,-4.30838,-0.556814,-0.10596,-0.205576,0.197266,
2,1,0,1,0,2509.2,0.199059,0.198789,0.0499541,2,0.0110232,10,9.93035e-06,-4.30143,2.90874,0.0202837,0.0388765,0.198789,
2,1,0,1,0,2510.69,0.200557,0.200251,0.0492635,2,0.0111197,10,9.86505e-06,-4.30747,1.01654,0.0580397,0.110436,0.200251,
2,1,0,1,0,2512.19,0.202055,0.201769,0.0491558,2,0.011216,10,9.91812e-06,-4.30843,0.661286,0.0892202,0.171392,0.201769,
2,1,0,1,0,2513.69,0.203554,0.203258,0.0491852,2,0.0113122,10,9.99729e-06,-4.30817,-3.38884,-0.0174101,-0.0331222,0.203258,
2,1,0,1,0,2515.19,0.205052,0.204755,0.0492576,2,0.0114085,10,1.00857e-05,-4.30753,0.415106,0.142132,0.274414,0.204755,
2,1,0,1,0,2516.69,0.20655,0.206232,0.0492291,2,0.011505,10,1.01526e-05,-4.30778,0.504849,0.116867,0.225987,0.206232,
2,1,0,1,0,2518.18,0.208048,0.207761,0.0500947,2,0.0116023,10,1.04077e-05,-4.30021,0.952237,0.0619594,0.120042,0.207761,
2,1,0,1,0,2519.68,0.209546,0.209287,0.0500407,2,0.0116996,10,1.04729e-05,-4.30068,1.73595,0.0339871,0.0661176,0.209287,
2,1,0,1,0,2521.18,0.211044,0.210766,0.0502483,2,0.011797,10,1.05906e-05,-4.29888,9.99159,0.00590497,0.011544,0.210766,
2,1,0,1,0,2522.68,0.212543,0.212246,0.0504391,2,0.0118946,10,1.07055e-05,-4.29723,-7.45681,-0.00791223,-0.0154341,0.212246,
2,1,0,1,0,2524.18,0.214041,0.213758,0.0500927,2,0.0119923,10,1.07077e-05,-4.30023,2.38449,0.0247433,0.0482772,0.213758,
2,1,0,1,0,2525.68,0.215539,0.215238,0.0502479,2,0.01209,10,1.08153e-05,-4.29888,0.971867,0.0607079,0.119257,0.2152383,
2,1,0,1,0,2527.17,0.217037,0.216725,0.0499019,2,0.0121874,10,1.0815e-05,-4.30188,-6.43538,-0.00916807,-0.0179447,0.216725,
2,1,0,1,0,2528.67,0.218535,0.218256,0.0505733,2,0.012285,10,1.10379e-05,-4.29608,1.06057,0.0556307,0.108036,0.218256,
2,1,0,1,0,2530.17,0.220034,0.219714,0.050414,2,0.0123829,10,1.10767e-05,-4.29745,2.39061,0.0246799,0.0487147,0.219714,
2,1,0,1,0,2531.67,0.221532,0.221263,0.0504569,2,0.0124804,10,1.11642e-05,-4.29708,0.510003,0.115686,0.228264,0.221263,
2,1,0,1,0,2533.17,0.22303,0.222715,0.0498913,2,0.0125782,10,1.11116e-05,-4.30198,0.357134,0.165204,0.324999,0.222715,
2,1,0,1,0,2534.66,0.224528,0.224252,0.0506453,2,0.0126765,10,1.13573e-05,-4.29546,0.756972,0.0779421,0.153525,0.224252,
2,1,0,1,0,2536.16,0.226026,0.225707,0.0509013,2,0.012775,10,1.14888e-05,-4.29327,1.08575,0.0543403,0.108422,0.225707,
2,1,0,1,0,2537.66,0.227525,0.227239,0.0508574,2,0.0128737,10,1.15568e-05,-4.29365,0.845596,0.0697733,0.13978,0.227239,
2,1,0,1,0,2539.16,0.229023,0.228738,0.0514862,2,0.0129726,10,1.17769e-05,-4.28831,-2.6084,-0.0226192,-0.0451879,0.2287384,
2,1,0,1,0,2540.66,0.230521,0.230246,0.0514485,2,0.0130717,10,1.18458e-05,-4.28863,0.552724,0.106744,0.2146,0.230246,
2,1,0,1,0,2542.16,0.232019,0.231703,0.0511373,2,0.0131708,10,1.18487e-05,-4.29126,2.3974,0.02461,0.0499703,0.2317033,
2,1,0,1,0,2543.65,0.233517,0.233246,0.0520082,2,0.0132704,10,1.21307e-05,-4.28393,2.02804,0.0290921,0.0588155,0.233246,
2,1,0,1,0,2545.15,0.235016,0.234713,0.0517898,2,0.01337,10,1.21557e-05,-4.28576,0.730199,0.0807998,0.163663,0.234713,
2,1,0,1,0,2546.65,0.236514,0.236198,0.0515553,2,0.0134697,10,1.21773e-05,-4.28773,0.472382,0.124899,0.254604,0.236198,
2,1,0,1,0,2548.15,0.238012,0.237717,0.0526395,2,0.0135698,10,1.25133e-05,-4.27869,0.683899,0.0862701,0.175967,0.237717,
2,1,0,1,0,2549.65,0.23951,0.239213,0.0525205,2,0.0136703,10,1.25636e-05,-4.27967,0.511563,0.115333,0.237023,0.239213,
2,1,0,1,0,2551.14,0.241008,0.240709,0.0530882,2,0.0137712,10,1.27788e-05,-4.275,0.358749,0.164461,0.339307,0.240709,
2,1,0,1,0,2552.64,0.242506,0.242187,0.0528254,2,0.0138721,10,1.27937e-05,-4.27716,1.37929,0.0427756,0.0884891,0.242187,
2,1,0,1,0,2554.14,0.244005,0.243673,0.0534525,2,0.0139735,10,1.30249e-05,-4.27203,1.2406,0.0475576,0.0981093,0.243673,
2,1,0,1,0,2555.64,0.245503,0.245191,0.0532808,2,0.0140752,10,1.30639e-05,-4.27343,-4.11076,-0.0143526,-0.0298336,0.245191,
2,1,0,1,0,2557.14,0.247001,0.246724,0.0535099,2,0.0141765,10,1.32022e-05,-4.27157,4.67536,0.0126193,0.0263933,0.246724,
2,1,0,1,0,2558.64,0.248499,0.248205,0.0535326,2,0.014278,10,1.32871e-05,-4.27138,0.556737,0.105975,0.2199,0.248205,
2,1,0,1,0,2560.13,0.249997,0.249678,0.053688,2,0.0143797,10,1.34047e-05,-4.27012,0.665344,0.0886759,0.184658,0.249678,
2,1,0,1,0,2561.63,0.251496,0.251197,0.0537768,2,0.0144818,10,1.35085e-05,-4.26941,0.938797,0.0628464,0.131677,0.251197,
2,1,0,1,0,2563.13,0.252994,0.252698,0.0537373,2,0.0145844,10,1.35793e-05,-4.26972,0.708115,0.0833198,0.175313,0.2526983,
2,1,0,1,0,2564.63,0.254492,0.254219,0.0541874,2,0.0146871,10,1.37755e-05,-4.2661,0.703888,0.0838201,0.178709,0.254219,
2,1,0,1,0,2566.13,0.25599,0.255656,0.0546612,2,0.0147904,10,1.39744e-05,-4.26232,0.423205,0.139412,0.297944,0.2556558,
2,1,0,1,0,2567.62,0.257488,0.257183,0.0548855,2,0.0148945,10,1.41156e-05,-4.26054,-2.29248,-0.0257364,-0.0553269,0.257183,
2,1,0,1,0,2569.12,0.258987,0.258711,0.0547661,2,0.0149985,10,1.41686e-05,-4.26149,-1.32066,-0.0446745,-0.0952084,0.2587108,
2,1,0,1,0,2570.62,0.260485,0.26023,0.0550505,2,0.0151028,10,1.43258e-05,-4.25924,1.89676,0.0311057,0.0667713,0.26023,
2,1,0,1,0,2572.12,0.261983,0.261649,0.0548357,2,0.0152067,10,1.43477e-05,-4.26094,-1.43235,-0.041191,-0.0885895,0.261649,
2,1,0,1,0,2573.62,0.263481,0.263209,0.0551944,2,0.0153109,10,1.45277e-05,-4.25811,0.919432,0.0641701,0.138327,0.263209,
2,1,0,1,0,2575.12,0.264979,0.26465,0.0547888,2,0.0154152,10,1.44999e-05,-4.26131,1.08037,0.0546112,0.118363,0.26465,
2,1,0,1,0,2576.61,0.266477,0.266216,0.055402,2,0.0155196,10,1.47489e-05,-4.25647,0.987835,0.0597266,0.129549,0.266216,
2,1,0,1,0,2578.11,0.267976,0.267634,0.0552978,2,0.0156241,10,1.47996e-05,-4.25729,0.644529,0.0915398,0.199253,0.267634,
2,1,0,1,0,2579.61,0.269474,0.269187,0.0551825,2,0.0157287,10,1.48544e-05,-4.2582,0.595001,0.0991595,0.216418,0.269187,
2,1,0,1,0,2581.11,0.270972,0.270653,0.0561642,2,0.015834,10,1.5201e-05,-4.25054,0.621053,0.095,0.207411,0.270653,
2,1,0,1,0,2582.61,0.27247,0.27211,0.0564183,2,0.0159398,10,1.5352e-05,-4.24858,0.427805,0.137913,0.303048,0.27211,
2,1,0,1,0,2584.1,0.273968,0.273657,0.0561448,2,0.0160457,10,1.53644e-05,-4.25069,1.07684,0.0547897,0.120877,0.273657,
2,1,0,1,0,2585.6,0.275467,0.275156,0.0562843,2,0.0161519,10,1.54869e-05,-4.24961,1.1816,0.0499324,0.10992,0.275156,
2,1,0,1,0,2587.1,0.276965,0.276669,0.0565281,2,0.0162579,10,1.56396e-05,-4.24774,2.82693,0.0208707,0.0462916,0.276669,
2,1,0,1,0,2588.6,0.278463,0.278182,0.0564316,2,0.0163639,10,1.56982e-05,-4.24848,0.738784,0.079861,0.176375,0.278182,
2,1,0,1,0,2590.1,0.279961,0.27963,0.0571283,2,0.0164704,10,1.59748e-05,-4.24315,0.703687,0.0838441,0.18611,0.27963,
2,1,0,1,0,2591.6,0.281459,0.281147,0.057177,2,0.0165771,10,1.60751e-05,-4.24278,0.549258,0.107418,0.240472,0.281147,
2,1,0,1,0,2593.09,0.282958,0.282655,0.0580799,2,0.0166845,10,1.64165e-05,-4.23597,0.731275,0.080681,0.180609,0.282655,
2,1,0,1,0,2594.59,0.284456,0.284164,0.0573525,2,0.0167919,10,1.62975e-05,-4.24145,18.9495,0.00311355,0.007002,0.284164,
2,1,0,1,0,2596.09,0.285954,0.285671,0.0579698,2,0.0168995,10,1.65603e-05,-4.2368,0.781674,0.075479,0.169352,0.285671,
2,1,0,1,0,2597.59,0.287452,0.287167,0.0579899,2,0.0170072,10,1.66528e-05,-4.23665,0.825004,0.0715148,0.161335,0.287167,
2,1,0,1,0,2599.09,0.28895,0.288646,0.0580724,2,0.0171151,10,1.67624e-05,-4.23603,0.474204,0.124419,0.282393,0.288646,
2,1,0,1,0,2600.58,0.290448,0.290115,0.0578579,2,0.0172234,10,1.67854e-05,-4.23764,0.817823,0.0721428,0.163399,0.290115,
2,1,0,1,0,2602.08,0.291947,0.291648,0.0583082,2,0.0173321,10,1.70055e-05,-4.23427,17.0839,0.00345355,0.00787095,0.291648,
2,1,0,1,0,2603.58,0.293445,0.293139,0.0581421,2,0.0174406,10,1.70437e-05,-4.23551,1.72682,0.0341669,0.0776608,0.293139,
2,1,0,1,0,2605.08,0.294943,0.294604,0.0586614,2,0.0175491,10,1.72819e-05,-4.23165,0.758979,0.077736,0.177726,0.294604,
2,1,0,1,0,2606.58,0.296441,0.296145,0.0588689,2,0.0176578,10,1.74338e-05,-4.23011,0.650062,0.0907605,0.207279,0.296145,
2,1,0,1,0,2608.08,0.297939,0.297669,0.0587585,2,0.0177667,10,1.74906e-05,-4.23093,2.03002,0.0290637,0.0662684,0.297669,
2,1,0,1,0,2609.57,0.299438,0.299132,0.0588464,2,0.0178758,10,1.76029e-05,-4.23028,-0.00583179,-10.117,-16.4985,0.299132,
2,1,0,1,0,2610.42,0.299737,0.299473,0.0342771,2,0.0179237,10,1.02651e-05,-4.465,0.00285685,20.6521,30.177,0.299473,
2,1,0,1,0,2611.92,0.298239,0.297947,0.0235574,2,0.0179441,10,7.01887e-06,-4.62787,0.00718907,8.2069,11.1195,0.297947,
2,1,0,1,0,2613.42,0.296741,0.296481,0.019239,2,0.0179551,10,5.704e-06,-4.71582,0.0173236,3.40576,2.64213,0.296481,
2,1,0,1,0,2614.92,0.295243,0.294969,0.0165894,2,0.0179609,10,4.89337e-06,-4.78017,0.0215059,2.74343,1.79953,0.294969,
2,1,0,1,0,2616.42,0.293745,0.29341,0.0144276,2,0.0179628,10,4.23319e-06,-4.84081,0.0218624,2.6987,1.51883,0.29341,
2,1,0,1,0,2617.91,0.292246,0.291952,0.0126091,2,0.0179617,10,3.68127e-06,-4.89931,0.023535,2.50691,1.2171,0.291952,
2,1,0,1,0,2619.41,0.290748,0.290446,0.0108227,2,0.0179577,10,3.1434e-06,-4.96566,0.0227011,2.59899,1.08935,0.290446,
2,1,0,1,0,2620.91,0.28925,0.288942,0.00927549,2,0.0179516,10,2.68008e-06,-5.03266,0.0197883,2.98156,1.0464,0.288942,
2,1,0,1,0,2622.41,0.287752,0.287399,0.00722889,2,0.017943,10,2.07758e-06,-5.14093,0.0159117,3.70797,1.06696,0.287399,
2,0,0,1,0,2623.91,0.286254,0.285961,0.00614008,2,0.0179323,10,1.75582e-06,-5.21183,0.0156499,3.77,0.889392,0.285961,
2,1,0,1,0,2625.41,0.284755,0.28442,0.00438369,2,0.0179192,10,1.24681e-06,-5.35816,0.0130242,4.53002,0.813556,0.28442,
2,1,0,1,0,2626.9,0.283257,0.282997,0.00386374,2,0.0179045,10,1.09343e-06,-5.41299,0.00860385,6.85739,0.891224,0.282997,
2,1,0,1,0,2628.4,0.281759,0.281476,0.00208705,2,0.0178878,10,5.87452e-07,-5.68047,0.00854427,6.90522,0.66759,0.2814756,
2,1,0,1,0,2629.9,0.280261,0.279937,0.00175558,2,0.0178696,10,4.91452e-07,-5.75558,0.00379333,15.5536,0.583213,0.279937,
2,1,0,1,0,2631.4,0.278763,0.278469,0.000899813,2,0.0178501,10,2.5057e-07,-6.04585,0.00773355,7.62909,0.617164,0.278469,
2,0,0,1,0,2632.9,0.277264,0.27693,-0.000571035,2,0.0178289,10,-1.58137e-07,-6.24334,-0.00591314,-9.97778,0.565716,0.27693,
2,0,0,1,0,2634.39,0.275766,0.275448,-0.00131222,2,0.0178063,10,-3.6145e-07,-5.88199,-0.00282228,-20.9051,0.759133,0.275448,
2,0,0,1,0,2635.89,0.274268,0.273912,-0.0029315,2,0.017782,10,-8.02973e-07,-5.53291,-0.00667776,-8.83529,0.633538,0.273912,
2,1,0,1,0,2637.39,0.27277,0.272466,-0.00317053,2,0.0177564,10,-8.63863e-07,-5.49887,-0.0157144,-3.75452,0.514584,0.272466,
2,0,0,1,0,2638.89,0.271272,0.270971,-0.00468468,2,0.0177294,10,-1.26941e-06,-5.32932,-0.0164348,-3.58994,0.545171,0.270971,
2,1,0,1,0,2640.39,0.269774,0.269474,-0.00493433,2,0.017701,10,-1.32967e-06,-5.30677,-0.0219883,-2.68324,0.525304,0.269474,
2,1,0,1,0,2641.89,0.268275,0.267989,-0.00582526,2,0.0176716,10,-1.56111e-06,-5.23468,-0.0270687,-2.17964,0.495976,0.267989,
2,0,0,1,0,2643.38,0.266777,0.266484,-0.00660584,2,0.0176407,10,-1.76035e-06,-5.18007,-0.0186694,-3.16025,0.792127,0.266484,
2,1,0,1,0,2644.88,0.265279,0.264909,-0.00765998,2,0.0176081,10,-2.0292e-06,-5.11577,-0.0360812,-1.6352,0.493219,0.264909,
2,0,0,1,0,2646.38,0.263781,0.263463,-0.00886515,2,0.0175744,10,-2.33564e-06,-5.05231,-0.0524553,-1.12477,0.365246,0.263463,
2,0,0,1,0,2647.88,0.262283,0.262004,-0.00895994,2,0.0175397,10,-2.34754e-06,-5.04769,-0.057773,-1.02124,0.374465,0.262004,
2,0,0,1,0,2649.38,0.260784,0.260461,-0.0100152,2,0.0175043,10,-2.60857e-06,-4.99934,-0.0583644,-1.01089,0.380657,0.260461,
2,0,0,1,0,2650.87,0.259286,0.25899,-0.0106161,2,0.0174677,10,-2.74947e-06,-4.97403,-0.0751782,-0.784802,0.321157,0.25899,
2,0,0,1,0,2652.37,0.257788,0.257503,-0.0110843,2,0.0174301,10,-2.85425e-06,-4.95529,-0.0652017,-0.904884,0.387395,0.257503,
2,1,0,1,0,2653.87,0.25629,0.256031,-0.0113538,2,0.0173916,10,-2.90692e-06,-4.94486,-0.0513491,-1.149,0.505008,0.256031,
2,0,0,1,0,2655.37,0.254792,0.254486,-0.0116434,2,0.0173522,10,-2.96308e-06,-4.93392,-0.055365,-1.06566,0.509715,0.254486,
2,1,0,1,0,2656.87,0.253293,0.252999,-0.0129958,2,0.017312,10,-3.28794e-06,-4.8862,-0.081401,-0.724807,0.359265,0.252999,
2,0,0,1,0,2658.37,0.251795,0.251485,-0.0140854,2,0.0172707,10,-3.54226e-06,-4.85123,-0.0806139,-0.731883,0.379905,0.2514852,
2,0,0,1,0,2659.86,0.250297,0.249996,-0.0143787,2,0.0172285,10,-3.59463e-06,-4.84228,-0.118182,-0.49923,0.271302,0.249996,
2,0,0,1,0,2661.36,0.248799,0.248483,-0.0145184,2,0.0171854,10,-3.60757e-06,-4.83808,-0.106608,-0.553428,0.317028,0.248483,
2,0,0,1,0,2662.86,0.247301,0.247004,-0.014879,2,0.0171416,10,-3.67518e-06,-4.82743,-0.0717904,-0.821837,0.489833,0.247004,
2,0,0,1,0,2664.36,0.245802,0.245478,-0.0161095,2,0.0170966,10,-3.95452e-06,-4.79292,-0.0546465,-1.07967,0.674056,0.2454779,
2,0,0,1,0,2665.86,0.244304,0.243986,-0.0166573,2,0.0170503,10,-4.06414e-06,-4.7784,-0.0883763,-0.6676,0.434579,0.243986,
2,0,0,1,0,2667.35,0.242806,0.242481,-0.0179257,2,0.0170027,10,-4.34666e-06,-4.74652,-0.098233,-0.600613,0.405293,0.242481,
2,0,0,1,0,2668.85,0.241308,0.241017,-0.0178591,2,0.0169545,10,-4.30435e-06,-4.74814,-0.167284,-0.352693,0.24764,0.241017,
2,0,0,1,0,2670.35,0.23981,0.239464,-0.0186583,2,0.0169054,10,-4.46801e-06,-4.72913,-0.140425,-0.420152,0.305741,0.239464,
2,0,0,1,0,2671.85,0.238312,0.238023,-0.0190442,2,0.0168552,10,-4.53296e-06,-4.72024,-0.132055,-0.446782,0.335527,0.238023,
2,0,0,1,0,2673.35,0.236813,0.236529,-0.0197057,2,0.0168042,10,-4.66096e-06,-4.70541,-0.206787,-0.285318,0.216961,0.236529,
2,0,0,1,0,2674.85,0.235315,0.235034,-0.0200329,2,0.0167522,10,-4.70842e-06,-4.69826,-0.127748,-0.461845,0.365551,0.235034,
2,0,0,1,0,2676.34,0.233817,0.233492,-0.0209415,2,0.0166998,10,-4.88967e-06,-4.67899,-0.164006,-0.359743,0.290816,0.233492,
2,0,0,1,0,2677.84,0.232319,0.232007,-0.0211702,2,0.0166465,10,-4.91163e-06,-4.67427,-0.0927577,-0.636066,0.528145,0.232007,
2,0,0,1,0,2679.34,0.230821,0.230503,-0.0220392,2,0.0165922,10,-5.0801e-06,-4.6568,-0.116167,-0.507888,0.42796,0.230503,
2,0,0,1,0,2680.84,0.229322,0.229011,-0.022275,2,0.0165372,10,-5.10121e-06,-4.65218,-0.118705,-0.497032,0.434177,0.229011,
2,0,0,1,0,2682.34,0.227824,0.227519,-0.022932,2,0.0164813,10,-5.21747e-06,-4.63956,-0.124976,-0.472089,0.427361,0.227519,
2,1,0,1,0,2683.83,0.226326,0.226043,-0.0233496,2,0.0164246,10,-5.27801e-06,-4.63172,-0.14373,-0.410493,0.381702,0.226043,
2,0,0,1,0,2685.33,0.224828,0.224507,-0.0239525,2,0.0163669,10,-5.37752e-06,-4.62065,-0.13512,-0.43665,0.407458,0.224507,
2,0,0,1,0,2686.83,0.22333,0.223044,-0.0241771,2,0.0163079,10,-5.39255e-06,-4.6166,-0.116544,-0.506246,0.491223,0.223044,
2,0,0,1,0,2688.33,0.221831,0.221534,-0.0259617,2,0.0162483,10,-5.75139e-06,-4.58567,-0.205038,-0.287751,0.285878,0.221534,
2,0,0,1,0,2689.83,0.220333,0.220063,-0.025949,2,0.0161875,10,-5.71042e-06,-4.58588,-0.218,-0.270642,0.273814,0.220063,
2,0,0,1,0,2691.33,0.218835,0.218526,-0.0265392,2,0.0161258,10,-5.79949e-06,-4.57611,-0.157265,-0.375164,0.38852,0.218526,
2,0,0,1,0,2692.82,0.217337,0.217052,-0.0273263,2,0.0160634,10,-5.93123e-06,-4.56342,-0.242389,-0.243411,0.25975,0.217052,
2,0,0,1,0,2694.32,0.215839,0.215511,-0.0275658,2,0.0160003,10,-5.94073e-06,-4.55963,-0.126647,-0.465863,0.503179,0.215511,
2,0,0,1,0,2695.82,0.21434,0.214034,-0.0282581,2,0.015936,10,-6.04819e-06,-4.54886,-0.132987,-0.443653,0.484706,0.214034,
2,0,0,1,0,2697.32,0.212842,0.212528,-0.0289606,2,0.0158705,10,-6.15494e-06,-4.53819,-0.128616,-0.458731,0.519835,0.212528,
2,0,0,1,0,2698.82,0.211344,0.211013,-0.0296154,2,0.0158042,10,-6.24922e-06,-4.52848,-0.200291,-0.294572,0.339546,0.211013,
2,0,0,1,0,2700.31,0.209846,0.209557,-0.0301177,2,0.0157373,10,-6.31137e-06,-4.52118,-0.257164,-0.229426,0.2705,0.209557,
2,0,0,1,0,2701.81,0.208348,0.208076,-0.0307999,2,0.0156692,10,-6.40874e-06,-4.51145,-0.111738,-0.52802,0.636241,0.208076,
2,0,0,1,0,2703.31,0.20685,0.206566,-0.0322058,2,0.0155996,10,-6.65263e-06,-4.49207,-0.228727,-0.25795,0.318048,0.206566,
2,0,0,1,0,2704.81,0.205351,0.205019,-0.0322642,2,0.0155286,10,-6.61479e-06,-4.49128,-0.152487,-0.386917,0.487692,0.205019,
2,0,0,1,0,2706.31,0.203853,0.203544,-0.0331878,2,0.0154573,10,-6.75518e-06,-4.47902,-0.16274,-0.362541,0.463087,0.203544,
2,0,0,1,0,2707.81,0.202355,0.202085,-0.0334118,2,0.0153852,10,-6.75204e-06,-4.4761,-0.218257,-0.270323,0.355255,0.202085,
2,0,0,1,0,2709.3,0.200857,0.20059,-0.0342173,2,0.0153119,10,-6.86365e-06,-4.46575,-0.125856,-0.468791,0.624432,0.20059,
2,0,0,1,0,2710.8,0.199359,0.199073,-0.0347154,2,0.0152374,10,-6.91092e-06,-4.45948,-0.218164,-0.270438,0.368177,0.199073,
2,0,0,1,0,2712.3,0.19786,0.197552,-0.0355305,2,0.0151617,10,-7.01912e-06,-4.4494,-0.113135,-0.5215,0.72165,0.197552,
2,0,0,1,0,2713.8,0.196362,0.196032,-0.0360844,2,0.0150848,10,-7.0737e-06,-4.44268,-0.130924,-0.450642,0.638977,0.196032,
2,0,0,1,0,2715.3,0.194864,0.194547,-0.0373324,2,0.0150066,10,-7.2629e-06,-4.42791,-0.139536,-0.422831,0.607827,0.194547,
2,0,0,1,0,2716.8,0.193366,0.193033,-0.0381267,2,0.0149267,10,-7.35973e-06,-4.41877,-0.126364,-0.466904,0.695761,0.193033,
2,0,0,1,0,2718.29,0.191868,0.191556,-0.0389812,2,0.0148459,10,-7.4671e-06,-4.40914,-0.212243,-0.277984,0.424411,0.191556,
2,0,0,1,0,2719.79,0.190369,0.190075,-0.0392783,2,0.0147642,10,-7.46581e-06,-4.40585,-0.186965,-0.315567,0.490324,0.190075,
2,0,0,1,0,2721.29,0.188871,0.188537,-0.0398543,2,0.0146811,10,-7.51403e-06,-4.39952,-0.147968,-0.398734,0.623903,0.188537,
2,0,0,1,0,2722.79,0.187373,0.187052,-0.0414275,2,0.0145965,10,-7.74909e-06,-4.38271,-0.157892,-0.373673,0.603774,0.187052,
2,0,0,1,0,2724.29,0.185875,0.18557,-0.041868,2,0.0145107,10,-7.76946e-06,-4.37812,-0.155721,-0.378883,0.628895,0.18557,
2,0,0,1,0,2725.78,0.184377,0.184052,-0.042745,2,0.0144234,10,-7.8673e-06,-4.36911,-0.145877,-0.40445,0.680918,0.184052,
2,0,0,1,0,2727.28,0.182878,0.182611,-0.0435956,2,0.0143351,10,-7.96101e-06,-4.36056,-0.155135,-0.380313,0.656011,0.182611,
2,0,0,1,0,2728.78,0.18138,0.181104,-0.0452839,2,0.0142447,10,-8.20109e-06,-4.34406,-0.108776,-0.542398,0.954476,0.181104,
2,0,0,1,0,2730.28,0.179882,0.17958,-0.045935,2,0.0141526,10,-8.24901e-06,-4.33786,-0.210137,-0.28077,0.502536,0.17958,
2,0,0,1,0,2731.78,0.178384,0.178081,-0.0475169,2,0.0140587,10,-8.46184e-06,-4.32315,-0.147542,-0.399886,0.745271,0.178081,
2,0,0,1,0,2733.28,0.176886,0.176592,-0.0482662,2,0.0139634,10,-8.52342e-06,-4.31636,-0.150991,-0.390752,0.740016,0.1765919,
2,0,0,1,0,2734.77,0.175388,0.175074,-0.0500714,2,0.0138655,10,-8.76622e-06,-4.30041,-0.128623,-0.458704,0.897302,0.175074,
2,0,0,1,0,2736.27,0.173889,0.173573,-0.0514216,2,0.0137657,10,-8.92539e-06,-4.28885,-0.135843,-0.434326,0.876082,0.173573,
2,0,0,1,0,2737.77,0.172391,0.17207,-0.0532336,2,0.0136636,10,-9.15991e-06,-4.27381,-0.101431,-0.581679,1.19612,0.17207,
2,0,0,1,0,2739.27,0.170893,0.170604,-0.0544884,2,0.0135594,10,-9.29593e-06,-4.2637,-0.117328,-0.502864,1.06765,0.170604,
2,0,0,1,0,2740.77,0.169395,0.16907,-0.0560275,2,0.0134522,10,-9.4726e-06,-4.2516,-0.105709,-0.558135,1.2285,0.16907,
2,0,0,1,0,2742.26,0.167897,0.167545,-0.0583617,2,0.0133418,10,-9.77823e-06,-4.23387,-0.110938,-0.53183,1.20231,0.167545,
2,0,0,1,0,2743.76,0.166398,0.1661,-0.0598939,2,0.0132289,10,-9.94838e-06,-4.22262,-0.119852,-0.492275,1.1609,0.1661001,
2,0,0,1,0,2745.26,0.1649,0.164564,-0.0616709,2,0.0131132,10,-1.01488e-05,-4.20992,-0.100097,-0.589427,1.44152,0.164564,
2,0,0,1,0,2746.76,0.163402,0.163106,-0.0642494,2,0.0129936,10,-1.04794e-05,-4.19213,-0.0736906,-0.800645,2.0103,0.163106,
2,0,0,1,0,2748.26,0.161904,0.161586,-0.0675678,2,0.0128699,10,-1.0918e-05,-4.17026,-0.0779279,-0.75711,1.99082,0.161586,
2,0,0,1,0,2749.76,0.160406,0.160067,-0.0703332,2,0.0127416,10,-1.12581e-05,-4.15284,-0.0790624,-0.746246,2.03916,0.160067,
2,0,0,1,0,2751.25,0.158907,0.158634,-0.0726262,2,0.012609,10,-1.1521e-05,-4.13891,-0.0794094,-0.742986,2.13008,0.158634,
2,0,0,1,0,2752.75,0.157409,0.157116,-0.0763221,2,0.0124711,10,-1.19915e-05,-4.11735,-0.0721421,-0.81783,2.46692,0.157116,
2,0,0,1,0,2754.25,0.155911,0.155593,-0.0807713,2,0.0123274,10,-1.25674e-05,-4.09274,-0.0745604,-0.791305,2.49477,0.155593,
2,0,0,1,0,2755.75,0.154413,0.154099,-0.0849285,2,0.0121776,10,-1.30874e-05,-4.07095,-0.0721974,-0.817204,2.71798,0.154099,
2,0,0,1,0,2757.25,0.152915,0.152618,-0.0894326,2,0.0120213,10,-1.3649e-05,-4.0485,-0.0609703,-0.967684,3.38205,0.152618,
2,0,0,1,0,2758.74,0.151417,0.151105,-0.094885,2,0.0118575,10,-1.43376e-05,-4.0228,-0.0620668,-0.950588,3.51974,0.151105,
2,0,0,1,0,2760.24,0.149918,0.149594,-0.100801,2,0.0116854,10,-1.50793e-05,-3.99653,-0.060549,-0.974418,3.80957,0.149594,
2,0,0,1,0,2761.74,0.14842,0.148078,-0.107099,2,0.0115043,10,-1.58591e-05,-3.97021,-0.0599674,-0.983867,4.06434,0.148078,
2,0,0,1,0,2763.24,0.146922,0.146603,-0.112042,2,0.0113142,10,-1.64256e-05,-3.95062,-0.0635752,-0.928035,4.0504,0.146603,
2,0,0,1,0,2764.74,0.145424,0.1451,-0.118757,2,0.0111155,10,-1.72317e-05,-3.92534,-0.0651889,-0.905062,4.18232,0.1451,
2,0,0,1,0,2766.24,0.143926,0.143627,-0.124607,2,0.0109067,10,-1.78969e-05,-3.90446,-0.0621576,-0.9492,4.60731,0.143627,
2,0,0,1,0,2767.73,0.142427,0.142128,-0.131436,2,0.0106876,10,-1.86807e-05,-3.88129,-0.0691071,-0.853748,4.37241,0.142128,
2,0,0,1,0,2769.23,0.140929,0.140649,-0.138084,2,0.0104592,10,-1.94214e-05,-3.85986,-0.0807915,-0.730275,3.92005,0.140649,
2,0,0,1,0,2770.73,0.139431,0.139144,-0.142497,2,0.0102222,10,-1.98275e-05,-3.84619,-0.0922342,-0.639676,3.56949,0.139144,
2,0,0,1,0,2772.23,0.137933,0.137624,-0.149321,2,0.00997682,10,-2.05502e-05,-3.82588,-0.107555,-0.548559,3.16576,0.137624,
2,0,0,1,0,2773.73,0.136435,0.136129,-0.153745,2,0.00972391,10,-2.09291e-05,-3.8132,-0.122397,-0.482037,2.85948,0.136129,
2,0,0,1,0,2775.22,0.134936,0.134634,-0.157805,2,0.00946423,10,-2.12459e-05,-3.80188,-0.161264,-0.365861,2.22166,0.134634,
2,0,0,1,0,2776.72,0.133438,0.133086,-0.160351,2,0.00919922,10,-2.13406e-05,-3.79493,-0.201259,-0.293155,1.82885,0.1330865,
2,0,0,1,0,2778.22,0.13194,0.131667,-0.163739,2,0.00893006,10,-2.15589e-05,-3.78585,-0.261006,-0.226049,1.43458,0.131667,
2,0,0,1,0,2779.72,0.130442,0.130108,-0.16522,2,0.00865726,10,-2.14965e-05,-3.78194,-0.477927,-0.12345,0.792586,0.130108,
2,0,0,1,0,2781.22,0.128944,0.128664,-0.165196,2,0.0083821,10,-2.12546e-05,-3.782,-0.74794,-0.0788834,0.508547,0.128664,
2,0,0,1,0,2782.72,0.127445,0.127159,-0.166526,2,0.00810594,10,-2.11752e-05,-3.77852,-1.47771,-0.0399267,0.258931,0.127159,
2,0,0,1,0,2784.21,0.125947,0.125619,-0.167264,2,0.00783007,10,-2.10116e-05,-3.7766,-2.32264,-0.0254021,0.16487,0.125619,
2,0,0,1,0,2785.71,0.124449,0.124157,-0.166335,2,0.00755312,10,-2.06516e-05,-3.77902,2.35597,0.0250428,-0.16131,0.124157,
2,0,0,1,0,2787.21,0.122951,0.122632,-0.16643,2,0.00727649,10,-2.04097e-05,-3.77877,0.981072,0.0601383,-0.388124,0.122632,
2,0,0,1,0,2788.71,0.121453,0.121104,-0.164934,2,0.00700179,10,-1.99742e-05,-3.78269,0.576466,0.102348,-0.659899,0.121104,
2,0,0,1,0,2790.21,0.119955,0.11965,-0.16332,2,0.00672884,10,-1.95412e-05,-3.78696,0.471383,0.125164,-0.80233,0.11965,
2,0,0,1,0,2791.7,0.118456,0.118138,-0.162599,2,0.00645696,10,-1.92091e-05,-3.78888,0.907902,0.064985,-0.412334,0.118138,
2,0,0,1,0,2793.2,0.116958,0.116596,-0.161567,2,0.00618616,10,-1.88381e-05,-3.79165,0.449211,0.131341,-0.825861,0.116596,
2,0,0,1,0,2794.7,0.11546,0.115114,-0.160142,2,0.00591786,10,-1.84346e-05,-3.79549,0.336524,0.175322,-1.09986,0.115114,
2,0,0,1,0,2796.2,0.113962,0.113686,-0.157935,2,0.00565212,10,-1.79551e-05,-3.80152,0.51477,0.114614,-0.709435,0.113686,
2,0,0,1,0,2797.7,0.112464,0.112155,-0.157421,2,0.00538857,10,-1.76556e-05,-3.80294,0.350232,0.16846,-1.03197,0.112155,
2,0,0,1,0,2799.2,0.110965,0.110674,-0.156426,2,0.00512676,10,-1.73122e-05,-3.80569,0.317623,0.185755,-1.12626,0.110674,
2,0,0,1,0,2800.69,0.109467,0.109145,-0.154047,2,0.00486745,10,-1.68135e-05,-3.81235,0.290184,0.20332,-1.22065,0.1091447,
2,0,0,1,0,2802.19,0.107969,0.107658,-0.152054,2,0.00461111,10,-1.63698e-05,-3.818,0.287744,0.205043,-1.22418,0.107658,
2,0,0,1,0,2803.69,0.106471,0.106171,-0.150485,2,0.00435741,10,-1.59772e-05,-3.82251,0.417713,0.141245,-0.83573,0.1061713,
2,0,0,1,0,2805.19,0.104973,0.104648,-0.148942,2,0.00410592,10,-1.55864e-05,-3.82698,0.303973,0.194096,-1.13655,0.104648,
2,0,0,1,0,2806.69,0.103474,0.103154,-0.147972,2,0.00385626,10,-1.5264e-05,-3.82982,0.26014,0.226801,-1.30103,0.103154,
2,0,0,1,0,2808.18,0.101976,0.10165,-0.146122,2,0.00360997,10,-1.48533e-05,-3.83528,0.252235,0.233909,-1.32887,0.1016497,
2,0,0,1,0,2809.68,0.100478,0.10015,-0.14409,2,0.00336696,10,-1.44307e-05,-3.84137,0.263846,0.223615,-1.25724,0.10015,
2,0,0,1,0,2811.18,0.0989798,0.0986509,-0.143275,2,0.00312607,10,-1.41342e-05,-3.84383,0.313679,0.18809,-1.04549,0.0986509,
2,0,0,1,0,2812.68,0.0974816,0.0971673,-0.140591,2,0.00288791,10,-1.36608e-05,-3.85204,0.255957,0.230507,-1.2643,0.0971673,
2,0,0,1,0,2814.18,0.0959834,0.0956541,-0.139709,2,0.0026525,10,-1.33637e-05,-3.85478,0.279064,0.211421,-1.14973,0.09565413,
2,0,0,1,0,2815.68,0.0944852,0.0941399,-0.136771,2,0.00242064,10,-1.28756e-05,-3.86401,0.33268,0.177348,-0.951657,0.0941399,
2,0,0,1,0,2817.17,0.0929871,0.0926957,-0.134823,2,0.00219101,10,-1.24975e-05,-3.87024,0.352254,0.167493,-0.882422,0.0926957,
2,0,0,1,0,2818.67,0.0914889,0.0911877,-0.134024,2,0.00196312,10,-1.22214e-05,-3.87282,0.344238,0.171393,-0.894088,0.09118773,
2,0,0,1,0,2820.17,0.0899907,0.0896915,-0.132691,2,0.00173816,10,-1.19012e-05,-3.87716,0.293155,0.201259,-1.04101,0.08969152,
2,0,0,1,0,2821.67,0.0884925,0.0881985,-0.130256,2,0.00151514,10,-1.14884e-05,-3.8852,0.432571,0.136394,-0.696925,0.0881985,
2,0,0,1,0,2823.17,0.0869943,0.0866672,-0.130265,2,0.00129412,10,-1.12897e-05,-3.88517,0.391882,0.150556,-0.764306,0.0866672,
2,0,0,1,0,2824.66,0.0854961,0.0851784,-0.129055,2,0.00107434,10,-1.09927e-05,-3.88922,0.412591,0.142999,-0.718889,0.0851784,
2,0,0,1,0,2826.16,0.083998,0.0837151,-0.127987,2,0.000856114,10,-1.07145e-05,-3.89283,0.329161,0.179244,-0.893992,0.0837151,
2,0,0,1,0,2827.66,0.0824998,0.0821701,-0.126536,2,0.000639458,10,-1.03975e-05,-3.89779,0.36558,0.161387,-0.801934,0.0821701,
2,0,0,1,0,2829.16,0.0810016,0.0806675,-0.125257,2,0.000425029,10,-1.01041e-05,-3.9022,0.480236,0.122856,-0.605528,0.0806675,
2,0,0,1,0,2830.66,0.0795034,0.0791829,-0.124569,2,0.000211705,10,-9.86373e-06,-3.90459,0.622833,0.0947284,-0.46216,0.0791829,
2,0,0,1,0,2832.16,0.0780052,0.0777005,-0.124369,2,-4.80774e-07,10,-9.66355e-06,-3.90529,0.516068,0.114326,-0.553,0.0777005,
2,0,0,1,0,2833.65,0.076507,0.0761936,-0.123508,2,-0.000211577,10,-9.41055e-06,-3.9083,0.505066,0.116817,-0.562269,0.0761936,
2,0,0,1,0,2835.15,0.0750088,0.0747059,-0.122926,2,-0.000420979,10,-9.18331e-06,-3.91036,0.412907,0.142889,-0.682221,0.0747059,
2,0,0,1,0,2836.65,0.0735106,0.0731694,-0.121969,2,-0.000629418,10,-8.9244e-06,-3.91375,0.679438,0.0868364,-0.412735,0.0731694,
2,0,0,1,0,2838.15,0.0720124,0.0717738,-0.120972,2,-0.000836739,10,-8.6826e-06,-3.91732,0.56204,0.104975,-0.496271,0.0717738,
2,0,0,1,0,2839.65,0.0705142,0.0701938,-0.119912,2,-0.00104291,10,-8.41707e-06,-3.92114,0.455748,0.129458,-0.607988,0.0701938,
2,0,0,1,0,2841.14,0.069016,0.0687336,-0.119426,2,-0.00124728,10,-8.20859e-06,-3.9229,0.451496,0.130677,-0.61002,0.06873364,
2,0,0,1,0,2842.64,0.0675178,0.0671939,-0.11872,2,-0.00145084,10,-7.97723e-06,-3.92548,1.93335,0.0305169,-0.140524,0.0671939,
2,0,0,1,0,2844.14,0.0660196,0.0656955,-0.118603,2,-0.00165314,10,-7.79168e-06,-3.9259,0.479972,0.122924,-0.56189,0.0656955,
2,0,0,1,0,2845.64,0.0645214,0.0642375,-0.116924,2,-0.00185437,10,-7.51089e-06,-3.9321,0.502014,0.117527,-0.534071,0.0642375,
2,0,0,1,0,2847.14,0.0630233,0.062737,-0.114714,2,-0.00205344,10,-7.19684e-06,-3.94038,0.354006,0.166664,-0.751739,0.062737,
2,0,0,1,0,2848.64,0.0615251,0.0612313,-0.114935,2,-0.00225129,10,-7.03764e-06,-3.93955,0.39765,0.148372,-0.664393,0.0612313,
2,0,0,1,0,2850.13,0.0600269,0.0596936,-0.113941,2,-0.00244802,10,-6.80157e-06,-3.94332,0.588077,0.100327,-0.447009,0.0596936,
2,0,0,1,0,2851.63,0.0585287,0.0582314,-0.113091,2,-0.00264354,10,-6.58542e-06,-3.94657,0.383644,0.153789,-0.678585,0.0582314,
2,0,0,1,0,2853.13,0.0570305,0.0567023,-0.11233,2,-0.00283767,10,-6.36934e-06,-3.94951,0.358122,0.164748,-0.722259,0.0567023,
2,0,0,1,0,2854.63,0.0555323,0.0552007,-0.111364,2,-0.00303037,10,-6.14736e-06,-3.95326,0.543423,0.108571,-0.473409,0.0552007,
2,0,0,1,0,2856.13,0.0540342,0.0537215,-0.111432,2,-0.00322203,10,-5.98632e-06,-3.95299,0.388307,0.151942,-0.656913,0.0537215,
2,0,0,1,0,2857.62,0.052536,0.0521903,-0.10931,2,-0.00341255,10,-5.70491e-06,-3.96134,0.413163,0.142801,-0.611664,0.0521903,
2,0,0,1,0,2859.12,0.0510378,0.0507174,-0.109089,2,-0.00360133,10,-5.53269e-06,-3.96222,0.324133,0.182024,-0.770184,0.05071738,
2,0,0,1,0,2860.62,0.0495396,0.0492275,-0.1079,2,-0.00378821,10,-5.31164e-06,-3.96698,0.444194,0.132825,-0.557644,0.0492275,
2,0,0,1,0,2862.12,0.0480414,0.0477398,-0.107015,2,-0.00397418,10,-5.10889e-06,-3.97055,0.883204,0.0668022,-0.278557,0.04773977,
2,0,0,1,0,2863.62,0.0465432,0.0462117,-0.106197,2,-0.00415895,10,-4.90752e-06,-3.97389,0.479615,0.123015,-0.512786,0.0462117,
2,0,0,1,0,2865.12,0.045045,0.044742,-0.104847,2,-0.00434266,10,-4.69105e-06,-3.97945,0.406977,0.144971,-0.598038,0.044742,
2,0,0,1,0,2866.61,0.0435468,0.043233,-0.103463,2,-0.00452469,10,-4.473e-06,-3.98522,0.323877,0.182168,-0.743775,0.043233,
2,0,0,1,0,2868.11,0.0420486,0.0417738,-0.103754,2,-0.00470557,10,-4.33418e-06,-3.984,0.601792,0.0980405,-0.398042,0.0417738,
2,0,0,1,0,2869.61,0.0405504,0.0402479,-0.103728,2,-0.00488538,10,-4.17484e-06,-3.9841,0.621397,0.0949474,-0.381039,0.04024791,
2,0,0,1,0,2871.11,0.0390522,0.0387506,-0.102839,2,-0.00506463,10,-3.98507e-06,-3.98784,0.763467,0.077279,-0.307275,0.03875063,
2,0,0,1,0,2872.61,0.037554,0.0372703,-0.100745,2,-0.00524222,10,-3.75478e-06,-3.99678,0.505228,0.116779,-0.464017,0.0372703,
2,0,0,1,0,2874.11,0.0360558,0.0357359,-0.100461,2,-0.00541858,10,-3.59007e-06,-3.998,0.601118,0.0981505,-0.386548,0.0357359,
2,0,0,1,0,2875.6,0.0345576,0.0342492,-0.100201,2,-0.00559434,10,-3.43182e-06,-3.99913,1.82225,0.0323775,-0.127287,0.0342492,
2,0,0,1,0,2877.1,0.0330594,0.0327222,-0.0998976,2,-0.00576949,10,-3.26887e-06,-4.00044,0.761999,0.0774279,-0.302112,0.03272219,
2,0,0,1,0,2878.6,0.0315613,0.0312483,-0.0995036,2,-0.00594396,10,-3.10932e-06,-4.00216,0.59683,0.0988557,-0.383893,0.0312483,
2,0,0,1,0,2880.1,0.0300631,0.0297913,-0.099239,2,-0.0061174,10,-2.95646e-06,-4.00332,0.747518,0.0789278,-0.304372,0.0297913,
2,0,0,1,0,2881.6,0.0285649,0.0282462,-0.098701,2,-0.00629052,10,-2.78793e-06,-4.00568,1.39945,0.0421595,-0.161749,0.0282462,
2,0,0,1,0,2883.09,0.0270667,0.0267468,-0.0984324,2,-0.00646312,10,-2.63276e-06,-4.00686,2.22157,0.0265578,-0.102015,0.02674683,
2,0,0,1,0,2884.59,0.0255685,0.0252368,-0.0982645,2,-0.00663518,10,-2.47989e-06,-4.0076,3.98174,0.0148176,-0.0566773,0.0252368,
2,0,0,1,0,2886.09,0.0240703,0.0238106,-0.0981839,2,-0.00680676,10,-2.33781e-06,-4.00796,-2.78618,-0.0211759,0.0811972,0.0238106,
2,0,0,1,0,2887.59,0.0225722,0.0222667,-0.0979788,2,-0.00697859,10,-2.18166e-06,-4.00887,-0.544113,-0.108433,0.414731,0.0222667,
2,0,0,1,0,2889.09,0.021074,0.0207068,-0.0989509,2,-0.00715091,10,-2.04896e-06,-4.00458,-3.09236,-0.0190793,0.073263,0.0207068,
2,0,0,1,0,2890.59,0.0195758,0.0192552,-0.0987758,2,-0.00732326,10,-1.90194e-06,-4.00535,-1.55341,-0.037981,0.14614,0.0192552,
2,0,0,1,0,2892.08,0.0180776,0.0177737,-0.097938,2,-0.00749537,10,-1.74073e-06,-4.00905,-1.51193,-0.0390231,0.149558,0.0177737,
2,0,0,1,0,2893.58,0.0165794,0.0162669,-0.0988286,2,-0.00766743,10,-1.60764e-06,-4.00512,-0.937985,-0.0629008,0.24279,0.0162669,
2,0,0,1,0,2895.08,0.0150812,0.0147654,-0.0996275,2,-0.00784023,10,-1.47104e-06,-4.00162,-0.764396,-0.0771851,0.298363,0.0147654,
2,0,0,1,0,2896.58,0.013583,0.0132532,-0.0999586,2,-0.00801403,10,-1.32477e-06,-4.00018,-0.515149,-0.11453,0.444068,0.0132532,
2,0,0,1,0,2898.08,0.0120848,0.0117696,-0.0993031,2,-0.00818796,10,-1.16876e-06,-4.00304,-0.843952,-0.0699092,0.274817,0.0117696,
2,0,0,1,0,2899.57,0.0105866,0.0103084,-0.10003,2,-0.00836215,10,-1.03115e-06,-3.99987,-0.743281,-0.0793777,0.311837,0.0103084,
2,0,0,1,0,2901.07,0.00908843,0.0087507,-0.101019,2,-0.00853778,10,-8.83987e-07,-3.9956,-0.456288,-0.129304,0.508947,0.0087507,
2,0,0,1,0,2902.57,0.00759024,0.00730114,-0.101194,2,-0.00871389,10,-7.38833e-07,-3.99484,-1.01132,-0.0583393,0.23102,0.00730114,
2,0,0,1,0,2904.07,0.00609203,0.00578683,-0.10239,2,-0.00889083,10,-5.92516e-07,-3.98974,-0.700903,-0.0841771,0.335496,0.00578683,
2,0,0,1,0,2905.57,0.00459384,0.00428949,-0.102552,2,-0.00906836,10,-4.39896e-07,-3.98906,-0.505306,-0.116761,0.468604,0.004289492,
2,0,0,1,0,2907.07,0.00309563,0.00280598,-0.104002,2,-0.00924737,10,-2.91827e-07,-3.98296,-0.398112,-0.148199,0.596975,0.00280598,
2,0,0,1,0,2908.56,0.00159744,0.00119839,-0.104322,2,-0.0094299,10,-1.25019e-07,-3.98162, , , ,0.00119839,
2,0,0,1,0,2909.96,0.000199235,-0.000195464,-0.10551,2,-0.00959926,10,2.06234e-08,-3.97671, , , ,-0.000195464,