File: Figure_codes/Fig_3-5/rawdata_trumpetplot_data/after 10th/20221101_1-115_003_TrumpetPlot_ParaChange_from10_every3_02_CV_C01_15.csv
mode,ox/red,error,control changes,counter inc.,time/s,control/V,Ewe/V,<I>/mA,cycle number,(Q-Qo)/C,I Range,P/W,log(|I|),Tafel slope mV/dec,alpha_eff,dI/d(E-IR),E-IR/V,
2,0,0,1,0,29892,2.44065e-05,-0.000382585,-0.3837,16,0.0000000E+000,10,1.46798e-07,-3.41601, , , ,-0.000382585,
2,0,0,1,0,29893.3,0.00129791,0.000896362,-0.177253,16,-0.000262664,10,-1.58883e-07,-3.75141, , , ,0.000896362,
2,0,0,1,0,29894.8,0.00279612,0.00247532,-0.141758,16,-0.000480796,10,-3.50895e-07,-3.84845,-0.0174082,-3.38921,20.288,0.00247532,
2,0,0,1,0,29896.3,0.00429431,0.00392911,-0.121279,16,-0.000660764,10,-4.76518e-07,-3.91622,-0.0247367,-2.38512,11.5054,0.003929114,
2,0,0,1,0,29897.8,0.00579242,0.00544752,-0.106587,16,-0.000814163,10,-5.80634e-07,-3.9723,-0.0262813,-2.24494,9.46045,0.00544752,
2,0,0,1,0,29899.3,0.00729061,0.00698725,-0.0944054,16,-0.000947452,10,-6.59634e-07,-4.025,-0.0302215,-1.95225,7.27024,0.00698725,
2,0,0,1,0,29900.8,0.00878882,0.00849409,-0.0849282,16,-0.00106477,10,-7.21388e-07,-4.07095,-0.0340161,-1.73448,5.80234,0.00849409,
2,0,0,1,0,29902.2,0.010287,0.0100073,-0.0766812,16,-0.00116896,10,-7.67374e-07,-4.11531,-0.0360161,-1.63816,4.9487,0.0100073,
2,0,0,1,0,29903.7,0.0117852,0.0114675,-0.0698251,16,-0.00126253,10,-8.0072e-07,-4.15599,-0.0376097,-1.56875,4.28865,0.0114675,
2,0,0,1,0,29905.2,0.0132834,0.0129637,-0.0635907,16,-0.0013465,10,-8.24371e-07,-4.19661,-0.0371818,-1.5868,3.94128,0.01296369,
2,0,0,1,0,29906.7,0.0147815,0.0144471,-0.0582184,16,-0.00142177,10,-8.41089e-07,-4.23494,-0.0400187,-1.47431,3.37415,0.01444713,
2,0,0,1,0,29908.2,0.0162797,0.0159858,-0.0536597,16,-0.00148917,10,-8.57793e-07,-4.27035,-0.0418528,-1.4097,2.95466,0.0159858,
2,0,0,1,0,29909.7,0.0177779,0.0174534,-0.0489727,16,-0.00154994,10,-8.54739e-07,-4.31005,-0.0401092,-1.47098,2.81857,0.0174534,
2,0,0,1,0,29911.2,0.0192761,0.0189592,-0.0451831,16,-0.00160487,10,-8.56634e-07,-4.34502,-0.0400591,-1.47282,2.589,0.01895915,
2,0,0,1,0,29912.7,0.0207743,0.0204438,-0.0403957,16,-0.00165308,10,-8.25841e-07,-4.39366,-0.0370679,-1.59168,2.56417,0.02044378,
2,0,0,1,0,29914.2,0.0222725,0.0219803,-0.0375418,16,-0.00169587,10,-8.25181e-07,-4.42549,-0.0402186,-1.46698,2.13447,0.0219803,
2,0,0,1,0,29915.7,0.0237707,0.0234818,-0.0339987,16,-0.00173355,10,-7.98353e-07,-4.46854,-0.0358994,-1.64348,2.19004,0.0234818,
2,0,0,1,0,29917.2,0.0252689,0.0249929,-0.0306363,16,-0.00176666,10,-7.65691e-07,-4.51376,-0.0349522,-1.68802,2.02426,0.0249929,
2,0,0,1,0,29918.7,0.0267671,0.0264552,-0.0282149,16,-0.00179493,10,-7.46432e-07,-4.54952,-0.0303297,-1.94529,2.1381,0.0264552,
2,0,0,1,0,29920.2,0.0282653,0.0279398,-0.025041,16,-0.00181839,10,-6.99642e-07,-4.60135,-0.0288324,-2.04631,1.99627,0.0279398,
2,0,0,1,0,29921.7,0.0297635,0.0294244,-0.022592,16,-0.00183752,10,-6.64756e-07,-4.64605,-0.0282338,-2.0897,1.80264,0.0294244,
2,0,0,1,0,29923.2,0.0312617,0.0309376,-0.0201814,16,-0.00185292,10,-6.24365e-07,-4.69505,-0.0257629,-2.29011,1.73106,0.0309376,
2,0,0,1,0,29924.7,0.0327599,0.0324169,-0.0167533,16,-0.00186403,10,-5.43091e-07,-4.7759,-0.0210748,-2.79956,1.83128,0.0324169,
2,0,0,1,0,29926.2,0.0342581,0.0339577,-0.0139161,16,-0.00187121,10,-4.72559e-07,-4.85648,-0.0193003,-3.05695,1.67688,0.0339577,
2,0,0,1,0,29927.7,0.0357563,0.035438,-0.0118595,16,-0.00187411,10,-4.20277e-07,-4.92593,-0.0160902,-3.66683,1.66806,0.035438,
2,0,0,1,0,29929.2,0.0372544,0.0369331,-0.00966299,16,-0.00187336,10,-3.56884e-07,-5.01489,-0.0128447,-4.59335,1.54988,0.0369331,
2,1,0,1,0,29930.7,0.0387526,0.0384155,-0.00689448,16,-0.00186923,10,-2.64855e-07,-5.1615,-0.0080536,-7.32592,1.68076,0.0384155,
2,0,0,1,0,29932.2,0.0402508,0.039881,-0.00445131,16,-0.00186086,10,-1.77523e-07,-5.35151,-0.00489169,-12.0613,1.55976,0.039881,
2,0,0,1,0,29933.7,0.041749,0.0414112,-0.00163939,16,-0.00184847,10,-6.78892e-08,-5.78532,-0.00349942,-16.86,1.29193,0.04141121,
2,0,0,1,0,29935.2,0.0432472,0.0429244,0.000426408,16,-0.00183287,10,1.83033e-08,-6.37017,0.041605,1.4181,1.41603,0.0429244,
2,0,0,1,0,29936.7,0.0447454,0.0444069,0.00256268,16,-0.00181455,10,1.13801e-07,-5.59131,0.00412195,14.3136,1.40883,0.0444069,
2,0,0,1,0,29938.2,0.0462435,0.0459338,0.00492438,16,-0.00179224,10,2.26196e-07,-5.30765,0.00521002,11.3243,1.55299,0.0459338,
2,0,0,1,0,29939.7,0.0477417,0.0473982,0.0071599,16,-0.00176677,10,3.39366e-07,-5.14509,0.0106554,5.53712,1.37856,0.0473982,
2,0,0,1,0,29941.2,0.0492399,0.048921,0.00861238,16,-0.00173834,10,4.21326e-07,-5.06488,0.0145323,4.05993,1.33457,0.048921,
2,1,0,1,0,29942.7,0.0507381,0.050449,0.0100239,16,-0.00170734,10,5.05695e-07,-4.99896,0.0170386,3.46272,1.41825,0.05044901,
2,1,0,1,0,29944.2,0.0522363,0.051906,0.012907,16,-0.00167282,10,6.69949e-07,-4.88918,0.0200798,2.93827,1.3888,0.051906,
2,0,0,1,0,29945.7,0.0537345,0.053381,0.0143557,16,-0.00163536,10,7.66319e-07,-4.84298,0.0280882,2.10053,1.20016,0.053381,
2,0,0,1,0,29947.2,0.0552327,0.0549102,0.0161857,16,-0.00159539,10,8.88759e-07,-4.79087,0.0304032,1.94058,1.18402,0.0549102,
2,1,0,1,0,29948.7,0.0567309,0.0564266,0.0176328,16,-0.00155289,10,9.94958e-07,-4.75368,0.0343381,1.71821,1.19012,0.0564266,
2,1,0,1,0,29950.2,0.0582291,0.0578751,0.0199005,16,-0.00150783,10,1.15175e-06,-4.70114,0.037125,1.58922,1.1988,0.0578751,
2,1,0,1,0,29951.7,0.0597273,0.0593703,0.0215038,16,-0.00145989,10,1.27669e-06,-4.66749,0.0444568,1.32713,1.11601,0.0593703,
2,1,0,1,0,29953.2,0.0612255,0.0608962,0.0231108,16,-0.00140934,10,1.40736e-06,-4.63619,0.0541739,1.08909,0.96432,0.0608962,
2,1,0,1,0,29954.7,0.0627237,0.0624327,0.024626,16,-0.00135621,10,1.53747e-06,-4.60861,0.0540681,1.09122,1.05929,0.0624327,
2,1,0,1,0,29956.2,0.0642219,0.0639025,0.0259012,16,-0.00130118,10,1.65515e-06,-4.58668,0.0436588,1.35139,1.41744,0.06390246,
2,1,0,1,0,29957.7,0.0657201,0.0654295,0.0288991,16,-0.00124283,10,1.89086e-06,-4.53912,0.0528588,1.11618,1.23483,0.0654295,
2,1,0,1,0,29959.2,0.0672183,0.0669342,0.0304714,16,-0.00118103,10,2.03957e-06,-4.51611,0.0559481,1.05455,1.2313,0.0669342,
2,1,0,1,0,29960.7,0.0687164,0.0684007,0.0322168,16,-0.00111737,10,2.20365e-06,-4.49192,0.0732406,0.805564,0.988857,0.0684007,
2,1,0,1,0,29962.2,0.0702146,0.0699191,0.033756,16,-0.00105134,10,2.36019e-06,-4.47165,0.0782937,0.753573,0.971056,0.0699191,
2,1,0,1,0,29963.7,0.0717128,0.0714186,0.0345486,16,-0.000983334,10,2.46741e-06,-4.46157,0.0778862,0.757516,1.02648,0.0714186,
2,1,0,1,0,29965.2,0.073211,0.072884,0.0361341,16,-0.000913004,10,2.6336e-06,-4.44208,0.0803681,0.734122,1.02997,0.072884,
2,1,0,1,0,29966.7,0.0747092,0.0744122,0.0378558,16,-0.000840237,10,2.81693e-06,-4.42187,0.0819763,0.71972,1.05797,0.0744122,
2,1,0,1,0,29968.2,0.0762074,0.0758289,0.0389881,16,-0.000765785,10,2.95642e-06,-4.40907,0.103541,0.569825,0.871114,0.07582885,
2,1,0,1,0,29969.7,0.0777055,0.0773833,0.0407932,16,-0.000688791,10,3.15671e-06,-4.38941,0.0959922,0.614633,0.962129,0.0773833,
2,1,0,1,0,29971.2,0.0792037,0.0788764,0.0422158,16,-0.000609779,10,3.32983e-06,-4.37452,0.10307,0.572427,0.928919,0.0788764,
2,1,0,1,0,29972.7,0.0807019,0.0803801,0.0435875,16,-0.000528384,10,3.50356e-06,-4.36064,0.0973276,0.6062,1.01497,0.0803801,
2,1,0,1,0,29974.2,0.0822001,0.0818985,0.0443833,16,-0.000445144,10,3.63492e-06,-4.35278,0.0976296,0.604325,1.06012,0.0818985,
2,1,0,1,0,29975.7,0.0836983,0.0833884,0.0464142,16,-0.000359728,10,3.87041e-06,-4.33335,0.10164,0.580482,1.05913,0.0833884,
2,1,0,1,0,29977.2,0.0851965,0.0849059,0.0481154,16,-0.000271105,10,4.08528e-06,-4.31772,0.110715,0.5329,1.00356,0.0849059,
2,1,0,1,0,29978.7,0.0866947,0.0863671,0.0494641,16,-0.000180278,10,4.27207e-06,-4.30571,0.135646,0.434954,0.841095,0.08636713,
2,1,0,1,0,29980.2,0.0881929,0.087856,0.051424,16,-8.69696e-05,10,4.5179e-06,-4.28883,0.098869,0.596749,1.20152,0.087856,
2,1,0,1,0,29981.7,0.0896911,0.089366,0.0530425,16,8.69533e-06,10,4.74019e-06,-4.27538,0.0852565,0.69203,1.44973,0.089366,
2,1,0,1,0,29983.2,0.0911893,0.0908665,0.0557037,16,0.000107515,10,5.0616e-06,-4.25412,0.103426,0.570457,1.23198,0.0908665,
2,1,0,1,0,29984.6,0.0926875,0.0923712,0.0573187,16,0.00021014,10,5.2946e-06,-4.2417,0.100354,0.58792,1.31159,0.0923712,
2,1,0,1,0,29986.1,0.0941857,0.0938907,0.0597963,16,0.000315435,10,5.61432e-06,-4.22333,0.0943278,0.625479,1.45538,0.0938907,
2,1,0,1,0,29987.6,0.0956839,0.0953679,0.0619153,16,0.000423584,10,5.90473e-06,-4.2082,0.0912198,0.646789,1.55752,0.0953679,
2,1,0,1,0,29989.1,0.0971821,0.0968822,0.0638641,16,0.000535393,10,6.18729e-06,-4.19474,0.0860006,0.686042,1.70513,0.0968822,
2,1,0,1,0,29990.6,0.0986803,0.0983403,0.0657478,16,0.00065059,10,6.46566e-06,-4.18212,0.092596,0.637177,1.65083,0.0983403,
2,1,0,1,0,29992.1,0.100178,0.0998926,0.0684217,16,0.000769358,10,6.83483e-06,-4.16481,0.104542,0.564369,1.51194,0.0998926,
2,1,0,1,0,29993.6,0.101677,0.101343,0.0695587,16,0.000890994,10,7.0493e-06,-4.15765,0.119044,0.495613,1.36558,0.101343,
2,1,0,1,0,29995.1,0.103175,0.102884,0.073064,16,0.00101612,10,7.51711e-06,-4.1363,0.111795,0.527751,1.49063,0.102884,
2,1,0,1,0,29996.6,0.104673,0.10443,0.0756897,16,0.00114453,10,7.90429e-06,-4.12096,0.117206,0.503389,1.46591,0.10443,
2,1,0,1,0,29998.1,0.106171,0.105857,0.0780141,16,0.00127662,10,8.25837e-06,-4.10783,0.1183,0.498734,1.49345,0.105857,
2,1,0,1,0,29999.6,0.107669,0.107323,0.0788251,16,0.0014117,10,8.45974e-06,-4.10334,0.14139,0.417286,1.2873,0.107323,
2,1,0,1,0,30001.1,0.109167,0.10883,0.080632,16,0.00154907,10,8.77516e-06,-4.09349,0.152391,0.387161,1.22761,0.10883,
2,1,0,1,0,30002.6,0.110666,0.110343,0.0825784,16,0.0016897,10,9.11193e-06,-4.08313,0.143401,0.411434,1.33005,0.110343,
2,1,0,1,0,30004.1,0.112164,0.111815,0.085257,16,0.00183367,10,9.53299e-06,-4.06927,0.191953,0.307368,1.01469,0.111815,
2,1,0,1,0,30005.6,0.113662,0.113341,0.0871509,16,0.00198038,10,9.87774e-06,-4.05973,0.177013,0.33331,1.12696,0.113341,
2,1,0,1,0,30007.1,0.11516,0.11483,0.0889057,16,0.00212933,10,1.0209e-05,-4.05107,0.16899,0.349133,1.20518,0.11483,
2,1,0,1,0,30008.6,0.116658,0.116348,0.090372,16,0.00228116,10,1.05146e-05,-4.04397,0.187949,0.313914,1.10323,0.116348,
2,1,0,1,0,30010.1,0.118157,0.117834,0.0922825,16,0.00243615,10,1.0874e-05,-4.03488,0.222481,0.265191,0.94722,0.117834,
2,1,0,1,0,30011.6,0.119655,0.119304,0.0935804,16,0.00259315,10,1.11646e-05,-4.02882,0.223049,0.264516,0.966191,0.119304,
2,1,0,1,0,30013.1,0.121153,0.120828,0.0947334,16,0.00275152,10,1.14465e-05,-4.0235,0.210845,0.279826,1.03903,0.120828,
2,1,0,1,0,30014.6,0.122651,0.122296,0.0965086,16,0.002913,10,1.18026e-05,-4.01543,0.165107,0.357345,1.34241,0.122296,
2,1,0,1,0,30016.1,0.124149,0.123824,0.0977936,16,0.00307705,10,1.21092e-05,-4.00969,0.200471,0.294307,1.12971,0.123824,
2,1,0,1,0,30017.6,0.125648,0.125283,0.0999405,16,0.00324342,10,1.25209e-05,-4.00026,0.26414,0.223367,0.866367,0.125283,
2,1,0,1,0,30019.1,0.127146,0.12676,0.100282,16,0.00341162,10,1.27118e-05,-3.99878,0.314242,0.187753,0.736333,0.12676,
2,1,0,1,0,30020.6,0.128644,0.128319,0.101794,16,0.00358116,10,1.30621e-05,-3.99228,0.388708,0.151785,0.600075,0.128319,
2,1,0,1,0,30022.1,0.130142,0.129809,0.102415,16,0.00375218,10,1.32943e-05,-3.98964,2.21924,0.0265857,0.10544,0.129809,
2,1,0,1,0,30023.6,0.13164,0.131324,0.102141,16,0.00392365,10,1.34136e-05,-3.9908,-0.478727,-0.123243,-0.488394,0.131324,
2,1,0,1,0,30025.1,0.133139,0.132817,0.101507,16,0.00409409,10,1.34818e-05,-3.99351,-0.312096,-0.189044,-0.745057,0.132817,
2,1,0,1,0,30026.6,0.134637,0.134277,0.0999009,16,0.00426248,10,1.34144e-05,-4.00043,-0.206444,-0.285792,-1.10641,0.134277,
2,1,0,1,0,30028.1,0.136135,0.135816,0.0978382,16,0.0044287,10,1.3288e-05,-4.00949,-0.155699,-0.378936,-1.44054,0.135816,
2,1,0,1,0,30029.6,0.137633,0.137321,0.0955311,16,0.00459145,10,1.31184e-05,-4.01986,-0.108973,-0.541421,-1.99749,0.1373208,
2,1,0,1,0,30031.1,0.139131,0.138857,0.0923152,16,0.00474971,10,1.28186e-05,-4.03473,-0.102009,-0.57838,-2.06856,0.138857,
2,1,0,1,0,30032.6,0.14063,0.140379,0.0890211,16,0.00490236,10,1.24967e-05,-4.05051,-0.0786187,-0.750457,-2.57967,0.140379,
2,1,0,1,0,30034.1,0.142128,0.141826,0.0848862,16,0.0050499,10,1.20391e-05,-4.07116,-0.0755283,-0.781164,-2.56772,0.141826,
2,1,0,1,0,30035.6,0.143626,0.143352,0.0802066,16,0.00519109,10,1.14978e-05,-4.09579,-0.0680473,-0.867044,-2.72439,0.143352,
2,1,0,1,0,30037.1,0.145124,0.144792,0.0761874,16,0.00532564,10,1.10313e-05,-4.11812,-0.0618492,-0.953933,-2.85882,0.144792,
2,1,0,1,0,30038.6,0.146622,0.146321,0.07187,16,0.00545346,10,1.05161e-05,-4.14345,-0.0682531,-0.86443,-2.44717,0.146321,
2,1,0,1,0,30040.1,0.14812,0.147802,0.0683713,16,0.00557575,10,1.01054e-05,-4.16513,-0.0763478,-0.77278,-2.06674,0.147802,
2,1,0,1,0,30041.6,0.149619,0.149301,0.0655304,16,0.00569317,10,9.78377e-06,-4.18356,-0.0789265,-0.747531,-1.92009,0.149301,
2,1,0,1,0,30043.1,0.151117,0.150774,0.062297,16,0.0058058,10,9.39278e-06,-4.20553,-0.0860608,-0.685562,-1.68541,0.150774,
2,1,0,1,0,30044.6,0.152615,0.152271,0.0601611,16,0.00591463,10,9.16082e-06,-4.22068,-0.101868,-0.57918,-1.37021,0.152271,
2,1,0,1,0,30046.1,0.154113,0.153781,0.0588725,16,0.00602018,10,9.0535e-06,-4.23009,-0.111472,-0.52928,-1.21765,0.153781,
2,1,0,1,0,30047.6,0.155611,0.155302,0.0574794,16,0.00612343,10,8.92667e-06,-4.24049,-0.130227,-0.453055,-1.00817,0.155302,
2,1,0,1,0,30049.1,0.15711,0.156799,0.0559114,16,0.00622452,10,8.76687e-06,-4.2525,-0.176252,-0.334748,-0.732126,0.156799,
2,1,0,1,0,30050.6,0.158608,0.158283,0.0545852,16,0.00632379,10,8.6399e-06,-4.26293,-0.217965,-0.270685,-0.580551,0.158283,
2,1,0,1,0,30052.1,0.160106,0.159747,0.0541636,16,0.00642154,10,8.65249e-06,-4.26629,-0.196339,-0.3005,-0.633385,0.1597473,
2,1,0,1,0,30053.6,0.161604,0.161267,0.0527579,16,0.00651807,10,8.50811e-06,-4.27771,-0.233648,-0.252516,-0.523002,0.161267,
2,1,0,1,0,30055.1,0.163102,0.162769,0.0521073,16,0.00661308,10,8.48147e-06,-4.2831,-0.249268,-0.236693,-0.485607,0.162769,
2,1,0,1,0,30056.6,0.164601,0.164288,0.0519743,16,0.00670715,10,8.53875e-06,-4.28421,-0.382672,-0.154179,-0.310594,0.164288,
2,1,0,1,0,30058.1,0.166099,0.165799,0.0516992,16,0.00680026,10,8.57168e-06,-4.28652,-0.471449,-0.125146,-0.25164,0.165799,
2,1,0,1,0,30059.6,0.167597,0.167232,0.0511352,16,0.006893,10,8.55141e-06,-4.29128,-1.75564,-0.033606,-0.0668575,0.1672316,
2,1,0,1,0,30061.1,0.169095,0.168755,0.0509414,16,0.00698554,10,8.59664e-06,-4.29293,-7.84473,-0.00752097,-0.0149609,0.168755,
2,1,0,1,0,30062.6,0.170593,0.170303,0.0507108,16,0.00707744,10,8.63618e-06,-4.2949,-1.19972,-0.0491783,-0.0979672,0.170303,
2,1,0,1,0,30064.1,0.172091,0.171796,0.0505365,16,0.00716907,10,8.68195e-06,-4.29639,3.52798,0.0167234,0.0331926,0.171796,
2,1,0,1,0,30065.6,0.17359,0.173248,0.0507401,16,0.00726087,10,8.79063e-06,-4.29465,2.99271,0.0197146,0.038814,0.173248,
2,1,0,1,0,30067,0.175088,0.174752,0.0510069,16,0.00735271,10,8.91355e-06,-4.29237,-0.471012,-0.125262,-0.246126,0.174752,
2,1,0,1,0,30068.5,0.176586,0.17626,0.0503584,16,0.00744414,10,8.87616e-06,-4.29793,-0.955781,-0.0617296,-0.121851,0.17626,
2,1,0,1,0,30070,0.178084,0.177753,0.0505363,16,0.00753502,10,8.98298e-06,-4.2964,-4.49192,-0.0131347,-0.0257857,0.177753,
2,1,0,1,0,30071.5,0.179582,0.179254,0.050671,16,0.00762611,10,9.083e-06,-4.29524,2.6356,0.0223858,0.0440348,0.179254,
2,1,0,1,0,30073,0.181081,0.180768,0.0502831,16,0.00771722,10,9.08955e-06,-4.29858,-2.18545,-0.0269967,-0.0532626,0.180768,
2,1,0,1,0,30074.5,0.182579,0.18227,0.050185,16,0.00780847,10,9.14724e-06,-4.29943,-1.61266,-0.0365854,-0.0719843,0.18227,
2,1,0,1,0,30076,0.184077,0.183769,0.0503818,16,0.00789959,10,9.2586e-06,-4.29773,0.895024,0.06592,0.130189,0.183769,
2,1,0,1,0,30077.5,0.185575,0.185263,0.0505102,16,0.00799053,10,9.35766e-06,-4.29662,1.38004,0.0427525,0.0842334,0.185263,
2,1,0,1,0,30079,0.187073,0.186763,0.0506958,16,0.00808186,10,9.46812e-06,-4.29503,2.49534,0.0236441,0.0464837,0.186763,
2,1,0,1,0,30080.5,0.188572,0.188282,0.0500225,16,0.00817328,10,9.41833e-06,-4.30083,0.863305,0.068342,0.135751,0.188282,
2,1,0,1,0,30082,0.19007,0.189719,0.0509069,16,0.00826469,10,9.65798e-06,-4.29322,2.00463,0.0294319,0.0583342,0.189719,
2,1,0,1,0,30083.5,0.191568,0.191249,0.0508324,16,0.00835611,10,9.72164e-06,-4.29386,-0.828632,-0.0712017,-0.140934,0.191249,
2,1,0,1,0,30085,0.193066,0.192699,0.0507978,16,0.00844775,10,9.78871e-06,-4.29415,0.776467,0.0759852,0.150896,0.192699,
2,1,0,1,0,30086.5,0.194564,0.19424,0.0507015,16,0.00853953,10,9.84826e-06,-4.29498,2.52972,0.0233228,0.0465229,0.19424,
2,1,0,1,0,30088,0.196063,0.195747,0.0511751,16,0.00863148,10,1.00174e-05,-4.29094,-3.52247,-0.0167496,-0.0334668,0.195747,
2,1,0,1,0,30089.5,0.197561,0.19718,0.0510551,16,0.00872328,10,1.0067e-05,-4.29196,-3.2718,-0.0180329,-0.0360617,0.19718,
2,1,0,1,0,30091,0.199059,0.198743,0.0516296,16,0.00881533,10,1.0261e-05,-4.2871,0.509996,0.115687,0.231803,0.198743,
2,1,0,1,0,30092.5,0.200557,0.200246,0.0521265,16,0.00890782,10,1.04381e-05,-4.28294,0.848025,0.0695734,0.139764,0.200246,
2,1,0,1,0,30094,0.202055,0.201776,0.0516758,16,0.00900073,10,1.0427e-05,-4.28671,1.4479,0.0407488,0.0819659,0.201776,
2,1,0,1,0,30095.5,0.203554,0.20322,0.0516482,16,0.00909347,10,1.04959e-05,-4.28695,1.4189,0.0415815,0.0845528,0.2032197,
2,1,0,1,0,30097,0.205052,0.204693,0.0522324,16,0.00918625,10,1.06916e-05,-4.28206,0.671329,0.0878854,0.178829,0.204693,
2,1,0,1,0,30098.5,0.20655,0.206202,0.0519161,16,0.00927925,10,1.07052e-05,-4.2847,2.08697,0.0282707,0.0574464,0.206202,
2,1,0,1,0,30100,0.208048,0.207747,0.0521441,16,0.00937284,10,1.08328e-05,-4.28279,-1.51452,-0.0389561,-0.078791,0.207747,
2,1,0,1,0,30101.5,0.209546,0.209259,0.0520532,16,0.00946608,10,1.08926e-05,-4.28355,11.9735,0.00492754,0.0100797,0.209259,
2,1,0,1,0,30103,0.211044,0.210711,0.0523844,16,0.00955922,10,1.1038e-05,-4.2808,0.585783,0.10072,0.206293,0.210711,
2,1,0,1,0,30104.5,0.212543,0.212259,0.0526329,16,0.009653,10,1.11718e-05,-4.27874,1.48188,0.0398144,0.0814532,0.212259,
2,1,0,1,0,30106,0.214041,0.213713,0.0527192,16,0.00974717,10,1.12668e-05,-4.27803,0.367818,0.160405,0.33186,0.213713,
2,1,0,1,0,30107.5,0.215539,0.215253,0.0531777,16,0.00984155,10,1.14467e-05,-4.27427,0.855643,0.068954,0.142913,0.215253,
2,1,0,1,0,30109,0.217037,0.216755,0.052734,16,0.00993622,10,1.14303e-05,-4.27791,0.814759,0.0724141,0.150775,0.216755,
2,1,0,1,0,30110.5,0.218535,0.218183,0.0535371,16,0.0100311,10,1.16809e-05,-4.27134,0.807151,0.0730966,0.151389,0.2181831,
2,1,0,1,0,30112,0.220034,0.219776,0.0537886,16,0.0101265,10,1.18214e-05,-4.26931,3.30917,0.0178292,0.0372087,0.2197759,
2,1,0,1,0,30113.5,0.221532,0.221245,0.0534523,16,0.010222,10,1.1826e-05,-4.27203,-3.05287,-0.0193261,-0.0406155,0.221245,
2,1,0,1,0,30115,0.22303,0.222712,0.0536469,16,0.0103173,10,1.19478e-05,-4.27046,2.58511,0.022823,0.0481313,0.2227121,
2,1,0,1,0,30116.5,0.224528,0.224203,0.0543934,16,0.0104131,10,1.21952e-05,-4.26445,1.11479,0.0529249,0.111523,0.224203,
2,1,0,1,0,30118,0.226026,0.225712,0.0541566,16,0.010509,10,1.22238e-05,-4.26635,2.31746,0.0254589,0.0539315,0.225712,
2,1,0,1,0,30119.5,0.227525,0.227206,0.0545948,16,0.0106054,10,1.24043e-05,-4.26285,0.764142,0.0772108,0.163239,0.227206,
2,1,0,1,0,30121,0.229023,0.228715,0.0548207,16,0.010702,10,1.25383e-05,-4.26106,1.73387,0.034028,0.0728359,0.228715,
2,1,0,1,0,30122.5,0.230521,0.230218,0.0550263,16,0.0107986,10,1.2668e-05,-4.25943,0.585781,0.10072,0.215794,0.230218,
2,1,0,1,0,30124,0.232019,0.2317,0.0549264,16,0.0108959,10,1.27264e-05,-4.26022,0.862151,0.0684335,0.146976,0.2317,
2,1,0,1,0,30125.5,0.233517,0.233199,0.0553874,16,0.0109935,10,1.29163e-05,-4.25659,4.96366,0.0118864,0.0256232,0.233199,
2,1,0,1,0,30127,0.235016,0.234756,0.0557958,16,0.0110914,10,1.30984e-05,-4.2534,5.55817,0.010615,0.0229363,0.234756,
2,1,0,1,0,30128.5,0.236514,0.236212,0.0555736,16,0.0111892,10,1.31271e-05,-4.25513,2.14566,0.0274974,0.059547,0.236212,
2,1,0,1,0,30130,0.238012,0.237728,0.0555817,16,0.0112872,10,1.32134e-05,-4.25507,0.841767,0.0700906,0.153048,0.2377284,
2,1,0,1,0,30131.5,0.23951,0.239207,0.0560389,16,0.0113856,10,1.34049e-05,-4.25151,0.617098,0.0956088,0.208752,0.239207,
2,1,0,1,0,30133,0.241008,0.240702,0.0563316,16,0.0114845,10,1.35591e-05,-4.24925,1.03647,0.0569238,0.125067,0.240702,
2,1,0,1,0,30134.5,0.242506,0.24223,0.0561734,16,0.0115833,10,1.36069e-05,-4.25047,0.965347,0.0611179,0.135186,0.24223,
2,1,0,1,0,30136,0.244005,0.243699,0.0571136,16,0.0116827,10,1.39185e-05,-4.24326,0.512027,0.115228,0.253611,0.2436986,
2,1,0,1,0,30137.5,0.245503,0.245194,0.0568958,16,0.0117826,10,1.39505e-05,-4.24492,-4.32588,-0.0136389,-0.0301028,0.245194,
2,1,0,1,0,30139,0.247001,0.246706,0.056987,16,0.0118826,10,1.4059e-05,-4.24422,0.845604,0.0697726,0.155777,0.246706,
2,1,0,1,0,30140.5,0.248499,0.248169,0.0572098,16,0.0119824,10,1.41977e-05,-4.24253,1.07158,0.0550587,0.123232,0.248169,
2,1,0,1,0,30142,0.249997,0.249691,0.0577687,16,0.0120829,10,1.44243e-05,-4.23831,0.457607,0.128932,0.288676,0.249691,
2,1,0,1,0,30143.5,0.251496,0.251164,0.0578477,16,0.0121838,10,1.45293e-05,-4.23771,1.27043,0.046441,0.104767,0.251164,
2,1,0,1,0,30145,0.252994,0.25268,0.0583011,16,0.012285,10,1.47315e-05,-4.23432,-1.78617,-0.0330315,-0.0746331,0.25268,
2,1,0,1,0,30146.5,0.254492,0.254134,0.0582443,16,0.0123868,10,1.48019e-05,-4.23475,0.662383,0.0890724,0.201813,0.254134,
2,1,0,1,0,30148,0.25599,0.25568,0.0588032,16,0.0124885,10,1.50348e-05,-4.2306,21.9947,0.00268247,0.00611642,0.2556802,
2,1,0,1,0,30149.4,0.257488,0.257165,0.058269,16,0.0125906,10,1.49847e-05,-4.23456,1.47487,0.0400035,0.0913322,0.257165,
2,1,0,1,0,30150.9,0.258987,0.258707,0.0587949,16,0.0126927,10,1.52106e-05,-4.23066,0.967475,0.0609835,0.139928,0.2587066,
2,1,0,1,0,30152.4,0.260485,0.260235,0.0589579,16,0.0127953,10,1.53429e-05,-4.22946,0.559412,0.105468,0.24204,0.260235,
2,1,0,1,0,30153.9,0.261983,0.261668,0.0593559,16,0.0128983,10,1.55315e-05,-4.22654,1.53456,0.0384474,0.0888175,0.261668,
2,1,0,1,0,30155.4,0.263481,0.263162,0.0592355,16,0.0130014,10,1.55885e-05,-4.22742,1.0467,0.0563675,0.130659,0.263162,
2,1,0,1,0,30156.9,0.264979,0.26465,0.0597311,16,0.0131048,10,1.58079e-05,-4.2238,2.51031,0.023503,0.0543781,0.26465,
2,1,0,1,0,30158.4,0.266477,0.266177,0.0598843,16,0.0132085,10,1.59398e-05,-4.22269,2.25512,0.0261627,0.0609661,0.266177,
2,1,0,1,0,30159.9,0.267976,0.267619,0.059512,16,0.0133121,10,1.59265e-05,-4.2254,0.677148,0.0871301,0.20364,0.267619,
2,1,0,1,0,30161.4,0.269474,0.269134,0.0600382,16,0.013416,10,1.61583e-05,-4.22157,0.593364,0.099433,0.231954,0.269134,
2,1,0,1,0,30162.9,0.270972,0.270671,0.0607596,16,0.0135206,10,1.64459e-05,-4.21639,0.582777,0.101239,0.238289,0.270671,
2,1,0,1,0,30164.4,0.27247,0.272196,0.0606054,16,0.0136256,10,1.64965e-05,-4.21749,0.581302,0.101496,0.240445,0.272196,
2,1,0,1,0,30165.9,0.273968,0.273662,0.0606858,16,0.0137305,10,1.66074e-05,-4.21691,0.885633,0.066619,0.158649,0.273662,
2,1,0,1,0,30167.4,0.275467,0.275114,0.0609748,16,0.013836,10,1.6775e-05,-4.21485,1.89596,0.0311188,0.0737068,0.275114,
2,1,0,1,0,30168.9,0.276965,0.27664,0.0608692,16,0.0139416,10,1.68389e-05,-4.2156,2.24904,0.0262334,0.0627959,0.27664,
2,1,0,1,0,30170.4,0.278463,0.278158,0.061043,16,0.0140472,10,1.69796e-05,-4.21436,-6.08326,-0.00969874,-0.0231316,0.278158,
2,1,0,1,0,30171.9,0.279961,0.279624,0.0613676,16,0.0141531,10,1.71599e-05,-4.21206,7.43474,0.00793571,0.0190216,0.2796241,
2,1,0,1,0,30173.4,0.281459,0.281173,0.0612312,16,0.0142586,10,1.72166e-05,-4.21303,1.83584,0.0321379,0.0772746,0.281173,
2,1,0,1,0,30174.9,0.282958,0.282644,0.0613881,16,0.0143645,10,1.7351e-05,-4.21192,1.20727,0.0488705,0.117101,0.282644,
2,1,0,1,0,30176.4,0.284456,0.284145,0.0616259,16,0.0144707,10,1.75107e-05,-4.21024,1.3705,0.04305,0.103183,0.284145,
2,1,0,1,0,30177.9,0.285954,0.285683,0.0619607,16,0.0145772,10,1.77011e-05,-4.20788,-7.66891,-0.00769341,-0.0185205,0.285683,
2,1,0,1,0,30179.4,0.287452,0.28717,0.0617423,16,0.0146833,10,1.77305e-05,-4.20942,2.29798,0.0256747,0.0620902,0.28717,
2,1,0,1,0,30180.9,0.28895,0.288595,0.0623072,16,0.0147902,10,1.79816e-05,-4.20546,0.430656,0.137,0.332228,0.2885952,
2,1,0,1,0,30182.4,0.290448,0.290103,0.062727,16,0.0148974,10,1.81973e-05,-4.20255,1.53572,0.0384184,0.0941757,0.290103,
2,1,0,1,0,30183.9,0.291947,0.291643,0.0625278,16,0.0150049,10,1.82358e-05,-4.20393,2.7417,0.0215195,0.0524925,0.291643,
2,1,0,1,0,30185.4,0.293445,0.293121,0.062555,16,0.0151125,10,1.83362e-05,-4.20374,0.638933,0.0923415,0.226968,0.293121,
2,1,0,1,0,30186.9,0.294943,0.294595,0.0632303,16,0.0152202,10,1.86273e-05,-4.19907,1.32076,0.0446711,0.109324,0.294595,
2,1,0,1,0,30188.4,0.296441,0.296093,0.063372,16,0.0153287,10,1.8764e-05,-4.1981,1.21378,0.0486086,0.119364,0.296093,
2,1,0,1,0,30189.9,0.297939,0.297656,0.0635002,16,0.0154372,10,1.89012e-05,-4.19723,4.18537,0.0140967,0.0347712,0.297656,
2,1,0,1,0,30191.4,0.299438,0.299114,0.0629811,16,0.0155456,10,1.88385e-05,-4.20079,-0.00470147,-12.5493,-20.288,0.299114,
2,1,0,1,0,30192.2,0.299737,0.299408,0.0320754,16,0.0155941,10,9.60365e-06,-4.49383,0.00222312,26.5393,37.4927,0.2994082,
2,1,0,1,0,30193.7,0.298239,0.297908,0.0198286,16,0.0156167,10,5.90711e-06,-4.70271,0.00571696,10.3202,13.1419,0.297908,
2,1,0,1,0,30195.2,0.296741,0.29646,0.0149586,16,0.0156288,10,4.43464e-06,-4.82511,0.0141566,4.16767,2.60674,0.29646,
2,1,0,1,0,30196.7,0.295243,0.294914,0.0119702,16,0.0156353,10,3.53017e-06,-4.9219,0.0148272,3.97916,1.91232,0.294914,
2,1,0,1,0,30198.2,0.293745,0.293395,0.00953337,16,0.0156378,10,2.79704e-06,-5.02075,0.0151288,3.89984,1.49618,0.293395,
2,1,0,1,0,30199.7,0.292246,0.29195,0.00753628,16,0.0156371,10,2.20022e-06,-5.12284,0.0120637,4.89069,1.39945,0.29195,
2,1,0,1,0,30201.2,0.290748,0.290466,0.00565851,16,0.0156332,10,1.6436e-06,-5.2473,0.0121385,4.86055,1.10344,0.290466,
2,1,0,1,0,30202.7,0.28925,0.288911,0.00386552,16,0.0156268,10,1.11679e-06,-5.41279,0.00903821,6.52784,1.03808,0.2889111,
2,1,0,1,0,30204.2,0.287752,0.287446,0.00258303,16,0.0156179,10,7.42481e-07,-5.58787,0.00570054,10.3499,0.94027,0.287446,
2,1,0,1,0,30205.7,0.286254,0.285973,0.00160111,16,0.0156071,10,4.57874e-07,-5.79558,0.00653091,9.03396,0.792895,0.285973,
2,1,0,1,0,30207.2,0.284755,0.284448,0.000153922,16,0.0155943,10,4.37826e-08,-6.8127,0.302743,0.194885,0.89434,0.284448,
2,0,0,1,0,30208.7,0.283257,0.282952,-0.00119924,16,0.0155796,10,-3.39327e-07,-5.92109,-0.00391591,-15.0667,0.825147,0.282952,
2,0,0,1,0,30210.2,0.281759,0.281434,-0.00234184,16,0.015563,10,-6.59074e-07,-5.63044,-0.00583384,-10.1134,0.745822,0.281434,
2,0,0,1,0,30211.7,0.280261,0.27999,-0.00326726,16,0.0155447,10,-9.148e-07,-5.48582,-0.0110212,-5.35331,0.671013,0.27999,
2,0,0,1,0,30213.2,0.278763,0.278471,-0.00481501,16,0.0155251,10,-1.34084e-06,-5.3174,-0.0142384,-4.14371,0.72595,0.278471,
2,1,0,1,0,30214.7,0.277264,0.276938,-0.00563241,16,0.0155034,10,-1.55983e-06,-5.24931,-0.0200222,-2.94672,0.600445,0.276938,
2,0,0,1,0,30216.2,0.275766,0.275453,-0.00701759,16,0.0154803,10,-1.93301e-06,-5.15381,-0.0270662,-2.17984,0.561204,0.275453,
2,0,0,1,0,30217.7,0.274268,0.273964,-0.00753703,16,0.015456,10,-2.06487e-06,-5.1228,-0.030027,-1.9649,0.562795,0.273964,
2,1,0,1,0,30219.2,0.27277,0.272448,-0.00842312,16,0.0154304,10,-2.29486e-06,-5.07453,-0.0305302,-1.93251,0.62644,0.272448,
2,0,0,1,0,30220.7,0.271272,0.27095,-0.00910178,16,0.0154036,10,-2.46613e-06,-5.04087,-0.0408395,-1.44468,0.51831,0.27095,
2,1,0,1,0,30222.2,0.269774,0.269458,-0.0100226,16,0.0153751,10,-2.70066e-06,-4.99902,-0.0365887,-1.61252,0.610094,0.269458,
2,0,0,1,0,30223.7,0.268275,0.267956,-0.0108876,16,0.0153457,10,-2.9174e-06,-4.96307,-0.072327,-0.81574,0.339004,0.267956,
2,0,0,1,0,30225.2,0.266777,0.266435,-0.0115115,16,0.0153152,10,-3.06706e-06,-4.93887,-0.0502189,-1.17486,0.534318,0.266435,
2,0,0,1,0,30226.7,0.265279,0.264978,-0.0123894,16,0.0152834,10,-3.28291e-06,-4.90695,-0.0482405,-1.22304,0.5752,0.264978,
2,0,0,1,0,30228.2,0.263781,0.263486,-0.0134069,16,0.0152502,10,-3.53254e-06,-4.87267,-0.0457822,-1.28871,0.67352,0.263486,
2,0,0,1,0,30229.7,0.262283,0.261972,-0.0141949,16,0.0152157,10,-3.71867e-06,-4.84787,-0.0576348,-1.02369,0.558834,0.261972,
2,0,0,1,0,30231.2,0.260784,0.26047,-0.0145136,16,0.0151801,10,-3.78037e-06,-4.83822,-0.0687723,-0.857904,0.494265,0.26047,
2,0,0,1,0,30232.7,0.259286,0.258961,-0.0152239,16,0.0151433,10,-3.9424e-06,-4.81747,-0.0692609,-0.851851,0.510268,0.258961,
2,0,0,1,0,30234.2,0.257788,0.257484,-0.0162375,16,0.0151056,10,-4.1809e-06,-4.78948,-0.115116,-0.512527,0.319591,0.257484,
2,0,0,1,0,30235.7,0.25629,0.255962,-0.0166238,16,0.0150671,10,-4.25507e-06,-4.77927,-0.14571,-0.404915,0.257098,0.255962,
2,0,0,1,0,30237.2,0.254792,0.254468,-0.0168216,16,0.015028,10,-4.28056e-06,-4.77413,-0.0871626,-0.676896,0.443327,0.254468,
2,0,0,1,0,30238.7,0.253293,0.252945,-0.0175763,16,0.014988,10,-4.44584e-06,-4.75507,-0.0926015,-0.637139,0.440171,0.252945,
2,0,0,1,0,30240.2,0.251795,0.251461,-0.0182532,16,0.0149471,10,-4.58996e-06,-4.73866,-0.0885423,-0.666348,0.477984,0.251461,
2,0,0,1,0,30241.7,0.250297,0.249991,-0.0184136,16,0.0149051,10,-4.60324e-06,-4.73486,-0.0828132,-0.712447,0.521796,0.249991,
2,0,0,1,0,30243.2,0.248799,0.248459,-0.0194174,16,0.0148619,10,-4.82442e-06,-4.71181,-0.0961113,-0.613872,0.466725,0.248459,
2,0,0,1,0,30244.7,0.247301,0.247002,-0.0204013,16,0.0148177,10,-5.03915e-06,-4.69034,-0.0966932,-0.610177,0.483932,0.247002,
2,0,0,1,0,30246.2,0.245802,0.245509,-0.0208183,16,0.0147725,10,-5.11107e-06,-4.68155,-0.140065,-0.421232,0.346696,0.245509,
2,0,0,1,0,30247.7,0.244304,0.243991,-0.0215053,16,0.0147264,10,-5.2471e-06,-4.66746,-0.119911,-0.49203,0.408883,0.243991,
2,0,0,1,0,30249.2,0.242806,0.242462,-0.0223908,16,0.0146792,10,-5.42892e-06,-4.64993,-0.110434,-0.534255,0.460178,0.242462,
2,0,0,1,0,30250.7,0.241308,0.241018,-0.0229871,16,0.0146316,10,-5.5403e-06,-4.63852,-0.157906,-0.37364,0.335984,0.241018,
2,0,0,1,0,30252.2,0.23981,0.239522,-0.0234659,16,0.0145825,10,-5.62058e-06,-4.62956,-0.094164,-0.626566,0.571106,0.239522,
2,0,0,1,0,30253.7,0.238312,0.23803,-0.0241705,16,0.0145322,10,-5.75331e-06,-4.61671,-0.200201,-0.294704,0.277589,0.23803,
2,0,0,1,0,30255.2,0.236813,0.236479,-0.0248686,16,0.0144813,10,-5.8809e-06,-4.60435,-0.180398,-0.327054,0.317982,0.236479,
2,0,0,1,0,30256.7,0.235315,0.235007,-0.0254016,16,0.0144294,10,-5.96957e-06,-4.59514,-0.146802,-0.401901,0.394811,0.235007,
2,0,0,1,0,30258.2,0.233817,0.233507,-0.0259654,16,0.0143767,10,-6.06311e-06,-4.5856,-0.16321,-0.361498,0.366747,0.233507,
2,0,0,1,0,30259.7,0.232319,0.232029,-0.0266075,16,0.0143229,10,-6.17371e-06,-4.575,-0.136629,-0.431826,0.445048,0.232029,
2,0,0,1,0,30261.2,0.230821,0.23054,-0.0272873,16,0.014268,10,-6.29081e-06,-4.56404,-0.179005,-0.3296,0.349675,0.23054,
2,0,0,1,0,30262.7,0.229322,0.229024,-0.0274676,16,0.0142126,10,-6.29072e-06,-4.56118,-0.19941,-0.295873,0.318038,0.229024,
2,0,0,1,0,30264.2,0.227824,0.22754,-0.0278784,16,0.0141563,10,-6.34345e-06,-4.55473,-0.141174,-0.417924,0.462276,0.22754,
2,0,0,1,0,30265.7,0.226326,0.226006,-0.0289886,16,0.0140992,10,-6.5516e-06,-4.53777,-0.143897,-0.410016,0.458523,0.2260057,
2,0,0,1,0,30267.2,0.224828,0.224512,-0.0289761,16,0.0140412,10,-6.50547e-06,-4.53796,-0.257213,-0.229382,0.260824,0.224512,
2,0,0,1,0,30268.7,0.22333,0.223032,-0.0295782,16,0.0139825,10,-6.59689e-06,-4.52903,-0.183211,-0.322033,0.373317,0.223032,
2,0,0,1,0,30270.2,0.221831,0.221537,-0.0302696,16,0.0139232,10,-6.70583e-06,-4.51899,-0.195197,-0.302259,0.357396,0.221537,
2,0,0,1,0,30271.7,0.220333,0.220032,-0.0303933,16,0.0138629,10,-6.68751e-06,-4.51722,-0.182991,-0.32242,0.383937,0.220032,
2,0,0,1,0,30273.2,0.218835,0.218527,-0.0308958,16,0.0138019,10,-6.75155e-06,-4.5101,-0.200665,-0.294022,0.359057,0.218527,
2,0,0,1,0,30274.6,0.217337,0.217026,-0.0319399,16,0.0137401,10,-6.9318e-06,-4.49567,-0.178322,-0.330862,0.411844,0.217026,
2,0,0,1,0,30276.1,0.215839,0.215513,-0.0327531,16,0.0136773,10,-7.05871e-06,-4.48475,-0.206575,-0.28561,0.363346,0.215513,
2,0,0,1,0,30277.6,0.21434,0.213974,-0.0328882,16,0.0136136,10,-7.03723e-06,-4.48296,-0.166417,-0.35453,0.454247,0.213974,
2,0,0,1,0,30279.1,0.212842,0.212509,-0.0334396,16,0.0135489,10,-7.10622e-06,-4.47574,-0.253109,-0.233101,0.303972,0.212509,
2,0,0,1,0,30280.6,0.211344,0.211035,-0.0339844,16,0.0134836,10,-7.17189e-06,-4.46872,-0.198768,-0.296828,0.39387,0.211035,
2,0,0,1,0,30282.1,0.209846,0.20956,-0.0342974,16,0.0134178,10,-7.18736e-06,-4.46474,-0.235544,-0.250484,0.337158,0.20956,
2,0,0,1,0,30283.6,0.208348,0.208066,-0.0354016,16,0.0133507,10,-7.36586e-06,-4.45098,-0.209338,-0.281841,0.381557,0.208066,
2,0,0,1,0,30285.1,0.20685,0.206544,-0.0358959,16,0.0132826,10,-7.41409e-06,-4.44496,-0.258333,-0.228387,0.316957,0.206544,
2,0,0,1,0,30286.6,0.205351,0.205015,-0.0364429,16,0.0132137,10,-7.47135e-06,-4.43839,-0.20538,-0.287272,0.404117,0.205015,
2,0,0,1,0,30288.1,0.203853,0.203487,-0.03677,16,0.0131443,10,-7.48222e-06,-4.43451,-0.244963,-0.240853,0.347606,0.2034869,
2,0,0,1,0,30289.6,0.202355,0.20204,-0.0374459,16,0.0130739,10,-7.56556e-06,-4.4266,-0.161113,-0.366202,0.536005,0.20204,
2,0,0,1,0,30291.1,0.200857,0.200557,-0.0377043,16,0.0130023,10,-7.56186e-06,-4.42361,-0.217504,-0.271259,0.403389,0.200557,
2,0,0,1,0,30292.6,0.199359,0.199012,-0.0383318,16,0.0129298,10,-7.62848e-06,-4.41644,-0.247993,-0.23791,0.357778,0.199012,
2,0,0,1,0,30294.1,0.19786,0.19751,-0.0389882,16,0.0128563,10,-7.70057e-06,-4.40907,-0.203688,-0.289658,0.441333,0.19751,
2,0,0,1,0,30295.6,0.196362,0.196014,-0.0401165,16,0.0127822,10,-7.8634e-06,-4.39668,-0.174272,-0.338551,0.525657,0.196014,
2,0,0,1,0,30297.1,0.194864,0.194567,-0.0407237,16,0.0127068,10,-7.92348e-06,-4.39015,-0.198519,-0.2972,0.469251,0.194567,
2,0,0,1,0,30298.6,0.193366,0.193011,-0.0413178,16,0.0126301,10,-7.97479e-06,-4.38386,-0.28886,-0.204252,0.327739,0.193011,
2,0,0,1,0,30300.1,0.191868,0.191517,-0.042019,16,0.0125526,10,-8.04734e-06,-4.37655,-0.340221,-0.173417,0.281922,0.191517,
2,0,0,1,0,30301.6,0.190369,0.190047,-0.042236,16,0.0124747,10,-8.02683e-06,-4.37432,-0.24074,-0.245078,0.405807,0.190047,
2,0,0,1,0,30303.1,0.188871,0.188553,-0.0427334,16,0.0123958,10,-8.05751e-06,-4.36923,-0.153448,-0.384494,0.64666,0.188553,
2,0,0,1,0,30304.6,0.187373,0.187066,-0.0440759,16,0.0123154,10,-8.24508e-06,-4.3558,-0.172651,-0.34173,0.582434,0.187066,
2,0,0,1,0,30306.1,0.185875,0.185582,-0.0443979,16,0.0122336,10,-8.23945e-06,-4.35264,-0.241035,-0.244777,0.42384,0.185582,
2,0,0,1,0,30307.6,0.184377,0.184054,-0.0447586,16,0.0121511,10,-8.23799e-06,-4.34912,-0.274725,-0.21476,0.375286,0.184054,
2,0,0,1,0,30309.1,0.182878,0.182571,-0.0460874,16,0.0120675,10,-8.41425e-06,-4.33642,-0.267647,-0.22044,0.394311,0.182571,
2,0,0,1,0,30310.6,0.18138,0.181066,-0.0465324,16,0.0119829,10,-8.42542e-06,-4.33224,-0.273371,-0.215824,0.389554,0.181066,
2,0,0,1,0,30312.1,0.179882,0.179551,-0.0470955,16,0.0118975,10,-8.45606e-06,-4.32702,-0.284768,-0.207186,0.379136,0.179551,
2,0,0,1,0,30313.6,0.178384,0.178031,-0.047623,16,0.011811,10,-8.47837e-06,-4.32218,-0.334362,-0.176456,0.329169,0.178031,
2,0,0,1,0,30315.1,0.176886,0.176528,-0.0485856,16,0.0117235,10,-8.57674e-06,-4.31349,-0.207762,-0.283979,0.538915,0.176528,
2,0,0,1,0,30316.6,0.175388,0.175083,-0.0492971,16,0.0116344,10,-8.63108e-06,-4.30718,-0.189973,-0.310571,0.597306,0.175083,
2,0,0,1,0,30318.1,0.173889,0.173533,-0.0502169,16,0.0115441,10,-8.71427e-06,-4.29915,-0.171893,-0.343237,0.676481,0.173533,
2,0,0,1,0,30319.6,0.172391,0.172006,-0.0517795,16,0.0114521,10,-8.90636e-06,-4.28584,-0.136483,-0.432289,0.865352,0.172006,
2,0,0,1,0,30321.1,0.170893,0.170538,-0.0527664,16,0.0113585,10,-8.99867e-06,-4.27764,-0.21162,-0.278802,0.569773,0.170538,
2,0,0,1,0,30322.6,0.169395,0.169098,-0.053942,16,0.0112627,10,-9.12147e-06,-4.26807,-0.153103,-0.385361,0.803177,0.169098,
2,0,0,1,0,30324.1,0.167897,0.167582,-0.0548473,16,0.0111652,10,-9.1914e-06,-4.26084,-0.167184,-0.352904,0.760444,0.167582,
2,0,0,1,0,30325.6,0.166398,0.166084,-0.0554809,16,0.011066,10,-9.2145e-06,-4.25586,-0.170585,-0.345868,0.760473,0.166084,
2,0,0,1,0,30327.1,0.1649,0.164556,-0.0573361,16,0.0109651,10,-9.435e-06,-4.24157,-0.141946,-0.415652,0.931644,0.164556,
2,0,0,1,0,30328.6,0.163402,0.163085,-0.0586279,16,0.0108621,10,-9.56135e-06,-4.2319,-0.131371,-0.44911,1.02833,0.163085,
2,0,0,1,0,30330.1,0.161904,0.161592,-0.0605109,16,0.0107566,10,-9.7781e-06,-4.21817,-0.140843,-0.418907,0.980624,0.161592,
2,0,0,1,0,30331.6,0.160406,0.160124,-0.061581,16,0.010649,10,-9.86059e-06,-4.21055,-0.133308,-0.442585,1.06591,0.160124,
2,0,0,1,0,30333.1,0.158907,0.15858,-0.0628814,16,0.010539,10,-9.97171e-06,-4.20148,-0.127879,-0.461375,1.13634,0.15858,
2,0,0,1,0,30334.6,0.157409,0.157066,-0.0649222,16,0.0104266,10,-1.0197e-05,-4.18761,-0.117528,-0.50201,1.27659,0.157066,
2,0,0,1,0,30336.1,0.155911,0.155584,-0.0669142,16,0.0103111,10,-1.04108e-05,-4.17448,-0.114954,-0.513249,1.34018,0.155584,
2,0,0,1,0,30337.6,0.154413,0.154083,-0.0686567,16,0.0101924,10,-1.05788e-05,-4.16332,-0.138832,-0.424973,1.13964,0.154083,
2,0,0,1,0,30339.1,0.152915,0.152562,-0.0711008,16,0.0100707,10,-1.08473e-05,-4.14813,-0.113441,-0.520096,1.44476,0.152562,
2,0,0,1,0,30340.6,0.151417,0.151073,-0.07347,16,0.00994585,10,-1.10993e-05,-4.13389,-0.100285,-0.588321,1.68585,0.151073,
2,0,0,1,0,30342.1,0.149918,0.149621,-0.0762616,16,0.00981689,10,-1.14104e-05,-4.11769,-0.0869986,-0.678172,2.01172,0.149621,
2,0,0,1,0,30343.6,0.14842,0.148115,-0.079199,16,0.00968338,10,-1.17305e-05,-4.10128,-0.0888411,-0.664107,2.04989,0.148115,
2,0,0,1,0,30345.1,0.146922,0.146587,-0.082214,16,0.00954497,10,-1.20515e-05,-4.08505,-0.0804037,-0.733797,2.35553,0.146587,
2,0,0,1,0,30346.6,0.145424,0.145119,-0.0858931,16,0.00940175,10,-1.24647e-05,-4.06604,-0.0749423,-0.787272,2.65528,0.145119,
2,0,0,1,0,30348.1,0.143926,0.143606,-0.0899792,16,0.00925249,10,-1.29215e-05,-4.04586,-0.0698834,-0.844263,2.96081,0.143606,
2,0,0,1,0,30349.6,0.142427,0.142104,-0.0943498,16,0.00909617,10,-1.34075e-05,-4.02526,-0.07154,-0.824713,3.04188,0.142104,
2,0,0,1,0,30351.1,0.140929,0.140638,-0.0989784,16,0.00893345,10,-1.39201e-05,-4.00446,-0.0754275,-0.782208,3.03457,0.140638,
2,0,0,1,0,30352.6,0.139431,0.139108,-0.103375,16,0.00876368,10,-1.43802e-05,-3.98559,-0.0734445,-0.803328,3.26668,0.139108,
2,0,0,1,0,30354.1,0.137933,0.13764,-0.109479,16,0.00858652,10,-1.50686e-05,-3.96067,-0.0744365,-0.792622,3.36222,0.13764,
2,0,0,1,0,30355.6,0.136435,0.136065,-0.113996,16,0.00840155,10,-1.55108e-05,-3.94311,-0.0808352,-0.72988,3.23728,0.136065,
2,0,0,1,0,30357,0.134936,0.13461,-0.118663,16,0.00820878,10,-1.59733e-05,-3.92568,-0.0816957,-0.722192,3.32825,0.13461,
2,0,0,1,0,30358.5,0.133438,0.133111,-0.123525,16,0.00800883,10,-1.64426e-05,-3.90824,-0.0937859,-0.629092,3.02781,0.133111,
2,0,0,1,0,30360,0.13194,0.131575,-0.12804,16,0.00780197,10,-1.68469e-05,-3.89265,-0.101608,-0.580664,2.90532,0.131575,
2,0,0,1,0,30361.5,0.130442,0.130091,-0.131823,16,0.00758852,10,-1.7149e-05,-3.88001,-0.127271,-0.463578,2.38483,0.130091,
2,0,0,1,0,30363,0.128944,0.128633,-0.135927,16,0.00736927,10,-1.74847e-05,-3.86669,-0.164605,-0.358433,1.88729,0.128633,
2,0,0,1,0,30364.5,0.127445,0.127143,-0.139214,16,0.00714539,10,-1.77001e-05,-3.85632,-0.179541,-0.328617,1.7731,0.127143,
2,0,0,1,0,30366,0.125947,0.125621,-0.140692,16,0.00691806,10,-1.76739e-05,-3.85173,-0.217964,-0.270687,1.48484,0.125621,
2,0,0,1,0,30367.5,0.124449,0.124105,-0.142862,16,0.00668736,10,-1.77299e-05,-3.84508,-0.347655,-0.169709,0.941556,0.124105,
2,0,0,1,0,30369,0.122951,0.122646,-0.14422,16,0.00645395,10,-1.7688e-05,-3.84097,-0.451608,-0.130644,0.730707,0.1226458,
2,0,0,1,0,30370.5,0.121453,0.121173,-0.144962,16,0.00621889,10,-1.75655e-05,-3.83874,-0.748386,-0.0788364,0.445191,0.121173,
2,0,0,1,0,30372,0.119955,0.119635,-0.145025,16,0.00598355,10,-1.73501e-05,-3.83856,-3.41665,-0.0172684,0.097993,0.119635,
2,0,0,1,0,30373.5,0.118456,0.118098,-0.145608,16,0.00574738,10,-1.7196e-05,-3.83681,-1.49286,-0.0395214,0.224088,0.118098,
2,0,0,1,0,30375,0.116958,0.116601,-0.145865,16,0.00551058,10,-1.7008e-05,-3.83605,-2.18673,-0.0269809,0.153227,0.1166015,
2,0,0,1,0,30376.5,0.11546,0.115139,-0.145625,16,0.00527392,10,-1.67672e-05,-3.83676,2.17564,0.0271185,-0.154567,0.115139,
2,0,0,1,0,30378,0.113962,0.113655,-0.144816,16,0.00503785,10,-1.6459e-05,-3.83918,3.35449,0.0175884,-0.0997037,0.113655,
2,0,0,1,0,30379.5,0.112464,0.112126,-0.145128,16,0.00480182,10,-1.62725e-05,-3.83825,1.44761,0.040757,-0.230557,0.112126,
2,0,0,1,0,30381,0.110965,0.11061,-0.144939,16,0.00456604,10,-1.60317e-05,-3.83882,1.64231,0.035925,-0.203128,0.11061,
2,0,0,1,0,30382.5,0.109467,0.109119,-0.144497,16,0.0043307,10,-1.57674e-05,-3.84014,0.875967,0.0673542,-0.379331,0.109119,
2,0,0,1,0,30384,0.107969,0.107588,-0.144047,16,0.00409586,10,-1.54978e-05,-3.84149,0.640184,0.092161,-0.518727,0.107588,
2,0,0,1,0,30385.5,0.106471,0.106155,-0.143289,16,0.00386245,10,-1.52109e-05,-3.84379,0.841333,0.0701268,-0.394461,0.106155,
2,0,0,1,0,30387,0.104973,0.104687,-0.14287,16,0.00362974,10,-1.49566e-05,-3.84506,1.19342,0.0494378,-0.2765,0.104687,
2,0,0,1,0,30388.5,0.103474,0.10313,-0.143085,16,0.00339724,10,-1.47564e-05,-3.84441,0.805287,0.0732658,-0.407059,0.10313,
2,0,0,1,0,30390,0.101976,0.101653,-0.142684,16,0.00316577,10,-1.45042e-05,-3.84562,0.70399,0.083808,-0.463883,0.101653,
2,0,0,1,0,30391.5,0.100478,0.100169,-0.142039,16,0.00293559,10,-1.42279e-05,-3.84759,0.754588,0.0781884,-0.431386,0.100169,
2,0,0,1,0,30393,0.0989798,0.0986752,-0.140504,16,0.00270632,10,-1.38643e-05,-3.85231,0.966149,0.0610672,-0.334886,0.0986752,
2,0,0,1,0,30394.5,0.0974816,0.0971504,-0.140134,16,0.00247827,10,-1.36141e-05,-3.85346,0.830781,0.0710175,-0.387163,0.09715037,
2,0,0,1,0,30396,0.0959834,0.0956393,-0.138576,16,0.00225114,10,-1.32533e-05,-3.85831,0.457986,0.128825,-0.697899,0.0956393,
2,0,0,1,0,30397.5,0.0944852,0.0942077,-0.137732,16,0.00202609,10,-1.29754e-05,-3.86096,0.4744,0.124368,-0.670436,0.0942077,
2,0,0,1,0,30399,0.0929871,0.0927095,-0.136872,16,0.00180262,10,-1.26894e-05,-3.86368,0.636248,0.0927311,-0.494897,0.0927095,
2,0,0,1,0,30400.5,0.0914889,0.0911665,-0.136032,16,0.00158016,10,-1.24016e-05,-3.86636,0.538065,0.109652,-0.581574,0.0911665,
2,0,0,1,0,30402,0.0899907,0.0896703,-0.134903,16,0.00135971,10,-1.20968e-05,-3.86998,0.538979,0.109466,-0.576187,0.0896703,
2,0,0,1,0,30403.5,0.0884925,0.0882091,-0.132885,16,0.00114088,10,-1.17217e-05,-3.87652,0.514278,0.114724,-0.598002,0.0882091,
2,0,0,1,0,30405,0.0869943,0.0866969,-0.132945,16,0.000923721,10,-1.15259e-05,-3.87633,0.469338,0.125709,-0.65141,0.0866969,
2,0,0,1,0,30406.5,0.0854961,0.0851455,-0.131765,16,0.000707938,10,-1.12192e-05,-3.8802,0.604338,0.0976274,-0.503105,0.0851455,
2,0,0,1,0,30408,0.083998,0.0836685,-0.130739,16,0.000493517,10,-1.09387e-05,-3.8836,0.342702,0.172161,-0.876554,0.0836685,
2,0,0,1,0,30409.5,0.0824998,0.0821977,-0.129728,16,0.000280227,10,-1.06634e-05,-3.88696,0.456626,0.129209,-0.655645,0.0821977,
2,0,0,1,0,30411,0.0810016,0.080676,-0.128547,16,6.90248e-05,10,-1.03707e-05,-3.89094,0.470051,0.125518,-0.632633,0.080676,
2,0,0,1,0,30412.5,0.0795034,0.0792179,-0.127646,16,-0.000140779,10,-1.01118e-05,-3.89399,0.635767,0.0928013,-0.464977,0.0792179,
2,0,0,1,0,30414,0.0780052,0.0776645,-0.127178,16,-0.000349349,10,-9.87719e-06,-3.89559,0.546187,0.108022,-0.535706,0.0776645,
2,0,0,1,0,30415.5,0.076507,0.0761597,-0.127039,16,-0.000557093,10,-9.67523e-06,-3.89606,0.738442,0.0798979,-0.394051,0.0761597,
2,0,0,1,0,30417,0.0750088,0.0746836,-0.12609,16,-0.000763242,10,-9.41688e-06,-3.89932,0.537923,0.109681,-0.538024,0.0746836,
2,0,0,1,0,30418.5,0.0735106,0.073235,-0.125206,16,-0.000969084,10,-9.16949e-06,-3.90237,0.989435,0.05963,-0.290947,0.073235,
2,0,0,1,0,30420,0.0720124,0.0716688,-0.124358,16,-0.00117362,10,-8.91257e-06,-3.90533,0.470736,0.125336,-0.611484,0.0716688,
2,0,0,1,0,30421.5,0.0705142,0.0701747,-0.123717,16,-0.00137705,10,-8.68182e-06,-3.90757,0.678139,0.0870029,-0.420689,0.0701747,
2,0,0,1,0,30423,0.069016,0.068688,-0.122925,16,-0.00157887,10,-8.44344e-06,-3.91036,0.486904,0.121174,-0.582121,0.068688,
2,0,0,1,0,30424.5,0.0675178,0.0671886,-0.122198,16,-0.00178011,10,-8.21028e-06,-3.91294,1.26299,0.0467146,-0.222352,0.0671886,
2,0,0,1,0,30426,0.0660196,0.0656955,-0.12205,16,-0.00198038,10,-8.01812e-06,-3.91346,0.537269,0.109815,-0.520579,0.0656955,
2,0,0,1,0,30427.5,0.0645214,0.0641855,-0.121054,16,-0.00217964,10,-7.76991e-06,-3.91702,0.527798,0.111785,-0.52658,0.0641855,
2,0,0,1,0,30429,0.0630233,0.0627562,-0.120074,16,-0.00237756,10,-7.53539e-06,-3.92055,0.73263,0.0805318,-0.378292,0.0627562,
2,0,0,1,0,30430.5,0.0615251,0.0612059,-0.119732,16,-0.00257446,10,-7.32827e-06,-3.92179,1.00473,0.0587221,-0.274748,0.0612059,
2,0,0,1,0,30432,0.0600269,0.0597117,-0.118978,16,-0.00277064,10,-7.10439e-06,-3.92453,0.550586,0.107159,-0.499711,0.0597117,
2,0,0,1,0,30433.5,0.0585287,0.0582049,-0.118445,16,-0.00296585,10,-6.89407e-06,-3.92648,0.466381,0.126506,-0.583922,0.0582049,
2,0,0,1,0,30435,0.0570305,0.0566959,-0.117992,16,-0.00316021,10,-6.68967e-06,-3.92815,1.03274,0.0571295,-0.263303,0.0566959,
2,0,0,1,0,30436.5,0.0555323,0.0552103,-0.117074,16,-0.00335302,10,-6.46368e-06,-3.93154,0.702476,0.0839887,-0.384589,0.0552103,
2,0,0,1,0,30438,0.0540342,0.0537375,-0.116536,16,-0.00354532,10,-6.26237e-06,-3.93354,0.951226,0.0620252,-0.282367,0.0537375,
2,0,0,1,0,30439.5,0.052536,0.0522349,-0.116645,16,-0.00373726,10,-6.09296e-06,-3.93313,1.3149,0.0448702,-0.203308,0.0522349,
2,0,0,1,0,30440.9,0.0510378,0.0507068,-0.116301,16,-0.00392843,10,-5.89728e-06,-3.93441,0.667157,0.0884349,-0.399154,0.0507068,
2,0,0,1,0,30442.4,0.0495396,0.0491915,-0.115277,16,-0.00411854,10,-5.67066e-06,-3.93826,0.824025,0.0715997,-0.322097,0.0491915,
2,0,0,1,0,30443.9,0.0480414,0.0477387,-0.11487,16,-0.00430774,10,-5.48376e-06,-3.93979,0.777226,0.075911,-0.339044,0.04773869,
2,0,0,1,0,30445.4,0.0465432,0.0462414,-0.114323,16,-0.00449641,10,-5.28647e-06,-3.94187,0.793013,0.0743998,-0.332223,0.04624141,
2,0,0,1,0,30446.9,0.045045,0.0447462,-0.114059,16,-0.00468456,10,-5.10369e-06,-3.94287,0.653791,0.0902429,-0.400607,0.0447462,
2,0,0,1,0,30448.4,0.0435468,0.0432638,-0.112479,16,-0.00487149,10,-4.86624e-06,-3.94893,0.481594,0.12251,-0.541138,0.0432638,
2,0,0,1,0,30449.9,0.0420486,0.0417325,-0.112334,16,-0.00505747,10,-4.68797e-06,-3.94949,0.559186,0.105511,-0.462315,0.0417325,
2,0,0,1,0,30451.4,0.0405504,0.0402161,-0.112741,16,-0.00524281,10,-4.53399e-06,-3.94792,0.823667,0.0716309,-0.313591,0.0402161,
2,0,0,1,0,30452.9,0.0390522,0.0386976,-0.111407,16,-0.00542737,10,-4.3112e-06,-3.95309,1.03781,0.0568504,-0.246782,0.0386976,
2,0,0,1,0,30454.4,0.037554,0.0371727,-0.110968,16,-0.00561118,10,-4.12498e-06,-3.9548,0.929825,0.0634528,-0.275682,0.0371727,
2,0,0,1,0,30455.9,0.0360558,0.0357391,-0.110664,16,-0.00579418,10,-3.95503e-06,-3.95599,0.720282,0.0819124,-0.354669,0.0357391,
2,0,0,1,0,30457.4,0.0345576,0.034229,-0.110302,16,-0.00597679,10,-3.77552e-06,-3.95742,0.60467,0.0975738,-0.419128,0.034229,
2,0,0,1,0,30458.9,0.0330594,0.0327275,-0.109549,16,-0.0061587,10,-3.58526e-06,-3.96039,0.501381,0.117675,-0.50313,0.0327275,
2,0,0,1,0,30460.4,0.0315613,0.0312059,-0.109164,16,-0.00633937,10,-3.40657e-06,-3.96192,0.441166,0.133736,-0.57047,0.0312059,
2,0,0,1,0,30461.9,0.0300631,0.0297033,-0.108384,16,-0.00651894,10,-3.21935e-06,-3.96504,0.734095,0.0803711,-0.341406,0.0297033,
2,0,0,1,0,30463.4,0.0285649,0.0282293,-0.108111,16,-0.00669804,10,-3.05189e-06,-3.96613,0.894897,0.0659293,-0.278049,0.0282293,
2,0,0,1,0,30464.9,0.0270667,0.0267342,-0.108051,16,-0.00687694,10,-2.88864e-06,-3.96637,5.42042,0.0108848,-0.0457225,0.0267342,
2,0,0,1,0,30466.4,0.0255685,0.0252537,-0.107368,16,-0.00705496,10,-2.71144e-06,-3.96913,0.727462,0.0811039,-0.340525,0.0252537,
2,0,0,1,0,30467.9,0.0240703,0.0237554,-0.106868,16,-0.00723211,10,-2.5387e-06,-3.97115,1.54801,0.0381134,-0.159544,0.0237554,
2,0,0,1,0,30469.4,0.0225722,0.0222381,-0.106468,16,-0.00740906,10,-2.36765e-06,-3.97278,5.74489,0.01027,-0.0428418,0.0222381,
2,0,0,1,0,30470.9,0.021074,0.0207143,-0.106883,16,-0.00758602,10,-2.21399e-06,-3.97109,1.63805,0.0360185,-0.149862,0.0207143,
2,0,0,1,0,30472.4,0.0195758,0.0192573,-0.106257,16,-0.00776255,10,-2.04621e-06,-3.97364,0.896898,0.0657823,-0.273926,0.0192573,
2,0,0,1,0,30473.9,0.0180776,0.0177281,-0.106103,16,-0.00793844,10,-1.88101e-06,-3.97427,2.56318,0.0230183,-0.0954958,0.0177281,
2,0,0,1,0,30475.4,0.0165794,0.0162616,-0.106091,16,-0.00811392,10,-1.72521e-06,-3.97432,4.34064,0.0135925,-0.0564056,0.0162616,
2,0,0,1,0,30476.9,0.0150812,0.0147855,-0.106717,16,-0.00828961,10,-1.57786e-06,-3.97177,-5.70878,-0.010335,0.0427776,0.0147855,
2,0,0,1,0,30478.4,0.013583,0.0132723,-0.106424,16,-0.00846525,10,-1.41248e-06,-3.97296,1.80498,0.0326873,-0.135452,0.0132723,
2,0,0,1,0,30479.9,0.0120848,0.0117962,-0.105997,16,-0.00864095,10,-1.25036e-06,-3.97471,-1.92642,-0.0306268,0.127201,0.01179616,
2,0,0,1,0,30481.4,0.0105866,0.0102544,-0.106072,16,-0.0088167,10,-1.0877e-06,-3.9744,-0.815318,-0.0723644,0.301617,0.0102544,
2,0,0,1,0,30482.9,0.00908843,0.00875171,-0.106689,16,-0.00899291,10,-9.33709e-07,-3.97188,-0.858053,-0.0687604,0.287806,0.00875171,
2,0,0,1,0,30484.4,0.00759024,0.0072873,-0.107258,16,-0.00916987,10,-7.81624e-07,-3.96957,-0.942793,-0.06258,0.262072,0.0072873,
2,0,0,1,0,30485.9,0.00609203,0.00573274,-0.108068,16,-0.00934736,10,-6.19526e-07,-3.9663,-0.679804,-0.0867897,0.365281,0.00573274,
2,0,0,1,0,30487.4,0.00459384,0.00426302,-0.108514,16,-0.00952542,10,-4.62596e-07,-3.96451,-0.590677,-0.0998853,0.422298,0.00426302,
2,0,0,1,0,30488.9,0.00309563,0.00277418,-0.108976,16,-0.00970488,10,-3.02318e-07,-3.96267,-0.501039,-0.117755,0.50174,0.00277418,
2,0,0,1,0,30490.4,0.00159744,0.0012016,-0.110084,16,-0.00988742,10,-1.32277e-07,-3.95828, , , ,0.0012016,
2,0,0,1,0,30491.8,0.000199235,-0.000191674,-0.110672,16,-0.010057,10,2.12129e-08,-3.95596, , , ,-0.000191674,