File: Figure_codes/Fig_3-5/rawdata_trumpetplot_data/after 10th/20221101_1-115_003_TrumpetPlot_ParaChange_from10_every3_11_CV_C01_9.csv
mode,ox/red,error,control changes,counter inc.,time/s,control/V,Ewe/V,<I>/mA,cycle number,(Q-Qo)/C,I Range,P/W,log(|I|),Tafel slope mV/dec,alpha_eff,dI/d(E-IR),E-IR/V,
2,1,0,1,0,18925.7,2.44065e-05,-0.000382585,9.99761,10,0.0000000E+000,10,-3.82494e-06,-2.0001, , , ,-0.000382585,
2,1,0,1,0,18925.7,0.00214129,0.00175731,11.2266,10,5.46498e-05,10,1.97287e-05,-1.94975, , , ,0.00175731,
2,1,0,1,0,18925.7,0.0045495,0.00417928,12.2497,10,0.000125353,10,5.11951e-05,-1.91187,0.0728083,0.810347,379.537,0.004179283,
2,1,0,1,0,18925.7,0.0069466,0.00660231,13.0314,10,0.000201326,10,8.60372e-05,-1.88501,0.095105,0.620367,312.66,0.006602311,
2,1,0,1,0,18925.7,0.0093437,0.00895323,13.7209,10,0.000281705,10,0.000122846,-1.86262,0.115715,0.509871,271.351,0.00895323,
2,1,0,1,0,18925.7,0.0117408,0.0114091,14.3401,10,0.000366006,10,0.000163608,-1.84345,0.13672,0.431538,240.216,0.0114091,
2,1,0,1,0,18925.7,0.0141462,0.0138099,14.8911,10,0.000453788,10,0.000205645,-1.82707,0.156272,0.377548,218.478,0.0138099,
2,1,0,1,0,18925.7,0.0165433,0.0161725,15.3797,10,0.00054465,10,0.000248728,-1.81305,0.179912,0.327938,196.279,0.01617248,
2,1,0,1,0,18925.7,0.0189404,0.0186008,15.8248,10,0.000638333,10,0.000294355,-1.80066,0.200734,0.293922,181.158,0.0186008,
2,1,0,1,0,18925.7,0.0213486,0.021027,16.2574,10,0.000734639,10,0.000341845,-1.78895,0.223184,0.264356,167.294,0.021027,
2,1,0,1,0,18925.8,0.0237457,0.0234108,16.629,10,0.000833353,10,0.000389298,-1.77913,0.245915,0.23992,155.481,0.0234108,
2,1,0,1,0,18925.8,0.0261429,0.0258148,16.9884,10,0.000934253,10,0.000438551,-1.76985,0.261931,0.225251,149.291,0.0258148,
2,1,0,1,0,18925.8,0.02854,0.0281879,17.3377,10,0.00103727,10,0.000488714,-1.76101,0.283116,0.208395,140.782,0.0281879,
2,1,0,1,0,18925.8,0.0309482,0.0306089,17.6587,10,0.00114235,10,0.000540513,-1.75304,0.304057,0.194042,133.603,0.0306089,
2,1,0,1,0,18925.8,0.0333453,0.0329873,17.9656,10,0.00124926,10,0.000592636,-1.74556,0.327323,0.18025,126.381,0.0329873,
2,1,0,1,0,18925.8,0.0357424,0.0354104,18.2701,10,0.00135801,10,0.000646952,-1.73826,0.34082,0.173112,123.361,0.0354104,
2,1,0,1,0,18925.8,0.0381478,0.037809,18.5615,10,0.00146858,10,0.000701791,-1.73139,0.352781,0.167243,121.104,0.037809,
2,1,0,1,0,18925.8,0.0405449,0.0402278,18.8549,10,0.00158085,10,0.000758492,-1.72458,0.373395,0.15801,116.243,0.0402278,
2,1,0,1,0,18925.8,0.042942,0.0426222,19.1406,10,0.00169485,10,0.000815816,-1.71804,0.36737,0.160601,119.905,0.0426222,
2,1,0,1,0,18925.8,0.0453391,0.0450102,19.4122,10,0.00181052,10,0.000873747,-1.71193,0.384125,0.153596,116.351,0.0450102,
2,1,0,1,0,18925.8,0.0477473,0.0474258,19.6935,10,0.0019279,10,0.000933979,-1.70568,0.391216,0.150812,115.866,0.04742584,
2,1,0,1,0,18925.8,0.0501444,0.0497587,19.9708,10,0.00204691,10,0.00099372,-1.69961,0.401517,0.146943,114.541,0.0497587,
2,1,0,1,0,18925.8,0.0525415,0.0521775,20.2534,10,0.00216759,10,0.00105677,-1.6935,0.401259,0.147037,116.203,0.0521775,
2,1,0,1,0,18925.8,0.0549469,0.0545963,20.5427,10,0.00229,10,0.00112156,-1.68734,0.405293,0.145574,116.62,0.0545963,
2,1,0,1,0,18925.8,0.057344,0.0569589,20.8068,10,0.00241408,10,0.00118513,-1.68179,0.413013,0.142853,116.055,0.0569589,
2,1,0,1,0,18925.8,0.0597411,0.0593947,21.0974,10,0.00253982,10,0.00125307,-1.67577,0.412379,0.143072,117.81,0.05939465,
2,1,0,1,0,18925.8,0.0621438,0.061753,21.3817,10,0.00266728,10,0.00132038,-1.66996,0.414263,0.142422,118.821,0.061753,
2,1,0,1,0,18925.9,0.0645465,0.0641644,21.6517,10,0.00279643,10,0.00138927,-1.66451,0.415366,0.142043,120.102,0.0641644,
2,1,0,1,0,18925.9,0.0669436,0.0665694,21.9589,10,0.00292731,10,0.00146179,-1.65839,0.417645,0.141268,121.011,0.0665694,
2,1,0,1,0,18925.9,0.0693407,0.0689606,22.2544,10,0.00305997,10,0.00153467,-1.65258,0.411214,0.143478,124.595,0.0689606,
2,1,0,1,0,18925.9,0.0717489,0.0713804,22.5443,10,0.00319437,10,0.00160922,-1.64696,0.417289,0.141389,124.413,0.0713804,
2,1,0,1,0,18925.9,0.074146,0.0738268,22.8486,10,0.00333058,10,0.00168684,-1.64114,0.42841,0.137718,122.771,0.0738268,
2,1,0,1,0,18925.9,0.0765431,0.076218,23.1377,10,0.00346858,10,0.00176351,-1.63568,0.435485,0.135481,122.345,0.076218,
2,1,0,1,0,18925.9,0.0789485,0.0786039,23.4368,10,0.0036083,10,0.00184223,-1.6301,0.441807,0.133543,122.128,0.0786039,
2,1,0,1,0,18925.9,0.0813456,0.0810047,23.7226,10,0.00374984,10,0.00192165,-1.62484,0.449069,0.131383,121.607,0.0810047,
2,1,0,1,0,18925.9,0.0837427,0.0833704,24.0207,10,0.00389312,10,0.00200261,-1.61941,0.461999,0.127706,119.671,0.08337044,
2,1,0,1,0,18925.9,0.0861398,0.085715,24.2943,10,0.00403811,10,0.00208239,-1.6145,0.460774,0.128045,121.484,0.085715,
2,1,0,1,0,18925.9,0.088548,0.0881889,24.6045,10,0.00418483,10,0.00216984,-1.60899,0.446664,0.13209,126.858,0.0881889,
2,1,0,1,0,18925.9,0.0909451,0.090578,24.9084,10,0.00433337,10,0.00225616,-1.60365,0.460347,0.128164,124.574,0.090578,
2,1,0,1,0,18925.9,0.0933422,0.0929788,25.222,10,0.00448378,10,0.00234511,-1.59822,0.463665,0.127247,125.132,0.0929788,
2,1,0,1,0,18925.9,0.0957477,0.0954273,25.5086,10,0.00463598,10,0.00243421,-1.59331,0.478016,0.123427,122.834,0.09542726,
2,1,0,1,0,18925.9,0.0981447,0.0978089,25.7966,10,0.00478992,10,0.00252314,-1.58844,0.495332,0.119112,119.888,0.0978089,
2,1,0,1,0,18925.9,0.100542,0.100191,26.0856,10,0.00494562,10,0.00261354,-1.5836,0.508015,0.116138,118.189,0.1001906,
2,1,0,1,0,18926,0.102939,0.10262,26.3571,10,0.00510297,10,0.00270477,-1.5791,0.520368,0.113381,116.691,0.10262,
2,1,0,1,0,18926,0.105347,0.105031,26.6438,10,0.00526204,10,0.00279843,-1.5744,0.507646,0.116223,120.863,0.105031,
2,1,0,1,0,18926,0.107744,0.107423,26.9431,10,0.00542284,10,0.00289429,-1.56955,0.523026,0.112805,118.588,0.107423,
2,1,0,1,0,18926,0.110141,0.109767,27.2192,10,0.00558537,10,0.00298777,-1.56513,0.514735,0.114622,121.828,0.109767,
2,1,0,1,0,18926,0.11255,0.11221,27.5311,10,0.00574964,10,0.00308927,-1.56018,0.503873,0.117093,125.821,0.11221,
2,1,0,1,0,18926,0.114947,0.11457,27.8265,10,0.00591574,10,0.00318807,-1.55554,0.493213,0.119624,129.966,0.11457,
2,1,0,1,0,18926,0.117344,0.116989,28.1518,10,0.0060837,10,0.00329343,-1.55049,0.484803,0.121699,133.74,0.116989,
2,1,0,1,0,18926,0.119744,0.119433,28.4744,10,0.00625359,10,0.00340077,-1.54555,0.471378,0.125165,139.145,0.119433,
2,1,0,1,0,18926,0.122146,0.121771,28.821,10,0.0064255,10,0.00350957,-1.54029,0.4529,0.130272,146.575,0.121771,
2,1,0,1,0,18926,0.124543,0.124206,29.1797,10,0.00659953,10,0.00362428,-1.53492,0.443339,0.133081,151.514,0.124206,
2,1,0,1,0,18926,0.126941,0.126593,29.5371,10,0.00677573,10,0.00373918,-1.52963,0.435119,0.135595,156.386,0.126593,
2,1,0,1,0,18926,0.129349,0.129001,29.9221,10,0.00695412,10,0.00385997,-1.52401,0.425122,0.138784,162.137,0.129001,
2,1,0,1,0,18926,0.131746,0.131387,30.3267,10,0.0071349,10,0.00398453,-1.51817,0.420912,0.140172,165.859,0.131387,
2,1,0,1,0,18926,0.134143,0.133813,30.7226,10,0.00731808,10,0.00411109,-1.51254,0.421166,0.140087,167.997,0.1338129,
2,1,0,1,0,18926,0.13654,0.136198,31.1234,10,0.00750364,10,0.00423894,-1.50691,0.41366,0.142629,173.327,0.136198,
2,1,0,1,0,18926,0.138945,0.138595,31.5511,10,0.00769173,10,0.00437284,-1.50098,0.416064,0.141805,174.522,0.138595,
2,1,0,1,0,18926,0.141343,0.141016,31.9636,10,0.00788234,10,0.00450739,-1.49534,0.429693,0.137307,171.264,0.141016,
2,1,0,1,0,18926.1,0.14374,0.143401,32.3729,10,0.00807537,10,0.00464231,-1.48982,0.437919,0.134728,170.228,0.143401,
2,1,0,1,0,18926.1,0.146148,0.145772,32.7944,10,0.00827092,10,0.00478051,-1.4842,0.443198,0.133123,170.273,0.145772,
2,1,0,1,0,18926.1,0.148545,0.148202,33.1879,10,0.00846891,10,0.00491849,-1.47902,0.469197,0.125747,162.797,0.148202,
2,1,0,1,0,18926.1,0.150942,0.150585,33.561,10,0.00866923,10,0.0050538,-1.47416,0.487557,0.121012,158.498,0.150585,
2,1,0,1,0,18926.1,0.153345,0.152934,33.9403,10,0.00887179,10,0.00519063,-1.46928,0.510555,0.11556,153.037,0.152934,
2,1,0,1,0,18926.1,0.155747,0.155392,34.3102,10,0.0090766,10,0.00533153,-1.46458,0.535999,0.110075,147.264,0.155392,
2,1,0,1,0,18926.1,0.158144,0.157758,34.6484,10,0.00928354,10,0.00546606,-1.46032,0.60102,0.0981665,132.642,0.157758,
2,1,0,1,0,18926.1,0.160542,0.160193,34.955,10,0.00949238,10,0.00559953,-1.45649,0.645245,0.0914382,124.713,0.160193,
2,1,0,1,0,18926.1,0.162947,0.162623,35.2585,10,0.00970307,10,0.00573385,-1.45274,0.711479,0.0829259,113.967,0.162623,
2,1,0,1,0,18926.1,0.165344,0.164994,35.5186,10,0.00991546,10,0.00586037,-1.44954,0.844363,0.0698751,96.7439,0.164994,
2,1,0,1,0,18926.1,0.167741,0.167418,35.7181,10,0.0101292,10,0.00597987,-1.44711,1.02855,0.0573623,79.9111,0.167418,
2,1,0,1,0,18926.1,0.170149,0.169799,35.9136,10,0.0103441,10,0.00609809,-1.44474,1.36416,0.0432499,60.5077,0.169799,
2,1,0,1,0,18926.1,0.172547,0.172191,36.0192,10,0.0105599,10,0.00620219,-1.44347,2.673,0.0220726,30.9605,0.172191,
2,1,0,1,0,18926.1,0.174944,0.17459,36.0488,10,0.0107762,10,0.00629376,-1.44311,-282.826,-0.000208609,-0.292919,0.17459,
2,1,0,1,0,18926.1,0.177341,0.177022,36.0058,10,0.0109923,10,0.00637383,-1.44363,-2.36675,-0.0249287,-34.9571,0.177022,
2,1,0,1,0,18926.1,0.179746,0.179408,35.8865,10,0.0112081,10,0.00643833,-1.44507,-1.134,-0.052028,-72.6824,0.179408,
2,1,0,1,0,18926.1,0.182143,0.181829,35.6634,10,0.0114227,10,0.00648464,-1.44778,-0.697099,-0.0846364,-117.453,0.181829,
2,1,0,1,0,18926.2,0.18454,0.184203,35.3209,10,0.0116357,10,0.00650624,-1.45197,-0.512851,-0.115043,-158.209,0.184203,
2,1,0,1,0,18926.2,0.186949,0.186622,34.9017,10,0.0118463,10,0.00651343,-1.45715,-0.397562,-0.148405,-201.527,0.186622,
2,1,0,1,0,18926.2,0.189346,0.189001,34.3592,10,0.0120541,10,0.00649392,-1.46396,-0.320142,-0.184293,-246.372,0.1890007,
2,1,0,1,0,18926.2,0.191743,0.191401,33.7083,10,0.0122583,10,0.00645183,-1.47226,-0.275219,-0.214375,-281.442,0.191401,
2,1,0,1,0,18926.2,0.19414,0.193803,32.9907,10,0.0124583,10,0.00639371,-1.48161,-0.242637,-0.243161,-312.387,0.193803,
2,1,0,1,0,18926.2,0.196548,0.196246,32.2065,10,0.0126539,10,0.0063204,-1.49206,-0.215255,-0.274094,-343.578,0.196246,
2,1,0,1,0,18926.2,0.198945,0.198561,31.3338,10,0.0128444,10,0.00622168,-1.50399,-0.196199,-0.300715,-367.191,0.198561,
2,1,0,1,0,18926.2,0.201342,0.201005,30.4255,10,0.0130296,10,0.00611566,-1.51676,-0.185961,-0.317272,-376.402,0.201005,
2,1,0,1,0,18926.2,0.203748,0.203413,29.5181,10,0.0132094,10,0.00600435,-1.52991,-0.177021,-0.333293,-383.637,0.2034127,
2,1,0,1,0,18926.2,0.206145,0.205825,28.5832,10,0.0133836,10,0.00588313,-1.54389,-0.171943,-0.343138,-382.797,0.205825,
2,1,0,1,0,18926.2,0.208542,0.208251,27.6762,10,0.0135523,10,0.0057636,-1.55789,-0.170063,-0.346931,-374.895,0.208251,
2,1,0,1,0,18926.2,0.210939,0.210642,26.7855,10,0.0137156,10,0.00564213,-1.5721,-0.172029,-0.342965,-358.848,0.2106415,
2,1,0,1,0,18926.2,0.213347,0.212973,25.9463,10,0.0138738,10,0.00552587,-1.58592,-0.172084,-0.342855,-347.276,0.212973,
2,1,0,1,0,18926.2,0.215744,0.215418,25.1239,10,0.0140269,10,0.00541213,-1.59991,-0.174411,-0.338281,-332.153,0.215418,
2,1,0,1,0,18926.2,0.218141,0.21779,24.3608,10,0.0141752,10,0.00530552,-1.61331,-0.184534,-0.319724,-304.496,0.21779,
2,1,0,1,0,18926.2,0.220547,0.220224,23.6641,10,0.0143192,10,0.00521141,-1.62591,-0.190223,-0.310162,-286.648,0.220224,
2,1,0,1,0,18926.3,0.222944,0.222622,22.9892,10,0.0144591,10,0.0051179,-1.63848,-0.197226,-0.299149,-268.869,0.222622,
2,1,0,1,0,18926.3,0.225341,0.225034,22.3741,10,0.0145951,10,0.00503495,-1.65025,-0.210478,-0.280314,-245.328,0.2250344,
2,1,0,1,0,18926.3,0.227744,0.227401,21.8234,10,0.0147276,10,0.00496267,-1.66108,-0.225059,-0.262154,-223.474,0.2274012,
2,1,0,1,0,18926.3,0.230146,0.229852,21.2934,10,0.0148569,10,0.00489433,-1.67176,-0.234191,-0.251931,-209.638,0.229852,
2,1,0,1,0,18926.3,0.232543,0.232242,20.8126,10,0.0149832,10,0.00483355,-1.68167,-0.25068,-0.23536,-191.485,0.232242,
2,1,0,1,0,18926.3,0.234941,0.234652,20.3843,10,0.0151067,10,0.00478321,-1.69071,-0.266964,-0.221003,-175.96,0.234652,
2,1,0,1,0,18926.3,0.237349,0.237056,19.9808,10,0.0152277,10,0.00473657,-1.69939,-0.281661,-0.209472,-163.445,0.2370562,
2,1,0,1,0,18926.3,0.239746,0.239436,19.5948,10,0.0153464,10,0.0046917,-1.70786,-0.300275,-0.196486,-150.494,0.239436,
2,1,0,1,0,18926.3,0.242143,0.241788,19.248,10,0.0154629,10,0.00465392,-1.71562,-0.323313,-0.182486,-137.319,0.241788,
2,1,0,1,0,18926.3,0.244548,0.2442,18.9436,10,0.0155774,10,0.00462603,-1.72254,-0.339607,-0.17373,-128.505,0.2442,
2,1,0,1,0,18926.3,0.246946,0.246605,18.642,10,0.0156901,10,0.0045972,-1.72951,-0.363285,-0.162407,-118.22,0.246605,
2,1,0,1,0,18926.3,0.249343,0.249036,18.3561,10,0.0158011,10,0.00457133,-1.73622,-0.386527,-0.152641,-109.561,0.249036,
2,1,0,1,0,18926.3,0.25174,0.251427,18.1191,10,0.0159105,10,0.00455563,-1.74186,-0.417537,-0.141305,-99.9775,0.251427,
2,1,0,1,0,18926.3,0.254148,0.25379,17.8912,10,0.0160185,10,0.00454061,-1.74736,-0.434609,-0.135754,-94.7908,0.25379,
2,1,0,1,0,18926.3,0.256545,0.256176,17.6597,10,0.0161251,10,0.00452399,-1.75302,-0.454166,-0.129909,-89.6631,0.256176,
2,1,0,1,0,18926.3,0.258942,0.258611,17.4622,10,0.0162305,10,0.00451591,-1.7579,-0.490247,-0.120347,-82.0372,0.258611,
2,1,0,1,0,18926.3,0.261348,0.260998,17.2726,10,0.0163346,10,0.00450811,-1.76264,-0.504631,-0.116917,-78.8304,0.260998,
2,1,0,1,0,18926.4,0.263745,0.263441,17.0829,10,0.0164377,10,0.00450033,-1.76744,-0.537271,-0.109814,-73.2702,0.263441,
2,1,0,1,0,18926.4,0.266142,0.265776,16.9145,10,0.0165396,10,0.00449548,-1.77174,-0.572358,-0.103082,-68.0825,0.265776,
2,1,0,1,0,18926.4,0.268539,0.268218,16.7485,10,0.0166406,10,0.00449225,-1.77602,-0.596137,-0.0989705,-64.7294,0.268218,
2,1,0,1,0,18926.4,0.270947,0.270642,16.6049,10,0.0167407,10,0.00449398,-1.77977,-0.620585,-0.0950715,-61.6114,0.270642,
2,1,0,1,0,18926.4,0.273344,0.272989,16.451,10,0.0168398,10,0.00449094,-1.78381,-0.640605,-0.0921005,-59.1808,0.272989,
2,1,0,1,0,18926.4,0.275741,0.275421,16.3238,10,0.0169381,10,0.00449592,-1.78718,-0.684465,-0.0861988,-54.9328,0.275421,
2,1,0,1,0,18926.4,0.278149,0.277802,16.1983,10,0.0170357,10,0.00449992,-1.79053,-0.689073,-0.0856223,-54.0878,0.277802,
2,1,0,1,0,18926.4,0.280547,0.280236,16.0625,10,0.0171324,10,0.00450129,-1.79419,-0.710422,-0.0830492,-52.0844,0.280236,
2,1,0,1,0,18926.4,0.282944,0.282607,15.9451,10,0.0172284,10,0.0045062,-1.79737,-0.793952,-0.0743118,-46.2745,0.282607,
2,1,0,1,0,18926.4,0.285344,0.285013,15.8331,10,0.0173237,10,0.00451265,-1.80043,-0.782493,-0.0754,-46.5852,0.285013,
2,1,0,1,0,18926.4,0.287746,0.287435,15.7133,10,0.0174184,10,0.00451656,-1.80373,-0.80617,-0.0731855,-44.9187,0.287435,
2,1,0,1,0,18926.4,0.290143,0.289807,15.6144,10,0.0175124,10,0.00452517,-1.80647,-0.82138,-0.0718304,-43.7671,0.2898072,
2,1,0,1,0,18926.4,0.29254,0.292154,15.5115,10,0.0176058,10,0.00453175,-1.80935,-0.885145,-0.0666558,-40.3461,0.292154,
2,1,0,1,0,18926.4,0.294949,0.294636,15.4145,10,0.0176985,10,0.00454168,-1.81207,-0.877396,-0.0672444,-40.4671,0.294636,
2,1,0,1,0,18926.4,0.297346,0.29699,15.313,10,0.0177907,10,0.0045478,-1.81494,-0.925013,-0.0637829,-38.1733,0.29699,
2,1,0,1,0,18926.4,0.299621,0.299272,15.2211,10,0.0178777,10,0.00455525,-1.81755,-0.0795165,-0.741984,-425.072,0.299272,
2,1,0,1,0,18926.4,0.299962,0.299823,15.0967,10,0.017896,10,0.00452633,-1.82112,0.00997494,5.91482,2864.32,0.299823,
2,1,0,1,0,18926.4,0.297903,0.297646,11.1073,10,0.0179612,10,0.00330605,-1.95439,0.0156641,3.76658,1559.77,0.297646,
2,1,0,1,0,18926.5,0.295506,0.295245,7.92507,10,0.0180176,10,0.00233984,-2.101,0.0156402,3.77232,1183.19,0.295245,
2,1,0,1,0,18926.5,0.293101,0.292825,5.50691,10,0.0180573,10,0.00161256,-2.25909,0.0136277,4.32942,916.763,0.2928251,
2,1,0,1,0,18926.5,0.290704,0.290435,3.57676,10,0.0180842,10,0.00103882,-2.44651,0.0103503,5.70029,742.795,0.290435,
2,1,0,1,0,18926.5,0.288307,0.288001,1.99001,10,0.0181006,10,0.000573124,-2.70115,0.00548998,10.7468,606.98,0.288001,
2,1,0,1,0,18926.5,0.28591,0.285596,0.679356,10,0.0181083,10,0.000194022,-3.1679,0.0124446,4.74102,507.44,0.285596,
2,0,0,1,0,18926.5,0.283501,0.283193,-0.432922,10,0.0181088,10,-0.000122601,-3.36359,-0.0349829,-1.68654,427.432,0.283193,
2,0,0,1,0,18926.5,0.281104,0.280755,-1.38128,10,0.0181033,10,-0.000387801,-2.85972,-0.00443006,-13.3181,364.465,0.280755,
2,0,0,1,0,18926.5,0.278707,0.278362,-2.18155,10,0.0180925,10,-0.000607261,-2.66123,-0.013882,-4.2501,317.529,0.278362,
2,0,0,1,0,18926.5,0.276302,0.276006,-2.88935,10,0.0180772,10,-0.000797477,-2.5392,-0.0228241,-2.58499,273.245,0.276006,
2,0,0,1,0,18926.5,0.273905,0.273595,-3.49135,10,0.0180579,10,-0.000955215,-2.45701,-0.0320745,-1.83947,242.373,0.273595,
2,0,0,1,0,18926.5,0.271508,0.271197,-4.03562,10,0.0180352,10,-0.00109445,-2.39409,-0.0424484,-1.38992,214.091,0.271197,
2,0,0,1,0,18926.5,0.269105,0.268783,-4.52512,10,0.0180095,10,-0.00121627,-2.34437,-0.053776,-1.09714,190.356,0.268783,
2,0,0,1,0,18926.5,0.266702,0.266371,-4.94599,10,0.017981,10,-0.00131747,-2.30575,-0.0664699,-0.88762,169.669,0.266371,
2,0,0,1,0,18926.5,0.264305,0.264009,-5.34079,10,0.01795,10,-0.00141001,-2.27239,-0.0786529,-0.750131,154.941,0.264009,
2,0,0,1,0,18926.5,0.261908,0.261548,-5.6958,10,0.0179169,10,-0.00148973,-2.24445,-0.0929113,-0.635014,140.204,0.2615484,
2,0,0,1,0,18926.5,0.2595,0.259144,-6.01859,10,0.0178817,10,-0.00155968,-2.22051,-0.105089,-0.561427,131.356,0.259144,
2,0,0,1,0,18926.6,0.257103,0.256781,-6.32039,10,0.0178446,10,-0.00162295,-2.19926,-0.120842,-0.488241,119.865,0.2567808,
2,0,0,1,0,18926.6,0.254706,0.254366,-6.59586,10,0.0178058,10,-0.00167776,-2.18073,-0.136903,-0.430962,110.532,0.254366,
2,0,0,1,0,18926.6,0.2523,0.251977,-6.85271,10,0.0177655,10,-0.00172673,-2.16414,-0.152769,-0.386203,103.045,0.251977,
2,0,0,1,0,18926.6,0.249903,0.249566,-7.08585,10,0.0177236,10,-0.00176839,-2.14961,-0.167551,-0.352131,97.1444,0.249566,
2,0,0,1,0,18926.6,0.247506,0.247192,-7.31139,10,0.0176804,10,-0.00180732,-2.136,-0.183754,-0.321081,91.513,0.247192,
2,0,0,1,0,18926.6,0.245109,0.244811,-7.51856,10,0.0176358,10,-0.00184063,-2.12387,-0.20184,-0.29231,85.7397,0.244811,
2,0,0,1,0,18926.6,0.242701,0.242414,-7.72867,10,0.01759,10,-0.00187354,-2.1119,-0.216186,-0.272913,82.1723,0.242414,
2,0,0,1,0,18926.6,0.240304,0.240029,-7.92301,10,0.0175431,10,-0.00190175,-2.10111,-0.234835,-0.25124,77.5225,0.240029,
2,0,0,1,0,18926.6,0.237906,0.237609,-8.09905,10,0.017495,10,-0.0019244,-2.09157,-0.256687,-0.229852,72.561,0.237609,
2,0,0,1,0,18926.6,0.235501,0.235195,-8.27739,10,0.0174458,10,-0.0019468,-2.08211,-0.272065,-0.21686,70.0279,0.2351952,
2,0,0,1,0,18926.6,0.233104,0.232807,-8.44887,10,0.0173957,10,-0.00196696,-2.0732,-0.281089,-0.209898,69.0955,0.232807,
2,0,0,1,0,18926.6,0.230707,0.230371,-8.61346,10,0.0173445,10,-0.00198429,-2.06482,-0.304289,-0.193895,65.0529,0.2303714,
2,0,0,1,0,18926.6,0.22831,0.227991,-8.75229,10,0.0172924,10,-0.00199544,-2.05788,-0.31759,-0.185774,63.5146,0.227991,
2,0,0,1,0,18926.6,0.225902,0.225568,-8.91066,10,0.0172394,10,-0.00200996,-2.05009,-0.318419,-0.18529,64.3585,0.225568,
2,0,0,1,0,18926.6,0.223504,0.223165,-9.06554,10,0.0171854,10,-0.00202311,-2.04261,-0.344378,-0.171323,60.4797,0.223165,
2,0,0,1,0,18926.6,0.221107,0.220801,-9.19444,10,0.0171306,10,-0.00203014,-2.03647,-0.356012,-0.165725,59.5238,0.220801,
2,0,0,1,0,18926.6,0.218699,0.21839,-9.3455,10,0.017075,10,-0.00204096,-2.0294,-0.377625,-0.15624,56.8955,0.21839,
2,0,0,1,0,18926.7,0.216302,0.215959,-9.47754,10,0.0170185,10,-0.00204676,-2.0233,-0.394498,-0.149557,55.3089,0.215959,
2,0,0,1,0,18926.7,0.213905,0.213569,-9.61104,10,0.0169612,10,-0.00205262,-2.01723,-0.40484,-0.145737,54.6949,0.213569,
2,0,0,1,0,18926.7,0.211505,0.211197,-9.74446,10,0.0169032,10,-0.002058,-2.01124,-0.405462,-0.145513,55.3392,0.211197,
2,0,0,1,0,18926.7,0.209102,0.20881,-9.88033,10,0.0168443,10,-0.00206311,-2.00523,-0.408857,-0.144305,55.6234,0.20881,
2,0,0,1,0,18926.7,0.206705,0.206383,-10.0197,10,0.0167846,10,-0.00206789,-1.99915,-0.436453,-0.135181,52.7662,0.206383,
2,0,0,1,0,18926.7,0.204308,0.204004,-10.1383,10,0.0167241,10,-0.00206825,-1.99404,-0.429647,-0.137322,54.3202,0.204004,
2,0,0,1,0,18926.7,0.2019,0.201626,-10.2722,10,0.0166629,10,-0.00207115,-1.98834,-0.432613,-0.13638,54.6599,0.201626,
2,0,0,1,0,18926.7,0.199503,0.19919,-10.4042,10,0.0166009,10,-0.00207242,-1.98279,-0.459835,-0.128307,52.015,0.19919,
2,0,0,1,0,18926.7,0.197106,0.196761,-10.5152,10,0.0165381,10,-0.00206898,-1.97818,-0.460177,-0.128211,52.676,0.196761,
2,0,0,1,0,18926.7,0.194709,0.194357,-10.6409,10,0.0164746,10,-0.00206813,-1.97302,-0.451263,-0.130744,54.3828,0.194357,
2,0,0,1,0,18926.7,0.192303,0.19197,-10.7902,10,0.0164103,10,-0.0020714,-1.96697,-0.448345,-0.131595,55.3376,0.19197,
2,0,0,1,0,18926.7,0.189906,0.189567,-10.9118,10,0.0163452,10,-0.00206852,-1.9621,-0.47769,-0.123511,52.6257,0.189567,
2,0,0,1,0,18926.7,0.187509,0.187174,-11.0368,10,0.0162793,10,-0.00206581,-1.95716,-0.451893,-0.130562,56.2948,0.187174,
2,0,0,1,0,18926.7,0.185101,0.184757,-11.1891,10,0.0162126,10,-0.00206727,-1.9512,-0.438769,-0.134467,58.6745,0.184757,
2,0,0,1,0,18926.7,0.182704,0.182381,-11.3179,10,0.0161451,10,-0.00206416,-1.94624,-0.459483,-0.128405,56.7475,0.1823806,
2,0,0,1,0,18926.7,0.180307,0.18002,-11.46,10,0.0160767,10,-0.00206303,-1.94081,-0.428284,-0.137759,61.6675,0.18002,
2,0,0,1,0,18926.7,0.177904,0.17759,-11.6119,10,0.0160075,10,-0.00206215,-1.9351,-0.414862,-0.142216,64.4817,0.17759,
2,0,0,1,0,18926.8,0.175501,0.175161,-11.7676,10,0.0159373,10,-0.00206123,-1.92931,-0.410772,-0.143632,65.9319,0.175161,
2,0,0,1,0,18926.8,0.173104,0.172807,-11.924,10,0.0158662,10,-0.00206055,-1.92358,-0.418014,-0.141144,65.716,0.172807,
2,0,0,1,0,18926.8,0.170707,0.170449,-12.0818,10,0.0157942,10,-0.00205933,-1.91787,-0.379094,-0.155634,73.5124,0.1704489,
2,0,0,1,0,18926.8,0.168302,0.168001,-12.2774,10,0.0157211,10,-0.00206261,-1.9109,-0.366138,-0.161141,77.1632,0.168001,
2,0,0,1,0,18926.8,0.165905,0.165609,-12.4636,10,0.0156469,10,-0.00206409,-1.90436,-0.368066,-0.160297,77.9756,0.1656092,
2,0,0,1,0,18926.8,0.163507,0.163168,-12.6494,10,0.0155716,10,-0.00206398,-1.89793,-0.338891,-0.174097,86.1433,0.163168,
2,0,0,1,0,18926.8,0.161099,0.160748,-12.8829,10,0.015495,10,-0.0020709,-1.88999,-0.313671,-0.188095,94.5206,0.1607483,
2,0,0,1,0,18926.8,0.158702,0.158386,-13.1054,10,0.015417,10,-0.00207571,-1.88255,-0.298731,-0.197502,101.064,0.158386,
2,0,0,1,0,18926.8,0.156305,0.155997,-13.342,10,0.0153377,10,-0.0020813,-1.87478,-0.285144,-0.206913,108.01,0.155997,
2,0,0,1,0,18926.8,0.153908,0.15355,-13.6215,10,0.0152568,10,-0.00209159,-1.86577,-0.261746,-0.225409,120.016,0.15355,
2,0,0,1,0,18926.8,0.151503,0.151159,-13.9256,10,0.0151741,10,-0.00210497,-1.85619,-0.247148,-0.238724,129.805,0.151159,
2,0,0,1,0,18926.8,0.149105,0.148766,-14.2407,10,0.0150896,10,-0.00211853,-1.84647,-0.234263,-0.251854,140.209,0.148766,
2,0,0,1,0,18926.8,0.146708,0.146395,-14.589,10,0.0150031,10,-0.00213575,-1.83598,-0.215456,-0.273838,156.327,0.146395,
2,0,0,1,0,18926.8,0.1443,0.144026,-14.9925,10,0.0149143,10,-0.00215931,-1.82412,-0.200269,-0.294604,172.65,0.144026,
2,0,0,1,0,18926.8,0.141903,0.141585,-15.4256,10,0.014823,10,-0.00218402,-1.81176,-0.189775,-0.310895,187.346,0.141585,
2,0,0,1,0,18926.8,0.139506,0.139148,-15.8823,10,0.014729,10,-0.00220998,-1.79909,-0.177998,-0.331465,206.044,0.139148,
2,0,0,1,0,18926.9,0.137109,0.136789,-16.4001,10,0.0146322,10,-0.00224337,-1.78515,-0.168176,-0.350822,225.099,0.136789,
2,0,0,1,0,18926.9,0.134701,0.13437,-16.9754,10,0.014532,10,-0.00228098,-1.77018,-0.160034,-0.368672,244.456,0.13437,
2,0,0,1,0,18926.9,0.132303,0.131969,-17.571,10,0.0144284,10,-0.00231883,-1.7552,-0.154244,-0.38251,262.849,0.131969,
2,0,0,1,0,18926.9,0.129906,0.129582,-18.2353,10,0.0143209,10,-0.00236297,-1.73909,-0.148468,-0.397392,283.024,0.1295819,
2,0,0,1,0,18926.9,0.127501,0.127172,-18.9446,10,0.0142094,10,-0.00240922,-1.72251,-0.148839,-0.3964,292.849,0.127172,
2,0,0,1,0,18926.9,0.125104,0.124803,-19.6541,10,0.0140935,10,-0.00245288,-1.70655,-0.148307,-0.397823,305.269,0.124803,
2,0,0,1,0,18926.9,0.122707,0.122416,-20.3967,10,0.0139733,10,-0.00249688,-1.69044,-0.148917,-0.396194,315.591,0.122416,
2,0,0,1,0,18926.9,0.12031,0.120015,-21.1698,10,0.0138485,10,-0.00254069,-1.67428,-0.150535,-0.391937,323.757,0.1200149,
2,0,0,1,0,18926.9,0.117901,0.117621,-21.9563,10,0.013719,10,-0.00258252,-1.65844,-0.153883,-0.383408,328.306,0.117621,
2,0,0,1,0,18926.9,0.115504,0.1152,-22.7373,10,0.0135849,10,-0.00261933,-1.64326,-0.159748,-0.369332,327.578,0.1151996,
2,0,0,1,0,18926.9,0.113107,0.11277,-23.5266,10,0.013446,10,-0.0026531,-1.62844,-0.166364,-0.354645,325.101,0.11277,
2,0,0,1,0,18926.9,0.110702,0.110412,-24.3001,10,0.0133025,10,-0.00268301,-1.61439,-0.180385,-0.327077,309.361,0.110412,
2,0,0,1,0,18926.9,0.108305,0.108056,-24.9932,10,0.0131546,10,-0.00270065,-1.60218,-0.188644,-0.312758,305.203,0.108056,
2,0,0,1,0,18926.9,0.105908,0.105668,-25.737,10,0.0130023,10,-0.00271956,-1.58944,-0.189736,-0.310959,312.255,0.105668,
2,0,0,1,0,18926.9,0.103505,0.103227,-26.4916,10,0.0128455,10,-0.00273463,-1.57689,-0.204094,-0.289082,298.103,0.103227,
2,0,0,1,0,18926.9,0.101102,0.100837,-27.1645,10,0.0126844,10,-0.0027392,-1.566,-0.223474,-0.264013,279.627,0.100837,
2,0,0,1,0,18926.9,0.0987052,0.0984515,-27.8265,10,0.0125194,10,-0.00273956,-1.55554,-0.237961,-0.24794,269.098,0.0984515,
2,0,0,1,0,18927,0.0963081,0.0959978,-28.4792,10,0.0123503,10,-0.00273394,-1.54547,-0.253876,-0.232397,257.865,0.0959978,
2,0,0,1,0,18927,0.0938999,0.0936235,-29.0803,10,0.0121776,10,-0.0027226,-1.5364,-0.275224,-0.214371,242.949,0.0936235,
2,0,0,1,0,18927,0.0915028,0.0912058,-29.6427,10,0.0120014,10,-0.00270359,-1.52808,-0.296156,-0.199219,230.209,0.0912058,
2,0,0,1,0,18927,0.0891057,0.0888305,-30.1774,10,0.0118219,10,-0.00268067,-1.52032,-0.321438,-0.18355,215.892,0.0888305,
2,0,0,1,0,18927,0.0867002,0.0864265,-30.6798,10,0.0116393,10,-0.00265155,-1.51315,-0.354474,-0.166444,199.019,0.0864265,
2,0,0,1,0,18927,0.0843031,0.0840756,-31.1318,10,0.0114538,10,-0.00261742,-1.5068,-0.388468,-0.151879,184.314,0.0840756,
2,0,0,1,0,18927,0.081906,0.0816441,-31.5511,10,0.0112656,10,-0.00257596,-1.50099,-0.424428,-0.139011,171.043,0.0816441,
2,0,0,1,0,18927,0.0795089,0.0791903,-31.9467,10,0.0110751,10,-0.00252987,-1.49557,-0.476924,-0.12371,154.043,0.0791903,
2,0,0,1,0,18927,0.0771007,0.0767853,-32.2984,10,0.0108822,10,-0.00248004,-1.49082,-0.560104,-0.105338,132.549,0.0767853,
2,0,0,1,0,18927,0.0747036,0.0744206,-32.5734,10,0.0106876,10,-0.00242413,-1.48714,-0.685943,-0.086013,109.244,0.0744206,
2,0,0,1,0,18927,0.0723065,0.0720039,-32.8268,10,0.0104913,10,-0.00236366,-1.48377,-0.822622,-0.0717219,91.7385,0.0720039,
2,0,0,1,0,18927,0.0699011,0.0696117,-33.0311,10,0.0102937,10,-0.00229935,-1.48108,-1.08775,-0.0542406,69.7902,0.0696117,
2,0,0,1,0,18927,0.067504,0.0671558,-33.1554,10,0.0100952,10,-0.00222658,-1.47945,-1.44323,-0.0408806,52.8563,0.0671558,
2,0,0,1,0,18927,0.0651069,0.0648462,-33.2702,10,0.00989588,10,-0.00215744,-1.47795,-2.20454,-0.0267629,34.705,0.0648462,
2,0,0,1,0,18927,0.0627098,0.0623606,-33.32,10,0.00969607,10,-0.00207785,-1.4773,-5.00082,-0.0117981,15.3256,0.0623606,
2,0,0,1,0,18927,0.0603016,0.0599461,-33.3363,10,0.00949607,10,-0.00199838,-1.47708,-35.5866,-0.00165793,2.15545,0.0599461,
2,0,0,1,0,18927,0.0579045,0.0576121,-33.322,10,0.00929608,10,-0.00191975,-1.47727,6.01302,0.00981204,-12.7505,0.0576121,
2,0,0,1,0,18927.1,0.0555074,0.0551817,-33.2698,10,0.00909629,10,-0.00183588,-1.47795,3.42612,0.0172207,-22.351,0.0551817,
2,0,0,1,0,18927.1,0.0530992,0.0527714,-33.2142,10,0.00889682,10,-0.00175276,-1.47868,2.50181,0.023583,-30.5448,0.0527714,
2,0,0,1,0,18927.1,0.0507021,0.0503653,-33.125,10,0.00869781,10,-0.00166835,-1.47984,1.94672,0.0303074,-39.1638,0.0503653,
2,0,0,1,0,18927.1,0.048305,0.047991,-33.023,10,0.00849939,10,-0.00158481,-1.48118,1.68194,0.0350786,-45.1985,0.047991,
2,0,0,1,0,18927.1,0.0459051,0.0456041,-32.9099,10,0.00830159,10,-0.00150083,-1.48267,1.51797,0.0388678,-49.9006,0.0456041,
2,0,0,1,0,18927.1,0.0435024,0.0431609,-32.7752,10,0.00810452,10,-0.00141461,-1.48445,1.46307,0.0403263,-51.5988,0.0431609,
2,0,0,1,0,18927.1,0.0411053,0.0408004,-32.6603,10,0.00790823,10,-0.00133255,-1.48598,1.41063,0.0418252,-53.3033,0.0408004,
2,0,0,1,0,18927.1,0.0387082,0.0383806,-32.5366,10,0.00771265,10,-0.00124877,-1.48763,1.39984,0.0421475,-53.493,0.0383806,
2,0,0,1,0,18927.1,0.0363,0.0359724,-32.3934,10,0.00751789,10,-0.00116527,-1.48954,1.36055,0.0433647,-54.8308,0.0359724,
2,0,0,1,0,18927.1,0.0339029,0.0336098,-32.2619,10,0.00732396,10,-0.00108432,-1.49131,1.30869,0.0450833,-56.7515,0.0336098,
2,0,0,1,0,18927.1,0.0315058,0.0311889,-32.1301,10,0.0071308,10,-0.0010021,-1.49309,1.32159,0.0446432,-55.9612,0.0311889,
2,0,0,1,0,18927.1,0.0291087,0.0288083,-31.9749,10,0.0069385,10,-0.000921142,-1.49519,1.25417,0.0470431,-58.7201,0.0288083,
2,0,0,1,0,18927.1,0.0267033,0.0263831,-31.8377,10,0.00674703,10,-0.000839979,-1.49706,1.22194,0.0482839,-59.9927,0.0263831,
2,0,0,1,0,18927.1,0.0243062,0.0239834,-31.6964,10,0.00655643,10,-0.000760188,-1.49899,1.15035,0.0512887,-63.4303,0.0239834,
2,0,0,1,0,18927.1,0.0219091,0.0215763,-31.5455,10,0.0063667,10,-0.000680635,-1.50106,1.12817,0.0522969,-64.3795,0.0215763,
2,0,0,1,0,18927.1,0.0195009,0.0191628,-31.3888,10,0.00617791,10,-0.000601499,-1.50322,1.07853,0.0547039,-67.0119,0.0191628,
2,0,0,1,0,18927.2,0.0171038,0.0167684,-31.2273,10,0.00599008,10,-0.000523633,-1.50547,1.01418,0.0581749,-70.8918,0.0167684,
2,0,0,1,0,18927.2,0.0147067,0.0143783,-31.0677,10,0.00580322,10,-0.000446701,-1.50769,0.998053,0.0591151,-71.6202,0.0143783,
2,0,0,1,0,18927.2,0.012304,0.011968,-30.8747,10,0.00561743,10,-0.000369508,-1.5104,0.935098,0.063095,-76.0172,0.011968,
2,0,0,1,0,18927.2,0.00990136,0.00958099,-30.6868,10,0.00543278,10,-0.00029401,-1.51305,0.872987,0.067584,-80.9111,0.00958099,
2,0,0,1,0,18927.2,0.00750426,0.0071463,-30.4903,10,0.00524926,10,-0.000217893,-1.51584,0.783926,0.0752622,-89.4763,0.0071463,
2,0,0,1,0,18927.2,0.00510715,0.00478372,-30.2504,10,0.00506703,10,-0.00014471,-1.51927,0.816641,0.0722472,-85.3808,0.00478372,
2,0,0,1,0,18927.2,0.00270173,0.00237977,-30.0318,10,0.00488618,10,-7.14688e-05,-1.52242,0.757858,0.077851,-91.2893,0.00237977,
2,0,0,1,0,18927.2,0.000304623,-0.000101578,-29.8383,10,0.00470648,10,3.03091e-06,-1.52523,0.6757,0.0873168,-101.495,-0.000101578,
2,0,0,1,0,18927.2,-0.00209248,-0.00247159,-29.5506,10,0.00452831,10,7.30368e-05,-1.52943,0.594731,0.0992045,-114.415,-0.00247159,
2,0,0,1,0,18927.2,-0.00450068,-0.00491476,-29.2798,10,0.00435186,10,0.000143903,-1.53343,0.559572,0.105438,-120.427,-0.00491476,
2,0,0,1,0,18927.2,-0.00689779,-0.00726145,-28.9906,10,0.00417706,10,0.000210514,-1.53774,0.560197,0.10532,-119.102,-0.00726145,
2,0,0,1,0,18927.2,-0.00929489,-0.00963782,-28.6958,10,0.00400406,10,0.000276565,-1.54218,0.53462,0.110359,-123.586,-0.00963782,
2,0,0,1,0,18927.2,-0.011692,-0.0120587,-28.3889,10,0.00383283,10,0.000342334,-1.54685,0.532497,0.110799,-122.781,-0.0120587,
2,0,0,1,0,18927.2,-0.0140974,-0.0144563,-28.0938,10,0.00366337,10,0.000406133,-1.55139,0.527076,0.111938,-122.745,-0.0144563,
2,0,0,1,0,18927.2,-0.0164945,-0.0168581,-27.8078,10,0.00349569,10,0.000468787,-1.55583,0.512081,0.115216,-125.022,-0.0168581,
2,0,0,1,0,18927.2,-0.0188916,-0.0192684,-27.5017,10,0.00332979,10,0.000529915,-1.56064,0.523115,0.112786,-121.102,-0.0192684,
2,0,0,1,0,18927.2,-0.0212998,-0.0216734,-27.224,10,0.00316566,10,0.000590038,-1.56505,0.542328,0.10879,-115.641,-0.0216734,
2,0,0,1,0,18927.3,-0.0236969,-0.0240477,-26.9605,10,0.00300317,10,0.000648338,-1.56927,0.563974,0.104615,-110.043,-0.0240477,
2,0,0,1,0,18927.3,-0.026094,-0.0264474,-26.7042,10,0.00284221,10,0.000706257,-1.57342,0.59824,0.0986226,-102.808,-0.0264474,
2,0,0,1,0,18927.3,-0.0284912,-0.0288344,-26.4475,10,0.00268283,10,0.000762598,-1.57761,0.637151,0.0925997,-95.7063,-0.0288344,
2,0,0,1,0,18927.3,-0.0308994,-0.0312532,-26.2447,10,0.00252478,10,0.000820229,-1.58096,0.686993,0.0858816,-87.9534,-0.0312532,
2,0,0,1,0,18927.3,-0.0332965,-0.0336645,-26.0331,10,0.00236795,10,0.000876391,-1.58447,0.728081,0.081035,-82.3823,-0.0336645,
2,0,0,1,0,18927.3,-0.0356936,-0.0360621,-25.8411,10,0.00221238,10,0.000931884,-1.58769,0.808794,0.0729481,-73.6627,-0.0360621,
2,0,0,1,0,18927.3,-0.038099,-0.0385032,-25.6866,10,0.00205781,10,0.000989015,-1.59029,0.960133,0.0614498,-61.6331,-0.0385032,
2,0,0,1,0,18927.3,-0.0404961,-0.0408944,-25.5408,10,0.00190415,10,0.00104448,-1.59276,1.00058,0.0589659,-58.8055,-0.0408944,
2,0,0,1,0,18927.3,-0.0428932,-0.0432432,-25.4039,10,0.00175131,10,0.00109854,-1.5951,1.18828,0.0496515,-49.2701,-0.04324317,
2,0,0,1,0,18927.3,-0.0452903,-0.045663,-25.2927,10,0.00159924,10,0.00115494,-1.59701,1.44522,0.0408243,-40.3382,-0.045663,
2,0,0,1,0,18927.3,-0.0476985,-0.0480595,-25.2162,10,0.00144771,10,0.00121188,-1.59832,1.80217,0.0327382,-32.2269,-0.0480595,
2,0,0,1,0,18927.3,-0.0500956,-0.0504815,-25.1389,10,0.00129665,10,0.00126905,-1.59965,1.90403,0.0309869,-30.4098,-0.0504815,
2,0,0,1,0,18927.3,-0.0524927,-0.0528833,-25.0618,10,0.00114603,10,0.00132535,-1.60099,2.52111,0.0234024,-22.9212,-0.0528833,
2,0,0,1,0,18927.3,-0.0548981,-0.0553,-25.045,10,0.00099575,10,0.00138499,-1.60128,3.60381,0.0163715,-16.0013,-0.0553,
2,0,0,1,0,18927.3,-0.0572953,-0.0576742,-25.007,10,0.000845618,10,0.00144226,-1.60194,5.34443,0.0110395,-10.7735,-0.0576742,
2,0,0,1,0,18927.3,-0.0596924,-0.0600867,-24.9746,10,0.000695699,10,0.00150064,-1.6025,18.8393,0.00313175,-3.05644,-0.0600867,
2,0,0,1,0,18927.3,-0.062095,-0.0624853,-24.9855,10,0.000545861,10,0.00156123,-1.60231,-14.7791,-0.00399213,3.89326,-0.0624853,
2,0,0,1,0,18927.4,-0.0644977,-0.0648776,-24.9995,10,0.000395879,10,0.00162191,-1.60207,-7.87174,-0.00749517,7.31061,-0.0648776,
2,0,0,1,0,18927.4,-0.0668948,-0.0672572,-25.0079,10,0.000245868,10,0.00168196,-1.60192,-6.98844,-0.00844252,8.24547,-0.0672572,
2,0,0,1,0,18927.4,-0.0692919,-0.0696197,-25.0346,10,9.57443e-05,10,0.0017429,-1.60146,-3.64054,-0.0162064,15.8455,-0.0696197,
2,0,0,1,0,18927.4,-0.0717001,-0.0720629,-25.0822,10,-5.46402e-05,10,0.00180749,-1.60064,-2.73578,-0.0215661,21.117,-0.0720629,
2,0,0,1,0,18927.4,-0.0740972,-0.0744573,-25.1396,10,-0.00020531,10,0.00187183,-1.59964,-2.75743,-0.0213967,21.0021,-0.0744573,
2,0,0,1,0,18927.4,-0.0764943,-0.0768941,-25.198,10,-0.000356318,10,0.00193757,-1.59863,-2.06656,-0.0285498,28.0902,-0.0768941,
2,0,0,1,0,18927.4,-0.0788997,-0.0792875,-25.2821,10,-0.0005077,10,0.00200456,-1.59719,-1.73554,-0.0339953,33.5469,-0.0792875,
2,0,0,1,0,18927.4,-0.0812968,-0.0816575,-25.3578,10,-0.000659618,10,0.00207065,-1.59589,-1.64079,-0.0359582,35.5727,-0.0816575,
2,0,0,1,0,18927.4,-0.0836939,-0.084054,-25.4382,10,-0.000812032,10,0.00213818,-1.59451,-1.49869,-0.0393676,39.1102,-0.084054,
2,0,0,1,0,18927.4,-0.086091,-0.0864367,-25.5334,10,-0.000964929,10,0.00220703,-1.59289,-1.28614,-0.0458738,45.7523,-0.0864367,
2,0,0,1,0,18927.4,-0.0884992,-0.088882,-25.6664,10,-0.00111856,10,0.00228128,-1.59064,-1.22298,-0.0482428,48.2868,-0.088882,
2,0,0,1,0,18927.4,-0.0908963,-0.0912542,-25.7614,10,-0.00127288,10,0.00235084,-1.58903,-1.26685,-0.0465724,46.8578,-0.0912542,
2,0,0,1,0,18927.4,-0.0932935,-0.093638,-25.8846,10,-0.00142782,10,0.00242378,-1.58696,-1.10862,-0.0532195,53.8148,-0.093638,
2,0,0,1,0,18927.4,-0.0956989,-0.0960705,-26.0352,10,-0.00158358,10,0.00250122,-1.58444,-1.02321,-0.0576617,58.5712,-0.0960705,
2,0,0,1,0,18927.4,-0.098096,-0.0984437,-26.166,10,-0.00174021,10,0.00257587,-1.58226,-1.23089,-0.0479326,48.835,-0.0984437,
2,0,0,0,0,18927.4,-0.0999548,-0.100228,-26.274,10,-0.00186347,10,0.0026334,-1.58047,0.0275891,2.13852,-2051.81,-0.100228,
2,0,0,1,1,18927.4,-0.0994555,-0.0999633,-24.8491,10,-0.0019066,10,0.002484,-1.60469,-0.0230222,-2.56275,2243.65,-0.0999633,
2,0,0,1,1,18927.5,-0.0970583,-0.0975265,-20.2396,10,-0.00204062,10,0.0019739,-1.6938,-0.0272818,-2.16262,1725.53,-0.0975265,
2,0,0,1,1,18927.5,-0.0946501,-0.0950674,-16.687,10,-0.00215079,10,0.00158639,-1.77762,-0.0280829,-2.10093,1377.42,-0.0950674,
2,0,0,1,1,18927.5,-0.092253,-0.0926433,-13.6782,10,-0.0022414,10,0.00126719,-1.86397,-0.0266257,-2.21591,1183.68,-0.0926433,
2,0,0,1,1,18927.5,-0.0898559,-0.0902436,-11.0629,10,-0.0023152,10,0.000998355,-1.95613,-0.0243562,-2.42238,1037.21,-0.0902436,
2,0,0,1,1,18927.5,-0.0874588,-0.0878587,-8.72144,10,-0.00237421,10,0.000766255,-2.05941,-0.0210447,-2.80356,937.362,-0.0878587,
2,0,0,1,1,18927.5,-0.0850534,-0.0854516,-6.58314,10,-0.00241979,10,0.00056254,-2.18157,-0.0173619,-3.39825,848.913,-0.0854516,
2,0,0,1,1,18927.5,-0.0826563,-0.0830381,-4.67116,10,-0.00245329,10,0.000387884,-2.33058,-0.0130809,-4.5104,769.374,-0.0830381,
2,0,0,1,1,18927.5,-0.0802592,-0.0806808,-2.92454,10,-0.00247585,10,0.000235955,-2.53394,-0.00774765,-7.61522,705.105,-0.0806808,
2,0,0,1,1,18927.5,-0.077851,-0.0782663,-1.29849,10,-0.0024883,10,0.000101628,-2.88656,-0.00878398,-6.71677,647.808,-0.0782663,
2,0,0,1,1,18927.5,-0.0754539,-0.0758666,0.181626,10,-0.00249145,10,-1.37793e-05,-3.74082,0.177649,0.332116,595.927,-0.0758666,
2,1,0,1,1,18927.5,-0.0730568,-0.0734743,1.54676,10,-0.00248606,10,-0.000113647,-2.81058,0.00619121,9.52964,553.289,-0.0734743,
2,1,0,1,1,18927.5,-0.0706597,-0.0710958,2.81172,10,-0.00247279,10,-0.000199902,-2.55103,0.0106426,5.54373,515.412,-0.0710958,
2,1,0,1,1,18927.5,-0.0682542,-0.0686622,4.01142,10,-0.00245212,10,-0.000275433,-2.3967,0.0177998,3.31464,481.172,-0.0686622,
2,1,0,1,1,18927.5,-0.0658571,-0.0662975,5.09865,10,-0.00242464,10,-0.000338027,-2.29255,0.025569,2.30748,440.898,-0.0662975,
2,1,0,1,1,18927.5,-0.06346,-0.0638787,6.10478,10,-0.0023909,10,-0.000389965,-2.21433,0.0331222,1.78128,415.648,-0.0638787,
2,1,0,1,1,18927.5,-0.0610518,-0.0614546,7.0943,10,-0.00235117,10,-0.000435978,-2.14909,0.0414391,1.42378,385.965,-0.0614546,
2,1,0,1,1,18927.5,-0.0586547,-0.0590963,7.99365,10,-0.00230578,10,-0.000472395,-2.09725,0.0504348,1.16983,359.415,-0.0590963,
2,1,0,1,1,18927.6,-0.0562576,-0.0567008,8.81509,10,-0.00225527,10,-0.000499822,-2.05477,0.0598746,0.985393,336.092,-0.0567008,
2,1,0,1,1,18927.6,-0.053855,-0.0542937,9.60984,10,-0.00219994,10,-0.000521754,-2.01728,0.0689431,0.855779,317.83,-0.0542937,
2,1,0,1,1,18927.6,-0.0514523,-0.0518505,10.335,10,-0.00213997,10,-0.000535873,-1.98569,0.0799685,0.737791,295.263,-0.0518505,
2,1,0,1,1,18927.6,-0.0490552,-0.049454,11.0087,10,-0.00207584,10,-0.000544422,-1.95827,0.0938317,0.628786,268.887,-0.049454,
2,1,0,1,1,18927.6,-0.0466581,-0.0471052,11.6504,10,-0.00200779,10,-0.000548795,-1.93366,0.103117,0.572167,258.875,-0.0471052,
2,1,0,1,1,18927.6,-0.0442527,-0.0446461,12.2483,10,-0.00193602,10,-0.000546838,-1.91192,0.116521,0.506347,240.774,-0.0446461,
2,1,0,1,1,18927.6,-0.0418556,-0.0422485,12.788,10,-0.00186082,10,-0.000540274,-1.8932,0.136032,0.433721,215.623,-0.0422485,
2,1,0,1,1,18927.6,-0.0394585,-0.0398446,13.2942,10,-0.0017825,10,-0.000529703,-1.87634,0.148057,0.398495,206.321,-0.0398446,
2,1,0,1,1,18927.6,-0.0370558,-0.037464,13.7755,10,-0.00170125,10,-0.000516083,-1.86089,0.164176,0.359371,192.65,-0.037464,
2,1,0,1,1,18927.6,-0.0346532,-0.0350515,14.2289,10,-0.00161715,10,-0.000498745,-1.84683,0.183751,0.321087,177.615,-0.0350515,
2,1,0,1,1,18927.6,-0.0322561,-0.0326306,14.6258,10,-0.00153054,10,-0.000477248,-1.83488,0.20668,0.285466,162.721,-0.0326306,
2,1,0,1,1,18927.6,-0.029859,-0.0302256,15.0118,10,-0.0014416,10,-0.000453742,-1.82357,0.221232,0.266688,155.954,-0.0302256,
2,1,0,1,1,18927.6,-0.0274535,-0.0278036,15.3827,10,-0.00135036,10,-0.000427696,-1.81297,0.250365,0.235656,140.991,-0.02780365,
2,1,0,1,1,18927.6,-0.0250564,-0.0254188,15.689,10,-0.00125711,10,-0.000398795,-1.8044,0.278777,0.211638,129.471,-0.0254188,
2,1,0,1,1,18927.6,-0.0226593,-0.0230679,15.9937,10,-0.00116203,10,-0.000368941,-1.79605,0.301838,0.195469,121.858,-0.0230679,
2,1,0,1,1,18927.6,-0.0202511,-0.0206247,16.2953,10,-0.00106514,10,-0.000336085,-1.78794,0.334763,0.176244,111.812,-0.0206247,
2,1,0,1,1,18927.6,-0.017854,-0.0182292,16.5364,10,-0.000966621,10,-0.000301447,-1.78156,0.37373,0.157868,101.76,-0.0182292,
2,1,0,1,1,18927.7,-0.0154569,-0.015837,16.7663,10,-0.000866671,10,-0.000265528,-1.77556,0.402977,0.14641,95.7715,-0.015837,
2,1,0,1,1,18927.7,-0.0130598,-0.0134309,16.9916,10,-0.00076534,10,-0.000228213,-1.76976,0.432037,0.136562,90.4851,-0.0134309,
2,1,0,1,1,18927.7,-0.0106516,-0.0110407,17.2118,10,-0.000662705,10,-0.000190031,-1.76417,0.488718,0.120724,80.9571,-0.0110407,
2,1,0,1,1,18927.7,-0.00825448,-0.00864104,17.3874,10,-0.000558899,10,-0.000150245,-1.75976,0.53862,0.109539,74.27,-0.00864104,
2,1,0,1,1,18927.7,-0.00585738,-0.00620952,17.5541,10,-0.000454085,10,-0.000109002,-1.75562,0.573664,0.102848,70.4514,-0.00620952,
2,1,0,1,1,18927.7,-0.00345195,-0.00379604,17.7248,10,-0.000348221,10,-6.72838e-05,-1.75142,0.633901,0.0930744,64.2543,-0.00379604,
2,1,0,1,1,18927.7,-0.00105485,-0.0013974,17.8609,10,-0.000241425,10,-2.49587e-05,-1.7481, , , ,-0.001397395,
2,1,0,0,1,18927.7,-7.54729e-05,-0.000478022,17.8838,10,-0.000196723,10,-8.54884e-06,-1.74754, , , ,-0.000478022,