File: Figure_codes/Fig_3-5/rawdata_trumpetplot_data/after 10th/20221101_1-115_003_TrumpetPlot_ParaChange_from10_every3_07_CV_C01_21.csv
mode,ox/red,error,control changes,counter inc.,time/s,control/V,Ewe/V,<I>/mA,cycle number,(Q-Qo)/C,I Range,P/W,log(|I|),Tafel slope mV/dec,alpha_eff,dI/d(E-IR),E-IR/V,
2,0,0,0,0,42537.8,2.44065e-05,-0.000439847,-2.70776,22,0.0000000E+000,10,1.191e-06,-2.56739, , , ,-0.000439847,
2,0,0,1,0,42537.8,0.0013005,0.000981153,-1.32576,22,-3.99865e-05,10,-1.30078e-06,-2.87753, , , ,0.000981153,
2,0,0,1,0,42537.8,0.00279471,0.00251017,-0.371689,22,-5.99507e-05,10,-9.33004e-07,-3.42982,-0.00640917,-9.20556,537.543,0.00251017,
2,1,0,1,0,42537.8,0.00429425,0.00397732,0.235924,22,-6.07012e-05,10,9.38344e-07,-3.62723,0.0386391,1.52695,363.355,0.00397732,
2,1,0,1,0,42537.9,0.00579379,0.00544782,0.683398,22,-4.83617e-05,10,3.72303e-06,-3.16533,0.00318914,18.5003,266.431,0.00544782,
2,1,0,1,0,42537.9,0.007288,0.00697683,1.02433,22,-2.65037e-05,10,7.14656e-06,-2.98956,0.0100963,5.84373,204.174,0.00697683,
2,1,0,1,0,42537.9,0.00878882,0.00846865,1.28364,22,2.82041e-06,10,1.08707e-05,-2.89156,0.0177424,3.32537,156.354,0.00846865,
2,1,0,1,0,42537.9,0.0102896,0.00996274,1.48524,22,3.79814e-05,10,1.47971e-05,-2.8282,0.0267366,2.20671,123.825,0.00996274,
2,1,0,1,0,42538,0.0117838,0.0114418,1.65007,22,7.75233e-05,10,1.88797e-05,-2.7825,0.036809,1.60287,101.203,0.01144175,
2,1,0,1,0,42538,0.0132834,0.0129522,1.7935,22,0.000121018,10,2.32298e-05,-2.7463,0.0467921,1.2609,87.047,0.0129522,
2,1,0,1,0,42538,0.0147816,0.014479,1.91305,22,0.000167717,10,2.7699e-05,-2.71827,0.0567509,1.03963,76.788,0.014479,
2,1,0,1,0,42538,0.0162811,0.0159556,2.00883,22,0.000217258,10,3.20521e-05,-2.69706,0.0720665,0.818689,63.919,0.0159556,
2,1,0,1,0,42538.1,0.0177753,0.0174422,2.10336,22,0.000268938,10,3.66873e-05,-2.67709,0.0887539,0.664759,54.2714,0.0174422,
2,1,0,1,0,42538.1,0.0192761,0.0189318,2.18248,22,0.000322866,10,4.13183e-05,-2.66105,0.097654,0.604174,51.2234,0.0189318,
2,1,0,1,0,42538.1,0.020777,0.0204623,2.25418,22,0.000378744,10,4.61256e-05,-2.64701,0.10756,0.548531,48.1501,0.0204623,
2,1,0,1,0,42538.1,0.0222712,0.0219596,2.32237,22,0.000436209,10,5.09985e-05,-2.63407,0.123286,0.478562,43.3397,0.0219596,
2,1,0,1,0,42538.2,0.0237707,0.0234838,2.39085,22,0.000495557,10,5.61461e-05,-2.62145,0.140626,0.419552,39.0071,0.0234838,
2,1,0,1,0,42538.2,0.0252703,0.0249143,2.44354,22,0.000556365,10,6.08792e-05,-2.61198,0.144894,0.407195,38.8675,0.0249143,
2,1,0,1,0,42538.2,0.0267645,0.0264348,2.50283,22,0.000618387,10,6.61618e-05,-2.60157,0.143533,0.411054,40.1027,0.0264348,
2,1,0,1,0,42538.2,0.0282653,0.0279297,2.56017,22,0.000682104,10,7.15047e-05,-2.59173,0.159171,0.37067,37.0829,0.0279297,
2,1,0,1,0,42538.3,0.0297648,0.0294499,2.61714,22,0.000747267,10,7.70746e-05,-2.58217,0.173293,0.340464,34.7212,0.0294499,
2,1,0,1,0,42538.3,0.031259,0.0309082,2.66822,22,0.000813481,10,8.247e-05,-2.57378,0.174372,0.338358,35.183,0.0309082,
2,1,0,1,0,42538.3,0.0327585,0.0324218,2.72179,22,0.000881209,10,8.82453e-05,-2.56515,0.167021,0.35325,37.5047,0.0324218,
2,1,0,1,0,42538.3,0.034258,0.0339318,2.76994,22,0.000950297,10,9.39891e-05,-2.55753,0.180489,0.326889,35.3823,0.0339318,
2,1,0,1,0,42538.4,0.0357576,0.0354459,2.82501,22,0.00102071,10,0.000100135,-2.54898,0.206312,0.285975,31.4943,0.0354459,
2,1,0,1,0,42538.4,0.0372518,0.036907,2.88137,22,0.00109215,10,0.000106343,-2.5404,0.200618,0.294091,32.9638,0.036907,
2,1,0,1,0,42538.4,0.0387526,0.0383948,2.92689,22,0.00116503,10,0.000112377,-2.53359,0.195421,0.301913,34.5052,0.0383948,
2,1,0,1,0,42538.4,0.0402534,0.039962,2.96957,22,0.00123918,10,0.00011867,-2.52731,0.203252,0.290279,33.7099,0.039962,
2,1,0,1,0,42538.5,0.0417476,0.0414086,3.0303,22,0.00131434,10,0.00012548,-2.51852,0.219119,0.269261,31.7761,0.0414086,
2,1,0,1,0,42538.5,0.0432472,0.0429766,3.08282,22,0.00139106,10,0.000132489,-2.51105,0.215372,0.273944,32.8445,0.0429766,
2,1,0,1,0,42538.5,0.0447467,0.0444086,3.12494,22,0.00146893,10,0.000138774,-2.50516,0.21378,0.275984,33.6362,0.0444086,
2,1,0,1,0,42538.5,0.0462463,0.0459369,3.16711,22,0.00154803,10,0.000145488,-2.49934,0.219283,0.269058,33.3408,0.0459369,
2,1,0,1,0,42538.6,0.0477391,0.0474525,3.22796,22,0.00162804,10,0.000153175,-2.49107,0.224639,0.262644,33.0373,0.0474525,
2,1,0,1,0,42538.6,0.0492399,0.0489252,3.27551,22,0.00170967,10,0.000160255,-2.48472,0.241652,0.244152,31.1509,0.0489252,
2,1,0,1,0,42538.6,0.0507408,0.0503912,3.31624,22,0.00179247,10,0.000167109,-2.47935,0.236124,0.249869,32.3789,0.05039119,
2,1,0,1,0,42538.6,0.052235,0.0519014,3.35891,22,0.00187605,10,0.000174332,-2.4738,0.242917,0.242882,31.9172,0.0519014,
2,1,0,1,0,42538.7,0.0537345,0.0534297,3.41701,22,0.00196121,10,0.00018257,-2.46635,0.254911,0.231453,30.8404,0.0534297,
2,1,0,1,0,42538.7,0.0552341,0.0549023,3.46554,22,0.00204758,10,0.000190266,-2.46023,0.264076,0.223421,30.1251,0.0549023,
2,1,0,1,0,42538.7,0.0567283,0.0564205,3.5023,22,0.00213472,10,0.000197601,-2.45565,0.255698,0.230741,31.5804,0.05642052,
2,1,0,1,0,42538.7,0.0582291,0.057902,3.54516,22,0.00222323,10,0.000205272,-2.45036,0.272503,0.216512,30.0083,0.057902,
2,1,0,1,0,42538.8,0.0597299,0.0594386,3.59691,22,0.00231296,10,0.000213795,-2.44407,0.286055,0.206254,28.9127,0.0594386,
2,1,0,1,0,42538.8,0.0612228,0.0608921,3.64166,22,0.00240345,10,0.000221748,-2.4387,0.29706,0.198613,28.1604,0.0608921,
2,1,0,1,0,42538.8,0.0627223,0.0624206,3.68222,22,0.00249537,10,0.000229846,-2.43389,0.293922,0.200734,28.8503,0.0624206,
2,1,0,1,0,42538.8,0.0642218,0.0639223,3.71546,22,0.00258825,10,0.000237501,-2.42999,0.311148,0.189621,27.5736,0.0639223,
2,1,0,1,0,42538.9,0.0657214,0.0653611,3.7654,22,0.00268225,10,0.000246111,-2.42419,0.298986,0.197333,28.9848,0.0653611,
2,1,0,1,0,42538.9,0.0672156,0.06692,3.81473,22,0.002777,10,0.000255282,-2.41854,0.333226,0.177057,26.2714,0.06692,
2,1,0,1,0,42538.9,0.0687164,0.0684239,3.85167,22,0.00287318,10,0.000263547,-2.41435,0.320967,0.18382,27.594,0.0684239,
2,1,0,1,0,42538.9,0.0702172,0.0699371,3.88384,22,0.00297021,10,0.000271625,-2.41074,0.359612,0.164066,24.8918,0.0699371,
2,1,0,1,0,42539,0.0717114,0.0713295,3.92518,22,0.00306783,10,0.000279981,-2.40614,0.380663,0.154993,23.7182,0.0713295,
2,1,0,1,0,42539,0.073211,0.0729088,3.96668,22,0.00316682,10,0.000289206,-2.40157,0.367124,0.160709,24.8403,0.0729088,
2,1,0,1,0,42539,0.0747105,0.0743912,3.9992,22,0.00326675,10,0.000297505,-2.39803,0.356266,0.165607,25.8285,0.0743912,
2,1,0,1,0,42539,0.0762101,0.0759177,4.0201,22,0.00336752,10,0.000305196,-2.39576,0.411786,0.143278,22.5524,0.0759177,
2,1,0,1,0,42539.1,0.0777042,0.0773862,4.06872,22,0.00346871,10,0.000314862,-2.39054,0.449526,0.131249,20.8255,0.0773862,
2,1,0,1,0,42539.1,0.0792037,0.0788767,4.10324,22,0.00357118,10,0.00032365,-2.38687,0.40266,0.146526,23.4035,0.0788767,
2,1,0,1,0,42539.1,0.0807046,0.0803894,4.13189,22,0.00367449,10,0.00033216,-2.38385,0.442406,0.133362,21.4813,0.0803894,
2,1,0,1,0,42539.1,0.0821988,0.0818569,4.15703,22,0.00377815,10,0.000340281,-2.38122,0.532502,0.110798,17.9877,0.0818569,
2,1,0,1,0,42539.2,0.0836983,0.0834123,4.18967,22,0.00388292,10,0.00034947,-2.37782,0.538474,0.109569,17.9236,0.0834123,
2,1,0,1,0,42539.2,0.0851979,0.084938,4.22466,22,0.00398848,10,0.000358834,-2.37421,0.487779,0.120956,19.9169,0.084938,
2,1,0,1,0,42539.2,0.0866921,0.0864333,4.24665,22,0.00409435,10,0.000367052,-2.37195,0.509656,0.115764,19.2043,0.0864333,
2,1,0,1,0,42539.2,0.0881929,0.0878737,4.27681,22,0.00420136,10,0.000375819,-2.36888,0.542957,0.108664,18.1587,0.08787366,
2,1,0,1,0,42539.3,0.0896937,0.0893298,4.31027,22,0.00430902,10,0.000385036,-2.3655,0.54082,0.109094,18.3472,0.0893298,
2,1,0,1,0,42539.3,0.0911879,0.0908545,4.3451,22,0.00441705,10,0.000394772,-2.362,0.442303,0.133393,22.5673,0.09085454,
2,1,0,1,0,42539.3,0.0926861,0.0924055,4.37515,22,0.00452638,10,0.000404288,-2.35901,0.39747,0.148439,25.336,0.0924055,
2,1,0,1,0,42539.3,0.0941856,0.0938987,4.40357,22,0.00463654,10,0.000413489,-2.3562,0.425978,0.138505,23.853,0.0938987,
2,1,0,1,0,42539.4,0.0956852,0.0953669,4.44096,22,0.00474758,10,0.000423521,-2.35252,0.420678,0.14025,24.3502,0.0953669,
2,1,0,1,0,42539.4,0.0971794,0.0968733,4.48936,22,0.00485913,10,0.000434899,-2.34782,0.353471,0.166916,29.2351,0.0968733,
2,1,0,1,0,42539.4,0.0986802,0.0983734,4.53157,22,0.00497221,10,0.000445786,-2.34375,0.30838,0.191322,33.8699,0.0983734,
2,1,0,1,0,42539.4,0.100181,0.0998952,4.58303,22,0.00508652,10,0.000457822,-2.33885,0.316391,0.186478,33.3418,0.0998952,
2,1,0,1,0,42539.5,0.101675,0.101321,4.6275,22,0.00520163,10,0.000468862,-2.33465,0.310457,0.190042,34.3744,0.101321,
2,1,0,1,0,42539.5,0.103175,0.102851,4.69275,22,0.00531851,10,0.000482654,-2.32857,0.266856,0.221093,40.5082,0.102851,
2,1,0,1,0,42539.5,0.104674,0.104386,4.75634,22,0.00543694,10,0.000496494,-2.32273,0.239249,0.246605,45.7777,0.104386,
2,1,0,1,0,42539.5,0.106169,0.105859,4.8145,22,0.00555656,10,0.00050966,-2.31745,0.248061,0.237844,44.7673,0.105859,
2,1,0,1,0,42539.6,0.107668,0.107351,4.88948,22,0.00567832,10,0.000524889,-2.31074,0.252999,0.233203,44.52,0.107351,
2,1,0,1,0,42539.6,0.109169,0.10882,4.96526,22,0.00580179,10,0.000540322,-2.30406,0.235597,0.250427,48.4984,0.10882,
2,1,0,1,0,42539.6,0.110663,0.110344,5.03793,22,0.00592662,10,0.000555904,-2.29775,0.212875,0.277158,54.4922,0.1103437,
2,1,0,1,0,42539.6,0.112163,0.111829,5.11077,22,0.00605393,10,0.000571535,-2.29151,0.231308,0.255071,50.9005,0.111829,
2,1,0,1,0,42539.7,0.113662,0.113315,5.19144,22,0.00618322,10,0.000588267,-2.28471,0.243823,0.241979,49.0415,0.113315,
2,1,0,1,0,42539.7,0.115162,0.114836,5.26932,22,0.00631432,10,0.000605109,-2.27825,0.24352,0.24228,49.7898,0.114836,
2,1,0,1,0,42539.7,0.116656,0.116313,5.34148,22,0.00644679,10,0.000621282,-2.27234,0.2376,0.248317,51.7391,0.116313,
2,1,0,1,0,42539.7,0.118157,0.117845,5.41651,22,0.00658173,10,0.000638306,-2.26628,0.265164,0.222504,47.0242,0.117845,
2,1,0,1,0,42539.8,0.119657,0.119352,5.48786,22,0.00671845,10,0.000654989,-2.2606,0.304527,0.193743,41.4722,0.119352,
2,1,0,1,0,42539.8,0.121152,0.12081,5.55009,22,0.00685618,10,0.000670508,-2.2557,0.309632,0.190549,41.2267,0.12081,
2,1,0,1,0,42539.8,0.122651,0.122331,5.6091,22,0.00699604,10,0.000686164,-2.25111,0.289545,0.203768,44.565,0.122331,
2,1,0,1,0,42539.8,0.124151,0.12383,5.66286,22,0.00713738,10,0.000701233,-2.24696,0.349929,0.168605,37.2831,0.12383,
2,1,0,1,0,42539.9,0.125649,0.12531,5.71804,22,0.00728015,10,0.000716528,-2.24275,0.413481,0.142691,31.8133,0.12531,
2,1,0,1,0,42539.9,0.127143,0.126856,5.76581,22,0.00742358,10,0.000731428,-2.23914,0.449612,0.131224,29.5003,0.126856,
2,1,0,1,0,42539.9,0.128644,0.128329,5.81065,22,0.00756861,10,0.000745676,-2.23578,0.499759,0.118057,26.7472,0.128329,
2,1,0,1,0,42539.9,0.130145,0.129825,5.84506,22,0.00771471,10,0.000758835,-2.23321,0.515094,0.114542,26.1271,0.129825,
2,1,0,1,0,42539.9,0.131639,0.131315,5.88467,22,0.00786117,10,0.000772747,-2.23028,0.71078,0.0830074,19.0374,0.131315,
2,1,0,1,0,42540,0.133139,0.132804,5.92097,22,0.00800907,10,0.000786327,-2.22761,0.68115,0.0866182,19.9923,0.1328038,
2,1,0,1,0,42540,0.134638,0.134324,5.9407,22,0.00815765,10,0.000797978,-2.22616,0.807271,0.0730857,16.9463,0.134324,
2,1,0,1,0,42540,0.136132,0.135861,5.96285,22,0.00830633,10,0.000810122,-2.22455,0.824836,0.0715294,16.6621,0.135861,
2,1,0,1,0,42540,0.137633,0.137329,5.99125,22,0.00845624,10,0.00082277,-2.22248,1.1956,0.0493474,11.5277,0.137329,
2,1,0,1,0,42540.1,0.139133,0.138811,6.01244,22,0.00860667,10,0.000834595,-2.22095,1.85944,0.0317301,7.43155,0.138811,
2,1,0,1,0,42540.1,0.140627,0.140316,6.01874,22,0.00875674,10,0.000844524,-2.22049,2.74903,0.0214621,5.03332,0.1403157,
2,1,0,1,0,42540.1,0.142126,0.141801,6.01597,22,0.00890755,10,0.000853069,-2.22069,-6.39547,-0.00922528,-2.16308,0.141801,
2,1,0,1,0,42540.1,0.143626,0.143313,6.01121,22,0.00905834,10,0.000861484,-2.22104,-1.19823,-0.0492392,-11.521,0.143313,
2,1,0,1,0,42540.2,0.145125,0.144787,5.98266,22,0.00920863,10,0.000866213,-2.22311,-0.522415,-0.112937,-26.2984,0.144787,
2,1,0,1,0,42540.2,0.14662,0.146338,5.93677,22,0.00935747,10,0.000868773,-2.22645,-0.400822,-0.147197,-34.0071,0.1463376,
2,1,0,1,0,42540.2,0.14812,0.147802,5.87092,22,0.00950551,10,0.000867733,-2.23129,-0.267662,-0.220427,-50.4073,0.147802,
2,1,0,1,0,42540.2,0.149621,0.149301,5.79331,22,0.00965174,10,0.000864945,-2.23707,-0.209354,-0.28182,-63.4649,0.149301,
2,1,0,1,0,42540.3,0.151116,0.150802,5.6964,22,0.00979514,10,0.000859029,-2.2444,-0.169919,-0.347224,-76.6913,0.150802,
2,1,0,1,0,42540.3,0.152615,0.152284,5.55957,22,0.0099362,10,0.000846635,-2.25496,-0.140873,-0.418816,-90.608,0.152284,
2,1,0,1,0,42540.3,0.154115,0.153785,5.41185,22,0.0100738,10,0.000832264,-2.26665,-0.121947,-0.483817,-102.04,0.153785,
2,1,0,1,0,42540.3,0.155614,0.155328,5.25517,22,0.0102076,10,0.000816275,-2.27941,-0.110036,-0.536187,-109.794,0.155328,
2,1,0,1,0,42540.4,0.157107,0.156797,5.09095,22,0.0103368,10,0.000798246,-2.2932,-0.099212,-0.594686,-117.698,0.156797,
2,1,0,1,0,42540.4,0.158608,0.158325,4.90906,22,0.0104621,10,0.000777227,-2.309,-0.0947404,-0.622754,-119.105,0.158325,
2,1,0,1,0,42540.4,0.160109,0.159832,4.72367,22,0.0105828,10,0.000754994,-2.32572,-0.0905012,-0.651925,-120.221,0.159832,
2,1,0,1,0,42540.4,0.161603,0.161274,4.54331,22,0.0106986,10,0.000732718,-2.34263,-0.0881932,-0.668986,-118.674,0.161274,
2,1,0,1,0,42540.5,0.163102,0.162794,4.37938,22,0.0108105,10,0.000712937,-2.35859,-0.0897487,-0.657391,-112.218,0.162794,
2,1,0,1,0,42540.5,0.164602,0.164282,4.2112,22,0.0109181,10,0.000691822,-2.37559,-0.0919812,-0.641435,-105.538,0.164282,
2,1,0,1,0,42540.5,0.166096,0.165806,4.05034,22,0.0110213,10,0.000671572,-2.39251,-0.0941603,-0.626591,-99.4897,0.165806,
2,1,0,1,0,42540.5,0.167597,0.167281,3.91924,22,0.0111213,10,0.000655612,-2.4068,-0.101055,-0.583838,-89.3971,0.167281,
2,1,0,1,0,42540.6,0.169098,0.168785,3.79571,22,0.011218,10,0.000640658,-2.42071,-0.107968,-0.54646,-80.894,0.168785,
2,1,0,1,0,42540.6,0.170592,0.170266,3.67449,22,0.0113113,10,0.000625641,-2.4348,-0.112863,-0.522756,-75.046,0.170266,
2,1,0,1,0,42540.6,0.17209,0.17178,3.55611,22,0.0114021,10,0.000610869,-2.44902,-0.122118,-0.48314,-67.4408,0.17178,
2,1,0,1,0,42540.6,0.17359,0.173236,3.46562,22,0.0114903,10,0.000600372,-2.46022,-0.127763,-0.461792,-62.6004,0.173236,
2,1,0,1,0,42540.7,0.175089,0.174738,3.38112,22,0.0115763,10,0.000590809,-2.47094,-0.142847,-0.41303,-54.5317,0.174738,
2,1,0,1,0,42540.7,0.176583,0.176261,3.29897,22,0.0116598,10,0.000581481,-2.48162,-0.148416,-0.397532,-51.2461,0.176261,
2,1,0,1,0,42540.7,0.178084,0.177767,3.21684,22,0.0117418,10,0.000571848,-2.49257,-0.156102,-0.377958,-47.6961,0.177767,
2,1,0,1,0,42540.7,0.179585,0.179281,3.15871,22,0.0118219,10,0.000566297,-2.50049,-0.166996,-0.353301,-43.6937,0.1792808,
2,1,0,1,0,42540.8,0.181079,0.180787,3.10453,22,0.0119002,10,0.000561259,-2.508,-0.190782,-0.309253,-37.4443,0.180787,
2,1,0,1,0,42540.8,0.182579,0.182256,3.04822,22,0.0119775,10,0.000555558,-2.51595,-0.199014,-0.296461,-35.2827,0.182256,
2,1,0,1,0,42540.8,0.184078,0.183771,2.99445,22,0.0120534,10,0.000550292,-2.52368,-0.224639,-0.262644,-30.7869,0.183771,
2,1,0,1,0,42540.8,0.185578,0.185224,2.9509,22,0.0121282,10,0.000546577,-2.53005,-0.232417,-0.253854,-29.328,0.185224,
2,1,0,1,0,42540.9,0.187072,0.186741,2.91622,22,0.0122016,10,0.000544579,-2.53518,-0.25794,-0.228735,-26.0111,0.186741,
2,1,0,1,0,42540.9,0.188573,0.188264,2.87599,22,0.0122743,10,0.000541445,-2.54121,-0.292267,-0.20187,-22.6631,0.188264,
2,1,0,1,0,42540.9,0.190072,0.189756,2.84136,22,0.0123462,10,0.000539166,-2.54647,-0.289559,-0.203758,-22.6299,0.189756,
2,1,0,1,0,42540.9,0.191567,0.19126,2.8075,22,0.0124169,10,0.000536962,-2.55168,-0.293721,-0.200871,-22.0692,0.19126,
2,1,0,1,0,42541,0.193066,0.192756,2.78221,22,0.0124871,10,0.000536286,-2.55561,-0.37796,-0.156101,-16.9424,0.192756,
2,1,0,1,0,42541,0.194566,0.194269,2.75797,22,0.0125568,10,0.000535787,-2.55941,-0.462425,-0.127588,-13.7339,0.194269,
2,1,0,1,0,42541,0.19606,0.195722,2.72937,22,0.0126255,10,0.000534196,-2.56394,-0.367893,-0.160373,-17.1087,0.195722,
2,1,0,1,0,42541,0.197561,0.197236,2.70549,22,0.0126939,10,0.000533619,-2.56775,-0.35775,-0.164919,-17.4326,0.197236,
2,1,0,1,0,42541.1,0.199062,0.198751,2.69206,22,0.0127617,10,0.000535049,-2.56992,-0.420847,-0.140193,-14.7075,0.198751,
2,1,0,1,0,42541.1,0.200556,0.200241,2.66942,22,0.0128287,10,0.000534526,-2.57358,-0.620152,-0.0951379,-9.90141,0.200241,
2,1,0,1,0,42541.1,0.202055,0.201765,2.65318,22,0.0128956,10,0.00053532,-2.57623,-0.516758,-0.114173,-11.8253,0.201765,
2,1,0,1,0,42541.1,0.203554,0.203238,2.63039,22,0.012962,10,0.000534593,-2.57998,-0.493069,-0.119659,-12.3195,0.203238,
2,1,0,1,0,42541.2,0.205053,0.204723,2.62219,22,0.013028,10,0.000536824,-2.58134,-0.720295,-0.0819109,-8.38811,0.204723,
2,1,0,1,0,42541.2,0.206547,0.206241,2.60314,22,0.0130935,10,0.000536876,-2.5845,-0.90993,-0.0648402,-6.60104,0.206241,
2,1,0,1,0,42541.2,0.208048,0.207778,2.59033,22,0.0131589,10,0.000538215,-2.58664,-0.695038,-0.0848875,-8.59379,0.207778,
2,1,0,1,0,42541.2,0.209549,0.209251,2.58023,22,0.013224,10,0.000539916,-2.58834,-0.516919,-0.114138,-11.507,0.209251,
2,1,0,1,0,42541.3,0.211043,0.210745,2.57371,22,0.0132885,10,0.000542396,-2.58944,-0.659972,-0.0893978,-8.95401,0.210745,
2,1,0,1,0,42541.3,0.212543,0.212229,2.55843,22,0.0133529,10,0.000542974,-2.59203,-1.38147,-0.0427082,-4.26136,0.212229,
2,1,0,1,0,42541.3,0.214042,0.213707,2.54478,22,0.0134171,10,0.000543838,-2.59435,-1.03539,-0.0569835,-5.6719,0.213707,
2,1,0,1,0,42541.3,0.215536,0.215247,2.53349,22,0.0134808,10,0.000545326,-2.59628,-0.859433,-0.0686499,-6.7968,0.215247,
2,1,0,1,0,42541.4,0.217036,0.216724,2.52967,22,0.0135444,10,0.00054824,-2.59694,-1.16457,-0.0506623,-5.00022,0.216724,
2,1,0,1,0,42541.4,0.218537,0.218214,2.51775,22,0.0136078,10,0.000549407,-2.59899,-2.5713,-0.0229456,-2.25534,0.218214,
2,1,0,1,0,42541.4,0.220031,0.219726,2.50971,22,0.0136708,10,0.000551449,-2.60038,-1.65037,-0.0357496,-3.50312,0.219726,
2,1,0,1,0,42541.4,0.22153,0.221244,2.50511,22,0.013734,10,0.000554241,-2.60117,-0.85003,-0.0694093,-6.77811,0.221244,
2,1,0,1,0,42541.5,0.22303,0.222727,2.49546,22,0.0137968,10,0.000555805,-2.60285,-1.12405,-0.0524888,-5.10867,0.222727,
2,1,0,1,0,42541.5,0.224529,0.224205,2.48403,22,0.0138595,10,0.000556931,-2.60484,-1.63501,-0.0360853,-3.504,0.224205,
2,1,0,1,0,42541.5,0.226024,0.225714,2.48202,22,0.0139217,10,0.000560227,-2.60519,-1.09247,-0.0540062,-5.23601,0.225714,
2,1,0,1,0,42541.5,0.227525,0.227186,2.47719,22,0.0139841,10,0.000562784,-2.60604,-0.815755,-0.0723256,-6.98478,0.227186,
2,1,0,1,0,42541.6,0.229025,0.228728,2.47282,22,0.0140463,10,0.000565604,-2.60681,-1.0862,-0.0543179,-5.22597,0.228728,
2,1,0,1,0,42541.6,0.23052,0.230208,2.4597,22,0.014108,10,0.000566243,-2.60912,-2.4293,-0.0242868,-2.33368,0.230208,
2,1,0,1,0,42541.6,0.232019,0.231731,2.45513,22,0.0141699,10,0.00056893,-2.60992,-1.65649,-0.0356174,-3.41615,0.2317308,
2,1,0,1,0,42541.6,0.233519,0.233212,2.45171,22,0.0142316,10,0.000571768,-2.61053,-1.18971,-0.049592,-4.74473,0.233212,
2,1,0,1,0,42541.7,0.235018,0.234668,2.45364,22,0.0142932,10,0.000575789,-2.61019,-1.49782,-0.0393905,-3.7576,0.234668,
2,1,0,1,0,42541.7,0.236511,0.236187,2.44055,22,0.0143544,10,0.000576427,-2.61251,-4.62786,-0.0127489,-1.21405,0.236187,
2,1,0,1,0,42541.7,0.238012,0.237759,2.43124,22,0.0144157,10,0.000578049,-2.61417,-1.9215,-0.0307051,-2.91913,0.237759,
2,1,0,1,0,42541.7,0.239513,0.239235,2.43147,22,0.014477,10,0.000581694,-2.61413,-1.55209,-0.0380132,-3.60821,0.239235,
2,1,0,1,0,42541.8,0.241007,0.240688,2.43396,22,0.0145378,10,0.000585826,-2.61369,-1.06191,-0.0555605,-5.25635,0.240688,
2,1,0,1,0,42541.8,0.242506,0.242199,2.41739,22,0.0145988,10,0.000585489,-2.61665,-2.99496,-0.0196998,-1.86361,0.2421989,
2,1,0,1,0,42541.8,0.244006,0.243699,2.41325,22,0.0146597,10,0.000588108,-2.6174,-4.13369,-0.014273,-1.34785,0.243699,
2,1,0,1,0,42541.8,0.2455,0.245242,2.41646,22,0.0147202,10,0.000592618,-2.61682,-1.61363,-0.0365635,-3.44498,0.245242,
2,1,0,1,0,42541.9,0.247001,0.246673,2.41649,22,0.0147809,10,0.000596083,-2.61682,-1.88911,-0.0312316,-2.93244,0.246673,
2,1,0,1,0,42541.9,0.248502,0.248169,2.40271,22,0.0148415,10,0.000596279,-2.6193,-3.69846,-0.0159526,-1.49622,0.248169,
2,1,0,1,0,42541.9,0.249995,0.249717,2.39789,22,0.0149017,10,0.000598792,-2.62017,-2.00945,-0.0293612,-2.75235,0.249717,
2,1,0,1,0,42541.9,0.251494,0.251175,2.39735,22,0.014962,10,0.000602156,-2.62027,-1.25191,-0.0471279,-4.41246,0.251175,
2,1,0,1,0,42542,0.252994,0.252674,2.39617,22,0.0150223,10,0.00060545,-2.62048,-1.69355,-0.034838,-3.25047,0.252674,
2,1,0,1,0,42542,0.254493,0.254181,2.39324,22,0.0150825,10,0.000608315,-2.62101,-2.03452,-0.0289995,-2.70099,0.254181,
2,1,0,1,0,42542,0.255988,0.255722,2.38074,22,0.0151422,10,0.000608807,-2.62329,-1.62102,-0.0363968,-3.39038,0.255722,
2,1,0,1,0,42542,0.257488,0.257167,2.38054,22,0.0152022,10,0.000612198,-2.62332,-2.11199,-0.0279358,-2.59542,0.2571671,
2,1,0,1,0,42542.1,0.258989,0.258693,2.38423,22,0.0152621,10,0.000616785,-2.62265,-3.15968,-0.0186728,-1.73013,0.258693,
2,1,0,1,0,42542.1,0.260483,0.260222,2.37899,22,0.0153217,10,0.000619065,-2.62361,-2.50138,-0.023587,-2.18483,0.260222,
2,1,0,1,0,42542.1,0.261983,0.261669,2.36395,22,0.0153814,10,0.000618574,-2.62636,-1.81146,-0.0325704,-3.01425,0.261669,
2,1,0,1,0,42542.1,0.263482,0.263168,2.36601,22,0.015441,10,0.000622659,-2.62598,-1.85058,-0.0318819,-2.94757,0.263168,
2,1,0,1,0,42542.2,0.264982,0.264694,2.3676,22,0.0155005,10,0.00062669,-2.62569,-1.3772,-0.0428407,-3.95451,0.2646943,
2,1,0,1,0,42542.2,0.266476,0.266203,2.36296,22,0.0155597,10,0.000629026,-2.62654,-18.7964,-0.0031389,-0.28928,0.266203,
2,1,0,1,0,42542.2,0.267976,0.267642,2.34759,22,0.0156191,10,0.000628313,-2.62938,-2.74261,-0.0215124,-1.98037,0.267642,
2,1,0,1,0,42542.2,0.269477,0.269175,2.34861,22,0.0156783,10,0.000632187,-2.62919,-2.56172,-0.0230314,-2.11436,0.269175,
2,1,0,1,0,42542.3,0.270971,0.270705,2.3546,22,0.0157372,10,0.000637401,-2.62808,-1.85523,-0.0318021,-2.91011,0.270705,
2,1,0,1,0,42542.3,0.27247,0.272124,2.34951,22,0.0157963,10,0.000639358,-2.62902,-5.70069,-0.0103496,-0.945564,0.2721242,
2,1,0,1,0,42542.3,0.27397,0.27367,2.33699,22,0.0158553,10,0.000639565,-2.63134,-1.68022,-0.0351145,-3.21419,0.27367,
2,1,0,1,0,42542.3,0.275464,0.27516,2.33606,22,0.015914,10,0.000642788,-2.63152,-1.17889,-0.0500472,-4.57571,0.27516,
2,1,0,1,0,42542.4,0.276965,0.276649,2.34079,22,0.0159728,10,0.000647577,-2.63064,-1.81206,-0.0325596,-2.96741,0.276649,
2,1,0,1,0,42542.4,0.278466,0.278193,2.33322,22,0.0160315,10,0.000649087,-2.63204,-1.595,-0.0369905,-3.36434,0.278193,
2,1,0,1,0,42542.4,0.27996,0.279647,2.32587,22,0.0160899,10,0.000650421,-2.63341,-1.56366,-0.037732,-3.42795,0.279647,
2,1,0,1,0,42542.4,0.281458,0.281163,2.32191,22,0.0161484,10,0.000652836,-2.63415,-1.9826,-0.0297589,-2.70098,0.2811631,
2,1,0,1,0,42542.5,0.282958,0.282643,2.32012,22,0.0162068,10,0.000655765,-2.63449,-6.02041,-0.0098,-0.887481,0.282643,
2,1,0,1,0,42542.5,0.284457,0.284132,2.31492,22,0.0162651,10,0.000657744,-2.63546,-17.9804,-0.00328135,-0.296424,0.284132,
2,1,0,1,0,42542.5,0.285951,0.285654,2.3084,22,0.0163231,10,0.000659404,-2.63669,-3.07682,-0.0191756,-1.73003,0.285654,
2,1,0,1,0,42542.5,0.287452,0.287122,2.30731,22,0.0163812,10,0.00066248,-2.63689,-1.14528,-0.0515159,-4.64066,0.2871224,
2,1,0,1,0,42542.6,0.288953,0.288692,2.30737,22,0.0164392,10,0.00066612,-2.63688,-4.07434,-0.0144809,-1.30012,0.2886923,
2,1,0,1,0,42542.6,0.290447,0.290182,2.30347,22,0.016497,10,0.000668424,-2.63762,-4.09181,-0.0144191,-1.29344,0.290182,
2,1,0,1,0,42542.6,0.291947,0.291611,2.29338,22,0.0165548,10,0.000668775,-2.63952,-1.85894,-0.0317386,-2.84531,0.291611,
2,1,0,1,0,42542.6,0.293446,0.293145,2.28882,22,0.0166125,10,0.000670958,-2.64039,-1.17251,-0.0503196,-4.50334,0.293145,
2,1,0,1,0,42542.7,0.29494,0.294615,2.29114,22,0.0166699,10,0.000675003,-2.63995,-1.76387,-0.0334492,-2.98557,0.294615,
2,1,0,1,0,42542.7,0.29644,0.296141,2.28815,22,0.0167274,10,0.000677615,-2.64052,6.0074,0.00982121,0.87644,0.296141,
2,1,0,1,0,42542.7,0.297941,0.297666,2.2814,22,0.0167849,10,0.000679096,-2.6418,-2.29789,-0.0256757,-2.28435,0.297666,
2,1,0,1,0,42542.7,0.29944,0.299125,2.27435,22,0.0168423,10,0.000680314,-2.64314,-0.00813663,-7.25116,-506.508,0.299125,
2,1,0,1,0,42542.8,0.299736,0.299462,1.86943,22,0.0168719,10,0.000559822,-2.72829,0.00189048,31.209,1438.53,0.299462,
2,1,0,1,0,42542.8,0.298238,0.297947,0.732252,22,0.016902,10,0.000218172,-3.13534,0.00213281,27.6631,605.095,0.297947,
2,1,0,1,0,42542.8,0.296744,0.296438,0.174263,22,0.0169122,10,5.16581e-05,-3.7588,0.00644032,9.16103,316.022,0.296438,
2,0,0,1,0,42542.8,0.295243,0.294919,-0.156218,22,0.0169115,10,-4.60718e-05,-3.80627,-0.0348298,-1.69395,187.12,0.294919,
2,0,0,1,0,42542.9,0.293742,0.293406,-0.378876,22,0.0169043,10,-0.000111165,-3.4215,-0.00426523,-13.8328,124.315,0.293406,
2,0,0,1,0,42542.9,0.292248,0.29192,-0.525531,22,0.0168926,10,-0.000153413,-3.2794,-0.0120223,-4.90755,88.7615,0.29192,
2,0,0,1,0,42542.9,0.290748,0.290444,-0.629956,22,0.0168777,10,-0.000182967,-3.20069,-0.0197437,-2.9883,70.2495,0.290444,
2,0,0,1,0,42542.9,0.289249,0.288904,-0.721932,22,0.0168602,10,-0.000208569,-3.1415,-0.0306366,-1.9258,53.0885,0.288904,
2,0,0,1,0,42543,0.287754,0.287448,-0.797284,22,0.0168409,10,-0.000229178,-3.09839,-0.041164,-1.43329,43.5744,0.287448,
2,0,0,1,0,42543,0.286254,0.28593,-0.857891,22,0.0168198,10,-0.000245297,-3.06657,-0.0530017,-1.11317,36.6418,0.28593,
2,0,0,1,0,42543,0.284754,0.284456,-0.904104,22,0.0167974,10,-0.000257178,-3.04378,-0.0578508,-1.01986,35.7937,0.284456,
2,0,0,1,0,42543,0.28326,0.282942,-0.954732,22,0.0167738,10,-0.000270134,-3.02012,-0.0749656,-0.787028,29.0689,0.282942,
2,0,0,1,0,42543.1,0.28176,0.281444,-0.996504,22,0.016749,10,-0.000280461,-3.00152,-0.0924049,-0.638494,24.5113,0.281444,
2,0,0,1,0,42543.1,0.280261,0.279961,-1.02667,22,0.0167233,10,-0.000287428,-2.98857,-0.0986148,-0.598288,23.965,0.279961,
2,0,0,1,0,42543.1,0.278761,0.278483,-1.06068,22,0.0166967,10,-0.000295381,-2.97442,-0.101853,-0.579266,24.0323,0.278483,
2,0,0,1,0,42543.1,0.277267,0.276939,-1.0927,22,0.0166694,10,-0.000302611,-2.9615,-0.132457,-0.445428,19.0312,0.276939,
2,0,0,1,0,42543.2,0.275766,0.275449,-1.1289,22,0.0166412,10,-0.000310955,-2.94734,-0.164277,-0.359148,15.7321,0.275449,
2,0,0,1,0,42543.2,0.274265,0.273923,-1.1597,22,0.0166122,10,-0.000317668,-2.93566,-0.153035,-0.385533,17.3228,0.273923,
2,0,0,1,0,42543.2,0.272771,0.272485,-1.1745,22,0.0165828,10,-0.000320033,-2.93015,-0.144057,-0.409559,18.8913,0.272485,
2,0,0,1,0,42543.2,0.271272,0.270954,-1.20256,22,0.0165526,10,-0.000325838,-2.91989,-0.171299,-0.344428,16.1926,0.270954,
2,0,0,1,0,42543.3,0.269772,0.26941,-1.23506,22,0.0165217,10,-0.000332738,-2.90831,-0.176627,-0.334038,16.0073,0.26941,
2,0,0,1,0,42543.3,0.268273,0.267957,-1.25497,22,0.0164903,10,-0.000336276,-2.90137,-0.195497,-0.301795,14.7236,0.2679567,
2,0,0,1,0,42543.3,0.26678,0.266459,-1.26745,22,0.0164584,10,-0.000337724,-2.89707,-0.194764,-0.302931,15.0319,0.266459,
2,0,0,1,0,42543.3,0.265279,0.264954,-1.28944,22,0.0164259,10,-0.000341643,-2.8896,-0.204615,-0.288347,14.5428,0.264954,
2,0,0,1,0,42543.4,0.263778,0.263455,-1.3154,22,0.0163929,10,-0.000346548,-2.88094,-0.244211,-0.241594,12.3677,0.263455,
2,0,0,1,0,42543.4,0.262284,0.261952,-1.33549,22,0.0163595,10,-0.000349835,-2.87436,-0.238455,-0.247426,12.827,0.261952,
2,0,0,1,0,42543.4,0.260784,0.260445,-1.34647,22,0.0163255,10,-0.00035068,-2.8708,-0.245568,-0.240259,12.6652,0.260445,
2,0,0,1,0,42543.4,0.259285,0.258947,-1.36494,22,0.0162911,10,-0.000353446,-2.86489,-0.286431,-0.205984,11.0526,0.258947,
2,0,0,1,0,42543.5,0.257791,0.257489,-1.39154,22,0.0162564,10,-0.000358308,-2.8565,-0.317158,-0.186027,10.0565,0.257489,
2,0,0,1,0,42543.5,0.25629,0.255965,-1.41077,22,0.016221,10,-0.000361108,-2.85054,-0.278156,-0.212111,11.5878,0.255965,
2,0,0,1,0,42543.5,0.254789,0.254466,-1.41739,22,0.0161853,10,-0.000360677,-2.84851,-0.293558,-0.200982,11.1404,0.254466,
2,0,0,1,0,42543.5,0.253296,0.253015,-1.43447,22,0.0161493,10,-0.000362941,-2.84331,-0.350537,-0.168313,9.44452,0.253015,
2,0,0,1,0,42543.6,0.251797,0.251466,-1.45332,22,0.0161128,10,-0.00036546,-2.83764,-0.328599,-0.17955,10.1878,0.251466,
2,0,0,1,0,42543.6,0.250297,0.249962,-1.47174,22,0.0160758,10,-0.000367878,-2.83217,-0.323935,-0.182135,10.4114,0.249962,
2,0,0,1,0,42543.6,0.248797,0.24847,-1.48364,22,0.0160385,10,-0.000368639,-2.82867,-0.297455,-0.19835,11.4947,0.24847,
2,0,0,1,0,42543.6,0.247303,0.246972,-1.49193,22,0.016001,10,-0.000368465,-2.82625,-0.35333,-0.166983,9.78914,0.246972,
2,0,0,1,0,42543.7,0.245802,0.245445,-1.51515,22,0.015963,10,-0.000371885,-2.81955,-0.391064,-0.150871,8.89729,0.245445,
2,0,0,1,0,42543.7,0.244302,0.243976,-1.53605,22,0.0159245,10,-0.000374759,-2.81359,-0.366996,-0.160765,9.56307,0.243976,
2,0,0,1,0,42543.7,0.242807,0.24251,-1.53829,22,0.0158858,10,-0.000373051,-2.81296,-0.368131,-0.160269,9.64469,0.24251,
2,0,0,1,0,42543.7,0.241308,0.240982,-1.55429,22,0.0158467,10,-0.000374557,-2.80847,-0.42293,-0.139503,8.48835,0.240982,
2,0,0,1,0,42543.8,0.239808,0.239476,-1.56832,22,0.0158073,10,-0.000375575,-2.80456,-0.350212,-0.168469,10.3099,0.239476,
2,0,0,1,0,42543.8,0.238309,0.238008,-1.58549,22,0.0157675,10,-0.000377359,-2.79984,-0.400357,-0.147369,9.0874,0.238008,
2,0,0,1,0,42543.8,0.236815,0.236503,-1.59291,22,0.0157275,10,-0.000376729,-2.79781,-0.384367,-0.153499,9.55388,0.236503,
2,0,0,1,0,42543.8,0.235315,0.235043,-1.6009,22,0.015687,10,-0.00037628,-2.79564,-0.49946,-0.118128,7.41728,0.2350429,
2,0,0,1,0,42543.9,0.233814,0.233533,-1.62024,22,0.0156463,10,-0.00037838,-2.79042,-0.470469,-0.125407,7.93867,0.233533,
2,0,0,1,0,42543.9,0.23232,0.231996,-1.63825,22,0.0156053,10,-0.000380066,-2.78562,-0.390563,-0.151064,9.60793,0.2319957,
2,0,0,1,0,42543.9,0.230821,0.230509,-1.64268,22,0.0155639,10,-0.000378653,-2.78445,-0.446886,-0.132025,8.48038,0.230509,
2,0,0,1,0,42543.9,0.229321,0.228992,-1.65107,22,0.0155221,10,-0.000378082,-2.78223,-0.489942,-0.120422,7.81201,0.228992,
2,0,0,1,0,42544,0.227827,0.227546,-1.66933,22,0.0154803,10,-0.000379848,-2.77746,-0.592194,-0.0996296,6.50313,0.227546,
2,0,0,1,0,42544,0.226326,0.226039,-1.68391,22,0.0154379,10,-0.000380629,-2.77368,-0.377584,-0.156257,10.2649,0.226039,
2,0,0,1,0,42544,0.224825,0.224512,-1.69779,22,0.0153952,10,-0.000381174,-2.77012,-0.423921,-0.139177,9.21754,0.224512,
2,0,0,1,0,42544,0.223331,0.222993,-1.70894,22,0.0153523,10,-0.000381081,-2.76727,-0.511031,-0.115453,7.70369,0.222993,
2,0,0,1,0,42544.1,0.221831,0.221552,-1.72016,22,0.015309,10,-0.000381104,-2.76443,-0.510876,-0.115488,7.74685,0.221552,
2,0,0,1,0,42544.1,0.220333,0.220002,-1.73865,22,0.0152654,10,-0.000382507,-2.75979,-0.347575,-0.169748,11.482,0.220002,
2,0,0,1,0,42544.1,0.218834,0.218525,-1.74816,22,0.0152214,10,-0.000382015,-2.75742,-0.377535,-0.156277,10.667,0.218525,
2,0,0,1,0,42544.1,0.21734,0.217017,-1.75312,22,0.0151773,10,-0.000380456,-2.75619,-0.642716,-0.0917979,6.31035,0.217017,
2,0,0,1,0,42544.2,0.215839,0.215495,-1.76668,22,0.0151328,10,-0.00038071,-2.75284,-0.668328,-0.08828,6.09822,0.215495,
2,0,0,1,0,42544.2,0.214338,0.214026,-1.78515,22,0.015088,10,-0.00038207,-2.74832,-0.462915,-0.127453,8.85866,0.214026,
2,0,0,1,0,42544.2,0.212844,0.212509,-1.79532,22,0.015043,10,-0.000381522,-2.74586,-0.44174,-0.133563,9.35493,0.212509,
2,0,0,1,0,42544.2,0.211344,0.21101,-1.80796,22,0.0149975,10,-0.000381498,-2.74281,-0.636801,-0.0926507,6.5433,0.21101,
2,0,0,1,0,42544.3,0.209845,0.209553,-1.81795,22,0.0149517,10,-0.000380958,-2.74042,-0.671065,-0.0879199,6.24578,0.209553,
2,0,0,1,0,42544.3,0.20835,0.208044,-1.83552,22,0.0149058,10,-0.000381869,-2.73624,-0.391203,-0.150817,10.7955,0.208044,
2,0,0,1,0,42544.3,0.206851,0.206526,-1.84517,22,0.0148595,10,-0.000381076,-2.73396,-0.386712,-0.152568,10.9816,0.206526,
2,0,0,1,0,42544.3,0.20535,0.20503,-1.85592,22,0.0148127,10,-0.00038052,-2.73144,-0.643255,-0.091721,6.64365,0.2050301,
2,0,0,1,0,42544.4,0.203856,0.20352,-1.87113,22,0.0147658,10,-0.000380811,-2.7279,-0.747438,-0.0789363,5.76571,0.20352,
2,0,0,1,0,42544.4,0.202356,0.202031,-1.88261,22,0.0147186,10,-0.000380345,-2.72524,-0.516179,-0.114301,8.39523,0.202031,
2,0,0,1,0,42544.4,0.200857,0.200525,-1.89073,22,0.0146709,10,-0.000379137,-2.72337,-0.385685,-0.152974,11.3009,0.200525,
2,0,0,1,0,42544.4,0.199357,0.199039,-1.90258,22,0.014623,10,-0.000378687,-2.72066,-0.593906,-0.0993424,7.40199,0.199039,
2,0,0,1,0,42544.5,0.197863,0.197539,-1.91914,22,0.0145749,10,-0.000379106,-2.71689,-0.676368,-0.0872306,6.53848,0.197539,
2,0,0,1,0,42544.5,0.196362,0.196013,-1.93651,22,0.0145264,10,-0.000379583,-2.71298,-0.520754,-0.113297,8.53687,0.196013,
2,0,0,1,0,42544.5,0.194861,0.194541,-1.94508,22,0.0144775,10,-0.000378397,-2.71106,-0.410262,-0.143811,10.9197,0.194541,
2,0,0,1,0,42544.5,0.193367,0.193063,-1.9609,22,0.0144285,10,-0.000378577,-2.70754,-0.512837,-0.115046,8.80763,0.193063,
2,0,0,1,0,42544.6,0.191868,0.191543,-1.9759,22,0.0143788,10,-0.00037847,-2.70424,-0.595003,-0.0991592,7.6387,0.191543,
2,0,0,1,0,42544.6,0.190368,0.190067,-1.98911,22,0.0143289,10,-0.000378064,-2.70134,-0.483153,-0.122114,9.47641,0.1900668,
2,0,0,1,0,42544.6,0.18887,0.188552,-1.99924,22,0.0142786,10,-0.00037696,-2.69914,-0.38256,-0.154224,12.0614,0.188552,
2,0,0,1,0,42544.6,0.187376,0.187042,-2.01388,22,0.0142282,10,-0.000376679,-2.69597,-0.449351,-0.1313,10.341,0.187042,
2,0,0,1,0,42544.7,0.185875,0.185575,-2.03061,22,0.0141772,10,-0.000376831,-2.69237,-0.590364,-0.0999383,7.90994,0.185575,
2,0,0,1,0,42544.7,0.184374,0.184022,-2.04848,22,0.0141257,10,-0.000376966,-2.68857,-0.509432,-0.115815,9.23343,0.184022,
2,0,0,1,0,42544.7,0.18288,0.182568,-2.06005,22,0.0140742,10,-0.0003761,-2.68612,-0.412053,-0.143185,11.5208,0.1825683,
2,0,0,1,0,42544.7,0.18138,0.181058,-2.07359,22,0.0140221,10,-0.00037544,-2.68328,-0.388309,-0.151941,12.3396,0.181058,
2,0,0,1,0,42544.8,0.179881,0.179535,-2.0979,22,0.0139695,10,-0.000376648,-2.67822,-0.576528,-0.102337,8.37262,0.179535,
2,0,0,1,0,42544.8,0.178387,0.178048,-2.11593,22,0.0139166,10,-0.000376737,-2.6745,-0.512478,-0.115127,9.47975,0.178048,
2,0,0,1,0,42544.8,0.176886,0.176564,-2.13113,22,0.0138632,10,-0.000376282,-2.67139,-0.368535,-0.160093,13.3205,0.176564,
2,0,0,1,0,42544.8,0.175385,0.175032,-2.14927,22,0.0138093,10,-0.000376191,-2.66771,-0.337803,-0.174658,14.6512,0.175032,
2,0,0,1,0,42544.9,0.173892,0.173569,-2.16875,22,0.0137551,10,-0.000376428,-2.66379,-0.389072,-0.151643,12.8254,0.173569,
2,0,0,1,0,42544.9,0.172393,0.17208,-2.19593,22,0.0137001,10,-0.000377875,-2.65838,-0.338284,-0.174409,14.9107,0.17208,
2,0,0,1,0,42544.9,0.170893,0.17061,-2.21048,22,0.0136447,10,-0.00037713,-2.65551,-0.312457,-0.188826,16.3023,0.17061,
2,0,0,1,0,42544.9,0.169393,0.169052,-2.2294,22,0.0135887,10,-0.000376885,-2.65181,-0.303702,-0.194269,16.9423,0.169052,
2,0,0,1,0,42545,0.167899,0.167589,-2.25888,22,0.0135323,10,-0.000378564,-2.64611,-0.321296,-0.183631,16.1808,0.167589,
2,0,0,1,0,42545,0.166398,0.166025,-2.28647,22,0.0134751,10,-0.000379612,-2.64083,-0.304821,-0.193556,17.251,0.166025,
2,0,0,1,0,42545,0.164898,0.164537,-2.30865,22,0.0134172,10,-0.000379859,-2.63664,-0.27047,-0.218139,19.6901,0.164537,
2,0,0,1,0,42545,0.163403,0.16309,-2.34006,22,0.0133589,10,-0.000381641,-2.63077,-0.270956,-0.217748,19.8937,0.16309,
2,0,0,1,0,42545.1,0.161904,0.161574,-2.37035,22,0.0132996,10,-0.000382988,-2.62519,-0.282506,-0.208845,19.3249,0.161574,
2,0,0,1,0,42545.1,0.160404,0.160093,-2.40775,22,0.0132394,10,-0.000385465,-2.61839,-0.263238,-0.224131,21.0238,0.1600935,
2,0,0,1,0,42545.1,0.158905,0.15857,-2.43414,22,0.0131785,10,-0.000385982,-2.61365,-0.209444,-0.281698,26.8443,0.15857,
2,0,0,1,0,42545.1,0.157411,0.157103,-2.46963,22,0.013117,10,-0.000387986,-2.60737,-0.205795,-0.286693,27.799,0.157103,
2,0,0,1,0,42545.2,0.155911,0.155563,-2.51867,22,0.0130541,10,-0.000391811,-2.59883,-0.203051,-0.290567,28.5867,0.155563,
2,0,0,1,0,42545.2,0.15441,0.15407,-2.57046,22,0.0129901,10,-0.000396031,-2.58999,-0.186491,-0.316369,31.6707,0.15407,
2,0,0,1,0,42545.2,0.152916,0.15259,-2.61698,22,0.0129251,10,-0.000399327,-2.5822,-0.165527,-0.356437,36.405,0.15259,
2,0,0,1,0,42545.2,0.151417,0.151079,-2.66567,22,0.0128587,10,-0.000402726,-2.57419,-0.163652,-0.360521,37.6925,0.151079,
2,0,0,1,0,42545.3,0.149917,0.149598,-2.7278,22,0.0127908,10,-0.000408074,-2.56419,-0.146781,-0.401959,42.8929,0.149598,
2,0,0,1,0,42545.3,0.148423,0.14813,-2.80182,22,0.0127215,10,-0.000415035,-2.55256,-0.136571,-0.432011,47.2474,0.14813,
2,0,0,1,0,42545.3,0.146922,0.146551,-2.87071,22,0.0126502,10,-0.000420704,-2.54201,-0.123739,-0.47681,53.5265,0.146551,
2,0,0,1,0,42545.3,0.145421,0.145072,-2.94729,22,0.012577,10,-0.000427571,-2.53058,-0.121765,-0.484539,56.0071,0.145072,
2,0,0,1,0,42545.4,0.143927,0.143599,-3.04149,22,0.012502,10,-0.000436754,-2.51691,-0.111344,-0.529889,62.9777,0.143599,
2,0,0,1,0,42545.4,0.142429,0.142115,-3.14813,22,0.0124242,10,-0.000447397,-2.50195,-0.105604,-0.558691,68.5467,0.142115,
2,0,0,1,0,42545.4,0.140929,0.1406,-3.24304,22,0.0123439,10,-0.000455972,-2.48905,-0.0991303,-0.595176,75.5305,0.1406002,
2,0,0,1,0,42545.4,0.13943,0.139122,-3.35572,22,0.0122608,10,-0.000466853,-2.47421,-0.0963952,-0.612064,80.4661,0.139122,
2,0,0,1,0,42545.5,0.137935,0.137599,-3.48397,22,0.0121751,10,-0.000479391,-2.45792,-0.0961594,-0.613565,83.6762,0.137599,
2,0,0,1,0,42545.5,0.136435,0.136124,-3.62412,22,0.0120858,10,-0.000493329,-2.4408,-0.092586,-0.637245,90.0653,0.136124,
2,0,0,1,0,42545.5,0.134934,0.134624,-3.76096,22,0.0119931,10,-0.000506315,-2.4247,-0.0934782,-0.631163,92.4238,0.134624,
2,0,0,1,0,42545.5,0.13344,0.133115,-3.89338,22,0.0118974,10,-0.000518268,-2.40967,-0.0966961,-0.610159,92.7914,0.133115,
2,0,0,1,0,42545.6,0.13194,0.131646,-4.03819,22,0.0117977,10,-0.000531611,-2.39381,-0.100642,-0.586239,92.5015,0.131646,
2,0,0,1,0,42545.6,0.13044,0.130065,-4.18992,22,0.0116945,10,-0.000544962,-2.37779,-0.0989651,-0.59617,97.2663,0.130065,
2,0,0,1,0,42545.6,0.128941,0.128621,-4.33672,22,0.0115875,10,-0.000557791,-2.36284,-0.101634,-0.580516,97.9234,0.128621,
2,0,0,1,0,42545.6,0.127447,0.127117,-4.46822,22,0.0114774,10,-0.000567988,-2.34987,-0.109471,-0.538954,93.995,0.127117,
2,0,0,1,0,42545.7,0.125946,0.125629,-4.61146,22,0.0113635,10,-0.000579331,-2.33616,-0.118297,-0.498746,89.6485,0.125629,
2,0,0,1,0,42545.7,0.124446,0.124132,-4.75238,22,0.0112461,10,-0.000589922,-2.32309,-0.123734,-0.476831,88.1449,0.124132,
2,0,0,1,0,42545.7,0.122952,0.122606,-4.8825,22,0.0111257,10,-0.000598622,-2.31136,-0.126935,-0.464806,88.3322,0.1226055,
2,0,0,1,0,42545.7,0.121453,0.12115,-4.99923,22,0.0110017,10,-0.000605659,-2.3011,-0.142116,-0.415153,80.9445,0.12115,
2,0,0,1,0,42545.8,0.119953,0.119641,-5.1173,22,0.0108747,10,-0.000612236,-2.29096,-0.152553,-0.38675,77.2742,0.119641,
2,0,0,1,0,42545.8,0.118459,0.118162,-5.23843,22,0.0107453,10,-0.000618984,-2.2808,-0.159409,-0.370117,75.5937,0.118162,
2,0,0,1,0,42545.8,0.116958,0.116589,-5.35014,22,0.0106125,10,-0.000623767,-2.27163,-0.168371,-0.350416,73.0315,0.116589,
2,0,0,1,0,42545.8,0.115457,0.115139,-5.44973,22,0.010477,10,-0.000627474,-2.26363,-0.195016,-0.302539,64.2525,0.115139,
2,0,0,1,0,42545.9,0.113963,0.113657,-5.54116,22,0.0103396,10,-0.000629794,-2.2564,-0.225063,-0.262149,56.6603,0.113657,
2,0,0,1,0,42545.9,0.112464,0.112142,-5.6373,22,0.0101994,10,-0.000632177,-2.24893,-0.23349,-0.252687,55.4605,0.112142,
2,0,0,1,0,42545.9,0.110965,0.110635,-5.71416,22,0.0100572,10,-0.000632184,-2.24305,-0.245362,-0.240461,53.5305,0.110635,
2,0,0,1,0,42545.9,0.109466,0.109131,-5.78322,22,0.00991294,10,-0.000631126,-2.23783,-0.303746,-0.194241,43.792,0.109131,
2,0,0,1,0,42546,0.107972,0.107638,-5.84531,22,0.00976761,10,-0.000629175,-2.23319,-0.369626,-0.159621,36.3953,0.107638,
2,0,0,1,0,42546,0.106471,0.106138,-5.90673,22,0.00962033,10,-0.000626927,-2.22865,-0.440009,-0.134088,30.8407,0.106138,
2,0,0,1,0,42546,0.10497,0.104628,-5.95004,22,0.00947176,10,-0.000622543,-2.22548,-0.460373,-0.128157,29.7004,0.104628,
2,0,0,1,0,42546,0.103476,0.103138,-5.98085,22,0.00932275,10,-0.000616855,-2.22324,-0.634124,-0.0930417,21.6995,0.1031385,
2,0,0,1,0,42546.1,0.101976,0.101634,-6.0154,22,0.00917229,10,-0.000611372,-2.22074,-1.35246,-0.0436243,10.22,0.101634,
2,0,0,1,0,42546.1,0.100477,0.100163,-6.02637,22,0.0090214,10,-0.000603617,-2.21994,-2.01142,-0.0293325,6.89016,0.100163,
2,0,0,1,0,42546.1,0.0989825,0.0986673,-6.03563,22,0.00887086,10,-0.00059552,-2.21928,-2.8849,-0.0204513,4.80917,0.0986673,
2,0,0,1,0,42546.1,0.0974817,0.097129,-6.03012,22,0.00871958,10,-0.000585699,-2.21967,10.8389,0.00544338,-1.28018,0.097129,
2,0,0,1,0,42546.2,0.0959822,0.0956578,-6.02315,22,0.00856843,10,-0.000576161,-2.22018,1.24986,0.0472052,-11.0825,0.0956578,
2,0,0,1,0,42546.2,0.094488,0.0941928,-6.00487,22,0.00841823,10,-0.000565615,-2.2215,0.943925,0.062505,-14.6317,0.0941928,
2,0,0,1,0,42546.2,0.0929884,0.0926678,-5.98178,22,0.00826798,10,-0.000554318,-2.22317,1.02237,0.0577093,-13.4563,0.0926678,
2,0,0,1,0,42546.2,0.0914889,0.0911486,-5.9503,22,0.00811834,10,-0.000542361,-2.22546,0.679794,0.086791,-20.164,0.0911486,
2,0,0,1,0,42546.3,0.0899894,0.0896546,-5.91582,22,0.00796943,10,-0.000530381,-2.22799,0.531548,0.110996,-25.6257,0.08965461,
2,0,0,1,0,42546.3,0.0884951,0.0881622,-5.8839,22,0.00782204,10,-0.000518738,-2.23033,0.483027,0.122146,-28.0287,0.0881622,
2,0,0,1,0,42546.3,0.0869943,0.0866521,-5.84431,22,0.00767511,10,-0.000506421,-2.23327,0.535621,0.110152,-25.117,0.0866521,
2,0,0,1,0,42546.3,0.0854935,0.0851751,-5.79996,22,0.00752916,10,-0.000494012,-2.23658,0.517992,0.113901,-25.7921,0.0851751,
2,0,0,1,0,42546.4,0.0839993,0.0836736,-5.76343,22,0.00738472,10,-0.000482247,-2.23932,0.47768,0.123514,-27.7614,0.0836736,
2,0,0,1,0,42546.4,0.0824998,0.0821837,-5.73086,22,0.0072407,10,-0.000470983,-2.24178,0.470458,0.12541,-28.0111,0.0821837,
2,0,0,1,0,42546.4,0.0810002,0.0806364,-5.68494,22,0.00709772,10,-0.000458413,-2.24527,0.563405,0.10472,-23.2343,0.0806364,
2,0,0,1,0,42546.4,0.0795007,0.0791584,-5.64507,22,0.00695567,10,-0.000446855,-2.24833,0.621917,0.0948679,-20.9283,0.0791584,
2,0,0,1,0,42546.5,0.0780078,0.0776607,-5.61275,22,0.00681501,10,-0.00043589,-2.25082,0.553273,0.106638,-23.3783,0.07766068,
2,0,0,1,0,42546.5,0.076507,0.0761641,-5.58455,22,0.00667459,10,-0.000425342,-2.25301,0.568086,0.103857,-22.6128,0.0761641,
2,0,0,1,0,42546.5,0.0750062,0.07473,-5.55257,22,0.00653501,10,-0.000414944,-2.25551,0.646048,0.0913244,-19.787,0.07473,
2,0,0,1,0,42546.5,0.073512,0.0732191,-5.51914,22,0.00639676,10,-0.000404107,-2.25813,0.743973,0.0793039,-17.0893,0.0732191,
2,0,0,1,0,42546.6,0.0720124,0.071696,-5.48896,22,0.00625863,10,-0.000393537,-2.26051,0.702482,0.0839879,-18.0197,0.071696,
2,0,0,1,0,42546.6,0.0705129,0.0701546,-5.47459,22,0.00612115,10,-0.000384068,-2.26165,0.658171,0.0896423,-19.1323,0.0701546,
2,0,0,1,0,42546.6,0.0690187,0.0686592,-5.44143,22,0.00598488,10,-0.000373605,-2.26429,0.767554,0.0768676,-16.3328,0.0686592,
2,0,0,1,0,42546.6,0.0675179,0.067192,-5.41418,22,0.00584874,10,-0.00036379,-2.26647,0.794087,0.0742992,-15.7123,0.06719204,
2,0,0,1,0,42546.7,0.066017,0.0657163,-5.3987,22,0.00571313,10,-0.000354783,-2.26771,0.771655,0.076459,-16.0892,0.0657163,
2,0,0,1,0,42546.7,0.0645242,0.064212,-5.37584,22,0.00557861,10,-0.000345194,-2.26955,0.700921,0.0841749,-17.6301,0.064212,
2,0,0,1,0,42546.7,0.0630246,0.0627322,-5.34612,22,0.00544417,10,-0.000335374,-2.27196,0.754481,0.0781995,-16.3146,0.0627322,
2,0,0,1,0,42546.7,0.0615251,0.0611869,-5.3149,22,0.00531042,10,-0.000325202,-2.27451,0.726575,0.0812029,-16.8725,0.0611869,
2,0,0,1,0,42546.8,0.0600256,0.0597009,-5.2914,22,0.00517732,10,-0.000315901,-2.27643,0.674887,0.087422,-18.0839,0.0597009,
2,0,0,1,0,42546.8,0.0585314,0.0581758,-5.27523,22,0.00504534,10,-0.00030689,-2.27776,0.67071,0.0879664,-18.0875,0.0581758,
2,0,0,1,0,42546.8,0.0570305,0.0566847,-5.24993,22,0.0049134,10,-0.000297591,-2.27985,0.73538,0.0802307,-16.428,0.0566847,
2,0,0,1,0,42546.8,0.0555297,0.0552326,-5.21711,22,0.00478222,10,-0.000288155,-2.28257,0.672999,0.0876673,-17.8686,0.0552326,
2,0,0,1,0,42546.9,0.0540355,0.0537052,-5.18848,22,0.00465222,10,-0.000278649,-2.28496,0.692083,0.0852499,-17.2603,0.0537052,
2,0,0,1,0,42546.9,0.052536,0.0522184,-5.17286,22,0.00452228,10,-0.000270119,-2.28627,0.654019,0.0902114,-18.1817,0.0522184,
2,0,0,1,0,42546.9,0.0510364,0.0507072,-5.14237,22,0.00439301,10,-0.000260755,-2.28884,0.615254,0.0958953,-19.2248,0.0507072,
2,0,0,1,0,42546.9,0.0495369,0.0492078,-5.10201,22,0.00426453,10,-0.000251059,-2.29226,0.587509,0.100424,-20.0344,0.04920781,
2,0,0,1,0,42547,0.0480427,0.0477413,-5.07606,22,0.00413731,10,-0.000242338,-2.29447,0.586644,0.100572,-19.9402,0.0477413,
2,0,0,1,0,42547,0.0465432,0.0462307,-5.05344,22,0.0040103,10,-0.000233624,-2.29641,0.583602,0.101096,-19.9171,0.0462307,
2,0,0,1,0,42547,0.0450424,0.0447285,-5.02321,22,0.00388396,10,-0.000224681,-2.29902,0.617308,0.0955763,-18.7051,0.0447285,
2,0,0,1,0,42547,0.0435482,0.0432221,-4.98479,22,0.00375891,10,-0.000215453,-2.30235,0.571058,0.103317,-20.1203,0.0432221,
2,0,0,1,0,42547.1,0.0420486,0.0417426,-4.95493,22,0.00363422,10,-0.000206832,-2.30496,0.523266,0.112753,-21.8193,0.0417426,
2,0,0,1,0,42547.1,0.0405491,0.0402092,-4.93044,22,0.00351027,10,-0.000198249,-2.30711,0.547128,0.107836,-20.7197,0.0402092,
2,0,0,1,0,42547.1,0.0390549,0.0386969,-4.90006,22,0.00338753,10,-0.000189617,-2.3098,0.510314,0.115615,-22.0654,0.0386969,
2,0,0,1,0,42547.1,0.0375541,0.0372486,-4.85971,22,0.00326513,10,-0.000181017,-2.31339,0.47779,0.123485,-23.4443,0.0372486,
2,0,0,1,0,42547.2,0.0360532,0.035713,-4.81922,22,0.0031437,10,-0.000172109,-2.31702,0.444334,0.132783,-25.0275,0.035713,
2,0,0,1,0,42547.2,0.034559,0.0342299,-4.79222,22,0.00302356,10,-0.000164037,-2.31946,0.441686,0.133579,-24.9425,0.0342299,
2,0,0,1,0,42547.2,0.0330595,0.0327313,-4.75632,22,0.00290382,10,-0.000155681,-2.32273,0.454817,0.129723,-24.0553,0.0327313,
2,0,0,1,0,42547.2,0.0315613,0.0312265,-4.71196,22,0.00278498,10,-0.000147138,-2.3268,0.470019,0.125527,-23.1145,0.0312265,
2,0,0,1,0,42547.3,0.0300618,0.0297434,-4.67069,22,0.00266716,10,-0.000138922,-2.33062,0.390646,0.151032,-27.5776,0.0297434,
2,0,0,1,0,42547.3,0.0285676,0.0282298,-4.64266,22,0.00255072,10,-0.000131061,-2.33323,0.427402,0.138043,-24.9847,0.0282298,
2,0,0,1,0,42547.3,0.0270667,0.0267196,-4.60794,22,0.00243472,10,-0.000123123,-2.33649,0.463562,0.127275,-22.8521,0.0267196,
2,0,0,1,0,42547.3,0.0255659,0.0252489,-4.56521,22,0.00231963,10,-0.000115267,-2.34054,0.406396,0.145179,-25.8703,0.0252489,
2,0,0,1,0,42547.4,0.0240717,0.0237273,-4.52346,22,0.00220602,10,-0.000107329,-2.34453,0.395571,0.149152,-26.3641,0.0237273,
2,0,0,1,0,42547.4,0.0225722,0.0222137,-4.49349,22,0.00209293,10,-9.9817e-05,-2.34742,0.411445,0.143397,-25.1043,0.0222137,
2,0,0,1,0,42547.4,0.0210726,0.0207419,-4.45262,22,0.00198072,10,-9.23558e-05,-2.35138,0.450091,0.131084,-22.784,0.0207419,
2,0,0,1,0,42547.4,0.0195784,0.0192261,-4.41467,22,0.00186988,10,-8.48769e-05,-2.3551,0.464596,0.126992,-21.8913,0.0192261,
2,0,0,1,0,42547.5,0.0180789,0.0177315,-4.37455,22,0.00175949,10,-7.75675e-05,-2.35907,0.42936,0.137414,-23.5001,0.0177315,
2,0,0,1,0,42547.5,0.0165781,0.0162189,-4.35036,22,0.00165002,10,-7.05579e-05,-2.36147,0.465959,0.12662,-21.4928,0.01621886,
2,0,0,1,0,42547.5,0.0150839,0.0147183,-4.31945,22,0.00154176,10,-6.35751e-05,-2.36457,0.552696,0.106749,-17.9691,0.0147183,
2,0,0,1,0,42547.5,0.0135844,0.0132705,-4.28506,22,0.00143374,10,-5.6865e-05,-2.36804,0.503314,0.117223,-19.6032,0.01327052,
2,0,0,1,0,42547.6,0.0120848,0.0117631,-4.25335,22,0.00132654,10,-5.00328e-05,-2.37127,0.45115,0.130777,-21.7337,0.0117631,
2,0,0,1,0,42547.6,0.0105853,0.0102086,-4.22503,22,0.00122016,10,-4.31314e-05,-2.37417,0.475784,0.124006,-20.4613,0.0102086,
2,0,0,1,0,42547.6,0.00909108,0.00872458,-4.20008,22,0.00111485,10,-3.6644e-05,-2.37674,0.668421,0.0882678,-14.4601,0.00872458,
2,0,0,1,0,42547.6,0.00759027,0.00724204,-4.17237,22,0.00100976,10,-3.02165e-05,-2.37962,0.590779,0.0998682,-16.2765,0.00724204,
2,0,0,1,0,42547.7,0.00608945,0.00576102,-4.15006,22,0.000905216,10,-2.39086e-05,-2.38195,0.576625,0.10232,-16.5849,0.00576102,
2,0,0,1,0,42547.7,0.00459524,0.00426776,-4.13114,22,0.000801728,10,-1.76307e-05,-2.38393,0.64229,0.0918588,-14.8154,0.00426776,
2,0,0,1,0,42547.7,0.0030957,0.0027694,-4.11386,22,0.000698288,10,-1.13929e-05,-2.38575,1.8412,0.0320443,-5.1534,0.0027694,
2,0,0,1,0,42547.7,0.00159616,0.00120295,-4.11832,22,0.000594866,10,-4.95414e-06,-2.38528, , , ,0.00120295,
2,0,0,1,0,42547.8,0.000199195,-0.000212708,-4.08747,22,0.000498761,10,8.6944e-07,-2.38855, , , ,-0.000212708,