File: Figure_codes/Fig_3-5/rawdata_trumpetplot_data/after 10th/20221101_1-115_003_TrumpetPlot_ParaChange_from10_every3_05_CV_C01_17.csv
mode,ox/red,error,control changes,counter inc.,time/s,control/V,Ewe/V,<I>/mA,cycle number,(Q-Qo)/C,I Range,P/W,log(|I|),Tafel slope mV/dec,alpha_eff,dI/d(E-IR),E-IR/V,
2,0,0,1,0,34612.2,2.44065e-05,-0.000344411,-0.744966,18,0.0000000E+000,10,2.56574e-07,-3.12786, , , ,-0.000344411,
2,0,0,1,0,34612.3,0.00129787,0.000941872,0.0599231,18,-1.39822e-05,10,5.64399e-08,-4.22241, , , ,0.000941872,
2,1,0,1,0,34612.4,0.00279606,0.0024616,0.394494,18,6.12116e-06,10,9.71085e-07,-3.40396,0.00692078,8.52506,171.655,0.0024616,
2,1,0,1,0,34612.4,0.00429425,0.00396552,0.526208,18,4.24794e-05,10,2.08669e-06,-3.27884,0.0137656,4.28604,75.6182,0.00396552,
2,1,0,1,0,34612.5,0.00579244,0.00545617,0.601791,18,8.62987e-05,10,3.28348e-06,-3.22055,0.0288092,2.04796,46.1984,0.00545617,
2,1,0,1,0,34612.6,0.00729063,0.00696181,0.660557,18,0.000134901,10,4.59867e-06,-3.18009,0.0456278,1.29307,32.5866,0.00696181,
2,1,0,1,0,34612.7,0.00878882,0.00847504,0.702476,18,0.000187216,10,5.95351e-06,-3.15337,0.0609234,0.968428,26.1487,0.00847504,
2,1,0,1,0,34612.7,0.010287,0.00995294,0.736505,18,0.000242312,10,7.33039e-06,-3.13282,0.0830501,0.710414,20.2064,0.00995294,
2,1,0,1,0,34612.8,0.0117852,0.0115153,0.764419,18,0.000299822,10,8.8025e-06,-3.11667,0.0940095,0.627596,18.6537,0.0115153,
2,1,0,1,0,34612.9,0.0132847,0.0129427,0.790954,18,0.00035936,10,1.0237e-05,-3.10185,0.104388,0.565197,17.4498,0.0129427,
2,1,0,1,0,34613,0.0147802,0.0144534,0.816127,18,0.000420696,10,1.17958e-05,-3.08824,0.114741,0.514202,16.339,0.0144534,
2,1,0,1,0,34613,0.0162798,0.015966,0.839126,18,0.000484109,10,1.33975e-05,-3.07617,0.135128,0.436623,14.244,0.015966,
2,1,0,1,0,34613.1,0.017778,0.0174928,0.861308,18,0.000549038,10,1.50667e-05,-3.06484,0.146564,0.402555,13.4917,0.0174928,
2,1,0,1,0,34613.2,0.0192761,0.0189711,0.878779,18,0.00061532,10,1.66714e-05,-3.05612,0.149346,0.395056,13.5705,0.0189711,
2,1,0,1,0,34613.3,0.0207743,0.0204459,0.902043,18,0.000683231,10,1.84431e-05,-3.04477,0.142651,0.413597,14.5027,0.0204459,
2,1,0,1,0,34613.3,0.0222725,0.0219515,0.920899,18,0.000752742,10,2.02151e-05,-3.03579,0.159377,0.370192,13.2782,0.0219515,
2,1,0,1,0,34613.4,0.0237707,0.0234609,0.939546,18,0.000823686,10,2.20426e-05,-3.02708,0.175021,0.337103,12.3587,0.0234609,
2,1,0,1,0,34613.5,0.0252689,0.024958,0.957913,18,0.000895899,10,2.39075e-05,-3.01867,0.178711,0.330142,12.3717,0.024958,
2,1,0,1,0,34613.6,0.0267671,0.0264248,0.975094,18,0.000969586,10,2.57667e-05,-3.01095,0.167107,0.353067,13.4447,0.0264248,
2,1,0,1,0,34613.6,0.0282653,0.0279409,0.998503,18,0.00104487,10,2.78991e-05,-3.00065,0.175194,0.336769,13.0913,0.0279409,
2,1,0,1,0,34613.7,0.0297644,0.0294387,1.01729,18,0.00112174,10,2.99478e-05,-2.99255,0.193816,0.304412,12.079,0.0294387,
2,1,0,1,0,34613.8,0.0312599,0.0309098,1.03247,18,0.00119968,10,3.19135e-05,-2.98612,0.171876,0.343271,13.8781,0.0309098,
2,1,0,1,0,34613.9,0.0327599,0.032419,1.05431,18,0.00127918,10,3.41796e-05,-2.97703,0.19895,0.296557,12.2168,0.03241897,
2,1,0,1,0,34613.9,0.034258,0.0339311,1.07365,18,0.00136013,10,3.643e-05,-2.96914,0.184995,0.318927,13.3578,0.0339311,
2,1,0,1,0,34614,0.0357562,0.0354538,1.09317,18,0.00144256,10,3.87571e-05,-2.96131,0.214315,0.275296,11.7142,0.0354538,
2,1,0,1,0,34614.1,0.0372544,0.0368748,1.11303,18,0.0015264,10,4.10427e-05,-2.95349,0.206523,0.285683,12.3959,0.0368748,
2,1,0,1,0,34614.2,0.0387526,0.0384163,1.12993,18,0.00161151,10,4.34076e-05,-2.94695,0.195767,0.301379,13.3286,0.0384163,
2,1,0,1,0,34614.2,0.0402508,0.0399245,1.15348,18,0.00169826,10,4.60521e-05,-2.93799,0.202664,0.291122,13.0591,0.0399245,
2,1,0,1,0,34614.3,0.041749,0.0414537,1.17142,18,0.0017866,10,4.85598e-05,-2.93129,0.221956,0.265819,12.1352,0.0414537,
2,1,0,1,0,34614.4,0.0432472,0.0429759,1.19077,18,0.0018762,10,5.11747e-05,-2.92417,0.235123,0.250933,11.6437,0.04297594,
2,1,0,1,0,34614.5,0.0447449,0.0444355,1.20739,18,0.00196703,10,5.3651e-05,-2.91815,0.222297,0.265411,12.4947,0.0444355,
2,1,0,1,0,34614.5,0.0462445,0.0459721,1.22478,18,0.00205944,10,5.63056e-05,-2.91194,0.212494,0.277655,13.254,0.0459721,
2,1,0,1,0,34614.6,0.04774,0.0474191,1.2436,18,0.00215305,10,5.89704e-05,-2.90532,0.230157,0.256347,12.4458,0.0474191,
2,1,0,1,0,34614.7,0.0492399,0.0489412,1.25882,18,0.00224827,10,6.1608e-05,-2.90004,0.25829,0.228426,11.2459,0.0489412,
2,1,0,1,0,34614.8,0.0507381,0.0504246,1.27515,18,0.0023446,10,6.4299e-05,-2.89444,0.258037,0.228649,11.3989,0.0504246,
2,1,0,1,0,34614.8,0.0522363,0.0519073,1.29347,18,0.0024422,10,6.71403e-05,-2.88825,0.232626,0.253626,12.8162,0.0519073,
2,1,0,1,0,34614.9,0.0537345,0.0533939,1.31617,18,0.00254116,10,7.02756e-05,-2.88069,0.27228,0.216688,11.0894,0.0533939,
2,1,0,1,0,34615,0.0552327,0.0549283,1.33176,18,0.00264149,10,7.31512e-05,-2.87557,0.314555,0.187567,9.71183,0.0549283,
2,1,0,1,0,34615.1,0.0567309,0.0563736,1.34267,18,0.00274297,10,7.56912e-05,-2.87203,0.310429,0.190059,9.96955,0.0563736,
2,1,0,1,0,34615.1,0.0582291,0.0578964,1.36078,18,0.00284545,10,7.87841e-05,-2.86621,0.326049,0.180954,9.6158,0.0578964,
2,1,0,1,0,34615.2,0.0597291,0.0594263,1.37694,18,0.00294933,10,8.18267e-05,-2.86108,0.294633,0.200249,10.759,0.05942633,
2,1,0,1,0,34615.3,0.0612246,0.0609337,1.39394,18,0.00305411,10,8.49377e-05,-2.85576,0.371568,0.158786,8.61337,0.0609337,
2,1,0,1,0,34615.4,0.0627241,0.0624166,1.40661,18,0.00316033,10,8.77957e-05,-2.85183,0.329518,0.179049,9.832,0.0624166,
2,1,0,1,0,34615.4,0.0642218,0.063929,1.41832,18,0.00326738,10,9.06718e-05,-2.84823,0.326674,0.180608,10.0228,0.063929,
2,1,0,1,0,34615.5,0.06572,0.0653825,1.43405,18,0.0033755,10,9.37621e-05,-2.84343,0.322645,0.182864,10.2436,0.06538251,
2,1,0,1,0,34615.6,0.0672182,0.0669096,1.4498,18,0.00348487,10,9.70052e-05,-2.83869,0.343451,0.171786,9.70589,0.0669096,
2,1,0,1,0,34615.7,0.0687164,0.0684379,1.46274,18,0.00359525,10,0.000100107,-2.83483,0.437182,0.134955,7.69539,0.0684379,
2,1,0,1,0,34615.7,0.0702146,0.0699054,1.47326,18,0.0037064,10,0.000102989,-2.83172,0.390111,0.151239,8.70395,0.0699054,
2,1,0,1,0,34615.8,0.0717128,0.0713706,1.49017,18,0.00381855,10,0.000106354,-2.82677,0.367309,0.160628,9.31877,0.0713706,
2,1,0,1,0,34615.9,0.073211,0.0729162,1.50031,18,0.00393166,10,0.000109397,-2.82382,0.445492,0.132438,7.75432,0.07291618,
2,1,0,1,0,34616,0.0747092,0.0744207,1.50994,18,0.00404569,10,0.000112371,-2.82104,0.453734,0.130032,7.66273,0.0744207,
2,1,0,1,0,34616,0.0762087,0.0758404,1.51789,18,0.00416061,10,0.000115117,-2.81876,0.480737,0.122728,7.28693,0.0758404,
2,1,0,1,0,34616.1,0.0777042,0.0773543,1.53146,18,0.00427595,10,0.000118465,-2.8149,0.448172,0.131646,7.8662,0.0773543,
2,1,0,1,0,34616.2,0.0792037,0.0788657,1.54545,18,0.00439242,10,0.000121883,-2.81095,0.451329,0.130725,7.87048,0.0788657,
2,1,0,1,0,34616.3,0.0807019,0.0804171,1.55438,18,0.00450966,10,0.000124999,-2.80844,0.550137,0.107246,6.48685,0.0804171,
2,1,0,1,0,34616.3,0.0822001,0.0818804,1.56131,18,0.00462768,10,0.00012784,-2.80651,0.63128,0.0934609,5.69936,0.0818804,
2,1,0,1,0,34616.4,0.0836983,0.083378,1.57345,18,0.00474624,10,0.000131191,-2.80315,0.598072,0.0986503,6.06072,0.083378,
2,1,0,1,0,34616.5,0.0851965,0.0849025,1.58429,18,0.00486567,10,0.00013451,-2.80017,0.479058,0.123158,7.61675,0.08490254,
2,1,0,1,0,34616.6,0.0866947,0.0864212,1.59603,18,0.00498601,10,0.000137931,-2.79696,0.570727,0.103377,6.42861,0.0864212,
2,1,0,1,0,34616.6,0.0881929,0.0879037,1.60879,18,0.00510726,10,0.000141419,-2.7935,0.425468,0.138671,8.70474,0.0879037,
2,1,0,1,0,34616.7,0.0896911,0.0893714,1.62127,18,0.00522924,10,0.000144895,-2.79015,0.392022,0.150502,9.53779,0.0893714,
2,1,0,1,0,34616.8,0.0911893,0.0908621,1.63707,18,0.00535243,10,0.000148747,-2.78593,0.31716,0.186026,11.8801,0.0908621,
2,1,0,1,0,34616.9,0.0926884,0.0923531,1.65825,18,0.0054772,10,0.000153144,-2.78035,0.307416,0.191922,12.3801,0.09235315,
2,1,0,1,0,34616.9,0.0941839,0.0938652,1.67008,18,0.00560286,10,0.000156762,-2.77726,0.319562,0.184628,12.0624,0.0938652,
2,1,0,1,0,34617,0.0956838,0.095355,1.68903,18,0.00573008,10,0.000161058,-2.77236,0.271097,0.217634,14.3993,0.095355,
2,1,0,1,0,34617.1,0.097182,0.0968549,1.71114,18,0.00585882,10,0.000165732,-2.76671,0.229197,0.257421,17.2202,0.0968549,
2,1,0,1,0,34617.2,0.0986802,0.0983679,1.73743,18,0.00598944,10,0.000170907,-2.76009,0.232287,0.253996,17.2405,0.0983679,
2,1,0,1,0,34617.2,0.100178,0.0998746,1.7662,18,0.00612198,10,0.000176398,-2.75296,0.222899,0.264694,18.2413,0.0998746,
2,1,0,1,0,34617.3,0.101677,0.101326,1.79192,18,0.00625647,10,0.000181568,-2.74668,0.219912,0.26829,18.7841,0.101326,
2,1,0,1,0,34617.4,0.103175,0.102886,1.82277,18,0.00639306,10,0.000187538,-2.73927,0.203585,0.289806,20.6549,0.102886,
2,1,0,1,0,34617.5,0.104673,0.10431,1.85891,18,0.00653212,10,0.000193904,-2.73074,0.20124,0.293182,21.2296,0.10431,
2,1,0,1,0,34617.5,0.106171,0.105885,1.89061,18,0.00667379,10,0.000200187,-2.7234,0.212217,0.278017,20.4524,0.105885,
2,1,0,1,0,34617.6,0.107669,0.107331,1.92041,18,0.00681775,10,0.00020612,-2.71661,0.216683,0.272287,20.4196,0.107331,
2,1,0,1,0,34617.7,0.109168,0.108848,1.95033,18,0.00696401,10,0.000212289,-2.70989,0.214082,0.275595,20.999,0.108848,
2,1,0,1,0,34617.8,0.110664,0.110313,1.9817,18,0.00711242,10,0.000218607,-2.70296,0.213503,0.276343,21.3444,0.110313,
2,1,0,1,0,34617.8,0.112164,0.111844,2.0107,18,0.00726355,10,0.000224884,-2.69665,0.240722,0.245096,19.2101,0.111844,
2,1,0,1,0,34617.9,0.113662,0.113362,2.03998,18,0.00741655,10,0.000231256,-2.69037,0.28291,0.208547,16.5626,0.113362,
2,1,0,1,0,34618,0.11516,0.114847,2.06136,18,0.00757128,10,0.000236742,-2.68585,0.301943,0.195401,15.7189,0.114847,
2,1,0,1,0,34618.1,0.116658,0.116312,2.08511,18,0.00772785,10,0.000242523,-2.68087,0.314135,0.187817,15.26,0.116312,
2,1,0,1,0,34618.1,0.118157,0.117846,2.10999,18,0.00788627,10,0.000248654,-2.67572,0.357508,0.165031,13.5594,0.117846,
2,1,0,1,0,34618.2,0.119655,0.119348,2.12811,18,0.00804613,10,0.000253985,-2.67201,0.46411,0.127125,10.5428,0.119348,
2,1,0,1,0,34618.3,0.121153,0.12084,2.13871,18,0.00820709,10,0.000258441,-2.66985,0.499684,0.118075,9.86609,0.12084,
2,1,0,1,0,34618.4,0.122653,0.12227,2.15394,18,0.00836941,10,0.000263362,-2.66677,0.450926,0.130842,10.9942,0.12227,
2,1,0,1,0,34618.4,0.124149,0.12384,2.16829,18,0.00853242,10,0.000268521,-2.66388,0.536778,0.109915,9.3018,0.12384,
2,1,0,1,0,34618.5,0.125648,0.125319,2.18065,18,0.00869679,10,0.000273277,-2.66141,0.68148,0.0865762,7.36149,0.125319,
2,1,0,1,0,34618.6,0.127146,0.126814,2.18821,18,0.00886186,10,0.000277495,-2.65991,0.667173,0.0884328,7.56131,0.126814,
2,1,0,1,0,34618.7,0.128644,0.128327,2.2021,18,0.0090276,10,0.000282587,-2.65716,0.704354,0.0837647,7.20178,0.128327,
2,1,0,1,0,34618.7,0.130142,0.129834,2.21524,18,0.0091943,10,0.000287614,-2.65458,0.717938,0.0821798,7.09046,0.1298342,
2,1,0,1,0,34618.8,0.13164,0.131327,2.22274,18,0.00936177,10,0.000291906,-2.65311,1.55357,0.037977,3.28832,0.131327,
2,1,0,1,0,34618.9,0.133139,0.132762,2.2273,18,0.00952978,10,0.0002957,-2.65222,1.92608,0.0306321,2.66146,0.132762,
2,1,0,1,0,34619,0.134637,0.13431,2.23035,18,0.00969795,10,0.000299559,-2.65163,-183.51,-0.000321509,-0.0279742,0.13431,
2,1,0,1,0,34619,0.136135,0.135782,2.23078,18,0.00986629,10,0.000302901,-2.65154,-1.57171,-0.0375388,-3.25882,0.135782,
2,1,0,1,0,34619.1,0.137633,0.137327,2.22336,18,0.0100343,10,0.000305328,-2.65299,-0.603384,-0.0977818,-8.44567,0.137327,
2,1,0,1,0,34619.2,0.139133,0.138782,2.20802,18,0.0102017,10,0.000306434,-2.656,-0.361338,-0.163282,-13.9936,0.138782,
2,1,0,1,0,34619.3,0.140628,0.140291,2.17917,18,0.0103669,10,0.000305717,-2.66171,-0.249724,-0.236261,-20.0067,0.140291,
2,1,0,1,0,34619.3,0.142128,0.141825,2.14575,18,0.0105303,10,0.000304321,-2.66842,-0.190694,-0.309396,-25.7745,0.141825,
2,1,0,1,0,34619.4,0.143626,0.14332,2.10061,18,0.0106906,10,0.00030106,-2.67765,-0.147964,-0.398747,-32.5209,0.14332,
2,1,0,1,0,34619.5,0.145124,0.144799,2.04396,18,0.0108471,10,0.000295963,-2.68953,-0.115711,-0.509893,-40.5137,0.144799,
2,1,0,1,0,34619.6,0.146622,0.146293,1.97608,18,0.0109991,10,0.000289087,-2.7042,-0.0995055,-0.592932,-45.6442,0.146293,
2,1,0,1,0,34619.6,0.14812,0.147805,1.90939,18,0.0111458,10,0.000282217,-2.71911,-0.090579,-0.651365,-48.4294,0.147805,
2,1,0,1,0,34619.7,0.149619,0.149274,1.83367,18,0.0112871,10,0.000273719,-2.73668,-0.0835658,-0.706031,-50.3908,0.1492743,
2,1,0,1,0,34619.8,0.151117,0.150807,1.75697,18,0.0114228,10,0.000264964,-2.75523,-0.0762581,-0.773688,-52.8769,0.150807,
2,1,0,1,0,34619.9,0.152615,0.152311,1.67502,18,0.0115525,10,0.000255124,-2.77598,-0.0737373,-0.800138,-52.4181,0.152311,
2,1,0,1,0,34619.9,0.154113,0.153768,1.60287,18,0.0116764,10,0.00024647,-2.7951,-0.078235,-0.754138,-47.3239,0.153768,
2,1,0,1,0,34620,0.155613,0.15532,1.53675,18,0.0117952,10,0.000238687,-2.8134,-0.0824951,-0.715194,-42.9582,0.15532,
2,1,0,1,0,34620.1,0.157108,0.156842,1.47283,18,0.011909,10,0.000231,-2.83185,-0.0829262,-0.711476,-40.8618,0.156842,
2,1,0,1,0,34620.2,0.158608,0.158293,1.41315,18,0.0120184,10,0.000223692,-2.84981,-0.0891886,-0.661519,-36.6139,0.158293,
2,1,0,1,0,34620.2,0.160106,0.159782,1.36177,18,0.0121234,10,0.000217587,-2.8659,-0.0974528,-0.605421,-32.3412,0.159782,
2,1,0,1,0,34620.3,0.161604,0.161274,1.3167,18,0.0122249,10,0.00021235,-2.88051,-0.10494,-0.562228,-28.9748,0.161274,
2,1,0,1,0,34620.4,0.163102,0.162771,1.27756,18,0.0123233,10,0.000207949,-2.89362,-0.117637,-0.501543,-25.0409,0.162771,
2,1,0,1,0,34620.5,0.164601,0.164255,1.24231,18,0.0124188,10,0.000204056,-2.90577,-0.123178,-0.478983,-23.2621,0.164255,
2,1,0,1,0,34620.5,0.166099,0.165759,1.21113,18,0.0125118,10,0.000200755,-2.91681,-0.14572,-0.404887,-19.2088,0.165759,
2,1,0,1,0,34620.6,0.167597,0.167304,1.18296,18,0.0126026,10,0.000197914,-2.92703,-0.176116,-0.335006,-15.5027,0.167304,
2,1,0,1,0,34620.7,0.169095,0.168755,1.1614,18,0.0126916,10,0.000195992,-2.93502,-0.191326,-0.308374,-13.9961,0.168755,
2,1,0,1,0,34620.8,0.170593,0.170256,1.1402,18,0.0127791,10,0.000194126,-2.94302,-0.185431,-0.318178,-14.1809,0.170256,
2,1,0,1,0,34620.8,0.172092,0.171747,1.11996,18,0.012865,10,0.00019235,-2.9508,-0.239545,-0.2463,-10.8129,0.171747,
2,1,0,1,0,34620.9,0.173588,0.173259,1.10386,18,0.0129494,10,0.000191253,-2.95709,-0.272349,-0.216633,-9.34768,0.173259,
2,1,0,1,0,34621,0.175088,0.174751,1.08986,18,0.0130329,10,0.000190454,-2.96263,-0.274329,-0.21507,-9.15635,0.174751,
2,1,0,1,0,34621.1,0.176586,0.176246,1.07574,18,0.0131154,10,0.000189595,-2.96829,-0.303478,-0.194413,-8.1702,0.1762463,
2,1,0,1,0,34621.1,0.178084,0.177752,1.06488,18,0.0131968,10,0.000189284,-2.9727,-0.31795,-0.185564,-7.73972,0.177752,
2,1,0,1,0,34621.2,0.179582,0.179253,1.05582,18,0.0132774,10,0.00018926,-2.97641,-0.401573,-0.146922,-6.06828,0.179253,
2,1,0,1,0,34621.3,0.181081,0.180796,1.04627,18,0.0133574,10,0.000189162,-2.98036,-0.415123,-0.142127,-5.81562,0.180796,
2,1,0,1,0,34621.4,0.182579,0.18225,1.03923,18,0.0134368,10,0.000189399,-2.98329,-0.372187,-0.158522,-6.42597,0.18225,
2,1,0,1,0,34621.4,0.184077,0.183791,1.03391,18,0.0135156,10,0.000190023,-2.98552,-0.448389,-0.131582,-5.30922,0.183791,
2,1,0,1,0,34621.5,0.185577,0.185248,1.02664,18,0.0135939,10,0.000190183,-2.98858,-0.681095,-0.0866252,-3.47058,0.185248,
2,1,0,1,0,34621.6,0.187073,0.186768,1.02029,18,0.0136716,10,0.000190558,-2.99127,-0.758066,-0.0778296,-3.09557,0.1867682,
2,1,0,1,0,34621.7,0.188572,0.188211,1.01235,18,0.0137491,10,0.000190535,-2.99467,-0.727204,-0.0811326,-3.21516,0.1882111,
2,1,0,1,0,34621.7,0.19007,0.189737,1.01069,18,0.013826,10,0.000191765,-2.99538,-0.643127,-0.0917393,-3.61368,0.1897368,
2,1,0,1,0,34621.8,0.191568,0.191244,1.00316,18,0.0139025,10,0.000191847,-2.99863,-0.897069,-0.0657697,-2.57751,0.191244,
2,1,0,1,0,34621.9,0.193066,0.192737,0.998191,18,0.0139786,10,0.000192388,-3.00079,-1.65224,-0.0357092,-1.39163,0.1927367,
2,1,0,1,0,34622,0.194564,0.194242,0.995408,18,0.0140546,10,0.00019335,-3.002,-0.85899,-0.0686853,-2.66942,0.194242,
2,1,0,1,0,34622,0.196063,0.195775,0.991666,18,0.0141303,10,0.000194143,-3.00363,-0.711449,-0.0829294,-3.20852,0.195775,
2,1,0,1,0,34622.1,0.197561,0.19726,0.985129,18,0.0142055,10,0.000194327,-3.00651,-0.692633,-0.0851822,-3.27973,0.19726,
2,1,0,1,0,34622.2,0.199059,0.198747,0.983882,18,0.0142805,10,0.000195543,-3.00706,-1.1291,-0.0522539,-2.00498,0.198747,
2,1,0,1,0,34622.3,0.200557,0.200244,0.98134,18,0.0143553,10,0.000196508,-3.00818,-1.66765,-0.0353791,-1.35408,0.200244,
2,1,0,1,0,34622.3,0.202057,0.201786,0.978954,18,0.0144299,10,0.000197539,-3.00924,-0.855041,-0.0690026,-2.6288,0.201786,
2,1,0,1,0,34622.4,0.203552,0.203232,0.974441,18,0.0145042,10,0.000198038,-3.01124,-1.35351,-0.0435902,-1.6591,0.2032322,
2,1,0,1,0,34622.5,0.205052,0.20476,0.969658,18,0.0145784,10,0.000198547,-3.01338,-16.2652,-0.00362737,-0.13815,0.20476,
2,1,0,1,0,34622.6,0.20655,0.206241,0.967714,18,0.0146523,10,0.000199583,-3.01425,-1.5599,-0.0378228,-1.43282,0.206241,
2,1,0,1,0,34622.6,0.208048,0.20776,0.969051,18,0.0147262,10,0.00020133,-3.01365,-0.933483,-0.0632042,-2.38182,0.20776,
2,1,0,1,0,34622.7,0.209546,0.20925,0.965877,18,0.0147998,10,0.00020211,-3.01508,-0.89244,-0.0661109,-2.49254,0.20925,
2,1,0,1,0,34622.8,0.211044,0.210723,0.960457,18,0.0148731,10,0.00020239,-3.01752,-1.47609,-0.0399706,-1.49988,0.210723,
2,1,0,1,0,34622.9,0.212543,0.21227,0.961923,18,0.0149462,10,0.000204188,-3.01686,-2.69366,-0.0219033,-0.819927,0.2122702,
2,1,0,1,0,34622.9,0.214041,0.213713,0.956766,18,0.0150193,10,0.000204473,-3.01919,-1.70423,-0.0346198,-1.29399,0.213713,
2,1,0,1,0,34623,0.215539,0.215223,0.9571,18,0.0150921,10,0.000205989,-3.01904,-1.17448,-0.050235,-1.87286,0.215223,
2,1,0,1,0,34623.1,0.217037,0.216717,0.951256,18,0.0151647,10,0.000206153,-3.0217,-3.12016,-0.0189093,-0.70428,0.216717,
2,1,0,1,0,34623.2,0.218536,0.21824,0.950701,18,0.0152373,10,0.000207481,-3.02196,6.74303,0.00874978,0.325544,0.21824,
2,1,0,1,0,34623.2,0.220032,0.21975,0.951933,18,0.0153097,10,0.000209188,-3.02139,-3.09935,-0.0190362,-0.70635,0.21975,
2,1,0,1,0,34623.3,0.221532,0.221215,0.946377,18,0.0153821,10,0.000209353,-3.02394,-1.49572,-0.0394458,-1.4582,0.221215,
2,1,0,1,0,34623.4,0.22303,0.222728,0.941281,18,0.0154543,10,0.00020965,-3.02628,-1.44577,-0.0408088,-1.50756,0.2227283,
2,1,0,1,0,34623.5,0.224528,0.224218,0.943758,18,0.0155262,10,0.000211607,-3.02514,-1.69985,-0.0347089,-1.27867,0.224218,
2,1,0,1,0,34623.5,0.226026,0.225704,0.944513,18,0.015598,10,0.00021318,-3.02479,-1.5348,-0.0384416,-1.41492,0.225704,
2,1,0,1,0,34623.6,0.227525,0.227232,0.942591,18,0.0156698,10,0.000214187,-3.02568,-1.09038,-0.0541096,-1.98317,0.227232,
2,1,0,1,0,34623.7,0.229023,0.228707,0.937776,18,0.0157415,10,0.000214476,-3.0279,-1.76886,-0.0333549,-1.22439,0.228707,
2,1,0,1,0,34623.8,0.230521,0.230194,0.937526,18,0.0158129,10,0.000215813,-3.02802,-3.63025,-0.0162523,-0.596661,0.230194,
2,1,0,1,0,34623.8,0.232019,0.231681,0.936624,18,0.0158842,10,0.000216998,-3.02843,-1.52401,-0.0387137,-1.41572,0.231681,
2,1,0,1,0,34623.9,0.233517,0.233175,0.937935,18,0.0159556,10,0.000218703,-3.02783,-1.25464,-0.0470254,-1.71459,0.233175,
2,1,0,1,0,34624,0.235016,0.234715,0.935615,18,0.0160269,10,0.000219603,-3.0289,-1.44438,-0.040848,-1.48802,0.234715,
2,1,0,1,0,34624.1,0.236512,0.236179,0.930939,18,0.0160978,10,0.000219868,-3.03108,-3.60944,-0.016346,-0.594622,0.236179,
2,1,0,1,0,34624.1,0.238012,0.237713,0.929654,18,0.0161688,10,0.000220991,-3.03168,-8.24528,-0.00715561,-0.259503,0.2377134,
2,1,0,1,0,34624.2,0.23951,0.239187,0.927353,18,0.0162397,10,0.00022181,-3.03275,-3.36022,-0.0175584,-0.636459,0.239187,
2,1,0,1,0,34624.3,0.241008,0.240723,0.928588,18,0.0163104,10,0.000223532,-3.03218,-1.05972,-0.055675,-2.01736,0.240723,
2,1,0,1,0,34624.4,0.242506,0.242206,0.925522,18,0.016381,10,0.000224167,-3.03361,-5.30395,-0.0111238,-0.402439,0.242206,
2,1,0,1,0,34624.4,0.244005,0.243714,0.924357,18,0.0164514,10,0.000225279,-3.03416,7.43261,0.00793799,0.286752,0.243714,
2,1,0,1,0,34624.5,0.245503,0.245228,0.925487,18,0.0165219,10,0.000226956,-3.03363,-1.37395,-0.042942,-1.54628,0.245228,
2,1,0,1,0,34624.6,0.247001,0.246675,0.92452,18,0.0165923,10,0.000228056,-3.03408,-1.81208,-0.0325594,-1.16952,0.2466753,
2,1,0,1,0,34624.7,0.248501,0.248171,0.920669,18,0.0166626,10,0.000228483,-3.0359,-1.9791,-0.0298115,-1.07316,0.248171,
2,1,0,1,0,34624.7,0.249997,0.249667,0.922091,18,0.0167326,10,0.000230216,-3.03523,-6.14038,-0.00960853,-0.345025,0.249667,
2,1,0,1,0,34624.8,0.251496,0.251161,0.917601,18,0.0168027,10,0.000230465,-3.03735,-2.68011,-0.0220141,-0.788064,0.2511605,
2,1,0,1,0,34624.9,0.252994,0.252678,0.91651,18,0.0168727,10,0.000231582,-3.03786,-1.51121,-0.0390416,-1.39631,0.252678,
2,1,0,1,0,34625,0.254492,0.254225,0.917206,18,0.0169425,10,0.000233177,-3.03753,-1.64612,-0.0358419,-1.28225,0.254225,
2,1,0,1,0,34625,0.25599,0.255703,0.91432,18,0.0170122,10,0.000233795,-3.0389,-2.47682,-0.0238209,-0.851249,0.255703,
2,1,0,1,0,34625.1,0.257488,0.257156,0.91321,18,0.0170818,10,0.000234837,-3.03943,-4.50449,-0.013098,-0.466039,0.2571556,
2,1,0,1,0,34625.2,0.258987,0.258666,0.913873,18,0.0171515,10,0.000236388,-3.03911,-1.90898,-0.0309066,-1.10016,0.258666,
2,1,0,1,0,34625.3,0.260485,0.260153,0.912371,18,0.0172209,10,0.000237356,-3.03983,-0.96239,-0.0613057,-2.18055,0.260153,
2,1,0,1,0,34625.3,0.261983,0.261654,0.909347,18,0.0172901,10,0.000237935,-3.04127,-1.76453,-0.0334366,-1.18705,0.261654,
2,1,0,1,0,34625.4,0.263481,0.263219,0.906902,18,0.0173593,10,0.000238714,-3.04244,-8.06229,-0.00731802,-0.258599,0.263219,
2,1,0,1,0,34625.5,0.264981,0.264691,0.907936,18,0.0174286,10,0.000240322,-3.04194,-33.8408,-0.00174346,-0.0616895,0.264691,
2,1,0,1,0,34625.6,0.266476,0.266141,0.905897,18,0.0174975,10,0.000241096,-3.04292,-2.69189,-0.0219177,-0.775357,0.266141,
2,1,0,1,0,34625.6,0.267976,0.26766,0.901776,18,0.0175664,10,0.00024137,-3.0449,-1.39815,-0.0421988,-1.48789,0.26766,
2,1,0,1,0,34625.7,0.269474,0.269155,0.89998,18,0.0176352,10,0.000242234,-3.04577,-4.15224,-0.0142092,-0.500477,0.269155,
2,1,0,1,0,34625.8,0.270972,0.270658,0.90367,18,0.0177039,10,0.000244586,-3.04399,-1.96713,-0.029993,-1.05367,0.270658,
2,1,0,1,0,34625.9,0.27247,0.272173,0.900726,18,0.0177726,10,0.000245153,-3.04541,-1.57837,-0.0373803,-1.31012,0.272173,
2,1,0,1,0,34625.9,0.273968,0.273684,0.897583,18,0.0178411,10,0.000245654,-3.04693,-1.07317,-0.0549775,-1.92587,0.273684,
2,1,0,1,0,34626,0.275467,0.275131,0.894061,18,0.0179094,10,0.000245984,-3.04863,-1.8292,-0.0322546,-1.13024,0.275131,
2,1,0,1,0,34626.1,0.276965,0.276616,0.894911,18,0.0179776,10,0.000247546,-3.04822,-1.89506,-0.0311335,-1.08734,0.276616,
2,1,0,1,0,34626.2,0.278463,0.278165,0.893434,18,0.0180458,10,0.000248522,-3.04894,-1.83339,-0.0321808,-1.12019,0.278165,
2,1,0,1,0,34626.2,0.279961,0.279695,0.890544,18,0.0181138,10,0.000249081,-3.05034,-1.48482,-0.0397355,-1.38302,0.279695,
2,1,0,1,0,34626.3,0.28146,0.281163,0.88923,18,0.0181817,10,0.000250019,-3.05099,-1.84532,-0.0319728,-1.10982,0.281163,
2,1,0,1,0,34626.4,0.282956,0.282683,0.887827,18,0.0182494,10,0.000250973,-3.05167,-2.06482,-0.0285739,-0.988706,0.282683,
2,1,0,1,0,34626.5,0.284456,0.284156,0.888064,18,0.0183172,10,0.000252349,-3.05156,-5.43436,-0.0108569,-0.375461,0.284156,
2,1,0,1,0,34626.5,0.285954,0.285639,0.886643,18,0.0183847,10,0.00025326,-3.05225,-1.21112,-0.0487151,-1.68426,0.2856389,
2,1,0,1,0,34626.6,0.287452,0.28712,0.880431,18,0.018452,10,0.00025279,-3.0553,-1.14313,-0.0516128,-1.77817,0.28712,
2,1,0,1,0,34626.7,0.28895,0.28867,0.88297,18,0.0185193,10,0.000254887,-3.05405,-7.4649,-0.00790365,-0.271371,0.2886703,
2,1,0,1,0,34626.8,0.290449,0.29015,0.881788,18,0.0185865,10,0.000255851,-3.05464,-1.35065,-0.0436828,-1.50207,0.29015,
2,1,0,1,0,34626.8,0.291947,0.291627,0.878693,18,0.0186535,10,0.00025625,-3.05616,-2.18263,-0.0270316,-0.92637,0.291627,
2,1,0,1,0,34626.9,0.293445,0.29315,0.87393,18,0.0187204,10,0.000256192,-3.05852,-1.64412,-0.0358856,-1.22873,0.29315,
2,1,0,1,0,34627,0.294943,0.294639,0.876148,18,0.0187871,10,0.000258147,-3.05742,-3.2777,-0.0180004,-0.614092,0.294639,
2,1,0,1,0,34627.1,0.296441,0.296149,0.876459,18,0.0188538,10,0.000259563,-3.05727,-4.35922,-0.0135345,-0.461132,0.296149,
2,1,0,1,0,34627.1,0.29794,0.297654,0.873326,18,0.0189205,10,0.000259949,-3.05882,-1.29647,-0.0455081,-1.5487,0.297654,
2,1,0,1,0,34627.2,0.299436,0.299136,0.867417,18,0.0189868,10,0.000259476,-3.06177,-0.00373734,-15.7866,-320.781,0.299136,
2,1,0,1,0,34627.2,0.299739,0.299431,0.560829,18,0.0190205,10,0.00016793,-3.25117,0.000513297,114.943,712.494,0.299431,
2,1,0,1,0,34627.3,0.298239,0.297975,0.05144,18,0.0190368,10,1.53278e-05,-4.2887,0.00402433,14.6608,248.866,0.297975,
2,0,0,1,0,34627.4,0.296741,0.296455,-0.0694978,18,0.0190342,10,-2.0603e-05,-4.15803,-0.127669,-0.462132,70.5259,0.296455,
2,0,0,1,0,34627.5,0.295243,0.294913,-0.130203,18,0.0190252,10,-3.83986e-05,-3.88538,-0.00621818,-9.48831,34.0393,0.294913,
2,0,0,1,0,34627.5,0.293745,0.29345,-0.169869,18,0.0190128,10,-4.98481e-05,-3.76989,-0.0155403,-3.79657,22.9976,0.29345,
2,0,0,1,0,34627.6,0.292246,0.291898,-0.19705,18,0.0189979,10,-5.75184e-05,-3.70542,-0.0251063,-2.35001,17.5544,0.291898,
2,0,0,1,0,34627.7,0.290748,0.290423,-0.222658,18,0.018981,10,-6.4665e-05,-3.65236,-0.0319279,-1.84791,15.5159,0.290423,
2,0,0,1,0,34627.8,0.28925,0.288929,-0.242141,18,0.0189622,10,-6.99615e-05,-3.61593,-0.0404945,-1.45699,13.5969,0.288929,
2,0,0,1,0,34627.8,0.287752,0.287473,-0.260532,18,0.0189421,10,-7.48958e-05,-3.58414,-0.0542867,-1.08682,11.0452,0.287473,
2,0,0,1,0,34627.9,0.286254,0.285934,-0.27612,18,0.0189208,10,-7.89518e-05,-3.5589,-0.0606046,-0.973523,10.513,0.285934,
2,0,0,1,0,34628,0.284754,0.284444,-0.291362,18,0.0188982,10,-8.2876e-05,-3.53557,-0.0649024,-0.909057,10.3584,0.284444,
2,0,0,1,0,34628.1,0.283259,0.282926,-0.308988,18,0.0188745,10,-8.74208e-05,-3.51006,-0.075358,-0.78293,9.33318,0.282926,
2,0,0,1,0,34628.1,0.281759,0.281408,-0.321426,18,0.0188498,10,-9.04519e-05,-3.49292,-0.0870261,-0.677957,8.45177,0.281408,
2,0,0,1,0,34628.2,0.280261,0.279921,-0.329717,18,0.0188241,10,-9.22948e-05,-3.48186,-0.103389,-0.570658,7.34504,0.2799215,
2,0,0,1,0,34628.3,0.278763,0.278456,-0.343085,18,0.0187976,10,-9.55343e-05,-3.4646,-0.102242,-0.577061,7.71216,0.278456,
2,0,0,1,0,34628.4,0.277264,0.276953,-0.353439,18,0.0187702,10,-9.78858e-05,-3.45169,-0.110848,-0.532259,7.32349,0.276953,
2,0,0,1,0,34628.4,0.275766,0.275469,-0.365047,18,0.018742,10,-0.000100559,-3.43765,-0.140923,-0.418668,5.94002,0.275469,
2,0,0,1,0,34628.5,0.274268,0.273951,-0.375219,18,0.018713,10,-0.000102792,-3.42572,-0.130098,-0.453505,6.65812,0.273951,
2,0,0,1,0,34628.6,0.27277,0.272427,-0.385476,18,0.0186834,10,-0.000105014,-3.414,-0.143981,-0.409777,6.18041,0.272427,
2,0,0,1,0,34628.7,0.271272,0.270991,-0.394457,18,0.018653,10,-0.000106894,-3.404,-0.140133,-0.421027,6.45881,0.270991,
2,0,0,1,0,34628.7,0.269774,0.269437,-0.40683,18,0.0186219,10,-0.000109615,-3.39059,-0.157827,-0.373828,5.8695,0.2694371,
2,0,0,1,0,34628.8,0.268274,0.267958,-0.412565,18,0.0185901,10,-0.00011055,-3.38451,-0.19,-0.310527,5.00112,0.267958,
2,0,0,1,0,34628.9,0.266779,0.266442,-0.417645,18,0.0185579,10,-0.000111278,-3.37919,-0.175934,-0.335354,5.47694,0.266442,
2,0,0,1,0,34629,0.265279,0.264988,-0.426509,18,0.0185249,10,-0.00011302,-3.37007,-0.163561,-0.360722,6.00111,0.264988,
2,0,0,1,0,34629,0.263781,0.263502,-0.433598,18,0.0184913,10,-0.000114254,-3.36291,-0.227679,-0.259136,4.41684,0.263502,
2,0,0,1,0,34629.1,0.262283,0.26197,-0.442135,18,0.0184572,10,-0.000115826,-3.35445,-0.231703,-0.254637,4.39264,0.2619701,
2,0,0,1,0,34629.2,0.260784,0.260444,-0.449088,18,0.0184225,10,-0.000116963,-3.34767,-0.213279,-0.276633,4.86037,0.260444,
2,0,0,1,0,34629.3,0.259286,0.258993,-0.458094,18,0.0183873,10,-0.000118643,-3.33905,-0.210863,-0.279803,4.99572,0.258993,
2,0,0,1,0,34629.3,0.257788,0.257461,-0.468051,18,0.0183515,10,-0.000120505,-3.32971,-0.211554,-0.278889,5.06025,0.257461,
2,0,0,1,0,34629.4,0.25629,0.255986,-0.475183,18,0.0183151,10,-0.00012164,-3.32314,-0.2701,-0.218438,4.01789,0.255986,
2,0,0,1,0,34629.5,0.25479,0.254499,-0.476399,18,0.0182783,10,-0.000121243,-3.32203,-0.244292,-0.241515,4.50572,0.254499,
2,0,0,1,0,34629.6,0.253294,0.252985,-0.484677,18,0.018241,10,-0.000122616,-3.31455,-0.244622,-0.241189,4.56919,0.252985,
2,0,0,1,0,34629.6,0.251795,0.251511,-0.491845,18,0.0182032,10,-0.000123705,-3.30817,-0.243638,-0.242163,4.66844,0.251511,
2,0,0,1,0,34629.7,0.250297,0.24998,-0.496848,18,0.0181649,10,-0.000124202,-3.30378,-0.262245,-0.22498,4.37266,0.24998,
2,0,0,1,0,34629.8,0.248799,0.248513,-0.503971,18,0.0181261,10,-0.000125243,-3.29759,-0.270492,-0.218121,4.29058,0.248513,
2,0,0,1,0,34629.9,0.247301,0.247,-0.509154,18,0.018087,10,-0.000125761,-3.29315,-0.275057,-0.214501,4.28707,0.247,
2,0,0,1,0,34629.9,0.245802,0.245492,-0.517525,18,0.0180474,10,-0.000127048,-3.28607,-0.274276,-0.215112,4.31811,0.2454924,
2,0,0,1,0,34630,0.244304,0.243933,-0.52537,18,0.0180071,10,-0.000128155,-3.27953,-0.364732,-0.161763,3.28926,0.243933,
2,0,0,1,0,34630.1,0.242806,0.242489,-0.527368,18,0.0179665,10,-0.000127881,-3.27789,-0.38858,-0.151835,3.13248,0.242489,
2,0,0,1,0,34630.2,0.241308,0.24101,-0.532508,18,0.0179257,10,-0.00012834,-3.27367,-0.36912,-0.15984,3.3283,0.24101,
2,0,0,1,0,34630.2,0.23981,0.239486,-0.5401,18,0.0178843,10,-0.000129346,-3.26753,-0.299548,-0.196964,4.14127,0.2394857,
2,0,0,1,0,34630.3,0.23831,0.237981,-0.544661,18,0.0178424,10,-0.000129619,-3.26387,-0.355371,-0.166023,3.52169,0.2379811,
2,0,0,1,0,34630.4,0.236815,0.236509,-0.548949,18,0.0178002,10,-0.000129831,-3.26047,-0.403154,-0.146346,3.13387,0.236509,
2,0,0,1,0,34630.5,0.235315,0.235015,-0.551419,18,0.0177575,10,-0.000129592,-3.25852,-0.352051,-0.167589,3.62357,0.235015,
2,0,0,1,0,34630.5,0.233817,0.233502,-0.559494,18,0.0177146,10,-0.000130643,-3.2522,-0.318521,-0.185231,4.05747,0.233502,
2,0,0,1,0,34630.6,0.232319,0.232006,-0.56681,18,0.0176711,10,-0.000131503,-3.24656,-0.321168,-0.183705,4.04421,0.232006,
2,0,0,1,0,34630.7,0.230821,0.230512,-0.570387,18,0.0176272,10,-0.000131481,-3.24383,-0.443537,-0.133022,2.95498,0.230512,
2,0,0,1,0,34630.8,0.229322,0.22899,-0.574212,18,0.0175829,10,-0.000131489,-3.24093,-0.429325,-0.137425,3.09968,0.22899,
2,0,0,1,0,34630.8,0.227824,0.227526,-0.58236,18,0.0175384,10,-0.000132502,-3.23481,-0.478414,-0.123324,2.80781,0.227526,
2,0,0,1,0,34630.9,0.226326,0.22601,-0.585498,18,0.0174933,10,-0.000132328,-3.23247,-0.370351,-0.159308,3.65556,0.22601,
2,0,0,1,0,34631,0.224828,0.224527,-0.591407,18,0.0174478,10,-0.000132787,-3.22811,-0.440918,-0.133812,3.09149,0.2245274,
2,0,0,1,0,34631.1,0.22333,0.223032,-0.599211,18,0.0174019,10,-0.000133644,-3.22242,-0.390381,-0.151135,3.5286,0.223032,
2,0,0,1,0,34631.1,0.22183,0.221457,-0.604856,18,0.0173557,10,-0.00013395,-3.21835,-0.410164,-0.143845,3.39399,0.221457,
2,0,0,1,0,34631.2,0.220335,0.220024,-0.609583,18,0.0173091,10,-0.000134123,-3.21497,-0.320132,-0.184299,4.36841,0.220024,
2,0,0,1,0,34631.3,0.218835,0.218513,-0.611928,18,0.0172619,10,-0.000133714,-3.2133,-0.359925,-0.163923,3.93053,0.218513,
2,0,0,1,0,34631.4,0.217337,0.217054,-0.616963,18,0.0172145,10,-0.000133915,-3.20974,-0.488252,-0.120839,2.92815,0.217054,
2,0,0,1,0,34631.4,0.215839,0.215468,-0.622518,18,0.0171668,10,-0.000134133,-3.20585,-0.349471,-0.168827,4.12476,0.215468,
2,0,0,1,0,34631.5,0.21434,0.214025,-0.629814,18,0.0171186,10,-0.000134796,-3.20079,-0.319966,-0.184395,4.52284,0.214025,
2,0,0,1,0,34631.6,0.212842,0.212469,-0.635417,18,0.0170701,10,-0.000135006,-3.19694,-0.453284,-0.130161,3.2232,0.212469,
2,0,0,1,0,34631.7,0.211344,0.211057,-0.639769,18,0.0170211,10,-0.000135028,-3.19398,-0.506861,-0.116403,2.90621,0.211057,
2,0,0,1,0,34631.7,0.209846,0.209582,-0.642383,18,0.0169718,10,-0.000134632,-3.19221,-0.443255,-0.133106,3.34801,0.209582,
2,0,0,1,0,34631.8,0.208348,0.208005,-0.650544,18,0.0169222,10,-0.000135317,-3.18672,-0.369527,-0.159664,4.05963,0.208005,
2,0,0,1,0,34631.9,0.20685,0.206567,-0.657864,18,0.016872,10,-0.000135893,-3.18186,-0.382154,-0.154388,3.94812,0.2065672,
2,0,0,1,0,34632,0.20535,0.204998,-0.659669,18,0.0168212,10,-0.000135231,-3.18067,-0.699767,-0.0843138,2.16247,0.204998,
2,0,0,1,0,34632,0.203855,0.203522,-0.6638,18,0.0167704,10,-0.000135098,-3.17796,-0.648612,-0.0909635,2.36242,0.203522,
2,0,0,1,0,34632.1,0.202355,0.202035,-0.668649,18,0.0167192,10,-0.00013509,-3.1748,-0.45619,-0.129332,3.39134,0.202035,
2,0,0,1,0,34632.2,0.200857,0.200486,-0.674864,18,0.0166675,10,-0.000135301,-3.17078,-0.386303,-0.15273,4.02495,0.200486,
2,0,0,1,0,34632.3,0.199359,0.199073,-0.683118,18,0.0166154,10,-0.000135991,-3.1655,-0.391924,-0.150539,4.00123,0.199073,
2,0,0,1,0,34632.3,0.19786,0.197513,-0.687035,18,0.0165628,10,-0.000135698,-3.16302,-0.445318,-0.13249,3.54579,0.197513,
2,0,0,1,0,34632.4,0.196362,0.196022,-0.692979,18,0.01651,10,-0.000135839,-3.15928,-0.36617,-0.161128,4.36039,0.196022,
2,0,0,1,0,34632.5,0.194864,0.194535,-0.697893,18,0.0164567,10,-0.000135765,-3.15621,-0.376178,-0.156841,4.27147,0.1945349,
2,0,0,1,0,34632.6,0.193366,0.193027,-0.706907,18,0.0164028,10,-0.000136452,-3.15064,-0.399357,-0.147737,4.06258,0.193027,
2,0,0,1,0,34632.6,0.191866,0.191561,-0.711584,18,0.0163484,10,-0.000136312,-3.14777,-0.469359,-0.125703,3.48419,0.191561,
2,0,0,1,0,34632.7,0.19037,0.190078,-0.715002,18,0.0162939,10,-0.000135906,-3.14569,-0.410208,-0.143829,4.02206,0.190078,
2,0,0,1,0,34632.8,0.188871,0.188552,-0.72271,18,0.0162387,10,-0.000136268,-3.14104,-0.319059,-0.184919,5.2088,0.188552,
2,0,0,1,0,34632.9,0.187373,0.187023,-0.731008,18,0.016183,10,-0.000136715,-3.13608,-0.36285,-0.162602,4.62983,0.187023,
2,0,0,1,0,34632.9,0.185875,0.18555,-0.734827,18,0.0161269,10,-0.000136347,-3.13381,-0.376983,-0.156506,4.49394,0.18555,
2,0,0,1,0,34633,0.184377,0.184054,-0.74098,18,0.0160703,10,-0.00013638,-3.13019,-0.416197,-0.14176,4.10708,0.1840536,
2,0,0,1,0,34633.1,0.182878,0.182588,-0.748397,18,0.0160132,10,-0.000136648,-3.12587,-0.31497,-0.187319,5.47862,0.182588,
2,0,0,1,0,34633.2,0.18138,0.181046,-0.757308,18,0.0159556,10,-0.000137107,-3.12073,-0.34171,-0.172661,5.10379,0.181046,
2,0,0,1,0,34633.2,0.179882,0.179548,-0.762656,18,0.0158973,10,-0.000136934,-3.11767,-0.575063,-0.102597,3.05635,0.179548,
2,0,0,1,0,34633.3,0.178384,0.178035,-0.771968,18,0.0158386,10,-0.000137437,-3.1124,-0.421375,-0.140018,4.21179,0.178035,
2,0,0,1,0,34633.4,0.176886,0.176548,-0.778415,18,0.0157794,10,-0.000137428,-3.10879,-0.326778,-0.180551,5.49932,0.176548,
2,0,0,1,0,34633.5,0.175386,0.175066,-0.786055,18,0.0157195,10,-0.000137612,-3.10455,-0.305883,-0.192884,5.93038,0.175066,
2,0,0,1,0,34633.5,0.173891,0.17355,-0.795296,18,0.015659,10,-0.000138024,-3.09947,-0.314345,-0.187692,5.82684,0.17355,
2,0,0,1,0,34633.6,0.172391,0.172089,-0.805081,18,0.0155976,10,-0.000138546,-3.09416,-0.286526,-0.205915,6.46447,0.172089,
2,0,0,1,0,34633.7,0.170893,0.170566,-0.813839,18,0.0155358,10,-0.000138813,-3.08946,-0.27419,-0.215179,6.84947,0.170566,
2,0,0,1,0,34633.8,0.169395,0.169043,-0.823973,18,0.0154731,10,-0.000139287,-3.08409,-0.221466,-0.266406,8.56856,0.169043,
2,0,0,1,0,34633.8,0.167897,0.167548,-0.836609,18,0.0154095,10,-0.000140172,-3.07748,-0.256096,-0.230382,7.52353,0.167548,
2,0,0,1,0,34633.9,0.166398,0.166079,-0.848046,18,0.0153451,10,-0.000140843,-3.07158,-0.287907,-0.204927,6.78829,0.166079,
2,0,0,1,0,34634,0.1649,0.164556,-0.857987,18,0.01528,10,-0.000141187,-3.06652,-0.235258,-0.250789,8.44076,0.164556,
2,0,0,1,0,34634.1,0.163402,0.163065,-0.874761,18,0.0152139,10,-0.000142643,-3.05811,-0.212357,-0.277835,9.4704,0.163065,
2,0,0,1,0,34634.1,0.161904,0.161588,-0.890042,18,0.0151467,10,-0.00014382,-3.05059,-0.205416,-0.287222,9.95892,0.161588,
2,0,0,1,0,34634.2,0.160406,0.160084,-0.904571,18,0.0150784,10,-0.000144807,-3.04356,-0.200657,-0.294035,10.3404,0.160084,
2,0,0,1,0,34634.3,0.158906,0.158608,-0.917945,18,0.0150088,10,-0.000145593,-3.03718,-0.186207,-0.316852,11.3639,0.158608,
2,0,0,1,0,34634.4,0.157411,0.157089,-0.936885,18,0.0149382,10,-0.000147175,-3.02831,-0.157236,-0.375232,13.7865,0.157089,
2,0,0,1,0,34634.4,0.155911,0.15558,-0.956983,18,0.014866,10,-0.000148887,-3.0191,-0.148985,-0.396014,14.8338,0.15558,
2,0,0,1,0,34634.5,0.154413,0.154053,-0.980313,18,0.014792,10,-0.00015102,-3.00864,-0.151269,-0.390033,14.9029,0.154053,
2,0,0,1,0,34634.6,0.152915,0.152599,-1.00518,18,0.0147163,10,-0.000153389,-2.99776,-0.139075,-0.424233,16.6718,0.152599,
2,0,0,1,0,34634.7,0.151417,0.151086,-1.03198,18,0.0146389,10,-0.000155917,-2.98633,-0.123769,-0.476695,19.263,0.151086,
2,0,0,1,0,34634.7,0.149918,0.14959,-1.06271,18,0.0145593,10,-0.000158972,-2.97358,-0.11017,-0.535535,22.2469,0.14959,
2,0,0,1,0,34634.8,0.14842,0.14811,-1.09737,18,0.0144771,10,-0.000162531,-2.95965,-0.104397,-0.56515,24.2508,0.14811,
2,0,0,1,0,34634.9,0.146922,0.146617,-1.13505,18,0.0143922,10,-0.000166418,-2.94498,-0.100181,-0.588936,26.1241,0.1466171,
2,0,0,1,0,34635,0.145424,0.145095,-1.17425,18,0.0143045,10,-0.000170378,-2.93024,-0.0922865,-0.639314,29.4578,0.145095,
2,0,0,1,0,34635,0.143926,0.143604,-1.22334,18,0.0142134,10,-0.000175676,-2.91245,-0.0830413,-0.71049,34.0013,0.143604,
2,0,0,1,0,34635.1,0.142426,0.142099,-1.27505,18,0.0141184,10,-0.000181182,-2.89447,-0.0825466,-0.714747,35.5941,0.142099,
2,0,0,1,0,34635.2,0.140931,0.140578,-1.32888,18,0.0140196,10,-0.000186811,-2.87651,-0.0845023,-0.698206,36.241,0.140578,
2,0,0,1,0,34635.3,0.139431,0.139108,-1.38371,18,0.0139165,10,-0.000192485,-2.85895,-0.0800325,-0.7372,39.961,0.139108,
2,0,0,1,0,34635.3,0.137933,0.137603,-1.44623,18,0.0138092,10,-0.000199006,-2.83976,-0.0809434,-0.728905,41.1931,0.137603,
2,0,0,1,0,34635.4,0.136435,0.136117,-1.51092,18,0.0136971,10,-0.000205661,-2.82076,-0.082018,-0.719354,42.3387,0.136117,
2,0,0,1,0,34635.5,0.134936,0.134585,-1.57582,18,0.0135801,10,-0.000212083,-2.80249,-0.0859781,-0.686221,42.0864,0.134585,
2,0,0,1,0,34635.6,0.133438,0.133082,-1.6379,18,0.0134583,10,-0.000217975,-2.78571,-0.0870463,-0.6778,43.3404,0.133082,
2,0,0,1,0,34635.6,0.13194,0.131641,-1.70595,18,0.0133319,10,-0.000224573,-2.76803,-0.0922715,-0.639417,42.53,0.131641,
2,0,0,1,0,34635.7,0.130442,0.130103,-1.76539,18,0.0132006,10,-0.000229683,-2.75316,-0.0961071,-0.613898,42.2748,0.130103,
2,0,0,1,0,34635.8,0.128942,0.128577,-1.83069,18,0.0130643,10,-0.000235384,-2.73739,-0.107932,-0.546639,38.8961,0.128577,
2,0,0,1,0,34635.9,0.127446,0.127131,-1.88902,18,0.012924,10,-0.000240152,-2.72376,-0.117076,-0.503944,37.0053,0.127131,
2,0,0,1,0,34635.9,0.125947,0.125627,-1.93945,18,0.0127794,10,-0.000243648,-2.71232,-0.126808,-0.465271,35.1598,0.125627,
2,0,0,1,0,34636,0.124449,0.124119,-1.98992,18,0.012631,10,-0.000246987,-2.70116,-0.135438,-0.435624,33.7519,0.124119,
2,0,0,1,0,34636.1,0.122951,0.122628,-2.03769,18,0.0124787,10,-0.000249877,-2.69086,-0.150286,-0.392584,31.1498,0.122628,
2,0,0,1,0,34636.2,0.121453,0.121062,-2.08291,18,0.012323,10,-0.000252161,-2.68133,-0.176825,-0.333664,27.0357,0.121062,
2,0,0,1,0,34636.2,0.119955,0.119647,-2.11551,18,0.0121645,10,-0.000253114,-2.67459,-0.204709,-0.288214,23.7828,0.119647,
2,0,0,1,0,34636.3,0.118456,0.118108,-2.15108,18,0.0120032,10,-0.00025406,-2.66734,-0.22133,-0.266571,22.3559,0.118108,
2,0,0,1,0,34636.4,0.116958,0.116666,-2.18467,18,0.0118393,10,-0.000254878,-2.66061,-0.277567,-0.212561,18.068,0.116666,
2,0,0,1,0,34636.5,0.11546,0.115135,-2.20867,18,0.0116735,10,-0.000254295,-2.65587,-0.394695,-0.149482,12.8422,0.115135,
2,0,0,1,0,34636.5,0.113962,0.113642,-2.2234,18,0.0115061,10,-0.000252672,-2.65298,-0.493152,-0.119638,10.3695,0.113642,
2,0,0,1,0,34636.6,0.112462,0.112154,-2.23795,18,0.0113374,10,-0.000250996,-2.65015,-0.671775,-0.087827,7.66267,0.112154,
2,0,0,1,0,34636.7,0.110967,0.110635,-2.25067,18,0.0111681,10,-0.000249002,-2.64769,-1.04435,-0.0564944,4.94967,0.110635,
2,0,0,1,0,34636.8,0.109467,0.109148,-2.2548,18,0.0109979,10,-0.000246107,-2.64689,-13.8428,-0.00426214,0.374148,0.109148,
2,0,0,1,0,34636.8,0.107969,0.107653,-2.25264,18,0.0108277,10,-0.000242503,-2.64731,6.69251,0.00881582,-0.774929,0.107653,
2,0,0,1,0,34636.9,0.106471,0.106153,-2.25072,18,0.0106578,10,-0.000238921,-2.64768,1.87885,0.0314022,-2.75666,0.106153,
2,0,0,1,0,34637,0.104973,0.10464,-2.24371,18,0.0104881,10,-0.000234782,-2.64903,1.11992,0.0526824,-4.60893,0.10464,
2,0,0,1,0,34637.1,0.103474,0.103148,-2.23919,18,0.0103188,10,-0.000230968,-2.64991,0.832835,0.0708424,-6.17636,0.103148,
2,0,0,1,0,34637.1,0.101976,0.101705,-2.22767,18,0.0101504,10,-0.000226564,-2.65215,0.600113,0.0983149,-8.53428,0.101705,
2,0,0,1,0,34637.2,0.100478,0.100174,-2.20925,18,0.009983,10,-0.000221309,-2.65575,0.472976,0.124742,-10.7615,0.100174,
2,0,0,1,0,34637.3,0.0989798,0.0986778,-2.19802,18,0.00981664,10,-0.000216896,-2.65797,0.547003,0.107861,-9.24462,0.0986778,
2,0,0,1,0,34637.4,0.0974817,0.0971482,-2.18366,18,0.00965136,10,-0.000212139,-2.66081,0.491845,0.119957,-10.2128,0.0971482,
2,0,0,1,0,34637.4,0.0959821,0.095646,-2.16719,18,0.009487,10,-0.000207283,-2.6641,0.469957,0.125543,-10.6081,0.095646,
2,0,0,1,0,34637.5,0.0944866,0.0941585,-2.14519,18,0.0093244,10,-0.000201988,-2.66853,0.454359,0.129853,-10.8859,0.0941585,
2,0,0,1,0,34637.6,0.0929871,0.0926257,-2.13186,18,0.00916257,10,-0.000197465,-2.67124,0.578357,0.102013,-8.49438,0.0926257,
2,0,0,1,0,34637.7,0.0914889,0.0911453,-2.12344,18,0.00900197,10,-0.000193542,-2.67296,0.532341,0.110831,-9.16612,0.0911453,
2,0,0,1,0,34637.7,0.0899907,0.0896925,-2.10708,18,0.00884237,10,-0.000188989,-2.67632,0.46305,0.127416,-10.4684,0.0896925,
2,0,0,1,0,34637.8,0.0884925,0.0881395,-2.08692,18,0.00868393,10,-0.00018394,-2.6805,0.490498,0.120286,-9.81701,0.0881395,
2,0,0,1,0,34637.9,0.0869943,0.0866414,-2.07866,18,0.00852665,10,-0.000180098,-2.68222,0.523014,0.112808,-9.15088,0.0866414,
2,0,0,1,0,34638,0.0854961,0.0851891,-2.06719,18,0.00837025,10,-0.000176102,-2.68462,0.620222,0.0951272,-7.67399,0.0851891,
2,0,0,1,0,34638,0.083998,0.0836703,-2.05473,18,0.00821476,10,-0.00017192,-2.68725,0.48194,0.122422,-9.80197,0.0836703,
2,0,0,1,0,34638.1,0.0824998,0.0821964,-2.04168,18,0.0080601,10,-0.000167818,-2.69001,0.552611,0.106766,-8.5005,0.0821964,
2,0,0,1,0,34638.2,0.081002,0.0806644,-2.02802,18,0.00790658,10,-0.000163589,-2.69293,0.609254,0.0968397,-7.67274,0.0806644,
2,0,0,1,0,34638.3,0.0795025,0.0791652,-2.01627,18,0.00775366,10,-0.000159619,-2.69545,0.811069,0.0727435,-5.73036,0.0791652,
2,0,0,1,0,34638.3,0.078007,0.0776774,-2.00549,18,0.00760181,10,-0.000155782,-2.69778,0.687238,0.0858509,-6.7245,0.0776774,
2,0,0,1,0,34638.4,0.076507,0.0761808,-1.99677,18,0.00745034,10,-0.000152115,-2.69967,0.561745,0.10503,-8.17765,0.0761808,
2,0,0,1,0,34638.5,0.0750088,0.0746718,-1.98167,18,0.00730001,10,-0.000147975,-2.70297,0.651579,0.0905493,-7.01273,0.0746718,
2,0,0,1,0,34638.6,0.0735106,0.0731913,-1.97559,18,0.00715052,10,-0.000144596,-2.7043,0.699272,0.0843734,-6.50205,0.0731913,
2,0,0,1,0,34638.6,0.0720124,0.0717025,-1.9648,18,0.00700172,10,-0.000140881,-2.70668,0.615684,0.0958284,-7.34374,0.0717025,
2,0,0,1,0,34638.7,0.0705142,0.0701866,-1.95195,18,0.00685365,10,-0.000137001,-2.70953,0.535523,0.110173,-8.39275,0.07018663,
2,0,0,1,0,34638.8,0.069016,0.0686915,-1.94078,18,0.00670649,10,-0.000133315,-2.71202,0.589127,0.100148,-7.59787,0.0686915,
2,0,0,1,0,34638.9,0.0675179,0.0671578,-1.93304,18,0.00656023,10,-0.000129819,-2.71376,0.703827,0.0838275,-6.32392,0.0671578,
2,0,0,1,0,34638.9,0.0660179,0.0657199,-1.92551,18,0.00641449,10,-0.000126544,-2.71545,0.607299,0.0971514,-7.28272,0.0657199,
2,0,0,1,0,34639,0.0645224,0.0642209,-1.91139,18,0.00626976,10,-0.000122751,-2.71865,0.590053,0.099991,-7.44489,0.0642209,
2,0,0,1,0,34639.1,0.0630228,0.0626695,-1.89726,18,0.0061256,10,-0.0001189,-2.72187,0.579821,0.101756,-7.53884,0.0626695,
2,0,0,1,0,34639.2,0.0615251,0.0611943,-1.88684,18,0.0059827,10,-0.000115464,-2.72427,0.588279,0.100293,-7.39838,0.0611943,
2,0,0,1,0,34639.2,0.0600269,0.0597149,-1.87538,18,0.00584053,10,-0.000111988,-2.72691,0.636066,0.0927577,-6.7911,0.0597149,
2,0,0,1,0,34639.3,0.0585287,0.0581924,-1.86533,18,0.00569904,10,-0.000108548,-2.72925,0.535058,0.110268,-8.01905,0.0581924,
2,0,0,1,0,34639.4,0.0570305,0.0566864,-1.85579,18,0.00555839,10,-0.000105198,-2.73147,0.501017,0.11776,-8.5239,0.0566864,
2,0,0,1,0,34639.5,0.0555323,0.0552356,-1.84181,18,0.00541881,10,-0.000101734,-2.73475,0.527081,0.111937,-8.05937,0.0552356,
2,0,0,1,0,34639.5,0.0540341,0.0537,-1.83232,18,0.00527995,10,-9.83956e-05,-2.737,0.640394,0.0921307,-6.57691,0.0537,
2,0,0,1,0,34639.6,0.052536,0.0522243,-1.82299,18,0.00514172,10,-9.52045e-05,-2.73921,0.615595,0.0958423,-6.80853,0.0522243,
2,0,0,1,0,34639.7,0.0510378,0.0507023,-1.81185,18,0.00500441,10,-9.18651e-05,-2.74188,0.449712,0.131195,-9.26687,0.0507023,
2,0,0,1,0,34639.8,0.0495382,0.0492314,-1.79549,18,0.00486805,10,-8.83945e-05,-2.74582,0.480269,0.122848,-8.61651,0.0492314,
2,0,0,1,0,34639.8,0.0480427,0.0476968,-1.78474,18,0.00473291,10,-8.51262e-05,-2.74843,0.669409,0.0881375,-6.13286,0.0476968,
2,0,0,1,0,34639.9,0.0465432,0.0461786,-1.77146,18,0.00459826,10,-8.18036e-05,-2.75167,0.525381,0.112299,-7.76748,0.0461786,
2,0,0,1,0,34640,0.045045,0.0447169,-1.75994,18,0.00446464,10,-7.86988e-05,-2.7545,0.475614,0.12405,-8.51471,0.0447169,
2,0,0,1,0,34640.1,0.0435468,0.0431786,-1.74352,18,0.00433207,10,-7.52828e-05,-2.75857,0.427788,0.137919,-9.39889,0.0431786,
2,0,0,1,0,34640.1,0.0420486,0.0417207,-1.73392,18,0.0042006,10,-7.23404e-05,-2.76097,0.47784,0.123472,-8.36567,0.04172074,
2,0,0,1,0,34640.2,0.0405504,0.0402195,-1.72429,18,0.00406994,10,-6.93504e-05,-2.76339,0.499686,0.118074,-7.9252,0.0402195,
2,0,0,1,0,34640.3,0.0390523,0.0387558,-1.71097,18,0.00394006,10,-6.63102e-05,-2.76676,0.408916,0.144284,-9.60202,0.0387558,
2,0,0,1,0,34640.4,0.0375541,0.037212,-1.6952,18,0.00381123,10,-6.30818e-05,-2.77078,0.398588,0.148022,-9.80071,0.037212,
2,0,0,1,0,34640.4,0.0360559,0.0357315,-1.68022,18,0.00368366,10,-6.00367e-05,-2.77463,0.405289,0.145575,-9.56673,0.0357315,
2,0,0,1,0,34640.5,0.0345577,0.0342363,-1.66594,18,0.00355697,10,-5.70357e-05,-2.77834,0.46693,0.126357,-8.21959,0.0342363,
2,0,0,1,0,34640.6,0.0330582,0.0327123,-1.65543,18,0.00343108,10,-5.41529e-05,-2.78109,0.400619,0.147272,-9.50408,0.03271227,
2,0,0,1,0,34640.7,0.0315626,0.0312316,-1.64464,18,0.00330657,10,-5.13646e-05,-2.78393,0.416725,0.14158,-9.06155,0.03123155,
2,0,0,1,0,34640.7,0.0300631,0.0297334,-1.62552,18,0.00318291,10,-4.83322e-05,-2.78901,0.482893,0.12218,-7.75499,0.0297334,
2,0,0,1,0,34640.8,0.0285649,0.0282252,-1.61561,18,0.00306024,10,-4.5601e-05,-2.79166,0.539493,0.109362,-6.88511,0.0282252,
2,0,0,1,0,34640.9,0.0270667,0.0267212,-1.60336,18,0.00293841,10,-4.28437e-05,-2.79497,0.467577,0.126182,-7.89371,0.0267212,
2,0,0,1,0,34641,0.0255685,0.0252634,-1.59003,18,0.00281757,10,-4.01697e-05,-2.79859,0.395061,0.149344,-9.27015,0.0252634,
2,0,0,1,0,34641,0.0240704,0.0237582,-1.57436,18,0.00269779,10,-3.74039e-05,-2.8029,0.467718,0.126144,-7.77743,0.0237582,
2,0,0,1,0,34641.1,0.0225722,0.0222774,-1.56564,18,0.00257886,10,-3.48783e-05,-2.80531,0.520938,0.113257,-6.91954,0.0222774,
2,0,0,1,0,34641.2,0.021074,0.0207192,-1.55449,18,0.00246069,10,-3.22077e-05,-2.80841,0.494586,0.119292,-7.24382,0.0207192,
2,0,0,1,0,34641.3,0.0195758,0.0192018,-1.54566,18,0.00234335,10,-2.96796e-05,-2.81089,0.475178,0.124164,-7.47092,0.0192018,
2,0,0,1,0,34641.3,0.018078,0.0177591,-1.52947,18,0.00222683,10,-2.71621e-05,-2.81546,0.525455,0.112284,-6.7215,0.0177591,
2,0,0,1,0,34641.4,0.0165785,0.0162434,-1.52435,18,0.00211103,10,-2.47606e-05,-2.81692,0.609755,0.0967601,-5.75682,0.0162434,
2,0,0,1,0,34641.5,0.015083,0.0147933,-1.5165,18,0.0019961,10,-2.24341e-05,-2.81916,0.680109,0.0867508,-5.12823,0.0147933,
2,0,0,1,0,34641.6,0.013583,0.0132596,-1.51042,18,0.00188136,10,-2.00276e-05,-2.8209,0.591756,0.0997032,-5.85981,0.0132596,
2,0,0,1,0,34641.6,0.0120848,0.0117588,-1.49921,18,0.00176749,10,-1.76289e-05,-2.82414,0.562747,0.104843,-6.14208,0.0117588,
2,0,0,1,0,34641.7,0.0105866,0.0102423,-1.49098,18,0.0016543,10,-1.52711e-05,-2.82653,0.718883,0.0820718,-4.78541,0.0102423,
2,0,0,1,0,34641.8,0.00908846,0.00878743,-1.48707,18,0.00154152,10,-1.30675e-05,-2.82767,1.15854,0.0509262,-2.95606,0.00878743,
2,0,0,1,0,34641.9,0.00759027,0.0072756,-1.48129,18,0.00142917,10,-1.07773e-05,-2.82936,0.846868,0.0696685,-4.02886,0.0072756,
2,0,0,1,0,34641.9,0.00609208,0.00573929,-1.47777,18,0.00131715,10,-8.48134e-06,-2.83039,1.01036,0.0583948,-3.36385,0.00573929,
2,0,0,1,0,34642,0.00459389,0.00430062,-1.47111,18,0.00120557,10,-6.3267e-06,-2.83235,1.11951,0.0527018,-3.02769,0.00430062,
2,0,0,1,0,34642.1,0.00309391,0.00277602,-1.46974,18,0.00109411,10,-4.08004e-06,-2.83276,-1.96269,-0.0300607,1.72978,0.00277602,
2,0,0,1,0,34642.2,0.0015984,0.00122842,-1.48256,18,0.000982153,10,-1.8212e-06,-2.82899, , , ,0.00122842,
2,0,0,1,0,34642.2,0.000199195,-0.00016539,-1.47422,18,0.000877607,10,2.43821e-07,-2.83144, , , ,-0.00016539,