File: Figure_codes/Fig_3-5/rawdata_trumpetplot_data/after 10th/20221101_1-115_003_TrumpetPlot_ParaChange_from10_every3_06_CV_C01_19.csv
mode,ox/red,error,control changes,counter inc.,time/s,control/V,Ewe/V,<I>/mA,cycle number,(Q-Qo)/C,I Range,P/W,log(|I|),Tafel slope mV/dec,alpha_eff,dI/d(E-IR),E-IR/V,
2,0,0,0,0,38582.5,2.44065e-05,-0.000401673,-1.42552,20,0.0000000E+000,10,5.72593e-07,-2.84603, , , ,-0.000401673,
2,0,0,1,0,38582.5,0.00129787,0.000938189,-0.300137,20,-2.33142e-05,10,-2.81585e-07,-3.52268, , , ,0.000938189,
2,1,0,1,0,38582.6,0.00279427,0.00248273,0.37207,20,-2.02967e-05,10,9.23749e-07,-3.42938,0.0345228,1.70902,363.176,0.00248273,
2,1,0,1,0,38582.6,0.00429425,0.00399327,0.740402,20,1.58904e-06,10,2.95662e-06,-3.13053,0.00544727,10.8311,209.308,0.00399327,
2,1,0,1,0,38582.6,0.00579422,0.0054641,0.968602,20,3.46023e-05,10,5.29254e-06,-3.01385,0.0145824,4.04596,138.767,0.0054641,
2,1,0,1,0,38582.7,0.00729063,0.00695973,1.13728,20,7.48895e-05,10,7.91514e-06,-2.94413,0.0260481,2.26504,96.3111,0.00695973,
2,1,0,1,0,38582.7,0.00878703,0.00844752,1.25773,20,0.000120512,10,1.06247e-05,-2.90041,0.0396692,1.4873,71.4807,0.00844752,
2,1,0,1,0,38582.8,0.010287,0.010022,1.3503,20,0.000170198,10,1.35327e-05,-2.86957,0.0551766,1.06929,55.6772,0.010022,
2,1,0,1,0,38582.8,0.011787,0.0114132,1.42334,20,0.00022299,10,1.62449e-05,-2.84669,0.0699764,0.843141,46.4988,0.0114132,
2,1,0,1,0,38582.8,0.0132825,0.012963,1.4862,20,0.00027812,10,1.92657e-05,-2.82792,0.0886416,0.665602,38.4746,0.01296303,
2,1,0,1,0,38582.9,0.014778,0.0144689,1.54458,20,0.000335442,10,2.23484e-05,-2.81119,0.101245,0.582746,34.8712,0.01446888,
2,1,0,1,0,38582.9,0.0162815,0.0159521,1.59306,20,0.000395077,10,2.54126e-05,-2.79777,0.115541,0.510642,31.5077,0.0159521,
2,1,0,1,0,38582.9,0.017778,0.0174531,1.63591,20,0.000456098,10,2.85517e-05,-2.78624,0.135165,0.436502,27.8032,0.0174531,
2,1,0,1,0,38583,0.0192744,0.0189518,1.67451,20,0.000518552,10,3.1735e-05,-2.77611,0.146161,0.403665,26.3671,0.0189518,
2,1,0,1,0,38583,0.0207743,0.0204363,1.71347,20,0.000582734,10,3.50171e-05,-2.76612,0.147461,0.400106,26.747,0.02043632,
2,1,0,1,0,38583.1,0.0222743,0.0219376,1.74564,20,0.000648366,10,3.82952e-05,-2.75805,0.163993,0.359772,24.6018,0.0219376,
2,1,0,1,0,38583.1,0.0237707,0.0234667,1.78735,20,0.000715203,10,4.19432e-05,-2.74779,0.182598,0.323115,22.5384,0.0234667,
2,1,0,1,0,38583.1,0.0252671,0.0249933,1.81958,20,0.000783274,10,4.54773e-05,-2.74003,0.176034,0.335162,23.8439,0.0249933,
2,1,0,1,0,38583.2,0.0267671,0.026447,1.86009,20,0.000852884,10,4.91937e-05,-2.73047,0.172295,0.342437,24.7981,0.026447,
2,1,0,1,0,38583.2,0.0282671,0.0279212,1.89898,20,0.000923884,10,5.30216e-05,-2.72148,0.176336,0.334589,24.668,0.0279212,
2,1,0,1,0,38583.2,0.0297626,0.0294436,1.92994,20,0.000996035,10,5.68242e-05,-2.71446,0.189151,0.311919,23.4258,0.0294436,
2,1,0,1,0,38583.3,0.0312581,0.0309348,1.95981,20,0.00106944,10,6.06262e-05,-2.70779,0.19738,0.298916,22.903,0.0309348,
2,1,0,1,0,38583.3,0.0327616,0.0324519,1.99448,20,0.0011444,10,6.47246e-05,-2.70017,0.197192,0.299201,23.3303,0.0324519,
2,1,0,1,0,38583.4,0.034258,0.0339272,2.02558,20,0.00122032,10,6.87223e-05,-2.69345,0.203175,0.29039,22.9996,0.0339272,
2,1,0,1,0,38583.4,0.0357545,0.0354174,2.06401,20,0.00129754,10,7.31018e-05,-2.68529,0.227538,0.259297,20.8589,0.0354174,
2,1,0,1,0,38583.4,0.0372544,0.0369358,2.09897,20,0.00137626,10,7.75273e-05,-2.67799,0.222689,0.264943,21.6753,0.0369358,
2,1,0,1,0,38583.5,0.0387544,0.0384524,2.13651,20,0.00145615,10,8.21539e-05,-2.6703,0.206599,0.285577,23.7873,0.0384524,
2,1,0,1,0,38583.5,0.0402508,0.0399813,2.17219,20,0.0015372,10,8.6847e-05,-2.6631,0.216208,0.272886,23.0649,0.0399813,
2,1,0,1,0,38583.5,0.0417472,0.0414336,2.20554,20,0.00161966,10,9.13835e-05,-2.65649,0.225446,0.261704,22.5081,0.04143364,
2,1,0,1,0,38583.6,0.0432472,0.0429081,2.24136,20,0.00170364,10,9.61727e-05,-2.64949,0.229236,0.257376,22.4895,0.0429081,
2,1,0,1,0,38583.6,0.0447472,0.0444469,2.26792,20,0.00178876,10,0.000100802,-2.64437,0.238558,0.247319,21.9454,0.0444469,
2,1,0,1,0,38583.7,0.0462427,0.045963,2.30121,20,0.0018749,10,0.00010577,-2.63804,0.219343,0.268984,24.2039,0.045963,
2,1,0,1,0,38583.7,0.0477382,0.0474717,2.33879,20,0.00196236,10,0.000111026,-2.63101,0.226189,0.260844,23.8051,0.0474717,
2,1,0,1,0,38583.7,0.0492417,0.0489201,2.37399,20,0.0020516,10,0.000116136,-2.62452,0.259402,0.227446,21.0239,0.0489201,
2,1,0,1,0,38583.8,0.0507381,0.0504181,2.40394,20,0.00214152,10,0.000121202,-2.61908,0.264326,0.223209,20.9248,0.0504181,
2,1,0,1,0,38583.8,0.0522345,0.0519594,2.43766,20,0.00223261,10,0.000126659,-2.61303,0.243382,0.242418,23.0398,0.0519594,
2,1,0,1,0,38583.8,0.0537345,0.0534092,2.47549,20,0.00232527,10,0.000132214,-2.60634,0.260721,0.226295,21.7917,0.0534092,
2,1,0,1,0,38583.9,0.0552345,0.054896,2.50118,20,0.00241916,10,0.000137305,-2.60186,0.298012,0.197979,19.306,0.054896,
2,1,0,1,0,38583.9,0.0567309,0.0564138,2.52707,20,0.00251394,10,0.000142562,-2.59738,0.280744,0.210156,20.787,0.0564138,
2,1,0,1,0,38584,0.0582273,0.0578954,2.56235,20,0.00260973,10,0.000148348,-2.59136,0.290817,0.202877,20.3165,0.0578954,
2,1,0,1,0,38584,0.0597308,0.0594423,2.59435,20,0.00270725,10,0.000154214,-2.58597,0.290264,0.203263,20.5456,0.0594423,
2,1,0,1,0,38584,0.0612264,0.0609196,2.62472,20,0.00280541,10,0.000159897,-2.58092,0.320478,0.1841,18.8112,0.0609196,
2,1,0,1,0,38584.1,0.0627219,0.0624041,2.65448,20,0.00290464,10,0.00016565,-2.57602,0.325339,0.181349,18.7335,0.0624041,
2,1,0,1,0,38584.1,0.0642218,0.0638921,2.67713,20,0.00300508,10,0.000171047,-2.57233,0.316414,0.186465,19.4822,0.0638921,
2,1,0,1,0,38584.1,0.0657218,0.0654087,2.70499,20,0.00310662,10,0.00017693,-2.56783,0.304215,0.193942,20.4742,0.0654087,
2,1,0,1,0,38584.2,0.0672182,0.0669304,2.7342,20,0.00320905,10,0.000183001,-2.56317,0.323126,0.182591,19.4816,0.0669304,
2,1,0,1,0,38584.2,0.0687146,0.0684001,2.76017,20,0.00331252,10,0.000188796,-2.55906,0.409253,0.144165,15.5366,0.0684001,
2,1,0,1,0,38584.3,0.0702146,0.0698761,2.78341,20,0.00341711,10,0.000194494,-2.55542,0.400998,0.147133,16.0148,0.0698761,
2,1,0,1,0,38584.3,0.0717146,0.0713576,2.81102,20,0.00352258,10,0.000200588,-2.55114,0.376189,0.156836,17.193,0.0713576,
2,1,0,1,0,38584.3,0.073211,0.072864,2.83623,20,0.00362877,10,0.000206659,-2.54726,0.414036,0.1425,15.7552,0.072864,
2,1,0,1,0,38584.4,0.0747074,0.0743933,2.86124,20,0.00373587,10,0.000212857,-2.54345,0.463332,0.127339,14.1794,0.0743933,
2,1,0,1,0,38584.4,0.0762109,0.0758765,2.87776,20,0.00384433,10,0.000218355,-2.54094,0.461184,0.127932,14.3692,0.0758765,
2,1,0,1,0,38584.4,0.0777064,0.0773807,2.89728,20,0.00395297,10,0.000224193,-2.53801,0.440455,0.133952,15.1699,0.0773807,
2,1,0,1,0,38584.5,0.079202,0.0788843,2.92018,20,0.00406243,10,0.000230357,-2.53459,0.470342,0.125441,14.2975,0.0788843,
2,1,0,1,0,38584.5,0.0807019,0.0803836,2.93641,20,0.00417301,10,0.000236039,-2.53218,0.534106,0.110465,12.6759,0.0803836,
2,1,0,1,0,38584.5,0.0822019,0.0818577,2.95595,20,0.0042843,10,0.000241967,-2.5293,0.537334,0.109801,12.6967,0.0818577,
2,1,0,1,0,38584.6,0.0836983,0.0833567,2.97853,20,0.0043959,10,0.000248281,-2.526,0.496193,0.118905,13.8355,0.0833567,
2,1,0,1,0,38584.6,0.0851947,0.0848767,3.0012,20,0.00450832,10,0.000254732,-2.52271,0.508983,0.115917,13.5569,0.0848767,
2,1,0,1,0,38584.7,0.0866947,0.0863187,3.01978,20,0.00462182,10,0.000260664,-2.52002,0.585419,0.100783,11.8622,0.0863187,
2,1,0,1,0,38584.7,0.0881947,0.0878756,3.04522,20,0.00473604,10,0.000267601,-2.51638,0.56537,0.104356,12.3689,0.0878756,
2,1,0,1,0,38584.7,0.0896911,0.0893665,3.06042,20,0.00485063,10,0.000273499,-2.51422,0.473598,0.124578,14.8897,0.0893665,
2,1,0,1,0,38584.8,0.0911875,0.090864,3.07981,20,0.00496607,10,0.000279844,-2.51148,0.394079,0.149716,18.0381,0.09086398,
2,1,0,1,0,38584.8,0.0926901,0.092347,3.10966,20,0.00508315,10,0.000287168,-2.50729,0.347795,0.16964,20.6087,0.092347,
2,1,0,1,0,38584.8,0.0941856,0.0938682,3.13759,20,0.00520063,10,0.00029452,-2.5034,0.394021,0.149738,18.3518,0.0938682,
2,1,0,1,0,38584.9,0.095682,0.0953676,3.1664,20,0.00531912,10,0.000301972,-2.49943,0.342666,0.172179,21.3036,0.0953676,
2,1,0,1,0,38584.9,0.097182,0.0968474,3.20291,20,0.00543915,10,0.000310193,-2.49446,0.289453,0.203833,25.4847,0.0968474,
2,1,0,1,0,38585,0.098682,0.0983706,3.24473,20,0.00556061,10,0.000319186,-2.48882,0.277896,0.21231,26.8324,0.0983706,
2,1,0,1,0,38585,0.100178,0.0998604,3.28545,20,0.00568322,10,0.000328086,-2.48341,0.270726,0.217933,27.9065,0.0998604,
2,1,0,1,0,38585,0.101675,0.101328,3.322,20,0.00580741,10,0.000336613,-2.4786,0.251401,0.234685,30.4872,0.101328,
2,1,0,1,0,38585.1,0.103175,0.102845,3.372,20,0.0059336,10,0.000346792,-2.47211,0.221766,0.266046,35.1186,0.102845,
2,1,0,1,0,38585.1,0.104675,0.104379,3.42646,20,0.00606172,10,0.000357649,-2.46515,0.227207,0.259675,34.7709,0.104379,
2,1,0,1,0,38585.1,0.106171,0.105832,3.48601,20,0.00619161,10,0.000368933,-2.45767,0.220284,0.267836,36.3695,0.105832,
2,1,0,1,0,38585.2,0.107667,0.107324,3.5376,20,0.00632352,10,0.000379668,-2.45129,0.218015,0.270623,37.3575,0.107324,
2,1,0,1,0,38585.2,0.10917,0.108859,3.59522,20,0.00645815,10,0.000391372,-2.44427,0.207319,0.284585,39.9366,0.108859,
2,1,0,1,0,38585.3,0.110666,0.11033,3.65426,20,0.00659429,10,0.000403177,-2.4372,0.210395,0.280426,39.9394,0.11033,
2,1,0,1,0,38585.3,0.112162,0.111863,3.71433,20,0.00673274,10,0.000415498,-2.43012,0.2323,0.253982,36.7319,0.111863,
2,1,0,1,0,38585.3,0.113662,0.113364,3.7692,20,0.00687366,10,0.000427293,-2.42375,0.24154,0.244266,35.9071,0.113364,
2,1,0,1,0,38585.4,0.115162,0.114852,3.81992,20,0.00701659,10,0.000438726,-2.41795,0.255129,0.231256,34.4841,0.114852,
2,1,0,1,0,38585.4,0.116658,0.116303,3.87092,20,0.00716113,10,0.000450198,-2.41219,0.263806,0.22365,33.8089,0.116303,
2,1,0,1,0,38585.4,0.118155,0.117857,3.92809,20,0.00730761,10,0.000462954,-2.40582,0.278903,0.211543,32.3667,0.117857,
2,1,0,1,0,38585.5,0.119655,0.119346,3.97088,20,0.00745626,10,0.000473908,-2.40111,0.356312,0.165585,25.6085,0.1193458,
2,1,0,1,0,38585.5,0.121155,0.120851,4.00568,20,0.00760641,10,0.000484091,-2.39732,0.37148,0.158824,24.8102,0.120851,
2,1,0,1,0,38585.6,0.122651,0.122316,4.04639,20,0.0077575,10,0.000494937,-2.39293,0.377685,0.156215,24.6284,0.122316,
2,1,0,1,0,38585.6,0.124147,0.123822,4.078,20,0.00790994,10,0.000504945,-2.38955,0.44874,0.131479,20.8949,0.123822,
2,1,0,1,0,38585.6,0.12565,0.12534,4.10691,20,0.00806443,10,0.00051476,-2.38648,0.501922,0.117548,18.8134,0.12534,
2,1,0,1,0,38585.7,0.127146,0.126811,4.12395,20,0.00821906,10,0.000522962,-2.38469,0.56192,0.104997,16.9264,0.126811,
2,1,0,1,0,38585.7,0.128642,0.128333,4.14891,20,0.00837454,10,0.000532444,-2.38207,0.632057,0.093346,15.1405,0.128333,
2,1,0,1,0,38585.7,0.130142,0.12981,4.17627,20,0.0085314,10,0.000542124,-2.37921,0.66874,0.0882256,14.3808,0.1298105,
2,1,0,1,0,38585.8,0.131642,0.131319,4.19797,20,0.00868906,10,0.000551273,-2.37696,0.837156,0.0704767,11.5289,0.131319,
2,1,0,1,0,38585.8,0.133139,0.132838,4.21602,20,0.00884701,10,0.000560047,-2.3751,0.940887,0.0627068,10.2986,0.1328377,
2,1,0,1,0,38585.9,0.134635,0.134293,4.22968,20,0.0090054,10,0.000568017,-2.37369,1.36319,0.0432808,7.13847,0.134293,
2,1,0,1,0,38585.9,0.136135,0.135822,4.23909,20,0.00916478,10,0.00057576,-2.37273,1.50022,0.0393275,6.50079,0.135822,
2,1,0,1,0,38585.9,0.137635,0.137347,4.24779,20,0.00932453,10,0.000583421,-2.37184,5.92366,0.00996006,1.64802,0.137347,
2,1,0,1,0,38586,0.13913,0.138788,4.2443,20,0.00948406,10,0.000589058,-2.37219,-2.62898,-0.0224421,-3.71361,0.138788,
2,1,0,1,0,38586,0.140626,0.1403,4.22981,20,0.00964324,10,0.000593442,-2.37368,-0.78199,-0.0754485,-12.4491,0.1403,
2,1,0,1,0,38586,0.142129,0.141803,4.21386,20,0.00980268,10,0.000597537,-2.37532,-0.52159,-0.113116,-18.5408,0.141803,
2,1,0,1,0,38586.1,0.143626,0.143301,4.17802,20,0.00996026,10,0.000598716,-2.37903,-0.336001,-0.175595,-28.524,0.143301,
2,1,0,1,0,38586.1,0.145122,0.144793,4.12881,20,0.0101162,10,0.000597824,-2.38418,-0.222375,-0.265318,-42.5217,0.144793,
2,1,0,1,0,38586.2,0.146622,0.146276,4.055,20,0.0102703,10,0.000593148,-2.39201,-0.176025,-0.335179,-52.7991,0.146276,
2,1,0,1,0,38586.2,0.148122,0.147815,3.96449,20,0.0104212,10,0.000586011,-2.40181,-0.145667,-0.405033,-62.438,0.147815,
2,1,0,1,0,38586.2,0.149619,0.149304,3.85979,20,0.0105682,10,0.000576282,-2.41344,-0.117902,-0.500414,-75.1841,0.149304,
2,1,0,1,0,38586.3,0.151115,0.15078,3.73901,20,0.0107111,10,0.00056377,-2.42724,-0.101798,-0.579579,-84.3326,0.15078,
2,1,0,1,0,38586.3,0.152615,0.152313,3.60335,20,0.0108495,10,0.000548836,-2.44329,-0.0909024,-0.649048,-91.2009,0.152313,
2,1,0,1,0,38586.3,0.154115,0.153763,3.46799,20,0.0109827,10,0.00053325,-2.45992,-0.0866573,-0.680843,-92.0569,0.153763,
2,1,0,1,0,38586.4,0.155611,0.155306,3.32739,20,0.0111103,10,0.000516762,-2.4779,-0.0819326,-0.720104,-93.4081,0.155306,
2,1,0,1,0,38586.4,0.157106,0.156779,3.18888,20,0.0112327,10,0.000499949,-2.49636,-0.0786562,-0.7501,-93.1047,0.156779,
2,1,0,1,0,38586.5,0.15861,0.158275,3.04685,20,0.0113504,10,0.000482241,-2.51615,-0.0783958,-0.752591,-89.6316,0.158275,
2,1,0,1,0,38586.5,0.160106,0.159768,2.9162,20,0.0114624,10,0.000465917,-2.53518,-0.0810429,-0.728009,-83.1238,0.159768,
2,1,0,1,0,38586.5,0.161602,0.161298,2.79953,20,0.0115699,10,0.000451559,-2.55291,-0.0851823,-0.692632,-75.8465,0.161298,
2,1,0,1,0,38586.6,0.163102,0.162748,2.68726,20,0.0116734,10,0.000437348,-2.57069,-0.0894094,-0.659886,-69.533,0.1627485,
2,1,0,1,0,38586.6,0.164602,0.164282,2.59287,20,0.0117731,10,0.000425963,-2.58622,-0.0964156,-0.611934,-62.1851,0.164282,
2,1,0,1,0,38586.6,0.166099,0.165752,2.502,20,0.0118689,10,0.000414712,-2.60171,-0.10422,-0.566108,-55.5436,0.165752,
2,1,0,1,0,38586.7,0.167595,0.167264,2.43142,20,0.0119617,10,0.000406688,-2.61414,-0.118007,-0.499969,-47.4651,0.167264,
2,1,0,1,0,38586.7,0.169095,0.168768,2.36358,20,0.0120522,10,0.000398897,-2.62643,-0.123051,-0.479477,-44.2393,0.168768,
2,1,0,1,0,38586.8,0.170595,0.170256,2.29728,20,0.0121401,10,0.000391126,-2.63879,-0.131413,-0.448968,-40.3886,0.170256,
2,1,0,1,0,38586.8,0.172091,0.171807,2.24298,20,0.0122256,10,0.000385359,-2.64917,-0.148154,-0.398233,-34.9649,0.171807,
2,1,0,1,0,38586.8,0.173586,0.173226,2.1953,20,0.0123092,10,0.000380282,-2.65851,-0.165237,-0.357063,-30.6405,0.173226,
2,1,0,1,0,38586.9,0.17509,0.174764,2.14489,20,0.0123914,10,0.00037485,-2.66859,-0.181191,-0.325624,-27.3824,0.174764,
2,1,0,1,0,38586.9,0.176586,0.176294,2.11075,20,0.0124717,10,0.000372112,-2.67556,-0.19891,-0.296617,-24.4621,0.176294,
2,1,0,1,0,38586.9,0.178083,0.177809,2.07486,20,0.0125506,10,0.000368929,-2.68301,-0.206891,-0.285175,-23.1586,0.177809,
2,1,0,1,0,38587,0.179582,0.179235,2.05047,20,0.0126284,10,0.000367515,-2.68815,-0.242689,-0.24311,-19.4329,0.179235,
2,1,0,1,0,38587,0.181082,0.180759,2.0228,20,0.0127052,10,0.000365639,-2.69405,-0.27553,-0.214132,-16.8913,0.180759,
2,1,0,1,0,38587.1,0.182579,0.182281,1.99735,20,0.0127809,10,0.00036408,-2.69955,-0.266877,-0.221076,-17.2275,0.182281,
2,1,0,1,0,38587.1,0.184075,0.183781,1.97634,20,0.0128558,10,0.000363213,-2.70414,-0.311013,-0.189703,-14.6296,0.183781,
2,1,0,1,0,38587.1,0.185579,0.185281,1.9505,20,0.0129301,10,0.000361389,-2.70986,-0.367473,-0.160556,-12.2574,0.185281,
2,1,0,1,0,38587.2,0.187074,0.186783,1.9331,20,0.0130034,10,0.00036107,-2.71375,-0.424854,-0.138871,-10.503,0.186783,
2,1,0,1,0,38587.2,0.18857,0.188267,1.91736,20,0.013076,10,0.000360975,-2.7173,-0.468574,-0.125914,-9.43894,0.188267,
2,1,0,1,0,38587.2,0.19007,0.189743,1.90359,20,0.0131483,10,0.000361192,-2.72043,-0.46374,-0.127227,-9.44905,0.189743,
2,1,0,1,0,38587.3,0.19157,0.191212,1.88834,20,0.01322,10,0.000361073,-2.72392,-0.503602,-0.117156,-8.63581,0.1912118,
2,1,0,1,0,38587.3,0.193066,0.192756,1.87947,20,0.013291,10,0.00036228,-2.72596,-0.657843,-0.0896871,-6.56445,0.192756,
2,1,0,1,0,38587.4,0.194563,0.194208,1.86568,20,0.0133616,10,0.00036233,-2.72916,-0.518687,-0.113749,-8.27611,0.194208,
2,1,0,1,0,38587.4,0.196063,0.195774,1.85534,20,0.013432,10,0.000363227,-2.73158,-0.539319,-0.109397,-7.92371,0.195774,
2,1,0,1,0,38587.4,0.197563,0.197268,1.84148,20,0.013502,10,0.000363265,-2.73483,-0.611014,-0.0965607,-6.96534,0.197268,
2,1,0,1,0,38587.5,0.199059,0.198718,1.83077,20,0.0135714,10,0.000363807,-2.73737,-0.603677,-0.0977345,-7.01318,0.198718,
2,1,0,1,0,38587.5,0.200555,0.200241,1.82902,20,0.0136405,10,0.000366245,-2.73778,-0.670082,-0.0880489,-6.27443,0.200241,
2,1,0,1,0,38587.5,0.202059,0.201764,1.82091,20,0.0137096,10,0.000367395,-2.73971,-0.767488,-0.0768742,-5.45097,0.201764,
2,1,0,1,0,38587.6,0.203554,0.203227,1.81173,20,0.0137781,10,0.000368193,-2.74191,-0.706981,-0.0834534,-5.89423,0.203227,
2,1,0,1,0,38587.6,0.20505,0.204728,1.80483,20,0.0138463,10,0.0003695,-2.74356,-2.56778,-0.0229771,-1.62058,0.204728,
2,1,0,1,0,38587.7,0.20655,0.206268,1.80049,20,0.0139144,10,0.000371385,-2.74461,-1.09227,-0.0540161,-3.79175,0.206268,
2,1,0,1,0,38587.7,0.20805,0.207729,1.79075,20,0.0139825,10,0.000371991,-2.74697,-1.08595,-0.0543304,-3.80055,0.207729,
2,1,0,1,0,38587.7,0.209546,0.209247,1.78507,20,0.0140501,10,0.000373521,-2.74835,-0.686911,-0.0858917,-5.99773,0.209247,
2,1,0,1,0,38587.8,0.211043,0.210708,1.7743,20,0.0141173,10,0.00037386,-2.75097,-0.877272,-0.0672539,-4.68216,0.210708,
2,1,0,1,0,38587.8,0.212543,0.212243,1.77421,20,0.0141845,10,0.000376563,-2.751,-1.68213,-0.0350746,-2.43342,0.212243,
2,1,0,1,0,38587.8,0.214043,0.213707,1.77148,20,0.0142516,10,0.000378579,-2.75166,-1.61548,-0.0365217,-2.51965,0.213707,
2,1,0,1,0,38587.9,0.215539,0.215201,1.76774,20,0.0143183,10,0.000380418,-2.75258,-1.16344,-0.0507116,-3.4906,0.215201,
2,1,0,1,0,38587.9,0.217035,0.216687,1.76137,20,0.0143848,10,0.000381667,-2.75415,-1.3246,-0.0445419,-3.05638,0.216687,
2,1,0,1,0,38588,0.218538,0.218195,1.75576,20,0.0144514,10,0.000383098,-2.75553,-6.24439,-0.00944848,-0.646713,0.218195,
2,1,0,1,0,38588,0.220034,0.219704,1.75138,20,0.0145176,10,0.000384785,-2.75662,-1.99418,-0.0295861,-2.02552,0.219704,
2,1,0,1,0,38588,0.22153,0.221219,1.74451,20,0.0145838,10,0.000385919,-2.75833,-1.11458,-0.0529347,-3.61502,0.221219,
2,1,0,1,0,38588.1,0.22303,0.222734,1.73779,20,0.0146498,10,0.000387066,-2.76,-1.57465,-0.0374686,-2.55425,0.222734,
2,1,0,1,0,38588.1,0.22453,0.224214,1.74018,20,0.0147156,10,0.000390173,-2.7594,-1.71097,-0.0344834,-2.34222,0.224214,
2,1,0,1,0,38588.1,0.226026,0.225753,1.73411,20,0.0147812,10,0.00039148,-2.76092,-2.0467,-0.0288269,-1.95032,0.225753,
2,1,0,1,0,38588.2,0.227523,0.227209,1.73145,20,0.0148467,10,0.0003934,-2.76159,-1.43765,-0.0410393,-2.76842,0.227209,
2,1,0,1,0,38588.2,0.229023,0.228719,1.72987,20,0.0149122,10,0.000395654,-2.76199,-1.49315,-0.0395139,-2.66462,0.228719,
2,1,0,1,0,38588.3,0.230523,0.230183,1.7259,20,0.0149775,10,0.000397272,-2.76299,-1.73308,-0.0340434,-2.29291,0.230183,
2,1,0,1,0,38588.3,0.232019,0.231742,1.72141,20,0.0150425,10,0.000398921,-2.76412,-3.21359,-0.0183596,-1.23454,0.231742,
2,1,0,1,0,38588.3,0.233515,0.233169,1.71549,20,0.0151075,10,0.000399997,-2.76561,-1.25326,-0.0470772,-3.15669,0.233169,
2,1,0,1,0,38588.4,0.235018,0.2347,1.71416,20,0.0151727,10,0.000402313,-2.76595,-1.859,-0.0317374,-2.12715,0.2347,
2,1,0,1,0,38588.4,0.236514,0.236161,1.70935,20,0.0152373,10,0.000403681,-2.76717,-2.67359,-0.0220677,-1.47722,0.236161,
2,1,0,1,0,38588.4,0.23801,0.237675,1.71134,20,0.0153019,10,0.000406743,-2.76666,-2.30813,-0.0255618,-1.70418,0.237675,
2,1,0,1,0,38588.5,0.23951,0.23924,1.71209,20,0.0153665,10,0.000409601,-2.76647,-1.90735,-0.030933,-2.05838,0.23924,
2,1,0,1,0,38588.5,0.24101,0.240727,1.70485,20,0.0154311,10,0.000410403,-2.76831,-1.28556,-0.0458945,-3.04338,0.240727,
2,1,0,1,0,38588.6,0.242506,0.242175,1.69404,20,0.0154953,10,0.000410253,-2.77108,-1.5929,-0.0370393,-2.45981,0.242175,
2,1,0,1,0,38588.6,0.244003,0.243697,1.69496,20,0.0155594,10,0.000413057,-2.77084,7.01025,0.00841625,0.558459,0.243697,
2,1,0,1,0,38588.6,0.245503,0.245195,1.6995,20,0.0156237,10,0.000416708,-2.76968,-2.61692,-0.0225456,-1.494,0.245195,
2,1,0,1,0,38588.7,0.247003,0.246682,1.69028,20,0.0156879,10,0.000416963,-2.77204,-1.50932,-0.0390905,-2.583,0.246682,
2,1,0,1,0,38588.7,0.248499,0.248157,1.68583,20,0.0157518,10,0.000418351,-2.77319,-1.81561,-0.032496,-2.14251,0.248157,
2,1,0,1,0,38588.7,0.249995,0.249658,1.69099,20,0.0158155,10,0.000422169,-2.77186,-2.08513,-0.0282956,-1.86233,0.249658,
2,1,0,1,0,38588.8,0.251498,0.2512,1.68895,20,0.0158795,10,0.000424265,-2.77238,-2.5239,-0.0233765,-1.53554,0.2512,
2,1,0,1,0,38588.8,0.252994,0.25267,1.68139,20,0.0159431,10,0.000424837,-2.77433,-1.46282,-0.0403331,-2.64472,0.25267,
2,1,0,1,0,38588.9,0.25449,0.2542,1.67745,20,0.0160066,10,0.000426408,-2.77535,-1.59985,-0.0368784,-2.41752,0.2542,
2,1,0,1,0,38588.9,0.25599,0.255672,1.67357,20,0.01607,10,0.000427884,-2.77636,-5.59635,-0.0105426,-0.692243,0.2556721,
2,1,0,1,0,38588.9,0.25749,0.257187,1.67185,20,0.0161335,10,0.000429978,-2.7768,-7.85399,-0.0075121,-0.491578,0.257187,
2,1,0,1,0,38589,0.258987,0.258684,1.67376,20,0.0161967,10,0.000432974,-2.77631,-4.68892,-0.0125829,-0.822121,0.258684,
2,1,0,1,0,38589,0.260483,0.260189,1.67151,20,0.0162599,10,0.000434908,-2.77689,-1.52777,-0.0386184,-2.51922,0.260189,
2,1,0,1,0,38589,0.261983,0.261641,1.66614,20,0.0163231,10,0.000435932,-2.77829,-2.29624,-0.0256942,-1.67057,0.261641,
2,1,0,1,0,38589.1,0.263483,0.263191,1.66881,20,0.0163862,10,0.000439217,-2.77759,-11.2687,-0.00523575,-0.339926,0.263191,
2,1,0,1,0,38589.1,0.264978,0.264622,1.666,20,0.016449,10,0.000440862,-2.77832,-3.24462,-0.018184,-1.18,0.264622,
2,1,0,1,0,38589.2,0.266474,0.266182,1.66229,20,0.0165118,10,0.000442471,-2.77929,-2.1936,-0.0268965,-1.74523,0.266182,
2,1,0,1,0,38589.2,0.267977,0.267648,1.65158,20,0.0165748,10,0.000442041,-2.7821,-3.62301,-0.0162848,-1.0559,0.267648,
2,1,0,1,0,38589.2,0.269474,0.269147,1.65382,20,0.0166373,10,0.00044512,-2.78151,-2.99422,-0.0197046,-1.27454,0.269147,
2,1,0,1,0,38589.3,0.27097,0.270637,1.65469,20,0.0166998,10,0.00044782,-2.78128,-1.6223,-0.0363682,-2.34813,0.270637,
2,1,0,1,0,38589.3,0.27247,0.272099,1.65195,20,0.0167625,10,0.000449493,-2.782,-1.36658,-0.0431734,-2.78148,0.2720989,
2,1,0,1,0,38589.3,0.27397,0.273658,1.64812,20,0.0168249,10,0.00045102,-2.78301,-1.44771,-0.040754,-2.61849,0.2736581,
2,1,0,1,0,38589.4,0.275467,0.275208,1.6482,20,0.016887,10,0.000453599,-2.78299,-1.79854,-0.0328044,-2.10463,0.275208,
2,1,0,1,0,38589.4,0.276963,0.276656,1.64528,20,0.0169491,10,0.000455178,-2.78376,-3.35945,-0.0175624,-1.12607,0.276656,
2,1,0,1,0,38589.5,0.278463,0.278131,1.64199,20,0.0170113,10,0.000456687,-2.78463,-2.37867,-0.0248038,-1.58773,0.278131,
2,1,0,1,0,38589.5,0.279963,0.279633,1.63706,20,0.0170734,10,0.000457777,-2.78593,-1.82947,-0.0322497,-2.06304,0.279633,
2,1,0,1,0,38589.5,0.281459,0.281158,1.62924,20,0.0171352,10,0.000458074,-2.78801,-2.15639,-0.0273606,-1.75021,0.281158,
2,1,0,1,0,38589.6,0.282954,0.282643,1.63289,20,0.0171968,10,0.000461527,-2.78704,-1.6094,-0.0366596,-2.33713,0.282643,
2,1,0,1,0,38589.6,0.284458,0.284151,1.63319,20,0.0172588,10,0.000464074,-2.78696,-2.49303,-0.023666,-1.50419,0.284151,
2,1,0,1,0,38589.6,0.285954,0.285659,1.62774,20,0.0173203,10,0.00046498,-2.78841,-1.75969,-0.0335286,-2.12579,0.285659,
2,1,0,1,0,38589.7,0.28745,0.287123,1.62488,20,0.0173817,10,0.000466541,-2.78918,-2.33519,-0.0252657,-1.5996,0.2871235,
2,1,0,1,0,38589.7,0.28895,0.288619,1.62035,20,0.0174431,10,0.000467664,-2.79039,208.827,0.000282531,0.0178606,0.288619,
2,1,0,1,0,38589.8,0.29045,0.290142,1.61546,20,0.0175044,10,0.000468713,-2.7917,-2.83653,-0.0208001,-1.31378,0.290142,
2,1,0,1,0,38589.8,0.291947,0.291615,1.6151,20,0.0175655,10,0.000470987,-2.7918,-1.09364,-0.0539483,-3.40527,0.291615,
2,1,0,1,0,38589.8,0.293443,0.293106,1.60565,20,0.0176264,10,0.000470624,-2.79435,-1.47885,-0.0398958,-2.51371,0.293106,
2,1,0,1,0,38589.9,0.294943,0.294601,1.60642,20,0.0176874,10,0.000473253,-2.79414,-1.89529,-0.0311297,-1.95479,0.294601,
2,1,0,1,0,38589.9,0.296443,0.296118,1.61196,20,0.0177483,10,0.00047733,-2.79265,-2.82052,-0.0209181,-1.30885,0.296118,
2,1,0,1,0,38589.9,0.297939,0.297632,1.6035,20,0.017809,10,0.000477253,-2.79493,-1.1191,-0.0527208,-3.29356,0.297632,
2,1,0,1,0,38590,0.299434,0.299132,1.60208,20,0.0178695,10,0.000479234,-2.79532,-0.0160937,-3.66603,-196.851,0.299132,
2,1,0,0,0,38590,0.299962,0.299556,1.52726,20,0.0178933,10,0.000457499,-2.81609,0.00103072,57.2413,1695.55,0.2995556,
2,1,0,1,0,38590,0.298689,0.298393,0.480641,20,0.0179207,10,0.00014342,-3.31818,0.00239513,24.6333,498.55,0.298393,
2,1,0,1,0,38590.1,0.297189,0.296874,0.0245101,20,0.0179283,10,7.27641e-06,-4.61066,0.00814515,7.24358,248.295,0.296874,
2,0,0,1,0,38590.1,0.295692,0.295385,-0.191759,20,0.017924,10,-5.66426e-05,-3.71724,-0.00946901,-6.23085,121.532,0.295385,
2,0,0,1,0,38590.1,0.294196,0.293875,-0.315802,20,0.0179136,10,-9.28062e-05,-3.50059,-0.00838562,-7.03585,70.5842,0.293875,
2,0,0,1,0,38590.2,0.292696,0.292369,-0.39967,20,0.0178994,10,-0.000116851,-3.3983,-0.0171743,-3.43537,49.53,0.292369,
2,0,0,1,0,38590.2,0.291196,0.290883,-0.458262,20,0.0178825,10,-0.0001333,-3.33889,-0.0270872,-2.17815,37.788,0.290883,
2,0,0,1,0,38590.3,0.2897,0.289385,-0.511189,20,0.0178638,10,-0.00014793,-3.29142,-0.0375384,-1.57172,30.4156,0.2893852,
2,0,0,1,0,38590.3,0.288205,0.287891,-0.548118,20,0.0178433,10,-0.000157799,-3.26113,-0.0503866,-1.17095,24.7214,0.287891,
2,0,0,1,0,38590.3,0.286701,0.286375,-0.582476,20,0.0178213,10,-0.000166807,-3.23472,-0.0602845,-0.978692,22.185,0.286375,
2,0,0,1,0,38590.4,0.285205,0.284887,-0.61136,20,0.0177982,10,-0.000174168,-3.2137,-0.0714412,-0.825854,19.7727,0.284887,
2,0,0,1,0,38590.4,0.283708,0.283384,-0.642198,20,0.017774,10,-0.000181989,-3.19233,-0.080141,-0.736202,18.4757,0.283384,
2,0,0,1,0,38590.4,0.282208,0.281919,-0.665085,20,0.0177487,10,-0.0001875,-3.17712,-0.101227,-0.582849,15.1312,0.281919,
2,0,0,1,0,38590.5,0.280709,0.280375,-0.687881,20,0.0177225,10,-0.000192864,-3.16249,-0.104944,-0.562206,15.1952,0.280375,
2,0,0,1,0,38590.5,0.279212,0.278898,-0.711678,20,0.0176956,10,-0.000198486,-3.14772,-0.113379,-0.520378,14.4952,0.2788983,
2,0,0,1,0,38590.6,0.277716,0.277417,-0.737759,20,0.0176678,10,-0.000204667,-3.13209,-0.11144,-0.529434,15.0442,0.277417,
2,0,0,1,0,38590.6,0.276216,0.275931,-0.757063,20,0.0176392,10,-0.000208897,-3.12087,-0.129263,-0.456434,13.3824,0.275931,
2,0,0,1,0,38590.6,0.274716,0.274422,-0.769772,20,0.0176099,10,-0.000211243,-3.11364,-0.153802,-0.38361,11.5448,0.274422,
2,0,0,1,0,38590.7,0.27322,0.272876,-0.787612,20,0.0175801,10,-0.000214921,-3.10369,-0.164661,-0.358312,11.0541,0.2728762,
2,0,0,1,0,38590.7,0.271725,0.271425,-0.803165,20,0.0175496,10,-0.000217999,-3.0952,-0.141423,-0.417188,13.1383,0.271425,
2,0,0,1,0,38590.7,0.270221,0.269893,-0.824812,20,0.0175183,10,-0.000222611,-3.08365,-0.168126,-0.350928,11.2825,0.269893,
2,0,0,1,0,38590.8,0.268725,0.268419,-0.838472,20,0.0174865,10,-0.000225062,-3.07651,-0.205717,-0.286802,9.37701,0.268419,
2,0,0,1,0,38590.8,0.267228,0.266899,-0.85387,20,0.0174542,10,-0.000227897,-3.06861,-0.199911,-0.295132,9.78657,0.266899,
2,0,0,1,0,38590.9,0.265728,0.265434,-0.872151,20,0.0174213,10,-0.000231499,-3.05941,-0.18353,-0.321473,10.849,0.265434,
2,0,0,1,0,38590.9,0.264228,0.263916,-0.881319,20,0.0173878,10,-0.000232594,-3.05487,-0.208528,-0.282935,9.71627,0.263916,
2,0,0,1,0,38590.9,0.262732,0.262388,-0.895989,20,0.0173539,10,-0.000235096,-3.0477,-0.280685,-0.2102,7.34446,0.262388,
2,0,0,1,0,38591,0.261236,0.260882,-0.902965,20,0.0173196,10,-0.000235567,-3.04433,-0.241084,-0.244728,8.68151,0.260882,
2,0,0,1,0,38591,0.259736,0.259424,-0.917882,20,0.0172847,10,-0.00023812,-3.03721,-0.240007,-0.245826,8.88176,0.259424,
2,0,0,1,0,38591,0.258236,0.257878,-0.933672,20,0.0172493,10,-0.000240774,-3.02981,-0.235298,-0.250746,9.12654,0.257878,
2,0,0,1,0,38591.1,0.256741,0.256421,-0.944996,20,0.0172135,10,-0.000242317,-3.02457,-0.280775,-0.210133,7.73518,0.256421,
2,0,0,1,0,38591.1,0.255241,0.254913,-0.959148,20,0.0171771,10,-0.000244499,-3.01811,-0.270949,-0.217753,8.10713,0.254913,
2,0,0,1,0,38591.2,0.253741,0.253444,-0.970178,20,0.0171404,10,-0.000245886,-3.01315,-0.319917,-0.184423,6.94632,0.253444,
2,0,0,1,0,38591.2,0.252245,0.251932,-0.979445,20,0.0171033,10,-0.000246753,-3.00902,-0.322495,-0.182949,6.97475,0.251932,
2,0,0,1,0,38591.2,0.250748,0.25044,-0.991939,20,0.0170658,10,-0.000248421,-3.00352,-0.293915,-0.200738,7.77956,0.25044,
2,0,0,1,0,38591.3,0.249248,0.248914,-1.0004,20,0.0170278,10,-0.000249014,-2.99982,-0.346916,-0.17007,6.65013,0.248914,
2,0,0,1,0,38591.3,0.247748,0.247357,-1.00704,20,0.0169894,10,-0.000249099,-2.99695,-0.390835,-0.150959,5.97117,0.247357,
2,0,0,1,0,38591.3,0.246252,0.245891,-1.02075,20,0.0169508,10,-0.000250993,-2.99108,-0.262874,-0.224442,8.95417,0.245891,
2,0,0,1,0,38591.4,0.244756,0.244441,-1.03581,20,0.0169116,10,-0.000253194,-2.98472,-0.327017,-0.180419,7.26401,0.244441,
2,0,0,1,0,38591.4,0.243252,0.242923,-1.04611,20,0.0168719,10,-0.000254125,-2.98042,-0.399677,-0.147619,5.99482,0.242923,
2,0,0,1,0,38591.5,0.241756,0.241453,-1.05245,20,0.016832,10,-0.000254118,-2.9778,-0.374504,-0.157542,6.45792,0.241453,
2,0,0,1,0,38591.5,0.240261,0.239959,-1.06214,20,0.0167918,10,-0.000254871,-2.97382,-0.354153,-0.166594,6.9238,0.239959,
2,0,0,1,0,38591.5,0.238761,0.238431,-1.07351,20,0.016751,10,-0.000255959,-2.96919,-0.353516,-0.166895,6.98436,0.238431,
2,0,0,1,0,38591.6,0.237261,0.236951,-1.08068,20,0.0167099,10,-0.000256069,-2.9663,-0.458723,-0.128618,5.43025,0.236951,
2,0,0,1,0,38591.6,0.235765,0.235437,-1.08774,20,0.0166686,10,-0.000256093,-2.96348,-0.464638,-0.126981,5.42553,0.235437,
2,0,0,1,0,38591.6,0.234268,0.233929,-1.10369,20,0.0166269,10,-0.000258186,-2.95715,-0.366875,-0.160818,6.91344,0.233929,
2,0,0,1,0,38591.7,0.232768,0.232415,-1.11307,20,0.0165848,10,-0.000258693,-2.95348,-0.436336,-0.135217,5.85251,0.232415,
2,0,0,1,0,38591.7,0.231268,0.230952,-1.12519,20,0.0165422,10,-0.000259865,-2.94877,-0.415672,-0.141939,6.1865,0.230952,
2,0,0,1,0,38591.8,0.229772,0.229437,-1.13191,20,0.0164995,10,-0.000259703,-2.94619,-0.488127,-0.12087,5.31233,0.2294369,
2,0,0,1,0,38591.8,0.228275,0.227931,-1.13556,20,0.0164565,10,-0.000258828,-2.94479,-0.43219,-0.136514,6.06691,0.227931,
2,0,0,1,0,38591.8,0.226772,0.226491,-1.14543,20,0.0164128,10,-0.00025943,-2.94103,-0.401064,-0.147109,6.59404,0.226491,
2,0,0,1,0,38591.9,0.225276,0.225023,-1.15397,20,0.0163691,10,-0.00025967,-2.9378,-0.440471,-0.133947,6.05741,0.225023,
2,0,0,1,0,38591.9,0.223781,0.22349,-1.16145,20,0.016325,10,-0.000259572,-2.935,-0.413359,-0.142733,6.50738,0.22349,
2,0,0,1,0,38591.9,0.222281,0.221964,-1.17047,20,0.0162806,10,-0.000259802,-2.93164,-0.391735,-0.150612,6.90112,0.2219637,
2,0,0,1,0,38592,0.220781,0.220524,-1.18466,20,0.0162357,10,-0.000261246,-2.92641,-0.406652,-0.145087,6.69039,0.2205238,
2,0,0,1,0,38592,0.219284,0.218948,-1.19548,20,0.0161906,10,-0.000261749,-2.92246,-0.523765,-0.112646,5.22664,0.218948,
2,0,0,1,0,38592,0.217788,0.217481,-1.20392,20,0.0161451,10,-0.00026183,-2.9194,-0.588153,-0.100314,4.69253,0.217481,
2,0,0,1,0,38592.1,0.216288,0.216031,-1.20392,20,0.0160992,10,-0.000260085,-2.9194,-0.526601,-0.112039,5.28435,0.2160306,
2,0,0,1,0,38592.1,0.214788,0.214495,-1.21617,20,0.0160531,10,-0.000260862,-2.91501,-0.567341,-0.103994,4.95752,0.214495,
2,0,0,1,0,38592.2,0.213292,0.212964,-1.22608,20,0.0160066,10,-0.00026111,-2.91148,-0.429105,-0.137496,6.60771,0.212964,
2,0,0,1,0,38592.2,0.211796,0.211485,-1.237,20,0.0159599,10,-0.000261607,-2.90763,-0.742273,-0.0794856,3.83612,0.211485,
2,0,0,1,0,38592.2,0.210293,0.209935,-1.24555,20,0.0159125,10,-0.000261485,-2.90464,-0.497421,-0.118612,5.77313,0.209935,
2,0,0,1,0,38592.3,0.208797,0.208472,-1.2545,20,0.0158652,10,-0.000261528,-2.90153,-0.39703,-0.148603,7.28895,0.208472,
2,0,0,1,0,38592.3,0.207301,0.206951,-1.26458,20,0.0158174,10,-0.000261705,-2.89806,-0.441241,-0.133714,6.58632,0.206951,
2,0,0,1,0,38592.3,0.205801,0.205422,-1.2768,20,0.015769,10,-0.000262282,-2.89388,-0.487841,-0.120941,6.00254,0.205422,
2,0,0,1,0,38592.4,0.204301,0.203955,-1.28265,20,0.0157204,10,-0.000261603,-2.89189,-0.559208,-0.105506,5.28828,0.203955,
2,0,0,1,0,38592.4,0.202804,0.202511,-1.28798,20,0.0156716,10,-0.000260829,-2.89009,-0.502325,-0.117454,5.93125,0.202511,
2,0,0,1,0,38592.5,0.201308,0.200962,-1.29726,20,0.0156225,10,-0.000260701,-2.88697,-0.42001,-0.140473,7.12848,0.2009622,
2,0,0,1,0,38592.5,0.199808,0.199458,-1.3129,20,0.0155728,10,-0.000261868,-2.88177,-0.435002,-0.135632,6.94317,0.199458,
2,0,0,1,0,38592.5,0.198308,0.19796,-1.32136,20,0.0155228,10,-0.000261576,-2.87898,-0.514525,-0.114669,5.9013,0.19796,
2,0,0,1,0,38592.6,0.196812,0.196469,-1.32608,20,0.0154726,10,-0.000260532,-2.87743,-0.512098,-0.115212,5.96986,0.1964688,
2,0,0,1,0,38592.6,0.195316,0.195005,-1.34054,20,0.0154221,10,-0.000261413,-2.87272,-0.364026,-0.162077,8.45463,0.195005,
2,0,0,1,0,38592.6,0.193813,0.19351,-1.35455,20,0.0153709,10,-0.000262119,-2.86821,-0.431911,-0.136602,7.18917,0.19351,
2,0,0,1,0,38592.7,0.192317,0.191963,-1.35907,20,0.0153195,10,-0.000260891,-2.86676,-0.48416,-0.12186,6.45522,0.1919632,
2,0,0,1,0,38592.7,0.190821,0.190505,-1.36303,20,0.0152678,10,-0.000259665,-2.86549,-0.508949,-0.115925,6.20249,0.190505,
2,0,0,1,0,38592.8,0.189321,0.188962,-1.37935,20,0.0152157,10,-0.000260645,-2.86033,-0.402789,-0.146479,7.91016,0.1889621,
2,0,0,1,0,38592.8,0.187821,0.187498,-1.39114,20,0.0151631,10,-0.000260834,-2.85663,-0.411844,-0.143258,7.7775,0.187498,
2,0,0,1,0,38592.8,0.186324,0.185995,-1.40224,20,0.0151102,10,-0.000260809,-2.85318,-0.602829,-0.0978719,5.33383,0.185995,
2,0,0,1,0,38592.9,0.184828,0.1845,-1.41491,20,0.0150568,10,-0.000261051,-2.84927,-0.497433,-0.118609,6.52964,0.1845,
2,0,0,1,0,38592.9,0.183328,0.182991,-1.42444,20,0.015003,10,-0.00026066,-2.84636,-0.460309,-0.128175,7.13126,0.182991,
2,0,0,1,0,38592.9,0.181828,0.181483,-1.43642,20,0.0149487,10,-0.000260685,-2.84272,-0.430586,-0.137023,7.67599,0.181483,
2,0,0,1,0,38593,0.180332,0.179998,-1.44902,20,0.0148941,10,-0.00026082,-2.83893,-0.412533,-0.143019,8.1038,0.179998,
2,0,0,1,0,38593,0.178836,0.178529,-1.46017,20,0.0148389,10,-0.000260683,-2.8356,-0.395086,-0.149335,8.54135,0.178529,
2,0,0,1,0,38593.1,0.177333,0.177002,-1.47109,20,0.014783,10,-0.000260386,-2.83236,-0.34421,-0.171407,9.89575,0.177002,
2,0,0,1,0,38593.1,0.175837,0.175496,-1.49062,20,0.014727,10,-0.000261597,-2.82663,-0.316976,-0.186134,10.8185,0.175496,
2,0,0,1,0,38593.1,0.174341,0.174006,-1.50681,20,0.0146703,10,-0.000262194,-2.82194,-0.326131,-0.180909,10.6204,0.174006,
2,0,0,1,0,38593.2,0.172841,0.172526,-1.52351,20,0.0146128,10,-0.000262844,-2.81716,-0.383889,-0.15369,9.11309,0.172526,
2,0,0,1,0,38593.2,0.171341,0.171039,-1.53202,20,0.0145549,10,-0.000262035,-2.81474,-0.312922,-0.188546,11.3075,0.171039,
2,0,0,1,0,38593.2,0.169844,0.169513,-1.55194,20,0.0144965,10,-0.000263074,-2.80912,-0.308762,-0.191086,11.5951,0.1695126,
2,0,0,1,0,38593.3,0.168348,0.168055,-1.57247,20,0.0144374,10,-0.00026426,-2.80342,-0.292515,-0.201699,12.3968,0.168055,
2,0,0,1,0,38593.3,0.166848,0.166525,-1.58781,20,0.0143773,10,-0.00026441,-2.7992,-0.296049,-0.199291,12.3995,0.166525,
2,0,0,1,0,38593.4,0.165348,0.165034,-1.61357,20,0.0143166,10,-0.000266292,-2.79221,-0.275164,-0.214417,13.5068,0.165034,
2,0,0,1,0,38593.4,0.163852,0.163521,-1.63113,20,0.0142553,10,-0.000266724,-2.78751,-0.242358,-0.243441,15.5452,0.163521,
2,0,0,1,0,38593.4,0.162357,0.162038,-1.65912,20,0.0141931,10,-0.000268841,-2.78012,-0.214523,-0.275029,17.8062,0.162038,
2,0,0,1,0,38593.5,0.160853,0.16051,-1.6871,20,0.0141296,10,-0.000270796,-2.77286,-0.211067,-0.279532,18.3344,0.16051,
2,0,0,1,0,38593.5,0.159357,0.159007,-1.7137,20,0.0140654,10,-0.00027249,-2.76606,-0.215572,-0.27369,18.2704,0.159007,
2,0,0,1,0,38593.5,0.15786,0.157523,-1.73864,20,0.0140003,10,-0.000273877,-2.75979,-0.208438,-0.283058,19.2704,0.157523,
2,0,0,1,0,38593.6,0.156361,0.156038,-1.77226,20,0.0139337,10,-0.000276539,-2.75147,-0.164856,-0.357888,24.8134,0.156038,
2,0,0,1,0,38593.6,0.154861,0.154536,-1.80682,20,0.0138658,10,-0.000279218,-2.74309,-0.167792,-0.351626,24.9027,0.154536,
2,0,0,1,0,38593.7,0.153364,0.153035,-1.85076,20,0.0137966,10,-0.000283231,-2.73265,-0.163556,-0.360733,26.0876,0.153035,
2,0,0,1,0,38593.7,0.151868,0.151532,-1.88994,20,0.013726,10,-0.000286386,-2.72355,-0.1455,-0.405498,30.0317,0.151532,
2,0,0,1,0,38593.7,0.150368,0.150075,-1.94251,20,0.0136536,10,-0.000291523,-2.71164,-0.124936,-0.472242,35.7713,0.150075,
2,0,0,1,0,38593.8,0.148868,0.148591,-1.99829,20,0.013579,10,-0.000296927,-2.69934,-0.116911,-0.504659,39.2908,0.148591,
2,0,0,1,0,38593.8,0.147372,0.147034,-2.05752,20,0.0135026,10,-0.000302525,-2.68666,-0.114653,-0.514598,41.3248,0.147034,
2,0,0,1,0,38593.8,0.145877,0.145525,-2.11544,20,0.0134239,10,-0.00030785,-2.6746,-0.10247,-0.575778,47.7983,0.145525,
2,0,0,1,0,38593.9,0.144373,0.144087,-2.19136,20,0.0133421,10,-0.000315747,-2.65929,-0.0968177,-0.609393,52.3725,0.144087,
2,0,0,1,0,38593.9,0.142877,0.142575,-2.27309,20,0.0132579,10,-0.000324085,-2.64338,-0.0939684,-0.627871,55.8888,0.142575,
2,0,0,1,0,38594,0.14138,0.141099,-2.36284,20,0.0131704,10,-0.000333394,-2.62657,-0.0916613,-0.643674,59.3776,0.1410989,
2,0,0,1,0,38594,0.13988,0.139559,-2.45637,20,0.0130793,10,-0.000342809,-2.60971,-0.0901361,-0.654566,62.826,0.139559,
2,0,0,1,0,38594,0.13838,0.138072,-2.55651,20,0.0129848,10,-0.000352983,-2.59235,-0.0873407,-0.675515,67.3869,0.138072,
2,0,0,1,0,38594.1,0.136884,0.136559,-2.6626,20,0.0128865,10,-0.000363601,-2.57469,-0.0862198,-0.684298,70.9597,0.136559,
2,0,0,1,0,38594.1,0.135388,0.135068,-2.77068,20,0.0127843,10,-0.00037423,-2.55741,-0.0866776,-0.680684,73.5595,0.135068,
2,0,0,1,0,38594.1,0.133888,0.133539,-2.88251,20,0.0126776,10,-0.000384929,-2.54023,-0.091209,-0.646866,72.6024,0.133539,
2,0,0,1,0,38594.2,0.132389,0.132099,-2.98299,20,0.0125669,10,-0.00039405,-2.52535,-0.093114,-0.633632,74.0074,0.132099,
2,0,0,1,0,38594.2,0.130893,0.130598,-3.09995,20,0.0124523,10,-0.000404847,-2.50864,-0.0950101,-0.620987,75.1331,0.130598,
2,0,0,1,0,38594.3,0.129393,0.129081,-3.21648,20,0.0123331,10,-0.000415185,-2.49262,-0.100498,-0.587078,73.5095,0.129081,
2,0,0,1,0,38594.3,0.127893,0.127582,-3.32338,20,0.0122098,10,-0.000424005,-2.47842,-0.110635,-0.533287,69.0129,0.127582,
2,0,0,1,0,38594.3,0.126397,0.126059,-3.42467,20,0.0120829,10,-0.000431709,-2.46538,-0.118182,-0.499231,66.5658,0.126059,
2,0,0,1,0,38594.4,0.1249,0.124592,-3.52598,20,0.0119523,10,-0.00043931,-2.45272,-0.126037,-0.468115,64.2344,0.124592,
2,0,0,1,0,38594.4,0.1234,0.123074,-3.61785,20,0.0118177,10,-0.000445263,-2.44155,-0.135046,-0.436889,61.5662,0.123074,
2,0,0,1,0,38594.4,0.1219,0.121608,-3.71101,20,0.0116795,10,-0.000451289,-2.43051,-0.149972,-0.393408,56.861,0.121608,
2,0,0,1,0,38594.5,0.120404,0.120111,-3.78781,20,0.0115385,10,-0.000454957,-2.42161,-0.167637,-0.35195,52.02,0.120111,
2,0,0,1,0,38594.5,0.118908,0.118594,-3.86671,20,0.0113946,10,-0.000458569,-2.41266,-0.178748,-0.330074,49.8092,0.118594,
2,0,0,1,0,38594.6,0.117404,0.117075,-3.94266,20,0.011247,10,-0.000461589,-2.40421,-0.195329,-0.302055,46.4131,0.117075,
2,0,0,1,0,38594.6,0.115909,0.115547,-4.00943,20,0.0110975,10,-0.000463276,-2.39692,-0.227183,-0.259702,40.5215,0.115547,
2,0,0,1,0,38594.6,0.114413,0.114089,-4.07215,20,0.0109457,10,-0.000464586,-2.39018,-0.251072,-0.234992,37.2096,0.114089,
2,0,0,1,0,38594.7,0.112913,0.11259,-4.11724,20,0.0107916,10,-0.000463561,-2.38539,-0.291958,-0.202084,32.4165,0.11259,
2,0,0,1,0,38594.7,0.111413,0.11109,-4.16274,20,0.0106357,10,-0.000462438,-2.38062,-0.339745,-0.17366,28.1565,0.1110899,
2,0,0,1,0,38594.7,0.109917,0.10956,-4.1985,20,0.0104786,10,-0.000459985,-2.37691,-0.440891,-0.13382,21.9078,0.10956,
2,0,0,1,0,38594.8,0.10842,0.108076,-4.22614,20,0.0103202,10,-0.000456746,-2.37406,-0.594264,-0.0992825,16.3612,0.108076,
2,0,0,1,0,38594.8,0.10692,0.106636,-4.24351,20,0.0101606,10,-0.000452513,-2.37228,-0.871036,-0.0677354,11.2177,0.106636,
2,0,0,1,0,38594.9,0.10542,0.105095,-4.26244,20,0.0100003,10,-0.000447962,-2.37034,-1.18796,-0.0496651,8.24904,0.1050953,
2,0,0,1,0,38594.9,0.103924,0.103618,-4.27529,20,0.00984009,10,-0.000442998,-2.36903,-5.57527,-0.0105825,1.75993,0.103618,
2,0,0,1,0,38594.9,0.102427,0.102068,-4.27455,20,0.00967972,10,-0.000436294,-2.36911,2.13707,0.0276079,-4.58934,0.1020679,
2,0,0,1,0,38595,0.100924,0.100649,-4.256,20,0.00951874,10,-0.000428363,-2.371,1.10051,0.0536115,-8.89457,0.100649,
2,0,0,1,0,38595,0.0994284,0.0991138,-4.24124,20,0.00935922,10,-0.000420365,-2.37251,0.820373,0.0719185,-11.9009,0.0991138,
2,0,0,1,0,38595,0.0979329,0.0976395,-4.21868,20,0.00920027,10,-0.000411909,-2.37482,0.734148,0.0803652,-13.2323,0.0976395,
2,0,0,1,0,38595.1,0.0964329,0.0961137,-4.19392,20,0.00904168,10,-0.000403093,-2.37738,0.534047,0.110477,-18.0854,0.0961137,
2,0,0,1,0,38595.1,0.094933,0.0946106,-4.16514,20,0.00888414,10,-0.000394066,-2.38037,0.473852,0.124511,-20.2465,0.0946106,
2,0,0,1,0,38595.2,0.0934366,0.0930735,-4.13985,20,0.00872821,10,-0.00038531,-2.38302,0.460015,0.128257,-20.6981,0.0930735,
2,0,0,1,0,38595.2,0.0919401,0.0916198,-4.10607,20,0.00857344,10,-0.000376197,-2.38657,0.439944,0.134108,-21.4735,0.0916198,
2,0,0,1,0,38595.2,0.0904402,0.0900936,-4.07794,20,0.00841938,10,-0.000367396,-2.38956,0.43256,0.136397,-21.6476,0.0900936,
2,0,0,1,0,38595.3,0.0889402,0.0885824,-4.03801,20,0.00826652,10,-0.000357696,-2.39383,0.408771,0.144335,-22.7568,0.0885824,
2,0,0,1,0,38595.3,0.0874438,0.0870937,-4.00285,20,0.00811548,10,-0.000348624,-2.39763,0.428442,0.137708,-21.5521,0.0870937,
2,0,0,1,0,38595.3,0.0859483,0.0856092,-3.9738,20,0.00796556,10,-0.000340194,-2.40079,0.505434,0.116731,-18.1307,0.0856092,
2,0,0,1,0,38595.4,0.0844447,0.0840875,-3.94481,20,0.00781593,10,-0.00033171,-2.40397,0.52385,0.112628,-17.3573,0.0840875,
2,0,0,1,0,38595.4,0.0829492,0.0826399,-3.9189,20,0.00766812,10,-0.000323857,-2.40684,0.499933,0.118016,-18.0587,0.0826399,
2,0,0,1,0,38595.5,0.0814528,0.0811364,-3.8928,20,0.00752141,10,-0.000315848,-2.40974,0.526501,0.112061,-17.0279,0.0811364,
2,0,0,1,0,38595.5,0.0799528,0.07961,-3.86773,20,0.00737528,10,-0.00030791,-2.41254,0.659495,0.0894624,-13.4915,0.07961,
2,0,0,1,0,38595.5,0.0784529,0.0781447,-3.84875,20,0.00722992,10,-0.000300759,-2.41468,0.630634,0.0935566,-14.036,0.0781447,
2,0,0,1,0,38595.6,0.0769565,0.0766189,-3.82576,20,0.00708575,10,-0.000293125,-2.41728,0.574523,0.102694,-15.3392,0.0766189,
2,0,0,1,0,38595.6,0.0754601,0.0751483,-3.80041,20,0.00694239,10,-0.000285594,-2.42017,0.623071,0.0946922,-14.0727,0.0751483,
2,0,0,1,0,38595.6,0.0739601,0.0736608,-3.78369,20,0.00679948,10,-0.00027871,-2.42208,0.644735,0.0915105,-13.5423,0.0736608,
2,0,0,1,0,38595.7,0.0724601,0.0721092,-3.76862,20,0.00665719,10,-0.000271752,-2.42382,0.756306,0.0780107,-11.4701,0.07210917,
2,0,0,1,0,38595.7,0.0709637,0.0706393,-3.75177,20,0.0065159,10,-0.000265022,-2.42576,0.640689,0.0920884,-13.4663,0.0706393,
2,0,0,1,0,38595.8,0.0694682,0.0691474,-3.7302,20,0.00637535,10,-0.000257934,-2.42827,0.695708,0.0848057,-12.341,0.0691474,
2,0,0,1,0,38595.8,0.0679647,0.0676346,-3.71108,20,0.00623491,10,-0.000250997,-2.4305,0.779556,0.0756841,-10.9679,0.06763456,
2,0,0,1,0,38595.8,0.0664691,0.0661805,-3.69182,20,0.00609583,10,-0.000244326,-2.43276,0.730283,0.0807906,-11.634,0.0661805,
2,0,0,1,0,38595.9,0.0649727,0.0646341,-3.67726,20,0.0059573,10,-0.000237676,-2.43448,0.674785,0.0874352,-12.5317,0.0646341,
2,0,0,1,0,38595.9,0.0634727,0.0631449,-3.65707,20,0.00581911,10,-0.000230925,-2.43687,0.618407,0.0954064,-13.6155,0.0631449,
2,0,0,1,0,38595.9,0.0619728,0.0616626,-3.63046,20,0.00568182,10,-0.000223864,-2.44004,0.645053,0.0914653,-12.981,0.0616626,
2,0,0,1,0,38596,0.0604764,0.060159,-3.61398,20,0.00554554,10,-0.000217413,-2.44201,0.674428,0.0874815,-12.3374,0.060159,
2,0,0,1,0,38596,0.05898,0.0586444,-3.59797,20,0.00540999,10,-0.000211001,-2.44394,0.718427,0.0821238,-11.5298,0.0586444,
2,0,0,1,0,38596.1,0.05748,0.0571459,-3.58066,20,0.00527484,10,-0.00020462,-2.44604,0.574443,0.102708,-14.3209,0.05714592,
2,0,0,1,0,38596.1,0.05598,0.0556363,-3.55309,20,0.00514046,10,-0.000197681,-2.44939,0.581965,0.101381,-14.0554,0.0556363,
2,0,0,1,0,38596.1,0.0544836,0.0541327,-3.53492,20,0.00500724,10,-0.000191355,-2.45162,0.706965,0.0834554,-11.5076,0.0541327,
2,0,0,1,0,38596.2,0.0529881,0.0526752,-3.51837,20,0.00487474,10,-0.000185331,-2.45366,0.675701,0.0873167,-11.9817,0.0526752,
2,0,0,1,0,38596.2,0.0514846,0.0511576,-3.49218,20,0.00474223,10,-0.000178652,-2.4569,0.525453,0.112284,-15.319,0.0511576,
2,0,0,1,0,38596.2,0.049989,0.0496501,-3.4601,20,0.00461131,10,-0.000171794,-2.46091,0.548849,0.107498,-14.5782,0.0496501,
2,0,0,1,0,38596.3,0.0484926,0.0481645,-3.44737,20,0.00448131,10,-0.000166041,-2.46251,0.499636,0.118086,-15.896,0.0481645,
2,0,0,1,0,38596.3,0.0469927,0.0467028,-3.42895,20,0.00435165,10,-0.000160142,-2.46484,0.55582,0.106149,-14.1961,0.0467028,
2,0,0,1,0,38596.4,0.0454927,0.0451669,-3.40789,20,0.00422284,10,-0.000153924,-2.46752,0.469234,0.125737,-16.6967,0.0451669,
2,0,0,1,0,38596.4,0.0439963,0.043645,-3.38295,20,0.00409518,10,-0.000147649,-2.4707,0.477467,0.123569,-16.3043,0.043645,
2,0,0,1,0,38596.4,0.0424999,0.0421736,-3.36197,20,0.00396849,10,-0.000141786,-2.47341,0.532662,0.110764,-14.5246,0.0421736,
2,0,0,1,0,38596.5,0.0409999,0.0406732,-3.33469,20,0.00384231,10,-0.000135633,-2.47694,0.517876,0.113927,-14.8395,0.04067323,
2,0,0,1,0,38596.5,0.0394999,0.0391965,-3.31306,20,0.00371693,10,-0.00012986,-2.47977,0.433441,0.13612,-17.5945,0.0391965,
2,0,0,1,0,38596.5,0.0380044,0.037638,-3.28596,20,0.00359279,10,-0.000123677,-2.48334,0.413731,0.142605,-18.3013,0.03763799,
2,0,0,1,0,38596.6,0.0365089,0.03618,-3.25794,20,0.00346973,10,-0.000117872,-2.48706,0.419541,0.14063,-17.9075,0.03618,
2,0,0,1,0,38596.6,0.0350054,0.0347158,-3.23335,20,0.00334695,10,-0.000112248,-2.49035,0.463777,0.127216,-16.0471,0.0347158,
2,0,0,1,0,38596.7,0.0335089,0.0332198,-3.21042,20,0.00322581,10,-0.000106649,-2.49344,0.420602,0.140275,-17.5546,0.0332198,
2,0,0,1,0,38596.7,0.0320125,0.0316798,-3.18726,20,0.00310555,10,-0.000100972,-2.49658,0.407562,0.144763,-17.9632,0.0316798,
2,0,0,1,0,38596.7,0.0305126,0.0301933,-3.15122,20,0.00298607,10,-9.51456e-05,-2.50152,0.398848,0.147926,-18.2224,0.0301933,
2,0,0,1,0,38596.8,0.0290126,0.0286772,-3.12645,20,0.0028676,10,-8.96577e-05,-2.50495,0.427292,0.138079,-16.871,0.0286772,
2,0,0,1,0,38596.8,0.0275162,0.0271878,-3.10135,20,0.00275038,10,-8.43192e-05,-2.50845,0.410953,0.143569,-17.4034,0.0271878,
2,0,0,1,0,38596.8,0.0260198,0.0256921,-3.07687,20,0.0026341,10,-7.90512e-05,-2.51189,0.370195,0.159375,-19.1439,0.0256921,
2,0,0,1,0,38596.9,0.0245198,0.0242282,-3.04755,20,0.0025185,10,-7.38366e-05,-2.51605,0.402345,0.14664,-17.4681,0.0242282,
2,0,0,1,0,38596.9,0.0230198,0.0226928,-3.02828,20,0.00240396,10,-6.872e-05,-2.5188,0.422347,0.139696,-16.5023,0.0226928,
2,0,0,1,0,38597,0.0215243,0.0211893,-3.00624,20,0.00229051,10,-6.37001e-05,-2.52198,0.466984,0.126343,-14.7879,0.0211893,
2,0,0,1,0,38597,0.0200288,0.0197119,-2.9818,20,0.00217794,10,-5.87771e-05,-2.52552,0.440298,0.134,-15.568,0.0197119,
2,0,0,1,0,38597,0.0185253,0.0181722,-2.95647,20,0.00206563,10,-5.37254e-05,-2.52923,0.463157,0.127387,-14.71,0.01817216,
2,0,0,1,0,38597.1,0.0170289,0.0167283,-2.93365,20,0.00195489,10,-4.90751e-05,-2.53259,0.450065,0.131092,-15.0393,0.0167283,
2,0,0,1,0,38597.1,0.0155325,0.0151964,-2.91337,20,0.00184482,10,-4.42728e-05,-2.5356,0.607029,0.0971947,-11.0688,0.0151964,
2,0,0,1,0,38597.1,0.0140325,0.0136625,-2.89501,20,0.00173511,10,-3.95531e-05,-2.53835,0.541648,0.108927,-12.3168,0.0136625,
2,0,0,1,0,38597.2,0.0125325,0.0121977,-2.88048,20,0.00162612,10,-3.51352e-05,-2.54053,0.530594,0.111196,-12.4908,0.0121977,
2,0,0,1,0,38597.2,0.0110361,0.0107544,-2.85995,20,0.00151819,10,-3.07569e-05,-2.54364,0.589462,0.100091,-11.1802,0.0107544,
2,0,0,1,0,38597.3,0.0095397,0.00918868,-2.84875,20,0.00141091,10,-2.61762e-05,-2.54535,0.734758,0.0802985,-8.90269,0.00918868,
2,0,0,1,0,38597.3,0.00803616,0.00770311,-2.83436,20,0.00130349,10,-2.18334e-05,-2.54754,0.753216,0.0783308,-8.65415,0.00770311,
2,0,0,1,0,38597.3,0.00654064,0.00622759,-2.81794,20,0.00119715,10,-1.7549e-05,-2.55007,0.766456,0.0769776,-8.47215,0.00622759,
2,0,0,1,0,38597.4,0.00504513,0.0047018,-2.80064,20,0.0010913,10,-1.3168e-05,-2.55274,0.954112,0.0618376,-6.78997,0.0047018,
2,0,0,1,0,38597.4,0.00354515,0.00322324,-2.7942,20,0.000985574,10,-9.00638e-06,-2.55374,-12.1574,-0.00485301,0.532766,0.00322324,
2,0,0,1,0,38597.4,0.00204518,0.00167902,-2.82196,20,0.000879866,10,-4.73811e-06,-2.54945,1.75554,0.033608,-3.66554,0.00167902,
2,0,0,1,0,38597.5,0.000548773,0.000171799,-2.79632,20,0.000774175,10,-4.80404e-07,-2.55341, , , ,0.000171799,
2,0,0,1,0,38597.5,0.000177222,-0.000220343,-2.78757,20,0.000748025,10,6.14223e-07,-2.55477, , , ,-0.000220343,