File: Figure_codes/Fig_3-5/rawdata_trumpetplot_data/after 10th/20221101_1-115_003_TrumpetPlot_ParaChange_from10_every3_02_CV_C01_17.csv
mode,ox/red,error,control changes,counter inc.,time/s,control/V,Ewe/V,<I>/mA,cycle number,(Q-Qo)/C,I Range,P/W,log(|I|),Tafel slope mV/dec,alpha_eff,dI/d(E-IR),E-IR/V,
2,0,0,1,0,33832.2,2.44065e-05,-0.000344411,-0.381792,18,0.0000000E+000,10,1.31493e-07,-3.41817, , , ,-0.000344411,
2,0,0,1,0,33833.5,0.00129791,0.000901612,-0.178935,18,-0.00026498,10,-1.6133e-07,-3.7473, , , ,0.000901612,
2,0,0,1,0,33835,0.00279612,0.00247209,-0.143507,18,-0.000485541,10,-3.54763e-07,-3.84313,-0.0176379,-3.34508,20.2797,0.00247209,
2,0,0,1,0,33836.5,0.00429431,0.00395668,-0.12243,18,-0.000667297,10,-4.84416e-07,-3.91211,-0.0249222,-2.36737,11.5533,0.003956683,
2,0,0,1,0,33838,0.00579242,0.00548354,-0.107676,18,-0.000822662,10,-5.90444e-07,-3.96788,-0.0269152,-2.19207,9.35451,0.00548354,
2,0,0,1,0,33839.5,0.00729061,0.0069734,-0.0952459,18,-0.000957517,10,-6.64188e-07,-4.02115,-0.0300583,-1.96285,7.41289,0.0069734,
2,0,0,1,0,33841,0.00878882,0.00846544,-0.0854716,18,-0.00107623,10,-7.23555e-07,-4.06818,-0.0338539,-1.74278,5.90141,0.00846544,
2,0,0,1,0,33842.5,0.010287,0.00995005,-0.0777663,18,-0.001182,10,-7.73779e-07,-4.10921,-0.035915,-1.64277,5.02029,0.00995005,
2,0,0,1,0,33844,0.0117852,0.0114516,-0.0708484,18,-0.00127678,10,-8.11324e-07,-4.14967,-0.0366986,-1.60769,4.46991,0.0114516,
2,0,0,1,0,33845.5,0.0132834,0.0129542,-0.064925,18,-0.00136208,10,-8.4105e-07,-4.18759,-0.0371867,-1.58659,3.9934,0.0129542,
2,0,0,1,0,33847,0.0147815,0.0144418,-0.0589738,18,-0.00143844,10,-8.51689e-07,-4.22934,-0.0389548,-1.51458,3.49291,0.0144418,
2,0,0,1,0,33848.5,0.0162797,0.0159922,-0.054267,18,-0.00150676,10,-8.67846e-07,-4.26546,-0.0395791,-1.49069,3.14017,0.0159922,
2,0,0,1,0,33850,0.0177779,0.0174354,-0.0491544,18,-0.00156793,10,-8.57024e-07,-4.30844,-0.040769,-1.44718,2.80087,0.0174354,
2,0,0,1,0,33851.5,0.0192761,0.0189326,-0.0448218,18,-0.00162301,10,-8.48595e-07,-4.34851,-0.0387183,-1.52383,2.69989,0.01893265,
2,0,0,1,0,33853,0.0207743,0.0204141,-0.0412906,18,-0.00167186,10,-8.4291e-07,-4.38415,-0.0390784,-1.50978,2.47375,0.0204141,
2,0,0,1,0,33854.5,0.0222725,0.0219347,-0.0378705,18,-0.00171519,10,-8.30681e-07,-4.4217,-0.0361245,-1.63324,2.42636,0.0219347,
2,0,0,1,0,33856,0.0237707,0.0234161,-0.0346376,18,-0.00175334,10,-8.11079e-07,-4.46045,-0.0387065,-1.52429,2.05698,0.0234161,
2,0,0,1,0,33857.5,0.0252689,0.0249336,-0.0319638,18,-0.0017873,10,-7.96973e-07,-4.49534,-0.0364069,-1.62057,1.97551,0.0249336,
2,0,0,1,0,33859,0.0267671,0.0264288,-0.0286579,18,-0.00181636,10,-7.57394e-07,-4.54276,-0.030532,-1.9324,2.14674,0.0264288,
2,0,0,1,0,33860.5,0.0282653,0.0279123,-0.0253927,18,-0.00184038,10,-7.08769e-07,-4.59529,-0.0283267,-2.08284,2.04171,0.02791227,
2,0,0,1,0,33862,0.0297635,0.0294424,-0.0229962,18,-0.00186008,10,-6.77065e-07,-4.63834,-0.0286033,-2.0627,1.80783,0.0294424,
2,0,0,1,0,33863.5,0.0312617,0.0309365,-0.0200501,18,-0.00187536,10,-6.20282e-07,-4.69788,-0.0234079,-2.52052,1.90221,0.0309365,
2,0,0,1,0,33865,0.0327599,0.0324423,-0.0166644,18,-0.0018865,10,-5.40632e-07,-4.77821,-0.0238251,-2.47638,1.62539,0.0324423,
2,0,0,1,0,33866.5,0.0342581,0.0339291,-0.0138401,18,-0.00189308,10,-4.69581e-07,-4.85886,-0.0180103,-3.27591,1.82319,0.03392905,
2,0,0,1,0,33868,0.0357563,0.0354497,-0.0120166,18,-0.00189581,10,-4.25984e-07,-4.92022,-0.0178765,-3.30043,1.50411,0.0354497,
2,0,0,1,0,33869.5,0.0372544,0.0369013,-0.00969524,18,-0.00189468,10,-3.57767e-07,-5.01344,-0.0127049,-4.64389,1.56972,0.0369013,
2,0,0,1,0,33871,0.0387526,0.0383837,-0.00716626,18,-0.00189051,10,-2.75068e-07,-5.14471,-0.00962362,-6.13075,1.48921,0.0383837,
2,0,0,1,0,33872.5,0.0402508,0.039898,-0.00436009,18,-0.00188239,10,-1.73959e-07,-5.3605,-0.00575596,-10.2503,1.51085,0.039898,
2,0,0,1,0,33874,0.041749,0.0414431,-0.00259451,18,-0.00187081,10,-1.07524e-07,-5.58595,-0.0029062,-20.3014,1.35764,0.0414431,
2,0,0,1,0,33875.5,0.0432472,0.0429096,0.000285481,18,-0.00185592,10,1.22499e-08,-6.54442,-0.0726755,-0.811828,1.52745,0.0429096,
2,1,0,1,0,33877,0.0447454,0.0444302,0.00205795,18,-0.00183784,10,9.14354e-08,-5.68656,0.0063262,9.3263,1.49876,0.0444302,
2,0,0,1,0,33878.5,0.0462435,0.0458924,0.00443833,18,-0.00181598,10,2.03686e-07,-5.35278,0.00451383,13.0709,1.57999,0.04589241,
2,1,0,1,0,33880,0.0477417,0.0474459,0.00661384,18,-0.00179071,10,3.138e-07,-5.17955,0.00942716,6.25851,1.45279,0.0474459,
2,1,0,1,0,33881.5,0.0492399,0.0489019,0.00832731,18,-0.00176224,10,4.07221e-07,-5.0795,0.0164721,3.58182,1.20391,0.0489019,
2,0,0,1,0,33883,0.0507381,0.0504151,0.0102963,18,-0.00173123,10,5.19089e-07,-4.98732,0.0180954,3.2605,1.31324,0.0504151,
2,1,0,1,0,33884.5,0.0522363,0.0519113,0.0124379,18,-0.00169681,10,6.45669e-07,-4.90525,0.0221617,2.66225,1.25513,0.0519113,
2,1,0,1,0,33886,0.0537345,0.053415,0.0144072,18,-0.00165947,10,7.69559e-07,-4.84142,0.0311884,1.89173,1.0589,0.053415,
2,0,0,1,0,33887.5,0.0552327,0.0548614,0.0161452,18,-0.00161965,10,8.85749e-07,-4.79196,0.0319628,1.8459,1.13505,0.0548614,
2,1,0,1,0,33889,0.0567309,0.0564138,0.0167882,18,-0.00157713,10,9.47087e-07,-4.775,0.0312774,1.88634,1.27683,0.0564138,
2,1,0,1,0,33890.5,0.0582291,0.0578889,0.0198183,18,-0.00153191,10,1.14726e-06,-4.70293,0.038961,1.51433,1.13448,0.0578889,
2,1,0,1,0,33891.9,0.0597273,0.0593766,0.0217722,18,-0.00148375,10,1.29276e-06,-4.6621,0.0461045,1.2797,1.05154,0.0593766,
2,1,0,1,0,33893.4,0.0612255,0.0608814,0.0226153,18,-0.00143306,10,1.37685e-06,-4.6456,0.0599689,0.983843,0.878114,0.0608814,
2,1,0,1,0,33894.9,0.0627237,0.0624296,0.025156,18,-0.00137968,10,1.57048e-06,-4.59936,0.0604105,0.976651,0.94587,0.0624296,
2,1,0,1,0,33896.4,0.0642219,0.0638919,0.0267413,18,-0.00132399,10,1.70855e-06,-4.57282,0.0511217,1.15411,1.22033,0.0638919,
2,1,0,1,0,33897.9,0.0657201,0.0654242,0.0279139,18,-0.00126562,10,1.82625e-06,-4.55418,0.0619905,0.951758,1.04606,0.0654242,
2,1,0,1,0,33899.4,0.0672183,0.0668822,0.0302019,18,-0.00120419,10,2.01997e-06,-4.51997,0.0665671,0.886324,1.01999,0.06688223,
2,1,0,1,0,33900.9,0.0687164,0.0683635,0.0315969,18,-0.00114108,10,2.16008e-06,-4.50036,0.0719707,0.819778,0.988131,0.0683635,
2,1,0,1,0,33902.4,0.0702146,0.0698757,0.0324388,18,-0.00107615,10,2.26668e-06,-4.48894,0.0739164,0.798199,1.0114,0.0698757,
2,1,0,1,0,33903.9,0.0717128,0.0714016,0.0342464,18,-0.00100877,10,2.44525e-06,-4.46538,0.0623596,0.946126,1.2452,0.0714016,
2,1,0,1,0,33905.4,0.073211,0.072899,0.0362065,18,-0.00093872,10,2.63941e-06,-4.44121,0.0831738,0.709358,0.984599,0.072899,
2,1,0,1,0,33906.9,0.0747092,0.0743899,0.0370066,18,-0.000866516,10,2.75292e-06,-4.43172,0.0971451,0.607339,0.883923,0.0743899,
2,1,0,1,0,33908.4,0.0762074,0.0758818,0.0377029,18,-0.000792681,10,2.86096e-06,-4.42363,0.0804885,0.733024,1.10736,0.0758818,
2,1,0,1,0,33909.9,0.0777055,0.0773557,0.0399483,18,-0.000716468,10,3.09023e-06,-4.3985,0.0792797,0.7442,1.15069,0.0773557,
2,1,0,1,0,33911.4,0.0792037,0.0788923,0.0419167,18,-0.000637456,10,3.3069e-06,-4.37761,0.0850175,0.693974,1.11882,0.0788923,
2,1,0,1,0,33912.9,0.0807019,0.0803631,0.0431797,18,-0.000556076,10,3.47006e-06,-4.36472,0.123225,0.478799,0.795275,0.08036311,
2,1,0,1,0,33914.4,0.0822001,0.0818752,0.0438763,18,-0.000472783,10,3.59238e-06,-4.35777,0.122606,0.481215,0.827883,0.0818752,
2,1,0,1,0,33915.9,0.0836983,0.0833895,0.0454864,18,-0.000387875,10,3.79309e-06,-4.34212,0.11299,0.52217,0.929485,0.0833895,
2,1,0,1,0,33917.4,0.0851965,0.084856,0.0472163,18,-0.000300662,10,4.00658e-06,-4.32591,0.110418,0.534331,0.992524,0.084856,
2,1,0,1,0,33918.9,0.0866947,0.086347,0.0488358,18,-0.000210919,10,4.21682e-06,-4.31126,0.117694,0.501299,0.954565,0.086347,
2,1,0,1,0,33920.4,0.0881929,0.0878825,0.0508289,18,-0.000118312,10,4.46697e-06,-4.29389,0.0881615,0.669227,1.32038,0.0878825,
2,1,0,1,0,33921.9,0.0896911,0.0893469,0.0525256,18,-2.34365e-05,10,4.693e-06,-4.27963,0.088391,0.667489,1.37895,0.0893469,
2,1,0,1,0,33923.4,0.0911893,0.0908442,0.0547068,18,7.47274e-05,10,4.96979e-06,-4.26196,0.0892666,0.660941,1.40485,0.0908442,
2,1,0,1,0,33924.9,0.0926875,0.0923776,0.0572091,18,0.000176671,10,5.28484e-06,-4.24253,0.0894963,0.659245,1.45468,0.0923776,
2,1,0,1,0,33926.4,0.0941857,0.093842,0.0589348,18,0.000281474,10,5.53056e-06,-4.22963,0.103619,0.569392,1.31234,0.093842,
2,1,0,1,0,33927.9,0.0956839,0.0953446,0.0602862,18,0.00038889,10,5.74797e-06,-4.21978,0.0943926,0.625049,1.48726,0.0953446,
2,1,0,1,0,33929.4,0.0971821,0.0968058,0.0632722,18,0.000499948,10,6.12511e-06,-4.19879,0.09642,0.611906,1.50223,0.0968058,
2,1,0,1,0,33930.9,0.0986803,0.0983424,0.0650982,18,0.00061441,10,6.40191e-06,-4.18643,0.128256,0.460018,1.16856,0.0983424,
2,1,0,1,0,33932.4,0.100178,0.0998629,0.0672033,18,0.000731952,10,6.71112e-06,-4.17261,0.12723,0.463726,1.22559,0.0998629,
2,1,0,1,0,33933.9,0.101677,0.10133,0.0684283,18,0.000851725,10,6.93381e-06,-4.16476,0.112403,0.524896,1.42178,0.1013295,
2,1,0,1,0,33935.4,0.103175,0.102866,0.071058,18,0.000975089,10,7.30945e-06,-4.14839,0.120829,0.488293,1.3545,0.102866,
2,1,0,1,0,33936.9,0.104673,0.104338,0.0741998,18,0.00110192,10,7.74185e-06,-4.1296,0.128315,0.459806,1.31065,0.104338,
2,1,0,1,0,33938.4,0.106171,0.105886,0.0750376,18,0.0012316,10,7.94544e-06,-4.12472,0.149252,0.395304,1.15671,0.105886,
2,1,0,1,0,33939.9,0.107669,0.107342,0.0768596,18,0.00136427,10,8.25026e-06,-4.1143,0.115554,0.510584,1.54193,0.107342,
2,1,0,1,0,33941.4,0.109167,0.108822,0.0792104,18,0.00149978,10,8.61986e-06,-4.10122,0.137963,0.427651,1.32464,0.108822,
2,1,0,1,0,33942.9,0.110666,0.110327,0.0807412,18,0.00163877,10,8.90793e-06,-4.0929,0.160449,0.367718,1.16597,0.110327,
2,1,0,1,0,33944.4,0.112164,0.111812,0.0828888,18,0.00178032,10,9.26793e-06,-4.0815,0.264688,0.222904,0.716727,0.111812,
2,1,0,1,0,33945.9,0.113662,0.113346,0.0840269,18,0.00192413,10,9.52411e-06,-4.07558,0.188283,0.313359,1.03031,0.113346,
2,1,0,1,0,33947.4,0.11516,0.114838,0.0860457,18,0.00206929,10,9.88131e-06,-4.06527,0.19133,0.308368,1.0348,0.114838,
2,1,0,1,0,33948.9,0.116658,0.116282,0.0878512,18,0.00221756,10,1.02155e-05,-4.05625,0.159491,0.369926,1.25896,0.116282,
2,1,0,1,0,33950.4,0.118157,0.117826,0.0893047,18,0.00236865,10,1.05224e-05,-4.04913,0.176273,0.334709,1.16146,0.117826,
2,1,0,1,0,33951.9,0.119655,0.119304,0.0906792,18,0.002522,10,1.08184e-05,-4.04249,0.222016,0.265747,0.941407,0.119304,
2,1,0,1,0,33953.4,0.121153,0.120809,0.0921068,18,0.00267724,10,1.11273e-05,-4.03571,0.184618,0.319578,1.15521,0.120809,
2,1,0,1,0,33954.9,0.122651,0.122288,0.093702,18,0.0028353,10,1.14587e-05,-4.02825,0.160795,0.366928,1.3417,0.122288,
2,1,0,1,0,33956.4,0.124149,0.12382,0.0957125,18,0.00299614,10,1.18511e-05,-4.01903,0.213055,0.276923,1.03422,0.12382,
2,1,0,1,0,33957.9,0.125648,0.125322,0.0968874,18,0.00315915,10,1.21421e-05,-4.01373,0.293579,0.200968,0.759965,0.125322,
2,1,0,1,0,33959.4,0.127146,0.126796,0.0971626,18,0.00332374,10,1.23199e-05,-4.0125,0.348839,0.169132,0.645464,0.126796,
2,1,0,1,0,33960.9,0.128644,0.128299,0.0988863,18,0.00348963,10,1.2687e-05,-4.00486,0.582155,0.101348,0.389283,0.128299,
2,1,0,1,0,33962.4,0.130142,0.129799,0.0998852,18,0.00365691,10,1.2965e-05,-4.0005,3.35179,0.0176025,0.0679358,0.129799,
2,1,0,1,0,33963.9,0.13164,0.131312,0.0993093,18,0.00382429,10,1.30405e-05,-4.00301,-0.37427,-0.15764,-0.606688,0.131312,
2,1,0,1,0,33965.4,0.133139,0.132815,0.0980419,18,0.00399058,10,1.30214e-05,-4.00859,-0.293568,-0.200976,-0.769664,0.132815,
2,1,0,1,0,33966.9,0.134637,0.134331,0.0965584,18,0.00415484,10,1.29708e-05,-4.01521,-0.213484,-0.276368,-1.04438,0.134331,
2,1,0,1,0,33968.4,0.136135,0.135781,0.0951096,18,0.00431713,10,1.29141e-05,-4.02178,-0.148848,-0.396376,-1.46536,0.135781,
2,1,0,1,0,33969.9,0.137633,0.137297,0.0925297,18,0.0044761,10,1.27041e-05,-4.03372,-0.110336,-0.534732,-1.91721,0.137297,
2,1,0,1,0,33971.4,0.139131,0.138807,0.0900846,18,0.00463083,10,1.25044e-05,-4.04535,-0.0922743,-0.639398,-2.21508,0.138807,
2,1,0,1,0,33972.9,0.14063,0.140276,0.0864907,18,0.0047799,10,1.21326e-05,-4.06303,-0.0792617,-0.74437,-2.48464,0.140276,
2,1,0,1,0,33974.3,0.142128,0.141815,0.0825157,18,0.00492377,10,1.17019e-05,-4.08346,-0.0728933,-0.809402,-2.57019,0.141815,
2,1,0,1,0,33975.8,0.143626,0.143335,0.0780311,18,0.00506167,10,1.11846e-05,-4.10773,-0.0640313,-0.921425,-2.80118,0.1433353,
2,1,0,1,0,33977.3,0.145124,0.144801,0.0731718,18,0.0051925,10,1.05953e-05,-4.13566,-0.0586819,-1.00542,-2.9142,0.144801,
2,1,0,1,0,33978.8,0.146622,0.146318,0.0694052,18,0.0053167,10,1.01553e-05,-4.15861,-0.0676873,-0.871655,-2.39174,0.146318,
2,1,0,1,0,33980.3,0.14812,0.147774,0.0666394,18,0.00543576,10,9.84758e-06,-4.17627,-0.0824931,-0.715212,-1.85436,0.1477742,
2,1,0,1,0,33981.8,0.149619,0.149304,0.0634392,18,0.0055503,10,9.47175e-06,-4.19764,-0.0814782,-0.72412,-1.80064,0.149304,
2,1,0,1,0,33983.3,0.151117,0.150762,0.0609144,18,0.00566049,10,9.1836e-06,-4.21528,-0.0882524,-0.668537,-1.5988,0.150762,
2,1,0,1,0,33984.8,0.152615,0.152321,0.0582322,18,0.00576686,10,8.87001e-06,-4.23484,-0.110255,-0.535121,-1.23065,0.152321,
2,1,0,1,0,33986.3,0.154113,0.153797,0.0572779,18,0.00587034,10,8.80918e-06,-4.24201,-0.115364,-0.511424,-1.14324,0.1537973,
2,1,0,1,0,33987.8,0.155611,0.155293,0.0553116,18,0.00597142,10,8.58948e-06,-4.25718,-0.124546,-0.473721,-1.02429,0.155293,
2,1,0,1,0,33989.3,0.15711,0.15675,0.054532,18,0.00607045,10,8.54787e-06,-4.26335,-0.143891,-0.410032,-0.865275,0.15675,
2,1,0,1,0,33990.8,0.158608,0.158294,0.0531954,18,0.00616727,10,8.42049e-06,-4.27413,-0.152413,-0.387105,-0.810884,0.158294,
2,1,0,1,0,33992.3,0.160106,0.15978,0.0522242,18,0.00626227,10,8.34439e-06,-4.28213,-0.224405,-0.262918,-0.538557,0.15978,
2,1,0,1,0,33993.8,0.161604,0.161258,0.0513985,18,0.00635656,10,8.28844e-06,-4.28905,-0.283674,-0.207985,-0.41704,0.161258,
2,1,0,1,0,33995.3,0.163102,0.16279,0.0510014,18,0.00644975,10,8.3025e-06,-4.29242,-0.696452,-0.084715,-0.169859,0.16279,
2,1,0,1,0,33996.8,0.164601,0.164275,0.0512151,18,0.00654237,10,8.41338e-06,-4.2906,-1.24245,-0.0474869,-0.0949445,0.164275,
2,1,0,1,0,33998.3,0.166099,0.165772,0.0505986,18,0.00663465,10,8.38786e-06,-4.29586,2.00326,0.0294519,0.0586508,0.165772,
2,1,0,1,0,33999.8,0.167597,0.167281,0.0507506,18,0.00672678,10,8.48964e-06,-4.29456,1.46785,0.0401949,0.0795897,0.167281,
2,1,0,1,0,34001.3,0.169095,0.168751,0.050271,18,0.00681915,10,8.4833e-06,-4.29868,0.879485,0.0670847,0.132863,0.168751,
2,1,0,1,0,34002.8,0.170593,0.17026,0.050334,18,0.00691085,10,8.56987e-06,-4.29814,-2.0652,-0.0285686,-0.0565272,0.17026,
2,1,0,1,0,34004.3,0.172091,0.17179,0.0503483,18,0.0070024,10,8.64934e-06,-4.29802,-1.31817,-0.044759,-0.0882423,0.17179,
2,1,0,1,0,34005.8,0.17359,0.173276,0.0499962,18,0.00709389,10,8.66313e-06,-4.30106,1.05635,0.0558524,0.110037,0.173276,
2,1,0,1,0,34007.3,0.175088,0.17475,0.050469,18,0.00718524,10,8.81944e-06,-4.29698,25.3422,0.00232814,0.00456838,0.17475,
2,1,0,1,0,34008.8,0.176586,0.176254,0.0501484,18,0.00727678,10,8.83882e-06,-4.29974,-2.95782,-0.0199471,-0.0391167,0.176254,
2,1,0,1,0,34010.3,0.178084,0.177732,0.049724,18,0.00736769,10,8.83754e-06,-4.30343,-1.73061,-0.034092,-0.06701,0.177732,
2,1,0,1,0,34011.8,0.179582,0.179248,0.0500273,18,0.00745847,10,8.96729e-06,-4.30079,-3.74052,-0.0157732,-0.0306748,0.179248,
2,1,0,1,0,34013.3,0.181081,0.180717,0.0503882,18,0.00754944,10,9.10599e-06,-4.29767,32.9359,0.00179136,0.00351371,0.180717,
2,1,0,1,0,34014.8,0.182579,0.182268,0.050445,18,0.0076402,10,9.19451e-06,-4.29718,-4.73163,-0.0124693,-0.024359,0.182268,
2,1,0,1,0,34016.3,0.184077,0.183772,0.0503605,18,0.00773145,10,9.25484e-06,-4.29791,0.876867,0.067285,0.132413,0.183772,
2,1,0,1,0,34017.8,0.185575,0.18525,0.0504319,18,0.00782249,10,9.34251e-06,-4.29729,3.04337,0.0193864,0.0381493,0.18525,
2,1,0,1,0,34019.3,0.187073,0.186751,0.0506182,18,0.00791394,10,9.45299e-06,-4.29569,-1.46677,-0.0402245,-0.0790603,0.186751,
2,1,0,1,0,34020.8,0.188572,0.188214,0.0507278,18,0.00800536,10,9.54769e-06,-4.29475,-150.75,-0.000391377,-0.000774566,0.188214,
2,1,0,1,0,34022.3,0.19007,0.189736,0.0507833,18,0.00809674,10,9.6354e-06,-4.29428,1.16459,0.0506617,0.100184,0.189736,
2,1,0,1,0,34023.8,0.191568,0.191215,0.0510415,18,0.00818822,10,9.7599e-06,-4.29208,0.878591,0.067153,0.132855,0.191215,
2,1,0,1,0,34025.3,0.193066,0.192722,0.0510907,18,0.00828018,10,9.84628e-06,-4.29166,0.582412,0.101303,0.201311,0.192722,
2,1,0,1,0,34026.8,0.194564,0.194216,0.0509698,18,0.00837225,10,9.89914e-06,-4.29269,1.68724,0.0349684,0.0699951,0.194216,
2,1,0,1,0,34028.3,0.196063,0.195727,0.051107,18,0.00846444,10,1.0003e-05,-4.29152,4.65118,0.0126849,0.0254827,0.195727,
2,1,0,1,0,34029.8,0.197561,0.197286,0.0515354,18,0.00855667,10,1.01672e-05,-4.28789,1.28039,0.0460798,0.0926823,0.197286,
2,1,0,1,0,34031.3,0.199059,0.198739,0.0514628,18,0.00864939,10,1.02277e-05,-4.28851,0.967378,0.0609896,0.121927,0.198739,
2,1,0,1,0,34032.8,0.200557,0.200244,0.0517925,18,0.00874201,10,1.03712e-05,-4.28573,2.04734,0.0288178,0.058301,0.2002442,
2,1,0,1,0,34034.3,0.202055,0.201739,0.0524761,18,0.00883514,10,1.05865e-05,-4.28004,2.08405,0.0283103,0.0568681,0.201739,
2,1,0,1,0,34035.8,0.203554,0.203277,0.0515312,18,0.00892831,10,1.04751e-05,-4.28793,-1.0003,-0.0589823,-0.119203,0.203277,
2,1,0,1,0,34037.3,0.205052,0.204715,0.0517063,18,0.00902088,10,1.0585e-05,-4.28646,1.96666,0.03,0.0610919,0.204715,
2,1,0,1,0,34038.8,0.20655,0.206212,0.0518161,18,0.00911372,10,1.06851e-05,-4.28554,0.657477,0.0897369,0.181999,0.206212,
2,1,0,1,0,34040.3,0.208048,0.207749,0.051936,18,0.00920721,10,1.07896e-05,-4.28453,1.08489,0.0543833,0.110243,0.207749,
2,1,0,1,0,34041.8,0.209546,0.209278,0.0523873,18,0.00930089,10,1.09635e-05,-4.28077,0.955707,0.0617344,0.126481,0.209278,
2,1,0,1,0,34043.3,0.211044,0.210759,0.0528934,18,0.00939447,10,1.11478e-05,-4.2766,0.454709,0.129753,0.266094,0.210759,
2,1,0,1,0,34044.8,0.212543,0.212216,0.0525971,18,0.00948871,10,1.1162e-05,-4.27904,0.653525,0.0902797,0.186335,0.212216,
2,1,0,1,0,34046.3,0.214041,0.213698,0.0532305,18,0.00958321,10,1.13752e-05,-4.27384,0.922641,0.0639469,0.132459,0.213698,
2,1,0,1,0,34047.8,0.215539,0.21523,0.0534322,18,0.00967811,10,1.15002e-05,-4.2722,0.511126,0.115431,0.239931,0.21523,
2,1,0,1,0,34049.3,0.217037,0.216755,0.0535447,18,0.00977327,10,1.16061e-05,-4.27128,1.05201,0.056083,0.117494,0.216755,
2,1,0,1,0,34050.8,0.218535,0.218214,0.0535057,18,0.00986879,10,1.16757e-05,-4.2716,0.710045,0.0830933,0.173743,0.218214,
2,1,0,1,0,34052.3,0.220034,0.219768,0.0540204,18,0.00996433,10,1.1872e-05,-4.26744,2.5435,0.0231964,0.0484389,0.219768,
2,1,0,1,0,34053.8,0.221532,0.221208,0.0540052,18,0.01006,10,1.19464e-05,-4.26756,1.1745,0.050234,0.105383,0.221208,
2,1,0,1,0,34055.3,0.22303,0.222703,0.0537076,18,0.0101557,10,1.19608e-05,-4.26996,0.978047,0.0603243,0.127075,0.222703,
2,1,0,1,0,34056.8,0.224528,0.224203,0.0539849,18,0.0102516,10,1.21036e-05,-4.26773,2.03398,0.0290071,0.061416,0.224203,
2,1,0,1,0,34058.2,0.226026,0.225701,0.0542773,18,0.0103478,10,1.22505e-05,-4.26538,0.614114,0.0960733,0.20412,0.2257015,
2,1,0,1,0,34059.7,0.227525,0.227188,0.0545262,18,0.0104444,10,1.23877e-05,-4.26339,0.952755,0.0619257,0.131917,0.227188,
2,1,0,1,0,34061.2,0.229023,0.228715,0.0547195,18,0.0105416,10,1.25152e-05,-4.26186,1.25737,0.0469235,0.100367,0.228715,
2,1,0,1,0,34062.7,0.230521,0.230204,0.0551885,18,0.0106389,10,1.27046e-05,-4.25815,1.40959,0.0418562,0.090543,0.230204,
2,1,0,1,0,34064.2,0.232019,0.231699,0.0550096,18,0.0107366,10,1.27457e-05,-4.25956,4.31608,0.0136698,0.0295265,0.231699,
2,1,0,1,0,34065.7,0.233517,0.233217,0.055309,18,0.0108346,10,1.2899e-05,-4.2572,-3.82476,-0.0154258,-0.0333582,0.233217,
2,1,0,1,0,34067.2,0.235016,0.234695,0.0556131,18,0.0109326,10,1.30521e-05,-4.25482,1.74106,0.0338875,0.0731266,0.234695,
2,1,0,1,0,34068.7,0.236514,0.236174,0.0557586,18,0.0110306,10,1.31687e-05,-4.25369,2.84335,0.0207501,0.0450443,0.236174,
2,1,0,1,0,34070.2,0.238012,0.23768,0.0558085,18,0.0111288,10,1.32645e-05,-4.2533,0.631886,0.0933713,0.202368,0.23768,
2,1,0,1,0,34071.7,0.23951,0.239213,0.0561796,18,0.0112274,10,1.34389e-05,-4.25042,0.551061,0.107066,0.234504,0.239213,
2,1,0,1,0,34073.2,0.241008,0.240694,0.0566708,18,0.0113262,10,1.36403e-05,-4.24664,0.396659,0.148742,0.327986,0.240694,
2,1,0,1,0,34074.7,0.242506,0.242232,0.0563296,18,0.0114253,10,1.36448e-05,-4.24926,0.965278,0.0611223,0.135108,0.242232,
2,1,0,1,0,34076.2,0.244005,0.243701,0.0570862,18,0.0115252,10,1.39119e-05,-4.24347,0.995721,0.0592536,0.130975,0.243701,
2,1,0,1,0,34077.7,0.245503,0.245135,0.0572771,18,0.0116254,10,1.40407e-05,-4.24202,0.684485,0.0861962,0.192081,0.245135,
2,1,0,1,0,34079.2,0.247001,0.246637,0.0574184,18,0.0117257,10,1.41615e-05,-4.24095,1.86498,0.0316357,0.070702,0.246637,
2,1,0,1,0,34080.7,0.248499,0.248194,0.0568957,18,0.0118259,10,1.41211e-05,-4.24492,-8.88881,-0.00663756,-0.0148397,0.248194,
2,1,0,1,0,34082.2,0.249997,0.249702,0.0571264,18,0.0119263,10,1.42646e-05,-4.24316,0.649995,0.0907699,0.202368,0.249702,
2,1,0,1,0,34083.7,0.251496,0.251172,0.0575648,18,0.0120269,10,1.44587e-05,-4.23984,0.734401,0.0803376,0.180657,0.251172,
2,1,0,1,0,34085.2,0.252994,0.252706,0.0575558,18,0.0121279,10,1.45447e-05,-4.23991,0.826523,0.0713833,0.160899,0.252706,
2,1,0,1,0,34086.7,0.254492,0.254175,0.0578196,18,0.0122291,10,1.46963e-05,-4.23792,0.98508,0.0598936,0.135761,0.254175,
2,1,0,1,0,34088.2,0.25599,0.255659,0.058633,18,0.0123305,10,1.49901e-05,-4.23186,0.491574,0.120023,0.272642,0.255659,
2,1,0,1,0,34089.7,0.257488,0.257173,0.0585974,18,0.0124326,10,1.50697e-05,-4.23212,0.921261,0.0640427,0.145874,0.257173,
2,1,0,1,0,34091.2,0.258987,0.258654,0.05885,18,0.0125352,10,1.52218e-05,-4.23025,1.11126,0.0530928,0.121032,0.258654,
2,1,0,1,0,34092.7,0.260485,0.260143,0.058933,18,0.0126378,10,1.5331e-05,-4.22964,2.81643,0.0209485,0.0482419,0.260143,
2,1,0,1,0,34094.2,0.261983,0.261666,0.0592792,18,0.0127404,10,1.55114e-05,-4.2271,-79.9509,-0.000737953,-0.00170435,0.261666,
2,1,0,1,0,34095.7,0.263481,0.263204,0.0594901,18,0.0128437,10,1.5658e-05,-4.22556,2.06868,0.0285206,0.0655895,0.263204,
2,1,0,1,0,34097.2,0.264979,0.264644,0.0592651,18,0.0129469,10,1.56841e-05,-4.2272,1.30351,0.0452623,0.104937,0.264644,
2,1,0,1,0,34098.7,0.266477,0.266127,0.0595038,18,0.0130501,10,1.58356e-05,-4.22546,-3.93142,-0.0150073,-0.0349049,0.266127,
2,1,0,1,0,34100.2,0.267976,0.26766,0.0598057,18,0.0131536,10,1.60076e-05,-4.22326,1.15331,0.0511571,0.119481,0.26766,
2,1,0,1,0,34101.7,0.269474,0.269166,0.0600682,18,0.0132577,10,1.61683e-05,-4.22136,0.573099,0.102949,0.240792,0.269166,
2,1,0,1,0,34103.2,0.270972,0.270677,0.0602671,18,0.0133618,10,1.63129e-05,-4.21992,0.706116,0.0835557,0.196885,0.270677,
2,1,0,1,0,34104.7,0.27247,0.272099,0.0603549,18,0.0134663,10,1.64225e-05,-4.21929,0.464967,0.126891,0.298133,0.272099,
2,1,0,1,0,34106.2,0.273968,0.273697,0.0610864,18,0.0135714,10,1.67192e-05,-4.21406,0.674563,0.0874641,0.20732,0.273697,
2,1,0,1,0,34107.7,0.275467,0.275154,0.0612769,18,0.0136768,10,1.68606e-05,-4.2127,0.98233,0.0600613,0.142749,0.275154,
2,1,0,1,0,34109.2,0.276965,0.276682,0.0613335,18,0.0137826,10,1.69699e-05,-4.2123,-3.41238,-0.01729,-0.0415157,0.2766825,
2,1,0,1,0,34110.7,0.278463,0.278167,0.0612294,18,0.0138885,10,1.7032e-05,-4.21304,-5.66044,-0.0104232,-0.0248888,0.278167,
2,1,0,1,0,34112.2,0.279961,0.279659,0.0610685,18,0.0139943,10,1.70784e-05,-4.21418,-1.75731,-0.033574,-0.0803567,0.279659,
2,1,0,1,0,34113.7,0.281459,0.281162,0.0612163,18,0.0140999,10,1.72117e-05,-4.21313,1.88607,0.0312819,0.0751321,0.281162,
2,1,0,1,0,34115.2,0.282958,0.282641,0.0614136,18,0.0142059,10,1.7358e-05,-4.21174,1.77039,0.033326,0.0798216,0.282641,
2,1,0,1,0,34116.7,0.284456,0.284114,0.0615538,18,0.0143122,10,1.74883e-05,-4.21075,1.03605,0.0569471,0.136963,0.284114,
2,1,0,1,0,34118.2,0.285954,0.28565,0.0617037,18,0.0144182,10,1.76257e-05,-4.20969,1.07726,0.0547688,0.132597,0.28565,
2,1,0,1,0,34119.7,0.287452,0.287131,0.061997,18,0.0145248,10,1.78013e-05,-4.20763,0.519441,0.113584,0.27527,0.2871308,
2,1,0,1,0,34121.2,0.28895,0.288624,0.0624813,18,0.014632,10,1.80336e-05,-4.20425,0.658795,0.0895575,0.217104,0.288624,
2,1,0,1,0,34122.7,0.290448,0.290201,0.0622826,18,0.0147393,10,1.80744e-05,-4.20563,3.04594,0.0193701,0.0473444,0.290201,
2,1,0,1,0,34124.2,0.291947,0.291632,0.0624688,18,0.0148467,10,1.82179e-05,-4.20434,-2.28814,-0.0257852,-0.0629151,0.291632,
2,1,0,1,0,34125.7,0.293445,0.293129,0.0622979,18,0.0149541,10,1.82614e-05,-4.20553,-1.79699,-0.0328327,-0.0801673,0.293129,
2,1,0,1,0,34127.2,0.294943,0.29466,0.0624919,18,0.0150613,10,1.84138e-05,-4.20418,2.25752,0.0261348,0.0637697,0.29466,
2,1,0,1,0,34128.7,0.296441,0.296103,0.0629689,18,0.0151687,10,1.86453e-05,-4.20087,0.951282,0.0620215,0.151653,0.296103,
2,1,0,1,0,34130.2,0.297939,0.297671,0.0628217,18,0.0152763,10,1.87002e-05,-4.20189,0.658344,0.0896188,0.220466,0.2976712,
2,1,0,1,0,34131.7,0.299438,0.299164,0.0632747,18,0.0153842,10,1.89295e-05,-4.19877,-0.00461509,-12.7842,-20.6406,0.299164,
2,1,0,1,0,34132.5,0.299737,0.299427,0.0328097,18,0.0154328,10,9.82413e-06,-4.484,0.00220405,26.769,38.0415,0.299427,
2,1,0,1,0,34134,0.298239,0.297937,0.0204944,18,0.015456,10,6.10604e-06,-4.68837,0.00567771,10.3915,13.5315,0.297937,
2,1,0,1,0,34135.5,0.296741,0.29644,0.0154606,18,0.015469,10,4.58314e-06,-4.81077,0.01404,4.20227,2.65453,0.29644,
2,1,0,1,0,34137,0.295243,0.294949,0.012423,18,0.0154758,10,3.66415e-06,-4.90577,0.0153318,3.84822,1.90503,0.294949,
2,1,0,1,0,34138.5,0.293745,0.293424,0.00939676,18,0.0154785,10,2.75724e-06,-5.02702,0.0148672,3.96847,1.51009,0.293424,
2,1,0,1,0,34140,0.292246,0.29193,0.00771688,18,0.0154778,10,2.25279e-06,-5.11256,0.014161,4.16636,1.2652,0.29193,
2,1,0,1,0,34141.5,0.290748,0.290434,0.00573607,18,0.015474,10,1.66595e-06,-5.24139,0.0105959,5.56819,1.21369,0.290434,
2,1,0,1,0,34143,0.28925,0.288934,0.00406232,18,0.0154676,10,1.17374e-06,-5.39123,0.00914564,6.45116,0.965485,0.288934,
2,1,0,1,0,34144.5,0.287752,0.287417,0.00232609,18,0.0154589,10,6.68559e-07,-5.63337,0.00584442,10.0951,0.860762,0.287417,
2,1,0,1,0,34146,0.286254,0.285954,0.00149419,18,0.0154483,10,4.2727e-07,-5.82559,0.00321145,18.3717,0.816977,0.285954,
2,0,0,1,0,34147.5,0.284755,0.284414,0.000492825,18,0.0154358,10,1.40166e-07,-6.30731,0.032842,1.79648,0.776859,0.284414,
2,1,0,1,0,34149,0.283257,0.282933,-0.0010047,18,0.0154215,10,-2.84263e-07,-5.99796,-0.00701505,-8.41049,0.792076,0.282933,
2,0,0,1,0,34150.5,0.281759,0.281431,-0.0022321,18,0.0154055,10,-6.28182e-07,-5.65129,-0.00573665,-10.2847,0.802824,0.281431,
2,1,0,1,0,34152,0.280261,0.279958,-0.00297328,18,0.0153878,10,-8.32393e-07,-5.52676,-0.00857487,-6.88057,0.797708,0.279958,
2,1,0,1,0,34153.5,0.278763,0.278448,-0.00463408,18,0.0153682,10,-1.29035e-06,-5.33404,-0.0139271,-4.23635,0.706464,0.2784481,
2,0,0,1,0,34155,0.277264,0.276974,-0.00549686,18,0.0153469,10,-1.52249e-06,-5.25989,-0.0180522,-3.26829,0.682511,0.276974,
2,1,0,1,0,34156.5,0.275766,0.27545,-0.00607001,18,0.0153241,10,-1.67199e-06,-5.21681,-0.029897,-1.97344,0.478328,0.27545,
2,0,0,1,0,34158,0.274268,0.273944,-0.00734765,18,0.0153002,10,-2.01284e-06,-5.13385,-0.0299103,-1.97257,0.570459,0.273944,
2,0,0,1,0,34159.5,0.27277,0.272432,-0.00793535,18,0.0152752,10,-2.16185e-06,-5.10043,-0.0275669,-2.14025,0.671865,0.272432,
2,0,0,1,0,34161,0.271272,0.270926,-0.00874433,18,0.0152486,10,-2.36906e-06,-5.05827,-0.0356586,-1.65458,0.585891,0.270926,
2,0,0,1,0,34162.5,0.269774,0.269433,-0.00969816,18,0.0152209,10,-2.613e-06,-5.01331,-0.0343076,-1.71973,0.66224,0.269433,
2,0,0,1,0,34164,0.268275,0.267961,-0.0103806,18,0.015192,10,-2.7816e-06,-4.98378,-0.0397359,-1.4848,0.597991,0.2679607,
2,0,0,1,0,34165.5,0.266777,0.266451,-0.0116896,18,0.0151618,10,-3.1147e-06,-4.9322,-0.0398668,-1.47993,0.659533,0.266451,
2,0,0,1,0,34167,0.265279,0.265003,-0.012473,18,0.0151304,10,-3.30538e-06,-4.90403,-0.057502,-1.02605,0.488405,0.2650032,
2,0,0,1,0,34168.5,0.263781,0.263458,-0.0130638,18,0.0150974,10,-3.44177e-06,-4.88393,-0.0455338,-1.29574,0.647517,0.263458,
2,0,0,1,0,34170,0.262283,0.261924,-0.0139126,18,0.0150634,10,-3.64404e-06,-4.85659,-0.0588367,-1.00278,0.530034,0.261924,
2,0,0,1,0,34171.5,0.260784,0.260445,-0.0144551,18,0.0150285,10,-3.76476e-06,-4.83998,-0.0830639,-0.710296,0.399589,0.260445,
2,0,0,1,0,34173,0.259286,0.258983,-0.015239,18,0.0149925,10,-3.94665e-06,-4.81704,-0.0582715,-1.0125,0.581864,0.258983,
2,0,0,1,0,34174.5,0.257788,0.257536,-0.0160278,18,0.0149554,10,-4.12772e-06,-4.79513,-0.0716213,-0.823777,0.500481,0.257536,
2,0,0,1,0,34176,0.25629,0.256003,-0.0165006,18,0.0149173,10,-4.22421e-06,-4.7825,-0.10613,-0.555921,0.354513,0.2560035,
2,0,0,1,0,34177.5,0.254792,0.254478,-0.0168183,18,0.0148783,10,-4.27988e-06,-4.77422,-0.0904084,-0.652594,0.435579,0.254478,
2,0,0,1,0,34179,0.253293,0.25298,-0.0173729,18,0.0148386,10,-4.39501e-06,-4.76013,-0.111303,-0.530084,0.360992,0.25298,
2,0,0,1,0,34180.5,0.251795,0.251501,-0.0179283,18,0.014798,10,-4.50898e-06,-4.74646,-0.0890748,-0.662365,0.474326,0.251501,
2,0,0,1,0,34181.9,0.250297,0.249996,-0.0188595,18,0.0147564,10,-4.71482e-06,-4.72447,-0.0918338,-0.642465,0.465646,0.249996,
2,0,0,1,0,34183.4,0.248799,0.24845,-0.019575,18,0.0147136,10,-4.86341e-06,-4.7083,-0.0944716,-0.624527,0.472057,0.24845,
2,0,0,1,0,34184.9,0.247301,0.247001,-0.0196766,18,0.0146702,10,-4.86014e-06,-4.70605,-0.121951,-0.4838,0.380818,0.247001,
2,0,0,1,0,34186.4,0.245802,0.245529,-0.0209028,18,0.0146255,10,-5.13225e-06,-4.67979,-0.0857979,-0.687662,0.554161,0.2455288,
2,0,0,1,0,34187.9,0.244304,0.243968,-0.0215335,18,0.0145795,10,-5.25349e-06,-4.66688,-0.11877,-0.496757,0.409828,0.243968,
2,0,0,1,0,34189.4,0.242806,0.242463,-0.021847,18,0.0145325,10,-5.29708e-06,-4.66061,-0.133594,-0.441635,0.378744,0.242463,
2,0,0,1,0,34190.9,0.241308,0.240995,-0.0223943,18,0.0144852,10,-5.3969e-06,-4.64986,-0.189028,-0.312122,0.271555,0.240995,
2,0,0,1,0,34192.4,0.23981,0.239524,-0.0230571,18,0.0144369,10,-5.52272e-06,-4.6372,-0.109969,-0.536514,0.47858,0.239524,
2,0,0,1,0,34193.9,0.238312,0.237999,-0.0237706,18,0.0143875,10,-5.65738e-06,-4.62396,-0.16295,-0.362074,0.331279,0.237999,
2,0,0,1,0,34195.4,0.236813,0.236496,-0.0239317,18,0.0143374,10,-5.65975e-06,-4.62103,-0.157712,-0.374099,0.351986,0.236496,
2,0,0,1,0,34196.9,0.235315,0.23499,-0.0245134,18,0.0142867,10,-5.76039e-06,-4.6106,-0.159909,-0.368959,0.351297,0.23499,
2,0,0,1,0,34198.4,0.233817,0.233507,-0.0252126,18,0.014235,10,-5.88731e-06,-4.59838,-0.208938,-0.282381,0.275214,0.233507,
2,0,0,1,0,34199.9,0.232319,0.23202,-0.0255248,18,0.0141825,10,-5.92228e-06,-4.59304,-0.197437,-0.29883,0.298296,0.23202,
2,0,0,1,0,34201.4,0.230821,0.2305,-0.0262912,18,0.0141293,10,-6.06012e-06,-4.58019,-0.153087,-0.385401,0.393071,0.2305,
2,0,0,1,0,34202.9,0.229322,0.228987,-0.0267484,18,0.0140752,10,-6.12502e-06,-4.5727,-0.159693,-0.369458,0.38024,0.2289865,
2,0,0,1,0,34204.4,0.227824,0.227492,-0.0273228,18,0.0140203,10,-6.21574e-06,-4.56347,-0.174527,-0.338056,0.35883,0.227492,
2,0,0,1,0,34205.9,0.226326,0.226033,-0.0275403,18,0.0139646,10,-6.22503e-06,-4.56003,-0.157519,-0.374559,0.407223,0.226033,
2,0,0,1,0,34207.4,0.224828,0.224502,-0.0281829,18,0.0139079,10,-6.32711e-06,-4.55001,-0.207058,-0.284944,0.315205,0.224502,
2,0,0,1,0,34208.9,0.22333,0.223016,-0.0290413,18,0.0138503,10,-6.47669e-06,-4.53698,-0.155113,-0.380368,0.432392,0.223016,
2,0,0,1,0,34210.4,0.221831,0.221512,-0.0296244,18,0.0137919,10,-6.56216e-06,-4.52835,-0.142975,-0.41266,0.474312,0.221512,
2,0,0,1,0,34211.9,0.220333,0.220023,-0.0302422,18,0.0137323,10,-6.65399e-06,-4.51939,-0.188468,-0.313051,0.367468,0.2200229,
2,0,0,1,0,34213.4,0.218835,0.218508,-0.0312998,18,0.0136717,10,-6.83925e-06,-4.50446,-0.194405,-0.303489,0.366454,0.218508,
2,0,0,1,0,34214.9,0.217337,0.217056,-0.0308884,18,0.0136104,10,-6.70451e-06,-4.5102,-0.26379,-0.223663,0.273419,0.217056,
2,0,0,1,0,34216.4,0.215839,0.215506,-0.0319669,18,0.0135485,10,-6.88904e-06,-4.4953,-0.224732,-0.262535,0.326263,0.215506,
2,0,0,1,0,34217.9,0.21434,0.214019,-0.0321579,18,0.0134856,10,-6.88239e-06,-4.49271,-0.155464,-0.37951,0.480096,0.214019,
2,0,0,1,0,34219.4,0.212842,0.212553,-0.032944,18,0.0134218,10,-7.00237e-06,-4.48222,-0.245127,-0.240692,0.30873,0.212553,
2,0,0,1,0,34220.9,0.211344,0.211024,-0.0333262,18,0.0133571,10,-7.03264e-06,-4.47721,-0.192267,-0.306866,0.402096,0.211024,
2,0,0,1,0,34222.4,0.209846,0.209533,-0.0339888,18,0.0132917,10,-7.1218e-06,-4.46866,-0.183988,-0.320673,0.427558,0.209533,
2,0,0,1,0,34223.9,0.208348,0.208038,-0.0349953,18,0.0132253,10,-7.28036e-06,-4.45599,-0.19763,-0.298538,0.403857,0.208038,
2,0,0,1,0,34225.4,0.20685,0.206493,-0.035537,18,0.0131577,10,-7.33814e-06,-4.44932,-0.220153,-0.267995,0.36943,0.206493,
2,0,0,1,0,34226.9,0.205351,0.205028,-0.0363952,18,0.0130892,10,-7.46203e-06,-4.43896,-0.263381,-0.22401,0.311102,0.205028,
2,0,0,1,0,34228.4,0.203853,0.203487,-0.0362496,18,0.0130198,10,-7.37631e-06,-4.4407,-0.17858,-0.330384,0.471156,0.2034869,
2,0,0,1,0,34229.9,0.202355,0.202049,-0.0367492,18,0.0129499,10,-7.42513e-06,-4.43475,-0.218669,-0.269814,0.391107,0.202049,
2,0,0,1,0,34231.4,0.200857,0.200553,-0.0377542,18,0.0128786,10,-7.57172e-06,-4.42303,-0.197328,-0.298995,0.438622,0.200553,
2,0,0,1,0,34232.9,0.199359,0.199025,-0.0384827,18,0.0128064,10,-7.659e-06,-4.41473,-0.37428,-0.157636,0.237407,0.199025,
2,0,0,1,0,34234.4,0.19786,0.197508,-0.0389073,18,0.0127335,10,-7.68453e-06,-4.40997,-0.259324,-0.227514,0.344427,0.197508,
2,0,0,1,0,34235.9,0.196362,0.196051,-0.0393716,18,0.0126598,10,-7.71885e-06,-4.40482,-0.227341,-0.259522,0.399178,0.1960513,
2,0,0,1,0,34237.4,0.194864,0.194514,-0.0400066,18,0.0125849,10,-7.78182e-06,-4.39787,-0.212696,-0.277392,0.432638,0.194514,
2,0,0,1,0,34238.9,0.193366,0.193041,-0.0405951,18,0.0125091,10,-7.83652e-06,-4.39153,-0.215702,-0.273525,0.433561,0.193041,
2,0,0,1,0,34240.4,0.191868,0.191538,-0.0410727,18,0.0124327,10,-7.867e-06,-4.38645,-0.179524,-0.328647,0.532228,0.191538,
2,0,0,1,0,34241.9,0.190369,0.190061,-0.0421891,18,0.0123552,10,-8.0185e-06,-4.3748,-0.191628,-0.307888,0.502411,0.190061,
2,0,0,1,0,34243.4,0.188871,0.188514,-0.0425205,18,0.0122762,10,-8.0157e-06,-4.3714,-0.165719,-0.356025,0.589663,0.188514,
2,0,0,1,0,34244.9,0.187373,0.187007,-0.0432222,18,0.0121966,10,-8.08286e-06,-4.36429,-0.239201,-0.246655,0.416736,0.187007,
2,0,0,1,0,34246.4,0.185875,0.185516,-0.04408,18,0.0121156,10,-8.17755e-06,-4.35576,-0.260456,-0.226526,0.38781,0.185516,
2,0,0,1,0,34247.9,0.184377,0.184056,-0.0444252,18,0.0120337,10,-8.17673e-06,-4.35237,-0.219279,-0.269063,0.471062,0.184056,
2,0,0,1,0,34249.4,0.182878,0.182532,-0.0454577,18,0.0119508,10,-8.29749e-06,-4.34239,-0.198528,-0.297187,0.52801,0.182532,
2,0,0,1,0,34250.9,0.18138,0.181075,-0.0463733,18,0.0118663,10,-8.39705e-06,-4.33373,-0.196643,-0.300036,0.541239,0.181075,
2,0,0,1,0,34252.4,0.179882,0.179561,-0.0467114,18,0.0117807,10,-8.38755e-06,-4.33058,-0.218871,-0.269565,0.496111,0.179561,
2,0,0,1,0,34253.9,0.178384,0.178017,-0.0479646,18,0.011694,10,-8.53851e-06,-4.31908,-0.182468,-0.323345,0.606057,0.178017,
2,0,0,1,0,34255.4,0.176886,0.176552,-0.0489021,18,0.0116059,10,-8.63374e-06,-4.31067,-0.160239,-0.3682,0.703918,0.176552,
2,0,0,1,0,34256.9,0.175388,0.175016,-0.0498079,18,0.0115158,10,-8.71719e-06,-4.3027,-0.181218,-0.325574,0.632137,0.175016,
2,0,0,1,0,34258.4,0.173889,0.173551,-0.0508188,18,0.0114243,10,-8.81964e-06,-4.29398,-0.22549,-0.261652,0.517822,0.173551,
2,0,0,1,0,34259.9,0.172391,0.172085,-0.0518008,18,0.0113318,10,-8.91415e-06,-4.28566,-0.229072,-0.257561,0.519637,0.172085,
2,0,0,1,0,34261.4,0.170893,0.170611,-0.0526057,18,0.0112383,10,-8.97512e-06,-4.27897,-0.179005,-0.329599,0.671071,0.170611,
2,0,0,1,0,34262.9,0.169395,0.16907,-0.0534616,18,0.0111428,10,-9.03878e-06,-4.27196,-0.182327,-0.323595,0.672874,0.16907,
2,0,0,1,0,34264.4,0.167897,0.167581,-0.0540648,18,0.0110459,10,-9.06021e-06,-4.26709,-0.15426,-0.382471,0.815964,0.167581,
2,0,0,1,0,34265.8,0.166398,0.166077,-0.0554355,18,0.0109474,10,-9.20654e-06,-4.25621,-0.184124,-0.320437,0.69558,0.166077,
2,0,0,1,0,34267.3,0.1649,0.16455,-0.0562756,18,0.0108473,10,-9.26014e-06,-4.24968,-0.171132,-0.344764,0.763478,0.16455,
2,0,0,1,0,34268.8,0.163402,0.163098,-0.0576551,18,0.0107454,10,-9.40343e-06,-4.23916,-0.151818,-0.388624,0.878189,0.163098,
2,0,0,1,0,34270.3,0.161904,0.161551,-0.0591773,18,0.0106417,10,-9.56015e-06,-4.22785,-0.149472,-0.394723,0.911883,0.161551,
2,0,0,1,0,34271.8,0.160406,0.160061,-0.0608235,18,0.0105355,10,-9.73547e-06,-4.21593,-0.132927,-0.443851,1.0484,0.160061,
2,0,0,1,0,34273.3,0.158907,0.158578,-0.0617724,18,0.0104268,10,-9.79572e-06,-4.20921,-0.125134,-0.471493,1.14773,0.158578,
2,0,0,1,0,34274.8,0.157409,0.157085,-0.0633012,18,0.0103159,10,-9.94364e-06,-4.19859,-0.126996,-0.464581,1.16813,0.157085,
2,0,0,1,0,34276.3,0.155911,0.155563,-0.0658086,18,0.0102021,10,-1.02374e-05,-4.18172,-0.126355,-0.466938,1.19885,0.155563,
2,0,0,1,0,34277.8,0.154413,0.154075,-0.0671474,18,0.0100852,10,-1.03457e-05,-4.17297,-0.118108,-0.499545,1.316,0.154075,
2,0,0,1,0,34279.3,0.152915,0.152626,-0.0693189,18,0.00996553,10,-1.05798e-05,-4.15915,-0.103332,-0.570973,1.56162,0.152626,
2,0,0,1,0,34280.8,0.151417,0.151073,-0.0723272,18,0.00984251,10,-1.09267e-05,-4.1407,-0.0998445,-0.590919,1.65828,0.151073,
2,0,0,1,0,34282.3,0.149918,0.149619,-0.0748998,18,0.0097155,10,-1.12065e-05,-4.12552,-0.0894908,-0.659285,1.92341,0.149619,
2,0,0,1,0,34283.8,0.14842,0.148107,-0.0773963,18,0.00958459,10,-1.1463e-05,-4.11128,-0.0861579,-0.684789,2.06147,0.148107,
2,0,0,1,0,34285.3,0.146922,0.146558,-0.0803195,18,0.00944899,10,-1.17715e-05,-4.09518,-0.0796274,-0.740951,2.32242,0.146558,
2,0,0,1,0,34286.8,0.145424,0.145074,-0.0836383,18,0.00930889,10,-1.21338e-05,-4.07759,-0.0811152,-0.727361,2.38724,0.145074,
2,0,0,1,0,34288.3,0.143926,0.14359,-0.0875349,18,0.00916271,10,-1.25691e-05,-4.05782,-0.0724101,-0.814803,2.78147,0.14359,
2,0,0,1,0,34289.8,0.142427,0.142132,-0.0914888,18,0.00901053,10,-1.30035e-05,-4.03863,-0.0721227,-0.81805,2.94502,0.142132,
2,0,0,1,0,34291.3,0.140929,0.140602,-0.0956786,18,0.00885212,10,-1.34526e-05,-4.01919,-0.0745209,-0.791724,2.97733,0.140602,
2,0,0,1,0,34292.8,0.139431,0.139078,-0.100368,18,0.00868698,10,-1.3959e-05,-3.9984,-0.0753845,-0.782654,3.07652,0.139078,
2,0,0,1,0,34294.3,0.137933,0.137648,-0.105012,18,0.00851463,10,-1.44547e-05,-3.97876,-0.075433,-0.782151,3.20721,0.137648,
2,0,0,1,0,34295.8,0.136435,0.136137,-0.110633,18,0.00833486,10,-1.50613e-05,-3.95612,-0.0793042,-0.743971,3.19791,0.136137,
2,0,0,1,0,34297.3,0.134936,0.134625,-0.115309,18,0.00814771,10,-1.55235e-05,-3.93814,-0.0817387,-0.721812,3.23468,0.134625,
2,0,0,1,0,34298.8,0.133438,0.133088,-0.119804,18,0.00795308,10,-1.59445e-05,-3.92153,-0.087516,-0.674163,3.15009,0.133088,
2,0,0,1,0,34300.3,0.13194,0.131621,-0.124564,18,0.00775183,10,-1.63953e-05,-3.90461,-0.097038,-0.608009,2.94313,0.131621,
2,0,0,1,0,34301.8,0.130442,0.130103,-0.128234,18,0.00754364,10,-1.66835e-05,-3.892,-0.115906,-0.509032,2.5481,0.130103,
2,0,0,1,0,34303.3,0.128944,0.128662,-0.132079,18,0.00732973,10,-1.69936e-05,-3.87917,-0.150619,-0.391717,2.01094,0.128662,
2,0,0,1,0,34304.8,0.127445,0.127103,-0.135175,18,0.00711087,10,-1.71811e-05,-3.8691,-0.173536,-0.339987,1.78425,0.127103,
2,0,0,1,0,34306.3,0.125947,0.125611,-0.137401,18,0.00688879,10,-1.7259e-05,-3.86201,-0.226682,-0.260277,1.3918,0.125611,
2,0,0,1,0,34307.8,0.124449,0.124104,-0.139653,18,0.00666305,10,-1.73315e-05,-3.85495,-0.250352,-0.235668,1.27826,0.124104,
2,0,0,1,0,34309.3,0.122951,0.122621,-0.141751,18,0.0064345,10,-1.73817e-05,-3.84847,-0.329939,-0.178821,0.981885,0.122621,
2,0,0,1,0,34310.8,0.121453,0.121135,-0.142307,18,0.00620362,10,-1.72383e-05,-3.84677,-0.571964,-0.103153,0.571395,0.121135,
2,0,0,1,0,34312.3,0.119955,0.119615,-0.14283,18,0.00597198,10,-1.70847e-05,-3.84518,-0.923959,-0.0638557,0.355529,0.119615,
2,0,0,1,0,34313.8,0.118456,0.118084,-0.143135,18,0.00573918,10,-1.6902e-05,-3.84425,-0.769137,-0.0767094,0.42762,0.118084,
2,0,0,1,0,34315.3,0.116958,0.11662,-0.143631,18,0.00550554,10,-1.67502e-05,-3.84275,-3.77607,-0.0156247,0.0874351,0.11662,
2,0,0,1,0,34316.8,0.11546,0.115148,-0.143733,18,0.00527206,10,-1.65506e-05,-3.84244,1.06259,0.0555245,-0.311455,0.115148,
2,0,0,1,0,34318.3,0.113962,0.113671,-0.142314,18,0.00503916,10,-1.61769e-05,-3.84675,1.22633,0.0481112,-0.268476,0.113671,
2,0,0,1,0,34319.8,0.112464,0.112102,-0.142439,18,0.00480688,10,-1.59677e-05,-3.84637,1.09028,0.0541147,-0.301573,0.112102,
2,0,0,1,0,34321.3,0.110965,0.110652,-0.142914,18,0.00457464,10,-1.58137e-05,-3.84493,1.73653,0.0339758,-0.188685,0.110652,
2,0,0,1,0,34322.8,0.109467,0.109139,-0.142447,18,0.00434252,10,-1.55466e-05,-3.84635,0.963695,0.0612227,-0.339616,0.109139,
2,0,0,1,0,34324.3,0.107969,0.107637,-0.141651,18,0.00411096,10,-1.52468e-05,-3.84878,1.8016,0.0327486,-0.182172,0.107637,
2,0,0,1,0,34325.8,0.106471,0.106104,-0.142075,18,0.00388053,10,-1.50748e-05,-3.84748,4.27203,0.0138108,-0.0767205,0.106104,
2,0,0,1,0,34327.3,0.104973,0.10465,-0.141571,18,0.0036495,10,-1.48153e-05,-3.84903,3.13834,0.0187998,-0.10364,0.1046496,
2,0,0,1,0,34328.8,0.103474,0.103158,-0.141171,18,0.00341881,10,-1.45628e-05,-3.85026,0.555029,0.106301,-0.585554,0.103158,
2,0,0,1,0,34330.3,0.101976,0.101641,-0.140878,18,0.00318936,10,-1.4319e-05,-3.85116,0.825891,0.071438,-0.392133,0.101641,
2,0,0,1,0,34331.8,0.100478,0.100146,-0.140372,18,0.0029612,10,-1.40577e-05,-3.85272,0.943927,0.0625048,-0.34133,0.100146,
2,0,0,1,0,34333.3,0.0989798,0.0986604,-0.139506,18,0.0027336,10,-1.37638e-05,-3.85541,0.791983,0.0744966,-0.404079,0.0986604,
2,0,0,1,0,34334.8,0.0974816,0.097162,-0.138454,18,0.00250682,10,-1.34525e-05,-3.85869,0.789586,0.0747227,-0.404501,0.097162,
2,0,0,1,0,34336.3,0.0959834,0.095651,-0.137652,18,0.00228162,10,-1.31665e-05,-3.86122,0.472099,0.124974,-0.67268,0.095651,
2,0,0,1,0,34337.8,0.0944852,0.0941473,-0.136673,18,0.00205785,10,-1.28674e-05,-3.86432,0.535299,0.110219,-0.590759,0.0941473,
2,0,0,1,0,34339.3,0.0929871,0.0926681,-0.135838,18,0.00183548,10,-1.25878e-05,-3.86698,0.720077,0.0819357,-0.434663,0.0926681,
2,0,0,1,0,34340.8,0.0914889,0.0911326,-0.135062,18,0.00161396,10,-1.23085e-05,-3.86947,0.565102,0.104406,-0.549864,0.0911326,
2,0,0,1,0,34342.3,0.0899907,0.0896555,-0.134201,18,0.00139444,10,-1.20319e-05,-3.87224,0.368226,0.160228,-0.837821,0.0896555,
2,0,0,1,0,34343.8,0.0884925,0.0881518,-0.131637,18,0.0011768,10,-1.1604e-05,-3.88062,0.416415,0.141686,-0.733145,0.08815179,
2,0,0,1,0,34345.3,0.0869943,0.0866555,-0.131927,18,0.000960654,10,-1.14322e-05,-3.87966,0.502895,0.117321,-0.604158,0.0866555,
2,0,0,1,0,34346.8,0.0854961,0.085154,-0.130358,18,0.000746095,10,-1.11005e-05,-3.88486,0.534686,0.110345,-0.563635,0.085154,
2,0,0,1,0,34348.2,0.083998,0.0836303,-0.129889,18,0.000532727,10,-1.08626e-05,-3.88643,0.38056,0.155035,-0.784879,0.0836303,
2,0,0,1,0,34349.7,0.0824998,0.0821998,-0.129017,18,0.00032064,10,-1.06052e-05,-3.88935,0.480225,0.122859,-0.618596,0.0821998,
2,0,0,1,0,34351.2,0.0810016,0.0806495,-0.128365,18,0.000110478,10,-1.03525e-05,-3.89155,0.566065,0.104228,-0.521929,0.0806495,
2,0,0,1,0,34352.7,0.0795034,0.0791564,-0.127872,18,-9.88832e-05,10,-1.01219e-05,-3.89322,0.509904,0.115708,-0.57521,0.0791564,
2,0,0,1,0,34354.2,0.0780052,0.077657,-0.126838,18,-0.000307099,10,-9.84983e-06,-3.89675,0.558662,0.105609,-0.52179,0.077657,
2,0,0,1,0,34355.7,0.076507,0.0761565,-0.12588,18,-0.000514041,10,-9.58655e-06,-3.90004,0.451502,0.130675,-0.640101,0.0761565,
2,0,0,1,0,34357.2,0.0750088,0.0746571,-0.124866,18,-0.000719172,10,-9.32216e-06,-3.90355,0.457437,0.128979,-0.62836,0.0746571,
2,0,0,1,0,34358.7,0.0735106,0.0731619,-0.124022,18,-0.00092326,10,-9.07371e-06,-3.9065,0.687387,0.0858323,-0.415844,0.0731619,
2,0,0,1,0,34360.2,0.0720124,0.0716869,-0.123695,18,-0.00112637,10,-8.86728e-06,-3.90765,0.677083,0.0871385,-0.419909,0.0716869,
2,0,0,1,0,34361.7,0.0705142,0.0701907,-0.122708,18,-0.00132847,10,-8.61297e-06,-3.91113,0.768473,0.0767756,-0.368167,0.0701907,
2,0,0,1,0,34363.2,0.069016,0.0687092,-0.121825,18,-0.00152946,10,-8.37049e-06,-3.91426,0.913911,0.0645577,-0.30845,0.06870921,
2,0,0,1,0,34364.7,0.0675178,0.0671737,-0.121527,18,-0.00172988,10,-8.16345e-06,-3.91533,0.805571,0.07324,-0.347177,0.0671737,
2,0,0,1,0,34366.2,0.0660196,0.065705,-0.121934,18,-0.00192948,10,-8.01166e-06,-3.91388,0.635199,0.0928842,-0.438687,0.065705,
2,0,0,1,0,34367.7,0.0645214,0.0642003,-0.120156,18,-0.00212808,10,-7.71408e-06,-3.92025,0.467546,0.126191,-0.59195,0.0642003,
2,0,0,1,0,34369.2,0.0630233,0.0627402,-0.118961,18,-0.00232522,10,-7.46362e-06,-3.9246,1.18739,0.0496888,-0.231741,0.0627402,
2,0,0,1,0,34370.7,0.0615251,0.06119,-0.119211,18,-0.00252144,10,-7.29455e-06,-3.92368,0.814059,0.0724763,-0.336049,0.06119,
2,0,0,1,0,34372.2,0.0600269,0.0597054,-0.118793,18,-0.0027173,10,-7.09259e-06,-3.92521,0.773036,0.0763224,-0.354411,0.0597054,
2,0,0,1,0,34373.7,0.0585287,0.0581826,-0.118271,18,-0.00291236,10,-6.88133e-06,-3.92712,0.438631,0.13451,-0.616857,0.0581826,
2,0,0,1,0,34375.2,0.0570305,0.0567001,-0.117317,18,-0.00310668,10,-6.65187e-06,-3.93064,0.965465,0.0611105,-0.280226,0.0567001,
2,0,0,1,0,34376.7,0.0555323,0.0552028,-0.117029,18,-0.00329927,10,-6.46036e-06,-3.9317,0.975409,0.0604874,-0.276415,0.0552028,
2,0,0,1,0,34378.2,0.0540342,0.0537364,-0.116178,18,-0.00349173,10,-6.243e-06,-3.93488,0.867,0.0680507,-0.308173,0.0537364,
2,0,0,1,0,34379.7,0.052536,0.0522433,-0.11606,18,-0.00368365,10,-6.06337e-06,-3.93532,0.637758,0.0925116,-0.418895,0.05224333,
2,0,0,1,0,34381.2,0.0510378,0.0507375,-0.115263,18,-0.00387448,10,-5.84814e-06,-3.93831,0.439718,0.134177,-0.603984,0.05073753,
2,0,0,1,0,34382.7,0.0495396,0.0492031,-0.114671,18,-0.0040641,10,-5.64217e-06,-3.94055,0.718358,0.0821317,-0.368477,0.0492031,
2,0,0,1,0,34384.2,0.0480414,0.0477154,-0.114206,18,-0.0042532,10,-5.44938e-06,-3.94231,1.76423,0.0334424,-0.148925,0.0477154,
2,0,0,1,0,34385.7,0.0465432,0.0461756,-0.11345,18,-0.00444154,10,-5.23863e-06,-3.9452,0.62808,0.0939371,-0.416422,0.0461756,
2,0,0,1,0,34387.2,0.045045,0.0446942,-0.113056,18,-0.00462925,10,-5.05296e-06,-3.94671,0.718633,0.0821003,-0.362296,0.0446942,
2,0,0,1,0,34388.7,0.0435468,0.0432383,-0.112283,18,-0.00481549,10,-4.85494e-06,-3.94968,0.777857,0.0758494,-0.333245,0.0432383,
2,0,0,1,0,34390.2,0.0420486,0.0417388,-0.112131,18,-0.00500073,10,-4.68021e-06,-3.95027,0.699812,0.0843083,-0.367754,0.0417388,
2,0,0,1,0,34391.7,0.0405504,0.0402373,-0.111853,18,-0.00518545,10,-4.50065e-06,-3.95135,0.666909,0.0884678,-0.384251,0.0402373,
2,0,0,1,0,34393.2,0.0390522,0.0387167,-0.111037,18,-0.00536969,10,-4.29899e-06,-3.95453,0.852893,0.0691763,-0.299194,0.0387167,
2,0,0,1,0,34394.7,0.037554,0.0372183,-0.109671,18,-0.00555291,10,-4.08176e-06,-3.95991,0.555783,0.106156,-0.456537,0.0372183,
2,0,0,1,0,34396.2,0.0360558,0.0357443,-0.109399,18,-0.00573475,10,-3.91039e-06,-3.96099,0.671273,0.0878927,-0.37723,0.0357443,
2,0,0,1,0,34397.7,0.0345576,0.0342057,-0.108641,18,-0.00591577,10,-3.71614e-06,-3.96401,0.657023,0.089799,-0.382694,0.0342057,
2,0,0,1,0,34399.2,0.0330594,0.0327498,-0.108714,18,-0.00609632,10,-3.56035e-06,-3.96372,0.50873,0.115975,-0.49083,0.0327498,
2,0,0,1,0,34400.7,0.0315613,0.0312568,-0.108271,18,-0.00627596,10,-3.38421e-06,-3.96549,0.679867,0.0867817,-0.36757,0.03125678,
2,0,0,1,0,34402.2,0.0300631,0.0297478,-0.107411,18,-0.00645449,10,-3.19523e-06,-3.96895,1.48351,0.0397704,-0.167427,0.0297478,
2,0,0,1,0,34403.7,0.0285649,0.0282441,-0.10744,18,-0.00663302,10,-3.03455e-06,-3.96883,1.26084,0.0467942,-0.196089,0.0282441,
2,0,0,1,0,34405.2,0.0270667,0.0266918,-0.107055,18,-0.00681106,10,-2.85749e-06,-3.97039,0.617485,0.0955489,-0.399537,0.0266918,
2,0,0,1,0,34406.7,0.0255685,0.025223,-0.106852,18,-0.00698825,10,-2.69513e-06,-3.97122,2.90536,0.0203073,-0.0846381,0.025223,
2,0,0,1,0,34408.2,0.0240703,0.0237618,-0.106573,18,-0.00716452,10,-2.53237e-06,-3.97235,1.74095,0.0338895,-0.140867,0.0237618,
2,0,0,1,0,34409.7,0.0225722,0.0222349,-0.10583,18,-0.00734108,10,-2.35312e-06,-3.97539,-2.6257,-0.0224702,0.0932321,0.0222349,
2,0,0,1,0,34411.2,0.021074,0.0207228,-0.105855,18,-0.00751715,10,-2.19361e-06,-3.97529,1.6826,0.0350648,-0.145447,0.0207228,
2,0,0,1,0,34412.7,0.0195758,0.0192552,-0.105658,18,-0.00769296,10,-2.03446e-06,-3.9761,1.24694,0.0473159,-0.195557,0.0192552,
2,0,0,1,0,34414.2,0.0180776,0.017778,-0.105277,18,-0.00786827,10,-1.87161e-06,-3.97767,1.66234,0.0354922,-0.146366,0.017778,
2,0,0,1,0,34415.7,0.0165794,0.0162414,-0.105981,18,-0.00804354,10,-1.72128e-06,-3.97477,12.1987,0.0048366,-0.0199532,0.0162414,
2,0,0,1,0,34417.2,0.0150812,0.0147293,-0.106027,18,-0.00821874,10,-1.5617e-06,-3.97458,1.77999,0.0331463,-0.136535,0.0147293,
2,0,0,1,0,34418.7,0.013583,0.0132893,-0.105608,18,-0.00839407,10,-1.40345e-06,-3.9763,-6.53534,-0.00902784,0.0371756,0.0132893,
2,0,0,1,0,34420.2,0.0120848,0.0117718,-0.105768,18,-0.00856919,10,-1.24509e-06,-3.97564,-1.52155,-0.0387762,0.16078,0.0117718,
2,0,0,1,0,34421.7,0.0105866,0.0102374,-0.105853,18,-0.00874453,10,-1.08365e-06,-3.9753,-0.750855,-0.0785771,0.326831,0.0102374,
2,0,0,1,0,34423.2,0.00908843,0.00872521,-0.106906,18,-0.00892086,10,-9.32775e-07,-3.971,-0.995434,-0.0592706,0.24703,0.008725212,
2,0,0,1,0,34424.7,0.00759024,0.00724914,-0.107025,18,-0.00909799,10,-7.75841e-07,-3.97051,-2.6709,-0.0220899,0.092248,0.00724914,
2,0,0,1,0,34426.2,0.00609203,0.00577518,-0.10793,18,-0.00927563,10,-6.23315e-07,-3.96686,-0.726849,-0.0811723,0.340547,0.00577518,
2,0,0,1,0,34427.7,0.00459384,0.00426196,-0.10795,18,-0.00945327,10,-4.60081e-07,-3.96678,-1.18526,-0.0497783,0.210196,0.00426196,
2,0,0,1,0,34429.2,0.00309563,0.00276466,-0.108466,18,-0.00963199,10,-2.99871e-07,-3.96471,-0.44649,-0.132142,0.560208,0.00276466,
2,0,0,1,0,34430.6,0.00159744,0.00121009,-0.10936,18,-0.00981389,10,-1.32336e-07,-3.96114, , , ,0.00121009,
2,0,0,1,0,34432,0.000199235,-0.000214582,-0.11021,18,-0.00998297,10,2.36492e-08,-3.95778, , , ,-0.000214582,