File: Figure_codes/Fig_3-5/rawdata_trumpetplot_data/after 10th/20221101_1-115_003_TrumpetPlot_ParaChange_from10_every3_07_CV_C01_25.csv
mode,ox/red,error,control changes,counter inc.,time/s,control/V,Ewe/V,<I>/mA,cycle number,(Q-Qo)/C,I Range,P/W,log(|I|),Tafel slope mV/dec,alpha_eff,dI/d(E-IR),E-IR/V,
2,0,0,0,0,50418.3,2.44065e-05,-0.000325324,-2.71094,26,0.0000000E+000,10,8.81933e-07,-2.56688, , , ,-0.000325324,
2,0,0,1,0,50418.3,0.0013005,0.000879438,-1.38781,26,-4.05539e-05,10,-1.22049e-06,-2.85767, , , ,0.0008794379,
2,0,0,1,0,50418.3,0.00279471,0.00246194,-0.459014,26,-6.2346e-05,10,-1.13007e-06,-3.33817,-0.00535998,-11.0075,513.936,0.00246194,
2,1,0,1,0,50418.3,0.00429425,0.00392728,0.150738,26,-6.53891e-05,10,5.91992e-07,-3.82178,-0.35753,-0.165021,360.355,0.00392728,
2,1,0,1,0,50418.4,0.00579379,0.00545452,0.58514,26,-5.54598e-05,10,3.19166e-06,-3.23274,0.00265286,22.2401,265.816,0.00545452,
2,1,0,1,0,50418.4,0.007288,0.00697407,0.924659,26,-3.6017e-05,10,6.44864e-06,-3.03402,0.00905659,6.51459,202.611,0.006974068,
2,1,0,1,0,50418.4,0.00878882,0.00842219,1.18977,26,-9.01163e-06,10,1.00204e-05,-2.92454,0.0162258,3.63618,158.696,0.00842219,
2,1,0,1,0,50418.4,0.0102896,0.00994365,1.41186,26,2.39572e-05,10,1.4039e-05,-2.85021,0.0242983,2.42815,127.812,0.00994365,
2,1,0,1,0,50418.5,0.0117838,0.0114245,1.57901,26,6.15545e-05,10,1.80393e-05,-2.80162,0.0334896,1.76174,105.83,0.0114245,
2,1,0,1,0,50418.5,0.0132834,0.0129061,1.71455,26,0.00010311,10,2.2128e-05,-2.76585,0.0428502,1.37689,91.2387,0.0129061,
2,1,0,1,0,50418.5,0.0147816,0.0144606,1.83888,26,0.000148021,10,2.65914e-05,-2.73545,0.0552538,1.0678,75.9405,0.01446064,
2,1,0,1,0,50418.5,0.0162811,0.015983,1.94929,26,0.000195809,10,3.11555e-05,-2.71012,0.0702581,0.839761,63.2748,0.015983,
2,1,0,1,0,50418.6,0.0177753,0.0174111,2.0415,26,0.000245865,10,3.55446e-05,-2.69005,0.0787812,0.74891,59.1515,0.0174111,
2,1,0,1,0,50418.6,0.0192761,0.0189363,2.11588,26,0.000298217,10,4.00668e-05,-2.67451,0.0916161,0.643992,53.0664,0.0189363,
2,1,0,1,0,50418.6,0.020777,0.0204748,2.1993,26,0.000352526,10,4.50304e-05,-2.65771,0.104351,0.565398,48.2445,0.0204748,
2,1,0,1,0,50418.6,0.0222712,0.0218859,2.26756,26,0.000408461,10,4.96276e-05,-2.64444,0.121685,0.484857,42.698,0.0218859,
2,1,0,1,0,50418.7,0.0237707,0.0234152,2.32964,26,0.000466308,10,5.4549e-05,-2.63271,0.128109,0.460547,41.7852,0.0234152,
2,1,0,1,0,50418.7,0.0252703,0.0249349,2.3824,26,0.000525631,10,5.9405e-05,-2.62298,0.138278,0.426676,39.7766,0.0249349,
2,1,0,1,0,50418.7,0.0267645,0.0264492,2.44453,26,0.000586174,10,6.46558e-05,-2.6118,0.14841,0.397547,37.8981,0.0264492,
2,1,0,1,0,50418.7,0.0282653,0.027937,2.50676,26,0.000648442,10,7.00312e-05,-2.60089,0.155856,0.378556,36.8932,0.027937,
2,1,0,1,0,50418.8,0.0297648,0.0294321,2.56123,26,0.000712074,10,7.53823e-05,-2.59155,0.167451,0.352342,35.0635,0.0294321,
2,1,0,1,0,50418.8,0.031259,0.0309322,2.6021,26,0.000776712,10,8.04888e-05,-2.58468,0.172841,0.341354,34.6872,0.03093222,
2,1,0,1,0,50418.8,0.0327585,0.0324089,2.65712,26,0.000842849,10,8.61145e-05,-2.57559,0.177818,0.331801,34.4102,0.0324089,
2,1,0,1,0,50418.8,0.034258,0.0339828,2.71145,26,0.000910327,10,9.21426e-05,-2.5668,0.185275,0.318446,33.628,0.0339828,
2,1,0,1,0,50418.9,0.0357576,0.0354335,2.76291,26,0.000979129,10,9.78994e-05,-2.55863,0.191732,0.307722,33.1049,0.0354335,
2,1,0,1,0,50418.9,0.0372518,0.0368964,2.80632,26,0.00104887,10,0.000103543,-2.55186,0.192269,0.306862,33.7028,0.0368964,
2,1,0,1,0,50418.9,0.0387526,0.0383792,2.85727,26,0.00112008,10,0.00010966,-2.54405,0.210902,0.279751,31.2444,0.03837923,
2,1,0,1,0,50418.9,0.0402534,0.0398821,2.90983,26,0.00119255,10,0.00011605,-2.53613,0.205157,0.287584,32.6253,0.0398821,
2,1,0,1,0,50419,0.0417476,0.0413534,2.96484,26,0.00126603,10,0.000122606,-2.528,0.194935,0.302665,34.9085,0.0413534,
2,1,0,1,0,50419,0.0432472,0.0429358,3.00502,26,0.00134098,10,0.000129023,-2.52215,0.214983,0.27444,32.1997,0.0429358,
2,1,0,1,0,50419,0.0447467,0.0444504,3.05038,26,0.00141706,10,0.000135591,-2.51565,0.222408,0.265278,31.6023,0.0444504,
2,1,0,1,0,50419,0.0462463,0.0458647,3.10033,26,0.00149433,10,0.000142196,-2.50859,0.218903,0.269526,32.5746,0.0458647,
2,1,0,1,0,50419.1,0.0477391,0.0473927,3.14781,26,0.00157252,10,0.000149183,-2.50199,0.2173,0.271514,33.3266,0.0473927,
2,1,0,1,0,50419.1,0.0492399,0.0488971,3.19144,26,0.00165219,10,0.000156052,-2.49601,0.236288,0.249695,31.1561,0.0488971,
2,1,0,1,0,50419.1,0.0507408,0.0504266,3.23659,26,0.00173301,10,0.00016321,-2.48991,0.259607,0.227266,28.7382,0.0504266,
2,1,0,1,0,50419.1,0.052235,0.0519177,3.28939,26,0.00181463,10,0.000170777,-2.48288,0.252759,0.233424,29.9468,0.0519177,
2,1,0,1,0,50419.2,0.0537345,0.0534104,3.33751,26,0.00189776,10,0.000178258,-2.47658,0.242145,0.243656,31.6688,0.05341037,
2,1,0,1,0,50419.2,0.0552341,0.0549126,3.3805,26,0.0019821,10,0.000185632,-2.47102,0.255387,0.231022,30.4534,0.0549126,
2,1,0,1,0,50419.2,0.0567283,0.0563741,3.41787,26,0.0020672,10,0.000192679,-2.46624,0.290751,0.202923,27.1119,0.0563741,
2,1,0,1,0,50419.2,0.0582291,0.0579128,3.47087,26,0.00215364,10,0.000201008,-2.45956,0.293746,0.200854,27.1662,0.0579128,
2,1,0,1,0,50419.3,0.0597299,0.0594047,3.51195,26,0.00224121,10,0.000208626,-2.45445,0.279061,0.211423,28.948,0.0594047,
2,1,0,1,0,50419.3,0.0612228,0.060889,3.55187,26,0.00232952,10,0.00021627,-2.44954,0.284225,0.207582,28.7514,0.060889,
2,1,0,1,0,50419.3,0.0627223,0.0623928,3.58883,26,0.00241928,10,0.000223917,-2.44505,0.306354,0.192588,27.0284,0.06239276,
2,1,0,1,0,50419.3,0.0642219,0.0638617,3.63176,26,0.00251001,10,0.000231931,-2.43988,0.314378,0.187672,26.6394,0.0638617,
2,1,0,1,0,50419.4,0.0657214,0.0653668,3.68289,26,0.00260177,10,0.000240738,-2.43381,0.296831,0.198766,28.5095,0.0653668,
2,1,0,1,0,50419.4,0.0672156,0.0668766,3.71978,26,0.00269426,10,0.000248767,-2.42948,0.297161,0.198546,28.7959,0.0668766,
2,1,0,1,0,50419.4,0.0687164,0.0684058,3.75346,26,0.00278812,10,0.000256758,-2.42557,0.356507,0.165495,24.2517,0.0684058,
2,1,0,1,0,50419.4,0.0702172,0.0698869,3.79572,26,0.00288288,10,0.000265271,-2.42071,0.369087,0.159854,23.6626,0.0698869,
2,1,0,1,0,50419.5,0.0717115,0.0713826,3.83679,26,0.00297817,10,0.00027388,-2.41603,0.347135,0.169963,25.3921,0.0713826,
2,1,0,1,0,50419.5,0.073211,0.0728632,3.86679,26,0.00307483,10,0.000281747,-2.41265,0.334949,0.176146,26.5841,0.0728632,
2,1,0,1,0,50419.5,0.0747105,0.0743724,3.89931,26,0.00317238,10,0.000290001,-2.40901,0.415073,0.142144,21.648,0.0743724,
2,1,0,1,0,50419.5,0.0762101,0.0758653,3.93802,26,0.00327076,10,0.000298759,-2.40472,0.438208,0.134639,20.6876,0.0758653,
2,1,0,1,0,50419.6,0.0777042,0.0773362,3.97076,26,0.00336953,10,0.000307083,-2.40113,0.400991,0.147135,22.7723,0.0773362,
2,1,0,1,0,50419.6,0.0792037,0.0788609,4.00185,26,0.00346956,10,0.000315589,-2.39774,0.390678,0.15102,23.5617,0.0788609,
2,1,0,1,0,50419.6,0.0807046,0.0803578,4.02956,26,0.00357038,10,0.000323807,-2.39474,0.48259,0.122257,19.2203,0.0803578,
2,1,0,1,0,50419.6,0.0821988,0.0819018,4.0603,26,0.00367156,10,0.000332546,-2.39144,0.519799,0.113506,17.9794,0.0819018,
2,1,0,1,0,50419.7,0.0836983,0.0833759,4.09272,26,0.0037738,10,0.000341234,-2.38799,0.509201,0.115868,18.4975,0.0833759,
2,1,0,1,0,50419.7,0.0851979,0.0848838,4.11794,26,0.00387683,10,0.000349546,-2.38532,0.453143,0.130202,20.9423,0.0848838,
2,1,0,1,0,50419.7,0.0866921,0.0863655,4.1438,26,0.00398017,10,0.000357882,-2.3826,0.548008,0.107663,17.4305,0.0863655,
2,1,0,1,0,50419.7,0.0881929,0.0879038,4.17747,26,0.00408463,10,0.000367216,-2.37909,0.543398,0.108576,17.6921,0.0879038,
2,1,0,1,0,50419.8,0.0896937,0.0893783,4.21069,26,0.00418974,10,0.000376344,-2.37565,0.494344,0.11935,19.5877,0.0893783,
2,1,0,1,0,50419.8,0.0911879,0.0908421,4.23781,26,0.00429518,10,0.000384972,-2.37286,0.410479,0.143735,23.75,0.0908421,
2,1,0,1,0,50419.8,0.0926861,0.0923606,4.26772,26,0.00440185,10,0.000394169,-2.3698,0.449345,0.131302,21.8787,0.0923606,
2,1,0,1,0,50419.8,0.0941856,0.0938879,4.30328,26,0.00450938,10,0.000404026,-2.3662,0.464509,0.127016,21.3267,0.0938879,
2,1,0,1,0,50419.9,0.0956852,0.0953509,4.33504,26,0.00461775,10,0.00041335,-2.36301,0.397962,0.148255,25.1199,0.0953509,
2,1,0,1,0,50419.9,0.0971794,0.0968329,4.37811,26,0.00472662,10,0.000423945,-2.35871,0.322394,0.183006,31.2931,0.0968329,
2,1,0,1,0,50419.9,0.0986802,0.0983564,4.42367,26,0.00483704,10,0.000435096,-2.35422,0.335534,0.175839,30.3764,0.0983564,
2,1,0,1,0,50419.9,0.100181,0.099814,4.4747,26,0.00494859,10,0.000446638,-2.34924,0.333455,0.176935,30.8646,0.09981402,
2,1,0,1,0,50420,0.101675,0.101346,4.51847,26,0.00506087,10,0.00045793,-2.34501,0.301916,0.195419,34.4715,0.1013461,
2,1,0,1,0,50420,0.103175,0.102845,4.57359,26,0.00517487,10,0.000470371,-2.33974,0.275068,0.214493,38.3289,0.102845,
2,1,0,1,0,50420,0.104674,0.104361,4.63261,26,0.00529034,10,0.000483465,-2.33417,0.267211,0.2208,39.9526,0.104361,
2,1,0,1,0,50420,0.106169,0.105824,4.69543,26,0.0054069,10,0.000496887,-2.32832,0.255624,0.230808,42.326,0.105824,
2,1,0,1,0,50420.1,0.107668,0.107325,4.76444,26,0.00552551,10,0.000511344,-2.32199,0.232262,0.254024,47.23,0.107325,
2,1,0,1,0,50420.1,0.109169,0.108845,4.83482,26,0.00564583,10,0.000526244,-2.31562,0.222656,0.264983,50.0278,0.108845,
2,1,0,1,0,50420.1,0.110663,0.110313,4.90487,26,0.00576751,10,0.000541071,-2.30937,0.228321,0.258408,49.5064,0.110313,
2,1,0,1,0,50420.1,0.112163,0.111764,4.98371,26,0.00589157,10,0.000556999,-2.30245,0.240184,0.245645,47.7344,0.111764,
2,1,0,1,0,50420.2,0.113662,0.113318,5.05995,26,0.00601748,10,0.000573385,-2.29585,0.237535,0.248385,48.9998,0.113318,
2,1,0,1,0,50420.2,0.115162,0.114818,5.12672,26,0.00614515,10,0.00058864,-2.29016,0.235962,0.25004,50.0541,0.114818,
2,1,0,1,0,50420.2,0.116656,0.116308,5.2003,26,0.00627413,10,0.000604835,-2.28397,0.243935,0.241868,49.0999,0.116308,
2,1,0,1,0,50420.2,0.118157,0.117831,5.27717,26,0.0064055,10,0.000621816,-2.2776,0.273287,0.215891,44.3953,0.117831,
2,1,0,1,0,50420.3,0.119657,0.119315,5.34611,26,0.00653864,10,0.000637872,-2.27196,0.292941,0.201406,41.9366,0.119315,
2,1,0,1,0,50420.3,0.121152,0.120815,5.40246,26,0.00667277,10,0.000652699,-2.26741,0.294263,0.200501,42.2576,0.120815,
2,1,0,1,0,50420.3,0.122651,0.122328,5.45928,26,0.00680892,10,0.000667822,-2.26287,0.313753,0.188046,40.0475,0.122328,
2,1,0,1,0,50420.3,0.124151,0.12379,5.51764,26,0.00694653,10,0.00068303,-2.25825,0.362789,0.162629,35.0014,0.12379,
2,1,0,1,0,50420.4,0.125649,0.125319,5.57063,26,0.00708548,10,0.000698106,-2.2541,0.412575,0.143004,31.028,0.125319,
2,1,0,1,0,50420.4,0.127143,0.126794,5.60816,26,0.00722508,10,0.000711079,-2.25118,0.429581,0.137343,30.0644,0.1267937,
2,1,0,1,0,50420.4,0.128644,0.128312,5.65111,26,0.00736623,10,0.000725103,-2.24787,0.486491,0.121277,26.7624,0.128312,
2,1,0,1,0,50420.4,0.130145,0.129786,5.69265,26,0.00750844,10,0.000738828,-2.24469,0.533858,0.110516,24.5229,0.129786,
2,1,0,1,0,50420.5,0.131639,0.131346,5.72881,26,0.00765103,10,0.000752458,-2.24194,0.65148,0.090563,20.2121,0.131346,
2,1,0,1,0,50420.5,0.133139,0.132804,5.75697,26,0.007795,10,0.000764548,-2.23981,0.7251,0.0813681,18.269,0.1328038,
2,1,0,1,0,50420.5,0.134638,0.1343,5.77495,26,0.00793959,10,0.000775576,-2.23845,0.832526,0.0708686,16.0009,0.1343001,
2,1,0,1,0,50420.5,0.136132,0.135754,5.80585,26,0.00808424,10,0.000788167,-2.23613,0.999611,0.059023,13.3708,0.135754,
2,1,0,1,0,50420.6,0.137633,0.13729,5.83118,26,0.00823008,10,0.000800563,-2.23424,1.25186,0.0471298,10.7069,0.13729,
2,1,0,1,0,50420.6,0.139133,0.138787,5.84432,26,0.00837632,10,0.000811117,-2.23327,1.6287,0.0362253,8.24375,0.138787,
2,1,0,1,0,50420.6,0.140627,0.1403,5.84415,26,0.00852222,10,0.000819932,-2.23328,5.83273,0.0101153,2.30633,0.1403,
2,1,0,1,0,50420.6,0.142126,0.141741,5.84386,26,0.00866874,10,0.000828315,-2.2333,-2.90131,-0.0203357,-4.63177,0.141741,
2,1,0,1,0,50420.7,0.143626,0.143304,5.83957,26,0.00881519,10,0.000836833,-2.23362,-1.0875,-0.0542531,-12.322,0.1433039,
2,1,0,1,0,50420.7,0.145125,0.144791,5.80896,26,0.0089612,10,0.000841084,-2.2359,-0.597349,-0.0987698,-22.3422,0.1447909,
2,1,0,1,0,50420.7,0.14662,0.146244,5.7593,26,0.00910567,10,0.000842262,-2.23963,-0.377914,-0.15612,-35.0506,0.146244,
2,1,0,1,0,50420.7,0.14812,0.147799,5.70394,26,0.0092494,10,0.000843037,-2.24382,-0.268222,-0.219967,-48.8015,0.147799,
2,1,0,1,0,50420.8,0.149621,0.149251,5.62627,26,0.00939139,10,0.000839725,-2.24978,-0.215651,-0.27359,-59.8065,0.149251,
2,1,0,1,0,50420.8,0.151116,0.150779,5.52584,26,0.00953057,10,0.000833183,-2.2576,-0.180115,-0.327568,-70.3435,0.150779,
2,1,0,1,0,50420.8,0.152615,0.152254,5.39866,26,0.00966758,10,0.000821967,-2.26771,-0.1465,-0.402731,-84.6772,0.152254,
2,1,0,1,0,50420.8,0.154115,0.153745,5.26382,26,0.00980132,10,0.000809285,-2.2787,-0.124703,-0.473124,-97.0109,0.153745,
2,1,0,1,0,50420.9,0.155614,0.155271,5.11971,26,0.00993151,10,0.000794943,-2.29075,-0.115589,-0.510429,-101.692,0.155271,
2,1,0,1,0,50420.9,0.157107,0.156782,4.95606,26,0.0100573,10,0.00077702,-2.30486,-0.103666,-0.569133,-109.738,0.156782,
2,1,0,1,0,50420.9,0.158608,0.158271,4.78634,26,0.0101795,10,0.000757541,-2.32,-0.0979345,-0.602443,-112.458,0.158271,
2,1,0,1,0,50420.9,0.160109,0.159738,4.60829,26,0.0102973,10,0.000736119,-2.33646,-0.0941029,-0.626973,-112.936,0.1597379,
2,1,0,1,0,50421,0.161603,0.161265,4.45064,26,0.0104104,10,0.000717731,-2.35158,-0.0915265,-0.644622,-111.786,0.161265,
2,1,0,1,0,50421,0.163102,0.162802,4.28046,26,0.0105199,10,0.000696868,-2.36851,-0.0942513,-0.625986,-104.617,0.1628021,
2,1,0,1,0,50421,0.164602,0.164236,4.12393,26,0.0106253,10,0.000677297,-2.38469,-0.0940417,-0.627381,-101.19,0.164236,
2,1,0,1,0,50421,0.166096,0.165731,3.976,26,0.0107266,10,0.000658947,-2.40055,-0.0965332,-0.611189,-95.1851,0.165731,
2,1,0,1,0,50421.1,0.167597,0.167242,3.8485,26,0.0108247,10,0.000643631,-2.41471,-0.104155,-0.566462,-85.1433,0.167242,
2,1,0,1,0,50421.1,0.169098,0.168719,3.72825,26,0.0109197,10,0.000629025,-2.4285,-0.114895,-0.513513,-74.7558,0.168719,
2,1,0,1,0,50421.1,0.170592,0.170289,3.60917,26,0.0110114,10,0.0006146,-2.44259,-0.116481,-0.506522,-71.5124,0.170289,
2,1,0,1,0,50421.1,0.17209,0.171773,3.5014,26,0.0111007,10,0.000601444,-2.45576,-0.122914,-0.48001,-65.8579,0.171773,
2,1,0,1,0,50421.2,0.17359,0.173265,3.412,26,0.0111875,10,0.000591181,-2.46699,-0.12873,-0.458325,-61.1443,0.173265,
2,1,0,1,0,50421.2,0.175089,0.17479,3.33001,26,0.0112722,10,0.000582054,-2.47755,-0.151188,-0.390243,-50.7712,0.17479,
2,1,0,1,0,50421.2,0.176583,0.176234,3.24988,26,0.0113545,10,0.000572738,-2.48813,-0.148324,-0.397779,-50.5688,0.176234,
2,1,0,1,0,50421.2,0.178084,0.177758,3.17956,26,0.0114353,10,0.00056519,-2.49763,-0.152216,-0.387607,-48.1825,0.177758,
2,1,0,1,0,50421.3,0.179585,0.179281,3.12088,26,0.0115143,10,0.000559515,-2.50572,-0.174855,-0.337422,-41.0848,0.179281,
2,1,0,1,0,50421.3,0.181079,0.180737,3.06224,26,0.0115916,10,0.000553461,-2.51396,-0.211146,-0.279428,-33.4153,0.180737,
2,1,0,1,0,50421.3,0.182579,0.182255,3.00881,26,0.0116679,10,0.000548372,-2.5216,-0.214023,-0.275671,-32.4053,0.182255,
2,1,0,1,0,50421.3,0.184078,0.183738,2.9634,26,0.0117429,10,0.00054449,-2.52821,-0.220214,-0.267921,-31.0202,0.183738,
2,1,0,1,0,50421.4,0.185578,0.185263,2.92327,26,0.0118167,10,0.000541573,-2.53413,-0.219697,-0.268551,-30.6475,0.185263,
2,1,0,1,0,50421.4,0.187072,0.186737,2.88439,26,0.0118893,10,0.000538621,-2.53995,-0.290369,-0.203189,-22.8235,0.186737,
2,1,0,1,0,50421.4,0.188573,0.188258,2.84766,26,0.0119612,10,0.000536096,-2.54551,-0.308594,-0.19119,-21.2366,0.188258,
2,1,0,1,0,50421.4,0.190072,0.189706,2.8138,26,0.0120323,10,0.000533795,-2.55071,-0.299911,-0.196725,-21.5959,0.189706,
2,1,0,1,0,50421.5,0.191567,0.19121,2.77932,26,0.0121023,10,0.000531434,-2.55606,-0.333426,-0.176951,-19.2223,0.19121,
2,1,0,1,0,50421.5,0.193066,0.19274,2.75509,26,0.0121718,10,0.000531016,-2.55986,-0.408321,-0.144494,-15.5278,0.19274,
2,1,0,1,0,50421.5,0.194566,0.194209,2.72298,26,0.0122407,10,0.000528826,-2.56496,-0.405599,-0.145464,-15.4999,0.194209,
2,1,0,1,0,50421.5,0.19606,0.195739,2.70438,26,0.0123087,10,0.000529352,-2.56793,-0.361417,-0.163246,-17.23,0.195739,
2,1,0,1,0,50421.6,0.197561,0.197233,2.68441,26,0.0123764,10,0.000529454,-2.57115,-0.395665,-0.149116,-15.6148,0.197233,
2,1,0,1,0,50421.6,0.199062,0.198768,2.66693,26,0.0124436,10,0.000530102,-2.57399,-0.481775,-0.122464,-12.7079,0.1987682,
2,1,0,1,0,50421.6,0.200556,0.200206,2.64432,26,0.01251,10,0.000529409,-2.57769,-0.60112,-0.0981501,-10.1264,0.200206,
2,1,0,1,0,50421.6,0.202055,0.201672,2.62742,26,0.0125762,10,0.000529878,-2.58047,-0.515388,-0.114477,-11.7346,0.201672,
2,1,0,1,0,50421.7,0.203553,0.203225,2.61229,26,0.0126421,10,0.000530884,-2.58298,-0.547541,-0.107754,-10.9819,0.203225,
2,1,0,1,0,50421.7,0.205053,0.204722,2.59363,26,0.0127075,10,0.000530974,-2.58609,-0.819009,-0.0720383,-7.30225,0.204722,
2,1,0,1,0,50421.7,0.206547,0.206216,2.57833,26,0.0127723,10,0.000531692,-2.58866,-0.91069,-0.0647861,-6.54106,0.206216,
2,1,0,1,0,50421.7,0.208048,0.207668,2.57119,26,0.0128372,10,0.000533954,-2.58987,-0.66011,-0.089379,-8.97133,0.207668,
2,1,0,1,0,50421.8,0.209549,0.209212,2.56071,26,0.0129018,10,0.00053573,-2.59164,-0.558298,-0.105678,-10.5534,0.209212,
2,1,0,1,0,50421.8,0.211043,0.210718,2.54894,26,0.0129657,10,0.000537107,-2.59364,-0.799959,-0.0737538,-7.3369,0.210718,
2,1,0,1,0,50421.8,0.212543,0.212199,2.53449,26,0.0130295,10,0.000537817,-2.59611,-1.04674,-0.0563653,-5.57785,0.212199,
2,1,0,1,0,50421.8,0.214042,0.213744,2.52417,26,0.0130932,10,0.000539526,-2.59788,-0.881585,-0.0669249,-6.60394,0.213744,
2,1,0,1,0,50421.9,0.215536,0.215231,2.52012,26,0.0131563,10,0.000542408,-2.59858,-0.762129,-0.0774147,-7.6009,0.215231,
2,1,0,1,0,50421.9,0.217036,0.216725,2.5049,26,0.0132195,10,0.000542875,-2.60121,-0.982121,-0.0600741,-5.88085,0.216725,
2,1,0,1,0,50421.9,0.218537,0.218216,2.49672,26,0.0132824,10,0.000544824,-2.60263,-1.61077,-0.0366283,-3.57233,0.218216,
2,1,0,1,0,50421.9,0.220031,0.219715,2.49289,26,0.0133449,10,0.000547726,-2.6033,-1.10534,-0.0533774,-5.18835,0.219715,
2,1,0,1,0,50422,0.22153,0.221209,2.48492,26,0.0134075,10,0.000549688,-2.60469,-0.996804,-0.0591891,-5.73414,0.2212093,
2,1,0,1,0,50422,0.22303,0.222729,2.47807,26,0.0134698,10,0.000551938,-2.60589,-1.31387,-0.0449055,-4.33657,0.222729,
2,1,0,1,0,50422,0.224529,0.224185,2.46294,26,0.013532,10,0.000552153,-2.60855,-1.32218,-0.0446232,-4.30484,0.224185,
2,1,0,1,0,50422,0.226024,0.225672,2.46085,26,0.0135938,10,0.000555344,-2.60892,-1.00668,-0.0586087,-5.63842,0.225672,
2,1,0,1,0,50422.1,0.227525,0.227213,2.45725,26,0.0136556,10,0.000558318,-2.60955,-0.938529,-0.0628643,-6.0203,0.227213,
2,1,0,1,0,50422.1,0.229025,0.228639,2.4519,26,0.0137173,10,0.0005606,-2.6105,-1.57646,-0.0374257,-3.5764,0.228639,
2,1,0,1,0,50422.1,0.23052,0.230193,2.4387,26,0.0137786,10,0.000561371,-2.61284,-2.82777,-0.0208645,-1.99087,0.230193,
2,1,0,1,0,50422.1,0.232019,0.231699,2.4348,26,0.0138399,10,0.00056414,-2.61354,-1.62057,-0.036407,-3.46472,0.231699,
2,1,0,1,0,50422.2,0.233519,0.233179,2.43605,26,0.0139012,10,0.000568036,-2.61331,-1.85919,-0.0317343,-3.0136,0.233179,
2,1,0,1,0,50422.2,0.235018,0.234693,2.43127,26,0.0139624,10,0.000570601,-2.61417,-1.57035,-0.0375712,-3.55637,0.234693,
2,1,0,1,0,50422.2,0.236511,0.236187,2.41917,26,0.0140231,10,0.000571375,-2.61633,-1.79617,-0.0328477,-3.10926,0.236187,
2,1,0,1,0,50422.2,0.238012,0.237658,2.41627,26,0.014084,10,0.000574246,-2.61686,-1.87602,-0.0314495,-2.96474,0.237658,
2,1,0,1,0,50422.3,0.239513,0.239182,2.4151,26,0.0141447,10,0.000577649,-2.61707,-1.2999,-0.045388,-4.2709,0.239182,
2,1,0,1,0,50422.3,0.241007,0.240726,2.41257,26,0.0142052,10,0.000580769,-2.61752,-2.20685,-0.026735,-2.50923,0.2407258,
2,1,0,1,0,50422.3,0.242506,0.24216,2.40043,26,0.0142657,10,0.000581288,-2.61971,-1.93384,-0.0305093,-2.86167,0.24216,
2,1,0,1,0,50422.3,0.244006,0.243707,2.39331,26,0.0143261,10,0.000583266,-2.621,-2.50322,-0.0235696,-2.21159,0.243707,
2,1,0,1,0,50422.4,0.2455,0.245199,2.39986,26,0.0143862,10,0.000588445,-2.61981,-1.22578,-0.0481327,-4.50126,0.245199,
2,1,0,1,0,50422.4,0.247001,0.246658,2.39648,26,0.0144464,10,0.000591111,-2.62043,-2.03903,-0.0289354,-2.69854,0.246658,
2,1,0,1,0,50422.4,0.248502,0.248139,2.38641,26,0.0145066,10,0.000592159,-2.62226,-3.39852,-0.0173605,-1.61723,0.248139,
2,1,0,1,0,50422.4,0.249995,0.249656,2.3815,26,0.0145663,10,0.000594555,-2.62315,-6.46522,-0.00912575,-0.849388,0.249656,
2,1,0,1,0,50422.5,0.251494,0.251141,2.38148,26,0.0146262,10,0.000598089,-2.62315,-3.15286,-0.0187132,-1.73908,0.251141,
2,1,0,1,0,50422.5,0.252994,0.252626,2.37737,26,0.0146861,10,0.000600585,-2.6239,-1.34531,-0.0438562,-4.06747,0.252626,
2,1,0,1,0,50422.5,0.254493,0.254178,2.37267,26,0.0147458,10,0.000603082,-2.62476,-2.95493,-0.0199666,-1.85039,0.254178,
2,1,0,1,0,50422.5,0.255988,0.255656,2.36172,26,0.0148052,10,0.000603788,-2.62677,-1.64638,-0.0358362,-3.31744,0.255656,
2,1,0,1,0,50422.6,0.257488,0.257198,2.3654,26,0.0148647,10,0.000608375,-2.6261,-1.28519,-0.0459078,-4.23449,0.2571975,
2,1,0,1,0,50422.6,0.258989,0.258686,2.36557,26,0.0149242,10,0.00061194,-2.62606,-3.49226,-0.0168945,-1.5561,0.2586863,
2,1,0,1,0,50422.6,0.260483,0.260163,2.36387,26,0.0149834,10,0.000614991,-2.62638,-2.65281,-0.0222405,-2.04748,0.260163,
2,1,0,1,0,50422.6,0.261983,0.261662,2.35101,26,0.0150427,10,0.000615171,-2.62874,-2.16742,-0.0272213,-2.50499,0.261662,
2,1,0,1,0,50422.7,0.263482,0.263098,2.35093,26,0.0151018,10,0.000618525,-2.62876,-1.95336,-0.0302043,-2.76976,0.263098,
2,1,0,1,0,50422.7,0.264982,0.264681,2.34946,26,0.0151609,10,0.000621857,-2.62903,-6.49656,-0.00908173,-0.832254,0.264681,
2,1,0,1,0,50422.7,0.266476,0.266149,2.34376,26,0.0152198,10,0.00062379,-2.63009,-1.9949,-0.0295754,-2.70623,0.266149,
2,1,0,1,0,50422.7,0.267976,0.267666,2.33697,26,0.0152787,10,0.000625528,-2.63135,-2.10768,-0.0279929,-2.56075,0.2676661,
2,1,0,1,0,50422.8,0.269477,0.269111,2.33762,26,0.0153375,10,0.000629078,-2.63123,-1.47308,-0.0400522,-3.64979,0.269111,
2,1,0,1,0,50422.8,0.270971,0.270628,2.3421,26,0.0153961,10,0.000633838,-2.63039,-4.94232,-0.0119377,-1.0862,0.270628,
2,1,0,1,0,50422.8,0.27247,0.272173,2.33002,26,0.0154548,10,0.000634167,-2.63264,-3.04003,-0.0194077,-1.76398,0.272173,
2,1,0,1,0,50422.8,0.27397,0.273652,2.32442,26,0.0155134,10,0.000636082,-2.63369,-1.59009,-0.0371049,-3.37309,0.273652,
2,1,0,1,0,50422.9,0.275464,0.275118,2.32121,26,0.0155716,10,0.000638609,-2.63428,-1.75124,-0.0336905,-3.05693,0.275118,
2,1,0,1,0,50422.9,0.276965,0.276648,2.32487,26,0.01563,10,0.000643171,-2.6336,-1.91677,-0.0307809,-2.78408,0.276648,
2,1,0,1,0,50422.9,0.278466,0.278138,2.31498,26,0.0156884,10,0.000643884,-2.63545,-2.17973,-0.0270676,-2.44655,0.278138,
2,1,0,1,0,50422.9,0.27996,0.279686,2.31332,26,0.0157464,10,0.000647001,-2.63577,-2.71764,-0.02171,-1.96311,0.279686,
2,1,0,1,0,50423,0.281458,0.281181,2.30601,26,0.0158045,10,0.000648408,-2.63714,-1.68591,-0.034996,-3.1547,0.281181,
2,1,0,1,0,50423,0.282958,0.28263,2.3041,26,0.0158625,10,0.000651208,-2.6375,-5.0558,-0.0116698,-1.04832,0.28263,
2,1,0,1,0,50423,0.284457,0.284146,2.30219,26,0.0159205,10,0.000654158,-2.63786,-3.19389,-0.0184728,-1.65844,0.284146,
2,1,0,1,0,50423,0.285951,0.285639,2.29355,26,0.0159781,10,0.000655126,-2.63949,-1.56309,-0.0377458,-3.38869,0.285639,
2,1,0,1,0,50423.1,0.287452,0.287089,2.29008,26,0.0160358,10,0.000657458,-2.64015,-1.99222,-0.0296152,-2.65124,0.287089,
2,1,0,1,0,50423.1,0.288953,0.288669,2.29093,26,0.0160935,10,0.00066132,-2.63999,-5.64977,-0.0104429,-0.93313,0.288669,
2,1,0,1,0,50423.1,0.290447,0.290096,2.28662,26,0.0161508,10,0.00066334,-2.64081,-38.7771,-0.00152152,-0.135711,0.290096,
2,1,0,1,0,50423.1,0.291947,0.291661,2.27949,26,0.0162083,10,0.000664837,-2.64216,-1.25086,-0.0471675,-4.20364,0.291661,
2,1,0,1,0,50423.2,0.293446,0.293096,2.2741,26,0.0162657,10,0.000666529,-2.64319,-0.964841,-0.06115,-5.43785,0.293096,
2,1,0,1,0,50423.2,0.29494,0.294599,2.27882,26,0.0163228,10,0.000671339,-2.64229,-2.72341,-0.021664,-1.9237,0.294599,
2,1,0,1,0,50423.2,0.29644,0.296099,2.27426,26,0.0163799,10,0.000673407,-2.64316,-20.96,-0.00281488,-0.249362,0.296099,
2,1,0,1,0,50423.2,0.297941,0.297634,2.26559,26,0.0164371,10,0.000674315,-2.64482,-1.5339,-0.038464,-3.4007,0.297634,
2,1,0,1,0,50423.3,0.29944,0.299165,2.26291,26,0.0164941,10,0.000676985,-2.64533,-0.00852734,-6.91892,-488.879,0.299165,
2,1,0,1,0,50423.3,0.299736,0.299437,1.87885,26,0.0165237,10,0.000562596,-2.72611,0.0020271,29.1056,1402.38,0.299437,
2,1,0,1,0,50423.3,0.298238,0.297946,0.797712,26,0.0165549,10,0.000237675,-3.09815,0.00285839,20.641,577.528,0.297946,
2,1,0,1,0,50423.3,0.296744,0.296402,0.249725,26,0.0165668,10,7.40188e-05,-3.60254,0.00522387,11.2943,311.348,0.296402,
2,0,0,1,0,50423.4,0.295243,0.294874,-0.0907992,26,0.0165679,10,-2.67743e-05,-4.04192,0.168861,0.3494,190.737,0.294874,
2,0,0,1,0,50423.4,0.293742,0.293429,-0.320369,26,0.0165621,10,-9.40055e-05,-3.49435,-0.00199467,-29.5788,126.895,0.293429,
2,0,0,1,0,50423.4,0.292248,0.291911,-0.477416,26,0.0165517,10,-0.000139363,-3.3211,-0.0101121,-5.83459,94.0122,0.291911,
2,0,0,1,0,50423.4,0.290748,0.290399,-0.595692,26,0.0165378,10,-0.000172989,-3.22498,-0.017907,-3.2948,71.8697,0.290399,
2,0,0,1,0,50423.5,0.289249,0.288907,-0.686176,26,0.0165213,10,-0.000198241,-3.16356,-0.0275502,-2.14155,55.8338,0.288907,
2,0,0,1,0,50423.5,0.287754,0.287384,-0.76665,26,0.0165028,10,-0.000220323,-3.1154,-0.0374884,-1.57382,46.0211,0.287384,
2,0,0,1,0,50423.5,0.286254,0.285922,-0.828981,26,0.0164825,10,-0.000237024,-3.08146,-0.0483449,-1.2204,38.8043,0.2859219,
2,0,0,1,0,50423.5,0.284754,0.284401,-0.877838,26,0.0164607,10,-0.000249658,-3.05659,-0.0559925,-1.05371,35.7978,0.284401,
2,0,0,1,0,50423.6,0.28326,0.282895,-0.927727,26,0.0164378,10,-0.00026245,-3.03258,-0.0705659,-0.836098,30.0602,0.282895,
2,0,0,1,0,50423.6,0.28176,0.281401,-0.972472,26,0.0164136,10,-0.000273655,-3.01212,-0.0874062,-0.67501,25.3521,0.281401,
2,0,0,1,0,50423.6,0.280261,0.279915,-1.00727,26,0.0163884,10,-0.000281949,-2.99686,-0.0916829,-0.643523,25.2555,0.279915,
2,0,0,1,0,50423.6,0.278761,0.278381,-1.03761,26,0.0163624,10,-0.000288851,-2.98397,-0.103994,-0.567341,23.0534,0.278381,
2,0,0,1,0,50423.7,0.277267,0.276968,-1.07112,26,0.0163356,10,-0.000296665,-2.97016,-0.114028,-0.517416,21.7336,0.276968,
2,0,0,1,0,50423.7,0.275766,0.275402,-1.10854,26,0.0163079,10,-0.000305295,-2.95525,-0.141238,-0.417735,17.9978,0.275402,
2,0,0,1,0,50423.7,0.274265,0.273892,-1.13921,26,0.0162794,10,-0.000312021,-2.9434,-0.147315,-0.400503,17.6746,0.273892,
2,0,0,1,0,50423.7,0.272771,0.272419,-1.15731,26,0.0162504,10,-0.000315274,-2.93655,-0.148528,-0.397232,18.0072,0.272419,
2,0,0,1,0,50423.8,0.271272,0.270917,-1.1859,26,0.0162207,10,-0.000321281,-2.92595,-0.162465,-0.363154,16.8218,0.270917,
2,0,0,1,0,50423.8,0.269772,0.269438,-1.21454,26,0.0161903,10,-0.000327243,-2.91559,-0.184412,-0.319937,15.0761,0.269438,
2,0,0,1,0,50423.8,0.268273,0.267935,-1.23771,26,0.0161592,10,-0.000331625,-2.90738,-0.185606,-0.317877,15.2813,0.267935,
2,0,0,1,0,50423.8,0.26678,0.266429,-1.2559,26,0.0161278,10,-0.000334608,-2.90104,-0.188001,-0.313828,15.4056,0.266429,
2,0,0,1,0,50423.9,0.265279,0.26498,-1.27073,26,0.0160958,10,-0.000336718,-2.89595,-0.214403,-0.275183,13.706,0.26498,
2,0,0,1,0,50423.9,0.263778,0.263401,-1.29821,26,0.0160632,10,-0.000341948,-2.88666,-0.235501,-0.25053,12.649,0.263401,
2,0,0,1,0,50423.9,0.262284,0.261931,-1.32106,26,0.0160302,10,-0.000346025,-2.87908,-0.224424,-0.262895,13.4852,0.261931,
2,0,0,1,0,50423.9,0.260784,0.260439,-1.3304,26,0.0159967,10,-0.000346488,-2.87602,-0.222321,-0.265382,13.8086,0.260439,
2,0,0,1,0,50424,0.259285,0.258948,-1.35055,26,0.0159627,10,-0.000349722,-2.86949,-0.240704,-0.245114,12.9712,0.258948,
2,0,0,1,0,50424,0.257791,0.257424,-1.3746,26,0.0159284,10,-0.000353854,-2.86182,-0.284197,-0.207603,11.101,0.257424,
2,0,0,1,0,50424,0.25629,0.255903,-1.39411,26,0.0158934,10,-0.000356756,-2.8557,-0.286702,-0.205789,11.1156,0.255903,
2,0,0,1,0,50424,0.254789,0.254443,-1.40269,26,0.015858,10,-0.000356904,-2.85304,-0.268059,-0.220101,12.0515,0.254443,
2,0,0,1,0,50424.1,0.253296,0.252939,-1.41357,26,0.0158225,10,-0.000357547,-2.84968,-0.315833,-0.186807,10.3772,0.2529386,
2,0,0,1,0,50424.1,0.251797,0.25146,-1.43556,26,0.0157864,10,-0.000360985,-2.84298,-0.307933,-0.1916,10.7338,0.25146,
2,0,0,1,0,50424.1,0.250297,0.249971,-1.45404,26,0.0157498,10,-0.000363469,-2.83742,-0.344001,-0.171511,9.70229,0.249971,
2,0,0,1,0,50424.1,0.248797,0.248465,-1.46478,26,0.0157129,10,-0.000363947,-2.83423,-0.322247,-0.183089,10.4951,0.248465,
2,0,0,1,0,50424.2,0.247303,0.246944,-1.47853,26,0.0156758,10,-0.000365114,-2.83017,-0.32285,-0.182748,10.5891,0.246944,
2,0,0,1,0,50424.2,0.245802,0.245446,-1.5003,26,0.0156382,10,-0.000368242,-2.82382,-0.356219,-0.165629,9.66294,0.245446,
2,0,0,1,0,50424.2,0.244302,0.24395,-1.51625,26,0.0156001,10,-0.000369888,-2.81923,-0.371437,-0.158843,9.35095,0.24395,
2,0,0,1,0,50424.2,0.242807,0.242452,-1.52803,26,0.0155618,10,-0.000370474,-2.81587,-0.443196,-0.133124,7.93092,0.242452,
2,0,0,1,0,50424.3,0.241308,0.24098,-1.53602,26,0.0155231,10,-0.00037015,-2.8136,-0.384164,-0.15358,9.24543,0.24098,
2,0,0,1,0,50424.3,0.239808,0.239446,-1.55095,26,0.015484,10,-0.00037137,-2.8094,-0.408592,-0.144398,8.76165,0.239446,
2,0,0,1,0,50424.3,0.238309,0.237949,-1.56882,26,0.0154446,10,-0.000373298,-2.80443,-0.379251,-0.15557,9.49987,0.237949,
2,0,0,1,0,50424.3,0.236815,0.236427,-1.58132,26,0.015405,10,-0.000373868,-2.80098,-0.39904,-0.147855,9.12877,0.236427,
2,0,0,1,0,50424.4,0.235315,0.234953,-1.58704,26,0.0153649,10,-0.00037288,-2.79941,-0.435245,-0.135556,8.43819,0.234953,
2,0,0,1,0,50424.4,0.233814,0.233427,-1.60566,26,0.0153245,10,-0.000374803,-2.79435,-0.441275,-0.133703,8.38253,0.233427,
2,0,0,1,0,50424.4,0.23232,0.231993,-1.62136,26,0.015284,10,-0.000376145,-2.79012,-0.378544,-0.15586,9.81716,0.231993,
2,0,0,1,0,50424.4,0.230821,0.230462,-1.63301,26,0.015243,10,-0.000376347,-2.78701,-0.443808,-0.13294,8.43827,0.230462,
2,0,0,1,0,50424.5,0.229321,0.228973,-1.63681,26,0.0152016,10,-0.000374786,-2.786,-0.547535,-0.107756,6.91816,0.228973,
2,0,0,1,0,50424.5,0.227827,0.22746,-1.6522,26,0.0151601,10,-0.00037581,-2.78194,-0.662959,-0.0889949,5.75749,0.22746,
2,0,0,1,0,50424.5,0.226326,0.225982,-1.67161,26,0.0151182,10,-0.000377754,-2.77686,-0.412323,-0.143092,9.314,0.225982,
2,0,0,1,0,50424.5,0.224825,0.224477,-1.682,26,0.0150759,10,-0.000377571,-2.77417,-0.419199,-0.140745,9.22673,0.224477,
2,0,0,1,0,50424.6,0.223331,0.222973,-1.69323,26,0.0150334,10,-0.000377544,-2.77128,-0.472206,-0.124945,8.2659,0.222973,
2,0,0,1,0,50424.6,0.221831,0.22156,-1.70435,26,0.0149905,10,-0.000377615,-2.76844,-0.568186,-0.103839,6.91237,0.22156,
2,0,0,1,0,50424.6,0.220333,0.220009,-1.7214,26,0.0149473,10,-0.000378723,-2.76412,-0.434364,-0.135831,9.11084,0.2200086,
2,0,0,1,0,50424.6,0.218834,0.218453,-1.73457,26,0.0149037,10,-0.000378921,-2.76081,-0.372103,-0.158558,10.7003,0.218453,
2,0,0,1,0,50424.7,0.217339,0.217011,-1.73947,26,0.01486,10,-0.000377483,-2.75958,-0.567761,-0.103917,7.06844,0.217011,
2,0,0,1,0,50424.7,0.215839,0.215479,-1.75102,26,0.014816,10,-0.000377309,-2.75671,-0.679718,-0.0868007,5.94197,0.215479,
2,0,0,1,0,50424.7,0.214338,0.213988,-1.76563,26,0.0147716,10,-0.000377822,-2.7531,-0.454208,-0.129896,8.92288,0.213988,
2,0,0,1,0,50424.7,0.212844,0.212509,-1.77793,26,0.014727,10,-0.000377826,-2.75009,-0.411565,-0.143355,9.94758,0.212509,
2,0,0,1,0,50424.8,0.211344,0.210975,-1.78523,26,0.014682,10,-0.000376638,-2.74831,-0.550901,-0.107097,7.47971,0.210975,
2,0,0,1,0,50424.8,0.209845,0.209478,-1.79637,26,0.0146367,10,-0.000376301,-2.7456,-0.634906,-0.0929271,6.53633,0.209478,
2,0,0,1,0,50424.8,0.20835,0.208021,-1.81807,26,0.0145913,10,-0.000378197,-2.74039,-0.507079,-0.116353,8.2572,0.208021,
2,0,0,1,0,50424.8,0.206851,0.206496,-1.82924,26,0.0145453,10,-0.000377731,-2.73773,-0.403928,-0.146066,10.4081,0.206496,
2,0,0,1,0,50424.9,0.20535,0.205014,-1.8396,26,0.0144989,10,-0.000377144,-2.73528,-0.524243,-0.112543,8.07532,0.205014,
2,0,0,1,0,50424.9,0.203856,0.203458,-1.84995,26,0.0144525,10,-0.000376386,-2.73284,-0.714217,-0.0826079,5.97814,0.203458,
2,0,0,1,0,50424.9,0.202356,0.202024,-1.86678,26,0.0144057,10,-0.000377134,-2.72891,-0.526607,-0.112038,8.14738,0.202024,
2,0,0,1,0,50424.9,0.200857,0.200491,-1.87529,26,0.0143586,10,-0.000375978,-2.72693,-0.448866,-0.131442,9.62404,0.200491,
2,0,0,1,0,50425,0.199357,0.199013,-1.8836,26,0.0143111,10,-0.000374861,-2.72501,-0.512428,-0.115138,8.48242,0.1990128,
2,0,0,1,0,50425,0.197863,0.197512,-1.90141,26,0.0142635,10,-0.000375552,-2.72092,-0.657709,-0.0897053,6.65431,0.197512,
2,0,0,1,0,50425,0.196362,0.196043,-1.91675,26,0.0142155,10,-0.000375767,-2.71743,-0.498423,-0.118373,8.83063,0.196043,
2,0,0,1,0,50425,0.194861,0.194464,-1.92901,26,0.0141671,10,-0.000375123,-2.71467,-0.365393,-0.16147,12.1131,0.194464,
2,0,0,1,0,50425.1,0.193367,0.192967,-1.94082,26,0.0141185,10,-0.000374513,-2.71202,-0.471497,-0.125133,9.46877,0.192967,
2,0,0,1,0,50425.1,0.191868,0.191527,-1.95251,26,0.0140694,10,-0.000373958,-2.70941,-0.593217,-0.0994577,7.5818,0.191527,
2,0,0,1,0,50425.1,0.190368,0.190003,-1.96312,26,0.01402,10,-0.000372999,-2.70705,-0.512368,-0.115152,8.83784,0.190003,
2,0,0,1,0,50425.1,0.18887,0.188501,-1.9803,26,0.0139703,10,-0.000373288,-2.70327,-0.454387,-0.129845,10.0258,0.1885006,
2,0,0,1,0,50425.2,0.187376,0.187028,-1.99132,26,0.0139204,10,-0.000372431,-2.70086,-0.457162,-0.129057,10.0565,0.1870275,
2,0,0,1,0,50425.2,0.185875,0.185533,-2.011,26,0.0138699,10,-0.000373107,-2.69659,-0.540598,-0.109138,8.5535,0.185533,
2,0,0,1,0,50425.2,0.184374,0.184041,-2.02326,26,0.0138191,10,-0.000372363,-2.69395,-0.507085,-0.116351,9.17355,0.184041,
2,0,0,1,0,50425.2,0.18288,0.182567,-2.03889,26,0.0137682,10,-0.000372233,-2.69061,-0.409182,-0.14419,11.4613,0.182567,
2,0,0,1,0,50425.3,0.18138,0.181022,-2.0515,26,0.0137166,10,-0.000371365,-2.68793,-0.429332,-0.137423,11.0292,0.181022,
2,0,0,1,0,50425.3,0.179881,0.179557,-2.06811,26,0.0136646,10,-0.000371344,-2.68443,-0.539576,-0.109345,8.83326,0.179557,
2,0,0,1,0,50425.3,0.178387,0.178048,-2.09061,26,0.0136124,10,-0.000372228,-2.67973,-0.540216,-0.109216,8.89275,0.178048,
2,0,0,1,0,50425.3,0.176886,0.176556,-2.1033,26,0.0135596,10,-0.00037135,-2.6771,-0.381896,-0.154492,12.6989,0.176556,
2,0,0,1,0,50425.4,0.175385,0.175019,-2.12178,26,0.0135064,10,-0.000371352,-2.6733,-0.36674,-0.160877,13.329,0.175019,
2,0,0,1,0,50425.4,0.173892,0.173518,-2.1427,26,0.0134529,10,-0.000371796,-2.66904,-0.385687,-0.152974,12.78,0.173518,
2,0,0,1,0,50425.4,0.172392,0.172052,-2.16348,26,0.0133988,10,-0.000372231,-2.66485,-0.401861,-0.146817,12.36,0.1720517,
2,0,0,1,0,50425.4,0.170893,0.170551,-2.17779,26,0.0133441,10,-0.000371423,-2.66198,-0.329717,-0.178941,15.2139,0.170551,
2,0,0,1,0,50425.5,0.169393,0.169049,-2.19542,26,0.013289,10,-0.000371134,-2.65848,-0.271026,-0.217691,18.714,0.169049,
2,0,0,1,0,50425.5,0.167899,0.167564,-2.22571,26,0.0132334,10,-0.000372949,-2.65253,-0.354162,-0.166591,14.4853,0.167564,
2,0,0,1,0,50425.5,0.166398,0.166061,-2.24894,26,0.013177,10,-0.000373461,-2.64802,-0.379844,-0.155327,13.6209,0.166061,
2,0,0,1,0,50425.5,0.164898,0.164508,-2.27145,26,0.0131201,10,-0.000373671,-2.6437,-0.312745,-0.188652,16.7323,0.164508,
2,0,0,1,0,50425.6,0.163403,0.163037,-2.29657,26,0.0130628,10,-0.000374425,-2.63892,-0.257912,-0.22876,20.553,0.163037,
2,0,0,1,0,50425.6,0.161904,0.1616,-2.32509,26,0.0130046,10,-0.000375735,-2.63356,-0.286922,-0.205631,18.7012,0.1616,
2,0,0,1,0,50425.6,0.160404,0.160052,-2.36407,26,0.0129455,10,-0.000378374,-2.62634,-0.290953,-0.202782,18.6544,0.160052,
2,0,0,1,0,50425.6,0.158905,0.158559,-2.39022,26,0.0128857,10,-0.000378992,-2.62156,-0.233473,-0.252706,23.5816,0.158559,
2,0,0,1,0,50425.7,0.157411,0.157079,-2.41896,26,0.0128254,10,-0.000379967,-2.61637,-0.213986,-0.275719,26.1611,0.157079,
2,0,0,1,0,50425.7,0.155911,0.155576,-2.45772,26,0.0127639,10,-0.000382361,-2.60947,-0.207521,-0.284308,27.3701,0.155576,
2,0,0,1,0,50425.7,0.15441,0.154057,-2.50779,26,0.0127013,10,-0.000386341,-2.60071,-0.214099,-0.275574,26.9509,0.154057,
2,0,0,1,0,50425.7,0.152916,0.152543,-2.55585,26,0.0126379,10,-0.000389877,-2.59246,-0.185218,-0.318543,31.7362,0.152543,
2,0,0,1,0,50425.8,0.151417,0.151047,-2.59203,26,0.0125732,10,-0.00039152,-2.58636,-0.165275,-0.356981,36.2864,0.151047,
2,0,0,1,0,50425.8,0.149917,0.149548,-2.65239,26,0.0125071,10,-0.00039666,-2.57636,-0.152411,-0.387111,40.1867,0.149548,
2,0,0,1,0,50425.8,0.148423,0.148101,-2.71737,26,0.0124398,10,-0.000402445,-2.56585,-0.148782,-0.396552,42.0886,0.148101,
2,0,0,1,0,50425.8,0.146922,0.146573,-2.7879,26,0.0123706,10,-0.000408631,-2.55472,-0.138085,-0.427273,46.4287,0.146573,
2,0,0,1,0,50425.9,0.145421,0.145106,-2.85256,26,0.0122997,10,-0.000413923,-2.54477,-0.128907,-0.457696,51.1287,0.145106,
2,0,0,1,0,50425.9,0.143927,0.143572,-2.93503,26,0.0122273,10,-0.000421388,-2.53239,-0.116436,-0.506716,58.2114,0.143572,
2,0,0,1,0,50425.9,0.142429,0.142097,-3.02918,26,0.0121523,10,-0.000430437,-2.51867,-0.110854,-0.53223,62.9905,0.142097,
2,0,0,1,0,50425.9,0.140929,0.140593,-3.12976,26,0.0120749,10,-0.000440023,-2.50449,-0.103909,-0.567804,69.3112,0.140593,
2,0,0,1,0,50426,0.13943,0.139086,-3.22326,26,0.011995,10,-0.000448311,-2.4917,-0.102633,-0.574862,72.5593,0.139086,
2,0,0,1,0,50426,0.137935,0.137577,-3.33537,26,0.0119128,10,-0.000458869,-2.47686,-0.101454,-0.581543,76.0273,0.137577,
2,0,0,1,0,50426,0.136435,0.136116,-3.45722,26,0.0118274,10,-0.000470585,-2.46127,-0.0985561,-0.598644,80.9261,0.136116,
2,0,0,1,0,50426,0.134934,0.134583,-3.59548,26,0.0117388,10,-0.00048389,-2.44424,-0.0978746,-0.602812,84.3474,0.134583,
2,0,0,1,0,50426.1,0.13344,0.133069,-3.7233,26,0.0116473,10,-0.000495454,-2.42907,-0.0967366,-0.609904,88.5902,0.133069,
2,0,0,1,0,50426.1,0.13194,0.13157,-3.84607,26,0.0115523,10,-0.000506027,-2.41498,-0.0995204,-0.592843,89.3336,0.13157,
2,0,0,1,0,50426.1,0.13044,0.130104,-3.99447,26,0.0114537,10,-0.000519696,-2.39854,-0.100816,-0.585223,91.117,0.130104,
2,0,0,1,0,50426.1,0.128941,0.128583,-4.13959,26,0.0113517,10,-0.000532281,-2.38304,-0.104092,-0.566804,91.2242,0.128583,
2,0,0,1,0,50426.2,0.127447,0.127117,-4.26855,26,0.0112467,10,-0.000542605,-2.36972,-0.106635,-0.553291,91.9881,0.127117,
2,0,0,1,0,50426.2,0.125946,0.125581,-4.3954,26,0.011138,10,-0.000551979,-2.357,-0.11481,-0.513893,88.1524,0.125581,
2,0,0,1,0,50426.2,0.124446,0.124134,-4.52865,26,0.011026,10,-0.000562157,-2.34403,-0.121607,-0.48517,85.5906,0.124134,
2,0,0,1,0,50426.2,0.122952,0.122599,-4.66097,26,0.0109111,10,-0.00057143,-2.33152,-0.129511,-0.455561,82.645,0.122599,
2,0,0,1,0,50426.3,0.121453,0.121152,-4.77933,26,0.0107927,10,-0.000579022,-2.32063,-0.138205,-0.426901,79.4772,0.121152,
2,0,0,1,0,50426.3,0.119953,0.119631,-4.88611,26,0.0106713,10,-0.000584531,-2.31104,-0.149217,-0.395397,75.4984,0.119631,
2,0,0,1,0,50426.3,0.118459,0.11814,-5.00707,26,0.0105477,10,-0.000591535,-2.30042,-0.155412,-0.379637,74.1462,0.11814,
2,0,0,1,0,50426.3,0.116958,0.116591,-5.12436,26,0.0104207,10,-0.000597451,-2.29036,-0.161797,-0.364655,72.7193,0.116591,
2,0,0,1,0,50426.4,0.115457,0.115118,-5.22176,26,0.010291,10,-0.000601119,-2.28218,-0.180493,-0.326882,66.4228,0.115118,
2,0,0,1,0,50426.4,0.113963,0.113611,-5.30815,26,0.0101593,10,-0.000603063,-2.27506,-0.199324,-0.296,61.3029,0.113611,
2,0,0,1,0,50426.4,0.112464,0.112093,-5.40376,26,0.010025,10,-0.000605724,-2.2673,-0.218428,-0.270112,56.9024,0.112093,
2,0,0,1,0,50426.4,0.110965,0.110608,-5.48722,26,0.00988843,10,-0.000606932,-2.26065,-0.234863,-0.25121,53.7185,0.1106081,
2,0,0,1,0,50426.5,0.109466,0.109134,-5.55771,26,0.00974984,10,-0.000606535,-2.2551,-0.258251,-0.22846,49.537,0.109134,
2,0,0,1,0,50426.5,0.107972,0.107635,-5.62883,26,0.00961001,10,-0.00060586,-2.24958,-0.300829,-0.196125,43.0641,0.107635,
2,0,0,1,0,50426.5,0.106471,0.106131,-5.68756,26,0.00946804,10,-0.000603629,-2.24507,-0.362641,-0.162695,36.113,0.106131,
2,0,0,1,0,50426.5,0.10497,0.104617,-5.74989,26,0.00932467,10,-0.000601536,-2.24034,-0.406888,-0.145003,32.4406,0.104617,
2,0,0,1,0,50426.6,0.103476,0.103084,-5.79078,26,0.00918063,10,-0.000596938,-2.23726,-0.51603,-0.114334,25.7637,0.103084,
2,0,0,1,0,50426.6,0.101976,0.101656,-5.8175,26,0.0090351,10,-0.000591383,-2.23526,-0.720527,-0.0818846,18.5712,0.101656,
2,0,0,1,0,50426.6,0.100477,0.100136,-5.83664,26,0.00888895,10,-0.000584457,-2.23384,-1.39555,-0.0422773,9.62539,0.100136,
2,0,0,1,0,50426.6,0.0989825,0.0986143,-5.85652,26,0.00874288,10,-0.000577537,-2.23236,-1.62909,-0.0362165,8.26148,0.0986143,
2,0,0,1,0,50426.7,0.0974817,0.0971956,-5.86377,26,0.00859596,10,-0.000569932,-2.23182,-3.91213,-0.0150813,3.44582,0.0971956,
2,0,0,1,0,50426.7,0.0959822,0.0956341,-5.85294,26,0.00844897,10,-0.000559741,-2.23263,3.70043,0.0159441,-3.64219,0.09563414,
2,0,0,1,0,50426.7,0.094488,0.0941332,-5.84621,26,0.00830277,10,-0.000550322,-2.23313,1.2435,0.0474468,-10.8235,0.0941332,
2,0,0,1,0,50426.7,0.0929884,0.0926583,-5.83537,26,0.00815635,10,-0.000540695,-2.23393,1.00579,0.0586604,-13.3342,0.0926583,
2,0,0,1,0,50426.8,0.0914889,0.0911274,-5.81506,26,0.00801036,10,-0.000529912,-2.23545,1.09836,0.0537167,-12.1665,0.0911274,
2,0,0,1,0,50426.8,0.0899894,0.0896683,-5.78243,26,0.00786493,10,-0.0005185,-2.23789,0.704581,0.0837377,-18.8926,0.0896683,
2,0,0,1,0,50426.8,0.0884951,0.0881401,-5.74935,26,0.00772088,10,-0.000506748,-2.24038,0.503915,0.117083,-26.2736,0.0881401,
2,0,0,1,0,50426.8,0.0869943,0.086646,-5.72067,26,0.00757711,10,-0.000495674,-2.24255,0.557347,0.105859,-23.6072,0.086646,
2,0,0,1,0,50426.9,0.0854935,0.0851635,-5.68474,26,0.00743425,10,-0.000484132,-2.24529,0.591926,0.0996747,-22.0959,0.0851635,
2,0,0,1,0,50426.9,0.0839993,0.083638,-5.64323,26,0.00729281,10,-0.000471988,-2.24847,0.500639,0.117849,-25.9577,0.083638,
2,0,0,1,0,50426.9,0.0824998,0.082135,-5.61007,26,0.00715173,10,-0.000460783,-2.25103,0.504661,0.11691,-25.6011,0.082135,
2,0,0,1,0,50426.9,0.0810002,0.0806485,-5.57249,26,0.00701161,10,-0.000449413,-2.25395,0.548601,0.107546,-23.3819,0.0806485,
2,0,0,1,0,50427,0.0795007,0.0791581,-5.53581,26,0.00687231,10,-0.000438204,-2.25682,0.65167,0.0905366,-19.5665,0.0791581,
2,0,0,1,0,50427,0.0780078,0.0776315,-5.505,26,0.00673436,10,-0.000427361,-2.25924,0.669553,0.0881185,-18.9496,0.0776315,
2,0,0,1,0,50427,0.076507,0.076145,-5.47872,26,0.00659661,10,-0.000417177,-2.26132,0.553575,0.10658,-22.7896,0.076145,
2,0,0,1,0,50427,0.0750062,0.0746399,-5.44696,26,0.00645966,10,-0.00040656,-2.26385,0.640047,0.0921807,-19.6104,0.0746399,
2,0,0,1,0,50427.1,0.073512,0.0731696,-5.42236,26,0.00632394,10,-0.000396752,-2.26581,0.773983,0.0762291,-16.1245,0.0731696,
2,0,0,1,0,50427.1,0.0720124,0.0716473,-5.39243,26,0.00618827,10,-0.000386353,-2.26822,0.883731,0.0667624,-14.0708,0.0716473,
2,0,0,1,0,50427.1,0.0705129,0.0701551,-5.36922,26,0.00605326,10,-0.000376678,-2.27009,0.648304,0.0910067,-19.0882,0.0701551,
2,0,0,1,0,50427.1,0.0690187,0.0686911,-5.34641,26,0.00591938,10,-0.000367251,-2.27194,0.680517,0.0866987,-18.0945,0.0686911,
2,0,0,1,0,50427.2,0.0675179,0.0671697,-5.32759,26,0.0057856,10,-0.000357853,-2.27347,0.973427,0.0606106,-12.5954,0.0671697,
2,0,0,1,0,50427.2,0.066017,0.0656811,-5.30226,26,0.00565233,10,-0.000348258,-2.27554,0.935851,0.0630442,-13.0438,0.06568113,
2,0,0,1,0,50427.2,0.0645242,0.0642001,-5.28409,26,0.00552005,10,-0.000339239,-2.27703,0.748048,0.078872,-16.2528,0.0642001,
2,0,0,1,0,50427.2,0.0630246,0.0626773,-5.26188,26,0.00538782,10,-0.0003298,-2.27886,0.715466,0.0824638,-16.9282,0.0626773,
2,0,0,1,0,50427.3,0.0615251,0.0611815,-5.23476,26,0.00525625,10,-0.00032027,-2.2811,0.889827,0.066305,-13.5539,0.0611815,
2,0,0,1,0,50427.3,0.0600256,0.0596935,-5.21,26,0.00512522,10,-0.000311003,-2.28316,0.876676,0.0672997,-13.694,0.0596935,
2,0,0,1,0,50427.3,0.0585314,0.0581801,-5.19032,26,0.00499525,10,-0.000301973,-2.28481,0.671739,0.0878318,-17.7816,0.05818006,
2,0,0,1,0,50427.3,0.0570305,0.0567048,-5.16846,26,0.00486537,10,-0.000293076,-2.28664,0.627438,0.0940332,-18.9446,0.0567048,
2,0,0,1,0,50427.4,0.0555297,0.0552225,-5.14116,26,0.00473617,10,-0.000283908,-2.28894,0.738673,0.079873,-16.0176,0.0552225,
2,0,0,1,0,50427.4,0.0540355,0.0536711,-5.11621,26,0.0046081,10,-0.000274593,-2.29105,0.748006,0.0788764,-15.7472,0.0536711,
2,0,0,1,0,50427.4,0.052536,0.0521834,-5.09126,26,0.00448008,10,-0.000265679,-2.29317,0.623074,0.0946918,-18.8031,0.0521834,
2,0,0,1,0,50427.4,0.0510364,0.0506951,-5.06716,26,0.00435271,10,-0.00025688,-2.29524,0.586019,0.100679,-19.8831,0.0506951,
2,0,0,1,0,50427.5,0.0495369,0.0492104,-5.03612,26,0.00422608,10,-0.00024783,-2.2979,0.649114,0.0908931,-17.8521,0.0492104,
2,0,0,1,0,50427.5,0.0480427,0.0476805,-5.00491,26,0.00410067,10,-0.000238637,-2.3006,0.742207,0.0794926,-15.5362,0.0476805,
2,0,0,1,0,50427.5,0.0465432,0.0462344,-4.9741,26,0.00397541,10,-0.000229975,-2.30329,0.581356,0.101487,-19.7287,0.0462344,
2,0,0,1,0,50427.5,0.0450424,0.0447024,-4.95559,26,0.00385083,10,-0.000221527,-2.3049,0.528985,0.111534,-21.5364,0.0447024,
2,0,0,1,0,50427.6,0.0435482,0.0431927,-4.92375,26,0.00372747,10,-0.00021267,-2.3077,0.559676,0.105418,-20.2403,0.0431927,
2,0,0,1,0,50427.6,0.0420486,0.0416915,-4.88794,26,0.00360442,10,-0.000203786,-2.31087,0.605812,0.0973899,-18.6081,0.0416915,
2,0,0,1,0,50427.6,0.0405491,0.0401731,-4.85944,26,0.00348211,10,-0.000195218,-2.31341,0.554353,0.10643,-20.2018,0.0401731,
2,0,0,1,0,50427.6,0.0390549,0.0386799,-4.83464,26,0.00336094,10,-0.000187003,-2.31564,0.491436,0.120056,-22.6139,0.0386799,
2,0,0,1,0,50427.7,0.0375541,0.0371504,-4.8013,26,0.00324009,10,-0.00017837,-2.31864,0.526038,0.112159,-21.0097,0.0371504,
2,0,0,1,0,50427.7,0.0360532,0.0356874,-4.76536,26,0.00312015,10,-0.000170063,-2.3219,0.516142,0.11431,-21.266,0.0356874,
2,0,0,1,0,50427.7,0.034559,0.0341732,-4.73089,26,0.00300147,10,-0.00016167,-2.32506,0.495787,0.119003,-21.9775,0.0341732,
2,0,0,1,0,50427.7,0.0330595,0.0327496,-4.70221,26,0.00288318,10,-0.000153996,-2.3277,0.45061,0.130934,-24.0013,0.0327496,
2,0,0,1,0,50427.8,0.0315613,0.0311943,-4.66803,26,0.00276571,10,-0.000145616,-2.33087,0.481547,0.122522,-22.2799,0.0311943,
2,0,0,1,0,50427.8,0.0300618,0.0297233,-4.62179,26,0.00264921,10,-0.000137375,-2.33519,0.472767,0.124797,-22.5345,0.0297233,
2,0,0,1,0,50427.8,0.0285676,0.028221,-4.58437,26,0.00253412,10,-0.000129376,-2.33872,0.459931,0.12828,-22.9656,0.028221,
2,0,0,1,0,50427.8,0.0270667,0.0267194,-4.55668,26,0.00241941,10,-0.000121752,-2.34135,0.413315,0.142748,-25.349,0.0267194,
2,0,0,1,0,50427.9,0.0255659,0.0252188,-4.52092,26,0.00230557,10,-0.000114012,-2.34477,0.41748,0.141324,-24.8853,0.0252188,
2,0,0,1,0,50427.9,0.0240717,0.023725,-4.47874,26,0.00219318,10,-0.000106258,-2.34884,0.417703,0.141249,-24.6995,0.023725,
2,0,0,1,0,50427.9,0.0225722,0.0222379,-4.43803,26,0.0020813,10,-9.86928e-05,-2.35281,0.435401,0.135507,-23.5049,0.0222379,
2,0,0,1,0,50427.9,0.0210726,0.0207079,-4.41062,26,0.00197027,10,-9.13346e-05,-2.3555,0.426302,0.1384,-23.7888,0.0207079,
2,0,0,1,0,50428,0.0195784,0.0191915,-4.37468,26,0.00186052,10,-8.39565e-05,-2.35905,0.432579,0.136391,-23.2721,0.0191915,
2,0,0,1,0,50428,0.0180789,0.0177245,-4.33561,26,0.00175123,10,-7.68465e-05,-2.36295,0.471456,0.125144,-21.1987,0.0177245,
2,0,0,1,0,50428,0.0165781,0.0162422,-4.30134,26,0.00164284,10,-6.98633e-05,-2.3664,0.477903,0.123456,-20.7547,0.0162422,
2,0,0,1,0,50428,0.0150839,0.0147299,-4.27836,26,0.00153559,10,-6.30199e-05,-2.36872,0.50594,0.116615,-19.4458,0.0147299,
2,0,0,1,0,50428.1,0.0135844,0.0132344,-4.24775,26,0.00142864,10,-5.62164e-05,-2.37184,0.475338,0.124122,-20.5496,0.01323441,
2,0,0,1,0,50428.1,0.0120848,0.0117629,-4.21253,26,0.00132244,10,-4.95515e-05,-2.37546,0.551399,0.107001,-17.6085,0.0117629,
2,0,0,1,0,50428.1,0.0105853,0.0102264,-4.17892,26,0.00121704,10,-4.27351e-05,-2.37894,0.525786,0.112213,-18.3604,0.0102264,
2,0,0,1,0,50428.1,0.00909108,0.00872985,-4.15948,26,0.00111269,10,-3.63116e-05,-2.38096,0.529741,0.111375,-18.0972,0.00872985,
2,0,0,1,0,50428.2,0.00759027,0.00727444,-4.14372,26,0.00100849,10,-3.01433e-05,-2.38261,0.623924,0.0945628,-15.2601,0.00727444,
2,0,0,1,0,50428.2,0.00608945,0.0057251,-4.11818,26,0.000904864,10,-2.3577e-05,-2.38529,0.699648,0.0843281,-13.5426,0.0057251,
2,0,0,1,0,50428.2,0.00459524,0.00424661,-4.09356,26,0.000802283,10,-1.73837e-05,-2.3879,0.660954,0.0892649,-14.2789,0.00424661,
2,0,0,1,0,50428.2,0.0030957,0.00275109,-4.07869,26,0.000699745,10,-1.12208e-05,-2.38948,1.43954,0.0409854,-6.53291,0.00275109,
2,0,0,1,0,50428.3,0.00159616,0.00120837,-4.09,26,0.000597182,10,-4.94222e-06,-2.38828, , , ,0.00120837,
2,0,0,1,0,50428.3,0.000199195,-0.000185986,-4.06356,26,0.000501866,10,7.55765e-07,-2.39109, , , ,-0.000185986,