File: Figure_codes/Fig_3-5/rawdata_trumpetplot_data/after 10th/20221101_1-115_003_TrumpetPlot_ParaChange_from10_every3_06_CV_C01_8.csv
mode,ox/red,error,control changes,counter inc.,time/s,control/V,Ewe/V,<I>/mA,cycle number,(Q-Qo)/C,I Range,P/W,log(|I|),Tafel slope mV/dec,alpha_eff,dI/d(E-IR),E-IR/V,
2,0,0,0,0,16911.1,2.44065e-05,-0.000439847,-1.41662,9,0.0000000E+000,10,6.23095e-07,-2.84875, , , ,-0.000439847,
2,0,0,1,0,16911.1,0.00129787,0.000961707,-6.80064e-05,9,-1.71181e-05,10,-6.54022e-11,-7.16745, , , ,0.000961707,
2,1,0,1,0,16911.1,0.00279427,0.00255499,0.744681,9,-7.34698e-07,10,1.90265e-06,-3.12803,0.00871553,6.76953,383.008,0.00255499,
2,1,0,1,0,16911.2,0.00429425,0.00395794,1.08741,9,3.50187e-05,10,4.3039e-06,-2.96361,0.0108208,5.45247,189.45,0.00395794,
2,1,0,1,0,16911.2,0.00579422,0.00548915,1.28317,9,8.04547e-05,10,7.04353e-06,-2.89171,0.0243103,2.42696,113.824,0.00548915,
2,1,0,1,0,16911.2,0.00729063,0.00703437,1.40827,9,0.000131536,10,9.90626e-06,-2.85132,0.0429156,1.37479,73.2133,0.00703437,
2,1,0,1,0,16911.3,0.00878703,0.0084712,1.49891,9,0.000186739,10,1.26976e-05,-2.82422,0.0648044,0.910432,52.3702,0.008471204,
2,1,0,1,0,16911.3,0.010287,0.0100244,1.56917,9,0.000244989,10,1.57299e-05,-2.80433,0.0880501,0.670073,40.6462,0.0100244,
2,1,0,1,0,16911.4,0.011787,0.0114892,1.62129,9,0.00030554,10,1.86273e-05,-2.79014,0.106733,0.552781,34.9911,0.0114892,
2,1,0,1,0,16911.4,0.0132825,0.0129317,1.67101,9,0.000367863,10,2.16089e-05,-2.77702,0.114878,0.51359,33.6225,0.0129317,
2,1,0,1,0,16911.4,0.014778,0.0144495,1.71933,9,0.00043202,10,2.48434e-05,-2.76464,0.129986,0.453896,30.4398,0.0144495,
2,1,0,1,0,16911.5,0.0162816,0.0160075,1.76908,9,0.00049838,10,2.83185e-05,-2.75225,0.152917,0.38583,26.4606,0.0160075,
2,1,0,1,0,16911.5,0.017778,0.0174503,1.80737,9,0.000565858,10,3.1539e-05,-2.74295,0.176967,0.333396,23.3832,0.0174503,
2,1,0,1,0,16911.5,0.0192744,0.0189483,1.84342,9,0.000634625,10,3.49296e-05,-2.73438,0.163724,0.360362,25.8336,0.0189483,
2,1,0,1,0,16911.6,0.0207743,0.0204417,1.88096,9,0.000705005,10,3.845e-05,-2.72562,0.156436,0.377151,27.5963,0.0204417,
2,1,0,1,0,16911.6,0.0222743,0.0219635,1.91572,9,0.000776908,10,4.20761e-05,-2.71767,0.174696,0.337729,25.2648,0.02196355,
2,1,0,1,0,16911.7,0.0237707,0.0234818,1.94923,9,0.000850027,10,4.57715e-05,-2.71014,0.207739,0.28401,21.6895,0.0234818,
2,1,0,1,0,16911.7,0.0252671,0.0249978,1.98252,9,0.000924389,10,4.95586e-05,-2.70278,0.191659,0.307839,23.9653,0.0249978,
2,1,0,1,0,16911.7,0.0267671,0.0264471,2.02469,9,0.00100029,10,5.35472e-05,-2.69364,0.180289,0.327253,25.8207,0.0264471,
2,1,0,1,0,16911.8,0.0282671,0.0279537,2.06395,9,0.00107763,10,5.76951e-05,-2.6853,0.196093,0.300878,24.2,0.0279537,
2,1,0,1,0,16911.8,0.0297626,0.029455,2.10404,9,0.00115617,10,6.19746e-05,-2.67695,0.206003,0.286404,23.3993,0.029455,
2,1,0,1,0,16911.8,0.0312581,0.0309351,2.13155,9,0.00123603,10,6.59396e-05,-2.67131,0.196623,0.300067,24.9679,0.0309351,
2,1,0,1,0,16911.9,0.0327616,0.0324338,2.17041,9,0.0013176,10,7.03948e-05,-2.66346,0.204946,0.287881,24.4133,0.0324338,
2,1,0,1,0,16911.9,0.034258,0.0339514,2.20766,9,0.00140018,10,7.49532e-05,-2.65607,0.19753,0.298688,25.7746,0.0339514,
2,1,0,1,0,16912,0.0357545,0.0354344,2.23993,9,0.00148421,10,7.93706e-05,-2.64977,0.223124,0.264427,23.1654,0.0354344,
2,1,0,1,0,16912,0.0372544,0.0369258,2.28068,9,0.00156984,10,8.42157e-05,-2.64194,0.226134,0.260908,23.2637,0.0369258,
2,1,0,1,0,16912,0.0387544,0.0384247,2.31223,9,0.00165663,10,8.88468e-05,-2.63597,0.219545,0.268737,24.3293,0.03842466,
2,1,0,1,0,16912.1,0.0402508,0.0399291,2.35712,9,0.00174466,10,9.41178e-05,-2.62762,0.204327,0.288753,26.4796,0.0399291,
2,1,0,1,0,16912.1,0.0417472,0.0414677,2.39872,9,0.00183419,10,9.94694e-05,-2.62002,0.228907,0.257747,23.9984,0.0414677,
2,1,0,1,0,16912.1,0.0432472,0.0429587,2.4334,9,0.00192539,10,0.000104536,-2.61379,0.254928,0.231438,21.9079,0.0429587,
2,1,0,1,0,16912.2,0.0447472,0.0444242,2.46036,9,0.00201771,10,0.0001093,-2.609,0.248582,0.237346,22.845,0.0444242,
2,1,0,1,0,16912.2,0.0462427,0.0459599,2.49695,9,0.00211116,10,0.00011476,-2.60259,0.230182,0.256319,24.9932,0.0459599,
2,1,0,1,0,16912.3,0.0477382,0.0474049,2.5314,9,0.002206,10,0.000120001,-2.59664,0.258618,0.228136,22.5613,0.0474049,
2,1,0,1,0,16912.3,0.0492417,0.0488992,2.56546,9,0.00230263,10,0.000125449,-2.59083,0.275582,0.214092,21.4777,0.0488992,
2,1,0,1,0,16912.3,0.0507381,0.050412,2.59587,9,0.00239994,10,0.000130863,-2.58572,0.269239,0.219136,22.2493,0.050412,
2,1,0,1,0,16912.4,0.0522345,0.0519167,2.63394,9,0.00249847,10,0.000136746,-2.57939,0.25805,0.228637,23.4895,0.0519167,
2,1,0,1,0,16912.4,0.0537345,0.0534369,2.67651,9,0.00259861,10,0.000143024,-2.57243,0.269859,0.218632,22.7357,0.05343695,
2,1,0,1,0,16912.4,0.0552345,0.054913,2.70699,9,0.00270015,10,0.000148649,-2.56751,0.29496,0.200027,21.073,0.054913,
2,1,0,1,0,16912.5,0.0567309,0.0564422,2.73035,9,0.00280258,10,0.000154107,-2.56378,0.31776,0.185675,19.8344,0.0564422,
2,1,0,1,0,16912.5,0.0582273,0.0578815,2.76504,9,0.00290602,10,0.000160045,-2.5583,0.344792,0.171118,18.4977,0.0578815,
2,1,0,1,0,16912.6,0.0597309,0.0594585,2.79457,9,0.00301128,10,0.000166161,-2.55368,0.28994,0.20349,22.2252,0.0594585,
2,1,0,1,0,16912.6,0.0612264,0.0608971,2.827,9,0.00311715,10,0.000172156,-2.54867,0.323617,0.182315,20.1121,0.0608971,
2,1,0,1,0,16912.6,0.0627219,0.0623867,2.85952,9,0.00322419,10,0.000178396,-2.54371,0.347309,0.169878,18.9371,0.06238674,
2,1,0,1,0,16912.7,0.0642218,0.0639246,2.89023,9,0.00333252,10,0.000184757,-2.53907,0.331417,0.178023,20.0377,0.0639246,
2,1,0,1,0,16912.7,0.0657218,0.0653884,2.92169,9,0.00344198,10,0.000191045,-2.53437,0.328178,0.179781,20.4234,0.0653884,
2,1,0,1,0,16912.7,0.0672182,0.0669128,2.94566,9,0.00355235,10,0.000197103,-2.53082,0.369875,0.159513,18.3231,0.0669128,
2,1,0,1,0,16912.8,0.0687146,0.0684401,2.97481,9,0.00366374,10,0.000203597,-2.52654,0.413625,0.142641,16.5494,0.0684401,
2,1,0,1,0,16912.8,0.0702146,0.0699163,2.99201,9,0.00377628,10,0.00020919,-2.52404,0.390613,0.151045,17.6849,0.06991633,
2,1,0,1,0,16912.9,0.0717146,0.0714098,3.02332,9,0.00388983,10,0.000215895,-2.51952,0.375865,0.156971,18.5357,0.0714098,
2,1,0,1,0,16912.9,0.073211,0.0728931,3.05277,9,0.00400408,10,0.000222526,-2.51531,0.425554,0.138643,16.5066,0.07289312,
2,1,0,1,0,16912.9,0.0747074,0.0743896,3.07982,9,0.00411935,10,0.000229107,-2.51147,0.429355,0.137415,16.4632,0.0743896,
2,1,0,1,0,16913,0.0762109,0.0759159,3.09739,9,0.00423606,10,0.000235141,-2.509,0.418554,0.140962,17.01,0.0759159,
2,1,0,1,0,16913,0.0777064,0.0773768,3.11991,9,0.00435294,10,0.000241409,-2.50586,0.443925,0.132905,16.1654,0.0773768,
2,1,0,1,0,16913,0.079202,0.0788901,3.14502,9,0.0044708,10,0.000248111,-2.50238,0.453213,0.130182,15.9732,0.0788901,
2,1,0,1,0,16913.1,0.0807019,0.080409,3.16333,9,0.00458981,10,0.00025436,-2.49986,0.536998,0.10987,13.5817,0.080409,
2,1,0,1,0,16913.1,0.0822019,0.0819269,3.17818,9,0.00470958,10,0.000260378,-2.49782,0.493228,0.11962,14.9078,0.0819269,
2,1,0,1,0,16913.2,0.0836983,0.0833744,3.2067,9,0.00482985,10,0.000267357,-2.49394,0.480045,0.122905,15.4162,0.0833744,
2,1,0,1,0,16913.2,0.0851947,0.0848912,3.23337,9,0.00495112,10,0.000274485,-2.49034,0.444178,0.13283,16.7743,0.0848912,
2,1,0,1,0,16913.2,0.0866947,0.0864244,3.26482,9,0.00507364,10,0.00028216,-2.48614,0.520826,0.113282,14.401,0.0864244,
2,1,0,1,0,16913.3,0.0881947,0.0878661,3.2878,9,0.00519708,10,0.000288886,-2.4831,0.486826,0.121193,15.5204,0.0878661,
2,1,0,1,0,16913.3,0.0896911,0.089346,3.31324,9,0.005321,10,0.000296025,-2.47975,0.420944,0.140161,18.1282,0.089346,
2,1,0,1,0,16913.3,0.0911875,0.0908567,3.33994,9,0.00544599,10,0.000303456,-2.47626,0.376167,0.156845,20.458,0.0908567,
2,1,0,1,0,16913.4,0.0926901,0.0923535,3.37225,9,0.00557299,10,0.000311439,-2.47208,0.327539,0.180131,23.738,0.0923535,
2,1,0,1,0,16913.4,0.0941856,0.0938367,3.40677,9,0.00570053,10,0.00031968,-2.46766,0.331846,0.177794,23.7204,0.0938367,
2,1,0,1,0,16913.5,0.0956821,0.0953301,3.44212,9,0.00582942,10,0.000328137,-2.46317,0.299594,0.196933,26.5659,0.0953301,
2,1,0,1,0,16913.5,0.097182,0.0968906,3.49081,9,0.00596017,10,0.000338227,-2.45707,0.250836,0.235213,32.0613,0.0968906,
2,1,0,1,0,16913.5,0.098682,0.0983735,3.54494,9,0.00609267,10,0.000348728,-2.45039,0.24108,0.244732,33.8097,0.0983735,
2,1,0,1,0,16913.6,0.100178,0.0998463,3.5971,9,0.00622675,10,0.000359157,-2.44405,0.243783,0.242018,33.9019,0.0998463,
2,1,0,1,0,16913.6,0.101675,0.1014,3.63988,9,0.0063628,10,0.000369083,-2.43891,0.222278,0.265433,37.8241,0.1014,
2,1,0,1,0,16913.6,0.103175,0.102896,3.70802,9,0.00650127,10,0.00038154,-2.43086,0.2063,0.285991,41.4628,0.102896,
2,1,0,1,0,16913.7,0.104675,0.104368,3.77257,9,0.00664223,10,0.000393737,-2.42336,0.198045,0.297913,43.9193,0.104368,
2,1,0,1,0,16913.7,0.106171,0.105846,3.84025,9,0.00678536,10,0.000406475,-2.41564,0.207858,0.283847,42.5068,0.105846,
2,1,0,1,0,16913.8,0.107667,0.107358,3.90194,9,0.00693087,10,0.000418905,-2.40872,0.203861,0.289413,44.0976,0.107358,
2,1,0,1,0,16913.8,0.10917,0.10889,3.97043,9,0.00707941,10,0.000432339,-2.40116,0.212393,0.277787,43.0399,0.10889,
2,1,0,1,0,16913.8,0.110666,0.110307,4.03361,9,0.00722978,10,0.000444936,-2.39431,0.212101,0.27817,43.7394,0.110307,
2,1,0,1,0,16913.9,0.112162,0.11183,4.1018,9,0.00738259,10,0.000458704,-2.38703,0.227756,0.259049,41.3775,0.11183,
2,1,0,1,0,16913.9,0.113662,0.113315,4.15842,9,0.00753814,10,0.000471213,-2.38107,0.248982,0.236965,38.4162,0.113315,
2,1,0,1,0,16913.9,0.115162,0.114837,4.21322,9,0.00769573,10,0.000483834,-2.37539,0.257127,0.229458,37.7045,0.114837,
2,1,0,1,0,16914,0.116658,0.11636,4.25807,9,0.00785494,10,0.00049547,-2.37079,0.266339,0.221522,36.8645,0.11636,
2,1,0,1,0,16914,0.118155,0.117829,4.31655,9,0.00801615,10,0.000508617,-2.36486,0.316412,0.186466,31.4073,0.117829,
2,1,0,1,0,16914.1,0.119655,0.119344,4.36423,9,0.00817967,10,0.000520846,-2.36009,0.379703,0.155385,26.4088,0.119344,
2,1,0,1,0,16914.1,0.121155,0.12088,4.39632,9,0.00834453,10,0.000531427,-2.35691,0.409399,0.144114,24.7318,0.12088,
2,1,0,1,0,16914.1,0.122651,0.12234,4.43863,9,0.00851031,10,0.000543023,-2.35275,0.414274,0.142418,24.5986,0.12234,
2,1,0,1,0,16914.2,0.124147,0.123837,4.47132,9,0.00867747,10,0.000553715,-2.34956,0.466954,0.126351,22.007,0.123837,
2,1,0,1,0,16914.2,0.12565,0.125299,4.49439,9,0.00884668,10,0.000563143,-2.34733,0.500783,0.117816,20.6689,0.125299,
2,1,0,1,0,16914.2,0.127146,0.126823,4.52008,9,0.00901616,10,0.00057325,-2.34485,0.551124,0.107054,18.927,0.1268228,
2,1,0,1,0,16914.3,0.128642,0.128373,4.55222,9,0.00918663,10,0.000584383,-2.34178,0.547117,0.107838,19.21,0.128373,
2,1,0,1,0,16914.3,0.130142,0.129846,4.58415,9,0.0093588,10,0.000595236,-2.33874,0.530533,0.111209,19.9069,0.129846,
2,1,0,1,0,16914.4,0.131642,0.131323,4.61709,9,0.00953212,10,0.000606332,-2.33563,0.597117,0.0988081,17.775,0.131323,
2,1,0,1,0,16914.4,0.133139,0.132809,4.64658,9,0.00970605,10,0.00061711,-2.33287,0.67901,0.0868911,15.7258,0.1328094,
2,1,0,1,0,16914.4,0.134635,0.134345,4.6665,9,0.00988064,10,0.000626923,-2.33101,0.926834,0.0636576,11.5787,0.134345,
2,1,0,1,0,16914.5,0.136135,0.135803,4.68393,9,0.0100566,10,0.000636091,-2.32939,0.898376,0.0656741,11.9783,0.135803,
2,1,0,1,0,16914.5,0.137635,0.137363,4.69637,9,0.0102331,10,0.000645106,-2.32824,2.6319,0.0224173,4.10003,0.137363,
2,1,0,1,0,16914.5,0.13913,0.138812,4.69169,9,0.0104094,10,0.000651263,-2.32867,-1.72121,-0.0342783,-6.26114,0.138812,
2,1,0,1,0,16914.6,0.140626,0.140297,4.67335,9,0.0105853,10,0.000655659,-2.33037,-0.585526,-0.100764,-18.3442,0.140297,
2,1,0,1,0,16914.6,0.14213,0.141833,4.64007,9,0.0107611,10,0.000658113,-2.33348,-0.398663,-0.147995,-26.7044,0.141833,
2,1,0,1,0,16914.7,0.143626,0.143347,4.59037,9,0.0109345,10,0.000658016,-2.33815,-0.247716,-0.238176,-42.4578,0.143347,
2,1,0,1,0,16914.7,0.145122,0.144775,4.51573,9,0.0111055,10,0.000653764,-2.34527,-0.166342,-0.35469,-62.1383,0.144775,
2,1,0,1,0,16914.7,0.146622,0.146339,4.40983,9,0.0112736,10,0.000645328,-2.35558,-0.137973,-0.42762,-73.2826,0.146339,
2,1,0,1,0,16914.8,0.148122,0.147812,4.28739,9,0.0114373,10,0.000633725,-2.36781,-0.112821,-0.522954,-87.2036,0.147812,
2,1,0,1,0,16914.8,0.149619,0.149298,4.14819,9,0.0115959,10,0.000619318,-2.38214,-0.0974371,-0.605519,-97.6402,0.149298,
2,1,0,1,0,16914.8,0.151115,0.150817,3.99092,9,0.0117489,10,0.000601899,-2.39893,-0.0838036,-0.704027,-109.441,0.150817,
2,1,0,1,0,16914.9,0.152615,0.15227,3.82282,9,0.0118961,10,0.000582098,-2.41762,-0.0762767,-0.773499,-115.235,0.15227,
2,1,0,1,0,16914.9,0.154115,0.153813,3.65167,9,0.0120369,10,0.000561674,-2.43751,-0.0746206,-0.790666,-112.704,0.153813,
2,1,0,1,0,16915,0.155611,0.155282,3.48356,9,0.0121709,10,0.000540935,-2.45798,-0.0730119,-0.808088,-109.829,0.155282,
2,1,0,1,0,16915,0.157106,0.156802,3.32405,9,0.0122989,10,0.000521218,-2.47833,-0.0722214,-0.816932,-105.768,0.156802,
2,1,0,1,0,16915,0.15861,0.158253,3.16883,9,0.0124215,10,0.000501477,-2.4991,-0.0738448,-0.798973,-98.8952,0.158253,
2,1,0,1,0,16915.1,0.160106,0.159815,3.02431,9,0.0125378,10,0.000483332,-2.51937,-0.0791904,-0.74504,-88.3467,0.1598154,
2,1,0,1,0,16915.1,0.161602,0.161272,2.89578,9,0.0126492,10,0.000467008,-2.53823,-0.084027,-0.702155,-79.7135,0.161272,
2,1,0,1,0,16915.1,0.163102,0.16279,2.78589,9,0.0127565,10,0.000453514,-2.55504,-0.0910271,-0.648159,-70.7932,0.16279,
2,1,0,1,0,16915.2,0.164602,0.16427,2.68724,9,0.0128597,10,0.000441431,-2.57069,-0.0972448,-0.606716,-63.8045,0.16427,
2,1,0,1,0,16915.2,0.166099,0.165794,2.59215,9,0.012959,10,0.000429763,-2.58634,-0.104542,-0.564367,-57.3764,0.165794,
2,1,0,1,0,16915.3,0.167595,0.167263,2.51758,9,0.0130552,10,0.000421098,-2.59902,-0.122042,-0.483439,-47.4944,0.167263,
2,1,0,1,0,16915.3,0.169095,0.168779,2.45345,9,0.0131489,10,0.00041409,-2.61022,-0.129345,-0.456143,-43.597,0.168779,
2,1,0,1,0,16915.3,0.170595,0.170292,2.38626,9,0.0132402,10,0.00040636,-2.62228,-0.135461,-0.435548,-40.557,0.170292,
2,1,0,1,0,16915.4,0.172091,0.171764,2.32151,9,0.0133288,10,0.000398752,-2.63423,-0.148222,-0.398052,-36.2329,0.171764,
2,1,0,1,0,16915.4,0.173586,0.173298,2.27333,9,0.0134155,10,0.000393963,-2.64334,-0.163342,-0.361205,-32.1584,0.173298,
2,1,0,1,0,16915.4,0.17509,0.174733,2.2299,9,0.0135008,10,0.000389638,-2.65171,-0.181847,-0.324448,-28.34,0.174733,
2,1,0,1,0,16915.5,0.176586,0.176266,2.1898,9,0.0135842,10,0.000385988,-2.65959,-0.195124,-0.302372,-25.8578,0.176266,
2,1,0,1,0,16915.5,0.178083,0.177724,2.14932,9,0.013666,10,0.000381986,-2.6677,-0.202752,-0.290996,-24.4757,0.177724,
2,1,0,1,0,16915.6,0.179582,0.17927,2.12496,9,0.0137466,10,0.000380943,-2.67265,-0.218654,-0.269833,-22.3346,0.17927,
2,1,0,1,0,16915.6,0.181082,0.180751,2.09055,9,0.0138262,10,0.000377868,-2.67974,-0.270824,-0.217854,-17.763,0.180751,
2,1,0,1,0,16915.6,0.182579,0.182262,2.06635,9,0.0139046,10,0.000376618,-2.6848,-0.246551,-0.239302,-19.2521,0.182262,
2,1,0,1,0,16915.7,0.184075,0.183783,2.03976,9,0.013982,10,0.000374872,-2.69042,-0.293231,-0.201206,-16.0423,0.183783,
2,1,0,1,0,16915.7,0.185579,0.185299,2.01593,9,0.0140588,10,0.00037355,-2.69552,-0.364533,-0.161851,-12.7803,0.185299,
2,1,0,1,0,16915.7,0.187074,0.186794,1.99529,9,0.0141345,10,0.000372709,-2.69999,-0.392722,-0.150233,-11.7251,0.1867943,
2,1,0,1,0,16915.8,0.18857,0.188251,1.98349,9,0.0142095,10,0.000373394,-2.70257,-0.370694,-0.159161,-12.3078,0.188251,
2,1,0,1,0,16915.8,0.19007,0.189765,1.96367,9,0.0142841,10,0.000372635,-2.70693,-0.437913,-0.13473,-10.2977,0.189765,
2,1,0,1,0,16915.8,0.19157,0.191258,1.94576,9,0.0143579,10,0.000372142,-2.71091,-0.447901,-0.131725,-9.99534,0.191258,
2,1,0,1,0,16915.9,0.193066,0.192773,1.9303,9,0.0144311,10,0.000372111,-2.71437,-0.595274,-0.099114,-7.45437,0.1927734,
2,1,0,1,0,16915.9,0.194563,0.194261,1.92367,9,0.0145038,10,0.000373694,-2.71587,-0.55735,-0.105858,-7.93298,0.194261,
2,1,0,1,0,16916,0.196063,0.195773,1.90699,9,0.0145763,10,0.000373338,-2.71965,-0.471114,-0.125235,-9.33896,0.195773,
2,1,0,1,0,16916,0.197563,0.197265,1.89067,9,0.0146482,10,0.000372964,-2.72338,-0.586735,-0.100556,-7.4628,0.1972654,
2,1,0,1,0,16916,0.199059,0.198747,1.88372,9,0.0147195,10,0.000374382,-2.72498,-0.61102,-0.0965598,-7.11178,0.198747,
2,1,0,1,0,16916.1,0.200555,0.200264,1.87494,9,0.0147905,10,0.000375484,-2.72701,-0.645843,-0.0913535,-6.69154,0.200264,
2,1,0,1,0,16916.1,0.202059,0.201725,1.86786,9,0.0148615,10,0.000376793,-2.72866,-0.707154,-0.083433,-6.06889,0.201725,
2,1,0,1,0,16916.1,0.203554,0.203242,1.85835,9,0.0149319,10,0.000377694,-2.73087,-0.678116,-0.0870058,-6.3035,0.203242,
2,1,0,1,0,16916.2,0.20505,0.2047,1.84883,9,0.0150018,10,0.000378455,-2.7331,-1.0035,-0.0587942,-4.25964,0.2046999,
2,1,0,1,0,16916.2,0.20655,0.206236,1.84154,9,0.0150717,10,0.00037979,-2.73482,-1.06885,-0.0551994,-3.97449,0.2062356,
2,1,0,1,0,16916.3,0.20805,0.207709,1.8318,9,0.0151416,10,0.000380482,-2.73712,-0.943172,-0.0625549,-4.481,0.207709,
2,1,0,1,0,16916.3,0.209546,0.209283,1.82777,9,0.0152109,10,0.000382521,-2.73808,-0.635895,-0.0927826,-6.64699,0.209283,
2,1,0,1,0,16916.3,0.211043,0.210715,1.81764,9,0.0152798,10,0.000383003,-2.74049,-0.894131,-0.0659859,-4.70056,0.210715,
2,1,0,1,0,16916.4,0.212543,0.212263,1.82014,9,0.0153487,10,0.000386347,-2.7399,-1.98016,-0.0297956,-2.11093,0.212263,
2,1,0,1,0,16916.4,0.214043,0.213752,1.81587,9,0.0154174,10,0.000388148,-2.74091,-1.15669,-0.0510078,-3.60359,0.2137524,
2,1,0,1,0,16916.4,0.215539,0.215227,1.80576,9,0.0154857,10,0.000388648,-2.74334,-0.891447,-0.0661845,-4.65465,0.215227,
2,1,0,1,0,16916.5,0.217035,0.216734,1.7968,9,0.0155537,10,0.000389429,-2.7455,-1.61924,-0.0364368,-2.56128,0.216734,
2,1,0,1,0,16916.5,0.218538,0.218243,1.79297,9,0.0156219,10,0.000391303,-2.74643,-2.46113,-0.0239727,-1.67885,0.218243,
2,1,0,1,0,16916.6,0.220034,0.219717,1.78957,9,0.0156897,10,0.000393199,-2.74725,-1.40812,-0.0418998,-2.93247,0.219717,
2,1,0,1,0,16916.6,0.22153,0.221223,1.78388,9,0.0157573,10,0.000394634,-2.74863,-1.01471,-0.0581447,-4.06162,0.221223,
2,1,0,1,0,16916.6,0.22303,0.222739,1.77735,9,0.0158248,10,0.000395885,-2.75023,-1.17848,-0.0500645,-3.48207,0.222739,
2,1,0,1,0,16916.7,0.22453,0.224222,1.77451,9,0.0158921,10,0.000397885,-2.75092,-1.25571,-0.0469852,-3.25814,0.224222,
2,1,0,1,0,16916.7,0.226026,0.225745,1.77404,9,0.0159592,10,0.000400482,-2.75104,-2.0815,-0.0283449,-1.95631,0.225745,
2,1,0,1,0,16916.7,0.227523,0.227202,1.77573,9,0.0160261,10,0.000403449,-2.75062,-0.914035,-0.0645489,-4.44139,0.227202,
2,1,0,1,0,16916.8,0.229023,0.228701,1.7668,9,0.0160931,10,0.000404069,-2.75281,-1.08807,-0.0542244,-3.73628,0.228701,
2,1,0,1,0,16916.8,0.230523,0.230257,1.75971,9,0.0161598,10,0.000405184,-2.75456,-1.6701,-0.0353273,-2.43232,0.230257,
2,1,0,1,0,16916.9,0.232019,0.231704,1.75579,9,0.0162263,10,0.000406824,-2.75553,-2.27609,-0.0259217,-1.78129,0.2317035,
2,1,0,1,0,16916.9,0.233515,0.23321,1.75412,9,0.0162927,10,0.000409077,-2.75594,-1.20833,-0.0488276,-3.34629,0.23321,
2,1,0,1,0,16916.9,0.235018,0.234719,1.75215,9,0.0163593,10,0.000411262,-2.75643,-1.36122,-0.0433433,-2.95705,0.234719,
2,1,0,1,0,16917,0.236514,0.236201,1.74176,9,0.0164252,10,0.000411405,-2.75901,-2.06191,-0.0286143,-1.94789,0.236201,
2,1,0,1,0,16917,0.23801,0.237711,1.74761,9,0.0164911,10,0.000415426,-2.75756,-2.57801,-0.0228859,-1.55207,0.237711,
2,1,0,1,0,16917,0.23951,0.239243,1.74093,9,0.0165571,10,0.000416504,-2.75922,-1.23625,-0.047725,-3.23022,0.239243,
2,1,0,1,0,16917.1,0.24101,0.240675,1.7373,9,0.016623,10,0.000418124,-2.76013,-1.65408,-0.0356694,-2.41807,0.240675,
2,1,0,1,0,16917.1,0.242506,0.242233,1.72785,9,0.0166884,10,0.000418543,-2.76249,-1.3313,-0.0443177,-2.99635,0.242233,
2,1,0,1,0,16917.2,0.244003,0.243703,1.72576,9,0.0167538,10,0.000420573,-2.76302,-2.70392,-0.0218202,-1.47669,0.243703,
2,1,0,1,0,16917.2,0.245503,0.245222,1.73085,9,0.0168193,10,0.000424442,-2.76174,-3.04095,-0.0194018,-1.30828,0.245222,
2,1,0,1,0,16917.2,0.247003,0.246721,1.7263,9,0.0168847,10,0.000425915,-2.76288,-1.34507,-0.043864,-2.94726,0.246721,
2,1,0,1,0,16917.3,0.248499,0.248196,1.71484,9,0.0169498,10,0.000425617,-2.76578,-3.71117,-0.0158979,-1.06375,0.248196,
2,1,0,1,0,16917.3,0.249995,0.249693,1.71855,9,0.0170146,10,0.000429112,-2.76484,-2.10324,-0.028052,-1.87706,0.249693,
2,1,0,1,0,16917.3,0.251498,0.25126,1.71477,9,0.0170798,10,0.000430853,-2.76579,-3.6132,-0.016329,-1.08988,0.25126,
2,1,0,1,0,16917.4,0.252994,0.252676,1.70809,9,0.0171445,10,0.000431593,-2.76749,-2.11303,-0.027922,-1.86154,0.252676,
2,1,0,1,0,16917.4,0.25449,0.25419,1.70458,9,0.0172091,10,0.000433289,-2.76838,-1.29192,-0.0456686,-3.04727,0.25419,
2,1,0,1,0,16917.5,0.25599,0.255659,1.70027,9,0.0172737,10,0.00043469,-2.76948,-3.37259,-0.017494,-1.16625,0.255659,
2,1,0,1,0,16917.5,0.25749,0.257202,1.70161,9,0.0173382,10,0.000437659,-2.76914,-11.4403,-0.00515722,-0.342538,0.257202,
2,1,0,1,0,16917.5,0.258987,0.258739,1.69897,9,0.0174025,10,0.00043959,-2.76981,-2.73873,-0.0215428,-1.42756,0.258739,
2,1,0,1,0,16917.6,0.260483,0.260212,1.69907,9,0.0174667,10,0.00044212,-2.76979,-1.88031,-0.0313778,-2.07539,0.260212,
2,1,0,1,0,16917.6,0.261983,0.261653,1.69716,9,0.0175308,10,0.000444066,-2.77028,-1.66185,-0.0355026,-2.3403,0.261653,
2,1,0,1,0,16917.6,0.263483,0.263176,1.69008,9,0.0175949,10,0.00044479,-2.77209,-19.1695,-0.00307781,-0.20245,0.263176,
2,1,0,1,0,16917.7,0.264978,0.264672,1.68874,9,0.0176587,10,0.000446962,-2.77244,-45.3106,-0.00130212,-0.085786,0.264672,
2,1,0,1,0,16917.7,0.266474,0.266162,1.68121,9,0.0177224,10,0.000447474,-2.77438,-1.54003,-0.0383109,-2.52458,0.266162,
2,1,0,1,0,16917.8,0.267977,0.267694,1.67576,9,0.0177862,10,0.000448592,-2.77579,-2.48284,-0.0237631,-1.56137,0.267694,
2,1,0,1,0,16917.8,0.269474,0.269203,1.67417,9,0.0178496,10,0.000450694,-2.7762,-1.65672,-0.0356124,-2.33255,0.269203,
2,1,0,1,0,16917.8,0.27097,0.270671,1.6823,9,0.017913,10,0.000455352,-2.7741,-2.87968,-0.0204884,-1.338,0.270671,
2,1,0,1,0,16917.9,0.27247,0.272179,1.67536,9,0.0179765,10,0.000455997,-2.77589,-1.15401,-0.0511259,-3.3209,0.272179,
2,1,0,1,0,16917.9,0.27397,0.273664,1.66856,9,0.0180398,10,0.000456626,-2.77766,-1.62434,-0.0363225,-2.35925,0.273664,
2,1,0,1,0,16917.9,0.275467,0.275155,1.66184,9,0.0181027,10,0.000457263,-2.77941,-1.31766,-0.0447763,-2.91201,0.2751551,
2,1,0,1,0,16918,0.276963,0.276663,1.6615,9,0.0181655,10,0.000459676,-2.7795,-2.0583,-0.0286644,-1.86109,0.276663,
2,1,0,1,0,16918,0.278463,0.278175,1.65711,9,0.0182285,10,0.000460966,-2.78065,-1.15135,-0.0512443,-3.3152,0.2781747,
2,1,0,1,0,16918.1,0.279963,0.279632,1.6586,9,0.0182913,10,0.000463796,-2.78026,-1.09721,-0.0537728,-3.47958,0.279632,
2,1,0,1,0,16918.1,0.281459,0.281198,1.65054,9,0.0183537,10,0.000464129,-2.78237,-2.78647,-0.0211738,-1.36569,0.281198,
2,1,0,1,0,16918.1,0.282954,0.282651,1.65105,9,0.0184161,10,0.000466673,-2.78224,-2.8231,-0.020899,-1.34187,0.282651,
2,1,0,1,0,16918.2,0.284458,0.284131,1.6497,9,0.0184787,10,0.000468731,-2.7826,-1.93018,-0.030567,-1.95901,0.284131,
2,1,0,1,0,16918.2,0.285954,0.28568,1.64738,9,0.0185409,10,0.000470624,-2.78321,-0.883991,-0.0667427,-4.26944,0.28568,
2,1,0,1,0,16918.2,0.28745,0.28714,1.63445,9,0.0186028,10,0.000469317,-2.78663,-1.51854,-0.0388531,-2.48194,0.28714,
2,1,0,1,0,16918.3,0.28895,0.288629,1.63111,9,0.0186648,10,0.000470786,-2.78752,39.5976,0.00148999,0.0950819,0.2886295,
2,1,0,1,0,16918.3,0.29045,0.290158,1.62896,9,0.0187268,10,0.000472658,-2.78809,-2.79421,-0.0211151,-1.3476,0.290158,
2,1,0,1,0,16918.4,0.291947,0.291635,1.62665,9,0.0187884,10,0.000474387,-2.78871,-1.11945,-0.0527044,-3.35176,0.291635,
2,1,0,1,0,16918.4,0.293443,0.293152,1.6167,9,0.0188499,10,0.000473937,-2.79137,-1.1514,-0.0512422,-3.24554,0.293152,
2,1,0,1,0,16918.4,0.294943,0.294632,1.62198,9,0.0189113,10,0.000477887,-2.78996,-1.95266,-0.0302152,-1.90916,0.294632,
2,1,0,1,0,16918.5,0.296443,0.296196,1.62565,9,0.0189727,10,0.000481512,-2.78897,-1.56385,-0.0377273,-2.37497,0.296196,
2,1,0,1,0,16918.5,0.297939,0.297646,1.61822,9,0.0190339,10,0.000481658,-2.79096,-4.90518,-0.0120281,-0.756163,0.297646,
2,1,0,1,0,16918.5,0.299434,0.299142,1.60955,9,0.0190949,10,0.000481484,-2.7933,-0.0111739,-5.28016,-268.197,0.299142,
2,1,0,0,0,16918.6,0.299962,0.299689,1.5174,9,0.0191188,10,0.000454748,-2.8189,0.000289311,203.933,2124.35,0.2996892,
2,1,0,1,0,16918.6,0.298689,0.298402,0.199559,9,0.0191395,10,5.95488e-05,-3.69993,0.0044489,13.2617,560.062,0.2984024,
2,0,0,1,0,16918.6,0.297189,0.296927,-0.207134,9,0.0191371,10,-6.15038e-05,-3.68375,0.0413969,1.42523,221.357,0.296927,
2,0,0,1,0,16918.7,0.295692,0.295385,-0.369722,9,0.0191252,10,-0.00010921,-3.43212,-0.0069528,-8.48579,85.8263,0.295385,
2,0,0,1,0,16918.7,0.294196,0.293918,-0.4453,9,0.0191092,10,-0.000130882,-3.35135,-0.020726,-2.84667,46.2891,0.293918,
2,0,0,1,0,16918.7,0.292696,0.292374,-0.500989,9,0.0190906,10,-0.000146476,-3.30017,-0.0322241,-1.83093,34.7629,0.292374,
2,0,0,1,0,16918.8,0.291196,0.290897,-0.551039,9,0.0190702,10,-0.000160295,-3.25882,-0.0422242,-1.3973,29.3496,0.290897,
2,0,0,1,0,16918.8,0.2897,0.289381,-0.58934,9,0.0190482,10,-0.000170544,-3.22963,-0.052507,-1.12366,25.3989,0.289381,
2,0,0,1,0,16918.9,0.288205,0.287861,-0.617731,9,0.0190249,10,-0.00017782,-3.2092,-0.0687971,-0.857594,20.5925,0.287861,
2,0,0,1,0,16918.9,0.286701,0.286355,-0.643986,9,0.0190002,10,-0.000184409,-3.19112,-0.0765805,-0.770431,19.5982,0.286355,
2,0,0,1,0,16918.9,0.285205,0.28492,-0.674658,9,0.0189748,10,-0.000192224,-3.17092,-0.0853119,-0.69158,18.3197,0.2849198,
2,0,0,1,0,16919,0.283708,0.283429,-0.701467,9,0.0189482,10,-0.000198816,-3.15399,-0.100478,-0.587192,16.0638,0.283429,
2,0,0,1,0,16919,0.282208,0.28187,-0.728518,9,0.0189207,10,-0.000205347,-3.13756,-0.124389,-0.474317,13.3511,0.28187,
2,0,0,1,0,16919,0.280709,0.28043,-0.751865,9,0.0188922,10,-0.000210846,-3.12386,-0.124903,-0.472368,13.6931,0.28043,
2,0,0,1,0,16919.1,0.279212,0.278886,-0.768702,9,0.0188633,10,-0.00021438,-3.11424,-0.15541,-0.379642,11.3303,0.278886,
2,0,0,1,0,16919.1,0.277716,0.277422,-0.785726,9,0.0188335,10,-0.000217978,-3.10473,-0.142306,-0.414599,12.6777,0.277422,
2,0,0,1,0,16919.2,0.276216,0.275903,-0.809268,9,0.0188029,10,-0.00022328,-3.09191,-0.145853,-0.404516,12.704,0.275903,
2,0,0,1,0,16919.2,0.274716,0.274399,-0.821725,9,0.0187716,10,-0.000225481,-3.08527,-0.176838,-0.333639,10.7481,0.274399,
2,0,0,1,0,16919.2,0.27322,0.272906,-0.837328,9,0.0187399,10,-0.000228512,-3.0771,-0.182343,-0.323566,10.592,0.272906,
2,0,0,1,0,16919.3,0.271725,0.271421,-0.855616,9,0.0187075,10,-0.000232232,-3.06772,-0.160094,-0.368533,12.2436,0.271421,
2,0,0,1,0,16919.3,0.270221,0.269899,-0.873932,9,0.0186742,10,-0.000235874,-3.05852,-0.180384,-0.327079,11.0844,0.269899,
2,0,0,1,0,16919.3,0.268725,0.268421,-0.889121,9,0.0186407,10,-0.000238659,-3.05104,-0.253456,-0.232782,8.03551,0.268421,
2,0,0,1,0,16919.4,0.267228,0.266929,-0.894952,9,0.0186065,10,-0.000238889,-3.0482,-0.215059,-0.274344,9.6072,0.266929,
2,0,0,1,0,16919.4,0.265728,0.265423,-0.911231,9,0.0185719,10,-0.000241862,-3.04037,-0.22966,-0.256902,9.15262,0.265423,
2,0,0,1,0,16919.5,0.264228,0.263917,-0.920542,9,0.0185367,10,-0.000242947,-3.03596,-0.246618,-0.239236,8.65824,0.263917,
2,0,0,1,0,16919.5,0.262732,0.262471,-0.938128,9,0.018501,10,-0.000246232,-3.02774,-0.284231,-0.207578,7.60814,0.262471,
2,0,0,1,0,16919.5,0.261236,0.260958,-0.947963,9,0.0184649,10,-0.000247379,-3.02321,-0.278967,-0.211494,7.87278,0.260958,
2,0,0,1,0,16919.6,0.259736,0.259445,-0.96427,9,0.0184283,10,-0.000250175,-3.0158,-0.235545,-0.250482,9.4253,0.259445,
2,0,0,1,0,16919.6,0.258236,0.2579,-0.982247,9,0.0183912,10,-0.000253322,-3.00778,-0.265187,-0.222485,8.45122,0.2579,
2,0,0,1,0,16919.6,0.256741,0.256418,-0.994657,9,0.0183537,10,-0.000255048,-3.00233,-0.318737,-0.185105,7.09705,0.256418,
2,0,0,1,0,16919.7,0.255241,0.254939,-1.00087,9,0.0183156,10,-0.00025516,-2.99962,-0.321768,-0.183362,7.16066,0.254939,
2,0,0,1,0,16919.7,0.253741,0.253425,-1.00852,9,0.0182773,10,-0.000255584,-2.99632,-0.313273,-0.188334,7.43557,0.253425,
2,0,0,1,0,16919.8,0.252245,0.25194,-1.02125,9,0.0182385,10,-0.000257294,-2.99087,-0.286273,-0.206097,8.23626,0.25194,
2,0,0,1,0,16919.8,0.250748,0.250389,-1.03386,9,0.0181993,10,-0.000258867,-2.98554,-0.326871,-0.1805,7.28188,0.250389,
2,0,0,1,0,16919.8,0.249248,0.248932,-1.04424,9,0.0181596,10,-0.000259944,-2.9812,-0.36595,-0.161224,6.56203,0.248932,
2,0,0,1,0,16919.9,0.247748,0.247453,-1.0544,9,0.0181196,10,-0.000260913,-2.977,-0.46416,-0.127111,5.21894,0.247453,
2,0,0,1,0,16919.9,0.246252,0.245916,-1.06253,9,0.0180793,10,-0.000261292,-2.97366,-0.276548,-0.213345,8.8229,0.245916,
2,0,0,1,0,16919.9,0.244756,0.244452,-1.08215,9,0.0180385,10,-0.000264533,-2.96571,-0.327344,-0.180239,7.52912,0.244452,
2,0,0,1,0,16920,0.243252,0.242913,-1.08685,9,0.0179971,10,-0.000264009,-2.96383,-0.405884,-0.145362,6.1563,0.242913,
2,0,0,1,0,16920,0.241756,0.241475,-1.09006,9,0.0179556,10,-0.000263223,-2.96255,-0.413545,-0.142669,6.11349,0.241475,
2,0,0,1,0,16920.1,0.240261,0.239979,-1.10216,9,0.0179138,10,-0.000264495,-2.95775,-0.341302,-0.172867,7.47197,0.239979,
2,0,0,1,0,16920.1,0.238761,0.238434,-1.11249,9,0.0178714,10,-0.000265255,-2.95371,-0.361686,-0.163125,7.11443,0.238434,
2,0,0,1,0,16920.1,0.237261,0.23697,-1.12241,9,0.0178287,10,-0.000265979,-2.94985,-0.507758,-0.116197,5.08099,0.23697,
2,0,0,1,0,16920.2,0.235765,0.23544,-1.13484,9,0.0177857,10,-0.000267186,-2.94507,-0.468104,-0.12604,5.56817,0.23544,
2,0,0,1,0,16920.2,0.234268,0.233987,-1.14629,9,0.0177425,10,-0.000268217,-2.9407,-0.392569,-0.150292,6.69683,0.233987,
2,0,0,1,0,16920.2,0.232768,0.232449,-1.15382,9,0.0176988,10,-0.000268203,-2.93786,-0.327886,-0.179941,8.07618,0.2324487,
2,0,0,1,0,16920.3,0.231268,0.230965,-1.16462,9,0.0176546,10,-0.000268986,-2.93382,-0.488069,-0.120885,5.47743,0.230965,
2,0,0,1,0,16920.3,0.229772,0.229512,-1.17052,9,0.0176102,10,-0.000268649,-2.93162,-0.487335,-0.121067,5.53494,0.229512,
2,0,0,1,0,16920.4,0.228275,0.227981,-1.17474,9,0.0175656,10,-0.000267818,-2.93006,-0.37275,-0.158283,7.30198,0.227981,
2,0,0,1,0,16920.4,0.226772,0.226492,-1.18834,9,0.0175204,10,-0.000269149,-2.92506,-0.388504,-0.151865,7.04933,0.2264922,
2,0,0,1,0,16920.4,0.225276,0.224956,-1.20101,9,0.017475,10,-0.000270175,-2.92045,-0.359731,-0.164012,7.66186,0.224956,
2,0,0,1,0,16920.5,0.223781,0.223466,-1.21251,9,0.0174292,10,-0.000270956,-2.91631,-0.553602,-0.106575,5.01657,0.223466,
2,0,0,1,0,16920.5,0.222281,0.221999,-1.21376,9,0.0173831,10,-0.000269454,-2.91587,-0.447176,-0.131939,6.25389,0.221999,
2,0,0,1,0,16920.5,0.220781,0.220483,-1.22535,9,0.0173366,10,-0.00027017,-2.91174,-0.41143,-0.143402,6.84025,0.220483,
2,0,0,1,0,16920.6,0.219284,0.219001,-1.23472,9,0.0172898,10,-0.000270404,-2.90843,-0.448623,-0.131514,6.34454,0.219001,
2,0,0,1,0,16920.6,0.217788,0.21743,-1.24635,9,0.0172426,10,-0.000270993,-2.90436,-0.525008,-0.112379,5.46565,0.21743,
2,0,0,1,0,16920.7,0.216288,0.215951,-1.24669,9,0.0171951,10,-0.000269224,-2.90424,-0.461107,-0.127953,6.26962,0.215951,
2,0,0,1,0,16920.7,0.214788,0.214459,-1.26318,9,0.0171473,10,-0.000270901,-2.89853,-0.546742,-0.107912,5.3274,0.214459,
2,0,0,1,0,16920.7,0.213292,0.212985,-1.27397,9,0.0170991,10,-0.000271337,-2.89484,-0.432458,-0.136429,6.76223,0.212985,
2,0,0,1,0,16920.8,0.211796,0.211521,-1.28487,9,0.0170507,10,-0.000271776,-2.89114,-0.662146,-0.0891043,4.44233,0.211521,
2,0,0,1,0,16920.8,0.210293,0.209937,-1.2919,9,0.0170016,10,-0.000271218,-2.88877,-0.502886,-0.117323,5.90284,0.209937,
2,0,0,1,0,16920.8,0.208797,0.208462,-1.29642,9,0.0169525,10,-0.000270255,-2.88725,-0.377936,-0.156111,7.94406,0.208462,
2,0,0,1,0,16920.9,0.207301,0.206975,-1.30586,9,0.016903,10,-0.00027028,-2.8841,-0.357165,-0.16519,8.43287,0.206975,
2,0,0,1,0,16920.9,0.205801,0.205499,-1.32133,9,0.0168528,10,-0.000271532,-2.87899,-0.454374,-0.129849,6.6926,0.205499,
2,0,0,1,0,16921,0.204301,0.203998,-1.33167,9,0.0168023,10,-0.000271658,-2.8756,-0.725054,-0.0813732,4.23144,0.203998,
2,0,0,1,0,16921,0.202804,0.202506,-1.33475,9,0.0167517,10,-0.000270295,-2.8746,-0.573058,-0.102956,5.37474,0.202506,
2,0,0,1,0,16921,0.201308,0.201011,-1.3506,9,0.0167008,10,-0.000271485,-2.86947,-0.395943,-0.149011,7.81388,0.201011,
2,0,0,1,0,16921.1,0.199808,0.199478,-1.36234,9,0.0166493,10,-0.000271757,-2.86571,-0.428253,-0.137769,7.29343,0.199478,
2,0,0,1,0,16921.1,0.198308,0.197958,-1.37094,9,0.0165974,10,-0.000271388,-2.86298,-0.535142,-0.110251,5.88881,0.197958,
2,0,0,1,0,16921.1,0.196812,0.196488,-1.37747,9,0.0165453,10,-0.000270656,-2.86092,-0.449898,-0.131141,7.05823,0.1964881,
2,0,0,1,0,16921.2,0.195316,0.194979,-1.3923,9,0.0164929,10,-0.000271468,-2.85627,-0.38829,-0.151948,8.2488,0.194979,
2,0,0,1,0,16921.2,0.193813,0.193515,-1.40043,9,0.0164396,10,-0.000271004,-2.85374,-0.359846,-0.163959,8.98951,0.193515,
2,0,0,1,0,16921.3,0.192317,0.192007,-1.4119,9,0.0163862,10,-0.000271096,-2.85019,-0.392399,-0.150357,8.28724,0.192007,
2,0,0,1,0,16921.3,0.190821,0.190519,-1.41954,9,0.0163324,10,-0.000270451,-2.84785,-0.425231,-0.138748,7.71194,0.190519,
2,0,0,1,0,16921.3,0.189321,0.189008,-1.43434,9,0.0162781,10,-0.000271102,-2.84335,-0.410644,-0.143677,8.04895,0.189008,
2,0,0,1,0,16921.4,0.187821,0.187521,-1.45097,9,0.0162233,10,-0.000272088,-2.83834,-0.406901,-0.144998,8.19376,0.187521,
2,0,0,1,0,16921.4,0.186324,0.186009,-1.46366,9,0.0161681,10,-0.000272253,-2.83456,-0.394781,-0.14945,8.51089,0.186009,
2,0,0,1,0,16921.4,0.184828,0.184517,-1.47539,9,0.0161124,10,-0.000272235,-2.83109,-0.417075,-0.141461,8.16035,0.184517,
2,0,0,1,0,16921.5,0.183328,0.182989,-1.48474,9,0.0160562,10,-0.000271691,-2.82835,-0.356615,-0.165445,9.65367,0.182989,
2,0,0,1,0,16921.5,0.181828,0.181505,-1.49915,9,0.0159994,10,-0.000272102,-2.82416,-0.318262,-0.185382,10.8989,0.181505,
2,0,0,1,0,16921.6,0.180332,0.180051,-1.51881,9,0.0159421,10,-0.000273463,-2.8185,-0.338114,-0.174497,10.3519,0.180051,
2,0,0,1,0,16921.6,0.178836,0.178528,-1.53432,9,0.0158842,10,-0.000273919,-2.81408,-0.322942,-0.182695,10.9298,0.178528,
2,0,0,1,0,16921.6,0.177333,0.176986,-1.55244,9,0.0158256,10,-0.00027476,-2.80898,-0.309137,-0.190854,11.5408,0.176986,
2,0,0,1,0,16921.7,0.175837,0.175498,-1.57041,9,0.0157665,10,-0.000275602,-2.80399,-0.261549,-0.225579,13.7779,0.1754975,
2,0,0,1,0,16921.7,0.174341,0.174013,-1.58952,9,0.0157067,10,-0.000276598,-2.79873,-0.298094,-0.197924,12.2692,0.174013,
2,0,0,1,0,16921.7,0.172841,0.172515,-1.60751,9,0.015646,10,-0.000277321,-2.79385,-0.30462,-0.193684,12.1635,0.172515,
2,0,0,1,0,16921.8,0.171341,0.170988,-1.62038,9,0.0155846,10,-0.000277066,-2.79038,-0.26141,-0.225699,14.3961,0.170988,
2,0,0,1,0,16921.8,0.169844,0.169523,-1.64961,9,0.0155227,10,-0.000279647,-2.78262,-0.234629,-0.251461,16.2318,0.169523,
2,0,0,1,0,16921.9,0.168348,0.167991,-1.68011,9,0.0154596,10,-0.000282242,-2.77466,-0.224071,-0.26331,17.251,0.167991,
2,0,0,1,0,16921.9,0.166848,0.166518,-1.70714,9,0.0153955,10,-0.00028427,-2.76773,-0.230431,-0.256042,16.973,0.166518,
2,0,0,1,0,16921.9,0.165348,0.16502,-1.73291,9,0.0153303,10,-0.000285964,-2.76122,-0.219883,-0.268325,18.0993,0.16502,
2,0,0,1,0,16922,0.163852,0.163546,-1.75906,9,0.0152645,10,-0.000287687,-2.75472,-0.203835,-0.28945,19.9093,0.163546,
2,0,0,1,0,16922,0.162357,0.162052,-1.79381,9,0.0151973,10,-0.000290689,-2.74622,-0.169548,-0.347984,24.3517,0.162052,
2,0,0,1,0,16922,0.160853,0.160547,-1.82473,9,0.0151284,10,-0.000292954,-2.7388,-0.171381,-0.344262,24.6619,0.160547,
2,0,0,1,0,16922.1,0.159357,0.159052,-1.86671,9,0.0150585,10,-0.000296904,-2.72892,-0.162631,-0.362785,26.5359,0.159052,
2,0,0,1,0,16922.1,0.157861,0.157538,-1.90486,9,0.0149873,10,-0.000300089,-2.72014,-0.151192,-0.390233,29.1883,0.157538,
2,0,0,1,0,16922.2,0.156361,0.156037,-1.95559,9,0.014914,10,-0.000305145,-2.70872,-0.127665,-0.462148,35.3285,0.156037,
2,0,0,1,0,16922.2,0.154861,0.154526,-2.01263,9,0.0148388,10,-0.000311003,-2.69624,-0.121962,-0.483757,37.9751,0.154526,
2,0,0,1,0,16922.2,0.153364,0.153024,-2.07538,9,0.0147618,10,-0.000317583,-2.6829,-0.127997,-0.46095,37.1783,0.153024,
2,0,0,1,0,16922.3,0.151868,0.151558,-2.12955,9,0.0146826,10,-0.00032275,-2.67171,-0.11249,-0.524492,43.7163,0.1515581,
2,0,0,1,0,16922.3,0.150368,0.150055,-2.20191,9,0.0146008,10,-0.000330408,-2.6572,-0.0988494,-0.596868,51.3781,0.150055,
2,0,0,1,0,16922.3,0.148868,0.148519,-2.27952,9,0.0145161,10,-0.000338553,-2.64216,-0.0950571,-0.620679,55.353,0.148519,
2,0,0,1,0,16922.4,0.147372,0.147062,-2.36159,9,0.0144285,10,-0.000347302,-2.62679,-0.092167,-0.640142,59.2273,0.147062,
2,0,0,1,0,16922.4,0.145877,0.145612,-2.44877,9,0.0143377,10,-0.00035657,-2.61105,-0.0857321,-0.68819,66.2341,0.1456117,
2,0,0,1,0,16922.5,0.144373,0.144063,-2.56016,9,0.0142427,10,-0.000368823,-2.59173,-0.080047,-0.737067,73.8391,0.144063,
2,0,0,1,0,16922.5,0.142877,0.142637,-2.68529,9,0.014144,10,-0.000383022,-2.57101,-0.0782545,-0.75395,78.7528,0.142637,
2,0,0,1,0,16922.5,0.14138,0.14102,-2.80505,9,0.0140407,10,-0.000395567,-2.55206,-0.0781852,-0.754618,82.2592,0.14102,
2,0,0,1,0,16922.6,0.13988,0.139569,-2.92881,9,0.0139326,10,-0.000408771,-2.53331,-0.0777018,-0.759314,86.7721,0.139569,
2,0,0,1,0,16922.6,0.13838,0.138071,-3.05841,9,0.0138197,10,-0.000422277,-2.5145,-0.0778215,-0.758145,90.6968,0.138071,
2,0,0,1,0,16922.6,0.136884,0.136545,-3.1968,9,0.0137019,10,-0.000436509,-2.49528,-0.0780299,-0.75612,94.4507,0.136545,
2,0,0,1,0,16922.7,0.135388,0.135074,-3.34222,9,0.0135788,10,-0.000451449,-2.47596,-0.0813707,-0.725077,94.5601,0.135074,
2,0,0,1,0,16922.7,0.133888,0.133572,-3.48462,9,0.01345,10,-0.000465447,-2.45784,-0.086389,-0.682958,92.6708,0.133572,
2,0,0,1,0,16922.8,0.132389,0.132036,-3.61727,9,0.0133162,10,-0.00047761,-2.44162,-0.0905958,-0.651245,91.8979,0.132036,
2,0,0,1,0,16922.8,0.130893,0.130555,-3.76323,9,0.0131775,10,-0.000491308,-2.42444,-0.0944068,-0.624955,91.3258,0.130555,
2,0,0,1,0,16922.8,0.129393,0.129083,-3.88918,9,0.0130332,10,-0.000502026,-2.41014,-0.101523,-0.581151,87.9974,0.129083,
2,0,0,1,0,16922.9,0.127893,0.127545,-4.00793,9,0.0128843,10,-0.000511191,-2.39708,-0.119814,-0.49243,76.9455,0.127545,
2,0,0,1,0,16922.9,0.126397,0.126055,-4.12232,9,0.0127313,10,-0.000519641,-2.38486,-0.125955,-0.46842,75.3007,0.126055,
2,0,0,1,0,16922.9,0.1249,0.124561,-4.23113,9,0.0125742,10,-0.000527034,-2.37354,-0.138707,-0.425357,70.1891,0.124561,
2,0,0,1,0,16923,0.1234,0.123099,-4.33149,9,0.0124127,10,-0.000533202,-2.36336,-0.154375,-0.382186,64.5293,0.123099,
2,0,0,1,0,16923,0.1219,0.121549,-4.42736,9,0.0122477,10,-0.00053814,-2.35386,-0.182842,-0.322682,55.5382,0.121549,
2,0,0,1,0,16923.1,0.120404,0.120105,-4.50304,9,0.0120799,10,-0.000540839,-2.34649,-0.218321,-0.270244,47.3548,0.120105,
2,0,0,1,0,16923.1,0.118908,0.118607,-4.56966,9,0.0119096,10,-0.000541992,-2.34012,-0.241685,-0.244119,43.4652,0.118607,
2,0,0,1,0,16923.1,0.117404,0.117103,-4.63187,9,0.0117359,10,-0.000542407,-2.33424,-0.284952,-0.207052,37.3331,0.117103,
2,0,0,1,0,16923.2,0.115909,0.115549,-4.68103,9,0.0115609,10,-0.000540887,-2.32966,-0.383603,-0.153805,27.9945,0.115549,
2,0,0,1,0,16923.2,0.114413,0.114043,-4.71466,9,0.0113843,10,-0.000537677,-2.32655,-0.473536,-0.124595,22.9313,0.114043,
2,0,0,1,0,16923.2,0.112913,0.112602,-4.74346,9,0.0112061,10,-0.000534122,-2.32391,-0.627972,-0.0939532,17.3978,0.112602,
2,0,0,1,0,16923.3,0.111413,0.111085,-4.76414,9,0.0110269,10,-0.000529223,-2.32202,-0.922594,-0.0639501,11.8771,0.1110848,
2,0,0,1,0,16923.3,0.109917,0.109571,-4.78406,9,0.0108475,10,-0.000524192,-2.3202,-2.40387,-0.0245437,4.57155,0.109571,
2,0,0,1,0,16923.3,0.10842,0.10807,-4.79034,9,0.0106679,10,-0.000517692,-2.31963,7.35003,0.00802718,-1.4952,0.10807,
2,0,0,1,0,16923.4,0.10692,0.106607,-4.7803,9,0.0104879,10,-0.000509615,-2.32054,1.8175,0.0324621,-6.04,0.106607,
2,0,0,1,0,16923.4,0.10542,0.105106,-4.76596,9,0.0103082,10,-0.000500929,-2.32185,1.14505,0.0515259,-9.56998,0.105106,
2,0,0,1,0,16923.5,0.103924,0.103618,-4.74948,9,0.0101295,10,-0.000492132,-2.32335,0.710136,0.0830826,-15.3716,0.103618,
2,0,0,1,0,16923.5,0.102427,0.1021,-4.71784,9,0.00995174,10,-0.000481691,-2.32626,0.499002,0.118236,-21.7491,0.1021,
2,0,0,1,0,16923.5,0.100924,0.100566,-4.67054,9,0.00977431,10,-0.000469698,-2.33063,0.406641,0.145091,-26.5022,0.100566,
2,0,0,1,0,16923.6,0.0994284,0.0991245,-4.63931,9,0.00959937,10,-0.00045987,-2.33355,0.394791,0.149446,-27.055,0.0991245,
2,0,0,1,0,16923.6,0.0979329,0.0975686,-4.59653,9,0.00942596,10,-0.000448477,-2.33757,0.354227,0.16656,-29.8261,0.0975686,
2,0,0,1,0,16923.6,0.0964329,0.0961269,-4.55228,9,0.00925371,10,-0.000437596,-2.34177,0.303855,0.194172,-34.382,0.0961269,
2,0,0,1,0,16923.7,0.094933,0.0946251,-4.49526,9,0.00908341,10,-0.000425364,-2.34725,0.287681,0.205088,-35.9365,0.0946251,
2,0,0,1,0,16923.7,0.0934366,0.0931166,-4.43787,9,0.0089157,10,-0.00041324,-2.35283,0.293955,0.200711,-34.8138,0.0931166,
2,0,0,1,0,16923.8,0.0919401,0.0916282,-4.38524,9,0.00874989,10,-0.000401811,-2.35801,0.303431,0.194443,-33.3216,0.0916282,
2,0,0,1,0,16923.8,0.0904402,0.0900995,-4.33903,9,0.00858544,10,-0.000390944,-2.36261,0.287569,0.205168,-34.7475,0.0900995,
2,0,0,1,0,16923.8,0.0889402,0.0885882,-4.28578,9,0.00842294,10,-0.000379669,-2.36797,0.293824,0.200801,-33.6412,0.0885882,
2,0,0,1,0,16923.9,0.0874438,0.0871534,-4.23853,9,0.00826293,10,-0.000369402,-2.37279,0.303917,0.194132,-32.1214,0.08715339,
2,0,0,1,0,16923.9,0.0859483,0.0856254,-4.19804,9,0.00810459,10,-0.000359459,-2.37695,0.373093,0.158137,-25.8764,0.08562538,
2,0,0,1,0,16923.9,0.0844447,0.0841488,-4.15833,9,0.00794695,10,-0.000349919,-2.38108,0.387667,0.152193,-24.6512,0.0841488,
2,0,0,1,0,16924,0.0829492,0.0826123,-4.11809,9,0.00779158,10,-0.000340205,-2.3853,0.371675,0.158741,-25.4725,0.0826123,
2,0,0,1,0,16924,0.0814528,0.0810954,-4.07243,9,0.00763777,10,-0.000330255,-2.39015,0.387191,0.152379,-24.2651,0.0810954,
2,0,0,1,0,16924.1,0.0799528,0.0796112,-4.04588,9,0.00748478,10,-0.000322097,-2.39299,0.495878,0.118981,-18.7832,0.07961119,
2,0,0,1,0,16924.1,0.0784529,0.0781051,-4.01339,9,0.0073329,10,-0.000313466,-2.39649,0.493391,0.119581,-18.7658,0.0781051,
2,0,0,1,0,16924.1,0.0769565,0.0766145,-3.98545,9,0.00718248,10,-0.000305343,-2.39952,0.444221,0.132817,-20.683,0.0766145,
2,0,0,1,0,16924.2,0.0754601,0.0751287,-3.95411,9,0.00703314,10,-0.000297068,-2.40295,0.516002,0.114341,-17.6781,0.0751287,
2,0,0,1,0,16924.2,0.0739601,0.0736598,-3.93673,9,0.00688447,10,-0.000289979,-2.40486,0.575008,0.102607,-15.763,0.0736598,
2,0,0,1,0,16924.2,0.0724601,0.0721243,-3.91941,9,0.00673657,10,-0.000282685,-2.40678,0.580827,0.101579,-15.4932,0.07212434,
2,0,0,1,0,16924.3,0.0709637,0.0706372,-3.89323,9,0.00658985,10,-0.000275007,-2.40969,0.529439,0.111439,-16.8932,0.0706372,
2,0,0,1,0,16924.3,0.0694682,0.0691286,-3.8677,9,0.006444,10,-0.000267369,-2.41255,0.667595,0.0883769,-13.3431,0.0691286,
2,0,0,1,0,16924.4,0.0679646,0.0676421,-3.84309,9,0.00629834,10,-0.000259954,-2.41532,0.667068,0.0884468,-13.3022,0.0676421,
2,0,0,1,0,16924.4,0.0664691,0.0661705,-3.82139,9,0.00615419,10,-0.000252863,-2.41778,0.744412,0.0792572,-11.8479,0.0661705,
2,0,0,1,0,16924.4,0.0649727,0.0646375,-3.80379,9,0.00601063,10,-0.000245867,-2.41978,0.610003,0.0967209,-14.3538,0.0646375,
2,0,0,1,0,16924.5,0.0634727,0.0631953,-3.78993,9,0.00586747,10,-0.000239505,-2.42137,0.566602,0.10413,-15.3604,0.0631953,
2,0,0,1,0,16924.5,0.0619728,0.0616113,-3.76113,9,0.00572538,10,-0.000231728,-2.42468,0.572576,0.103043,-15.121,0.0616113,
2,0,0,1,0,16924.5,0.0604764,0.0601706,-3.74041,9,0.00558446,10,-0.000225062,-2.42708,0.623454,0.0946341,-13.7799,0.0601706,
2,0,0,1,0,16924.6,0.05898,0.058669,-3.71982,9,0.00544425,10,-0.000218238,-2.42948,0.634605,0.0929713,-13.4821,0.058669,
2,0,0,1,0,16924.6,0.05748,0.0571412,-3.69465,9,0.00530449,10,-0.000211117,-2.43243,0.556194,0.106078,-15.2994,0.05714123,
2,0,0,1,0,16924.7,0.05598,0.0556475,-3.66489,9,0.00516568,10,-0.000203942,-2.43594,0.53037,0.111243,-15.9534,0.0556475,
2,0,0,1,0,16924.7,0.0544836,0.0541668,-3.64442,9,0.00502812,10,-0.000197406,-2.43837,0.588222,0.100302,-14.2918,0.0541668,
2,0,0,1,0,16924.7,0.0529881,0.0527192,-3.62829,9,0.00489128,10,-0.00019128,-2.4403,0.585608,0.10075,-14.2536,0.0527192,
2,0,0,1,0,16924.8,0.0514846,0.0511544,-3.60952,9,0.00475448,10,-0.000184643,-2.44255,0.509462,0.115808,-16.2696,0.05115436,
2,0,0,1,0,16924.8,0.049989,0.0496829,-3.57823,9,0.00461941,10,-0.000177777,-2.44633,0.493362,0.119588,-16.698,0.0496829,
2,0,0,1,0,16924.8,0.0484926,0.0481933,-3.55729,9,0.00448535,10,-0.000171438,-2.44888,0.5041,0.11704,-16.2307,0.0481933,
2,0,0,1,0,16924.9,0.0469927,0.0466725,-3.53214,9,0.00435174,10,-0.000164854,-2.45196,0.508619,0.116,-15.9697,0.0466725,
2,0,0,1,0,16924.9,0.0454927,0.0452117,-3.50266,9,0.004219,10,-0.000158361,-2.4556,0.413906,0.142545,-19.4913,0.0452117,
2,0,0,1,0,16925,0.0439963,0.0436742,-3.47787,9,0.00408761,10,-0.000151893,-2.45869,0.426005,0.138496,-18.8333,0.0436742,
2,0,0,1,0,16925,0.0424999,0.0421867,-3.44895,9,0.00395736,10,-0.0001455,-2.46231,0.519784,0.113509,-15.3217,0.0421867,
2,0,0,1,0,16925,0.0409999,0.0406769,-3.42539,9,0.00382764,10,-0.000139334,-2.46529,0.45441,0.129839,-17.3762,0.0406769,
2,0,0,1,0,16925.1,0.0394999,0.0391704,-3.40689,9,0.00369875,10,-0.000133449,-2.46764,0.422336,0.139699,-18.5155,0.0391704,
2,0,0,1,0,16925.1,0.0380044,0.0376695,-3.37671,9,0.00357127,10,-0.000127199,-2.47151,0.381369,0.154706,-20.3398,0.0376695,
2,0,0,1,0,16925.1,0.0365089,0.0361904,-3.3424,9,0.00344503,10,-0.000120963,-2.47594,0.403437,0.146243,-19.0625,0.0361904,
2,0,0,1,0,16925.2,0.0350054,0.0347062,-3.31434,9,0.00331917,10,-0.000115028,-2.4796,0.436525,0.135158,-17.4663,0.0347062,
2,0,0,1,0,16925.2,0.033509,0.0331774,-3.2859,9,0.00319497,10,-0.000109017,-2.48335,0.376067,0.156887,-20.1326,0.03317735,
2,0,0,1,0,16925.3,0.0320125,0.0317061,-3.25056,9,0.00307189,10,-0.000103062,-2.48804,0.348997,0.169056,-21.5057,0.0317061,
2,0,0,1,0,16925.3,0.0305126,0.0302042,-3.21853,9,0.00294971,10,-9.7213e-05,-2.49234,0.378267,0.155975,-19.6614,0.0302042,
2,0,0,1,0,16925.3,0.0290126,0.0286639,-3.19547,9,0.00282867,10,-9.15945e-05,-2.49547,0.38097,0.154868,-19.319,0.0286639,
2,0,0,1,0,16925.4,0.0275162,0.0271645,-3.17226,9,0.00270896,10,-8.61728e-05,-2.49863,0.374538,0.157528,-19.4548,0.0271645,
2,0,0,1,0,16925.4,0.0260198,0.0257065,-3.14131,9,0.00259026,10,-8.07522e-05,-2.50289,0.339661,0.173703,-21.2211,0.0257065,
2,0,0,1,0,16925.4,0.0245198,0.0241957,-3.10424,9,0.00247238,10,-7.51091e-05,-2.50805,0.357377,0.165092,-20.0292,0.02419568,
2,0,0,1,0,16925.5,0.0230198,0.0226953,-3.08049,9,0.00235575,10,-6.99128e-05,-2.51138,0.366452,0.161003,-19.3767,0.0226953,
2,0,0,1,0,16925.5,0.0215243,0.0212047,-3.05455,9,0.00224031,10,-6.47707e-05,-2.51505,0.402847,0.146458,-17.4672,0.0212047,
2,0,0,1,0,16925.6,0.0200288,0.0197435,-3.02821,9,0.00212582,10,-5.97874e-05,-2.51881,0.400422,0.147344,-17.4283,0.0197435,
2,0,0,1,0,16925.6,0.0185253,0.0181747,-3.0046,9,0.00201166,10,-5.46077e-05,-2.52221,0.427822,0.137908,-16.1856,0.0181747,
2,0,0,1,0,16925.6,0.0170289,0.0166868,-2.97858,9,0.00189922,10,-4.97029e-05,-2.52599,0.439608,0.134211,-15.617,0.01668676,
2,0,0,1,0,16925.7,0.0155325,0.0151852,-2.95892,9,0.00178753,10,-4.49316e-05,-2.52887,0.549998,0.107273,-12.3587,0.0151852,
2,0,0,1,0,16925.7,0.0140325,0.0137094,-2.94054,9,0.00167621,10,-4.0313e-05,-2.53157,0.473467,0.124613,-14.2622,0.0137094,
2,0,0,1,0,16925.7,0.0125325,0.0121876,-2.91581,9,0.00156566,10,-3.55368e-05,-2.53524,0.471494,0.125134,-14.2431,0.0121876,
2,0,0,1,0,16925.8,0.0110361,0.0107419,-2.89448,9,0.00145634,10,-3.10923e-05,-2.53843,0.486635,0.121241,-13.7213,0.0107419,
2,0,0,1,0,16925.8,0.0095397,0.00921578,-2.87573,9,0.00134761,10,-2.65021e-05,-2.54125,0.821896,0.0717853,-8.08206,0.00921578,
2,0,0,1,0,16925.9,0.00803616,0.0077631,-2.86554,9,0.00123885,10,-2.22455e-05,-2.54279,0.869715,0.0678383,-7.60554,0.0077631,
2,0,0,1,0,16925.9,0.00654064,0.0061964,-2.85309,9,0.00113119,10,-1.76789e-05,-2.54468,0.721982,0.0817195,-9.09844,0.0061964,
2,0,0,1,0,16925.9,0.00504513,0.00476128,-2.8402,9,0.00102398,10,-1.3523e-05,-2.54665,1.0607,0.0556239,-6.1683,0.00476128,
2,0,0,1,0,16926,0.00354515,0.00322508,-2.83458,9,0.000916974,10,-9.14175e-06,-2.54751,-4.34323,-0.0135844,1.50692,0.00322508,
2,0,0,1,0,16926,0.00204518,0.00167424,-2.87135,9,0.000809889,10,-4.80733e-06,-2.54191,3.06632,0.0192413,-2.1231,0.00167424,
2,0,0,1,0,16926,0.000548773,0.000185433,-2.83468,9,0.000702709,10,-5.25642e-07,-2.5475, , , ,0.000185433,
2,0,0,1,0,16926.1,0.000177222,-0.000223779,-2.82307,9,0.000676203,10,6.31745e-07,-2.54928, , , ,-0.000223779,