File: Figure_codes/Fig_3-5/rawdata_trumpetplot_data/after 10th/20221101_1-115_003_TrumpetPlot_ParaChange_from10_every3_09_CV_C01_8.csv
mode,ox/red,error,control changes,counter inc.,time/s,control/V,Ewe/V,<I>/mA,cycle number,(Q-Qo)/C,I Range,P/W,log(|I|),Tafel slope mV/dec,alpha_eff,dI/d(E-IR),E-IR/V,
2,0,0,0,0,16943.6,2.44065e-05,-0.000363498,-5.34539,9,0.0000000E+000,10,1.94304e-06,-2.27202, , , ,-0.000363498,
2,0,0,1,0,16943.6,0.00179726,0.00144689,-2.29771,9,-6.32683e-05,10,-3.32454e-06,-2.6387, , , ,0.00144689,
2,0,0,1,0,16943.6,0.00379485,0.00350998,-0.332182,9,-8.73154e-05,10,-1.16595e-06,-3.47862,-0.00985433,-5.98721,794.59,0.00350998,
2,1,0,1,0,16943.6,0.00579244,0.00546851,0.897821,9,-8.04714e-05,10,4.90974e-06,-3.04681,0.0054853,10.756,525.564,0.00546851,
2,1,0,1,0,16943.6,0.00779002,0.00746023,1.74392,9,-5.33013e-05,10,1.30101e-05,-2.75847,0.0094881,6.21832,366.201,0.00746023,
2,1,0,1,0,16943.7,0.00978761,0.0094322,2.34933,9,-1.1972e-05,10,2.21593e-05,-2.62906,0.0194945,3.02649,263.317,0.0094322,
2,1,0,1,0,16943.7,0.0117852,0.0114611,2.79742,9,3.99548e-05,10,3.20615e-05,-2.55324,0.0317903,1.85591,197.406,0.0114611,
2,1,0,1,0,16943.7,0.0137828,0.0134362,3.13974,9,9.96254e-05,10,4.21862e-05,-2.50311,0.045738,1.28996,155.933,0.0134362,
2,1,0,1,0,16943.7,0.0157804,0.0154417,3.41812,9,0.000165523,10,5.27815e-05,-2.46621,0.0623437,0.946366,125.061,0.0154417,
2,1,0,1,0,16943.7,0.017778,0.0174765,3.64503,9,0.000236134,10,6.37024e-05,-2.4383,0.0810171,0.728241,102.886,0.0174765,
2,1,0,1,0,16943.8,0.0197755,0.0194433,3.82984,9,0.000311104,10,7.44648e-05,-2.41682,0.098455,0.599259,89.3388,0.0194433,
2,1,0,1,0,16943.8,0.0217731,0.021455,4.00046,9,0.000389643,10,8.58297e-05,-2.39789,0.114591,0.514875,80.142,0.021455,
2,1,0,1,0,16943.8,0.0237707,0.0234533,4.15121,9,0.000471349,10,9.73596e-05,-2.38183,0.133227,0.442854,71.5953,0.0234533,
2,1,0,1,0,16943.8,0.0257683,0.0254686,4.28782,9,0.000555505,10,0.000109205,-2.36776,0.147012,0.401327,67.111,0.0254686,
2,1,0,1,0,16943.8,0.0277659,0.0274771,4.42125,9,0.00064279,10,0.000121483,-2.35446,0.158972,0.371134,63.9409,0.0274771,
2,1,0,1,0,16943.9,0.0297635,0.0294704,4.5437,9,0.000732636,10,0.000133905,-2.34259,0.173658,0.339748,60.1878,0.0294704,
2,1,0,1,0,16943.9,0.0317611,0.0314342,4.65942,9,0.000824856,10,0.000146465,-2.33167,0.174609,0.337899,61.5229,0.0314342,
2,1,0,1,0,16943.9,0.0337586,0.0334609,4.7892,9,0.00091906,10,0.000160251,-2.31974,0.177265,0.332835,62.1157,0.0334609,
2,1,0,1,0,16943.9,0.0357562,0.0354153,4.9067,9,0.00101619,10,0.000173772,-2.30921,0.200302,0.294555,56.3167,0.0354153,
2,1,0,1,0,16943.9,0.0377538,0.0373896,5.01045,9,0.00111557,10,0.000187339,-2.30012,0.213164,0.276783,54.1756,0.03738955,
2,1,0,1,0,16944,0.0397514,0.0394555,5.12559,9,0.00121715,10,0.000202233,-2.29026,0.195395,0.301953,60.4785,0.0394555,
2,1,0,1,0,16944,0.041749,0.041446,5.25578,9,0.00132061,10,0.000217831,-2.27936,0.205796,0.286691,58.6406,0.041446,
2,1,0,1,0,16944,0.0437466,0.0434237,5.35828,9,0.00142693,10,0.000232676,-2.27097,0.232928,0.253298,53.0078,0.0434237,
2,1,0,1,0,16944,0.0457442,0.0454894,5.47011,9,0.00153537,10,0.000248832,-2.262,0.22573,0.261374,55.7876,0.0454894,
2,1,0,1,0,16944,0.0477418,0.047422,5.58134,9,0.001646,10,0.000264678,-2.25326,0.224436,0.262882,57.2707,0.047422,
2,1,0,1,0,16944.1,0.0497484,0.0494318,5.6959,9,0.00175884,10,0.000281559,-2.24444,0.246432,0.239417,53.1326,0.0494318,
2,1,0,1,0,16944.1,0.0517369,0.0514042,5.79292,9,0.00187332,10,0.000297781,-2.2371,0.252078,0.234055,52.9927,0.0514042,
2,1,0,1,0,16944.1,0.0537345,0.0534391,5.90825,9,0.00199047,10,0.000315732,-2.22854,0.255817,0.230633,53.0991,0.0534391,
2,1,0,1,0,16944.1,0.0557321,0.0554358,6.007,9,0.0021098,10,0.000333002,-2.22134,0.275694,0.214006,50.166,0.0554358,
2,1,0,1,0,16944.1,0.0577206,0.0573769,6.1058,9,0.00223045,10,0.000350332,-2.21426,0.276282,0.21355,50.9095,0.05737694,
2,1,0,1,0,16944.2,0.0597273,0.0594462,6.21116,9,0.0023539,10,0.00036923,-2.20683,0.280403,0.210411,50.9849,0.0594462,
2,1,0,1,0,16944.2,0.0617249,0.0614404,6.31297,9,0.00247938,10,0.000387871,-2.19977,0.303963,0.194103,47.7662,0.0614404,
2,1,0,1,0,16944.2,0.0637224,0.0634198,6.40097,9,0.00260673,10,0.000405948,-2.19375,0.310664,0.189916,47.4866,0.0634198,
2,1,0,1,0,16944.2,0.06572,0.0654149,6.50171,9,0.00273596,10,0.000425308,-2.18697,0.292192,0.201922,51.2454,0.0654149,
2,1,0,1,0,16944.2,0.0677176,0.0674193,6.60592,9,0.00286667,10,0.000445367,-2.18007,0.32612,0.180915,46.5643,0.0674193,
2,1,0,1,0,16944.3,0.0697152,0.0694413,6.68919,9,0.00299984,10,0.000464506,-2.17463,0.351281,0.167957,43.8691,0.0694413,
2,1,0,1,0,16944.3,0.0717128,0.0713903,6.78013,9,0.00313472,10,0.000484035,-2.16876,0.335294,0.175965,46.566,0.0713903,
2,1,0,1,0,16944.3,0.0737104,0.0733924,6.87318,9,0.00327143,10,0.000504439,-2.16284,0.35032,0.168417,45.1565,0.0733924,
2,1,0,1,0,16944.3,0.075708,0.0753975,6.96108,9,0.00340929,10,0.000524848,-2.15732,0.383629,0.153795,41.7551,0.0753975,
2,1,0,1,0,16944.3,0.0777056,0.0774104,7.04095,9,0.0035494,10,0.000545043,-2.15237,0.410854,0.143603,39.4507,0.0774104,
2,1,0,1,0,16944.4,0.0797031,0.0793755,7.11801,9,0.00369113,10,0.000564996,-2.14764,0.419588,0.140614,39.0663,0.0793755,
2,1,0,1,0,16944.4,0.0817007,0.0814131,7.19732,9,0.00383448,10,0.000585956,-2.14283,0.422343,0.139697,39.2346,0.0814131,
2,1,0,1,0,16944.4,0.0836983,0.0833887,7.27547,9,0.00397861,10,0.000606692,-2.13814,0.439214,0.134331,38.1256,0.0833887,
2,1,0,1,0,16944.4,0.0856959,0.0853643,7.34796,9,0.00412501,10,0.000627254,-2.13383,0.470014,0.125528,35.9921,0.0853643,
2,1,0,1,0,16944.4,0.0876935,0.0873684,7.41871,9,0.00427286,10,0.000648161,-2.12967,0.495156,0.119154,34.4934,0.0873684,
2,1,0,1,0,16944.5,0.0896911,0.0894137,7.48764,9,0.00442206,10,0.000669498,-2.12565,0.427813,0.137911,40.3593,0.0894137,
2,1,0,1,0,16944.5,0.0916887,0.0913433,7.57913,9,0.00457208,10,0.000692302,-2.12038,0.387791,0.152144,44.9786,0.0913433,
2,1,0,1,0,16944.5,0.0936863,0.0933175,7.66323,9,0.00472467,10,0.000715113,-2.11559,0.421661,0.139923,41.8465,0.0933175,
2,1,0,1,0,16944.5,0.0956838,0.0953733,7.74777,9,0.00487889,10,0.00073893,-2.11082,0.384699,0.153367,46.4295,0.09537328,
2,1,0,1,0,16944.5,0.0976814,0.097377,7.85171,9,0.00503503,10,0.000764576,-2.10504,0.321686,0.183408,56.2587,0.097377,
2,1,0,1,0,16944.6,0.099679,0.0993719,7.97273,9,0.00519254,10,0.000792265,-2.09839,0.326522,0.180692,56.1547,0.09937188,
2,1,0,1,0,16944.6,0.101677,0.101363,8.07553,9,0.00535326,10,0.000818558,-2.09283,0.311523,0.189392,59.8027,0.101363,
2,1,0,1,0,16944.6,0.103674,0.103342,8.21015,9,0.00551631,10,0.000848454,-2.08565,0.264477,0.223082,71.5516,0.103342,
2,1,0,1,0,16944.6,0.105672,0.105382,8.36311,9,0.00568215,10,0.00088132,-2.07763,0.239571,0.246274,80.4518,0.105382,
2,1,0,1,0,16944.6,0.107667,0.107355,8.53303,9,0.00585039,10,0.000916067,-2.0689,0.227981,0.258794,86.1736,0.107355,
2,1,0,1,0,16944.7,0.109667,0.10933,8.70337,9,0.00602289,10,0.000951543,-2.06031,0.234237,0.251882,85.5551,0.10933,
2,1,0,1,0,16944.7,0.111665,0.111362,8.87585,9,0.00619885,10,0.000988436,-2.05179,0.235029,0.251033,86.9573,0.111362,
2,1,0,1,0,16944.7,0.113662,0.113324,9.05068,9,0.00637831,10,0.00102566,-2.04332,0.236524,0.249446,88.0892,0.113324,
2,1,0,1,0,16944.7,0.11566,0.11531,9.22363,9,0.00656121,10,0.00106358,-2.0351,0.234236,0.251883,90.7596,0.11531,
2,1,0,1,0,16944.7,0.117657,0.117363,9.4172,9,0.00674695,10,0.00110523,-2.02608,0.241639,0.244166,89.6048,0.117363,
2,1,0,1,0,16944.8,0.119655,0.119348,9.58542,9,0.0069371,10,0.001144,-2.01839,0.275955,0.213803,79.8988,0.119348,
2,1,0,1,0,16944.8,0.121652,0.121348,9.73564,9,0.00713039,10,0.0011814,-2.01164,0.296329,0.199103,75.6356,0.121348,
2,1,0,1,0,16944.8,0.12365,0.123293,9.88382,9,0.00732675,10,0.00121861,-2.00508,0.303332,0.194506,75.0256,0.123293,
2,1,0,1,0,16944.8,0.125648,0.125311,10.0329,9,0.00752516,10,0.00125723,-1.99857,0.354061,0.166638,65.1342,0.125311,
2,1,0,1,0,16944.8,0.127645,0.127354,10.1483,9,0.00772715,10,0.00129242,-1.99361,0.403588,0.146189,57.9023,0.127354,
2,1,0,1,0,16944.9,0.129643,0.129331,10.2657,9,0.00793148,10,0.00132768,-1.98861,0.415977,0.141835,56.7942,0.129331,
2,1,0,1,0,16944.9,0.13164,0.13131,10.373,9,0.00813808,10,0.00136208,-1.9841,0.456053,0.129371,52.362,0.13131,
2,1,0,1,0,16944.9,0.133638,0.133362,10.4768,9,0.00834583,10,0.0013972,-1.97977,0.497164,0.118673,48.4924,0.133362,
2,1,0,1,0,16944.9,0.135636,0.135334,10.5681,9,0.00855643,10,0.00143023,-1.976,0.556093,0.106097,43.7431,0.135334,
2,1,0,1,0,16944.9,0.137633,0.137377,10.6524,9,0.00876881,10,0.00146339,-1.97255,0.620601,0.0950691,39.5003,0.1373768,
2,1,0,1,0,16945,0.139631,0.139299,10.7248,9,0.00898281,10,0.00149395,-1.96961,0.711998,0.0828654,34.67,0.139299,
2,1,0,1,0,16945,0.141628,0.141316,10.789,9,0.00919694,10,0.00152465,-1.96702,0.945879,0.0623758,26.2362,0.141316,
2,1,0,1,0,16945,0.143626,0.143331,10.8305,9,0.00941332,10,0.00155236,-1.96535,2.37602,0.0248315,10.4759,0.143331,
2,1,0,1,0,16945,0.145623,0.145322,10.8309,9,0.00963011,10,0.00157397,-1.96533,-2.12475,-0.027768,-11.7118,0.145322,
2,1,0,1,0,16945,0.147621,0.147306,10.784,9,0.00984642,10,0.00158855,-1.96722,-0.797723,-0.0739605,-31.083,0.1473064,
2,1,0,1,0,16945.1,0.149619,0.149325,10.7065,9,0.0100604,10,0.00159875,-1.97035,-0.402915,-0.146433,-60.9332,0.149325,
2,1,0,1,0,16945.1,0.151616,0.151285,10.5415,9,0.0102731,10,0.00159478,-1.9771,-0.237733,-0.248178,-101.734,0.151285,
2,1,0,1,0,16945.1,0.153614,0.153287,10.3034,9,0.0104817,10,0.00157938,-1.98702,-0.172782,-0.341472,-136.822,0.153287,
2,1,0,1,0,16945.1,0.155611,0.155266,9.99693,9,0.0106848,10,0.00155218,-2.00013,-0.139014,-0.424417,-165.104,0.155266,
2,1,0,1,0,16945.1,0.157609,0.157308,9.63964,9,0.0108804,10,0.00151639,-2.01594,-0.110831,-0.532342,-199.267,0.157308,
2,1,0,1,0,16945.2,0.159607,0.15928,9.19698,9,0.0110688,10,0.0014649,-2.03635,-0.0916118,-0.644022,-230.518,0.15928,
2,1,0,1,0,16945.2,0.161604,0.161303,8.71875,9,0.011248,10,0.00140636,-2.05955,-0.0827047,-0.713382,-242.313,0.161303,
2,1,0,1,0,16945.2,0.163602,0.163279,8.22791,9,0.0114176,10,0.00134345,-2.08471,-0.0782165,-0.754317,-242.127,0.163279,
2,1,0,1,0,16945.2,0.165606,0.165304,7.7499,9,0.0115774,10,0.00128109,-2.1107,-0.0766717,-0.769515,-232.855,0.165304,
2,1,0,1,0,16945.2,0.167597,0.167273,7.29791,9,0.0117271,10,0.00122075,-2.1368,-0.0785868,-0.750762,-214.324,0.167273,
2,1,0,1,0,16945.3,0.169595,0.169286,6.89641,9,0.0118691,10,0.00116747,-2.16138,-0.0826199,-0.714113,-192.429,0.169286,
2,1,0,1,0,16945.3,0.171592,0.171286,6.52571,9,0.0120033,10,0.00111776,-2.18537,-0.0886703,-0.665386,-170.035,0.171286,
2,1,0,1,0,16945.3,0.173581,0.173315,6.2113,9,0.01213,10,0.00107651,-2.20682,-0.100467,-0.587259,-142.92,0.173315,
2,1,0,1,0,16945.3,0.175587,0.175281,5.95478,9,0.0122517,10,0.00104376,-2.22513,-0.111776,-0.527839,-122.817,0.175281,
2,1,0,1,0,16945.3,0.177585,0.17732,5.71949,9,0.0123684,10,0.00101418,-2.24264,-0.119262,-0.494709,-110.661,0.1773199,
2,1,0,1,0,16945.4,0.179582,0.179262,5.51419,9,0.0124807,10,0.000988487,-2.25852,-0.138343,-0.426476,-92.1049,0.179262,
2,1,0,1,0,16945.4,0.18158,0.181307,5.35222,9,0.0125894,10,0.000970396,-2.27147,-0.157283,-0.375121,-78.437,0.181307,
2,1,0,1,0,16945.4,0.183578,0.183212,5.20439,9,0.0126947,10,0.000953508,-2.28363,-0.17207,-0.342883,-69.7446,0.183212,
2,1,0,1,0,16945.4,0.185575,0.185294,5.07419,9,0.0127975,10,0.000940215,-2.29463,-0.195969,-0.301068,-59.7197,0.185294,
2,1,0,1,0,16945.4,0.187573,0.187257,4.96281,9,0.0128979,10,0.000929323,-2.30427,-0.21613,-0.272984,-52.9399,0.187257,
2,1,0,1,0,16945.5,0.18957,0.189234,4.86559,9,0.0129963,10,0.000920735,-2.31286,-0.241236,-0.244573,-46.4792,0.189234,
2,1,0,1,0,16945.5,0.191568,0.191246,4.77741,9,0.0130923,10,0.000913662,-2.32081,-0.261352,-0.225749,-42.1241,0.191246,
2,1,0,1,0,16945.5,0.193566,0.193215,4.69788,9,0.0131871,10,0.000907703,-2.3281,-0.278165,-0.212104,-38.8969,0.193215,
2,1,0,1,0,16945.5,0.195563,0.195258,4.62138,9,0.0132805,10,0.000902359,-2.33523,-0.307285,-0.192004,-34.6789,0.195258,
2,1,0,1,0,16945.5,0.197561,0.197227,4.55876,9,0.0133725,10,0.000899111,-2.34115,-0.370384,-0.159294,-28.3735,0.197227,
2,1,0,1,0,16945.6,0.199558,0.199282,4.50718,9,0.0134628,10,0.000898202,-2.34609,-0.405298,-0.145572,-25.6067,0.199282,
2,1,0,1,0,16945.6,0.201556,0.201234,4.45615,9,0.0135525,10,0.00089673,-2.35104,-0.403022,-0.146394,-25.4584,0.201234,
2,1,0,1,0,16945.6,0.203553,0.203289,4.40519,9,0.0136412,10,0.000895525,-2.35604,-0.429604,-0.137336,-23.6296,0.203289,
2,1,0,1,0,16945.6,0.205551,0.205236,4.36158,9,0.0137289,10,0.000895155,-2.36036,-0.65118,-0.0906048,-15.4683,0.205236,
2,1,0,1,0,16945.6,0.207549,0.207248,4.34395,9,0.0138155,10,0.000900274,-2.36212,-0.575079,-0.102595,-17.3222,0.207248,
2,1,0,1,0,16945.7,0.209546,0.209302,4.29116,9,0.013902,10,0.000898147,-2.36743,-0.437799,-0.134765,-22.6083,0.209302,
2,1,0,1,0,16945.7,0.211544,0.211246,4.25355,9,0.0139875,10,0.000898547,-2.37125,-0.574547,-0.10269,-17.064,0.211246,
2,1,0,1,0,16945.7,0.213541,0.213195,4.22473,9,0.0140723,10,0.00090069,-2.3742,-0.82905,-0.0711658,-11.7488,0.2131945,
2,1,0,1,0,16945.7,0.215539,0.21522,4.20687,9,0.0141562,10,0.000905401,-2.37604,-0.666184,-0.0885641,-14.501,0.21522,
2,1,0,1,0,16945.7,0.217537,0.217226,4.16627,9,0.01424,10,0.000905023,-2.38025,-0.600928,-0.0981815,-15.9962,0.217226,
2,1,0,1,0,16945.8,0.219534,0.219233,4.14268,9,0.0143231,10,0.00090821,-2.38272,-0.848113,-0.0695662,-11.2497,0.219233,
2,1,0,1,0,16945.8,0.221532,0.221248,4.12103,9,0.0144059,10,0.000911768,-2.38499,-0.887344,-0.0664906,-10.6945,0.221248,
2,1,0,1,0,16945.8,0.223525,0.223217,4.10006,9,0.0144877,10,0.000915204,-2.38721,-0.924782,-0.0637988,-10.2101,0.2232171,
2,1,0,1,0,16945.8,0.225527,0.225231,4.08036,9,0.0145697,10,0.000919023,-2.3893,-0.901371,-0.0654558,-10.4203,0.225231,
2,1,0,1,0,16945.8,0.227525,0.227228,4.05827,9,0.0146512,10,0.000922152,-2.39166,-0.814613,-0.0724271,-11.4687,0.2272276,
2,1,0,1,0,16945.9,0.229522,0.229226,4.03455,9,0.0147323,10,0.000924821,-2.39421,-1.02615,-0.0574963,-9.06571,0.229226,
2,1,0,1,0,16945.9,0.23152,0.231219,4.02209,9,0.0148129,10,0.000929983,-2.39555,-1.53781,-0.0383663,-6.02301,0.231219,
2,1,0,1,0,16945.9,0.233517,0.233211,4.01054,9,0.014893,10,0.000935303,-2.3968,-1.19945,-0.0491891,-7.6917,0.233211,
2,1,0,1,0,16945.9,0.235515,0.235208,3.9914,9,0.0149732,10,0.000938812,-2.39887,-1.05797,-0.0557673,-8.69083,0.235208,
2,1,0,1,0,16945.9,0.237512,0.237202,3.97586,9,0.0150529,10,0.000943082,-2.40057,-1.65131,-0.0357292,-5.55026,0.237202,
2,1,0,1,0,16946,0.23951,0.239172,3.96941,9,0.0151324,10,0.00094937,-2.40127,-2.5003,-0.0235972,-3.65468,0.239172,
2,1,0,1,0,16946,0.241508,0.241224,3.96116,9,0.0152114,10,0.000955527,-2.40218,-1.0537,-0.055993,-8.63622,0.241224,
2,1,0,1,0,16946,0.243505,0.243177,3.93482,9,0.0152904,10,0.000956857,-2.40508,-1.23067,-0.0479415,-7.38376,0.243177,
2,1,0,1,0,16946,0.245503,0.245213,3.9317,9,0.0153692,10,0.000964105,-2.40542,-1.97604,-0.0298576,-4.57425,0.245213,
2,1,0,1,0,16946,0.2475,0.247223,3.91631,9,0.0154478,10,0.000968203,-2.40712,-1.39444,-0.0423107,-6.47085,0.2472233,
2,1,0,1,0,16946.1,0.249498,0.249215,3.90581,9,0.0155257,10,0.000973385,-2.40829,-2.00464,-0.0294317,-4.48815,0.2492148,
2,1,0,1,0,16946.1,0.251496,0.251188,3.89852,9,0.0156039,10,0.00097926,-2.4091,-1.83215,-0.0322027,-4.89646,0.251188,
2,1,0,1,0,16946.1,0.253493,0.253191,3.88634,9,0.0156818,10,0.000983986,-2.41046,-1.14949,-0.0513273,-7.7781,0.253191,
2,1,0,1,0,16946.1,0.255491,0.255186,3.86742,9,0.0157594,10,0.00098691,-2.41258,-2.27117,-0.0259778,-3.93206,0.255186,
2,1,0,1,0,16946.1,0.257488,0.257219,3.8705,9,0.0158365,10,0.000995568,-2.41223,-3.06224,-0.019267,-2.90363,0.2572194,
2,1,0,1,0,16946.2,0.259486,0.259208,3.85574,9,0.0159138,10,0.000999437,-2.41389,-1.09917,-0.0536768,-8.07458,0.259208,
2,1,0,1,0,16946.2,0.261484,0.261173,3.83858,9,0.0159909,10,0.00100253,-2.41583,-1.57575,-0.0374425,-5.6179,0.2611731,
2,1,0,1,0,16946.2,0.263481,0.263188,3.83338,9,0.0160677,10,0.0010089,-2.41642,-31.3478,-0.00188211,-0.281912,0.263188,
2,1,0,1,0,16946.2,0.265479,0.265217,3.83744,9,0.0161441,10,0.00101775,-2.41596,-1.84908,-0.0319077,-4.76169,0.265217,
2,1,0,1,0,16946.2,0.267476,0.267185,3.81434,9,0.0162207,10,0.00101914,-2.41858,-1.23028,-0.0479566,-7.15529,0.267185,
2,1,0,1,0,16946.3,0.269474,0.26922,3.80879,9,0.016297,10,0.0010254,-2.41921,-3.38338,-0.0174382,-2.59238,0.26922,
2,1,0,1,0,16946.3,0.271471,0.271159,3.80404,9,0.0163731,10,0.0010315,-2.41975,-7.00777,-0.00841923,-1.25067,0.271159,
2,1,0,1,0,16946.3,0.273469,0.273158,3.80387,9,0.0164487,10,0.00103906,-2.41977,-1.46985,-0.0401402,-5.9407,0.273158,
2,1,0,1,0,16946.3,0.275467,0.275132,3.78044,9,0.0165245,10,0.00104012,-2.42246,-0.979255,-0.0602499,-8.90235,0.275132,
2,1,0,1,0,16946.3,0.277464,0.277158,3.76826,9,0.0166001,10,0.0010444,-2.42386,-2.01084,-0.029341,-4.31905,0.277158,
2,1,0,1,0,16946.4,0.279462,0.279128,3.76318,9,0.0166755,10,0.00105041,-2.42444,-2.18816,-0.0269632,-3.95706,0.279128,
2,1,0,1,0,16946.4,0.281464,0.281116,3.7526,9,0.0167506,10,0.00105492,-2.42567,-1.72377,-0.0342274,-5.01319,0.281116,
2,1,0,1,0,16946.4,0.283457,0.283191,3.74281,9,0.0168253,10,0.00105993,-2.4268,-1.89469,-0.0311396,-4.54918,0.283191,
2,1,0,1,0,16946.4,0.285455,0.285194,3.73405,9,0.0169002,10,0.00106493,-2.42782,-1.23309,-0.0478471,-6.96319,0.285194,
2,1,0,1,0,16946.4,0.287452,0.287163,3.71516,9,0.0169748,10,0.00106686,-2.43002,-1.92255,-0.0306884,-4.46158,0.287163,
2,1,0,1,0,16946.5,0.28945,0.28915,3.7164,9,0.0170492,10,0.0010746,-2.42988,-5.92082,-0.00996483,-1.4437,0.28915,
2,1,0,1,0,16946.5,0.291447,0.291114,3.70945,9,0.0171231,10,0.00107987,-2.43069,-1.08448,-0.0544041,-7.85761,0.291114,
2,1,0,1,0,16946.5,0.293445,0.293115,3.68524,9,0.0171972,10,0.0010802,-2.43353,-1.38608,-0.0425661,-6.14168,0.293115,
2,1,0,1,0,16946.5,0.295442,0.295138,3.68474,9,0.017271,10,0.00108751,-2.43359,-3.75687,-0.0157046,-2.25587,0.295138,
2,1,0,1,0,16946.5,0.29744,0.297177,3.67608,9,0.0173447,10,0.00109245,-2.43462,-1.84078,-0.0320517,-4.59762,0.2971774,
2,1,0,1,0,16946.6,0.299438,0.299147,3.66631,9,0.0174178,10,0.00109677,-2.43577,-0.0253362,-2.32868,-301.842,0.299147,
2,1,0,1,0,16946.6,0.299737,0.29945,2.99008,9,0.0174473,10,0.00089538,-2.52432,0.00216723,27.2237,1785.99,0.2994501,
2,1,0,1,0,16946.6,0.29774,0.297423,0.587078,9,0.0174789,10,0.000174611,-3.2313,0.0046623,12.6547,848.128,0.297423,
2,0,0,1,0,16946.6,0.295742,0.295438,-0.412322,9,0.0174795,10,-0.000121816,-3.38476,-0.0205516,-2.87082,376.101,0.295438,
2,0,0,1,0,16946.6,0.293745,0.293417,-0.919668,9,0.0174657,10,-0.000269846,-3.03637,-0.00855032,-6.90033,199.661,0.293417,
2,0,0,1,0,16946.6,0.291747,0.291437,-1.21131,9,0.0174443,10,-0.00035302,-2.91675,-0.0212558,-2.77571,124.594,0.291437,
2,0,0,1,0,16946.7,0.289754,0.289431,-1.41628,9,0.0174182,10,-0.000409916,-2.84885,-0.0371285,-1.58908,85.324,0.289431,
2,0,0,1,0,16946.7,0.287752,0.287413,-1.5546,9,0.0173885,10,-0.000446813,-2.80838,-0.0593226,-0.994561,59.4631,0.287413,
2,0,0,1,0,16946.7,0.285754,0.285437,-1.65381,9,0.0173565,10,-0.000472057,-2.78152,-0.076743,-0.7688,49.54,0.285437,
2,0,0,1,0,16946.7,0.283757,0.283438,-1.75156,9,0.0173225,10,-0.000496458,-2.75658,-0.0933794,-0.631831,42.8883,0.283438,
2,0,0,1,0,16946.7,0.281759,0.281382,-1.82769,9,0.0172867,10,-0.000514279,-2.7381,-0.12006,-0.49142,34.9088,0.281382,
2,0,0,1,0,16946.8,0.279761,0.279454,-1.8906,9,0.0172496,10,-0.000528338,-2.7234,-0.12919,-0.45669,33.7519,0.279454,
2,0,0,1,0,16946.8,0.277764,0.277424,-1.96129,9,0.0172112,10,-0.00054411,-2.70746,-0.148555,-0.397159,30.2268,0.277424,
2,0,0,1,0,16946.8,0.275766,0.275475,-2.0109,9,0.0171715,10,-0.000553952,-2.69661,-0.17676,-0.333786,26.2205,0.275475,
2,0,0,1,0,16946.8,0.273769,0.273458,-2.06529,9,0.0171308,10,-0.000564768,-2.68502,-0.173423,-0.340208,27.4281,0.273458,
2,0,0,1,0,16946.8,0.271771,0.271436,-2.12169,9,0.0170891,10,-0.000575901,-2.67332,-0.187404,-0.314828,26.0078,0.271436,
2,0,0,1,0,16946.9,0.269774,0.269469,-2.16902,9,0.0170463,10,-0.000584484,-2.66374,-0.215968,-0.273188,23.1091,0.269469,
2,0,0,1,0,16946.9,0.267776,0.267443,-2.21395,9,0.0170025,10,-0.000592106,-2.65483,-0.247328,-0.238549,20.5768,0.267443,
2,0,0,1,0,16946.9,0.265778,0.26544,-2.25194,9,0.016958,10,-0.000597753,-2.64744,-0.235663,-0.250357,22.0601,0.26544,
2,0,0,1,0,16946.9,0.263781,0.263442,-2.30221,9,0.0169128,10,-0.000606499,-2.63786,-0.234332,-0.251779,22.568,0.263442,
2,0,0,1,0,16946.9,0.261783,0.261443,-2.34212,9,0.0168665,10,-0.000612332,-2.63039,-0.327919,-0.179922,16.3937,0.2614435,
2,0,0,1,0,16947,0.259786,0.259462,-2.36746,9,0.0168196,10,-0.000614266,-2.62572,-0.307712,-0.191737,17.7896,0.259462,
2,0,0,1,0,16947,0.257788,0.257461,-2.41296,9,0.0167719,10,-0.000621244,-2.61745,-0.280867,-0.210064,19.7331,0.257461,
2,0,0,1,0,16947,0.25579,0.25543,-2.44703,9,0.0167237,10,-0.000625044,-2.61136,-0.394454,-0.149574,14.2521,0.25543,
2,0,0,1,0,16947,0.253793,0.253439,-2.47028,9,0.0166746,10,-0.000626067,-2.60725,-0.389225,-0.151583,14.6489,0.253439,
2,0,0,1,0,16947,0.251795,0.251428,-2.50565,9,0.0166249,10,-0.00062999,-2.60108,-0.326813,-0.180531,17.6494,0.251428,
2,0,0,1,0,16947.1,0.249798,0.249483,-2.54011,9,0.0165746,10,-0.000633714,-2.59515,-0.336416,-0.175378,17.382,0.249483,
2,0,0,1,0,16947.1,0.2478,0.247507,-2.57381,9,0.0165238,10,-0.000637035,-2.58942,-0.398685,-0.147986,14.8416,0.247507,
2,0,0,1,0,16947.1,0.245802,0.245471,-2.59966,9,0.0164722,10,-0.00063814,-2.58508,-0.45916,-0.128496,13.0382,0.245471,
2,0,0,1,0,16947.1,0.243805,0.243482,-2.62628,9,0.01642,10,-0.000639453,-2.58066,-0.47992,-0.122937,12.5931,0.243482,
2,0,0,1,0,16947.1,0.241807,0.241474,-2.64999,9,0.0163672,10,-0.000639903,-2.57676,-0.373813,-0.157833,16.3788,0.241474,
2,0,0,1,0,16947.2,0.23981,0.239469,-2.69201,9,0.0163142,10,-0.000644654,-2.56992,-0.364667,-0.161792,16.9468,0.239469,
2,0,0,1,0,16947.2,0.237812,0.237455,-2.7181,9,0.0162602,10,-0.000645426,-2.56573,-0.534444,-0.110395,11.698,0.2374545,
2,0,0,1,0,16947.2,0.235815,0.235496,-2.73849,9,0.0162058,10,-0.000644903,-2.56249,-0.504982,-0.116836,12.5064,0.235496,
2,0,0,1,0,16947.2,0.233817,0.233493,-2.76764,9,0.0161509,10,-0.000646226,-2.55789,-0.419789,-0.140547,15.1862,0.233493,
2,0,0,1,0,16947.2,0.231815,0.231512,-2.79899,9,0.0160954,10,-0.000648,-2.553,-0.466439,-0.12649,13.798,0.231512,
2,0,0,1,0,16947.3,0.229822,0.229503,-2.8227,9,0.0160394,10,-0.000647819,-2.54933,-0.539456,-0.109369,12.0502,0.229503,
2,0,0,1,0,16947.3,0.227824,0.227491,-2.84745,9,0.0159829,10,-0.000647768,-2.54554,-0.533841,-0.11052,12.2809,0.227491,
2,0,0,1,0,16947.3,0.225827,0.225493,-2.87195,9,0.0159258,10,-0.000647604,-2.54182,-0.561008,-0.105168,11.783,0.2254926,
2,0,0,1,0,16947.3,0.223829,0.223507,-2.89439,9,0.0158682,10,-0.000646916,-2.53844,-0.502757,-0.117353,13.2737,0.223507,
2,0,0,1,0,16947.3,0.221831,0.22152,-2.92468,9,0.0158103,10,-0.000647876,-2.53392,-0.474992,-0.124213,14.1674,0.22152,
2,0,0,1,0,16947.4,0.219834,0.21952,-2.95088,9,0.0157516,10,-0.000647776,-2.53005,-0.485889,-0.121427,13.9922,0.21952,
2,0,0,1,0,16947.4,0.217836,0.217515,-2.98073,9,0.0156924,10,-0.000648352,-2.52568,-0.618195,-0.0954391,11.0729,0.217515,
2,0,0,1,0,16947.4,0.215839,0.215544,-2.9949,9,0.0156327,10,-0.000645533,-2.52362,-0.550435,-0.107188,12.5738,0.215544,
2,0,0,1,0,16947.4,0.213841,0.213521,-3.03095,9,0.0155728,10,-0.00064717,-2.51842,-0.461226,-0.12792,15.1016,0.213521,
2,0,0,1,0,16947.4,0.211843,0.21155,-3.05522,9,0.0155119,10,-0.000646331,-2.51496,-0.625676,-0.0942981,11.2372,0.2115497,
2,0,0,1,0,16947.5,0.209846,0.209507,-3.07605,9,0.0154507,10,-0.000644454,-2.51201,-0.567236,-0.104013,12.5044,0.209507,
2,0,0,1,0,16947.5,0.207848,0.207506,-3.10578,9,0.015389,10,-0.000644469,-2.50783,-0.378308,-0.155957,18.9516,0.207506,
2,0,0,1,0,16947.5,0.205851,0.205519,-3.15163,9,0.0153267,10,-0.00064772,-2.50146,-0.456797,-0.12916,15.8127,0.205519,
2,0,0,1,0,16947.5,0.203853,0.203546,-3.1684,9,0.0152637,10,-0.000644916,-2.49916,-0.754243,-0.0782242,9.6805,0.2035463,
2,0,0,1,0,16947.5,0.201856,0.201514,-3.1904,9,0.0152002,10,-0.00064291,-2.49615,-0.585005,-0.100854,12.5706,0.201514,
2,0,0,1,0,16947.6,0.199858,0.199505,-3.2192,9,0.0151362,10,-0.000642247,-2.49225,-0.438275,-0.134619,16.9394,0.199505,
2,0,0,1,0,16947.6,0.19786,0.197502,-3.25836,9,0.0150718,10,-0.000643533,-2.487,-0.499195,-0.11819,14.9845,0.197502,
2,0,0,1,0,16947.6,0.195863,0.195567,-3.27821,9,0.0150067,10,-0.00064111,-2.48436,-0.558151,-0.105706,13.5542,0.195567,
2,0,0,1,0,16947.6,0.193865,0.193477,-3.31292,9,0.0149408,10,-0.000640973,-2.47979,-0.491407,-0.120063,15.5057,0.1934769,
2,0,0,1,0,16947.6,0.191868,0.191564,-3.34027,9,0.0148744,10,-0.000639878,-2.47622,-0.431231,-0.136818,17.8757,0.191564,
2,0,0,1,0,16947.7,0.18987,0.189562,-3.38289,9,0.0148077,10,-0.000641269,-2.47071,-0.436331,-0.135218,17.8155,0.189562,
2,0,0,1,0,16947.7,0.187872,0.187542,-3.41193,9,0.0147399,10,-0.000639881,-2.467,-0.489362,-0.120565,16.0693,0.187542,
2,0,0,1,0,16947.7,0.185875,0.185532,-3.44765,9,0.0146714,10,-0.000639651,-2.46248,-0.530094,-0.111301,14.9505,0.185532,
2,0,0,1,0,16947.7,0.183877,0.183528,-3.47195,9,0.0146022,10,-0.0006372,-2.45943,-0.374119,-0.157704,21.4822,0.183528,
2,0,0,1,0,16947.7,0.18188,0.181538,-3.53345,9,0.0145327,10,-0.000641457,-2.4518,-0.337722,-0.1747,23.9966,0.181538,
2,0,0,1,0,16947.8,0.179882,0.179539,-3.56767,9,0.0144618,10,-0.000640536,-2.44762,-0.476105,-0.123922,17.2561,0.179539,
2,0,0,1,0,16947.8,0.177885,0.177518,-3.60283,9,0.0143901,10,-0.000639567,-2.44336,-0.380417,-0.155093,21.8572,0.177518,
2,0,0,1,0,16947.8,0.175887,0.17555,-3.65485,9,0.0143177,10,-0.00064161,-2.43713,-0.315994,-0.186713,26.6365,0.17555,
2,0,0,1,0,16947.8,0.173896,0.173549,-3.70855,9,0.0142445,10,-0.000643615,-2.4308,-0.318234,-0.185398,26.8324,0.173549,
2,0,0,1,0,16947.8,0.171892,0.171537,-3.76254,9,0.0141699,10,-0.000645414,-2.42452,-0.310143,-0.190235,27.9427,0.171537,
2,0,0,1,0,16947.9,0.169894,0.169583,-3.81938,9,0.0140942,10,-0.0006477,-2.41801,-0.291206,-0.202606,30.2204,0.169583,
2,0,0,1,0,16947.9,0.167897,0.167585,-3.88197,9,0.0140173,10,-0.00065056,-2.41095,-0.263719,-0.223723,33.9395,0.167585,
2,0,0,1,0,16947.9,0.165899,0.165566,-3.9557,9,0.013939,10,-0.000654929,-2.40278,-0.243932,-0.241871,37.3501,0.165566,
2,0,0,1,0,16947.9,0.163901,0.163552,-4.03259,9,0.0138596,10,-0.00065954,-2.39442,-0.233539,-0.252635,39.7813,0.163552,
2,0,0,1,0,16947.9,0.161904,0.161563,-4.11495,9,0.0137783,10,-0.000664823,-2.38564,-0.213525,-0.276314,44.4311,0.161563,
2,0,0,1,0,16948,0.159906,0.15958,-4.20909,9,0.0136951,10,-0.000671686,-2.37581,-0.196122,-0.300833,49.4558,0.1595799,
2,0,0,1,0,16948,0.157909,0.157592,-4.31136,9,0.0136101,10,-0.000679433,-2.36539,-0.180034,-0.327715,55.2278,0.157592,
2,0,0,1,0,16948,0.155911,0.155596,-4.42909,9,0.0135231,10,-0.00068915,-2.35369,-0.16288,-0.36223,62.7246,0.155596,
2,0,0,1,0,16948,0.153913,0.153547,-4.56507,9,0.0134332,10,-0.000700951,-2.34055,-0.154474,-0.381941,68.0431,0.153547,
2,0,0,1,0,16948,0.151916,0.151566,-4.7033,9,0.0133406,10,-0.000712863,-2.3276,-0.138446,-0.426159,78.484,0.151566,
2,0,0,1,0,16948.1,0.149918,0.149582,-4.87625,9,0.0132449,10,-0.000729398,-2.31191,-0.121407,-0.485968,92.656,0.149582,
2,0,0,1,0,16948.1,0.147921,0.147585,-5.07218,9,0.013146,10,-0.000748579,-2.29481,-0.116831,-0.505001,100.005,0.147585,
2,0,0,1,0,16948.1,0.145923,0.145571,-5.27734,9,0.0130426,10,-0.000768227,-2.27759,-0.108997,-0.541297,111.744,0.145571,
2,0,0,1,0,16948.1,0.143926,0.143639,-5.51318,9,0.0129349,10,-0.000791906,-2.2586,-0.0989908,-0.596015,128.606,0.143639,
2,0,0,1,0,16948.1,0.141928,0.141597,-5.7884,9,0.0128219,10,-0.000819621,-2.23744,-0.0950058,-0.621015,140.419,0.141597,
2,0,0,1,0,16948.2,0.13993,0.139576,-6.08371,9,0.0127039,10,-0.000849138,-2.21583,-0.0937768,-0.629154,149.375,0.139576,
2,0,0,1,0,16948.2,0.137933,0.137579,-6.38858,9,0.0125793,10,-0.000878936,-2.1946,-0.0901444,-0.654505,163.534,0.137579,
2,0,0,1,0,16948.2,0.135935,0.135613,-6.7317,9,0.0124482,10,-0.000912907,-2.17188,-0.0890768,-0.66235,173.915,0.135613,
2,0,0,1,0,16948.2,0.133938,0.133608,-7.0792,9,0.0123101,10,-0.000945839,-2.15002,-0.092051,-0.640949,177.065,0.133608,
2,0,0,1,0,16948.2,0.13194,0.131629,-7.43716,9,0.0121659,10,-0.000978946,-2.12859,-0.0939801,-0.627792,182.23,0.131629,
2,0,0,1,0,16948.3,0.129942,0.129608,-7.80819,9,0.0120135,10,-0.001012,-2.10745,-0.0990232,-0.59582,181.316,0.129608,
2,0,0,1,0,16948.3,0.127945,0.127591,-8.16935,9,0.0118538,10,-0.00104233,-2.08781,-0.105225,-0.560702,178.461,0.127591,
2,0,0,1,0,16948.3,0.125947,0.125659,-8.51286,9,0.011687,10,-0.00106972,-2.06992,-0.112381,-0.524999,174.33,0.125659,
2,0,0,1,0,16948.3,0.12395,0.123648,-8.85676,9,0.0115143,10,-0.00109512,-2.05273,-0.123486,-0.477785,164.822,0.123648,
2,0,0,1,0,16948.3,0.121952,0.121648,-9.17403,9,0.011334,10,-0.001116,-2.03744,-0.14164,-0.41655,148.784,0.121648,
2,0,0,1,0,16948.4,0.119955,0.119633,-9.4541,9,0.0111477,10,-0.00113102,-2.02438,-0.155329,-0.379839,140.1,0.119633,
2,0,0,1,0,16948.4,0.117957,0.117656,-9.73335,9,0.0109558,10,-0.00114518,-2.01174,-0.168228,-0.350715,133.009,0.117656,
2,0,0,1,0,16948.4,0.115955,0.115633,-9.98615,9,0.0107587,10,-0.00115473,-2.0006,-0.195524,-0.301753,117.362,0.115633,
2,0,0,1,0,16948.4,0.113962,0.113662,-10.202,9,0.0105578,10,-0.00115958,-1.99132,-0.227845,-0.258948,102.997,0.113662,
2,0,0,1,0,16948.4,0.111964,0.111614,-10.4001,9,0.0103519,10,-0.00116079,-1.98296,-0.25827,-0.228443,92.6025,0.111614,
2,0,0,1,0,16948.5,0.109967,0.109647,-10.5738,9,0.0101422,10,-0.00115939,-1.97577,-0.308334,-0.191351,78.8382,0.1096475,
2,0,0,1,0,16948.5,0.107969,0.107612,-10.7156,9,0.00992939,10,-0.00115312,-1.96998,-0.374017,-0.157747,65.8974,0.107612,
2,0,0,1,0,16948.5,0.105971,0.105681,-10.8352,9,0.00971499,10,-0.00114507,-1.96516,-0.478558,-0.123287,52.0483,0.105681,
2,0,0,1,0,16948.5,0.103974,0.103685,-10.92,9,0.00949743,10,-0.00113224,-1.96178,-0.659519,-0.0894592,38.0944,0.103685,
2,0,0,1,0,16948.5,0.101976,0.101679,-10.9876,9,0.00927837,10,-0.00111721,-1.9591,-1.12674,-0.0523633,22.407,0.101679,
2,0,0,1,0,16948.6,0.0999786,0.0996953,-11.0094,9,0.00905856,10,-0.00109758,-1.95824,-2.60323,-0.0226641,9.73606,0.0996953,
2,0,0,1,0,16948.6,0.0979811,0.097632,-11.027,9,0.00883933,10,-0.00107659,-1.95754,7.67475,0.00768755,-3.30106,0.097632,
2,0,0,1,0,16948.6,0.0959835,0.0956893,-10.9961,9,0.00861916,10,-0.00105221,-1.95876,1.06274,0.0555167,-23.7899,0.0956893,
2,0,0,1,0,16948.6,0.0939859,0.0936909,-10.9333,9,0.00839989,10,-0.00102435,-1.96125,0.746736,0.0790105,-33.6961,0.0936909,
2,0,0,1,0,16948.6,0.0919883,0.0916394,-10.8597,9,0.00818197,10,-0.000995175,-1.96418,0.609585,0.0967872,-40.9866,0.0916394,
2,0,0,1,0,16948.7,0.0899907,0.0896762,-10.7687,9,0.00796674,10,-0.000965696,-1.96784,0.448713,0.131487,-55.1623,0.0896762,
2,0,0,1,0,16948.7,0.0879931,0.0876646,-10.6404,9,0.00775268,10,-0.000932788,-1.97304,0.370974,0.159041,-66.005,0.0876646,
2,0,0,1,0,16948.7,0.0859955,0.0856175,-10.5008,9,0.00754139,10,-0.000899053,-1.97878,0.329896,0.178844,-73.2388,0.08561749,
2,0,0,1,0,16948.7,0.083998,0.0836597,-10.3471,9,0.00733299,10,-0.000865636,-1.98518,0.311341,0.189503,-76.5537,0.0836597,
2,0,0,1,0,16948.7,0.0820004,0.0817248,-10.2028,9,0.00712859,10,-0.000833823,-1.99128,0.313011,0.188492,-75.0208,0.0817248,
2,0,0,1,0,16948.8,0.0800028,0.0797107,-10.0508,9,0.00692618,10,-0.00080116,-1.9978,0.318569,0.185203,-72.6837,0.0797107,
2,0,0,1,0,16948.8,0.0780052,0.0777045,-9.91059,9,0.00672668,10,-0.000770097,-2.0039,0.33165,0.177898,-68.8122,0.0777045,
2,0,0,1,0,16948.8,0.0760076,0.0756733,-9.77302,9,0.00652997,10,-0.000739557,-2.00997,0.365212,0.16155,-61.6972,0.0756733,
2,0,0,1,0,16948.8,0.07401,0.0736749,-9.66198,9,0.00633686,10,-0.000711846,-2.01493,0.386196,0.152772,-57.5816,0.0736749,
2,0,0,1,0,16948.8,0.0720124,0.0716855,-9.5434,9,0.00614496,10,-0.000684123,-2.0203,0.410231,0.143822,-53.6253,0.0716855,
2,0,0,1,0,16948.9,0.0700148,0.0696601,-9.44668,9,0.00595519,10,-0.000658057,-2.02472,0.446872,0.132029,-48.6689,0.06966006,
2,0,0,1,0,16948.9,0.0680173,0.0676711,-9.34802,9,0.00576741,10,-0.000632591,-2.02928,0.537978,0.10967,-40.0912,0.0676711,
2,0,0,1,0,16948.9,0.0660106,0.0656934,-9.28766,9,0.00558134,10,-0.000610137,-2.03209,0.585842,0.10071,-36.4587,0.0656934,
2,0,0,1,0,16948.9,0.0640221,0.0637363,-9.20456,9,0.00539747,10,-0.000586665,-2.036,0.540952,0.109067,-39.1959,0.0637363,
2,0,0,1,0,16948.9,0.0620245,0.0616599,-9.12956,9,0.00521431,10,-0.000562928,-2.03955,0.585177,0.100824,-35.9331,0.0616599,
2,0,0,1,0,16949,0.0600269,0.0597088,-9.05985,9,0.00503257,10,-0.000540953,-2.04288,0.652478,0.0904245,-31.9919,0.0597088,
2,0,0,1,0,16949,0.0580361,0.0576619,-9.00166,9,0.00485304,10,-0.000519053,-2.04568,0.613932,0.0961018,-33.7249,0.0576619,
2,0,0,1,0,16949,0.0560317,0.0556947,-8.92447,9,0.00467375,10,-0.000497045,-2.04942,0.604937,0.0975308,-34.0071,0.0556947,
2,0,0,1,0,16949,0.0540342,0.0537143,-8.86741,9,0.00449589,10,-0.000476307,-2.0522,0.692599,0.0851864,-29.4742,0.0537143,
2,0,0,1,0,16949,0.0520366,0.0517089,-8.80699,9,0.00431922,10,-0.000455399,-2.05517,0.604197,0.0976503,-33.5367,0.0517089,
2,0,0,1,0,16949.1,0.050039,0.0497051,-8.73296,9,0.00414384,10,-0.000434073,-2.05884,0.634227,0.0930266,-31.7449,0.0497051,
2,0,0,1,0,16949.1,0.0480414,0.0477407,-8.68102,9,0.00397057,10,-0.000414438,-2.06143,0.6697,0.0880992,-29.8211,0.0477407,
2,0,0,1,0,16949.1,0.0460438,0.0457183,-8.61406,9,0.00379772,10,-0.00039382,-2.06479,0.594666,0.0992153,-33.3513,0.04571826,
2,0,0,1,0,16949.1,0.0440462,0.0436917,-8.54598,9,0.00362621,10,-0.000373388,-2.06824,0.555877,0.106139,-35.3871,0.0436917,
2,0,0,1,0,16949.1,0.0420486,0.0417103,-8.47223,9,0.00345623,10,-0.00035338,-2.072,0.589391,0.100103,-33.13,0.0417103,
2,0,0,1,0,16949.2,0.040051,0.0397346,-8.41488,9,0.00328829,10,-0.000334362,-2.07495,0.57718,0.102221,-33.5296,0.0397346,
2,0,0,1,0,16949.2,0.0380535,0.0376944,-8.33758,9,0.00312086,10,-0.000314281,-2.07896,0.475399,0.124106,-40.3626,0.0376944,
2,0,0,1,0,16949.2,0.0360559,0.0357094,-8.25241,9,0.00295505,10,-0.000294688,-2.08342,0.470882,0.125297,-40.3791,0.0357094,
2,0,0,1,0,16949.2,0.0340583,0.0337451,-8.17811,9,0.0027908,10,-0.000275971,-2.08735,0.511605,0.115323,-36.8113,0.0337451,
2,0,0,1,0,16949.2,0.0320607,0.0317331,-8.10604,9,0.00262883,10,-0.000257229,-2.09119,0.453325,0.130149,-41.1158,0.0317331,
2,0,0,1,0,16949.3,0.0300631,0.0297036,-8.01194,9,0.00246777,10,-0.000237983,-2.09626,0.392362,0.150371,-47.018,0.0297036,
2,0,0,1,0,16949.3,0.0280655,0.0277442,-7.91849,9,0.00230856,10,-0.000219693,-2.10136,0.397386,0.14847,-45.8921,0.0277442,
2,0,0,1,0,16949.3,0.0260679,0.0257193,-7.8291,9,0.00215111,10,-0.000201359,-2.10629,0.402168,0.146705,-44.8182,0.0257193,
2,0,0,1,0,16949.3,0.0240704,0.0237173,-7.73801,9,0.00199628,10,-0.000183525,-2.11137,0.37124,0.158927,-47.9686,0.0237173,
2,0,0,1,0,16949.3,0.0220728,0.0217652,-7.63942,9,0.0018426,10,-0.000166274,-2.11694,0.346199,0.170422,-50.796,0.0217652,
2,0,0,1,0,16949.4,0.0200752,0.0197693,-7.53747,9,0.00169085,10,-0.00014901,-2.12277,0.34968,0.168726,-49.6451,0.0197693,
2,0,0,1,0,16949.4,0.0180776,0.0177495,-7.44006,9,0.00154109,10,-0.000132057,-2.12842,0.386953,0.152473,-44.3211,0.0177495,
2,0,0,1,0,16949.4,0.01608,0.0157578,-7.35968,9,0.00139402,10,-0.000115972,-2.13314,0.405618,0.145457,-41.7605,0.0157578,
2,0,0,1,0,16949.4,0.0140824,0.0137599,-7.27345,9,0.00124783,10,-0.000100082,-2.13826,0.376384,0.156755,-44.4743,0.0137599,
2,0,0,1,0,16949.4,0.0120848,0.0117345,-7.18074,9,0.00110343,10,-8.42627e-05,-2.14383,0.371618,0.158765,-44.5132,0.0117345,
2,0,0,1,0,16949.5,0.0100872,0.00975983,-7.0954,9,0.000960849,10,-6.92499e-05,-2.14902,0.432181,0.136517,-37.8549,0.00975983,
2,0,0,1,0,16949.5,0.00809193,0.00775338,-7.03004,9,0.000820528,10,-5.45066e-05,-2.15304,0.468034,0.126059,-34.5665,0.00775338,
2,0,0,1,0,16949.5,0.00609208,0.00576613,-6.95735,9,0.000680794,10,-4.0117e-05,-2.15756,0.441953,0.133498,-36.2488,0.00576613,
2,0,0,1,0,16949.5,0.00409449,0.003765,-6.88546,9,0.000542507,10,-2.59238e-05,-2.16207,0.920134,0.0641211,-17.3229,0.003765,
2,0,0,1,0,16949.5,0.0020969,0.00173524,-6.88752,9,0.000405305,10,-1.19515e-05,-2.16194,0.88852,0.0664025,-17.7505,0.00173524,
2,0,0,1,0,16949.6,9.14991e-05,-0.000275436,-6.81374,9,0.000268466,10,1.87675e-06,-2.16661,0.488804,0.120703,-32.1431,-0.000275436,
2,0,0,1,0,16949.6,-0.00189827,-0.00223613,-6.75987,9,0.000133465,10,1.5116e-05,-2.17006,0.645013,0.091471,-24.1523,-0.00223613,
2,0,0,1,0,16949.6,-0.00389586,-0.00424694,-6.71782,9,-1.22612e-06,10,2.85302e-05,-2.17277,0.913262,0.0646036,-16.9562,-0.004246939,
2,0,0,1,0,16949.6,-0.00589345,-0.00631376,-6.69073,9,-0.000135235,10,4.22437e-05,-2.17453,1.11697,0.0528215,-13.7917,-0.00631376,
2,0,0,1,0,16949.6,-0.00789103,-0.00823453,-6.66283,9,-0.000268662,10,5.48653e-05,-2.17634,1.74983,0.0337176,-8.78148,-0.00823453,
2,0,0,1,0,16949.7,-0.00988862,-0.0102538,-6.65613,9,-0.000401154,10,6.82504e-05,-2.17678,3.21576,0.0183471,-4.76393,-0.0102538,
2,0,0,1,0,16949.7,-0.0118862,-0.0122588,-6.64366,9,-0.000534109,10,8.14433e-05,-2.17759,2.85461,0.0206683,-5.36033,-0.0122588,
2,0,0,1,0,16949.7,-0.0138838,-0.0142517,-6.6347,9,-0.000666895,10,9.45557e-05,-2.17818,10.1771,0.00579731,-1.50245,-0.0142517,
2,0,0,1,0,16949.7,-0.0158814,-0.0162563,-6.63765,9,-0.000799575,10,0.000107904,-2.17799,-2.07964,-0.0283703,7.36219,-0.0162563,
2,0,0,1,0,16949.7,-0.017879,-0.0182384,-6.66405,9,-0.000931903,10,0.000121541,-2.17626,-2.03851,-0.0289427,7.51444,-0.0182384,
2,0,0,1,0,16949.8,-0.0198766,-0.0202508,-6.66767,9,-0.00106512,10,0.000135026,-2.17603,-3.33407,-0.0176961,4.60867,-0.0202508,
2,0,0,1,0,16949.8,-0.0218741,-0.0222181,-6.68239,9,-0.00119849,10,0.00014847,-2.17507,-1.64822,-0.0357961,9.34088,-0.0222181,
2,0,0,1,0,16949.8,-0.0238717,-0.0242505,-6.70503,9,-0.00133229,10,0.0001626,-2.1736,-1.04681,-0.0563619,14.7647,-0.0242505,
2,0,0,1,0,16949.8,-0.0258693,-0.0262823,-6.7424,9,-0.00146606,10,0.000177206,-2.17119,-1.17319,-0.0502903,13.2113,-0.02628235,
2,0,0,1,0,16949.8,-0.0278669,-0.0282271,-6.75756,9,-0.00160099,10,0.000190746,-2.17021,-1.08728,-0.0542637,14.3381,-0.0282271,
2,0,0,1,0,16949.9,-0.0298645,-0.0301996,-6.79857,9,-0.00173647,10,0.000205314,-2.16758,-0.895927,-0.0658536,17.4566,-0.0301996,
2,0,0,1,0,16949.9,-0.0318621,-0.0322155,-6.82719,9,-0.00187267,10,0.000219941,-2.16576,-0.821796,-0.071794,19.1553,-0.0322155,
2,0,0,1,0,16949.9,-0.0338597,-0.0341746,-6.87471,9,-0.00200895,10,0.000234941,-2.16275,-0.717064,-0.08228,22.0659,-0.0341746,
2,0,0,1,0,16949.9,-0.0358573,-0.036258,-6.91639,9,-0.00214675,10,0.000250775,-2.16012,-0.744767,-0.0792194,21.3894,-0.036258,
2,0,0,1,0,16949.9,-0.0378548,-0.0382643,-6.96218,9,-0.00228551,10,0.000266403,-2.15725,-0.748283,-0.0788472,21.4146,-0.0382643,
2,0,0,1,0,16950,-0.0398524,-0.0402664,-7.00223,9,-0.00242512,10,0.000281954,-2.15476,-0.608153,-0.0970151,26.5596,-0.04026638,
2,0,0,1,0,16950,-0.04185,-0.0422407,-7.0678,9,-0.00256496,10,0.000298548,-2.15072,-0.5532,-0.106652,29.3855,-0.0422407,
2,0,0,1,0,16950,-0.0438476,-0.0442032,-7.11791,9,-0.00270671,10,0.000314634,-2.14765,-0.630051,-0.0936432,26.0188,-0.0442032,
2,0,0,1,0,16950,-0.0458452,-0.046223,-7.17141,9,-0.0028495,10,0.000331484,-2.1444,-0.6495,-0.0908391,25.4146,-0.04622297,
2,0,0,1,0,16950,-0.0478428,-0.0482185,-7.21996,9,-0.00299329,10,0.000348135,-2.14147,-0.499428,-0.118135,33.371,-0.0482185,
2,0,0,1,0,16950.1,-0.0498495,-0.0502339,-7.30526,9,-0.00313836,10,0.000366972,-2.13636,-0.486467,-0.121283,34.4982,-0.0502339,
2,0,0,1,0,16950.1,-0.051838,-0.0522005,-7.35733,9,-0.00328409,10,0.000384057,-2.13328,-0.634311,-0.0930142,26.711,-0.0522005,
2,0,0,1,0,16950.1,-0.0538355,-0.0542146,-7.41159,9,-0.00343167,10,0.000401817,-2.13009,-0.534096,-0.110467,31.9936,-0.0542146,
2,0,0,1,0,16950.1,-0.0558331,-0.0561964,-7.48518,9,-0.00358063,10,0.00042064,-2.1258,-0.457202,-0.129046,37.7006,-0.05619641,
2,0,0,1,0,16950.1,-0.0578216,-0.0581669,-7.56059,9,-0.00373023,10,0.000439776,-2.12144,-0.460045,-0.128248,37.842,-0.0581669,
2,0,0,1,0,16950.2,-0.0598283,-0.0601984,-7.63662,9,-0.0038821,10,0.000459712,-2.1171,-0.437664,-0.134807,40.2057,-0.0601984,
2,0,0,1,0,16950.2,-0.0618259,-0.0622355,-7.72417,9,-0.00403552,10,0.000480718,-2.11215,-0.445309,-0.132492,39.902,-0.0622355,
2,0,0,1,0,16950.2,-0.0638235,-0.064234,-7.79765,9,-0.00419057,10,0.000500874,-2.10804,-0.478758,-0.123236,37.5031,-0.064234,
2,0,0,1,0,16950.2,-0.0658211,-0.0661701,-7.87173,9,-0.00434722,10,0.000520873,-2.10393,-0.409724,-0.143999,44.3116,-0.0661701,
2,0,0,1,0,16950.2,-0.0678187,-0.0681845,-7.9727,9,-0.00450495,10,0.000543615,-2.09839,-0.381608,-0.154609,48.0805,-0.0681845,
2,0,0,1,0,16950.3,-0.0698162,-0.0702073,-8.06584,9,-0.00466529,10,0.000566281,-2.09335,-0.404187,-0.145972,45.9416,-0.0702073,
2,0,0,1,0,16950.3,-0.0718138,-0.072192,-8.15681,9,-0.00482744,10,0.000588857,-2.08848,-0.390081,-0.151251,48.1719,-0.072192,
2,0,0,1,0,16950.3,-0.0738114,-0.0741651,-8.2565,9,-0.00499153,10,0.000612343,-2.0832,-0.348833,-0.169136,54.559,-0.0741651,
2,0,0,1,0,16950.3,-0.075809,-0.0761931,-8.37511,9,-0.00515701,10,0.000638126,-2.07701,-0.364223,-0.161988,52.8615,-0.0761931,
2,0,0,1,0,16950.3,-0.0778066,-0.07816,-8.46767,9,-0.00532544,10,0.000661833,-2.07224,-0.379391,-0.155512,51.4532,-0.07816,
2,0,0,1,0,16950.4,-0.0798042,-0.080201,-8.58133,9,-0.0054959,10,0.000688231,-2.06645,-0.342859,-0.172083,57.6377,-0.080201,
2,0,0,1,0,16950.4,-0.0818018,-0.082157,-8.69805,9,-0.00566869,10,0.000714606,-2.06058,-0.331659,-0.177894,60.4065,-0.082157,
2,0,0,1,0,16950.4,-0.0837994,-0.0841751,-8.82139,9,-0.00584296,10,0.000742541,-2.05446,-0.349653,-0.168739,58.0503,-0.08417511,
2,0,0,1,0,16950.4,-0.085797,-0.0862067,-8.93314,9,-0.00602035,10,0.000770096,-2.049,-0.344108,-0.171458,59.8254,-0.0862067,
2,0,0,1,0,16950.4,-0.0877945,-0.0881768,-9.06079,9,-0.00620017,10,0.000798952,-2.04283,-0.33239,-0.177502,62.7313,-0.0881768,
2,0,0,1,0,16950.5,-0.0897921,-0.0901287,-9.17917,9,-0.00638247,10,0.000827307,-2.0372,-0.348604,-0.169247,60.6408,-0.0901287,
2,0,0,1,0,16950.5,-0.0917897,-0.0921527,-9.30189,9,-0.00656621,10,0.000857195,-2.03143,-0.361488,-0.163214,59.2195,-0.0921527,
2,0,0,1,0,16950.5,-0.0937873,-0.0941248,-9.41582,9,-0.00675334,10,0.000886262,-2.02614,-0.375703,-0.157039,57.7117,-0.0941248,
2,0,0,1,0,16950.5,-0.0957849,-0.0961433,-9.5322,9,-0.00694278,10,0.000916456,-2.02081,-0.387904,-0.152099,56.5681,-0.0961433,
2,0,0,1,0,16950.5,-0.0977825,-0.0981683,-9.64455,9,-0.00713448,10,0.000946788,-2.01572,-0.384634,-0.153392,57.7491,-0.0981683,
2,0,0,1,0,16950.6,-0.0997501,-0.100123,-9.76205,9,-0.00732452,10,0.000977409,-2.01046,0.00717004,8.22868,-2673.61,-0.100123,
2,0,0,1,1,16950.6,-0.0987313,-0.0991079,-7.13238,9,-0.00745364,10,0.000706875,-2.14677,-0.00932173,-6.3293,1700.18,-0.0991079,
2,0,0,1,1,16950.6,-0.0967337,-0.0971076,-4.63466,9,-0.00756924,10,0.00045006,-2.33398,-0.010159,-5.80764,1060.52,-0.0971076,
2,0,0,1,1,16950.6,-0.0947361,-0.0950844,-2.86537,9,-0.00764312,10,0.000272452,-2.54282,-0.0081744,-7.21766,784.393,-0.0950844,
2,0,0,1,1,16950.6,-0.0927386,-0.0931214,-1.50789,9,-0.00768609,10,0.000140417,-2.82163,-0.00485188,-12.1602,609.392,-0.0931214,
2,0,0,1,1,16950.7,-0.090741,-0.091088,-0.430048,9,-0.00770492,10,3.91722e-05,-3.36648,-0.00733323,-8.04556,480.734,-0.091088,
2,1,0,1,1,16950.7,-0.0887434,-0.089098,0.4263,9,-0.00770463,10,-3.79825e-05,-3.37028,0.00947532,6.2267,391.072,-0.089098,
2,1,0,1,1,16950.7,-0.0867458,-0.087066,1.14285,9,-0.00768864,10,-9.95036e-05,-2.94201,0.00648978,9.09121,331.225,-0.08706601,
2,1,0,1,1,16950.7,-0.0847482,-0.0851361,1.73857,9,-0.00765958,10,-0.000148015,-2.75981,0.0135342,4.35934,277.239,-0.0851361,
2,1,0,1,1,16950.7,-0.0827529,-0.0831157,2.23802,9,-0.00761996,10,-0.000186015,-2.65014,0.0216553,2.72451,230.942,-0.0831157,
2,1,0,1,1,16950.8,-0.080753,-0.0810942,2.67201,9,-0.00757067,10,-0.000216685,-2.57316,0.0300004,1.96664,200.985,-0.0810942,
2,1,0,1,1,16950.8,-0.0787555,-0.0791247,3.04015,9,-0.00751342,10,-0.000240551,-2.5171,0.0403374,1.46266,171.255,-0.0791247,
2,1,0,1,1,16950.8,-0.0767579,-0.0771119,3.35401,9,-0.00744937,10,-0.000258634,-2.47444,0.0517898,1.13922,147.923,-0.0771119,
2,1,0,1,1,16950.8,-0.0747603,-0.0751268,3.63154,9,-0.00737938,10,-0.000272826,-2.43991,0.0627397,0.940393,132.657,-0.0751268,
2,1,0,1,1,16950.8,-0.0727627,-0.0730841,3.88832,9,-0.00730433,10,-0.000284174,-2.41024,0.0783566,0.752968,113.284,-0.0730841,
2,1,0,1,1,16950.9,-0.0707651,-0.0711015,4.08754,9,-0.00722443,10,-0.00029063,-2.38854,0.0959466,0.614925,97.9052,-0.0711015,
2,1,0,1,1,16950.9,-0.0687675,-0.0691131,4.2771,9,-0.00714069,10,-0.000295604,-2.36885,0.110244,0.535177,89.0483,-0.0691131,
2,1,0,1,1,16950.9,-0.0667699,-0.067094,4.4444,9,-0.00705341,10,-0.000298193,-2.35219,0.131202,0.449688,77.7385,-0.067094,
2,1,0,1,1,16950.9,-0.0647723,-0.0651446,4.58561,9,-0.0069634,10,-0.000298728,-2.3386,0.15957,0.369743,66.0045,-0.0651446,
2,1,0,1,1,16950.9,-0.0627748,-0.0631248,4.70639,9,-0.00687041,10,-0.00029709,-2.32731,0.181023,0.325925,59.8438,-0.0631248,
2,1,0,1,1,16951,-0.0607772,-0.0611284,4.82595,9,-0.00677501,10,-0.000295003,-2.31642,0.200355,0.294477,55.3557,-0.0611284,
2,1,0,1,1,16951,-0.0587796,-0.0591091,4.92868,9,-0.00667746,10,-0.00029133,-2.30727,0.239408,0.246442,47.3139,-0.0591091,
2,1,0,1,1,16951,-0.056782,-0.0571537,5.01401,9,-0.00657851,10,-0.000286569,-2.29981,0.284455,0.207414,40.5499,-0.0571537,
2,1,0,1,1,16951,-0.0547844,-0.0551055,5.09103,9,-0.00647746,10,-0.000280544,-2.29319,0.331426,0.178019,35.3235,-0.0551055,
2,1,0,1,1,16951,-0.0527868,-0.0531532,5.15532,9,-0.00637502,10,-0.000274022,-2.28774,0.406194,0.145251,29.1877,-0.0531532,
2,1,0,1,1,16951.1,-0.0507892,-0.0511225,5.20728,9,-0.0062714,10,-0.000266209,-2.28339,0.412341,0.143086,29.1128,-0.0511225,
2,1,0,1,1,16951.1,-0.0487916,-0.0491451,5.27201,9,-0.00616712,10,-0.000259093,-2.27802,0.474956,0.124222,25.4901,-0.0491451,
2,1,0,1,1,16951.1,-0.046794,-0.0471405,5.30878,9,-0.00606126,10,-0.000250259,-2.275,0.669573,0.0881159,18.2555,-0.0471405,
2,1,0,1,1,16951.1,-0.0447965,-0.0451328,5.34526,9,-0.00595474,10,-0.000241246,-2.27203,0.766569,0.0769664,16.0423,-0.0451328,
2,1,0,1,1,16951.1,-0.0427989,-0.043146,5.37287,9,-0.00584755,10,-0.000231818,-2.26979,0.737652,0.0799835,16.7883,-0.043146,
2,1,0,1,1,16951.2,-0.0408013,-0.0411909,5.41143,9,-0.00574025,10,-0.000222902,-2.26669,1.02112,0.0577797,12.1706,-0.0411909,
2,1,0,1,1,16951.2,-0.0388037,-0.0391357,5.42167,9,-0.00563191,10,-0.000212181,-2.26587,1.77518,0.0332361,7.03745,-0.0391357,
2,1,0,1,1,16951.2,-0.0368061,-0.0371838,5.43963,9,-0.00552329,10,-0.000202266,-2.26443,1.65229,0.035708,7.57644,-0.03718378,
2,1,0,1,1,16951.2,-0.0348085,-0.0351618,5.45178,9,-0.00541433,10,-0.000191694,-2.26346,1.7715,0.0333051,7.08892,-0.0351618,
2,1,0,1,1,16951.2,-0.0328109,-0.0331616,5.46815,9,-0.00530563,10,-0.000181333,-2.26216,2.6226,0.0224967,4.79494,-0.0331616,
2,1,0,1,1,16951.3,-0.0308134,-0.0311683,5.47093,9,-0.00519622,10,-0.000170519,-2.26194,8.81549,0.00669277,1.42901,-0.0311683,
2,1,0,1,1,16951.3,-0.0288158,-0.0291862,5.47383,9,-0.00508674,10,-0.00015976,-2.26171,9.44136,0.0062491,1.33492,-0.02918623,
2,1,0,1,1,16951.3,-0.0268182,-0.0271456,5.4763,9,-0.00497721,10,-0.000148658,-2.26151,6.1851,0.00953906,2.03932,-0.0271456,
2,1,0,1,1,16951.3,-0.0248138,-0.025167,5.48202,9,-0.00486773,10,-0.000137966,-2.26106,14.9736,0.00394027,0.842383,-0.025167,
2,1,0,1,1,16951.3,-0.022823,-0.0231529,5.47966,9,-0.00475866,10,-0.00012687,-2.26125,-9.43749,-0.00625166,-1.33687,-0.0231529,
2,1,0,1,1,16951.4,-0.0208254,-0.021182,5.4767,9,-0.00464909,10,-0.000116007,-2.26148,-3.49416,-0.0168853,-3.60631,-0.02118196,
2,1,0,1,1,16951.4,-0.0188278,-0.0192077,5.46544,9,-0.00453969,10,-0.000104978,-2.26238,-3.29327,-0.0179153,-3.82385,-0.0192077,
2,1,0,1,1,16951.4,-0.0168393,-0.0171864,5.46142,9,-0.00443097,10,-9.3862e-05,-2.26269,30.2947,0.00194754,0.415471,-0.0171864,
2,1,0,1,1,16951.4,-0.0148327,-0.0151683,5.46711,9,-0.00432158,10,-8.29269e-05,-2.26224,-31.7495,-0.0018583,-0.396024,-0.0151683,
2,1,0,1,1,16951.4,-0.0128351,-0.0131893,5.45984,9,-0.00421238,10,-7.20115e-05,-2.26282,-3.34478,-0.0176394,-3.75845,-0.0131893,
2,1,0,1,1,16951.5,-0.0108375,-0.0111704,5.45209,9,-0.00410331,10,-6.0902e-05,-2.26344,-5.28892,-0.0111554,-2.37495,-0.0111704,
2,1,0,1,1,16951.5,-0.00883989,-0.00922696,5.45042,9,-0.00399427,10,-5.02908e-05,-2.26357,-4.48018,-0.0131691,-2.79922,-0.00922696,
2,1,0,1,1,16951.5,-0.0068423,-0.0071785,5.44091,9,-0.00388578,10,-3.90576e-05,-2.26433,-9.57463,-0.00616212,-1.31013,-0.0071785,
2,1,0,1,1,16951.5,-0.00484471,-0.00521209,5.44516,9,-0.00377691,10,-2.83807e-05,-2.26399,-167.552,-0.000352129,-0.0747696,-0.00521209,
2,1,0,1,1,16951.5,-0.00284713,-0.0032017,5.44062,9,-0.00366806,10,-1.74192e-05,-2.26435,-8.45292,-0.00697984,-1.48246,-0.0032017,
2,1,0,1,1,16951.6,-0.000849538,-0.00120625,5.43923,9,-0.00355919,10,-6.56104e-06,-2.26446, , , ,-0.00120625,
2,1,0,1,1,16951.6,-2.55332e-05,-0.000382585,5.4538,9,-0.00351515,10,-2.08654e-06,-2.2633, , , ,-0.000382585,