File: Figure_codes/Fig_3-5/rawdata_trumpetplot_data/after 10th/20221101_1-115_003_TrumpetPlot_ParaChange_from10_every3_13_CV_C01_30.csv
mode,ox/red,error,control changes,counter inc.,time/s,control/V,Ewe/V,<I>/mA,cycle number,(Q-Qo)/C,I Range,P/W,log(|I|),Tafel slope mV/dec,alpha_eff,dI/d(E-IR),E-IR/V,
2,1,0,1,0,60301.8,2.44065e-05,-0.000497109,14.2177,31,0.0000000E+000,10,-7.06774e-06,-1.84717, , , ,-0.000497109,
2,1,0,1,0,60301.8,0.00266289,0.00226843,15.3851,31,4.63834e-05,10,3.49e-05,-1.8129, , , ,0.00226843,
2,1,0,1,0,60301.8,0.00586735,0.00550055,16.3678,31,0.000110058,10,9.00318e-05,-1.78601, , , ,0.00550055,
2,1,0,1,0,60301.8,0.00906349,0.00867753,17.2355,31,0.000177371,10,0.000149562,-1.76357,0.148558,0.397151,263.845,0.00867753,
2,1,0,1,0,60301.8,0.0122624,0.0118566,18.0304,31,0.000247994,10,0.000213779,-1.744,0.169107,0.348892,243.348,0.0118566,
2,1,0,1,0,60301.8,0.0154641,0.0151078,18.7727,31,0.000321692,10,0.000283615,-1.72647,0.189372,0.311556,226.792,0.0151078,
2,1,0,1,0,60301.8,0.0186602,0.0182307,19.4657,31,0.000398256,10,0.000354873,-1.71073,0.207511,0.284322,215.017,0.0182307,
2,1,0,1,0,60301.8,0.0218675,0.0215031,20.1443,31,0.000477565,10,0.000433166,-1.69585,0.223272,0.264251,206.928,0.0215031,
2,1,0,1,0,60301.8,0.0250636,0.0246918,20.7902,31,0.000559516,10,0.000513346,-1.68214,0.240627,0.245192,198.184,0.0246918,
2,1,0,1,0,60301.8,0.0282597,0.0278783,21.4153,31,0.000643993,10,0.000597021,-1.66928,0.256869,0.229689,191.31,0.0278783,
2,1,0,1,0,60301.8,0.031467,0.0310595,22.0081,31,0.000730926,10,0.000683562,-1.65742,0.273414,0.21579,184.854,0.03105953,
2,1,0,1,0,60301.8,0.0346631,0.0342673,22.5862,31,0.00082017,10,0.000773967,-1.64616,0.289053,0.204115,179.591,0.0342673,
2,1,0,1,0,60301.8,0.0378704,0.0374697,23.1522,31,0.000911703,10,0.000867506,-1.63541,0.306063,0.192771,173.822,0.0374697,
2,1,0,1,0,60301.8,0.0410665,0.0406753,23.7135,31,0.00100548,10,0.000964553,-1.625,0.321057,0.183768,169.665,0.0406753,
2,1,0,1,0,60301.8,0.0442626,0.043883,24.2371,31,0.00110144,10,0.0010636,-1.61552,0.337752,0.174684,164.952,0.043883,
2,1,0,1,0,60301.8,0.0474671,0.0470865,24.7612,31,0.0011995,10,0.00116592,-1.60623,0.352828,0.167221,161.397,0.0470865,
2,1,0,1,0,60301.8,0.0506632,0.0503101,25.2703,31,0.00129963,10,0.00127135,-1.59739,0.36405,0.162066,159.673,0.0503101,
2,1,0,1,0,60301.8,0.0538621,0.0534617,25.7772,31,0.00140177,10,0.00137809,-1.58876,0.378104,0.156042,156.832,0.0534617,
2,1,0,1,0,60301.8,0.0570638,0.0566811,26.2806,31,0.00150596,10,0.00148961,-1.58036,0.389382,0.151522,155.222,0.0566811,
2,1,0,1,0,60301.8,0.06026,0.0599026,26.7711,31,0.00161212,10,0.00160366,-1.57233,0.404043,0.146024,152.411,0.0599026,
2,1,0,1,0,60301.8,0.0634672,0.0630838,27.253,31,0.00172024,10,0.00171922,-1.56459,0.417304,0.141384,150.259,0.0630838,
2,1,0,1,0,60301.9,0.0666633,0.0663064,27.7348,31,0.00183027,10,0.001839,-1.55697,0.424696,0.138923,150.307,0.0663064,
2,1,0,1,0,60301.9,0.0698595,0.0694929,28.2057,31,0.00194221,10,0.0019601,-1.54966,0.435047,0.135617,149.237,0.0694929,
2,1,0,1,0,60301.9,0.0730667,0.0727176,28.6973,31,0.00205608,10,0.0020868,-1.54216,0.443354,0.133077,148.945,0.0727176,
2,1,0,1,0,60301.9,0.0762629,0.0758744,29.1619,31,0.00217185,10,0.00221264,-1.53518,0.452905,0.13027,148.175,0.0758744,
2,1,0,1,0,60301.9,0.0794701,0.0791235,29.6439,31,0.0022895,10,0.00234553,-1.52806,0.465695,0.126692,146.477,0.0791235,
2,1,0,1,0,60301.9,0.0826662,0.0823111,30.1051,31,0.00240904,10,0.00247798,-1.52136,0.470482,0.125403,147.299,0.0823111,
2,1,0,1,0,60301.9,0.0858624,0.0855167,30.5721,31,0.00253044,10,0.00261443,-1.51467,0.477323,0.123606,147.482,0.0855167,
2,1,0,1,0,60301.9,0.0890668,0.0887096,31.0525,31,0.00265374,10,0.00275465,-1.5079,0.485268,0.121582,147.272,0.0887096,
2,1,0,1,0,60301.9,0.092263,0.0918526,31.5212,31,0.00277892,10,0.00289531,-1.5014,0.491197,0.120115,147.686,0.09185262,
2,1,0,1,0,60301.9,0.0954674,0.0951028,31.9889,31,0.002906,10,0.00304223,-1.495,0.503365,0.117211,146.267,0.0951028,
2,1,0,1,0,60301.9,0.0986636,0.0982766,32.4566,31,0.00303493,10,0.00318972,-1.4887,0.509381,0.115827,146.7,0.0982766,
2,1,0,1,0,60301.9,0.10186,0.101451,32.9162,31,0.00316573,10,0.00333939,-1.48259,0.514622,0.114647,147.292,0.101451,
2,1,0,1,0,60301.9,0.105067,0.104681,33.4032,31,0.00329843,10,0.00349669,-1.47621,0.521991,0.113029,147.287,0.104681,
2,1,0,1,0,60301.9,0.108263,0.107858,33.8677,31,0.00343304,10,0.00365292,-1.47021,0.529332,0.111461,147.258,0.1078584,
2,1,0,1,0,60301.9,0.111465,0.111067,34.3405,31,0.00356952,10,0.0038141,-1.46419,0.539584,0.109343,146.517,0.1110672,
2,1,0,1,0,60301.9,0.114666,0.114289,34.8066,31,0.00370787,10,0.003978,-1.45834,0.541595,0.108938,147.987,0.114289,
2,1,0,1,0,60301.9,0.117863,0.117511,35.283,31,0.00384809,10,0.00414615,-1.45243,0.545829,0.108093,148.845,0.117511,
2,1,0,1,0,60301.9,0.12107,0.120686,35.7661,31,0.00399023,10,0.00431647,-1.44653,0.547597,0.107744,150.352,0.120686,
2,1,0,1,0,60301.9,0.124266,0.123856,36.244,31,0.0041343,10,0.00448902,-1.44076,0.548259,0.107613,152.219,0.1238557,
2,1,0,1,0,60301.9,0.127462,0.127037,36.7233,31,0.00428028,10,0.00466521,-1.43506,0.553654,0.106565,152.769,0.127037,
2,1,0,1,0,60301.9,0.130667,0.130256,37.223,31,0.00442822,10,0.00484853,-1.42919,0.546848,0.107891,156.801,0.1302563,
2,1,0,1,0,60301.9,0.133863,0.13346,37.7175,31,0.00457816,10,0.00503377,-1.42346,0.545034,0.10825,159.428,0.13346,
2,1,0,1,0,60301.9,0.137067,0.136663,38.2522,31,0.00473015,10,0.00522767,-1.41734,0.544354,0.108385,161.801,0.136663,
2,1,0,1,0,60301.9,0.140263,0.139875,38.7701,31,0.00488427,10,0.00542297,-1.4115,0.542235,0.108809,164.604,0.139875,
2,1,0,1,0,60301.9,0.143459,0.143083,39.2984,31,0.00504046,10,0.00562293,-1.40563,0.550502,0.107175,164.353,0.143083,
2,1,0,1,0,60302,0.146667,0.146274,39.8267,31,0.00519879,10,0.0058256,-1.39983,0.556672,0.105987,164.657,0.146274,
2,1,0,1,0,60302,0.149863,0.149448,40.3533,31,0.0053592,10,0.0060307,-1.39412,0.570509,0.103417,162.74,0.149448,
2,1,0,1,0,60302,0.153064,0.152587,40.8632,31,0.00552171,10,0.00623521,-1.38867,0.570671,0.103387,164.906,0.1525874,
2,1,0,1,0,60302,0.156266,0.155769,41.3628,31,0.0056862,10,0.00644303,-1.38339,0.577665,0.102135,165.033,0.155769,
2,1,0,1,0,60302,0.159462,0.159039,41.9317,31,0.00585287,10,0.00666878,-1.37746,0.585902,0.100699,164.727,0.1590389,
2,1,0,1,0,60302,0.16267,0.162278,42.4709,31,0.00602171,10,0.00689211,-1.37191,0.591831,0.0996906,165.033,0.162278,
2,1,0,1,0,60302,0.165866,0.165471,42.9855,31,0.00619268,10,0.00711288,-1.36668,0.622363,0.0948,158.878,0.165471,
2,1,0,1,0,60302,0.169062,0.168668,43.4918,31,0.00636567,10,0.00733569,-1.36159,0.652325,0.0904457,153.348,0.168668,
2,1,0,1,0,60302,0.172266,0.17187,43.9703,31,0.00654066,10,0.00755717,-1.35684,0.686736,0.0859137,147.264,0.17187,
2,1,0,1,0,60302,0.175462,0.175061,44.431,31,0.00671751,10,0.00777811,-1.35231,0.725174,0.0813598,140.942,0.175061,
2,1,0,1,0,60302,0.178667,0.178265,44.8696,31,0.00689615,10,0.00799869,-1.34805,0.770099,0.0766135,134.012,0.178265,
2,1,0,1,0,60302,0.181863,0.181476,45.2969,31,0.00707654,10,0.0082203,-1.34393,0.822944,0.0716938,126.57,0.181476,
2,1,0,1,0,60302,0.185059,0.184634,45.6808,31,0.00725855,10,0.00843423,-1.34027,0.900884,0.0654912,116.578,0.184634,
2,1,0,1,0,60302,0.188266,0.187862,46.0512,31,0.00744207,10,0.00865127,-1.33676,0.998143,0.0591098,106.055,0.187862,
2,1,0,1,0,60302,0.191463,0.191056,46.3607,31,0.00762696,10,0.00885748,-1.33385,1.12453,0.0524665,94.7749,0.191056,
2,1,0,1,0,60302,0.194664,0.194302,46.6571,31,0.00781303,10,0.00906556,-1.33108,1.32065,0.0446749,81.1963,0.194302,
2,1,0,1,0,60302,0.197866,0.197456,46.8961,31,0.00800018,10,0.00925993,-1.32886,1.56196,0.0377732,68.9932,0.197456,
2,1,0,1,0,60302,0.201062,0.200695,47.0932,31,0.00818819,10,0.00945137,-1.32704,1.97088,0.0299358,54.9183,0.200695,
2,1,0,1,0,60302,0.204269,0.203873,47.245,31,0.00837689,10,0.00963198,-1.32564,2.71478,0.0217329,39.9927,0.203873,
2,1,0,1,0,60302,0.207465,0.207075,47.3586,31,0.00856611,10,0.0098068,-1.3246,4.14481,0.0142347,26.2551,0.207075,
2,1,0,1,0,60302,0.210662,0.21027,47.4085,31,0.00875567,10,0.00996861,-1.32414,9.12842,0.00646333,11.9366,0.21027,
2,1,0,1,0,60302,0.213866,0.21349,47.4291,31,0.00894537,10,0.0101256,-1.32395,-46.6114,-0.00126578,-2.33875,0.21349,
2,1,0,1,0,60302,0.217062,0.216726,47.3984,31,0.00913504,10,0.0102725,-1.32424,-6.32988,-0.00932087,-17.2054,0.216726,
2,1,0,1,0,60302,0.220267,0.219919,47.3286,31,0.00932448,10,0.0104085,-1.32488,-3.37002,-0.0175073,-32.2649,0.219919,
2,1,0,1,0,60302,0.223463,0.223098,47.1878,31,0.00951354,10,0.0105275,-1.32617,-2.35209,-0.0250841,-46.111,0.223098,
2,1,0,1,0,60302.1,0.226659,0.226291,47.0161,31,0.00970194,10,0.0106393,-1.32775,-1.78707,-0.033015,-60.4834,0.226291,
2,1,0,1,0,60302.1,0.229866,0.229538,46.8077,31,0.00988961,10,0.0107441,-1.32968,-1.48163,-0.0398211,-72.6086,0.229538,
2,1,0,1,0,60302.1,0.233062,0.232668,46.5575,31,0.0100763,10,0.0108324,-1.33201,-1.23833,-0.0476449,-86.3905,0.232668,
2,1,0,1,0,60302.1,0.236264,0.235918,46.257,31,0.0102619,10,0.0109129,-1.33482,-1.05536,-0.0559049,-100.718,0.2359184,
2,1,0,1,0,60302.1,0.239466,0.239096,45.9098,31,0.0104462,10,0.0109769,-1.33809,-0.946332,-0.062346,-111.527,0.239096,
2,1,0,1,0,60302.1,0.242662,0.242284,45.5239,31,0.0106291,10,0.0110297,-1.34176,-0.846322,-0.0697135,-123.685,0.242284,
2,1,0,1,0,60302.1,0.245869,0.245539,45.122,31,0.0108103,10,0.0110792,-1.34561,-0.776258,-0.0760057,-133.626,0.245539,
2,1,0,1,0,60302.1,0.249065,0.248722,44.6734,31,0.0109899,10,0.0111112,-1.34995,-0.716161,-0.0823837,-143.395,0.248722,
2,1,0,1,0,60302.1,0.252261,0.251907,44.198,31,0.0111676,10,0.0111338,-1.3546,-0.664173,-0.0888323,-153.019,0.2519072,
2,1,0,1,0,60302.1,0.255466,0.255093,43.6872,31,0.0113433,10,0.0111443,-1.35965,-0.62607,-0.0942387,-160.504,0.255093,
2,1,0,1,0,60302.1,0.258662,0.258309,43.168,31,0.011517,10,0.0111507,-1.36484,-0.599779,-0.0983695,-165.574,0.258309,
2,1,0,1,0,60302.1,0.261866,0.261489,42.6242,31,0.0116885,10,0.0111458,-1.37034,-0.575434,-0.102531,-170.412,0.261489,
2,1,0,1,0,60302.1,0.265063,0.264717,42.077,31,0.0118579,10,0.0111385,-1.37595,-0.556738,-0.105975,-173.896,0.264717,
2,1,0,1,0,60302.1,0.268259,0.267893,41.5059,31,0.012025,10,0.0111191,-1.38189,-0.542174,-0.108821,-176.172,0.267893,
2,1,0,1,0,60302.1,0.271466,0.2711,40.9438,31,0.0121898,10,0.0110998,-1.38781,-0.53101,-0.111109,-177.474,0.2711,
2,1,0,1,0,60302.1,0.274662,0.274338,40.3606,31,0.0123524,10,0.0110724,-1.39404,-0.522003,-0.113026,-178.004,0.274338,
2,1,0,1,0,60302.1,0.277869,0.277547,39.8001,31,0.0125127,10,0.0110464,-1.40012,-0.515505,-0.114451,-177.749,0.277547,
2,1,0,1,0,60302.1,0.281065,0.280715,39.2235,31,0.0126707,10,0.0110106,-1.40645,-0.511845,-0.115269,-176.447,0.280715,
2,1,0,1,0,60302.1,0.284262,0.283907,38.6672,31,0.0128264,10,0.0109779,-1.41266,-0.50659,-0.116465,-175.761,0.283907,
2,1,0,1,0,60302.1,0.287469,0.287113,38.1065,31,0.0129799,10,0.0109409,-1.419,-0.507813,-0.116184,-172.8,0.287113,
2,1,0,1,0,60302.1,0.290665,0.290294,37.5596,31,0.0131311,10,0.0109033,-1.42528,-0.514153,-0.114752,-168.289,0.290294,
2,1,0,1,0,60302.1,0.293861,0.293486,37.0167,31,0.0132802,10,0.0108639,-1.4316,-0.519303,-0.113614,-164.463,0.293486,
2,1,0,1,0,60302.1,0.297066,0.296731,36.5092,31,0.0134272,10,0.0108334,-1.4376,-0.524624,-0.112461,-161.464,0.296731,
2,1,0,1,0,60302.1,0.299638,0.299346,36.0946,31,0.0135434,10,0.0108048,-1.44256,-0.15107,-0.390548,-542.151,0.299346,
2,1,0,1,0,60302.1,0.300012,0.299785,36.0272,31,0.0135614,10,0.0108004,-1.44337,0.0138954,4.24602,5478.28,0.299785,
2,1,0,1,0,60302.1,0.298983,0.298753,34.1612,31,0.0136063,10,0.0102058,-1.46647,0.0522576,1.12902,1366.74,0.298753,
2,1,0,1,0,60302.1,0.295787,0.295512,29.8346,31,0.0137335,10,0.00881648,-1.52528,0.0575363,1.02544,1173.39,0.2955122,
2,1,0,1,0,60302.2,0.292579,0.292283,26.4421,31,0.0138455,10,0.0077286,-1.5777,0.0600714,0.982165,1033.87,0.292283,
2,1,0,1,0,60302.2,0.289383,0.289111,23.5023,31,0.013945,10,0.00679476,-1.62889,0.0614875,0.959545,887.36,0.289111,
2,1,0,1,0,60302.2,0.286187,0.285897,20.8704,31,0.0140334,10,0.0059668,-1.68047,0.0605955,0.97367,795.891,0.285897,
2,1,0,1,0,60302.2,0.282983,0.282697,18.463,31,0.0141118,10,0.00521944,-1.7337,0.0587388,1.00445,724.362,0.282697,
2,1,0,1,0,60302.2,0.279786,0.2795,16.2681,31,0.014181,10,0.00454694,-1.78866,0.0564056,1.046,663.115,0.2795,
2,1,0,1,0,60302.2,0.276582,0.276306,14.2273,31,0.0142418,10,0.00393108,-1.84688,0.0531699,1.10965,613.61,0.276306,
2,1,0,1,0,60302.2,0.273386,0.27306,12.3579,31,0.0142947,10,0.00337444,-1.90806,0.0494461,1.19322,570.684,0.27306,
2,1,0,1,0,60302.2,0.27019,0.269881,10.5989,31,0.0143404,10,0.00286045,-1.97474,0.045525,1.29599,528.94,0.2698811,
2,1,0,1,0,60302.2,0.266982,0.2667,8.96325,31,0.0143793,10,0.0023905,-2.04753,0.0405406,1.45533,499.272,0.2667,
2,1,0,1,0,60302.2,0.263786,0.263439,7.4214,31,0.0144119,10,0.00195509,-2.12951,0.035611,1.65679,465.83,0.263439,
2,1,0,1,0,60302.2,0.260585,0.260298,5.98616,31,0.0144386,10,0.00155819,-2.22285,0.0301583,1.95634,436.011,0.260298,
2,1,0,1,0,60302.2,0.257383,0.257059,4.62586,31,0.0144596,10,0.00118912,-2.33481,0.0237307,2.48623,412.969,0.257059,
2,1,0,1,0,60302.2,0.254187,0.253849,3.36005,31,0.0144754,10,0.000852946,-2.47365,0.0166746,3.53831,387.402,0.253849,
2,1,0,1,0,60302.2,0.25098,0.250678,2.15152,31,0.0144863,10,0.00053934,-2.66725,0.0067267,8.77102,366.646,0.250678,
2,1,0,1,0,60302.2,0.247783,0.247477,1.01914,31,0.0144925,10,0.000252213,-2.99177,0.0259073,2.27735,347.385,0.247477,
2,1,0,1,0,60302.2,0.244587,0.244283,-0.0583346,31,0.0144943,10,-1.42502e-05,-4.23407,0.546132,0.108033,326.452,0.244283,
2,0,0,1,0,60302.2,0.241383,0.24107,-1.07917,31,0.0144919,10,-0.000260154,-2.96691,-0.0277078,-2.12937,310.228,0.24107,
2,0,0,1,0,60302.2,0.238187,0.237844,-2.0382,31,0.0144856,10,-0.000484773,-2.69075,-0.00705214,-8.36625,294.489,0.237844,
2,0,0,1,0,60302.2,0.234982,0.234665,-2.95546,31,0.0144755,10,-0.000693543,-2.52937,-0.0201152,-2.93311,279.955,0.234665,
2,0,0,1,0,60302.2,0.231786,0.231465,-3.83315,31,0.0144618,10,-0.000887238,-2.41644,-0.0299307,-1.97122,266.918,0.231465,
2,0,0,1,0,60302.2,0.22859,0.228304,-4.65313,31,0.0144448,10,-0.00106233,-2.33225,-0.0399036,-1.47856,252.652,0.228304,
2,0,0,1,0,60302.2,0.225383,0.225055,-5.45196,31,0.0144244,10,-0.00122699,-2.26345,-0.049771,-1.18543,242.047,0.225055,
2,0,0,1,0,60302.2,0.222187,0.221831,-6.19802,31,0.014401,10,-0.00137491,-2.20775,-0.059892,-0.985106,231.287,0.221831,
2,0,0,1,0,60302.2,0.218979,0.218648,-6.9355,31,0.0143747,10,-0.00151643,-2.15892,-0.0705306,-0.836516,220.975,0.218648,
2,0,0,1,0,60302.2,0.215783,0.215467,-7.62199,31,0.0143455,10,-0.00164229,-2.11793,-0.0807176,-0.730943,213.386,0.215467,
2,0,0,1,0,60302.3,0.212587,0.212247,-8.28212,31,0.0143136,10,-0.00175785,-2.08186,-0.0926705,-0.636664,202.93,0.212247,
2,0,0,1,0,60302.3,0.20938,0.209036,-8.92826,31,0.0142791,10,-0.00186633,-2.04923,-0.104259,-0.565898,194.57,0.209036,
2,0,0,1,0,60302.3,0.206184,0.205829,-9.53669,31,0.0142422,10,-0.00196293,-2.0206,-0.115352,-0.511478,188.446,0.205829,
2,0,0,1,0,60302.3,0.202988,0.202652,-10.1154,31,0.0142028,10,-0.00204991,-1.99502,-0.127686,-0.462072,181.064,0.202652,
2,0,0,1,0,60302.3,0.199783,0.199404,-10.7023,31,0.0141611,10,-0.00213408,-1.97052,-0.139411,-0.423208,175.363,0.199404,
2,0,0,1,0,60302.3,0.196587,0.196259,-11.2417,31,0.0141171,10,-0.00220628,-1.94917,-0.15196,-0.38826,169.155,0.196259,
2,0,0,1,0,60302.3,0.193382,0.193055,-11.7769,31,0.014071,10,-0.00227359,-1.92897,-0.165857,-0.355728,162.559,0.193055,
2,0,0,1,0,60302.3,0.190186,0.189847,-12.2815,31,0.0140229,10,-0.00233161,-1.91075,-0.177733,-0.331958,158.401,0.1898469,
2,0,0,1,0,60302.3,0.18699,0.186638,-12.7775,31,0.0139727,10,-0.00238477,-1.89355,-0.191687,-0.307794,152.948,0.186638,
2,0,0,1,0,60302.3,0.183783,0.183469,-13.2677,31,0.0139205,10,-0.00243421,-1.8772,-0.20217,-0.291834,150.563,0.183469,
2,0,0,1,0,60302.3,0.180587,0.180227,-13.7389,31,0.0138665,10,-0.00247612,-1.86205,-0.215039,-0.274369,146.641,0.180227,
2,0,0,1,0,60302.3,0.17738,0.177076,-14.2043,31,0.0138105,10,-0.00251524,-1.84758,-0.227993,-0.25878,143.024,0.177076,
2,0,0,1,0,60302.3,0.174183,0.173835,-14.655,31,0.0137528,10,-0.00254755,-1.83401,-0.236061,-0.249936,142.701,0.173835,
2,0,0,1,0,60302.3,0.170987,0.170693,-15.095,31,0.0136932,10,-0.0025766,-1.82117,-0.249987,-0.236013,138.892,0.1706928,
2,0,0,1,0,60302.3,0.16778,0.167478,-15.5582,31,0.0136318,10,-0.00260565,-1.80804,-0.257241,-0.229357,138.994,0.167478,
2,0,0,1,0,60302.3,0.164584,0.164224,-15.9893,31,0.0135687,10,-0.00262584,-1.79617,-0.267678,-0.220414,137.303,0.164224,
2,0,0,1,0,60302.3,0.161382,0.161026,-16.4353,31,0.0135038,10,-0.00264652,-1.78422,-0.276962,-0.213026,136.492,0.161026,
2,0,0,1,0,60302.3,0.158183,0.157832,-16.8608,31,0.0134372,10,-0.00266117,-1.77312,-0.279561,-0.211045,138.886,0.157832,
2,0,0,1,0,60302.3,0.154987,0.154657,-17.3081,31,0.0133688,10,-0.00267682,-1.76175,-0.28522,-0.206858,139.788,0.154657,
2,0,0,1,0,60302.3,0.151783,0.151427,-17.7667,31,0.0132986,10,-0.00269036,-1.75039,-0.284509,-0.207375,143.776,0.151427,
2,0,0,1,0,60302.3,0.148587,0.148212,-18.2266,31,0.0132266,10,-0.0027014,-1.73929,-0.283801,-0.207892,147.966,0.148212,
2,0,0,1,0,60302.3,0.145385,0.145032,-18.7011,31,0.0131527,10,-0.00271226,-1.72813,-0.283625,-0.208021,151.97,0.145032,
2,0,0,1,0,60302.3,0.142183,0.141876,-19.1993,31,0.0130768,10,-0.00272392,-1.71672,-0.276527,-0.213361,160.137,0.141876,
2,0,0,1,0,60302.3,0.138987,0.138673,-19.705,31,0.0129989,10,-0.00273254,-1.70542,-0.27205,-0.216872,167.167,0.138673,
2,0,0,1,0,60302.3,0.13578,0.135435,-20.2726,31,0.012919,10,-0.00274563,-1.69309,-0.264966,-0.22267,176.474,0.135435,
2,0,0,1,0,60302.4,0.132584,0.132245,-20.8388,31,0.0128367,10,-0.00275581,-1.68113,-0.257204,-0.22939,186.947,0.132245,
2,0,0,1,0,60302.4,0.129388,0.129079,-21.4576,31,0.012752,10,-0.00276973,-1.66842,-0.250463,-0.235563,197.743,0.129079,
2,0,0,1,0,60302.4,0.12618,0.12583,-22.1059,31,0.0126648,10,-0.00278158,-1.65549,-0.241427,-0.24438,211.391,0.12583,
2,0,0,1,0,60302.4,0.122984,0.122677,-22.7956,31,0.012575,10,-0.00279648,-1.64215,-0.235351,-0.250689,223.667,0.122677,
2,0,0,1,0,60302.4,0.119783,0.119442,-23.545,31,0.0124822,10,-0.00281227,-1.6281,-0.229336,-0.257265,236.756,0.1194423,
2,0,0,1,0,60302.4,0.116584,0.116259,-24.3251,31,0.0123864,10,-0.00282801,-1.61395,-0.226499,-0.260487,247.505,0.116259,
2,0,0,1,0,60302.4,0.113387,0.1131,-25.1198,31,0.0122875,10,-0.00284105,-1.59998,-0.225208,-0.26198,257.141,0.1131,
2,0,0,1,0,60302.4,0.110183,0.109867,-25.9661,31,0.0121852,10,-0.00285281,-1.58559,-0.225,-0.262222,265.935,0.109867,
2,0,0,1,0,60302.4,0.106987,0.106681,-26.8264,31,0.0120795,10,-0.00286188,-1.57144,-0.227251,-0.259625,271.79,0.106681,
2,0,0,1,0,60302.4,0.103785,0.103488,-27.7212,31,0.0119704,10,-0.00286882,-1.55719,-0.231506,-0.254853,275.448,0.103488,
2,0,0,1,0,60302.4,0.100583,0.100282,-28.6037,31,0.0118576,10,-0.00286843,-1.54358,-0.236649,-0.249314,277.959,0.1002818,
2,0,0,1,0,60302.4,0.0973873,0.0970476,-29.4971,31,0.0117413,10,-0.00286262,-1.53022,-0.245998,-0.239839,275.683,0.09704756,
2,0,0,1,0,60302.4,0.0941801,0.0938897,-30.382,31,0.0116215,10,-0.00285255,-1.51738,-0.254859,-0.2315,273.981,0.0938897,
2,0,0,1,0,60302.4,0.0909839,0.0906703,-31.255,31,0.0114981,10,-0.00283389,-1.50508,-0.263344,-0.224042,272.888,0.0906703,
2,0,0,1,0,60302.4,0.0877878,0.0874668,-32.1147,31,0.0113713,10,-0.00280897,-1.4933,-0.277259,-0.212797,266.236,0.0874668,
2,0,0,1,0,60302.4,0.0845806,0.0842569,-32.9875,31,0.011241,10,-0.00277943,-1.48165,-0.291934,-0.2021,259.338,0.0842569,
2,0,0,1,0,60302.4,0.0813844,0.0810715,-33.7946,31,0.0111073,10,-0.00273978,-1.47115,-0.306032,-0.19279,253.563,0.0810715,
2,0,0,1,0,60302.4,0.0781828,0.0779221,-34.561,31,0.0109705,10,-0.00269307,-1.46141,-0.322042,-0.183206,246.945,0.0779221,
2,0,0,1,0,60302.4,0.0749838,0.0747557,-35.3378,31,0.0108306,10,-0.0026417,-1.45176,-0.339585,-0.173741,239.388,0.0747557,
2,0,0,1,0,60302.4,0.0717877,0.0715056,-36.1364,31,0.0106876,10,-0.00258395,-1.44206,-0.355002,-0.166196,233.741,0.0715056,
2,0,0,1,0,60302.4,0.0685832,0.0682681,-36.8596,31,0.0105415,10,-0.00251634,-1.43345,-0.3782,-0.156002,223.801,0.0682681,
2,0,0,1,0,60302.4,0.0653871,0.0651145,-37.5547,31,0.0103926,10,-0.00244536,-1.42534,-0.408323,-0.144493,211.32,0.0651145,
2,0,0,1,0,60302.4,0.0621854,0.0618845,-38.2184,31,0.0102409,10,-0.00236512,-1.41773,-0.436063,-0.135302,201.338,0.0618845,
2,0,0,1,0,60302.4,0.0589837,0.0586927,-38.844,31,0.0100867,10,-0.00227986,-1.41068,-0.470046,-0.12552,189.884,0.05869266,
2,0,0,1,0,60302.4,0.0557876,0.0555125,-39.4278,31,0.0099301,10,-0.00218874,-1.4042,-0.504943,-0.116845,179.46,0.0555125,
2,0,0,1,0,60302.5,0.0525804,0.052256,-39.9963,31,0.00977119,10,-0.00209005,-1.39798,-0.541723,-0.108912,169.656,0.052256,
2,0,0,1,0,60302.5,0.0493842,0.0490992,-40.5128,31,0.0096101,10,-0.00198915,-1.39241,-0.581497,-0.101462,160.153,0.0490992,
2,0,0,1,0,60302.5,0.0461881,0.0459593,-41.0043,31,0.00944701,10,-0.00188453,-1.38717,-0.622078,-0.0948434,151.601,0.0459593,
2,0,0,1,0,60302.5,0.0429808,0.0426975,-41.4802,31,0.00928197,10,-0.0017711,-1.38216,-0.662104,-0.0891099,144.083,0.0426975,
2,0,0,1,0,60302.5,0.0397847,0.0394781,-41.9335,31,0.00911511,10,-0.00165545,-1.37744,-0.706432,-0.0835182,136.495,0.0394781,
2,0,0,1,0,60302.5,0.036583,0.0362629,-42.3623,31,0.00894648,10,-0.00153618,-1.37302,-0.758387,-0.0777967,128.42,0.0362629,
2,0,0,1,0,60302.5,0.0333841,0.033087,-42.7613,31,0.00877618,10,-0.00141484,-1.36895,-0.81878,-0.0720585,120.077,0.033087,
2,0,0,1,0,60302.5,0.030188,0.0298963,-43.1241,31,0.00860438,10,-0.00128925,-1.36528,-0.886767,-0.0665338,111.843,0.0298963,
2,0,0,1,0,60302.5,0.0269835,0.0266588,-43.4728,31,0.00843113,10,-0.00115893,-1.36178,-0.96998,-0.060826,103.067,0.02665884,
2,0,0,1,0,60302.5,0.0237874,0.0234872,-43.7912,31,0.00825655,10,-0.00102853,-1.35861,-1.05591,-0.0558758,95.3687,0.0234872,
2,0,0,1,0,60302.5,0.0205857,0.0202869,-44.0806,31,0.00808077,10,-0.000894256,-1.35575,-1.14931,-0.0513351,88.2208,0.0202869,
2,0,0,1,0,60302.5,0.017384,0.0170473,-44.3495,31,0.00790384,10,-0.00075604,-1.35311,-1.27144,-0.046404,80.2351,0.0170473,
2,0,0,1,0,60302.5,0.0141879,0.0138703,-44.601,31,0.00772591,10,-0.000618631,-1.35066,-1.39173,-0.0423932,73.7112,0.0138703,
2,0,0,1,0,60302.5,0.0109806,0.0106488,-44.8213,31,0.00754704,10,-0.000477294,-1.34852,-1.54739,-0.0381286,66.6249,0.0106488,
2,0,0,1,0,60302.5,0.00778448,0.00743155,-45.0282,31,0.00736731,10,-0.000334629,-1.34652,-1.65823,-0.0355801,62.4893,0.00743155,
2,0,0,1,0,60302.5,0.00458834,0.00427684,-45.2003,31,0.00718683,10,-0.000193315,-1.34486,-1.89993,-0.0310538,54.745,0.00427684,
2,0,0,1,0,60302.5,0.0013811,0.000986399,-45.4061,31,0.00700561,10,-4.47885e-05,-1.34289,-2.16,-0.0273148,48.3305,0.000986399,
2,0,0,1,0,60302.5,-0.00181504,-0.00218528,-45.5239,31,0.00682375,10,9.94823e-05,-1.34176,-2.53726,-0.0232535,41.2602,-0.00218528,
2,0,0,1,0,60302.5,-0.0050195,-0.00540679,-45.6486,31,0.0066414,10,0.000246813,-1.34057,-3.32575,-0.0177404,31.5768,-0.00540679,
2,0,0,1,0,60302.5,-0.00821564,-0.00859226,-45.7313,31,0.00645862,10,0.000392935,-1.33979,-4.08005,-0.0144606,25.7844,-0.00859226,
2,0,0,1,0,60302.5,-0.0114118,-0.0118286,-45.8108,31,0.00627553,10,0.000541878,-1.33903,-5.70431,-0.010343,18.4741,-0.0118286,
2,0,0,1,0,60302.5,-0.0146162,-0.0149685,-45.8535,31,0.00609216,10,0.000686357,-1.33863,-8.15487,-0.00723494,12.9359,-0.0149685,
2,0,0,1,0,60302.5,-0.0178124,-0.0182027,-45.885,31,0.00590867,10,0.000835233,-1.33833,-16.6783,-0.00353754,6.33017,-0.0182027,
2,0,0,1,0,60302.5,-0.0210196,-0.0213977,-45.8969,31,0.00572509,10,0.00098209,-1.33822,-260.553,-0.000226441,0.405244,-0.0213977,
2,0,0,1,0,60302.5,-0.0242158,-0.0246002,-45.8916,31,0.00554151,10,0.00112894,-1.33827,19.5002,0.00302561,-5.41401,-0.0246002,
2,0,0,1,0,60302.6,-0.0274119,-0.0277856,-45.8587,31,0.00535801,10,0.00127421,-1.33858,9.2716,0.00636352,-11.3803,-0.0277856,
2,0,0,1,0,60302.6,-0.0306191,-0.0309955,-45.8158,31,0.00517465,10,0.00142008,-1.33898,6.75933,0.00872868,-15.5991,-0.0309955,
2,0,0,1,0,60302.6,-0.0338153,-0.0342117,-45.7511,31,0.0049915,10,0.00156522,-1.3396,5.34072,0.0110472,-19.7168,-0.0342117,
2,0,0,1,0,60302.6,-0.037017,-0.0374099,-45.6918,31,0.00480863,10,0.00170932,-1.34016,4.40165,0.0134041,-23.8872,-0.0374099,
2,0,0,1,0,60302.6,-0.0402187,-0.0406208,-45.6056,31,0.00462604,10,0.00185254,-1.34098,3.905,0.0151088,-26.8754,-0.0406208,
2,0,0,1,0,60302.6,-0.0434148,-0.0437702,-45.5106,31,0.00444382,10,0.00199201,-1.34189,3.42308,0.0172359,-30.6035,-0.0437702,
2,0,0,1,0,60302.6,-0.0466193,-0.0470309,-45.4066,31,0.00426199,10,0.00213552,-1.34288,3.16789,0.0186244,-32.9946,-0.0470309,
2,0,0,1,0,60302.6,-0.0498154,-0.0501867,-45.3008,31,0.00408059,10,0.0022735,-1.34389,3.09837,0.0190423,-33.6611,-0.0501867,
2,0,0,1,0,60302.6,-0.0530115,-0.0534411,-45.1826,31,0.00389963,10,0.00241461,-1.34503,2.90571,0.0203048,-35.8004,-0.0534411,
2,0,0,1,0,60302.6,-0.056216,-0.0565884,-45.0791,31,0.00371912,10,0.00255096,-1.34602,2.92229,0.0201896,-35.5149,-0.0565884,
2,0,0,1,0,60302.6,-0.0594121,-0.0597919,-44.9497,31,0.00353906,10,0.00268763,-1.34727,2.81331,0.0209717,-36.7883,-0.0597919,
2,0,0,1,0,60302.6,-0.0626194,-0.0629826,-44.8463,31,0.00335949,10,0.00282454,-1.34827,2.77665,0.0212486,-37.1848,-0.0629826,
2,0,0,1,0,60302.6,-0.0658155,-0.0661628,-44.7146,31,0.00318037,10,0.00295844,-1.34955,2.95287,0.0199805,-34.8765,-0.06616281,
2,0,0,1,0,60302.6,-0.0690117,-0.069396,-44.6029,31,0.00300175,10,0.00309526,-1.35064,2.93748,0.0200852,-34.9775,-0.069396,
2,0,0,1,0,60302.6,-0.0722189,-0.0725899,-44.5034,31,0.00282354,10,0.0032305,-1.35161,3.17072,0.0186077,-32.3205,-0.0725899,
2,0,0,1,0,60302.6,-0.075415,-0.0757924,-44.3983,31,0.00264575,10,0.00336505,-1.35263,3.28224,0.0179756,-31.1501,-0.0757924,
2,0,0,1,0,60302.6,-0.0786167,-0.0790372,-44.2985,31,0.00246837,10,0.00350123,-1.35361,3.39143,0.0173968,-30.0844,-0.0790372,
2,0,0,1,0,60302.6,-0.0818184,-0.0821994,-44.2041,31,0.00229138,10,0.00363355,-1.35454,3.80521,0.015505,-26.7621,-0.0821994,
2,0,0,1,0,60302.6,-0.0850146,-0.0853816,-44.1186,31,0.00211475,10,0.00376691,-1.35538,4.1274,0.0142947,-24.6253,-0.0853816,
2,0,0,1,0,60302.6,-0.088219,-0.0886074,-44.0553,31,0.00193843,10,0.00390363,-1.356,4.6184,0.012775,-21.9685,-0.0886074,
2,0,0,1,0,60302.6,-0.0914152,-0.0918194,-43.9837,31,0.00176237,10,0.00403856,-1.35671,5.24081,0.0112578,-19.3294,-0.0918194,
2,0,0,1,0,60302.6,-0.0946141,-0.0950122,-43.9226,31,0.00158656,10,0.00417318,-1.35731,5.94666,0.00992154,-17.0164,-0.0950122,
2,0,0,1,0,60302.6,-0.0978158,-0.0981871,-43.871,31,0.00141097,10,0.00430757,-1.35782,7.7613,0.00760182,-13.0241,-0.0981871,
2,0,0,1,0,60302.6,-0.101012,-0.101386,-43.8379,31,0.00123556,10,0.00444456,-1.35815,9.91981,0.0059477,-10.1802,-0.101386,
2,0,0,1,0,60302.6,-0.104219,-0.104614,-43.8171,31,0.00106026,10,0.00458389,-1.35836,14.476,0.00407572,-6.97114,-0.104614,
2,0,0,1,0,60302.7,-0.107415,-0.107795,-43.7925,31,0.000885049,10,0.00472063,-1.3586,32.2997,0.00182664,-3.12369,-0.107795,
2,0,0,1,0,60302.7,-0.110611,-0.111001,-43.7817,31,0.000709886,10,0.00485982,-1.35871,76.6273,0.000769961,-1.31641,-0.111001,
2,0,0,1,0,60302.7,-0.113819,-0.114215,-43.7978,31,0.000534733,10,0.00500237,-1.35855,-28.7867,-0.00204956,3.50466,-0.114215,
2,0,0,1,0,60302.7,-0.117015,-0.117419,-43.8002,31,0.000359549,10,0.00514296,-1.35852,-15.2926,-0.00385809,6.59851,-0.117419,
2,0,0,1,0,60302.7,-0.120216,-0.120609,-43.8374,31,0.000184281,10,0.0052872,-1.35816,-11.1685,-0.00528271,9.04155,-0.120609,
2,0,0,1,0,60302.7,-0.123418,-0.123773,-43.866,31,8.87951e-06,10,0.00542941,-1.35787,-8.06717,-0.00731359,12.5245,-0.1237726,
2,0,0,1,0,60302.7,-0.126614,-0.126947,-43.9129,31,-0.000166681,10,0.00557463,-1.35741,-6.61615,-0.00891757,15.2905,-0.126947,
2,0,0,1,0,60302.7,-0.129819,-0.130176,-43.96,31,-0.000342435,10,0.00572256,-1.35694,-5.3728,-0.0109812,18.8512,-0.1301764,
2,0,0,1,0,60302.7,-0.133015,-0.133384,-44.0327,31,-0.000518424,10,0.00587326,-1.35622,-4.54519,-0.0129808,22.3187,-0.133384,
2,0,0,1,0,60302.7,-0.136214,-0.136607,-44.1079,31,-0.000694707,10,0.00602544,-1.35548,-4.03618,-0.0146178,25.1704,-0.136607,
2,0,0,1,0,60302.7,-0.139416,-0.139786,-44.1994,31,-0.000871344,10,0.00617845,-1.35458,-3.68907,-0.0159932,27.5938,-0.1397858,
2,0,0,1,0,60302.7,-0.142612,-0.142977,-44.2822,31,-0.00104833,10,0.00633132,-1.35377,-3.4482,-0.0171104,29.5797,-0.142977,
2,0,0,1,0,60302.7,-0.145819,-0.146196,-44.3862,31,-0.00122568,10,0.00648909,-1.35275,-3.19673,-0.0184564,31.9839,-0.146196,
2,0,0,1,0,60302.7,-0.149015,-0.149381,-44.4858,31,-0.00140343,10,0.00664535,-1.35178,-2.96692,-0.019886,34.5383,-0.149381,
2,0,0,1,0,60302.7,-0.152211,-0.152592,-44.609,31,-0.00158164,10,0.006807,-1.35058,-2.87895,-0.0204936,35.6824,-0.152592,
2,0,0,1,0,60302.7,-0.155418,-0.155789,-44.7247,31,-0.00176034,10,0.00696764,-1.34945,-2.79566,-0.0211042,36.8335,-0.155789,
2,0,0,1,0,60302.7,-0.158615,-0.158997,-44.843,31,-0.00193949,10,0.00712991,-1.34831,-2.76332,-0.0213511,37.3702,-0.158997,
2,0,0,1,0,60302.7,-0.161816,-0.162172,-44.9569,31,-0.00211909,10,0.00729076,-1.3472,-2.73206,-0.0215954,37.8974,-0.162172,
2,0,0,1,0,60302.7,-0.165018,-0.165389,-45.0873,31,-0.0022992,10,0.00745695,-1.34595,-2.69787,-0.0218691,38.4815,-0.165389,
2,0,0,1,0,60302.7,-0.168214,-0.168548,-45.2083,31,-0.0024798,10,0.00761977,-1.34478,-2.7997,-0.0210737,37.1699,-0.168548,
2,0,0,1,0,60302.7,-0.171419,-0.171735,-45.3332,31,-0.00266089,10,0.00778528,-1.34358,-2.87254,-0.0205393,36.3272,-0.171735,
2,0,0,1,0,60302.7,-0.174615,-0.174984,-45.4331,31,-0.00284245,10,0.00795007,-1.34263,-2.97108,-0.0198581,35.2112,-0.174984,
2,0,0,1,0,60302.7,-0.177814,-0.178182,-45.552,31,-0.00302443,10,0.00811655,-1.34149,-3.04228,-0.0193933,34.4778,-0.178182,
2,0,0,1,0,60302.7,-0.181015,-0.181379,-45.6601,31,-0.00320688,10,0.00828178,-1.34046,-3.05269,-0.0193272,34.4348,-0.1813792,
2,0,0,1,0,60302.7,-0.184211,-0.184551,-45.775,31,-0.00338976,10,0.00844782,-1.33937,-3.21276,-0.0183643,32.7971,-0.184551,
2,0,0,1,0,60302.8,-0.187419,-0.187749,-45.8727,31,-0.00357308,10,0.00861256,-1.33845,-3.55497,-0.0165965,29.6974,-0.187749,
2,0,0,1,0,60302.8,-0.190615,-0.19096,-45.9711,31,-0.00375678,10,0.00877864,-1.33752,-3.67362,-0.0160604,28.807,-0.19096,
2,0,0,1,0,60302.8,-0.193811,-0.194178,-46.0402,31,-0.00394083,10,0.00894,-1.33686,-4.11737,-0.0143295,25.7422,-0.194178,
2,0,0,1,0,60302.8,-0.197018,-0.197393,-46.145,31,-0.00412523,10,0.00910872,-1.33588,-7.29531,-0.00808738,14.5318,-0.197393,
2,0,0,1,0,60302.8,-0.199647,-0.20006,-46.1896,31,-0.00427761,10,0.00924069,-1.33546,0.258784,0.227989,-400.194,-0.20006,
2,0,0,1,0,60302.8,-0.200134,-0.200647,-46.1118,31,-0.00430532,10,0.00925219,-1.33619,-0.0173465,-3.40127,5662.25,-0.200647,
2,0,0,1,1,60302.8,-0.198935,-0.19945,-43.9306,31,-0.00437218,10,0.00876194,-1.35723,-0.0641314,-0.919987,1464.06,-0.1994496,
2,0,0,1,1,60302.8,-0.195739,-0.196193,-39.3483,31,-0.00453784,10,0.00771986,-1.40507,-0.0735581,-0.802087,1223.21,-0.1961931,
2,0,0,1,1,60302.8,-0.192535,-0.192966,-35.8042,31,-0.00468759,10,0.006909,-1.44607,-0.0788082,-0.748653,1069.25,-0.192966,
2,0,0,1,1,60302.8,-0.189339,-0.189761,-32.7959,31,-0.00482438,10,0.00622337,-1.48418,-0.0843673,-0.699323,905.954,-0.189761,
2,0,0,1,1,60302.8,-0.186137,-0.18654,-30.1273,31,-0.00494988,10,0.00561995,-1.52104,-0.087011,-0.678075,803.521,-0.18654,
2,0,0,1,1,60302.8,-0.182935,-0.183356,-27.7183,31,-0.00506526,10,0.00508231,-1.55723,-0.0875534,-0.673875,732.358,-0.183356,
2,0,0,1,1,60302.8,-0.179739,-0.180148,-25.5045,31,-0.00517143,10,0.00459459,-1.59338,-0.0872852,-0.675945,674.503,-0.180148,
2,0,0,1,1,60302.8,-0.176532,-0.176963,-23.4231,31,-0.00526904,10,0.00414502,-1.63035,-0.0861921,-0.684517,626.995,-0.176963,
2,0,0,1,1,60302.8,-0.173336,-0.173742,-21.4949,31,-0.00535864,10,0.00373458,-1.66766,-0.0838628,-0.70353,590.422,-0.173742,
2,0,0,1,1,60302.8,-0.17014,-0.170536,-19.68,31,-0.00544078,10,0.00335614,-1.70598,-0.0812391,-0.726251,556.919,-0.1705355,
2,0,0,1,1,60302.8,-0.166932,-0.167345,-17.9451,31,-0.00551582,10,0.00300302,-1.74605,-0.0778092,-0.758265,529.525,-0.167345,
2,0,0,1,1,60302.8,-0.163736,-0.164179,-16.3039,31,-0.00558414,10,0.00267677,-1.78771,-0.0736102,-0.801519,507.782,-0.164179,
2,0,0,1,1,60302.8,-0.160532,-0.160946,-14.7192,31,-0.00564602,10,0.002369,-1.83212,-0.0697929,-0.845358,483.027,-0.160946,
2,0,0,1,1,60302.8,-0.157336,-0.157802,-13.2142,31,-0.00570173,10,0.00208523,-1.87896,-0.065342,-0.902942,462.108,-0.1578021,
2,0,0,1,1,60302.8,-0.154139,-0.154559,-11.7695,31,-0.00575153,10,0.00181908,-1.92924,-0.0600091,-0.983185,446.543,-0.154559,
2,0,0,1,1,60302.8,-0.150935,-0.151337,-10.3693,31,-0.00579564,10,0.00156925,-1.98425,-0.0548043,-1.07656,428.819,-0.151337,
2,0,0,1,1,60302.8,-0.147739,-0.148182,-9.01946,31,-0.00583426,10,0.00133652,-2.04482,-0.0486504,-1.21273,418.127,-0.148182,
2,0,0,1,1,60302.8,-0.144532,-0.144929,-7.69386,31,-0.00586756,10,0.00111506,-2.11386,-0.0426024,-1.3849,404.858,-0.144929,
2,0,0,1,1,60302.8,-0.141335,-0.141797,-6.43335,31,-0.00589568,10,0.000912233,-2.19156,-0.0363505,-1.62309,391.098,-0.141797,
2,0,0,1,1,60302.8,-0.138139,-0.138573,-5.20161,31,-0.00591881,10,0.000720801,-2.28386,-0.0294985,-2.0001,380.172,-0.138573,
2,0,0,1,1,60302.8,-0.134932,-0.135351,-4.00131,31,-0.00593708,10,0.000541582,-2.3978,-0.0221876,-2.65914,369.409,-0.135351,
2,0,0,1,1,60302.9,-0.131736,-0.132161,-2.84009,31,-0.00595065,10,0.000375351,-2.54667,-0.0134976,-4.37116,359.845,-0.132161,
2,0,0,1,1,60302.9,-0.12854,-0.128994,-1.70368,31,-0.00595961,10,0.000219764,-2.76861,-0.0139208,-4.23827,352.193,-0.128994,
2,0,0,1,1,60302.9,-0.125333,-0.125735,-0.582178,31,-0.00596406,10,7.32003e-05,-3.23494,-0.0486594,-1.21251,343.128,-0.125735,
2,1,0,1,1,60302.9,-0.122136,-0.122609,0.486285,31,-0.00596413,10,-5.96231e-05,-3.31311,0.0712667,0.827877,333.85,-0.122609,
2,1,0,1,1,60302.9,-0.118932,-0.119367,1.55019,31,-0.00595995,10,-0.000185041,-2.80962,0.0160938,3.66601,328.472,-0.1193666,
2,1,0,1,1,60302.9,-0.115736,-0.116167,2.57851,31,-0.00595158,10,-0.000299539,-2.58863,0.0131334,4.49238,320.84,-0.116167,
2,1,0,1,1,60302.9,-0.11254,-0.112998,3.60178,31,-0.00593912,10,-0.000406993,-2.44348,0.0229787,2.56759,314.815,-0.112998,
2,1,0,1,1,60302.9,-0.109335,-0.109796,4.59717,31,-0.0059226,10,-0.000504753,-2.33751,0.0317441,1.85861,308.228,-0.109796,
2,1,0,1,1,60302.9,-0.106139,-0.106609,5.56652,31,-0.00590217,10,-0.00059344,-2.25442,0.040338,1.46264,302.498,-0.106609,
2,1,0,1,1,60302.9,-0.102932,-0.103376,6.52127,31,-0.00587789,10,-0.000674141,-2.18567,0.0488753,1.20715,297.031,-0.103376,
2,1,0,1,1,60302.9,-0.0997357,-0.100239,7.46129,31,-0.00584983,10,-0.000747913,-2.12719,0.0573826,1.02819,291.955,-0.100239,
2,1,0,1,1,60302.9,-0.0965395,-0.0970249,8.39071,31,-0.00581802,10,-0.000814108,-2.0762,0.0658681,0.89573,287.328,-0.0970249,
2,1,0,1,1,60302.9,-0.0933323,-0.0938087,9.3036,31,-0.00578253,10,-0.000872758,-2.03135,0.075031,0.786341,280.717,-0.0938087,
2,1,0,1,1,60302.9,-0.0901362,-0.0906094,10.1894,31,-0.00574344,10,-0.000923254,-1.99185,0.0839321,0.702949,275.831,-0.0906094,
2,1,0,1,1,60302.9,-0.0869345,-0.0873837,11.07,31,-0.00570084,10,-0.000967337,-1.95585,0.0928085,0.635717,271.6,-0.08738368,
2,1,0,1,1,60302.9,-0.0837328,-0.0842131,11.9246,31,-0.00565475,10,-0.00100421,-1.92356,0.10234,0.576509,265.863,-0.0842131,
2,1,0,1,1,60302.9,-0.0805366,-0.0810318,12.7738,31,-0.00560528,10,-0.00103508,-1.89368,0.111419,0.529531,261.878,-0.0810318,
2,1,0,1,1,60302.9,-0.0773322,-0.0777499,13.6083,31,-0.00555244,10,-0.00105804,-1.8662,0.121638,0.485047,255.599,-0.0777499,
2,1,0,1,1,60302.9,-0.074136,-0.0745856,14.4215,31,-0.0054963,10,-0.00107564,-1.84099,0.131818,0.447587,250.203,-0.0745856,
2,1,0,1,1,60302.9,-0.0709371,-0.071345,15.2137,31,-0.00543695,10,-0.00108542,-1.81777,0.141029,0.418354,247.021,-0.071345,
2,1,0,1,1,60302.9,-0.0677354,-0.0681617,15.9939,31,-0.00537444,10,-0.00109017,-1.79604,0.151486,0.389475,242.047,-0.0681617,
2,1,0,1,1,60302.9,-0.0645393,-0.06499,16.7602,31,-0.00530884,10,-0.00108925,-1.77572,0.161363,0.365636,238.129,-0.06499,
2,1,0,1,1,60302.9,-0.061332,-0.0617526,17.5277,31,-0.00524019,10,-0.00108238,-1.75627,0.172564,0.341903,232.731,-0.0617526,
2,1,0,1,1,60302.9,-0.0581359,-0.0585767,18.2542,31,-0.00516854,10,-0.00106927,-1.73864,0.183891,0.320843,227.666,-0.0585767,
2,1,0,1,1,60302.9,-0.0549398,-0.0553562,18.9742,31,-0.005094,10,-0.00105034,-1.72184,0.194819,0.302845,223.63,-0.0553562,
2,1,0,1,1,60303,-0.0517325,-0.0521559,19.6821,31,-0.00501659,10,-0.00102654,-1.70593,0.20562,0.286937,219.781,-0.0521559,
2,1,0,1,1,60303,-0.0485364,-0.0489694,20.3864,31,-0.00493639,10,-0.000998311,-1.69066,0.217143,0.27171,215.505,-0.0489694,
2,1,0,1,1,60303,-0.0453347,-0.045785,21.0656,31,-0.00485341,10,-0.000964486,-1.67643,0.23,0.256522,210.24,-0.045785,
2,1,0,1,1,60303,-0.042133,-0.0425486,21.7343,31,-0.00476774,10,-0.000924763,-1.66285,0.241836,0.243967,206.423,-0.0425486,
2,1,0,1,1,60303,-0.0389369,-0.0393409,22.3763,31,-0.00467945,10,-0.000880305,-1.65021,0.255823,0.230628,200.998,-0.0393409,
2,1,0,1,1,60303,-0.0357324,-0.0361745,23.0276,31,-0.00458858,10,-0.000833012,-1.63775,0.267495,0.220565,197.758,-0.0361745,
2,1,0,1,1,60303,-0.0325363,-0.0329424,23.6469,31,-0.00449516,10,-0.000778985,-1.62623,0.280298,0.21049,193.818,-0.0329424,
2,1,0,1,1,60303,-0.0293374,-0.0297781,24.2597,31,-0.00439929,10,-0.00072241,-1.61511,0.296621,0.198907,187.931,-0.0297781,
2,1,0,1,1,60303,-0.0261357,-0.0265545,24.8546,31,-0.00430097,10,-0.000660001,-1.60459,0.311127,0.189633,183.582,-0.0265545,
2,1,0,1,1,60303,-0.0229395,-0.023386,25.431,31,-0.00420034,10,-0.000594728,-1.59464,0.327019,0.180417,178.775,-0.02338599,
2,1,0,1,1,60303,-0.0197323,-0.0201146,26.0018,31,-0.0040974,10,-0.000523018,-1.585,0.341956,0.172537,174.777,-0.02011464,
2,1,0,1,1,60303,-0.0165361,-0.0169387,26.5551,31,-0.00399223,10,-0.00044981,-1.57585,0.357853,0.164872,170.595,-0.0169387,
2,1,0,1,1,60303,-0.01334,-0.013767,27.0895,31,-0.00388487,10,-0.000372943,-1.5672,0.374075,0.157722,166.503,-0.013767,
2,1,0,1,1,60303,-0.0101328,-0.0105254,27.6249,31,-0.00377537,10,-0.000290763,-1.5587,0.391895,0.15055,162.022,-0.0105254,
2,1,0,1,1,60303,-0.00693663,-0.007359,28.1257,31,-0.00366383,10,-0.000206977,-1.5509,0.408628,0.144385,158.168,-0.007359,
2,1,0,1,1,60303,-0.00373494,-0.00417884,28.6225,31,-0.00355028,10,-0.000119609,-1.54329, , , ,-0.00417884,
2,1,0,1,1,60303,-0.000774628,-0.00123038,29.0724,31,-0.00344352,10,-3.57701e-05,-1.53652, , , ,-0.00123038,
2,1,0,0,1,60303,-0.000125413,-0.000535284,29.1803,31,-0.00342023,10,-1.56198e-05,-1.53491, , , ,-0.000535284,