File: Figure_codes/Fig_3-5/rawdata_trumpetplot_data/after 10th/20221101_1-115_003_TrumpetPlot_ParaChange_from10_every3_09_CV_C01_21.csv
mode,ox/red,error,control changes,counter inc.,time/s,control/V,Ewe/V,<I>/mA,cycle number,(Q-Qo)/C,I Range,P/W,log(|I|),Tafel slope mV/dec,alpha_eff,dI/d(E-IR),E-IR/V,
2,0,0,0,0,42555.3,2.44065e-05,-0.000382585,-5.30468,22,0.0000000E+000,10,2.02949e-06,-2.27534, , , ,-0.000382585,
2,0,0,1,0,42555.3,0.00179726,0.00142324,-3.0425,22,-7.06892e-05,10,-4.33021e-06,-2.51677, , , ,0.00142324,
2,0,0,1,0,42555.3,0.00379485,0.00346143,-1.47959,22,-0.000114461,10,-5.1215e-06,-2.82986,-0.00457922,-12.8843,653.041,0.00346143,
2,0,0,1,0,42555.3,0.00579244,0.00547473,-0.396711,22,-0.000132475,10,-2.17189e-06,-3.40153,-0.00736766,-8.00797,479.096,0.00547473,
2,1,0,1,0,42555.3,0.00779002,0.00744031,0.426673,22,-0.000131645,10,3.17458e-06,-3.3699,0.00917376,6.43139,370.629,0.007440309,
2,1,0,1,0,42555.4,0.00978761,0.00944348,1.07422,22,-0.000116274,10,1.01444e-05,-2.96891,0.00698538,8.44621,290.199,0.00944348,
2,1,0,1,0,42555.4,0.0117852,0.0114086,1.57827,22,-8.94584e-05,10,1.80059e-05,-2.80182,0.0149686,3.94157,228.713,0.0114086,
2,1,0,1,0,42555.4,0.0137828,0.0134631,1.99356,22,-5.35329e-05,10,2.68395e-05,-2.70037,0.0235414,2.50623,189.443,0.0134631,
2,1,0,1,0,42555.4,0.0157804,0.0154612,2.346,22,-9.97169e-06,10,3.6272e-05,-2.62967,0.0326079,1.80938,162.64,0.0154612,
2,1,0,1,0,42555.4,0.017778,0.0174587,2.6434,22,3.98254e-05,10,4.61503e-05,-2.57784,0.0438195,1.34643,136.926,0.0174587,
2,1,0,1,0,42555.5,0.0197755,0.0193906,2.88404,22,9.51697e-05,10,5.59234e-05,-2.54,0.0564299,1.04554,117.069,0.0193906,
2,1,0,1,0,42555.5,0.0217731,0.0214201,3.10717,22,0.000155175,10,6.65559e-05,-2.50764,0.069076,0.854132,102.848,0.0214201,
2,1,0,1,0,42555.5,0.0237707,0.0233948,3.29587,22,0.000219262,10,7.71062e-05,-2.48203,0.083479,0.706765,90.6646,0.0233948,
2,1,0,1,0,42555.5,0.0257683,0.0254621,3.47363,22,0.0002867,10,8.84459e-05,-2.45922,0.096313,0.612586,82.7643,0.0254621,
2,1,0,1,0,42555.5,0.0277659,0.0274728,3.63338,22,0.000357822,10,9.98188e-05,-2.43969,0.106887,0.551983,78.1227,0.0274728,
2,1,0,1,0,42555.6,0.0297635,0.0294322,3.78379,22,0.000432032,10,0.000111365,-2.42207,0.121529,0.485479,71.4697,0.0294322,
2,1,0,1,0,42555.6,0.0317611,0.0314047,3.91439,22,0.000509009,10,0.000122931,-2.40734,0.13432,0.43925,67.1486,0.0314047,
2,1,0,1,0,42555.6,0.0337587,0.033448,4.05344,22,0.000588275,10,0.00013558,-2.39218,0.144791,0.407483,64.2879,0.033448,
2,1,0,1,0,42555.6,0.0357562,0.0354352,4.1735,22,0.000670561,10,0.000147889,-2.3795,0.162045,0.364096,59.2488,0.0354352,
2,1,0,1,0,42555.6,0.0377538,0.0374078,4.28806,22,0.000755253,10,0.000160407,-2.36774,0.167658,0.351907,58.9018,0.0374078,
2,1,0,1,0,42555.7,0.0397514,0.0393862,4.40623,22,0.000842236,10,0.000173545,-2.35593,0.165389,0.356735,61.3867,0.03938625,
2,1,0,1,0,42555.7,0.041749,0.0413935,4.53272,22,0.000931177,10,0.000187625,-2.34364,0.18474,0.319367,56.3397,0.0413935,
2,1,0,1,0,42555.7,0.0437466,0.0434679,4.63619,22,0.00102289,10,0.000201525,-2.33384,0.205322,0.287353,51.9974,0.0434679,
2,1,0,1,0,42555.7,0.0457442,0.04542,4.74209,22,0.00111668,10,0.000215386,-2.32403,0.200188,0.294722,54.5637,0.04542,
2,1,0,1,0,42555.7,0.0477418,0.0474429,4.85308,22,0.00121266,10,0.000230244,-2.31398,0.201265,0.293145,55.5129,0.0474429,
2,1,0,1,0,42555.8,0.0497484,0.049421,4.9642,22,0.00131078,10,0.000245336,-2.30415,0.217726,0.270983,52.4088,0.049421,
2,1,0,1,0,42555.8,0.0517369,0.0513839,5.05962,22,0.00141051,10,0.000259983,-2.29588,0.228843,0.257819,50.9688,0.0513839,
2,1,0,1,0,42555.8,0.0537345,0.0534241,5.16824,22,0.00151279,10,0.000276109,-2.28666,0.230239,0.256256,51.6318,0.0534241,
2,1,0,1,0,42555.8,0.0557321,0.0554055,5.26726,22,0.00161714,10,0.000291835,-2.27842,0.251308,0.234772,48.2256,0.05540549,
2,1,0,1,0,42555.8,0.0577206,0.0573956,5.35976,22,0.00172287,10,0.000307627,-2.27085,0.249903,0.236091,49.4388,0.0573956,
2,1,0,1,0,42555.9,0.0597273,0.0594115,5.46531,22,0.00183122,10,0.000324702,-2.26238,0.254037,0.23225,49.4801,0.0594115,
2,1,0,1,0,42555.9,0.0617249,0.0614308,5.55942,22,0.00194146,10,0.00034152,-2.25497,0.280807,0.210109,45.5558,0.0614308,
2,1,0,1,0,42555.9,0.0637225,0.0633994,5.64699,22,0.00205353,10,0.000358016,-2.24818,0.289119,0.204068,44.9893,0.0633994,
2,1,0,1,0,42555.9,0.06572,0.0654339,5.73952,22,0.00216745,10,0.00037556,-2.24112,0.268973,0.219353,49.1751,0.0654339,
2,1,0,1,0,42555.9,0.0677176,0.0673799,5.84273,22,0.00228282,10,0.000393682,-2.23338,0.297512,0.198311,45.1131,0.0673799,
2,1,0,1,0,42556,0.0697152,0.0694197,5.91933,22,0.00240053,10,0.000410919,-2.22773,0.328518,0.179594,41.534,0.0694197,
2,1,0,1,0,42556,0.0717128,0.0713998,6.00969,22,0.00251985,10,0.000429091,-2.22115,0.310141,0.190236,44.599,0.0713998,
2,1,0,1,0,42556,0.0737104,0.073377,6.09583,22,0.00264091,10,0.000447294,-2.21497,0.329948,0.178816,42.5347,0.073377,
2,1,0,1,0,42556,0.075708,0.0754301,6.18112,22,0.0027631,10,0.000466242,-2.20893,0.353004,0.167137,40.2831,0.0754301,
2,1,0,1,0,42556,0.0777056,0.0773605,6.25629,22,0.00288745,10,0.00048399,-2.20368,0.36193,0.163015,39.8192,0.0773605,
2,1,0,1,0,42556.1,0.0797031,0.079356,6.33744,22,0.00301339,10,0.000502914,-2.19809,0.380697,0.154979,38.3054,0.079356,
2,1,0,1,0,42556.1,0.0817007,0.0813927,6.41075,22,0.00314084,10,0.000521788,-2.19309,0.414385,0.14238,35.6139,0.0813927,
2,1,0,1,0,42556.1,0.0836983,0.0834045,6.48163,22,0.0032691,10,0.000540597,-2.18832,0.427142,0.138127,34.9331,0.0834045,
2,1,0,1,0,42556.1,0.0856959,0.0853875,6.5503,22,0.00339943,10,0.000559314,-2.18374,0.441988,0.133488,34.121,0.0853875,
2,1,0,1,0,42556.1,0.0876935,0.0874037,6.61808,22,0.00353112,10,0.000578445,-2.17927,0.46377,0.127218,32.8427,0.0874037,
2,1,0,1,0,42556.2,0.0896911,0.0893369,6.68001,22,0.00366413,10,0.000596771,-2.17522,0.437434,0.134877,35.2029,0.0893369,
2,1,0,1,0,42556.2,0.0916887,0.091371,6.75774,22,0.00379784,10,0.000617462,-2.1702,0.443541,0.13302,35.0471,0.091371,
2,1,0,1,0,42556.2,0.0936863,0.0934043,6.82256,22,0.00393371,10,0.000637256,-2.16605,0.49161,0.120014,31.9519,0.0934043,
2,1,0,1,0,42556.2,0.0956838,0.095395,6.88632,22,0.00407085,10,0.00065692,-2.16201,0.435119,0.135595,36.4891,0.095395,
2,1,0,1,0,42556.2,0.0976814,0.0974074,6.96863,22,0.00420942,10,0.000678796,-2.15685,0.366545,0.160962,43.8019,0.0974074,
2,1,0,1,0,42556.3,0.099679,0.0993586,7.05993,22,0.00434894,10,0.000701465,-2.1512,0.381775,0.154541,42.5327,0.0993586,
2,1,0,1,0,42556.3,0.101677,0.101345,7.13612,22,0.00449094,10,0.000723212,-2.14654,0.377162,0.156431,43.6326,0.101345,
2,1,0,1,0,42556.3,0.103674,0.103366,7.23477,22,0.00463466,10,0.000747827,-2.14058,0.317461,0.18585,52.508,0.103366,
2,1,0,1,0,42556.3,0.105672,0.105297,7.3436,22,0.00478046,10,0.000773258,-2.13409,0.292099,0.201986,57.932,0.105297,
2,1,0,1,0,42556.3,0.107667,0.107333,7.46459,22,0.00492776,10,0.000801196,-2.12699,0.28822,0.204705,59.6331,0.107333,
2,1,0,1,0,42556.4,0.109667,0.109371,7.58655,22,0.00507824,10,0.000829746,-2.11996,0.273459,0.215754,63.9268,0.109371,
2,1,0,1,0,42556.4,0.111665,0.111343,7.72097,22,0.00523133,10,0.000859678,-2.11233,0.25878,0.227993,68.7118,0.111343,
2,1,0,1,0,42556.4,0.113662,0.113345,7.85964,22,0.00538715,10,0.000890853,-2.1046,0.258906,0.227882,69.8904,0.1133453,
2,1,0,1,0,42556.4,0.11566,0.115304,7.99781,22,0.00554568,10,0.000922183,-2.09703,0.258198,0.228507,71.3577,0.115304,
2,1,0,1,0,42556.4,0.117657,0.117348,8.14529,22,0.00570636,10,0.000955837,-2.08909,0.266406,0.221466,70.3517,0.1173484,
2,1,0,1,0,42556.5,0.119655,0.119359,8.28305,22,0.00587068,10,0.000988655,-2.08181,0.273358,0.215834,69.7682,0.119359,
2,1,0,1,0,42556.5,0.121652,0.12131,8.4217,22,0.00603768,10,0.00102164,-2.0746,0.278423,0.211908,69.6469,0.12131,
2,1,0,1,0,42556.5,0.12365,0.123358,8.56158,22,0.0062075,10,0.00105614,-2.06745,0.287987,0.20487,68.4309,0.123358,
2,1,0,1,0,42556.5,0.125648,0.125337,8.69725,22,0.00637935,10,0.00109009,-2.06062,0.323203,0.182548,61.8663,0.1253369,
2,1,0,1,0,42556.5,0.127645,0.12733,8.80733,22,0.00655448,10,0.00112144,-2.05516,0.36735,0.16061,55.2025,0.12733,
2,1,0,1,0,42556.6,0.129643,0.129327,8.91749,22,0.00673179,10,0.00115327,-2.04976,0.385838,0.152914,53.1972,0.129327,
2,1,0,1,0,42556.6,0.13164,0.131361,9.02174,22,0.00691124,10,0.0011851,-2.04471,0.421145,0.140094,49.2947,0.131361,
2,1,0,1,0,42556.6,0.133638,0.13334,9.11532,22,0.00709183,10,0.00121544,-2.04023,0.461793,0.127763,45.4255,0.13334,
2,1,0,1,0,42556.6,0.135636,0.135271,9.19938,22,0.007275,10,0.00124441,-2.03624,0.51374,0.114844,41.2228,0.135271,
2,1,0,1,0,42556.6,0.137633,0.137334,9.27996,22,0.00745978,10,0.00127445,-2.03245,0.632312,0.0933084,33.746,0.137334,
2,1,0,1,0,42556.7,0.139631,0.139286,9.33487,22,0.00764595,10,0.00130022,-2.02989,0.718569,0.0821076,29.9278,0.139286,
2,1,0,1,0,42556.7,0.141628,0.141327,9.39948,22,0.00783236,10,0.0013284,-2.0269,0.809014,0.0729283,26.7214,0.141327,
2,1,0,1,0,42556.7,0.143626,0.143313,9.44246,22,0.00802079,10,0.00135323,-2.02491,1.40939,0.0418622,15.4061,0.1433128,
2,1,0,1,0,42556.7,0.145624,0.145284,9.46043,22,0.00820987,10,0.00137445,-2.02409,5.40794,0.0109099,4.02383,0.145284,
2,1,0,1,0,42556.7,0.147621,0.14732,9.45859,22,0.00839911,10,0.00139344,-2.02417,-3.89188,-0.0151598,-5.59048,0.14732,
2,1,0,1,0,42556.8,0.149619,0.149313,9.4379,22,0.00858719,10,0.00140921,-2.02512,-0.931832,-0.0633161,-23.2584,0.149313,
2,1,0,1,0,42556.8,0.151616,0.151282,9.36645,22,0.00877529,10,0.00141697,-2.02843,-0.470023,-0.125526,-45.7871,0.151282,
2,1,0,1,0,42556.8,0.153614,0.153295,9.25559,22,0.00896155,10,0.00141884,-2.0336,-0.319504,-0.184661,-66.5345,0.1532952,
2,1,0,1,0,42556.8,0.155611,0.155296,9.09934,22,0.00914519,10,0.00141309,-2.04099,-0.246176,-0.239666,-84.9645,0.155296,
2,1,0,1,0,42556.8,0.157609,0.157314,8.91415,22,0.00932447,10,0.00140232,-2.04992,-0.186248,-0.316781,-109.742,0.157314,
2,1,0,1,0,42556.9,0.159607,0.159321,8.65768,22,0.00950023,10,0.00137935,-2.0626,-0.148494,-0.397322,-134.017,0.159321,
2,1,0,1,0,42556.9,0.161604,0.161322,8.37697,22,0.0096706,10,0.00135139,-2.07691,-0.126645,-0.465869,-151.931,0.161322,
2,1,0,1,0,42556.9,0.163602,0.16324,8.0622,22,0.00983501,10,0.00131607,-2.09355,-0.114663,-0.514553,-161.696,0.16324,
2,1,0,1,0,42556.9,0.165606,0.165288,7.73564,22,0.009993,10,0.00127861,-2.1115,-0.110297,-0.534918,-161.355,0.165288,
2,1,0,1,0,42556.9,0.167597,0.167311,7.40537,22,0.0101437,10,0.001239,-2.13045,-0.105151,-0.561097,-162.179,0.167311,
2,1,0,1,0,42557,0.169595,0.169293,7.0862,22,0.0102886,10,0.00119964,-2.14959,-0.103844,-0.568161,-157.115,0.169293,
2,1,0,1,0,42557,0.171592,0.171321,6.77534,22,0.0104272,10,0.00116076,-2.16907,-0.103949,-0.567587,-150.285,0.171321,
2,1,0,1,0,42557,0.173581,0.17325,6.49157,22,0.0105591,10,0.00112466,-2.18765,-0.107882,-0.546896,-138.688,0.17325,
2,1,0,1,0,42557,0.175587,0.175267,6.22808,22,0.0106864,10,0.00109157,-2.20565,-0.11636,-0.507049,-123.491,0.175267,
2,1,0,1,0,42557,0.177585,0.177262,5.99609,22,0.0108086,10,0.00106288,-2.22213,-0.123365,-0.478255,-112.002,0.177262,
2,1,0,1,0,42557.1,0.179582,0.179276,5.77899,22,0.0109263,10,0.00103604,-2.23815,-0.13237,-0.44572,-100.731,0.179276,
2,1,0,1,0,42557.1,0.18158,0.181291,5.59019,22,0.0110399,10,0.00101345,-2.25257,-0.146856,-0.401755,-87.8226,0.181291,
2,1,0,1,0,42557.1,0.183578,0.183283,5.42711,22,0.0111495,10,0.000994697,-2.26543,-0.156914,-0.376003,-79.6613,0.183283,
2,1,0,1,0,42557.1,0.185575,0.185307,5.27028,22,0.0112564,10,0.000976621,-2.27817,-0.162726,-0.362572,-74.6842,0.185307,
2,1,0,1,0,42557.1,0.187573,0.187239,5.13168,22,0.0113604,10,0.00096085,-2.28974,-0.179364,-0.32894,-65.9669,0.187239,
2,1,0,1,0,42557.2,0.18957,0.189266,5.00915,22,0.0114618,10,0.00094806,-2.30024,-0.202762,-0.290981,-56.9708,0.189266,
2,1,0,1,0,42557.2,0.191568,0.191242,4.90359,22,0.0115605,10,0.000937774,-2.30949,-0.221603,-0.266242,-50.9826,0.1912424,
2,1,0,1,0,42557.2,0.193566,0.19326,4.80549,22,0.0116575,10,0.000928711,-2.31826,-0.239362,-0.246489,-46.2741,0.19326,
2,1,0,1,0,42557.2,0.195563,0.195246,4.71831,22,0.0117528,10,0.000921233,-2.32621,-0.245418,-0.240406,-44.2618,0.195246,
2,1,0,1,0,42557.2,0.197561,0.197208,4.63076,22,0.0118463,10,0.000913223,-2.33435,-0.285151,-0.206908,-37.4903,0.197208,
2,1,0,1,0,42557.3,0.199558,0.199254,4.56806,22,0.0119378,10,0.000910204,-2.34027,-0.313803,-0.188016,-33.4788,0.199254,
2,1,0,1,0,42557.3,0.201556,0.20126,4.49509,22,0.0120284,10,0.000904684,-2.34726,-0.306605,-0.19243,-33.7975,0.20126,
2,1,0,1,0,42557.3,0.203553,0.20324,4.43334,22,0.0121177,10,0.000901033,-2.35327,-0.345049,-0.17099,-29.603,0.20324,
2,1,0,1,0,42557.3,0.205551,0.205229,4.37761,22,0.0122059,10,0.000898413,-2.35876,-0.450872,-0.130858,-22.4109,0.205229,
2,1,0,1,0,42557.3,0.207549,0.207246,4.34357,22,0.0122927,10,0.000900187,-2.36215,-0.469339,-0.125709,-21.2688,0.207246,
2,1,0,1,0,42557.4,0.209546,0.2092,4.29315,22,0.012379,10,0.000898127,-2.36722,-0.396448,-0.148821,-24.9374,0.2092,
2,1,0,1,0,42557.4,0.211544,0.211238,4.24402,22,0.0124644,10,0.000896498,-2.37222,-0.453579,-0.130077,-21.5738,0.211238,
2,1,0,1,0,42557.4,0.213541,0.213209,4.20666,22,0.0125489,10,0.000896898,-2.37606,-0.59496,-0.0991663,-16.2992,0.213209,
2,1,0,1,0,42557.4,0.215539,0.215217,4.17917,22,0.0126323,10,0.000899427,-2.37891,-0.554527,-0.106397,-17.3222,0.215217,
2,1,0,1,0,42557.4,0.217537,0.217239,4.13686,22,0.0127154,10,0.000898686,-2.38333,-0.536604,-0.109951,-17.78,0.217239,
2,1,0,1,0,42557.5,0.219534,0.219214,4.10809,22,0.0127979,10,0.000900552,-2.38636,-0.631066,-0.0934926,-14.9858,0.219214,
2,1,0,1,0,42557.5,0.221532,0.221196,4.07756,22,0.0128798,10,0.000901939,-2.3896,-0.697134,-0.0846322,-13.4786,0.221196,
2,1,0,1,0,42557.5,0.223525,0.223254,4.05365,22,0.0129608,10,0.000904991,-2.39215,-0.794723,-0.0742397,-11.7456,0.223254,
2,1,0,1,0,42557.5,0.225527,0.22521,4.0304,22,0.0130417,10,0.000907689,-2.39465,-0.758821,-0.0777522,-12.2268,0.22521,
2,1,0,1,0,42557.5,0.227525,0.227216,4.0052,22,0.0131221,10,0.000910045,-2.39738,-0.74383,-0.0793192,-12.3983,0.227216,
2,1,0,1,0,42557.6,0.229522,0.229271,3.98006,22,0.013202,10,0.000912513,-2.40011,-0.882198,-0.0668784,-10.3994,0.229271,
2,1,0,1,0,42557.6,0.23152,0.231218,3.96358,22,0.0132815,10,0.000916451,-2.40191,-1.22347,-0.0482236,-7.46273,0.231218,
2,1,0,1,0,42557.6,0.233517,0.233227,3.95054,22,0.0133603,10,0.000921371,-2.40334,-0.951966,-0.061977,-9.54117,0.233227,
2,1,0,1,0,42557.6,0.235515,0.235183,3.92575,22,0.0134391,10,0.000923269,-2.40608,-0.893907,-0.0660024,-10.1243,0.2351827,
2,1,0,1,0,42557.6,0.237512,0.237193,3.91039,22,0.0135175,10,0.000927515,-2.40778,-1.08397,-0.0544295,-8.30381,0.237193,
2,1,0,1,0,42557.7,0.23951,0.239182,3.89254,22,0.0135956,10,0.000931027,-2.40977,-1.31525,-0.0448585,-6.8221,0.239182,
2,1,0,1,0,42557.7,0.241508,0.241166,3.88328,22,0.0136731,10,0.000936515,-2.4108,-1.35059,-0.0436845,-6.61365,0.241166,
2,1,0,1,0,42557.7,0.243505,0.243189,3.86604,22,0.0137506,10,0.00094018,-2.41273,-1.44189,-0.0409185,-6.18136,0.243189,
2,1,0,1,0,42557.7,0.245503,0.2452,3.85834,22,0.0138278,10,0.000946066,-2.4136,-1.46701,-0.040218,-6.04909,0.2452,
2,1,0,1,0,42557.7,0.2475,0.247183,3.84189,22,0.0139048,10,0.000949647,-2.41546,-1.26605,-0.0466016,-6.99182,0.247183,
2,1,0,1,0,42557.8,0.249498,0.249192,3.83043,22,0.0139811,10,0.000954513,-2.41675,-1.32766,-0.044439,-6.63981,0.249192,
2,1,0,1,0,42557.8,0.251496,0.251213,3.81513,22,0.0140576,10,0.000958408,-2.41849,-1.55399,-0.0379669,-5.65892,0.251213,
2,1,0,1,0,42557.8,0.253493,0.253181,3.80786,22,0.0141339,10,0.000964077,-2.41932,-1.2432,-0.0474583,-7.0404,0.253181,
2,1,0,1,0,42557.8,0.255491,0.255162,3.78732,22,0.0142099,10,0.000966381,-2.42167,-1.70665,-0.0345707,-5.12377,0.255162,
2,1,0,1,0,42557.8,0.257488,0.257153,3.78751,22,0.0142853,10,0.00097397,-2.42165,-2.7182,-0.0217056,-3.20277,0.257153,
2,1,0,1,0,42557.9,0.259486,0.259196,3.7744,22,0.014361,10,0.000978309,-2.42315,-1.38276,-0.0426684,-6.28581,0.259196,
2,1,0,1,0,42557.9,0.261484,0.261197,3.76209,22,0.0144364,10,0.000982647,-2.42457,-1.78289,-0.0330923,-4.86209,0.261197,
2,1,0,1,0,42557.9,0.263481,0.263177,3.75505,22,0.0145116,10,0.000988241,-2.42538,-2.68705,-0.0219571,-3.21834,0.2631768,
2,1,0,1,0,42557.9,0.265479,0.265154,3.74935,22,0.0145862,10,0.000994155,-2.42604,-1.617,-0.0364873,-5.33204,0.265154,
2,1,0,1,0,42557.9,0.267476,0.267149,3.73387,22,0.0146611,10,0.000997499,-2.42784,-1.51929,-0.0388341,-5.66518,0.267149,
2,1,0,1,0,42558,0.269474,0.269164,3.72663,22,0.0147358,10,0.00100308,-2.42868,-2.31042,-0.0255365,-3.71382,0.269164,
2,1,0,1,0,42558,0.271471,0.271138,3.71905,22,0.0148102,10,0.00100838,-2.42957,-3.27895,-0.0179936,-2.61331,0.271138,
2,1,0,1,0,42558,0.273469,0.273141,3.71624,22,0.0148842,10,0.00101506,-2.4299,-1.54119,-0.038282,-5.53982,0.273141,
2,1,0,1,0,42558,0.275467,0.275132,3.69693,22,0.0149583,10,0.00101714,-2.43216,-1.3412,-0.0439904,-6.35791,0.275132,
2,1,0,1,0,42558,0.277464,0.277197,3.69045,22,0.0150323,10,0.00102298,-2.43292,-2.08657,-0.0282761,-4.0706,0.277197,
2,1,0,1,0,42558.1,0.279462,0.279162,3.68052,22,0.015106,10,0.00102746,-2.43409,-1.98059,-0.0297891,-4.28059,0.279162,
2,1,0,1,0,42558.1,0.281464,0.281147,3.67355,22,0.0151795,10,0.00103281,-2.43491,-2.15391,-0.0273921,-3.92619,0.281147,
2,1,0,1,0,42558.1,0.283457,0.283154,3.66485,22,0.0152526,10,0.00103772,-2.43594,-1.88395,-0.0313173,-4.4789,0.283154,
2,1,0,1,0,42558.1,0.285455,0.285149,3.65562,22,0.0153258,10,0.0010424,-2.43704,-1.44925,-0.0407106,-5.8044,0.285149,
2,1,0,1,0,42558.1,0.287452,0.287126,3.64179,22,0.0153989,10,0.00104565,-2.43868,-1.88705,-0.0312658,-4.44974,0.287126,
2,1,0,1,0,42558.2,0.28945,0.289147,3.63783,22,0.0154717,10,0.00105187,-2.43916,-2.57147,-0.0229441,-3.25517,0.289147,
2,1,0,1,0,42558.2,0.291447,0.291115,3.62881,22,0.015544,10,0.0010564,-2.44024,-1.55534,-0.0379338,-5.36976,0.291115,
2,1,0,1,0,42558.2,0.293445,0.293122,3.61648,22,0.0156165,10,0.00106007,-2.44171,-1.55006,-0.0380631,-5.37428,0.2931222,
2,1,0,1,0,42558.2,0.295443,0.295183,3.60694,22,0.0156888,10,0.00106471,-2.44286,-2.04397,-0.0288654,-4.06476,0.295183,
2,1,0,1,0,42558.2,0.29744,0.297183,3.59998,22,0.015761,10,0.00106985,-2.4437,-2.66111,-0.0221712,-3.11565,0.297183,
2,1,0,1,0,42558.3,0.299438,0.299142,3.59461,22,0.0158327,10,0.0010753,-2.44435,-0.0343846,-1.71589,-223.784,0.299142,
2,1,0,1,0,42558.3,0.299737,0.299435,3.09623,22,0.015862,10,0.000927117,-2.50917,0.00393151,15.007,1330.77,0.299435,
2,1,0,1,0,42558.3,0.29774,0.297435,1.32234,22,0.0159035,10,0.000393309,-2.87866,0.004432,13.3123,676.065,0.297435,
2,1,0,1,0,42558.3,0.295742,0.295425,0.385656,22,0.0159198,10,0.000113933,-3.4138,0.00491394,12.0067,383.498,0.295425,
2,0,0,1,0,42558.3,0.293745,0.293453,-0.204664,22,0.0159211,10,-6.00593e-05,-3.68896,-0.0202752,-2.90996,246.919,0.293453,
2,0,0,1,0,42558.3,0.291747,0.291395,-0.609512,22,0.0159128,10,-0.000177609,-3.21502,-0.00621783,-9.48884,173.607,0.291395,
2,0,0,1,0,42558.4,0.289754,0.28946,-0.897853,22,0.0158977,10,-0.000259892,-3.04679,-0.0151914,-3.88377,126.942,0.28946,
2,0,0,1,0,42558.4,0.287752,0.287403,-1.1163,22,0.0158774,10,-0.000320828,-2.95222,-0.0259497,-2.27363,95.6638,0.287403,
2,0,0,1,0,42558.4,0.285754,0.285455,-1.28102,22,0.0158534,10,-0.000365673,-2.89244,-0.0382346,-1.54311,75.9676,0.285455,
2,0,0,1,0,42558.4,0.283757,0.283422,-1.41866,22,0.0158263,10,-0.000402081,-2.84812,-0.0498316,-1.18399,65.0247,0.283422,
2,0,0,1,0,42558.4,0.281759,0.281449,-1.54149,22,0.0157966,10,-0.00043385,-2.81206,-0.0642421,-0.9184,54.6258,0.281449,
2,0,0,1,0,42558.5,0.279761,0.27947,-1.63455,22,0.015765,10,-0.000456809,-2.7866,-0.0827505,-0.712987,45.3827,0.27947,
2,0,0,1,0,42558.5,0.277764,0.277431,-1.72385,22,0.0157313,10,-0.000478248,-2.7635,-0.097414,-0.605662,40.542,0.2774308,
2,0,0,1,0,42558.5,0.275766,0.275428,-1.79842,22,0.0156961,10,-0.000495336,-2.74511,-0.119213,-0.494911,34.6065,0.275428,
2,0,0,1,0,42558.5,0.273769,0.273458,-1.86133,22,0.0156594,10,-0.000508995,-2.73018,-0.12737,-0.463219,33.7096,0.273458,
2,0,0,1,0,42558.5,0.271771,0.271449,-1.93255,22,0.0156216,10,-0.000524589,-2.71387,-0.135286,-0.436114,32.7869,0.271449,
2,0,0,1,0,42558.6,0.269774,0.269446,-1.99288,22,0.0155823,10,-0.000536974,-2.70052,-0.165972,-0.355481,27.567,0.269446,
2,0,0,1,0,42558.6,0.267776,0.267458,-2.04257,22,0.015542,10,-0.000546301,-2.68982,-0.193489,-0.304926,24.2838,0.267458,
2,0,0,1,0,42558.6,0.265778,0.265484,-2.08908,22,0.0155007,10,-0.000554618,-2.68004,-0.195494,-0.3018,24.6303,0.265484,
2,0,0,1,0,42558.6,0.263781,0.263481,-2.14052,22,0.0154586,10,-0.000563988,-2.66948,-0.20105,-0.293459,24.4843,0.263481,
2,0,0,1,0,42558.6,0.261783,0.26147,-2.18736,22,0.0154154,10,-0.000571929,-2.66008,-0.247086,-0.238783,20.326,0.2614705,
2,0,0,1,0,42558.7,0.259786,0.25946,-2.22227,22,0.0153714,10,-0.000576589,-2.6532,-0.262381,-0.224864,19.5385,0.25946,
2,0,0,1,0,42558.7,0.257788,0.257448,-2.26594,22,0.0153265,10,-0.000583363,-2.64475,-0.252571,-0.233598,20.6359,0.257448,
2,0,0,1,0,42558.7,0.25579,0.255433,-2.30536,22,0.015281,10,-0.000588866,-2.63726,-0.292074,-0.202004,18.149,0.255433,
2,0,0,1,0,42558.7,0.253793,0.253439,-2.33871,22,0.0152346,10,-0.00059272,-2.63102,-0.323133,-0.182587,16.6631,0.253439,
2,0,0,1,0,42558.7,0.251795,0.251447,-2.37178,22,0.0151875,10,-0.000596377,-2.62493,-0.308088,-0.191504,17.7394,0.251447,
2,0,0,1,0,42558.8,0.249798,0.249491,-2.40874,22,0.0151397,10,-0.000600959,-2.61821,-0.319201,-0.184836,17.3571,0.249491,
2,0,0,1,0,42558.8,0.2478,0.247466,-2.44088,22,0.0150915,10,-0.000604035,-2.61245,-0.348019,-0.169531,16.1519,0.2474658,
2,0,0,1,0,42558.8,0.245802,0.245448,-2.47404,22,0.0150424,10,-0.000607249,-2.60659,-0.371245,-0.158925,15.3297,0.245448,
2,0,0,1,0,42558.8,0.243805,0.243442,-2.50257,22,0.0149926,10,-0.00060923,-2.60161,-0.469628,-0.125631,12.2488,0.243442,
2,0,0,1,0,42558.8,0.241807,0.241484,-2.52259,22,0.0149423,10,-0.000609167,-2.59815,-0.367935,-0.160354,15.8568,0.241484,
2,0,0,1,0,42558.9,0.23981,0.239487,-2.56528,22,0.0148917,10,-0.000614351,-2.59087,-0.339116,-0.173982,17.3636,0.239487,
2,0,0,1,0,42558.9,0.237812,0.237475,-2.59221,22,0.0148402,10,-0.000615585,-2.58633,-0.504118,-0.117036,11.8246,0.2374749,
2,0,0,1,0,42558.9,0.235815,0.23549,-2.61254,22,0.0147881,10,-0.000615228,-2.58294,-0.500824,-0.117806,12.0276,0.23549,
2,0,0,1,0,42558.9,0.233817,0.233497,-2.64005,22,0.0147356,10,-0.000616445,-2.57839,-0.395865,-0.149041,15.3728,0.233497,
2,0,0,1,0,42558.9,0.231815,0.231524,-2.67352,22,0.0146825,10,-0.000618982,-2.57292,-0.414325,-0.1424,14.8358,0.231524,
2,0,0,1,0,42559,0.229822,0.229507,-2.69926,22,0.014629,10,-0.000619498,-2.56876,-0.500586,-0.117862,12.4132,0.229507,
2,0,0,1,0,42559,0.227824,0.227463,-2.72392,22,0.0145748,10,-0.000619591,-2.5648,-0.498006,-0.118472,12.5958,0.227463,
2,0,0,1,0,42559,0.225827,0.225529,-2.74936,22,0.0145202,10,-0.00062006,-2.56077,-0.494875,-0.119222,12.7928,0.225529,
2,0,0,1,0,42559,0.223829,0.223459,-2.77514,22,0.0144649,10,-0.000620131,-2.55672,-0.517158,-0.114085,12.3513,0.223459,
2,0,0,1,0,42559,0.221831,0.221513,-2.79897,22,0.0144094,10,-0.000620007,-2.553,-0.530061,-0.111308,12.1589,0.221513,
2,0,0,1,0,42559.1,0.219834,0.219522,-2.82301,22,0.0143532,10,-0.000619713,-2.54929,-0.507323,-0.116297,12.8202,0.219522,
2,0,0,1,0,42559.1,0.217836,0.217495,-2.85047,22,0.0142964,10,-0.000619964,-2.54508,-0.524304,-0.11253,12.5076,0.217495,
2,0,0,1,0,42559.1,0.215839,0.215515,-2.87314,22,0.0142392,10,-0.000619203,-2.54164,-0.515403,-0.114474,12.8488,0.215515,
2,0,0,1,0,42559.1,0.213841,0.213505,-2.90174,22,0.0141818,10,-0.000619536,-2.53734,-0.542087,-0.108839,12.3076,0.2135053,
2,0,0,1,0,42559.1,0.211843,0.211541,-2.92204,22,0.0141235,10,-0.000618131,-2.53431,-0.685357,-0.0860865,9.81405,0.211541,
2,0,0,1,0,42559.2,0.209846,0.209546,-2.94059,22,0.0140648,10,-0.00061619,-2.53157,-0.566205,-0.104203,11.9807,0.209546,
2,0,0,1,0,42559.2,0.207848,0.207522,-2.97019,22,0.0140057,10,-0.00061638,-2.52722,-0.42655,-0.138319,16.047,0.207522,
2,0,0,1,0,42559.2,0.205851,0.205533,-3.00499,22,0.0139462,10,-0.000617625,-2.52216,-0.478295,-0.123355,14.437,0.205533,
2,0,0,1,0,42559.2,0.203853,0.203538,-3.02771,22,0.0138858,10,-0.000616254,-2.51889,-0.70158,-0.0840959,9.92827,0.203538,
2,0,0,1,0,42559.2,0.201856,0.20148,-3.04523,22,0.0138251,10,-0.000613553,-2.51638,-0.599815,-0.0983637,11.7132,0.20148,
2,0,0,1,0,42559.3,0.199858,0.199509,-3.0749,22,0.0137639,10,-0.000613471,-2.51217,-0.489308,-0.120578,14.4648,0.199509,
2,0,0,1,0,42559.3,0.19786,0.197514,-3.1026,22,0.0137025,10,-0.000612806,-2.50827,-0.595548,-0.0990684,11.98,0.197514,
2,0,0,1,0,42559.3,0.195863,0.195553,-3.12229,22,0.0136402,10,-0.000610574,-2.50553,-0.566162,-0.10421,12.7206,0.195553,
2,0,0,1,0,42559.3,0.193865,0.193547,-3.15306,22,0.0135775,10,-0.000610265,-2.50127,-0.526163,-0.112133,13.784,0.193547,
2,0,0,1,0,42559.3,0.191868,0.191554,-3.17741,22,0.0135142,10,-0.000608647,-2.49793,-0.505786,-0.11665,14.486,0.191554,
2,0,0,1,0,42559.4,0.18987,0.189539,-3.21112,22,0.0134506,10,-0.000608632,-2.49334,-0.494109,-0.119407,14.9464,0.189539,
2,0,0,1,0,42559.4,0.187872,0.187538,-3.23744,22,0.0133862,10,-0.000607143,-2.4898,-0.514839,-0.114599,14.4905,0.187538,
2,0,0,1,0,42559.4,0.185875,0.185547,-3.26897,22,0.0133211,10,-0.000606547,-2.48559,-0.580284,-0.101674,12.9475,0.185547,
2,0,0,1,0,42559.4,0.183877,0.183585,-3.28862,22,0.0132556,10,-0.000603742,-2.48299,-0.487262,-0.121085,15.5959,0.183585,
2,0,0,1,0,42559.4,0.18188,0.181513,-3.33188,22,0.0131897,10,-0.000604779,-2.47731,-0.439186,-0.13434,17.4242,0.181513,
2,0,0,1,0,42559.5,0.179882,0.179577,-3.35846,22,0.0131228,10,-0.000603102,-2.47386,-0.534438,-0.110396,14.4796,0.179577,
2,0,0,1,0,42559.5,0.177885,0.17751,-3.38984,22,0.0130553,10,-0.000601731,-2.46982,-0.486019,-0.121395,16.0647,0.17751,
2,0,0,1,0,42559.5,0.175887,0.175531,-3.42346,22,0.0129871,10,-0.000600923,-2.46554,-0.403787,-0.146117,19.5497,0.1755311,
2,0,0,1,0,42559.5,0.173896,0.173563,-3.467,22,0.0129186,10,-0.000601744,-2.46005,-0.388432,-0.151893,20.5337,0.173563,
2,0,0,1,0,42559.5,0.171892,0.171575,-3.50469,22,0.0128487,10,-0.000601317,-2.45535,-0.415538,-0.141985,19.4272,0.171575,
2,0,0,1,0,42559.6,0.169894,0.169539,-3.54518,22,0.0127783,10,-0.000601046,-2.45036,-0.375671,-0.157052,21.7482,0.169539,
2,0,0,1,0,42559.6,0.167897,0.167552,-3.59219,22,0.0127069,10,-0.000601877,-2.44464,-0.342641,-0.172192,24.1431,0.167552,
2,0,0,1,0,42559.6,0.165899,0.165587,-3.64059,22,0.0126345,10,-0.000602835,-2.43883,-0.342781,-0.172122,24.4559,0.165587,
2,0,0,1,0,42559.6,0.163901,0.163567,-3.68963,22,0.0125615,10,-0.000603503,-2.43302,-0.312488,-0.188807,27.2285,0.1635671,
2,0,0,1,0,42559.6,0.161904,0.161554,-3.7504,22,0.0124871,10,-0.000605893,-2.42592,-0.287205,-0.205428,30.0571,0.1615542,
2,0,0,1,0,42559.7,0.159906,0.159591,-3.80915,22,0.0124114,10,-0.000607906,-2.41917,-0.286911,-0.205638,30.5817,0.159591,
2,0,0,1,0,42559.7,0.157909,0.157596,-3.87145,22,0.0123346,10,-0.000610125,-2.41213,-0.245145,-0.240674,36.4601,0.157596,
2,0,0,1,0,42559.7,0.155911,0.155585,-3.95521,22,0.0122566,10,-0.000615371,-2.40283,-0.220131,-0.268022,41.3566,0.155585,
2,0,0,1,0,42559.7,0.153913,0.153587,-4.03723,22,0.0121767,10,-0.000620068,-2.39392,-0.219221,-0.269135,42.4277,0.153587,
2,0,0,1,0,42559.7,0.151916,0.151589,-4.12475,22,0.012095,10,-0.000625266,-2.3846,-0.194529,-0.303297,48.9404,0.151589,
2,0,0,1,0,42559.8,0.149918,0.149576,-4.23355,22,0.0120114,10,-0.000633238,-2.3733,-0.169848,-0.34737,57.4621,0.149576,
2,0,0,1,0,42559.8,0.147921,0.147589,-4.35459,22,0.0119259,10,-0.00064269,-2.36105,-0.1634,-0.361076,61.3906,0.147589,
2,0,0,1,0,42559.8,0.145923,0.145532,-4.48184,22,0.0118375,10,-0.00065225,-2.34854,-0.150305,-0.392534,68.7754,0.145532,
2,0,0,1,0,42559.8,0.143926,0.143627,-4.62704,22,0.0117464,10,-0.00066457,-2.3347,-0.129074,-0.457101,82.8022,0.143627,
2,0,0,1,0,42559.8,0.141928,0.141628,-4.80508,22,0.011652,10,-0.000680534,-2.3183,-0.120208,-0.490815,92.1502,0.141628,
2,0,0,1,0,42559.9,0.13993,0.139588,-4.9993,22,0.0115544,10,-0.000697842,-2.30109,-0.115715,-0.509873,99.5447,0.139588,
2,0,0,1,0,42559.9,0.137933,0.137607,-5.20538,22,0.0114523,10,-0.000716294,-2.28355,-0.109061,-0.540981,110.093,0.137607,
2,0,0,1,0,42559.9,0.135935,0.135623,-5.43582,22,0.0113458,10,-0.000737221,-2.26474,-0.105917,-0.557039,118.249,0.1356228,
2,0,0,1,0,42559.9,0.133938,0.133591,-5.68023,22,0.0112346,10,-0.000758827,-2.24563,-0.104826,-0.562837,124.829,0.133591,
2,0,0,1,0,42559.9,0.13194,0.131605,-5.93731,22,0.011119,10,-0.000781382,-2.22641,-0.102709,-0.574436,133.171,0.131605,
2,0,0,1,0,42560,0.129942,0.129627,-6.20806,22,0.0109975,10,-0.000804734,-2.20704,-0.107115,-0.55081,133.277,0.129627,
2,0,0,1,0,42560,0.127945,0.127606,-6.47031,22,0.0108706,10,-0.000825652,-2.18907,-0.112821,-0.522952,131.996,0.127606,
2,0,0,1,0,42560,0.125947,0.125642,-6.73408,22,0.0107385,10,-0.000846085,-2.17172,-0.113902,-0.517991,136.184,0.125642,
2,0,0,1,0,42560,0.12395,0.123642,-7.0101,22,0.0106017,10,-0.000866747,-2.15428,-0.121864,-0.484146,132.179,0.123642,
2,0,0,1,0,42560,0.121952,0.121635,-7.26372,22,0.0104589,10,-0.000883524,-2.13884,-0.136406,-0.432532,122.435,0.121635,
2,0,0,1,0,42560.1,0.119955,0.119628,-7.50166,22,0.0103111,10,-0.000897406,-2.12484,-0.144158,-0.409273,119.832,0.119628,
2,0,0,1,0,42560.1,0.117957,0.11761,-7.74612,22,0.0101585,10,-0.000911018,-2.11092,-0.149035,-0.39588,119.525,0.11761,
2,0,0,1,0,42560.1,0.115955,0.115661,-7.97573,22,0.0100012,10,-0.000922484,-2.09823,-0.16543,-0.356647,110.847,0.115661,
2,0,0,1,0,42560.1,0.113962,0.113645,-8.18558,22,0.00984011,10,-0.000930251,-2.08695,-0.183702,-0.321172,102.556,0.113645,
2,0,0,1,0,42560.1,0.111964,0.111604,-8.39189,22,0.00967421,10,-0.000936564,-2.07614,-0.19863,-0.297034,97.1353,0.111604,
2,0,0,1,0,42560.2,0.109967,0.109626,-8.57602,22,0.00950442,10,-0.00094015,-2.06671,-0.214654,-0.274862,91.9269,0.1096255,
2,0,0,1,0,42560.2,0.107969,0.107708,-8.74999,22,0.00933103,10,-0.000942444,-2.05799,-0.243807,-0.241995,82.5378,0.107708,
2,0,0,1,0,42560.2,0.105971,0.105641,-8.90489,22,0.00915526,10,-0.000940722,-2.05037,-0.28255,-0.208813,72.509,0.105641,
2,0,0,1,0,42560.2,0.103974,0.103615,-9.04679,22,0.00897565,10,-0.000937381,-2.04351,-0.320565,-0.18405,64.8934,0.103615,
2,0,0,1,0,42560.2,0.101976,0.10163,-9.16521,22,0.00879345,10,-0.000931456,-2.03786,-0.40427,-0.145942,52.1107,0.10163,
2,0,0,1,0,42560.3,0.0999786,0.0996701,-9.25235,22,0.00860919,10,-0.000922183,-2.03375,-0.475313,-0.124129,44.8263,0.0996701,
2,0,0,1,0,42560.3,0.0979811,0.0976868,-9.34195,22,0.008424,10,-0.000912585,-2.02956,-0.606658,-0.0972541,35.3892,0.09768679,
2,0,0,1,0,42560.3,0.0959835,0.0956146,-9.39587,22,0.00823648,10,-0.000898382,-2.02706,-0.978117,-0.06032,22.0964,0.0956146,
2,0,0,1,0,42560.3,0.0939859,0.0936623,-9.43087,22,0.00804813,10,-0.000883317,-2.02545,-1.6936,-0.034837,12.809,0.0936623,
2,0,0,1,0,42560.3,0.0919883,0.0916448,-9.44672,22,0.0078593,10,-0.000865743,-2.02472,-4.02525,-0.0146575,5.40098,0.0916448,
2,0,0,1,0,42560.4,0.0899907,0.0896562,-9.45251,22,0.00767111,10,-0.000847476,-2.02445,3.0196,0.019539,-7.19258,0.0896562,
2,0,0,1,0,42560.4,0.0879931,0.0876438,-9.41794,22,0.00748231,10,-0.000825424,-2.02604,1.26387,0.046682,-17.1586,0.08764378,
2,0,0,1,0,42560.4,0.0859955,0.0856604,-9.38395,22,0.00729419,10,-0.000803833,-2.02761,0.973421,0.060611,-22.1731,0.0856604,
2,0,0,1,0,42560.4,0.083998,0.0836602,-9.32961,22,0.00710698,10,-0.000780517,-2.03014,0.75085,0.0785776,-28.6021,0.0836602,
2,0,0,1,0,42560.4,0.0820004,0.0816767,-9.27001,22,0.00692175,10,-0.000757143,-2.03292,0.672044,0.0877919,-31.7474,0.0816767,
2,0,0,1,0,42560.5,0.0800028,0.0796588,-9.20258,22,0.0067369,10,-0.000733067,-2.03609,0.656603,0.0898565,-32.2798,0.0796588,
2,0,0,1,0,42560.5,0.0780052,0.0776509,-9.14005,22,0.0065534,10,-0.000709734,-2.03905,0.611108,0.096546,-34.4158,0.0776509,
2,0,0,1,0,42560.5,0.0760076,0.0756824,-9.06573,22,0.00637129,10,-0.000686116,-2.0426,0.616344,0.0957257,-33.8926,0.0756824,
2,0,0,1,0,42560.5,0.07401,0.0736571,-9.00469,22,0.00619151,10,-0.00066326,-2.04553,0.641225,0.0920114,-32.3202,0.0736571,
2,0,0,1,0,42560.5,0.0720124,0.0716586,-8.93568,22,0.00601206,10,-0.000640318,-2.04887,0.632945,0.0932151,-32.5232,0.0716586,
2,0,0,1,0,42560.6,0.0700148,0.0696961,-8.87587,22,0.00583386,10,-0.000618613,-2.05179,0.653066,0.0903431,-31.2857,0.0696961,
2,0,0,1,0,42560.6,0.0680173,0.0676837,-8.81132,22,0.00565698,10,-0.000596382,-2.05496,0.821976,0.0717782,-24.7244,0.0676837,
2,0,0,1,0,42560.6,0.0660106,0.0656777,-8.77652,22,0.00548114,10,-0.000576422,-2.05668,0.856883,0.0688542,-23.5516,0.0656777,
2,0,0,1,0,42560.6,0.0640221,0.0637122,-8.71778,22,0.00530701,10,-0.000555429,-2.05959,0.748594,0.0788144,-26.8282,0.0637122,
2,0,0,1,0,42560.6,0.0620245,0.0616309,-8.66795,22,0.00513311,10,-0.000534213,-2.06208,0.816857,0.0722281,-24.4337,0.0616309,
2,0,0,1,0,42560.7,0.0600269,0.0596474,-8.61847,22,0.00496022,10,-0.00051407,-2.06457,0.836682,0.0705167,-23.7257,0.0596474,
2,0,0,1,0,42560.7,0.0580361,0.0576897,-8.57444,22,0.00478911,10,-0.000494657,-2.06679,0.806964,0.0731136,-24.4537,0.0576897,
2,0,0,1,0,42560.7,0.0560317,0.0556929,-8.52176,22,0.00461796,10,-0.000474602,-2.06947,0.814409,0.0724452,-24.1053,0.0556929,
2,0,0,1,0,42560.7,0.0540342,0.0536701,-8.47755,22,0.00444788,10,-0.000454991,-2.07173,0.842388,0.070039,-23.1651,0.0536701,
2,0,0,1,0,42560.7,0.0520366,0.0516468,-8.42804,22,0.00427871,10,-0.000435282,-2.07427,0.729039,0.0809284,-26.6103,0.0516468,
2,0,0,1,0,42560.8,0.050039,0.0497516,-8.37327,22,0.00411056,10,-0.000416583,-2.0771,0.762425,0.0773846,-25.3047,0.0497516,
2,0,0,1,0,42560.8,0.0480414,0.0477643,-8.32979,22,0.0039442,10,-0.000397867,-2.07937,0.80262,0.0735092,-23.8835,0.0477643,
2,0,0,1,0,42560.8,0.0460438,0.0457311,-8.27725,22,0.00377802,10,-0.000378528,-2.08211,0.720527,0.0818845,-26.4483,0.0457311,
2,0,0,1,0,42560.8,0.0440462,0.0437212,-8.22286,22,0.00361293,10,-0.000359513,-2.08498,0.66775,0.0883565,-28.3468,0.0437212,
2,0,0,1,0,42560.8,0.0420486,0.0417419,-8.16417,22,0.00344897,10,-0.000340788,-2.08809,0.705847,0.0835876,-26.6516,0.0417419,
2,0,0,1,0,42560.9,0.040051,0.0397567,-8.1172,22,0.0032868,10,-0.000322713,-2.09059,0.755915,0.0780511,-24.7159,0.0397567,
2,0,0,1,0,42560.9,0.0380535,0.0376901,-8.06402,22,0.00312491,10,-0.000303934,-2.09345,0.574458,0.102705,-32.2764,0.0376901,
2,0,0,1,0,42560.9,0.0360559,0.0357558,-7.98806,22,0.00296435,10,-0.000285619,-2.09756,0.541595,0.108937,-33.9966,0.0357558,
2,0,0,1,0,42560.9,0.0340583,0.033723,-7.92916,22,0.00280508,10,-0.000267395,-2.10077,0.623908,0.0945652,-29.2633,0.033723,
2,0,0,1,0,42560.9,0.0320607,0.0317405,-7.87056,22,0.00264781,10,-0.000249816,-2.10399,0.529818,0.111359,-34.1613,0.0317405,
2,0,0,1,0,42561,0.0300631,0.0297102,-7.79207,22,0.00249115,10,-0.000231504,-2.10835,0.481458,0.122544,-37.281,0.0297102,
2,0,0,1,0,42561,0.0280655,0.0277135,-7.72043,22,0.00233594,10,-0.00021396,-2.11236,0.488642,0.120743,-36.3766,0.02771353,
2,0,0,1,0,42561,0.0260679,0.0257401,-7.64765,22,0.00218212,10,-0.000196851,-2.11647,0.481193,0.122612,-36.5935,0.0257401,
2,0,0,1,0,42561,0.0240704,0.0237295,-7.57464,22,0.00203058,10,-0.000179742,-2.12064,0.453342,0.130145,-38.4488,0.0237295,
2,0,0,1,0,42561,0.0220728,0.0217119,-7.49277,22,0.00187979,10,-0.000162682,-2.12536,0.423878,0.139191,-40.7068,0.0217119,
2,0,0,1,0,42561.1,0.0200752,0.0197636,-7.4132,22,0.0017306,10,-0.000146512,-2.12999,0.418667,0.140923,-40.7614,0.0197636,
2,0,0,1,0,42561.1,0.0180776,0.0177352,-7.33068,22,0.00158303,10,-0.000130011,-2.13486,0.451909,0.130557,-37.389,0.0177352,
2,0,0,1,0,42561.1,0.01608,0.0157557,-7.26335,22,0.00143778,10,-0.000114439,-2.13886,0.479452,0.123057,-34.8664,0.0157557,
2,0,0,1,0,42561.1,0.0140824,0.0136935,-7.18976,22,0.00129319,10,-9.84528e-05,-2.14329,0.437191,0.134952,-37.8505,0.0136935,
2,0,0,1,0,42561.1,0.0120848,0.0117175,-7.1105,22,0.00115015,10,-8.33175e-05,-2.1481,0.427243,0.138095,-38.3414,0.0117175,
2,0,0,1,0,42561.2,0.0100872,0.00976647,-7.03919,22,0.00100866,10,-6.87481e-05,-2.15248,0.483769,0.121959,-33.5256,0.00976647,
2,0,0,1,0,42561.2,0.00809193,0.00774297,-6.97726,22,0.000869212,10,-5.40247e-05,-2.15632,0.501679,0.117605,-32.0137,0.00774297,
2,0,0,1,0,42561.2,0.00609208,0.00577004,-6.91125,22,0.000730267,10,-3.98782e-05,-2.16044,0.485274,0.121581,-32.7958,0.00577004,
2,0,0,1,0,42561.2,0.00409449,0.00376153,-6.84668,22,0.000592677,10,-2.5754e-05,-2.16452,0.84114,0.0701429,-18.8152,0.00376153,
2,0,0,1,0,42561.2,0.0020969,0.00173697,-6.83537,22,0.000456182,10,-1.18729e-05,-2.16524,0.773591,0.0762677,-20.2564,0.00173697,
2,0,0,1,0,42561.3,9.14991e-05,-0.000299295,-6.76442,22,0.000320201,10,2.02456e-06,-2.16977,0.506299,0.116532,-30.8015,-0.000299295,
2,0,0,1,0,42561.3,-0.00189827,-0.00231829,-6.71046,22,0.000185989,10,1.55568e-05,-2.17325,0.639781,0.092219,-24.1723,-0.00231829,
2,0,0,1,0,42561.3,-0.00389586,-0.00426686,-6.66852,22,5.20754e-05,10,2.84536e-05,-2.17597,0.813679,0.0725102,-18.8835,-0.00426686,
2,0,0,1,0,42561.3,-0.00589345,-0.0062814,-6.63562,22,-8.10427e-05,10,4.1681e-05,-2.17812,0.873528,0.0675422,-17.4854,-0.0062814,
2,0,0,1,0,42561.3,-0.00789103,-0.00827602,-6.59842,22,-0.000213485,10,5.46087e-05,-2.18056,1.119,0.0527256,-13.5988,-0.00827602,
2,0,0,1,0,42561.4,-0.00988862,-0.0102382,-6.58182,22,-0.000344777,10,6.73856e-05,-2.18165,1.55885,0.0378484,-9.71787,-0.0102382,
2,0,0,1,0,42561.4,-0.0118862,-0.0122697,-6.55961,22,-0.000476331,10,8.04841e-05,-2.18312,1.48214,0.0398073,-10.1933,-0.0122697,
2,0,0,1,0,42561.4,-0.0138838,-0.0142578,-6.54084,22,-0.00060751,10,9.32578e-05,-2.18437,2.49287,0.0236675,-6.0478,-0.0142578,
2,0,0,1,0,42561.4,-0.0158814,-0.0162446,-6.53557,22,-0.000738389,10,0.000106168,-2.18472,83.2471,0.000708733,-0.180907,-0.0162446,
2,0,0,1,0,42561.4,-0.017879,-0.0182433,-6.54012,22,-0.000868626,10,0.000119314,-2.18441,-11.8025,-0.00499892,1.27554,-0.0182433,
2,0,0,1,0,42561.5,-0.0198766,-0.020255,-6.54068,22,-0.000999509,10,0.000132481,-2.18438,-409.988,-0.000143907,0.0367312,-0.020255,
2,0,0,1,0,42561.5,-0.0218741,-0.022189,-6.54027,22,-0.00113035,10,0.000145122,-2.1844,-4.76846,-0.012373,3.1614,-0.022189,
2,0,0,1,0,42561.5,-0.0238717,-0.0242438,-6.55329,22,-0.00126138,10,0.000158877,-2.18354,-1.72428,-0.0342172,8.75766,-0.0242438,
2,0,0,1,0,42561.5,-0.0258693,-0.0262715,-6.57602,22,-0.00139211,10,0.000172762,-2.18204,-2.10757,-0.0279944,7.17536,-0.0262715,
2,0,0,1,0,42561.5,-0.0278669,-0.0282453,-6.582,22,-0.00152376,10,0.000185911,-2.18164,-1.89044,-0.0312097,8.0291,-0.0282453,
2,0,0,1,0,42561.6,-0.0298645,-0.0302412,-6.60789,22,-0.00165575,10,0.000199831,-2.17994,-1.29661,-0.0455032,11.7305,-0.03024124,
2,0,0,1,0,42561.6,-0.0318621,-0.0322706,-6.62922,22,-0.00178818,10,0.000213929,-2.17854,-1.09152,-0.0540532,13.9982,-0.0322706,
2,0,0,1,0,42561.6,-0.0338597,-0.0342219,-6.66362,22,-0.00192047,10,0.000228042,-2.17629,-1.03049,-0.0572544,14.8782,-0.0342219,
2,0,0,1,0,42561.6,-0.0358573,-0.0362136,-6.68789,22,-0.00205406,10,0.000242193,-2.17471,-0.957957,-0.0615894,16.095,-0.0362136,
2,0,0,1,0,42561.6,-0.0378548,-0.0382635,-6.72866,22,-0.00218835,10,0.000257462,-2.17207,-0.931017,-0.0633715,16.6238,-0.0382635,
2,0,0,1,0,42561.7,-0.0398524,-0.0402739,-6.75538,22,-0.00232325,10,0.000272065,-2.17035,-0.84202,-0.0700696,18.4998,-0.0402739,
2,0,0,1,0,42561.7,-0.04185,-0.0422073,-6.80162,22,-0.00245818,10,0.000287078,-2.16739,-0.733821,-0.0804011,21.33,-0.0422073,
2,0,0,1,0,42561.7,-0.0438476,-0.0442548,-6.8403,22,-0.00259469,10,0.000302716,-2.16492,-0.816125,-0.0722929,19.299,-0.04425481,
2,0,0,1,0,42561.7,-0.0458452,-0.0462238,-6.87914,22,-0.002732,10,0.00031798,-2.16247,-0.739904,-0.0797401,21.4186,-0.0462238,
2,0,0,1,0,42561.7,-0.0478428,-0.0482094,-6.925,22,-0.00287013,10,0.00033385,-2.15958,-0.588752,-0.100212,27.1156,-0.0482094,
2,0,0,1,0,42561.8,-0.0498495,-0.0502239,-6.98761,22,-0.00300927,10,0.000350945,-2.15567,-0.62147,-0.0949363,25.8488,-0.0502239,
2,0,0,1,0,42561.8,-0.051838,-0.0522126,-7.02848,22,-0.00314881,10,0.000366975,-2.15314,-0.705581,-0.0836191,22.9528,-0.0522126,
2,0,0,1,0,42561.8,-0.0538355,-0.0542242,-7.07942,22,-0.00328995,10,0.000383876,-2.15,-0.616135,-0.0957582,26.4634,-0.0542242,
2,0,0,1,0,42561.8,-0.0558331,-0.0562051,-7.13413,22,-0.00343219,10,0.000400975,-2.14666,-0.558442,-0.105651,29.4317,-0.0562051,
2,0,0,1,0,42561.8,-0.0578217,-0.0582181,-7.19697,22,-0.00357484,10,0.000418993,-2.14285,-0.542539,-0.108748,30.5345,-0.0582181,
2,0,0,1,0,42561.9,-0.0598283,-0.0601767,-7.2554,22,-0.00371945,10,0.000436606,-2.13934,-0.526547,-0.112051,31.7474,-0.0601767,
2,0,0,1,0,42561.9,-0.0618259,-0.0621926,-7.32315,22,-0.00386529,10,0.000455445,-2.1353,-0.531728,-0.110959,31.6968,-0.0621926,
2,0,0,1,0,42561.9,-0.0638235,-0.064241,-7.38423,22,-0.00401245,10,0.00047437,-2.13169,-0.52555,-0.112263,32.369,-0.064241,
2,0,0,1,0,42561.9,-0.0658211,-0.0662113,-7.45323,22,-0.00416089,10,0.000493488,-2.12766,-0.482321,-0.122325,35.5868,-0.0662113,
2,0,0,1,0,42561.9,-0.0678187,-0.0681945,-7.52492,22,-0.00431007,10,0.000513158,-2.1235,-0.455795,-0.129444,38.0329,-0.0681945,
2,0,0,1,0,42562,-0.0698162,-0.070187,-7.60444,22,-0.00446145,10,0.000533733,-2.11893,-0.468361,-0.125971,37.3616,-0.070187,
2,0,0,1,0,42562,-0.0718138,-0.0722045,-7.67474,22,-0.00461429,10,0.00055415,-2.11494,-0.467418,-0.126225,37.8332,-0.0722045,
2,0,0,1,0,42562,-0.0738114,-0.0741962,-7.75612,22,-0.00476867,10,0.000575474,-2.11036,-0.414951,-0.142185,43.0637,-0.0741962,
2,0,0,1,0,42562,-0.075809,-0.0762044,-7.84699,22,-0.00492407,10,0.000597975,-2.1053,-0.416171,-0.141769,43.3863,-0.0762044,
2,0,0,1,0,42562,-0.0778066,-0.0781543,-7.92785,22,-0.00508193,10,0.000619596,-2.10084,-0.435155,-0.135584,41.9612,-0.0781543,
2,0,0,1,0,42562.1,-0.0798042,-0.0801776,-8.01371,22,-0.00524144,10,0.00064252,-2.09617,-0.404381,-0.145902,45.6645,-0.08017759,
2,0,0,1,0,42562.1,-0.0818018,-0.0821891,-8.1121,22,-0.00540283,10,0.000666726,-2.09087,-0.379571,-0.155438,49.2105,-0.0821891,
2,0,0,1,0,42562.1,-0.0837994,-0.0841946,-8.21139,22,-0.00556536,10,0.000691355,-2.08558,-0.386758,-0.15255,48.8705,-0.0841946,
2,0,0,1,0,42562.1,-0.085797,-0.0861552,-8.30592,22,-0.00573056,10,0.000715598,-2.08061,-0.394952,-0.149385,48.4336,-0.0861552,
2,0,0,1,0,42562.1,-0.0877945,-0.0881826,-8.40455,22,-0.00589777,10,0.000741135,-2.07549,-0.385376,-0.153097,50.2251,-0.0881826,
2,0,0,1,0,42562.2,-0.0897921,-0.0901573,-8.50693,22,-0.00606701,10,0.000766962,-2.07023,-0.380855,-0.154915,51.4286,-0.09015733,
2,0,0,1,0,42562.2,-0.0917897,-0.0921614,-8.60917,22,-0.00623739,10,0.000793433,-2.06504,-0.385106,-0.153205,51.4748,-0.0921614,
2,0,0,1,0,42562.2,-0.0937873,-0.0941443,-8.71216,22,-0.00641071,10,0.0008202,-2.05987,-0.395512,-0.149174,50.7093,-0.0941443,
2,0,0,1,0,42562.2,-0.0957849,-0.0961645,-8.81216,22,-0.00658603,10,0.000847418,-2.05492,-0.410212,-0.143828,49.4567,-0.0961645,
2,0,0,1,0,42562.2,-0.0977825,-0.0981505,-8.91029,22,-0.00676332,10,0.000874549,-2.05011,-0.407593,-0.144752,50.3498,-0.0981505,
2,0,0,1,0,42562.3,-0.0997501,-0.100173,-9.01399,22,-0.00693903,10,0.000902959,-2.04508,0.00931917,6.33104,-1969.75,-0.100173,
2,0,0,1,1,42562.3,-0.0987313,-0.0990684,-7.1022,22,-0.00706187,10,0.000703603,-2.14861,-0.0132752,-4.44438,1211.7,-0.0990684,
2,0,0,1,1,42562.3,-0.0967337,-0.0970976,-5.28752,22,-0.00718428,10,0.000513406,-2.27675,-0.0154039,-3.8302,800.315,-0.0970976,
2,0,0,1,1,42562.3,-0.0947362,-0.0950913,-3.91926,22,-0.0072755,10,0.000372688,-2.4068,-0.0145951,-4.04246,618.997,-0.0950913,
2,0,0,1,1,42562.3,-0.0927386,-0.0931066,-2.81712,22,-0.00734223,10,0.000262292,-2.5502,-0.0123398,-4.78129,517.719,-0.09310665,
2,0,0,1,1,42562.3,-0.090741,-0.0911482,-1.87786,22,-0.00738849,10,0.000171163,-2.72634,-0.00971206,-6.07492,432.91,-0.0911482,
2,0,0,1,1,42562.4,-0.0887434,-0.0891403,-1.10005,22,-0.00741793,10,9.80583e-05,-2.95859,-0.00608841,-9.69055,364.025,-0.0891403,
2,0,0,1,1,42562.4,-0.0867458,-0.0871096,-0.40769,22,-0.00743263,10,3.55137e-05,-3.38967,-0.00523716,-11.2656,324.502,-0.0871096,
2,1,0,1,1,42562.4,-0.0847482,-0.085161,0.191245,22,-0.00743446,10,-1.62866e-05,-3.71841,0.0160936,3.66605,283.999,-0.085161,
2,1,0,1,1,42562.4,-0.0827529,-0.0831413,0.719287,22,-0.00742516,10,-5.98025e-05,-3.1431,0.00505955,11.6611,248.174,-0.0831413,
2,1,0,1,1,42562.4,-0.080753,-0.0811502,1.18663,22,-0.00740584,10,-9.62949e-05,-2.92569,0.0114777,5.14039,221.168,-0.0811502,
2,1,0,1,1,42562.5,-0.0787555,-0.079149,1.60225,22,-0.00737769,10,-0.000126817,-2.79527,0.018198,3.24211,195.881,-0.079149,
2,1,0,1,1,42562.5,-0.0767579,-0.077118,1.97645,22,-0.00734168,10,-0.00015242,-2.70411,0.0251451,2.34638,177.306,-0.07711798,
2,1,0,1,1,42562.5,-0.0747603,-0.0751364,2.31373,22,-0.00729854,10,-0.000173845,-2.63569,0.0321128,1.83727,164.021,-0.0751364,
2,1,0,1,1,42562.5,-0.0727627,-0.073136,2.62958,22,-0.00724905,10,-0.000192317,-2.58011,0.0410429,1.43752,145.373,-0.073136,
2,1,0,1,1,42562.5,-0.0707651,-0.0711717,2.89009,22,-0.00719362,10,-0.000205692,-2.53909,0.0511186,1.15418,129.716,-0.0711717,
2,1,0,1,1,42562.6,-0.0687675,-0.06916,3.14533,22,-0.00713304,10,-0.000217531,-2.50233,0.0594544,0.992358,121.063,-0.06916,
2,1,0,1,1,42562.6,-0.0667699,-0.067172,3.37429,22,-0.00706767,10,-0.000226658,-2.47182,0.0719169,0.820391,107.471,-0.067172,
2,1,0,1,1,42562.6,-0.0647723,-0.0651411,3.57725,22,-0.00699828,10,-0.000233026,-2.44645,0.0852977,0.691695,96.2439,-0.0651411,
2,1,0,1,1,42562.6,-0.0627748,-0.0631296,3.76336,22,-0.00692471,10,-0.000237579,-2.42442,0.0971477,0.607323,88.9286,-0.0631296,
2,1,0,1,1,42562.6,-0.0607772,-0.0611488,3.93227,22,-0.00684756,10,-0.000240454,-2.40536,0.11328,0.520831,79.706,-0.0611488,
2,1,0,1,1,42562.7,-0.0587796,-0.0591117,4.08361,22,-0.00676722,10,-0.000241389,-2.38896,0.132043,0.446824,71.0463,-0.0591117,
2,1,0,1,1,42562.7,-0.056782,-0.0571064,4.21948,22,-0.0066844,10,-0.000240959,-2.37474,0.148735,0.396679,65.2162,-0.0571064,
2,1,0,1,1,42562.7,-0.0547844,-0.0551138,4.34433,22,-0.00659857,10,-0.000239433,-2.36208,0.164669,0.358294,60.6607,-0.05511383,
2,1,0,1,1,42562.7,-0.0527868,-0.0531574,4.45902,22,-0.00651036,10,-0.00023703,-2.35076,0.192003,0.307286,53.3431,-0.0531574,
2,1,0,1,1,42562.7,-0.0507892,-0.0511939,4.55343,22,-0.0064201,10,-0.000233108,-2.34166,0.214606,0.274922,48.8905,-0.0511939,
2,1,0,1,1,42562.8,-0.0487916,-0.0491325,4.6558,22,-0.00632829,10,-0.000228751,-2.33201,0.239957,0.245878,44.5507,-0.0491325,
2,1,0,1,1,42562.8,-0.0467941,-0.04716,4.73315,22,-0.00623418,10,-0.000223215,-2.32485,0.287641,0.205117,37.8651,-0.04716,
2,1,0,1,1,42562.8,-0.0447965,-0.0451853,4.80526,22,-0.0061386,10,-0.000217127,-2.31828,0.327396,0.18021,33.764,-0.0451853,
2,1,0,1,1,42562.8,-0.0427989,-0.0431352,4.86904,22,-0.00604168,10,-0.000210027,-2.31256,0.33567,0.175768,33.4155,-0.0431352,
2,1,0,1,1,42562.8,-0.0408013,-0.0412149,4.93794,22,-0.00594391,10,-0.000203517,-2.30645,0.409524,0.14407,27.6818,-0.0412149,
2,1,0,1,1,42562.9,-0.0388037,-0.0391983,4.97802,22,-0.00584455,10,-0.00019513,-2.30294,0.510514,0.11557,22.4762,-0.03919832,
2,1,0,1,1,42562.9,-0.0368061,-0.037168,5.0289,22,-0.00574432,10,-0.000186914,-2.29853,0.513106,0.114986,22.5408,-0.037168,
2,1,0,1,1,42562.9,-0.0348085,-0.035197,5.06821,22,-0.00564319,10,-0.000178386,-2.29515,0.587926,0.100353,19.8509,-0.035197,
2,1,0,1,1,42562.9,-0.0328109,-0.0331568,5.10852,22,-0.00554181,10,-0.000169382,-2.2917,0.728834,0.0809512,16.1147,-0.0331568,
2,1,0,1,1,42562.9,-0.0308134,-0.0311496,5.13344,22,-0.0054393,10,-0.000159905,-2.28959,0.97079,0.0607753,12.1743,-0.03114962,
2,1,0,1,1,42563,-0.0288158,-0.0291667,5.1571,22,-0.00533625,10,-0.000150416,-2.28759,1.18224,0.0499052,10.0371,-0.02916671,
2,1,0,1,1,42563,-0.0268182,-0.0271495,5.17358,22,-0.00523277,10,-0.00014046,-2.28621,1.16219,0.0507663,10.2577,-0.0271495,
2,1,0,1,1,42563,-0.0248138,-0.0252061,5.19773,22,-0.00512898,10,-0.000131014,-2.28419,1.2439,0.0474315,9.61172,-0.0252061,
2,1,0,1,1,42563,-0.022823,-0.0232243,5.21131,22,-0.00502527,10,-0.000121029,-2.28305,2.59931,0.0226983,4.61258,-0.0232243,
2,1,0,1,1,42563,-0.0208254,-0.0211857,5.21627,22,-0.00492083,10,-0.00011051,-2.28264,3.60827,0.0163513,3.32985,-0.0211857,
2,1,0,1,1,42563.1,-0.0188278,-0.0191757,5.22479,22,-0.00481627,10,-0.000100189,-2.28193,4.13801,0.0142581,2.90581,-0.0191757,
2,1,0,1,1,42563.1,-0.0168393,-0.0171955,5.22786,22,-0.0047121,10,-8.98957e-05,-2.28168,3.50763,0.0168205,3.4343,-0.0171955,
2,1,0,1,1,42563.1,-0.0148327,-0.0151944,5.23847,22,-0.0046072,10,-7.95951e-05,-2.2808,7.96703,0.00740552,1.5118,-0.01519435,
2,1,0,1,1,42563.1,-0.0128351,-0.0131941,5.23391,22,-0.00450232,10,-6.90567e-05,-2.28117,-14.3118,-0.00412246,-0.842531,-0.0131941,
2,1,0,1,1,42563.1,-0.0108375,-0.0112225,5.23512,22,-0.00439744,10,-5.87509e-05,-2.28107,7.71281,0.00764961,1.56346,-0.0112225,
2,1,0,1,1,42563.2,-0.00883989,-0.00921394,5.24014,22,-0.00429249,10,-4.82823e-05,-2.28066,-26.3595,-0.00223829,-0.457225,-0.00921394,
2,1,0,1,1,42563.2,-0.0068423,-0.00721875,5.23329,22,-0.00418802,10,-3.77778e-05,-2.28123,-21.4491,-0.00275069,-0.562412,-0.00721875,
2,1,0,1,1,42563.2,-0.00484471,-0.00517848,5.23787,22,-0.00408312,10,-2.71242e-05,-2.28085,9.74045,0.00605721,1.2377,-0.00517848,
2,1,0,1,1,42563.2,-0.00284713,-0.00322494,5.23823,22,-0.00397822,10,-1.6893e-05,-2.28082,-4.92335,-0.0119837,-2.44742,-0.00322494,
2,1,0,1,1,42563.2,-0.000849538,-0.00123778,5.22822,22,-0.00387339,10,-6.47139e-06,-2.28165, , , ,-0.00123778,
2,1,0,1,1,42563.3,-2.55332e-05,-0.000344411,5.24773,22,-0.00383094,10,-1.80737e-06,-2.28003, , , ,-0.000344411,