File: Figure_codes/Fig_3-5/rawdata_trumpetplot_data/after 10th/20221101_1-115_003_TrumpetPlot_ParaChange_from10_every3_05_CV_C01_7.csv
mode,ox/red,error,control changes,counter inc.,time/s,control/V,Ewe/V,<I>/mA,cycle number,(Q-Qo)/C,I Range,P/W,log(|I|),Tafel slope mV/dec,alpha_eff,dI/d(E-IR),E-IR/V,
2,0,0,1,0,14910.9,2.44065e-05,-0.000248974,-0.739242,8,0.0000000E+000,10,1.84052e-07,-3.13121, , , ,-0.000248974,
2,1,0,1,0,14911,0.00129787,0.00094601,0.235453,8,-5.45616e-06,10,2.22741e-07,-3.6281, , , ,0.00094601,
2,1,0,1,0,14911.1,0.00279606,0.00246773,0.551865,8,2.75157e-05,10,1.36185e-06,-3.25817,0.00247202,23.8671,160.466,0.00246773,
2,1,0,1,0,14911.1,0.00429425,0.00399829,0.639559,8,7.38527e-05,10,2.55714e-06,-3.19412,0.0244037,2.41767,55.8429,0.00399829,
2,1,0,1,0,14911.2,0.00579244,0.0054635,0.692673,8,0.000125517,10,3.78442e-06,-3.15947,0.0461572,1.27824,33.9534,0.0054635,
2,1,0,1,0,14911.3,0.00729063,0.00699905,0.738309,8,0.000180778,10,5.16746e-06,-3.13176,0.06405,0.921156,26.338,0.00699905,
2,1,0,1,0,14911.4,0.00878882,0.00849932,0.777807,8,0.000239,10,6.61084e-06,-3.10913,0.0816187,0.722873,21.6981,0.00849932,
2,1,0,1,0,14911.4,0.010287,0.00998487,0.806506,8,0.000299657,10,8.05286e-06,-3.09339,0.100913,0.58466,18.2513,0.00998487,
2,1,0,1,0,14911.5,0.0117852,0.0115313,0.831149,8,0.000362368,10,9.58424e-06,-3.08032,0.113058,0.521858,16.8884,0.0115313,
2,1,0,1,0,14911.6,0.0132847,0.0129671,0.85677,8,0.000426948,10,1.11098e-05,-3.06714,0.110775,0.532613,17.8364,0.0129671,
2,1,0,1,0,14911.7,0.0147802,0.0144896,0.879771,8,0.000493327,10,1.27475e-05,-3.05563,0.12438,0.474353,16.2802,0.0144896,
2,1,0,1,0,14911.7,0.0162798,0.015989,0.904688,8,0.000561752,10,1.4465e-05,-3.0435,0.149827,0.393788,13.833,0.015989,
2,1,0,1,0,14911.8,0.017778,0.0174649,0.924741,8,0.000631616,10,1.61505e-05,-3.03398,0.156458,0.377097,13.5404,0.0174649,
2,1,0,1,0,14911.9,0.0192761,0.0189656,0.941967,8,0.000702823,10,1.7865e-05,-3.02596,0.164023,0.359706,13.2393,0.0189656,
2,1,0,1,0,14912,0.0207743,0.0205157,0.963169,8,0.000775615,10,1.97601e-05,-3.0163,0.149191,0.395466,14.8565,0.0205157,
2,1,0,1,0,14912,0.0222725,0.021959,0.987328,8,0.000850082,10,2.16808e-05,-3.00554,0.171092,0.344843,13.2473,0.021959,
2,1,0,1,0,14912.1,0.0237707,0.0234821,1.0058,8,0.000926111,10,2.36183e-05,-2.99749,0.178965,0.329673,12.9225,0.0234821,
2,1,0,1,0,14912.2,0.0252689,0.0249429,1.02399,8,0.00100346,10,2.55413e-05,-2.9897,0.193317,0.305198,12.204,0.0249429,
2,1,0,1,0,14912.3,0.0267671,0.0264762,1.04597,8,0.00108231,10,2.76933e-05,-2.98048,0.167416,0.352416,14.3824,0.0264762,
2,1,0,1,0,14912.3,0.0282653,0.0279623,1.0671,8,0.00116274,10,2.98386e-05,-2.9718,0.189052,0.312083,12.9689,0.0279623,
2,1,0,1,0,14912.4,0.0297644,0.0294264,1.08628,8,0.00124483,10,3.19653e-05,-2.96406,0.201291,0.293107,12.4006,0.0294264,
2,1,0,1,0,14912.5,0.0312599,0.0309604,1.09936,8,0.00132818,10,3.40365e-05,-2.95886,0.183934,0.320767,13.8328,0.0309604,
2,1,0,1,0,14912.6,0.0327599,0.0324264,1.12405,8,0.0014131,10,3.64487e-05,-2.94922,0.192767,0.30607,13.4705,0.0324264,
2,1,0,1,0,14912.6,0.034258,0.0339023,1.14588,8,0.00149959,10,3.88481e-05,-2.94086,0.198479,0.297261,13.2821,0.0339023,
2,1,0,1,0,14912.7,0.0357562,0.0354467,1.16638,8,0.00158772,10,4.13444e-05,-2.93316,0.225874,0.261207,11.85,0.0354467,
2,1,0,1,0,14912.8,0.0372544,0.0369342,1.18496,8,0.00167727,10,4.37657e-05,-2.9263,0.225539,0.261595,12.1234,0.0369342,
2,1,0,1,0,14912.9,0.0387526,0.0384654,1.20511,8,0.00176807,10,4.63552e-05,-2.91897,0.204752,0.288153,13.5912,0.0384654,
2,1,0,1,0,14912.9,0.0402508,0.0399033,1.22367,8,0.00186053,10,4.88285e-05,-2.91234,0.203472,0.289966,13.8824,0.0399033,
2,1,0,1,0,14913,0.041749,0.0414528,1.24631,8,0.0019547,10,5.16629e-05,-2.90438,0.234113,0.252015,12.2443,0.04145281,
2,1,0,1,0,14913.1,0.0432472,0.0429786,1.26735,8,0.00205027,10,5.44689e-05,-2.8971,0.241772,0.244031,12.0378,0.0429786,
2,1,0,1,0,14913.2,0.0447449,0.0444175,1.28479,8,0.00214704,10,5.70672e-05,-2.89117,0.237254,0.248679,12.4553,0.0444175,
2,1,0,1,0,14913.2,0.0462445,0.0459435,1.30336,8,0.00224537,10,5.98811e-05,-2.88493,0.217403,0.271385,13.7683,0.0459435,
2,1,0,1,0,14913.3,0.04774,0.0473713,1.32163,8,0.00234493,10,6.26076e-05,-2.87889,0.236742,0.249217,12.8515,0.0473713,
2,1,0,1,0,14913.4,0.0492399,0.0489639,1.33798,8,0.00244615,10,6.55126e-05,-2.87355,0.275806,0.213918,11.1946,0.0489639,
2,1,0,1,0,14913.5,0.0507381,0.0504058,1.35257,8,0.00254854,10,6.81775e-05,-2.86884,0.259176,0.227645,12.0593,0.0504058,
2,1,0,1,0,14913.5,0.0522363,0.0519305,1.37439,8,0.0026522,10,7.13729e-05,-2.86189,0.255078,0.231302,12.4043,0.05193055,
2,1,0,1,0,14913.6,0.0537345,0.0534223,1.39469,8,0.00275739,10,7.45076e-05,-2.85552,0.256561,0.229965,12.4844,0.0534223,
2,1,0,1,0,14913.7,0.0552327,0.0549203,1.41122,8,0.00286388,10,7.75043e-05,-2.85041,0.342978,0.172023,9.45126,0.0549203,
2,1,0,1,0,14913.8,0.0567309,0.0564245,1.42322,8,0.0029715,10,8.03047e-05,-2.84673,0.322705,0.18283,10.1808,0.05642448,
2,1,0,1,0,14913.8,0.0582291,0.057922,1.44006,8,0.00308011,10,8.34114e-05,-2.84162,0.308342,0.191346,10.7841,0.057922,
2,1,0,1,0,14913.9,0.0597291,0.0593917,1.46041,8,0.00319035,10,8.67365e-05,-2.83552,0.307839,0.191658,10.9043,0.0593917,
2,1,0,1,0,14914,0.0612246,0.0609142,1.47375,8,0.00330155,10,8.97723e-05,-2.83158,0.335316,0.175954,10.1129,0.0609142,
2,1,0,1,0,14914.1,0.0627241,0.06243,1.4912,8,0.00341414,10,9.30957e-05,-2.82646,0.342575,0.172225,10.0197,0.06243002,
2,1,0,1,0,14914.1,0.0642219,0.0639414,1.50273,8,0.00352752,10,9.6087e-05,-2.82312,0.311058,0.189675,11.1566,0.0639414,
2,1,0,1,0,14914.2,0.06572,0.0654306,1.52138,8,0.00364233,10,9.95447e-05,-2.81776,0.305004,0.19344,11.4674,0.0654306,
2,1,0,1,0,14914.3,0.0672182,0.0669195,1.5373,8,0.00375842,10,0.000102875,-2.81324,0.370479,0.159253,9.5435,0.06691955,
2,1,0,1,0,14914.4,0.0687164,0.0683676,1.55413,8,0.00387555,10,0.000106253,-2.80851,0.452997,0.130244,7.87744,0.06836763,
2,1,0,1,0,14914.4,0.0702146,0.0699098,1.55803,8,0.00399339,10,0.000108921,-2.80742,0.434163,0.135894,8.29352,0.0699098,
2,1,0,1,0,14914.5,0.0717128,0.0714219,1.57572,8,0.00411222,10,0.000112541,-2.80252,0.355562,0.165935,10.2016,0.0714219,
2,1,0,1,0,14914.6,0.073211,0.0728832,1.59158,8,0.00423231,10,0.000116,-2.79817,0.407141,0.144913,8.98686,0.0728832,
2,1,0,1,0,14914.7,0.0747092,0.0743816,1.60409,8,0.00435336,10,0.000119314,-2.79477,0.467982,0.126073,7.87941,0.07438159,
2,1,0,1,0,14914.7,0.0762087,0.0759108,1.60916,8,0.00447534,10,0.000122153,-2.7934,0.448833,0.131452,8.27675,0.0759108,
2,1,0,1,0,14914.8,0.0777042,0.077393,1.62672,8,0.00459788,10,0.000125897,-2.78869,0.426305,0.138399,8.78308,0.077393,
2,1,0,1,0,14914.9,0.0792037,0.0788564,1.64347,8,0.00472182,10,0.000129598,-2.78424,0.482793,0.122206,7.81318,0.0788564,
2,1,0,1,0,14915,0.0807019,0.0804014,1.65092,8,0.00484653,10,0.000132736,-2.78227,0.560426,0.105277,6.77325,0.0804014,
2,1,0,1,0,14915,0.0822001,0.0819115,1.65728,8,0.00497201,10,0.00013575,-2.7806,0.498087,0.118453,7.68206,0.0819115,
2,1,0,1,0,14915.1,0.0836983,0.083364,1.67295,8,0.00509818,10,0.000139464,-2.77652,0.483235,0.122094,7.98911,0.083364,
2,1,0,1,0,14915.2,0.0851965,0.0848876,1.68603,8,0.00522545,10,0.000143123,-2.77313,0.439528,0.134235,8.83828,0.0848876,
2,1,0,1,0,14915.3,0.0866947,0.0863386,1.70177,8,0.00535381,10,0.000146929,-2.7691,0.455827,0.129435,8.58892,0.0863386,
2,1,0,1,0,14915.3,0.0881929,0.0878984,1.71526,8,0.00548328,10,0.000150768,-2.76567,0.401639,0.146898,9.84001,0.0878984,
2,1,0,1,0,14915.4,0.0896911,0.0893726,1.7315,8,0.00561371,10,0.000154749,-2.76158,0.328329,0.179698,12.1723,0.0893726,
2,1,0,1,0,14915.5,0.0911893,0.090856,1.75317,8,0.0057456,10,0.000159286,-2.75618,0.27206,0.216864,14.8343,0.090856,
2,1,0,1,0,14915.6,0.0926884,0.0923818,1.77726,8,0.00587939,10,0.000164186,-2.75025,0.263419,0.223978,15.5049,0.0923818,
2,1,0,1,0,14915.6,0.0941839,0.0938805,1.79515,8,0.00601438,10,0.000168529,-2.7459,0.277772,0.212404,14.899,0.0938805,
2,1,0,1,0,14915.7,0.0956838,0.095384,1.81668,8,0.00615124,10,0.000173282,-2.74072,0.239031,0.24683,17.5557,0.095384,
2,1,0,1,0,14915.8,0.097182,0.0968415,1.84463,8,0.00628992,10,0.000178637,-2.73409,0.217324,0.271485,19.5604,0.0968415,
2,1,0,1,0,14915.9,0.0986802,0.0983772,1.87716,8,0.00643083,10,0.00018467,-2.7265,0.201413,0.292931,21.4696,0.0983772,
2,1,0,1,0,14915.9,0.100178,0.0998854,1.90853,8,0.00657404,10,0.000190634,-2.7193,0.220974,0.267,19.8816,0.0998854,
2,1,0,1,0,14916,0.101677,0.101336,1.93495,8,0.00671961,10,0.00019608,-2.71333,0.196351,0.300482,22.7744,0.101336,
2,1,0,1,0,14916.1,0.103175,0.102864,1.98099,8,0.00686764,10,0.000203772,-2.70312,0.193154,0.305456,23.5733,0.102864,
2,1,0,1,0,14916.2,0.104673,0.104403,2.01859,8,0.00701846,10,0.000210746,-2.69495,0.195086,0.302431,23.7445,0.104403,
2,1,0,1,0,14916.2,0.106171,0.105859,2.04992,8,0.0071721,10,0.000217003,-2.68826,0.21398,0.275727,21.9867,0.105859,
2,1,0,1,0,14916.3,0.107669,0.107382,2.07874,8,0.00732827,10,0.000223219,-2.6822,0.214783,0.274695,22.3193,0.107382,
2,1,0,1,0,14916.4,0.109168,0.10882,2.11521,8,0.00748694,10,0.000230177,-2.67465,0.213652,0.27615,22.7929,0.10882,
2,1,0,1,0,14916.5,0.110664,0.110337,2.14776,8,0.00764788,10,0.000236978,-2.66801,0.219152,0.269219,22.5691,0.110337,
2,1,0,1,0,14916.5,0.112164,0.111836,2.18061,8,0.00781167,10,0.000243871,-2.66142,0.264736,0.222864,18.9189,0.111836,
2,1,0,1,0,14916.6,0.113662,0.113387,2.20668,8,0.00797758,10,0.000250209,-2.65626,0.294082,0.200624,17.261,0.113387,
2,1,0,1,0,14916.7,0.11516,0.114812,2.23157,8,0.00814515,10,0.000256212,-2.65139,0.320107,0.184313,16.0455,0.114812,
2,1,0,1,0,14916.8,0.116658,0.116371,2.25596,8,0.00831463,10,0.000262528,-2.64667,0.316139,0.186627,16.4188,0.116371,
2,1,0,1,0,14916.8,0.118157,0.117842,2.27996,8,0.00848605,10,0.000268675,-2.64207,0.378781,0.155763,13.8373,0.117842,
2,1,0,1,0,14916.9,0.119655,0.119346,2.29729,8,0.00865898,10,0.000274171,-2.63879,0.49884,0.118274,10.6034,0.119346,
2,1,0,1,0,14917,0.121153,0.120871,2.30964,8,0.00883296,10,0.000279169,-2.63646,0.479352,0.123083,11.1299,0.120871,
2,1,0,1,0,14917.1,0.122653,0.122346,2.33323,8,0.00900849,10,0.00028546,-2.63204,0.391022,0.150887,13.7191,0.122346,
2,1,0,1,0,14917.1,0.124149,0.123817,2.34842,8,0.009185,10,0.000290776,-2.62922,0.443676,0.13298,12.1914,0.1238174,
2,1,0,1,0,14917.2,0.125648,0.125281,2.36696,8,0.00936337,10,0.000296534,-2.62581,0.476433,0.123837,11.4381,0.125281,
2,1,0,1,0,14917.3,0.127146,0.126817,2.37931,8,0.00954283,10,0.000301738,-2.62355,0.471257,0.125197,11.6471,0.126817,
2,1,0,1,0,14917.4,0.128644,0.128295,2.39904,8,0.0097233,10,0.000307784,-2.61996,0.494602,0.119288,11.1929,0.128295,
2,1,0,1,0,14917.4,0.130142,0.129806,2.42102,8,0.0099053,10,0.000314261,-2.616,0.510141,0.115654,10.9029,0.129806,
2,1,0,1,0,14917.5,0.13164,0.131306,2.43371,8,0.0100887,10,0.000319561,-2.61373,0.734862,0.0802871,7.60973,0.1313061,
2,1,0,1,0,14917.6,0.133139,0.13283,2.44554,8,0.0102729,10,0.000324841,-2.61162,1.41792,0.0416103,3.96459,0.13283,
2,1,0,1,0,14917.7,0.134637,0.134339,2.45065,8,0.0104575,10,0.000329218,-2.61072,5.4221,0.0108814,1.03882,0.134339,
2,1,0,1,0,14917.7,0.136135,0.135804,2.44879,8,0.0106425,10,0.000332557,-2.61105,-3.06123,-0.0192733,-1.8359,0.1358044,
2,1,0,1,0,14917.8,0.137633,0.137327,2.44676,8,0.0108273,10,0.000336006,-2.61141,-0.64871,-0.0909497,-8.63447,0.1373267,
2,1,0,1,0,14917.9,0.139133,0.138818,2.42634,8,0.0110114,10,0.00033682,-2.61505,-0.315355,-0.187091,-17.6036,0.138818,
2,1,0,1,0,14918,0.140628,0.140316,2.38882,8,0.0111927,10,0.00033519,-2.62182,-0.22455,-0.262748,-24.4137,0.140316,
2,1,0,1,0,14918,0.142128,0.141827,2.34748,8,0.0113718,10,0.000332935,-2.6294,-0.166855,-0.353601,-32.2148,0.141827,
2,1,0,1,0,14918.1,0.143626,0.143339,2.29172,8,0.0115471,10,0.000328492,-2.63984,-0.127595,-0.462401,-41.1057,0.143339,
2,1,0,1,0,14918.2,0.145124,0.144804,2.2212,8,0.0117176,10,0.00032164,-2.65341,-0.0990534,-0.595638,-51.4237,0.144804,
2,1,0,1,0,14918.3,0.146622,0.1463,2.13797,8,0.0118824,10,0.000312785,-2.67,-0.089463,-0.65949,-54.9739,0.1463,
2,1,0,1,0,14918.3,0.14812,0.147784,2.0564,8,0.012041,10,0.000303902,-2.68689,-0.0856275,-0.689031,-55.1887,0.147784,
2,1,0,1,0,14918.4,0.149619,0.149298,1.97066,8,0.0121933,10,0.000294215,-2.70539,-0.0766967,-0.769264,-59.0363,0.149298,
2,1,0,1,0,14918.5,0.151117,0.150771,1.88146,8,0.012339,10,0.000283669,-2.72551,-0.0705724,-0.83602,-61.2975,0.150771,
2,1,0,1,0,14918.6,0.152615,0.152308,1.79027,8,0.012478,10,0.000272673,-2.74708,-0.0712618,-0.827933,-58.0169,0.152308,
2,1,0,1,0,14918.6,0.154113,0.153787,1.70742,8,0.0126104,10,0.000262579,-2.76766,-0.074169,-0.795481,-53.2102,0.153787,
2,1,0,1,0,14918.7,0.155613,0.155287,1.63288,8,0.012737,10,0.000253565,-2.78705,-0.0780731,-0.755702,-48.292,0.155287,
2,1,0,1,0,14918.8,0.157108,0.156755,1.56099,8,0.0128579,10,0.000244693,-2.8066,-0.08058,-0.732191,-44.7594,0.156755,
2,1,0,1,0,14918.9,0.158608,0.158269,1.49982,8,0.012974,10,0.000237375,-2.82396,-0.0835599,-0.706081,-41.4469,0.158269,
2,1,0,1,0,14918.9,0.160106,0.159761,1.43683,8,0.0130852,10,0.00022955,-2.84259,-0.092639,-0.636881,-35.9711,0.159761,
2,1,0,1,0,14919,0.161604,0.161327,1.38993,8,0.0131927,10,0.000224233,-2.85701,-0.105922,-0.557011,-30.3016,0.161327,
2,1,0,1,0,14919.1,0.163102,0.162797,1.34704,8,0.0132966,10,0.000219294,-2.87062,-0.1096,-0.538319,-28.3683,0.162797,
2,1,0,1,0,14919.2,0.164601,0.1643,1.30914,8,0.0133973,10,0.000215091,-2.88301,-0.125998,-0.46826,-23.9518,0.1643,
2,1,0,1,0,14919.2,0.166099,0.16578,1.27054,8,0.0134952,10,0.000210631,-2.89601,-0.137527,-0.429007,-21.325,0.16578,
2,1,0,1,0,14919.3,0.167597,0.167277,1.2425,8,0.0135908,10,0.000207842,-2.9057,-0.15627,-0.377553,-18.3291,0.167277,
2,1,0,1,0,14919.4,0.169095,0.168749,1.21875,8,0.0136844,10,0.000205663,-2.91409,-0.167381,-0.352489,-16.7642,0.168749,
2,1,0,1,0,14919.5,0.170593,0.170266,1.19372,8,0.013776,10,0.000203249,-2.9231,-0.166569,-0.354208,-16.5149,0.170266,
2,1,0,1,0,14919.5,0.172092,0.17176,1.1653,8,0.0138659,10,0.000200152,-2.93356,-0.195098,-0.302412,-13.8407,0.17176,
2,1,0,1,0,14919.6,0.173588,0.173263,1.15032,8,0.013954,10,0.000199308,-2.93918,-0.247493,-0.238391,-10.7241,0.173263,
2,1,0,1,0,14919.7,0.175088,0.174769,1.13477,8,0.0140411,10,0.000198323,-2.94509,-0.237982,-0.247918,-10.9849,0.174769,
2,1,0,1,0,14919.8,0.176586,0.17626,1.11946,8,0.014127,10,0.000197317,-2.95099,-0.252833,-0.233355,-10.1961,0.17626,
2,1,0,1,0,14919.8,0.178084,0.177816,1.10249,8,0.0142116,10,0.00019604,-2.95763,-0.280095,-0.210643,-9.09342,0.177816,
2,1,0,1,0,14919.9,0.179582,0.179236,1.09162,8,0.0142953,10,0.000195657,-2.96193,-0.350164,-0.168492,-7.19068,0.1792365,
2,1,0,1,0,14920,0.181081,0.180761,1.0842,8,0.0143781,10,0.000195981,-2.96489,-0.342347,-0.17234,-7.29551,0.180761,
2,1,0,1,0,14920.1,0.182579,0.182259,1.07127,8,0.0144602,10,0.000195249,-2.9701,-0.342774,-0.172125,-7.20808,0.1822587,
2,1,0,1,0,14920.1,0.184077,0.183748,1.06574,8,0.0145416,10,0.000195828,-2.97235,-0.388132,-0.15201,-6.30961,0.183748,
2,1,0,1,0,14920.2,0.185577,0.185226,1.05591,8,0.0146223,10,0.000195582,-2.97637,-0.450256,-0.131037,-5.39541,0.185226,
2,1,0,1,0,14920.3,0.187073,0.186741,1.04924,8,0.0147023,10,0.000195936,-2.97913,-0.541852,-0.108886,-4.4474,0.186741,
2,1,0,1,0,14920.4,0.188572,0.188311,1.04255,8,0.014782,10,0.000196323,-2.9819,-0.567513,-0.103962,-4.22892,0.188311,
2,1,0,1,0,14920.4,0.19007,0.189771,1.03375,8,0.0148611,10,0.000196177,-2.98558,-0.555308,-0.106247,-4.28689,0.189771,
2,1,0,1,0,14920.5,0.191568,0.191229,1.02813,8,0.0149397,10,0.000196608,-2.98795,-0.679306,-0.0868533,-3.49218,0.1912287,
2,1,0,1,0,14920.6,0.193066,0.192753,1.02382,8,0.0150179,10,0.000197344,-2.98978,-1.06294,-0.0555065,-2.21527,0.192753,
2,1,0,1,0,14920.7,0.194564,0.194259,1.01995,8,0.0150958,10,0.000198135,-2.99142,-0.822076,-0.0717695,-2.85597,0.194259,
2,1,0,1,0,14920.7,0.196063,0.195786,1.0143,8,0.0151734,10,0.000198586,-2.99383,-0.449309,-0.131313,-5.19408,0.195786,
2,1,0,1,0,14920.8,0.197561,0.197248,1.00387,8,0.0152505,10,0.000198011,-2.99832,-0.732674,-0.0805269,-3.17492,0.197248,
2,1,0,1,0,14920.9,0.199059,0.198756,1.00594,8,0.0153272,10,0.000199936,-2.99743,-0.672936,-0.0876755,-3.43729,0.198756,
2,1,0,1,0,14921,0.200557,0.200248,1.00108,8,0.0154037,10,0.000200465,-2.99953,-0.986242,-0.059823,-2.3354,0.200248,
2,1,0,1,0,14921,0.202057,0.201736,0.996483,8,0.0154801,10,0.000201027,-3.00153,-0.80906,-0.0729241,-2.83222,0.201736,
2,1,0,1,0,14921.1,0.203552,0.20324,0.993534,8,0.015556,10,0.000201926,-3.00282,-1.52239,-0.0387549,-1.50339,0.20324,
2,1,0,1,0,14921.2,0.205052,0.204729,0.990307,8,0.0156317,10,0.000202744,-3.00423,2.42199,0.0243602,0.947503,0.204729,
2,1,0,1,0,14921.3,0.20655,0.206252,0.985718,8,0.0157071,10,0.000203307,-3.00625,-0.874701,-0.0674516,-2.59804,0.206252,
2,1,0,1,0,14921.3,0.208048,0.20772,0.985945,8,0.0157827,10,0.000204801,-3.00615,-1.09507,-0.053878,-2.06644,0.20772,
2,1,0,1,0,14921.4,0.209546,0.209251,0.981582,8,0.0158578,10,0.000205397,-3.00807,-0.705471,-0.083632,-3.20569,0.209251,
2,1,0,1,0,14921.5,0.211044,0.210773,0.979667,8,0.0159324,10,0.000206487,-3.00892,-1.28482,-0.045921,-1.75432,0.210773,
2,1,0,1,0,14921.6,0.212543,0.212221,0.976151,8,0.016007,10,0.000207159,-3.01048,-3.31329,-0.0178071,-0.67683,0.212221,
2,1,0,1,0,14921.6,0.214041,0.213763,0.971414,8,0.0160815,10,0.000207653,-3.0126,-1.62124,-0.0363918,-1.38346,0.2137633,
2,1,0,1,0,14921.7,0.215539,0.215234,0.972878,8,0.0161558,10,0.000209396,-3.01194,-1.21631,-0.0485075,-1.84132,0.2152341,
2,1,0,1,0,14921.8,0.217037,0.216722,0.968661,8,0.0162297,10,0.00020993,-3.01383,-1.87487,-0.0314688,-1.1911,0.216722,
2,1,0,1,0,14921.9,0.218536,0.218221,0.965475,8,0.0163036,10,0.000210687,-3.01526,-5.87264,-0.0100466,-0.378666,0.218221,
2,1,0,1,0,14921.9,0.220032,0.219727,0.965473,8,0.0163773,10,0.00021214,-3.01526,-2.31175,-0.0255218,-0.959007,0.219727,
2,1,0,1,0,14922,0.221532,0.221254,0.963857,8,0.016451,10,0.000213257,-3.01599,-0.953522,-0.0618758,-2.32205,0.221254,
2,1,0,1,0,14922.1,0.22303,0.222729,0.954257,8,0.0165243,10,0.00021254,-3.02033,-1.93157,-0.0305451,-1.14391,0.222729,
2,1,0,1,0,14922.2,0.224528,0.224266,0.95746,8,0.0165974,10,0.000214725,-3.01888,-1.25435,-0.0470362,-1.75829,0.224266,
2,1,0,1,0,14922.2,0.226026,0.225743,0.954645,8,0.0166705,10,0.000215504,-3.02016,-1.82782,-0.0322789,-1.20307,0.225743,
2,1,0,1,0,14922.3,0.227525,0.22721,0.956982,8,0.0167435,10,0.000217436,-3.0191,-0.854243,-0.069067,-2.56769,0.22721,
2,1,0,1,0,14922.4,0.229023,0.228696,0.954626,8,0.0168162,10,0.000218319,-3.02017,-1.1735,-0.0502769,-1.87097,0.228696,
2,1,0,1,0,14922.5,0.230521,0.230214,0.948723,8,0.0168887,10,0.000218409,-3.02286,-1.79915,-0.0327932,-1.21584,0.230214,
2,1,0,1,0,14922.5,0.232019,0.231711,0.950464,8,0.0169612,10,0.000220233,-3.02206,-3.39338,-0.0173868,-0.642391,0.231711,
2,1,0,1,0,14922.6,0.233517,0.233206,0.947855,8,0.0170336,10,0.000221045,-3.02326,-1.41445,-0.0417124,-1.54052,0.233206,
2,1,0,1,0,14922.7,0.235016,0.234701,0.946326,8,0.0171059,10,0.000222104,-3.02396,-7.39062,-0.0079831,-0.294504,0.234701,
2,1,0,1,0,14922.8,0.236512,0.236148,0.941524,8,0.0171777,10,0.000222339,-3.02617,-4.22427,-0.0139669,-0.5126,0.236148,
2,1,0,1,0,14922.8,0.238012,0.237697,0.941184,8,0.0172497,10,0.000223716,-3.02633,-7.95613,-0.00741567,-0.271609,0.237697,
2,1,0,1,0,14922.9,0.23951,0.239187,0.941031,8,0.0173215,10,0.000225082,-3.0264,-2.40166,-0.0245663,-0.899036,0.239187,
2,1,0,1,0,14923,0.241008,0.240708,0.939587,8,0.0173932,10,0.000226166,-3.02706,-1.11071,-0.0531193,-1.94512,0.240708,
2,1,0,1,0,14923.1,0.242506,0.242174,0.932639,8,0.0174646,10,0.000225861,-3.03029,-1.18181,-0.0499234,-1.82432,0.242174,
2,1,0,1,0,14923.1,0.244005,0.243689,0.933305,8,0.017536,10,0.000227436,-3.02998,-3.52999,-0.0167139,-0.608543,0.243689,
2,1,0,1,0,14923.2,0.245503,0.245208,0.936549,8,0.0176074,10,0.000229649,-3.02847,-1.48597,-0.0397047,-1.44631,0.245208,
2,1,0,1,0,14923.3,0.247001,0.246675,0.93325,8,0.0176785,10,0.000230209,-3.03,-1.18309,-0.0498693,-1.80985,0.2466749,
2,1,0,1,0,14923.4,0.248501,0.248199,0.92683,8,0.0177496,10,0.000230038,-3.033,-1.58784,-0.0371573,-1.34657,0.2481987,
2,1,0,1,0,14923.4,0.249997,0.249704,0.930281,8,0.0178203,10,0.000232295,-3.03139,-2.58432,-0.02283,-0.825043,0.249704,
2,1,0,1,0,14923.5,0.251496,0.25123,0.926338,8,0.0178912,10,0.000232724,-3.03323,-9.99418,-0.00590344,-0.213085,0.25123,
2,1,0,1,0,14923.6,0.252994,0.252717,0.924517,8,0.0179619,10,0.000233641,-3.03408,-1.51443,-0.0389586,-1.40324,0.252717,
2,1,0,1,0,14923.7,0.254492,0.254217,0.919851,8,0.0180325,10,0.000233842,-3.03628,-2.14639,-0.027488,-0.989747,0.254217,
2,1,0,1,0,14923.7,0.25599,0.255646,0.918595,8,0.0181028,10,0.000234836,-3.03688,-2.7443,-0.0214991,-0.77312,0.255646,
2,1,0,1,0,14923.8,0.257488,0.257186,0.920692,8,0.0181731,10,0.000236789,-3.03589,-1.99119,-0.0296306,-1.06416,0.257186,
2,1,0,1,0,14923.9,0.258987,0.258692,0.920535,8,0.0182433,10,0.000238135,-3.03596,-1.58111,-0.0373155,-1.33719,0.258692,
2,1,0,1,0,14924,0.260485,0.260219,0.916007,8,0.0183134,10,0.000238362,-3.0381,-1.44708,-0.0407718,-1.45973,0.260219,
2,1,0,1,0,14924,0.261983,0.261714,0.915054,8,0.0183833,10,0.000239483,-3.03855,-1.72004,-0.0343015,-1.22265,0.261714,
2,1,0,1,0,14924.1,0.263481,0.263204,0.912851,8,0.0184531,10,0.000240266,-3.0396,24.41,0.00241704,0.0859738,0.263204,
2,1,0,1,0,14924.2,0.264981,0.26469,0.911331,8,0.0185229,10,0.00024122,-3.04032,-1.35476,-0.0435503,-1.54852,0.26469,
2,1,0,1,0,14924.3,0.266476,0.266214,0.905458,8,0.0185923,10,0.000241046,-3.04313,-1.58318,-0.0372668,-1.32228,0.266214,
2,1,0,1,0,14924.3,0.267976,0.267683,0.904632,8,0.0186618,10,0.000242155,-3.04353,-2.65473,-0.0222245,-0.78688,0.267683,
2,1,0,1,0,14924.4,0.269474,0.269188,0.906968,8,0.018731,10,0.000244145,-3.04241,-4.16985,-0.0141492,-0.500884,0.269188,
2,1,0,1,0,14924.5,0.270972,0.270639,0.907949,8,0.0188002,10,0.000245726,-3.04194,-1.58222,-0.0372894,-1.31399,0.270639,
2,1,0,1,0,14924.6,0.27247,0.272141,0.902941,8,0.0188693,10,0.000245727,-3.04434,-0.865085,-0.0682014,-2.39669,0.272141,
2,1,0,1,0,14924.6,0.273968,0.273659,0.898152,8,0.0189383,10,0.000245787,-3.04665,-1.44747,-0.0407609,-1.43132,0.273659,
2,1,0,1,0,14924.7,0.275467,0.275172,0.900088,8,0.0190069,10,0.000247679,-3.04572,-3.24508,-0.0181813,-0.637887,0.275172,
2,1,0,1,0,14924.8,0.276965,0.276707,0.896991,8,0.0190755,10,0.000248204,-3.04721,-4.02234,-0.0146681,-0.513796,0.2767069,
2,1,0,1,0,14924.9,0.278463,0.278175,0.895969,8,0.0191441,10,0.000249237,-3.04771,-0.814352,-0.0724502,-2.52707,0.278175,
2,1,0,1,0,14924.9,0.279961,0.27973,0.895197,8,0.0192125,10,0.000250413,-3.04808,-1.08524,-0.0543657,-1.89285,0.27973,
2,1,0,1,0,14925,0.28146,0.281176,0.89393,8,0.0192807,10,0.000251352,-3.0487,-1.69397,-0.0348295,-1.21318,0.281176,
2,1,0,1,0,14925.1,0.282956,0.282604,0.889358,8,0.0193487,10,0.000251337,-3.05092,-2.88169,-0.0204741,-0.708534,0.282604,
2,1,0,1,0,14925.2,0.284456,0.284173,0.888721,8,0.0194168,10,0.00025255,-3.05123,-2.03869,-0.0289401,-1.00159,0.284173,
2,1,0,1,0,14925.2,0.285954,0.285656,0.886628,8,0.0194846,10,0.00025327,-3.05226,-1.83921,-0.032079,-1.10754,0.285656,
2,1,0,1,0,14925.3,0.287452,0.287158,0.883172,8,0.0195521,10,0.00025361,-3.05395,-2.13154,-0.0276795,-0.955863,0.287158,
2,1,0,1,0,14925.4,0.28895,0.288634,0.879589,8,0.0196196,10,0.000253879,-3.05572,-5.10866,-0.011549,-0.397062,0.288634,
2,1,0,1,0,14925.5,0.290449,0.290102,0.879934,8,0.019687,10,0.00025527,-3.05555,-2.37032,-0.0248911,-0.854924,0.290102,
2,1,0,1,0,14925.5,0.291947,0.29167,0.879917,8,0.0197543,10,0.000256646,-3.05556,-1.59339,-0.0370279,-1.26953,0.2916702,
2,1,0,1,0,14925.6,0.293445,0.293127,0.873019,8,0.0198213,10,0.000255905,-3.05898,-1.1936,-0.0494301,-1.69042,0.293127,
2,1,0,1,0,14925.7,0.294943,0.294664,0.876759,8,0.0198882,10,0.000258349,-3.05712,-3.42876,-0.0172074,-0.587494,0.294664,
2,1,0,1,0,14925.8,0.296441,0.296144,0.876177,8,0.0199551,10,0.000259475,-3.05741,-1.65775,-0.0355904,-1.21106,0.296144,
2,1,0,1,0,14925.8,0.29794,0.297627,0.871747,8,0.020022,10,0.000259456,-3.05961,-1.15923,-0.0508958,-1.72575,0.297627,
2,1,0,1,0,14925.9,0.299436,0.299161,0.86721,8,0.0200884,10,0.000259435,-3.06188,-0.00227234,-25.9644,-409.937,0.299161,
2,1,0,1,0,14925.9,0.299739,0.299453,0.463797,8,0.0201209,10,0.000138885,-3.33367,0.00116925,50.4596,788.142,0.299453,
2,0,0,1,0,14926,0.298239,0.297935,-0.0417885,8,0.0201283,10,-1.24503e-05,-4.37894,0.00483434,12.2044,273.438,0.297935,
2,0,0,1,0,14926.1,0.296741,0.296431,-0.127633,8,0.02012,10,-3.78346e-05,-3.89404,-0.00376215,-15.6825,48.7653,0.296431,
2,0,0,1,0,14926.2,0.295243,0.294929,-0.171098,8,0.0201072,10,-5.04619e-05,-3.76675,-0.0136008,-4.33799,25.8546,0.294929,
2,0,0,1,0,14926.2,0.293745,0.293437,-0.202344,8,0.0200917,10,-5.93752e-05,-3.69391,-0.0235573,-2.50453,19.0734,0.293437,
2,0,0,1,0,14926.3,0.292246,0.291956,-0.227856,8,0.0200743,10,-6.65239e-05,-3.64234,-0.0313587,-1.88146,16.2991,0.2919558,
2,0,0,1,0,14926.4,0.290748,0.290464,-0.252854,8,0.0200549,10,-7.34448e-05,-3.59713,-0.0385502,-1.53047,14.5705,0.290464,
2,0,0,1,0,14926.5,0.28925,0.288946,-0.269581,8,0.0200341,10,-7.78946e-05,-3.56931,-0.0501857,-1.17563,12.2829,0.288946,
2,0,0,1,0,14926.5,0.287752,0.287441,-0.285389,8,0.0200119,10,-8.20324e-05,-3.54456,-0.0618064,-0.954593,10.5595,0.2874406,
2,0,0,1,0,14926.6,0.286254,0.285899,-0.298517,8,0.0199885,10,-8.53459e-05,-3.52503,-0.0692578,-0.851889,9.94642,0.285899,
2,0,0,1,0,14926.7,0.284754,0.284453,-0.31402,8,0.019964,10,-8.9324e-05,-3.50304,-0.068085,-0.866563,10.6239,0.284453,
2,0,0,1,0,14926.8,0.283259,0.282946,-0.330432,8,0.0199384,10,-9.34943e-05,-3.48092,-0.0868382,-0.679424,8.71515,0.282946,
2,0,0,1,0,14926.8,0.281759,0.281424,-0.340857,8,0.0199118,10,-9.59255e-05,-3.46743,-0.0988039,-0.597143,7.91709,0.281424,
2,0,0,1,0,14926.9,0.280261,0.279971,-0.348696,8,0.0198843,10,-9.76249e-05,-3.45755,-0.0948062,-0.622322,8.55744,0.279971,
2,0,0,1,0,14927,0.278763,0.278464,-0.365578,8,0.0198561,10,-0.0001018,-3.43702,-0.108908,-0.541742,7.69147,0.278464,
2,0,0,1,0,14927.1,0.277264,0.276952,-0.375366,8,0.0198269,10,-0.000103958,-3.42554,-0.121495,-0.485618,7.11137,0.276952,
2,0,0,1,0,14927.1,0.275766,0.275453,-0.385897,8,0.0197969,10,-0.000106296,-3.41353,-0.154941,-0.380791,5.70333,0.275453,
2,0,0,1,0,14927.2,0.274268,0.273908,-0.396277,8,0.0197662,10,-0.000108544,-3.402,-0.147089,-0.401117,6.18861,0.273908,
2,0,0,1,0,14927.3,0.27277,0.27248,-0.403263,8,0.019735,10,-0.000109881,-3.39441,-0.142128,-0.41512,6.59056,0.27248,
2,0,0,1,0,14927.4,0.271272,0.270963,-0.413791,8,0.019703,10,-0.000112122,-3.38322,-0.16014,-0.368427,5.95393,0.270963,
2,0,0,1,0,14927.4,0.269774,0.269473,-0.424049,8,0.0196703,10,-0.00011427,-3.37258,-0.161967,-0.364271,5.97044,0.269473,
2,0,0,1,0,14927.5,0.268274,0.267958,-0.430265,8,0.0196368,10,-0.000115293,-3.36626,-0.194057,-0.304034,5.09096,0.267958,
2,0,0,1,0,14927.6,0.266779,0.266531,-0.435185,8,0.0196031,10,-0.00011599,-3.36133,-0.186723,-0.315976,5.41027,0.266531,
2,0,0,1,0,14927.7,0.265279,0.265021,-0.44529,8,0.0195686,10,-0.000118011,-3.35136,-0.171025,-0.344979,5.9672,0.265021,
2,0,0,1,0,14927.7,0.263781,0.263406,-0.451676,8,0.0195335,10,-0.000118974,-3.34517,-0.209998,-0.280955,4.95907,0.263406,
2,0,0,1,0,14927.8,0.262283,0.26197,-0.458064,8,0.0194978,10,-0.000119999,-3.33907,-0.217957,-0.270696,4.85864,0.26197,
2,0,0,1,0,14927.9,0.260784,0.260524,-0.465252,8,0.0194617,10,-0.000121209,-3.33231,-0.232892,-0.253336,4.62568,0.260524,
2,0,0,1,0,14928,0.259286,0.258977,-0.476373,8,0.0194251,10,-0.00012337,-3.32205,-0.211751,-0.27863,5.1636,0.258977,
2,0,0,1,0,14928,0.257788,0.257478,-0.484312,8,0.0193878,10,-0.000124699,-3.31487,-0.245891,-0.239943,4.49433,0.257478,
2,0,0,1,0,14928.1,0.25629,0.255988,-0.489331,8,0.0193499,10,-0.000125263,-3.3104,-0.292891,-0.20144,3.82724,0.255988,
2,0,0,1,0,14928.2,0.25479,0.254477,-0.493633,8,0.0193117,10,-0.000125618,-3.3066,-0.296247,-0.199158,3.84418,0.254477,
2,0,0,1,0,14928.3,0.253294,0.252998,-0.502844,8,0.0192731,10,-0.000127218,-3.29857,-0.272014,-0.216901,4.23685,0.252998,
2,0,0,1,0,14928.3,0.251795,0.251477,-0.505257,8,0.0192339,10,-0.000127061,-3.29649,-0.231876,-0.254447,5.03179,0.251477,
2,0,0,1,0,14928.4,0.250297,0.249964,-0.510572,8,0.0191942,10,-0.000127624,-3.29194,-0.418141,-0.141101,2.81783,0.249964,
2,0,0,1,0,14928.5,0.248799,0.248486,-0.521806,8,0.0191541,10,-0.000129662,-3.28249,-0.326139,-0.180904,3.66682,0.2484863,
2,0,0,1,0,14928.6,0.247301,0.246992,-0.524854,8,0.0191137,10,-0.000129635,-3.27996,-0.288209,-0.204713,4.20785,0.246992,
2,0,0,1,0,14928.6,0.245802,0.245513,-0.531377,8,0.0190727,10,-0.00013046,-3.2746,-0.279786,-0.210876,4.35527,0.245513,
2,0,0,1,0,14928.7,0.244304,0.244012,-0.538294,8,0.0190311,10,-0.00013135,-3.26898,-0.366923,-0.160797,3.36585,0.244012,
2,0,0,1,0,14928.8,0.242806,0.242481,-0.544392,8,0.0189892,10,-0.000132005,-3.26409,-0.404072,-0.146014,3.10267,0.242481,
2,0,0,1,0,14928.9,0.241308,0.241014,-0.548978,8,0.018947,10,-0.000132311,-3.26045,-0.394808,-0.14944,3.19988,0.241014,
2,0,0,1,0,14928.9,0.23981,0.239488,-0.55308,8,0.0189043,10,-0.000132456,-3.25721,-0.226362,-0.260645,5.62066,0.239488,
2,0,0,1,0,14929,0.23831,0.238042,-0.559485,8,0.018861,10,-0.000133181,-3.25221,-0.340364,-0.173344,3.78791,0.238042,
2,0,0,1,0,14929.1,0.236815,0.236481,-0.566636,8,0.0188175,10,-0.000133999,-3.2467,-0.44987,-0.131149,2.89573,0.236481,
2,0,0,1,0,14929.2,0.235315,0.235004,-0.566219,8,0.0187735,10,-0.000133064,-3.24702,-0.331305,-0.178084,3.96478,0.235004,
2,0,0,1,0,14929.2,0.233817,0.233511,-0.575073,8,0.0187292,10,-0.000134286,-3.24028,-0.299984,-0.196677,4.41436,0.233511,
2,0,0,1,0,14929.3,0.232319,0.232022,-0.582847,8,0.0186843,10,-0.000135233,-3.23445,-0.347152,-0.169954,3.85728,0.232022,
2,0,0,1,0,14929.4,0.230821,0.230543,-0.587172,8,0.0186391,10,-0.000135368,-3.23123,-0.484937,-0.121665,2.77922,0.230543,
2,0,0,1,0,14929.5,0.229322,0.229007,-0.588275,8,0.0185935,10,-0.000134719,-3.23042,-0.392918,-0.150159,3.46908,0.229007,
2,0,0,1,0,14929.5,0.227824,0.227514,-0.595976,8,0.0185475,10,-0.000135593,-3.22477,-0.377251,-0.156395,3.65067,0.227514,
2,0,0,1,0,14929.6,0.226326,0.226008,-0.60103,8,0.0185011,10,-0.000135838,-3.2211,-0.399087,-0.147838,3.47528,0.226008,
2,0,0,1,0,14929.7,0.224828,0.224531,-0.608962,8,0.0184543,10,-0.000136731,-3.21541,-0.566719,-0.104108,2.46703,0.2245307,
2,0,0,1,0,14929.8,0.22333,0.222995,-0.613557,8,0.0184072,10,-0.00013682,-3.21215,-0.388515,-0.15186,3.6353,0.2229951,
2,0,0,1,0,14929.8,0.22183,0.221575,-0.619382,8,0.0183596,10,-0.000137239,-3.20804,-0.459367,-0.128438,3.09673,0.221575,
2,0,0,1,0,14929.9,0.220335,0.220027,-0.623827,8,0.0183118,10,-0.000137259,-3.20494,-0.326329,-0.180799,4.39812,0.220027,
2,0,0,1,0,14930,0.218835,0.218534,-0.631908,8,0.0182632,10,-0.000138093,-3.19935,-0.324862,-0.181616,4.46539,0.218534,
2,0,0,1,0,14930.1,0.217337,0.217013,-0.631343,8,0.0182144,10,-0.00013701,-3.19973,-0.498971,-0.118243,2.93276,0.217013,
2,0,0,1,0,14930.1,0.215839,0.215501,-0.635525,8,0.0181654,10,-0.000136956,-3.19687,-0.423114,-0.139442,3.48342,0.215501,
2,0,0,1,0,14930.2,0.21434,0.214003,-0.646486,8,0.0181159,10,-0.00013835,-3.18944,-0.298822,-0.197442,4.95513,0.214003,
2,0,0,1,0,14930.3,0.212842,0.212526,-0.648959,8,0.018066,10,-0.000137921,-3.18778,-0.429081,-0.137503,3.4886,0.212526,
2,0,0,1,0,14930.4,0.211344,0.211025,-0.65472,8,0.0180157,10,-0.000138162,-3.18394,-0.415657,-0.141944,3.63102,0.211025,
2,0,0,1,0,14930.4,0.209846,0.209508,-0.656257,8,0.0179649,10,-0.000137491,-3.18293,-0.46911,-0.12577,3.22981,0.2095082,
2,0,0,1,0,14930.5,0.208348,0.208071,-0.666885,8,0.0179139,10,-0.000138759,-3.17595,-0.30861,-0.19118,4.98942,0.208071,
2,0,0,1,0,14930.6,0.20685,0.206551,-0.676873,8,0.0178623,10,-0.000139809,-3.16949,-0.303669,-0.194291,5.09614,0.2065511,
2,0,0,1,0,14930.7,0.20535,0.205028,-0.678105,8,0.0178101,10,-0.00013903,-3.1687,-0.577607,-0.102146,2.68731,0.205028,
2,0,0,1,0,14930.7,0.203855,0.203539,-0.680591,8,0.0177577,10,-0.000138527,-3.16711,-0.495887,-0.118979,3.1793,0.203539,
2,0,0,1,0,14930.8,0.202355,0.202037,-0.685995,8,0.0177049,10,-0.000138596,-3.16368,-0.416196,-0.14176,3.81239,0.202037,
2,0,0,1,0,14930.9,0.200857,0.200529,-0.692808,8,0.0176517,10,-0.000138928,-3.15939,-0.534556,-0.110372,2.98764,0.200529,
2,0,0,1,0,14931,0.199359,0.199047,-0.701069,8,0.017598,10,-0.000139546,-3.15424,-0.54207,-0.108842,2.96463,0.199047,
2,0,0,1,0,14931,0.19786,0.197539,-0.706289,8,0.0175438,10,-0.00013952,-3.15102,-0.389446,-0.151497,4.16644,0.197539,
2,0,0,1,0,14931.1,0.196362,0.196045,-0.714415,8,0.0174893,10,-0.000140057,-3.14605,-0.386868,-0.152507,4.2445,0.196045,
2,0,0,1,0,14931.2,0.194864,0.194517,-0.72166,8,0.0174342,10,-0.000140375,-3.14167,-0.307911,-0.191614,5.38292,0.194517,
2,0,0,1,0,14931.3,0.193366,0.193041,-0.725411,8,0.0173785,10,-0.000140034,-3.13942,-0.449176,-0.131351,3.71787,0.193041,
2,0,0,1,0,14931.3,0.191866,0.191566,-0.732162,8,0.0173223,10,-0.000140257,-3.13539,-0.498401,-0.118379,3.39713,0.191566,
2,0,0,1,0,14931.4,0.19037,0.190052,-0.736994,8,0.017266,10,-0.000140067,-3.13254,-0.344081,-0.171471,4.95463,0.190052,
2,0,0,1,0,14931.5,0.188871,0.188542,-0.746892,8,0.0172089,10,-0.000140821,-3.12674,-0.279865,-0.210816,6.14197,0.188542,
2,0,0,1,0,14931.6,0.187373,0.187049,-0.752315,8,0.0171512,10,-0.000140719,-3.1236,-0.294697,-0.200206,5.89882,0.187049,
2,0,0,1,0,14931.6,0.185875,0.185574,-0.76089,8,0.0170931,10,-0.000141201,-3.11868,-0.37041,-0.159283,4.71656,0.1855738,
2,0,0,1,0,14931.7,0.184377,0.184062,-0.766971,8,0.0170344,10,-0.00014117,-3.11522,-0.315868,-0.186787,5.60006,0.184062,
2,0,0,1,0,14931.8,0.182878,0.182541,-0.776339,8,0.0169752,10,-0.000141714,-3.10995,-0.276138,-0.213661,6.47656,0.182541,
2,0,0,1,0,14931.9,0.18138,0.181065,-0.784528,8,0.0169152,10,-0.000142051,-3.10539,-0.298618,-0.197577,6.05858,0.181065,
2,0,0,1,0,14931.9,0.179882,0.179589,-0.791668,8,0.0168545,10,-0.000142175,-3.10146,-0.469484,-0.12567,3.88548,0.179589,
2,0,0,1,0,14932,0.178384,0.178072,-0.803206,8,0.0167932,10,-0.000143028,-3.09517,-0.295323,-0.199781,6.27105,0.178072,
2,0,0,1,0,14932.1,0.176886,0.176606,-0.810874,8,0.0167314,10,-0.000143205,-3.09105,-0.278586,-0.211784,6.74199,0.176606,
2,0,0,1,0,14932.2,0.175386,0.175066,-0.826088,8,0.0166685,10,-0.00014462,-3.08297,-0.251635,-0.234466,7.52552,0.175066,
2,0,0,1,0,14932.2,0.173891,0.173561,-0.837642,8,0.0166049,10,-0.000145382,-3.07694,-0.23749,-0.248431,8.08743,0.173561,
2,0,0,1,0,14932.3,0.172391,0.172097,-0.844288,8,0.0165404,10,-0.000145299,-3.07351,-0.248294,-0.237622,7.86112,0.172097,
2,0,0,1,0,14932.4,0.170893,0.170567,-0.856951,8,0.0164753,10,-0.000146167,-3.06704,-0.237167,-0.24877,8.33159,0.170567,
2,0,0,1,0,14932.5,0.169395,0.169091,-0.872808,8,0.0164089,10,-0.000147584,-3.05908,-0.181855,-0.324434,11.0345,0.169091,
2,0,0,1,0,14932.5,0.167897,0.167556,-0.890001,8,0.0163416,10,-0.000149125,-3.05061,-0.207097,-0.284891,9.87198,0.167556,
2,0,0,1,0,14932.6,0.166398,0.166085,-0.899661,8,0.0162731,10,-0.00014942,-3.04592,-0.250116,-0.235891,8.31847,0.166085,
2,0,0,1,0,14932.7,0.1649,0.164576,-0.913552,8,0.0162036,10,-0.000150349,-3.03927,-0.193372,-0.305112,10.9589,0.164576,
2,0,0,1,0,14932.8,0.163402,0.163066,-0.935171,8,0.0161329,10,-0.000152495,-3.02911,-0.169915,-0.347233,12.6735,0.163066,
2,0,0,1,0,14932.8,0.161904,0.161619,-0.955253,8,0.0160605,10,-0.000154387,-3.01988,-0.149915,-0.393556,14.6982,0.161619,
2,0,0,1,0,14932.9,0.160406,0.160086,-0.978645,8,0.0159867,10,-0.000156668,-3.00937,-0.157913,-0.373622,14.2494,0.160086,
2,0,0,1,0,14933,0.158906,0.158603,-0.997845,8,0.0159111,10,-0.000158261,-3.00094,-0.141887,-0.415823,16.2579,0.1586031,
2,0,0,1,0,14933.1,0.157411,0.157115,-1.02405,8,0.015834,10,-0.000160894,-2.98968,-0.124744,-0.472967,19.0278,0.1571148,
2,0,0,1,0,14933.1,0.155911,0.155578,-1.0548,8,0.0157545,10,-0.000164103,-2.97683,-0.117779,-0.500939,20.699,0.1555775,
2,0,0,1,0,14933.2,0.154413,0.154081,-1.08843,8,0.0156727,10,-0.000167706,-2.9632,-0.115136,-0.512439,21.7724,0.154081,
2,0,0,1,0,14933.3,0.152915,0.152617,-1.11908,8,0.0155884,10,-0.00017079,-2.95114,-0.107891,-0.546847,23.9726,0.152617,
2,0,0,1,0,14933.4,0.151417,0.151079,-1.15977,8,0.0155017,10,-0.000175217,-2.93563,-0.102493,-0.575651,26.1228,0.151079,
2,0,0,1,0,14933.4,0.149918,0.149625,-1.2061,8,0.0154117,10,-0.000180463,-2.91862,-0.0879813,-0.670597,31.5691,0.149625,
2,0,0,1,0,14933.5,0.14842,0.14811,-1.25322,8,0.0153182,10,-0.000185614,-2.90197,-0.084294,-0.699931,34.3425,0.14811,
2,0,0,1,0,14933.6,0.146922,0.146633,-1.3062,8,0.0152209,10,-0.000191532,-2.88399,-0.0818567,-0.720772,36.8058,0.146633,
2,0,0,1,0,14933.7,0.145424,0.145119,-1.36322,8,0.0151195,10,-0.000197829,-2.86543,-0.0757277,-0.779107,41.5577,0.145119,
2,0,0,1,0,14933.7,0.143926,0.143623,-1.42786,8,0.0150136,10,-0.000205074,-2.84531,-0.0714467,-0.82579,46.119,0.143623,
2,0,0,1,0,14933.8,0.142426,0.142157,-1.50046,8,0.0149024,10,-0.000213301,-2.82377,-0.071901,-0.820572,48.0343,0.142157,
2,0,0,1,0,14933.9,0.140931,0.140611,-1.56793,8,0.0147861,10,-0.000220469,-2.80467,-0.0743522,-0.793521,48.6597,0.140611,
2,0,0,1,0,14934,0.139431,0.139101,-1.64205,8,0.014664,10,-0.00022841,-2.78461,-0.0724555,-0.814293,52.3462,0.139101,
2,0,0,1,0,14934,0.137933,0.13758,-1.72919,8,0.0145363,10,-0.000237901,-2.76216,-0.0746247,-0.790622,53.2793,0.13758,
2,0,0,1,0,14934.1,0.136435,0.136099,-1.80958,8,0.0144024,10,-0.000246283,-2.74242,-0.0786147,-0.750496,52.8125,0.136099,
2,0,0,1,0,14934.2,0.134936,0.134597,-1.88717,8,0.0142624,10,-0.000254006,-2.72419,-0.0837899,-0.704142,51.7067,0.134597,
2,0,0,1,0,14934.3,0.133438,0.133082,-1.96496,8,0.0141165,10,-0.000261501,-2.70665,-0.0899124,-0.656194,50.2706,0.1330819,
2,0,0,1,0,14934.3,0.13194,0.131587,-2.04238,8,0.013965,10,-0.000268751,-2.68986,-0.0962228,-0.61316,48.8272,0.131587,
2,0,0,1,0,14934.4,0.130442,0.130142,-2.11368,8,0.013808,10,-0.000275078,-2.67496,-0.105706,-0.558152,45.8872,0.130142,
2,0,0,1,0,14934.5,0.128942,0.128624,-2.18107,8,0.0136453,10,-0.000280537,-2.66133,-0.120561,-0.48938,41.4607,0.128624,
2,0,0,1,0,14934.6,0.127446,0.127097,-2.24,8,0.0134785,10,-0.000284698,-2.64975,-0.136781,-0.431345,37.5838,0.127097,
2,0,0,1,0,14934.6,0.125947,0.1256,-2.29287,8,0.0133072,10,-0.000287984,-2.63962,-0.157113,-0.375525,33.5029,0.1256,
2,0,0,1,0,14934.7,0.124449,0.124163,-2.33801,8,0.0131323,10,-0.000290295,-2.63115,-0.171419,-0.344187,31.3383,0.124163,
2,0,0,1,0,14934.8,0.122951,0.122643,-2.38328,8,0.0129539,10,-0.000292292,-2.62282,-0.204513,-0.288491,26.7268,0.122643,
2,0,0,1,0,14934.9,0.121453,0.121152,-2.41744,8,0.0127725,10,-0.000292877,-2.61664,-0.258173,-0.228529,21.5103,0.121152,
2,0,0,1,0,14934.9,0.119955,0.119651,-2.43965,8,0.012589,10,-0.000291906,-2.61267,-0.337753,-0.174684,16.6481,0.119651,
2,0,0,1,0,14935,0.118456,0.118197,-2.46768,8,0.0124038,10,-0.000291672,-2.60771,-0.41118,-0.143489,13.783,0.118197,
2,0,0,1,0,14935.1,0.116958,0.116611,-2.48527,8,0.0122167,10,-0.00028981,-2.60463,-0.596835,-0.0988548,9.55164,0.116611,
2,0,0,1,0,14935.2,0.11546,0.115156,-2.49829,8,0.0120287,10,-0.000287692,-2.60236,-1.55825,-0.0378631,3.67688,0.115156,
2,0,0,1,0,14935.2,0.113962,0.11363,-2.49436,8,0.0118403,10,-0.000283435,-2.60304,-34.8742,-0.0016918,0.164555,0.11363,
2,0,0,1,0,14935.3,0.112462,0.112105,-2.49651,8,0.0116517,10,-0.000279871,-2.60267,3.97759,0.0148331,-1.44393,0.112105,
2,0,0,1,0,14935.4,0.110967,0.110653,-2.49551,8,0.0114636,10,-0.000276136,-2.60284,1.53276,0.0384927,-3.73647,0.110653,
2,0,0,1,0,14935.5,0.109467,0.10915,-2.48581,8,0.0112753,10,-0.000271326,-2.60453,0.752424,0.0784132,-7.58494,0.10915,
2,0,0,1,0,14935.5,0.107969,0.107651,-2.47071,8,0.0110883,10,-0.000265974,-2.60718,0.58713,0.100489,-9.69016,0.107651,
2,0,0,1,0,14935.6,0.106471,0.106187,-2.4536,8,0.0109025,10,-0.00026054,-2.6102,0.616134,0.0957584,-9.17478,0.1061866,
2,0,0,1,0,14935.7,0.104973,0.104646,-2.43948,8,0.0107176,10,-0.000255283,-2.6127,0.471639,0.125096,-11.9006,0.104646,
2,0,0,1,0,14935.8,0.103474,0.103159,-2.42031,8,0.0105339,10,-0.000249676,-2.61613,0.378273,0.155972,-14.7196,0.1031587,
2,0,0,1,0,14935.8,0.101976,0.10167,-2.39821,8,0.0103519,10,-0.000243826,-2.62011,0.332629,0.177375,-16.596,0.10167,
2,0,0,1,0,14935.9,0.100478,0.100107,-2.37406,8,0.0101719,10,-0.000237659,-2.62451,0.327545,0.180128,-16.684,0.100107,
2,0,0,1,0,14936,0.0989799,0.098689,-2.34991,8,0.00999369,10,-0.000231911,-2.62895,0.381517,0.154646,-14.169,0.098689,
2,0,0,1,0,14936.1,0.0974817,0.097207,-2.32702,8,0.00981714,10,-0.000226202,-2.6332,0.347771,0.169652,-15.3906,0.09720695,
2,0,0,1,0,14936.1,0.0959821,0.0956654,-2.29973,8,0.0096422,10,-0.000220004,-2.63832,0.297112,0.198578,-17.8281,0.0956654,
2,0,0,1,0,14936.2,0.0944866,0.0941661,-2.27014,8,0.00946976,10,-0.000213771,-2.64395,0.307944,0.191593,-17.0305,0.0941661,
2,0,0,1,0,14936.3,0.0929871,0.0927159,-2.24979,8,0.00929874,10,-0.000208591,-2.64786,0.340527,0.173261,-15.2179,0.0927159,
2,0,0,1,0,14936.4,0.0914889,0.0912028,-2.23141,8,0.00912954,10,-0.000203511,-2.65142,0.352112,0.16756,-14.5823,0.0912028,
2,0,0,1,0,14936.4,0.0899907,0.089662,-2.20814,8,0.00896187,10,-0.000197986,-2.65597,0.335163,0.176034,-15.1442,0.089662,
2,0,0,1,0,14936.5,0.0884925,0.0881848,-2.18338,8,0.00879596,10,-0.000192541,-2.66087,0.353939,0.166695,-14.2264,0.0881848,
2,0,0,1,0,14936.6,0.0869943,0.0866875,-2.16397,8,0.00863171,10,-0.000187589,-2.66475,0.389782,0.151367,-12.7957,0.0866875,
2,0,0,1,0,14936.7,0.0854961,0.0851658,-2.14789,8,0.00846871,10,-0.000182927,-2.66799,0.408305,0.1445,-12.1208,0.0851658,
2,0,0,1,0,14936.7,0.083998,0.083663,-2.13223,8,0.00830708,10,-0.000178389,-2.67117,0.369007,0.159889,-13.2919,0.083663,
2,0,0,1,0,14936.8,0.0824998,0.0822179,-2.11253,8,0.00814666,10,-0.000173688,-2.6752,0.454111,0.129924,-10.722,0.0822179,
2,0,0,1,0,14936.9,0.081002,0.0806894,-2.09634,8,0.00798769,10,-0.000169152,-2.67854,0.48546,0.121534,-9.96234,0.0806894,
2,0,0,1,0,14937,0.0795025,0.0791631,-2.08687,8,0.0078295,10,-0.000165203,-2.68051,0.600045,0.0983259,-7.9958,0.0791631,
2,0,0,1,0,14937,0.078007,0.0776776,-2.07104,8,0.00767266,10,-0.000160874,-2.68381,0.580742,0.101594,-8.2094,0.0776776,
2,0,0,1,0,14937.1,0.076507,0.0761406,-2.05821,8,0.00751635,10,-0.000156714,-2.68651,0.452547,0.130373,-10.4603,0.0761406,
2,0,0,1,0,14937.2,0.0750088,0.0746734,-2.04185,8,0.00736146,10,-0.000152472,-2.68998,0.522639,0.112889,-9.00051,0.0746734,
2,0,0,1,0,14937.3,0.0735106,0.0731873,-2.02962,8,0.00720756,10,-0.000148542,-2.69259,0.689564,0.0855613,-6.7816,0.0731873,
2,0,0,1,0,14937.3,0.0720124,0.0716307,-2.0174,8,0.00705449,10,-0.000144508,-2.69521,0.611636,0.0964626,-7.60046,0.0716307,
2,0,0,1,0,14937.4,0.0705142,0.0702268,-2.00398,8,0.00690226,10,-0.000140733,-2.69811,0.529656,0.111393,-8.71792,0.0702268,
2,0,0,1,0,14937.5,0.0690161,0.0686555,-1.99018,8,0.0067511,10,-0.000136637,-2.70111,0.566145,0.104214,-8.11493,0.0686555,
2,0,0,1,0,14937.6,0.0675179,0.0672034,-1.98377,8,0.00660092,10,-0.000133316,-2.70251,0.711107,0.0829692,-6.42209,0.06720338,
2,0,0,1,0,14937.6,0.0660179,0.0657232,-1.97842,8,0.00645121,10,-0.000130028,-2.70368,0.633129,0.0931879,-7.15985,0.0657232,
2,0,0,1,0,14937.7,0.0645224,0.0642027,-1.96008,8,0.00630264,10,-0.000125842,-2.70773,0.531552,0.110996,-8.47692,0.0642027,
2,0,0,1,0,14937.8,0.0630229,0.0627324,-1.94286,8,0.00615465,10,-0.00012188,-2.71156,0.595194,0.0991273,-7.53639,0.0627324,
2,0,0,1,0,14937.9,0.0615251,0.0612056,-1.93449,8,0.00600804,10,-0.000118401,-2.71343,0.534593,0.110364,-8.3444,0.0612056,
2,0,0,1,0,14937.9,0.0600269,0.0597074,-1.92405,8,0.00586206,10,-0.00011488,-2.71578,0.61045,0.09665,-7.25308,0.0597074,
2,0,0,1,0,14938,0.0585287,0.0582408,-1.90982,8,0.00571698,10,-0.00011123,-2.71901,0.456554,0.129229,-9.61626,0.0582408,
2,0,0,1,0,14938.1,0.0570305,0.0567011,-1.89879,8,0.00557279,10,-0.000107664,-2.72152,0.556564,0.106008,-7.85345,0.0567011,
2,0,0,1,0,14938.2,0.0555323,0.0552527,-1.88501,8,0.0054298,10,-0.000104152,-2.72469,0.552595,0.106769,-7.86639,0.05525272,
2,0,0,1,0,14938.2,0.0540342,0.0537122,-1.87451,8,0.0052876,10,-0.000100684,-2.72711,0.578337,0.102017,-7.46145,0.0537122,
2,0,0,1,0,14938.3,0.052536,0.0522262,-1.86695,8,0.00514604,10,-9.75039e-05,-2.72887,0.653824,0.0902383,-6.55457,0.0522262,
2,0,0,1,0,14938.4,0.0510378,0.0507441,-1.85187,8,0.00500544,10,-9.39716e-05,-2.73239,0.424838,0.138876,-10.0219,0.0507441,
2,0,0,1,0,14938.5,0.0495382,0.0492222,-1.83377,8,0.0048659,10,-9.0262e-05,-2.73666,0.446004,0.132286,-9.48794,0.0492222,
2,0,0,1,0,14938.5,0.0480427,0.0477268,-1.82376,8,0.00472774,10,-8.70421e-05,-2.73903,0.574677,0.102666,-7.30005,0.0477268,
2,0,0,1,0,14938.6,0.0465432,0.0462137,-1.81108,8,0.00458995,10,-8.36967e-05,-2.74206,0.49813,0.118443,-8.36095,0.0462137,
2,0,0,1,0,14938.7,0.045045,0.0447021,-1.79573,8,0.00445334,10,-8.02728e-05,-2.74576,0.433626,0.136062,-9.54455,0.0447021,
2,0,0,1,0,14938.8,0.0435468,0.0432491,-1.77871,8,0.00431792,10,-7.69277e-05,-2.74989,0.415329,0.142056,-9.87848,0.0432491,
2,0,0,1,0,14938.8,0.0420486,0.0417889,-1.76828,8,0.00418362,10,-7.38946e-05,-2.75245,0.455108,0.12964,-8.95052,0.0417889,
2,0,0,1,0,14938.9,0.0405504,0.0402443,-1.75677,8,0.00405019,10,-7.06998e-05,-2.75529,0.434008,0.135942,-9.30214,0.0402443,
2,0,0,1,0,14939,0.0390523,0.0387567,-1.74304,8,0.00391774,10,-6.75546e-05,-2.75869,0.349921,0.16861,-11.4332,0.0387567,
2,0,0,1,0,14939.1,0.0375541,0.037193,-1.72497,8,0.00378653,10,-6.41567e-05,-2.76322,0.39526,0.149269,-10.0506,0.037193,
2,0,0,1,0,14939.1,0.0360559,0.0357404,-1.70952,8,0.00365663,10,-6.10988e-05,-2.76713,0.388682,0.151795,-10.1358,0.0357404,
2,0,0,1,0,14939.2,0.0345577,0.034263,-1.69621,8,0.00352763,10,-5.81172e-05,-2.77052,0.425212,0.138754,-9.18415,0.034263,
2,0,0,1,0,14939.3,0.0330582,0.0327216,-1.68307,8,0.00339948,10,-5.50728e-05,-2.7739,0.340795,0.173125,-11.3483,0.0327216,
2,0,0,1,0,14939.4,0.0315626,0.0312376,-1.66539,8,0.0032728,10,-5.20227e-05,-2.77849,0.365361,0.161484,-10.4958,0.0312376,
2,0,0,1,0,14939.4,0.0300631,0.0297383,-1.65087,8,0.00314717,10,-4.90942e-05,-2.78229,0.362698,0.16267,-10.478,0.0297383,
2,0,0,1,0,14939.5,0.0285649,0.0282684,-1.63618,8,0.00302259,10,-4.62522e-05,-2.78617,0.454429,0.129833,-8.29227,0.0282684,
2,0,0,1,0,14939.6,0.0270667,0.0267543,-1.62627,8,0.00289898,10,-4.35096e-05,-2.78881,0.379958,0.15528,-9.84859,0.0267543,
2,0,0,1,0,14939.7,0.0255685,0.0252645,-1.61132,8,0.00277641,10,-4.07093e-05,-2.79282,0.348245,0.169421,-10.6456,0.0252645,
2,0,0,1,0,14939.7,0.0240704,0.0237829,-1.59112,8,0.00265509,10,-3.78414e-05,-2.7983,0.405125,0.145634,-9.07759,0.0237829,
2,0,0,1,0,14939.8,0.0225722,0.0222849,-1.58385,8,0.00253463,10,-3.5296e-05,-2.80029,0.501086,0.117744,-7.265,0.0222849,
2,0,0,1,0,14939.9,0.021074,0.0207799,-1.57176,8,0.00241502,10,-3.2661e-05,-2.80361,0.499405,0.11814,-7.24949,0.0207799,
2,0,0,1,0,14940,0.0195758,0.0192517,-1.56164,8,0.00229634,10,-3.00642e-05,-2.80642,0.418632,0.140935,-8.57733,0.0192517,
2,0,0,1,0,14940,0.018078,0.0177972,-1.54231,8,0.00217855,10,-2.74488e-05,-2.81183,0.481745,0.122471,-7.39259,0.0177972,
2,0,0,1,0,14940.1,0.0165785,0.0162988,-1.53795,8,0.00206152,10,-2.50668e-05,-2.81306,0.673506,0.0876013,-5.26678,0.0162988,
2,0,0,1,0,14940.2,0.015083,0.0147744,-1.53256,8,0.00194542,10,-2.26427e-05,-2.81458,0.705306,0.0836516,-4.99021,0.0147744,
2,0,0,1,0,14940.3,0.013583,0.0132458,-1.51968,8,0.00182953,10,-2.01294e-05,-2.81825,0.476251,0.123884,-7.33657,0.01324576,
2,0,0,1,0,14940.3,0.0120848,0.0117684,-1.50953,8,0.00171457,10,-1.77648e-05,-2.82116,0.555866,0.106141,-6.25924,0.0117684,
2,0,0,1,0,14940.4,0.0105866,0.0102777,-1.50089,8,0.00160038,10,-1.54256e-05,-2.82365,0.660815,0.0892837,-5.24454,0.01027768,
2,0,0,1,0,14940.5,0.00908846,0.00873195,-1.49393,8,0.00148666,10,-1.30449e-05,-2.82567,0.685726,0.0860402,-5.0291,0.00873195,
2,0,0,1,0,14940.6,0.00759027,0.00726095,-1.49288,8,0.00137336,10,-1.08397e-05,-2.82598,0.740575,0.0796678,-4.63699,0.007260948,
2,0,0,1,0,14940.6,0.00609208,0.00578456,-1.48689,8,0.00126046,10,-8.601e-06,-2.82772,0.968998,0.0608877,-3.53288,0.00578456,
2,0,0,1,0,14940.7,0.00459389,0.00427072,-1.48015,8,0.00114806,10,-6.32131e-06,-2.82969,1.604,0.0367829,-2.12873,0.00427072,
2,0,0,1,0,14940.8,0.00309391,0.00277901,-1.48124,8,0.00103562,10,-4.11637e-06,-2.82937,-1.37846,-0.0428014,2.47904,0.002779007,
2,0,0,1,0,14940.9,0.0015984,0.00124691,-1.49732,8,0.000922433,10,-1.86702e-06,-2.82469, , , ,0.001246909,
2,0,0,1,0,14940.9,0.000199195,-0.00016108,-1.47884,8,0.000816958,10,2.38213e-07,-2.83008, , , ,-0.00016108,