File: Figure_codes/Fig_3-5/rawdata_trumpetplot_data/after 10th/20221101_1-115_003_TrumpetPlot_ParaChange_from10_every3_13_CV_C01_34.csv
mode,ox/red,error,control changes,counter inc.,time/s,control/V,Ewe/V,<I>/mA,cycle number,(Q-Qo)/C,I Range,P/W,log(|I|),Tafel slope mV/dec,alpha_eff,dI/d(E-IR),E-IR/V,
2,1,0,1,0,68182.3,2.44065e-05,-0.000344411,15.9871,35,0.0000000E+000,10,-5.50614e-06,-1.79623, , , ,-0.000344411,
2,1,0,1,0,68182.3,0.00266289,0.00227903,17.2637,35,5.20912e-05,10,3.93446e-05,-1.76287, , , ,0.00227903,
2,1,0,1,0,68182.3,0.00586735,0.00550585,18.293,35,0.000123376,10,0.000100718,-1.73772, , , ,0.00550585,
2,1,0,1,0,68182.3,0.00906349,0.00870404,19.1828,35,0.000198429,10,0.000166968,-1.71709,0.160903,0.36668,271.287,0.00870404,
2,1,0,1,0,68182.3,0.0122624,0.0119075,19.9906,35,0.000276878,10,0.000238038,-1.69917,0.184785,0.31929,247.144,0.0119075,
2,1,0,1,0,68182.3,0.0154641,0.0151609,20.7584,35,0.000358474,10,0.000314715,-1.68281,0.20525,0.287454,231.414,0.0151609,
2,1,0,1,0,68182.3,0.0186602,0.0183134,21.4583,35,0.000443005,10,0.000392975,-1.6684,0.225185,0.262007,218.394,0.01831344,
2,1,0,1,0,68182.3,0.0218675,0.0215,22.144,35,0.000530302,10,0.000476095,-1.65474,0.243664,0.242136,208.453,0.0215,
2,1,0,1,0,68182.3,0.0250636,0.0247109,22.7868,35,0.000620241,10,0.000563081,-1.64232,0.262865,0.224449,198.918,0.0247109,
2,1,0,1,0,68182.3,0.0282597,0.0278942,23.4127,35,0.000712713,10,0.000653079,-1.63055,0.282493,0.208855,190.258,0.0278942,
2,1,0,1,0,68182.3,0.031467,0.0311253,24.0068,35,0.000807648,10,0.000747219,-1.61967,0.298952,0.197356,184.445,0.0311253,
2,1,0,1,0,68182.3,0.0346631,0.034315,24.5821,35,0.000904892,10,0.000843536,-1.60938,0.316258,0.186556,178.654,0.034315,
2,1,0,1,0,68182.3,0.0378704,0.0375026,25.1461,35,0.0010044,10,0.000943044,-1.59953,0.333573,0.176873,173.236,0.0375026,
2,1,0,1,0,68182.3,0.0410665,0.0406901,25.6987,35,0.00110613,10,0.00104568,-1.59009,0.349417,0.168853,169.008,0.0406901,
2,1,0,1,0,68182.3,0.0442626,0.0438936,26.2188,35,0.00121002,10,0.00115084,-1.58139,0.368712,0.160016,163.468,0.0438936,
2,1,0,1,0,68182.3,0.0474671,0.047095,26.7421,35,0.001316,10,0.00125942,-1.57281,0.387983,0.152069,158.49,0.04709499,
2,1,0,1,0,68182.4,0.0506632,0.0502741,27.2339,35,0.001424,10,0.00136916,-1.56489,0.399281,0.147766,156.933,0.0502741,
2,1,0,1,0,68182.4,0.0538621,0.053556,27.7378,35,0.00153399,10,0.00148553,-1.55693,0.41299,0.142861,154.553,0.05355604,
2,1,0,1,0,68182.4,0.0570638,0.0567235,28.2322,35,0.00164601,10,0.00160143,-1.54926,0.424577,0.138962,152.971,0.0567235,
2,1,0,1,0,68182.4,0.06026,0.05991,28.7227,35,0.00175996,10,0.00172078,-1.54178,0.436296,0.135229,151.436,0.05991,
2,1,0,1,0,68182.4,0.0634672,0.0631411,29.2021,35,0.00187587,10,0.00184385,-1.53459,0.453272,0.130165,148.188,0.0631411,
2,1,0,1,0,68182.4,0.0666633,0.0663297,29.6722,35,0.00199366,10,0.00196815,-1.52765,0.461049,0.127969,148.144,0.06632971,
2,1,0,1,0,68182.4,0.0698595,0.0695374,30.1311,35,0.00211334,10,0.00209524,-1.52099,0.471548,0.12512,147.134,0.0695374,
2,1,0,1,0,68182.4,0.0730667,0.0727409,30.6235,35,0.00223491,10,0.00222758,-1.51395,0.474988,0.124214,148.397,0.0727409,
2,1,0,1,0,68182.4,0.0762629,0.0759094,31.0808,35,0.00235838,10,0.00235932,-1.50751,0.48596,0.121409,147.185,0.0759094,
2,1,0,1,0,68182.4,0.0794701,0.0791278,31.5714,35,0.00248371,10,0.00249818,-1.50071,0.498861,0.11827,145.596,0.0791278,
2,1,0,1,0,68182.4,0.0826662,0.0823355,32.0147,35,0.00261092,10,0.00263595,-1.49465,0.502781,0.117347,146.597,0.0823355,
2,1,0,1,0,68182.4,0.0858624,0.0855082,32.4824,35,0.00273996,10,0.00277751,-1.48835,0.514087,0.114766,145.534,0.0855082,
2,1,0,1,0,68182.4,0.0890668,0.0887149,32.958,35,0.0028709,10,0.00292387,-1.48204,0.513099,0.114987,147.869,0.0887149,
2,1,0,1,0,68182.4,0.092263,0.0919088,33.4315,35,0.00300372,10,0.00307265,-1.47584,0.522644,0.112887,147.216,0.0919088,
2,1,0,1,0,68182.4,0.0954674,0.0951166,33.9047,35,0.00313844,10,0.0032249,-1.46974,0.533807,0.110527,146.159,0.0951166,
2,1,0,1,0,68182.4,0.0986636,0.0983031,34.366,35,0.00327502,10,0.00337828,-1.46387,0.540525,0.109153,146.373,0.09830308,
2,1,0,1,0,68182.4,0.10186,0.101503,34.8272,35,0.00341346,10,0.00353508,-1.45808,0.549675,0.107336,145.911,0.101503,
2,1,0,1,0,68182.4,0.105067,0.104721,35.3068,35,0.00355378,10,0.00369735,-1.45214,0.552651,0.106758,147.081,0.104721,
2,1,0,1,0,68182.4,0.108263,0.107941,35.7759,35,0.00369601,10,0.00386169,-1.44641,0.556853,0.105953,147.885,0.107941,
2,1,0,1,0,68182.4,0.111465,0.111138,36.2538,35,0.00384012,10,0.00402918,-1.44065,0.566161,0.104211,147.399,0.111138,
2,1,0,1,0,68182.4,0.114666,0.11429,36.7181,35,0.00398613,10,0.00419651,-1.43512,0.562743,0.104844,150.265,0.11429,
2,1,0,1,0,68182.4,0.117863,0.117527,37.1945,35,0.004134,10,0.00437136,-1.42952,0.569496,0.1036,150.43,0.117527,
2,1,0,1,0,68182.4,0.12107,0.120673,37.6891,35,0.00428381,10,0.00454808,-1.42378,0.569431,0.103612,152.386,0.120673,
2,1,0,1,0,68182.4,0.124266,0.123904,38.1742,35,0.00443558,10,0.00472996,-1.41823,0.560176,0.105324,156.968,0.123904,
2,1,0,1,0,68182.4,0.127462,0.127092,38.669,35,0.00458932,10,0.00491453,-1.41264,0.566278,0.104189,157.325,0.127092,
2,1,0,1,0,68182.5,0.130667,0.130289,39.1977,35,0.00474509,10,0.00510704,-1.40674,0.55389,0.106519,162.99,0.1302892,
2,1,0,1,0,68182.5,0.133863,0.133524,39.7109,35,0.00490296,10,0.00530238,-1.40109,0.551214,0.107036,165.92,0.133524,
2,1,0,1,0,68182.5,0.137067,0.136697,40.2593,35,0.00506294,10,0.00550333,-1.39513,0.556469,0.106026,166.559,0.136697,
2,1,0,1,0,68182.5,0.140263,0.139867,40.7886,35,0.0052251,10,0.00570497,-1.38946,0.556711,0.10598,168.644,0.139867,
2,1,0,1,0,68182.5,0.143459,0.143067,41.326,35,0.00538939,10,0.00591238,-1.38378,0.580148,0.101698,163.895,0.143067,
2,1,0,1,0,68182.5,0.146667,0.146246,41.8564,35,0.00555584,10,0.00612133,-1.37824,0.566583,0.104133,170.141,0.146246,
2,1,0,1,0,68182.5,0.149863,0.149433,42.3466,35,0.00572431,10,0.00632796,-1.37318,0.570126,0.103486,171.296,0.1494327,
2,1,0,1,0,68182.5,0.153064,0.152638,42.9615,35,0.00589499,10,0.00655758,-1.36692,0.575042,0.102601,171.98,0.1526383,
2,1,0,1,0,68182.5,0.156266,0.155874,43.5197,35,0.006068,10,0.00678357,-1.36131,0.574846,0.102636,174.082,0.155874,
2,1,0,1,0,68182.5,0.159462,0.159073,44.0623,35,0.00624324,10,0.00700912,-1.35593,0.615886,0.095797,164.542,0.159073,
2,1,0,1,0,68182.5,0.16267,0.162336,44.5928,35,0.0064206,10,0.007239,-1.35074,0.640707,0.0920857,160.062,0.162336,
2,1,0,1,0,68182.5,0.165866,0.165497,45.0773,35,0.0066,10,0.00746015,-1.34604,0.674225,0.0875079,153.826,0.1654968,
2,1,0,1,0,68182.5,0.169062,0.168698,45.5724,35,0.00678134,10,0.00768798,-1.3413,0.710639,0.0830239,147.518,0.168698,
2,1,0,1,0,68182.5,0.172266,0.171905,46.0362,35,0.00696462,10,0.00791384,-1.3369,0.751493,0.0785104,140.865,0.171905,
2,1,0,1,0,68182.5,0.175462,0.175104,46.4763,35,0.0071497,10,0.0081382,-1.33277,0.81165,0.0726915,131.667,0.1751041,
2,1,0,1,0,68182.5,0.178667,0.17831,46.8822,35,0.00733646,10,0.00835955,-1.32899,0.876736,0.067295,122.956,0.17831,
2,1,0,1,0,68182.5,0.181863,0.181529,47.2618,35,0.0075248,10,0.00857939,-1.32549,0.964457,0.0611743,112.677,0.181529,
2,1,0,1,0,68182.5,0.185059,0.184677,47.6067,35,0.00771458,10,0.00879188,-1.32233,1.09311,0.0539745,100.097,0.184677,
2,1,0,1,0,68182.5,0.188266,0.187937,47.9223,35,0.0079057,10,0.00900638,-1.31946,1.25734,0.0469244,87.5695,0.187937,
2,1,0,1,0,68182.5,0.191463,0.191096,48.1621,35,0.00809792,10,0.00920358,-1.31729,1.53943,0.0383258,71.8945,0.191096,
2,1,0,1,0,68182.5,0.194664,0.194278,48.3782,35,0.00829103,10,0.00939884,-1.31535,1.95178,0.0302287,56.9622,0.194278,
2,1,0,1,0,68182.5,0.197866,0.197506,48.529,35,0.00848489,10,0.00958478,-1.314,2.60095,0.022684,42.8802,0.197506,
2,1,0,1,0,68182.5,0.201062,0.200666,48.6474,35,0.00867926,10,0.00976189,-1.31294,4.22636,0.01396,26.4494,0.200666,
2,1,0,1,0,68182.5,0.204269,0.203921,48.712,35,0.008874,10,0.00993338,-1.31236,11.1012,0.00531473,10.0791,0.203921,
2,1,0,1,0,68182.5,0.207465,0.207085,48.717,35,0.00906885,10,0.0100885,-1.31232,-19.6705,-0.00299941,-5.69028,0.207085,
2,1,0,1,0,68182.6,0.210662,0.210337,48.6583,35,0.00926361,10,0.0102346,-1.31284,-4.98684,-0.0118311,-22.4254,0.210337,
2,1,0,1,0,68182.6,0.213866,0.213509,48.5743,35,0.00945809,10,0.010371,-1.31359,-3.0739,-0.0191938,-36.3171,0.213509,
2,1,0,1,0,68182.6,0.217062,0.216745,48.4244,35,0.00965209,10,0.0104958,-1.31494,-2.14224,-0.0275413,-51.943,0.216745,
2,1,0,1,0,68182.6,0.220267,0.219969,48.2491,35,0.00984541,10,0.0106133,-1.31651,-1.62329,-0.0363459,-68.2781,0.219969,
2,1,0,1,0,68182.6,0.223463,0.22311,47.9949,35,0.0100379,10,0.0107081,-1.31881,-1.32675,-0.0444696,-83.1125,0.22311,
2,1,0,1,0,68182.6,0.226659,0.226331,47.6988,35,0.0102293,10,0.0107957,-1.32149,-1.11214,-0.0530511,-98.5876,0.226331,
2,1,0,1,0,68182.6,0.229866,0.229572,47.3583,35,0.0104194,10,0.0108721,-1.3246,-0.978796,-0.0602781,-111.223,0.229572,
2,1,0,1,0,68182.6,0.233062,0.23273,46.991,35,0.010608,10,0.0109362,-1.32799,-0.865899,-0.0681373,-124.712,0.23273,
2,1,0,1,0,68182.6,0.236264,0.235911,46.5711,35,0.0107951,10,0.0109866,-1.33188,-0.775976,-0.0760333,-137.899,0.235911,
2,1,0,1,0,68182.6,0.239466,0.239094,46.1071,35,0.0109805,10,0.011024,-1.33623,-0.711801,-0.0828884,-148.903,0.239094,
2,1,0,1,0,68182.6,0.242662,0.24234,45.5976,35,0.0111638,10,0.0110501,-1.34106,-0.660757,-0.0892915,-158.7,0.24234,
2,1,0,1,0,68182.6,0.245869,0.245541,45.0834,35,0.0113451,10,0.0110698,-1.34598,-0.616753,-0.0956622,-168.079,0.245541,
2,1,0,1,0,68182.6,0.249065,0.248796,44.5262,35,0.0115243,10,0.0110779,-1.35138,-0.580685,-0.101604,-176.314,0.248796,
2,1,0,1,0,68182.6,0.252261,0.251922,43.951,35,0.0117012,10,0.0110722,-1.35703,-0.552087,-0.106867,-183.088,0.251922,
2,1,0,1,0,68182.6,0.255466,0.255086,43.3503,35,0.0118758,10,0.0110581,-1.36301,-0.527014,-0.111952,-189.22,0.2550863,
2,1,0,1,0,68182.6,0.258662,0.258367,42.735,35,0.0120479,10,0.0110413,-1.36922,-0.513435,-0.114912,-191.543,0.258367,
2,1,0,1,0,68182.6,0.261866,0.261547,42.1134,35,0.0122175,10,0.0110147,-1.37558,-0.502078,-0.117512,-193.043,0.261547,
2,1,0,1,0,68182.6,0.265063,0.26475,41.494,35,0.0123847,10,0.0109855,-1.38201,-0.490195,-0.12036,-194.826,0.2647498,
2,1,0,1,0,68182.6,0.268259,0.267985,40.8602,35,0.0125493,10,0.0109499,-1.3887,-0.479573,-0.123026,-196.114,0.267985,
2,1,0,1,0,68182.6,0.271466,0.27116,40.2426,35,0.0127115,10,0.0109122,-1.39531,-0.474651,-0.124302,-195.168,0.27116,
2,1,0,1,0,68182.6,0.274662,0.274342,39.6041,35,0.0128711,10,0.0108651,-1.40226,-0.471061,-0.125249,-193.629,0.274342,
2,1,0,1,0,68182.6,0.277869,0.277553,38.9952,35,0.0130282,10,0.0108232,-1.40899,-0.469268,-0.125728,-191.406,0.277553,
2,1,0,1,0,68182.6,0.281065,0.280742,38.3902,35,0.013183,10,0.0107777,-1.41578,-0.47337,-0.124638,-186.779,0.280742,
2,1,0,1,0,68182.6,0.284262,0.283921,37.8001,35,0.0133353,10,0.0107322,-1.42251,-0.473798,-0.124526,-183.746,0.283921,
2,1,0,1,0,68182.6,0.287469,0.287121,37.2173,35,0.0134853,10,0.0106859,-1.42926,-0.474733,-0.12428,-180.558,0.287121,
2,1,0,1,0,68182.7,0.290665,0.290332,36.6471,35,0.0136329,10,0.0106398,-1.43596,-0.48521,-0.121597,-174.035,0.290332,
2,1,0,1,0,68182.7,0.293861,0.293501,36.0865,35,0.0137783,10,0.0105914,-1.44266,-0.493021,-0.11967,-168.942,0.2935006,
2,1,0,1,0,68182.7,0.297066,0.296739,35.5693,35,0.0139216,10,0.0105548,-1.44892,-0.48881,-0.120701,-168.895,0.2967391,
2,1,0,1,0,68182.7,0.299638,0.299365,35.1489,35,0.0140348,10,0.0105223,-1.45409,-0.13856,-0.425809,-573.93,0.299365,
2,1,0,1,0,68182.7,0.300012,0.299651,35.0732,35,0.0140523,10,0.0105097,-1.45502,0.0123586,4.77401,5935.47,0.299651,
2,1,0,1,0,68182.7,0.298983,0.298823,33.0319,35,0.0140958,10,0.00987069,-1.48107,0.0468595,1.25908,1459.71,0.298823,
2,1,0,1,0,68182.7,0.295787,0.295533,28.4129,35,0.0142177,10,0.00839695,-1.54649,0.0509427,1.15816,1261.72,0.295533,
2,1,0,1,0,68182.7,0.292579,0.292314,24.8568,35,0.0143237,10,0.00726599,-1.60455,0.0542537,1.08748,1079.36,0.292314,
2,1,0,1,0,68182.7,0.289383,0.289134,21.8034,35,0.0144167,10,0.0063041,-1.66148,0.0552395,1.06808,917.085,0.289134,
2,1,0,1,0,68182.7,0.286187,0.285913,19.098,35,0.0144981,10,0.00546038,-1.71901,0.0540209,1.09217,816.377,0.285913,
2,1,0,1,0,68182.7,0.282983,0.282691,16.6351,35,0.0145693,10,0.00470259,-1.77897,0.0516589,1.14211,740.606,0.282691,
2,1,0,1,0,68182.7,0.279786,0.279501,14.3967,35,0.0146311,10,0.00402388,-1.84174,0.048639,1.21302,678.447,0.279501,
2,1,0,1,0,68182.7,0.276582,0.276335,12.3243,35,0.0146843,10,0.00340563,-1.90924,0.0451013,1.30816,623.862,0.276335,
2,1,0,1,0,68182.7,0.273386,0.273141,10.4325,35,0.0147295,10,0.00284955,-1.98161,0.0410065,1.4388,576.639,0.273141,
2,1,0,1,0,68182.7,0.27019,0.269915,8.66477,35,0.0147675,10,0.00233875,-2.06224,0.0364213,1.61993,533.975,0.269915,
2,1,0,1,0,68182.7,0.266982,0.266705,7.01805,35,0.0147987,10,0.00187175,-2.15378,0.0310658,1.89919,499.278,0.266705,
2,1,0,1,0,68182.7,0.263786,0.263521,5.48196,35,0.0148235,10,0.00144461,-2.26106,0.025277,2.33414,465.411,0.263521,
2,1,0,1,0,68182.7,0.260585,0.260331,4.0369,35,0.0148424,10,0.00105093,-2.39395,0.0185938,3.17311,435.839,0.260331,
2,1,0,1,0,68182.7,0.257383,0.257081,2.69166,35,0.0148557,10,0.000691973,-2.56998,0.00947265,6.22846,407.179,0.257081,
2,1,0,1,0,68182.7,0.254187,0.253901,1.4374,35,0.0148638,10,0.000364957,-2.84242,0.0194173,3.03852,382.524,0.2539008,
2,1,0,1,0,68182.7,0.25098,0.250646,0.239788,35,0.014867,10,6.01019e-05,-3.62017,0.0903867,0.652751,362.463,0.250646,
2,0,0,1,0,68182.7,0.247783,0.247479,-0.879346,35,0.0148656,10,-0.00021762,-3.05584,-0.0410524,-1.43719,342.776,0.247479,
2,0,0,1,0,68182.7,0.244587,0.244293,-1.94332,35,0.0148598,10,-0.000474741,-2.71146,-0.0105186,-5.60909,324.411,0.2442935,
2,0,0,1,0,68182.7,0.241383,0.241119,-2.94401,35,0.0148499,10,-0.000709856,-2.53106,-0.0174108,-3.38869,304.934,0.241119,
2,0,0,1,0,68182.7,0.238187,0.237918,-3.88933,35,0.0148362,10,-0.000925343,-2.41013,-0.0276298,-2.13538,289.153,0.237918,
2,0,0,1,0,68182.7,0.234982,0.234668,-4.78578,35,0.0148187,10,-0.00112307,-2.32005,-0.0377776,-1.56177,272.275,0.234668,
2,0,0,1,0,68182.7,0.231786,0.231507,-5.64054,35,0.0147978,10,-0.00130583,-2.24868,-0.0475857,-1.23987,260.663,0.231507,
2,0,0,1,0,68182.8,0.22859,0.228271,-6.44219,35,0.0147735,10,-0.00147056,-2.19097,-0.0579882,-1.01745,247.573,0.228271,
2,0,0,1,0,68182.8,0.225383,0.225114,-7.22698,35,0.014746,10,-0.00162689,-2.14104,-0.0688189,-0.857322,235.738,0.225114,
2,0,0,1,0,68182.8,0.222187,0.221885,-7.95057,35,0.0147156,10,-0.00176411,-2.0996,-0.0793574,-0.743472,226.255,0.221885,
2,0,0,1,0,68182.8,0.218979,0.21867,-8.66678,35,0.0146823,10,-0.00189516,-2.06214,-0.0917429,-0.643101,213.995,0.21867,
2,0,0,1,0,68182.8,0.215783,0.215501,-9.33133,35,0.0146463,10,-0.00201091,-2.03006,-0.102664,-0.574691,206.612,0.215501,
2,0,0,1,0,68182.8,0.212587,0.212283,-9.97273,35,0.0146076,10,-0.00211704,-2.00119,-0.115123,-0.512493,197.551,0.212283,
2,0,0,1,0,68182.8,0.20938,0.209059,-10.6005,35,0.0145663,10,-0.00221613,-1.97467,-0.128065,-0.460704,188.722,0.209059,
2,0,0,1,0,68182.8,0.206184,0.205872,-11.195,35,0.0145227,10,-0.00230474,-1.95097,-0.139777,-0.422101,182.898,0.205872,
2,0,0,1,0,68182.8,0.202988,0.202662,-11.7544,35,0.0144768,10,-0.00238217,-1.9298,-0.153611,-0.384087,175.12,0.202662,
2,0,0,1,0,68182.8,0.199783,0.199476,-12.315,35,0.0144286,10,-0.00245656,-1.90956,-0.166278,-0.354827,169.619,0.199476,
2,0,0,1,0,68182.8,0.196587,0.196293,-12.8361,35,0.0143782,10,-0.00251964,-1.89157,-0.179729,-0.328271,163.623,0.196293,
2,0,0,1,0,68182.8,0.193382,0.193068,-13.3667,35,0.0143257,10,-0.00258069,-1.87397,-0.194741,-0.302967,157.212,0.193068,
2,0,0,1,0,68182.8,0.190186,0.189879,-13.846,35,0.0142712,10,-0.00262907,-1.85867,-0.206408,-0.285841,153.925,0.189879,
2,0,0,1,0,68182.8,0.18699,0.186672,-14.328,35,0.0142148,10,-0.00267464,-1.84381,-0.221446,-0.266431,148.662,0.186672,
2,0,0,1,0,68182.8,0.183783,0.183489,-14.807,35,0.0141565,10,-0.00271692,-1.82953,-0.230727,-0.255713,147.374,0.1834887,
2,0,0,1,0,68182.8,0.180587,0.180266,-15.27,35,0.0140963,10,-0.00275266,-1.81616,-0.245634,-0.240195,142.722,0.180266,
2,0,0,1,0,68182.8,0.17738,0.177104,-15.7287,35,0.0140343,10,-0.00278561,-1.80331,-0.25964,-0.227238,139.066,0.177104,
2,0,0,1,0,68182.8,0.174183,0.173842,-16.1591,35,0.0139704,10,-0.00280914,-1.79158,-0.267569,-0.220504,138.893,0.173842,
2,0,0,1,0,68182.8,0.170987,0.170675,-16.589,35,0.0139049,10,-0.00283133,-1.78018,-0.281711,-0.209435,135.552,0.170675,
2,0,0,1,0,68182.8,0.16778,0.167505,-17.0424,35,0.0138376,10,-0.00285468,-1.76847,-0.286403,-0.206004,136.832,0.1675052,
2,0,0,1,0,68182.8,0.164584,0.164256,-17.4702,35,0.0137685,10,-0.00286959,-1.7577,-0.293838,-0.200791,136.738,0.164256,
2,0,0,1,0,68182.8,0.161382,0.161046,-17.91,35,0.0136977,10,-0.00288434,-1.7469,-0.302999,-0.19472,136.023,0.161046,
2,0,0,1,0,68182.8,0.158183,0.157877,-18.339,35,0.0136252,10,-0.0028953,-1.73662,-0.303736,-0.194248,139.063,0.157877,
2,0,0,1,0,68182.8,0.154987,0.154697,-18.7846,35,0.0135509,10,-0.00290592,-1.7262,-0.304879,-0.193519,141.984,0.154697,
2,0,0,1,0,68182.8,0.151783,0.151485,-19.2463,35,0.0134748,10,-0.00291552,-1.71565,-0.304446,-0.193795,145.649,0.151485,
2,0,0,1,0,68182.9,0.148587,0.14831,-19.7184,35,0.0133968,10,-0.00292443,-1.70513,-0.300801,-0.196143,151.086,0.14831,
2,0,0,1,0,68182.9,0.145385,0.145055,-20.2064,35,0.0133169,10,-0.00293105,-1.69451,-0.296635,-0.198898,157.055,0.145055,
2,0,0,1,0,68182.9,0.142183,0.141876,-20.7216,35,0.013235,10,-0.0029399,-1.68358,-0.288023,-0.204845,166.014,0.141876,
2,0,0,1,0,68182.9,0.138987,0.138709,-21.2528,35,0.013151,10,-0.00294795,-1.67258,-0.278785,-0.211632,176.016,0.138709,
2,0,0,1,0,68182.9,0.13578,0.135468,-21.8503,35,0.0130648,10,-0.00296002,-1.66054,-0.268884,-0.219425,187.532,0.135468,
2,0,0,1,0,68182.9,0.132584,0.132277,-22.4555,35,0.0129761,10,-0.00297036,-1.64868,-0.258645,-0.228112,200.421,0.132277,
2,0,0,1,0,68182.9,0.129388,0.129086,-23.1203,35,0.0128849,10,-0.00298449,-1.63601,-0.250764,-0.235281,212.887,0.129086,
2,0,0,1,0,68182.9,0.12618,0.125891,-23.8218,35,0.012791,10,-0.00299895,-1.62302,-0.24243,-0.243369,226.803,0.125891,
2,0,0,1,0,68182.9,0.122984,0.122683,-24.5721,35,0.0126941,10,-0.00301458,-1.60956,-0.233579,-0.252591,242.924,0.122683,
2,0,0,1,0,68182.9,0.119783,0.119464,-25.3618,35,0.0125942,10,-0.00302981,-1.59582,-0.227988,-0.258786,256.817,0.1194635,
2,0,0,1,0,68182.9,0.116584,0.116282,-26.2305,35,0.0124909,10,-0.00305014,-1.58119,-0.224457,-0.262857,269.35,0.116282,
2,0,0,1,0,68182.9,0.113387,0.113104,-27.1056,35,0.0123842,10,-0.00306576,-1.56694,-0.223113,-0.26444,279.755,0.113104,
2,0,0,1,0,68182.9,0.110183,0.109898,-28.0158,35,0.0122739,10,-0.00307887,-1.5526,-0.225883,-0.261197,285.636,0.109898,
2,0,0,1,0,68182.9,0.106987,0.106705,-28.9311,35,0.0121598,10,-0.00308708,-1.53863,-0.229075,-0.257557,290.782,0.106705,
2,0,0,1,0,68182.9,0.103785,0.103467,-29.8909,35,0.0120421,10,-0.00309273,-1.52446,-0.234917,-0.251153,292.601,0.103467,
2,0,0,1,0,68182.9,0.100583,0.100289,-30.832,35,0.0119206,10,-0.00309211,-1.511,-0.240901,-0.244914,294.179,0.100289,
2,0,0,1,0,68182.9,0.0973873,0.0970783,-31.7667,35,0.0117953,10,-0.00308386,-1.49803,-0.249721,-0.236264,292.485,0.0970783,
2,0,0,1,0,68182.9,0.0941801,0.0938897,-32.701,35,0.0116662,10,-0.00307029,-1.48544,-0.262426,-0.224825,286.262,0.0938897,
2,0,0,1,0,68182.9,0.090984,0.0907053,-33.6236,35,0.0115335,10,-0.00304984,-1.47336,-0.273918,-0.215393,281.831,0.0907053,
2,0,0,1,0,68182.9,0.0877878,0.0875209,-34.4871,35,0.0113972,10,-0.00301834,-1.46234,-0.287718,-0.205062,275.504,0.0875209,
2,0,0,1,0,68182.9,0.0845806,0.0843609,-35.3509,35,0.0112574,10,-0.00298223,-1.4516,-0.302468,-0.195062,268.862,0.0843609,
2,0,0,1,0,68182.9,0.0813844,0.0811552,-36.2094,35,0.0111142,10,-0.00293858,-1.44118,-0.318156,-0.185444,261.516,0.0811552,
2,0,0,1,0,68182.9,0.0781828,0.0778945,-37.0679,35,0.0109676,10,-0.00288739,-1.431,-0.334267,-0.176506,254.557,0.0778945,
2,0,0,1,0,68182.9,0.0749839,0.0747239,-37.8337,35,0.0108177,10,-0.00282708,-1.42212,-0.357581,-0.164997,243.059,0.0747239,
2,0,0,1,0,68182.9,0.0717877,0.0715777,-38.605,35,0.0106647,10,-0.00276325,-1.41336,-0.386414,-0.152686,229.508,0.0715777,
2,0,0,1,0,68183,0.0685832,0.0683349,-39.3255,35,0.0105088,10,-0.00268731,-1.40533,-0.411996,-0.143205,219.179,0.06833493,
2,0,0,1,0,68183,0.0653871,0.0651177,-40.0003,35,0.01035,10,-0.00260473,-1.39794,-0.451502,-0.130675,203.48,0.0651177,
2,0,0,1,0,68183,0.0621854,0.061947,-40.6341,35,0.0101887,10,-0.00251716,-1.39111,-0.484248,-0.121838,192.783,0.061947,
2,0,0,1,0,68183,0.0589837,0.0587149,-41.2223,35,0.0100249,10,-0.00242036,-1.38487,-0.51795,-0.113911,182.972,0.05871493,
2,0,0,1,0,68183,0.0557876,0.0555698,-41.7864,35,0.00985882,10,-0.00232206,-1.37896,-0.560993,-0.105171,171.239,0.0555698,
2,0,0,1,0,68183,0.0525803,0.0523408,-42.3381,35,0.00969051,10,-0.00221601,-1.37327,-0.598605,-0.0985625,162.527,0.0523408,
2,0,0,1,0,68183,0.0493842,0.0491511,-42.8253,35,0.00952011,10,-0.00210491,-1.3683,-0.647825,-0.091074,151.972,0.0491511,
2,0,0,1,0,68183,0.0461881,0.0459349,-43.2994,35,0.00934782,10,-0.00198895,-1.36352,-0.697796,-0.084552,142.713,0.0459349,
2,0,0,1,0,68183,0.0429808,0.0426996,-43.7423,35,0.00917367,10,-0.00186778,-1.3591,-0.750785,-0.0785844,133.965,0.0426996,
2,0,0,1,0,68183,0.0397847,0.0394844,-44.1729,35,0.00899781,10,-0.00174414,-1.35484,-0.815064,-0.0723869,124.575,0.0394844,
2,0,0,1,0,68183,0.036583,0.0362926,-44.5479,35,0.00882034,10,-0.00161676,-1.35117,-0.896105,-0.0658405,114.269,0.0362926,
2,0,0,1,0,68183,0.0333841,0.0330573,-44.9036,35,0.00864139,10,-0.00148439,-1.34772,-0.986298,-0.0598196,104.682,0.0330573,
2,0,0,1,0,68183,0.030188,0.0298846,-45.2067,35,0.00846112,10,-0.00135098,-1.3448,-1.07732,-0.0547655,96.5263,0.0298846,
2,0,0,1,0,68183,0.0269835,0.0266758,-45.5137,35,0.00827963,10,-0.00121412,-1.34186,-1.17836,-0.0500696,88.8494,0.0266758,
2,0,0,1,0,68183,0.0237874,0.0235052,-45.7822,35,0.00809699,10,-0.00107612,-1.3393,-1.29967,-0.0453962,81.0086,0.02350519,
2,0,0,1,0,68183,0.0205857,0.0202741,-46.0394,35,0.00791332,10,-0.000933409,-1.33687,-1.46466,-0.0402823,72.2768,0.0202741,
2,0,0,1,0,68183,0.017384,0.0170537,-46.2461,35,0.00772871,10,-0.000788666,-1.33492,-1.64216,-0.0359283,64.7743,0.0170537,
2,0,0,1,0,68183,0.0141878,0.0138725,-46.4391,35,0.00754332,10,-0.000644225,-1.33312,-1.89265,-0.0311732,56.4511,0.01387246,
2,0,0,1,0,68183,0.0109806,0.0106955,-46.6119,35,0.00735718,10,-0.000498537,-1.3315,-2.1696,-0.0271939,49.4144,0.0106955,
2,0,0,1,0,68183,0.00778448,0.00743049,-46.7644,35,0.00717042,10,-0.000347483,-1.33008,-2.32663,-0.0253585,46.2532,0.00743049,
2,0,0,1,0,68183,0.00458834,0.00429805,-46.8764,35,0.00698311,10,-0.000201477,-1.32905,-2.99077,-0.0197274,36.065,0.004298049,
2,0,0,1,0,68183,0.0013811,0.000999124,-47.0346,35,0.00679531,10,-4.69934e-05,-1.32758,-3.78055,-0.0156062,28.5936,0.000999124,
2,0,0,1,0,68183,-0.00181504,-0.0021874,-47.0765,35,0.00660709,10,0.000102975,-1.3272,-5.23473,-0.0112709,20.6776,-0.0021874,
2,0,0,1,0,68183,-0.0050195,-0.00536226,-47.1302,35,0.00641869,10,0.000252724,-1.3267,-11.2284,-0.00525454,9.65795,-0.00536226,
2,0,0,1,0,68183,-0.00821564,-0.00851485,-47.1413,35,0.00623013,10,0.000401401,-1.3266,-22.6291,-0.00260727,4.79332,-0.00851485,
2,0,0,1,0,68183.1,-0.0114118,-0.0117989,-47.1582,35,0.00604153,10,0.000556416,-1.32644,32.7269,0.0018028,-3.31448,-0.0117989,
2,0,0,1,0,68183.1,-0.0146162,-0.014977,-47.1378,35,0.00585291,10,0.000705982,-1.32663,12.8539,0.00459004,-8.43494,-0.014977,
2,0,0,1,0,68183.1,-0.0178124,-0.0181561,-47.0878,35,0.00566446,10,0.000854929,-1.32709,7.09065,0.00832081,-15.2823,-0.0181561,
2,0,0,1,0,68183.1,-0.0210196,-0.0213797,-47.0328,35,0.00547623,10,0.00100555,-1.3276,4.98235,0.0118418,-21.7204,-0.0213797,
2,0,0,1,0,68183.1,-0.0242158,-0.0245503,-46.9633,35,0.00528823,10,0.00115296,-1.32824,4.33617,0.0136065,-24.9197,-0.0245503,
2,0,0,1,0,68183.1,-0.0274119,-0.0277634,-46.8601,35,0.00510057,10,0.00130099,-1.3292,3.47793,0.0169641,-31.0072,-0.0277634,
2,0,0,1,0,68183.1,-0.0306191,-0.0309531,-46.7689,35,0.00491331,10,0.00144764,-1.33004,3.15043,0.0187276,-34.1639,-0.0309531,
2,0,0,1,0,68183.1,-0.0338153,-0.0341396,-46.6372,35,0.0047265,10,0.00159217,-1.33127,2.9436,0.0200435,-36.4719,-0.0341396,
2,0,0,1,0,68183.1,-0.037017,-0.0373993,-46.5243,35,0.00454021,10,0.00173998,-1.33232,2.64057,0.0223436,-40.555,-0.0373993,
2,0,0,1,0,68183.1,-0.0402187,-0.0406123,-46.3915,35,0.0043544,10,0.00188407,-1.33356,2.59436,0.0227416,-41.1571,-0.0406123,
2,0,0,1,0,68183.1,-0.0434148,-0.0437967,-46.248,35,0.00416914,10,0.00202551,-1.33491,2.38658,0.0247216,-44.6111,-0.0437967,
2,0,0,1,0,68183.1,-0.0466193,-0.0469843,-46.1085,35,0.00398445,10,0.00216638,-1.33622,2.26665,0.0260295,-46.8238,-0.0469843,
2,0,0,1,0,68183.1,-0.0498154,-0.050192,-45.9536,35,0.00380034,10,0.00230651,-1.33768,2.34899,0.0251172,-45.052,-0.050192,
2,0,0,1,0,68183.1,-0.0530115,-0.0533287,-45.7961,35,0.00361685,10,0.00244224,-1.33917,2.29914,0.0256618,-45.8831,-0.0533287,
2,0,0,1,0,68183.1,-0.056216,-0.0565576,-45.6731,35,0.00343392,10,0.00258316,-1.34034,2.40988,0.0244825,-43.6406,-0.0565576,
2,0,0,1,0,68183.1,-0.0594121,-0.0597728,-45.5217,35,0.00325154,10,0.00272096,-1.34178,2.44917,0.0240898,-42.7959,-0.0597728,
2,0,0,1,0,68183.1,-0.0626194,-0.062972,-45.3959,35,0.00306973,10,0.00285867,-1.34298,2.41014,0.0244799,-43.3696,-0.062972,
2,0,0,1,0,68183.1,-0.0658155,-0.0661893,-45.2457,35,0.00288846,10,0.00299478,-1.34442,2.62002,0.0225189,-39.783,-0.0661893,
2,0,0,1,0,68183.1,-0.0690117,-0.0693377,-45.1189,35,0.00270773,10,0.00312844,-1.34564,2.70882,0.0217807,-38.3793,-0.0693377,
2,0,0,1,0,68183.1,-0.0722189,-0.0725327,-45.0141,35,0.00252748,10,0.00326499,-1.34665,3.02636,0.0194954,-34.2578,-0.0725327,
2,0,0,1,0,68183.1,-0.075415,-0.0757383,-44.9059,35,0.00234765,10,0.0034011,-1.3477,3.28691,0.01795,-31.4657,-0.0757383,
2,0,0,1,0,68183.1,-0.0786167,-0.0789948,-44.807,35,0.00216824,10,0.00353952,-1.34865,3.39988,0.0173535,-30.3535,-0.0789948,
2,0,0,1,0,68183.1,-0.0818184,-0.0821644,-44.7153,35,0.00198921,10,0.003674,-1.34954,4.05136,0.014563,-25.4292,-0.0821644,
2,0,0,1,0,68183.1,-0.0850146,-0.0854007,-44.6235,35,0.00181055,10,0.00381088,-1.35044,4.45555,0.0132419,-23.0794,-0.0854007,
2,0,0,1,0,68183.1,-0.088219,-0.0886,-44.5789,35,0.00163217,10,0.00394969,-1.35087,5.36407,0.0109991,-19.1417,-0.0886,
2,0,0,1,0,68183.2,-0.0914152,-0.0917907,-44.5117,35,0.001454,10,0.00408576,-1.35153,6.50273,0.00907311,-15.7653,-0.0917907,
2,0,0,1,0,68183.2,-0.0946141,-0.0949974,-44.4696,35,0.00127605,10,0.0042245,-1.35194,7.78659,0.00757713,-13.1577,-0.0949974,
2,0,0,1,0,68183.2,-0.0978158,-0.0981829,-44.422,35,0.00109825,10,0.00436148,-1.3524,12.9091,0.00457042,-7.93044,-0.0981829,
2,0,0,1,0,68183.2,-0.101012,-0.101353,-44.4111,35,0.000920603,10,0.00450122,-1.35251,22.4903,0.00262336,-4.54987,-0.101353,
2,0,0,1,0,68183.2,-0.104219,-0.1046,-44.4101,35,0.000742976,10,0.00464531,-1.35252,190.851,0.000309142,-0.535904,-0.1046,
2,0,0,1,0,68183.2,-0.107415,-0.107811,-44.4113,35,0.000565329,10,0.00478804,-1.35251,-31.7111,-0.00186055,3.22625,-0.107811,
2,0,0,1,0,68183.2,-0.110611,-0.110972,-44.4152,35,0.000387671,10,0.00492886,-1.35247,-18.3257,-0.00321952,5.58449,-0.110972,
2,0,0,1,0,68183.2,-0.113819,-0.114167,-44.4524,35,0.000209915,10,0.00507502,-1.3521,-9.50082,-0.00620999,10.78,-0.114167,
2,0,0,1,0,68183.2,-0.117015,-0.117356,-44.4813,35,3.20321e-05,10,0.00522015,-1.35182,-6.60349,-0.00893467,15.5219,-0.117356,
2,0,0,1,0,68183.2,-0.120216,-0.120585,-44.549,35,-0.000146031,10,0.00537194,-1.35116,-5.38125,-0.010964,19.073,-0.120585,
2,0,0,1,0,68183.2,-0.123418,-0.12378,-44.614,35,-0.000324364,10,0.00552232,-1.35053,-4.36025,-0.0135313,23.5692,-0.12378,
2,0,0,1,0,68183.2,-0.126614,-0.12698,-44.6968,35,-0.000502978,10,0.00567561,-1.34972,-4.06357,-0.0145193,25.3347,-0.12698,
2,0,0,1,0,68183.2,-0.129819,-0.130113,-44.782,35,-0.000681935,10,0.00582671,-1.3489,-3.59406,-0.016416,28.6999,-0.130113,
2,0,0,1,0,68183.2,-0.133015,-0.13333,-44.8719,35,-0.000861244,10,0.00598277,-1.34803,-3.17435,-0.0185865,32.5724,-0.13333,
2,0,0,1,0,68183.2,-0.136214,-0.136562,-44.9808,35,-0.00104096,10,0.00614268,-1.34697,-2.98833,-0.0197434,34.6768,-0.136562,
2,0,0,1,0,68183.2,-0.139416,-0.139753,-45.1128,35,-0.00122118,10,0.00630465,-1.3457,-2.68557,-0.0219692,38.6848,-0.139753,
2,0,0,1,0,68183.2,-0.142612,-0.142947,-45.227,35,-0.00140188,10,0.00646506,-1.3446,-2.63163,-0.0224196,39.5777,-0.1429469,
2,0,0,1,0,68183.2,-0.145819,-0.14614,-45.3674,35,-0.00158308,10,0.00662999,-1.34326,-2.53029,-0.0233175,41.2933,-0.14614,
2,0,0,1,0,68183.2,-0.149015,-0.149351,-45.4869,35,-0.0017648,10,0.00679351,-1.34211,-2.41303,-0.0244506,43.4215,-0.149351,
2,0,0,1,0,68183.2,-0.152211,-0.152569,-45.642,35,-0.00194707,10,0.00696356,-1.34063,-2.42229,-0.0243571,43.3899,-0.152569,
2,0,0,1,0,68183.2,-0.155418,-0.155742,-45.7826,35,-0.00212996,10,0.00713026,-1.3393,-2.34514,-0.0251584,44.9436,-0.155742,
2,0,0,1,0,68183.2,-0.158615,-0.158989,-45.925,35,-0.0023134,10,0.00730155,-1.33795,-2.37559,-0.024836,44.5142,-0.158989,
2,0,0,1,0,68183.2,-0.161816,-0.162164,-46.0628,35,-0.00249739,10,0.00746971,-1.33665,-2.44487,-0.0241322,43.3788,-0.162164,
2,0,0,1,0,68183.2,-0.165018,-0.16533,-46.2101,35,-0.00268194,10,0.00763991,-1.33526,-2.43098,-0.02427,43.763,-0.16533,
2,0,0,1,0,68183.2,-0.168214,-0.168528,-46.3373,35,-0.00286703,10,0.00780913,-1.33407,-2.57299,-0.0229305,41.4583,-0.168528,
2,0,0,1,0,68183.3,-0.171419,-0.171734,-46.4827,35,-0.00305269,10,0.00798265,-1.33271,-2.70959,-0.0217746,39.4837,-0.171734,
2,0,0,1,0,68183.3,-0.174615,-0.174932,-46.5922,35,-0.00323885,10,0.00815046,-1.33169,-2.86734,-0.0205766,37.4029,-0.174932,
2,0,0,1,0,68183.3,-0.177814,-0.178152,-46.7164,35,-0.00342548,10,0.00832263,-1.33053,-3.10948,-0.0189743,34.5846,-0.178152,
2,0,0,1,0,68183.3,-0.181015,-0.181352,-46.8169,35,-0.00361258,10,0.00849032,-1.3296,-3.16553,-0.0186383,34.0495,-0.181352,
2,0,0,1,0,68183.3,-0.184211,-0.184555,-46.9261,35,-0.00380008,10,0.00866046,-1.32859,-3.40717,-0.0173164,31.7079,-0.184555,
2,0,0,1,0,68183.3,-0.187419,-0.187759,-47.0289,35,-0.00398802,10,0.00883008,-1.32764,-3.75591,-0.0157086,28.814,-0.187759,
2,0,0,1,0,68183.3,-0.190615,-0.190932,-47.1216,35,-0.00417633,10,0.00899704,-1.32678,-4.04201,-0.0145967,26.8298,-0.190932,
2,0,0,1,0,68183.3,-0.193811,-0.194119,-47.1848,35,-0.00436496,10,0.00915946,-1.3262,-4.69551,-0.0125652,23.1313,-0.194119,
2,0,0,1,0,68183.3,-0.197018,-0.197355,-47.2696,35,-0.00455391,10,0.0093289,-1.32542,-8.86008,-0.00665908,12.2614,-0.1973553,
2,0,0,1,0,68183.3,-0.199647,-0.199979,-47.3116,35,-0.00471,10,0.00946131,-1.32503,0.225531,0.261605,-469.007,-0.199979,
2,0,0,1,0,68183.3,-0.200134,-0.200551,-47.2395,35,-0.00473838,10,0.00947395,-1.32569,-0.0152035,-3.88069,6564.37,-0.200551,
2,0,0,1,1,68183.3,-0.198935,-0.199389,-44.713,35,-0.00480656,10,0.00891529,-1.34957,-0.0581497,-1.01462,1635.09,-0.199389,
2,0,0,1,1,68183.3,-0.195739,-0.196193,-39.6403,35,-0.00497424,10,0.00777716,-1.40186,-0.0670296,-0.880208,1355.59,-0.196193,
2,0,0,1,1,68183.3,-0.192535,-0.192943,-35.8074,35,-0.00512453,10,0.00690879,-1.44603,-0.072447,-0.814389,1167.36,-0.192943,
2,0,0,1,1,68183.3,-0.189339,-0.189744,-32.5889,35,-0.00526087,10,0.00618353,-1.48693,-0.078744,-0.749263,966.245,-0.1897437,
2,0,0,1,1,68183.3,-0.186137,-0.186577,-29.7571,35,-0.00538519,10,0.00555199,-1.52641,-0.081057,-0.727883,852.9,-0.186577,
2,0,0,1,1,68183.3,-0.182935,-0.183342,-27.223,35,-0.00549881,10,0.00499113,-1.56506,-0.0819665,-0.719806,768.788,-0.183342,
2,0,0,1,1,68183.3,-0.179739,-0.180154,-24.9001,35,-0.00560276,10,0.00448587,-1.6038,-0.0820447,-0.71912,700.811,-0.180154,
2,0,0,1,1,68183.3,-0.176532,-0.176927,-22.7352,35,-0.00569777,10,0.00402246,-1.6433,-0.0801558,-0.736067,654.2,-0.176927,
2,0,0,1,1,68183.3,-0.173336,-0.173693,-20.7279,35,-0.00578445,10,0.00360029,-1.68345,-0.078132,-0.755132,610.788,-0.1736934,
2,0,0,1,1,68183.3,-0.17014,-0.170524,-18.8374,35,-0.00586336,10,0.00321222,-1.72498,-0.0749452,-0.787242,577.575,-0.170524,
2,0,0,1,1,68183.3,-0.166932,-0.167295,-17.0457,35,-0.00593491,10,0.00285165,-1.76839,-0.0708657,-0.832561,551.648,-0.167295,
2,0,0,1,1,68183.3,-0.163736,-0.164133,-15.3458,35,-0.00599951,10,0.00251875,-1.81401,-0.0672762,-0.876982,522.075,-0.164133,
2,0,0,1,1,68183.3,-0.160532,-0.160972,-13.7099,35,-0.00605746,10,0.00220691,-1.86296,-0.0627845,-0.939723,498.988,-0.1609717,
2,0,0,1,1,68183.3,-0.157336,-0.157727,-12.1564,35,-0.00610902,10,0.00191739,-1.91519,-0.0578967,-1.01906,478.203,-0.157727,
2,0,0,1,1,68183.3,-0.154139,-0.154504,-10.6633,35,-0.00615449,10,0.00164752,-1.97211,-0.0527644,-1.11818,458.171,-0.154504,
2,0,0,1,1,68183.4,-0.150935,-0.151323,-9.22016,35,-0.00619409,10,0.00139522,-2.03526,-0.0467521,-1.26197,444.102,-0.151323,
2,0,0,1,1,68183.4,-0.147739,-0.148146,-7.83361,35,-0.00622804,10,0.00116052,-2.10604,-0.0406458,-1.45157,430.151,-0.148146,
2,0,0,1,1,68183.4,-0.144532,-0.144926,-6.47134,35,-0.00625652,10,0.000937863,-2.18901,-0.0342335,-1.72346,416.267,-0.144926,
2,0,0,1,1,68183.4,-0.141335,-0.141752,-5.17779,35,-0.00627966,10,0.000733961,-2.28586,-0.0274025,-2.15309,403.433,-0.1417518,
2,0,0,1,1,68183.4,-0.138139,-0.138562,-3.9082,35,-0.00629769,10,0.000541528,-2.40802,-0.0198919,-2.96604,391.443,-0.1385621,
2,0,0,1,1,68183.4,-0.134932,-0.13536,-2.67515,35,-0.00631071,10,0.000362107,-2.57265,-0.0104681,-5.63618,381.12,-0.13536,
2,0,0,1,1,68183.4,-0.131736,-0.13217,-1.47824,35,-0.00631889,10,0.000195379,-2.83025,-0.0191454,-3.08168,370.542,-0.13217,
2,0,0,1,1,68183.4,-0.12854,-0.128986,-0.312323,35,-0.00632235,10,4.02852e-05,-3.5054,-0.092719,-0.636331,361.313,-0.128986,
2,1,0,1,1,68183.4,-0.125333,-0.125755,0.837552,35,-0.00632117,10,-0.000105326,-3.07699,0.0408833,1.44313,353.037,-0.125755,
2,1,0,1,1,68183.4,-0.122136,-0.122567,1.94704,35,-0.00631548,10,-0.000238642,-2.71063,0.0114596,5.1485,344.418,-0.122567,
2,1,0,1,1,68183.4,-0.118932,-0.119375,3.03882,35,-0.00630541,10,-0.00036276,-2.51729,0.0161979,3.64244,337.487,-0.1193751,
2,1,0,1,1,68183.4,-0.115736,-0.116169,4.10177,35,-0.00629101,10,-0.000476501,-2.38703,0.0255321,2.31082,330.256,-0.116169,
2,1,0,1,1,68183.4,-0.11254,-0.112979,5.14921,35,-0.00627241,10,-0.000581751,-2.28826,0.034181,1.72611,324.49,-0.112979,
2,1,0,1,1,68183.4,-0.109335,-0.109774,6.17192,35,-0.00624963,10,-0.000677517,-2.20958,0.0426425,1.3836,318.879,-0.109774,
2,1,0,1,1,68183.4,-0.106139,-0.106608,7.18169,35,-0.00622281,10,-0.000765624,-2.14377,0.0513069,1.14994,312.273,-0.106608,
2,1,0,1,1,68183.4,-0.102932,-0.103401,8.17333,35,-0.006192,10,-0.000845132,-2.0876,0.0596262,0.989498,307.974,-0.103401,
2,1,0,1,1,68183.4,-0.0997357,-0.100173,9.14801,35,-0.00615725,10,-0.000916386,-2.03867,0.0687252,0.858492,300.744,-0.100173,
2,1,0,1,1,68183.4,-0.0965395,-0.0970217,10.0993,35,-0.00611865,10,-0.000979855,-1.99571,0.0775927,0.76038,295.26,-0.0970217,
2,1,0,1,1,68183.4,-0.0933323,-0.0937535,11.0475,35,-0.00607624,10,-0.00103574,-1.95674,0.0865435,0.681738,290.133,-0.0937535,
2,1,0,1,1,68183.4,-0.0901362,-0.0905543,11.9665,35,-0.0060301,10,-0.00108362,-1.92203,0.0955975,0.617171,285.066,-0.0905543,
2,1,0,1,1,68183.4,-0.0869345,-0.0873338,12.8731,35,-0.00598035,10,-0.00112426,-1.89032,0.104631,0.563886,280.776,-0.0873338,
2,1,0,1,1,68183.4,-0.0837328,-0.0841823,13.7594,35,-0.00592699,10,-0.0011583,-1.8614,0.114175,0.516751,275.409,-0.0841823,
2,1,0,1,1,68183.4,-0.0805366,-0.0809661,14.6379,35,-0.00587012,10,-0.00118518,-1.83452,0.123907,0.476164,270.098,-0.0809661,
2,1,0,1,1,68183.4,-0.0773322,-0.0777308,15.4982,35,-0.00580976,10,-0.00120469,-1.80972,0.134599,0.438339,263.256,-0.0777308,
2,1,0,1,1,68183.4,-0.074136,-0.0745241,16.333,35,-0.00574602,10,-0.0012172,-1.78693,0.144855,0.407303,258.142,-0.0745241,
2,1,0,1,1,68183.5,-0.0709371,-0.0713333,17.142,35,-0.00567897,10,-0.00122279,-1.76594,0.154622,0.381575,254.214,-0.0713333,
2,1,0,1,1,68183.5,-0.0677354,-0.0681193,17.9542,35,-0.00560868,10,-0.00122303,-1.74583,0.1648,0.35801,249.926,-0.0681193,
2,1,0,1,1,68183.5,-0.0645393,-0.0649529,18.7465,35,-0.00553519,10,-0.00121764,-1.72708,0.175204,0.336751,245.361,-0.0649529,
2,1,0,1,1,68183.5,-0.0613321,-0.0617006,19.5379,35,-0.00545856,10,-0.0012055,-1.70912,0.18633,0.316643,240.362,-0.06170062,
2,1,0,1,1,68183.5,-0.0581359,-0.0585226,20.2852,35,-0.00537882,10,-0.00118714,-1.69282,0.197695,0.29844,235.488,-0.0585226,
2,1,0,1,1,68183.5,-0.0549398,-0.0553318,21.0279,35,-0.00529612,10,-0.00116351,-1.67721,0.208839,0.282514,231.296,-0.0553318,
2,1,0,1,1,68183.5,-0.0517325,-0.0521326,21.7655,35,-0.00521044,10,-0.00113469,-1.66223,0.220502,0.267571,226.673,-0.0521326,
2,1,0,1,1,68183.5,-0.0485364,-0.0489492,22.4873,35,-0.00512187,10,-0.00110074,-1.64806,0.231898,0.254422,222.644,-0.0489492,
2,1,0,1,1,68183.5,-0.0453347,-0.0456927,23.1934,35,-0.00503044,10,-0.00105977,-1.63463,0.245071,0.240747,217.266,-0.0456927,
2,1,0,1,1,68183.5,-0.042133,-0.0425285,23.8784,35,-0.00493623,10,-0.00101551,-1.62199,0.258993,0.227805,211.781,-0.0425285,
2,1,0,1,1,68183.5,-0.0389369,-0.0393706,24.5383,35,-0.00483932,10,-0.000966086,-1.61016,0.272126,0.216811,207.27,-0.03937057,
2,1,0,1,1,68183.5,-0.0357324,-0.0361098,25.2064,35,-0.00473977,10,-0.0009102,-1.59849,0.28598,0.206308,202.521,-0.03610982,
2,1,0,1,1,68183.5,-0.0325363,-0.0328957,25.8459,35,-0.0046376,10,-0.000850219,-1.58761,0.300906,0.196075,197.327,-0.0328957,
2,1,0,1,1,68183.5,-0.0293374,-0.0297209,26.4723,35,-0.00453291,10,-0.000786778,-1.57721,0.316206,0.186587,192.376,-0.0297209,
2,1,0,1,1,68183.5,-0.0261357,-0.0265025,27.0775,35,-0.00442572,10,-0.000717622,-1.56739,0.329945,0.178818,188.65,-0.0265025,
2,1,0,1,1,68183.5,-0.0229395,-0.0233128,27.6683,35,-0.00431617,10,-0.000645026,-1.55802,0.345564,0.170736,184.097,-0.0233128,
2,1,0,1,1,68183.5,-0.0197323,-0.0201274,28.2546,35,-0.00420426,10,-0.000568691,-1.54891,0.363521,0.162302,178.656,-0.0201274,
2,1,0,1,1,68183.5,-0.0165361,-0.016978,28.8182,35,-0.00409007,10,-0.000489274,-1.54033,0.378662,0.155812,174.95,-0.016978,
2,1,0,1,1,68183.5,-0.01334,-0.0137034,29.3641,35,-0.00397365,10,-0.000402389,-1.53218,0.400959,0.147147,168.363,-0.0137034,
2,1,0,1,1,68183.5,-0.0101328,-0.0105455,29.9019,35,-0.00385504,10,-0.000315331,-1.5243,0.421737,0.139898,162.994,-0.0105455,
2,1,0,1,1,68183.5,-0.00693663,-0.00734098,30.4074,35,-0.00373435,10,-0.00022322,-1.51702,0.439434,0.134263,159.054,-0.00734098,
2,1,0,1,1,68183.5,-0.00373494,-0.00412158,30.9137,35,-0.00361166,10,-0.000127413,-1.50985, , , ,-0.00412158,
2,1,0,1,1,68183.5,-0.000774629,-0.00111109,31.367,35,-0.00349641,10,-3.48514e-05,-1.50353, , , ,-0.00111109,
2,1,0,0,1,68183.5,-0.000125413,-0.000478022,31.4739,35,-0.00347128,10,-1.50452e-05,-1.50205, , , ,-0.000478022,