File: Figure_codes/Fig_3-5/rawdata_trumpetplot_data/after 10th/20221101_1-115_003_TrumpetPlot_ParaChange_from10_every3_06_CV_C01_20.csv
mode,ox/red,error,control changes,counter inc.,time/s,control/V,Ewe/V,<I>/mA,cycle number,(Q-Qo)/C,I Range,P/W,log(|I|),Tafel slope mV/dec,alpha_eff,dI/d(E-IR),E-IR/V,
2,0,0,0,0,40552.6,2.44065e-05,-0.000248974,-1.42488,21,0.0000000E+000,10,3.5476e-07,-2.84622, , , ,-0.000248974,
2,0,0,1,0,40552.7,0.00129787,0.000882801,-0.403311,21,-2.55541e-05,10,-3.56044e-07,-3.39436, , , ,0.000882801,
2,1,0,1,0,40552.7,0.00279427,0.00245103,0.245945,21,-2.6865e-05,10,6.02818e-07,-3.60916,0.716186,0.0823808,351.716,0.00245103,
2,1,0,1,0,40552.7,0.00429425,0.00398757,0.614104,21,-9.56702e-06,10,2.44879e-06,-3.21176,0.00357059,16.5239,215.631,0.00398757,
2,1,0,1,0,40552.8,0.00579422,0.00542337,0.860122,21,1.9115e-05,10,4.66476e-06,-3.06544,0.0123387,4.78171,143.225,0.005423368,
2,1,0,1,0,40552.8,0.00729063,0.0069783,1.04164,21,5.55358e-05,10,7.26886e-06,-2.98228,0.0216626,2.72359,104.975,0.0069783,
2,1,0,1,0,40552.8,0.00878703,0.00840576,1.17935,21,9.76974e-05,10,9.91333e-06,-2.92836,0.0337999,1.74557,77.7226,0.00840576,
2,1,0,1,0,40552.9,0.010287,0.00993043,1.28051,21,0.000144307,10,1.2716e-05,-2.89262,0.0470567,1.25381,61.1236,0.00993043,
2,1,0,1,0,40552.9,0.011787,0.0114514,1.35881,21,0.000194346,10,1.55602e-05,-2.86684,0.059518,0.991297,51.9248,0.0114514,
2,1,0,1,0,40553,0.0132825,0.0129806,1.4261,21,0.000246955,10,1.85116e-05,-2.84585,0.0752602,0.783947,43.4431,0.0129806,
2,1,0,1,0,40553,0.014778,0.0144208,1.48262,21,0.00030199,10,2.13805e-05,-2.82897,0.0895602,0.658775,38.0881,0.0144208,
2,1,0,1,0,40553,0.0162815,0.015978,1.53739,21,0.000359513,10,2.45644e-05,-2.81322,0.107466,0.549008,32.8208,0.015978,
2,1,0,1,0,40553.1,0.017778,0.0174845,1.58563,21,0.000418556,10,2.7724e-05,-2.7998,0.12483,0.472642,29.2033,0.0174845,
2,1,0,1,0,40553.1,0.0192744,0.0189663,1.62577,21,0.000479157,10,3.08348e-05,-2.78894,0.141084,0.418191,26.5507,0.0189663,
2,1,0,1,0,40553.1,0.0207743,0.0204666,1.67125,21,0.000541548,10,3.42049e-05,-2.77696,0.134032,0.440194,28.5663,0.0204666,
2,1,0,1,0,40553.2,0.0222743,0.0219731,1.71235,21,0.000605494,10,3.76256e-05,-2.76641,0.152501,0.386884,25.7008,0.0219731,
2,1,0,1,0,40553.2,0.0237707,0.0234404,1.74857,21,0.000670703,10,4.09872e-05,-2.75732,0.168879,0.349362,23.7612,0.0234404,
2,1,0,1,0,40553.3,0.0252671,0.0249294,1.77816,21,0.000737247,10,4.43285e-05,-2.75003,0.170477,0.346088,24.0864,0.0249294,
2,1,0,1,0,40553.3,0.0267671,0.0264463,1.81503,21,0.000805249,10,4.80009e-05,-2.74112,0.165029,0.357513,25.3778,0.0264463,
2,1,0,1,0,40553.3,0.0282671,0.0279328,1.8504,21,0.000874665,10,5.16868e-05,-2.73273,0.169221,0.348656,25.2553,0.0279328,
2,1,0,1,0,40553.4,0.0297626,0.0294177,1.88878,21,0.000945253,10,5.55635e-05,-2.72382,0.178622,0.330306,24.3326,0.0294177,
2,1,0,1,0,40553.4,0.0312581,0.0309344,1.92131,21,0.00101712,10,5.94346e-05,-2.7164,0.196903,0.299641,22.472,0.0309344,
2,1,0,1,0,40553.4,0.0327616,0.0324399,1.95642,21,0.00109058,10,6.34661e-05,-2.70854,0.201966,0.292129,22.3162,0.0324399,
2,1,0,1,0,40553.5,0.034258,0.0339611,1.99393,21,0.001165,10,6.77161e-05,-2.70029,0.204454,0.288574,22.3791,0.0339611,
2,1,0,1,0,40553.5,0.0357545,0.03547,2.02621,21,0.00124072,10,7.18698e-05,-2.69332,0.213902,0.275828,21.7454,0.03547,
2,1,0,1,0,40553.6,0.0372544,0.0369241,2.06084,21,0.00131789,10,7.60945e-05,-2.68596,0.210976,0.279652,22.5021,0.0369241,
2,1,0,1,0,40553.6,0.0387544,0.0384197,2.08912,21,0.00139622,10,8.02635e-05,-2.68004,0.211372,0.279128,22.8381,0.03841972,
2,1,0,1,0,40553.6,0.0402508,0.0399198,2.12532,21,0.0014757,10,8.48422e-05,-2.67258,0.202427,0.291463,24.2406,0.0399198,
2,1,0,1,0,40553.7,0.0417472,0.0414394,2.16103,21,0.00155657,10,8.95517e-05,-2.66534,0.220816,0.26719,22.5425,0.0414394,
2,1,0,1,0,40553.7,0.0432472,0.042916,2.20061,21,0.00163892,10,9.44415e-05,-2.65746,0.242146,0.243655,20.8711,0.042916,
2,1,0,1,0,40553.7,0.0447472,0.044431,2.23227,21,0.00172244,10,9.91821e-05,-2.65125,0.22247,0.265204,23.0589,0.044431,
2,1,0,1,0,40553.8,0.0462427,0.0459307,2.2663,21,0.00180697,10,0.000104093,-2.64468,0.227431,0.25942,22.8754,0.0459307,
2,1,0,1,0,40553.8,0.0477382,0.0474037,2.29728,21,0.00189285,10,0.0001089,-2.63879,0.235493,0.250538,22.4394,0.0474037,
2,1,0,1,0,40553.9,0.0492417,0.048915,2.3315,21,0.00198043,10,0.000114045,-2.63236,0.257023,0.229552,20.8838,0.048915,
2,1,0,1,0,40553.9,0.0507381,0.050414,2.35647,21,0.00206874,10,0.000118799,-2.62774,0.257263,0.229337,21.1579,0.050414,
2,1,0,1,0,40553.9,0.0522345,0.0518891,2.39224,21,0.00215819,10,0.000124131,-2.6212,0.24649,0.239361,22.3964,0.0518891,
2,1,0,1,0,40554,0.0537345,0.0534195,2.42943,21,0.00224913,10,0.000129779,-2.6145,0.25734,0.229269,21.7152,0.0534195,
2,1,0,1,0,40554,0.0552345,0.0549152,2.46308,21,0.00234138,10,0.000135261,-2.60852,0.268621,0.21964,21.0402,0.0549152,
2,1,0,1,0,40554,0.0567309,0.0564141,2.49053,21,0.00243448,10,0.000140501,-2.60371,0.290446,0.203136,19.7046,0.0564141,
2,1,0,1,0,40554.1,0.0582273,0.0578886,2.51995,21,0.00252861,10,0.000145877,-2.59861,0.300346,0.19644,19.2776,0.0578886,
2,1,0,1,0,40554.1,0.0597309,0.0594103,2.54786,21,0.00262442,10,0.000151369,-2.59382,0.265839,0.221939,22.0854,0.0594103,
2,1,0,1,0,40554.2,0.0612264,0.0608933,2.57883,21,0.00272088,10,0.000157033,-2.58858,0.307987,0.191566,19.2536,0.0608933,
2,1,0,1,0,40554.2,0.0627219,0.0623907,2.60371,21,0.00281849,10,0.000162447,-2.58441,0.336508,0.17533,17.8491,0.0623907,
2,1,0,1,0,40554.2,0.0642218,0.063905,2.63352,21,0.00291726,10,0.000168295,-2.57946,0.329266,0.179186,18.4634,0.063905,
2,1,0,1,0,40554.3,0.0657218,0.0654264,2.66202,21,0.00301714,10,0.000174167,-2.57479,0.315851,0.186797,19.4134,0.0654264,
2,1,0,1,0,40554.3,0.0672182,0.0668602,2.69412,21,0.00311791,10,0.000180129,-2.56958,0.353749,0.166785,17.4947,0.0668602,
2,1,0,1,0,40554.3,0.0687146,0.0684083,2.72295,21,0.00321969,10,0.000186273,-2.56496,0.387401,0.152297,16.1335,0.0684083,
2,1,0,1,0,40554.4,0.0702146,0.0699277,2.74379,21,0.00332262,10,0.000191867,-2.56165,0.402226,0.146684,15.6961,0.0699277,
2,1,0,1,0,40554.4,0.0717146,0.0713999,2.76761,21,0.0034265,10,0.000197607,-2.55789,0.368179,0.160248,17.3019,0.0713999,
2,1,0,1,0,40554.5,0.073211,0.0729079,2.79431,21,0.00353106,10,0.000203728,-2.55372,0.41694,0.141507,15.4347,0.0729079,
2,1,0,1,0,40554.5,0.0747074,0.0744271,2.81466,21,0.00363651,10,0.000209487,-2.55057,0.452187,0.130477,14.3488,0.0744271,
2,1,0,1,0,40554.5,0.0762109,0.0758794,2.83445,21,0.00374338,10,0.000215077,-2.54753,0.43501,0.135629,15.0209,0.0758794,
2,1,0,1,0,40554.6,0.0777064,0.0773505,2.85573,21,0.00385044,10,0.000220892,-2.54428,0.436464,0.135177,15.0848,0.0773505,
2,1,0,1,0,40554.6,0.079202,0.0789066,2.88363,21,0.00395831,10,0.000227537,-2.54006,0.476507,0.123818,13.9044,0.07890664,
2,1,0,1,0,40554.6,0.0807019,0.0803461,2.90206,21,0.00406731,10,0.000233169,-2.53729,0.514937,0.114577,12.9433,0.0803461,
2,1,0,1,0,40554.7,0.0822019,0.0818633,2.92012,21,0.00417701,10,0.00023905,-2.5346,0.552909,0.106708,12.1444,0.0818633,
2,1,0,1,0,40554.7,0.0836983,0.0833664,2.93749,21,0.00428706,10,0.000244888,-2.53202,0.537167,0.109835,12.6012,0.0833664,
2,1,0,1,0,40554.8,0.0851947,0.0848774,2.95517,21,0.00439779,10,0.000250827,-2.52942,0.523659,0.112669,13.025,0.0848774,
2,1,0,1,0,40554.8,0.0866947,0.0863612,2.9759,21,0.00450963,10,0.000257002,-2.52638,0.514415,0.114693,13.331,0.0863612,
2,1,0,1,0,40554.8,0.0881947,0.0879026,2.99589,21,0.00462225,10,0.000263346,-2.52347,0.524781,0.112428,13.1568,0.0879026,
2,1,0,1,0,40554.9,0.0896911,0.0893639,3.01842,21,0.00473522,10,0.000269738,-2.52022,0.463432,0.127311,15.0014,0.0893639,
2,1,0,1,0,40554.9,0.0911875,0.0908843,3.04291,21,0.00484902,10,0.000276553,-2.51671,0.419764,0.140555,16.6783,0.0908843,
2,1,0,1,0,40554.9,0.0926901,0.0923792,3.06798,21,0.00496443,10,0.000283418,-2.51315,0.403822,0.146104,17.4618,0.0923792,
2,1,0,1,0,40555,0.0941856,0.0938709,3.09386,21,0.00508016,10,0.000290424,-2.5095,0.420233,0.140398,16.9395,0.0938709,
2,1,0,1,0,40555,0.095682,0.0953407,3.11258,21,0.00519678,10,0.000296756,-2.50688,0.373571,0.157935,19.2577,0.0953407,
2,1,0,1,0,40555.1,0.097182,0.0968912,3.14468,21,0.00531477,10,0.000304692,-2.50242,0.304551,0.193728,23.8488,0.0968912,
2,1,0,1,0,40555.1,0.098682,0.0983958,3.1827,21,0.00543411,10,0.000313165,-2.4972,0.294916,0.200057,24.9182,0.0983958,
2,1,0,1,0,40555.1,0.100178,0.0998441,3.22403,21,0.0055546,10,0.0003219,-2.4916,0.284633,0.207284,26.1031,0.0998441,
2,1,0,1,0,40555.2,0.101675,0.101372,3.26183,21,0.00567654,10,0.000330659,-2.48654,0.2611,0.225967,28.8296,0.1013724,
2,1,0,1,0,40555.2,0.103175,0.102846,3.31163,21,0.00580036,10,0.000340587,-2.47996,0.2392,0.246655,31.8959,0.1028458,
2,1,0,1,0,40555.2,0.104675,0.104326,3.36352,21,0.005926,10,0.000350904,-2.47321,0.225339,0.261827,34.3471,0.104326,
2,1,0,1,0,40555.3,0.106171,0.105856,3.41359,21,0.00605328,10,0.000361349,-2.46679,0.21796,0.270691,36.0231,0.105856,
2,1,0,1,0,40555.3,0.107667,0.10736,3.46607,21,0.0061825,10,0.000372117,-2.46016,0.229313,0.25729,34.7974,0.1073597,
2,1,0,1,0,40555.4,0.10917,0.108821,3.51911,21,0.00631429,10,0.000382953,-2.45357,0.221511,0.266352,36.6393,0.1088209,
2,1,0,1,0,40555.4,0.110666,0.110352,3.57141,21,0.00644748,10,0.000394112,-2.44716,0.220486,0.26759,37.369,0.110352,
2,1,0,1,0,40555.4,0.112162,0.111857,3.63226,21,0.00658282,10,0.000406295,-2.43982,0.230959,0.255456,36.1756,0.111857,
2,1,0,1,0,40555.5,0.113662,0.113328,3.6901,21,0.00672066,10,0.000418191,-2.43296,0.241973,0.243829,35.0522,0.1133276,
2,1,0,1,0,40555.5,0.115162,0.114812,3.7399,21,0.0068604,10,0.000429385,-2.42714,0.242139,0.243661,35.5228,0.114812,
2,1,0,1,0,40555.5,0.116658,0.116325,3.7922,21,0.00700173,10,0.000441128,-2.42111,0.260737,0.226281,33.4328,0.116325,
2,1,0,1,0,40555.6,0.118155,0.117855,3.84272,21,0.00714505,10,0.000452884,-2.41536,0.276248,0.213576,31.9704,0.117855,
2,1,0,1,0,40555.6,0.119655,0.119332,3.88407,21,0.00729051,10,0.000463496,-2.41071,0.328449,0.179632,27.215,0.1193324,
2,1,0,1,0,40555.7,0.121155,0.120834,3.92164,21,0.00743745,10,0.000473866,-2.40653,0.349492,0.168817,25.8582,0.120834,
2,1,0,1,0,40555.7,0.122651,0.122308,3.95938,21,0.00758541,10,0.000484264,-2.40237,0.348138,0.169473,26.2061,0.122308,
2,1,0,1,0,40555.7,0.124147,0.123834,3.99561,21,0.00773477,10,0.000494792,-2.39842,0.404983,0.145685,22.6966,0.123834,
2,1,0,1,0,40555.8,0.12565,0.125321,4.03121,21,0.00788621,10,0.000505194,-2.39456,0.479323,0.12309,19.3235,0.125321,
2,1,0,1,0,40555.8,0.127146,0.126772,4.05423,21,0.00803788,10,0.000513962,-2.39209,0.539382,0.109384,17.2852,0.126772,
2,1,0,1,0,40555.8,0.128642,0.128331,4.08141,21,0.00819051,10,0.000523772,-2.38919,0.565651,0.104305,16.5939,0.128331,
2,1,0,1,0,40555.9,0.130142,0.129795,4.10397,21,0.00834445,10,0.000532673,-2.3868,0.631955,0.0933611,14.9373,0.1297946,
2,1,0,1,0,40555.9,0.131642,0.1313,4.1245,21,0.00849931,10,0.000541547,-2.38463,0.774009,0.0762265,12.2598,0.1313,
2,1,0,1,0,40556,0.133139,0.132771,4.14051,21,0.00865451,10,0.000549738,-2.38295,0.776139,0.0760173,12.2986,0.132771,
2,1,0,1,0,40556,0.134635,0.134312,4.15608,21,0.00881024,10,0.00055821,-2.38132,1.00453,0.0587337,9.54199,0.134312,
2,1,0,1,0,40556,0.136135,0.135787,4.17462,21,0.00896703,10,0.000566861,-2.37938,1.24469,0.0474012,7.71368,0.135787,
2,1,0,1,0,40556.1,0.137635,0.137323,4.18873,21,0.00912432,10,0.000575208,-2.37792,1.9329,0.0305241,4.97396,0.137323,
2,1,0,1,0,40556.1,0.13913,0.138792,4.19386,21,0.00928144,10,0.000582073,-2.37739,-6.64092,-0.00888431,-1.44809,0.138792,
2,1,0,1,0,40556.1,0.140626,0.140289,4.18128,21,0.00943846,10,0.000586586,-2.37869,-1.30919,-0.045066,-7.33559,0.140289,
2,1,0,1,0,40556.2,0.14213,0.141814,4.17036,21,0.00959596,10,0.000591414,-2.37983,-0.78025,-0.0756168,-12.2655,0.1418135,
2,1,0,1,0,40556.2,0.143626,0.143308,4.13855,21,0.00975194,10,0.000593088,-2.38315,-0.404337,-0.145918,-23.5057,0.143308,
2,1,0,1,0,40556.3,0.145122,0.144808,4.0928,21,0.00990659,10,0.000592671,-2.38798,-0.271161,-0.217583,-34.6943,0.144808,
2,1,0,1,0,40556.3,0.146622,0.146331,4.03463,21,0.0100597,10,0.000590392,-2.3942,-0.205992,-0.286419,-44.9879,0.146331,
2,1,0,1,0,40556.3,0.148122,0.147812,3.96529,21,0.0102102,10,0.000586116,-2.40173,-0.166653,-0.35403,-54.5339,0.147812,
2,1,0,1,0,40556.4,0.149619,0.14932,3.87451,21,0.0103573,10,0.000578543,-2.41178,-0.135189,-0.436427,-65.6637,0.14932,
2,1,0,1,0,40556.4,0.151115,0.150803,3.76828,21,0.0105007,10,0.000568266,-2.42386,-0.111652,-0.528427,-77.3326,0.1508026,
2,1,0,1,0,40556.4,0.152615,0.152301,3.64544,21,0.0106402,10,0.000555205,-2.43825,-0.102224,-0.577165,-81.8692,0.152301,
2,1,0,1,0,40556.5,0.154115,0.153773,3.51838,21,0.010775,10,0.000541033,-2.45366,-0.0919704,-0.641511,-87.9117,0.153773,
2,1,0,1,0,40556.5,0.155611,0.155278,3.38409,21,0.0109046,10,0.000525474,-2.47056,-0.0894535,-0.659561,-87.0315,0.155278,
2,1,0,1,0,40556.6,0.157106,0.156765,3.24747,21,0.0110293,10,0.00050909,-2.48845,-0.0833751,-0.707645,-89.7401,0.156765,
2,1,0,1,0,40556.6,0.15861,0.158303,3.11753,21,0.0111496,10,0.000493513,-2.50619,-0.0838494,-0.703642,-85.768,0.158303,
2,1,0,1,0,40556.6,0.160106,0.15979,2.98984,21,0.0112643,10,0.000477746,-2.52435,-0.084818,-0.695607,-81.3468,0.15979,
2,1,0,1,0,40556.7,0.161602,0.161288,2.87719,21,0.0113745,10,0.000464055,-2.54103,-0.0881405,-0.669386,-75.1858,0.161288,
2,1,0,1,0,40556.7,0.163102,0.162792,2.77017,21,0.0114808,10,0.000450961,-2.55749,-0.0919221,-0.641848,-69.3786,0.162792,
2,1,0,1,0,40556.7,0.164602,0.164255,2.6688,21,0.0115832,10,0.000438363,-2.57368,-0.0964772,-0.611544,-63.7441,0.164255,
2,1,0,1,0,40556.8,0.166099,0.165772,2.57191,21,0.0116816,10,0.000426351,-2.58974,-0.102233,-0.577114,-58.1768,0.165772,
2,1,0,1,0,40556.8,0.167595,0.167247,2.49405,21,0.0117769,10,0.000417123,-2.60309,-0.114974,-0.513161,-50.0979,0.167247,
2,1,0,1,0,40556.9,0.169095,0.168785,2.42001,21,0.0118696,10,0.00040846,-2.61618,-0.121342,-0.48623,-46.077,0.1687848,
2,1,0,1,0,40556.9,0.170595,0.170239,2.35406,21,0.0119597,10,0.000400751,-2.62818,-0.128505,-0.459125,-42.3426,0.170239,
2,1,0,1,0,40556.9,0.172091,0.171767,2.29481,21,0.0120472,10,0.000394172,-2.63925,-0.14432,-0.408813,-36.7244,0.171767,
2,1,0,1,0,40557,0.173586,0.173277,2.2437,21,0.0121326,10,0.000388781,-2.64904,-0.151123,-0.390411,-34.2257,0.173277,
2,1,0,1,0,40557,0.17509,0.17473,2.19857,21,0.0122166,10,0.000384157,-2.65786,-0.166112,-0.355183,-30.4519,0.17473,
2,1,0,1,0,40557,0.176586,0.176271,2.15428,21,0.0122984,10,0.000379736,-2.6667,-0.173903,-0.339269,-28.5306,0.176271,
2,1,0,1,0,40557.1,0.178083,0.177737,2.11109,21,0.0123788,10,0.000375219,-2.67549,-0.191479,-0.308128,-25.477,0.177737,
2,1,0,1,0,40557.1,0.179582,0.17929,2.07732,21,0.0124579,10,0.000372443,-2.6825,-0.216727,-0.272232,-22.1644,0.17929,
2,1,0,1,0,40557.2,0.181082,0.180735,2.04629,21,0.0125358,10,0.000369837,-2.68903,-0.247414,-0.238466,-19.1264,0.180735,
2,1,0,1,0,40557.2,0.182579,0.182308,2.02155,21,0.0126125,10,0.000368545,-2.69432,-0.251826,-0.234288,-18.5022,0.182308,
2,1,0,1,0,40557.2,0.184075,0.183776,1.99949,21,0.0126883,10,0.000367459,-2.69908,-0.293312,-0.201151,-15.6934,0.183776,
2,1,0,1,0,40557.3,0.185579,0.185263,1.97563,21,0.0127634,10,0.00036601,-2.7043,-0.316985,-0.186129,-14.3506,0.185263,
2,1,0,1,0,40557.3,0.187074,0.186766,1.95983,21,0.0128374,10,0.00036603,-2.70778,-0.374437,-0.15757,-11.9989,0.186766,
2,1,0,1,0,40557.3,0.18857,0.188212,1.94117,21,0.0129107,10,0.000365352,-2.71194,-0.373441,-0.15799,-11.9345,0.188212,
2,1,0,1,0,40557.4,0.19007,0.189728,1.91999,21,0.0129835,10,0.000364276,-2.7167,-0.382181,-0.154377,-11.5556,0.1897281,
2,1,0,1,0,40557.4,0.19157,0.191231,1.89765,21,0.0130557,10,0.00036289,-2.72178,-0.424961,-0.138836,-10.331,0.1912314,
2,1,0,1,0,40557.5,0.193066,0.192748,1.88779,21,0.0131271,10,0.000363868,-2.72405,-0.498509,-0.118353,-8.73565,0.192748,
2,1,0,1,0,40557.5,0.194563,0.194231,1.87545,21,0.0131981,10,0.00036427,-2.7269,-0.564392,-0.104537,-7.66979,0.194231,
2,1,0,1,0,40557.5,0.196063,0.19575,1.86478,21,0.0132688,10,0.000365031,-2.72937,-0.43246,-0.136429,-9.93115,0.19575,
2,1,0,1,0,40557.6,0.197563,0.197247,1.85227,21,0.0133391,10,0.000365356,-2.73229,-0.50348,-0.117184,-8.46776,0.197247,
2,1,0,1,0,40557.6,0.199059,0.198718,1.84361,21,0.0134087,10,0.000366358,-2.73433,-0.571325,-0.103269,-7.42209,0.198718,
2,1,0,1,0,40557.6,0.200555,0.20021,1.83684,21,0.013478,10,0.000367754,-2.73593,-0.870371,-0.0677872,-4.84968,0.20021,
2,1,0,1,0,40557.7,0.202059,0.201745,1.82368,21,0.0135473,10,0.000367919,-2.73905,-0.681532,-0.0865697,-6.16303,0.201745,
2,1,0,1,0,40557.7,0.203554,0.203213,1.81131,21,0.0136159,10,0.000368081,-2.74201,-0.712316,-0.0828285,-5.87756,0.203213,
2,1,0,1,0,40557.8,0.20505,0.204722,1.80455,21,0.0136842,10,0.000369433,-2.74363,-1.16483,-0.0506512,-3.58716,0.2047224,
2,1,0,1,0,40557.8,0.20655,0.206241,1.79691,21,0.0137524,10,0.000370596,-2.74547,-0.952083,-0.0619694,-4.35949,0.206241,
2,1,0,1,0,40557.8,0.20805,0.207734,1.79873,21,0.0138205,10,0.000373658,-2.74503,-0.922886,-0.0639299,-4.47343,0.207734,
2,1,0,1,0,40557.9,0.209546,0.209204,1.79228,21,0.0138881,10,0.000374951,-2.74659,-0.775963,-0.0760345,-5.31187,0.209204,
2,1,0,1,0,40557.9,0.211043,0.210697,1.78403,21,0.0139554,10,0.00037589,-2.7486,-1.1825,-0.0498942,-3.47126,0.210697,
2,1,0,1,0,40557.9,0.212543,0.212222,1.78066,21,0.0140226,10,0.000377895,-2.74942,-1.0689,-0.0551968,-3.82247,0.212222,
2,1,0,1,0,40558,0.214043,0.213745,1.77089,21,0.0140897,10,0.000378519,-2.75181,-1.79918,-0.0327927,-2.26747,0.213745,
2,1,0,1,0,40558,0.215539,0.215222,1.76512,21,0.0141564,10,0.000379895,-2.75322,-1.13372,-0.0520409,-3.59197,0.215222,
2,1,0,1,0,40558.1,0.217035,0.216723,1.75518,21,0.0142229,10,0.000380389,-2.75568,-1.35127,-0.0436626,-3.0083,0.216723,
2,1,0,1,0,40558.1,0.218538,0.218203,1.75766,21,0.0142895,10,0.000383528,-2.75506,-2.72097,-0.0216834,-1.48721,0.218203,
2,1,0,1,0,40558.1,0.220034,0.219776,1.75529,21,0.0143557,10,0.000385769,-2.75565,-2.49286,-0.0236676,-1.61719,0.219776,
2,1,0,1,0,40558.2,0.22153,0.221196,1.74781,21,0.0144217,10,0.000386609,-2.75751,-1.03994,-0.0567341,-3.86453,0.221196,
2,1,0,1,0,40558.2,0.22303,0.222743,1.74176,21,0.0144878,10,0.000387965,-2.75901,-0.900334,-0.0655312,-4.45539,0.222743,
2,1,0,1,0,40558.2,0.22453,0.224222,1.73606,21,0.0145535,10,0.000389263,-2.76044,-1.82967,-0.0322462,-2.1895,0.224222,
2,1,0,1,0,40558.3,0.226026,0.225738,1.73486,21,0.014619,10,0.000391624,-2.76074,-1.37006,-0.0430639,-2.91575,0.2257382,
2,1,0,1,0,40558.3,0.227523,0.2272,1.73123,21,0.0146845,10,0.000393335,-2.76165,-1.18631,-0.0497339,-3.3615,0.2272,
2,1,0,1,0,40558.4,0.229023,0.228748,1.7289,21,0.0147499,10,0.000395484,-2.76223,-1.21923,-0.0483914,-3.26865,0.228748,
2,1,0,1,0,40558.4,0.230523,0.230235,1.72355,21,0.0148151,10,0.00039682,-2.76358,-1.63879,-0.0360022,-2.42706,0.230235,
2,1,0,1,0,40558.4,0.232019,0.231681,1.72188,21,0.01488,10,0.000398926,-2.764,-2.22121,-0.0265621,-1.78188,0.231681,
2,1,0,1,0,40558.5,0.233515,0.233166,1.72139,21,0.014945,10,0.000401369,-2.76412,-1.75898,-0.0335423,-2.24694,0.233166,
2,1,0,1,0,40558.5,0.235018,0.234726,1.71946,21,0.0150101,10,0.000403604,-2.76461,-1.55696,-0.0378944,-2.533,0.234726,
2,1,0,1,0,40558.5,0.236514,0.236183,1.71012,21,0.0150747,10,0.0004039,-2.76697,-1.4807,-0.0398461,-2.6595,0.236183,
2,1,0,1,0,40558.6,0.23801,0.237703,1.70368,21,0.0151391,10,0.000404969,-2.76861,-6.2498,-0.00944031,-0.629921,0.237703,
2,1,0,1,0,40558.6,0.23951,0.239214,1.70288,21,0.0152037,10,0.000407353,-2.76882,-1.55664,-0.0379022,-2.52509,0.239214,
2,1,0,1,0,40558.7,0.24101,0.240692,1.6989,21,0.0152682,10,0.000408913,-2.76983,-2.42397,-0.0243403,-1.61833,0.240692,
2,1,0,1,0,40558.7,0.242506,0.242215,1.6954,21,0.0153323,10,0.000410651,-2.77073,-2.56248,-0.0230245,-1.52949,0.242215,
2,1,0,1,0,40558.7,0.244003,0.243739,1.69768,21,0.0153963,10,0.000413792,-2.77014,-4.04722,-0.0145779,-0.965592,0.243739,
2,1,0,1,0,40558.8,0.245503,0.2452,1.70093,21,0.0154605,10,0.000417067,-2.76931,-2.87612,-0.0205138,-1.35544,0.2452,
2,1,0,1,0,40558.8,0.247003,0.246718,1.6941,21,0.0155247,10,0.000417965,-2.77106,-1.77249,-0.0332865,-2.19422,0.2467179,
2,1,0,1,0,40558.8,0.248499,0.248159,1.68816,21,0.0155884,10,0.000418932,-2.77259,-1.38339,-0.042649,-2.81124,0.2481592,
2,1,0,1,0,40558.9,0.249995,0.249676,1.68873,21,0.0156521,10,0.000421634,-2.77244,-2.75982,-0.0213782,-1.40879,0.249676,
2,1,0,1,0,40558.9,0.251498,0.251181,1.68398,21,0.015716,10,0.000422985,-2.77366,-1.72552,-0.0341926,-2.25043,0.251181,
2,1,0,1,0,40559,0.252994,0.252665,1.67986,21,0.0157795,10,0.000424441,-2.77473,-1.25539,-0.0469972,-3.08968,0.252665,
2,1,0,1,0,40559,0.25449,0.254154,1.67977,21,0.0158429,10,0.000426921,-2.77475,-1.58334,-0.037263,-2.44547,0.254154,
2,1,0,1,0,40559,0.25599,0.255646,1.6763,21,0.0159063,10,0.00042854,-2.77565,-3.69597,-0.0159633,-1.04501,0.255646,
2,1,0,1,0,40559.1,0.25749,0.257216,1.67855,21,0.0159697,10,0.000431749,-2.77507,-3.66253,-0.0161091,-1.05181,0.2572161,
2,1,0,1,0,40559.1,0.258987,0.258677,1.67662,21,0.0160329,10,0.000433704,-2.77556,-3.30192,-0.0178684,-1.16596,0.2586773,
2,1,0,1,0,40559.1,0.260483,0.26019,1.6722,21,0.0160959,10,0.000435091,-2.77671,-1.82041,-0.0324103,-2.11503,0.26019,
2,1,0,1,0,40559.2,0.261983,0.261665,1.66566,21,0.016159,10,0.000435845,-2.77841,-2.10507,-0.0280276,-1.82807,0.261665,
2,1,0,1,0,40559.2,0.263483,0.263207,1.66368,21,0.016222,10,0.000437893,-2.77893,-47.0692,-0.00125347,-0.0815408,0.263207,
2,1,0,1,0,40559.2,0.264978,0.264695,1.66229,21,0.0162848,10,0.00044,-2.77929,-8.83345,-0.00667915,-0.434133,0.264695,
2,1,0,1,0,40559.3,0.266474,0.266136,1.65821,21,0.0163475,10,0.000441309,-2.78036,-2.15739,-0.0273479,-1.77263,0.2661362,
2,1,0,1,0,40559.3,0.267977,0.267651,1.65848,21,0.0164104,10,0.000443894,-2.78029,-1.70567,-0.0345905,-2.23428,0.267651,
2,1,0,1,0,40559.4,0.269474,0.269159,1.65619,21,0.0164728,10,0.000445779,-2.78089,-6.28878,-0.00938179,-0.60561,0.269159,
2,1,0,1,0,40559.4,0.27097,0.270617,1.66026,21,0.0165353,10,0.000449295,-2.77982,-1.87455,-0.0314742,-2.02775,0.2706171,
2,1,0,1,0,40559.4,0.27247,0.272176,1.65064,21,0.0165978,10,0.000449265,-2.78235,-2.12683,-0.0277409,-1.78613,0.272176,
2,1,0,1,0,40559.5,0.27397,0.273657,1.64544,21,0.0166602,10,0.000450286,-2.78372,-1.46045,-0.0403986,-2.60352,0.273657,
2,1,0,1,0,40559.5,0.275467,0.275133,1.64384,21,0.0167223,10,0.000452274,-2.78414,-2.43663,-0.0242138,-1.55833,0.275133,
2,1,0,1,0,40559.5,0.276963,0.276661,1.64326,21,0.0167844,10,0.000454626,-2.78429,-2.69984,-0.0218531,-1.40417,0.276661,
2,1,0,1,0,40559.6,0.278463,0.278101,1.64193,21,0.0168465,10,0.000456622,-2.78465,-1.43029,-0.0412505,-2.64027,0.278101,
2,1,0,1,0,40559.6,0.279963,0.279639,1.63886,21,0.0169085,10,0.000458291,-2.78546,-3.05987,-0.0192819,-1.23365,0.279639,
2,1,0,1,0,40559.7,0.281459,0.281135,1.63969,21,0.0169702,10,0.000460973,-2.78524,-2.31358,-0.0255016,-1.62593,0.281135,
2,1,0,1,0,40559.7,0.282954,0.282602,1.63488,21,0.0170318,10,0.000462021,-2.78651,-4.43582,-0.0133008,-0.845809,0.282602,
2,1,0,1,0,40559.7,0.284458,0.28412,1.63019,21,0.0170937,10,0.000463169,-2.78776,-3.33651,-0.0176832,-1.12553,0.28412,
2,1,0,1,0,40559.8,0.285954,0.285675,1.6241,21,0.0171552,10,0.000463966,-2.78939,-1.64847,-0.0357907,-2.27656,0.285675,
2,1,0,1,0,40559.8,0.28745,0.287123,1.61907,21,0.0172165,10,0.000464872,-2.79074,-1.85817,-0.0317518,-2.01177,0.287123,
2,1,0,1,0,40559.8,0.28895,0.288661,1.61891,21,0.0172778,10,0.000467316,-2.79078,-3.66719,-0.0160886,-1.01795,0.288661,
2,1,0,1,0,40559.9,0.29045,0.290165,1.61938,21,0.0173391,10,0.000469888,-2.79065,-1.97696,-0.0298437,-1.88332,0.290165,
2,1,0,1,0,40559.9,0.291947,0.291588,1.61652,21,0.0174002,10,0.000471358,-2.79142,-1.48364,-0.0397672,-2.50429,0.291588,
2,1,0,1,0,40560,0.293443,0.293117,1.61181,21,0.017461,10,0.000472449,-2.79269,-1.45343,-0.0405936,-2.55188,0.293117,
2,1,0,1,0,40560,0.294943,0.29463,1.61014,21,0.0175219,10,0.000474397,-2.79314,-2.7016,-0.0218389,-1.37302,0.29463,
2,1,0,1,0,40560,0.296443,0.296155,1.60747,21,0.0175827,10,0.00047606,-2.79386,-2.30068,-0.0256446,-1.60895,0.296155,
2,1,0,1,0,40560.1,0.297939,0.297684,1.60404,21,0.0176434,10,0.000477498,-2.79478,-1.73947,-0.0339184,-2.12347,0.297684,
2,1,0,1,0,40560.1,0.299434,0.299113,1.59946,21,0.0177039,10,0.000478418,-2.79603,-0.0178567,-3.30407,-180.625,0.299113,
2,1,0,0,0,40560.1,0.299962,0.299727,1.53871,21,0.0177277,10,0.000461192,-2.81284,0.00117425,50.2447,1631.65,0.299727,
2,1,0,1,0,40560.2,0.298689,0.298377,0.555246,21,0.0177571,10,0.000165673,-3.25551,0.00130623,45.168,480.73,0.298377,
2,1,0,1,0,40560.2,0.297189,0.296876,0.0929545,21,0.0177675,10,2.75959e-05,-4.03173,0.00625283,9.43573,250.044,0.296876,
2,0,0,1,0,40560.2,0.295692,0.295379,-0.13692,21,0.0177658,10,-4.04433e-05,-3.86353,-0.0253929,-2.32348,129.656,0.295379,
2,0,0,1,0,40560.3,0.294196,0.293844,-0.27285,21,0.0177573,10,-8.01753e-05,-3.56408,-0.005476,-10.7743,78.0822,0.293844,
2,0,0,1,0,40560.3,0.292696,0.292345,-0.361502,21,0.0177448,10,-0.000105683,-3.44189,-0.0138027,-4.27452,55.0848,0.292345,
2,0,0,1,0,40560.3,0.291196,0.29089,-0.427993,21,0.0177293,10,-0.000124499,-3.36856,-0.0239406,-2.46443,39.4837,0.29089,
2,0,0,1,0,40560.4,0.2897,0.289394,-0.481564,21,0.0177117,10,-0.000139362,-3.31735,-0.03313,-1.78086,32.6036,0.289394,
2,0,0,1,0,40560.4,0.288205,0.287848,-0.520876,21,0.0176922,10,-0.000149933,-3.28327,-0.0427464,-1.38023,27.8581,0.2878477,
2,0,0,1,0,40560.5,0.286701,0.286389,-0.561708,21,0.0176712,10,-0.000160867,-3.25049,-0.0555073,-1.06292,23.1167,0.286389,
2,0,0,1,0,40560.5,0.285205,0.284917,-0.595839,21,0.017649,10,-0.000169765,-3.22487,-0.0644326,-0.915685,21.1302,0.284917,
2,0,0,1,0,40560.5,0.283708,0.283416,-0.628101,21,0.0176255,10,-0.000178014,-3.20197,-0.0755349,-0.781096,18.8428,0.283416,
2,0,0,1,0,40560.6,0.282208,0.281906,-0.653679,21,0.0176009,10,-0.000184276,-3.18464,-0.0958727,-0.615399,15.5497,0.281906,
2,0,0,1,0,40560.6,0.280708,0.28038,-0.676532,21,0.0175754,10,-0.000189686,-3.16971,-0.0996281,-0.592203,15.5939,0.28038,
2,0,0,1,0,40560.6,0.279212,0.278894,-0.698016,21,0.0175491,10,-0.000194672,-3.15613,-0.109209,-0.540248,14.7318,0.278894,
2,0,0,1,0,40560.7,0.277716,0.27738,-0.718124,21,0.0175219,10,-0.000199193,-3.1438,-0.111681,-0.528291,14.8199,0.27738,
2,0,0,1,0,40560.7,0.276216,0.275879,-0.743815,21,0.0174939,10,-0.000205203,-3.12853,-0.129429,-0.455849,13.1878,0.275879,
2,0,0,1,0,40560.8,0.274716,0.27438,-0.759554,21,0.0174651,10,-0.000208406,-3.11944,-0.143791,-0.410316,12.1215,0.27438,
2,0,0,1,0,40560.8,0.27322,0.272874,-0.776813,21,0.0174358,10,-0.000211972,-3.10968,-0.152473,-0.386953,11.7162,0.272874,
2,0,0,1,0,40560.8,0.271725,0.271425,-0.794582,21,0.0174058,10,-0.000215669,-3.09986,-0.143953,-0.409856,12.6802,0.271425,
2,0,0,1,0,40560.9,0.270221,0.269885,-0.812437,21,0.017375,10,-0.000219265,-3.09021,-0.148573,-0.39711,12.5444,0.269885,
2,0,0,1,0,40560.9,0.268725,0.268416,-0.824712,21,0.0173437,10,-0.000221366,-3.0837,-0.206254,-0.286055,9.2408,0.2684159,
2,0,0,1,0,40560.9,0.267228,0.266925,-0.838312,21,0.0173119,10,-0.000223767,-3.07659,-0.19126,-0.308481,10.153,0.266925,
2,0,0,1,0,40561,0.265728,0.265455,-0.853674,21,0.0172794,10,-0.000226612,-3.06871,-0.215383,-0.273931,9.17793,0.265455,
2,0,0,1,0,40561,0.264228,0.263871,-0.872859,21,0.0172464,10,-0.000230322,-3.05906,-0.227953,-0.258826,8.80488,0.263871,
2,0,0,1,0,40561.1,0.262732,0.262402,-0.886272,21,0.0172129,10,-0.000232559,-3.05243,-0.2738,-0.215486,7.42521,0.2624017,
2,0,0,1,0,40561.1,0.261236,0.260935,-0.895427,21,0.017179,10,-0.000233648,-3.04797,-0.260213,-0.226738,7.91877,0.260935,
2,0,0,1,0,40561.1,0.259736,0.259417,-0.911573,21,0.0171446,10,-0.000236478,-3.04021,-0.22738,-0.259478,9.1976,0.259417,
2,0,0,1,0,40561.2,0.258236,0.257913,-0.926247,21,0.0171097,10,-0.000238891,-3.03327,-0.251008,-0.235052,8.43983,0.257913,
2,0,0,1,0,40561.2,0.256741,0.256434,-0.93492,21,0.0170743,10,-0.000239745,-3.02923,-0.274914,-0.214613,7.82515,0.256434,
2,0,0,1,0,40561.2,0.255241,0.254908,-0.945492,21,0.0170384,10,-0.000241014,-3.02434,-0.279591,-0.211023,7.81569,0.254908,
2,0,0,1,0,40561.3,0.253741,0.253374,-0.9546,21,0.0170021,10,-0.000241871,-3.02018,-0.279816,-0.210853,7.90314,0.253374,
2,0,0,1,0,40561.3,0.252245,0.251922,-0.970708,21,0.0169654,10,-0.000244543,-3.01291,-0.278068,-0.212178,8.03887,0.2519221,
2,0,0,1,0,40561.4,0.250748,0.250431,-0.981683,21,0.0169283,10,-0.000245843,-3.00803,-0.287205,-0.205429,7.85603,0.250431,
2,0,0,1,0,40561.4,0.249248,0.248911,-0.992497,21,0.0168907,10,-0.000247044,-3.00327,-0.313176,-0.188392,7.27086,0.248911,
2,0,0,1,0,40561.4,0.247748,0.247385,-1.00566,21,0.0168528,10,-0.000248786,-2.99755,-0.388411,-0.151901,5.9339,0.247385,
2,0,0,1,0,40561.5,0.246252,0.2459,-1.01389,21,0.0168145,10,-0.000249316,-2.99401,-0.290878,-0.202834,8.00458,0.2459,
2,0,0,1,0,40561.5,0.244756,0.244452,-1.0265,21,0.0167758,10,-0.00025093,-2.98864,-0.296895,-0.198723,7.95234,0.244452,
2,0,0,1,0,40561.5,0.243252,0.242931,-1.03333,21,0.0167364,10,-0.000251028,-2.98576,-0.38696,-0.15247,6.15165,0.242931,
2,0,0,1,0,40561.6,0.241756,0.241437,-1.03723,21,0.016697,10,-0.000250424,-2.98413,-0.390113,-0.151238,6.1777,0.241437,
2,0,0,1,0,40561.6,0.240261,0.239963,-1.05268,21,0.0166572,10,-0.000252605,-2.9777,-0.362871,-0.162592,6.68538,0.239963,
2,0,0,1,0,40561.7,0.238761,0.238478,-1.06238,21,0.0166169,10,-0.000253355,-2.97372,-0.370056,-0.159435,6.60649,0.238478,
2,0,0,1,0,40561.7,0.237261,0.236947,-1.0779,21,0.0165762,10,-0.000255406,-2.96742,-0.394673,-0.149491,6.25688,0.236947,
2,0,0,1,0,40561.7,0.235765,0.235416,-1.0835,21,0.0165352,10,-0.000255075,-2.96517,-0.476434,-0.123837,5.22308,0.235416,
2,0,0,1,0,40561.8,0.234268,0.233932,-1.09438,21,0.016494,10,-0.00025601,-2.96083,-0.35329,-0.167002,7.12374,0.233932,
2,0,0,1,0,40561.8,0.232768,0.232413,-1.10094,21,0.0164522,10,-0.000255873,-2.95824,-0.391565,-0.150677,6.48113,0.2324132,
2,0,0,1,0,40561.8,0.231268,0.230947,-1.11385,21,0.01641,10,-0.00025724,-2.95317,-0.452995,-0.130244,5.6529,0.230947,
2,0,0,1,0,40561.9,0.229772,0.229451,-1.12122,21,0.0163677,10,-0.000257266,-2.95031,-0.463323,-0.127341,5.58448,0.229451,
2,0,0,1,0,40561.9,0.228275,0.227984,-1.12739,21,0.016325,10,-0.000257027,-2.94793,-0.408657,-0.144375,6.37344,0.227984,
2,0,0,1,0,40562,0.226772,0.226457,-1.14153,21,0.0162818,10,-0.000258507,-2.94251,-0.387092,-0.152418,6.76158,0.226457,
2,0,0,1,0,40562,0.225276,0.224943,-1.15001,21,0.0162385,10,-0.000258687,-2.9393,-0.377579,-0.156259,6.99357,0.224943,
2,0,0,1,0,40562,0.223781,0.223443,-1.15814,21,0.0161947,10,-0.000258779,-2.93624,-0.553888,-0.10652,4.79236,0.223443,
2,0,0,1,0,40562.1,0.222281,0.221967,-1.16156,21,0.0161506,10,-0.000257828,-2.93496,-0.481673,-0.12249,5.57317,0.2219674,
2,0,0,1,0,40562.1,0.220781,0.220477,-1.17255,21,0.0161062,10,-0.000258522,-2.93087,-0.429582,-0.137343,6.29352,0.220477,
2,0,0,1,0,40562.1,0.219284,0.219008,-1.18275,21,0.0160615,10,-0.000259031,-2.92711,-0.437744,-0.134782,6.23167,0.219008,
2,0,0,1,0,40562.2,0.217788,0.217474,-1.19086,21,0.0160164,10,-0.000258982,-2.92414,-0.547988,-0.107667,5.01095,0.217474,
2,0,0,1,0,40562.2,0.216288,0.215967,-1.1961,21,0.0159709,10,-0.000258319,-2.92223,-0.46458,-0.126996,5.95415,0.215967,
2,0,0,1,0,40562.3,0.214788,0.2144,-1.21241,21,0.0159251,10,-0.000259942,-2.91635,-0.458433,-0.128699,6.08349,0.2144005,
2,0,0,1,0,40562.3,0.213292,0.212923,-1.22323,21,0.015879,10,-0.000260452,-2.91249,-0.457605,-0.128932,6.12902,0.212923,
2,0,0,1,0,40562.3,0.211796,0.211437,-1.23224,21,0.0158326,10,-0.000260541,-2.9093,-0.571047,-0.103319,4.93206,0.211437,
2,0,0,1,0,40562.4,0.210293,0.209968,-1.2402,21,0.0157857,10,-0.000260402,-2.90651,-0.523625,-0.112676,5.43512,0.209968,
2,0,0,1,0,40562.4,0.208797,0.208479,-1.24146,21,0.0157387,10,-0.000258818,-2.90607,-0.429091,-0.1375,6.70681,0.2084787,
2,0,0,1,0,40562.4,0.207301,0.207022,-1.25316,21,0.0156914,10,-0.000259432,-2.90199,-0.359089,-0.164305,8.06578,0.207022,
2,0,0,1,0,40562.5,0.205801,0.205465,-1.2656,21,0.0156434,10,-0.000260036,-2.8977,-0.488466,-0.120786,5.97752,0.205465,
2,0,0,1,0,40562.5,0.204301,0.204028,-1.27261,21,0.0155952,10,-0.000259648,-2.8953,-0.649549,-0.0908323,4.52285,0.204028,
2,0,0,1,0,40562.6,0.202804,0.202463,-1.28168,21,0.0155468,10,-0.000259494,-2.89222,-0.545683,-0.108121,5.41578,0.202463,
2,0,0,1,0,40562.6,0.201308,0.200965,-1.29456,21,0.0154981,10,-0.000260161,-2.88788,-0.394361,-0.149609,7.51946,0.200965,
2,0,0,1,0,40562.6,0.199808,0.19952,-1.30187,21,0.0154489,10,-0.00025975,-2.88543,-0.440609,-0.133906,6.78632,0.19952,
2,0,0,1,0,40562.7,0.198308,0.197949,-1.30829,21,0.0153993,10,-0.000258975,-2.88329,-0.497664,-0.118554,6.06068,0.197949,
2,0,0,1,0,40562.7,0.196812,0.196473,-1.31962,21,0.0153495,10,-0.00025927,-2.87955,-0.421347,-0.140027,7.21267,0.1964726,
2,0,0,1,0,40562.7,0.195316,0.195001,-1.33015,21,0.0152994,10,-0.000259381,-2.8761,-0.420522,-0.140302,7.29191,0.195001,
2,0,0,1,0,40562.8,0.193813,0.193472,-1.33968,21,0.0152486,10,-0.000259189,-2.873,-0.439157,-0.134348,7.0381,0.193472,
2,0,0,1,0,40562.8,0.192317,0.192005,-1.35165,21,0.0151976,10,-0.000259524,-2.86914,-0.47031,-0.125449,6.59662,0.192005,
2,0,0,1,0,40562.9,0.190821,0.190519,-1.3606,21,0.0151463,10,-0.00025922,-2.86627,-0.539498,-0.109361,5.80331,0.190519,
2,0,0,1,0,40562.9,0.189321,0.188982,-1.37108,21,0.0150946,10,-0.00025911,-2.86294,-0.448461,-0.131561,7.02851,0.188982,
2,0,0,1,0,40562.9,0.187821,0.187494,-1.38444,21,0.0150424,10,-0.000259573,-2.85873,-0.470349,-0.125439,6.74762,0.187494,
2,0,0,1,0,40563,0.186324,0.185969,-1.3903,21,0.01499,10,-0.000258552,-2.85689,-0.567973,-0.103878,5.63914,0.185969,
2,0,0,1,0,40563,0.184828,0.184509,-1.39761,21,0.0149372,10,-0.000257872,-2.85461,-0.526398,-0.112083,6.1444,0.184509,
2,0,0,1,0,40563,0.183328,0.182985,-1.40889,21,0.0148838,10,-0.000257806,-2.85112,-0.447796,-0.131756,7.28243,0.182985,
2,0,0,1,0,40563.1,0.181828,0.181479,-1.42463,21,0.01483,10,-0.00025854,-2.8463,-0.407716,-0.144709,8.0623,0.181479,
2,0,0,1,0,40563.1,0.180332,0.180036,-1.44166,21,0.0147758,10,-0.00025955,-2.84114,-0.375638,-0.157066,8.80592,0.180036,
2,0,0,1,0,40563.2,0.178836,0.178542,-1.45067,21,0.0147212,10,-0.000259005,-2.83843,-0.42603,-0.138488,7.83387,0.178542,
2,0,0,1,0,40563.2,0.177333,0.176993,-1.46189,21,0.0146658,10,-0.000258745,-2.83508,-0.443705,-0.132971,7.58639,0.176993,
2,0,0,1,0,40563.2,0.175837,0.175519,-1.47919,21,0.0146103,10,-0.000259626,-2.82997,-0.327566,-0.180116,10.3678,0.175519,
2,0,0,1,0,40563.3,0.174341,0.173993,-1.49376,21,0.0145542,10,-0.000259903,-2.82572,-0.328906,-0.179382,10.4286,0.173993,
2,0,0,1,0,40563.3,0.172841,0.172494,-1.50379,21,0.0144973,10,-0.000259393,-2.82281,-0.376353,-0.156768,9.20638,0.172494,
2,0,0,1,0,40563.3,0.171341,0.171004,-1.51368,21,0.01444,10,-0.000258846,-2.81997,-0.322625,-0.182875,10.8879,0.171004,
2,0,0,1,0,40563.4,0.169844,0.169543,-1.53524,21,0.0143823,10,-0.000260289,-2.81382,-0.320424,-0.184131,11.0847,0.169543,
2,0,0,1,0,40563.4,0.168348,0.168003,-1.55822,21,0.0143238,10,-0.000261784,-2.80737,-0.2789,-0.211546,12.836,0.168003,
2,0,0,1,0,40563.5,0.166848,0.166541,-1.57668,21,0.0142644,10,-0.000262581,-2.80226,-0.301133,-0.195927,12.0149,0.166541,
2,0,0,1,0,40563.5,0.165348,0.164989,-1.59724,21,0.0142044,10,-0.000263527,-2.79663,-0.269684,-0.218774,13.6049,0.164989,
2,0,0,1,0,40563.5,0.163852,0.163522,-1.61329,21,0.0141438,10,-0.000263808,-2.79229,-0.247663,-0.238227,15.0311,0.163522,
2,0,0,1,0,40563.6,0.162357,0.162046,-1.63441,21,0.0140824,10,-0.000264851,-2.78664,-0.234628,-0.251462,16.0731,0.162046,
2,0,0,1,0,40563.6,0.160853,0.160495,-1.6594,21,0.0140197,10,-0.000266325,-2.78005,-0.232076,-0.254227,16.5017,0.160495,
2,0,0,1,0,40563.6,0.159357,0.159007,-1.68512,21,0.0139564,10,-0.000267947,-2.77337,-0.218657,-0.269829,17.8253,0.159007,
2,0,0,1,0,40563.7,0.15786,0.15756,-1.71353,21,0.0138922,10,-0.000269983,-2.76611,-0.200995,-0.29354,19.7168,0.15756,
2,0,0,1,0,40563.7,0.156361,0.156018,-1.74855,21,0.0138267,10,-0.000272806,-2.75732,-0.18312,-0.322193,21.9974,0.156018,
2,0,0,1,0,40563.8,0.154861,0.154539,-1.78222,21,0.0137598,10,-0.000275423,-2.74904,-0.168076,-0.351032,24.4371,0.154539,
2,0,0,1,0,40563.8,0.153364,0.153019,-1.82376,21,0.0136918,10,-0.00027907,-2.73903,-0.171701,-0.343621,24.3952,0.153019,
2,0,0,1,0,40563.8,0.151868,0.15155,-1.85841,21,0.0136224,10,-0.000281643,-2.73086,-0.152438,-0.387042,28.1429,0.15155,
2,0,0,1,0,40563.9,0.150368,0.150026,-1.9021,21,0.0135512,10,-0.000285365,-2.72077,-0.134708,-0.437985,32.5852,0.150026,
2,0,0,1,0,40563.9,0.148868,0.148515,-1.95676,21,0.0134783,10,-0.000290608,-2.70846,-0.12511,-0.471586,36.0826,0.148515,
2,0,0,1,0,40563.9,0.147372,0.147019,-2.00967,21,0.0134035,10,-0.00029546,-2.69687,-0.120326,-0.490336,38.5729,0.147019,
2,0,0,1,0,40564,0.145877,0.145539,-2.06618,21,0.0133266,10,-0.00030071,-2.68483,-0.110515,-0.533866,43.3171,0.145539,
2,0,0,1,0,40564,0.144373,0.144087,-2.13719,21,0.0132468,10,-0.000307942,-2.67016,-0.104552,-0.564312,47.2469,0.144087,
2,0,0,1,0,40564.1,0.142877,0.142569,-2.21698,21,0.0131648,10,-0.000316073,-2.65424,-0.0985428,-0.598725,51.7947,0.142569,
2,0,0,1,0,40564.1,0.14138,0.141047,-2.29787,21,0.0130798,10,-0.000324109,-2.63867,-0.0938751,-0.628495,56.3007,0.141047,
2,0,0,1,0,40564.1,0.13988,0.139577,-2.38381,21,0.0129914,10,-0.000332725,-2.62273,-0.0939259,-0.628154,58.4731,0.139577,
2,0,0,1,0,40564.2,0.13838,0.138036,-2.47254,21,0.0128997,10,-0.0003413,-2.60686,-0.0912579,-0.646519,62.5778,0.138036,
2,0,0,1,0,40564.2,0.136884,0.136537,-2.57407,21,0.0128047,10,-0.000351456,-2.58938,-0.0889921,-0.66298,66.6576,0.136537,
2,0,0,1,0,40564.2,0.135388,0.135053,-2.67196,21,0.0127058,10,-0.000360857,-2.57317,-0.0900254,-0.65537,68.5101,0.135053,
2,0,0,1,0,40564.3,0.133888,0.133577,-2.7818,21,0.0126029,10,-0.000371585,-2.55567,-0.0921819,-0.640039,69.5061,0.133577,
2,0,0,1,0,40564.3,0.132389,0.13205,-2.88647,21,0.012496,10,-0.000381157,-2.53963,-0.0945939,-0.623719,70.1706,0.13205,
2,0,0,1,0,40564.4,0.130893,0.13059,-2.99592,21,0.0123854,10,-0.000391236,-2.52347,-0.0944583,-0.624614,72.9009,0.13059,
2,0,0,1,0,40564.4,0.129393,0.129036,-3.10411,21,0.0122705,10,-0.000400542,-2.50806,-0.0997356,-0.591564,71.4625,0.129036,
2,0,0,1,0,40564.4,0.127893,0.127568,-3.20783,21,0.0121515,10,-0.000409216,-2.49379,-0.108414,-0.544212,67.9684,0.1275679,
2,0,0,1,0,40564.5,0.126397,0.126107,-3.29913,21,0.0120292,10,-0.000416043,-2.4816,-0.119548,-0.493527,63.5934,0.126107,
2,0,0,1,0,40564.5,0.1249,0.12459,-3.39805,21,0.0119032,10,-0.000423364,-2.46877,-0.121254,-0.486584,64.5513,0.12459,
2,0,0,1,0,40564.5,0.1234,0.123059,-3.49276,21,0.0117733,10,-0.000429815,-2.45683,-0.130064,-0.453625,61.8223,0.123059,
2,0,0,1,0,40564.6,0.1219,0.12159,-3.58372,21,0.0116398,10,-0.000435746,-2.44567,-0.144151,-0.409292,57.1116,0.12159,
2,0,0,1,0,40564.6,0.120404,0.120096,-3.6621,21,0.0115035,10,-0.000439802,-2.43627,-0.160812,-0.366887,52.4385,0.120096,
2,0,0,1,0,40564.7,0.118908,0.118636,-3.74898,21,0.0113643,10,-0.000444765,-2.42609,-0.168895,-0.349329,50.9954,0.118636,
2,0,0,1,0,40564.7,0.117404,0.117101,-3.82593,21,0.0112214,10,-0.000448021,-2.41726,-0.181625,-0.324844,48.3256,0.117101,
2,0,0,1,0,40564.7,0.115909,0.115591,-3.8907,21,0.0110765,10,-0.000449731,-2.40997,-0.213908,-0.27582,41.7788,0.115591,
2,0,0,1,0,40564.8,0.114413,0.114079,-3.95071,21,0.0109292,10,-0.000450693,-2.40332,-0.234052,-0.252081,38.8195,0.114079,
2,0,0,1,0,40564.8,0.112913,0.112604,-4.00048,21,0.0107794,10,-0.000450471,-2.39789,-0.262342,-0.224898,35.1271,0.112604,
2,0,0,1,0,40564.8,0.111413,0.111091,-4.05225,21,0.0106277,10,-0.00045017,-2.3923,-0.301237,-0.195859,30.9687,0.111091,
2,0,0,1,0,40564.9,0.109917,0.109605,-4.09721,21,0.0104746,10,-0.000449075,-2.38751,-0.357274,-0.165139,26.3561,0.109605,
2,0,0,1,0,40564.9,0.10842,0.108113,-4.13305,21,0.0103201,10,-0.000446836,-2.38373,-0.472362,-0.124904,20.092,0.108113,
2,0,0,1,0,40565,0.10692,0.106588,-4.1569,21,0.010164,10,-0.000443077,-2.38123,-0.618211,-0.0954367,15.4532,0.106588,
2,0,0,1,0,40565,0.10542,0.105048,-4.18153,21,0.0100072,10,-0.000439264,-2.37866,-0.800962,-0.0736615,11.9795,0.105048,
2,0,0,1,0,40565,0.103924,0.103574,-4.19126,21,0.00985003,10,-0.000434106,-2.37766,-1.56455,-0.0377106,6.15749,0.1035741,
2,0,0,1,0,40565.1,0.102427,0.102082,-4.19675,21,0.00969253,10,-0.000428414,-2.37709,-69.3299,-0.000851004,0.139209,0.102082,
2,0,0,1,0,40565.1,0.100924,0.1006,-4.1899,21,0.00953418,10,-0.000421504,-2.3778,3.29096,0.0179279,-2.93246,0.1005999,
2,0,0,1,0,40565.1,0.0994284,0.0990824,-4.18181,21,0.00937692,10,-0.000414344,-2.37864,1.43291,0.0411749,-6.72441,0.0990824,
2,0,0,1,0,40565.2,0.0979329,0.0975931,-4.17331,21,0.00921999,10,-0.000407286,-2.37952,1.05612,0.0558649,-9.09116,0.0975931,
2,0,0,1,0,40565.2,0.0964329,0.0960748,-4.15651,21,0.00906319,10,-0.000399336,-2.38127,0.649806,0.0907964,-14.7026,0.0960748,
2,0,0,1,0,40565.3,0.094933,0.0945969,-4.13219,21,0.00890716,10,-0.000390892,-2.38382,0.549322,0.107405,-17.2933,0.09459693,
2,0,0,1,0,40565.3,0.0934365,0.0931061,-4.10972,21,0.00875251,10,-0.00038264,-2.38619,0.550064,0.10726,-17.1892,0.0931061,
2,0,0,1,0,40565.3,0.0919401,0.0916026,-4.08152,21,0.00859877,10,-0.000373878,-2.38918,0.541766,0.108903,-17.3442,0.0916026,
2,0,0,1,0,40565.4,0.0904402,0.0900618,-4.0541,21,0.00844553,10,-0.00036512,-2.39211,0.47936,0.123081,-19.4589,0.0900618,
2,0,0,1,0,40565.4,0.0889402,0.0885919,-4.02767,21,0.00829335,10,-0.000356819,-2.39495,0.448991,0.131406,-20.6553,0.0885919,
2,0,0,1,0,40565.4,0.0874438,0.0871319,-3.99412,21,0.0081428,10,-0.000348016,-2.39858,0.467147,0.126299,-19.7208,0.0871319,
2,0,0,1,0,40565.5,0.0859483,0.0856269,-3.96601,21,0.00799329,10,-0.000339597,-2.40165,0.549644,0.107342,-16.6303,0.0856269,
2,0,0,1,0,40565.5,0.0844447,0.0841705,-3.94208,21,0.00784399,10,-0.000331807,-2.40427,0.550232,0.107228,-16.4958,0.0841705,
2,0,0,1,0,40565.6,0.0829492,0.0826645,-3.91726,21,0.00769644,10,-0.000323818,-2.40702,0.504458,0.116957,-17.8585,0.0826645,
2,0,0,1,0,40565.6,0.0814528,0.0811073,-3.88946,21,0.0075499,10,-0.000315464,-2.41011,0.543017,0.108652,-16.4937,0.0811073,
2,0,0,1,0,40565.6,0.0799528,0.0796075,-3.86587,21,0.00740385,10,-0.000307752,-2.41275,0.693675,0.0850542,-12.8324,0.0796075,
2,0,0,1,0,40565.7,0.0784529,0.0781339,-3.84302,21,0.00725861,10,-0.000300271,-2.41533,0.650365,0.0907182,-13.6289,0.0781339,
2,0,0,1,0,40565.7,0.0769565,0.0766526,-3.82295,21,0.00711451,10,-0.000293039,-2.4176,0.627736,0.0939885,-14.0378,0.0766526,
2,0,0,1,0,40565.7,0.07546,0.0751754,-3.80198,21,0.00697119,10,-0.000285815,-2.41999,0.655712,0.0899785,-13.3759,0.0751754,
2,0,0,1,0,40565.8,0.0739601,0.0736576,-3.7858,21,0.0068283,10,-0.000278853,-2.42184,0.680678,0.0866783,-12.8088,0.0736576,
2,0,0,1,0,40565.8,0.0724601,0.0721226,-3.7673,21,0.00668605,10,-0.000271708,-2.42397,0.754116,0.0782373,-11.498,0.0721226,
2,0,0,1,0,40565.9,0.0709637,0.0706495,-3.75281,21,0.00654484,10,-0.000265134,-2.42564,0.632214,0.0933228,-13.6353,0.0706495,
2,0,0,1,0,40565.9,0.0694682,0.0691196,-3.73328,21,0.00640428,10,-0.000258043,-2.42791,0.692181,0.0852378,-12.4043,0.0691196,
2,0,0,1,0,40565.9,0.0679646,0.067664,-3.71002,21,0.00626383,10,-0.000251035,-2.43062,0.770688,0.076555,-11.107,0.067664,
2,0,0,1,0,40566,0.0664691,0.0661657,-3.69152,21,0.00612474,10,-0.000244252,-2.4328,0.764088,0.0772162,-11.1398,0.0661657,
2,0,0,1,0,40566,0.0649727,0.064667,-3.67416,21,0.00598619,10,-0.000237597,-2.43484,0.727263,0.0811261,-11.642,0.064667,
2,0,0,1,0,40566,0.0634727,0.0631588,-3.65581,21,0.00584802,10,-0.000230896,-2.43702,0.582737,0.101246,-14.4592,0.0631588,
2,0,0,1,0,40566.1,0.0619728,0.0616943,-3.63513,21,0.00571065,10,-0.000224267,-2.43948,0.622772,0.0947377,-13.4535,0.0616943,
2,0,0,1,0,40566.1,0.0604764,0.0601344,-3.61996,21,0.0055744,10,-0.000217684,-2.4413,0.634475,0.0929902,-13.1235,0.0601344,
2,0,0,1,0,40566.2,0.05898,0.0586751,-3.60298,21,0.0054388,10,-0.000211405,-2.44334,0.657318,0.0897587,-12.5954,0.0586751,
2,0,0,1,0,40566.2,0.05748,0.0571372,-3.58176,21,0.00530357,10,-0.000204652,-2.4459,0.607921,0.0970521,-13.5521,0.0571372,
2,0,0,1,0,40566.2,0.05598,0.0556303,-3.55515,21,0.00516919,10,-0.000197774,-2.44914,0.587826,0.10037,-13.9351,0.0556303,
2,0,0,1,0,40566.3,0.0544836,0.0541356,-3.53346,21,0.00503594,10,-0.000191286,-2.4518,0.684533,0.0861901,-11.9014,0.0541356,
2,0,0,1,0,40566.3,0.0529881,0.0527035,-3.51584,21,0.00490338,10,-0.000185297,-2.45397,0.616259,0.095739,-13.1577,0.0527035,
2,0,0,1,0,40566.3,0.0514846,0.0511533,-3.49604,21,0.00477083,10,-0.000178834,-2.45642,0.530322,0.111253,-15.1849,0.0511533,
2,0,0,1,0,40566.4,0.049989,0.0496972,-3.4728,21,0.00463986,10,-0.000172589,-2.45932,0.538203,0.109624,-14.8674,0.04969725,
2,0,0,1,0,40566.4,0.0484926,0.0481737,-3.45268,21,0.00450979,10,-0.000166328,-2.46184,0.552441,0.106799,-14.3784,0.0481737,
2,0,0,1,0,40566.5,0.0469927,0.0466573,-3.43367,21,0.0043801,10,-0.000160205,-2.46424,0.567667,0.103934,-13.9078,0.0466573,
2,0,0,1,0,40566.5,0.0454927,0.0452092,-3.41347,21,0.00425123,10,-0.00015432,-2.4668,0.472493,0.124869,-16.597,0.0452092,
2,0,0,1,0,40566.5,0.0439963,0.04365,-3.38545,21,0.0041235,10,-0.000147775,-2.47038,0.52986,0.11135,-14.717,0.04365,
2,0,0,1,0,40566.6,0.0424999,0.0421912,-3.36098,21,0.00399677,10,-0.000141804,-2.47353,0.541347,0.108987,-14.3274,0.0421912,
2,0,0,1,0,40566.6,0.0409999,0.0406803,-3.3373,21,0.0038705,10,-0.000135762,-2.4766,0.501715,0.117597,-15.3404,0.0406803,
2,0,0,1,0,40566.6,0.0394999,0.0391776,-3.3206,21,0.00374498,10,-0.000130093,-2.47878,0.496693,0.118786,-15.3781,0.0391776,
2,0,0,1,0,40566.7,0.0380044,0.0376671,-3.29231,21,0.00362074,10,-0.000124012,-2.4825,0.447085,0.131966,-16.9546,0.0376671,
2,0,0,1,0,40566.7,0.0365089,0.0362013,-3.26828,21,0.00349749,10,-0.000118316,-2.48568,0.470703,0.125345,-15.9698,0.0362013,
2,0,0,1,0,40566.7,0.0350054,0.0346803,-3.24203,21,0.00337456,10,-0.000112435,-2.48918,0.472306,0.124919,-15.7882,0.0346803,
2,0,0,1,0,40566.8,0.033509,0.0331884,-3.21978,21,0.00325318,10,-0.00010686,-2.49217,0.459309,0.128454,-16.1065,0.0331884,
2,0,0,1,0,40566.8,0.0320125,0.0316916,-3.19004,21,0.00313275,10,-0.000101097,-2.4962,0.425091,0.138794,-17.2758,0.0316916,
2,0,0,1,0,40566.9,0.0305126,0.0301662,-3.15783,21,0.00301302,10,-9.52595e-05,-2.50061,0.390993,0.150898,-18.6424,0.0301662,
2,0,0,1,0,40566.9,0.0290126,0.0286867,-3.13495,21,0.0028943,10,-8.99315e-05,-2.50377,0.423649,0.139266,-17.0663,0.0286867,
2,0,0,1,0,40566.9,0.0275162,0.0272206,-3.11103,21,0.00277686,10,-8.4684e-05,-2.5071,0.419254,0.140726,-17.1072,0.0272206,
2,0,0,1,0,40567,0.0260198,0.0256604,-3.08809,21,0.00266032,10,-7.92414e-05,-2.51031,0.418691,0.140915,-16.9594,0.0256604,
2,0,0,1,0,40567,0.0245198,0.0241989,-3.05729,21,0.00254445,10,-7.39829e-05,-2.51466,0.403007,0.146399,-17.4733,0.0241989,
2,0,0,1,0,40567,0.0230198,0.0227011,-3.03909,21,0.00242962,10,-6.89909e-05,-2.51726,0.419156,0.140759,-16.6673,0.02270114,
2,0,0,1,0,40567.1,0.0215243,0.0211817,-3.01265,21,0.00231597,10,-6.38128e-05,-2.52105,0.439209,0.134332,-15.7676,0.0211817,
2,0,0,1,0,40567.1,0.0200288,0.0197176,-2.98669,21,0.00220316,10,-5.88903e-05,-2.52481,0.407308,0.144853,-16.8884,0.0197176,
2,0,0,1,0,40567.2,0.0185253,0.0182054,-2.96157,21,0.0020906,10,-5.39166e-05,-2.52848,0.441403,0.133665,-15.4719,0.0182054,
2,0,0,1,0,40567.2,0.0170289,0.016712,-2.94015,21,0.00197964,10,-4.91358e-05,-2.53163,0.504004,0.117063,-13.47,0.01671198,
2,0,0,1,0,40567.2,0.0155325,0.0152131,-2.92112,21,0.0018694,10,-4.44394e-05,-2.53445,0.566261,0.104192,-11.8846,0.0152131,
2,0,0,1,0,40567.3,0.0140325,0.013698,-2.90849,21,0.00175947,10,-3.98405e-05,-2.53633,0.531741,0.110956,-12.5686,0.013698,
2,0,0,1,0,40567.3,0.0125325,0.0121716,-2.88914,21,0.00165028,10,-3.51654e-05,-2.53923,0.496496,0.118833,-13.3681,0.0121716,
2,0,0,1,0,40567.3,0.0110361,0.0107099,-2.86508,21,0.00154219,10,-3.06847e-05,-2.54286,0.600529,0.0982466,-10.9977,0.0107099,
2,0,0,1,0,40567.4,0.0095397,0.00917624,-2.85357,21,0.0014347,10,-2.61851e-05,-2.54461,0.756036,0.0780387,-8.68023,0.00917624,
2,0,0,1,0,40567.4,0.00803616,0.00771947,-2.83696,21,0.00132715,10,-2.18998e-05,-2.54715,0.716839,0.0823058,-9.12671,0.00771947,
2,0,0,1,0,40567.5,0.00654064,0.00622248,-2.82288,21,0.00122071,10,-1.75653e-05,-2.54931,0.73854,0.0798873,-8.8102,0.00622248,
2,0,0,1,0,40567.5,0.00504513,0.00477338,-2.806,21,0.00111475,10,-1.33941e-05,-2.55191,0.93491,0.0631077,-6.93502,0.00477338,
2,0,0,1,0,40567.5,0.00354515,0.00321772,-2.80336,21,0.00100895,10,-9.02041e-06,-2.55232,-21.1689,-0.00278711,0.306126,0.00321772,
2,0,0,1,0,40567.6,0.00204518,0.00168345,-2.82396,21,0.000903231,10,-4.75399e-06,-2.54914,1.72144,0.0342737,-3.74236,0.00168345,
2,0,0,1,0,40567.6,0.000548773,0.000149985,-2.80021,21,0.000797569,10,-4.19989e-07,-2.55281, , , ,0.000149985,
2,0,0,1,0,40567.6,0.000177222,-0.000185223,-2.79052,21,0.000771407,10,5.16868e-07,-2.55431, , , ,-0.0001852226,