File: Figure_codes/Fig_3-5/rawdata_trumpetplot_data/after 10th/20221101_1-115_003_TrumpetPlot_ParaChange_from10_every3_09_CV_C01_10.csv
mode,ox/red,error,control changes,counter inc.,time/s,control/V,Ewe/V,<I>/mA,cycle number,(Q-Qo)/C,I Range,P/W,log(|I|),Tafel slope mV/dec,alpha_eff,dI/d(E-IR),E-IR/V,
2,0,0,0,0,20883.8,2.44065e-05,-0.000325324,-5.32312,11,0.0000000E+000,10,1.73174e-06,-2.27383, , , ,-0.000325324,
2,0,0,1,0,20883.8,0.00179726,0.00141743,-2.7508,11,-6.81983e-05,10,-3.89908e-06,-2.56054, , , ,0.00141743,
2,0,0,1,0,20883.9,0.00379485,0.0034299,-0.99389,11,-0.000103962,10,-3.40894e-06,-3.00266,-0.00327421,-18.0196,719.971,0.0034299,
2,1,0,1,0,20883.9,0.00579244,0.00546062,0.160176,11,-0.000111454,10,8.74661e-07,-3.7954,1.98433,0.0297329,498.767,0.00546062,
2,1,0,1,0,20883.9,0.00779002,0.00742454,0.998507,11,-9.92716e-05,10,7.41346e-06,-3.00065,0.00394154,14.9688,369.924,0.00742454,
2,1,0,1,0,20883.9,0.00978761,0.0094309,1.62888,11,-7.26408e-05,10,1.53618e-05,-2.78811,0.012454,4.73744,274.465,0.0094309,
2,1,0,1,0,20883.9,0.0117852,0.0114641,2.10723,11,-3.50218e-05,10,2.41576e-05,-2.67629,0.021684,2.7209,215.321,0.0114641,
2,1,0,1,0,20884,0.0137828,0.0134158,2.48691,11,1.1077e-05,10,3.3364e-05,-2.60434,0.0319957,1.844,175.511,0.0134158,
2,1,0,1,0,20884,0.0157804,0.0154313,2.80351,11,6.41186e-05,10,4.32616e-05,-2.5523,0.0448569,1.31529,141.921,0.0154313,
2,1,0,1,0,20884,0.017778,0.0174724,3.06262,11,0.000122631,10,5.35112e-05,-2.51391,0.0593664,0.993828,117.653,0.0174724,
2,1,0,1,0,20884,0.0197755,0.0194429,3.27549,11,0.000186035,10,6.3685e-05,-2.48472,0.0730122,0.808084,102.912,0.01944291,
2,1,0,1,0,20884,0.0217731,0.0214537,3.47235,11,0.000253575,10,7.44949e-05,-2.45938,0.087936,0.670943,90.4326,0.02145372,
2,1,0,1,0,20884.1,0.0237707,0.0234529,3.63812,11,0.00032475,10,8.53246e-05,-2.43912,0.101969,0.578608,82.0702,0.0234529,
2,1,0,1,0,20884.1,0.0257683,0.0254642,3.8015,11,0.000398866,10,9.68023e-05,-2.42005,0.114387,0.515794,76.2673,0.0254642,
2,1,0,1,0,20884.1,0.0277659,0.0274571,3.94351,11,0.000476381,10,0.000108278,-2.40412,0.128372,0.459602,70.6908,0.0274571,
2,1,0,1,0,20884.1,0.0297635,0.0294617,4.08408,11,0.000556766,10,0.000120324,-2.38891,0.137608,0.428755,68.2086,0.0294617,
2,1,0,1,0,20884.1,0.0317611,0.0313939,4.21203,11,0.000639743,10,0.000132232,-2.37551,0.149023,0.395912,65.0812,0.0313939,
2,1,0,1,0,20884.2,0.0337587,0.0334347,4.34265,11,0.000724848,10,0.000145195,-2.36224,0.160287,0.368091,62.3032,0.0334347,
2,1,0,1,0,20884.2,0.0357562,0.0354455,4.46447,11,0.000812981,10,0.000158245,-2.35023,0.177065,0.333211,57.9618,0.0354455,
2,1,0,1,0,20884.2,0.0377538,0.0374207,4.57368,11,0.000903463,10,0.00017115,-2.33973,0.178828,0.329926,58.9742,0.0374207,
2,1,0,1,0,20884.2,0.0397514,0.0394033,4.69787,11,0.000996209,10,0.000185111,-2.3281,0.1733,0.340449,62.4312,0.03940326,
2,1,0,1,0,20884.2,0.041749,0.0414646,4.82615,11,0.00109096,10,0.000200115,-2.3164,0.19359,0.304767,57.2466,0.0414646,
2,1,0,1,0,20884.3,0.0437466,0.0434588,4.93004,11,0.00118857,10,0.000214253,-2.30715,0.21248,0.277673,53.4395,0.0434588,
2,1,0,1,0,20884.3,0.0457442,0.0454296,5.03804,11,0.00128827,10,0.000228876,-2.29774,0.212769,0.277296,54.5172,0.04542958,
2,1,0,1,0,20884.3,0.0477418,0.0474346,5.14678,11,0.00139022,10,0.000244136,-2.28846,0.204936,0.287895,57.8937,0.0474346,
2,1,0,1,0,20884.3,0.0497484,0.0494197,5.26904,11,0.00149438,10,0.000260394,-2.27827,0.224434,0.262884,53.9068,0.0494197,
2,1,0,1,0,20884.3,0.0517369,0.0514519,5.36335,11,0.00160019,10,0.000275954,-2.27056,0.241537,0.244269,51.1978,0.0514519,
2,1,0,1,0,20884.4,0.0537345,0.0534104,5.47336,11,0.00170866,10,0.000292335,-2.26175,0.236849,0.249104,53.1572,0.0534104,
2,1,0,1,0,20884.4,0.0557321,0.0554096,5.57373,11,0.00181922,10,0.000308838,-2.25385,0.252748,0.233434,50.7878,0.05540964,
2,1,0,1,0,20884.4,0.0577206,0.0574307,5.67754,11,0.00193119,10,0.000326065,-2.24584,0.247303,0.238574,52.8633,0.0574307,
2,1,0,1,0,20884.4,0.0597273,0.0593655,5.78285,11,0.00204589,10,0.000343301,-2.23786,0.257243,0.229355,51.7395,0.0593655,
2,1,0,1,0,20884.4,0.0617249,0.0614269,5.8843,11,0.00216258,10,0.000361454,-2.23031,0.290855,0.202851,46.5144,0.0614269,
2,1,0,1,0,20884.5,0.0637224,0.0633721,5.96921,11,0.00228116,10,0.000378281,-2.22408,0.297728,0.198168,46.2205,0.06337209,
2,1,0,1,0,20884.5,0.06572,0.0654318,6.06941,11,0.0024016,10,0.000397132,-2.21685,0.275078,0.214485,50.813,0.0654318,
2,1,0,1,0,20884.5,0.0677176,0.0673757,6.17265,11,0.00252356,10,0.000415887,-2.20953,0.301559,0.19565,47.0546,0.0673757,
2,1,0,1,0,20884.5,0.0697152,0.0694098,6.25659,11,0.00264793,10,0.000434268,-2.20366,0.328058,0.179846,43.9369,0.0694098,
2,1,0,1,0,20884.5,0.0717128,0.0713637,6.34787,11,0.00277398,10,0.000453007,-2.19737,0.330727,0.178395,44.1686,0.0713637,
2,1,0,1,0,20884.6,0.0737104,0.0733891,6.43235,11,0.0029018,10,0.000472064,-2.19163,0.342893,0.172065,43.2048,0.0733891,
2,1,0,1,0,20884.6,0.075708,0.0753646,6.52072,11,0.00303075,10,0.000491431,-2.1857,0.370411,0.159282,40.4919,0.07536456,
2,1,0,1,0,20884.6,0.0777056,0.0774308,6.59601,11,0.00316197,10,0.000510734,-2.18072,0.382095,0.154412,39.7758,0.0774308,
2,1,0,1,0,20884.6,0.0797031,0.0793907,6.68086,11,0.00329478,10,0.000530398,-2.17517,0.373422,0.157998,41.1731,0.07939069,
2,1,0,1,0,20884.6,0.0817007,0.081394,6.75918,11,0.00342918,10,0.000550157,-2.17011,0.401741,0.146861,38.734,0.081394,
2,1,0,1,0,20884.7,0.0836983,0.0833925,6.83587,11,0.0035644,10,0.00057006,-2.16521,0.426665,0.138282,36.8748,0.0833925,
2,1,0,1,0,20884.7,0.0856959,0.0854025,6.90699,11,0.00370183,10,0.000589874,-2.16071,0.466658,0.126431,34.0621,0.0854025,
2,1,0,1,0,20884.7,0.0876935,0.087363,6.97112,11,0.00384065,10,0.000609018,-2.1567,0.478994,0.123175,33.5221,0.087363,
2,1,0,1,0,20884.7,0.0896911,0.089378,7.04026,11,0.00398081,10,0.000629245,-2.15241,0.422477,0.139653,38.4114,0.089378,
2,1,0,1,0,20884.7,0.0916887,0.0913654,7.12485,11,0.00412177,10,0.000650965,-2.14722,0.413359,0.142733,39.6551,0.0913654,
2,1,0,1,0,20884.8,0.0936862,0.0933574,7.19807,11,0.00426504,10,0.000671993,-2.14278,0.445479,0.132442,37.2086,0.0933574,
2,1,0,1,0,20884.8,0.0956838,0.095349,7.27308,11,0.00440977,10,0.00069348,-2.13828,0.409613,0.144038,40.9235,0.095349,
2,1,0,1,0,20884.8,0.0976814,0.0973766,7.36255,11,0.00455615,10,0.00071694,-2.13297,0.344401,0.171312,49.2821,0.0973766,
2,1,0,1,0,20884.8,0.099679,0.0993491,7.47021,11,0.00470368,10,0.000742158,-2.12667,0.336191,0.175496,51.1184,0.0993491,
2,1,0,1,0,20884.8,0.101677,0.101347,7.56553,11,0.00485409,10,0.000766747,-2.12116,0.324719,0.181696,53.7331,0.101347,
2,1,0,1,0,20884.9,0.103674,0.103367,7.68608,11,0.00500668,10,0.000794483,-2.1143,0.28414,0.207644,62.3271,0.103367,
2,1,0,1,0,20884.9,0.105672,0.105402,7.81823,11,0.00516177,10,0.000824055,-2.10689,0.258855,0.227927,69.5956,0.105402,
2,1,0,1,0,20884.9,0.107667,0.107351,7.96335,11,0.00531874,10,0.00085487,-2.0989,0.262777,0.224525,69.7129,0.107351,
2,1,0,1,0,20884.9,0.109667,0.109373,8.09504,11,0.00547931,10,0.000885375,-2.09178,0.259421,0.22743,71.951,0.109373,
2,1,0,1,0,20884.9,0.111665,0.111349,8.25107,11,0.00564277,10,0.000918751,-2.08349,0.234927,0.251141,80.9003,0.111349,
2,1,0,1,0,20885,0.113662,0.11333,8.41517,11,0.00580952,10,0.000953689,-2.07494,0.236001,0.249999,82.0904,0.11333,
2,1,0,1,0,20885,0.11566,0.115339,8.57858,11,0.00597944,10,0.000989445,-2.06658,0.239089,0.24677,82.6471,0.115339,
2,1,0,1,0,20885,0.117657,0.117385,8.75036,11,0.00615193,10,0.00102716,-2.05797,0.249243,0.236716,80.7375,0.117385,
2,1,0,1,0,20885,0.119655,0.119348,8.90229,11,0.00632847,10,0.00106247,-2.0505,0.276186,0.213624,74.1676,0.119348,
2,1,0,1,0,20885,0.121652,0.121338,9.04349,11,0.00650796,10,0.00109732,-2.04366,0.291987,0.202064,71.3211,0.121338,
2,1,0,1,0,20885.1,0.12365,0.123347,9.18746,11,0.00669037,10,0.00113324,-2.0368,0.298604,0.197586,70.8289,0.1233468,
2,1,0,1,0,20885.1,0.125648,0.125361,9.32848,11,0.00687476,10,0.00116943,-2.03019,0.327262,0.180283,65.5506,0.125361,
2,1,0,1,0,20885.1,0.127645,0.127305,9.44692,11,0.00706257,10,0.00120264,-2.02471,0.367759,0.160431,59.1327,0.127305,
2,1,0,1,0,20885.1,0.129643,0.129298,9.56129,11,0.0072527,10,0.00123626,-2.01948,0.392915,0.15016,56.0158,0.129298,
2,1,0,1,0,20885.1,0.13164,0.131308,9.67114,11,0.0074451,10,0.0012699,-2.01452,0.425407,0.138691,52.322,0.131308,
2,1,0,1,0,20885.2,0.133638,0.133338,9.77264,11,0.00763871,10,0.00130306,-2.00999,0.468563,0.125917,47.9942,0.133338,
2,1,0,1,0,20885.2,0.135636,0.135297,9.86258,11,0.00783514,10,0.00133438,-2.00601,0.502291,0.117462,45.209,0.1352967,
2,1,0,1,0,20885.2,0.137633,0.137303,9.95189,11,0.00803331,10,0.00136642,-2.00209,0.568465,0.103788,40.2742,0.137303,
2,1,0,1,0,20885.2,0.139631,0.139298,10.0237,11,0.0082331,10,0.00139628,-1.99897,0.630954,0.0935092,36.5833,0.139298,
2,1,0,1,0,20885.2,0.141628,0.141285,10.0976,11,0.00843333,10,0.00142663,-1.99578,0.757446,0.0778933,30.6587,0.141285,
2,1,0,1,0,20885.3,0.143626,0.143324,10.1472,11,0.00863583,10,0.00145433,-1.99366,1.18603,0.0497459,19.6806,0.143324,
2,1,0,1,0,20885.3,0.145624,0.145316,10.1769,11,0.00883914,10,0.00147886,-1.99238,4.80685,0.0122741,4.86532,0.145316,
2,1,0,1,0,20885.3,0.147621,0.147287,10.1664,11,0.0090426,10,0.00149739,-1.99283,-2.10787,-0.0279903,-11.0929,0.147287,
2,1,0,1,0,20885.3,0.149619,0.149291,10.1328,11,0.00924461,10,0.00151274,-1.99427,-0.702988,-0.0839275,-33.0838,0.149291,
2,1,0,1,0,20885.3,0.151616,0.151258,10.0351,11,0.00944639,10,0.00151789,-1.99848,-0.35456,-0.166403,-64.9596,0.151258,
2,1,0,1,0,20885.4,0.153614,0.153279,9.87374,11,0.00964558,10,0.00151344,-2.00552,-0.246045,-0.239794,-92.1659,0.153279,
2,1,0,1,0,20885.4,0.155611,0.155282,9.66421,11,0.00984109,10,0.00150068,-2.01483,-0.18843,-0.313114,-117.736,0.155282,
2,1,0,1,0,20885.4,0.157609,0.157305,9.39978,11,0.0100308,10,0.00147863,-2.02688,-0.140405,-0.420212,-153.426,0.157305,
2,1,0,1,0,20885.4,0.159607,0.159262,9.0535,11,0.0102155,10,0.00144188,-2.04318,-0.113494,-0.519851,-183.231,0.159262,
2,1,0,1,0,20885.4,0.161604,0.161272,8.67287,11,0.0103928,10,0.00139869,-2.06184,-0.101141,-0.583343,-196.95,0.161272,
2,1,0,1,0,20885.5,0.163602,0.163288,8.26072,11,0.0105622,10,0.00134887,-2.08298,-0.0911081,-0.647582,-208.499,0.1632877,
2,1,0,1,0,20885.5,0.165606,0.165263,7.84076,11,0.0107232,10,0.00129579,-2.10564,-0.0858709,-0.687078,-210.117,0.165263,
2,1,0,1,0,20885.5,0.167597,0.16726,7.42598,11,0.0108751,10,0.00124207,-2.12925,-0.0860191,-0.685894,-198.941,0.16726,
2,1,0,1,0,20885.5,0.169595,0.1693,7.03761,11,0.0110196,10,0.00119147,-2.15257,-0.087275,-0.676024,-185.85,0.1693,
2,1,0,1,0,20885.5,0.171592,0.171297,6.67586,11,0.0111567,10,0.00114355,-2.17549,-0.0899209,-0.656132,-171.324,0.171297,
2,1,0,1,0,20885.6,0.173581,0.173283,6.35515,11,0.0112862,10,0.00110124,-2.19687,-0.0967468,-0.609839,-151.637,0.173283,
2,1,0,1,0,20885.6,0.175587,0.175252,6.07608,11,0.0114105,10,0.00106485,-2.21638,-0.105184,-0.560921,-133.258,0.175252,
2,1,0,1,0,20885.6,0.177585,0.177246,5.82714,11,0.0115295,10,0.00103283,-2.23454,-0.114126,-0.516973,-117.745,0.177246,
2,1,0,1,0,20885.6,0.179582,0.179277,5.60218,11,0.0116437,10,0.00100434,-2.25164,-0.129069,-0.457118,-100.306,0.179277,
2,1,0,1,0,20885.6,0.18158,0.181277,5.42282,11,0.0117539,10,0.000983029,-2.26578,-0.145649,-0.405084,-85.835,0.1812766,
2,1,0,1,0,20885.7,0.183578,0.18326,5.2603,11,0.0118602,10,0.000964002,-2.27899,-0.155182,-0.3802,-78.1382,0.1832598,
2,1,0,1,0,20885.7,0.185575,0.185249,5.11242,11,0.0119639,10,0.00094707,-2.29137,-0.17176,-0.343503,-68.6633,0.185249,
2,1,0,1,0,20885.7,0.187573,0.187256,4.98593,11,0.0120649,10,0.000933644,-2.30225,-0.191399,-0.308257,-60.0549,0.1872557,
2,1,0,1,0,20885.7,0.18957,0.189228,4.87344,11,0.0121634,10,0.000922193,-2.31216,-0.215685,-0.273548,-52.1089,0.189228,
2,1,0,1,0,20885.7,0.191568,0.191252,4.77769,11,0.0122596,10,0.000913743,-2.32078,-0.250046,-0.235957,-44.0518,0.191252,
2,1,0,1,0,20885.8,0.193566,0.193276,4.69515,11,0.0123543,10,0.000907458,-2.32835,-0.263743,-0.223703,-40.9947,0.193276,
2,1,0,1,0,20885.8,0.195563,0.195233,4.61449,11,0.0124474,10,0.000900901,-2.33588,-0.276747,-0.213191,-38.4283,0.195233,
2,1,0,1,0,20885.8,0.197561,0.197233,4.54307,11,0.012539,10,0.000896044,-2.34265,-0.335673,-0.175766,-31.2215,0.197233,
2,1,0,1,0,20885.8,0.199558,0.19925,4.48908,11,0.0126289,10,0.000894448,-2.34784,-0.387704,-0.152178,-26.6612,0.19925,
2,1,0,1,0,20885.8,0.201556,0.201262,4.43566,11,0.0127181,10,0.000892729,-2.35304,-0.358564,-0.164545,-28.4622,0.201262,
2,1,0,1,0,20885.9,0.203553,0.20323,4.3758,11,0.0128063,10,0.000889293,-2.35894,-0.39223,-0.150422,-25.7383,0.20323,
2,1,0,1,0,20885.9,0.205551,0.205233,4.33344,11,0.0128933,10,0.000889366,-2.36317,-0.562012,-0.10498,-17.781,0.205233,
2,1,0,1,0,20885.9,0.207549,0.207248,4.30435,11,0.0129793,10,0.000892068,-2.36609,-0.51583,-0.114379,-19.1729,0.207248,
2,1,0,1,0,20885.9,0.209546,0.209216,4.25708,11,0.013065,10,0.000890649,-2.37089,-0.466096,-0.126583,-21.0569,0.209216,
2,1,0,1,0,20885.9,0.211544,0.21122,4.22071,11,0.0131498,10,0.000891499,-2.37461,-0.597235,-0.0987886,-16.2851,0.21122,
2,1,0,1,0,20886,0.213541,0.213271,4.19104,11,0.0132339,10,0.000893828,-2.37768,-0.799388,-0.0738064,-12.0876,0.213271,
2,1,0,1,0,20886,0.215539,0.215229,4.17226,11,0.0133171,10,0.000897989,-2.37963,-0.700616,-0.0842116,-13.6848,0.215229,
2,1,0,1,0,20886,0.217537,0.217226,4.13692,11,0.0134001,10,0.000898646,-2.38332,-0.678582,-0.086946,-14.0615,0.217226,
2,1,0,1,0,20886,0.219534,0.219239,4.11587,11,0.0134826,10,0.000902358,-2.38554,-0.820794,-0.0718816,-11.5406,0.219239,
2,1,0,1,0,20886,0.221532,0.221219,4.09083,11,0.0135647,10,0.000904972,-2.38819,-0.799028,-0.0738397,-11.7925,0.221219,
2,1,0,1,0,20886.1,0.223525,0.223252,4.06854,11,0.0136458,10,0.00090831,-2.39056,-0.972035,-0.0606974,-9.64501,0.223252,
2,1,0,1,0,20886.1,0.225527,0.225194,4.0525,11,0.0137271,10,0.000912598,-2.39228,-0.937017,-0.0629658,-9.94946,0.225194,
2,1,0,1,0,20886.1,0.227525,0.227205,4.02921,11,0.0138079,10,0.000915457,-2.39478,-0.774626,-0.0761658,-11.9737,0.227205,
2,1,0,1,0,20886.1,0.229522,0.229254,4.00389,11,0.0138883,10,0.000917906,-2.39752,-0.973063,-0.0606333,-9.48937,0.229254,
2,1,0,1,0,20886.1,0.23152,0.231212,3.99119,11,0.0139683,10,0.000922811,-2.3989,-2.65307,-0.0222384,-3.46894,0.231212,
2,1,0,1,0,20886.2,0.233517,0.233243,3.99005,11,0.0140478,10,0.00093065,-2.39902,-1.20381,-0.0490109,-7.60511,0.233243,
2,1,0,1,0,20886.2,0.235515,0.235194,3.9609,11,0.0141273,10,0.000931582,-2.40221,-0.811832,-0.0726752,-11.2537,0.235194,
2,1,0,1,0,20886.2,0.237512,0.237196,3.94556,11,0.0142064,10,0.000935871,-2.40389,-1.55335,-0.0379825,-5.854,0.237196,
2,1,0,1,0,20886.2,0.23951,0.2392,3.93745,11,0.0142853,10,0.000941839,-2.40478,-1.98441,-0.0297317,-4.56755,0.2392,
2,1,0,1,0,20886.2,0.241508,0.241203,3.92726,11,0.0143637,10,0.000947267,-2.40591,-1.29511,-0.0455559,-6.97561,0.241203,
2,1,0,1,0,20886.3,0.243505,0.243194,3.90959,11,0.0144421,10,0.000950789,-2.40787,-1.32226,-0.0446205,-6.81502,0.2431937,
2,1,0,1,0,20886.3,0.245503,0.245226,3.89984,11,0.0145202,10,0.000956342,-2.40895,-1.73194,-0.0340658,-5.18387,0.245226,
2,1,0,1,0,20886.3,0.2475,0.247213,3.88876,11,0.0145982,10,0.000961352,-2.41019,-1.99196,-0.0296191,-4.49763,0.2472133,
2,1,0,1,0,20886.3,0.249498,0.24921,3.88192,11,0.0146756,10,0.000967415,-2.41095,-1.85126,-0.0318701,-4.82494,0.24921,
2,1,0,1,0,20886.3,0.251496,0.251163,3.8697,11,0.0147531,10,0.000971925,-2.41232,-1.44176,-0.0409223,-6.17994,0.251163,
2,1,0,1,0,20886.4,0.253493,0.253211,3.8572,11,0.0148305,10,0.000976684,-2.41373,-1.36817,-0.0431233,-6.49068,0.253211,
2,1,0,1,0,20886.4,0.255491,0.255167,3.84371,11,0.0149076,10,0.000980788,-2.41525,-2.83215,-0.0208322,-3.1309,0.255167,
2,1,0,1,0,20886.4,0.257488,0.257183,3.84476,11,0.0149842,10,0.000988809,-2.41513,-3.26505,-0.0180701,-2.70685,0.2571834,
2,1,0,1,0,20886.4,0.259486,0.259161,3.8329,11,0.015061,10,0.000993337,-2.41647,-1.28134,-0.0460455,-6.88427,0.2591607,
2,1,0,1,0,20886.4,0.261484,0.261189,3.81719,11,0.0151375,10,0.000997007,-2.41826,-1.45096,-0.0406628,-6.06321,0.261189,
2,1,0,1,0,20886.5,0.263481,0.263185,3.8085,11,0.0152139,10,0.00100234,-2.41925,-5.56906,-0.0105942,-1.57696,0.263185,
2,1,0,1,0,20886.5,0.265479,0.265153,3.81094,11,0.0152897,10,0.00101048,-2.41897,-2.51422,-0.0234665,-3.48158,0.2651535,
2,1,0,1,0,20886.5,0.267476,0.267156,3.79468,11,0.0153658,10,0.00101377,-2.42083,-1.20519,-0.048955,-7.25312,0.267156,
2,1,0,1,0,20886.5,0.269474,0.269177,3.78176,11,0.0154415,10,0.00101796,-2.42231,-2.15873,-0.0273309,-4.03891,0.269177,
2,1,0,1,0,20886.5,0.271471,0.271163,3.77849,11,0.0155172,10,0.00102459,-2.42268,-5.82274,-0.0101327,-1.49431,0.271163,
2,1,0,1,0,20886.6,0.273469,0.27315,3.77582,11,0.0155923,10,0.00103136,-2.42299,-2.03675,-0.0289678,-4.2621,0.27315,
2,1,0,1,0,20886.6,0.275467,0.275133,3.76157,11,0.0156677,10,0.00103493,-2.42463,-1.2183,-0.048428,-7.10932,0.275133,
2,1,0,1,0,20886.6,0.277464,0.277157,3.74733,11,0.0157428,10,0.0010386,-2.42628,-1.6999,-0.034708,-5.0814,0.277157,
2,1,0,1,0,20886.6,0.279462,0.279143,3.7412,11,0.0158177,10,0.00104433,-2.42699,-2.48535,-0.0237392,-3.4653,0.2791425,
2,1,0,1,0,20886.6,0.281464,0.281184,3.73338,11,0.0158924,10,0.00104977,-2.4279,-1.86378,-0.031656,-4.61061,0.281184,
2,1,0,1,0,20886.7,0.283457,0.283141,3.72276,11,0.0159667,10,0.00105407,-2.42913,-1.70736,-0.0345563,-5.02156,0.283141,
2,1,0,1,0,20886.7,0.285455,0.285129,3.71357,11,0.0160411,10,0.00105885,-2.43021,-1.45703,-0.0404934,-5.86459,0.285129,
2,1,0,1,0,20886.7,0.287452,0.287151,3.69924,11,0.0161153,10,0.00106224,-2.43189,-1.647,-0.0358227,-5.17716,0.287151,
2,1,0,1,0,20886.7,0.28945,0.289155,3.69272,11,0.0161892,10,0.00106777,-2.43265,-3.12298,-0.0188922,-2.72345,0.289155,
2,1,0,1,0,20886.7,0.291447,0.291146,3.68836,11,0.0162627,10,0.00107385,-2.43317,-1.51683,-0.0388968,-5.58889,0.291146,
2,1,0,1,0,20886.8,0.293445,0.293098,3.67068,11,0.0163363,10,0.00107587,-2.43525,-1.30687,-0.045146,-6.47552,0.293098,
2,1,0,1,0,20886.8,0.295442,0.295179,3.66225,11,0.0164097,10,0.00108102,-2.43625,-2.0003,-0.0294955,-4.21552,0.295179,
2,1,0,1,0,20886.8,0.29744,0.297164,3.65355,11,0.0164829,10,0.0010857,-2.43729,-2.45219,-0.0240601,-3.4324,0.297164,
2,1,0,1,0,20886.8,0.299438,0.299159,3.64859,11,0.0165557,10,0.00109151,-2.43788,-0.0303375,-1.94479,-254.787,0.299159,
2,1,0,1,0,20886.8,0.299737,0.299427,3.07682,11,0.0165854,10,0.000921283,-2.5119,0.00311818,18.9213,1508.9,0.299427,
2,1,0,1,0,20886.8,0.29774,0.297401,0.996385,11,0.0166227,10,0.000296326,-3.00157,0.00191429,30.8208,765.025,0.2974011,
2,1,0,1,0,20886.9,0.295742,0.295438,0.0253788,11,0.0166319,10,7.49788e-06,-4.59553,0.014371,4.10549,376.877,0.295438,
2,0,0,1,0,20886.9,0.293745,0.293371,-0.522404,11,0.0166264,10,-0.000153258,-3.28199,-0.00262628,-22.4652,221.005,0.293371,
2,0,0,1,0,20886.9,0.291747,0.291415,-0.863787,11,0.0166123,10,-0.000251721,-3.06359,-0.0122556,-4.81413,145.775,0.291415,
2,0,0,1,0,20886.9,0.289754,0.289405,-1.10052,11,0.0165927,10,-0.000318495,-2.9584,-0.0239172,-2.46684,101.428,0.289405,
2,0,0,1,0,20886.9,0.287752,0.287418,-1.26924,11,0.016569,10,-0.000364801,-2.89646,-0.0385933,-1.52876,74.1005,0.287418,
2,0,0,1,0,20887,0.285754,0.28543,-1.39509,11,0.0165423,10,-0.000398201,-2.8554,-0.0536692,-1.09933,59.4114,0.28543,
2,0,0,1,0,20887,0.283757,0.283414,-1.50712,11,0.0165133,10,-0.000427139,-2.82185,-0.0663339,-0.88944,51.9425,0.283414,
2,0,0,1,0,20887,0.281759,0.281438,-1.60246,11,0.0164822,10,-0.000450993,-2.79521,-0.0841415,-0.7012,43.5582,0.281438,
2,0,0,1,0,20887,0.279761,0.279458,-1.67941,11,0.0164495,10,-0.000469326,-2.77484,-0.102586,-0.575127,37.637,0.279458,
2,0,0,1,0,20887,0.277764,0.277426,-1.75346,11,0.0164152,10,-0.000486454,-2.7561,-0.118638,-0.497313,33.8952,0.277426,
2,0,0,1,0,20887.1,0.275766,0.275454,-1.81515,11,0.0163796,10,-0.00049999,-2.74109,-0.144594,-0.408038,28.8308,0.2754536,
2,0,0,1,0,20887.1,0.273769,0.273428,-1.86871,11,0.0163427,10,-0.000510958,-2.72846,-0.145948,-0.404253,29.5633,0.273428,
2,0,0,1,0,20887.1,0.271771,0.27144,-1.93381,11,0.0163048,10,-0.000524913,-2.71359,-0.147622,-0.39967,30.0791,0.27144,
2,0,0,1,0,20887.1,0.269774,0.269417,-1.98936,11,0.0162656,10,-0.000535968,-2.70129,-0.186555,-0.31626,24.463,0.269417,
2,0,0,1,0,20887.1,0.267776,0.267468,-2.03097,11,0.0162255,10,-0.000543219,-2.6923,-0.211751,-0.278629,22.1085,0.267468,
2,0,0,1,0,20887.2,0.265778,0.265427,-2.07757,11,0.0161845,10,-0.000551444,-2.68244,-0.202125,-0.291898,23.6745,0.265427,
2,0,0,1,0,20887.2,0.263781,0.263448,-2.12614,11,0.0161426,10,-0.000560129,-2.67241,-0.223649,-0.263806,21.8327,0.263448,
2,0,0,1,0,20887.2,0.261783,0.261458,-2.16423,11,0.0160998,10,-0.000565855,-2.6647,-0.275472,-0.214178,18.069,0.261458,
2,0,0,1,0,20887.2,0.259786,0.25949,-2.19766,11,0.0160562,10,-0.000570271,-2.65804,-0.262084,-0.225119,19.3519,0.25949,
2,0,0,1,0,20887.2,0.257788,0.257463,-2.24154,11,0.0160118,10,-0.000577114,-2.64945,-0.250462,-0.235565,20.5819,0.257463,
2,0,0,1,0,20887.3,0.25579,0.25547,-2.28041,11,0.0159667,10,-0.000582575,-2.64199,-0.286956,-0.205606,18.277,0.25547,
2,0,0,1,0,20887.3,0.253793,0.25348,-2.31434,11,0.0159208,10,-0.000586639,-2.63557,-0.327686,-0.18005,16.2495,0.25348,
2,0,0,1,0,20887.3,0.251795,0.251501,-2.3449,11,0.0158742,10,-0.000589745,-2.62987,-0.337785,-0.174668,15.9937,0.251501,
2,0,0,1,0,20887.3,0.249798,0.249473,-2.37843,11,0.0158269,10,-0.000593354,-2.62371,-0.320318,-0.184192,17.1027,0.249473,
2,0,0,1,0,20887.3,0.2478,0.247472,-2.4138,11,0.0157792,10,-0.000597349,-2.6173,-0.332001,-0.17771,16.7239,0.247472,
2,0,0,1,0,20887.4,0.245802,0.245518,-2.44457,11,0.0157307,10,-0.000600186,-2.6118,-0.333429,-0.176949,16.9006,0.245518,
2,0,0,1,0,20887.4,0.243805,0.243489,-2.48113,11,0.0156814,10,-0.000604126,-2.60535,-0.401277,-0.147031,14.191,0.243489,
2,0,0,1,0,20887.4,0.241807,0.241482,-2.50184,11,0.0156316,10,-0.00060415,-2.60174,-0.389572,-0.151448,14.839,0.241482,
2,0,0,1,0,20887.4,0.23981,0.239502,-2.54028,11,0.0155815,10,-0.000608403,-2.59512,-0.355979,-0.16574,16.3938,0.239502,
2,0,0,1,0,20887.4,0.237812,0.237484,-2.56739,11,0.0155304,10,-0.000609714,-2.59051,-0.486503,-0.121274,12.1386,0.237484,
2,0,0,1,0,20887.5,0.235815,0.235465,-2.58929,11,0.0154788,10,-0.000609686,-2.58682,-0.464383,-0.12705,12.8582,0.235465,
2,0,0,1,0,20887.5,0.233817,0.233451,-2.61925,11,0.0154268,10,-0.000611466,-2.58182,-0.357678,-0.164953,16.8843,0.2334505,
2,0,0,1,0,20887.5,0.231815,0.231482,-2.65653,11,0.0153741,10,-0.00061494,-2.57569,-0.389657,-0.151415,15.6606,0.231482,
2,0,0,1,0,20887.5,0.229822,0.229486,-2.68134,11,0.015321,10,-0.00061533,-2.57165,-0.523257,-0.112755,11.7934,0.229486,
2,0,0,1,0,20887.5,0.227824,0.227487,-2.70365,11,0.0152672,10,-0.000615045,-2.56805,-0.511426,-0.115364,12.181,0.227487,
2,0,0,1,0,20887.6,0.225827,0.225504,-2.72984,11,0.0152129,10,-0.000615591,-2.56386,-0.494599,-0.119289,12.7035,0.225504,
2,0,0,1,0,20887.6,0.223829,0.223525,-2.75398,11,0.015158,10,-0.000615584,-2.56004,-0.469957,-0.125543,13.5061,0.223525,
2,0,0,1,0,20887.6,0.221831,0.221531,-2.7835,11,0.0151029,10,-0.000616632,-2.55541,-0.494284,-0.119365,12.9501,0.221531,
2,0,0,1,0,20887.6,0.219834,0.219504,-2.80606,11,0.015047,10,-0.00061594,-2.5519,-0.488639,-0.120744,13.2425,0.219504,
2,0,0,1,0,20887.6,0.217836,0.21748,-2.83714,11,0.0149905,10,-0.000617023,-2.54712,-0.529541,-0.111417,12.308,0.2174805,
2,0,0,1,0,20887.7,0.215839,0.215512,-2.85518,11,0.0149335,10,-0.000615327,-2.54437,-0.500824,-0.117806,13.1639,0.215512,
2,0,0,1,0,20887.7,0.213841,0.213507,-2.88944,11,0.0148763,10,-0.000616918,-2.53919,-0.449653,-0.131212,14.7723,0.213507,
2,0,0,1,0,20887.7,0.211843,0.211493,-2.91455,11,0.0148182,10,-0.000616409,-2.53543,-0.596624,-0.0988897,11.2378,0.211493,
2,0,0,1,0,20887.7,0.209846,0.209512,-2.93434,11,0.0147597,10,-0.00061478,-2.53249,-0.548281,-0.107609,12.3422,0.209512,
2,0,0,1,0,20887.7,0.207848,0.207544,-2.96329,11,0.0147007,10,-0.000615015,-2.52823,-0.394241,-0.149655,17.338,0.207544,
2,0,0,1,0,20887.8,0.205851,0.20555,-3.00305,11,0.0146413,10,-0.000617275,-2.52244,-0.478914,-0.123195,14.3863,0.20555,
2,0,0,1,0,20887.8,0.203853,0.203512,-3.0213,11,0.014581,10,-0.000614871,-2.51981,-0.630763,-0.0935375,11.0431,0.203512,
2,0,0,1,0,20887.8,0.201856,0.201542,-3.0473,11,0.0145204,10,-0.00061416,-2.51608,-0.556433,-0.106033,12.6054,0.201542,
2,0,0,1,0,20887.8,0.199858,0.199554,-3.07119,11,0.0144592,10,-0.000612869,-2.51269,-0.440505,-0.133937,16.0962,0.199554,
2,0,0,1,0,20887.8,0.19786,0.197547,-3.11161,11,0.0143976,10,-0.000614689,-2.50701,-0.486166,-0.121358,14.6847,0.197547,
2,0,0,1,0,20887.9,0.195863,0.195548,-3.13002,11,0.0143353,10,-0.000612069,-2.50445,-0.544784,-0.1083,13.2644,0.195548,
2,0,0,1,0,20887.9,0.193865,0.193508,-3.16518,11,0.0142724,10,-0.000612489,-2.4996,-0.463035,-0.12742,15.7205,0.193508,
2,0,0,1,0,20887.9,0.191868,0.191557,-3.19276,11,0.0142088,10,-0.000611596,-2.49583,-0.458687,-0.128628,16.0506,0.191557,
2,0,0,1,0,20887.9,0.18987,0.189484,-3.22978,11,0.0141449,10,-0.00061199,-2.49083,-0.487868,-0.120934,15.2116,0.189484,
2,0,0,1,0,20887.9,0.187872,0.187568,-3.25345,11,0.0140801,10,-0.000610241,-2.48766,-0.483767,-0.121959,15.5169,0.187568,
2,0,0,1,0,20888,0.185875,0.185567,-3.29055,11,0.0140147,10,-0.000610618,-2.48273,-0.454882,-0.129704,16.6358,0.185567,
2,0,0,1,0,20888,0.183877,0.183587,-3.31967,11,0.0139486,10,-0.000609448,-2.47891,-0.398255,-0.148146,19.2452,0.183587,
2,0,0,1,0,20888,0.18188,0.181593,-3.36704,11,0.0138822,10,-0.00061143,-2.47275,-0.39506,-0.149344,19.5755,0.181593,
2,0,0,1,0,20888,0.179882,0.179592,-3.39787,11,0.0138145,10,-0.000610231,-2.46879,-0.495748,-0.119012,15.7861,0.179592,
2,0,0,1,0,20888,0.177885,0.177563,-3.43065,11,0.0137462,10,-0.000609157,-2.46462,-0.402418,-0.146614,19.6683,0.177563,
2,0,0,1,0,20888.1,0.175887,0.175558,-3.47722,11,0.0136771,10,-0.000610453,-2.45877,-0.332093,-0.177661,24.1177,0.175558,
2,0,0,1,0,20888.1,0.173896,0.173585,-3.52659,11,0.0136075,10,-0.000612164,-2.45265,-0.343833,-0.171595,23.6021,0.1735853,
2,0,0,1,0,20888.1,0.171892,0.171543,-3.57198,11,0.0135365,10,-0.000612747,-2.44709,-0.360221,-0.163788,22.833,0.171543,
2,0,0,1,0,20888.1,0.169894,0.169587,-3.61787,11,0.0134646,10,-0.000613545,-2.44155,-0.313661,-0.188101,26.6046,0.169587,
2,0,0,1,0,20888.1,0.167897,0.167604,-3.67677,11,0.0133917,10,-0.000616242,-2.43453,-0.278002,-0.212229,30.4717,0.167604,
2,0,0,1,0,20888.2,0.165899,0.165553,-3.74079,11,0.0133175,10,-0.000619301,-2.42704,-0.269567,-0.21887,31.9565,0.165553,
2,0,0,1,0,20888.2,0.163901,0.163549,-3.80636,11,0.0132424,10,-0.000622526,-2.41949,-0.261561,-0.225569,33.5176,0.163549,
2,0,0,1,0,20888.2,0.161904,0.161554,-3.87484,11,0.0131657,10,-0.000625996,-2.41175,-0.245536,-0.240291,36.3706,0.1615542,
2,0,0,1,0,20888.2,0.159906,0.159564,-3.95129,11,0.0130874,10,-0.000630483,-2.40326,-0.225217,-0.261969,40.4241,0.159564,
2,0,0,1,0,20888.2,0.157909,0.157616,-4.03405,11,0.0130076,10,-0.00063583,-2.39426,-0.200289,-0.294574,46.4829,0.157616,
2,0,0,1,0,20888.3,0.155911,0.155575,-4.13671,11,0.0129262,10,-0.000643569,-2.38335,-0.180251,-0.327322,52.8842,0.155575,
2,0,0,1,0,20888.3,0.153913,0.153579,-4.24754,11,0.0128423,10,-0.000652331,-2.37186,-0.172164,-0.342696,56.8259,0.153579,
2,0,0,1,0,20888.3,0.151916,0.151592,-4.36306,11,0.0127561,10,-0.000661404,-2.36021,-0.15494,-0.380791,65.0431,0.151592,
2,0,0,1,0,20888.3,0.149918,0.149566,-4.50853,11,0.0126675,10,-0.000674324,-2.34596,-0.13592,-0.434077,76.4704,0.149566,
2,0,0,1,0,20888.3,0.147921,0.147599,-4.6684,11,0.0125762,10,-0.000689051,-2.33083,-0.13332,-0.442543,80.6238,0.147599,
2,0,0,1,0,20888.4,0.145923,0.145561,-4.83146,11,0.0124811,10,-0.000703271,-2.31592,-0.12115,-0.487,92.1417,0.145561,
2,0,0,1,0,20888.4,0.143926,0.143651,-5.03216,11,0.0123825,10,-0.000722875,-2.29825,-0.108097,-0.545804,107.395,0.143651,
2,0,0,1,0,20888.4,0.141928,0.141588,-5.25806,11,0.0122795,10,-0.000744481,-2.27917,-0.103022,-0.572692,117.716,0.141588,
2,0,0,1,0,20888.4,0.13993,0.139603,-5.50869,11,0.0121724,10,-0.00076903,-2.25895,-0.0997164,-0.591678,127.182,0.139603,
2,0,0,1,0,20888.4,0.137933,0.1376,-5.76525,11,0.0120597,10,-0.000793302,-2.23918,-0.097238,-0.606759,136.782,0.1376005,
2,0,0,1,0,20888.5,0.135935,0.135628,-6.05239,11,0.0119415,10,-0.000820874,-2.21807,-0.0937434,-0.629378,148.758,0.135628,
2,0,0,1,0,20888.5,0.133938,0.133623,-6.35688,11,0.0118173,10,-0.000849428,-2.19676,-0.0959733,-0.614754,152.392,0.133623,
2,0,0,1,0,20888.5,0.13194,0.131635,-6.66092,11,0.0116878,10,-0.000876809,-2.17647,-0.0971521,-0.607295,158.024,0.131635,
2,0,0,1,0,20888.5,0.129942,0.12963,-6.98796,11,0.0115512,10,-0.000905848,-2.15565,-0.100122,-0.589282,160.516,0.12963,
2,0,0,1,0,20888.5,0.127945,0.127602,-7.30832,11,0.0114082,10,-0.000932553,-2.13618,-0.105797,-0.557672,158.906,0.127602,
2,0,0,1,0,20888.6,0.125947,0.125629,-7.62378,11,0.0112588,10,-0.000957765,-2.11783,-0.110433,-0.53426,158.851,0.125629,
2,0,0,1,0,20888.6,0.12395,0.123641,-7.9375,11,0.011104,10,-0.000981399,-2.10032,-0.122171,-0.48293,149.268,0.123641,
2,0,0,1,0,20888.6,0.121952,0.121611,-8.22354,11,0.0109423,10,-0.00100007,-2.08494,-0.135583,-0.435156,139.48,0.121611,
2,0,0,1,0,20888.6,0.119955,0.119645,-8.49489,11,0.0107749,10,-0.00101637,-2.07084,-0.1443,-0.40887,135.438,0.119645,
2,0,0,1,0,20888.6,0.117957,0.117668,-8.75749,11,0.0106022,10,-0.00103048,-2.05762,-0.159102,-0.370832,126.578,0.117668,
2,0,0,1,0,20888.7,0.115955,0.115635,-9.00237,11,0.0104245,10,-0.00104099,-2.04564,-0.179742,-0.328247,115.137,0.115635,
2,0,0,1,0,20888.7,0.113962,0.113634,-9.22194,11,0.0102429,10,-0.00104793,-2.03518,-0.202623,-0.291181,104.665,0.113634,
2,0,0,1,0,20888.7,0.111964,0.111631,-9.42145,11,0.0100564,10,-0.00105173,-2.02588,-0.223639,-0.263818,96.9151,0.111631,
2,0,0,1,0,20888.7,0.109967,0.109667,-9.60643,11,0.00986599,10,-0.00105351,-2.01744,-0.255005,-0.231368,86.6185,0.109667,
2,0,0,1,0,20888.7,0.107969,0.107652,-9.76613,11,0.0096722,10,-0.00105134,-2.01028,-0.300409,-0.196399,74.7841,0.107652,
2,0,0,1,0,20888.8,0.105971,0.105625,-9.90868,11,0.00947633,10,-0.00104661,-2.00398,-0.354827,-0.166278,64.2117,0.105625,
2,0,0,1,0,20888.8,0.103974,0.103621,-10.025,11,0.00927686,10,-0.0010388,-1.99892,-0.42178,-0.139883,54.6887,0.103621,
2,0,0,1,0,20888.8,0.101976,0.101624,-10.1275,11,0.00907524,10,-0.0010292,-1.9945,-0.564511,-0.104515,41.2228,0.101624,
2,0,0,1,0,20888.8,0.0999786,0.0996619,-10.1882,11,0.00887211,10,-0.00101537,-1.9919,-0.826118,-0.0714184,28.3842,0.0996619,
2,0,0,1,0,20888.8,0.0979811,0.0976623,-10.24,11,0.00866872,10,-0.00100006,-1.9897,-1.3652,-0.0432171,17.2424,0.0976623,
2,0,0,1,0,20888.9,0.0959835,0.0956196,-10.2579,11,0.00846364,10,-0.000980853,-1.98894,-9.61448,-0.00613658,2.45356,0.0956196,
2,0,0,1,0,20888.9,0.0939859,0.0936473,-10.2498,11,0.00825848,10,-0.000959868,-1.98928,2.65932,0.0221861,-8.86643,0.0936473,
2,0,0,1,0,20888.9,0.0919883,0.0916141,-10.2224,11,0.00805368,10,-0.000936513,-1.99045,1.44392,0.0408609,-16.2927,0.0916141,
2,0,0,1,0,20888.9,0.0899907,0.0896163,-10.1841,11,0.0078505,10,-0.000912664,-1.99208,0.781545,0.0754915,-29.9446,0.0896163,
2,0,0,1,0,20888.9,0.0879931,0.0877128,-10.1055,11,0.00764752,10,-0.000886384,-1.99544,0.540534,0.109151,-43.0158,0.0877128,
2,0,0,1,0,20889,0.0859955,0.0856227,-10.0123,11,0.00744627,10,-0.000857284,-1.99946,0.494328,0.119354,-46.6288,0.0856227,
2,0,0,1,0,20889,0.083998,0.0836472,-9.91596,11,0.00724692,10,-0.000829442,-2.00367,0.442605,0.133302,-51.5514,0.0836472,
2,0,0,1,0,20889,0.0820004,0.0816368,-9.80687,11,0.00705062,10,-0.000800602,-2.00847,0.395984,0.148996,-57.0027,0.0816368,
2,0,0,1,0,20889,0.0800028,0.0796978,-9.69084,11,0.00685563,10,-0.000772339,-2.01364,0.396583,0.148771,-56.2822,0.0796978,
2,0,0,1,0,20889,0.0780052,0.0776306,-9.58139,11,0.00666289,10,-0.000743809,-2.01857,0.391181,0.150825,-56.3775,0.0776306,
2,0,0,1,0,20889.1,0.0760076,0.0757048,-9.46572,11,0.0064724,10,-0.000716601,-2.02385,0.413508,0.142681,-52.7685,0.0757048,
2,0,0,1,0,20889.1,0.07401,0.0736662,-9.3722,11,0.00628504,10,-0.000690414,-2.02816,0.444225,0.132816,-48.5559,0.0736662,
2,0,0,1,0,20889.1,0.0720124,0.0716785,-9.27022,11,0.00609859,10,-0.000664476,-2.03291,0.47591,0.123973,-44.9099,0.0716785,
2,0,0,1,0,20889.1,0.0700148,0.0696718,-9.19281,11,0.00591398,10,-0.000640479,-2.03655,0.489918,0.120428,-43.1622,0.06967178,
2,0,0,1,0,20889.1,0.0680173,0.0676754,-9.09744,11,0.00573112,10,-0.000615673,-2.04108,0.584348,0.100967,-35.9396,0.0676754,
2,0,0,1,0,20889.2,0.0660106,0.0656708,-9.04901,11,0.00554972,10,-0.000594256,-2.0434,0.644278,0.0915753,-32.2858,0.0656708,
2,0,0,1,0,20889.2,0.0640221,0.0637413,-8.97042,11,0.00537044,10,-0.000571786,-2.04719,0.567186,0.104022,-36.4427,0.0637413,
2,0,0,1,0,20889.2,0.0620245,0.0617163,-8.9049,11,0.00519172,10,-0.000549578,-2.05037,0.63607,0.0927571,-32.2375,0.06171634,
2,0,0,1,0,20889.2,0.0600269,0.0597134,-8.84057,11,0.00501426,10,-0.000527901,-2.05352,0.700731,0.0841978,-29.0712,0.0597134,
2,0,0,1,0,20889.2,0.0580361,0.0577444,-8.78943,11,0.00483885,10,-0.00050754,-2.05604,0.703922,0.0838161,-28.7297,0.0577444,
2,0,0,1,0,20889.3,0.0560317,0.0557107,-8.72558,11,0.00466359,10,-0.000486108,-2.05921,0.721903,0.0817284,-27.8547,0.0557107,
2,0,0,1,0,20889.3,0.0540342,0.0536979,-8.67672,11,0.00448955,10,-0.000465921,-2.06164,0.733485,0.0804379,-27.2194,0.0536979,
2,0,0,1,0,20889.3,0.0520366,0.0516876,-8.61607,11,0.00431657,10,-0.000445344,-2.06469,0.637554,0.0925412,-31.1144,0.0516876,
2,0,0,1,0,20889.3,0.050039,0.0497498,-8.55388,11,0.00414477,10,-0.000425554,-2.06784,0.730744,0.0807397,-26.9791,0.0497498,
2,0,0,1,0,20889.3,0.0480414,0.0476892,-8.5082,11,0.0039749,10,-0.000405749,-2.07016,0.748148,0.0788614,-26.1635,0.0476892,
2,0,0,1,0,20889.4,0.0460438,0.0457125,-8.44825,11,0.00380533,10,-0.00038619,-2.07323,0.635218,0.0928815,-30.6217,0.0457125,
2,0,0,1,0,20889.4,0.0440462,0.043744,-8.38739,11,0.00363698,10,-0.000366898,-2.07637,0.613987,0.0960932,-31.4468,0.043744,
2,0,0,1,0,20889.4,0.0420486,0.0417203,-8.32271,11,0.00346992,10,-0.000347226,-2.07974,0.668241,0.0882915,-28.7014,0.0417203,
2,0,0,1,0,20889.4,0.0400511,0.0397212,-8.27193,11,0.00330475,10,-0.000328571,-2.08239,0.665084,0.0887106,-28.614,0.0397212,
2,0,0,1,0,20889.4,0.0380535,0.0376918,-8.20744,11,0.00313992,10,-0.000309353,-2.08579,0.542013,0.108853,-34.8432,0.0376918,
2,0,0,1,0,20889.5,0.0360559,0.0357107,-8.13219,11,0.00297652,10,-0.000290406,-2.08979,0.523457,0.112712,-35.7898,0.0357107,
2,0,0,1,0,20889.5,0.0340583,0.033726,-8.0655,11,0.0028145,10,-0.000272017,-2.09337,0.562137,0.104957,-33.0419,0.033726,
2,0,0,1,0,20889.5,0.0320607,0.0317526,-8.00141,11,0.00265456,10,-0.000254065,-2.09683,0.513097,0.114988,-35.8743,0.0317526,
2,0,0,1,0,20889.5,0.0300631,0.0297546,-7.92303,11,0.00249534,10,-0.000235747,-2.10111,0.460731,0.128057,-39.5883,0.0297546,
2,0,0,1,0,20889.5,0.0280655,0.027721,-7.8418,11,0.00233768,10,-0.000217383,-2.10558,0.46779,0.126125,-38.6124,0.027721,
2,0,0,1,0,20889.6,0.0260679,0.0256982,-7.7664,11,0.00218158,10,-0.000199582,-2.10978,0.447811,0.131752,-39.9105,0.0256982,
2,0,0,1,0,20889.6,0.0240704,0.0237295,-7.6825,11,0.00202784,10,-0.000182302,-2.1145,0.402531,0.146572,-43.9242,0.0237295,
2,0,0,1,0,20889.6,0.0220728,0.0217205,-7.59168,11,0.00187507,10,-0.000164895,-2.11966,0.396381,0.148847,-44.1108,0.0217205,
2,0,0,1,0,20889.6,0.0200752,0.0197099,-7.50519,11,0.00172405,10,-0.000147926,-2.12464,0.384322,0.153517,-44.9463,0.0197099,
2,0,0,1,0,20889.6,0.0180776,0.017743,-7.41291,11,0.00157476,10,-0.000131527,-2.13001,0.410005,0.143901,-41.6847,0.017743,
2,0,0,1,0,20889.7,0.01608,0.015757,-7.34042,11,0.001428,10,-0.000115663,-2.13428,0.432547,0.136401,-39.0436,0.015757,
2,0,0,1,0,20889.7,0.0140824,0.0137383,-7.25655,11,0.00128202,10,-9.96926e-05,-2.13927,0.395908,0.149024,-42.1975,0.0137383,
2,0,0,1,0,20889.7,0.0120848,0.011747,-7.1712,11,0.00113774,10,-8.42401e-05,-2.14441,0.388915,0.151704,-42.4629,0.01174699,
2,0,0,1,0,20889.7,0.0100872,0.00977809,-7.08839,11,0.000995225,10,-6.93109e-05,-2.14945,0.435953,0.135336,-37.4785,0.00977809,
2,0,0,1,0,20889.7,0.00809193,0.00774167,-7.02109,11,0.000854914,10,-5.4355e-05,-2.1536,0.47224,0.124936,-34.2256,0.00774167,
2,0,0,1,0,20889.8,0.00609208,0.00575833,-6.95081,11,0.000715219,10,-4.0025e-05,-2.15796,0.428666,0.137636,-37.3152,0.00575833,
2,0,0,1,0,20889.8,0.00409449,0.00377758,-6.87317,11,0.000576987,10,-2.5964e-05,-2.16284,0.793647,0.0743404,-20.0479,0.00377758,
2,0,0,1,0,20889.8,0.0020969,0.00169706,-6.86939,11,0.000439912,10,-1.16578e-05,-2.16308,0.746201,0.0790672,-21.0756,0.00169706,
2,0,0,1,0,20889.8,9.14991e-05,-0.000310574,-6.78701,11,0.000303371,10,2.10787e-06,-2.16832,0.472664,0.124824,-33.1425,-0.000310574,
2,0,0,1,0,20889.8,-0.00189827,-0.00227597,-6.73771,11,0.00016873,10,1.53348e-05,-2.17149,0.616034,0.0957739,-25.1824,-0.00227597,
2,0,0,1,0,20889.9,-0.00389586,-0.00424777,-6.68786,11,3.44272e-05,10,2.84085e-05,-2.17471,0.727536,0.0810957,-21.1894,-0.00424777,
2,0,0,1,0,20889.9,-0.00589345,-0.0062897,-6.65267,11,-9.90687e-05,10,4.18433e-05,-2.177,0.859687,0.0686297,-17.8178,-0.0062897,
2,0,0,1,0,20889.9,-0.00789103,-0.0082225,-6.61704,11,-0.000231818,10,5.44086e-05,-2.17934,1.22553,0.0481423,-12.4527,-0.0082225,
2,0,0,1,0,20889.9,-0.00988862,-0.0102716,-6.60308,11,-0.000363496,10,6.78239e-05,-2.18025,2.18267,0.0270311,-6.96575,-0.0102716,
2,0,0,1,0,20889.9,-0.0118862,-0.012254,-6.58896,11,-0.000495504,10,8.07413e-05,-2.18118,1.86181,0.0316895,-8.14598,-0.012254,
2,0,0,1,0,20890,-0.0138838,-0.0143033,-6.57024,11,-0.000627174,10,9.39762e-05,-2.18242,2.55373,0.0231034,-5.9303,-0.0143033,
2,0,0,1,0,20890,-0.0158814,-0.0162394,-6.56532,11,-0.000758583,10,0.000106617,-2.18274,-13.1321,-0.0044928,1.15243,-0.0162394,
2,0,0,1,0,20890,-0.017879,-0.0182736,-6.57481,11,-0.000889459,10,0.000120146,-2.18212,-4.88681,-0.0120733,3.09641,-0.0182736,
2,0,0,1,0,20890,-0.0198766,-0.020262,-6.57778,11,-0.00102103,10,0.000133279,-2.18192,-4.78971,-0.0123181,3.16378,-0.020262,
2,0,0,1,0,20890,-0.0218741,-0.0222616,-6.58743,11,-0.00115268,10,0.000146647,-2.18128,-2.3898,-0.0246883,6.34991,-0.0222616,
2,0,0,1,0,20890.1,-0.0238717,-0.0242446,-6.60307,11,-0.0012846,10,0.000160089,-2.18025,-1.45048,-0.0406763,10.4908,-0.0242446,
2,0,0,1,0,20890.1,-0.0258693,-0.0262867,-6.62966,11,-0.00141632,10,0.000174272,-2.17851,-1.67485,-0.035227,9.10295,-0.0262867,
2,0,0,1,0,20890.1,-0.0278669,-0.028254,-6.63957,11,-0.00154901,10,0.000187594,-2.17786,-1.47137,-0.0400988,10.4072,-0.028254,
2,0,0,1,0,20890.1,-0.0298645,-0.0302542,-6.67095,11,-0.00168215,10,0.000201825,-2.17581,-0.999436,-0.0590333,15.3669,-0.0302542,
2,0,0,1,0,20890.1,-0.0318621,-0.0322189,-6.70049,11,-0.0018159,10,0.000215883,-2.17389,-0.985364,-0.0598763,15.6607,-0.0322189,
2,0,0,1,0,20890.2,-0.0338597,-0.0342041,-6.73281,11,-0.00194959,10,0.000230289,-2.1718,-0.94649,-0.0623356,16.3802,-0.0342041,
2,0,0,1,0,20890.2,-0.0358573,-0.0362153,-6.76596,11,-0.00208465,10,0.000245031,-2.16967,-0.80418,-0.0733666,19.3886,-0.0362153,
2,0,0,1,0,20890.2,-0.0378548,-0.0382037,-6.81035,11,-0.00222048,10,0.000260181,-2.16683,-0.871147,-0.0677268,17.979,-0.0382037,
2,0,0,1,0,20890.2,-0.0398524,-0.0402386,-6.83829,11,-0.00235705,10,0.000275163,-2.16505,-0.723045,-0.0815994,21.8277,-0.0402386,
2,0,0,1,0,20890.2,-0.04185,-0.0422302,-6.89824,11,-0.00249376,10,0.000291314,-2.16126,-0.626112,-0.0942323,25.3337,-0.0422302,
2,0,0,1,0,20890.3,-0.0438476,-0.0442253,-6.93929,11,-0.00263216,10,0.000306892,-2.15869,-0.77349,-0.0762777,20.6568,-0.0442253,
2,0,0,1,0,20890.3,-0.0458452,-0.0461935,-6.98011,11,-0.00277145,10,0.000322436,-2.15614,-0.696174,-0.0847489,23.1034,-0.0461935,
2,0,0,1,0,20890.3,-0.0478428,-0.0482081,-7.0313,11,-0.00291167,10,0.000338965,-2.15296,-0.531006,-0.11111,30.5333,-0.04820805,
2,0,0,1,0,20890.3,-0.0498495,-0.0502183,-7.103,11,-0.00305304,10,0.000356701,-2.14856,-0.537661,-0.109735,30.3722,-0.0502183,
2,0,0,1,0,20890.3,-0.051838,-0.0522163,-7.15304,11,-0.00319494,10,0.000373505,-2.14551,-0.641289,-0.0920021,25.6861,-0.0522163,
2,0,0,1,0,20890.4,-0.0538355,-0.0541819,-7.20481,11,-0.00333852,10,0.00039037,-2.14238,-0.579477,-0.101816,28.6494,-0.0541819,
2,0,0,1,0,20890.4,-0.0558331,-0.0562035,-7.26727,11,-0.00348331,10,0.000408446,-2.13863,-0.522848,-0.112844,32.0123,-0.05620347,
2,0,0,1,0,20890.4,-0.0578217,-0.0582063,-7.33364,11,-0.00362864,10,0.000426864,-2.13468,-0.523668,-0.112667,32.2381,-0.0582063,
2,0,0,1,0,20890.4,-0.0598283,-0.0602179,-7.39669,11,-0.00377605,10,0.000445413,-2.13096,-0.478908,-0.123197,35.6024,-0.06021788,
2,0,0,1,0,20890.4,-0.0618259,-0.062219,-7.4765,11,-0.00392483,10,0.000465181,-2.1263,-0.469336,-0.12571,36.6421,-0.06221902,
2,0,0,1,0,20890.5,-0.0638235,-0.0641646,-7.54131,11,-0.00407506,10,0.000483885,-2.12255,-0.496036,-0.118943,35.0284,-0.0641646,
2,0,0,1,0,20890.5,-0.0658211,-0.0662009,-7.61598,11,-0.0042267,10,0.000504185,-2.11827,-0.43958,-0.134219,39.9238,-0.0662009,
2,0,0,1,0,20890.5,-0.0678187,-0.0682082,-7.70274,11,-0.00437926,10,0.00052539,-2.11335,-0.415645,-0.141948,42.6586,-0.0682082,
2,0,0,1,0,20890.5,-0.0698162,-0.0701737,-7.78546,11,-0.00453418,10,0.000546335,-2.10872,-0.451983,-0.130536,39.6434,-0.0701737,
2,0,0,1,0,20890.5,-0.0718138,-0.0722078,-7.8613,11,-0.00469072,10,0.000567647,-2.10451,-0.423277,-0.139389,42.8161,-0.0722078,
2,0,0,1,0,20890.6,-0.0738114,-0.0741729,-7.95669,11,-0.00484897,10,0.000590171,-2.09927,-0.372513,-0.158384,49.1961,-0.0741729,
2,0,0,1,0,20890.6,-0.075809,-0.076194,-8.0574,11,-0.00500842,10,0.000613926,-2.0938,-0.412282,-0.143106,44.9417,-0.076194,
2,0,0,1,0,20890.6,-0.0778066,-0.0782029,-8.1378,11,-0.00517052,10,0.0006364,-2.08949,-0.406325,-0.145204,46.1845,-0.0782029,
2,0,0,1,0,20890.6,-0.0798042,-0.0802162,-8.24317,11,-0.00533448,10,0.000661236,-2.08391,-0.360637,-0.1636,52.6228,-0.0802162,
2,0,0,1,0,20890.6,-0.0818018,-0.0821765,-8.34691,11,-0.00550045,10,0.00068592,-2.07847,-0.350066,-0.168539,54.927,-0.0821765,
2,0,0,1,0,20890.7,-0.0837994,-0.0841473,-8.45909,11,-0.00566772,10,0.00071181,-2.07268,-0.361454,-0.16323,53.8557,-0.0841473,
2,0,0,1,0,20890.7,-0.0857969,-0.0861755,-8.56228,11,-0.00583791,10,0.000737859,-2.06741,-0.371714,-0.158724,53.0545,-0.0861755,
2,0,0,1,0,20890.7,-0.0877945,-0.0881474,-8.67131,11,-0.00601028,10,0.000764353,-2.06192,-0.361266,-0.163315,55.281,-0.0881474,
2,0,0,1,0,20890.7,-0.0897921,-0.0902117,-8.7854,11,-0.00618483,10,0.000792546,-2.05624,-0.371087,-0.158992,54.4822,-0.0902117,
2,0,0,1,0,20890.7,-0.0917897,-0.0921692,-8.89043,11,-0.00636066,10,0.000819424,-2.05108,-0.379121,-0.155623,54.005,-0.0921692,
2,0,0,1,0,20890.8,-0.0937873,-0.0941725,-8.9993,11,-0.00653961,10,0.000847487,-2.04579,-0.378394,-0.155922,54.7611,-0.0941725,
2,0,0,1,0,20890.8,-0.0957849,-0.0961554,-9.10872,11,-0.00672076,10,0.000875853,-2.04054,-0.397904,-0.148277,52.6801,-0.0961554,
2,0,0,1,0,20890.8,-0.0977825,-0.0981444,-9.20854,11,-0.00690399,10,0.000903767,-2.03581,-0.395003,-0.149366,53.7209,-0.0981444,
2,0,0,1,0,20890.8,-0.0997501,-0.100154,-9.32353,11,-0.00708559,10,0.000933788,-2.03042,0.00838845,7.03348,-2230.19,-0.100154,
2,0,0,1,1,20890.8,-0.0987313,-0.0990766,-7.12947,11,-0.00721125,10,0.000706364,-2.14694,-0.0111948,-5.2703,1425.69,-0.0990766,
2,0,0,1,1,20890.9,-0.0967337,-0.0971133,-4.98843,11,-0.00733075,10,0.000484442,-2.30204,-0.0124571,-4.73625,934.187,-0.0971133,
2,0,0,1,1,20890.9,-0.0947362,-0.095113,-3.42668,11,-0.00741405,10,0.000325922,-2.46513,-0.0114008,-5.17506,687.131,-0.095113,
2,0,0,1,1,20890.9,-0.0927386,-0.0930468,-2.19423,11,-0.00746965,10,0.000204166,-2.65872,-0.00878985,-6.71229,554.613,-0.0930468,
2,0,0,1,1,20890.9,-0.090741,-0.091086,-1.19324,11,-0.00750297,10,0.000108688,-2.92327,-0.00508046,-11.6131,464.272,-0.09108597,
2,0,0,1,1,20890.9,-0.0887434,-0.0891166,-0.369576,11,-0.00751829,10,3.29354e-05,-3.4323,-0.00720874,-8.18451,378.628,-0.0891166,
2,1,0,1,1,20891,-0.0867458,-0.0870627,0.33008,11,-0.00751843,10,-2.87376e-05,-3.48138,0.010098,5.84272,321.89,-0.0870627,
2,1,0,1,1,20891,-0.0847482,-0.0850979,0.924002,11,-0.00750566,10,-7.86307e-05,-3.03433,0.00612364,9.63479,282.371,-0.0850979,
2,1,0,1,1,20891,-0.0827529,-0.0831596,1.43221,11,-0.0074821,10,-0.000119102,-2.84399,0.0129802,4.54539,238.369,-0.0831596,
2,1,0,1,1,20891,-0.080753,-0.0811098,1.87465,11,-0.00744884,10,-0.000152052,-2.72708,0.019983,2.95251,209.46,-0.0811098,
2,1,0,1,1,20891,-0.0787554,-0.0791738,2.26708,11,-0.00740727,10,-0.000179493,-2.64453,0.0280087,2.10649,182.39,-0.0791738,
2,1,0,1,1,20891.1,-0.0767579,-0.0771206,2.60225,11,-0.00735843,10,-0.000200687,-2.58465,0.0375343,1.5719,157.939,-0.0771206,
2,1,0,1,1,20891.1,-0.0747603,-0.0751116,2.90865,11,-0.0073032,10,-0.000218473,-2.53631,0.0459917,1.28284,144.253,-0.0751116,
2,1,0,1,1,20891.1,-0.0727627,-0.0731182,3.17961,11,-0.0072424,10,-0.000232487,-2.49763,0.057221,1.03109,126.886,-0.0731182,
2,1,0,1,1,20891.1,-0.0707651,-0.0711517,3.4111,11,-0.0071764,10,-0.000242706,-2.46711,0.0703805,0.8383,111.104,-0.0711517,
2,1,0,1,1,20891.1,-0.0687675,-0.0691364,3.622,11,-0.00710595,10,-0.000250412,-2.44105,0.0828889,0.711796,100.264,-0.0691364,
2,1,0,1,1,20891.2,-0.0667699,-0.0671227,3.81507,11,-0.0070315,10,-0.000256078,-2.4185,0.0965831,0.610873,90.5905,-0.0671227,
2,1,0,1,1,20891.2,-0.0647723,-0.0651463,3.98346,11,-0.00695372,10,-0.000259508,-2.39974,0.115273,0.51183,79.3199,-0.06514632,
2,1,0,1,1,20891.2,-0.0627748,-0.06314,4.13098,11,-0.00687251,10,-0.00026083,-2.38395,0.133499,0.441952,71.142,-0.06314,
2,1,0,1,1,20891.2,-0.0607772,-0.0611306,4.26915,11,-0.00678845,10,-0.000260976,-2.36966,0.153547,0.384248,63.8524,-0.0611306,
2,1,0,1,1,20891.2,-0.0587796,-0.0591221,4.38753,11,-0.00670184,10,-0.0002594,-2.35778,0.176105,0.335028,57.2941,-0.0591221,
2,1,0,1,1,20891.3,-0.056782,-0.0571595,4.49667,11,-0.00661339,10,-0.000257027,-2.34711,0.203281,0.290239,50.83,-0.0571595,
2,1,0,1,1,20891.3,-0.0547844,-0.0551603,4.58891,11,-0.00652251,10,-0.000253125,-2.33829,0.241705,0.244099,43.6721,-0.0551603,
2,1,0,1,1,20891.3,-0.0527868,-0.0531196,4.6731,11,-0.00642983,10,-0.000248233,-2.3304,0.275116,0.214455,39.0601,-0.0531196,
2,1,0,1,1,20891.3,-0.0507892,-0.051142,4.74586,11,-0.00633562,10,-0.000242713,-2.32368,0.287796,0.205006,37.9894,-0.051142,
2,1,0,1,1,20891.3,-0.0487916,-0.0491429,4.82417,11,-0.00624038,10,-0.000237074,-2.31658,0.32682,0.180527,33.9103,-0.0491429,
2,1,0,1,1,20891.4,-0.0467941,-0.0471578,4.88097,11,-0.00614329,10,-0.000230176,-2.31149,0.451932,0.13055,24.8302,-0.0471578,
2,1,0,1,1,20891.4,-0.0447965,-0.0451588,4.9231,11,-0.00604518,10,-0.000222321,-2.30776,0.510652,0.115539,22.2087,-0.0451588,
2,1,0,1,1,20891.4,-0.0427989,-0.0431529,4.96991,11,-0.00594617,10,-0.000214466,-2.30365,0.474325,0.124387,24.1314,-0.0431529,
2,1,0,1,1,20891.4,-0.0408013,-0.0411768,5.01919,11,-0.00584674,10,-0.000206674,-2.29937,0.637684,0.0925223,18.0754,-0.0411768,
2,1,0,1,1,20891.4,-0.0388037,-0.0391664,5.04197,11,-0.00574606,10,-0.000197476,-2.2974,0.78824,0.0748503,14.7477,-0.0391664,
2,1,0,1,1,20891.5,-0.0368061,-0.0371879,5.07802,11,-0.00564478,10,-0.000188841,-2.29431,0.78685,0.0749825,14.8411,-0.0371879,
2,1,0,1,1,20891.5,-0.0348085,-0.0351705,5.10127,11,-0.00554292,10,-0.000179414,-2.29232,0.9478,0.0622494,12.3973,-0.0351705,
2,1,0,1,1,20891.5,-0.0328109,-0.0331473,5.12811,11,-0.00544108,10,-0.000169983,-2.29004,1.30737,0.0451287,9.016,-0.0331473,
2,1,0,1,1,20891.5,-0.0308134,-0.0311999,5.13707,11,-0.00533837,10,-0.000160276,-2.28928,1.71145,0.0344737,6.918,-0.0311999,
2,1,0,1,1,20891.5,-0.0288158,-0.0291407,5.15583,11,-0.00523537,10,-0.000150244,-2.2877,1.56563,0.0376846,7.57742,-0.0291407,
2,1,0,1,1,20891.6,-0.0268182,-0.0271985,5.16739,11,-0.00513211,10,-0.000140546,-2.28673,1.98726,0.0296891,5.98757,-0.0271985,
2,1,0,1,1,20891.6,-0.0248138,-0.0251983,5.17943,11,-0.00502873,10,-0.000130513,-2.28572,2.39609,0.0246234,4.97538,-0.0251983,
2,1,0,1,1,20891.6,-0.022823,-0.0231604,5.18748,11,-0.00492558,10,-0.000120144,-2.28504,5.45634,0.0108131,2.1876,-0.0231604,
2,1,0,1,1,20891.6,-0.0208254,-0.021155,5.18828,11,-0.0048218,10,-0.000109758,-2.28498,-10.6784,-0.00552518,-1.1181,-0.021155,
2,1,0,1,1,20891.6,-0.0188278,-0.0192031,5.18306,11,-0.00471807,10,-9.95308e-05,-2.28541,-118.541,-0.000497717,-0.100775,-0.0192031,
2,1,0,1,1,20891.7,-0.0168393,-0.0172254,5.18788,11,-0.0046148,10,-8.93634e-05,-2.28501,4.458,0.0132346,2.67986,-0.0172254,
2,1,0,1,1,20891.7,-0.0148326,-0.0151944,5.1938,11,-0.00451085,10,-7.89164e-05,-2.28451,11.6064,0.0050834,1.02963,-0.01519435,
2,1,0,1,1,20891.7,-0.0128351,-0.013224,5.192,11,-0.00440697,10,-6.86591e-05,-2.28467,-10.9087,-0.00540853,-1.09583,-0.013224,
2,1,0,1,1,20891.7,-0.0108375,-0.0111713,5.18939,11,-0.00430313,10,-5.79721e-05,-2.28488,27.005,0.00218478,0.442773,-0.0111713,
2,1,0,1,1,20891.7,-0.00883989,-0.00917577,5.19379,11,-0.00419923,10,-4.76571e-05,-2.28452,17.8392,0.00330732,0.669989,-0.00917577,
2,1,0,1,1,20891.8,-0.0068423,-0.00719054,5.19206,11,-0.00409578,10,-3.73337e-05,-2.28466,20.3681,0.00289669,0.587281,-0.00719054,
2,1,0,1,1,20891.8,-0.00484471,-0.00525442,5.1961,11,-0.00399186,10,-2.73025e-05,-2.28432,8.0788,0.00730306,1.48065,-0.00525442,
2,1,0,1,1,20891.8,-0.00284713,-0.00323573,5.19791,11,-0.00388791,10,-1.6819e-05,-2.28417,102.945,0.000573124,0.116228,-0.00323573,
2,1,0,1,1,20891.8,-0.000849538,-0.00120915,5.19657,11,-0.00378392,10,-6.28343e-06,-2.28428, , , ,-0.00120915,
2,1,0,1,1,20891.8,-2.55332e-05,-0.00042076,5.21211,11,-0.00374181,10,-2.19305e-06,-2.28299, , , ,-0.00042076,