File: Figure_codes/Fig_3-5/rawdata_trumpetplot_data/after 10th/20221101_1-115_003_TrumpetPlot_ParaChange_from10_every3_08_CV_C01_14.csv
mode,ox/red,error,control changes,counter inc.,time/s,control/V,Ewe/V,<I>/mA,cycle number,(Q-Qo)/C,I Range,P/W,log(|I|),Tafel slope mV/dec,alpha_eff,dI/d(E-IR),E-IR/V,
2,0,0,0,0,28756.8,2.44065e-05,-0.000306236,-4.02562,15,0.0000000E+000,10,1.23279e-06,-2.39517, , , ,-0.000306236,
2,0,0,1,0,28756.9,0.0012943,0.000894902,-2.38875,15,-4.84806e-05,10,-2.1377e-06,-2.62183, , , ,0.000894902,
2,0,0,1,0,28756.9,0.00279784,0.00247847,-1.14131,15,-8.07153e-05,10,-2.8287e-06,-2.9426,-0.00255716,-23.0724,701.206,0.00247847,
2,0,0,1,0,28756.9,0.00429425,0.0039634,-0.302727,15,-9.3581e-05,10,-1.19983e-06,-3.51895,-0.00831666,-7.09419,498.57,0.0039634,
2,1,0,1,0,28756.9,0.00579065,0.0054762,0.322448,15,-9.2879e-05,10,1.76579e-06,-3.49154,0.017312,3.40804,379.974,0.0054762,
2,1,0,1,0,28756.9,0.0072942,0.00702159,0.823517,15,-8.17447e-05,10,5.7824e-06,-3.08433,0.00408919,14.4283,291.667,0.00702159,
2,1,0,1,0,28757,0.00878347,0.00845655,1.20186,15,-6.26234e-05,10,1.01636e-05,-2.92014,0.010288,5.73485,238.105,0.00845655,
2,1,0,1,0,28757,0.010287,0.0099607,1.51355,15,-3.67899e-05,10,1.50761e-05,-2.82,0.017108,3.44867,192.5,0.0099607,
2,1,0,1,0,28757,0.0117905,0.011472,1.76989,15,-5.58848e-06,10,2.03041e-05,-2.75205,0.0246731,2.39127,159.922,0.011472,
2,1,0,1,0,28757,0.013278,0.0129574,1.98191,15,2.96162e-05,10,2.56804e-05,-2.70292,0.0328652,1.79521,136.633,0.0129574,
2,1,0,1,0,28757,0.0147816,0.0144247,2.16821,15,6.8955e-05,10,3.12759e-05,-2.6639,0.0417247,1.41403,118.111,0.0144247,
2,1,0,1,0,28757,0.0162851,0.0159923,2.33069,15,0.000111616,10,3.72731e-05,-2.63252,0.0519129,1.13652,102.247,0.0159923,
2,1,0,1,0,28757.1,0.0177744,0.0174518,2.47053,15,0.000156579,10,4.31151e-05,-2.60721,0.0635411,0.928533,88.9239,0.0174518,
2,1,0,1,0,28757.1,0.0192779,0.0189893,2.59155,15,0.000204422,10,4.92119e-05,-2.58644,0.0760618,0.775685,78.1961,0.0189893,
2,1,0,1,0,28757.1,0.0207743,0.020442,2.706,15,0.000254247,10,5.53161e-05,-2.56767,0.0846622,0.696887,73.3741,0.020442,
2,1,0,1,0,28757.1,0.0222707,0.0219264,2.81208,15,0.000306149,10,6.16587e-05,-2.55097,0.0991768,0.594897,65.1148,0.0219264,
2,1,0,1,0,28757.1,0.0237743,0.02348,2.9119,15,0.000360232,10,6.83714e-05,-2.53582,0.112371,0.525047,59.4802,0.02347997,
2,1,0,1,0,28757.2,0.0252636,0.0249562,2.99834,15,0.000415421,10,7.4827e-05,-2.52312,0.120663,0.488965,57.1885,0.0249562,
2,1,0,1,0,28757.2,0.0267671,0.0264808,3.08939,15,0.000472842,10,8.18093e-05,-2.51013,0.127692,0.462051,55.6169,0.0264808,
2,1,0,1,0,28757.2,0.0282706,0.0279761,3.17372,15,0.000531897,10,8.87882e-05,-2.49843,0.138344,0.426474,52.7015,0.0279761,
2,1,0,1,0,28757.2,0.0297581,0.0295,3.25213,15,0.000591862,10,9.59378e-05,-2.48783,0.146332,0.403193,51.0501,0.0295,
2,1,0,1,0,28757.2,0.0312617,0.0309605,3.32521,15,0.000653892,10,0.00010295,-2.47818,0.151515,0.3894,50.55,0.0309605,
2,1,0,1,0,28757.3,0.0327652,0.0324541,3.40527,15,0.000717323,10,0.000110515,-2.46785,0.15468,0.381432,50.5798,0.0324541,
2,1,0,1,0,28757.3,0.0342545,0.0338941,3.47523,15,0.000781493,10,0.00011779,-2.45902,0.159766,0.369291,50.0317,0.0338941,
2,1,0,1,0,28757.3,0.035758,0.0354753,3.54693,15,0.000847687,10,0.000125828,-2.45015,0.168733,0.349665,48.3375,0.0354753,
2,1,0,1,0,28757.3,0.0372544,0.0369305,3.61394,15,0.00091492,10,0.000133465,-2.44202,0.172954,0.341131,48.0951,0.0369305,
2,1,0,1,0,28757.3,0.0387508,0.0384185,3.68192,15,0.00098339,10,0.000141454,-2.43393,0.178275,0.330949,47.6394,0.03841852,
2,1,0,1,0,28757.3,0.0402544,0.0399148,3.74975,15,0.00105356,10,0.00014967,-2.426,0.181173,0.325656,47.7447,0.0399148,
2,1,0,1,0,28757.4,0.0417437,0.0414265,3.82794,15,0.00112435,10,0.000158578,-2.41704,0.192796,0.306023,45.6765,0.0414265,
2,1,0,1,0,28757.4,0.0432472,0.0429623,3.89194,15,0.00119719,10,0.000167207,-2.40983,0.200923,0.293645,44.6309,0.0429623,
2,1,0,1,0,28757.4,0.0447507,0.0444239,3.95779,15,0.00127124,10,0.00017582,-2.40255,0.213481,0.276371,42.7157,0.0444239,
2,1,0,1,0,28757.4,0.0462382,0.0459457,4.02114,15,0.00134575,10,0.000184754,-2.39565,0.207237,0.284698,44.7387,0.0459457,
2,1,0,1,0,28757.4,0.0477418,0.0474533,4.09532,15,0.0014223,10,0.000194336,-2.38771,0.217009,0.271878,43.4348,0.0474533,
2,1,0,1,0,28757.5,0.0492453,0.0489482,4.16044,15,0.00150014,10,0.000203646,-2.38086,0.235609,0.250415,40.6254,0.0489482,
2,1,0,1,0,28757.5,0.0507346,0.0504435,4.22242,15,0.00157832,10,0.000212994,-2.37444,0.241087,0.244724,40.3239,0.05044353,
2,1,0,1,0,28757.5,0.0522381,0.0519068,4.289,15,0.00165853,10,0.000222628,-2.36764,0.233934,0.252208,42.1909,0.0519068,
2,1,0,1,0,28757.5,0.0537345,0.053445,4.35806,15,0.00173954,10,0.000232917,-2.36071,0.236275,0.249709,42.392,0.053445,
2,1,0,1,0,28757.5,0.0552309,0.0549417,4.42499,15,0.00182179,10,0.000243116,-2.35409,0.245065,0.240752,41.4101,0.0549417,
2,1,0,1,0,28757.6,0.0567345,0.0564772,4.47512,15,0.00190561,10,0.000252742,-2.3492,0.251713,0.234394,40.958,0.0564772,
2,1,0,1,0,28757.6,0.0582237,0.0578712,4.54136,15,0.00198959,10,0.000262814,-2.34281,0.24492,0.240895,42.6584,0.0578712,
2,1,0,1,0,28757.6,0.0597273,0.0594084,4.59995,15,0.00207564,10,0.000273276,-2.33725,0.245458,0.240367,43.1085,0.0594084,
2,1,0,1,0,28757.6,0.0612308,0.060932,4.65526,15,0.00216287,10,0.000283655,-2.33206,0.271049,0.217673,39.5133,0.060932,
2,1,0,1,0,28757.6,0.0627183,0.0623973,4.71122,15,0.00225028,10,0.000293967,-2.32687,0.269912,0.21859,40.2186,0.0623973,
2,1,0,1,0,28757.6,0.0642218,0.0639151,4.76669,15,0.00233964,10,0.000304663,-2.32178,0.275095,0.214471,39.968,0.0639151,
2,1,0,1,0,28757.7,0.0657254,0.0654308,4.82253,15,0.00243012,10,0.000315542,-2.31672,0.287844,0.204972,38.6185,0.0654308,
2,1,0,1,0,28757.7,0.0672147,0.0669094,4.88698,15,0.00252075,10,0.000326985,-2.31096,0.302625,0.194961,37.1736,0.06690941,
2,1,0,1,0,28757.7,0.0687182,0.0683911,4.94332,15,0.00261338,10,0.000338079,-2.30598,0.331913,0.177757,34.2489,0.0683911,
2,1,0,1,0,28757.7,0.0702146,0.0699107,4.99011,15,0.0027065,10,0.000348862,-2.30189,0.334534,0.176365,34.3672,0.0699107,
2,1,0,1,0,28757.7,0.071711,0.0713755,5.042,15,0.00280057,10,0.000359875,-2.2974,0.34169,0.172671,33.9804,0.0713755,
2,1,0,1,0,28757.8,0.0732146,0.0729253,5.1,15,0.00289616,10,0.000371919,-2.29243,0.36277,0.162637,32.3592,0.0729253,
2,1,0,1,0,28757.8,0.0747038,0.0744036,5.1528,15,0.00299171,10,0.000383387,-2.28796,0.372343,0.158456,31.8258,0.0744036,
2,1,0,1,0,28757.8,0.0762074,0.0759043,5.20079,15,0.00308916,10,0.000394762,-2.28393,0.388851,0.151729,30.7773,0.0759043,
2,1,0,1,0,28757.8,0.0777109,0.0773921,5.24736,15,0.0031875,10,0.000406104,-2.28006,0.362765,0.16264,33.2818,0.0773921,
2,1,0,1,0,28757.8,0.0791984,0.0789119,5.29603,15,0.00328571,10,0.00041792,-2.27605,0.370103,0.159415,32.9135,0.0789119,
2,1,0,1,0,28757.9,0.0807019,0.0803571,5.34217,15,0.00338586,10,0.000429281,-2.27228,0.412547,0.143014,29.765,0.0803571,
2,1,0,1,0,28757.9,0.0822055,0.0818793,5.37933,15,0.00348686,10,0.000440456,-2.26927,0.408026,0.144599,30.3535,0.08187931,
2,1,0,1,0,28757.9,0.0836947,0.0833869,5.42173,15,0.00358749,10,0.000452101,-2.26586,0.421424,0.140001,29.6193,0.0833869,
2,1,0,1,0,28757.9,0.0851983,0.084904,5.46088,15,0.00369002,10,0.000463651,-2.26274,0.428947,0.137546,29.3234,0.084904,
2,1,0,1,0,28757.9,0.0866947,0.0863623,5.50277,15,0.00379282,10,0.000475232,-2.25942,0.466907,0.126363,27.1314,0.0863623,
2,1,0,1,0,28757.9,0.0881911,0.0878864,5.54482,15,0.0038964,10,0.000487314,-2.25611,0.477308,0.12361,26.7422,0.0878864,
2,1,0,1,0,28758,0.0896946,0.0893854,5.58109,15,0.00400122,10,0.000498868,-2.25328,0.463459,0.127304,27.7738,0.0893854,
2,1,0,1,0,28758,0.0911839,0.0908538,5.62307,15,0.0041057,10,0.000510877,-2.25003,0.448543,0.131537,28.8805,0.0908538,
2,1,0,1,0,28758,0.0926857,0.0923756,5.6725,15,0.00421216,10,0.000524001,-2.24623,0.457314,0.129014,28.5551,0.0923756,
2,1,0,1,0,28758,0.0941892,0.0938777,5.71679,15,0.00431946,10,0.00053668,-2.24285,0.453356,0.130141,29.0577,0.0938777,
2,1,0,1,0,28758,0.0956785,0.0953509,5.76351,15,0.00442646,10,0.000549556,-2.23931,0.437294,0.134921,30.3763,0.0953509,
2,1,0,1,0,28758.1,0.097182,0.0968605,5.81941,15,0.00453553,10,0.000563671,-2.23512,0.35983,0.163966,37.2487,0.0968605,
2,1,0,1,0,28758.1,0.0986856,0.0983401,5.87707,15,0.00464563,10,0.000577952,-2.23084,0.347213,0.169925,39.0058,0.0983401,
2,1,0,1,0,28758.1,0.100175,0.0998769,5.94421,15,0.0047557,10,0.00059369,-2.22591,0.332536,0.177425,41.1,0.0998769,
2,1,0,1,0,28758.1,0.101678,0.101349,6.00071,15,0.00486813,10,0.000608169,-2.2218,0.312958,0.188523,44.1734,0.101349,
2,1,0,1,0,28758.1,0.103175,0.102844,6.07133,15,0.00498115,10,0.000624401,-2.21672,0.273982,0.215343,51.0587,0.102844,
2,1,0,1,0,28758.2,0.104671,0.104353,6.14785,15,0.00509555,10,0.000641549,-2.21128,0.260541,0.226452,54.3422,0.104353,
2,1,0,1,0,28758.2,0.106175,0.105859,6.23306,15,0.00521211,10,0.000659826,-2.2053,0.26002,0.226905,55.1433,0.105859,
2,1,0,1,0,28758.2,0.107662,0.107342,6.30573,15,0.00532895,10,0.000676871,-2.20026,0.241989,0.243813,60.0626,0.107342,
2,1,0,1,0,28758.2,0.109166,0.108879,6.39001,15,0.0054485,10,0.000695735,-2.1945,0.237743,0.248167,62.0245,0.108879,
2,1,0,1,0,28758.2,0.110669,0.110377,6.48507,15,0.00556981,10,0.000715805,-2.18809,0.22078,0.267235,67.679,0.110377,
2,1,0,1,0,28758.2,0.112159,0.111864,6.58497,15,0.00569169,10,0.000736619,-2.18145,0.234357,0.251753,64.7119,0.1118638,
2,1,0,1,0,28758.3,0.113662,0.113346,6.68657,15,0.00581673,10,0.000757896,-2.1748,0.241189,0.244622,63.8335,0.113346,
2,1,0,1,0,28758.3,0.115166,0.114821,6.77919,15,0.00594357,10,0.000778391,-2.16882,0.251484,0.234607,62.0991,0.114821,
2,1,0,1,0,28758.3,0.116655,0.116309,6.87722,15,0.00607084,10,0.000799885,-2.16259,0.250726,0.235317,63.1687,0.116309,
2,1,0,1,0,28758.3,0.118158,0.117851,6.97431,15,0.00620132,10,0.00082193,-2.1565,0.265365,0.222336,60.4907,0.117851,
2,1,0,1,0,28758.3,0.119655,0.1193,7.0722,15,0.00633291,10,0.000843717,-2.15045,0.287491,0.205224,56.6017,0.1193,
2,1,0,1,0,28758.4,0.121151,0.120868,7.15563,15,0.0064661,10,0.000864884,-2.14535,0.300291,0.196476,54.8728,0.120868,
2,1,0,1,0,28758.4,0.122655,0.122336,7.24528,15,0.00660163,10,0.00088636,-2.13994,0.297643,0.198224,55.9822,0.122336,
2,1,0,1,0,28758.4,0.124142,0.123808,7.32624,15,0.0067373,10,0.000907047,-2.13512,0.318886,0.185019,52.8195,0.123808,
2,1,0,1,0,28758.4,0.125646,0.125344,7.40276,15,0.00687589,10,0.000927893,-2.13061,0.350846,0.168165,48.489,0.125344,
2,1,0,1,0,28758.4,0.127149,0.126831,7.4633,15,0.00701582,10,0.000946575,-2.12707,0.38105,0.154835,45.0856,0.126831,
2,1,0,1,0,28758.5,0.128639,0.128301,7.53867,15,0.00715549,10,0.00096722,-2.12271,0.381669,0.154584,45.4259,0.128301,
2,1,0,1,0,28758.5,0.130142,0.129843,7.59322,15,0.00729787,10,0.000985924,-2.11957,0.419984,0.140482,41.606,0.129843,
2,1,0,1,0,28758.5,0.131646,0.13133,7.65247,15,0.00744145,10,0.001005,-2.1162,0.455877,0.129421,38.6281,0.13133,
2,1,0,1,0,28758.5,0.133135,0.132836,7.7063,15,0.00758456,10,0.00102367,-2.11315,0.513796,0.114832,34.521,0.132836,
2,1,0,1,0,28758.5,0.134639,0.134322,7.74775,15,0.00773007,10,0.00104069,-2.11082,0.544511,0.108354,32.8127,0.134322,
2,1,0,1,0,28758.5,0.136135,0.135803,7.79624,15,0.00787573,10,0.00105875,-2.10811,0.574347,0.102725,31.2701,0.135803,
2,1,0,1,0,28758.6,0.137631,0.13734,7.84652,15,0.00802228,10,0.00107764,-2.10532,0.704451,0.0837531,25.6309,0.1373399,
2,1,0,1,0,28758.6,0.139135,0.138817,7.88383,15,0.00817037,10,0.00109441,-2.10326,0.793007,0.0744004,22.8667,0.138817,
2,1,0,1,0,28758.6,0.140622,0.140335,7.91081,15,0.00831751,10,0.00111016,-2.10178,1.00489,0.0587131,18.1264,0.1403349,
2,1,0,1,0,28758.6,0.142126,0.141803,7.94067,15,0.00846678,10,0.00112601,-2.10014,1.39667,0.0422432,13.0797,0.141803,
2,1,0,1,0,28758.6,0.143629,0.143273,7.96539,15,0.00861652,10,0.00114123,-2.09879,3.51043,0.0168071,5.21408,0.143273,
2,1,0,1,0,28758.7,0.145119,0.144785,7.96711,15,0.00876487,10,0.00115352,-2.0987,-3.47258,-0.0169903,-5.26968,0.144785,
2,1,0,1,0,28758.7,0.146622,0.146317,7.9455,15,0.00891469,10,0.00116256,-2.09988,-1.12942,-0.0522391,-16.1784,0.146317,
2,1,0,1,0,28758.7,0.148126,0.147801,7.91624,15,0.00906402,10,0.00117003,-2.10148,-0.629501,-0.0937251,-28.8926,0.147801,
2,1,0,1,0,28758.7,0.149615,0.149274,7.86617,15,0.00921098,10,0.00117421,-2.10424,-0.422092,-0.13978,-42.7635,0.149274,
2,1,0,1,0,28758.7,0.151119,0.150818,7.78664,15,0.00935829,10,0.00117437,-2.10865,-0.288133,-0.204766,-61.9648,0.150818,
2,1,0,1,0,28758.8,0.152615,0.152345,7.67192,15,0.00950307,10,0.00116878,-2.1151,-0.220022,-0.268155,-80.0375,0.152345,
2,1,0,1,0,28758.8,0.154111,0.153787,7.53822,15,0.00964548,10,0.00115928,-2.12273,-0.177183,-0.332989,-97.6447,0.153787,
2,1,0,1,0,28758.8,0.155615,0.155296,7.37152,15,0.00978587,10,0.00114477,-2.13244,-0.152125,-0.387838,-111.247,0.155296,
2,1,0,1,0,28758.8,0.157103,0.156785,7.19226,15,0.00992163,10,0.00112764,-2.14313,-0.126305,-0.467125,-130.628,0.156785,
2,1,0,1,0,28758.8,0.158606,0.158324,6.97935,15,0.0100551,10,0.001105,-2.15618,-0.11184,-0.527541,-143.38,0.158324,
2,1,0,1,0,28758.8,0.16011,0.15981,6.74715,15,0.0101844,10,0.00107826,-2.17088,-0.0987193,-0.597654,-157.249,0.15981,
2,1,0,1,0,28758.9,0.161599,0.161259,6.51417,15,0.0103081,10,0.00105047,-2.18614,-0.0950769,-0.62055,-157.637,0.161259,
2,1,0,1,0,28758.9,0.163102,0.162734,6.27591,15,0.0104285,10,0.00102131,-2.20232,-0.0880625,-0.669978,-163.94,0.162734,
2,1,0,1,0,28758.9,0.164606,0.164275,6.03659,15,0.0105445,10,0.00099166,-2.21921,-0.0873146,-0.675718,-159.222,0.164275,
2,1,0,1,0,28758.9,0.166095,0.165771,5.80396,15,0.0106548,10,0.00096213,-2.23628,-0.0870102,-0.678082,-153.795,0.165771,
2,1,0,1,0,28758.9,0.167599,0.167252,5.5859,15,0.010762,10,0.000934254,-2.25291,-0.0911274,-0.647445,-141.296,0.167252,
2,1,0,1,0,28759,0.169095,0.168758,5.38878,15,0.0108647,10,0.000909399,-2.26851,-0.0937125,-0.629585,-132.495,0.168758,
2,1,0,1,0,28759,0.170592,0.170291,5.19751,15,0.0109638,10,0.000885088,-2.2842,-0.0963984,-0.612044,-124.201,0.170291,
2,1,0,1,0,28759,0.172095,0.171795,5.0154,15,0.0110599,10,0.000861619,-2.29969,-0.103157,-0.571946,-112.221,0.171795,
2,1,0,1,0,28759,0.173583,0.173261,4.85557,15,0.0111518,10,0.000841281,-2.31376,-0.113793,-0.518484,-98.441,0.173261,
2,1,0,1,0,28759,0.175086,0.174727,4.71254,15,0.0112419,10,0.00082341,-2.32674,-0.120203,-0.490838,-90.3742,0.1747272,
2,1,0,1,0,28759.1,0.17659,0.176294,4.58057,15,0.0113294,10,0.000807526,-2.33908,-0.130422,-0.452379,-80.9444,0.176294,
2,1,0,1,0,28759.1,0.178079,0.177787,4.46078,15,0.0114137,10,0.000793068,-2.35059,-0.139458,-0.423068,-73.7706,0.177787,
2,1,0,1,0,28759.1,0.179582,0.179295,4.34752,15,0.0114967,10,0.000779488,-2.36176,-0.147138,-0.400984,-68.2905,0.179295,
2,1,0,1,0,28759.1,0.181086,0.180763,4.24939,15,0.0115777,10,0.000768133,-2.37167,-0.16333,-0.361231,-60.0752,0.180763,
2,1,0,1,0,28759.1,0.182575,0.182224,4.16503,15,0.0116563,10,0.00075897,-2.38038,-0.17341,-0.340235,-55.3703,0.182224,
2,1,0,1,0,28759.1,0.184079,0.183761,4.08417,15,0.0117341,10,0.00075051,-2.3889,-0.183398,-0.321704,-51.3725,0.1837606,
2,1,0,1,0,28759.2,0.185582,0.185275,4.00777,15,0.0118104,10,0.000742538,-2.3971,-0.194384,-0.303523,-47.6071,0.185275,
2,1,0,1,0,28759.2,0.18707,0.186773,3.9423,15,0.0118846,10,0.000736315,-2.40425,-0.214524,-0.275028,-42.395,0.186773,
2,1,0,1,0,28759.2,0.188573,0.18824,3.88359,15,0.0119584,10,0.000731047,-2.41077,-0.221049,-0.266909,-40.5082,0.18824,
2,1,0,1,0,28759.2,0.19007,0.189775,3.83406,15,0.0120308,10,0.000727607,-2.41634,-0.244171,-0.241634,-36.1535,0.189775,
2,1,0,1,0,28759.2,0.191566,0.191246,3.77791,15,0.0121021,10,0.000722509,-2.42275,-0.24482,-0.240993,-35.5734,0.1912459,
2,1,0,1,0,28759.3,0.19307,0.192745,3.73486,15,0.0121729,10,0.000719875,-2.42773,-0.298441,-0.197694,-28.8296,0.192745,
2,1,0,1,0,28759.3,0.194559,0.194253,3.69574,15,0.0122421,10,0.000717908,-2.4323,-0.326575,-0.180663,-26.0437,0.194253,
2,1,0,1,0,28759.3,0.196063,0.195778,3.65222,15,0.0123114,10,0.000715027,-2.43744,-0.32084,-0.183893,-26.2293,0.195778,
2,1,0,1,0,28759.3,0.197566,0.197264,3.61373,15,0.0123799,10,0.00071286,-2.44204,-0.384456,-0.153464,-21.675,0.197264,
2,1,0,1,0,28759.3,0.199055,0.198755,3.58782,15,0.012447,10,0.000713098,-2.44517,-0.416535,-0.141645,-19.8041,0.198755,
2,1,0,1,0,28759.4,0.200559,0.200252,3.55239,15,0.0125143,10,0.000711373,-2.44948,-0.492722,-0.119743,-16.5938,0.200252,
2,1,0,1,0,28759.4,0.202062,0.201744,3.52263,15,0.012581,10,0.000710669,-2.45313,-0.457408,-0.128988,-17.7254,0.201744,
2,1,0,1,0,28759.4,0.20355,0.203249,3.4892,15,0.0126464,10,0.000709177,-2.45727,-0.492395,-0.119822,-16.3568,0.2032491,
2,1,0,1,0,28759.4,0.205053,0.204718,3.46679,15,0.0127121,10,0.000709715,-2.46007,-0.608973,-0.0968844,-13.1511,0.204718,
2,1,0,1,0,28759.4,0.20655,0.206235,3.44547,15,0.012777,10,0.000710575,-2.46275,-0.710653,-0.0830223,-11.1787,0.206235,
2,1,0,1,0,28759.4,0.208046,0.207724,3.43234,15,0.0128416,10,0.000712979,-2.46441,-0.591446,-0.0997554,-13.3471,0.207724,
2,1,0,1,0,28759.5,0.20955,0.209261,3.40352,15,0.0129061,10,0.000712224,-2.46807,-0.507788,-0.11619,-15.4711,0.2092609,
2,1,0,1,0,28759.5,0.211039,0.210717,3.39157,15,0.0129695,10,0.000714662,-2.4696,-0.513418,-0.114916,-15.2147,0.210717,
2,1,0,1,0,28759.5,0.212543,0.212247,3.37053,15,0.0130333,10,0.000715385,-2.4723,-0.642282,-0.0918599,-12.0913,0.212247,
2,1,0,1,0,28759.5,0.214046,0.213697,3.3592,15,0.0130967,10,0.000717852,-2.47376,-0.628053,-0.0939411,-12.3041,0.213697,
2,1,0,1,0,28759.5,0.215535,0.215199,3.34454,15,0.0131592,10,0.000719743,-2.47566,-0.654425,-0.0901554,-11.7576,0.215199,
2,1,0,1,0,28759.6,0.217039,0.216712,3.3209,15,0.0132221,10,0.000719679,-2.47874,-0.754071,-0.078242,-10.161,0.216712,
2,1,0,1,0,28759.6,0.218543,0.218248,3.31539,15,0.0132846,10,0.000723579,-2.47946,-1.04022,-0.0567189,-7.33391,0.218248,
2,1,0,1,0,28759.6,0.22003,0.219782,3.30466,15,0.0133463,10,0.000726305,-2.48087,-1.07194,-0.0550402,-7.08628,0.219782,
2,1,0,1,0,28759.6,0.221534,0.22125,3.2898,15,0.0134085,10,0.00072787,-2.48283,-0.977194,-0.0603769,-7.73552,0.22125,
2,1,0,1,0,28759.6,0.22303,0.222766,3.27274,15,0.01347,10,0.000729055,-2.48509,-1.29088,-0.0457051,-5.84025,0.222766,
2,1,0,1,0,28759.7,0.224526,0.224206,3.26623,15,0.0135313,10,0.000732307,-2.48595,-1.36382,-0.043261,-5.51342,0.224206,
2,1,0,1,0,28759.7,0.22603,0.225762,3.25114,15,0.0135928,10,0.000733983,-2.48796,-1.46389,-0.0403037,-5.1217,0.225762,
2,1,0,1,0,28759.7,0.227519,0.227261,3.24376,15,0.0136534,10,0.00073718,-2.48895,-1.12589,-0.0524029,-6.62659,0.227261,
2,1,0,1,0,28759.7,0.229023,0.228755,3.23266,15,0.0137145,10,0.000739489,-2.49044,-1.14088,-0.0517144,-6.52842,0.228755,
2,1,0,1,0,28759.7,0.230526,0.230219,3.21734,15,0.0137754,10,0.000740693,-2.4925,-1.28611,-0.0458747,-5.7759,0.2302188,
2,1,0,1,0,28759.7,0.232016,0.231696,3.21716,15,0.0138355,10,0.000745402,-2.49253,-1.37899,-0.042785,-5.37175,0.231696,
2,1,0,1,0,28759.8,0.233519,0.23321,3.21113,15,0.0138961,10,0.000748868,-2.49334,-0.917021,-0.0643388,-8.05165,0.23321,
2,1,0,1,0,28759.8,0.235023,0.234753,3.19935,15,0.0139566,10,0.000751056,-2.49494,-1.00398,-0.0587659,-7.3363,0.234753,
2,1,0,1,0,28759.8,0.23651,0.236178,3.18892,15,0.0140162,10,0.000753154,-2.49636,-1.0867,-0.0542929,-6.76141,0.236178,
2,1,0,1,0,28759.8,0.238014,0.237686,3.18037,15,0.0140763,10,0.00075593,-2.49752,-1.96872,-0.0299687,-3.72318,0.237686,
2,1,0,1,0,28759.8,0.23951,0.239179,3.17884,15,0.014136,10,0.000760313,-2.49773,-1.72941,-0.0341157,-4.22696,0.239179,
2,1,0,1,0,28759.9,0.241006,0.240708,3.17468,15,0.0141956,10,0.000764171,-2.4983,-1.10574,-0.0533581,-6.60396,0.240708,
2,1,0,1,0,28759.9,0.24251,0.242219,3.15923,15,0.0142553,10,0.000765226,-2.50042,-1.5292,-0.0385823,-4.76461,0.242219,
2,1,0,1,0,28759.9,0.243999,0.24371,3.15862,15,0.0143143,10,0.000769787,-2.5005,-4.14972,-0.0142178,-1.753,0.24371,
2,1,0,1,0,28759.9,0.245503,0.245176,3.15652,15,0.0143738,10,0.000773903,-2.50079,-2.66941,-0.0221023,-2.71739,0.245176,
2,1,0,1,0,28759.9,0.247006,0.246697,3.14812,15,0.0144332,10,0.000776632,-2.50195,-2.13357,-0.0276532,-3.39199,0.246697,
2,1,0,1,0,28759.9,0.248496,0.24816,3.13613,15,0.0144919,10,0.000778264,-2.50361,-3.76704,-0.0156622,-1.92053,0.24816,
2,1,0,1,0,28760,0.249999,0.249692,3.1313,15,0.014551,10,0.000781861,-2.50428,-2.2246,-0.0265216,-3.24248,0.249692,
2,1,0,1,0,28760,0.251503,0.251199,3.1244,15,0.01461,10,0.000784847,-2.50523,-4.47712,-0.0131781,-1.60811,0.251199,
2,1,0,1,0,28760,0.25299,0.252665,3.11885,15,0.0146684,10,0.000788027,-2.50601,-2.29048,-0.0257588,-3.1373,0.252665,
2,1,0,1,0,28760,0.254494,0.25419,3.11445,15,0.0147272,10,0.000791662,-2.50662,-2.53587,-0.0232662,-2.82786,0.25419,
2,1,0,1,0,28760,0.25599,0.255707,3.10326,15,0.0147856,10,0.000793525,-2.50818,-1.38032,-0.0427436,-5.18475,0.255707,
2,1,0,1,0,28760.1,0.257487,0.257173,3.104,15,0.0148439,10,0.000798264,-2.50808,-1.53737,-0.0383773,-4.65007,0.257173,
2,1,0,1,0,28760.1,0.25899,0.258721,3.10254,15,0.0149025,10,0.000802693,-2.50828,-1.42678,-0.0413517,-5.00104,0.258721,
2,1,0,1,0,28760.1,0.260479,0.260202,3.0947,15,0.0149604,10,0.000805246,-2.50938,-1.1105,-0.0531291,-6.41604,0.260202,
2,1,0,1,0,28760.1,0.261983,0.26171,3.08975,15,0.0150187,10,0.00080862,-2.51008,-1.31402,-0.0449004,-5.41261,0.26171,
2,1,0,1,0,28760.1,0.263486,0.263144,3.08782,15,0.0150769,10,0.000812542,-2.51035,-5.02302,-0.0117459,-1.41337,0.263144,
2,1,0,1,0,28760.2,0.264974,0.264638,3.08001,15,0.0151344,10,0.000815088,-2.51145,-2.23502,-0.026398,-3.17188,0.264638,
2,1,0,1,0,28760.2,0.266477,0.266168,3.07791,15,0.0151925,10,0.000819241,-2.51174,-1.86411,-0.0316504,-3.79692,0.2661677,
2,1,0,1,0,28760.2,0.267981,0.267686,3.06694,15,0.0152505,10,0.000820977,-2.51329,-1.83827,-0.0320955,-3.84118,0.267686,
2,1,0,1,0,28760.2,0.26947,0.269197,3.0664,15,0.0153077,10,0.000825466,-2.51337,-4.77009,-0.0123687,-1.48001,0.269197,
2,1,0,1,0,28760.2,0.270974,0.270677,3.06245,15,0.0153654,10,0.000828936,-2.51393,-7.73985,-0.00762289,-0.909443,0.270677,
2,1,0,1,0,28760.2,0.27247,0.272205,3.0574,15,0.0154229,10,0.00083224,-2.51465,-4.19444,-0.0140662,-1.67494,0.272205,
2,1,0,1,0,28760.3,0.273967,0.273677,3.04587,15,0.0154802,10,0.000833587,-2.51629,-2.86056,-0.0206253,-2.45415,0.273677,
2,1,0,1,0,28760.3,0.27547,0.275176,3.0331,15,0.0155376,10,0.000834636,-2.51811,-1.52481,-0.0386933,-4.59646,0.275176,
2,1,0,1,0,28760.3,0.276959,0.276637,3.03333,15,0.0155944,10,0.000839131,-2.51808,-2.18181,-0.0270418,-3.20727,0.276637,
2,1,0,1,0,28760.3,0.278463,0.278183,3.03161,15,0.0156517,10,0.000843344,-2.51833,-1.71301,-0.0344424,-4.07685,0.278183,
2,1,0,1,0,28760.3,0.279967,0.279667,3.02482,15,0.0157089,10,0.00084594,-2.5193,-1.46116,-0.0403789,-4.77548,0.279667,
2,1,0,1,0,28760.4,0.281454,0.281157,3.01951,15,0.0157653,10,0.000848955,-2.52006,-1.36035,-0.0433712,-5.11903,0.281157,
2,1,0,1,0,28760.4,0.282958,0.282677,3.01774,15,0.0158223,10,0.000853045,-2.52032,-1.72005,-0.0343013,-4.04066,0.282677,
2,1,0,1,0,28760.4,0.284461,0.284202,3.0157,15,0.0158792,10,0.000857067,-2.52061,-1.32433,-0.0445507,-5.23777,0.284202,
2,1,0,1,0,28760.4,0.28595,0.285638,3.0093,15,0.0159354,10,0.00085957,-2.52153,-1.43828,-0.0410211,-4.81679,0.285638,
2,1,0,1,0,28760.4,0.287454,0.287119,3.00138,15,0.0159921,10,0.000861753,-2.52268,-1.32252,-0.0446118,-5.2194,0.287119,
2,1,0,1,0,28760.5,0.28895,0.288635,3.00001,15,0.0160484,10,0.000865907,-2.52288,-3.10374,-0.0190093,-2.22183,0.2886346,
2,1,0,1,0,28760.5,0.290447,0.290139,2.99528,15,0.0161045,10,0.000869047,-2.52356,-2.02365,-0.0291552,-3.40427,0.290139,
2,1,0,1,0,28760.5,0.29195,0.291667,2.98956,15,0.016161,10,0.000871954,-2.52439,-2.24616,-0.0262671,-3.0615,0.291667,
2,1,0,1,0,28760.5,0.29344,0.293122,2.97913,15,0.0162167,10,0.000873248,-2.52591,-2.11459,-0.0279014,-3.24893,0.2931217,
2,1,0,1,0,28760.5,0.294943,0.294682,2.97416,15,0.0162728,10,0.000876431,-2.52664,-2.1923,-0.0269124,-3.12577,0.294682,
2,1,0,1,0,28760.5,0.296447,0.296164,2.96965,15,0.0163289,10,0.000879503,-2.5273,-8.68506,-0.00679328,-0.787049,0.296164,
2,1,0,1,0,28760.6,0.297934,0.297666,2.96434,15,0.0163844,10,0.000882383,-2.52807,-3.24837,-0.0181629,-2.10258,0.297666,
2,1,0,1,0,28760.6,0.299438,0.299149,2.95686,15,0.0164403,10,0.000884543,-2.52917,-0.0306733,-1.9235,-204.892,0.299149,
2,1,0,1,0,28760.6,0.300012,0.299785,2.96501,15,0.0164611,10,0.000888864,-2.52797,0.00155829,37.8621,2788.35,0.299785,
2,1,0,1,0,28760.6,0.298737,0.298465,1.45072,15,0.0164939,10,0.000432989,-2.83842,0.00358858,16.441,800.259,0.298465,
2,1,0,1,0,28760.6,0.29724,0.296918,0.571625,15,0.0165118,10,0.000169726,-3.24289,0.00291242,20.2581,484.957,0.296918,
2,1,0,1,0,28760.6,0.295744,0.295425,0.043503,15,0.016517,10,1.28519e-05,-4.36148,0.0119961,4.91827,298.748,0.295425,
2,0,0,1,0,28760.7,0.29424,0.293915,-0.291987,15,0.0165143,10,-8.58194e-05,-3.53464,-0.00829335,-7.11414,192.989,0.293915,
2,0,0,1,0,28760.7,0.292751,0.292467,-0.523236,15,0.0165064,10,-0.000153029,-3.2813,-0.00685563,-8.60607,137.175,0.292467,
2,0,0,1,0,28760.7,0.291248,0.290939,-0.697934,15,0.0164947,10,-0.000203056,-3.15619,-0.0142727,-4.13376,103.033,0.290939,
2,0,0,1,0,28760.7,0.289744,0.289386,-0.832938,15,0.0164801,10,-0.000241041,-3.07939,-0.0222787,-2.64827,81.9495,0.289386,
2,0,0,1,0,28760.7,0.288257,0.28796,-0.929989,15,0.0164635,10,-0.0002678,-3.03152,-0.0323938,-1.82134,64.6765,0.28796,
2,0,0,1,0,28760.8,0.286753,0.286387,-1.02006,15,0.0164449,10,-0.000292133,-2.99137,-0.0413837,-1.42568,55.8606,0.286387,
2,0,0,1,0,28760.8,0.285249,0.28492,-1.09213,15,0.0164248,10,-0.000311171,-2.96172,-0.0515347,-1.14486,48.5279,0.28492,
2,0,0,1,0,28760.8,0.28376,0.283462,-1.15543,15,0.0164036,10,-0.00032752,-2.93726,-0.0625405,-0.943389,42.4498,0.283462,
2,0,0,1,0,28760.8,0.282257,0.281921,-1.21887,15,0.016381,10,-0.000343625,-2.91404,-0.0765664,-0.770573,36.4534,0.281921,
2,0,0,1,0,28760.8,0.28076,0.280448,-1.26781,15,0.0163574,10,-0.000355554,-2.89695,-0.0873491,-0.675451,33.4577,0.280448,
2,0,0,1,0,28760.9,0.279264,0.278932,-1.31816,15,0.0163331,10,-0.000367675,-2.88003,-0.110461,-0.534123,27.459,0.278932,
2,0,0,1,0,28760.9,0.27776,0.277476,-1.35845,15,0.0163076,10,-0.000376937,-2.86696,-0.11871,-0.497008,26.3623,0.277476,
2,0,0,1,0,28760.9,0.276271,0.275967,-1.40308,15,0.0162817,10,-0.000387203,-2.85292,-0.128921,-0.457644,24.9811,0.275967,
2,0,0,1,0,28760.9,0.274767,0.274438,-1.44422,15,0.0162548,10,-0.000396349,-2.84037,-0.150949,-0.39086,21.9756,0.274438,
2,0,0,1,0,28760.9,0.273264,0.27296,-1.47904,15,0.0162272,10,-0.000403718,-2.83002,-0.151522,-0.389383,22.3918,0.27296,
2,0,0,1,0,28760.9,0.271776,0.271426,-1.51346,15,0.0161992,10,-0.000410792,-2.82003,-0.146683,-0.402229,23.6922,0.271426,
2,0,0,1,0,28761,0.270273,0.269954,-1.55111,15,0.0161703,10,-0.000418728,-2.80936,-0.16631,-0.354759,21.4108,0.269954,
2,0,0,1,0,28761,0.268769,0.26847,-1.5763,15,0.0161407,10,-0.000423189,-2.80236,-0.169024,-0.349063,21.4389,0.26847,
2,0,0,1,0,28761,0.26728,0.266963,-1.59976,15,0.0161109,10,-0.000427077,-2.79595,-0.191362,-0.308315,19.3063,0.266963,
2,0,0,1,0,28761,0.265777,0.265455,-1.63342,15,0.0160803,10,-0.000433601,-2.7869,-0.191731,-0.307722,19.6346,0.265455,
2,0,0,1,0,28761,0.26428,0.263954,-1.665,15,0.0160493,10,-0.000439483,-2.77859,-0.188981,-0.312201,20.2331,0.263954,
2,0,0,1,0,28761.1,0.262784,0.262469,-1.68594,15,0.0160178,10,-0.000442506,-2.77316,-0.225881,-0.261199,17.1676,0.2624692,
2,0,0,1,0,28761.1,0.26128,0.260939,-1.70948,15,0.0159856,10,-0.000446069,-2.76714,-0.239072,-0.246788,16.4994,0.2609385,
2,0,0,1,0,28761.1,0.259791,0.259516,-1.73333,15,0.0159533,10,-0.000449826,-2.76112,-0.217918,-0.270744,18.3751,0.259516,
2,0,0,1,0,28761.1,0.258287,0.257979,-1.75819,15,0.0159203,10,-0.000453576,-2.75493,-0.235845,-0.250164,17.1994,0.257979,
2,0,0,1,0,28761.1,0.256786,0.256469,-1.78568,15,0.0158867,10,-0.000457971,-2.7482,-0.272725,-0.216335,15.051,0.256469,
2,0,0,1,0,28761.2,0.255296,0.255001,-1.80663,15,0.015853,10,-0.000460692,-2.74313,-0.347489,-0.169789,11.9934,0.255001,
2,0,0,1,0,28761.2,0.253793,0.25348,-1.82481,15,0.0158187,10,-0.000462554,-2.73878,-0.341016,-0.173012,12.3413,0.25348,
2,0,0,1,0,28761.2,0.252289,0.251951,-1.8524,15,0.0157839,10,-0.000466714,-2.73227,-0.289073,-0.204101,14.7299,0.251951,
2,0,0,1,0,28761.2,0.2508,0.250525,-1.87479,15,0.0157491,10,-0.000469681,-2.72705,-0.349215,-0.16895,12.3398,0.250525,
2,0,0,1,0,28761.2,0.249296,0.248968,-1.8945,15,0.0157135,10,-0.000471669,-2.72251,-0.430686,-0.136991,10.1087,0.248968,
2,0,0,1,0,28761.2,0.2478,0.247472,-1.91081,15,0.0156778,10,-0.000472871,-2.71878,-0.376856,-0.156559,11.6829,0.247472,
2,0,0,1,0,28761.3,0.246304,0.246007,-1.9331,15,0.0156417,10,-0.000475556,-2.71375,-0.302471,-0.19506,14.7035,0.246007,
2,0,0,1,0,28761.3,0.2448,0.244457,-1.95731,15,0.015605,10,-0.000478478,-2.70834,-0.311334,-0.189507,14.4397,0.244457,
2,0,0,1,0,28761.3,0.243313,0.242927,-1.97452,15,0.0155683,10,-0.000479664,-2.70454,-0.342592,-0.172217,13.232,0.242927,
2,0,0,1,0,28761.3,0.241809,0.241489,-1.98642,15,0.0155308,10,-0.000479699,-2.70193,-0.341425,-0.172805,13.427,0.241489,
2,0,0,1,0,28761.3,0.240306,0.24001,-2.00916,15,0.0154931,10,-0.000482219,-2.69699,-0.35275,-0.167257,13.1129,0.24001,
2,0,0,1,0,28761.4,0.238816,0.238505,-2.02607,15,0.0154554,10,-0.000483228,-2.69335,-0.352383,-0.167432,13.2294,0.238505,
2,0,0,1,0,28761.4,0.237313,0.236947,-2.04168,15,0.0154169,10,-0.000483769,-2.69001,-0.435078,-0.135608,10.7972,0.236947,
2,0,0,1,0,28761.4,0.235809,0.235507,-2.05583,15,0.0153781,10,-0.000484163,-2.68701,-0.401038,-0.147118,11.8393,0.235507,
2,0,0,1,0,28761.4,0.23432,0.233997,-2.07648,15,0.0153395,10,-0.00048589,-2.68267,-0.419471,-0.140653,11.4197,0.233997,
2,0,0,1,0,28761.4,0.232816,0.232466,-2.09076,15,0.0153001,10,-0.000486031,-2.67969,-0.431734,-0.136658,11.1757,0.232466,
2,0,0,1,0,28761.5,0.23132,0.231011,-2.11209,15,0.0152605,10,-0.000487916,-2.67529,-0.455232,-0.129604,10.6776,0.231011,
2,0,0,1,0,28761.5,0.229824,0.229473,-2.13407,15,0.0152207,10,-0.000489711,-2.67079,-0.553239,-0.106645,8.84894,0.229473,
2,0,0,1,0,28761.5,0.22832,0.228007,-2.14464,15,0.0151803,10,-0.000488993,-2.66865,-0.536307,-0.110012,9.21564,0.228007,
2,0,0,1,0,28761.5,0.226833,0.226504,-2.16241,15,0.0151401,10,-0.000489793,-2.66506,-0.486904,-0.121174,10.2123,0.226504,
2,0,0,1,0,28761.5,0.225329,0.225038,-2.18235,15,0.015099,10,-0.000491112,-2.66107,-0.512793,-0.115056,9.79597,0.225038,
2,0,0,1,0,28761.5,0.223825,0.223509,-2.20085,15,0.0150577,10,-0.00049191,-2.65741,-0.606676,-0.0972512,8.33128,0.2235086,
2,0,0,1,0,28761.6,0.222336,0.222004,-2.2107,15,0.0150165,10,-0.000490783,-2.65547,-0.509166,-0.115876,10.0162,0.222004,
2,0,0,1,0,28761.6,0.220833,0.22054,-2.23026,15,0.0149747,10,-0.000491861,-2.65164,-0.427559,-0.137993,11.9966,0.22054,
2,0,0,1,0,28761.6,0.219329,0.219001,-2.25101,15,0.0149324,10,-0.000492973,-2.64762,-0.406377,-0.145185,12.7208,0.219001,
2,0,0,1,0,28761.6,0.21784,0.217515,-2.26249,15,0.0148903,10,-0.000492127,-2.64541,-0.455487,-0.129532,11.4055,0.217515,
2,0,0,1,0,28761.6,0.216336,0.216068,-2.27453,15,0.0148474,10,-0.000491452,-2.64311,-0.446632,-0.1321,11.7461,0.216068,
2,0,0,1,0,28761.7,0.21484,0.21448,-2.29094,15,0.0148046,10,-0.000491361,-2.63999,-0.40921,-0.14418,12.9129,0.21448,
2,0,0,1,0,28761.7,0.213343,0.213024,-2.31045,15,0.0147614,10,-0.00049218,-2.6363,-0.417929,-0.141172,12.7054,0.2130235,
2,0,0,1,0,28761.7,0.21184,0.21153,-2.32345,15,0.0147176,10,-0.00049148,-2.63387,-0.499387,-0.118145,10.6918,0.21153,
2,0,0,1,0,28761.7,0.210352,0.210003,-2.33987,15,0.014674,10,-0.000491378,-2.63081,-0.561831,-0.105014,9.59713,0.2100026,
2,0,0,1,0,28761.7,0.208849,0.208502,-2.35158,15,0.0146297,10,-0.000490309,-2.62864,-0.479131,-0.12314,11.3424,0.208502,
2,0,0,1,0,28761.8,0.207345,0.207012,-2.36514,15,0.0145851,10,-0.000489612,-2.62614,-0.50389,-0.117089,10.8473,0.207012,
2,0,0,1,0,28761.8,0.205856,0.205505,-2.38927,15,0.0145405,10,-0.000491007,-2.62174,-0.595258,-0.0991166,9.23815,0.205505,
2,0,0,1,0,28761.8,0.204353,0.204037,-2.40643,15,0.0144952,10,-0.000491001,-2.61863,-0.709921,-0.0831078,7.81045,0.204037,
2,0,0,1,0,28761.8,0.202849,0.202541,-2.41828,15,0.0144496,10,-0.000489801,-2.61649,-0.621771,-0.0948902,8.96226,0.2025408,
2,0,0,1,0,28761.8,0.20136,0.201077,-2.44394,15,0.0144043,10,-0.00049142,-2.61191,-0.436823,-0.135066,12.8582,0.201077,
2,0,0,1,0,28761.8,0.199856,0.199509,-2.45928,15,0.0143581,10,-0.00049065,-2.60919,-0.591864,-0.0996851,9.55063,0.199509,
2,0,0,1,0,28761.9,0.19836,0.198062,-2.47671,15,0.0143118,10,-0.000490542,-2.60613,-0.618772,-0.0953502,9.19376,0.198062,
2,0,0,1,0,28761.9,0.196863,0.196554,-2.48772,15,0.0142652,10,-0.000488971,-2.6042,-0.455783,-0.129448,12.5903,0.196554,
2,0,0,1,0,28761.9,0.19536,0.195052,-2.51111,15,0.0142181,10,-0.000489799,-2.60013,-0.439537,-0.134232,13.1298,0.195052,
2,0,0,1,0,28761.9,0.193872,0.19352,-2.52951,15,0.0141711,10,-0.00048951,-2.59696,-0.393198,-0.150052,14.7763,0.19352,
2,0,0,1,0,28761.9,0.192369,0.19202,-2.54058,15,0.0141233,10,-0.00048784,-2.59507,-0.409507,-0.144076,14.294,0.19202,
2,0,0,1,0,28762,0.190865,0.19053,-2.55535,15,0.0140751,10,-0.00048687,-2.59255,-0.461711,-0.127786,12.7687,0.19053,
2,0,0,1,0,28762,0.189376,0.189086,-2.57059,15,0.0140272,10,-0.000486064,-2.58997,-0.446606,-0.132107,13.2981,0.1890863,
2,0,0,1,0,28762,0.187872,0.187563,-2.59402,15,0.0139784,10,-0.000486544,-2.58603,-0.437722,-0.134789,13.6549,0.187563,
2,0,0,1,0,28762,0.186369,0.186057,-2.61315,15,0.0139291,10,-0.000486195,-2.58284,-0.476447,-0.123833,12.656,0.186057,
2,0,0,1,0,28762,0.18488,0.184538,-2.6351,15,0.0138801,10,-0.000486275,-2.5792,-0.500864,-0.117796,12.1294,0.184538,
2,0,0,1,0,28762.1,0.183376,0.183033,-2.6527,15,0.0138301,10,-0.000485531,-2.57631,-0.451671,-0.130626,13.5546,0.183033,
2,0,0,1,0,28762.1,0.18188,0.181569,-2.68107,15,0.01378,10,-0.000486799,-2.57169,-0.442827,-0.133235,13.9415,0.181569,
2,0,0,1,0,28762.1,0.180383,0.180057,-2.70691,15,0.0137295,10,-0.000487399,-2.56753,-0.466409,-0.126498,13.3444,0.180057,
2,0,0,1,0,28762.1,0.17888,0.178549,-2.73301,15,0.0136782,10,-0.000487976,-2.56336,-0.453781,-0.130019,13.816,0.178549,
2,0,0,1,0,28762.1,0.177392,0.177029,-2.74909,15,0.0136272,10,-0.00048667,-2.56081,-0.421018,-0.140136,15.0423,0.177029,
2,0,0,1,0,28762.1,0.175889,0.17555,-2.77334,15,0.0135751,10,-0.000486859,-2.557,-0.357096,-0.165222,17.8674,0.17555,
2,0,0,1,0,28762.2,0.174385,0.174061,-2.79834,15,0.0135226,10,-0.000487082,-2.5531,-0.343535,-0.171744,18.7545,0.174061,
2,0,0,1,0,28762.2,0.172896,0.172565,-2.83033,15,0.0134701,10,-0.000488416,-2.54816,-0.3504,-0.168379,18.572,0.172565,
2,0,0,1,0,28762.2,0.171392,0.171009,-2.84773,15,0.0134165,10,-0.000486986,-2.5455,-0.323884,-0.182164,20.2953,0.171009,
2,0,0,1,0,28762.2,0.169889,0.169589,-2.88376,15,0.0133624,10,-0.000489055,-2.54004,-0.291449,-0.202437,22.8031,0.1695893,
2,0,0,1,0,28762.2,0.1684,0.168049,-2.92003,15,0.0133083,10,-0.000490707,-2.53461,-0.277686,-0.21247,24.1766,0.168049,
2,0,0,1,0,28762.3,0.166896,0.166552,-2.95029,15,0.013253,10,-0.000491378,-2.53013,-0.304023,-0.194064,22.3357,0.166552,
2,0,0,1,0,28762.3,0.165392,0.165062,-2.97796,15,0.013197,10,-0.000491549,-2.52608,-0.282999,-0.208481,24.2933,0.165062,
2,0,0,1,0,28762.3,0.163905,0.163585,-3.00859,15,0.013141,10,-0.000492161,-2.52164,-0.269149,-0.219209,25.8721,0.163585,
2,0,0,1,0,28762.3,0.162401,0.162098,-3.05692,15,0.0130837,10,-0.000495521,-2.51472,-0.256745,-0.2298,27.4513,0.1620982,
2,0,0,1,0,28762.3,0.160905,0.160603,-3.10012,15,0.0130259,10,-0.000497888,-2.50862,-0.256577,-0.22995,27.8458,0.160603,
2,0,0,1,0,28762.4,0.159409,0.159098,-3.15066,15,0.0129672,10,-0.000501264,-2.5016,-0.238749,-0.247121,30.4119,0.159098,
2,0,0,1,0,28762.4,0.157905,0.157606,-3.20013,15,0.0129074,10,-0.000504361,-2.49483,-0.228224,-0.258518,32.3263,0.157606,
2,0,0,1,0,28762.4,0.156416,0.156094,-3.25514,15,0.0128472,10,-0.000508107,-2.48743,-0.199585,-0.295614,37.5742,0.156094,
2,0,0,1,0,28762.4,0.154912,0.154603,-3.32112,15,0.0127852,10,-0.000513456,-2.47872,-0.188626,-0.312788,40.5103,0.154603,
2,0,0,1,0,28762.4,0.153409,0.153079,-3.38177,15,0.012722,10,-0.000517678,-2.47086,-0.182955,-0.322483,42.5992,0.153079,
2,0,0,1,0,28762.4,0.151919,0.151616,-3.44868,15,0.0126584,10,-0.000522875,-2.46235,-0.163172,-0.361583,48.7915,0.151616,
2,0,0,1,0,28762.5,0.150416,0.150119,-3.53142,15,0.0125927,10,-0.000530133,-2.45205,-0.145646,-0.405093,55.8287,0.150119,
2,0,0,1,0,28762.5,0.148912,0.14856,-3.61082,15,0.0125254,10,-0.000536423,-2.44239,-0.134449,-0.438827,61.9251,0.14856,
2,0,0,1,0,28762.5,0.147425,0.147083,-3.70576,15,0.0124572,10,-0.000545055,-2.43112,-0.128756,-0.458233,66.3519,0.147083,
2,0,0,1,0,28762.5,0.145921,0.145595,-3.80418,15,0.0123864,10,-0.000553867,-2.41974,-0.11854,-0.497724,74.1005,0.145595,
2,0,0,1,0,28762.5,0.144425,0.144094,-3.92015,15,0.012314,10,-0.00056487,-2.4067,-0.112146,-0.5261,80.7056,0.1440939,
2,0,0,1,0,28762.6,0.142929,0.14259,-4.04574,15,0.0122393,10,-0.000576882,-2.393,-0.108011,-0.546243,86.3446,0.14259,
2,0,0,1,0,28762.6,0.141425,0.141094,-4.18261,15,0.0121617,10,-0.00059014,-2.37855,-0.10423,-0.566057,92.348,0.141094,
2,0,0,1,0,28762.6,0.139936,0.139652,-4.32182,15,0.0120824,10,-0.000603551,-2.36433,-0.101675,-0.580278,98.1259,0.139652,
2,0,0,1,0,28762.6,0.138432,0.138131,-4.47391,15,0.0119995,10,-0.000617986,-2.34931,-0.100431,-0.587466,102.864,0.138131,
2,0,0,1,0,28762.6,0.136929,0.136557,-4.64406,15,0.0119136,10,-0.000634177,-2.3331,-0.095122,-0.620256,112.523,0.136557,
2,0,0,1,0,28762.7,0.135439,0.135094,-4.81921,15,0.0118254,10,-0.000651048,-2.31702,-0.0974763,-0.605275,113.737,0.135094,
2,0,0,1,0,28762.7,0.133936,0.13364,-5.00388,15,0.0117329,10,-0.00066872,-2.30069,-0.0993378,-0.593933,115.652,0.13364,
2,0,0,1,0,28762.7,0.132432,0.132129,-5.17386,15,0.0116371,10,-0.000683616,-2.28619,-0.0978922,-0.602704,121.827,0.132129,
2,0,0,1,0,28762.7,0.130945,0.130668,-5.36123,15,0.011539,10,-0.000700542,-2.27074,-0.0980609,-0.601667,125.93,0.130668,
2,0,0,1,0,28762.7,0.129441,0.129111,-5.56047,15,0.0114361,10,-0.000717917,-2.25489,-0.0997516,-0.591469,128.102,0.129111,
2,0,0,1,0,28762.7,0.127945,0.127633,-5.74854,15,0.0113302,10,-0.000733706,-2.24044,-0.105556,-0.558945,125.214,0.127633,
2,0,0,1,0,28762.8,0.126448,0.126173,-5.92345,15,0.0112209,10,-0.000747381,-2.22743,-0.112506,-0.524418,121.196,0.126173,
2,0,0,1,0,28762.8,0.124945,0.124644,-6.11172,15,0.0111075,10,-0.000761793,-2.21384,-0.115675,-0.510051,121.489,0.124644,
2,0,0,1,0,28762.8,0.123456,0.123162,-6.28468,15,0.010992,10,-0.000774032,-2.20172,-0.122503,-0.481621,118.024,0.123162,
2,0,0,1,0,28762.8,0.121952,0.121638,-6.46282,15,0.010872,10,-0.000786124,-2.18958,-0.134361,-0.439115,110.484,0.121638,
2,0,0,1,0,28762.8,0.120449,0.120157,-6.61789,15,0.0107488,10,-0.000795187,-2.17928,-0.142482,-0.414088,106.8,0.120157,
2,0,0,1,0,28762.9,0.118959,0.118618,-6.7713,15,0.010624,10,-0.000803196,-2.16933,-0.150237,-0.392714,103.779,0.118618,
2,0,0,1,0,28762.9,0.117456,0.117155,-6.92115,15,0.010495,10,-0.000810848,-2.15982,-0.159982,-0.368791,99.5297,0.117155,
2,0,0,1,0,28762.9,0.115952,0.115609,-7.06273,15,0.0103632,10,-0.000816517,-2.15103,-0.180467,-0.326929,89.9715,0.115609,
2,0,0,1,0,28762.9,0.114465,0.114132,-7.19481,15,0.0102304,10,-0.000821159,-2.14298,-0.20442,-0.288622,80.9428,0.1141321,
2,0,0,1,0,28762.9,0.112961,0.112625,-7.31112,15,0.0100938,10,-0.000823417,-2.13602,-0.22196,-0.265813,75.8144,0.112625,
2,0,0,1,0,28763,0.111465,0.111142,-7.42985,15,0.00995576,10,-0.000825769,-2.12902,-0.240754,-0.245063,70.9203,0.111142,
2,0,0,1,0,28763,0.109968,0.109624,-7.53263,15,0.00981566,10,-0.000825755,-2.12305,-0.269435,-0.218977,64.274,0.109624,
2,0,0,1,0,28763,0.108465,0.10814,-7.63018,15,0.00967294,10,-0.00082513,-2.11747,-0.312367,-0.18888,56.1407,0.10814,
2,0,0,1,0,28763,0.106976,0.106658,-7.715,15,0.00953008,10,-0.00082287,-2.11266,-0.344261,-0.171381,51.5209,0.106658,
2,0,0,1,0,28763,0.105472,0.105136,-7.78873,15,0.00938424,10,-0.000818877,-2.10853,-0.382301,-0.154329,46.8466,0.105136,
2,0,0,1,0,28763,0.103968,0.103622,-7.85623,15,0.00923703,10,-0.00081408,-2.10479,-0.436311,-0.135225,41.3876,0.103622,
2,0,0,1,0,28763.1,0.102479,0.102183,-7.91224,15,0.00909026,10,-0.0008085,-2.1017,-0.573575,-0.102864,31.6903,0.102183,
2,0,0,1,0,28763.1,0.100976,0.10062,-7.94776,15,0.00894101,10,-0.000799704,-2.09976,-0.70506,-0.0836808,25.911,0.10062,
2,0,0,1,0,28763.1,0.0994721,0.0991223,-7.98002,15,0.00879115,10,-0.000790998,-2.098,-1.00106,-0.0589375,18.3282,0.0991223,
2,0,0,1,0,28763.1,0.0979846,0.0976717,-7.99411,15,0.00864241,10,-0.000780798,-2.09723,-1.57364,-0.0374928,11.6825,0.0976717,
2,0,0,1,0,28763.1,0.0964811,0.0961801,-8.00242,15,0.00849179,10,-0.000769674,-2.09678,-7.14894,-0.00825297,2.57385,0.0961801,
2,0,0,1,0,28763.2,0.0949847,0.0946736,-7.9966,15,0.00834189,10,-0.000757066,-2.09709,4.30699,0.0136987,-4.27337,0.0946736,
2,0,0,1,0,28763.2,0.0934883,0.0931661,-7.98324,15,0.00819226,10,-0.000743767,-2.09782,1.50775,0.0391312,-12.1905,0.0931661,
2,0,0,1,0,28763.2,0.0919847,0.0916824,-7.9568,15,0.00804211,10,-0.000729498,-2.09926,1.04899,0.0562445,-17.4651,0.0916824,
2,0,0,1,0,28763.2,0.0904955,0.0901574,-7.93135,15,0.007894,10,-0.00071507,-2.10065,0.715538,0.0824554,-25.5065,0.0901574,
2,0,0,1,0,28763.2,0.0889919,0.0886339,-7.89465,15,0.00774499,10,-0.000699733,-2.10267,0.557633,0.105804,-32.568,0.08863385,
2,0,0,1,0,28763.3,0.0874884,0.0871985,-7.84369,15,0.00759686,10,-0.000683958,-2.10548,0.493798,0.119482,-36.5639,0.0871985,
2,0,0,1,0,28763.3,0.0860009,0.0856661,-7.79638,15,0.00745123,10,-0.000667886,-2.10811,0.505699,0.11667,-35.4554,0.0856661,
2,0,0,1,0,28763.3,0.0844973,0.0841586,-7.74025,15,0.00730504,10,-0.000651408,-2.11125,0.448708,0.131489,-39.7206,0.0841586,
2,0,0,1,0,28763.3,0.0829938,0.0826824,-7.68707,15,0.0071599,10,-0.000635585,-2.11424,0.433255,0.136179,-40.8043,0.0826824,
2,0,0,1,0,28763.3,0.0815045,0.0812017,-7.6204,15,0.00701743,10,-0.00061879,-2.11802,0.435515,0.135472,-40.2925,0.0812017,
2,0,0,1,0,28763.3,0.080001,0.0796914,-7.56359,15,0.00687455,10,-0.000602753,-2.12127,0.471963,0.12501,-36.8885,0.0796914,
2,0,0,1,0,28763.4,0.0785046,0.0781795,-7.50853,15,0.00673347,10,-0.000587013,-2.12445,0.508719,0.115978,-34.0052,0.0781795,
2,0,0,1,0,28763.4,0.0770082,0.0766903,-7.45731,15,0.00659342,10,-0.000571903,-2.12742,0.506328,0.116525,-33.9009,0.0766903,
2,0,0,1,0,28763.4,0.0755046,0.075151,-7.39896,15,0.00645359,10,-0.00055604,-2.13083,0.54145,0.108967,-31.4838,0.075151,
2,0,0,1,0,28763.4,0.0740154,0.0737024,-7.35217,15,0.00631624,10,-0.000541873,-2.13358,0.56551,0.104331,-29.9501,0.0737024,
2,0,0,1,0,28763.4,0.0725118,0.0722078,-7.30656,15,0.00617827,10,-0.000527591,-2.13629,0.655591,0.0899952,-25.6765,0.0722078,
2,0,0,1,0,28763.5,0.0710083,0.0706856,-7.26449,15,0.00604108,10,-0.000513495,-2.13879,0.611515,0.0964817,-27.3468,0.0706856,
2,0,0,1,0,28763.5,0.0695208,0.0692111,-7.21965,15,0.00590609,10,-0.00049968,-2.14148,0.620381,0.0951029,-26.8244,0.0692111,
2,0,0,1,0,28763.5,0.0680173,0.0676933,-7.18263,15,0.00577046,10,-0.000486216,-2.14372,0.642026,0.0918966,-25.8059,0.0676933,
2,0,0,1,0,28763.5,0.0665137,0.0662045,-7.14701,15,0.00563548,10,-0.000473164,-2.14588,0.674736,0.0874416,-24.4149,0.06620454,
2,0,0,1,0,28763.5,0.0650244,0.0647188,-7.11928,15,0.00550253,10,-0.000460752,-2.14756,0.676938,0.0871572,-24.2088,0.0647188,
2,0,0,1,0,28763.5,0.0635209,0.0632014,-7.08997,15,0.00536876,10,-0.000448096,-2.14936,0.603742,0.0977238,-27.0187,0.0632014,
2,0,0,1,0,28763.6,0.0620245,0.0617114,-7.05363,15,0.00523641,10,-0.000435289,-2.15159,0.654347,0.0901663,-24.8177,0.0617114,
2,0,0,1,0,28763.6,0.0605281,0.0602156,-7.02168,15,0.00510468,10,-0.000422814,-2.15356,0.713427,0.0826994,-22.6473,0.0602156,
2,0,0,1,0,28763.6,0.0590246,0.0587363,-6.99442,15,0.0049728,10,-0.000410826,-2.15525,0.713222,0.0827232,-22.5553,0.0587363,
2,0,0,1,0,28763.6,0.0575353,0.0572066,-6.96175,15,0.00484289,10,-0.000398258,-2.15728,0.738067,0.0799385,-21.7038,0.0572066,
2,0,0,1,0,28763.6,0.0560317,0.0556571,-6.92586,15,0.00471226,10,-0.000385473,-2.15953,0.723854,0.0815081,-22.025,0.0556571,
2,0,0,1,0,28763.7,0.0545282,0.0542279,-6.89753,15,0.00458222,10,-0.000374039,-2.16131,0.879993,0.067046,-18.0322,0.0542279,
2,0,0,1,0,28763.7,0.0530407,0.0527122,-6.86678,15,0.00445417,10,-0.000361963,-2.16325,0.841405,0.0701208,-18.7701,0.0527122,
2,0,0,1,0,28763.7,0.0515372,0.0512374,-6.82899,15,0.00432528,10,-0.000349899,-2.16564,0.76725,0.076898,-20.4781,0.0512374,
2,0,0,1,0,28763.7,0.0500336,0.04974,-6.78588,15,0.00419704,10,-0.00033753,-2.16839,0.738461,0.0798959,-21.1732,0.04974,
2,0,0,1,0,28763.7,0.0485444,0.0482083,-6.75169,15,0.00407091,10,-0.000325487,-2.17059,0.672822,0.0876904,-23.1308,0.0482083,
2,0,0,1,0,28763.8,0.0470408,0.046715,-6.71795,15,0.00394401,10,-0.000313829,-2.17276,0.745926,0.0790963,-20.7533,0.046715,
2,0,0,1,0,28763.8,0.0455444,0.0452354,-6.68774,15,0.00381838,10,-0.000302523,-2.17472,0.586879,0.100532,-26.2328,0.0452354,
2,0,0,1,0,28763.8,0.044048,0.04375,-6.6511,15,0.00369344,10,-0.000290986,-2.17711,0.551209,0.107037,-27.7955,0.04375,
2,0,0,1,0,28763.8,0.0425445,0.0422353,-6.61255,15,0.00356858,10,-0.000279283,-2.17963,0.593719,0.0993736,-25.6566,0.0422353,
2,0,0,1,0,28763.8,0.0410552,0.0407465,-6.57512,15,0.00344573,10,-0.000267913,-2.1821,0.594706,0.0992087,-25.4667,0.0407465,
2,0,0,1,0,28763.8,0.0395517,0.0392001,-6.54603,15,0.00332221,10,-0.000256605,-2.18402,0.567949,0.103883,-26.5077,0.0392001,
2,0,0,1,0,28763.9,0.0380481,0.0377678,-6.50423,15,0.00319942,10,-0.000245651,-2.1868,0.531372,0.111033,-28.1556,0.0377678,
2,0,0,1,0,28763.9,0.0365606,0.0362238,-6.46446,15,0.00307869,10,-0.000234167,-2.18947,0.515527,0.114446,-28.8392,0.0362238,
2,0,0,1,0,28763.9,0.0350571,0.0347466,-6.42344,15,0.00295746,10,-0.000223193,-2.19223,0.558909,0.105563,-26.4443,0.0347466,
2,0,0,1,0,28763.9,0.0335535,0.0332367,-6.38049,15,0.00283703,10,-0.000212066,-2.19515,0.534134,0.110459,-27.4822,0.0332367,
2,0,0,1,0,28763.9,0.0320643,0.0316947,-6.33132,15,0.00271866,10,-0.000200669,-2.19851,0.485884,0.121428,-29.9957,0.0316947,
2,0,0,1,0,28764,0.0305607,0.0302365,-6.28072,15,0.00259991,10,-0.000189907,-2.20199,0.469091,0.125775,-30.8463,0.03023654,
2,0,0,1,0,28764,0.0290643,0.0287723,-6.24073,15,0.00248267,10,-0.00017956,-2.20476,0.508947,0.115926,-28.2219,0.0287723,
2,0,0,1,0,28764,0.0275679,0.0272691,-6.19284,15,0.00236627,10,-0.000168873,-2.20811,0.492292,0.119848,-28.9513,0.0272691,
2,0,0,1,0,28764,0.0260644,0.0257674,-6.14291,15,0.00225011,10,-0.000158287,-2.21163,0.416309,0.141722,-33.936,0.0257674,
2,0,0,1,0,28764,0.0245751,0.0242489,-6.09131,15,0.00213611,10,-0.000147708,-2.21529,0.425839,0.13855,-32.9408,0.0242489,
2,0,0,1,0,28764.1,0.0230716,0.0227591,-6.04022,15,0.00202188,10,-0.00013747,-2.21895,0.432515,0.136412,-32.1828,0.0227591,
2,0,0,1,0,28764.1,0.021568,0.0212447,-5.98829,15,0.00190858,10,-0.00012722,-2.2227,0.424971,0.138833,-32.4702,0.0212447,
2,0,0,1,0,28764.1,0.0200805,0.0197521,-5.93907,15,0.00179741,10,-0.000117309,-2.22628,0.383651,0.153786,-35.6557,0.0197521,
2,0,0,1,0,28764.1,0.018577,0.0182163,-5.89027,15,0.00168593,10,-0.000107299,-2.22986,0.409044,0.144239,-33.1636,0.0182163,
2,0,0,1,0,28764.1,0.0170735,0.0167756,-5.83756,15,0.00157547,10,-9.79283e-05,-2.23377,0.383691,0.15377,-35.0766,0.0167756,
2,0,0,1,0,28764.1,0.0155842,0.0152694,-5.79848,15,0.00146708,10,-8.8539e-05,-2.23669,0.431026,0.136883,-30.9609,0.0152694,
2,0,0,1,0,28764.2,0.0140806,0.0137131,-5.75823,15,0.00135832,10,-7.8963e-05,-2.23971,0.422109,0.139774,-31.3642,0.0137131,
2,0,0,1,0,28764.2,0.0125842,0.0122361,-5.71057,15,0.00125095,10,-6.98751e-05,-2.24332,0.433086,0.136232,-30.3521,0.0122361,
2,0,0,1,0,28764.2,0.0110878,0.0107958,-5.66273,15,0.00114451,10,-6.11335e-05,-2.24697,0.433659,0.136052,-30.0859,0.0107958,
2,0,0,1,0,28764.2,0.00958429,0.00924833,-5.62442,15,0.0010383,10,-5.20165e-05,-2.24992,0.510344,0.115608,-25.3686,0.00924833,
2,0,0,1,0,28764.2,0.0080968,0.00781678,-5.58496,15,0.000933919,10,-4.36564e-05,-2.25298,0.553336,0.106626,-23.2391,0.00781678,
2,0,0,1,0,28764.3,0.00659326,0.00628059,-5.54471,15,0.000829143,10,-3.48241e-05,-2.25612,0.57079,0.103366,-22.3818,0.00628059,
2,0,0,1,0,28764.3,0.00508972,0.00477951,-5.50745,15,0.000725057,10,-2.63229e-05,-2.25905,0.621395,0.0949476,-20.4282,0.00477951,
2,0,0,1,0,28764.3,0.00360044,0.00331592,-5.47785,15,0.000622701,10,-1.81641e-05,-2.26139,1.28483,0.0459206,-9.84798,0.003315923,
2,0,0,1,0,28764.3,0.0020969,0.00171088,-5.49157,15,0.000519675,10,-9.39544e-06,-2.2603,1.19431,0.0494007,-10.5341,0.00171088,
2,0,0,1,0,28764.3,0.000593362,0.000223778,-5.4422,15,0.000416716,10,-1.21784e-06,-2.26423, , , ,0.000223778,
2,0,0,1,0,28764.3,0.000199195,-0.000189804,-5.44295,15,0.000390009,10,1.03309e-06,-2.26417, , , ,-0.000189804,