File: Figure_codes/Fig_3-5/rawdata_trumpetplot_data/after 10th/20221101_1-115_003_TrumpetPlot_ParaChange_from10_every3_02_CV_C01_26.csv
mode,ox/red,error,control changes,counter inc.,time/s,control/V,Ewe/V,<I>/mA,cycle number,(Q-Qo)/C,I Range,P/W,log(|I|),Tafel slope mV/dec,alpha_eff,dI/d(E-IR),E-IR/V,
2,0,0,1,0,51563.4,2.44065e-05,-0.000516197,-0.400873,27,0.0000000E+000,10,2.06929e-07,-3.39699, , , ,-0.000516197,
2,0,0,1,0,51564.7,0.00129791,0.000884665,-0.1806,27,-0.000270725,10,-1.59771e-07,-3.74328, , , ,0.000884665,
2,0,0,1,0,51566.2,0.00279612,0.00244131,-0.14499,27,-0.000495493,10,-3.53966e-07,-3.83866,-0.0174224,-3.38645,20.6818,0.002441314,
2,0,0,1,0,51567.7,0.00429431,0.00396519,-0.124473,27,-0.000681628,10,-4.93558e-07,-3.90493,-0.0251729,-2.34379,11.5688,0.00396519,
2,0,0,1,0,51569.2,0.00579242,0.00544324,-0.109231,27,-0.000841112,10,-5.94571e-07,-3.96165,-0.0276076,-2.13709,9.25336,0.00544324,
2,0,0,1,0,51570.7,0.00729061,0.00694904,-0.0968583,27,-0.000979988,10,-6.73072e-07,-4.01386,-0.029987,-1.96752,7.52308,0.00694904,
2,0,0,1,0,51572.2,0.00878882,0.00845057,-0.0868825,27,-0.00110279,10,-7.34206e-07,-4.06107,-0.0333447,-1.7694,6.04872,0.00845057,
2,0,0,1,0,51573.7,0.010287,0.00994788,-0.0782609,27,-0.00121177,10,-7.7853e-07,-4.10646,-0.0339109,-1.73985,5.37813,0.00994788,
2,0,0,1,0,51575.2,0.0117852,0.0114622,-0.0716187,27,-0.00130914,10,-8.20906e-07,-4.14497,-0.0359891,-1.63938,4.58203,0.0114622,
2,0,0,1,0,51576.7,0.0132834,0.0129011,-0.0649398,27,-0.00139677,10,-8.37798e-07,-4.18749,-0.0377549,-1.56271,3.96229,0.0129011,
2,0,0,1,0,51578.2,0.0147815,0.0144196,-0.0595742,27,-0.00147565,10,-8.59034e-07,-4.22494,-0.0390409,-1.51124,3.51024,0.0144196,
2,0,0,1,0,51579.7,0.0162797,0.0159455,-0.0541103,27,-0.0015464,10,-8.62814e-07,-4.26672,-0.0431802,-1.36637,2.9347,0.0159455,
2,0,0,1,0,51581.2,0.0177779,0.0173982,-0.0500269,27,-0.0016104,10,-8.70381e-07,-4.3008,-0.0404276,-1.4594,2.84897,0.0173982,
2,0,0,1,0,51582.7,0.0192761,0.018903,-0.0458317,27,-0.00166847,10,-8.66356e-07,-4.33883,-0.0401826,-1.4683,2.63261,0.018903,
2,0,0,1,0,51584.2,0.0207743,0.020413,-0.0417702,27,-0.00171996,10,-8.52656e-07,-4.37913,-0.0384602,-1.53405,2.52231,0.020413,
2,0,0,1,0,51585.7,0.0222725,0.0219464,-0.0385677,27,-0.00176611,10,-8.46421e-07,-4.41378,-0.039537,-1.49227,2.25735,0.0219464,
2,0,0,1,0,51587.2,0.0237707,0.0234299,-0.0351431,27,-0.0018071,10,-8.23401e-07,-4.45416,-0.0363553,-1.62287,2.23241,0.0234299,
2,0,0,1,0,51588.7,0.0252689,0.0248858,-0.0322336,27,-0.00184389,10,-8.02161e-07,-4.49169,-0.0347294,-1.69885,2.10702,0.0248858,
2,0,0,1,0,51590.2,0.0267671,0.0264308,-0.0293394,27,-0.00187545,10,-7.75465e-07,-4.53255,-0.0291347,-2.02507,2.29522,0.0264308,
2,0,0,1,0,51591.7,0.0282653,0.0279398,-0.0263372,27,-0.00190233,10,-7.35857e-07,-4.57943,-0.0298722,-1.97508,1.99348,0.0279398,
2,0,0,1,0,51593.2,0.0297635,0.0294191,-0.0229239,27,-0.0019247,10,-6.744e-07,-4.63971,-0.0296614,-1.98912,1.78345,0.0294191,
2,0,0,1,0,51594.7,0.0312617,0.0309069,-0.0205427,27,-0.00194286,10,-6.34912e-07,-4.68734,-0.0233149,-2.53057,1.9838,0.0309069,
2,0,0,1,0,51596.2,0.0327599,0.0323904,-0.017845,27,-0.00195708,10,-5.78005e-07,-4.74848,-0.0231667,-2.54675,1.75039,0.0323904,
2,0,0,1,0,51597.7,0.0342581,0.0339195,-0.0150632,27,-0.00196691,10,-5.10935e-07,-4.82208,-0.019848,-2.97259,1.75417,0.0339195,
2,0,0,1,0,51599.2,0.0357563,0.0354168,-0.0124226,27,-0.00197306,10,-4.3997e-07,-4.90579,-0.019103,-3.08852,1.52363,0.03541683,
2,0,0,1,0,51600.7,0.0372544,0.0369236,-0.0107901,27,-0.00197573,10,-3.98409e-07,-4.96697,-0.0141309,-4.17525,1.62446,0.0369236,
2,0,0,1,0,51602.1,0.0387526,0.038405,-0.00847307,27,-0.0019752,10,-3.25408e-07,-5.07196,-0.00951623,-6.19993,1.77385,0.038405,
2,1,0,1,0,51603.6,0.0402508,0.03988,-0.00534729,27,-0.00197051,10,-2.1325e-07,-5.27187,-0.00713256,-8.27192,1.62866,0.03988,
2,0,0,1,0,51605.1,0.041749,0.0414165,-0.00306717,27,-0.00196191,10,-1.27032e-07,-5.51326,-0.00381245,-15.4756,1.43568,0.0414165,
2,0,0,1,0,51606.6,0.0432472,0.0429224,-0.000996635,27,-0.00195032,10,-4.27779e-08,-6.00146,-0.0107632,-5.48166,1.56159,0.0429224,
2,0,0,1,0,51608.1,0.0447454,0.0444027,0.00121444,27,-0.00193561,10,5.39244e-08,-5.91562,0.0146358,4.03121,1.49552,0.0444027,
2,0,0,1,0,51609.6,0.0462435,0.0458818,0.00432394,27,-0.00191718,10,1.9839e-07,-5.36412,0.00317335,18.5923,1.51769,0.0458818,
2,1,0,1,0,51611.1,0.0477417,0.047394,0.0056704,27,-0.00189532,10,2.68743e-07,-5.24639,0.00805745,7.32242,1.40996,0.047394,
2,1,0,1,0,51612.6,0.0492399,0.0489061,0.00775265,27,-0.00187031,10,3.79152e-07,-5.11055,0.0140976,4.1851,1.20124,0.0489061,
2,0,0,1,0,51614.1,0.0507381,0.0504024,0.00912003,27,-0.00184254,10,4.59671e-07,-5.04,0.016652,3.54311,1.33159,0.0504024,
2,0,0,1,0,51615.6,0.0522363,0.0518817,0.0108378,27,-0.00181208,10,5.62283e-07,-4.96506,0.0189839,3.10789,1.33797,0.0518817,
2,1,0,1,0,51617.1,0.0537345,0.0534044,0.0131009,27,-0.00177832,10,6.99646e-07,-4.8827,0.0216148,2.72961,1.37751,0.0534044,
2,1,0,1,0,51618.6,0.0552327,0.0549059,0.0154558,27,-0.00174204,10,8.48613e-07,-4.81091,0.0305563,1.93086,1.11949,0.0549059,
2,1,0,1,0,51620.1,0.0567309,0.0563788,0.0158826,27,-0.00170302,10,8.95442e-07,-4.79908,0.0339889,1.73586,1.13307,0.0563788,
2,1,0,1,0,51621.6,0.0582291,0.057891,0.0186308,27,-0.00166168,10,1.07855e-06,-4.72977,0.0344923,1.71053,1.23979,0.057891,
2,1,0,1,0,51623.1,0.0597273,0.0594053,0.020355,27,-0.00161736,10,1.2092e-06,-4.69133,0.0383302,1.53925,1.20876,0.0594053,
2,1,0,1,0,51624.6,0.0612255,0.0609227,0.0225717,27,-0.00156973,10,1.37513e-06,-4.64644,0.050766,1.16219,0.99342,0.0609227,
2,1,0,1,0,51626.1,0.0627237,0.0624286,0.0237125,27,-0.00152,10,1.48034e-06,-4.62502,0.0562934,1.04808,0.977958,0.0624286,
2,1,0,1,0,51627.6,0.0642219,0.0639215,0.0255133,27,-0.00146816,10,1.63085e-06,-4.59323,0.05116,1.15324,1.14606,0.0639215,
2,1,0,1,0,51629.1,0.0657201,0.065386,0.0274193,27,-0.00141363,10,1.79284e-06,-4.56194,0.0660802,0.892854,0.927872,0.065386,
2,1,0,1,0,51630.6,0.0672183,0.0669395,0.0286892,27,-0.00135672,10,1.92044e-06,-4.54228,0.0618536,0.953866,1.04275,0.06693951,
2,1,0,1,0,51632.1,0.0687164,0.0683975,0.0302202,27,-0.00129771,10,2.06699e-06,-4.5197,0.0659496,0.894623,1.04313,0.0683975,
2,1,0,1,0,51633.6,0.0702146,0.069882,0.0315488,27,-0.00123685,10,2.20469e-06,-4.50102,0.078602,0.750617,0.920082,0.069882,
2,1,0,1,0,51635.1,0.0717128,0.0713719,0.0328822,27,-0.00117333,10,2.34686e-06,-4.48304,0.0703644,0.838492,1.06236,0.07137192,
2,1,0,1,0,51636.6,0.073211,0.0728671,0.0341206,27,-0.00110765,10,2.48627e-06,-4.46698,0.070806,0.833263,1.13147,0.0728671,
2,1,0,1,0,51638.1,0.0747092,0.0743453,0.0352493,27,-0.00103992,10,2.62062e-06,-4.45285,0.0775135,0.761158,1.06296,0.0743453,
2,1,0,1,0,51639.6,0.0762074,0.0758935,0.0370726,27,-0.000969676,10,2.81357e-06,-4.43095,0.0892013,0.661425,0.96262,0.0758935,
2,1,0,1,0,51641.1,0.0777055,0.0773462,0.0384946,27,-0.000896978,10,2.97741e-06,-4.4146,0.0743417,0.793633,1.19835,0.0773462,
2,1,0,1,0,51642.6,0.0792037,0.0788711,0.040689,27,-0.000822156,10,3.20919e-06,-4.39052,0.106981,0.551498,0.870587,0.0788711,
2,1,0,1,0,51644.1,0.0807019,0.0803875,0.0419733,27,-0.00074506,10,3.37412e-06,-4.37703,0.101667,0.580326,0.945508,0.0803875,
2,1,0,1,0,51645.6,0.0822001,0.0818561,0.0428904,27,-0.000666136,10,3.51084e-06,-4.36764,0.0972715,0.606549,1.0173,0.0818561,
2,1,0,1,0,51647.1,0.0836983,0.0833026,0.0445018,27,-0.000584955,10,3.70712e-06,-4.35162,0.090423,0.652489,1.13966,0.08330258,
2,1,0,1,0,51648.6,0.0851965,0.0848571,0.0464281,27,-0.000501074,10,3.93975e-06,-4.33322,0.105937,0.556933,1.01149,0.0848571,
2,1,0,1,0,51650.1,0.0866947,0.0863693,0.0479236,27,-0.000414588,10,4.13913e-06,-4.31945,0.138097,0.427236,0.7921,0.0863693,
2,1,0,1,0,51651.6,0.0881929,0.0878846,0.0492003,27,-0.000325802,10,4.32395e-06,-4.30803,0.105154,0.561084,1.09796,0.0878846,
2,1,0,1,0,51653.1,0.0896911,0.0893861,0.0514158,27,-0.000235079,10,4.59586e-06,-4.2889,0.103709,0.568899,1.14557,0.0893861,
2,1,0,1,0,51654.6,0.0911893,0.0908261,0.0537804,27,-0.000140703,10,4.88467e-06,-4.26938,0.093681,0.629797,1.31243,0.0908261,
2,1,0,1,0,51656.1,0.0926875,0.092367,0.0552001,27,-4.35668e-05,10,5.09867e-06,-4.25806,0.102249,0.577022,1.24721,0.092367,
2,1,0,1,0,51657.6,0.0941857,0.0938632,0.0575534,27,5.62809e-05,10,5.40215e-06,-4.23993,0.108581,0.543371,1.20711,0.0938632,
2,1,0,1,0,51659.1,0.0956839,0.0953329,0.0588975,27,0.000158718,10,5.61487e-06,-4.2299,0.092499,0.637844,1.47387,0.0953329,
2,1,0,1,0,51660.6,0.0971821,0.0968282,0.0608582,27,0.00026425,10,5.89279e-06,-4.21568,0.0901885,0.654186,1.54563,0.0968282,
2,1,0,1,0,51662.1,0.0986803,0.0983626,0.0628277,27,0.000373188,10,6.1799e-06,-4.20185,0.109071,0.540933,1.33028,0.0983626,
2,1,0,1,0,51663.6,0.100178,0.0998937,0.065081,27,0.000484988,10,6.50118e-06,-4.18655,0.11863,0.497345,1.26517,0.0998937,
2,1,0,1,0,51665.1,0.101677,0.101342,0.0667758,27,0.000599499,10,6.76721e-06,-4.17538,0.118376,0.498411,1.30772,0.101342,
2,1,0,1,0,51666.6,0.103175,0.102869,0.0696734,27,0.00071737,10,7.16724e-06,-4.15693,0.112002,0.526775,1.41963,0.102869,
2,1,0,1,0,51668.1,0.104673,0.104322,0.071588,27,0.000838464,10,7.46821e-06,-4.14516,0.120777,0.488503,1.35829,0.104322,
2,1,0,1,0,51669.6,0.106171,0.105853,0.0733878,27,0.000962908,10,7.76833e-06,-4.13438,0.144668,0.407829,1.15941,0.105853,
2,1,0,1,0,51671.1,0.107669,0.107333,0.0751039,27,0.00109026,10,8.06109e-06,-4.12434,0.139452,0.423084,1.24455,0.107333,
2,1,0,1,0,51672.6,0.109167,0.108814,0.0769711,27,0.00121997,10,8.37551e-06,-4.11367,0.159201,0.3706,1.11155,0.108814,
2,1,0,1,0,51674.1,0.110666,0.110318,0.0781602,27,0.00135262,10,8.62252e-06,-4.10701,0.171942,0.343139,1.05477,0.110318,
2,1,0,1,0,51675.6,0.112164,0.111843,0.0807364,27,0.00148767,10,9.02983e-06,-4.09293,0.180698,0.326512,1.02233,0.111843,
2,1,0,1,0,51677.1,0.113662,0.113272,0.0817713,27,0.00162562,10,9.26237e-06,-4.0874,0.174279,0.338537,1.08269,0.1132717,
2,1,0,1,0,51678.6,0.11516,0.114796,0.0840164,27,0.00176538,10,9.64471e-06,-4.07564,0.170327,0.346393,1.1306,0.114796,
2,1,0,1,0,51680.1,0.116658,0.11632,0.0855783,27,0.00190816,10,9.9545e-06,-4.06764,0.171841,0.343341,1.13854,0.11632,
2,1,0,1,0,51681.6,0.118157,0.117822,0.0871287,27,0.00205373,10,1.02657e-05,-4.05984,0.181362,0.325316,1.10851,0.117822,
2,1,0,1,0,51683.1,0.119655,0.119321,0.088756,27,0.00220123,10,1.05905e-05,-4.0518,0.247779,0.238116,0.823077,0.119321,
2,1,0,1,0,51684.5,0.121153,0.120812,0.0896721,27,0.00235096,10,1.08335e-05,-4.04734,0.230214,0.256283,0.90196,0.120812,
2,1,0,1,0,51686,0.122651,0.12232,0.0915269,27,0.00250271,10,1.11956e-05,-4.03845,0.177097,0.33315,1.18888,0.12232,
2,1,0,1,0,51687.5,0.124149,0.12382,0.092794,27,0.0026568,10,1.14897e-05,-4.03248,0.304293,0.193892,0.697676,0.12382,
2,1,0,1,0,51689,0.125648,0.125324,0.0935778,27,0.00281279,10,1.17276e-05,-4.02883,0.405045,0.145663,0.531597,0.1253244,
2,1,0,1,0,51690.5,0.127146,0.126793,0.0937427,27,0.00296925,10,1.18859e-05,-4.02806,0.621804,0.0948852,0.348622,0.126793,
2,1,0,1,0,51692,0.128644,0.128305,0.0956576,27,0.00312689,10,1.22734e-05,-4.01928,0.797051,0.0740228,0.272364,0.128305,
2,1,0,1,0,51693.5,0.130142,0.129782,0.0954925,27,0.00328521,10,1.23932e-05,-4.02003,3.79409,0.0155505,0.057337,0.129782,
2,1,0,1,0,51695,0.13164,0.131276,0.0946162,27,0.00344344,10,1.24209e-05,-4.02403,-0.390465,-0.151102,-0.55191,0.131276,
2,1,0,1,0,51696.5,0.133139,0.132805,0.0933572,27,0.00360042,10,1.23983e-05,-4.02985,-0.272576,-0.216453,-0.79026,0.132805,
2,1,0,1,0,51698,0.134637,0.134255,0.092665,27,0.0037551,10,1.24407e-05,-4.03308,-0.203461,-0.289982,-1.04345,0.134255,
2,1,0,1,0,51699.5,0.136135,0.135797,0.0904097,27,0.00390807,10,1.22774e-05,-4.04379,-0.153752,-0.383735,-1.34789,0.135797,
2,1,0,1,0,51701,0.137633,0.137297,0.0878131,27,0.00405743,10,1.20565e-05,-4.05644,-0.0991036,-0.595336,-2.02618,0.137297,
2,1,0,1,0,51702.5,0.139131,0.138804,0.0854062,27,0.00420241,10,1.18548e-05,-4.06851,-0.092205,-0.639879,-2.10237,0.138804,
2,1,0,1,0,51704,0.14063,0.140294,0.0811913,27,0.00434194,10,1.13907e-05,-4.09049,-0.0745441,-0.791477,-2.49518,0.140294,
2,1,0,1,0,51705.5,0.142128,0.141796,0.0777713,27,0.00447613,10,1.10276e-05,-4.10918,-0.0691659,-0.853021,-2.57135,0.141796,
2,1,0,1,0,51707,0.143626,0.143279,0.0736531,27,0.00460462,10,1.0553e-05,-4.13281,-0.0701771,-0.84073,-2.41706,0.143279,
2,1,0,1,0,51708.5,0.145124,0.144789,0.0701722,27,0.00472717,10,1.01602e-05,-4.15384,-0.0668694,-0.882316,-2.43226,0.144789,
2,1,0,1,0,51710,0.146622,0.146306,0.0668656,27,0.00484436,10,9.78281e-06,-4.1748,-0.0727724,-0.810747,-2.12074,0.146306,
2,1,0,1,0,51711.5,0.14812,0.147781,0.0633718,27,0.00495677,10,9.36512e-06,-4.1981,-0.0870576,-0.677712,-1.6924,0.147781,
2,1,0,1,0,51713,0.149619,0.14928,0.0610372,27,0.00506493,10,9.11162e-06,-4.21441,-0.086521,-0.681916,-1.62987,0.14928,
2,1,0,1,0,51714.5,0.151117,0.150754,0.0589395,27,0.00516957,10,8.88536e-06,-4.22959,-0.0976824,-0.603998,-1.39094,0.150754,
2,1,0,1,0,51716,0.152615,0.152277,0.0561077,27,0.00527062,10,8.54389e-06,-4.25098,-0.121123,-0.487108,-1.0835,0.152277,
2,1,0,1,0,51717.5,0.154113,0.153709,0.0555849,27,0.00536899,10,8.54392e-06,-4.25504,-0.16294,-0.362098,-0.787153,0.153709,
2,1,0,1,0,51719,0.155611,0.15527,0.0543853,27,0.00546565,10,8.44443e-06,-4.26452,-0.178437,-0.330648,-0.702575,0.15527,
2,1,0,1,0,51720.5,0.15711,0.156762,0.0532667,27,0.00556074,10,8.3502e-06,-4.27354,-0.150171,-0.392885,-0.814679,0.156762,
2,1,0,1,0,51722,0.158608,0.158259,0.0525137,27,0.00565447,10,8.31075e-06,-4.27973,-0.283938,-0.207792,-0.427329,0.158259,
2,1,0,1,0,51723.5,0.160106,0.159753,0.0519779,27,0.00574683,10,8.3036e-06,-4.28418,-0.330093,-0.178738,-0.363801,0.159753,
2,1,0,1,0,51725,0.161604,0.161285,0.0517305,27,0.00583875,10,8.34336e-06,-4.28625,-0.407691,-0.144717,-0.292753,0.161285,
2,1,0,1,0,51726.5,0.163102,0.162784,0.0511746,27,0.00592968,10,8.33041e-06,-4.29095,-0.881074,-0.0669637,-0.13481,0.1627842,
2,1,0,1,0,51728,0.164601,0.164279,0.0508828,27,0.00602059,10,8.35901e-06,-4.29343,-1.12434,-0.0524752,-0.1044,0.164279,
2,1,0,1,0,51729.5,0.166099,0.165766,0.0506623,27,0.0061109,10,8.39809e-06,-4.29532,-0.720225,-0.0819189,-0.16319,0.165766,
2,1,0,1,0,51731,0.167597,0.167295,0.0505903,27,0.00620105,10,8.46352e-06,-4.29593,-1.57877,-0.0373709,-0.0738758,0.167295,
2,1,0,1,0,51732.5,0.169095,0.168753,0.0503261,27,0.00629118,10,8.49269e-06,-4.29821,-3.23189,-0.0182556,-0.0362396,0.1687533,
2,1,0,1,0,51734,0.170593,0.170272,0.0504451,27,0.00638066,10,8.58938e-06,-4.29718,-0.349918,-0.168611,-0.33264,0.170272,
2,1,0,1,0,51735.5,0.172091,0.171753,0.0501361,27,0.0064698,10,8.61104e-06,-4.29985,-5.37362,-0.0109796,-0.0216486,0.171753,
2,1,0,1,0,51737,0.17359,0.17325,0.0497842,27,0.00655862,10,8.62513e-06,-4.30291,0.684176,0.0862351,0.169437,0.17325,
2,1,0,1,0,51738.5,0.175088,0.174749,0.0505203,27,0.00664774,10,8.82837e-06,-4.29653,0.726044,0.0812623,0.159611,0.174749,
2,1,0,1,0,51740,0.176586,0.176238,0.0505318,27,0.0067371,10,8.90561e-06,-4.29643,1.75617,0.0335958,0.0662068,0.176238,
2,1,0,1,0,51741.5,0.178084,0.177723,0.0500157,27,0.00682658,10,8.88896e-06,-4.30089,0.703651,0.0838483,0.164547,0.177723,
2,1,0,1,0,51743,0.179582,0.179249,0.0507297,27,0.006916,10,9.09326e-06,-4.29474,1.47895,0.0398932,0.0789099,0.179249,
2,1,0,1,0,51744.5,0.181081,0.180709,0.0506865,27,0.00700561,10,9.15953e-06,-4.29511,0.585029,0.10085,0.201328,0.180709,
2,1,0,1,0,51746,0.182579,0.182227,0.0513879,27,0.00709561,10,9.36425e-06,-4.28914,-1.96711,-0.0299932,-0.0592796,0.182227,
2,1,0,1,0,51747.5,0.184077,0.183757,0.0511748,27,0.00718607,10,9.40373e-06,-4.29094,2.32025,0.0254283,0.0507964,0.183757,
2,1,0,1,0,51749,0.185575,0.185257,0.0511232,27,0.00727609,10,9.47095e-06,-4.29138,-5.38407,-0.0109583,-0.0219086,0.185257,
2,1,0,1,0,51750.5,0.187073,0.18674,0.051354,27,0.00736623,10,9.58985e-06,-4.28943,-8.42424,-0.0070036,-0.0139809,0.18674,
2,1,0,1,0,51752,0.188572,0.188195,0.0513033,27,0.00745651,10,9.65501e-06,-4.28985,1.60007,0.0368733,0.0733381,0.188195,
2,1,0,1,0,51753.5,0.19007,0.189729,0.0514345,27,0.00754669,10,9.75863e-06,-4.28875,1.20539,0.0489469,0.097993,0.189729,
2,1,0,1,0,51755,0.191568,0.191218,0.0511498,27,0.00763676,10,9.78077e-06,-4.29116,2.26133,0.0260908,0.0523304,0.191218,
2,1,0,1,0,51756.5,0.193066,0.192732,0.0513108,27,0.00772702,10,9.88926e-06,-4.28979,0.724721,0.0814107,0.163668,0.192732,
2,1,0,1,0,51758,0.194564,0.194245,0.0516229,27,0.00781789,10,1.00275e-05,-4.28716,0.577182,0.102221,0.205711,0.1942455,
2,1,0,1,0,51759.5,0.196063,0.195709,0.0520781,27,0.00790895,10,1.01921e-05,-4.28334,0.698426,0.0844757,0.172113,0.195709,
2,1,0,1,0,51761,0.197561,0.197187,0.0520005,27,0.00799988,10,1.02538e-05,-4.28399,0.637062,0.0926127,0.187921,0.197187,
2,1,0,1,0,51762.5,0.199059,0.198743,0.0520602,27,0.00809134,10,1.03466e-05,-4.28349,0.38815,0.152003,0.308525,0.198743,
2,1,0,1,0,51764,0.200557,0.200192,0.0524472,27,0.00818305,10,1.04995e-05,-4.28028,1.3308,0.0443342,0.0904264,0.200192,
2,1,0,1,0,51765.5,0.202055,0.201705,0.0524784,27,0.00827513,10,1.05852e-05,-4.28002,0.7,0.0842858,0.171962,0.201705,
2,1,0,1,0,51766.9,0.203554,0.203213,0.0521299,27,0.00836716,10,1.05935e-05,-4.28291,0.889125,0.0663574,0.136175,0.203213,
2,1,0,1,0,51768.4,0.205052,0.204698,0.0528657,27,0.00845935,10,1.08215e-05,-4.27683,0.486499,0.121275,0.251797,0.204698,
2,1,0,1,0,51769.9,0.20655,0.206228,0.0529612,27,0.0085519,10,1.09221e-05,-4.27604,0.437449,0.134873,0.280337,0.206228,
2,1,0,1,0,51771.4,0.208048,0.207678,0.0534054,27,0.00864528,10,1.10911e-05,-4.27241,2.06757,0.028536,0.0594207,0.2076776,
2,1,0,1,0,51772.9,0.209546,0.209222,0.053561,27,0.00873894,10,1.12061e-05,-4.27115,0.603268,0.0978007,0.204966,0.209222,
2,1,0,1,0,51774.4,0.211044,0.210707,0.0536728,27,0.00883235,10,1.13092e-05,-4.27025,-11.9745,-0.00492714,-0.0103567,0.210707,
2,1,0,1,0,51775.9,0.212543,0.212177,0.0541971,27,0.00892643,10,1.14994e-05,-4.26602,1.46105,0.0403819,0.0845697,0.212177,
2,1,0,1,0,51777.4,0.214041,0.21371,0.0542916,27,0.00902048,10,1.16027e-05,-4.26527,2.46842,0.0239019,0.0504142,0.21371,
2,1,0,1,0,51778.9,0.215539,0.215184,0.0543109,27,0.00911473,10,1.16868e-05,-4.26511,0.744645,0.0792323,0.167355,0.215184,
2,1,0,1,0,51780.4,0.217037,0.216686,0.0542201,27,0.00920903,10,1.17487e-05,-4.26584,1.63837,0.0360115,0.0769606,0.216686,
2,1,0,1,0,51781.9,0.218535,0.21823,0.0548639,27,0.0093038,10,1.19729e-05,-4.26071,0.385533,0.153035,0.325402,0.21823,
2,1,0,1,0,51783.4,0.220034,0.219722,0.0548566,27,0.00939887,10,1.20532e-05,-4.26077,0.474987,0.124214,0.266715,0.219722,
2,1,0,1,0,51784.9,0.221532,0.221206,0.0550806,27,0.0094944,10,1.21842e-05,-4.259,0.653298,0.090311,0.194507,0.221206,
2,1,0,1,0,51786.4,0.22303,0.222698,0.0554369,27,0.00959039,10,1.23457e-05,-4.2562,0.806098,0.0731921,0.158393,0.222698,
2,1,0,1,0,51787.9,0.224528,0.224181,0.0555464,27,0.00968619,10,1.24524e-05,-4.25534,-3.41611,-0.0172711,-0.0373457,0.2241808,
2,1,0,1,0,51789.4,0.226026,0.225689,0.0555788,27,0.00978247,10,1.25435e-05,-4.25509,0.688179,0.0857335,0.18566,0.225689,
2,1,0,1,0,51790.9,0.227525,0.227195,0.0556092,27,0.00987883,10,1.26342e-05,-4.25485,-1.66975,-0.0353346,-0.0769979,0.227195,
2,1,0,1,0,51792.4,0.229023,0.228677,0.0555733,27,0.00997506,10,1.27083e-05,-4.25513,0.803793,0.073402,0.161114,0.228677,
2,1,0,1,0,51793.9,0.230521,0.230157,0.0561947,27,0.0100717,10,1.29336e-05,-4.2503,0.568304,0.103818,0.227671,0.2301572,
2,1,0,1,0,51795.4,0.232019,0.23171,0.0563154,27,0.010169,10,1.30488e-05,-4.24937,0.475989,0.123952,0.273665,0.23171,
2,1,0,1,0,51796.9,0.233517,0.233155,0.0569452,27,0.0102668,10,1.3277e-05,-4.24454,0.89653,0.0658093,0.145581,0.233155,
2,1,0,1,0,51798.4,0.235016,0.234675,0.0569713,27,0.0103648,10,1.33697e-05,-4.24434,0.987625,0.0597393,0.133037,0.234675,
2,1,0,1,0,51799.9,0.236514,0.236193,0.0574381,27,0.010463,10,1.35665e-05,-4.2408,1.15633,0.0510235,0.11404,0.236193,
2,1,0,1,0,51801.4,0.238012,0.237696,0.0579393,27,0.010562,10,1.37719e-05,-4.23703,0.516183,0.1143,0.257075,0.237696,
2,1,0,1,0,51802.9,0.23951,0.239175,0.0576938,27,0.010661,10,1.37989e-05,-4.23887,0.865141,0.068197,0.153643,0.239175,
2,1,0,1,0,51804.4,0.241008,0.240698,0.0580054,27,0.0107603,10,1.39618e-05,-4.23653,0.854548,0.0690423,0.155876,0.240698,
2,1,0,1,0,51805.9,0.242506,0.24216,0.0580551,27,0.0108597,10,1.40586e-05,-4.23616,2.47944,0.0237957,0.053742,0.24216,
2,1,0,1,0,51807.4,0.244005,0.243687,0.0581186,27,0.0109593,10,1.41627e-05,-4.23568,1.72574,0.0341883,0.0771536,0.2436869,
2,1,0,1,0,51808.9,0.245503,0.245144,0.0583459,27,0.0110589,10,1.43031e-05,-4.23399,1.35883,0.0434198,0.0986042,0.245144,
2,1,0,1,0,51810.4,0.247001,0.246654,0.0584396,27,0.0111584,10,1.44143e-05,-4.23329,7.52378,0.0078418,0.0177647,0.246654,
2,1,0,1,0,51811.9,0.248499,0.248189,0.0580796,27,0.0112582,10,1.44147e-05,-4.23598,1.369,0.0430971,0.0976524,0.2481894,
2,1,0,1,0,51813.4,0.249997,0.249652,0.0584874,27,0.011358,10,1.46015e-05,-4.23294,1.43348,0.0411584,0.0941741,0.249652,
2,1,0,1,0,51814.9,0.251496,0.25112,0.0586646,27,0.0114582,10,1.47319e-05,-4.23162,0.68096,0.0866424,0.198436,0.25112,
2,1,0,1,0,51816.4,0.252994,0.25263,0.0588108,27,0.0115589,10,1.48574e-05,-4.23054,-2.05812,-0.028667,-0.0655568,0.25263,
2,1,0,1,0,51817.9,0.254492,0.254136,0.059116,27,0.0116597,10,1.50235e-05,-4.22829,-3.723,-0.0158474,-0.0364741,0.254136,
2,1,0,1,0,51819.4,0.25599,0.255654,0.0586222,27,0.0117603,10,1.4987e-05,-4.23194,0.702969,0.0839297,0.193681,0.255654,
2,1,0,1,0,51820.9,0.257488,0.25715,0.0589281,27,0.0118612,10,1.51534e-05,-4.22968,1.41052,0.0418285,0.0964559,0.2571499,
2,1,0,1,0,51822.4,0.258987,0.258606,0.0594067,27,0.0119625,10,1.53629e-05,-4.22616,5.78568,0.0101976,0.0235672,0.258606,
2,1,0,1,0,51823.9,0.260485,0.260171,0.05948,27,0.012064,10,1.5475e-05,-4.22563,0.607264,0.0971571,0.22628,0.260171,
2,1,0,1,0,51825.4,0.261983,0.261643,0.0600242,27,0.0121655,10,1.57049e-05,-4.22167,5.17793,0.0113945,0.0267144,0.261643,
2,1,0,1,0,51826.9,0.263481,0.263124,0.0599342,27,0.0122678,10,1.57701e-05,-4.22233,1.30681,0.0451481,0.105301,0.263124,
2,1,0,1,0,51828.4,0.264979,0.264641,0.0599913,27,0.01237,10,1.58761e-05,-4.22191,0.956497,0.0616834,0.145429,0.264641,
2,1,0,1,0,51829.9,0.266477,0.266173,0.0601233,27,0.0124724,10,1.60032e-05,-4.22096,0.647107,0.091175,0.215117,0.266173,
2,1,0,1,0,51831.4,0.267976,0.267628,0.0608741,27,0.0125755,10,1.62916e-05,-4.21557,0.485675,0.12148,0.28834,0.267628,
2,1,0,1,0,51832.9,0.269474,0.269137,0.0610398,27,0.012679,10,1.64281e-05,-4.21439,1.87225,0.0315129,0.0750931,0.269137,
2,1,0,1,0,51834.4,0.270972,0.270658,0.0615983,27,0.012783,10,1.66721e-05,-4.21043,-3.58008,-0.0164801,-0.0392991,0.270658,
2,1,0,1,0,51835.9,0.27247,0.272082,0.0614626,27,0.0128867,10,1.67229e-05,-4.21139,1.57615,0.037433,0.0891301,0.272082,
2,1,0,1,0,51837.4,0.273968,0.273628,0.0610064,27,0.0129905,10,1.66931e-05,-4.21462,0.556426,0.106034,0.254287,0.2736285,
2,1,0,1,0,51838.9,0.275467,0.275143,0.0614877,27,0.0130946,10,1.69179e-05,-4.21121,-3.14459,-0.0187624,-0.0449795,0.275143,
2,1,0,1,0,51840.4,0.276965,0.276638,0.0617075,27,0.0131991,10,1.70706e-05,-4.20966,1.26581,0.0466103,0.112262,0.276638,
2,1,0,1,0,51841.9,0.278463,0.278109,0.0614449,27,0.0133034,10,1.70884e-05,-4.21151,-12.4115,-0.00475366,-0.0113954,0.278109,
2,1,0,1,0,51843.4,0.279961,0.279601,0.0617314,27,0.0134078,10,1.72602e-05,-4.20949,0.577234,0.102211,0.246684,0.2796008,
2,1,0,1,0,51844.9,0.281459,0.281098,0.0623696,27,0.0135125,10,1.7532e-05,-4.20503,0.741114,0.0796099,0.193062,0.281098,
2,1,0,1,0,51846.4,0.282958,0.282633,0.0623115,27,0.0136177,10,1.76113e-05,-4.20543,1.39378,0.042331,0.10292,0.282633,
2,1,0,1,0,51847.9,0.284456,0.284099,0.06256,27,0.0137231,10,1.77732e-05,-4.2037,1.03424,0.0570469,0.138921,0.2840991,
2,1,0,1,0,51849.3,0.285954,0.285634,0.0627911,27,0.0138287,10,1.79352e-05,-4.2021,2.85763,0.0206465,0.0505458,0.285634,
2,1,0,1,0,51850.8,0.287452,0.287095,0.0627878,27,0.0139341,10,1.8026e-05,-4.20212,0.910671,0.0647874,0.158165,0.287095,
2,1,0,1,0,51852.3,0.28895,0.288591,0.0625194,27,0.0140396,10,1.80425e-05,-4.20399,0.627988,0.0939509,0.228723,0.288591,
2,1,0,1,0,51853.8,0.290448,0.290089,0.0627312,27,0.0141453,10,1.81977e-05,-4.20252,0.839346,0.0702928,0.172503,0.290089,
2,1,0,1,0,51855.3,0.291947,0.291623,0.0629847,27,0.0142515,10,1.83678e-05,-4.20076,1.27973,0.0461035,0.113523,0.291623,
2,1,0,1,0,51856.8,0.293445,0.293127,0.0632973,27,0.0143577,10,1.85542e-05,-4.19861,0.549787,0.107314,0.266656,0.2931273,
2,1,0,1,0,51858.3,0.294943,0.294612,0.0637445,27,0.0144644,10,1.87799e-05,-4.19556,0.601217,0.0981344,0.243278,0.294612,
2,1,0,1,0,51859.8,0.296441,0.296079,0.0640918,27,0.0145717,10,1.89763e-05,-4.1932,1.46868,0.040172,0.0999035,0.296079,
2,1,0,1,0,51861.3,0.297939,0.297616,0.0642247,27,0.0146792,10,1.91143e-05,-4.1923,0.782463,0.0754029,0.188321,0.297616,
2,1,0,1,0,51862.8,0.299438,0.299075,0.0637942,27,0.0147866,10,1.90793e-05,-4.19522,-0.00406334,-14.5201,-22.9874,0.299075,
2,1,0,1,0,51863.7,0.299737,0.299385,0.0312852,27,0.0148353,10,9.36632e-06,-4.50466,0.00206975,28.5059,39.0502,0.299385,
2,1,0,1,0,51865.2,0.298239,0.297896,0.0185572,27,0.0148578,10,5.52813e-06,-4.73149,0.00537795,10.9707,13.6255,0.297896,
2,1,0,1,0,51866.7,0.296741,0.296393,0.0135948,27,0.0148699,10,4.02939e-06,-4.86663,0.0118646,4.97279,2.74885,0.296393,
2,1,0,1,0,51868.2,0.295243,0.294879,0.0103268,27,0.0148758,10,3.04516e-06,-4.98603,0.0126258,4.67297,1.91377,0.294879,
2,1,0,1,0,51869.7,0.293745,0.293377,0.00778886,27,0.0148777,10,2.28507e-06,-5.10853,0.0109317,5.39713,1.63964,0.293377,
2,1,0,1,0,51871.2,0.292246,0.291894,0.00530281,27,0.0148763,10,1.54786e-06,-5.27549,0.00970185,6.08131,1.30596,0.291894,
2,1,0,1,0,51872.7,0.290748,0.290399,0.00389028,27,0.0148715,10,1.12973e-06,-5.41002,0.00610174,9.66937,1.224,0.290399,
2,0,0,1,0,51874.2,0.28925,0.288861,0.00196823,27,0.0148642,10,5.68546e-07,-5.70592,0.00281486,20.9602,1.1386,0.2888613,
2,1,0,1,0,51875.7,0.287752,0.287416,0.000334315,27,0.0148546,10,9.60874e-08,-6.47584,0.0114589,5.14882,0.915287,0.287416,
2,1,0,1,0,51877.2,0.286254,0.285909,-0.00071483,27,0.0148427,10,-2.04376e-07,-6.1458,-0.0128473,-4.5924,0.965402,0.285909,
2,1,0,1,0,51878.7,0.284755,0.284462,-0.00212292,27,0.014829,10,-6.0389e-07,-5.67307,-0.00333274,-17.7031,0.853312,0.284462,
2,1,0,1,0,51880.2,0.283257,0.282912,-0.00301578,27,0.0148132,10,-8.53202e-07,-5.5206,-0.00868918,-6.79006,0.805034,0.2829124,
2,1,0,1,0,51881.7,0.281759,0.28137,-0.00432402,27,0.0147957,10,-1.21665e-06,-5.36411,-0.0144122,-4.09377,0.659225,0.28137,
2,0,0,1,0,51883.2,0.280261,0.279918,-0.00494084,27,0.0147765,10,-1.38303e-06,-5.3062,-0.0157869,-3.73728,0.76595,0.279918,
2,1,0,1,0,51884.7,0.278763,0.278414,-0.00664298,27,0.0147559,10,-1.8495e-06,-5.17764,-0.027163,-2.17207,0.554194,0.278414,
2,0,0,1,0,51886.2,0.277264,0.276949,-0.00781655,27,0.0147336,10,-2.16478e-06,-5.10698,-0.0235779,-2.50234,0.7332,0.276949,
2,0,0,1,0,51887.7,0.275766,0.275427,-0.00879977,27,0.0147097,10,-2.4237e-06,-5.05553,-0.0403906,-1.46074,0.469204,0.2754271,
2,0,0,1,0,51889.2,0.274268,0.273934,-0.00979695,27,0.0146843,10,-2.68372e-06,-5.00891,-0.0410036,-1.4389,0.532144,0.273934,
2,0,0,1,0,51890.7,0.27277,0.272413,-0.0100108,27,0.0146579,10,-2.72708e-06,-4.99953,-0.034555,-1.70742,0.672432,0.2724134,
2,0,0,1,0,51892.1,0.271272,0.27093,-0.0107951,27,0.0146303,10,-2.92472e-06,-4.96677,-0.0608217,-0.970048,0.419436,0.27093,
2,0,0,1,0,51893.6,0.269774,0.269438,-0.0120778,27,0.0146013,10,-3.25423e-06,-4.91801,-0.0481515,-1.2253,0.555032,0.269438,
2,0,0,1,0,51895.1,0.268275,0.267961,-0.012686,27,0.0145711,10,-3.39934e-06,-4.89668,-0.0488914,-1.20676,0.582892,0.267961,
2,0,0,1,0,51896.6,0.266777,0.266443,-0.0135301,27,0.0145399,10,-3.60501e-06,-4.8687,-0.0728396,-0.809999,0.415595,0.266443,
2,0,0,1,0,51898.1,0.265279,0.264929,-0.014103,27,0.0145077,10,-3.73629e-06,-4.85069,-0.0619978,-0.951647,0.518031,0.264929,
2,0,0,1,0,51899.6,0.263781,0.263476,-0.0147369,27,0.0144743,10,-3.88282e-06,-4.83159,-0.057117,-1.03297,0.599973,0.263476,
2,0,0,1,0,51901.1,0.262283,0.26194,-0.0156281,27,0.0144397,10,-4.09361e-06,-4.80609,-0.0745239,-0.791692,0.479132,0.26194,
2,0,0,1,0,51902.6,0.260784,0.260463,-0.0161075,27,0.014404,10,-4.1954e-06,-4.79297,-0.0646246,-0.912964,0.583907,0.260463,
2,0,0,1,0,51904.1,0.259286,0.258923,-0.0172112,27,0.014367,10,-4.45638e-06,-4.76419,-0.0984726,-0.599152,0.390348,0.258923,
2,0,0,1,0,51905.6,0.257788,0.25743,-0.0181475,27,0.0143286,10,-4.67171e-06,-4.74118,-0.0918698,-0.642213,0.441957,0.25743,
2,0,0,1,0,51907.1,0.25629,0.255932,-0.0183425,27,0.0142895,10,-4.69444e-06,-4.73654,-0.101348,-0.582151,0.410985,0.255932,
2,0,0,1,0,51908.6,0.254792,0.254462,-0.0188325,27,0.0142493,10,-4.79215e-06,-4.72509,-0.108084,-0.545869,0.401107,0.254462,
2,1,0,1,0,51910.1,0.253293,0.252901,-0.0198828,27,0.0142083,10,-5.02837e-06,-4.70152,-0.12914,-0.45687,0.350948,0.252901,
2,0,0,1,0,51911.6,0.251795,0.251483,-0.020092,27,0.0141664,10,-5.05279e-06,-4.69698,-0.103771,-0.568561,0.444964,0.251483,
2,0,0,1,0,51913.1,0.250297,0.249926,-0.0205375,27,0.0141236,10,-5.13286e-06,-4.68745,-0.0961404,-0.613686,0.49651,0.249926,
2,0,0,1,0,51914.6,0.248799,0.248417,-0.0211835,27,0.0140796,10,-5.26235e-06,-4.674,-0.113981,-0.517631,0.435981,0.248417,
2,0,0,1,0,51916.1,0.247301,0.246921,-0.0222162,27,0.0140348,10,-5.48565e-06,-4.65333,-0.103116,-0.572173,0.498806,0.246921,
2,0,0,1,0,51917.6,0.245802,0.245507,-0.0231116,27,0.0139888,10,-5.67405e-06,-4.63617,-0.115197,-0.512165,0.453027,0.245507,
2,0,0,1,0,51919.1,0.244304,0.243931,-0.0238513,27,0.0139414,10,-5.81807e-06,-4.62249,-0.131657,-0.448134,0.409098,0.243931,
2,0,0,1,0,51920.6,0.242806,0.24244,-0.024087,27,0.0138933,10,-5.83966e-06,-4.61822,-0.129671,-0.454999,0.428012,0.24244,
2,0,0,1,0,51922.1,0.241308,0.24096,-0.0246949,27,0.0138444,10,-5.95047e-06,-4.60739,-0.180103,-0.32759,0.312512,0.24096,
2,0,0,1,0,51923.6,0.23981,0.239482,-0.0252721,27,0.0137945,10,-6.05222e-06,-4.59736,-0.146489,-0.402759,0.394915,0.239482,
2,0,0,1,0,51925.1,0.238312,0.237976,-0.02556,27,0.0137441,10,-6.08265e-06,-4.59244,-0.176234,-0.334781,0.335293,0.237976,
2,0,0,1,0,51926.6,0.236813,0.236411,-0.0262004,27,0.0136926,10,-6.19408e-06,-4.58169,-0.199048,-0.296411,0.30482,0.236411,
2,0,0,1,0,51928.1,0.235315,0.234996,-0.0266536,27,0.0136405,10,-6.26348e-06,-4.57424,-0.207853,-0.283855,0.296447,0.234996,
2,0,0,1,0,51929.6,0.233817,0.233455,-0.027065,27,0.0135875,10,-6.31846e-06,-4.56759,-0.145567,-0.405313,0.430422,0.233455,
2,0,0,1,0,51931.1,0.232319,0.231938,-0.0280228,27,0.0135335,10,-6.49955e-06,-4.55249,-0.152611,-0.386605,0.422098,0.231938,
2,0,0,1,0,51932.6,0.230821,0.230453,-0.0288124,27,0.0134783,10,-6.6399e-06,-4.54042,-0.17601,-0.335209,0.372214,0.230453,
2,0,0,1,0,51934.1,0.229322,0.228971,-0.0290346,27,0.0134223,10,-6.64808e-06,-4.53708,-0.208028,-0.283616,0.321859,0.228971,
2,0,0,1,0,51935.6,0.227824,0.227518,-0.0298024,27,0.0133656,10,-6.78058e-06,-4.52575,-0.25137,-0.234714,0.272079,0.227518,
2,0,0,1,0,51937.1,0.226326,0.225992,-0.0299511,27,0.0133078,10,-6.7687e-06,-4.52359,-0.226183,-0.260851,0.307025,0.225992,
2,0,0,1,0,51938.6,0.224828,0.22446,-0.0306767,27,0.0132495,10,-6.88569e-06,-4.51319,-0.480465,-0.122798,0.147401,0.22446,
2,0,0,1,0,51940.1,0.22333,0.222999,-0.0310952,27,0.0131904,10,-6.93421e-06,-4.50731,-0.198682,-0.296957,0.362179,0.222999,
2,0,0,1,0,51941.6,0.221831,0.22148,-0.0320273,27,0.0131307,10,-7.09341e-06,-4.49448,-0.184931,-0.319038,0.394327,0.22148,
2,0,0,1,0,51943.1,0.220333,0.220012,-0.0324062,27,0.0130698,10,-7.12977e-06,-4.48937,-0.212501,-0.277646,0.347498,0.220012,
2,0,0,1,0,51944.6,0.218835,0.218511,-0.0328185,27,0.013008,10,-7.1712e-06,-4.48388,-0.230217,-0.25628,0.330717,0.218511,
2,0,0,1,0,51946.1,0.217337,0.217002,-0.0336086,27,0.0129455,10,-7.29312e-06,-4.47355,-0.234525,-0.251572,0.327629,0.2170018,
2,0,0,1,0,51947.6,0.215839,0.215479,-0.0338323,27,0.0128823,10,-7.29016e-06,-4.47067,-0.169817,-0.347432,0.464101,0.215479,
2,0,0,1,0,51949.1,0.21434,0.214025,-0.0343636,27,0.0128181,10,-7.35467e-06,-4.4639,-0.161067,-0.366306,0.491137,0.214025,
2,0,0,1,0,51950.6,0.212842,0.212475,-0.0348994,27,0.0127528,10,-7.41526e-06,-4.45718,-0.310148,-0.190232,0.260418,0.212475,
2,0,0,1,0,51952.1,0.211344,0.210995,-0.0352452,27,0.0126871,10,-7.43654e-06,-4.4529,-0.252268,-0.233878,0.323743,0.210995,
2,0,0,1,0,51953.6,0.209846,0.209533,-0.0355422,27,0.0126206,10,-7.44728e-06,-4.44926,-0.180224,-0.32737,0.457205,0.209533,
2,0,0,1,0,51955.1,0.208348,0.208004,-0.0364625,27,0.0125532,10,-7.58436e-06,-4.43815,-0.254053,-0.232235,0.332132,0.2080043,
2,0,0,1,0,51956.6,0.20685,0.206507,-0.0372239,27,0.012485,10,-7.68699e-06,-4.42918,-0.162554,-0.362957,0.526088,0.206507,
2,0,0,1,0,51958.1,0.205351,0.205021,-0.0380408,27,0.0124154,10,-7.79919e-06,-4.41975,-0.233067,-0.253146,0.371442,0.2050214,
2,0,0,1,0,51959.6,0.203853,0.203519,-0.0380942,27,0.0123449,10,-7.75288e-06,-4.41914,-0.234253,-0.251865,0.378433,0.203519,
2,0,0,1,0,51961.1,0.202355,0.202032,-0.0388726,27,0.0122739,10,-7.85351e-06,-4.41036,-0.191327,-0.308373,0.473205,0.202032,
2,0,0,1,0,51962.6,0.200857,0.200509,-0.0399025,27,0.0122013,10,-8.00082e-06,-4.399,-0.21328,-0.276631,0.429384,0.200509,
2,0,0,1,0,51964.1,0.199359,0.198982,-0.0403196,27,0.0121277,10,-8.0229e-06,-4.39448,-0.320617,-0.18402,0.288801,0.198982,
2,0,0,1,0,51965.6,0.19786,0.197535,-0.0409601,27,0.0120535,10,-8.09104e-06,-4.38764,-0.332412,-0.17749,0.282471,0.197535,
2,0,0,1,0,51967.1,0.196362,0.196016,-0.0415322,27,0.0119786,10,-8.14099e-06,-4.38161,-0.237467,-0.248456,0.399296,0.196016,
2,0,0,1,0,51968.6,0.194864,0.194499,-0.0419681,27,0.0119026,10,-8.16275e-06,-4.37708,-0.250842,-0.235208,0.383419,0.194499,
2,0,0,1,0,51970.1,0.193366,0.192994,-0.0422044,27,0.0118257,10,-8.14521e-06,-4.37464,-0.482162,-0.122366,0.203314,0.192994,
2,0,0,1,0,51971.6,0.191868,0.1915,-0.0429673,27,0.0117484,10,-8.22824e-06,-4.36686,-0.327809,-0.179983,0.304096,0.1915,
2,0,0,1,0,51973.1,0.190369,0.190005,-0.0434486,27,0.0116702,10,-8.25544e-06,-4.36202,-0.227154,-0.259736,0.441783,0.190005,
2,0,0,1,0,51974.5,0.188871,0.188518,-0.044258,27,0.011591,10,-8.34344e-06,-4.35401,-0.204312,-0.288775,0.499296,0.188518,
2,0,0,1,0,51976,0.187373,0.187001,-0.0449209,27,0.0115108,10,-8.40024e-06,-4.34755,-0.228969,-0.257677,0.451454,0.187001,
2,0,0,1,0,51977.5,0.185875,0.185551,-0.0452997,27,0.0114294,10,-8.40541e-06,-4.3439,-0.362975,-0.162546,0.285256,0.185551,
2,0,0,1,0,51979,0.184377,0.184054,-0.0455127,27,0.0113473,10,-8.37679e-06,-4.34187,-0.289044,-0.204121,0.366136,0.184054,
2,0,0,1,0,51980.5,0.182878,0.182561,-0.0467649,27,0.0112646,10,-8.53743e-06,-4.33008,-0.30721,-0.192051,0.348831,0.182561,
2,0,0,1,0,51982,0.18138,0.18108,-0.0472988,27,0.0111805,10,-8.56488e-06,-4.32515,-0.280029,-0.210693,0.387994,0.18108,
2,0,0,1,0,51983.5,0.179882,0.179494,-0.0478144,27,0.0110954,10,-8.5824e-06,-4.32044,-0.210516,-0.280264,0.523844,0.179494,
2,0,0,1,0,51985,0.178384,0.178041,-0.048609,27,0.0110092,10,-8.65442e-06,-4.31328,-0.250596,-0.235439,0.45001,0.1780415,
2,0,0,1,0,51986.5,0.176886,0.176553,-0.0497826,27,0.0109219,10,-8.78926e-06,-4.30292,-0.199026,-0.296444,0.573385,0.1765527,
2,0,0,1,0,51988,0.175388,0.175032,-0.0504992,27,0.0108332,10,-8.83898e-06,-4.29672,-0.187183,-0.315199,0.622467,0.175032,
2,0,0,1,0,51989.5,0.173889,0.173505,-0.0514562,27,0.0107431,10,-8.92791e-06,-4.28856,-0.162057,-0.36407,0.730266,0.173505,
2,0,0,1,0,51991,0.172391,0.172046,-0.0519871,27,0.0106514,10,-8.94417e-06,-4.2841,-0.155041,-0.380546,0.775626,0.172046,
2,0,0,1,0,51992.5,0.170893,0.17052,-0.0534125,27,0.0105584,10,-9.10789e-06,-4.27236,-0.206484,-0.285736,0.591901,0.17052,
2,0,0,1,0,51994,0.169395,0.169018,-0.053776,27,0.0104638,10,-9.08914e-06,-4.26941,-0.216106,-0.273014,0.576729,0.1690184,
2,0,0,1,0,51995.5,0.167897,0.167569,-0.0548756,27,0.0103677,10,-9.19544e-06,-4.26062,-0.231701,-0.254638,0.547931,0.167569,
2,0,0,1,0,51997,0.166398,0.166031,-0.0555664,27,0.0102706,10,-9.22576e-06,-4.25519,-0.254115,-0.232179,0.509835,0.166031,
2,0,0,1,0,51998.5,0.1649,0.164541,-0.0568814,27,0.0101721,10,-9.35934e-06,-4.24503,-0.166571,-0.354203,0.786696,0.164541,
2,0,0,1,0,52000,0.163402,0.163077,-0.0577178,27,0.0100718,10,-9.41244e-06,-4.23869,-0.153096,-0.385378,0.875177,0.163077,
2,0,0,1,0,52001.5,0.161904,0.161579,-0.0595429,27,0.00996956,10,-9.62085e-06,-4.22517,-0.137595,-0.428795,0.990465,0.161579,
2,0,0,1,0,52003,0.160406,0.160013,-0.060826,27,0.00986518,10,-9.73297e-06,-4.21591,-0.161223,-0.365953,0.86491,0.160013,
2,0,0,1,0,52004.5,0.158907,0.158575,-0.0616513,27,0.00975883,10,-9.77638e-06,-4.21006,-0.15924,-0.370511,0.897738,0.158575,
2,0,0,1,0,52006,0.157409,0.157109,-0.0635984,27,0.00965028,10,-9.99188e-06,-4.19655,-0.126652,-0.465845,1.16183,0.157109,
2,0,0,1,0,52007.5,0.155911,0.15557,-0.0650812,27,0.00953887,10,-1.01247e-05,-4.18654,-0.120319,-0.490361,1.25213,0.15557,
2,0,0,1,0,52009,0.154413,0.15408,-0.066499,27,0.00942476,10,-1.02462e-05,-4.17719,-0.143662,-0.410685,1.07481,0.15408,
2,0,0,1,0,52010.5,0.152915,0.152577,-0.0685317,27,0.00930821,10,-1.04564e-05,-4.16411,-0.122814,-0.480403,1.29691,0.152577,
2,0,0,1,0,52012,0.151417,0.151077,-0.0706041,27,0.00918918,10,-1.06667e-05,-4.15117,-0.119936,-0.491929,1.36576,0.151077,
2,0,0,1,0,52013.5,0.149918,0.149574,-0.073383,27,0.0090663,10,-1.09762e-05,-4.1344,-0.105375,-0.559905,1.59333,0.149574,
2,0,0,1,0,52015,0.14842,0.148048,-0.0753974,27,0.0089401,10,-1.11624e-05,-4.12264,-0.0946745,-0.623188,1.84377,0.1480478,
2,0,0,1,0,52016.5,0.146922,0.146598,-0.0779741,27,0.00880998,10,-1.14309e-05,-4.10805,-0.102245,-0.577045,1.7465,0.146598,
2,0,0,1,0,52018,0.145424,0.145089,-0.080895,27,0.00867568,10,-1.1737e-05,-4.09208,-0.0939456,-0.628023,1.98009,0.1450893,
2,0,0,1,0,52019.5,0.143926,0.143585,-0.0835551,27,0.00853712,10,-1.19972e-05,-4.07803,-0.0874447,-0.674712,2.20667,0.143585,
2,0,0,1,0,52021,0.142427,0.142083,-0.0872752,27,0.008393,10,-1.24003e-05,-4.05911,-0.0775638,-0.760664,2.59583,0.142083,
2,0,0,1,0,52022.5,0.140929,0.14057,-0.0911261,27,0.00824364,10,-1.28096e-05,-4.04036,-0.0841363,-0.701243,2.5028,0.14057,
2,0,0,1,0,52024,0.139431,0.139045,-0.0946014,27,0.00808855,10,-1.31538e-05,-4.0241,-0.0816006,-0.723034,2.68875,0.139045,
2,0,0,1,0,52025.5,0.137933,0.137626,-0.0992556,27,0.00792703,10,-1.36602e-05,-4.00324,-0.0750976,-0.785645,3.02874,0.137626,
2,0,0,1,0,52027,0.136435,0.136043,-0.103724,27,0.0077587,10,-1.41109e-05,-3.98412,-0.0799132,-0.738301,2.99189,0.136043,
2,0,0,1,0,52028.5,0.134936,0.134611,-0.108538,27,0.00758392,10,-1.46105e-05,-3.96442,-0.0813824,-0.724973,3.05676,0.134611,
2,0,0,1,0,52030,0.133438,0.133103,-0.112334,27,0.00740226,10,-1.49521e-05,-3.94949,-0.0870144,-0.678049,2.97502,0.133103,
2,0,0,1,0,52031.5,0.13194,0.131582,-0.117065,27,0.00721407,10,-1.54036e-05,-3.93157,-0.0936812,-0.629795,2.87475,0.131582,
2,0,0,1,0,52033,0.130442,0.130123,-0.120971,27,0.00701951,10,-1.57411e-05,-3.91732,-0.115692,-0.509974,2.40519,0.130123,
2,0,0,1,0,52034.5,0.128944,0.128604,-0.124678,27,0.00681901,10,-1.60342e-05,-3.90421,-0.136591,-0.431945,2.09315,0.128604,
2,0,0,1,0,52036,0.127445,0.127124,-0.128104,27,0.00661322,10,-1.62851e-05,-3.89244,-0.143475,-0.41122,2.04498,0.127124,
2,0,0,1,0,52037.5,0.125947,0.125584,-0.131004,27,0.0064033,10,-1.64521e-05,-3.88271,-0.180457,-0.326948,1.66512,0.125584,
2,0,0,1,0,52039,0.124449,0.1241,-0.133179,27,0.00618955,10,-1.65275e-05,-3.87556,-0.229917,-0.256614,1.32541,0.1241,
2,0,0,1,0,52040.5,0.122951,0.122575,-0.134737,27,0.00597255,10,-1.65154e-05,-3.87051,-0.297158,-0.198548,1.03867,0.122575,
2,0,0,1,0,52042,0.121453,0.121133,-0.136274,27,0.0057533,10,-1.65072e-05,-3.86559,-0.440117,-0.134055,0.709768,0.121133,
2,0,0,1,0,52043.5,0.119955,0.1196,-0.136235,27,0.0055328,10,-1.62938e-05,-3.86571,-0.549451,-0.10738,0.573537,0.1196,
2,0,0,1,0,52045,0.118456,0.118157,-0.137505,27,0.00531095,10,-1.62472e-05,-3.86168,-0.496339,-0.11887,0.636443,0.118157,
2,0,0,1,0,52046.5,0.116958,0.116594,-0.138511,27,0.00508785,10,-1.61495e-05,-3.85852,-1.15569,-0.0510516,0.275032,0.116594,
2,0,0,1,0,52048,0.11546,0.11509,-0.138191,27,0.00486426,10,-1.59044e-05,-3.85952,-9.31329,-0.00633503,0.0342776,0.11509,
2,0,0,1,0,52049.5,0.113962,0.113592,-0.137363,27,0.00464082,10,-1.56033e-05,-3.86213,-2.25801,-0.0261293,0.141135,0.113592,
2,0,0,1,0,52051,0.112464,0.112104,-0.139061,27,0.0044172,10,-1.55894e-05,-3.85679,-3.51088,-0.0168049,0.0907077,0.112104,
2,0,0,1,0,52052.5,0.110965,0.110639,-0.139203,27,0.00419275,10,-1.54012e-05,-3.85635,24.9304,0.00236659,-0.0128006,0.110639,
2,0,0,1,0,52054,0.109467,0.10911,-0.138818,27,0.00396868,10,-1.51464e-05,-3.85755,1.97548,0.0298661,-0.161591,0.10911,
2,0,0,1,0,52055.5,0.107969,0.10759,-0.13841,27,0.00374464,10,-1.48916e-05,-3.85883,-5.43774,-0.0108501,0.058744,0.1075901,
2,0,0,1,0,52056.9,0.106471,0.106124,-0.138506,27,0.00352099,10,-1.46987e-05,-3.85853,-5.83087,-0.0101186,0.0548661,0.1061236,
2,0,0,1,0,52058.4,0.104973,0.104634,-0.138281,27,0.003297,10,-1.44688e-05,-3.85924,2.55027,0.0231348,-0.125102,0.104634,
2,0,0,1,0,52059.9,0.103474,0.103155,-0.138441,27,0.00307316,10,-1.4281e-05,-3.85873,0.773287,0.0762977,-0.411337,0.103155,
2,0,0,1,0,52061.4,0.101976,0.101635,-0.137649,27,0.00285008,10,-1.39899e-05,-3.86123,1.64369,0.0358947,-0.193178,0.101635,
2,0,0,1,0,52062.9,0.100478,0.10017,-0.136974,27,0.00262816,10,-1.37208e-05,-3.86336,1.03947,0.0567598,-0.304589,0.10017,
2,0,0,1,0,52064.4,0.0989798,0.0986572,-0.137183,27,0.00240637,10,-1.35341e-05,-3.8627,4.00415,0.0147347,-0.0787494,0.0986572,
2,0,0,1,0,52065.9,0.0974816,0.0971556,-0.136696,27,0.00218512,10,-1.32808e-05,-3.86424,0.869743,0.0678362,-0.361481,0.0971556,
2,0,0,1,0,52067.4,0.0959834,0.0956785,-0.136191,27,0.00196425,10,-1.30305e-05,-3.86585,0.604783,0.0975557,-0.51902,0.0956785,
2,0,0,1,0,52068.9,0.0944852,0.0941218,-0.134977,27,0.00174526,10,-1.27043e-05,-3.86974,0.45864,0.128641,-0.680288,0.0941218,
2,0,0,1,0,52070.4,0.0929871,0.092632,-0.134362,27,0.00152713,10,-1.24462e-05,-3.87172,0.927049,0.0636428,-0.333028,0.092632,
2,0,0,1,0,52071.9,0.0914889,0.0911602,-0.133863,27,0.00131033,10,-1.22029e-05,-3.87334,0.480127,0.122884,-0.642184,0.0911602,
2,0,0,1,0,52073.4,0.0899907,0.0896236,-0.132861,27,0.00109482,10,-1.19075e-05,-3.8766,0.647446,0.0911273,-0.471984,0.0896236,
2,0,0,1,0,52074.9,0.0884925,0.0881677,-0.131235,27,0.000880748,10,-1.15707e-05,-3.88195,0.55403,0.106492,-0.548232,0.0881677,
2,0,0,1,0,52076.4,0.0869943,0.0866577,-0.131289,27,0.000668015,10,-1.13772e-05,-3.88177,0.478472,0.123309,-0.629668,0.0866577,
2,0,0,1,0,52077.9,0.0854961,0.0851434,-0.130524,27,0.000456155,10,-1.11132e-05,-3.88431,0.528405,0.111657,-0.566399,0.0851434,
2,0,0,1,0,52079.4,0.083998,0.0836727,-0.129525,27,0.000245699,10,-1.08377e-05,-3.88765,0.447888,0.131729,-0.664451,0.0836727,
2,0,0,1,0,52080.9,0.0824998,0.0821829,-0.128523,27,3.65582e-05,10,-1.05624e-05,-3.89102,0.47624,0.123887,-0.622681,0.0821829,
2,0,0,1,0,52082.4,0.0810016,0.080658,-0.127713,27,-0.000171141,10,-1.03011e-05,-3.89376,0.50126,0.117703,-0.587195,0.080658,
2,0,0,1,0,52083.9,0.0795034,0.079184,-0.126967,27,-0.000377652,10,-1.00537e-05,-3.89631,0.439501,0.134243,-0.66471,0.079184,
2,0,0,1,0,52085.4,0.0780052,0.0776295,-0.12595,27,-0.000583225,10,-9.77739e-06,-3.8998,0.573131,0.102943,-0.504885,0.0776295,
2,0,0,1,0,52086.9,0.076507,0.0761342,-0.125071,27,-0.000787364,10,-9.52215e-06,-3.90285,0.563582,0.104687,-0.511317,0.0761342,
2,0,0,1,0,52088.4,0.0750088,0.0746857,-0.124003,27,-0.000989515,10,-9.26126e-06,-3.90657,0.484973,0.121656,-0.591445,0.0746857,
2,0,0,1,0,52089.9,0.0735106,0.0731746,-0.123886,27,-0.00119098,10,-9.06532e-06,-3.90698,0.755834,0.0780595,-0.375351,0.0731746,
2,0,0,1,0,52091.4,0.0720124,0.0716392,-0.123544,27,-0.00139188,10,-8.85058e-06,-3.90818,1.02205,0.057727,-0.277528,0.0716392,
2,0,0,1,0,52092.9,0.0705142,0.070162,-0.122263,27,-0.00159154,10,-8.5782e-06,-3.91271,0.741819,0.0795343,-0.381545,0.070162,
2,0,0,1,0,52094.4,0.069016,0.0686976,-0.12165,27,-0.00178987,10,-8.35705e-06,-3.91489,0.981421,0.0601169,-0.28621,0.0686976,
2,0,0,1,0,52095.9,0.0675178,0.0671917,-0.121454,27,-0.00198793,10,-8.1607e-06,-3.91559,2.05131,0.0287621,-0.135894,0.06719175,
2,0,0,1,0,52097.4,0.0660196,0.0657114,-0.121273,27,-0.0021854,10,-7.96902e-06,-3.91624,0.564418,0.104532,-0.491666,0.0657114,
2,0,0,1,0,52098.9,0.0645214,0.0641876,-0.120275,27,-0.00238184,10,-7.72016e-06,-3.91982,0.518488,0.113792,-0.533172,0.0641876,
2,0,0,1,0,52100.4,0.0630233,0.0626236,-0.118948,27,-0.00257699,10,-7.44898e-06,-3.92464,1.01328,0.0582265,-0.271771,0.0626236,
2,0,0,1,0,52101.9,0.0615251,0.0612027,-0.118829,27,-0.00277109,10,-7.27267e-06,-3.92508,0.714056,0.0826266,-0.384008,0.0612027,
2,0,0,1,0,52103.4,0.0600269,0.059664,-0.118513,27,-0.00296473,10,-7.07096e-06,-3.92623,0.539909,0.109278,-0.505742,0.05966403,
2,0,0,1,0,52104.9,0.0585287,0.0581667,-0.117907,27,-0.00315725,10,-6.85827e-06,-3.92846,0.425022,0.138816,-0.636912,0.05816669,
2,0,0,1,0,52106.4,0.0570305,0.0566715,-0.117044,27,-0.00334875,10,-6.63305e-06,-3.93165,0.690576,0.085436,-0.390923,0.0566715,
2,0,0,1,0,52107.9,0.0555323,0.0551912,-0.116805,27,-0.00353913,10,-6.44659e-06,-3.93254,0.795631,0.074155,-0.337937,0.0551912,
2,0,0,1,0,52109.4,0.0540342,0.0537258,-0.11611,27,-0.00372911,10,-6.23809e-06,-3.93513,1.44705,0.0407725,-0.184152,0.0537258,
2,0,0,1,0,52110.9,0.052536,0.0521722,-0.115727,27,-0.00391862,10,-6.03776e-06,-3.93656,0.718234,0.082146,-0.370162,0.0521722,
2,0,0,1,0,52112.4,0.0510378,0.0506962,-0.115355,27,-0.00410695,10,-5.84804e-06,-3.93797,0.457029,0.129095,-0.578371,0.0506962,
2,0,0,1,0,52113.9,0.0495396,0.0492562,-0.11424,27,-0.00429399,10,-5.62702e-06,-3.94218,0.640523,0.0921122,-0.411067,0.0492562,
2,0,0,1,0,52115.4,0.0480414,0.0476836,-0.113608,27,-0.00448028,10,-5.41723e-06,-3.94459,1.259,0.0468625,-0.207936,0.0476836,
2,0,0,1,0,52116.9,0.0465432,0.0461979,-0.112912,27,-0.00466566,10,-5.21631e-06,-3.94726,0.658407,0.0896103,-0.396481,0.0461979,
2,0,0,1,0,52118.4,0.045045,0.0446762,-0.112447,27,-0.00485021,10,-5.02373e-06,-3.94905,0.572105,0.103128,-0.452421,0.0446762,
2,0,0,1,0,52119.9,0.0435468,0.0432192,-0.111618,27,-0.00503356,10,-4.82406e-06,-3.95226,0.606797,0.0972318,-0.425351,0.04321922,
2,0,0,1,0,52121.4,0.0420486,0.0417346,-0.111557,27,-0.00521594,10,-4.6558e-06,-3.9525,1.1286,0.0522773,-0.227051,0.0417346,
2,0,0,1,0,52122.9,0.0405504,0.0401864,-0.111707,27,-0.00539792,10,-4.4891e-06,-3.95192,1.11084,0.0531128,-0.230015,0.0401864,
2,0,0,1,0,52124.4,0.0390522,0.0387061,-0.110687,27,-0.00557941,10,-4.28426e-06,-3.9559,0.901266,0.0654635,-0.281819,0.0387061,
2,0,0,1,0,52125.9,0.037554,0.0372236,-0.109714,27,-0.0057598,10,-4.08395e-06,-3.95974,0.578275,0.102028,-0.437657,0.0372236,
2,0,0,1,0,52127.4,0.0360558,0.0357051,-0.108928,27,-0.00593909,10,-3.88929e-06,-3.96286,0.546912,0.107878,-0.460678,0.0357051,
2,0,0,1,0,52128.9,0.0345576,0.0342619,-0.108182,27,-0.00611781,10,-3.70651e-06,-3.96585,0.922539,0.063954,-0.270901,0.0342619,
2,0,0,1,0,52130.4,0.0330594,0.0327869,-0.108284,27,-0.00629532,10,-3.55031e-06,-3.96543,0.422526,0.139636,-0.58916,0.03278688,
2,0,0,1,0,52131.9,0.0315613,0.0312377,-0.107561,27,-0.00647219,10,-3.35995e-06,-3.96835,0.920539,0.0640929,-0.26893,0.0312377,
2,0,0,1,0,52133.4,0.0300631,0.029698,-0.107645,27,-0.00664798,10,-3.19684e-06,-3.96801,1.14049,0.0517321,-0.216869,0.029698,
2,0,0,1,0,52134.9,0.0285649,0.0282166,-0.106983,27,-0.00682386,10,-3.01869e-06,-3.97069,2.16949,0.0271954,-0.113201,0.0282166,
2,0,0,1,0,52136.4,0.0270667,0.0267224,-0.106528,27,-0.00699899,10,-2.84668e-06,-3.97254,1.4286,0.0412991,-0.1717,0.0267224,
2,0,0,1,0,52137.9,0.0255685,0.0252347,-0.10641,27,-0.00717357,10,-2.68523e-06,-3.97302,1.42082,0.0415254,-0.172343,0.0252347,
2,0,0,1,0,52139.4,0.0240703,0.0237396,-0.106113,27,-0.00734738,10,-2.51909e-06,-3.97423,7.34426,0.00803349,-0.033341,0.0237396,
2,0,0,1,0,52140.8,0.0225722,0.0222455,-0.105695,27,-0.00752139,10,-2.35124e-06,-3.97594,-61.6351,-0.000957247,0.00395195,0.0222455,
2,0,0,1,0,52142.3,0.021074,0.0207249,-0.105431,27,-0.00769507,10,-2.18504e-06,-3.97703,1.08575,0.0543403,-0.2254,0.0207249,
2,0,0,1,0,52143.8,0.0195758,0.0192392,-0.105232,27,-0.0078684,10,-2.02459e-06,-3.97785,13.8568,0.00425783,-0.0175651,0.0192392,
2,0,0,1,0,52145.3,0.0180776,0.017707,-0.105304,27,-0.00804144,10,-1.8646e-06,-3.97756,-7.38581,-0.00798829,0.0329519,0.017707,
2,0,0,1,0,52146.8,0.0165794,0.0162447,-0.105576,27,-0.00821438,10,-1.71505e-06,-3.97643,19.0434,0.00309819,-0.0127718,0.0162447,
2,0,0,1,0,52148.3,0.0150812,0.0147505,-0.106192,27,-0.00838768,10,-1.56639e-06,-3.97391,4.35762,0.0135395,-0.0558432,0.0147505,
2,0,0,1,0,52149.8,0.013583,0.0132299,-0.105649,27,-0.00856096,10,-1.39772e-06,-3.97613,102.874,0.000573515,-0.00236479,0.0132299,
2,0,0,1,0,52151.3,0.0120848,0.0117304,-0.105386,27,-0.00873428,10,-1.23622e-06,-3.97722,-1.87434,-0.0314778,0.130176,0.0117304,
2,0,0,1,0,52152.8,0.0105866,0.0102681,-0.106142,27,-0.00890744,10,-1.08988e-06,-3.97411,-0.946172,-0.0623565,0.259482,0.0102681,
2,0,0,1,0,52154.3,0.00908843,0.00874222,-0.10659,27,-0.00908138,10,-9.31836e-07,-3.97228,-1.06182,-0.0555647,0.23131,0.00874222,
2,0,0,1,0,52155.8,0.00759024,0.0072757,-0.107388,27,-0.00925664,10,-7.81321e-07,-3.96905,-0.838575,-0.0703575,0.293704,0.0072757,
2,0,0,1,0,52157.3,0.00609203,0.0057232,-0.107897,27,-0.00943209,10,-6.17517e-07,-3.96699,-0.994097,-0.0593503,0.249538,0.0057232,
2,0,0,1,0,52158.8,0.00459384,0.00422377,-0.108401,27,-0.00960811,10,-4.57863e-07,-3.96497,-0.494774,-0.119246,0.503969,0.00422377,
2,0,0,1,0,52160.3,0.00309563,0.00272542,-0.109227,27,-0.00978526,10,-2.97689e-07,-3.96167,-0.318016,-0.185525,0.789068,0.00272542,
2,0,0,1,0,52161.8,0.00159744,0.00118572,-0.110371,27,-0.00996589,10,-1.30869e-07,-3.95715, , , ,0.00118572,
2,0,0,1,0,52163.2,0.000199235,-0.000180243,-0.110619,27,-0.0101337,10,1.99383e-08,-3.95617, , , ,-0.000180243,