File: Figure_codes/Fig_3-5/rawdata_trumpetplot_data/after 10th/20221101_1-115_003_TrumpetPlot_ParaChange_from10_every3_04_CV_C01_21.csv
mode,ox/red,error,control changes,counter inc.,time/s,control/V,Ewe/V,<I>/mA,cycle number,(Q-Qo)/C,I Range,P/W,log(|I|),Tafel slope mV/dec,alpha_eff,dI/d(E-IR),E-IR/V,
2,0,0,1,0,42432.8,2.44065e-05,-0.000344411,-0.37734,22,0.0000000E+000,10,1.2996e-07,-3.42327, , , ,-0.000344411,
2,1,0,1,0,42432.9,0.00129787,0.000937621,0.119804,22,-3.8665e-06,10,1.12331e-07,-3.92153, , , ,0.000937621,
2,1,0,1,0,42433,0.00279606,0.0024943,0.260995,22,2.90227e-05,10,6.50998e-07,-3.58337,0.00328325,17.97,73.0191,0.0024943,
2,1,0,1,0,42433.2,0.00429425,0.00397887,0.302457,22,7.38344e-05,10,1.20344e-06,-3.51934,0.0241178,2.44633,26.9877,0.00397887,
2,1,0,1,0,42433.3,0.00579244,0.00546556,0.330937,22,0.000123874,10,1.80876e-06,-3.48025,0.0430272,1.37123,17.4351,0.00546556,
2,1,0,1,0,42433.5,0.00729063,0.00698618,0.354659,22,0.00017764,10,2.47771e-06,-3.45019,0.0594636,0.992204,13.5774,0.00698618,
2,1,0,1,0,42433.6,0.00878882,0.00845484,0.373048,22,0.000234655,10,3.15406e-06,-3.42824,0.0735866,0.801776,11.583,0.00845484,
2,1,0,1,0,42433.8,0.010287,0.00995214,0.388687,22,0.000294128,10,3.86826e-06,-3.4104,0.096838,0.609265,9.19241,0.00995214,
2,1,0,1,0,42433.9,0.0117852,0.0114844,0.403296,22,0.000355858,10,4.63162e-06,-3.39438,0.106076,0.556204,8.74991,0.0114844,
2,1,0,1,0,42434.1,0.0132838,0.0129533,0.415284,22,0.000419485,10,5.37928e-06,-3.38165,0.109331,0.539644,8.769,0.0129533,
2,1,0,1,0,42434.2,0.0147814,0.0144097,0.42752,22,0.000485113,10,6.16042e-06,-3.36904,0.118756,0.496817,8.29791,0.0144097,
2,1,0,1,0,42434.4,0.0162789,0.0159371,0.438751,22,0.00055262,10,6.99242e-06,-3.35778,0.146612,0.402422,6.89049,0.0159371,
2,1,0,1,0,42434.5,0.017778,0.0174747,0.450426,22,0.000621757,10,7.87104e-06,-3.34638,0.151378,0.389752,6.8541,0.0174747,
2,1,0,1,0,42434.7,0.0192761,0.0189486,0.460146,22,0.000692192,10,8.71914e-06,-3.3371,0.151147,0.390347,7.03316,0.0189486,
2,1,0,1,0,42434.8,0.0207743,0.0204523,0.472602,22,0.000764359,10,9.66578e-06,-3.3255,0.134542,0.438526,8.05658,0.02045228,
2,1,0,1,0,42435,0.0222725,0.0219793,0.48239,22,0.000838236,10,1.06026e-05,-3.3166,0.154996,0.380654,7.15888,0.0219793,
2,1,0,1,0,42435.1,0.0237707,0.0234522,0.492805,22,0.000913627,10,1.15573e-05,-3.30733,0.16322,0.361476,6.93953,0.0234522,
2,1,0,1,0,42435.3,0.0252689,0.0249389,0.50112,22,0.000990353,10,1.24974e-05,-3.30006,0.171199,0.344628,6.77226,0.0249389,
2,1,0,1,0,42435.4,0.0267671,0.0264489,0.513043,22,0.00106866,10,1.35694e-05,-3.28985,0.160742,0.367049,7.3365,0.0264489,
2,1,0,1,0,42435.6,0.0282662,0.0279757,0.524322,22,0.0011487,10,1.46682e-05,-3.2804,0.165932,0.355567,7.27528,0.0279757,
2,1,0,1,0,42435.7,0.0297635,0.0294233,0.534512,22,0.00123018,10,1.57271e-05,-3.27204,0.199929,0.295104,6.1373,0.0294233,
2,1,0,1,0,42435.9,0.031261,0.0309772,0.541842,22,0.00131317,10,1.67847e-05,-3.26613,0.174531,0.338049,7.17501,0.0309772,
2,1,0,1,0,42436,0.0327599,0.0324115,0.552627,22,0.00139745,10,1.79115e-05,-3.25757,0.18082,0.326292,7.05101,0.0324115,
2,1,0,1,0,42436.2,0.034258,0.0339247,0.56366,22,0.00148348,10,1.9122e-05,-3.24898,0.183167,0.32211,7.08104,0.0339247,
2,1,0,1,0,42436.3,0.0357562,0.0354369,0.573955,22,0.00157106,10,2.03392e-05,-3.24112,0.22418,0.263181,5.88065,0.0354369,
2,1,0,1,0,42436.5,0.0372544,0.0368737,0.583728,22,0.00166012,10,2.15242e-05,-3.23379,0.213933,0.275787,6.29159,0.0368737,
2,1,0,1,0,42436.6,0.0387526,0.0384559,0.592762,22,0.00175044,10,2.27952e-05,-3.22712,0.19576,0.301389,6.99903,0.0384559,
2,1,0,1,0,42436.8,0.0402508,0.0399447,0.604087,22,0.00184245,10,2.413e-05,-3.2189,0.222255,0.265461,6.2596,0.0399447,
2,1,0,1,0,42436.9,0.041749,0.0414356,0.616095,22,0.00193626,10,2.55283e-05,-3.21035,0.212454,0.277707,6.62921,0.0414356,
2,1,0,1,0,42437.1,0.0432472,0.0429287,0.625763,22,0.00203143,10,2.68632e-05,-3.20359,0.222517,0.265148,6.45485,0.0429287,
2,1,0,1,0,42437.2,0.0447458,0.0444053,0.63297,22,0.00212792,10,2.81073e-05,-3.19862,0.211795,0.278572,6.8802,0.0444053,
2,1,0,1,0,42437.4,0.0462433,0.0459179,0.645224,22,0.00222595,10,2.96273e-05,-3.19029,0.209815,0.2812,7.05346,0.04591788,
2,1,0,1,0,42437.5,0.0477409,0.0474324,0.65358,22,0.00232554,10,3.10008e-05,-3.1847,0.21495,0.274483,7.00375,0.0474324,
2,1,0,1,0,42437.7,0.0492399,0.0489083,0.663214,22,0.00242662,10,3.24367e-05,-3.17835,0.260431,0.226547,5.86267,0.0489083,
2,1,0,1,0,42437.8,0.0507381,0.0503992,0.669362,22,0.00252884,10,3.37353e-05,-3.17434,0.253287,0.232938,6.11264,0.0503992,
2,1,0,1,0,42438,0.0522363,0.0518976,0.680684,22,0.00263237,10,3.53259e-05,-3.16705,0.243745,0.242056,6.43029,0.0518976,
2,1,0,1,0,42438.1,0.0537345,0.0533906,0.691785,22,0.00273744,10,3.69348e-05,-3.16003,0.273139,0.216007,5.81263,0.0533906,
2,1,0,1,0,42438.3,0.0552327,0.0549049,0.699745,22,0.0028439,10,3.84194e-05,-3.15506,0.329724,0.178938,4.87007,0.0549049,
2,1,0,1,0,42438.4,0.0567309,0.0563873,0.705015,22,0.00295148,10,3.97539e-05,-3.1518,0.320133,0.184298,5.08406,0.0563873,
2,1,0,1,0,42438.6,0.0582291,0.0579016,0.716352,22,0.00306002,10,4.14779e-05,-3.14487,0.305857,0.192901,5.37739,0.0579016,
2,1,0,1,0,42438.7,0.0597282,0.0594118,0.722754,22,0.00317009,10,4.29401e-05,-3.14101,0.285154,0.206906,5.83021,0.0594118,
2,1,0,1,0,42438.9,0.0612255,0.060878,0.73006,22,0.00328129,10,4.44446e-05,-3.13664,0.379276,0.15556,4.42535,0.060878,
2,1,0,1,0,42439,0.062723,0.0624097,0.738233,22,0.00339363,10,4.60729e-05,-3.13181,0.334373,0.176449,5.08773,0.0624097,
2,1,0,1,0,42439.2,0.0642218,0.0639067,0.743964,22,0.00350689,10,4.75442e-05,-3.12845,0.321643,0.183433,5.34053,0.0639067,
2,1,0,1,0,42439.3,0.06572,0.0654125,0.751184,22,0.00362147,10,4.91368e-05,-3.12425,0.305874,0.19289,5.66508,0.0654125,
2,1,0,1,0,42439.5,0.0672182,0.066879,0.761178,22,0.00373732,10,5.09068e-05,-3.11851,0.378896,0.155715,4.60802,0.066879,
2,1,0,1,0,42439.6,0.0687164,0.0683901,0.767302,22,0.00385421,10,5.24759e-05,-3.11503,0.537857,0.109695,3.28394,0.0683901,
2,1,0,1,0,42439.8,0.0702146,0.0699489,0.772841,22,0.00397167,10,5.40594e-05,-3.11191,0.457354,0.129003,3.88878,0.0699489,
2,1,0,1,0,42439.9,0.0717128,0.0713963,0.779025,22,0.00409026,10,5.56195e-05,-3.10845,0.373676,0.157891,4.79147,0.0713963,
2,1,0,1,0,42440.1,0.073211,0.0729212,0.785965,22,0.00420982,10,5.73135e-05,-3.1046,0.4545,0.129813,3.978,0.0729212,
2,1,0,1,0,42440.2,0.0747092,0.0743761,0.791251,22,0.00433034,10,5.88501e-05,-3.10169,0.524319,0.112527,3.47609,0.0743761,
2,1,0,1,0,42440.4,0.0762078,0.0758805,0.795509,22,0.00445153,10,6.03636e-05,-3.09935,0.512357,0.115154,3.58137,0.07588046,
2,1,0,1,0,42440.5,0.0777053,0.0773387,0.802174,22,0.00457352,10,6.20391e-05,-3.09573,0.479265,0.123105,3.85336,0.07733871,
2,1,0,1,0,42440.7,0.0792029,0.0788733,0.81028,22,0.00469642,10,6.39095e-05,-3.09136,0.424353,0.139035,4.38747,0.0788733,
2,1,0,1,0,42440.8,0.0807019,0.0803536,0.813983,22,0.00482039,10,6.54064e-05,-3.08938,0.584984,0.100857,3.19929,0.08035358,
2,1,0,1,0,42441,0.0822001,0.0818912,0.816742,22,0.00494501,10,6.6884e-05,-3.08792,0.540688,0.10912,3.49138,0.0818912,
2,1,0,1,0,42441.1,0.0836983,0.0833577,0.825055,22,0.00507028,10,6.87747e-05,-3.08352,0.489637,0.120498,3.87977,0.0833577,
2,1,0,1,0,42441.3,0.0851965,0.0848624,0.831795,22,0.0051966,10,7.05881e-05,-3.07998,0.438701,0.134488,4.35886,0.0848624,
2,1,0,1,0,42441.4,0.0866947,0.086382,0.838223,22,0.00532399,10,7.24074e-05,-3.07664,0.542722,0.108711,3.54984,0.086382,
2,1,0,1,0,42441.6,0.0881929,0.0878623,0.845243,22,0.00545235,10,7.4265e-05,-3.07302,0.432773,0.13633,4.49857,0.08786232,
2,1,0,1,0,42441.7,0.0896911,0.0894137,0.852425,22,0.00558164,10,7.62184e-05,-3.06934,0.362078,0.162948,5.43034,0.0894137,
2,1,0,1,0,42441.9,0.0911902,0.0908564,0.8629,22,0.00571243,10,7.84e-05,-3.06404,0.276848,0.213114,7.15942,0.0908564,
2,1,0,1,0,42442,0.0926875,0.0923394,0.873805,22,0.00584493,10,8.06866e-05,-3.05859,0.267452,0.220601,7.51663,0.0923394,
2,1,0,1,0,42442.2,0.094185,0.0938925,0.88375,22,0.00597884,10,8.29775e-05,-3.05367,0.295196,0.199867,6.8963,0.0938925,
2,1,0,1,0,42442.3,0.0956838,0.0953244,0.893643,22,0.00611437,10,8.5186e-05,-3.04884,0.238391,0.247492,8.6572,0.0953244,
2,1,0,1,0,42442.5,0.097182,0.096863,0.907297,22,0.00625177,10,8.78836e-05,-3.04225,0.199644,0.295527,10.476,0.096863,
2,1,0,1,0,42442.6,0.0986802,0.0983646,0.922359,22,0.0063913,10,9.07274e-05,-3.0351,0.222162,0.265572,9.57421,0.0983646,
2,1,0,1,0,42442.8,0.100178,0.0998555,0.936104,22,0.00653312,10,9.34751e-05,-3.02868,0.214314,0.275298,10.0812,0.0998555,
2,1,0,1,0,42442.9,0.101677,0.101346,0.951599,22,0.00667701,10,9.64411e-05,-3.02155,0.21396,0.275752,10.2735,0.101346,
2,1,0,1,0,42443.1,0.103175,0.102832,0.969298,22,0.00682331,10,9.9675e-05,-3.01354,0.194091,0.303981,11.5156,0.102832,
2,1,0,1,0,42443.2,0.104673,0.104342,0.988477,22,0.00697228,10,0.00010314,-3.00503,0.19816,0.297739,11.4707,0.1043421,
2,1,0,1,0,42443.4,0.106171,0.105862,1.0062,22,0.00712405,10,0.000106518,-2.99732,0.221138,0.266802,10.4423,0.105862,
2,1,0,1,0,42443.5,0.10767,0.107357,1.02144,22,0.00727827,10,0.00010966,-2.99079,0.228492,0.258215,10.2738,0.107357,
2,1,0,1,0,42443.7,0.109167,0.108827,1.03574,22,0.00743454,10,0.000112717,-2.98475,0.229666,0.256894,10.3994,0.108827,
2,1,0,1,0,42443.8,0.110665,0.110287,1.04994,22,0.00759323,10,0.000115795,-2.97883,0.244166,0.241639,9.90506,0.110287,
2,1,0,1,0,42444,0.112164,0.111819,1.06524,22,0.00775438,10,0.000119114,-2.97255,0.281876,0.209312,8.68855,0.111819,
2,1,0,1,0,42444.1,0.113662,0.113319,1.07943,22,0.00791735,10,0.000122321,-2.9668,0.326703,0.180592,7.58586,0.113319,
2,1,0,1,0,42444.3,0.11516,0.114791,1.08926,22,0.00808195,10,0.000125038,-2.96287,0.343216,0.171904,7.30428,0.114791,
2,1,0,1,0,42444.4,0.116658,0.116367,1.10037,22,0.00824833,10,0.000128046,-2.95846,0.337093,0.175026,7.50379,0.116367,
2,1,0,1,0,42444.6,0.118157,0.117847,1.11192,22,0.00841661,10,0.000131037,-2.95393,0.384524,0.153436,6.6417,0.117847,
2,1,0,1,0,42444.7,0.119655,0.119348,1.11973,22,0.0085861,10,0.000133638,-2.95089,0.611446,0.0964925,4.21374,0.1193479,
2,1,0,1,0,42444.9,0.121153,0.120816,1.12598,22,0.00875663,10,0.000136036,-2.94847,0.541015,0.109054,4.79536,0.120816,
2,1,0,1,0,42445,0.122652,0.122357,1.13289,22,0.00892828,10,0.000138616,-2.94581,0.460043,0.128249,5.6698,0.122357,
2,1,0,1,0,42445.2,0.124149,0.123797,1.14169,22,0.00910109,10,0.000141338,-2.94245,0.482041,0.122396,5.4438,0.1237973,
2,1,0,1,0,42445.3,0.125647,0.12535,1.14664,22,0.0092749,10,0.000143731,-2.94057,0.688151,0.085737,3.83397,0.12535,
2,1,0,1,0,42445.5,0.127146,0.126817,1.14839,22,0.0094497,10,0.000145635,-2.93991,0.731443,0.0806625,3.62565,0.126817,
2,1,0,1,0,42445.6,0.128644,0.128321,1.15643,22,0.00962488,10,0.000148395,-2.93688,0.889192,0.0663524,2.99549,0.128321,
2,1,0,1,0,42445.8,0.130142,0.129805,1.16316,22,0.00980099,10,0.000150983,-2.93436,1.27402,0.04631,2.09672,0.129805,
2,1,0,1,0,42445.9,0.13164,0.131337,1.16402,22,0.0099777,10,0.000152879,-2.93404,-8.58688,-0.00687095,-0.311047,0.131337,
2,1,0,1,0,42446.1,0.133139,0.132813,1.16358,22,0.0101545,10,0.000154538,-2.9342,-1.80602,-0.0326685,-1.48102,0.132813,
2,1,0,1,0,42446.2,0.134637,0.134341,1.15802,22,0.0103306,10,0.000155569,-2.93628,-0.680262,-0.0867313,-3.91423,0.134341,
2,1,0,1,0,42446.4,0.136135,0.135782,1.15159,22,0.0105061,10,0.000156366,-2.9387,-0.396904,-0.14865,-6.65539,0.135782,
2,1,0,1,0,42446.5,0.137633,0.137292,1.14019,22,0.0106802,10,0.000156538,-2.94302,-0.253925,-0.232352,-10.2872,0.1372921,
2,1,0,1,0,42446.7,0.139132,0.138797,1.12244,22,0.0108521,10,0.000155791,-2.94984,-0.185951,-0.317288,-13.812,0.138797,
2,1,0,1,0,42446.8,0.140629,0.140314,1.09552,22,0.0110205,10,0.000153717,-2.96038,-0.144689,-0.407772,-17.3803,0.140314,
2,1,0,1,0,42447,0.142127,0.141831,1.07071,22,0.011185,10,0.00015186,-2.97033,-0.130124,-0.453412,-18.8274,0.141831,
2,1,0,1,0,42447.1,0.143626,0.143321,1.03672,22,0.0113453,10,0.000148583,-2.98434,-0.101095,-0.583607,-23.4789,0.143321,
2,1,0,1,0,42447.3,0.145124,0.144786,0.997761,22,0.0115001,10,0.000144462,-3.00097,-0.082753,-0.712965,-27.6949,0.144786,
2,1,0,1,0,42447.4,0.146622,0.146289,0.951813,22,0.0116486,10,0.000139239,-3.02145,-0.0778051,-0.758305,-28.2232,0.146289,
2,1,0,1,0,42447.6,0.14812,0.147786,0.913866,22,0.0117908,10,0.000135057,-3.03912,-0.0769275,-0.766956,-27.3062,0.147786,
2,1,0,1,0,42447.7,0.149619,0.149269,0.872784,22,0.0119269,10,0.00013028,-3.05909,-0.0732586,-0.805366,-27.4195,0.1492694,
2,1,0,1,0,42447.9,0.151117,0.150806,0.833626,22,0.0120567,10,0.000125716,-3.07903,-0.0713712,-0.826664,-26.8717,0.150806,
2,1,0,1,0,42448,0.152615,0.152261,0.791212,22,0.0121807,10,0.000120471,-3.10171,-0.075816,-0.7782,-24.1514,0.152261,
2,1,0,1,0,42448.2,0.154114,0.153772,0.761643,22,0.0122992,10,0.000117119,-3.11825,-0.0819534,-0.719921,-21.4768,0.1537718,
2,1,0,1,0,42448.3,0.155612,0.155294,0.731973,22,0.0124131,10,0.000113671,-3.13551,-0.0907611,-0.650058,-18.5842,0.155294,
2,1,0,1,0,42448.5,0.157109,0.156782,0.703779,22,0.0125229,10,0.00011034,-3.15256,-0.0969144,-0.608785,-16.7837,0.156782,
2,1,0,1,0,42448.6,0.158608,0.158237,0.681718,22,0.0126291,10,0.000107873,-3.1664,-0.118586,-0.497531,-13.2959,0.158237,
2,1,0,1,0,42448.8,0.160106,0.159764,0.662537,22,0.0127319,10,0.00010585,-3.17879,-0.126849,-0.46512,-12.0737,0.159764,
2,1,0,1,0,42448.9,0.161604,0.161318,0.647084,22,0.0128322,10,0.000104386,-3.18904,-0.144107,-0.409419,-10.3412,0.161318,
2,1,0,1,0,42449.1,0.163102,0.162808,0.632455,22,0.0129303,10,0.000102968,-3.19897,-0.152154,-0.387764,-9.58059,0.162808,
2,1,0,1,0,42449.2,0.164601,0.164252,0.620176,22,0.0130263,10,0.000101865,-3.20749,-0.187139,-0.315274,-7.64002,0.164252,
2,1,0,1,0,42449.4,0.166099,0.165784,0.608745,22,0.0131205,10,0.00010092,-3.21556,-0.217281,-0.271538,-6.4684,0.165784,
2,1,0,1,0,42449.5,0.167597,0.167246,0.600924,22,0.0132133,10,0.000100502,-3.22118,-0.267729,-0.220372,-5.17012,0.167246,
2,1,0,1,0,42449.7,0.169095,0.168804,0.592242,22,0.013305,10,9.9973e-05,-3.2275,-0.284248,-0.207565,-4.80788,0.168804,
2,1,0,1,0,42449.8,0.170594,0.170305,0.585833,22,0.0133956,10,9.97706e-05,-3.23223,-0.287359,-0.205318,-4.70368,0.170305,
2,1,0,1,0,42450,0.172091,0.171805,0.577384,22,0.0134849,10,9.91975e-05,-3.23854,-0.32804,-0.179856,-4.07266,0.171805,
2,1,0,1,0,42450.1,0.173589,0.173228,0.573485,22,0.0135734,10,9.9344e-05,-3.24148,-0.378706,-0.155794,-3.4919,0.173228,
2,1,0,1,0,42450.3,0.175088,0.174799,0.568698,22,0.0136612,10,9.94077e-05,-3.24512,-0.445436,-0.132455,-2.93843,0.174799,
2,1,0,1,0,42450.4,0.176586,0.176263,0.564703,22,0.0137483,10,9.95362e-05,-3.24818,-0.401261,-0.147037,-3.23378,0.176263,
2,1,0,1,0,42450.6,0.178084,0.177715,0.558528,22,0.0138347,10,9.92587e-05,-3.25296,-0.463706,-0.127236,-2.78207,0.177715,
2,1,0,1,0,42450.7,0.179582,0.179297,0.556699,22,0.0139204,10,9.98145e-05,-3.25438,-0.687351,-0.0858368,-1.86901,0.179297,
2,1,0,1,0,42450.9,0.181081,0.180757,0.552079,22,0.0140058,10,9.97922e-05,-3.258,-0.552241,-0.106837,-2.31013,0.180757,
2,1,0,1,0,42451,0.182579,0.182302,0.550666,22,0.0140908,10,0.000100388,-3.25911,-0.479952,-0.122929,-2.64331,0.182302,
2,1,0,1,0,42451.2,0.184077,0.183765,0.54882,22,0.0141753,10,0.000100854,-3.26057,-0.663671,-0.0888994,-1.90267,0.183765,
2,1,0,1,0,42451.3,0.185576,0.18526,0.547463,22,0.0142593,10,0.000101423,-3.26165,-0.916222,-0.0643949,-1.37295,0.18526,
2,1,0,1,0,42451.5,0.187074,0.186724,0.543823,22,0.014343,10,0.000101545,-3.26454,-1.13762,-0.0518625,-1.09796,0.186724,
2,1,0,1,0,42451.6,0.188571,0.188262,0.542542,22,0.0144265,10,0.00010214,-3.26557,-1.55162,-0.0380247,-0.804032,0.188262,
2,1,0,1,0,42451.8,0.19007,0.189733,0.538431,22,0.0145097,10,0.000102158,-3.26887,-1.41882,-0.0415838,-0.875415,0.189733,
2,1,0,1,0,42451.9,0.191568,0.191234,0.537609,22,0.0145925,10,0.000102809,-3.26953,-1.23029,-0.0479563,-1.00656,0.191234,
2,1,0,1,0,42452.1,0.193066,0.192762,0.534347,22,0.0146751,10,0.000103002,-3.27218,-45.513,-0.00129633,-0.0270907,0.192762,
2,1,0,1,0,42452.2,0.194564,0.194238,0.535866,22,0.0147575,10,0.000104086,-3.27094,-0.926489,-0.0636813,-1.33005,0.194238,
2,1,0,1,0,42452.4,0.196063,0.195728,0.531547,22,0.0148397,10,0.000104038,-3.27446,-0.777018,-0.0759314,-1.58222,0.1957279,
2,1,0,1,0,42452.5,0.197561,0.197276,0.531125,22,0.0149216,10,0.000104778,-3.2748,-0.957801,-0.0615994,-1.27892,0.1972761,
2,1,0,1,0,42452.7,0.199059,0.198702,0.529359,22,0.0150032,10,0.000105185,-3.27625,-1.51865,-0.0388502,-0.803984,0.198702,
2,1,0,1,0,42452.8,0.200557,0.200185,0.53013,22,0.0150847,10,0.000106124,-3.27562,-2.55128,-0.0231257,-0.477198,0.200185,
2,1,0,1,0,42453,0.202056,0.201751,0.52819,22,0.0151661,10,0.000106563,-3.27721,-1.49941,-0.0393487,-0.809338,0.201751,
2,1,0,1,0,42453.1,0.203553,0.203282,0.525325,22,0.0152472,10,0.000106789,-3.27957,-2.42509,-0.0243289,-0.50051,0.203282,
2,1,0,1,0,42453.3,0.205051,0.20474,0.525609,22,0.0153281,10,0.000107613,-3.27934,1.70649,0.0345738,0.712179,0.20474,
2,1,0,1,0,42453.4,0.20655,0.206201,0.524647,22,0.0154089,10,0.000108183,-3.28013,-1.3591,-0.0434112,-0.887954,0.2062005,
2,1,0,1,0,42453.6,0.208048,0.207712,0.523714,22,0.0154899,10,0.000108781,-3.28091,-1.07241,-0.0550165,-1.12331,0.207712,
2,1,0,1,0,42453.7,0.209546,0.209264,0.523967,22,0.0155704,10,0.000109647,-3.2807,-1.3048,-0.0452176,-0.921915,0.209264,
2,1,0,1,0,42453.9,0.211044,0.210734,0.522592,22,0.0156506,10,0.000110128,-3.28184,-1.42714,-0.0413413,-0.841052,0.210734,
2,1,0,1,0,42454,0.212543,0.212229,0.520772,22,0.0157308,10,0.000110523,-3.28335,-6.4115,-0.00920221,-0.186735,0.212229,
2,1,0,1,0,42454.2,0.214041,0.213759,0.520066,22,0.015811,10,0.000111169,-3.28394,-1.85304,-0.0318395,-0.645227,0.213759,
2,1,0,1,0,42454.3,0.215539,0.215233,0.519114,22,0.015891,10,0.000111731,-3.28474,-1.3386,-0.0440759,-0.893549,0.215233,
2,1,0,1,0,42454.5,0.217038,0.216727,0.51792,22,0.0159708,10,0.000112247,-3.28574,-2.18325,-0.0270239,-0.546714,0.216727,
2,1,0,1,0,42454.6,0.218535,0.218233,0.516497,22,0.0160504,10,0.000112717,-3.28693,3.86623,0.0152603,0.307656,0.218233,
2,1,0,1,0,42454.8,0.220033,0.219692,0.517884,22,0.0161301,10,0.000113775,-3.28577,-6.54351,-0.00901657,-0.181958,0.219692,
2,1,0,1,0,42454.9,0.221532,0.221225,0.515981,22,0.0162096,10,0.000114148,-3.28737,-1.31878,-0.0447383,-0.899291,0.2212254,
2,1,0,1,0,42455.1,0.22303,0.222691,0.513399,22,0.016289,10,0.000114329,-3.28954,-2.82483,-0.0208862,-0.419857,0.222691,
2,1,0,1,0,42455.2,0.224528,0.22421,0.514974,22,0.0163681,10,0.000115463,-3.28821,-1.57531,-0.037453,-0.750676,0.22421,
2,1,0,1,0,42455.4,0.226026,0.225694,0.513031,22,0.0164473,10,0.000115788,-3.28986,-34.6018,-0.00170511,-0.0341807,0.225694,
2,1,0,1,0,42455.5,0.227524,0.227215,0.511841,22,0.0165262,10,0.000116298,-3.29086,-1.25974,-0.0468351,-0.934197,0.227215,
2,1,0,1,0,42455.7,0.229023,0.22876,0.511397,22,0.0166051,10,0.000116987,-3.29124,-1.71466,-0.0344092,-0.687692,0.22876,
2,1,0,1,0,42455.8,0.230521,0.23019,0.510496,22,0.0166837,10,0.000117511,-3.29201,-2.80692,-0.0210195,-0.420163,0.23019,
2,1,0,1,0,42456,0.232019,0.231713,0.509855,22,0.0167623,10,0.00011814,-3.29255,-2.51404,-0.0234682,-0.467887,0.231713,
2,1,0,1,0,42456.1,0.233518,0.233201,0.508561,22,0.016841,10,0.000118597,-3.29366,-2.10275,-0.0280584,-0.556713,0.233201,
2,1,0,1,0,42456.3,0.235015,0.234719,0.509831,22,0.0169194,10,0.000119667,-3.29257,-3.10929,-0.0189754,-0.377049,0.234719,
2,1,0,1,0,42456.4,0.236513,0.236148,0.507301,22,0.0169976,10,0.000119798,-3.29473,-3.10331,-0.0190119,-0.376797,0.236148,
2,1,0,1,0,42456.6,0.238012,0.237712,0.5068,22,0.0170758,10,0.000120472,-3.29516,-4.99589,-0.0118097,-0.233936,0.237712,
2,1,0,1,0,42456.7,0.23951,0.239178,0.505811,22,0.017154,10,0.000120979,-3.29601,-2.11468,-0.0279002,-0.552555,0.239178,
2,1,0,1,0,42456.9,0.241008,0.240721,0.505407,22,0.017232,10,0.000121662,-3.29636,-3.39862,-0.01736,-0.343154,0.240721,
2,1,0,1,0,42457,0.242506,0.242202,0.502186,22,0.0173098,10,0.000121631,-3.29914,-2.81076,-0.0209908,-0.414084,0.242202,
2,1,0,1,0,42457.2,0.244005,0.243661,0.504824,22,0.0173876,10,0.000123006,-3.29686,8.2413,0.00715906,0.141105,0.243661,
2,1,0,1,0,42457.3,0.245503,0.245162,0.504854,22,0.0174654,10,0.000123771,-3.29683,-22.3728,-0.00263713,-0.0518266,0.245162,
2,1,0,1,0,42457.5,0.247001,0.246693,0.50476,22,0.0175431,10,0.000124521,-3.29692,-1.48863,-0.0396337,-0.777775,0.246693,
2,1,0,1,0,42457.6,0.2485,0.248219,0.50184,22,0.0176207,10,0.000124566,-3.29943,-1.66643,-0.0354049,-0.694625,0.248219,
2,1,0,1,0,42457.8,0.249997,0.249691,0.503268,22,0.017698,10,0.000125662,-3.2982,-13.4581,-0.00438399,-0.0859059,0.249691,
2,1,0,1,0,42457.9,0.251495,0.251193,0.501396,22,0.0177752,10,0.000125947,-3.29982,-2.22555,-0.0265103,-0.518809,0.251193,
2,1,0,1,0,42458.1,0.252994,0.252656,0.500908,22,0.0178525,10,0.000126557,-3.30024,-1.22566,-0.0481372,-0.937691,0.252656,
2,1,0,1,0,42458.2,0.254492,0.254169,0.499671,22,0.0179297,10,0.000127001,-3.30132,-7.89088,-0.00747699,-0.146119,0.254169,
2,1,0,1,0,42458.4,0.25599,0.255645,0.499913,22,0.0180065,10,0.0001278,-3.30111,-2.13748,-0.0276026,-0.538777,0.255645,
2,1,0,1,0,42458.5,0.257488,0.257199,0.500622,22,0.0180835,10,0.000128759,-3.30049,-2.13052,-0.0276928,-0.538028,0.257199,
2,1,0,1,0,42458.7,0.258987,0.258672,0.498558,22,0.0181604,10,0.000128963,-3.30228,-2.42686,-0.0243112,-0.472018,0.258672,
2,1,0,1,0,42458.8,0.260485,0.260156,0.497822,22,0.0182371,10,0.000129511,-3.30293,-2.10684,-0.028004,-0.543837,0.2601561,
2,1,0,1,0,42459,0.261983,0.261664,0.496603,22,0.0183135,10,0.000129943,-3.30399,-2.72731,-0.021633,-0.418759,0.261664,
2,1,0,1,0,42459.1,0.263481,0.263146,0.494771,22,0.01839,10,0.000130197,-3.3056,4.05673,0.0145437,0.280796,0.263146,
2,1,0,1,0,42459.2,0.26498,0.264681,0.495351,22,0.0184664,10,0.00013111,-3.30509,-13.1449,-0.00448843,-0.0868499,0.2646811,
2,1,0,1,0,42459.4,0.266477,0.266161,0.493784,22,0.0185426,10,0.000131426,-3.30646,-4.23369,-0.0139358,-0.268675,0.266161,
2,1,0,1,0,42459.5,0.267976,0.267615,0.492445,22,0.0186188,10,0.000131786,-3.30764,-3.25127,-0.0181468,-0.349871,0.267615,
2,1,0,1,0,42459.7,0.269474,0.269155,0.492015,22,0.0186948,10,0.000132428,-3.30802,-6.21649,-0.00949089,-0.182647,0.2691547,
2,1,0,1,0,42459.8,0.270972,0.270676,0.493918,22,0.0187707,10,0.000133692,-3.30635,-2.69607,-0.0218837,-0.419945,0.2706764,
2,1,0,1,0,42460,0.27247,0.272185,0.489801,22,0.0188466,10,0.000133317,-3.30998,-3.35928,-0.0175633,-0.336652,0.272185,
2,1,0,1,0,42460.1,0.273968,0.273648,0.489754,22,0.0189222,10,0.00013402,-3.31002,-2.28617,-0.0258073,-0.493171,0.273648,
2,1,0,1,0,42460.3,0.275467,0.275114,0.488785,22,0.0189977,10,0.000134472,-3.31088,-2.29855,-0.0256684,-0.490804,0.275114,
2,1,0,1,0,42460.4,0.276965,0.276668,0.489356,22,0.0190731,10,0.000135389,-3.31037,-2.29599,-0.025697,-0.491348,0.276668,
2,1,0,1,0,42460.6,0.278463,0.278149,0.4887,22,0.0191485,10,0.000135931,-3.31096,-1.15756,-0.0509694,-0.971734,0.278149,
2,1,0,1,0,42460.7,0.279962,0.279613,0.487232,22,0.0192238,10,0.000136236,-3.31226,-1.41983,-0.0415544,-0.790496,0.279613,
2,1,0,1,0,42460.9,0.281459,0.28115,0.485953,22,0.0192987,10,0.000136626,-3.31341,-1.98837,-0.0296726,-0.564441,0.28115,
2,1,0,1,0,42461,0.282957,0.282629,0.485517,22,0.0193736,10,0.000137221,-3.3138,-3.46823,-0.0170116,-0.322866,0.282629,
2,1,0,1,0,42461.2,0.284456,0.284156,0.483962,22,0.0194486,10,0.000137521,-3.31519,-3.00643,-0.0196246,-0.37083,0.284156,
2,1,0,1,0,42461.3,0.285954,0.285659,0.482911,22,0.0195232,10,0.000137948,-3.31613,-2.27306,-0.0259562,-0.489647,0.285659,
2,1,0,1,0,42461.5,0.287452,0.287134,0.483609,22,0.0195978,10,0.00013886,-3.31551,-3.55674,-0.0165882,-0.312764,0.287134,
2,1,0,1,0,42461.6,0.28895,0.28863,0.482139,22,0.0196722,10,0.00013916,-3.31683,6.13037,0.00962422,0.180459,0.28863,
2,1,0,1,0,42461.8,0.290449,0.290146,0.481038,22,0.0197466,10,0.000139571,-3.31782,-1.53315,-0.0384828,-0.723275,0.2901465,
2,1,0,1,0,42461.9,0.291947,0.291628,0.480602,22,0.0198208,10,0.000140157,-3.31821,-1.14415,-0.0515669,-0.969736,0.291628,
2,1,0,1,0,42462.1,0.293445,0.293139,0.479086,22,0.0198949,10,0.000140439,-3.31959,-1.62333,-0.0363451,-0.681654,0.293139,
2,1,0,1,0,42462.2,0.294943,0.294614,0.479644,22,0.0199687,10,0.00014131,-3.31908,-1.42118,-0.0415147,-0.774866,0.294614,
2,1,0,1,0,42462.4,0.296442,0.296151,0.480675,22,0.0200427,10,0.000142352,-3.31815,-1.40793,-0.0419055,-0.783039,0.296151,
2,1,0,1,0,42462.5,0.297939,0.297674,0.477298,22,0.0201165,10,0.000142079,-3.32121,-1.62922,-0.0362137,-0.673532,0.297674,
2,1,0,1,0,42462.7,0.299437,0.299067,0.475655,22,0.0201901,10,0.000142253,-3.32271,-0.00280366,-21.0439,-203.573,0.299067,
2,1,0,1,0,42462.8,0.299738,0.299429,0.261231,22,0.0202259,10,7.822e-05,-3.58298,0.000620294,95.1162,393.714,0.299429,
2,1,0,1,0,42462.9,0.29824,0.297923,0.0154318,22,0.0202378,10,4.59749e-06,-4.81158,0.00369092,15.9852,135.712,0.297923,
2,0,0,1,0,42463.1,0.296741,0.296416,-0.0306201,22,0.020234,10,-9.07629e-06,-4.51399,-0.0305482,-1.93137,26.9614,0.296416,
2,0,0,1,0,42463.2,0.295243,0.29493,-0.0564413,22,0.0202251,10,-1.66462e-05,-4.2484,-0.00674849,-8.7427,14.6953,0.29493,
2,0,0,1,0,42463.4,0.293745,0.293449,-0.0740676,22,0.0202132,10,-2.1735e-05,-4.13037,-0.0145623,-4.05155,10.6284,0.293449,
2,0,0,1,0,42463.5,0.292246,0.291969,-0.0889643,22,0.0201989,10,-2.59748e-05,-4.05078,-0.021554,-2.73731,9.01741,0.291969,
2,0,0,1,0,42463.7,0.290748,0.290355,-0.101579,22,0.0201826,10,-2.9494e-05,-3.9932,-0.0279833,-2.1084,7.99759,0.290355,
2,0,0,1,0,42463.8,0.28925,0.288918,-0.112577,22,0.0201645,10,-3.25255e-05,-3.94855,-0.0372228,-1.58505,6.8156,0.288918,
2,0,0,1,0,42464,0.287752,0.287421,-0.121526,22,0.0201449,10,-3.4929e-05,-3.91533,-0.0444142,-1.3284,6.23643,0.287421,
2,0,0,1,0,42464.1,0.286253,0.285925,-0.129816,22,0.020124,10,-3.71176e-05,-3.88667,-0.0516134,-1.14312,5.80244,0.285925,
2,0,0,1,0,42464.3,0.284755,0.284472,-0.138616,22,0.0201018,10,-3.94324e-05,-3.85819,-0.0562505,-1.04888,5.58991,0.284472,
2,0,0,1,0,42464.4,0.283258,0.282994,-0.148557,22,0.0200783,10,-4.20407e-05,-3.82811,-0.0681179,-0.866145,4.92631,0.282994,
2,0,0,1,0,42464.6,0.281759,0.281446,-0.153142,22,0.0200537,10,-4.31011e-05,-3.81491,-0.0822784,-0.717078,4.24816,0.281446,
2,0,0,1,0,42464.7,0.280261,0.279918,-0.158601,22,0.0200282,10,-4.43952e-05,-3.79969,-0.086871,-0.679168,4.24393,0.279918,
2,0,0,1,0,42464.9,0.278763,0.27844,-0.164508,22,0.0200018,10,-4.58055e-05,-3.78381,-0.0955801,-0.617283,3.97888,0.27844,
2,0,0,1,0,42465,0.277264,0.276971,-0.172761,22,0.0199743,10,-4.78499e-05,-3.76255,-0.104258,-0.565905,3.7925,0.276971,
2,0,0,1,0,42465.2,0.275766,0.275419,-0.177876,22,0.0199459,10,-4.89904e-05,-3.74988,-0.13488,-0.437426,3.01891,0.275419,
2,0,0,1,0,42465.3,0.274268,0.27392,-0.183795,22,0.0199167,10,-5.03451e-05,-3.73567,-0.118659,-0.497222,3.56509,0.27392,
2,0,0,1,0,42465.5,0.27277,0.272447,-0.187096,22,0.0198867,10,-5.09737e-05,-3.72794,-0.111956,-0.526991,3.87275,0.272447,
2,0,0,1,0,42465.6,0.271272,0.270981,-0.195046,22,0.0198559,10,-5.28537e-05,-3.70986,-0.138681,-0.425437,3.22192,0.270981,
2,0,0,1,0,42465.8,0.269773,0.269469,-0.199377,22,0.0198242,10,-5.37259e-05,-3.70033,-0.133709,-0.441257,3.41311,0.269469,
2,0,0,1,0,42465.9,0.268275,0.267953,-0.204622,22,0.0197917,10,-5.48293e-05,-3.68905,-0.141908,-0.415763,3.31617,0.267953,
2,0,0,1,0,42466.1,0.266778,0.266438,-0.20761,22,0.0197587,10,-5.53153e-05,-3.68275,-0.153127,-0.3853,3.1358,0.266438,
2,0,0,1,0,42466.2,0.265279,0.26499,-0.213364,22,0.019725,10,-5.65396e-05,-3.67088,-0.133141,-0.443141,3.68731,0.26499,
2,0,0,1,0,42466.4,0.263781,0.263485,-0.21668,22,0.0196904,10,-5.70919e-05,-3.66418,-0.155988,-0.378233,3.20592,0.263485,
2,0,0,1,0,42466.5,0.262283,0.261995,-0.222222,22,0.0196552,10,-5.8221e-05,-3.65321,-0.19262,-0.306303,2.65189,0.261995,
2,0,0,1,0,42466.7,0.260784,0.260514,-0.224613,22,0.0196195,10,-5.85149e-05,-3.64857,-0.181724,-0.324668,2.86981,0.2605145,
2,0,0,1,0,42466.8,0.259286,0.258951,-0.230125,22,0.0195832,10,-5.95912e-05,-3.63804,-0.169905,-0.347254,3.12294,0.258951,
2,0,0,1,0,42467,0.257788,0.257467,-0.237133,22,0.0195461,10,-6.10539e-05,-3.62501,-0.207266,-0.284659,2.61013,0.257467,
2,0,0,1,0,42467.1,0.25629,0.255945,-0.23948,22,0.0195083,10,-6.12938e-05,-3.62073,-0.252634,-0.233539,2.17097,0.255945,
2,0,0,1,0,42467.3,0.254791,0.254428,-0.242308,22,0.0194701,10,-6.16498e-05,-3.61563,-0.248819,-0.23712,2.24547,0.254428,
2,0,0,1,0,42467.4,0.253293,0.252975,-0.246011,22,0.0194315,10,-6.22345e-05,-3.60905,-0.2589,-0.227887,2.18741,0.2529749,
2,0,0,1,0,42467.6,0.251796,0.251479,-0.250628,22,0.0193922,10,-6.30278e-05,-3.60097,-0.213837,-0.275911,2.69137,0.251479,
2,0,0,1,0,42467.7,0.250297,0.249986,-0.252957,22,0.0193523,10,-6.32358e-05,-3.59695,-0.31318,-0.18839,1.85698,0.249986,
2,0,0,1,0,42467.9,0.248799,0.248474,-0.256544,22,0.019312,10,-6.37444e-05,-3.59084,-0.298895,-0.197393,1.98397,0.2484736,
2,0,0,1,0,42468,0.247301,0.246935,-0.259686,22,0.0192713,10,-6.41255e-05,-3.58555,-0.233979,-0.25216,2.55639,0.246935,
2,0,0,1,0,42468.2,0.245802,0.245541,-0.264103,22,0.0192299,10,-6.48479e-05,-3.57823,-0.236928,-0.249021,2.55317,0.245541,
2,0,0,1,0,42468.3,0.244304,0.243962,-0.268219,22,0.019188,10,-6.54352e-05,-3.57151,-0.274103,-0.215247,2.23423,0.243962,
2,0,0,1,0,42468.5,0.242806,0.24249,-0.271305,22,0.0191455,10,-6.57887e-05,-3.56654,-0.452234,-0.130463,1.37831,0.24249,
2,0,0,1,0,42468.6,0.241308,0.240954,-0.272568,22,0.0191028,10,-6.56765e-05,-3.56452,-0.310529,-0.189999,2.02218,0.240954,
2,0,0,1,0,42468.8,0.23981,0.239474,-0.275781,22,0.0190595,10,-6.60424e-05,-3.55944,-0.228747,-0.257926,2.77314,0.239474,
2,0,0,1,0,42468.9,0.238311,0.237971,-0.279013,22,0.0190158,10,-6.6397e-05,-3.55437,-0.284354,-0.207488,2.25948,0.237971,
2,0,0,1,0,42469.1,0.236814,0.236468,-0.281905,22,0.0189715,10,-6.66614e-05,-3.5499,-0.312517,-0.18879,2.08597,0.236468,
2,0,0,1,0,42469.2,0.235316,0.234979,-0.283943,22,0.0189269,10,-6.67206e-05,-3.54677,-0.334884,-0.17618,1.96005,0.234979,
2,0,0,1,0,42469.4,0.233817,0.233476,-0.286767,22,0.0188818,10,-6.69533e-05,-3.54247,-0.263432,-0.223967,2.51778,0.233476,
2,0,0,1,0,42469.5,0.232319,0.231976,-0.292103,22,0.0188361,10,-6.77608e-05,-3.53446,-0.338589,-0.174253,1.97721,0.231976,
2,0,0,1,0,42469.7,0.230821,0.230518,-0.295495,22,0.0187899,10,-6.81169e-05,-3.52945,-0.353715,-0.166801,1.91204,0.230518,
2,0,0,1,0,42469.8,0.229322,0.229005,-0.295442,22,0.0187434,10,-6.76576e-05,-3.52953,-0.341231,-0.172903,2.0034,0.229005,
2,0,0,1,0,42470,0.227824,0.227466,-0.29945,22,0.0186966,10,-6.81146e-05,-3.52368,-0.374889,-0.15738,1.84499,0.227466,
2,0,0,1,0,42470.1,0.226326,0.225999,-0.302117,22,0.0186491,10,-6.82783e-05,-3.51982,-0.317197,-0.186004,2.20104,0.225999,
2,0,0,1,0,42470.3,0.224828,0.224508,-0.305651,22,0.0186013,10,-6.86212e-05,-3.51477,-0.572314,-0.10309,1.22821,0.2245084,
2,0,0,1,0,42470.4,0.223329,0.222996,-0.309452,22,0.0185529,10,-6.90067e-05,-3.50941,-0.350574,-0.168295,2.02309,0.2229964,
2,0,0,1,0,42470.6,0.221831,0.221497,-0.313818,22,0.0185043,10,-6.95096e-05,-3.50332,-0.310209,-0.190194,2.31044,0.221497,
2,0,0,1,0,42470.7,0.220334,0.220017,-0.314405,22,0.0184551,10,-6.91745e-05,-3.50251,-0.237532,-0.248388,3.05105,0.220017,
2,0,0,1,0,42470.9,0.218835,0.218565,-0.318245,22,0.0184053,10,-6.95572e-05,-3.49724,-0.310317,-0.190128,2.36278,0.218565,
2,0,0,1,0,42471,0.217337,0.216958,-0.321546,22,0.0183551,10,-6.9762e-05,-3.49276,-0.463001,-0.127429,1.59598,0.2169583,
2,0,0,1,0,42471.2,0.215839,0.215552,-0.322438,22,0.0183047,10,-6.95022e-05,-3.49155,-0.39213,-0.15046,1.89918,0.2155522,
2,0,0,1,0,42471.3,0.21434,0.214018,-0.325539,22,0.0182537,10,-6.96711e-05,-3.4874,-0.309823,-0.190431,2.42064,0.214018,
2,0,0,1,0,42471.5,0.212842,0.2125,-0.330668,22,0.0182023,10,-7.02671e-05,-3.48061,-0.441759,-0.133557,1.71925,0.2125,
2,0,0,1,0,42471.6,0.211344,0.211021,-0.331086,22,0.0181504,10,-6.98662e-05,-3.48006,-0.476851,-0.123728,1.60302,0.2110211,
2,0,0,1,0,42471.8,0.209846,0.209559,-0.334905,22,0.0180981,10,-7.01824e-05,-3.47508,-0.427156,-0.138123,1.8115,0.2095588,
2,0,0,1,0,42471.9,0.208348,0.207996,-0.339246,22,0.0180454,10,-7.05617e-05,-3.46949,-0.350211,-0.16847,2.23377,0.207996,
2,0,0,1,0,42472.1,0.206849,0.206514,-0.346259,22,0.017992,10,-7.15074e-05,-3.4606,-0.345441,-0.170796,2.27603,0.206514,
2,0,0,1,0,42472.2,0.205352,0.205025,-0.345325,22,0.0179381,10,-7.08002e-05,-3.46177,-0.546542,-0.107951,1.44532,0.205025,
2,0,0,1,0,42472.4,0.203854,0.203527,-0.348409,22,0.0178838,10,-7.09106e-05,-3.45791,-0.399718,-0.147604,2.00625,0.203527,
2,0,0,1,0,42472.5,0.202355,0.202034,-0.34944,22,0.0178293,10,-7.05988e-05,-3.45663,-0.495139,-0.119158,1.63142,0.202034,
2,0,0,1,0,42472.7,0.200857,0.200515,-0.354434,22,0.0177743,10,-7.10692e-05,-3.45046,-0.390345,-0.151148,2.09116,0.2005146,
2,0,0,1,0,42472.8,0.199359,0.199046,-0.357917,22,0.0177187,10,-7.1242e-05,-3.44622,-0.412807,-0.142924,1.98558,0.199046,
2,0,0,1,0,42473,0.19786,0.197515,-0.361772,22,0.0176627,10,-7.14553e-05,-3.44157,-0.5093,-0.115845,1.62876,0.197515,
2,0,0,1,0,42473.1,0.196362,0.195985,-0.362658,22,0.0176063,10,-7.10754e-05,-3.4405,-0.380214,-0.155176,2.1988,0.195985,
2,0,0,1,0,42473.3,0.194864,0.19453,-0.368171,22,0.0175495,10,-7.16201e-05,-3.43395,-0.339536,-0.173767,2.4847,0.19453,
2,0,0,1,0,42473.4,0.193366,0.193022,-0.371248,22,0.0174919,10,-7.16589e-05,-3.43034,-0.346276,-0.170384,2.45807,0.193022,
2,0,0,1,0,42473.6,0.191867,0.191502,-0.373895,22,0.0174339,10,-7.16017e-05,-3.42725,-0.495468,-0.119079,1.74291,0.1915023,
2,0,0,1,0,42473.7,0.190369,0.190053,-0.374097,22,0.0173755,10,-7.10982e-05,-3.42702,-0.380639,-0.155003,2.28322,0.190053,
2,0,0,1,0,42473.9,0.188872,0.188569,-0.380467,22,0.0173166,10,-7.17442e-05,-3.41968,-0.298557,-0.197617,2.93002,0.188569,
2,0,0,1,0,42474,0.187373,0.187036,-0.384525,22,0.0172571,10,-7.19199e-05,-3.41508,-0.326871,-0.180499,2.70285,0.187036,
2,0,0,1,0,42474.2,0.185875,0.185552,-0.387234,22,0.017197,10,-7.18521e-05,-3.41203,-0.371254,-0.158921,2.40284,0.185552,
2,0,0,1,0,42474.3,0.184377,0.184046,-0.390081,22,0.0171365,10,-7.17931e-05,-3.40884,-0.30235,-0.195138,2.98483,0.184046,
2,0,0,1,0,42474.5,0.182878,0.182583,-0.394931,22,0.0170754,10,-7.21077e-05,-3.40348,-0.326615,-0.180641,2.78927,0.182583,
2,0,0,1,0,42474.6,0.18138,0.18107,-0.399781,22,0.0170136,10,-7.23883e-05,-3.39818,-0.305347,-0.193223,3.0065,0.18107,
2,0,0,1,0,42474.8,0.179882,0.179545,-0.403488,22,0.0169512,10,-7.24443e-05,-3.39417,-0.551241,-0.107031,1.68231,0.179545,
2,0,0,1,0,42474.9,0.178384,0.178055,-0.407631,22,0.0168882,10,-7.25808e-05,-3.38973,-0.322223,-0.183103,2.91907,0.178055,
2,0,0,1,0,42475.1,0.176886,0.176539,-0.412198,22,0.0168247,10,-7.27689e-05,-3.38489,-0.287438,-0.205262,3.30649,0.1765388,
2,0,0,1,0,42475.2,0.175387,0.175053,-0.419275,22,0.0167603,10,-7.33953e-05,-3.3775,-0.315865,-0.186789,3.03732,0.1750526,
2,0,0,1,0,42475.4,0.17389,0.173563,-0.421147,22,0.0166952,10,-7.30954e-05,-3.37557,-0.309586,-0.190577,3.13465,0.173563,
2,0,0,1,0,42475.5,0.172392,0.172065,-0.426408,22,0.0166294,10,-7.33698e-05,-3.37017,-0.308436,-0.191288,3.18468,0.172065,
2,0,0,1,0,42475.7,0.170893,0.170562,-0.429712,22,0.016563,10,-7.32928e-05,-3.36682,-0.276294,-0.213541,3.59834,0.170562,
2,0,0,1,0,42475.8,0.169395,0.169028,-0.43756,22,0.0164957,10,-7.39598e-05,-3.35896,-0.215384,-0.27393,4.67028,0.169028,
2,0,0,1,0,42476,0.167897,0.167617,-0.443237,22,0.0164272,10,-7.42939e-05,-3.35336,-0.234176,-0.251947,4.36931,0.167617,
2,0,0,1,0,42476.1,0.166398,0.166082,-0.449715,22,0.0163579,10,-7.46896e-05,-3.34706,-0.314897,-0.187363,3.30194,0.166082,
2,0,0,1,0,42476.3,0.1649,0.164563,-0.455062,22,0.0162878,10,-7.48862e-05,-3.34193,-0.226541,-0.260439,4.65041,0.164563,
2,0,0,1,0,42476.4,0.163402,0.163068,-0.46412,22,0.0162166,10,-7.56833e-05,-3.33337,-0.199269,-0.296083,5.36614,0.163068,
2,0,0,1,0,42476.6,0.161904,0.161562,-0.473681,22,0.0161442,10,-7.65287e-05,-3.32451,-0.191329,-0.308369,5.66934,0.161562,
2,0,0,1,0,42476.7,0.160405,0.160089,-0.481381,22,0.0160704,10,-7.70636e-05,-3.31751,-0.199419,-0.295859,5.54114,0.160089,
2,0,0,1,0,42476.9,0.158907,0.158548,-0.488638,22,0.0159954,10,-7.74725e-05,-3.31101,-0.18579,-0.317563,6.07349,0.158548,
2,0,0,1,0,42477,0.15741,0.157067,-0.500339,22,0.0159191,10,-7.85867e-05,-3.30074,-0.150704,-0.391496,7.66112,0.157067,
2,0,0,1,0,42477.2,0.155911,0.155552,-0.509746,22,0.0158411,10,-7.92922e-05,-3.29265,-0.152821,-0.386072,7.71598,0.155552,
2,0,0,1,0,42477.3,0.154413,0.154058,-0.522644,22,0.0157612,10,-8.05176e-05,-3.28179,-0.157373,-0.374906,7.64497,0.1540582,
2,0,0,1,0,42477.5,0.152915,0.15259,-0.535258,22,0.0156794,10,-8.16748e-05,-3.27144,-0.13353,-0.44185,9.27695,0.15259,
2,0,0,1,0,42477.6,0.151417,0.151122,-0.550138,22,0.0155958,10,-8.31378e-05,-3.25953,-0.129302,-0.456296,9.83418,0.151122,
2,0,0,1,0,42477.8,0.149918,0.149617,-0.568076,22,0.0155096,10,-8.49939e-05,-3.24559,-0.107392,-0.549391,12.1825,0.149617,
2,0,0,1,0,42477.9,0.14842,0.148104,-0.588623,22,0.0154207,10,-8.71775e-05,-3.23016,-0.100161,-0.58905,13.5145,0.148104,
2,0,0,1,0,42478.1,0.146922,0.14658,-0.608738,22,0.0153289,10,-8.92289e-05,-3.21557,-0.0997215,-0.591648,14.0532,0.1465802,
2,0,0,1,0,42478.2,0.145424,0.145128,-0.628979,22,0.0152339,10,-9.12828e-05,-3.20136,-0.0896682,-0.657981,16.227,0.1451285,
2,0,0,1,0,42478.4,0.143925,0.143602,-0.65407,22,0.0151353,10,-9.39256e-05,-3.18438,-0.081455,-0.724326,18.549,0.143602,
2,0,0,1,0,42478.5,0.142428,0.1421,-0.683819,22,0.0150326,10,-9.7171e-05,-3.16506,-0.08237,-0.716281,19.15,0.1421,
2,0,0,1,0,42478.7,0.14093,0.140606,-0.712021,22,0.0149256,10,-0.000100115,-3.14751,-0.0834104,-0.707346,19.7359,0.1406064,
2,0,0,1,0,42478.8,0.139431,0.139076,-0.741813,22,0.014814,10,-0.000103168,-3.12971,-0.0783825,-0.752719,21.9008,0.139076,
2,0,0,1,0,42479,0.137933,0.137621,-0.776874,22,0.0146977,10,-0.000106914,-3.10965,-0.0789566,-0.747246,22.6875,0.137621,
2,0,0,1,0,42479.1,0.136435,0.136089,-0.813876,22,0.0145762,10,-0.000110759,-3.08944,-0.0823367,-0.71657,22.7105,0.136089,
2,0,0,1,0,42479.3,0.134936,0.134618,-0.846431,22,0.0144494,10,-0.000113945,-3.07241,-0.0858083,-0.687579,22.6392,0.134618,
2,0,0,1,0,42479.4,0.133438,0.133092,-0.880715,22,0.0143174,10,-0.000117216,-3.05516,-0.0883115,-0.66809,22.9604,0.133092,
2,0,0,1,0,42479.6,0.13194,0.131619,-0.91421,22,0.0141807,10,-0.000120327,-3.03895,-0.0939643,-0.627898,22.4579,0.131619,
2,0,0,1,0,42479.7,0.130442,0.130111,-0.950204,22,0.0140387,10,-0.000123632,-3.02218,-0.0969648,-0.608468,22.525,0.130111,
2,0,0,1,0,42479.9,0.128943,0.128609,-0.983522,22,0.0138914,10,-0.000126489,-3.00722,-0.108969,-0.541437,20.6465,0.128609,
2,0,0,1,0,42480,0.127445,0.127138,-1.01405,22,0.0137395,10,-0.000128924,-2.99394,-0.118682,-0.497129,19.5882,0.127138,
2,0,0,1,0,42480.2,0.125948,0.125594,-1.04016,22,0.0135836,10,-0.000130638,-2.9829,-0.130417,-0.452394,18.3291,0.125594,
2,0,0,1,0,42480.3,0.124449,0.124138,-1.06826,22,0.0134231,10,-0.000132611,-2.97132,-0.141395,-0.417272,17.3153,0.124138,
2,0,0,1,0,42480.5,0.122951,0.122601,-1.09151,22,0.0132588,10,-0.00013382,-2.96197,-0.16499,-0.357597,15.1777,0.122601,
2,0,0,1,0,42480.6,0.121453,0.121124,-1.11261,22,0.0130913,10,-0.000134764,-2.95366,-0.20616,-0.286186,12.3927,0.121124,
2,0,0,1,0,42480.8,0.119955,0.11966,-1.12608,22,0.0129211,10,-0.000134746,-2.94843,-0.248541,-0.237386,10.4414,0.11966,
2,0,0,1,0,42480.9,0.118456,0.118163,-1.14391,22,0.0127484,10,-0.000135168,-2.94161,-0.263547,-0.223869,9.97566,0.118163,
2,0,0,1,0,42481.1,0.116958,0.116607,-1.15866,22,0.0125735,10,-0.000135107,-2.93605,-0.381877,-0.1545,6.95891,0.116607,
2,0,0,1,0,42481.2,0.11546,0.115108,-1.16625,22,0.012397,10,-0.000134245,-2.93321,-0.629253,-0.093762,4.25431,0.115108,
2,0,0,1,0,42481.4,0.113962,0.113622,-1.16953,22,0.0122194,10,-0.000132884,-2.93199,-0.843677,-0.069932,3.19041,0.113622,
2,0,0,1,0,42481.5,0.112463,0.112104,-1.17554,22,0.0120414,10,-0.000131782,-2.92976,-2.46964,-0.0238902,1.09362,0.112104,
2,0,0,1,0,42481.7,0.110966,0.110659,-1.17653,22,0.0118628,10,-0.000130194,-2.9294,-3.01548,-0.0195657,0.896254,0.110659,
2,0,0,1,0,42481.8,0.109468,0.109144,-1.17515,22,0.0116842,10,-0.00012826,-2.92991,1.63476,0.0360909,-1.65155,0.109144,
2,0,0,1,0,42482,0.107969,0.107645,-1.17264,22,0.0115058,10,-0.00012623,-2.93083,1.18513,0.0497838,-2.2768,0.107645,
2,0,0,1,0,42482.1,0.106471,0.106151,-1.16743,22,0.0113282,10,-0.000123924,-2.93277,1.21551,0.0485395,-2.21452,0.106151,
2,0,0,1,0,42482.3,0.104973,0.10467,-1.16396,22,0.011151,10,-0.000121832,-2.93406,0.882713,0.0668394,-3.03228,0.10467,
2,0,0,1,0,42482.4,0.103474,0.103155,-1.16147,22,0.0109744,10,-0.000119812,-2.93499,0.589836,0.100028,-4.51973,0.103155,
2,0,0,1,0,42482.6,0.101976,0.10164,-1.15451,22,0.0107987,10,-0.000117345,-2.9376,0.545646,0.108129,-4.86154,0.10164,
2,0,0,1,0,42482.7,0.100478,0.10012,-1.14673,22,0.0106242,10,-0.00011481,-2.94054,0.631077,0.0934909,-4.18934,0.10012,
2,0,0,1,0,42482.9,0.0989798,0.098635,-1.14083,22,0.0104506,10,-0.000112525,-2.94278,0.705089,0.0836774,-3.71568,0.098635,
2,0,0,1,0,42483,0.0974808,0.0971343,-1.13423,22,0.0102778,10,-0.000110173,-2.9453,0.612352,0.0963498,-4.26389,0.09713427,
2,0,0,1,0,42483.2,0.0959833,0.0956724,-1.12625,22,0.0101061,10,-0.000107751,-2.94837,0.580715,0.101599,-4.4647,0.0956724,
2,0,0,1,0,42483.3,0.0944857,0.0941955,-1.11768,22,0.00993559,10,-0.000105281,-2.95168,0.612752,0.0962869,-4.21067,0.0941955,
2,0,0,1,0,42483.5,0.0929871,0.0926935,-1.11132,22,0.00976598,10,-0.000103013,-2.95416,0.752522,0.078403,-3.40829,0.0926935,
2,0,0,1,0,42483.6,0.0914889,0.0911602,-1.10978,22,0.00959717,10,-0.000101168,-2.95476,0.63977,0.0922207,-3.98265,0.0911602,
2,0,0,1,0,42483.8,0.0899907,0.0896777,-1.09969,22,0.00942926,10,-9.86179e-05,-2.95873,0.504753,0.116889,-5.01413,0.0896777,
2,0,0,1,0,42483.9,0.0884925,0.0881401,-1.08998,22,0.0092625,10,-9.60714e-05,-2.96258,0.538628,0.109538,-4.67595,0.0881401,
2,0,0,1,0,42484.1,0.0869943,0.0866312,-1.08682,22,0.00909694,10,-9.41524e-05,-2.96384,0.546968,0.107867,-4.57869,0.0866312,
2,0,0,1,0,42484.2,0.0854961,0.0851668,-1.08109,22,0.0089321,10,-9.20728e-05,-2.96614,0.634698,0.0929576,-3.92103,0.0851668,
2,0,0,1,0,42484.4,0.083998,0.0836705,-1.07335,22,0.00876819,10,-8.9808e-05,-2.96926,0.410623,0.143684,-6.01729,0.0836705,
2,0,0,1,0,42484.5,0.0824998,0.0821722,-1.06815,22,0.00860531,10,-8.77725e-05,-2.97137,0.507679,0.116215,-4.84514,0.08217217,
2,0,0,1,0,42484.7,0.0810011,0.0807048,-1.05902,22,0.00844359,10,-8.54679e-05,-2.9751,0.556877,0.105948,-4.39229,0.0807048,
2,0,0,1,0,42484.8,0.0795036,0.0791595,-1.05617,22,0.00828275,10,-8.36057e-05,-2.97627,0.646933,0.0911995,-3.75139,0.07915955,
2,0,0,1,0,42485,0.0780061,0.0776802,-1.04926,22,0.00812264,10,-8.1507e-05,-2.97912,0.565335,0.104363,-4.26778,0.0776802,
2,0,0,1,0,42485.1,0.076507,0.0761968,-1.04356,22,0.00796355,10,-7.95161e-05,-2.98148,0.528566,0.111623,-4.53895,0.0761968,
2,0,0,1,0,42485.3,0.0750088,0.074656,-1.03599,22,0.00780569,10,-7.73428e-05,-2.98464,0.634122,0.0930421,-3.75634,0.07465601,
2,0,0,1,0,42485.4,0.0735106,0.0731831,-1.02904,22,0.00764874,10,-7.53086e-05,-2.98757,0.653616,0.0902671,-3.62134,0.0731831,
2,0,0,1,0,42485.6,0.0720124,0.0716879,-1.02361,22,0.00749257,10,-7.33807e-05,-2.98986,0.593795,0.0993609,-3.96279,0.0716879,
2,0,0,1,0,42485.7,0.0705142,0.0701429,-1.01783,22,0.00733742,10,-7.13936e-05,-2.99232,0.455139,0.129631,-5.1411,0.0701429,
2,0,0,1,0,42485.9,0.069016,0.0687262,-1.00872,22,0.00718327,10,-6.93253e-05,-2.99623,0.533843,0.110519,-4.35997,0.0687262,
2,0,0,1,0,42486,0.0675179,0.0671558,-1.00403,22,0.00703024,10,-6.74267e-05,-2.99825,0.68208,0.0865001,-3.39576,0.0671558,
2,0,0,1,0,42486.2,0.0660188,0.0656938,-1.00205,22,0.00687772,10,-6.58286e-05,-2.99911,0.573496,0.102878,-4.00403,0.0656938,
2,0,0,1,0,42486.3,0.0645213,0.0641854,-0.994233,22,0.00672608,10,-6.38152e-05,-3.00251,0.497944,0.118487,-4.58441,0.0641854,
2,0,0,1,0,42486.5,0.0630237,0.0627013,-0.984369,22,0.00657557,10,-6.17211e-05,-3.00684,0.524977,0.112386,-4.32331,0.0627013,
2,0,0,1,0,42486.6,0.0615251,0.0612026,-0.978841,22,0.00642613,10,-5.99076e-05,-3.00929,0.529779,0.111367,-4.2593,0.0612026,
2,0,0,1,0,42486.8,0.0600269,0.0597107,-0.973034,22,0.00627754,10,-5.81005e-05,-3.01187,0.54976,0.10732,-4.07828,0.0597107,
2,0,0,1,0,42486.9,0.0585287,0.0581996,-0.966267,22,0.00612977,10,-5.62363e-05,-3.0149,0.444808,0.132642,-5.00115,0.0581996,
2,0,0,1,0,42487.1,0.0570305,0.0567044,-0.95945,22,0.00598301,10,-5.44051e-05,-3.01798,0.424514,0.138983,-5.21125,0.0567044,
2,0,0,1,0,42487.2,0.0555323,0.0552103,-0.953941,22,0.00583752,10,-5.26674e-05,-3.02048,0.481487,0.122537,-4.5664,0.0552103,
2,0,0,1,0,42487.4,0.0540342,0.0536928,-0.948193,22,0.00569275,10,-5.09112e-05,-3.0231,0.540498,0.109159,-4.03273,0.0536928,
2,0,0,1,0,42487.5,0.052536,0.0521934,-0.944292,22,0.00554875,10,-4.92858e-05,-3.02489,0.500106,0.117975,-4.3335,0.0521934,
2,0,0,1,0,42487.7,0.0510378,0.0507195,-0.936386,22,0.00540581,10,-4.7493e-05,-3.02855,0.381856,0.154509,-5.63646,0.0507195,
2,0,0,1,0,42487.8,0.0495391,0.0492072,-0.926005,22,0.00526403,10,-4.55661e-05,-3.03339,0.473803,0.124524,-4.50913,0.0492072,
2,0,0,1,0,42488,0.0480416,0.0477042,-0.920072,22,0.00512335,10,-4.38913e-05,-3.03618,0.625708,0.0942932,-3.38569,0.0477042,
2,0,0,1,0,42488.1,0.0465441,0.0462231,-0.913689,22,0.00498351,10,-4.22336e-05,-3.0392,0.488662,0.120738,-4.30789,0.0462231,
2,0,0,1,0,42488.3,0.045045,0.044707,-0.907387,22,0.00484458,10,-4.05665e-05,-3.04221,0.438158,0.134655,-4.77037,0.044707,
2,0,0,1,0,42488.4,0.0435468,0.0432606,-0.897726,22,0.00470697,10,-3.88361e-05,-3.04686,0.441468,0.133645,-4.70156,0.0432606,
2,0,0,1,0,42488.5,0.0420486,0.0417325,-0.895291,22,0.00457038,10,-3.73627e-05,-3.04804,0.438749,0.134473,-4.69063,0.0417325,
2,0,0,1,0,42488.7,0.0405504,0.0402469,-0.889316,22,0.00443463,10,-3.57922e-05,-3.05094,0.424156,0.1391,-4.81311,0.0402469,
2,0,0,1,0,42488.8,0.0390523,0.0387135,-0.880647,22,0.00429979,10,-3.4093e-05,-3.0552,0.35709,0.165224,-5.66814,0.0387135,
2,0,0,1,0,42489,0.0375541,0.0372247,-0.872302,22,0.00416613,10,-3.24712e-05,-3.05933,0.435101,0.135601,-4.62688,0.0372247,
2,0,0,1,0,42489.1,0.0360559,0.0357391,-0.865418,22,0.00403375,10,-3.09293e-05,-3.06277,0.431689,0.136673,-4.631,0.0357391,
2,0,0,1,0,42489.3,0.0345568,0.0342229,-0.862216,22,0.00390203,10,-2.95075e-05,-3.06438,0.458942,0.128556,-4.31438,0.0342229,
2,0,0,1,0,42489.4,0.0330593,0.0327234,-0.853175,22,0.00377136,10,-2.79188e-05,-3.06896,0.394333,0.14962,-4.98301,0.03272339,
2,0,0,1,0,42489.6,0.0315618,0.0311884,-0.846325,22,0.0036418,10,-2.63955e-05,-3.07246,0.433059,0.13624,-4.49814,0.0311884,
2,0,0,1,0,42489.7,0.0300631,0.0297393,-0.840586,22,0.00351331,10,-2.49985e-05,-3.07542,0.440061,0.134072,-4.39191,0.0297393,
2,0,0,1,0,42489.9,0.0285649,0.0282229,-0.833799,22,0.00338568,10,-2.35323e-05,-3.07894,0.528545,0.111627,-3.62475,0.0282229,
2,0,0,1,0,42490,0.0270667,0.0267256,-0.827294,22,0.00325886,10,-2.211e-05,-3.08234,0.413755,0.142597,-4.60118,0.0267256,
2,0,0,1,0,42490.2,0.0255685,0.0252199,-0.820304,22,0.00313305,10,-2.0688e-05,-3.08603,0.379267,0.155563,-4.98679,0.0252199,
2,0,0,1,0,42490.3,0.0240704,0.023747,-0.81309,22,0.00300835,10,-1.93084e-05,-3.08986,0.415884,0.141866,-4.51758,0.023747,
2,0,0,1,0,42490.5,0.0225722,0.0222507,-0.806962,22,0.00288448,10,-1.79555e-05,-3.09315,0.559804,0.105394,-3.3232,0.0222507,
2,0,0,1,0,42490.6,0.021074,0.0207386,-0.803814,22,0.00276138,10,-1.667e-05,-3.09484,0.546222,0.108015,-3.38888,0.0207386,
2,0,0,1,0,42490.8,0.0195758,0.0192572,-0.799144,22,0.00263911,10,-1.53893e-05,-3.09737,0.583313,0.101146,-3.14898,0.0192572,
2,0,0,1,0,42490.9,0.0180772,0.0177044,-0.791465,22,0.0025174,10,-1.40124e-05,-3.10157,0.669645,0.0881064,-2.73057,0.0177044,
2,0,0,1,0,42491.1,0.0165796,0.0162597,-0.789516,22,0.00239662,10,-1.28373e-05,-3.10264,0.78458,0.0751994,-2.32185,0.01625968,
2,0,0,1,0,42491.2,0.0150821,0.0147379,-0.788325,22,0.00227617,10,-1.16183e-05,-3.10329,0.921036,0.0640583,-1.9662,0.0147379,
2,0,0,1,0,42491.4,0.013583,0.0132542,-0.78251,22,0.0021561,10,-1.03716e-05,-3.10651,0.571857,0.103173,-3.14825,0.0132542,
2,0,0,1,0,42491.5,0.0120848,0.0117135,-0.778429,22,0.00203673,10,-9.1181e-06,-3.10878,1.01583,0.0580806,-1.77005,0.01171347,
2,0,0,1,0,42491.7,0.0105866,0.0102427,-0.776759,22,0.00191803,10,-7.9561e-06,-3.10971,1.31738,0.0447857,-1.35953,0.0102427,
2,0,0,1,0,42491.8,0.00908846,0.00878463,-0.77514,22,0.00179941,10,-6.80931e-06,-3.11062,1.73211,0.0340624,-1.03136,0.00878463,
2,0,0,1,0,42492,0.00759027,0.00728415,-0.775075,22,0.00168105,10,-5.64576e-06,-3.11066,1.06698,0.0552964,-1.66975,0.00728415,
2,0,0,1,0,42492.1,0.00609207,0.00573172,-0.772325,22,0.00156293,10,-4.42675e-06,-3.1122,2.26268,0.0260753,-0.786857,0.00573172,
2,0,0,1,0,42492.3,0.00459389,0.00427896,-0.772666,22,0.00144516,10,-3.30621e-06,-3.11201,10.5105,0.00561342,-0.168883,0.00427896,
2,0,0,1,0,42492.4,0.0030948,0.00279895,-0.772398,22,0.00132715,10,-2.1619e-06,-3.11216,-0.938952,-0.062836,1.89729,0.00279895,
2,0,0,1,0,42492.6,0.00159728,0.00124797,-0.781241,22,0.00120793,10,-9.74968e-07,-3.10722, , , ,0.00124797,
2,0,0,1,0,42492.7,0.000199195,-0.000113454,-0.775358,22,0.00109694,10,8.79677e-08,-3.1105, , , ,-0.000113454,