File: Figure_codes/Fig_3-5/rawdata_trumpetplot_data/after 10th/20221101_1-115_003_TrumpetPlot_ParaChange_from10_every3_08_CV_C01_18.csv
mode,ox/red,error,control changes,counter inc.,time/s,control/V,Ewe/V,<I>/mA,cycle number,(Q-Qo)/C,I Range,P/W,log(|I|),Tafel slope mV/dec,alpha_eff,dI/d(E-IR),E-IR/V,
2,0,0,0,0,36637.4,2.44065e-05,-0.000268062,-4.02435,19,0.0000000E+000,10,1.07877e-06,-2.3953, , , ,-0.000268062,
2,0,0,1,0,36637.4,0.0012943,0.000904104,-2.43636,19,-4.88065e-05,10,-2.20272e-06,-2.61326, , , ,0.000904104,
2,0,0,1,0,36637.4,0.00279784,0.00246995,-1.23613,19,-8.23518e-05,10,-3.05316e-06,-2.90794,-0.00336287,-17.5445,676.525,0.00246995,
2,0,0,1,0,36637.4,0.00429425,0.00398216,-0.412859,19,-9.7025e-05,10,-1.64407e-06,-3.3842,-0.00661285,-8.92202,497.857,0.00398216,
2,1,0,1,0,36637.4,0.00579065,0.00545541,0.221314,19,-9.82436e-05,10,1.20736e-06,-3.65499,0.0337901,1.74607,382.726,0.00545541,
2,1,0,1,0,36637.5,0.00729419,0.00697285,0.720491,19,-8.89674e-05,10,5.02387e-06,-3.14237,0.00265265,22.2419,299.897,0.00697285,
2,1,0,1,0,36637.5,0.00878347,0.00849745,1.12172,19,-7.15253e-05,10,9.53175e-06,-2.95012,0.0092714,6.36366,241.156,0.00849745,
2,1,0,1,0,36637.5,0.010287,0.0099474,1.44893,19,-4.7149e-05,10,1.44131e-05,-2.83895,0.0158784,3.71575,195.815,0.0099474,
2,1,0,1,0,36637.5,0.0117905,0.0114533,1.71317,19,-1.72106e-05,10,1.96213e-05,-2.7662,0.0224378,2.62949,169.325,0.0114533,
2,1,0,1,0,36637.5,0.013278,0.0129557,1.93336,19,1.69397e-05,10,2.5048e-05,-2.71369,0.0307668,1.91765,142.122,0.0129557,
2,1,0,1,0,36637.5,0.0147816,0.0144748,2.13231,19,5.54413e-05,10,3.08648e-05,-2.67115,0.0386078,1.52819,125.089,0.0144748,
2,1,0,1,0,36637.6,0.0162851,0.0160202,2.30129,19,9.74369e-05,10,3.68672e-05,-2.63803,0.0482688,1.22232,108.489,0.0160202,
2,1,0,1,0,36637.6,0.0177744,0.0174433,2.44835,19,0.000141882,10,4.27072e-05,-2.61113,0.0609719,0.967659,91.6971,0.0174433,
2,1,0,1,0,36637.6,0.0192779,0.0189266,2.57355,19,0.000189372,10,4.87087e-05,-2.58947,0.0706281,0.835362,83.5508,0.01892662,
2,1,0,1,0,36637.6,0.0207743,0.0204624,2.69238,19,0.000238934,10,5.50926e-05,-2.56986,0.0793823,0.743239,77.8316,0.0204624,
2,1,0,1,0,36637.6,0.0222707,0.0219738,2.80054,19,0.000290612,10,6.15385e-05,-2.55276,0.0922705,0.639424,69.7998,0.0219738,
2,1,0,1,0,36637.7,0.0237743,0.0234469,2.90261,19,0.000344545,10,6.80573e-05,-2.53721,0.106734,0.552776,62.5502,0.0234469,
2,1,0,1,0,36637.7,0.0252636,0.0249637,2.99421,19,0.000399664,10,7.47466e-05,-2.52372,0.116693,0.505602,59.1165,0.0249637,
2,1,0,1,0,36637.7,0.0267671,0.0264722,3.08365,19,0.000457048,10,8.16311e-05,-2.51093,0.12584,0.468851,56.3739,0.0264722,
2,1,0,1,0,36637.7,0.0282706,0.0279788,3.16919,19,0.000516096,10,8.86699e-05,-2.49905,0.133172,0.443035,54.7499,0.0279788,
2,1,0,1,0,36637.7,0.0297581,0.0294553,3.25257,19,0.000576039,10,9.58054e-05,-2.48777,0.147532,0.399913,50.637,0.0294553,
2,1,0,1,0,36637.8,0.0312617,0.0309598,3.32268,19,0.000638097,10,0.00010287,-2.47851,0.151458,0.389547,50.5319,0.0309598,
2,1,0,1,0,36637.8,0.0327652,0.0324139,3.40409,19,0.000701551,10,0.00011034,-2.468,0.16317,0.361587,47.9657,0.0324139,
2,1,0,1,0,36637.8,0.0342545,0.0338993,3.47805,19,0.000765747,10,0.000117903,-2.45866,0.162813,0.362378,49.0909,0.0338993,
2,1,0,1,0,36637.8,0.035758,0.0354559,3.54866,19,0.000831967,10,0.000125821,-2.44994,0.174794,0.337541,46.664,0.0354559,
2,1,0,1,0,36637.8,0.0372544,0.0369193,3.61573,19,0.00089918,10,0.00013349,-2.4418,0.172165,0.342695,48.3344,0.0369193,
2,1,0,1,0,36637.8,0.0387508,0.0384305,3.68757,19,0.000967625,10,0.000141715,-2.43326,0.176181,0.334882,48.2077,0.0384305,
2,1,0,1,0,36637.9,0.0402544,0.0399336,3.75322,19,0.00103779,10,0.000149879,-2.4256,0.176022,0.335185,49.0964,0.0399336,
2,1,0,1,0,36637.9,0.0417436,0.0414906,3.82574,19,0.00110856,10,0.000158732,-2.41728,0.181855,0.324435,48.3818,0.0414906,
2,1,0,1,0,36637.9,0.0432472,0.0429163,3.89494,19,0.00118134,10,0.000167156,-2.4095,0.202662,0.291126,44.1628,0.0429163,
2,1,0,1,0,36637.9,0.0447507,0.0444385,3.95133,19,0.00125532,10,0.000175591,-2.40326,0.200175,0.294742,45.4839,0.0444385,
2,1,0,1,0,36637.9,0.0462382,0.0459168,4.01491,19,0.0013297,10,0.000184352,-2.39632,0.207627,0.284163,44.5524,0.04591677,
2,1,0,1,0,36638,0.0477418,0.0474257,4.08675,19,0.00140615,10,0.000193817,-2.38862,0.217887,0.270782,43.1761,0.0474257,
2,1,0,1,0,36638,0.0492453,0.0489966,4.14795,19,0.00148383,10,0.000203235,-2.38217,0.245441,0.240384,38.9144,0.0489966,
2,1,0,1,0,36638,0.0507346,0.050434,4.21199,19,0.00156183,10,0.000212427,-2.37551,0.245262,0.240559,39.5494,0.05043399,
2,1,0,1,0,36638,0.0522381,0.0519286,4.27463,19,0.0016418,10,0.000221975,-2.3691,0.241737,0.244067,40.7418,0.0519286,
2,1,0,1,0,36638,0.0537345,0.0534463,4.3439,19,0.00172259,10,0.000232165,-2.36212,0.237801,0.248107,41.998,0.0534463,
2,1,0,1,0,36638.1,0.0552309,0.0549318,4.40633,19,0.00180458,10,0.000242048,-2.35592,0.253445,0.232792,39.9436,0.0549318,
2,1,0,1,0,36638.1,0.0567345,0.056392,4.46584,19,0.00188815,10,0.000251838,-2.3501,0.273088,0.216047,37.6064,0.056392,
2,1,0,1,0,36638.1,0.0582237,0.0578688,4.52619,19,0.0019719,10,0.000261925,-2.34427,0.261956,0.225229,39.7594,0.0578688,
2,1,0,1,0,36638.1,0.0597273,0.0593849,4.58618,19,0.00205765,10,0.00027235,-2.33855,0.264165,0.223346,39.9158,0.0593849,
2,1,0,1,0,36638.1,0.0612308,0.0609313,4.64188,19,0.00214455,10,0.000282836,-2.33331,0.269508,0.218917,39.5982,0.0609313,
2,1,0,1,0,36638.1,0.0627183,0.0624079,4.70036,19,0.00223164,10,0.000293339,-2.32787,0.270797,0.217875,39.9113,0.0624079,
2,1,0,1,0,36638.2,0.0642218,0.0639151,4.75105,19,0.00232064,10,0.000303664,-2.32321,0.275559,0.21411,39.7479,0.0639151,
2,1,0,1,0,36638.2,0.0657254,0.0654111,4.80524,19,0.00241076,10,0.000314316,-2.31828,0.271803,0.217069,40.7244,0.0654111,
2,1,0,1,0,36638.2,0.0672147,0.0669207,4.86638,19,0.00250104,10,0.000325661,-2.31279,0.292265,0.201872,38.3291,0.06692066,
2,1,0,1,0,36638.2,0.0687182,0.0684415,4.91904,19,0.00259331,10,0.000336667,-2.30812,0.339698,0.173683,33.3551,0.0684415,
2,1,0,1,0,36638.2,0.0702146,0.0699203,4.96946,19,0.00268605,10,0.000347466,-2.30369,0.325538,0.181239,35.1881,0.0699203,
2,1,0,1,0,36638.3,0.071711,0.0713789,5.01917,19,0.00277975,10,0.000358263,-2.29937,0.344946,0.171041,33.5227,0.0713789,
2,1,0,1,0,36638.3,0.0732146,0.0729325,5.07262,19,0.00287495,10,0.000369959,-2.29477,0.357534,0.165019,32.691,0.0729325,
2,1,0,1,0,36638.3,0.0747038,0.0744244,5.12637,19,0.00297006,10,0.000381527,-2.29019,0.393649,0.14988,29.969,0.0744244,
2,1,0,1,0,36638.3,0.0762074,0.0758879,5.17309,19,0.0030671,10,0.000392575,-2.28625,0.395663,0.149117,30.0962,0.0758879,
2,1,0,1,0,36638.3,0.0777109,0.0773914,5.22305,19,0.00316502,10,0.000404219,-2.28208,0.390934,0.15092,30.75,0.0773914,
2,1,0,1,0,36638.4,0.0791984,0.0788795,5.27532,19,0.00326276,10,0.000416115,-2.27775,0.407185,0.144897,29.7814,0.0788795,
2,1,0,1,0,36638.4,0.0807019,0.0804215,5.31605,19,0.00336245,10,0.000427525,-2.27441,0.410315,0.143792,29.778,0.08042153,
2,1,0,1,0,36638.4,0.0822055,0.0818844,5.35424,19,0.00346297,10,0.000438429,-2.2713,0.421069,0.14012,29.2699,0.0818844,
2,1,0,1,0,36638.4,0.0836947,0.0834005,5.40054,19,0.00356312,10,0.000450408,-2.26756,0.430986,0.136895,28.837,0.08340051,
2,1,0,1,0,36638.4,0.0851983,0.0848907,5.43861,19,0.00366517,10,0.000461688,-2.26451,0.429077,0.137505,29.1577,0.0848907,
2,1,0,1,0,36638.4,0.0866947,0.0863837,5.48227,19,0.00376748,10,0.000473579,-2.26104,0.46161,0.127814,27.3132,0.0863837,
2,1,0,1,0,36638.5,0.0881911,0.0878595,5.51966,19,0.00387053,10,0.000484954,-2.25809,0.455558,0.129511,27.9013,0.0878595,
2,1,0,1,0,36638.5,0.0896946,0.0893755,5.55462,19,0.00397481,10,0.000496447,-2.25535,0.469669,0.12562,27.2465,0.0893755,
2,1,0,1,0,36638.5,0.0911839,0.0908844,5.59785,19,0.00407876,10,0.000508757,-2.25198,0.436386,0.135202,29.5283,0.09088444,
2,1,0,1,0,36638.5,0.0926857,0.0923439,5.63752,19,0.00418465,10,0.000520591,-2.24891,0.44251,0.13333,29.3502,0.0923439,
2,1,0,1,0,36638.5,0.0941892,0.0938876,5.68214,19,0.00429133,10,0.000533483,-2.24549,0.467613,0.126173,28.0095,0.0938876,
2,1,0,1,0,36638.6,0.0956785,0.0953713,5.72478,19,0.00439767,10,0.00054598,-2.24224,0.456218,0.129324,28.935,0.0953713,
2,1,0,1,0,36638.6,0.097182,0.096854,5.7758,19,0.00450604,10,0.000559409,-2.23839,0.400954,0.147149,33.186,0.096854,
2,1,0,1,0,36638.6,0.0986856,0.0983554,5.83408,19,0.00461538,10,0.000573813,-2.23403,0.365254,0.161531,36.7759,0.09835542,
2,1,0,1,0,36638.6,0.100175,0.0998313,5.89248,19,0.00472461,10,0.000588254,-2.2297,0.359213,0.164248,37.7706,0.0998313,
2,1,0,1,0,36638.6,0.101678,0.101356,5.95034,19,0.00483613,10,0.000603102,-2.22546,0.338811,0.174138,40.4298,0.101356,
2,1,0,1,0,36638.7,0.103175,0.102899,6.01768,19,0.0049482,10,0.000619212,-2.22057,0.311926,0.189147,44.4618,0.1028989,
2,1,0,1,0,36638.7,0.104671,0.104353,6.09018,19,0.00506153,10,0.00063553,-2.21537,0.272955,0.216153,51.3663,0.104353,
2,1,0,1,0,36638.7,0.106175,0.105847,6.17128,19,0.00517695,10,0.000653209,-2.20962,0.268313,0.219893,52.8823,0.105847,
2,1,0,1,0,36638.7,0.107662,0.107332,6.24544,19,0.00529258,10,0.000670335,-2.20444,0.258954,0.22784,55.5371,0.107332,
2,1,0,1,0,36638.7,0.109166,0.10884,6.32286,19,0.00541086,10,0.000688181,-2.19909,0.243792,0.242009,59.8059,0.10884,
2,1,0,1,0,36638.7,0.110669,0.110298,6.4095,19,0.00553079,10,0.000706953,-2.19318,0.227703,0.259109,64.8952,0.110298,
2,1,0,1,0,36638.8,0.112159,0.111812,6.50585,19,0.00565119,10,0.000727432,-2.1867,0.236358,0.249621,63.3877,0.111812,
2,1,0,1,0,36638.8,0.113662,0.113356,6.60066,19,0.00577468,10,0.000748227,-2.18041,0.235466,0.250566,64.5348,0.113356,
2,1,0,1,0,36638.8,0.115166,0.114828,6.69344,19,0.00589994,10,0.000768597,-2.17435,0.247877,0.238021,62.1864,0.114828,
2,1,0,1,0,36638.8,0.116655,0.116338,6.78999,19,0.00602562,10,0.000789934,-2.16813,0.251982,0.234144,62.0604,0.116338,
2,1,0,1,0,36638.8,0.118158,0.117831,6.88878,19,0.00615445,10,0.000811712,-2.16186,0.265473,0.222244,59.7135,0.117831,
2,1,0,1,0,36638.9,0.119655,0.119367,6.97964,19,0.00628436,10,0.000833136,-2.15617,0.284895,0.207093,56.3559,0.119367,
2,1,0,1,0,36638.9,0.121151,0.120814,7.06202,19,0.00641584,10,0.000853193,-2.15107,0.294657,0.200233,55.1864,0.120814,
2,1,0,1,0,36638.9,0.122655,0.122338,7.1508,19,0.00654965,10,0.000874817,-2.14565,0.299308,0.197121,54.9493,0.122338,
2,1,0,1,0,36638.9,0.124142,0.123811,7.23392,19,0.00668359,10,0.000895637,-2.14063,0.318696,0.185129,52.2257,0.123811,
2,1,0,1,0,36638.9,0.125646,0.125331,7.30979,19,0.00682047,10,0.000916145,-2.1361,0.352536,0.167359,47.6776,0.125331,
2,1,0,1,0,36639,0.127149,0.126808,7.37592,19,0.00695874,10,0.000935326,-2.13218,0.368952,0.159912,45.9926,0.126808,
2,1,0,1,0,36639,0.128639,0.128312,7.4412,19,0.00709672,10,0.000954792,-2.12836,0.394977,0.149376,43.3874,0.1283116,
2,1,0,1,0,36639,0.130142,0.129802,7.50805,19,0.00723742,10,0.000974558,-2.12447,0.40262,0.14654,42.8957,0.129802,
2,1,0,1,0,36639,0.131646,0.131326,7.56065,19,0.00737932,10,0.000992908,-2.12144,0.439377,0.134281,39.5971,0.131326,
2,1,0,1,0,36639,0.133135,0.132807,7.61502,19,0.00752076,10,0.00101133,-2.11833,0.50632,0.116527,34.6235,0.132807,
2,1,0,1,0,36639,0.134639,0.1343,7.66002,19,0.00766463,10,0.00102874,-2.11577,0.54611,0.108037,32.3166,0.1343,
2,1,0,1,0,36639.1,0.136135,0.135812,7.71319,19,0.00780863,10,0.00104754,-2.11277,0.600831,0.0981973,29.538,0.135812,
2,1,0,1,0,36639.1,0.137631,0.137297,7.75198,19,0.00795346,10,0.00106432,-2.11059,0.645618,0.0913854,27.6295,0.1372966,
2,1,0,1,0,36639.1,0.139135,0.138836,7.79109,19,0.00809984,10,0.00108168,-2.1084,0.823591,0.0716375,21.7535,0.138836,
2,1,0,1,0,36639.1,0.140622,0.140298,7.81903,19,0.00824526,10,0.00109699,-2.10685,1.13339,0.0520563,15.8864,0.1402981,
2,1,0,1,0,36639.1,0.142126,0.141815,7.84622,19,0.00839275,10,0.00111271,-2.10534,1.27408,0.0463078,14.1737,0.141815,
2,1,0,1,0,36639.2,0.143629,0.143325,7.8626,19,0.00854069,10,0.00112691,-2.10443,3.93492,0.0149939,4.59557,0.143325,
2,1,0,1,0,36639.2,0.145119,0.144799,7.87379,19,0.00868731,10,0.00114012,-2.10382,-3.33444,-0.0176941,-5.42624,0.144799,
2,1,0,1,0,36639.2,0.146622,0.146347,7.86057,19,0.00883537,10,0.00115037,-2.10455,-1.13468,-0.0519971,-15.9177,0.146347,
2,1,0,1,0,36639.2,0.148126,0.147819,7.83449,19,0.00898306,10,0.00115809,-2.10599,-0.693035,-0.0851328,-25.9482,0.147819,
2,1,0,1,0,36639.2,0.149615,0.149301,7.78902,19,0.00912849,10,0.00116291,-2.10852,-0.450016,-0.131107,-39.7198,0.149301,
2,1,0,1,0,36639.3,0.151119,0.150785,7.7186,19,0.00927437,10,0.00116385,-2.11246,-0.30136,-0.195779,-58.7067,0.150785,
2,1,0,1,0,36639.3,0.152615,0.152326,7.61399,19,0.00941793,10,0.00115981,-2.11839,-0.24393,-0.241873,-71.6359,0.152326,
2,1,0,1,0,36639.3,0.154111,0.153768,7.49162,19,0.00955934,10,0.00115197,-2.12542,-0.197593,-0.298593,-87.1105,0.153768,
2,1,0,1,0,36639.3,0.155615,0.155301,7.3502,19,0.00969904,10,0.00114149,-2.1337,-0.164853,-0.357894,-102.313,0.155301,
2,1,0,1,0,36639.3,0.157103,0.15683,7.17738,19,0.00983441,10,0.00112563,-2.14403,-0.136447,-0.432401,-120.722,0.15683,
2,1,0,1,0,36639.3,0.158606,0.158291,6.98546,19,0.00996782,10,0.00110573,-2.1558,-0.123474,-0.477835,-129.968,0.158291,
2,1,0,1,0,36639.4,0.16011,0.159772,6.76964,19,0.0100974,10,0.0010816,-2.16943,-0.11051,-0.533889,-140.929,0.159772,
2,1,0,1,0,36639.4,0.161599,0.161289,6.55696,19,0.0102216,10,0.00105757,-2.1833,-0.102426,-0.576026,-147.136,0.161289,
2,1,0,1,0,36639.4,0.163102,0.162784,6.33225,19,0.010343,10,0.00103079,-2.19844,-0.0957077,-0.616461,-152.132,0.162784,
2,1,0,1,0,36639.4,0.164606,0.164244,6.10235,19,0.0104601,10,0.00100227,-2.2145,-0.0920017,-0.641292,-152.629,0.164244,
2,1,0,1,0,36639.4,0.166095,0.165776,5.87938,19,0.0105717,10,0.000974658,-2.23067,-0.0920521,-0.640941,-147.232,0.165776,
2,1,0,1,0,36639.5,0.167599,0.167305,5.66313,19,0.0106803,10,0.00094747,-2.24694,-0.0936517,-0.629994,-139.377,0.167305,
2,1,0,1,0,36639.5,0.169095,0.168802,5.46684,19,0.0107846,10,0.000922816,-2.26226,-0.0951815,-0.619868,-132.349,0.168802,
2,1,0,1,0,36639.5,0.170592,0.170277,5.28106,19,0.0108852,10,0.000899245,-2.27728,-0.0978323,-0.603073,-124.27,0.170277,
2,1,0,1,0,36639.5,0.172095,0.171783,5.09431,19,0.0109828,10,0.000875118,-2.29291,-0.102635,-0.574854,-114.485,0.171783,
2,1,0,1,0,36639.5,0.173583,0.173267,4.93295,19,0.0110762,10,0.000854715,-2.30689,-0.109289,-0.539851,-104.067,0.173267,
2,1,0,1,0,36639.6,0.175086,0.174755,4.78516,19,0.0111676,10,0.00083623,-2.3201,-0.115824,-0.509393,-95.1898,0.1747548,
2,1,0,1,0,36639.6,0.17659,0.176285,4.65063,19,0.0112565,10,0.000819835,-2.33249,-0.12438,-0.474353,-86.099,0.176285,
2,1,0,1,0,36639.6,0.178079,0.177781,4.51753,19,0.0113419,10,0.000803132,-2.3451,-0.132905,-0.443928,-78.4824,0.177781,
2,1,0,1,0,36639.6,0.179582,0.179247,4.40884,19,0.011426,10,0.000790273,-2.35568,-0.143957,-0.409844,-70.6593,0.179247,
2,1,0,1,0,36639.6,0.181086,0.180772,4.3027,19,0.0115081,10,0.000777808,-2.36626,-0.156091,-0.377983,-63.647,0.180772,
2,1,0,1,0,36639.6,0.182575,0.182251,4.21733,19,0.0115875,10,0.000768612,-2.37496,-0.163024,-0.361909,-59.5725,0.182251,
2,1,0,1,0,36639.7,0.184079,0.18376,4.1274,19,0.0116662,10,0.000758452,-2.38432,-0.174776,-0.337574,-54.4477,0.18376,
2,1,0,1,0,36639.7,0.185582,0.185291,4.04762,19,0.0117432,10,0.000749987,-2.3928,-0.185573,-0.317934,-50.3086,0.185291,
2,1,0,1,0,36639.7,0.18707,0.186752,3.98102,19,0.0118181,10,0.000743462,-2.40001,-0.199922,-0.295114,-45.8724,0.186752,
2,1,0,1,0,36639.7,0.188573,0.188253,3.91573,19,0.0118925,10,0.000737149,-2.40719,-0.215462,-0.27383,-41.8751,0.1882533,
2,1,0,1,0,36639.7,0.19007,0.189735,3.85896,19,0.0119654,10,0.000732179,-2.41353,-0.225679,-0.261433,-39.3915,0.189735,
2,1,0,1,0,36639.8,0.191566,0.191258,3.80078,19,0.0120372,10,0.000726931,-2.42013,-0.237652,-0.248262,-36.8953,0.191258,
2,1,0,1,0,36639.8,0.19307,0.192756,3.75238,19,0.0121085,10,0.000723295,-2.42569,-0.26448,-0.223079,-32.7025,0.192756,
2,1,0,1,0,36639.8,0.194559,0.194242,3.71751,19,0.0121781,10,0.000722095,-2.42975,-0.282574,-0.208795,-30.2644,0.194242,
2,1,0,1,0,36639.8,0.196063,0.195764,3.67179,19,0.0122477,10,0.000718803,-2.43512,-0.289521,-0.203785,-29.1831,0.195764,
2,1,0,1,0,36639.8,0.197566,0.197229,3.62691,19,0.0123165,10,0.000715331,-2.44046,-0.344914,-0.171057,-24.258,0.197229,
2,1,0,1,0,36639.9,0.199055,0.198737,3.59473,19,0.0123838,10,0.000714405,-2.44433,-0.378953,-0.155692,-21.8458,0.198737,
2,1,0,1,0,36639.9,0.200559,0.200264,3.56393,19,0.0124513,10,0.000713726,-2.44807,-0.434565,-0.135768,-18.8712,0.200264,
2,1,0,1,0,36639.9,0.202062,0.201763,3.53672,19,0.0125182,10,0.000713578,-2.4514,-0.447951,-0.131711,-18.1427,0.201763,
2,1,0,1,0,36639.9,0.20355,0.203229,3.49959,19,0.0125838,10,0.000711216,-2.45598,-0.469868,-0.125567,-17.1767,0.203229,
2,1,0,1,0,36639.9,0.205053,0.204739,3.47167,19,0.0126496,10,0.000710787,-2.45946,-0.600389,-0.0982696,-13.3612,0.204739,
2,1,0,1,0,36639.9,0.20655,0.206201,3.45158,19,0.0127146,10,0.000711721,-2.46198,-0.615536,-0.0958514,-12.9238,0.2062014,
2,1,0,1,0,36640,0.208046,0.207747,3.43718,19,0.0127792,10,0.000714065,-2.4638,-0.573541,-0.10287,-13.7658,0.207747,
2,1,0,1,0,36640,0.20955,0.209252,3.41133,19,0.0128438,10,0.000713827,-2.46708,-0.470373,-0.125432,-16.7091,0.209252,
2,1,0,1,0,36640,0.211039,0.210742,3.39381,19,0.0129073,10,0.000715216,-2.46931,-0.530043,-0.111312,-14.743,0.210742,
2,1,0,1,0,36640,0.212543,0.212247,3.36767,19,0.0129711,10,0.000714777,-2.47267,-0.58301,-0.101199,-13.3209,0.212247,
2,1,0,1,0,36640,0.214046,0.213701,3.35569,19,0.0130346,10,0.000717116,-2.47422,-0.629833,-0.0936756,-12.2646,0.213701,
2,1,0,1,0,36640.1,0.215535,0.215227,3.3444,19,0.013097,10,0.000719804,-2.47568,-0.593057,-0.0994846,-12.9686,0.215227,
2,1,0,1,0,36640.1,0.217039,0.216734,3.32414,19,0.0131599,10,0.000720455,-2.47832,-0.680367,-0.0867179,-11.2567,0.216734,
2,1,0,1,0,36640.1,0.218543,0.218203,3.31129,19,0.0132224,10,0.000722533,-2.48,-0.952104,-0.061968,-8.00181,0.218203,
2,1,0,1,0,36640.1,0.22003,0.21976,3.30213,19,0.013284,10,0.000725677,-2.48121,-1.04198,-0.0566232,-7.2859,0.21976,
2,1,0,1,0,36640.1,0.221534,0.221232,3.28519,19,0.0133461,10,0.000726791,-2.48344,-0.983533,-0.0599878,-7.68834,0.2212324,
2,1,0,1,0,36640.2,0.22303,0.222749,3.27084,19,0.0134076,10,0.000728578,-2.48534,-1.06616,-0.055339,-7.06534,0.222749,
2,1,0,1,0,36640.2,0.224526,0.224215,3.26011,19,0.0134689,10,0.000730967,-2.48677,-1.03071,-0.0572422,-7.28649,0.224215,
2,1,0,1,0,36640.2,0.22603,0.225752,3.24956,19,0.0135303,10,0.000733593,-2.48818,-1.66196,-0.0355002,-4.50138,0.225752,
2,1,0,1,0,36640.2,0.227519,0.227186,3.2322,19,0.0135908,10,0.000734311,-2.4905,-0.976901,-0.0603951,-7.62838,0.227186,
2,1,0,1,0,36640.2,0.229023,0.228716,3.22426,19,0.0136518,10,0.00073744,-2.49157,-1.12017,-0.0526707,-6.63974,0.228716,
2,1,0,1,0,36640.2,0.230526,0.230224,3.21322,19,0.0137126,10,0.000739761,-2.49306,-1.61402,-0.0365546,-4.59584,0.230224,
2,1,0,1,0,36640.3,0.232016,0.231737,3.20707,19,0.0137725,10,0.000743195,-2.49389,-1.39506,-0.042292,-5.29316,0.231737,
2,1,0,1,0,36640.3,0.233519,0.233202,3.20477,19,0.013833,10,0.000747359,-2.4942,-0.887569,-0.0664737,-8.30109,0.2332022,
2,1,0,1,0,36640.3,0.235023,0.234713,3.19174,19,0.0138934,10,0.000749143,-2.49597,-0.995757,-0.0592514,-7.37403,0.234713,
2,1,0,1,0,36640.3,0.23651,0.23622,3.18355,19,0.0139529,10,0.000752019,-2.49709,-0.983096,-0.0600145,-7.4651,0.23622,
2,1,0,1,0,36640.3,0.238014,0.237712,3.17362,19,0.0140128,10,0.000754406,-2.49845,-1.55593,-0.0379194,-4.69637,0.237712,
2,1,0,1,0,36640.4,0.23951,0.239221,3.17163,19,0.0140724,10,0.00075872,-2.49872,-1.17587,-0.0501756,-6.21124,0.239221,
2,1,0,1,0,36640.4,0.241006,0.240707,3.16339,19,0.0141318,10,0.000761449,-2.49985,-1.14243,-0.0516442,-6.37027,0.240707,
2,1,0,1,0,36640.4,0.24251,0.242206,3.1529,19,0.0141914,10,0.00076365,-2.50129,-1.55966,-0.0378287,-4.65477,0.242206,
2,1,0,1,0,36640.4,0.243999,0.243684,3.14688,19,0.0142501,10,0.000766842,-2.50212,-2.13368,-0.0276518,-3.39904,0.243684,
2,1,0,1,0,36640.4,0.245503,0.245218,3.14969,19,0.0143095,10,0.000772361,-2.50173,-3.10763,-0.0189855,-2.32556,0.245218,
2,1,0,1,0,36640.5,0.247006,0.246724,3.13996,19,0.0143687,10,0.000774703,-2.50308,-2.48336,-0.0237581,-2.90795,0.246724,
2,1,0,1,0,36640.5,0.248496,0.2482,3.12834,19,0.0144272,10,0.000776455,-2.50469,-3.82171,-0.0154381,-1.88646,0.2482004,
2,1,0,1,0,36640.5,0.249999,0.249666,3.1212,19,0.0144862,10,0.000779256,-2.50568,-2.10354,-0.028048,-3.41837,0.249666,
2,1,0,1,0,36640.5,0.251503,0.251226,3.11697,19,0.0145451,10,0.000783064,-2.50627,-23.0497,-0.00255968,-0.311261,0.251226,
2,1,0,1,0,36640.5,0.25299,0.252665,3.10863,19,0.0146032,10,0.000785443,-2.50743,-2.10034,-0.0280908,-3.40854,0.252665,
2,1,0,1,0,36640.5,0.254494,0.254158,3.10082,19,0.0146619,10,0.000788098,-2.50852,-1.46036,-0.0404011,-4.89853,0.254158,
2,1,0,1,0,36640.6,0.25599,0.255679,3.09551,19,0.0147201,10,0.000791459,-2.50927,-1.68364,-0.0350431,-4.24415,0.255679,
2,1,0,1,0,36640.6,0.257487,0.257164,3.09532,19,0.0147782,10,0.000796004,-2.50929,-1.92108,-0.0307118,-3.70825,0.257164,
2,1,0,1,0,36640.6,0.25899,0.25866,3.09037,19,0.0148366,10,0.000799355,-2.50999,-1.4357,-0.0410949,-4.95287,0.25866,
2,1,0,1,0,36640.6,0.260479,0.260215,3.08646,19,0.0148942,10,0.00080314,-2.51054,-1.23044,-0.0479504,-5.77053,0.260215,
2,1,0,1,0,36640.6,0.261983,0.261649,3.07931,19,0.0149524,10,0.000805697,-2.51155,-1.90972,-0.0308946,-3.71222,0.261649,
2,1,0,1,0,36640.7,0.263486,0.263168,3.07621,19,0.0150104,10,0.000809561,-2.51198,-2.20194,-0.0267945,-3.21164,0.263168,
2,1,0,1,0,36640.7,0.264974,0.26472,3.06948,19,0.0150677,10,0.000812555,-2.51294,-2.39406,-0.0246443,-2.95176,0.26472,
2,1,0,1,0,36640.7,0.266477,0.266202,3.06542,19,0.0151256,10,0.000816021,-2.51351,-1.82475,-0.0323333,-3.86857,0.266202,
2,1,0,1,0,36640.7,0.267981,0.267676,3.05239,19,0.0151833,10,0.000817053,-2.51536,-2.46743,-0.0239116,-2.8527,0.267676,
2,1,0,1,0,36640.7,0.26947,0.269144,3.05356,19,0.0152403,10,0.000821847,-2.51519,-4.47895,-0.0131727,-1.5702,0.269144,
2,1,0,1,0,36640.8,0.270974,0.270662,3.05416,19,0.0152979,10,0.000826646,-2.51511,-3.01723,-0.0195543,-2.32466,0.2706624,
2,1,0,1,0,36640.8,0.27247,0.272183,3.04368,19,0.0153551,10,0.00082844,-2.5166,-3.542,-0.0166572,-1.97654,0.2721833,
2,1,0,1,0,36640.8,0.273967,0.27369,3.0382,19,0.0154122,10,0.000831527,-2.51738,-1.6863,-0.0349879,-4.15383,0.27369,
2,1,0,1,0,36640.8,0.27547,0.275136,3.0289,19,0.0154694,10,0.00083336,-2.51872,-1.83625,-0.0321306,-3.8032,0.275136,
2,1,0,1,0,36640.8,0.276959,0.276672,3.0238,19,0.015526,10,0.0008366,-2.51945,-2.8013,-0.0210616,-2.48941,0.276672,
2,1,0,1,0,36640.8,0.278463,0.278172,3.02253,19,0.0155831,10,0.000840783,-2.51963,-1.71969,-0.0343084,-4.0448,0.2781716,
2,1,0,1,0,36640.9,0.279967,0.279654,3.01216,19,0.0156401,10,0.000842363,-2.52112,-1.29822,-0.0454467,-5.35272,0.279654,
2,1,0,1,0,36640.9,0.281454,0.281174,3.01107,19,0.0156964,10,0.000846635,-2.52128,-1.44917,-0.0407129,-4.78729,0.281174,
2,1,0,1,0,36640.9,0.282958,0.282652,3.01205,19,0.0157532,10,0.000851362,-2.52114,-2.19715,-0.0268529,-3.15248,0.282652,
2,1,0,1,0,36640.9,0.284461,0.284203,3.00264,19,0.0158099,10,0.000853359,-2.5225,-1.51488,-0.0389469,-4.56337,0.284203,
2,1,0,1,0,36640.9,0.28595,0.285671,2.99928,19,0.0158659,10,0.000856808,-2.52298,-1.33353,-0.0442436,-5.1756,0.285671,
2,1,0,1,0,36641,0.287454,0.287098,2.99058,19,0.0159224,10,0.000858589,-2.52424,-1.33145,-0.0443127,-5.17335,0.287098,
2,1,0,1,0,36641,0.28895,0.288641,2.98746,19,0.0159785,10,0.000862303,-2.5247,-1.96895,-0.0299652,-3.49096,0.288641,
2,1,0,1,0,36641,0.290447,0.290155,2.98426,19,0.0160345,10,0.000865897,-2.52516,-2.02142,-0.0291874,-3.39711,0.290155,
2,1,0,1,0,36641,0.29195,0.291603,2.97738,19,0.0160907,10,0.000868212,-2.52617,-2.63993,-0.0223491,-2.59505,0.291603,
2,1,0,1,0,36641,0.29344,0.293119,2.96711,19,0.0161462,10,0.000869716,-2.52767,-4.54203,-0.0129898,-1.50642,0.293119,
2,1,0,1,0,36641.1,0.294943,0.294682,2.96611,19,0.0162022,10,0.000874061,-2.52781,-2.27894,-0.0258893,-2.99692,0.294682,
2,1,0,1,0,36641.1,0.296447,0.296163,2.9617,19,0.0162581,10,0.000877147,-2.52846,-26.4874,-0.00222747,-0.257198,0.296163,
2,1,0,1,0,36641.1,0.297934,0.297649,2.95588,19,0.0163134,10,0.000879816,-2.52931,-6.8437,-0.00862107,-0.99476,0.297649,
2,1,0,1,0,36641.1,0.299438,0.29911,2.94429,19,0.0163691,10,0.000880667,-2.53102,-0.0328391,-1.79664,-191.517,0.29911,
2,1,0,1,0,36641.1,0.300012,0.29967,2.95356,19,0.0163898,10,0.000885093,-2.52965,0.00190024,31.0488,2344.06,0.29967,
2,1,0,1,0,36641.1,0.298737,0.298432,1.51667,19,0.0164232,10,0.000452624,-2.81911,0.00390536,15.1075,782.885,0.298432,
2,1,0,1,0,36641.1,0.29724,0.296933,0.650789,19,0.0164425,10,0.000193241,-3.18656,0.00191099,30.8741,483.78,0.296933,
2,1,0,1,0,36641.2,0.295744,0.29539,0.114761,19,0.0164492,10,3.38994e-05,-3.9402,0.00923953,6.38561,304.021,0.2953904,
2,0,0,1,0,36641.2,0.29424,0.293925,-0.241087,19,0.0164476,10,-7.08615e-05,-3.61783,-0.0126431,-4.66659,209.044,0.293925,
2,0,0,1,0,36641.2,0.292751,0.292413,-0.491627,19,0.0164405,10,-0.000143758,-3.30836,-0.00547597,-10.7743,148.897,0.292413,
2,0,0,1,0,36641.2,0.291248,0.290928,-0.678609,19,0.0164293,10,-0.000197426,-3.16838,-0.0122662,-4.80997,114.64,0.290928,
2,0,0,1,0,36641.2,0.289744,0.289408,-0.827662,19,0.0164149,10,-0.000239532,-3.08215,-0.0198313,-2.97509,90.35,0.289408,
2,0,0,1,0,36641.3,0.288257,0.287957,-0.939263,19,0.0163983,10,-0.000270467,-3.02721,-0.0292628,-2.01621,71.7085,0.287957,
2,0,0,1,0,36641.3,0.286753,0.286425,-1.02852,19,0.0163795,10,-0.000294593,-2.98779,-0.0381686,-1.54577,61.3136,0.286425,
2,0,0,1,0,36641.3,0.285249,0.284933,-1.11201,19,0.0163591,10,-0.000316848,-2.95389,-0.0481847,-1.22445,52.6592,0.284933,
2,0,0,1,0,36641.3,0.28376,0.283417,-1.18364,19,0.0163375,10,-0.000335464,-2.92678,-0.0588953,-1.00178,45.9691,0.283417,
2,0,0,1,0,36641.3,0.282257,0.281933,-1.24574,19,0.0163144,10,-0.000351216,-2.90457,-0.0737752,-0.799726,38.6327,0.281933,
2,0,0,1,0,36641.4,0.28076,0.280429,-1.30159,19,0.0162903,10,-0.000365005,-2.88552,-0.0894297,-0.659736,33.4746,0.280429,
2,0,0,1,0,36641.4,0.279264,0.278912,-1.34744,19,0.0162653,10,-0.000375816,-2.87049,-0.107044,-0.551178,28.9938,0.278912,
2,0,0,1,0,36641.4,0.27776,0.277457,-1.39495,19,0.0162393,10,-0.000387039,-2.85544,-0.117926,-0.500315,27.1679,0.277457,
2,0,0,1,0,36641.4,0.276271,0.275938,-1.44235,19,0.0162126,10,-0.000397999,-2.84093,-0.122263,-0.482566,27.0667,0.275938,
2,0,0,1,0,36641.4,0.274767,0.274446,-1.48191,19,0.016185,10,-0.000406703,-2.82918,-0.145693,-0.40496,23.3239,0.274446,
2,0,0,1,0,36641.4,0.273264,0.272953,-1.51757,19,0.0161566,10,-0.000414227,-2.81885,-0.149204,-0.395433,23.3703,0.272953,
2,0,0,1,0,36641.5,0.271776,0.271444,-1.55785,19,0.0161279,10,-0.000422869,-2.80747,-0.148999,-0.395975,23.9783,0.271444,
2,0,0,1,0,36641.5,0.270273,0.269946,-1.59076,19,0.0160982,10,-0.000429419,-2.7984,-0.160954,-0.366564,22.6699,0.269946,
2,0,0,1,0,36641.5,0.268769,0.268497,-1.61855,19,0.0160679,10,-0.000434576,-2.79087,-0.187331,-0.31495,19.8367,0.268497,
2,0,0,1,0,36641.5,0.26728,0.266939,-1.64321,19,0.0160373,10,-0.000438638,-2.78431,-0.184912,-0.31907,20.4799,0.266939,
2,0,0,1,0,36641.5,0.265777,0.265452,-1.67553,19,0.016006,10,-0.000444774,-2.77585,-0.189211,-0.311821,20.3565,0.265452,
2,0,0,1,0,36641.6,0.26428,0.263944,-1.7054,19,0.0159742,10,-0.000450129,-2.76817,-0.198755,-0.296848,19.7162,0.263944,
2,0,0,1,0,36641.6,0.262784,0.262438,-1.73028,19,0.0159419,10,-0.000454092,-2.76188,-0.235075,-0.250984,16.8971,0.262438,
2,0,0,1,0,36641.6,0.26128,0.260954,-1.75222,19,0.0159089,10,-0.000457249,-2.75641,-0.232888,-0.253341,17.325,0.260954,
2,0,0,1,0,36641.6,0.259791,0.259489,-1.77127,19,0.0158759,10,-0.000459624,-2.75172,-0.23163,-0.254717,17.6878,0.259489,
2,0,0,1,0,36641.6,0.258287,0.257962,-1.79809,19,0.0158421,10,-0.000463839,-2.74519,-0.239528,-0.246318,17.3326,0.257962,
2,0,0,1,0,36641.7,0.256786,0.256438,-1.82174,19,0.0158077,10,-0.000467163,-2.73951,-0.299226,-0.197176,14.058,0.2564376,
2,0,0,1,0,36641.7,0.255296,0.25492,-1.84601,19,0.0157733,10,-0.000470584,-2.73377,-0.341599,-0.172717,12.4473,0.25492,
2,0,0,1,0,36641.7,0.253793,0.25344,-1.87058,19,0.0157382,10,-0.000474081,-2.72802,-0.366563,-0.160955,11.7384,0.25344,
2,0,0,1,0,36641.7,0.252289,0.251945,-1.88999,19,0.0157027,10,-0.000476175,-2.72354,-0.34608,-0.170481,12.5618,0.251945,
2,0,0,1,0,36641.7,0.2508,0.250457,-1.91467,19,0.0156671,10,-0.000479545,-2.71791,-0.342268,-0.172379,12.8534,0.2504575,
2,0,0,1,0,36641.7,0.249296,0.248961,-1.93769,19,0.0156308,10,-0.000482408,-2.71272,-0.384533,-0.153433,11.5714,0.248961,
2,0,0,1,0,36641.8,0.2478,0.247485,-1.9494,19,0.0155943,10,-0.000482447,-2.7101,-0.342143,-0.172442,13.1394,0.247485,
2,0,0,1,0,36641.8,0.246304,0.245993,-1.97242,19,0.0155575,10,-0.000485202,-2.705,-0.271144,-0.217596,16.7173,0.245993,
2,0,0,1,0,36641.8,0.2448,0.244476,-1.99746,19,0.0155201,10,-0.00048833,-2.69952,-0.309956,-0.19035,14.7589,0.244476,
2,0,0,1,0,36641.8,0.243313,0.242992,-2.01059,19,0.0154827,10,-0.000488557,-2.69668,-0.350503,-0.16833,13.1703,0.2429916,
2,0,0,1,0,36641.8,0.241809,0.241489,-2.02604,19,0.0154445,10,-0.000489267,-2.69335,-0.356627,-0.165439,13.082,0.241489,
2,0,0,1,0,36641.9,0.240306,0.239971,-2.04078,19,0.0154061,10,-0.000489729,-2.6902,-0.344327,-0.171349,13.6784,0.239971,
2,0,0,1,0,36641.9,0.238816,0.238492,-2.06445,19,0.0153677,10,-0.000492357,-2.68519,-0.344101,-0.171461,13.7907,0.238492,
2,0,0,1,0,36641.9,0.237313,0.236987,-2.07871,19,0.0153286,10,-0.000492627,-2.68221,-0.37792,-0.156118,12.656,0.236987,
2,0,0,1,0,36641.9,0.235809,0.235494,-2.09413,19,0.0152891,10,-0.000493154,-2.679,-0.451305,-0.130732,10.7058,0.235494,
2,0,0,1,0,36641.9,0.23432,0.234007,-2.10949,19,0.0152498,10,-0.000493634,-2.67582,-0.466082,-0.126587,10.4451,0.234007,
2,0,0,1,0,36642,0.232816,0.232462,-2.12819,19,0.0152097,10,-0.000494724,-2.67199,-0.467305,-0.126256,10.4947,0.232462,
2,0,0,1,0,36642,0.23132,0.230996,-2.14816,19,0.0151695,10,-0.000496216,-2.66793,-0.561748,-0.105029,8.80368,0.230996,
2,0,0,1,0,36642,0.229824,0.229478,-2.16795,19,0.0151289,10,-0.000497497,-2.66395,-0.588062,-0.10033,8.47258,0.229478,
2,0,0,1,0,36642,0.22832,0.227985,-2.18035,19,0.0150879,10,-0.000497086,-2.66147,-0.523286,-0.112749,9.59038,0.227985,
2,0,0,1,0,36642,0.226833,0.226523,-2.2024,19,0.015047,10,-0.000498895,-2.6571,-0.411534,-0.143366,12.2832,0.226523,
2,0,0,1,0,36642,0.225329,0.225022,-2.21474,19,0.0150054,10,-0.000498364,-2.65468,-0.419449,-0.140661,12.1583,0.225022,
2,0,0,1,0,36642.1,0.223825,0.223514,-2.22841,19,0.0149635,10,-0.000498081,-2.65201,-0.485182,-0.121604,10.5745,0.223514,
2,0,0,1,0,36642.1,0.222336,0.22203,-2.24404,19,0.0149217,10,-0.000498244,-2.64897,-0.449401,-0.131286,11.4963,0.22203,
2,0,0,1,0,36642.1,0.220833,0.220499,-2.25925,19,0.0148792,10,-0.000498162,-2.64604,-0.386258,-0.152748,13.4868,0.2204989,
2,0,0,1,0,36642.1,0.219329,0.219024,-2.27984,19,0.0148364,10,-0.00049934,-2.6421,-0.371809,-0.158684,14.0861,0.219024,
2,0,0,1,0,36642.1,0.21784,0.217509,-2.29519,19,0.0147936,10,-0.000499224,-2.63918,-0.448519,-0.131544,11.7599,0.217509,
2,0,0,1,0,36642.2,0.216336,0.216039,-2.30569,19,0.0147502,10,-0.000498118,-2.6372,-0.495392,-0.119098,10.7282,0.216039,
2,0,0,1,0,36642.2,0.21484,0.214484,-2.31791,19,0.0147067,10,-0.000497155,-2.6349,-0.499841,-0.118038,10.7134,0.214484,
2,0,0,1,0,36642.2,0.213343,0.21301,-2.33339,19,0.0146629,10,-0.000497036,-2.63201,-0.479703,-0.122993,11.2318,0.21301,
2,0,0,1,0,36642.2,0.21184,0.2115,-2.35201,19,0.0146186,10,-0.000497452,-2.62856,-0.652341,-0.0904434,8.30056,0.2115,
2,0,0,1,0,36642.2,0.210352,0.210017,-2.37206,19,0.0145744,10,-0.000498173,-2.62487,-0.644476,-0.0915472,8.46849,0.210017,
2,0,0,1,0,36642.3,0.208849,0.208553,-2.38204,19,0.0145296,10,-0.000496781,-2.62305,-0.52056,-0.113339,10.5738,0.208553,
2,0,0,1,0,36642.3,0.207345,0.207056,-2.40215,19,0.0144844,10,-0.000497379,-2.6194,-0.507345,-0.116292,10.9147,0.207056,
2,0,0,1,0,36642.3,0.205856,0.205499,-2.42401,19,0.0144393,10,-0.000498131,-2.61547,-0.555931,-0.106128,10.0069,0.205499,
2,0,0,1,0,36642.3,0.204353,0.20401,-2.44091,19,0.0143934,10,-0.000497971,-2.61245,-0.767163,-0.0769067,7.30563,0.20401,
2,0,0,1,0,36642.3,0.202849,0.202515,-2.45175,19,0.0143473,10,-0.000496517,-2.61052,-0.601927,-0.0980186,9.37558,0.202515,
2,0,0,1,0,36642.3,0.20136,0.201,-2.46941,19,0.0143014,10,-0.000496352,-2.60741,-0.517539,-0.114001,10.9752,0.201,
2,0,0,1,0,36642.4,0.199856,0.199462,-2.4864,19,0.0142547,10,-0.000495942,-2.60443,-0.49331,-0.1196,11.5896,0.199462,
2,0,0,1,0,36642.4,0.19836,0.198037,-2.50713,19,0.0142079,10,-0.000496504,-2.60082,-0.487506,-0.121024,11.8023,0.1980373,
2,0,0,1,0,36642.4,0.196863,0.196532,-2.51494,19,0.0141608,10,-0.000494265,-2.59947,-0.517079,-0.114103,11.2135,0.196532,
2,0,0,1,0,36642.4,0.19536,0.195034,-2.53198,19,0.0141133,10,-0.000493822,-2.59654,-0.423094,-0.139449,13.7728,0.1950337,
2,0,0,1,0,36642.4,0.193872,0.193533,-2.55318,19,0.0140658,10,-0.000494125,-2.59292,-0.418581,-0.140953,14.019,0.193533,
2,0,0,1,0,36642.5,0.192369,0.192037,-2.56987,19,0.0140175,10,-0.000493509,-2.59009,-0.510666,-0.115535,11.5646,0.192037,
2,0,0,1,0,36642.5,0.190865,0.190559,-2.57912,19,0.0139688,10,-0.000491473,-2.58853,-0.53788,-0.10969,11.0637,0.190559,
2,0,0,1,0,36642.5,0.189376,0.189047,-2.59651,19,0.0139204,10,-0.000490861,-2.58561,-0.57206,-0.103136,10.4781,0.189047,
2,0,0,1,0,36642.5,0.187872,0.187512,-2.61685,19,0.0138712,10,-0.00049069,-2.58222,-0.449714,-0.131195,13.4179,0.187512,
2,0,0,1,0,36642.5,0.186369,0.186047,-2.64072,19,0.0138215,10,-0.000491296,-2.57828,-0.54278,-0.1087,11.1887,0.186047,
2,0,0,1,0,36642.6,0.18488,0.18455,-2.66064,19,0.013772,10,-0.000491022,-2.57501,-0.57539,-0.102539,10.6423,0.18455,
2,0,0,1,0,36642.6,0.183376,0.183096,-2.68299,19,0.0137217,10,-0.000491245,-2.57138,-0.504279,-0.116999,12.245,0.183096,
2,0,0,1,0,36642.6,0.18188,0.181546,-2.7037,19,0.0136712,10,-0.000490846,-2.56804,-0.423789,-0.13922,14.6626,0.1815462,
2,0,0,1,0,36642.6,0.180383,0.180019,-2.72805,19,0.0136203,10,-0.0004911,-2.56415,-0.477793,-0.123485,13.102,0.180019,
2,0,0,1,0,36642.6,0.17888,0.178546,-2.74925,19,0.0135687,10,-0.000490867,-2.56079,-0.500141,-0.117967,12.6274,0.178546,
2,0,0,1,0,36642.6,0.177392,0.177105,-2.76098,19,0.0135173,10,-0.000488983,-2.55894,-0.407172,-0.144902,15.6518,0.177105,
2,0,0,1,0,36642.7,0.175889,0.175523,-2.79179,19,0.013465,10,-0.000490023,-2.55412,-0.337649,-0.174738,19.0124,0.175523,
2,0,0,1,0,36642.7,0.174385,0.17404,-2.8164,19,0.0134121,10,-0.000490165,-2.55031,-0.333228,-0.177056,19.4514,0.17404,
2,0,0,1,0,36642.7,0.172896,0.17258,-2.84339,19,0.0133593,10,-0.000490712,-2.54616,-0.347869,-0.169604,18.79,0.17258,
2,0,0,1,0,36642.7,0.171392,0.171132,-2.85981,19,0.0133055,10,-0.000489404,-2.54366,-0.335692,-0.175756,19.652,0.171132,
2,0,0,1,0,36642.7,0.169889,0.169515,-2.88611,19,0.0132512,10,-0.000489239,-2.53969,-0.324492,-0.181823,20.544,0.169515,
2,0,0,1,0,36642.8,0.1684,0.16813,-2.92347,19,0.0131969,10,-0.000491523,-2.5341,-0.30555,-0.193094,22.0323,0.16813,
2,0,0,1,0,36642.8,0.166896,0.166518,-2.95518,19,0.0131414,10,-0.000492091,-2.52942,-0.321633,-0.183439,21.153,0.166518,
2,0,0,1,0,36642.8,0.165392,0.16502,-2.98413,19,0.0130853,10,-0.00049244,-2.52518,-0.338374,-0.174363,20.3516,0.16502,
2,0,0,1,0,36642.8,0.163905,0.163586,-3.02078,19,0.0130293,10,-0.000494158,-2.51988,-0.315904,-0.186766,22.0534,0.163586,
2,0,0,1,0,36642.8,0.162401,0.162086,-3.06041,19,0.0129719,10,-0.00049605,-2.51422,-0.281286,-0.209751,25.0945,0.162086,
2,0,0,1,0,36642.9,0.160905,0.16057,-3.10352,19,0.0129141,10,-0.00049833,-2.50815,-0.27061,-0.218026,26.3812,0.16057,
2,0,0,1,0,36642.9,0.159409,0.159095,-3.1473,19,0.0128554,10,-0.000500719,-2.50206,-0.255825,-0.230626,28.3328,0.159095,
2,0,0,1,0,36642.9,0.157905,0.157587,-3.19076,19,0.0127957,10,-0.000502822,-2.49611,-0.235394,-0.250644,31.2338,0.157587,
2,0,0,1,0,36642.9,0.156416,0.156087,-3.24582,19,0.0127357,10,-0.000506631,-2.48868,-0.207451,-0.284404,36.0207,0.156087,
2,0,0,1,0,36642.9,0.154912,0.154587,-3.30435,19,0.012674,10,-0.000510811,-2.48091,-0.193422,-0.305032,39.3106,0.154587,
2,0,0,1,0,36642.9,0.153409,0.15308,-3.36528,19,0.0126112,10,-0.000515159,-2.47298,-0.191526,-0.308052,40.4339,0.15308,
2,0,0,1,0,36643,0.151919,0.151614,-3.42374,19,0.0125479,10,-0.000519086,-2.4655,-0.170155,-0.346742,46.4587,0.151614,
2,0,0,1,0,36643,0.150416,0.150058,-3.49015,19,0.0124827,10,-0.000523725,-2.45716,-0.154305,-0.38236,52.2504,0.150058,
2,0,0,1,0,36643,0.148912,0.148614,-3.57843,19,0.012416,10,-0.000531805,-2.44631,-0.144092,-0.409462,57.2365,0.148614,
2,0,0,1,0,36643,0.147425,0.147122,-3.65853,19,0.0123486,10,-0.00053825,-2.43669,-0.135806,-0.434444,62.1744,0.1471218,
2,0,0,1,0,36643,0.145921,0.145599,-3.74808,19,0.0122787,10,-0.000545718,-2.42619,-0.125617,-0.46968,68.9084,0.145599,
2,0,0,1,0,36643.1,0.144425,0.144081,-3.8576,19,0.0122073,10,-0.000555807,-2.41368,-0.118065,-0.499727,75.5042,0.144081,
2,0,0,1,0,36643.1,0.142929,0.142603,-3.97281,19,0.0121339,10,-0.000566534,-2.4009,-0.114565,-0.514992,80.0191,0.142603,
2,0,0,1,0,36643.1,0.141425,0.141121,-4.09863,19,0.0120577,10,-0.000578404,-2.38736,-0.110455,-0.534154,85.6164,0.141121,
2,0,0,1,0,36643.1,0.139936,0.139573,-4.23446,19,0.0119799,10,-0.000591018,-2.3732,-0.107305,-0.549836,91.0649,0.139573,
2,0,0,1,0,36643.1,0.138432,0.138092,-4.38165,19,0.0118987,10,-0.000605073,-2.35836,-0.10268,-0.574598,98.3913,0.138092,
2,0,0,1,0,36643.2,0.136929,0.136586,-4.53803,19,0.0118147,10,-0.000619833,-2.34313,-0.0999477,-0.590309,104.549,0.136586,
2,0,0,1,0,36643.2,0.135439,0.135089,-4.70164,19,0.0117286,10,-0.000635137,-2.32775,-0.100274,-0.588386,107.826,0.135089,
2,0,0,1,0,36643.2,0.133936,0.133609,-4.86959,19,0.0116384,10,-0.000650621,-2.31251,-0.100724,-0.585762,111.278,0.133609,
2,0,0,1,0,36643.2,0.132432,0.132096,-5.04054,19,0.0115452,10,-0.000665838,-2.29752,-0.0998318,-0.590994,116.262,0.132096,
2,0,0,1,0,36643.2,0.130945,0.130571,-5.22173,19,0.0114497,10,-0.000681809,-2.28219,-0.0982351,-0.6006,122.193,0.1305714,
2,0,0,1,0,36643.2,0.129441,0.129079,-5.40286,19,0.0113496,10,-0.000697394,-2.26738,-0.100585,-0.586569,123.604,0.129079,
2,0,0,1,0,36643.3,0.127945,0.127588,-5.58414,19,0.0112467,10,-0.000712469,-2.25304,-0.106192,-0.555599,120.901,0.127588,
2,0,0,1,0,36643.3,0.126448,0.126106,-5.76132,19,0.0111404,10,-0.000726535,-2.23948,-0.11202,-0.526693,118.33,0.126106,
2,0,0,1,0,36643.3,0.124945,0.124609,-5.93184,19,0.0110303,10,-0.000739158,-2.22681,-0.116107,-0.50815,117.627,0.124609,
2,0,0,1,0,36643.3,0.123456,0.123097,-6.10618,19,0.0109181,10,-0.000751652,-2.21423,-0.123354,-0.478299,113.806,0.123097,
2,0,0,1,0,36643.3,0.121952,0.121621,-6.26954,19,0.0108015,10,-0.000762509,-2.20276,-0.134846,-0.437537,106.985,0.121621,
2,0,0,1,0,36643.4,0.120449,0.120121,-6.42722,19,0.0106819,10,-0.000772045,-2.19198,-0.141722,-0.416309,104.377,0.1201211,
2,0,0,1,0,36643.4,0.118959,0.118675,-6.5791,19,0.0105606,10,-0.000780774,-2.18183,-0.153281,-0.384915,98.8094,0.118675,
2,0,0,1,0,36643.4,0.117456,0.117142,-6.72816,19,0.0104353,10,-0.000788151,-2.1721,-0.165485,-0.356528,93.5908,0.117142,
2,0,0,1,0,36643.4,0.115952,0.11559,-6.87539,19,0.0103071,10,-0.000794728,-2.1627,-0.17827,-0.330959,88.6235,0.11559,
2,0,0,1,0,36643.4,0.114465,0.114125,-7.00903,19,0.0101778,10,-0.000799908,-2.15434,-0.193545,-0.304839,83.2353,0.114125,
2,0,0,1,0,36643.5,0.112961,0.112628,-7.12476,19,0.0100448,10,-0.000802449,-2.14723,-0.211682,-0.27872,77.452,0.1126283,
2,0,0,1,0,36643.5,0.111465,0.11116,-7.24473,19,0.00991019,10,-0.000805322,-2.13998,-0.227602,-0.259224,73.1707,0.11116,
2,0,0,1,0,36643.5,0.109968,0.109665,-7.35502,19,0.00977351,10,-0.000806591,-2.13342,-0.252422,-0.233735,66.9867,0.109665,
2,0,0,1,0,36643.5,0.108465,0.108164,-7.45297,19,0.00963415,10,-0.00080614,-2.12767,-0.278463,-0.211877,61.5287,0.108164,
2,0,0,1,0,36643.5,0.106976,0.106674,-7.53855,19,0.00949455,10,-0.000804168,-2.12271,-0.301005,-0.19601,57.6274,0.106674,
2,0,0,1,0,36643.5,0.105472,0.105126,-7.61928,19,0.00935186,10,-0.000800987,-2.11809,-0.326204,-0.180868,53.75,0.105126,
2,0,0,1,0,36643.6,0.103968,0.103623,-7.69678,19,0.00920765,10,-0.000797559,-2.11369,-0.377766,-0.156181,46.8343,0.1036225,
2,0,0,1,0,36643.6,0.102479,0.102188,-7.75525,19,0.00906373,10,-0.00079249,-2.1104,-0.488372,-0.12081,36.5077,0.102188,
2,0,0,1,0,36643.6,0.100976,0.100639,-7.79838,19,0.00891725,10,-0.000784824,-2.108,-0.61201,-0.0964036,29.3125,0.100639,
2,0,0,1,0,36643.6,0.0994721,0.0991458,-7.83838,19,0.00877002,10,-0.000777143,-2.10577,-0.771907,-0.0764341,23.3654,0.0991458,
2,0,0,1,0,36643.6,0.0979846,0.097669,-7.8636,19,0.00862376,10,-0.00076803,-2.10438,-1.11508,-0.052911,16.2243,0.097669,
2,0,0,1,0,36643.7,0.0964811,0.0961031,-7.87784,19,0.00847545,10,-0.000757085,-2.10359,-2.93188,-0.0201236,6.18023,0.0961031,
2,0,0,1,0,36643.7,0.0949847,0.0946874,-7.87873,19,0.00832772,10,-0.000746017,-2.10354,17.5966,0.00335293,-1.03143,0.0946874,
2,0,0,1,0,36643.7,0.0934883,0.0931957,-7.8817,19,0.0081801,10,-0.00073454,-2.10338,1.99383,0.0295912,-9.09509,0.0931957,
2,0,0,1,0,36643.7,0.0919847,0.0916558,-7.86609,19,0.00803181,10,-0.000720972,-2.10424,1.40139,0.0421011,-12.9186,0.0916558,
2,0,0,1,0,36643.7,0.0904955,0.0901605,-7.84971,19,0.00788541,10,-0.000707734,-2.10515,0.930964,0.0633752,-19.3963,0.0901605,
2,0,0,1,0,36643.8,0.0889919,0.0886703,-7.82342,19,0.00773794,10,-0.000693705,-2.1066,0.694178,0.0849926,-25.9032,0.0886703,
2,0,0,1,0,36643.8,0.0874884,0.0871454,-7.7786,19,0.00759117,10,-0.000677869,-2.1091,0.651732,0.090528,-27.4674,0.0871454,
2,0,0,1,0,36643.8,0.0860009,0.0856801,-7.7425,19,0.00744673,10,-0.000663378,-2.11112,0.612445,0.0963352,-29.0675,0.08568009,
2,0,0,1,0,36643.8,0.0844973,0.0841224,-7.69577,19,0.00730155,10,-0.000647387,-2.11375,0.591754,0.0997036,-29.9096,0.0841224,
2,0,0,1,0,36643.8,0.0829938,0.0826806,-7.64096,19,0.00715729,10,-0.00063176,-2.11685,0.557956,0.105743,-31.5008,0.0826806,
2,0,0,1,0,36643.8,0.0815045,0.0811946,-7.5845,19,0.00701557,10,-0.00061582,-2.12007,0.530302,0.111257,-32.9389,0.0811946,
2,0,0,1,0,36643.9,0.080001,0.0796577,-7.53344,19,0.0068733,10,-0.000600096,-2.12301,0.593929,0.0993385,-29.1993,0.0796577,
2,0,0,1,0,36643.9,0.0785046,0.078138,-7.48398,19,0.0067327,10,-0.000584783,-2.12587,0.561977,0.104987,-30.6743,0.078138,
2,0,0,1,0,36643.9,0.0770082,0.076675,-7.43258,19,0.00659301,10,-0.000569893,-2.12886,0.528045,0.111733,-32.4137,0.076675,
2,0,0,1,0,36643.9,0.0755046,0.0751677,-7.37691,19,0.0064535,10,-0.000554506,-2.13213,0.587028,0.100506,-28.9812,0.0751677,
2,0,0,1,0,36643.9,0.0740154,0.0736581,-7.33954,19,0.0063164,10,-0.000540617,-2.13433,0.558045,0.105726,-30.3035,0.0736581,
2,0,0,1,0,36644,0.0725118,0.0721335,-7.3014,19,0.00617859,10,-0.000526676,-2.13659,0.614595,0.0959982,-27.3541,0.0721335,
2,0,0,1,0,36644,0.0710083,0.0707071,-7.25881,19,0.00604154,10,-0.000513249,-2.13913,0.606804,0.0972307,-27.5452,0.0707071,
2,0,0,1,0,36644,0.0695208,0.0691576,-7.22077,19,0.00590666,10,-0.000499371,-2.14142,0.617521,0.0955433,-26.9359,0.0691576,
2,0,0,1,0,36644,0.0680173,0.0676818,-7.18311,19,0.00577109,10,-0.000486166,-2.14369,0.643767,0.0916481,-25.7071,0.0676818,
2,0,0,1,0,36644,0.0665137,0.0662015,-7.15019,19,0.00563617,10,-0.000473353,-2.14568,0.702454,0.0839912,-23.4512,0.0662015,
2,0,0,1,0,36644.1,0.0650244,0.0646643,-7.12578,19,0.00550325,10,-0.000460783,-2.14717,0.694313,0.0849761,-23.6035,0.06466426,
2,0,0,1,0,36644.1,0.0635209,0.063215,-7.09359,19,0.0053695,10,-0.000448421,-2.14913,0.668799,0.0882179,-24.3957,0.063215,
2,0,0,1,0,36644.1,0.0620245,0.0617344,-7.0601,19,0.00523714,10,-0.000435851,-2.15119,0.714465,0.0825793,-22.7379,0.0617344,
2,0,0,1,0,36644.1,0.0605281,0.0602156,-7.02345,19,0.0051054,10,-0.000422921,-2.15345,0.876535,0.0673105,-18.4394,0.0602156,
2,0,0,1,0,36644.1,0.0590246,0.0587196,-6.99514,19,0.00497349,10,-0.000410752,-2.1552,0.848313,0.0695498,-18.9646,0.0587196,
2,0,0,1,0,36644.1,0.0575353,0.0571926,-6.96607,19,0.00484356,10,-0.000398408,-2.15701,0.810991,0.0727505,-19.7622,0.0571926,
2,0,0,1,0,36644.2,0.0560317,0.055684,-6.92387,19,0.00471286,10,-0.000385549,-2.15965,0.764124,0.0772126,-20.8744,0.055684,
2,0,0,1,0,36644.2,0.0545282,0.054186,-6.88979,19,0.00458279,10,-0.00037333,-2.16179,0.824848,0.0715283,-19.2468,0.054186,
2,0,0,1,0,36644.2,0.0530407,0.0527204,-6.86058,19,0.00445468,10,-0.000361692,-2.16364,0.777829,0.0758522,-20.3141,0.0527204,
2,0,0,1,0,36644.2,0.0515372,0.0512108,-6.82808,19,0.00432577,10,-0.000349671,-2.1657,0.69685,0.0846667,-22.5579,0.0512108,
2,0,0,1,0,36644.2,0.0500336,0.0496947,-6.78534,19,0.00419749,10,-0.000337196,-2.16843,0.662812,0.0890147,-23.6048,0.0496947,
2,0,0,1,0,36644.3,0.0485444,0.0481769,-6.75903,19,0.00407127,10,-0.000325629,-2.17012,0.63534,0.0928636,-24.5137,0.0481769,
2,0,0,1,0,36644.3,0.0470408,0.046666,-6.72454,19,0.00394429,10,-0.000313807,-2.17234,0.617035,0.0956186,-25.1049,0.046666,
2,0,0,1,0,36644.3,0.0455444,0.0452585,-6.69166,19,0.00381863,10,-0.000302854,-2.17447,0.582551,0.101279,-26.4289,0.0452585,
2,0,0,1,0,36644.3,0.044048,0.0437323,-6.65634,19,0.00369363,10,-0.000291097,-2.17676,0.602437,0.0979355,-25.4318,0.0437323,
2,0,0,1,0,36644.3,0.0425445,0.0422275,-6.61797,19,0.00356875,10,-0.00027946,-2.17928,0.585152,0.100829,-26.0471,0.0422275,
2,0,0,1,0,36644.4,0.0410552,0.0407063,-6.5814,19,0.00344586,10,-0.000267904,-2.18168,0.613625,0.0961499,-24.6812,0.0407063,
2,0,0,1,0,36644.4,0.0395516,0.0391929,-6.54784,19,0.0033223,10,-0.000256629,-2.1839,0.594251,0.0992846,-25.3449,0.0391929,
2,0,0,1,0,36644.4,0.0380481,0.0377174,-6.51228,19,0.0031995,10,-0.000245626,-2.18627,0.548914,0.107485,-27.2666,0.0377174,
2,0,0,1,0,36644.4,0.0365606,0.0362381,-6.46566,19,0.00307874,10,-0.000234304,-2.18939,0.603914,0.097696,-24.6352,0.0362381,
2,0,0,1,0,36644.4,0.0350571,0.0347388,-6.41892,19,0.00295752,10,-0.000222985,-2.19254,0.573585,0.102862,-25.7633,0.0347388,
2,0,0,1,0,36644.4,0.0335535,0.0332653,-6.37597,19,0.00283704,10,-0.000212098,-2.19545,0.561052,0.10516,-26.1633,0.0332653,
2,0,0,1,0,36644.5,0.0320643,0.0317778,-6.33043,19,0.00271867,10,-0.000201167,-2.19857,0.498687,0.118311,-29.2253,0.0317778,
2,0,0,1,0,36644.5,0.0305607,0.0302226,-6.27525,19,0.00259987,10,-0.000189654,-2.20237,0.482412,0.122302,-29.9975,0.0302226,
2,0,0,1,0,36644.5,0.0290643,0.0287341,-6.23933,19,0.0024826,10,-0.000179282,-2.20486,0.475287,0.124135,-30.2287,0.0287341,
2,0,0,1,0,36644.5,0.0275679,0.0272494,-6.19153,19,0.00236617,10,-0.000168715,-2.2082,0.44396,0.132895,-32.116,0.0272494,
2,0,0,1,0,36644.5,0.0260644,0.0257483,-6.14131,19,0.00224999,10,-0.000158128,-2.21174,0.399665,0.147624,-35.3848,0.0257483,
2,0,0,1,0,36644.6,0.0245751,0.0242748,-6.08957,19,0.00213599,10,-0.000147823,-2.21541,0.400491,0.147319,-35.0085,0.02427482,
2,0,0,1,0,36644.6,0.0230716,0.0227158,-6.04215,19,0.00202177,10,-0.000137252,-2.21881,0.383025,0.154037,-36.3306,0.0227158,
2,0,0,1,0,36644.6,0.021568,0.0212256,-5.99757,19,0.00190847,10,-0.000127302,-2.22202,0.396989,0.148619,-34.7507,0.0212256,
2,0,0,1,0,36644.6,0.0200805,0.0197283,-5.94475,19,0.0017973,10,-0.00011728,-2.22587,0.387147,0.152397,-35.3368,0.0197283,
2,0,0,1,0,36644.6,0.018577,0.0182429,-5.89541,19,0.00168583,10,-0.000107549,-2.22949,0.395149,0.149311,-34.3234,0.0182429,
2,0,0,1,0,36644.7,0.0170735,0.0167278,-5.84625,19,0.00157537,10,-9.77951e-05,-2.23312,0.406709,0.145067,-33.1015,0.0167278,
2,0,0,1,0,36644.7,0.0155842,0.0152322,-5.79691,19,0.00146697,10,-8.82997e-05,-2.2368,0.47076,0.125329,-28.343,0.0152322,
2,0,0,1,0,36644.7,0.0140806,0.0137144,-5.75946,19,0.00135822,10,-7.89877e-05,-2.23962,0.450006,0.131109,-29.4271,0.0137144,
2,0,0,1,0,36644.7,0.0125842,0.0122341,-5.71118,19,0.00125085,10,-6.98713e-05,-2.24327,0.440133,0.13405,-29.8599,0.0122341,
2,0,0,1,0,36644.7,0.0110878,0.0107392,-5.66277,19,0.00114436,10,-6.08135e-05,-2.24697,0.48874,0.120718,-26.692,0.0107392,
2,0,0,1,0,36644.7,0.00958429,0.00929196,-5.61756,19,0.00103814,10,-5.21981e-05,-2.25045,0.533825,0.110523,-24.2572,0.00929196,
2,0,0,1,0,36644.8,0.0080968,0.00774589,-5.58059,19,0.000933768,10,-4.32266e-05,-2.25332,0.553748,0.106547,-23.2254,0.00774589,
2,0,0,1,0,36644.8,0.00659326,0.00627003,-5.54045,19,0.000828982,10,-3.47388e-05,-2.25646,0.537038,0.109862,-23.7816,0.00627003,
2,0,0,1,0,36644.8,0.00508972,0.0047594,-5.50148,19,0.000724916,10,-2.61838e-05,-2.25952,0.603897,0.0976988,-21.0139,0.0047594,
2,0,0,1,0,36644.8,0.00360044,0.00323514,-5.47184,19,0.000622599,10,-1.77022e-05,-2.26187,0.913524,0.0645851,-13.842,0.00323514,
2,0,0,1,0,36644.8,0.0020969,0.00174906,-5.48068,19,0.000519626,10,-9.58603e-06,-2.26117,0.905116,0.065185,-13.8828,0.00174906,
2,0,0,1,0,36644.9,0.000593362,0.000218324,-5.44127,19,0.000416753,10,-1.18796e-06,-2.2643, , , ,0.000218324,
2,0,0,1,0,36644.9,0.000199195,-0.000189804,-5.4296,19,0.000390068,10,1.03056e-06,-2.26523, , , ,-0.000189804,