File: Figure_codes/Fig_3-5/rawdata_trumpetplot_data/after 10th/20221101_1-115_003_TrumpetPlot_ParaChange_from10_every3_03_CV_C01_14.csv
mode,ox/red,error,control changes,counter inc.,time/s,control/V,Ewe/V,<I>/mA,cycle number,(Q-Qo)/C,I Range,P/W,log(|I|),Tafel slope mV/dec,alpha_eff,dI/d(E-IR),E-IR/V,
2,0,0,1,0,28521.8,2.44065e-05,-0.000382585,-0.10639,15,0.0000000E+000,10,4.07034e-08,-3.9731, , , ,-0.000382585,
2,1,0,0,0,28522.1,0.00129787,0.000905808,0.131076,15,2.22652e-05,10,1.1873e-07,-3.88248, , , ,0.000905808,
2,1,0,0,0,28522.4,0.00279606,0.00249536,0.170101,15,7.33045e-05,10,4.24463e-07,-3.76929,0.015864,3.71912,20.3341,0.002495358,
2,1,0,1,0,28522.7,0.00429469,0.00396339,0.181563,15,0.000130184,10,7.19604e-07,-3.74097,0.0596998,0.988279,6.99238,0.00396339,
2,1,0,1,0,28523,0.00579255,0.00547943,0.191054,15,0.000190438,10,1.04687e-06,-3.71884,0.0645471,0.914062,6.77219,0.00547943,
2,1,0,1,0,28523.3,0.00729041,0.0069465,0.201924,15,0.000253753,10,1.40266e-06,-3.69481,0.0796891,0.740378,5.78713,0.0069465,
2,1,0,1,0,28523.6,0.00878882,0.00845166,0.209896,15,0.000319752,10,1.77397e-06,-3.678,0.0895415,0.658913,5.36223,0.008451662,
2,1,0,1,0,28523.9,0.010287,0.00996592,0.217247,15,0.000388039,10,2.16506e-06,-3.66305,0.116456,0.506629,4.25369,0.00996592,
2,1,0,1,0,28524.2,0.0117852,0.0114484,0.22189,15,0.000458213,10,2.54028e-06,-3.65386,0.127757,0.461814,4.01085,0.0114484,
2,1,0,1,0,28524.5,0.0132836,0.0129534,0.228622,15,0.000530209,10,2.96143e-06,-3.64088,0.113827,0.518333,4.65829,0.0129534,
2,1,0,1,0,28524.8,0.0147815,0.0144313,0.235205,15,0.000604121,10,3.39431e-06,-3.62855,0.134996,0.437051,4.02028,0.0144313,
2,1,0,1,0,28525.1,0.0162793,0.0159894,0.240482,15,0.00068008,10,3.84518e-06,-3.61892,0.15089,0.391015,3.66171,0.0159894,
2,1,0,0,0,28525.4,0.017778,0.0174683,0.246615,15,0.000757584,10,4.30794e-06,-3.60798,0.159432,0.370063,3.55657,0.0174683,
2,1,0,0,0,28525.7,0.0192761,0.0189465,0.252698,15,0.000836473,10,4.78775e-06,-3.5974,0.166136,0.35513,3.47767,0.0189465,
2,1,0,1,0,28526,0.0207747,0.0204388,0.258645,15,0.00091734,10,5.2864e-06,-3.5873,0.147915,0.398878,4.00293,0.0204388,
2,1,0,1,0,28526.3,0.0222725,0.0219401,0.263743,15,0.000999672,10,5.78657e-06,-3.57882,0.167008,0.353277,3.63043,0.0219401,
2,1,0,1,0,28526.6,0.0237704,0.0234793,0.268386,15,0.00108373,10,6.30151e-06,-3.57124,0.170432,0.346178,3.62066,0.0234793,
2,1,0,1,0,28526.9,0.0252689,0.0249017,0.272132,15,0.00116917,10,6.77657e-06,-3.56522,0.189228,0.311793,3.34229,0.0249017,
2,1,0,1,0,28527.2,0.0267671,0.0264404,0.280435,15,0.00125632,10,7.41481e-06,-3.55217,0.156998,0.375802,4.0824,0.0264404,
2,1,0,1,0,28527.5,0.0282657,0.0279583,0.285227,15,0.00134532,10,7.97448e-06,-3.54481,0.16273,0.362565,4.03202,0.0279583,
2,1,0,1,0,28527.8,0.0297635,0.029417,0.291209,15,0.00143589,10,8.5665e-06,-3.5358,0.195395,0.301953,3.42076,0.029417,
2,1,0,1,0,28528.1,0.0312613,0.0309341,0.293972,15,0.00152787,10,9.09375e-06,-3.53169,0.194666,0.303084,3.49214,0.0309341,
2,1,0,0,0,28528.4,0.0327599,0.0324349,0.3015,15,0.00162143,10,9.77913e-06,-3.52071,0.193764,0.304495,3.58172,0.0324349,
2,1,0,0,0,28528.7,0.034258,0.0339407,0.307285,15,0.00171681,10,1.04295e-05,-3.51246,0.18714,0.315272,3.77103,0.0339407,
2,1,0,1,0,28529,0.0357567,0.0354627,0.311827,15,0.00181386,10,1.10582e-05,-3.50609,0.231768,0.254565,3.09248,0.0354627,
2,1,0,1,0,28529.3,0.0372545,0.0369195,0.317785,15,0.00191248,10,1.17324e-05,-3.49787,0.20712,0.28486,3.53683,0.0369195,
2,1,0,1,0,28529.6,0.0387524,0.0384122,0.321936,15,0.00201234,10,1.23663e-05,-3.49223,0.180985,0.325994,4.1173,0.0384122,
2,1,0,1,0,28529.9,0.0402508,0.0399648,0.328321,15,0.0021141,10,1.31213e-05,-3.4837,0.211593,0.278838,3.55732,0.0399648,
2,1,0,1,0,28530.2,0.041749,0.0414526,0.333002,15,0.00221765,10,1.38038e-05,-3.47755,0.25757,0.229064,2.97948,0.0414526,
2,1,0,1,0,28530.5,0.0432472,0.0429679,0.338222,15,0.00232244,10,1.45327e-05,-3.4708,0.226518,0.260464,3.44162,0.0429679,
2,1,0,1,0,28530.8,0.0447456,0.0444144,0.343102,15,0.00242858,10,1.52387e-05,-3.46458,0.255256,0.231141,3.09205,0.0444144,
2,1,0,1,0,28531.1,0.0462435,0.0459169,0.34846,15,0.00253648,10,1.60002e-05,-3.45785,0.22425,0.263099,3.56502,0.0459169,
2,1,0,1,0,28531.4,0.0477413,0.0474115,0.353438,15,0.00264578,10,1.6757e-05,-3.45169,0.253965,0.232316,3.20047,0.0474115,
2,1,0,0,0,28531.7,0.0492399,0.0489284,0.358344,15,0.0027567,10,1.75332e-05,-3.4457,0.233235,0.252964,3.53337,0.0489284,
2,1,0,0,0,28532,0.0507381,0.050413,0.361585,15,0.00286884,10,1.82286e-05,-3.44179,0.271774,0.217092,3.07652,0.050413,
2,1,0,1,0,28532.3,0.0522367,0.0519,0.366349,15,0.00298255,10,1.90135e-05,-3.4361,0.231359,0.255015,3.65326,0.0519,
2,1,0,1,0,28532.6,0.0537345,0.0534373,0.373597,15,0.00309783,10,1.9964e-05,-3.4276,0.266444,0.221435,3.21183,0.0534373,
2,1,0,1,0,28532.9,0.0552323,0.0549341,0.376403,15,0.00321447,10,2.06773e-05,-3.42435,0.342038,0.172496,2.52709,0.0549341,
2,1,0,1,0,28533.2,0.0567309,0.0564117,0.377871,15,0.00333233,10,2.13164e-05,-3.42266,0.301879,0.195443,2.90414,0.0564117,
2,1,0,1,0,28533.5,0.0582291,0.0578974,0.38485,15,0.0034512,10,2.22818e-05,-3.41471,0.306091,0.192753,2.89826,0.0578974,
2,1,0,1,0,28533.8,0.0597277,0.0594281,0.38996,15,0.00357171,10,2.31746e-05,-3.40898,0.313082,0.188449,2.85903,0.0594281,
2,1,0,1,0,28534.1,0.0612255,0.0609112,0.393092,15,0.0036935,10,2.39437e-05,-3.40551,0.369048,0.159871,2.44787,0.0609112,
2,1,0,1,0,28534.4,0.0627233,0.0623943,0.397629,15,0.00381653,10,2.48098e-05,-3.40052,0.31971,0.184542,2.86292,0.0623943,
2,1,0,0,0,28534.7,0.0642218,0.063895,0.40067,15,0.00394047,10,2.56008e-05,-3.39721,0.318946,0.184984,2.90349,0.063895,
2,1,0,0,0,28535,0.06572,0.0653902,0.404889,15,0.00406566,10,2.64758e-05,-3.39266,0.367247,0.160655,2.5416,0.0653902,
2,1,0,1,0,28535.3,0.0672187,0.066837,0.410488,15,0.00419232,10,2.74358e-05,-3.3867,0.390038,0.151267,2.41101,0.066837,
2,1,0,1,0,28535.6,0.0687165,0.0684219,0.412753,15,0.00431993,10,2.82414e-05,-3.38431,0.442415,0.133359,2.14692,0.0684219,
2,1,0,1,0,28535.9,0.0702144,0.0698998,0.416471,15,0.0044481,10,2.91113e-05,-3.38041,0.417349,0.141369,2.29421,0.0698998,
2,1,0,1,0,28536.2,0.0717128,0.0713857,0.419966,15,0.00457768,10,2.99796e-05,-3.37679,0.333261,0.177038,2.88753,0.0713857,
2,1,0,1,0,28536.5,0.073211,0.0728597,0.421457,15,0.00470813,10,3.07072e-05,-3.37525,0.479027,0.123166,2.03256,0.07285969,
2,1,0,1,0,28536.8,0.0747092,0.0743623,0.425672,15,0.00483952,10,3.16539e-05,-3.37093,0.507765,0.116195,1.93144,0.0743623,
2,1,0,1,0,28537.1,0.0762076,0.0758725,0.426038,15,0.00497164,10,3.23246e-05,-3.37055,0.496738,0.118775,1.98849,0.0758725,
2,1,0,1,0,28537.4,0.0777054,0.077378,0.431353,15,0.0051047,10,3.33772e-05,-3.36517,0.462241,0.127639,2.14836,0.07737802,
2,1,0,1,0,28537.7,0.0792033,0.078876,0.435541,15,0.00523891,10,3.43538e-05,-3.36097,0.534378,0.110409,1.87189,0.078876,
2,1,0,0,0,28538,0.0807019,0.0804236,0.437227,15,0.0053741,10,3.51634e-05,-3.35929,0.603475,0.097767,1.66863,0.0804236,
2,1,0,0,0,28538.3,0.0822001,0.0818816,0.439789,15,0.00550994,10,3.60106e-05,-3.35676,0.498187,0.118429,2.04142,0.0818816,
2,1,0,1,0,28538.6,0.0836986,0.0833918,0.443541,15,0.00564663,10,3.69877e-05,-3.35307,0.407622,0.144742,2.51002,0.0833918,
2,1,0,1,0,28538.9,0.0851965,0.0848626,0.447411,15,0.0057847,10,3.79685e-05,-3.34929,0.38438,0.153494,2.68583,0.08486256,
2,1,0,1,0,28539.2,0.0866944,0.0864103,0.451647,15,0.00592403,10,3.9027e-05,-3.3452,0.502533,0.117405,2.07077,0.0864103,
2,1,0,1,0,28539.5,0.0881929,0.0878761,0.456839,15,0.00606469,10,4.01453e-05,-3.34024,0.367841,0.160395,2.86226,0.0878761,
2,1,0,1,0,28539.8,0.0896911,0.089348,0.461607,15,0.00620636,10,4.12436e-05,-3.33573,0.290256,0.203269,3.6652,0.089348,
2,1,0,1,0,28540.1,0.0911897,0.0908606,0.467964,15,0.00634992,10,4.25195e-05,-3.32979,0.257303,0.229302,4.17609,0.0908606,
2,1,0,1,0,28540.4,0.0926875,0.0923785,0.473197,15,0.00649554,10,4.37132e-05,-3.32496,0.262737,0.224559,4.1437,0.0923785,
2,1,0,1,0,28540.7,0.0941853,0.0938501,0.478744,15,0.0066428,10,4.49301e-05,-3.3199,0.268522,0.219722,4.11999,0.0938501,
2,1,0,0,0,28541,0.0956838,0.0953605,0.485,15,0.00679177,10,4.62498e-05,-3.31426,0.224022,0.263367,5.00936,0.0953605,
2,1,0,0,0,28541.3,0.097182,0.096862,0.492777,15,0.00694309,10,4.77313e-05,-3.30735,0.199161,0.296242,5.7089,0.096862,
2,1,0,1,0,28541.6,0.0986807,0.0983672,0.500703,15,0.00709692,10,4.92528e-05,-3.30042,0.207244,0.284689,5.58032,0.0983672,
2,1,0,1,0,28541.9,0.100179,0.0998683,0.511004,15,0.00725317,10,5.10331e-05,-3.29158,0.214494,0.275066,5.48524,0.09986832,
2,1,0,1,0,28542.2,0.101676,0.101355,0.517941,15,0.00741184,10,5.24958e-05,-3.28572,0.211642,0.278773,5.63897,0.1013547,
2,1,0,1,0,28542.5,0.103175,0.102876,0.52751,15,0.00757309,10,5.42678e-05,-3.27777,0.212303,0.277905,5.72377,0.102876,
2,1,0,1,0,28542.8,0.104673,0.104343,0.538406,15,0.00773706,10,5.6179e-05,-3.26889,0.20406,0.289131,6.04666,0.104343,
2,1,0,1,0,28543.1,0.106171,0.105906,0.546226,15,0.00790386,10,5.78487e-05,-3.26263,0.244964,0.240852,5.11153,0.1059062,
2,1,0,1,0,28543.4,0.10767,0.107339,0.552127,15,0.00807287,10,5.92647e-05,-3.25796,0.268061,0.220099,4.74861,0.107339,
2,1,0,1,0,28543.7,0.109167,0.108856,0.560146,15,0.00824386,10,6.09754e-05,-3.2517,0.259181,0.22764,4.98239,0.108856,
2,1,0,1,0,28544,0.110665,0.110338,0.56743,15,0.00841737,10,6.26093e-05,-3.24609,0.28166,0.209472,4.63896,0.110338,
2,1,0,0,0,28544.3,0.112164,0.111866,0.575026,15,0.00859306,10,6.43257e-05,-3.24031,0.369407,0.159715,3.57337,0.111866,
2,1,0,0,0,28544.6,0.113662,0.113338,0.580456,15,0.00877053,10,6.57875e-05,-3.23623,0.354222,0.166562,3.76751,0.113338,
2,1,0,1,0,28544.9,0.115161,0.114818,0.586966,15,0.00894932,10,6.73944e-05,-3.23139,0.388784,0.151755,3.46474,0.114818,
2,1,0,1,0,28545.2,0.116658,0.11633,0.590964,15,0.00913011,10,6.87468e-05,-3.22844,0.338897,0.174094,4.00776,0.11633,
2,1,0,1,0,28545.5,0.118156,0.117831,0.597389,15,0.00931273,10,7.0391e-05,-3.22374,0.413463,0.142697,3.32214,0.117831,
2,1,0,1,0,28545.8,0.119655,0.119333,0.600778,15,0.0094968,10,7.16927e-05,-3.22129,0.579687,0.101779,2.38875,0.119333,
2,1,0,1,0,28546.1,0.121153,0.120827,0.603149,15,0.00968178,10,7.28768e-05,-3.21958,0.441799,0.133545,3.16075,0.120827,
2,1,0,1,0,28546.4,0.122652,0.122317,0.609704,15,0.00986821,10,7.45774e-05,-3.21488,0.392816,0.150198,3.5721,0.122317,
2,1,0,1,0,28546.7,0.124149,0.123805,0.615017,15,0.0100564,10,7.61421e-05,-3.21111,0.449707,0.131197,3.14386,0.123805,
2,1,0,1,0,28547,0.125647,0.125288,0.619613,15,0.0102459,10,7.76299e-05,-3.20788,0.695353,0.0848489,2.04672,0.125288,
2,1,0,0,0,28547.3,0.127146,0.126868,0.620095,15,0.0104366,10,7.86704e-05,-3.20754,0.655371,0.0900254,2.18545,0.126868,
2,1,0,0,0,28547.6,0.128644,0.128318,0.626909,15,0.0106282,10,8.04436e-05,-3.2028,0.739513,0.0797823,1.94862,0.128318,
2,1,0,1,0,28547.9,0.130143,0.129819,0.629762,15,0.0108209,10,8.17549e-05,-3.20082,1.51084,0.0390512,0.956261,0.129819,
2,1,0,1,0,28548.2,0.131641,0.131341,0.629227,15,0.0110143,10,8.26435e-05,-3.20119,-3.62625,-0.0162703,-0.398151,0.131341,
2,1,0,1,0,28548.5,0.133138,0.132804,0.628071,15,0.0112075,10,8.34104e-05,-3.20199,-0.701488,-0.084107,-2.05842,0.132804,
2,1,0,1,0,28548.8,0.134637,0.134322,0.623274,15,0.0113997,10,8.37193e-05,-3.20532,-0.401134,-0.147083,-3.57749,0.134322,
2,1,0,1,0,28549.1,0.136135,0.135814,0.617676,15,0.0115905,10,8.3889e-05,-3.20924,-0.265417,-0.222292,-5.33615,0.135814,
2,1,0,1,0,28549.4,0.137633,0.137304,0.609653,15,0.011779,10,8.37077e-05,-3.21492,-0.193141,-0.305476,-7.2108,0.137304,
2,1,0,1,0,28549.7,0.139132,0.13885,0.597345,15,0.0119642,10,8.29414e-05,-3.22378,-0.145363,-0.405881,-9.39146,0.13885,
2,1,0,1,0,28550,0.140629,0.140309,0.579833,15,0.0121446,10,8.13557e-05,-3.2367,-0.117864,-0.500578,-11.2765,0.140309,
2,1,0,1,0,28550.3,0.142127,0.141819,0.56203,15,0.0123202,10,7.97063e-05,-3.25024,-0.106076,-0.556203,-12.144,0.141819,
2,1,0,0,0,28550.6,0.143626,0.143351,0.542534,15,0.0124902,10,7.7773e-05,-3.26557,-0.0897694,-0.65724,-13.8618,0.143351,
2,1,0,0,0,28550.9,0.145124,0.144838,0.520306,15,0.0126538,10,7.536e-05,-3.28374,-0.0789388,-0.747414,-15.1587,0.144838,
2,1,0,1,0,28551.2,0.146623,0.146264,0.495815,15,0.0128105,10,7.252e-05,-3.30468,-0.0752594,-0.783955,-15.1976,0.146264,
2,1,0,1,0,28551.5,0.14812,0.147802,0.475143,15,0.0129603,10,7.0227e-05,-3.32318,-0.0783488,-0.753043,-13.9446,0.147802,
2,1,0,1,0,28551.8,0.149618,0.149264,0.453489,15,0.0131038,10,6.76896e-05,-3.34343,-0.0790973,-0.745917,-13.2264,0.149264,
2,1,0,1,0,28552.1,0.151117,0.150799,0.435219,15,0.0132412,10,6.56303e-05,-3.36129,-0.0811472,-0.727074,-12.3575,0.150799,
2,1,0,1,0,28552.4,0.152615,0.152302,0.414699,15,0.0133729,10,6.31596e-05,-3.38227,-0.0897239,-0.657573,-10.7274,0.152302,
2,1,0,1,0,28552.7,0.154114,0.153776,0.401345,15,0.0134996,10,6.17171e-05,-3.39648,-0.0995356,-0.592753,-9.33803,0.153776,
2,1,0,1,0,28553,0.155612,0.155273,0.388722,15,0.0136224,10,6.03582e-05,-3.41036,-0.112672,-0.523642,-7.97479,0.155273,
2,1,0,1,0,28553.3,0.157109,0.15682,0.377047,15,0.0137415,10,5.91286e-05,-3.42361,-0.115132,-0.512455,-7.573,0.15682,
2,1,0,0,0,28553.6,0.158608,0.158317,0.366926,15,0.0138576,10,5.80906e-05,-3.43542,-0.147272,-0.400619,-5.78134,0.158317,
2,1,0,0,0,28553.9,0.160106,0.159763,0.360068,15,0.0139707,10,5.75257e-05,-3.44362,-0.164176,-0.359371,-5.06983,0.159763,
2,1,0,1,0,28554.2,0.161605,0.161285,0.353271,15,0.0140818,10,5.69774e-05,-3.45189,-0.179601,-0.328506,-4.53628,0.161285,
2,1,0,1,0,28554.5,0.163102,0.162808,0.347572,15,0.0141908,10,5.65875e-05,-3.45895,-0.213733,-0.276045,-3.73985,0.162808,
2,1,0,1,0,28554.8,0.1646,0.164294,0.342311,15,0.0142982,10,5.62396e-05,-3.46558,-0.247851,-0.238046,-3.17797,0.164294,
2,1,0,1,0,28555.1,0.166099,0.165779,0.337327,15,0.0144039,10,5.59217e-05,-3.47195,-0.262079,-0.225123,-2.97104,0.165779,
2,1,0,1,0,28555.4,0.167597,0.167246,0.333121,15,0.0145084,10,5.57133e-05,-3.4774,-0.367264,-0.160647,-2.08763,0.167246,
2,1,0,1,0,28555.7,0.169095,0.168807,0.329347,15,0.0146119,10,5.55962e-05,-3.48235,-0.311608,-0.189341,-2.43893,0.1688074,
2,1,0,1,0,28556,0.170594,0.170298,0.326845,15,0.0147144,10,5.56612e-05,-3.48566,-0.329821,-0.178885,-2.28426,0.170298,
2,1,0,1,0,28556.3,0.172091,0.171769,0.322928,15,0.0148158,10,5.5469e-05,-3.49089,-0.419805,-0.140542,-1.77804,0.171769,
2,1,0,1,0,28556.6,0.173589,0.173252,0.320343,15,0.0149163,10,5.55002e-05,-3.49438,-0.446072,-0.132266,-1.65717,0.173252,
2,1,0,0,0,28556.9,0.175088,0.174786,0.318114,15,0.0150164,10,5.56018e-05,-3.49742,-0.53029,-0.11126,-1.38169,0.174786,
2,1,0,0,0,28557.2,0.176586,0.176334,0.317118,15,0.0151156,10,5.59188e-05,-3.49878,-0.391982,-0.150517,-1.85333,0.176334,
2,1,0,1,0,28557.5,0.178085,0.177747,0.311405,15,0.0152141,10,5.53513e-05,-3.50667,-0.524996,-0.112382,-1.37729,0.177747,
2,1,0,1,0,28557.8,0.179582,0.179298,0.312437,15,0.0153119,10,5.60193e-05,-3.50524,-0.873666,-0.0675316,-0.824188,0.179298,
2,1,0,1,0,28558.1,0.18108,0.180807,0.311236,15,0.0154094,10,5.62735e-05,-3.50691,-0.724665,-0.0814169,-0.987852,0.180807,
2,1,0,1,0,28558.4,0.182579,0.182254,0.309202,15,0.0155067,10,5.63534e-05,-3.50976,-0.477152,-0.12365,-1.49105,0.182254,
2,1,0,1,0,28558.7,0.184077,0.183746,0.307774,15,0.0156033,10,5.65523e-05,-3.51177,-0.831582,-0.0709491,-0.853982,0.183746,
2,1,0,1,0,28559,0.185576,0.185201,0.30657,15,0.0156994,10,5.67769e-05,-3.51347,-0.727861,-0.0810594,-0.969277,0.1852006,
2,1,0,1,0,28559.3,0.187074,0.186759,0.305762,15,0.0157953,10,5.71039e-05,-3.51462,-1.13881,-0.0518086,-0.616997,0.186759,
2,1,0,1,0,28559.5,0.188571,0.188286,0.305866,15,0.0158909,10,5.75901e-05,-3.51447,-1.18541,-0.0497717,-0.591413,0.188286,
2,1,0,0,0,28559.8,0.19007,0.189741,0.303703,15,0.0159861,10,5.76249e-05,-3.51755,-0.619936,-0.095171,-1.12628,0.1897409,
2,1,0,0,0,28560.1,0.191568,0.191192,0.301724,15,0.0160809,10,5.76871e-05,-3.52039,-1.12837,-0.052288,-0.61739,0.191192,
2,1,0,1,0,28560.4,0.193067,0.192738,0.300857,15,0.0161753,10,5.79866e-05,-3.52164,-2.90123,-0.0203362,-0.238777,0.192738,
2,1,0,1,0,28560.7,0.194564,0.194251,0.300559,15,0.0162695,10,5.83838e-05,-3.52207,-1.01572,-0.0580866,-0.68012,0.194251,
2,1,0,1,0,28561,0.196062,0.195721,0.299276,15,0.0163635,10,5.85747e-05,-3.52393,-0.876186,-0.0673373,-0.787622,0.195721,
2,1,0,1,0,28561.3,0.197561,0.197258,0.297438,15,0.0164569,10,5.86721e-05,-3.5266,-1.082,-0.0545288,-0.633815,0.197258,
2,1,0,1,0,28561.6,0.199059,0.198781,0.297079,15,0.0165502,10,5.90536e-05,-3.52713,-4.63508,-0.012729,-0.147622,0.198781,
2,1,0,1,0,28561.9,0.200557,0.200207,0.297064,15,0.0166433,10,5.94742e-05,-3.52715,-1.36144,-0.0433365,-0.50109,0.2002071,
2,1,0,1,0,28562.2,0.202056,0.201745,0.296636,15,0.0167363,10,5.98449e-05,-3.52778,-0.850149,-0.0693996,-0.801358,0.2017449,
2,1,0,1,0,28562.5,0.203553,0.203244,0.293232,15,0.0168289,10,5.95975e-05,-3.53279,-2.19178,-0.0269187,-0.310654,0.203244,
2,1,0,1,0,28562.8,0.205051,0.204738,0.294293,15,0.0169212,10,6.02529e-05,-3.53122,-28.4546,-0.00207348,-0.023975,0.204738,
2,1,0,0,0,28563.1,0.20655,0.20624,0.293052,15,0.0170135,10,6.0439e-05,-3.53305,-1.14017,-0.0517468,-0.593943,0.20624,
2,1,0,0,0,28563.4,0.208048,0.20777,0.29298,15,0.0171058,10,6.08725e-05,-3.53316,-0.809711,-0.0728655,-0.833268,0.20777,
2,1,0,1,0,28563.7,0.209547,0.209216,0.293057,15,0.0171977,10,6.1312e-05,-3.53305,-0.951149,-0.0620303,-0.70845,0.2092156,
2,1,0,1,0,28564,0.211044,0.21067,0.291671,15,0.0172891,10,6.14464e-05,-3.53511,-2.14286,-0.0275333,-0.313371,0.21067,
2,1,0,1,0,28564.3,0.212542,0.212238,0.291242,15,0.0173805,10,6.18127e-05,-3.53575,-2.70602,-0.0218033,-0.247344,0.212238,
2,1,0,1,0,28564.6,0.214041,0.21372,0.290725,15,0.0174718,10,6.21336e-05,-3.53652,-2.20254,-0.0267872,-0.303514,0.21372,
2,1,0,1,0,28564.9,0.215539,0.215177,0.289663,15,0.0175628,10,6.23288e-05,-3.53811,-1.60012,-0.0368723,-0.417681,0.215177,
2,1,0,1,0,28565.2,0.217038,0.216705,0.28789,15,0.0176534,10,6.23873e-05,-3.54077,-1.43872,-0.0410087,-0.462961,0.216705,
2,1,0,1,0,28565.5,0.218535,0.218228,0.287791,15,0.017744,10,6.2804e-05,-3.54092,2.72657,0.0216389,0.243093,0.218228,
2,1,0,1,0,28565.8,0.220033,0.219743,0.28837,15,0.0178346,10,6.33671e-05,-3.54005,-1.49262,-0.0395278,-0.444167,0.219743,
2,1,0,0,0,28566.1,0.221532,0.22126,0.286638,15,0.0179249,10,6.34215e-05,-3.54267,-1.40338,-0.0420413,-0.472451,0.22126,
2,1,0,0,0,28566.4,0.22303,0.22273,0.285271,15,0.0180149,10,6.35385e-05,-3.54474,-186.578,-0.000316222,-0.00353258,0.22273,
2,1,0,1,0,28566.7,0.224529,0.224203,0.286216,15,0.0181048,10,6.41703e-05,-3.54331,-2.29547,-0.0257028,-0.286362,0.2242026,
2,1,0,1,0,28567,0.226026,0.2257,0.286175,15,0.0181945,10,6.45899e-05,-3.54337,-1.19162,-0.0495123,-0.551416,0.2257,
2,1,0,1,0,28567.3,0.227524,0.227257,0.285363,15,0.0182841,10,6.48507e-05,-3.5446,-1.18661,-0.0497215,-0.552331,0.2272568,
2,1,0,1,0,28567.6,0.229023,0.228667,0.283509,15,0.0183735,10,6.48292e-05,-3.54743,-2.20438,-0.0267649,-0.297359,0.228667,
2,1,0,1,0,28567.9,0.230521,0.230235,0.283647,15,0.0184625,10,6.53054e-05,-3.54722,4.16725,0.014158,0.157202,0.230235,
2,1,0,1,0,28568.2,0.232019,0.231716,0.283672,15,0.0185516,10,6.57314e-05,-3.54718,-1.55681,-0.0378979,-0.419016,0.231716,
2,1,0,1,0,28568.5,0.233518,0.233226,0.283705,15,0.0186407,10,6.61676e-05,-3.54713,-1.04642,-0.0563826,-0.623125,0.233226,
2,1,0,1,0,28568.8,0.235015,0.234714,0.2834,15,0.0187296,10,6.65178e-05,-3.5476,-3.01827,-0.0195476,-0.215735,0.234714,
2,1,0,1,0,28569.1,0.236513,0.236219,0.282542,15,0.0188181,10,6.67419e-05,-3.54892,-1.82032,-0.0324118,-0.35711,0.236219,
2,1,0,0,0,28569.4,0.238012,0.237723,0.283438,15,0.0189067,10,6.73799e-05,-3.54754,9.75038,0.00605104,0.0665207,0.237723,
2,1,0,0,0,28569.7,0.23951,0.239211,0.281604,15,0.0189952,10,6.73627e-05,-3.55036,-1.43156,-0.0412139,-0.453067,0.239211,
2,1,0,1,0,28570,0.241009,0.240721,0.279708,15,0.0190836,10,6.73318e-05,-3.55329,-7.21552,-0.00817681,-0.0898966,0.240721,
2,1,0,1,0,28570.3,0.242506,0.242214,0.28019,15,0.0191717,10,6.78661e-05,-3.55255,-4.17246,-0.0141403,-0.155348,0.242214,
2,1,0,1,0,28570.6,0.244004,0.243717,0.279862,15,0.0192598,10,6.82072e-05,-3.55306,4.86221,0.0121344,0.132638,0.243717,
2,1,0,1,0,28570.9,0.245503,0.245227,0.280769,15,0.0193478,10,6.8852e-05,-3.55165,-5.74897,-0.0102627,-0.11194,0.245227,
2,1,0,1,0,28571.2,0.247001,0.246702,0.27928,15,0.0194358,10,6.8899e-05,-3.55396,-2.49611,-0.0236368,-0.257387,0.246702,
2,1,0,1,0,28571.5,0.2485,0.248183,0.278182,15,0.0195235,10,6.90403e-05,-3.55567,-25.7505,-0.00229122,-0.0249814,0.248183,
2,1,0,1,0,28571.8,0.249997,0.249674,0.279589,15,0.019611,10,6.98061e-05,-3.55348,-2.00932,-0.0293631,-0.318681,0.249674,
2,1,0,1,0,28572.1,0.251495,0.251196,0.278461,15,0.0196986,10,6.99485e-05,-3.55524,-49.09,-0.00120187,-0.0130511,0.251196,
2,1,0,0,0,28572.4,0.252994,0.252642,0.277977,15,0.0197861,10,7.02288e-05,-3.55599,-1.26941,-0.0464783,-0.502538,0.2526421,
2,1,0,0,0,28572.7,0.254492,0.254217,0.277732,15,0.0198734,10,7.0604e-05,-3.55637,-2.2848,-0.0258228,-0.279895,0.254217,
2,1,0,1,0,28573,0.255991,0.255661,0.277794,15,0.0199605,10,7.10213e-05,-3.55628,-9.01171,-0.00654704,-0.070826,0.255661,
2,1,0,1,0,28573.3,0.257488,0.257175,0.277811,15,0.0200476,10,7.14462e-05,-3.55625,-1.22416,-0.0481964,-0.520887,0.257175,
2,1,0,1,0,28573.6,0.258986,0.258664,0.276668,15,0.0201347,10,7.15639e-05,-3.55804,-4.72124,-0.0124967,-0.134792,0.258664,
2,1,0,1,0,28573.9,0.260485,0.260169,0.276277,15,0.0202216,10,7.18787e-05,-3.55866,-1.56324,-0.0377422,-0.406133,0.260169,
2,1,0,1,0,28574.2,0.261983,0.261667,0.276075,15,0.0203082,10,7.22398e-05,-3.55897,-1.25071,-0.047173,-0.507784,0.261667,
2,1,0,1,0,28574.5,0.263481,0.263178,0.276697,15,0.0203949,10,7.28207e-05,-3.55799,12.3997,0.00475818,0.0510984,0.263178,
2,1,0,1,0,28574.8,0.26498,0.264656,0.274641,15,0.0204814,10,7.26852e-05,-3.56124,-3.14841,-0.0187396,-0.201234,0.264656,
2,1,0,1,0,28575.1,0.266477,0.266176,0.274756,15,0.0205679,10,7.31334e-05,-3.56105,-2.56581,-0.0229947,-0.246833,0.266176,
2,1,0,0,0,28575.4,0.267976,0.267666,0.273026,15,0.020654,10,7.30798e-05,-3.5638,-3.02349,-0.0195139,-0.209404,0.267666,
2,1,0,0,0,28575.7,0.269474,0.269151,0.274182,15,0.0207401,10,7.37962e-05,-3.56196,-12.8338,-0.00459724,-0.0491126,0.2691505,
2,1,0,0,0,28576,0.270972,0.270671,0.275732,15,0.0208262,10,7.46327e-05,-3.55951,-1.28158,-0.046037,-0.49134,0.2706711,
2,1,0,1,0,28576.3,0.27247,0.272171,0.272921,15,0.0209121,10,7.42811e-05,-3.56396,-1.32904,-0.044393,-0.472593,0.272171,
2,1,0,1,0,28576.6,0.273968,0.273621,0.271304,15,0.0209977,10,7.42344e-05,-3.56654,-9.39891,-0.00627733,-0.0667677,0.273621,
2,1,0,1,0,28576.9,0.275466,0.275156,0.272704,15,0.0210831,10,7.50362e-05,-3.56431,-2.04597,-0.0288371,-0.306538,0.275156,
2,1,0,1,0,28577.2,0.276965,0.276633,0.271741,15,0.0211687,10,7.51724e-05,-3.56585,-1.91029,-0.0308854,-0.328427,0.2766327,
2,1,0,1,0,28577.5,0.278463,0.278155,0.271287,15,0.0212541,10,7.54601e-05,-3.56657,-1.37383,-0.0429457,-0.454319,0.278155,
2,1,0,1,0,28577.8,0.279962,0.279675,0.27123,15,0.0213395,10,7.58564e-05,-3.56666,-0.826296,-0.071403,-0.755848,0.279675,
2,1,0,1,0,28578.1,0.281459,0.281146,0.270373,15,0.0214245,10,7.60143e-05,-3.56804,-1.44922,-0.0407115,-0.429611,0.281146,
2,1,0,1,0,28578.4,0.282957,0.282667,0.271209,15,0.0215094,10,7.66618e-05,-3.5667,4.27779,0.0137922,0.144982,0.282667,
2,1,0,0,0,28578.7,0.284456,0.284206,0.269915,15,0.0215943,10,7.67116e-05,-3.56877,-9.02506,-0.00653735,-0.0687316,0.284206,
2,1,0,0,0,28579,0.285954,0.285664,0.26921,15,0.021679,10,7.69036e-05,-3.56991,-1.28667,-0.0458549,-0.481142,0.2856642,
2,1,0,0,0,28579.3,0.287452,0.287145,0.267823,15,0.0217634,10,7.69039e-05,-3.57215,-1.7642,-0.0334429,-0.349855,0.287145,
2,1,0,1,0,28579.6,0.28895,0.288637,0.268557,15,0.0218478,10,7.75154e-05,-3.57096,8.59735,0.00686258,0.0716745,0.288637,
2,1,0,1,0,28579.9,0.290448,0.290155,0.267239,15,0.021932,10,7.75406e-05,-3.5731,-3.59993,-0.0163892,-0.171322,0.290155,
2,1,0,1,0,28580.2,0.291947,0.291691,0.266957,15,0.0220162,10,7.78689e-05,-3.57356,-2.61837,-0.0225331,-0.235644,0.2916905,
2,1,0,1,0,28580.5,0.293445,0.293134,0.264876,15,0.0221001,10,7.76439e-05,-3.57696,-2.56299,-0.0230199,-0.240065,0.293134,
2,1,0,1,0,28580.8,0.294943,0.294602,0.266941,15,0.022184,10,7.86415e-05,-3.57358,-5.02971,-0.0117303,-0.122115,0.294602,
2,1,0,1,0,28581.1,0.296442,0.296158,0.267598,15,0.0222678,10,7.92514e-05,-3.57252,-2.43947,-0.0241856,-0.250529,0.296158,
2,1,0,1,0,28581.4,0.297939,0.297682,0.265989,15,0.0223515,10,7.91799e-05,-3.57514,-2.3354,-0.0252633,-0.262307,0.2976816,
2,1,0,1,0,28581.7,0.299437,0.299154,0.264167,15,0.022435,10,7.90265e-05,-3.57812,-0.00273157,-21.5993,-114.389,0.299154,
2,1,0,1,0,28581.9,0.299737,0.299438,0.119238,15,0.0224737,10,3.57045e-05,-3.92358,0.00102441,57.5939,208.64,0.299438,
2,1,0,1,0,28582.2,0.29824,0.297928,0.0265168,15,0.0224859,10,7.90009e-06,-4.57648,0.00166516,35.432,70.2303,0.297928,
2,1,0,0,0,28582.5,0.296741,0.29648,0.00681151,15,0.0224867,10,2.01948e-06,-5.16676,0.00674668,8.74505,11.5616,0.29648,
2,0,0,0,0,28582.8,0.295243,0.294971,-0.0055543,15,0.0224828,10,-1.63836e-06,-5.25537,-0.0289112,-2.04073,7.45288,0.294971,
2,0,0,1,0,28583.1,0.293744,0.293433,-0.0156623,15,0.0224758,10,-4.59583e-06,-4.80515,-0.00334181,-17.6551,5.93861,0.293433,
2,0,0,1,0,28583.4,0.292246,0.291923,-0.0228437,15,0.0224662,10,-6.66858e-06,-4.64123,-0.00865243,-6.81889,5.25662,0.291923,
2,0,0,1,0,28583.7,0.290749,0.290434,-0.0300525,15,0.0224544,10,-8.72829e-06,-4.52212,-0.0145218,-4.06287,4.35946,0.290434,
2,0,0,1,0,28584,0.28925,0.288957,-0.0357967,15,0.0224407,10,-1.03437e-05,-4.44616,-0.0200884,-2.93702,4.02181,0.288957,
2,0,0,1,0,28584.3,0.287752,0.287429,-0.0408114,15,0.0224252,10,-1.17304e-05,-4.38922,-0.0277375,-2.12708,3.34559,0.287429,
2,0,0,1,0,28584.6,0.286253,0.285908,-0.0451156,15,0.0224082,10,-1.28989e-05,-4.34567,-0.0333341,-1.76996,3.18605,0.285908,
2,0,0,1,0,28584.9,0.284755,0.284478,-0.0506987,15,0.0223898,10,-1.44227e-05,-4.295,-0.036096,-1.63453,3.13782,0.284478,
2,0,0,1,0,28585.2,0.283257,0.282966,-0.0553578,15,0.0223699,10,-1.56644e-05,-4.25682,-0.0490528,-1.20279,2.57253,0.282966,
2,0,0,0,0,28585.5,0.281759,0.281426,-0.0592033,15,0.0223488,10,-1.66613e-05,-4.22765,-0.0492651,-1.1976,2.76173,0.281426,
2,0,0,0,0,28585.8,0.280261,0.279959,-0.0613558,15,0.0223266,10,-1.71771e-05,-4.21214,-0.0572684,-1.03024,2.5119,0.2799592,
2,0,0,0,0,28586.1,0.278763,0.278458,-0.0664021,15,0.0223032,10,-1.84902e-05,-4.17782,-0.0637794,-0.925064,2.39363,0.278458,
2,0,0,1,0,28586.4,0.277264,0.276941,-0.0701778,15,0.0222788,10,-1.94351e-05,-4.1538,-0.0666312,-0.885471,2.43134,0.276941,
2,0,0,1,0,28586.7,0.275766,0.275469,-0.0731338,15,0.0222532,10,-2.01461e-05,-4.13588,-0.0952152,-0.619649,1.76008,0.275469,
2,0,0,1,0,28587,0.274269,0.273945,-0.0767518,15,0.0222266,10,-2.10258e-05,-4.11491,-0.0999826,-0.590103,1.75849,0.273945,
2,0,0,1,0,28587.3,0.27277,0.272461,-0.0800201,15,0.0221992,10,-2.18024e-05,-4.0968,-0.0839133,-0.703107,2.20153,0.272461,
2,0,0,1,0,28587.6,0.271272,0.270955,-0.0825687,15,0.0221709,10,-2.23724e-05,-4.08318,-0.0954505,-0.618121,1.99375,0.270955,
2,0,0,1,0,28587.9,0.269773,0.269466,-0.0861613,15,0.0221414,10,-2.32176e-05,-4.06469,-0.0969516,-0.608551,2.02839,0.269466,
2,0,0,1,0,28588.2,0.268275,0.267926,-0.0884657,15,0.0221111,10,-2.37022e-05,-4.05322,-0.126307,-0.467116,1.60781,0.2679258,
2,0,0,1,0,28588.5,0.266778,0.266468,-0.0903598,15,0.0220803,10,-2.4078e-05,-4.04402,-0.107089,-0.550945,1.96121,0.266468,
2,0,0,0,0,28588.8,0.265279,0.265021,-0.0937993,15,0.0220485,10,-2.48588e-05,-4.0278,-0.112971,-0.522259,1.90233,0.265021,
2,0,0,0,0,28589.1,0.263781,0.263449,-0.096049,15,0.0220158,10,-2.5304e-05,-4.01751,-0.124603,-0.473505,1.78071,0.263449,
2,0,0,1,0,28589.4,0.262282,0.262011,-0.0994001,15,0.0219825,10,-2.60439e-05,-4.00261,-0.138726,-0.425299,1.63465,0.262011,
2,0,0,1,0,28589.7,0.260784,0.260489,-0.101143,15,0.0219485,10,-2.63467e-05,-3.99506,-0.155589,-0.379205,1.50018,0.2604892,
2,0,0,1,0,28590,0.259286,0.258914,-0.102977,15,0.0219137,10,-2.6662e-05,-3.98726,-0.112564,-0.524145,2.11804,0.2589137,
2,0,0,1,0,28590.3,0.257788,0.257446,-0.107953,15,0.021878,10,-2.77919e-05,-3.96677,-0.141906,-0.415768,1.71345,0.257446,
2,0,0,1,0,28590.6,0.25629,0.255972,-0.108544,15,0.0218416,10,-2.77843e-05,-3.96439,-0.201037,-0.293479,1.23357,0.255972,
2,0,0,1,0,28590.9,0.254791,0.254512,-0.110721,15,0.0218047,10,-2.81797e-05,-3.95577,-0.169893,-0.347277,1.50093,0.2545121,
2,0,0,1,0,28591.2,0.253293,0.252957,-0.113479,15,0.0217672,10,-2.87053e-05,-3.94508,-0.206503,-0.28571,1.26392,0.252957,
2,0,0,1,0,28591.5,0.251795,0.251512,-0.114874,15,0.0217289,10,-2.88922e-05,-3.93978,-0.176844,-0.333627,1.50061,0.251512,
2,0,0,0,0,28591.8,0.250297,0.249986,-0.1163,15,0.0216901,10,-2.90734e-05,-3.93442,-0.294829,-0.200116,0.913857,0.249986,
2,0,0,0,0,28592.1,0.248799,0.248477,-0.118955,15,0.0216506,10,-2.95576e-05,-3.92462,-0.207434,-0.284427,1.33068,0.248477,
2,0,0,0,0,28592.4,0.247301,0.246982,-0.120992,15,0.0216107,10,-2.98827e-05,-3.91724,-0.191054,-0.308814,1.4658,0.246982,
2,0,0,1,0,28592.7,0.245802,0.245518,-0.12342,15,0.02157,10,-3.03018e-05,-3.90862,-0.177123,-0.333102,1.59943,0.245518,
2,0,0,1,0,28593,0.244304,0.24399,-0.125511,15,0.0215286,10,-3.06236e-05,-3.90132,-0.197387,-0.298906,1.46262,0.24399,
2,0,0,1,0,28593.3,0.242806,0.242483,-0.128734,15,0.0214865,10,-3.12158e-05,-3.89031,-0.246583,-0.239271,1.19267,0.242483,
2,0,0,1,0,28593.6,0.241308,0.240999,-0.128927,15,0.0214442,10,-3.10712e-05,-3.88966,-0.274775,-0.214721,1.08541,0.2409988,
2,0,0,1,0,28593.9,0.23981,0.239478,-0.131693,15,0.0214011,10,-3.15377e-05,-3.88044,-0.184355,-0.320034,1.63338,0.239478,
2,0,0,1,0,28594.2,0.238311,0.237984,-0.133041,15,0.0213575,10,-3.16616e-05,-3.87601,-0.237871,-0.248033,1.28829,0.237984,
2,0,0,1,0,28594.5,0.236813,0.236511,-0.133927,15,0.0213134,10,-3.16752e-05,-3.87313,-0.24643,-0.239418,1.25514,0.236511,
2,0,0,1,0,28594.8,0.235316,0.235002,-0.135679,15,0.0212688,10,-3.18849e-05,-3.86749,-0.209072,-0.2822,1.50856,0.235002,
2,0,0,0,0,28595.1,0.233817,0.23349,-0.139286,15,0.0212235,10,-3.25219e-05,-3.85609,-0.281509,-0.209585,1.13447,0.23349,
2,0,0,0,0,28595.4,0.232319,0.231985,-0.142615,15,0.0211776,10,-3.30845e-05,-3.84584,-0.320852,-0.183886,1.00633,0.231985,
2,0,0,1,0,28595.7,0.23082,0.230497,-0.141661,15,0.0211312,10,-3.26524e-05,-3.84875,-0.332501,-0.177443,0.980953,0.230497,
2,0,0,1,0,28596,0.229322,0.228993,-0.142771,15,0.0210844,10,-3.26936e-05,-3.84536,-0.323919,-0.182144,1.02386,0.228993,
2,0,0,1,0,28596.3,0.227825,0.227483,-0.145136,15,0.0210371,10,-3.30161e-05,-3.83822,-0.318406,-0.185298,1.05741,0.227483,
2,0,0,1,0,28596.6,0.226326,0.225964,-0.147222,15,0.0209892,10,-3.32668e-05,-3.83203,-0.292013,-0.202046,1.16754,0.225964,
2,0,0,1,0,28596.9,0.224828,0.224548,-0.148405,15,0.0209406,10,-3.33241e-05,-3.82855,-0.346837,-0.170109,0.98498,0.224548,
2,0,0,1,0,28597.2,0.223329,0.223029,-0.149773,15,0.0208916,10,-3.34037e-05,-3.82457,-0.326137,-0.180906,1.06054,0.2230287,
2,0,0,1,0,28597.5,0.221831,0.22154,-0.152956,15,0.0208423,10,-3.38859e-05,-3.81543,-0.343637,-0.171693,1.0177,0.22154,
2,0,0,1,0,28597.8,0.220333,0.22006,-0.154075,15,0.0207922,10,-3.39058e-05,-3.81227,-0.28092,-0.210024,1.26245,0.22006,
2,0,0,0,0,28598.1,0.218835,0.21851,-0.155995,15,0.0207414,10,-3.40864e-05,-3.80689,-0.306516,-0.192486,1.1727,0.2185097,
2,0,0,0,0,28598.4,0.217337,0.217039,-0.158145,15,0.0206904,10,-3.43235e-05,-3.80095,-0.360813,-0.163519,1.00742,0.217039,
2,0,0,0,0,28598.7,0.215839,0.21549,-0.159001,15,0.0206388,10,-3.42631e-05,-3.7986,-0.264525,-0.223041,1.38977,0.21549,
2,0,0,1,0,28599,0.21434,0.214008,-0.161522,15,0.0205866,10,-3.45669e-05,-3.79177,-0.243491,-0.242308,1.51614,0.214008,
2,0,0,1,0,28599.3,0.212842,0.212491,-0.162933,15,0.0205339,10,-3.46217e-05,-3.78799,-0.280179,-0.21058,1.34346,0.212491,
2,0,0,1,0,28599.6,0.211344,0.211013,-0.163596,15,0.0204806,10,-3.45209e-05,-3.78623,-0.340382,-0.173335,1.11489,0.211013,
2,0,0,1,0,28599.9,0.209846,0.209535,-0.165399,15,0.0204268,10,-3.46569e-05,-3.78147,-0.38559,-0.153012,0.996257,0.209535,
2,0,0,1,0,28600.2,0.208348,0.208012,-0.16829,15,0.0203725,10,-3.50063e-05,-3.77394,-0.317452,-0.185855,1.21759,0.208012,
2,0,0,1,0,28600.5,0.206849,0.206525,-0.172054,15,0.0203173,10,-3.55334e-05,-3.76434,-0.267576,-0.220498,1.46699,0.206525,
2,0,0,1,0,28600.8,0.205351,0.205051,-0.171811,15,0.0202616,10,-3.52301e-05,-3.76495,-0.402571,-0.146558,0.982054,0.205051,
2,0,0,1,0,28601.1,0.203854,0.203519,-0.173957,15,0.0202055,10,-3.54035e-05,-3.75956,-0.377026,-0.156488,1.0664,0.203519,
2,0,0,0,0,28601.4,0.202355,0.202016,-0.176432,15,0.0201491,10,-3.56421e-05,-3.75342,-0.28256,-0.208805,1.43811,0.202016,
2,0,0,0,0,28601.7,0.200857,0.200528,-0.177705,15,0.0200918,10,-3.5635e-05,-3.7503,-0.365644,-0.161359,1.11833,0.2005284,
2,0,0,1,0,28602,0.199358,0.199022,-0.179095,15,0.0200339,10,-3.56439e-05,-3.74692,-0.479198,-0.123122,0.862117,0.199022,
2,0,0,1,0,28602.3,0.19786,0.197556,-0.181971,15,0.0199755,10,-3.59496e-05,-3.74,-0.403282,-0.146299,1.03972,0.197556,
2,0,0,1,0,28602.6,0.196363,0.196044,-0.184383,15,0.0199168,10,-3.61473e-05,-3.73428,-0.275586,-0.21409,1.53387,0.196044,
2,0,0,1,0,28602.9,0.194864,0.194512,-0.186535,15,0.0198571,10,-3.62832e-05,-3.72924,-0.288632,-0.204412,1.47843,0.194512,
2,0,0,1,0,28603.2,0.193366,0.193072,-0.187685,15,0.0197967,10,-3.62366e-05,-3.72657,-0.295204,-0.199862,1.46638,0.193072,
2,0,0,1,0,28603.5,0.191867,0.191561,-0.18991,15,0.0197358,10,-3.63794e-05,-3.72145,-0.418004,-0.141147,1.05355,0.191561,
2,0,0,1,0,28603.8,0.190369,0.190079,-0.192285,15,0.0196744,10,-3.65493e-05,-3.71606,-0.315059,-0.187267,1.40416,0.190079,
2,0,0,1,0,28604.1,0.188871,0.188534,-0.194275,15,0.0196122,10,-3.66275e-05,-3.71158,-0.257275,-0.229327,1.73755,0.188534,
2,0,0,0,0,28604.4,0.187373,0.187081,-0.196546,15,0.0195493,10,-3.67702e-05,-3.70653,-0.26986,-0.218632,1.67882,0.1870814,
2,0,0,0,0,28604.7,0.185875,0.185534,-0.199488,15,0.0194857,10,-3.70119e-05,-3.70008,-0.294174,-0.200562,1.55402,0.185534,
2,0,0,0,0,28605,0.184377,0.184065,-0.199861,15,0.0194213,10,-3.67874e-05,-3.69927,-0.24491,-0.240905,1.89271,0.184065,
2,0,0,1,0,28605.3,0.182878,0.182588,-0.204694,15,0.0193563,10,-3.73747e-05,-3.68889,-0.274257,-0.215126,1.71175,0.182588,
2,0,0,1,0,28605.6,0.181381,0.181073,-0.206346,15,0.0192904,10,-3.73635e-05,-3.6854,-0.297546,-0.198289,1.5961,0.181073,
2,0,0,1,0,28605.9,0.179882,0.179541,-0.209058,15,0.0192237,10,-3.75345e-05,-3.67973,-0.345215,-0.170908,1.39053,0.179541,
2,0,0,1,0,28606.2,0.178384,0.178037,-0.210508,15,0.0191563,10,-3.74783e-05,-3.67673,-0.288185,-0.20473,1.69531,0.1780372,
2,0,0,1,0,28606.5,0.176886,0.176552,-0.2148,15,0.0190881,10,-3.79233e-05,-3.66797,-0.236085,-0.24991,2.09732,0.176552,
2,0,0,1,0,28606.8,0.175387,0.175046,-0.218955,15,0.019019,10,-3.83272e-05,-3.65965,-0.271863,-0.217021,1.84579,0.175046,
2,0,0,1,0,28607.1,0.173889,0.173536,-0.221534,15,0.0189488,10,-3.8444e-05,-3.65456,-0.224832,-0.262418,2.25565,0.173536,
2,0,0,1,0,28607.4,0.172392,0.172034,-0.224757,15,0.0188777,10,-3.86658e-05,-3.64829,-0.235581,-0.250445,2.19098,0.172034,
2,0,0,0,0,28607.7,0.170893,0.170573,-0.228332,15,0.0188058,10,-3.89472e-05,-3.64143,-0.210109,-0.280807,2.49894,0.170573,
2,0,0,0,0,28608,0.169395,0.169068,-0.232008,15,0.0187328,10,-3.92252e-05,-3.6345,-0.165271,-0.35699,3.20874,0.169068,
2,0,0,1,0,28608.3,0.167896,0.167575,-0.23551,15,0.0186583,10,-3.94656e-05,-3.62799,-0.173462,-0.340133,3.13754,0.167575,
2,0,0,1,0,28608.6,0.166398,0.166046,-0.239815,15,0.0185828,10,-3.98204e-05,-3.62012,-0.191431,-0.308205,2.89271,0.166046,
2,0,0,1,0,28608.9,0.164901,0.164599,-0.243373,15,0.0185061,10,-4.00589e-05,-3.61373,-0.165328,-0.356866,3.41109,0.164599,
2,0,0,1,0,28609.2,0.163402,0.163061,-0.248945,15,0.0184281,10,-4.05933e-05,-3.6039,-0.151127,-0.390399,3.79464,0.163061,
2,0,0,1,0,28609.5,0.161904,0.161587,-0.254193,15,0.0183485,10,-4.10743e-05,-3.59484,-0.164171,-0.359382,3.56614,0.161587,
2,0,0,1,0,28609.8,0.160405,0.160113,-0.258906,15,0.0182674,10,-4.14542e-05,-3.58686,-0.196873,-0.299686,3.03377,0.160113,
2,0,0,1,0,28610.1,0.158907,0.158584,-0.264125,15,0.0181846,10,-4.18859e-05,-3.57819,-0.151612,-0.389151,4.02895,0.158584,
2,0,0,1,0,28610.4,0.157409,0.157072,-0.271282,15,0.0181002,10,-4.26108e-05,-3.56658,-0.136105,-0.43349,4.61383,0.157072,
2,0,0,0,0,28610.7,0.155911,0.155615,-0.278067,15,0.0180135,10,-4.32714e-05,-3.55585,-0.1229,-0.480066,5.2247,0.155615,
2,0,0,0,0,28611,0.154413,0.154068,-0.284395,15,0.0179246,10,-4.38162e-05,-3.54608,-0.135441,-0.435613,4.85703,0.154068,
2,0,0,0,0,28611.3,0.152915,0.152598,-0.293683,15,0.0178334,10,-4.48154e-05,-3.53212,-0.118985,-0.495861,5.70431,0.152598,
2,0,0,1,0,28611.6,0.151416,0.151092,-0.303568,15,0.0177397,10,-4.58667e-05,-3.51774,-0.106823,-0.552317,6.54728,0.1510921,
2,0,0,1,0,28611.9,0.149919,0.149615,-0.313146,15,0.0176429,10,-4.68514e-05,-3.50425,-0.0950045,-0.621023,7.61072,0.1496153,
2,0,0,1,0,28612.2,0.14842,0.148098,-0.325824,15,0.0175426,10,-4.82538e-05,-3.48702,-0.0878476,-0.671618,8.53254,0.148098,
2,0,0,1,0,28612.5,0.146922,0.146601,-0.338211,15,0.0174385,10,-4.95822e-05,-3.47081,-0.0844277,-0.698823,9.25303,0.146601,
2,0,0,1,0,28612.8,0.145424,0.145088,-0.352585,15,0.0173307,10,-5.11559e-05,-3.45274,-0.0826293,-0.714033,9.84956,0.145088,
2,0,0,1,0,28613.1,0.143925,0.14358,-0.36921,15,0.0172181,10,-5.30111e-05,-3.43273,-0.0740728,-0.796513,11.4499,0.14358,
2,0,0,1,0,28613.4,0.142427,0.142101,-0.38754,15,0.0171003,10,-5.50699e-05,-3.41168,-0.0724902,-0.813903,12.272,0.142101,
2,0,0,1,0,28613.7,0.14093,0.140621,-0.405566,15,0.0169773,10,-5.70311e-05,-3.39194,-0.0775892,-0.760416,12.0205,0.1406212,
2,0,0,0,0,28614,0.139431,0.139093,-0.421509,15,0.0168489,10,-5.86288e-05,-3.37519,-0.0737721,-0.79976,13.2319,0.139093,
2,0,0,0,0,28614.3,0.137933,0.13759,-0.44368,15,0.0167148,10,-6.1046e-05,-3.35293,-0.0752542,-0.784009,13.5576,0.1375901,
2,0,0,1,0,28614.6,0.136434,0.136092,-0.465741,15,0.0165741,10,-6.33834e-05,-3.33186,-0.0751817,-0.784765,14.1584,0.136092,
2,0,0,1,0,28614.9,0.134936,0.134633,-0.485203,15,0.0164271,10,-6.53241e-05,-3.31408,-0.0818105,-0.721178,13.5948,0.134633,
2,0,0,1,0,28615.2,0.133439,0.133125,-0.504576,15,0.016274,10,-6.71717e-05,-3.29707,-0.0871023,-0.677364,13.3438,0.133125,
2,0,0,1,0,28615.5,0.13194,0.131591,-0.524873,15,0.0161152,10,-6.90687e-05,-3.27995,-0.095626,-0.616987,12.6612,0.131591,
2,0,0,1,0,28615.8,0.130442,0.130086,-0.544019,15,0.0159505,10,-7.0769e-05,-3.26439,-0.102259,-0.576969,12.2208,0.130086,
2,0,0,1,0,28616.1,0.128943,0.128647,-0.561819,15,0.01578,10,-7.22765e-05,-3.2504,-0.120504,-0.48961,10.67,0.128647,
2,0,0,1,0,28616.4,0.127445,0.127102,-0.577866,15,0.0156046,10,-7.34477e-05,-3.23817,-0.137441,-0.429276,9.64337,0.1271015,
2,0,0,1,0,28616.7,0.125947,0.12561,-0.591391,15,0.0154253,10,-7.42845e-05,-3.22813,-0.158037,-0.373331,8.58685,0.12561,
2,0,0,0,0,28617,0.124449,0.124137,-0.60404,15,0.0152417,10,-7.49835e-05,-3.21893,-0.170034,-0.346989,8.13333,0.124137,
2,0,0,0,0,28617.3,0.122951,0.122633,-0.612688,15,0.0150548,10,-7.51358e-05,-3.21276,-0.239005,-0.246856,5.88786,0.122633,
2,0,0,0,0,28617.6,0.121453,0.121108,-0.621073,15,0.0148652,10,-7.52171e-05,-3.20686,-0.315463,-0.187027,4.51994,0.121108,
2,0,0,1,0,28617.9,0.119954,0.119657,-0.625181,15,0.014674,10,-7.48075e-05,-3.20399,-0.431413,-0.13676,3.33826,0.119657,
2,0,0,1,0,28618.1,0.118456,0.118127,-0.631132,15,0.0144811,10,-7.45541e-05,-3.19988,-0.442635,-0.133293,3.27228,0.1181275,
2,0,0,1,0,28618.4,0.116958,0.116668,-0.635127,15,0.0142868,10,-7.40992e-05,-3.19714,-1.24756,-0.0472923,1.16801,0.116668,
2,0,0,1,0,28618.7,0.11546,0.115136,-0.634033,15,0.0140921,10,-7.30001e-05,-3.19789,-4.28083,-0.0137824,0.340922,0.115136,
2,0,0,1,0,28619,0.113962,0.113646,-0.631659,15,0.0138976,10,-7.17856e-05,-3.19952,2.64972,0.0222665,-0.550616,0.113646,
2,0,0,1,0,28619.3,0.112463,0.112137,-0.633198,15,0.0137033,10,-7.10048e-05,-3.19846,1.4489,0.0407204,-1.00541,0.112137,
2,0,0,1,0,28619.6,0.110965,0.110629,-0.632253,15,0.013509,10,-6.99458e-05,-3.19911,1.59528,0.0369841,-0.910911,0.110629,
2,0,0,1,0,28619.9,0.109468,0.109134,-0.629691,15,0.0133152,10,-6.87204e-05,-3.20087,0.653766,0.0902463,-2.21736,0.109134,
2,0,0,0,0,28620.2,0.107969,0.107648,-0.627374,15,0.013122,10,-6.75359e-05,-3.20247,0.841461,0.0701161,-1.71998,0.107648,
2,0,0,0,0,28620.5,0.106471,0.106153,-0.624527,15,0.0129301,10,-6.62956e-05,-3.20445,0.86176,0.0684645,-1.67284,0.106153,
2,0,0,1,0,28620.8,0.104972,0.10464,-0.622069,15,0.0127385,10,-6.50932e-05,-3.20616,0.933198,0.0632234,-1.53348,0.10464,
2,0,0,1,0,28621.1,0.103474,0.103177,-0.620911,15,0.0125476,10,-6.40635e-05,-3.20697,0.605456,0.0974472,-2.35304,0.103177,
2,0,0,1,0,28621.4,0.101977,0.101653,-0.616213,15,0.0123578,10,-6.26401e-05,-3.21027,0.54306,0.108644,-2.61363,0.1016532,
2,0,0,1,0,28621.7,0.100478,0.100166,-0.612345,15,0.0121695,10,-6.13363e-05,-3.213,0.54587,0.108084,-2.58298,0.100166,
2,0,0,1,0,28622,0.0989799,0.0986986,-0.608791,15,0.011982,10,-6.00868e-05,-3.21553,0.697633,0.0845716,-2.00536,0.0986986,
2,0,0,1,0,28622.3,0.0974812,0.0971532,-0.606975,15,0.0117954,10,-5.89695e-05,-3.21683,0.528208,0.111698,-2.63985,0.0971532,
2,0,0,1,0,28622.6,0.0959834,0.0956043,-0.600956,15,0.0116101,10,-5.7454e-05,-3.22116,0.473957,0.124484,-2.92418,0.0956043,
2,0,0,1,0,28622.9,0.0944855,0.0941528,-0.595845,15,0.0114263,10,-5.61005e-05,-3.22487,0.519592,0.113551,-2.64841,0.0941528,
2,0,0,0,0,28623.2,0.0929871,0.0926744,-0.591929,15,0.0112434,10,-5.48567e-05,-3.22773,0.63971,0.0922292,-2.13256,0.0926744,
2,0,0,0,0,28623.5,0.0914889,0.0911496,-0.590981,15,0.0110616,10,-5.38676e-05,-3.22843,0.502281,0.117464,-2.69884,0.0911496,
2,0,0,0,0,28623.8,0.0899907,0.0896491,-0.585227,15,0.010881,10,-5.24651e-05,-3.23268,0.381011,0.154851,-3.52511,0.0896491,
2,0,0,1,0,28624.1,0.0884923,0.0881612,-0.578144,15,0.010702,10,-5.09699e-05,-3.23796,0.446035,0.132277,-2.98909,0.0881612,
2,0,0,1,0,28624.4,0.0869946,0.0866567,-0.576043,15,0.0105245,10,-4.99181e-05,-3.23954,0.460655,0.128078,-2.876,0.0866567,
2,0,0,1,0,28624.7,0.0854962,0.0852092,-0.571358,15,0.0103479,10,-4.86849e-05,-3.24309,0.470234,0.12547,-2.79597,0.0852092,
2,0,0,1,0,28625,0.083998,0.0836525,-0.567219,15,0.0101726,10,-4.74493e-05,-3.24625,0.374488,0.157548,-3.48351,0.0836525,
2,0,0,1,0,28625.3,0.0824998,0.0821711,-0.562659,15,0.00999872,10,-4.62344e-05,-3.24975,0.443348,0.133078,-2.92573,0.0821711,
2,0,0,1,0,28625.6,0.0810014,0.0806747,-0.558282,15,0.00982636,10,-4.50392e-05,-3.25315,0.623747,0.0945896,-2.06516,0.0806747,
2,0,0,1,0,28625.9,0.0795035,0.0791831,-0.555375,15,0.0096549,10,-4.39763e-05,-3.25541,0.557459,0.105837,-2.29119,0.0791831,
2,0,0,1,0,28626.2,0.0780056,0.0776489,-0.552034,15,0.00948437,10,-4.28648e-05,-3.25803,0.483389,0.122055,-2.62556,0.0776489,
2,0,0,0,0,28626.5,0.076507,0.0761682,-0.547152,15,0.00931515,10,-4.16755e-05,-3.26189,0.502457,0.117423,-2.50759,0.0761682,
2,0,0,0,0,28626.8,0.0750088,0.0746581,-0.542141,15,0.00914753,10,-4.04753e-05,-3.26589,0.495245,0.119133,-2.52955,0.0746581,
2,0,0,1,0,28627.1,0.0735103,0.0731679,-0.539577,15,0.00898083,10,-3.94797e-05,-3.26795,0.701706,0.0840808,-1.77032,0.0731679,
2,0,0,1,0,28627.4,0.0720124,0.0716698,-0.536072,15,0.00881507,10,-3.84202e-05,-3.27078,0.560545,0.105255,-2.2077,0.0716698,
2,0,0,1,0,28627.7,0.0705146,0.0702017,-0.533083,15,0.00865036,10,-3.74233e-05,-3.27321,0.507681,0.116215,-2.42002,0.0702017,
2,0,0,1,0,28628,0.0690161,0.06867,-0.528548,15,0.00848685,10,-3.62954e-05,-3.27692,0.554299,0.106441,-2.20133,0.06867,
2,0,0,1,0,28628.3,0.0675179,0.0672077,-0.526323,15,0.00832434,10,-3.5373e-05,-3.27875,0.719465,0.0820054,-1.68401,0.0672077,
2,0,0,1,0,28628.6,0.0660192,0.0657631,-0.525682,15,0.00816272,10,-3.45705e-05,-3.27928,0.637383,0.0925661,-1.89082,0.0657631,
2,0,0,1,0,28628.9,0.0645214,0.0641515,-0.52026,15,0.0080019,10,-3.33755e-05,-3.28378,0.451458,0.130688,-2.64621,0.0641515,
2,0,0,1,0,28629.2,0.0630235,0.0626883,-0.514887,15,0.00784231,10,-3.22774e-05,-3.28829,0.502423,0.117431,-2.36569,0.0626883,
2,0,0,0,0,28629.5,0.0615251,0.0612016,-0.512216,15,0.00768384,10,-3.13484e-05,-3.29055,0.5098,0.115732,-2.31931,0.0612016,
2,0,0,0,0,28629.8,0.0600269,0.0596799,-0.509769,15,0.00752618,10,-3.04229e-05,-3.29263,0.57437,0.102721,-2.04658,0.0596799,
2,0,0,0,0,28630.1,0.0585287,0.0582006,-0.506194,15,0.00736953,10,-2.94608e-05,-3.29568,0.370287,0.159336,-3.14088,0.0582006,
2,0,0,1,0,28630.4,0.0570303,0.056704,-0.503745,15,0.0072137,10,-2.85644e-05,-3.29779,0.581322,0.101493,-1.99566,0.056704,
2,0,0,1,0,28630.7,0.0555325,0.0551766,-0.499322,15,0.00705946,10,-2.75509e-05,-3.30162,0.544893,0.108278,-2.11419,0.0551766,
2,0,0,1,0,28631,0.0540342,0.0537172,-0.496584,15,0.00690576,10,-2.66751e-05,-3.30401,0.571871,0.10317,-1.99589,0.0537172,
2,0,0,1,0,28631.3,0.052536,0.0522284,-0.494257,15,0.00675283,10,-2.58142e-05,-3.30605,0.595265,0.0991156,-1.906,0.0522284,
2,0,0,1,0,28631.6,0.0510378,0.0507608,-0.489997,15,0.00660111,10,-2.48727e-05,-3.30981,0.437356,0.134902,-2.579,0.0507608,
2,0,0,1,0,28631.9,0.0495394,0.0492135,-0.485846,15,0.00645066,10,-2.39102e-05,-3.3135,0.471341,0.125175,-2.3781,0.0492135,
2,0,0,1,0,28632.2,0.0480415,0.047708,-0.483167,15,0.00630111,10,-2.30509e-05,-3.3159,0.679535,0.086824,-1.63543,0.047708,
2,0,0,1,0,28632.5,0.0465436,0.0462378,-0.478935,15,0.00615242,10,-2.21449e-05,-3.31972,0.59776,0.0987019,-1.84888,0.0462378,
2,0,0,0,0,28632.8,0.045045,0.0447218,-0.475467,15,0.00600479,10,-2.12637e-05,-3.32288,0.382721,0.154159,-2.87272,0.0447218,
2,0,0,0,0,28633.1,0.0435468,0.0432128,-0.470934,15,0.00585838,10,-2.03504e-05,-3.32704,0.547704,0.107722,-1.9877,0.04321285,
2,0,0,1,0,28633.4,0.0420483,0.0417471,-0.47051,15,0.00571288,10,-1.96424e-05,-3.32743,0.526379,0.112086,-2.05126,0.0417471,
2,0,0,1,0,28633.7,0.0405504,0.0401695,-0.46826,15,0.00556823,10,-1.88097e-05,-3.32951,0.441525,0.133628,-2.42716,0.0401695,
2,0,0,1,0,28634,0.0390526,0.0386854,-0.462591,15,0.00542459,10,-1.78955e-05,-3.3348,0.372701,0.158304,-2.85129,0.0386854,
2,0,0,1,0,28634.3,0.0375541,0.0372205,-0.457726,15,0.00528218,10,-1.70368e-05,-3.33939,0.455326,0.129578,-2.32262,0.0372205,
2,0,0,1,0,28634.6,0.0360559,0.035719,-0.45542,15,0.00514102,10,-1.62671e-05,-3.34159,0.444847,0.13263,-2.35992,0.035719,
2,0,0,1,0,28634.9,0.0345572,0.0342296,-0.452431,15,0.00500052,10,-1.54865e-05,-3.34445,0.494544,0.119302,-2.10419,0.0342296,
2,0,0,1,0,28635.2,0.0330594,0.0327804,-0.448526,15,0.00486112,10,-1.47029e-05,-3.34821,0.364385,0.161917,-2.83394,0.0327804,
2,0,0,1,0,28635.5,0.0315615,0.0312221,-0.445416,15,0.0047227,10,-1.39068e-05,-3.35123,0.455775,0.12945,-2.24538,0.0312221,
2,0,0,0,0,28635.8,0.0300631,0.0297669,-0.441046,15,0.00458557,10,-1.31286e-05,-3.35552,0.488755,0.120715,-2.08099,0.0297669,
2,0,0,0,0,28636.1,0.0285649,0.0282293,-0.439,15,0.00444921,10,-1.23927e-05,-3.35754,0.537601,0.109747,-1.87851,0.0282293,
2,0,0,0,0,28636.4,0.0270667,0.0267214,-0.436489,15,0.00431364,10,-1.16636e-05,-3.36003,0.490806,0.120211,-2.04559,0.0267214,
2,0,0,1,0,28636.7,0.0255683,0.0252219,-0.433786,15,0.00417895,10,-1.09409e-05,-3.36272,0.515912,0.114361,-1.93653,0.0252219,
2,0,0,1,0,28637,0.0240706,0.0237163,-0.429366,15,0.00404547,10,-1.0183e-05,-3.36717,0.72932,0.0808972,-1.36142,0.0237163,
2,0,0,1,0,28637.3,0.0225722,0.0222582,-0.427202,15,0.00391253,10,-9.50873e-06,-3.36937,1.08419,0.0544186,-0.907607,0.0222582,
2,0,0,1,0,28637.6,0.021074,0.0207386,-0.425302,15,0.00378042,10,-8.82015e-06,-3.3713,0.675929,0.0872873,-1.45176,0.0207386,
2,0,0,1,0,28637.9,0.0195758,0.0192667,-0.423176,15,0.00364897,10,-8.15322e-06,-3.37348,0.587218,0.100474,-1.65858,0.0192667,
2,0,0,1,0,28638.2,0.0180774,0.0177469,-0.419579,15,0.00351815,10,-7.44625e-06,-3.37719,0.852309,0.0692237,-1.13659,0.0177469,
2,0,0,1,0,28638.5,0.0165795,0.0162424,-0.419227,15,0.00338823,10,-6.80927e-06,-3.37755,0.824167,0.0715875,-1.17331,0.0162424,
2,0,0,1,0,28638.8,0.0150817,0.0147435,-0.418413,15,0.00325852,10,-6.16886e-06,-3.37839,0.944502,0.0624668,-1.0192,0.0147435,
2,0,0,0,0,28639.1,0.013583,0.0132606,-0.415841,15,0.00312909,10,-5.5143e-06,-3.38107,0.797294,0.0740003,-1.20174,0.0132606,
2,0,0,0,0,28639.4,0.0120848,0.0117633,-0.414825,15,0.00300032,10,-4.87971e-06,-3.38214,1.16283,0.0507381,-0.822995,0.0117633,
2,0,0,1,0,28639.7,0.0105863,0.0102031,-0.413093,15,0.00287203,10,-4.21482e-06,-3.38395,1.87553,0.0314577,-0.509325,0.0102031,
2,0,0,1,0,28640,0.00908846,0.00878154,-0.413404,15,0.00274381,10,-3.63032e-06,-3.38363,3.12938,0.0188536,-0.304497,0.00878154,
2,0,0,1,0,28640.3,0.0075906,0.00727287,-0.413225,15,0.00261557,10,-3.00533e-06,-3.38381,1.88455,0.0313072,-0.503602,0.00727287,
2,0,0,1,0,28640.6,0.00609208,0.00579959,-0.413994,15,0.00248748,10,-2.401e-06,-3.38301,33.7434,0.00174849,-0.0282116,0.005799585,
2,0,0,1,0,28640.9,0.00459389,0.004262,-0.413824,15,0.00235972,10,-1.76371e-06,-3.38318,-23.8463,-0.00247418,0.0398875,0.004262,
2,0,0,1,0,28641.2,0.00309525,0.00276516,-0.413776,15,0.00223154,10,-1.14416e-06,-3.38323,-0.809673,-0.072869,1.17686,0.002765164,
2,0,0,1,0,28641.5,0.00159739,0.00126502,-0.418065,15,0.00210149,10,-5.28862e-07,-3.37876, , , ,0.00126502,
2,0,0,0,0,28641.8,0.000199195,-0.000178351,-0.415414,15,0.00198112,10,7.40897e-08,-3.38152, , , ,-0.000178351,