File: Figure_codes/Fig_3-5/rawdata_trumpetplot_data/after 10th/20221101_1-115_003_TrumpetPlot_ParaChange_from10_every3_03_CV_C01_21.csv
mode,ox/red,error,control changes,counter inc.,time/s,control/V,Ewe/V,<I>/mA,cycle number,(Q-Qo)/C,I Range,P/W,log(|I|),Tafel slope mV/dec,alpha_eff,dI/d(E-IR),E-IR/V,
2,0,0,1,0,42312.8,2.44065e-05,-0.000382585,-0.104482,22,0.0000000E+000,10,3.99734e-08,-3.98096, , , ,-0.000382585,
2,1,0,0,0,42313,0.00129787,0.0008846,0.129991,22,2.12411e-05,10,1.1499e-07,-3.88609, , , ,0.0008846,
2,1,0,0,0,42313.3,0.00279606,0.00248581,0.17141,22,7.21884e-05,10,4.26093e-07,-3.76596,0.0143226,4.11936,22.1668,0.00248581,
2,1,0,1,0,42313.6,0.00429469,0.00399619,0.182233,22,0.000129417,10,7.28238e-07,-3.73937,0.058204,1.01368,7.16623,0.00399619,
2,1,0,1,0,42313.9,0.00579255,0.00543373,0.191666,22,0.000189866,10,1.04146e-06,-3.71745,0.0647275,0.911514,6.78011,0.00543373,
2,1,0,1,0,42314.2,0.00729041,0.00697011,0.202039,22,0.000253183,10,1.40823e-06,-3.69456,0.0802779,0.734947,5.72592,0.00697011,
2,1,0,1,0,42314.5,0.00878882,0.00845378,0.209483,22,0.000319141,10,1.77093e-06,-3.67885,0.107332,0.549697,4.46976,0.00845378,
2,1,0,1,0,42314.8,0.010287,0.0099585,0.21554,22,0.000387168,10,2.14646e-06,-3.66647,0.124364,0.474412,3.98337,0.0099585,
2,1,0,1,0,42315.1,0.0117852,0.0114579,0.221299,22,0.000457061,10,2.53563e-06,-3.65502,0.131812,0.447608,3.86635,0.0114579,
2,1,0,1,0,42315.4,0.0132836,0.0129406,0.227338,22,0.000528551,10,2.94188e-06,-3.64333,0.137766,0.428262,3.81743,0.0129406,
2,1,0,1,0,42315.7,0.0147815,0.0145097,0.233192,22,0.000601892,10,3.38354e-06,-3.63229,0.13994,0.42161,3.83809,0.0145097,
2,1,0,1,0,42316,0.0162793,0.0159579,0.239055,22,0.000677193,10,3.8148e-06,-3.6215,0.15814,0.373088,3.46918,0.0159579,
2,1,0,0,0,42316.3,0.017778,0.0174853,0.243944,22,0.000753946,10,4.26542e-06,-3.61271,0.166287,0.354808,3.37569,0.0174853,
2,1,0,0,0,42316.6,0.0192761,0.0189486,0.249383,22,0.000832073,10,4.72546e-06,-3.60313,0.181895,0.324363,3.1541,0.0189486,
2,1,0,1,0,42316.9,0.0207747,0.0204165,0.254981,22,0.000911871,10,5.20583e-06,-3.59349,0.154768,0.381217,3.77678,0.0204165,
2,1,0,1,0,42317.2,0.0222725,0.0219634,0.259828,22,0.000993386,10,5.7067e-06,-3.58531,0.179555,0.32859,3.33148,0.0219634,
2,1,0,1,0,42317.5,0.0237704,0.0234529,0.265815,22,0.00107646,10,6.23414e-06,-3.57542,0.184042,0.320578,3.31614,0.0234529,
2,1,0,1,0,42317.8,0.0252689,0.0249548,0.268779,22,0.00116075,10,6.70731e-06,-3.57061,0.177908,0.331633,3.50769,0.0249548,
2,1,0,1,0,42318.1,0.0267671,0.0264351,0.275436,22,0.0012468,10,7.28118e-06,-3.55998,0.158633,0.371927,3.99466,0.0264351,
2,1,0,1,0,42318.4,0.0282657,0.0279414,0.280537,22,0.00133457,10,7.83859e-06,-3.55201,0.188197,0.313502,3.44939,0.0279414,
2,1,0,1,0,42318.7,0.0297635,0.0294129,0.286657,22,0.00142394,10,8.4314e-06,-3.54264,0.206562,0.285628,3.18432,0.0294129,
2,1,0,1,0,42319,0.0312613,0.0309001,0.289359,22,0.00151476,10,8.94122e-06,-3.53856,0.185797,0.317551,3.61452,0.0309001,
2,1,0,0,0,42319.3,0.0327599,0.0324179,0.297471,22,0.00160713,10,9.64338e-06,-3.52656,0.203558,0.289843,3.35493,0.0324179,
2,1,0,0,0,42319.6,0.034258,0.0339343,0.301415,22,0.00170122,10,1.02283e-05,-3.52084,0.198289,0.297546,3.50824,0.0339343,
2,1,0,1,0,42319.9,0.0357567,0.0354353,0.307557,22,0.00179687,10,1.08984e-05,-3.51207,0.230049,0.256467,3.06892,0.0354353,
2,1,0,1,0,42320.2,0.0372545,0.0368866,0.311934,22,0.001894,10,1.15062e-05,-3.50594,0.208425,0.283076,3.45079,0.0368866,
2,1,0,1,0,42320.5,0.0387524,0.0384047,0.316914,22,0.00199241,10,1.2171e-05,-3.49906,0.191487,0.308114,3.83709,0.03840467,
2,1,0,1,0,42320.8,0.0402508,0.0399245,0.322628,22,0.00209268,10,1.28808e-05,-3.4913,0.210179,0.280713,3.5404,0.0399245,
2,1,0,1,0,42321.1,0.041749,0.041442,0.328738,22,0.00219463,10,1.36235e-05,-3.48315,0.256008,0.230462,2.94595,0.04144197,
2,1,0,1,0,42321.4,0.0432472,0.0429711,0.332736,22,0.00229796,10,1.4298e-05,-3.4779,0.216711,0.272252,3.53014,0.0429711,
2,1,0,1,0,42321.7,0.0447456,0.0444219,0.338259,22,0.0024024,10,1.50261e-05,-3.47075,0.237593,0.248324,3.27171,0.0444219,
2,1,0,1,0,42322,0.0462435,0.045905,0.342034,22,0.00250867,10,1.57011e-05,-3.46593,0.205139,0.28761,3.83661,0.045905,
2,1,0,1,0,42322.3,0.0477413,0.0474275,0.34817,22,0.00261657,10,1.65129e-05,-3.45821,0.252614,0.233558,3.17104,0.0474275,
2,1,0,0,0,42322.6,0.0492399,0.0489019,0.353458,22,0.0027259,10,1.72848e-05,-3.45166,0.270563,0.218064,3.00411,0.0489019,
2,1,0,0,0,42322.9,0.0507381,0.0504268,0.356015,22,0.00283638,10,1.79527e-05,-3.44853,0.263489,0.223918,3.11882,0.0504268,
2,1,0,1,0,42323.2,0.0522367,0.0519382,0.361613,22,0.00294839,10,1.87815e-05,-3.44176,0.231966,0.254348,3.58695,0.0519382,
2,1,0,1,0,42323.5,0.0537345,0.053451,0.367676,22,0.00306203,10,1.96526e-05,-3.43454,0.258065,0.228625,3.2605,0.053451,
2,1,0,1,0,42323.8,0.0552323,0.054932,0.370866,22,0.00317691,10,2.03724e-05,-3.43078,0.327538,0.180132,2.60112,0.054932,
2,1,0,1,0,42324.1,0.0567309,0.0564213,0.372917,22,0.00329302,10,2.10404e-05,-3.42839,0.351244,0.167974,2.44994,0.0564213,
2,1,0,1,0,42324.4,0.0582291,0.0579122,0.378952,22,0.00341024,10,2.19459e-05,-3.42142,0.309813,0.190437,2.81524,0.0579122,
2,1,0,1,0,42324.7,0.0597277,0.0593685,0.383912,22,0.00352881,10,2.27923e-05,-3.41577,0.306233,0.192664,2.87902,0.0593685,
2,1,0,1,0,42325,0.0612255,0.0609322,0.387482,22,0.00364887,10,2.36101e-05,-3.41175,0.371923,0.158635,2.3875,0.0609322,
2,1,0,1,0,42325.3,0.0627233,0.062444,0.390607,22,0.00377005,10,2.43911e-05,-3.40826,0.360116,0.163836,2.50368,0.062444,
2,1,0,0,0,42325.6,0.0642218,0.0638664,0.394298,22,0.00389207,10,2.51824e-05,-3.40418,0.333756,0.176776,2.735,0.0638664,
2,1,0,0,0,42325.9,0.06572,0.065405,0.398737,22,0.00401536,10,2.60794e-05,-3.39931,0.356538,0.16548,2.57232,0.065405,
2,1,0,1,0,42326.2,0.0672187,0.0668955,0.402882,22,0.00414026,10,2.6951e-05,-3.39482,0.339153,0.173963,2.72861,0.0668955,
2,1,0,1,0,42326.5,0.0687165,0.0683869,0.407022,22,0.00426588,10,2.7835e-05,-3.39038,0.595449,0.0990849,1.56941,0.0683869,
2,1,0,1,0,42326.8,0.0702144,0.0698893,0.408703,22,0.00439227,10,2.8564e-05,-3.38859,0.421771,0.139886,2.23093,0.0698893,
2,1,0,1,0,42327.1,0.0717128,0.0713709,0.412291,22,0.00451986,10,2.94255e-05,-3.3848,0.370743,0.15914,2.55283,0.0713709,
2,1,0,1,0,42327.4,0.073211,0.072883,0.414718,22,0.00464835,10,3.02259e-05,-3.38225,0.400995,0.147134,2.38776,0.072883,
2,1,0,1,0,42327.7,0.0747092,0.0744206,0.417397,22,0.00477769,10,3.10629e-05,-3.37945,0.512286,0.11517,1.87807,0.0744206,
2,1,0,1,0,42328,0.0762076,0.0758979,0.420139,22,0.00490783,10,3.18877e-05,-3.37661,0.541207,0.109016,1.7965,0.0758979,
2,1,0,1,0,42328.3,0.0777054,0.0773535,0.423566,22,0.00503876,10,3.27643e-05,-3.37308,0.348667,0.169216,2.79939,0.0773535,
2,1,0,1,0,42328.6,0.0792033,0.0788494,0.428595,22,0.00517077,10,3.37945e-05,-3.36795,0.515891,0.114365,1.90575,0.07884942,
2,1,0,0,0,42328.9,0.0807019,0.0803981,0.430216,22,0.00530376,10,3.45885e-05,-3.36631,0.560669,0.105231,1.76429,0.08039812,
2,1,0,0,0,42329.2,0.0822001,0.0818753,0.431401,22,0.00543744,10,3.53211e-05,-3.36512,0.531666,0.110972,1.87435,0.0818753,
2,1,0,1,0,42329.5,0.0836986,0.0833474,0.437384,22,0.00557197,10,3.64548e-05,-3.35914,0.493383,0.119583,2.03978,0.08334735,
2,1,0,1,0,42329.8,0.0851965,0.0848677,0.440806,22,0.00570772,10,3.74102e-05,-3.35575,0.407608,0.144747,2.48674,0.0848677,
2,1,0,1,0,42330.1,0.0866944,0.0863933,0.443695,22,0.00584462,10,3.83323e-05,-3.35292,0.430641,0.137005,2.37611,0.0863933,
2,1,0,1,0,42330.4,0.0881929,0.0878655,0.44748,22,0.00598269,10,3.9318e-05,-3.34923,0.350324,0.168416,2.95174,0.0878655,
2,1,0,1,0,42330.7,0.0896911,0.0893882,0.453197,22,0.00612196,10,4.05105e-05,-3.34371,0.292036,0.20203,3.57302,0.0893882,
2,1,0,1,0,42331,0.0911897,0.0908395,0.459014,22,0.00626297,10,4.16966e-05,-3.33817,0.258753,0.228016,4.07903,0.0908395,
2,1,0,1,0,42331.3,0.0926875,0.0923425,0.465293,22,0.00640575,10,4.29663e-05,-3.33227,0.283209,0.208327,3.77387,0.0923425,
2,1,0,1,0,42331.6,0.0941853,0.0938882,0.4706,22,0.00655031,10,4.41838e-05,-3.32735,0.265939,0.221856,4.08069,0.0938882,
2,1,0,0,0,42331.9,0.0956838,0.0953541,0.475633,22,0.00669644,10,4.53536e-05,-3.32273,0.248303,0.237613,4.43087,0.0953541,
2,1,0,0,0,42332.2,0.097182,0.0968726,0.483637,22,0.0068448,10,4.68511e-05,-3.31548,0.193453,0.304983,5.75786,0.0968726,
2,1,0,1,0,42332.5,0.0986807,0.0983618,0.491264,22,0.00699557,10,4.83216e-05,-3.30869,0.201602,0.292656,5.62641,0.0983618,
2,1,0,1,0,42332.8,0.100179,0.0998588,0.499462,22,0.00714868,10,4.98757e-05,-3.3015,0.214692,0.274813,5.35627,0.0998588,
2,1,0,1,0,42333.1,0.101676,0.101345,0.50614,22,0.00730416,10,5.12948e-05,-3.29573,0.200836,0.293771,5.8247,0.101345,
2,1,0,1,0,42333.4,0.103175,0.102838,0.516719,22,0.00746202,10,5.31386e-05,-3.28675,0.212522,0.277618,5.60228,0.102838,
2,1,0,1,0,42333.7,0.104673,0.104378,0.527403,22,0.00762265,10,5.50494e-05,-3.27786,0.209445,0.281696,5.76628,0.104378,
2,1,0,1,0,42334,0.106171,0.105848,0.534534,22,0.00778596,10,5.65793e-05,-3.27202,0.261629,0.22551,4.68526,0.105848,
2,1,0,1,0,42334.3,0.10767,0.107351,0.539708,22,0.0079514,10,5.7938e-05,-3.26784,0.255574,0.230853,4.87408,0.1073506,
2,1,0,1,0,42334.6,0.109167,0.108774,0.547785,22,0.00811874,10,5.9585e-05,-3.26139,0.255118,0.231265,4.95723,0.108774,
2,1,0,1,0,42334.9,0.110665,0.110319,0.555665,22,0.00828872,10,6.13005e-05,-3.25519,0.270669,0.217979,4.72026,0.1103192,
2,1,0,0,0,42335.2,0.112164,0.111889,0.562933,22,0.00846086,10,6.2986e-05,-3.24954,0.379357,0.155526,3.41028,0.111889,
2,1,0,0,0,42335.5,0.113662,0.113364,0.568687,22,0.00863478,10,6.44686e-05,-3.24513,0.364691,0.161781,3.58543,0.113364,
2,1,0,1,0,42335.8,0.115161,0.114829,0.574227,22,0.00881014,10,6.59378e-05,-3.24092,0.381783,0.154538,3.45746,0.114829,
2,1,0,1,0,42336.1,0.116658,0.11634,0.579677,22,0.0089875,10,6.74395e-05,-3.23681,0.36683,0.160837,3.62788,0.11634,
2,1,0,1,0,42336.4,0.118156,0.117828,0.584749,22,0.00916642,10,6.88998e-05,-3.23303,0.452253,0.130458,2.97535,0.117828,
2,1,0,1,0,42336.7,0.119655,0.119362,0.587944,22,0.00934674,10,7.0178e-05,-3.23066,0.508183,0.1161,2.668,0.119362,
2,1,0,1,0,42337,0.121153,0.120877,0.591624,22,0.00952804,10,7.15137e-05,-3.22795,0.528181,0.111704,2.58363,0.120877,
2,1,0,1,0,42337.3,0.122652,0.122348,0.595702,22,0.00971076,10,7.28832e-05,-3.22497,0.40844,0.144452,3.35667,0.122348,
2,1,0,1,0,42337.6,0.124149,0.123837,0.600652,22,0.0098948,10,7.43827e-05,-3.22138,0.510323,0.115613,2.70996,0.123837,
2,1,0,1,0,42337.9,0.125647,0.125344,0.604579,22,0.01008,10,7.57805e-05,-3.21855,0.734925,0.0802803,1.88931,0.125344,
2,1,0,0,0,42338.2,0.127146,0.126812,0.6052,22,0.0102662,10,7.67466e-05,-3.2181,0.969208,0.0608745,1.44145,0.1268121,
2,1,0,0,0,42338.5,0.128644,0.128323,0.608782,22,0.0104527,10,7.81208e-05,-3.21554,1.04524,0.0564465,1.34136,0.128323,
2,1,0,1,0,42338.8,0.130143,0.129832,0.611437,22,0.0106401,10,7.93838e-05,-3.21365,2.12598,0.027752,0.65989,0.129832,
2,1,0,1,0,42339.1,0.131641,0.131367,0.610285,22,0.0108278,10,8.01712e-05,-3.21447,-1.17203,-0.0503398,-1.19425,0.1313668,
2,1,0,1,0,42339.4,0.133138,0.132811,0.60781,22,0.011015,10,8.07237e-05,-3.21623,-0.675244,-0.0873758,-2.06902,0.132811,
2,1,0,1,0,42339.7,0.134637,0.134334,0.603476,22,0.011201,10,8.1067e-05,-3.21934,-0.377678,-0.156218,-3.67229,0.134334,
2,1,0,1,0,42340,0.136135,0.135771,0.597053,22,0.0113855,10,8.10628e-05,-3.22399,-0.255547,-0.230877,-5.35118,0.135771,
2,1,0,1,0,42340.3,0.137633,0.137304,0.587483,22,0.0115675,10,8.06637e-05,-3.231,-0.175962,-0.3353,-7.63745,0.137304,
2,1,0,1,0,42340.6,0.139132,0.138821,0.575782,22,0.011746,10,7.99309e-05,-3.23974,-0.144264,-0.408972,-9.13108,0.138821,
2,1,0,1,0,42340.9,0.140629,0.140298,0.559076,22,0.0119199,10,7.84373e-05,-3.25253,-0.120447,-0.489842,-10.6458,0.140298,
2,1,0,1,0,42341.2,0.142127,0.141795,0.541614,22,0.0120891,10,7.67983e-05,-3.26631,-0.104613,-0.563983,-11.8543,0.141795,
2,1,0,0,0,42341.5,0.143626,0.143304,0.522139,22,0.012253,10,7.48243e-05,-3.28221,-0.0873881,-0.675149,-13.6929,0.143304,
2,1,0,0,0,42341.8,0.145124,0.144841,0.500605,22,0.0124104,10,7.25082e-05,-3.3005,-0.0756271,-0.780144,-15.2151,0.144841,
2,1,0,1,0,42342.1,0.146623,0.146296,0.475788,22,0.012561,10,6.96061e-05,-3.32259,-0.0738955,-0.798425,-14.8849,0.146296,
2,1,0,1,0,42342.4,0.14812,0.147813,0.45547,22,0.012705,10,6.73246e-05,-3.34154,-0.0767188,-0.769042,-13.6816,0.147813,
2,1,0,1,0,42342.7,0.149618,0.149271,0.435083,22,0.0128426,10,6.49453e-05,-3.36143,-0.077236,-0.763893,-13.0078,0.149271,
2,1,0,1,0,42343,0.151117,0.150802,0.416516,22,0.0129745,10,6.28113e-05,-3.38037,-0.0790757,-0.746121,-12.1378,0.150802,
2,1,0,1,0,42343.3,0.152615,0.152279,0.397755,22,0.0131009,10,6.05696e-05,-3.40038,-0.0863374,-0.683366,-10.7049,0.152279,
2,1,0,1,0,42343.6,0.154114,0.153766,0.385674,22,0.0132224,10,5.93036e-05,-3.41378,-0.102149,-0.577585,-8.71995,0.153766,
2,1,0,1,0,42343.9,0.155612,0.155268,0.373923,22,0.0133403,10,5.80584e-05,-3.42722,-0.114606,-0.514806,-7.5201,0.155268,
2,1,0,1,0,42344.2,0.157109,0.156801,0.362466,22,0.0134548,10,5.68351e-05,-3.44073,-0.121203,-0.486785,-6.90275,0.156801,
2,1,0,0,0,42344.5,0.158608,0.158301,0.353232,22,0.0135664,10,5.5917e-05,-3.45194,-0.151388,-0.389726,-5.41025,0.158301,
2,1,0,0,0,42344.8,0.160106,0.159772,0.345887,22,0.0136752,10,5.5263e-05,-3.46107,-0.172564,-0.341902,-4.64483,0.159772,
2,1,0,1,0,42345.1,0.161605,0.161295,0.339772,22,0.0137821,10,5.48035e-05,-3.46881,-0.209239,-0.281974,-3.74482,0.161295,
2,1,0,1,0,42345.4,0.163102,0.16279,0.335362,22,0.0138873,10,5.45934e-05,-3.47449,-0.230463,-0.256006,-3.34297,0.16279,
2,1,0,1,0,42345.7,0.1646,0.16427,0.330386,22,0.0139909,10,5.42724e-05,-3.48098,-0.280355,-0.210448,-2.70969,0.16427,
2,1,0,1,0,42346,0.166099,0.165798,0.325945,22,0.0140931,10,5.4041e-05,-3.48686,-0.316455,-0.18644,-2.36583,0.165798,
2,1,0,1,0,42346.3,0.167597,0.167274,0.322177,22,0.0141943,10,5.38919e-05,-3.49191,-0.448797,-0.131463,-1.64966,0.167274,
2,1,0,1,0,42346.6,0.169095,0.168777,0.3184,22,0.0142946,10,5.37386e-05,-3.49703,-0.352102,-0.167565,-2.09179,0.168777,
2,1,0,1,0,42346.9,0.170594,0.170282,0.315653,22,0.0143939,10,5.37498e-05,-3.50079,-0.353164,-0.167061,-2.06366,0.170282,
2,1,0,1,0,42347.2,0.172091,0.17175,0.311435,22,0.0144921,10,5.34889e-05,-3.50663,-0.472778,-0.124794,-1.52643,0.17175,
2,1,0,1,0,42347.5,0.173589,0.173266,0.310664,22,0.0145897,10,5.38276e-05,-3.50771,-0.53334,-0.110624,-1.34004,0.173266,
2,1,0,0,0,42347.8,0.175088,0.174757,0.310084,22,0.0146868,10,5.41894e-05,-3.50852,-0.629874,-0.0936695,-1.13008,0.174757,
2,1,0,0,0,42348.1,0.176586,0.17626,0.307498,22,0.0147833,10,5.41997e-05,-3.51216,-0.574427,-0.102711,-1.22894,0.17626,
2,1,0,1,0,42348.4,0.178085,0.177758,0.304164,22,0.0148791,10,5.40675e-05,-3.51689,-0.57981,-0.101758,-1.21367,0.177758,
2,1,0,1,0,42348.7,0.179582,0.179253,0.302505,22,0.0149744,10,5.42251e-05,-3.51927,-0.876367,-0.0673234,-0.798607,0.179253,
2,1,0,1,0,42349,0.18108,0.180792,0.302875,22,0.0150694,10,5.47573e-05,-3.51874,-0.88844,-0.0664086,-0.785302,0.180792,
2,1,0,1,0,42349.3,0.182579,0.18226,0.30181,22,0.0151642,10,5.50077e-05,-3.52027,-0.636371,-0.0927133,-1.08822,0.18226,
2,1,0,1,0,42349.6,0.184077,0.183749,0.299935,22,0.0152586,10,5.51127e-05,-3.52297,-0.768392,-0.0767837,-0.902486,0.1837485,
2,1,0,1,0,42349.9,0.185576,0.185234,0.299133,22,0.0153524,10,5.54094e-05,-3.52414,-0.905946,-0.0651253,-0.761707,0.185234,
2,1,0,1,0,42350.2,0.187074,0.186773,0.299287,22,0.015446,10,5.58987e-05,-3.52391,-1.43098,-0.0412305,-0.479378,0.186773,
2,1,0,1,0,42350.5,0.188571,0.188248,0.297309,22,0.0155395,10,5.59679e-05,-3.52679,-2.13004,-0.027699,-0.321444,0.188248,
2,1,0,0,0,42350.8,0.19007,0.189778,0.297315,22,0.0156327,10,5.64238e-05,-3.52678,-1.12228,-0.0525714,-0.607929,0.189778,
2,1,0,0,0,42351.1,0.191568,0.191181,0.295564,22,0.0157255,10,5.65062e-05,-3.52935,-1.26295,-0.0467161,-0.539775,0.191181,
2,1,0,1,0,42351.4,0.193067,0.192706,0.294464,22,0.0158182,10,5.67451e-05,-3.53097,-10.831,-0.00544733,-0.0626988,0.192706,
2,1,0,1,0,42351.7,0.194564,0.19423,0.294798,22,0.0159107,10,5.72585e-05,-3.53048,-1.32443,-0.0445475,-0.512651,0.19423,
2,1,0,1,0,42352,0.196062,0.19575,0.293695,22,0.016003,10,5.74908e-05,-3.5321,-1.17621,-0.0501612,-0.576655,0.19575,
2,1,0,1,0,42352.3,0.197561,0.197234,0.291826,22,0.0160948,10,5.75579e-05,-3.53488,-2.68128,-0.0220044,-0.25257,0.197234,
2,1,0,1,0,42352.6,0.199059,0.198726,0.293041,22,0.0161866,10,5.82347e-05,-3.53307,-3.27287,-0.018027,-0.205497,0.198726,
2,1,0,1,0,42352.9,0.200557,0.20028,0.291586,22,0.0162784,10,5.8399e-05,-3.53523,-1.81791,-0.0324549,-0.369763,0.20028,
2,1,0,1,0,42353.2,0.202056,0.201752,0.291962,22,0.0163699,10,5.89039e-05,-3.53467,-1.01173,-0.058316,-0.662194,0.201752,
2,1,0,1,0,42353.5,0.203553,0.203249,0.290164,22,0.0164613,10,5.89755e-05,-3.53736,-1.36209,-0.0433156,-0.49203,0.203249,
2,1,0,1,0,42353.8,0.205051,0.204732,0.289065,22,0.0165522,10,5.91809e-05,-3.53901,8.53822,0.0069101,0.0788127,0.204732,
2,1,0,0,0,42354.1,0.20655,0.206231,0.289534,22,0.016643,10,5.97109e-05,-3.5383,-1.52756,-0.0386236,-0.437381,0.206231,
2,1,0,0,0,42354.4,0.208048,0.207721,0.289271,22,0.0167341,10,6.00878e-05,-3.53869,-1.13479,-0.0519922,-0.586156,0.2077211,
2,1,0,1,0,42354.7,0.209547,0.2092,0.288492,22,0.0168248,10,6.03524e-05,-3.53987,-1.78374,-0.0330765,-0.373152,0.2092,
2,1,0,1,0,42355,0.211044,0.210724,0.288555,22,0.0169151,10,6.08055e-05,-3.53977,-5.84962,-0.0100861,-0.113627,0.210724,
2,1,0,1,0,42355.3,0.212542,0.212184,0.287902,22,0.0170054,10,6.10882e-05,-3.54076,-18.9407,-0.00311499,-0.0349285,0.212184,
2,1,0,1,0,42355.6,0.214041,0.213736,0.287109,22,0.0170957,10,6.13654e-05,-3.54195,-1.62532,-0.0363006,-0.407025,0.213736,
2,1,0,1,0,42355.9,0.215539,0.215193,0.287172,22,0.0171858,10,6.17973e-05,-3.54186,-10.7413,-0.0054928,-0.0615214,0.215193,
2,1,0,1,0,42356.2,0.217038,0.216734,0.28536,22,0.0172755,10,6.18473e-05,-3.54461,-5.03303,-0.0117226,-0.131223,0.2167338,
2,1,0,1,0,42356.5,0.218535,0.218217,0.28631,22,0.0173654,10,6.24777e-05,-3.54316,3.11003,0.0189709,0.211911,0.2182169,
2,1,0,1,0,42356.8,0.220033,0.219747,0.286554,22,0.0174552,10,6.29693e-05,-3.54279,-3.12303,-0.0188919,-0.210967,0.219747,
2,1,0,0,0,42357.1,0.221532,0.221231,0.285056,22,0.0175449,10,6.30632e-05,-3.54507,-1.54592,-0.038165,-0.426096,0.2212307,
2,1,0,0,0,42357.4,0.22303,0.222756,0.283351,22,0.0176342,10,6.31181e-05,-3.54767,-2.95614,-0.0199584,-0.221872,0.222756,
2,1,0,1,0,42357.7,0.224529,0.224177,0.284631,22,0.0177234,10,6.38076e-05,-3.54572,-1.24265,-0.0474791,-0.527233,0.224177,
2,1,0,1,0,42358,0.226026,0.225703,0.284506,22,0.0178126,10,6.42138e-05,-3.54591,-7.13752,-0.00826618,-0.0915017,0.2257026,
2,1,0,1,0,42358.3,0.227524,0.227227,0.28348,22,0.0179016,10,6.44143e-05,-3.54748,-0.924595,-0.0638117,-0.70544,0.227227,
2,1,0,1,0,42358.6,0.229023,0.22869,0.282045,22,0.0179904,10,6.45009e-05,-3.54968,-1.11039,-0.0531344,-0.58798,0.2286896,
2,1,0,1,0,42358.9,0.230521,0.230226,0.28244,22,0.0180789,10,6.50251e-05,-3.54907,-1.89395,-0.0311518,-0.344139,0.230226,
2,1,0,1,0,42359.2,0.232019,0.231706,0.281469,22,0.0181675,10,6.52182e-05,-3.55057,-4.4505,-0.0132569,-0.146253,0.231706,
2,1,0,1,0,42359.5,0.233518,0.233219,0.282987,22,0.018256,10,6.5998e-05,-3.54823,-1.49084,-0.039575,-0.434529,0.233219,
2,1,0,1,0,42359.8,0.235015,0.234691,0.28233,22,0.0183444,10,6.62605e-05,-3.54924,-1.18528,-0.0497772,-0.546562,0.2346914,
2,1,0,1,0,42360.1,0.236513,0.236175,0.28199,22,0.0184325,10,6.6599e-05,-3.54977,-2.79323,-0.0211225,-0.23199,0.236175,
2,1,0,0,0,42360.4,0.238012,0.237688,0.281265,22,0.0185206,10,6.68534e-05,-3.55088,4.13898,0.0142547,0.156265,0.2376882,
2,1,0,0,0,42360.7,0.23951,0.239189,0.280972,22,0.0186087,10,6.72054e-05,-3.55134,-9.88459,-0.00596889,-0.0653824,0.239189,
2,1,0,1,0,42361,0.241009,0.240731,0.280366,22,0.0186968,10,6.74928e-05,-3.55227,-4.33122,-0.013622,-0.149072,0.240731,
2,1,0,1,0,42361.2,0.242506,0.242179,0.279682,22,0.0187845,10,6.77332e-05,-3.55334,-1.69457,-0.0348171,-0.380862,0.242179,
2,1,0,1,0,42361.5,0.244004,0.243697,0.27972,22,0.0188723,10,6.81669e-05,-3.55328,2.48662,0.023727,0.258836,0.243697,
2,1,0,1,0,42361.8,0.245503,0.245183,0.280653,22,0.0189601,10,6.88113e-05,-3.55183,-2.96109,-0.0199251,-0.217425,0.245183,
2,1,0,1,0,42362.1,0.247001,0.246733,0.279226,22,0.0190477,10,6.88944e-05,-3.55404,-1.32753,-0.0444436,-0.48312,0.246733,
2,1,0,1,0,42362.4,0.2485,0.24816,0.276606,22,0.0191351,10,6.86426e-05,-3.55814,-5.38517,-0.010956,-0.119014,0.24816,
2,1,0,1,0,42362.7,0.249997,0.249714,0.278313,22,0.0192224,10,6.94987e-05,-3.55547,-2.51765,-0.0234345,-0.254134,0.249714,
2,1,0,1,0,42363,0.251495,0.25118,0.277606,22,0.0193097,10,6.9729e-05,-3.55657,-3.08412,-0.0191303,-0.207776,0.25118,
2,1,0,0,0,42363.3,0.252994,0.252649,0.277048,22,0.0193969,10,6.99961e-05,-3.55744,-1.21525,-0.0485496,-0.523743,0.252649,
2,1,0,0,0,42363.6,0.254492,0.254165,0.27783,22,0.0194839,10,7.06147e-05,-3.55622,-1.83282,-0.0321909,-0.348743,0.254165,
2,1,0,1,0,42363.9,0.255991,0.255671,0.277188,22,0.0195707,10,7.0869e-05,-3.55723,-3.57527,-0.0165022,-0.178829,0.255671,
2,1,0,1,0,42364.2,0.257488,0.257154,0.276478,22,0.0196575,10,7.10975e-05,-3.55834,-2.34636,-0.0251454,-0.271166,0.2571542,
2,1,0,1,0,42364.5,0.258986,0.258663,0.277285,22,0.0197444,10,7.17233e-05,-3.55707,-1.67176,-0.0352922,-0.37986,0.258663,
2,1,0,1,0,42364.8,0.260485,0.260186,0.276551,22,0.0198311,10,7.19546e-05,-3.55823,-1.28961,-0.0457503,-0.49244,0.260186,
2,1,0,1,0,42365.1,0.261983,0.261659,0.275857,22,0.0199175,10,7.21805e-05,-3.55932,-1.82782,-0.0322789,-0.346375,0.261659,
2,1,0,1,0,42365.4,0.263481,0.263129,0.275211,22,0.0200038,10,7.24162e-05,-3.56033,-4.56563,-0.0129226,-0.13844,0.263129,
2,1,0,1,0,42365.7,0.26498,0.264662,0.274056,22,0.0200902,10,7.25322e-05,-3.56216,-36.171,-0.00163114,-0.0174749,0.264662,
2,1,0,1,0,42366,0.266477,0.266145,0.275059,22,0.0201764,10,7.32056e-05,-3.56057,-1.80767,-0.0326386,-0.349784,0.266145,
2,1,0,0,0,42366.3,0.267976,0.267649,0.27345,22,0.0202623,10,7.31887e-05,-3.56312,-2.42911,-0.0242887,-0.259964,0.267649,
2,1,0,0,0,42366.6,0.269474,0.269122,0.274142,22,0.0203483,10,7.37776e-05,-3.56202,18.1801,0.00324531,0.0346301,0.269122,
2,1,0,0,0,42366.9,0.270972,0.270656,0.274588,22,0.0204343,10,7.4319e-05,-3.56132,-1.64926,-0.0357737,-0.381099,0.270656,
2,1,0,1,0,42367.2,0.27247,0.272148,0.273668,22,0.0205202,10,7.44782e-05,-3.56278,-2.08811,-0.0282553,-0.301168,0.272148,
2,1,0,1,0,42367.5,0.273968,0.273609,0.271715,22,0.0206058,10,7.43435e-05,-3.56589,-2.34858,-0.0251215,-0.267432,0.273609,
2,1,0,1,0,42367.8,0.275466,0.275147,0.271649,22,0.0206913,10,7.47434e-05,-3.56599,-1.97333,-0.0298987,-0.318054,0.275147,
2,1,0,1,0,42368.1,0.276965,0.276607,0.271744,22,0.0207768,10,7.51663e-05,-3.56584,-2.20793,-0.0267218,-0.284007,0.276607,
2,1,0,1,0,42368.4,0.278463,0.278133,0.271801,22,0.0208622,10,7.55969e-05,-3.56575,-1.56198,-0.0377725,-0.39965,0.278133,
2,1,0,1,0,42368.7,0.279962,0.279606,0.270862,22,0.0209476,10,7.57346e-05,-3.56725,-1.85793,-0.0317558,-0.336231,0.279606,
2,1,0,1,0,42369,0.281459,0.28113,0.271391,22,0.0210326,10,7.62962e-05,-3.5664,-3.39736,-0.0173664,-0.183817,0.28113,
2,1,0,1,0,42369.3,0.282957,0.28264,0.271922,22,0.0211176,10,7.6856e-05,-3.56556,-2.01172,-0.0293282,-0.309359,0.28264,
2,1,0,0,0,42369.6,0.284456,0.284122,0.270815,22,0.0212027,10,7.69445e-05,-3.56733,-1.43972,-0.0409802,-0.432496,0.284122,
2,1,0,0,0,42369.9,0.285954,0.285634,0.270067,22,0.0212875,10,7.71404e-05,-3.56853,-2.22637,-0.0265006,-0.279246,0.285634,
2,1,0,0,0,42370.2,0.287452,0.287121,0.269278,22,0.021372,10,7.73153e-05,-3.5698,-1.59627,-0.0369613,-0.388878,0.287121,
2,1,0,1,0,42370.5,0.28895,0.288629,0.269614,22,0.0214566,10,7.78185e-05,-3.56926,31.3835,0.00187997,0.019712,0.288629,
2,1,0,1,0,42370.8,0.290448,0.290154,0.268719,22,0.0215411,10,7.79697e-05,-3.5707,-6.77861,-0.00870384,-0.0913373,0.290154,
2,1,0,1,0,42371.1,0.291947,0.291597,0.268705,22,0.0216255,10,7.83536e-05,-3.57072,-1.55492,-0.0379442,-0.398312,0.291597,
2,1,0,1,0,42371.4,0.293445,0.293118,0.267658,22,0.0217097,10,7.84554e-05,-3.57242,-1.05359,-0.0559989,-0.586282,0.293118,
2,1,0,1,0,42371.7,0.294943,0.294586,0.268305,22,0.0217939,10,7.90391e-05,-3.57137,-4.90852,-0.0120199,-0.125699,0.294586,
2,1,0,1,0,42372,0.296442,0.296125,0.268881,22,0.021878,10,7.96224e-05,-3.57044,-3.17226,-0.0185988,-0.193653,0.296125,
2,1,0,1,0,42372.3,0.297939,0.297651,0.266998,22,0.0219621,10,7.94721e-05,-3.57349,-0.939385,-0.062807,-0.65335,0.297651,
2,1,0,1,0,42372.6,0.299437,0.299078,0.265621,22,0.0220458,10,7.94412e-05,-3.57574,-0.0026171,-22.544,-119.773,0.299078,
2,1,0,1,0,42372.8,0.299737,0.299426,0.123769,22,0.022085,10,3.70598e-05,-3.90739,0.00106696,55.2974,193.467,0.299426,
2,1,0,1,0,42373.1,0.29824,0.297958,0.0237295,22,0.0220972,10,7.07039e-06,-4.62471,0.00177681,33.2055,71.9464,0.297958,
2,1,0,0,0,42373.4,0.296741,0.296404,0.00442786,22,0.0220974,10,1.31244e-06,-5.35381,0.00796226,7.40996,11.328,0.296404,
2,1,0,0,0,42373.7,0.295243,0.294909,-0.00808813,22,0.0220929,10,-2.38526e-06,-5.09215,-0.0151295,-3.89968,7.3324,0.294909,
2,0,0,1,0,42374,0.293744,0.293401,-0.0179673,22,0.0220855,10,-5.27162e-06,-4.74552,-0.00478775,-12.3231,5.89636,0.293401,
2,0,0,1,0,42374.3,0.292246,0.291929,-0.0258264,22,0.0220755,10,-7.53948e-06,-4.58794,-0.010924,-5.40093,4.69636,0.2919291,
2,0,0,1,0,42374.6,0.290749,0.290415,-0.0317914,22,0.0220633,10,-9.23271e-06,-4.49769,-0.0158835,-3.71454,4.32132,0.290415,
2,0,0,1,0,42374.9,0.28925,0.28891,-0.0377902,22,0.0220492,10,-1.0918e-05,-4.42262,-0.0230625,-2.55826,3.68941,0.28891,
2,0,0,1,0,42375.2,0.287752,0.287437,-0.042375,22,0.0220335,10,-1.21801e-05,-4.37289,-0.0266263,-2.21586,3.662,0.287437,
2,0,0,1,0,42375.5,0.286253,0.285931,-0.0464051,22,0.0220163,10,-1.32686e-05,-4.33343,-0.0338797,-1.74146,3.18796,0.285931,
2,0,0,1,0,42375.8,0.284755,0.284458,-0.0511741,22,0.0219975,10,-1.45569e-05,-4.29095,-0.0381627,-1.54601,3.07256,0.284458,
2,0,0,1,0,42376.1,0.283257,0.282909,-0.0565805,22,0.0219773,10,-1.60071e-05,-4.24733,-0.0479006,-1.23172,2.72195,0.282909,
2,0,0,0,0,42376.4,0.281759,0.281462,-0.0607934,22,0.0219559,10,-1.7111e-05,-4.21614,-0.0540353,-1.09188,2.55775,0.281462,
2,0,0,0,0,42376.7,0.280261,0.279914,-0.0624424,22,0.0219333,10,-1.74785e-05,-4.20452,-0.0682808,-0.864079,2.16354,0.279914,
2,0,0,0,0,42377,0.278763,0.27843,-0.0685359,22,0.0219096,10,-1.90824e-05,-4.16408,-0.059649,-0.98912,2.59747,0.2784301,
2,0,0,1,0,42377.3,0.277264,0.276901,-0.0721862,22,0.0218847,10,-1.99884e-05,-4.14155,-0.0666304,-0.885482,2.45006,0.276901,
2,0,0,1,0,42377.6,0.275766,0.275461,-0.0750942,22,0.0218587,10,-2.06855e-05,-4.12439,-0.103177,-0.571835,1.64603,0.275461,
2,0,0,1,0,42377.9,0.274269,0.273941,-0.077256,22,0.0218317,10,-2.11636e-05,-4.11207,-0.0819494,-0.719957,2.18784,0.273941,
2,0,0,1,0,42378.2,0.27277,0.272413,-0.081379,22,0.021804,10,-2.21687e-05,-4.08949,-0.0812935,-0.725765,2.31769,0.272413,
2,0,0,1,0,42378.5,0.271272,0.27094,-0.0846107,22,0.0217752,10,-2.29245e-05,-4.07257,-0.0870093,-0.678089,2.22885,0.27094,
2,0,0,1,0,42378.8,0.269773,0.269468,-0.0877447,22,0.0217454,10,-2.36444e-05,-4.05678,-0.119936,-0.491928,1.66935,0.269468,
2,0,0,1,0,42379.1,0.268275,0.267951,-0.0900378,22,0.0217148,10,-2.41257e-05,-4.04558,-0.119524,-0.493626,1.7212,0.267951,
2,0,0,1,0,42379.4,0.266778,0.266417,-0.0928302,22,0.0216835,10,-2.47316e-05,-4.03231,-0.115971,-0.508746,1.82212,0.266417,
2,0,0,0,0,42379.7,0.265279,0.264957,-0.0955307,22,0.0216513,10,-2.53115e-05,-4.01986,-0.116312,-0.507254,1.88525,0.264957,
2,0,0,0,0,42380,0.263781,0.26347,-0.0980984,22,0.0216183,10,-2.5846e-05,-4.00834,-0.118964,-0.495949,1.9003,0.26347,
2,0,0,1,0,42380.3,0.262282,0.261927,-0.100003,22,0.0215846,10,-2.61933e-05,-3.99999,-0.158314,-0.372677,1.46564,0.261927,
2,0,0,1,0,42380.6,0.260784,0.260473,-0.10113,22,0.0215502,10,-2.63417e-05,-3.99512,-0.124632,-0.473395,1.9164,0.260473,
2,0,0,1,0,42380.9,0.259286,0.258949,-0.105438,22,0.0215151,10,-2.73031e-05,-3.977,-0.143021,-0.412526,1.6908,0.258949,
2,0,0,1,0,42381.2,0.257788,0.257482,-0.108625,22,0.0214791,10,-2.7969e-05,-3.96407,-0.168787,-0.349552,1.46768,0.257482,
2,0,0,1,0,42381.5,0.25629,0.255981,-0.109463,22,0.0214424,10,-2.80205e-05,-3.96073,-0.201784,-0.292392,1.25574,0.255981,
2,0,0,1,0,42381.8,0.254791,0.25453,-0.110915,22,0.0214052,10,-2.82313e-05,-3.95501,-0.168736,-0.349659,1.52675,0.25453,
2,0,0,1,0,42382.1,0.253293,0.252995,-0.114054,22,0.0213675,10,-2.88551e-05,-3.94289,-0.16357,-0.360702,1.61084,0.252995,
2,0,0,1,0,42382.4,0.251795,0.251462,-0.11621,22,0.0213289,10,-2.92225e-05,-3.93475,-0.206601,-0.285575,1.2913,0.251462,
2,0,0,0,0,42382.7,0.250297,0.249968,-0.118039,22,0.0212897,10,-2.9506e-05,-3.92797,-0.260509,-0.22648,1.03897,0.249968,
2,0,0,0,0,42383,0.248799,0.248474,-0.120658,22,0.02125,10,-2.99804e-05,-3.91844,-0.176685,-0.333928,1.56829,0.248474,
2,0,0,0,0,42383.3,0.247301,0.246996,-0.121782,22,0.0212098,10,-3.00798e-05,-3.91442,-0.177118,-0.333111,1.59362,0.246996,
2,0,0,1,0,42383.6,0.245802,0.245448,-0.12498,22,0.0211688,10,-3.06761e-05,-3.90316,-0.212832,-0.277214,1.34678,0.245448,
2,0,0,1,0,42383.9,0.244304,0.243985,-0.127083,22,0.021127,10,-3.10062e-05,-3.89591,-0.237049,-0.248894,1.22649,0.243985,
2,0,0,1,0,42384.2,0.242806,0.242487,-0.129298,22,0.0210847,10,-3.1353e-05,-3.88841,-0.312282,-0.188932,0.951135,0.242487,
2,0,0,1,0,42384.5,0.241308,0.240997,-0.130412,22,0.0210422,10,-3.14289e-05,-3.88468,-0.246671,-0.239185,1.22284,0.240997,
2,0,0,1,0,42384.8,0.23981,0.239481,-0.132263,22,0.0209988,10,-3.16745e-05,-3.87856,-0.18488,-0.319126,1.64191,0.239481,
2,0,0,1,0,42385.1,0.238311,0.237992,-0.133867,22,0.0209548,10,-3.18592e-05,-3.87333,-0.266532,-0.221361,1.15885,0.237992,
2,0,0,1,0,42385.4,0.236813,0.236487,-0.135681,22,0.0209104,10,-3.20869e-05,-3.86748,-0.279186,-0.211329,1.12324,0.236487,
2,0,0,1,0,42385.7,0.235316,0.23497,-0.137289,22,0.0208655,10,-3.22587e-05,-3.86237,-0.241438,-0.244369,1.32085,0.23497,
2,0,0,0,0,42386,0.233817,0.233485,-0.140423,22,0.02082,10,-3.27865e-05,-3.85256,-0.294502,-0.200338,1.0949,0.233485,
2,0,0,0,0,42386.3,0.232319,0.231994,-0.142111,22,0.0207739,10,-3.29689e-05,-3.84737,-0.296479,-0.199002,1.0985,0.231994,
2,0,0,1,0,42386.6,0.23082,0.230524,-0.143831,22,0.0207273,10,-3.31564e-05,-3.84215,-0.329837,-0.178876,0.998271,0.230524,
2,0,0,1,0,42386.9,0.229322,0.22902,-0.144773,22,0.0206802,10,-3.31561e-05,-3.83931,-0.256444,-0.230069,1.3016,0.22902,
2,0,0,1,0,42387.2,0.227825,0.227529,-0.147127,22,0.0206326,10,-3.34756e-05,-3.83231,-0.321971,-0.183246,1.05314,0.227529,
2,0,0,1,0,42387.5,0.226326,0.226005,-0.148058,22,0.0205843,10,-3.34618e-05,-3.82957,-0.338754,-0.174168,1.01519,0.226005,
2,0,0,1,0,42387.8,0.224828,0.224516,-0.150552,22,0.0205354,10,-3.38013e-05,-3.82231,-0.372357,-0.15845,0.928808,0.224516,
2,0,0,1,0,42388.1,0.223329,0.223001,-0.152354,22,0.0204861,10,-3.3975e-05,-3.81715,-0.381248,-0.154755,0.921011,0.223001,
2,0,0,1,0,42388.4,0.221831,0.22152,-0.154348,22,0.0204365,10,-3.41912e-05,-3.8115,-0.290678,-0.202974,1.21767,0.22152,
2,0,0,1,0,42388.7,0.220333,0.220017,-0.156354,22,0.0203861,10,-3.44006e-05,-3.80589,-0.250864,-0.235187,1.42543,0.220017,
2,0,0,0,0,42389,0.218835,0.218504,-0.157391,22,0.020335,10,-3.43906e-05,-3.80302,-0.382963,-0.154062,0.944758,0.2185044,
2,0,0,0,0,42389.3,0.217337,0.217004,-0.158975,22,0.0202836,10,-3.44982e-05,-3.79867,-0.373954,-0.157773,0.982473,0.217004,
2,0,0,0,0,42389.6,0.215839,0.215499,-0.160429,22,0.0202318,10,-3.45723e-05,-3.79472,-0.359625,-0.16406,1.03118,0.215499,
2,0,0,1,0,42389.9,0.21434,0.213998,-0.161862,22,0.0201794,10,-3.4638e-05,-3.79086,-0.28301,-0.208473,1.31382,0.213998,
2,0,0,1,0,42390.2,0.212842,0.212517,-0.164018,22,0.0201264,10,-3.48566e-05,-3.78511,-0.322273,-0.183074,1.17354,0.2125175,
2,0,0,1,0,42390.5,0.211344,0.21104,-0.165234,22,0.0200728,10,-3.48709e-05,-3.7819,-0.37903,-0.155661,1.00828,0.21104,
2,0,0,1,0,42390.8,0.209846,0.209539,-0.165945,22,0.0200189,10,-3.47718e-05,-3.78004,-0.335803,-0.175698,1.14674,0.209539,
2,0,0,1,0,42391.1,0.208348,0.208024,-0.168807,22,0.0199645,10,-3.5116e-05,-3.77261,-0.32719,-0.180323,1.19209,0.2080244,
2,0,0,1,0,42391.4,0.206849,0.206509,-0.173864,22,0.0199092,10,-3.59044e-05,-3.75979,-0.311409,-0.189462,1.26254,0.206509,
2,0,0,1,0,42391.7,0.205351,0.204989,-0.172625,22,0.0198533,10,-3.53861e-05,-3.7629,-0.564771,-0.104467,0.699577,0.204989,
2,0,0,1,0,42392,0.203854,0.20352,-0.17383,22,0.0197971,10,-3.5378e-05,-3.75987,-0.372899,-0.15822,1.07926,0.20352,
2,0,0,0,0,42392.3,0.202355,0.20205,-0.176192,22,0.0197406,10,-3.55996e-05,-3.75401,-0.378867,-0.155728,1.0742,0.20205,
2,0,0,0,0,42392.6,0.200857,0.200523,-0.178562,22,0.0196833,10,-3.58059e-05,-3.74821,-0.352011,-0.167609,1.16535,0.200523,
2,0,0,1,0,42392.9,0.199358,0.199017,-0.1792,22,0.0196253,10,-3.56638e-05,-3.74666,-0.369561,-0.159649,1.1176,0.199017,
2,0,0,1,0,42393.2,0.19786,0.197509,-0.182105,22,0.0195669,10,-3.59674e-05,-3.73968,-0.289834,-0.203565,1.44647,0.197509,
2,0,0,1,0,42393.5,0.196363,0.196008,-0.184135,22,0.0195081,10,-3.6092e-05,-3.73486,-0.267837,-0.220283,1.5797,0.196008,
2,0,0,1,0,42393.8,0.194864,0.194508,-0.187066,22,0.0194485,10,-3.6386e-05,-3.728,-0.234686,-0.2514,1.81544,0.194508,
2,0,0,1,0,42394.1,0.193366,0.193031,-0.187467,22,0.0193881,10,-3.6187e-05,-3.72708,-0.264395,-0.223151,1.63241,0.193031,
2,0,0,1,0,42394.4,0.191867,0.191518,-0.189971,22,0.0193271,10,-3.63827e-05,-3.72131,-0.449632,-0.131218,0.974429,0.191518,
2,0,0,1,0,42394.7,0.190369,0.190036,-0.192391,22,0.0192657,10,-3.65611e-05,-3.71582,-0.325688,-0.181155,1.35823,0.190036,
2,0,0,1,0,42395,0.188871,0.188543,-0.194828,22,0.0192036,10,-3.67334e-05,-3.71035,-0.308768,-0.191082,1.44788,0.188543,
2,0,0,0,0,42395.3,0.187373,0.187028,-0.196041,22,0.0191408,10,-3.66653e-05,-3.70765,-0.291241,-0.202582,1.55258,0.187028,
2,0,0,0,0,42395.6,0.185875,0.185535,-0.198306,22,0.0190774,10,-3.67927e-05,-3.70266,-0.303599,-0.194335,1.49857,0.1855353,
2,0,0,0,0,42395.9,0.184377,0.184092,-0.199661,22,0.0190134,10,-3.6756e-05,-3.69971,-0.308261,-0.191396,1.49929,0.1840921,
2,0,0,1,0,42396.2,0.182878,0.182548,-0.204315,22,0.0189487,10,-3.72972e-05,-3.6897,-0.271803,-0.217069,1.72084,0.1825477,
2,0,0,1,0,42396.5,0.181381,0.181054,-0.205706,22,0.0188832,10,-3.72439e-05,-3.68675,-0.29756,-0.198279,1.59791,0.181054,
2,0,0,1,0,42396.8,0.179882,0.179556,-0.207863,22,0.0188169,10,-3.73229e-05,-3.68222,-0.299027,-0.197306,1.59627,0.179556,
2,0,0,1,0,42397.1,0.178384,0.178029,-0.210729,22,0.0187498,10,-3.75158e-05,-3.67628,-0.302126,-0.195283,1.60585,0.178029,
2,0,0,1,0,42397.4,0.176886,0.176503,-0.213578,22,0.0186822,10,-3.76971e-05,-3.67044,-0.299476,-0.197011,1.64504,0.176503,
2,0,0,1,0,42397.7,0.175387,0.175013,-0.216989,22,0.0186135,10,-3.79759e-05,-3.66356,-0.240466,-0.245357,2.07189,0.175013,
2,0,0,1,0,42398,0.173889,0.173529,-0.219137,22,0.018544,10,-3.80265e-05,-3.65929,-0.294081,-0.200625,1.71775,0.173529,
2,0,0,1,0,42398.3,0.172392,0.172066,-0.223024,22,0.0184736,10,-3.83747e-05,-3.65165,-0.247613,-0.238275,2.06641,0.172066,
2,0,0,0,0,42398.6,0.170893,0.170558,-0.224991,22,0.0184025,10,-3.83741e-05,-3.64783,-0.228146,-0.258607,2.27889,0.170558,
2,0,0,0,0,42398.9,0.169395,0.169072,-0.229735,22,0.0183302,10,-3.88419e-05,-3.63877,-0.181857,-0.324431,2.88707,0.169072,
2,0,0,1,0,42399.2,0.167896,0.167528,-0.232911,22,0.0182565,10,-3.90192e-05,-3.63281,-0.189898,-0.310694,2.82186,0.167528,
2,0,0,1,0,42399.5,0.166398,0.166078,-0.235783,22,0.0181819,10,-3.91584e-05,-3.62749,-0.224415,-0.262906,2.43588,0.166078,
2,0,0,1,0,42399.8,0.164901,0.164575,-0.2399,22,0.0181063,10,-3.94816e-05,-3.61997,-0.179086,-0.329451,3.10608,0.164575,
2,0,0,1,0,42400.1,0.163402,0.163054,-0.244742,22,0.0180293,10,-3.99061e-05,-3.61129,-0.189727,-0.310974,2.96661,0.163054,
2,0,0,1,0,42400.4,0.161904,0.161554,-0.250114,22,0.0179509,10,-4.0407e-05,-3.60186,-0.191115,-0.308714,3.00791,0.1615542,
2,0,0,1,0,42400.7,0.160405,0.160141,-0.254615,22,0.0178712,10,-4.07744e-05,-3.59412,-0.185566,-0.317946,3.143,0.160141,
2,0,0,1,0,42401,0.158907,0.15856,-0.25841,22,0.01779,10,-4.09733e-05,-3.58769,-0.15211,-0.387877,3.92744,0.15856,
2,0,0,1,0,42401.3,0.157409,0.157103,-0.265411,22,0.0177072,10,-4.16969e-05,-3.57608,-0.13944,-0.423122,4.3906,0.157103,
2,0,0,0,0,42401.6,0.155911,0.155576,-0.271532,22,0.0176225,10,-4.22438e-05,-3.56618,-0.153579,-0.384167,4.07815,0.155576,
2,0,0,0,0,42401.9,0.154413,0.15408,-0.277916,22,0.0175356,10,-4.28214e-05,-3.55609,-0.14558,-0.405277,4.39445,0.15408,
2,0,0,0,0,42402.2,0.152915,0.152555,-0.285528,22,0.0174468,10,-4.35586e-05,-3.54435,-0.124482,-0.473964,5.30206,0.152555,
2,0,0,1,0,42402.5,0.151416,0.15108,-0.293857,22,0.0173558,10,-4.4396e-05,-3.53186,-0.115321,-0.511617,5.88739,0.15108,
2,0,0,1,0,42402.8,0.149919,0.149586,-0.303855,22,0.0172618,10,-4.54524e-05,-3.51733,-0.102227,-0.577147,6.83992,0.149586,
2,0,0,1,0,42403.1,0.14842,0.148104,-0.314767,22,0.0171648,10,-4.66183e-05,-3.50201,-0.101987,-0.578504,7.1103,0.148104,
2,0,0,1,0,42403.4,0.146922,0.146581,-0.324175,22,0.0170645,10,-4.7518e-05,-3.48922,-0.0928452,-0.635467,8.09399,0.146581,
2,0,0,1,0,42403.7,0.145424,0.145098,-0.338577,22,0.0169608,10,-4.91268e-05,-3.47034,-0.0881922,-0.668994,8.83778,0.145098,
2,0,0,1,0,42404,0.143925,0.143592,-0.352342,22,0.0168529,10,-5.05934e-05,-3.45304,-0.0762744,-0.773523,10.6605,0.143592,
2,0,0,1,0,42404.3,0.142427,0.142094,-0.368557,22,0.0167405,10,-5.23696e-05,-3.4335,-0.0788223,-0.748519,10.7721,0.142094,
2,0,0,1,0,42404.6,0.14093,0.140559,-0.384613,22,0.0166233,10,-5.40606e-05,-3.41498,-0.0811002,-0.727495,10.9295,0.140559,
2,0,0,0,0,42404.9,0.139431,0.139105,-0.399753,22,0.0165013,10,-5.56078e-05,-3.39821,-0.0778227,-0.758134,11.9023,0.139105,
2,0,0,0,0,42405.2,0.137933,0.137624,-0.419489,22,0.016374,10,-5.77317e-05,-3.37728,-0.0795978,-0.741226,12.1217,0.137624,
2,0,0,1,0,42405.5,0.136434,0.136082,-0.438957,22,0.016241,10,-5.97341e-05,-3.35758,-0.0782031,-0.754446,12.8859,0.136082,
2,0,0,1,0,42405.8,0.134936,0.134619,-0.457475,22,0.0161022,10,-6.15848e-05,-3.33963,-0.0844708,-0.698466,12.4399,0.134619,
2,0,0,1,0,42406.1,0.133439,0.133122,-0.476325,22,0.0159576,10,-6.34093e-05,-3.3221,-0.0845355,-0.697932,12.9864,0.133122,
2,0,0,1,0,42406.4,0.13194,0.131624,-0.495514,22,0.0158076,10,-6.52216e-05,-3.30494,-0.0902805,-0.653518,12.6455,0.131624,
2,0,0,1,0,42406.7,0.130442,0.13013,-0.513055,22,0.0156518,10,-6.67639e-05,-3.28984,-0.100821,-0.585197,11.6962,0.13013,
2,0,0,1,0,42407,0.128943,0.128596,-0.530702,22,0.0154905,10,-6.82463e-05,-3.27515,-0.118379,-0.4984,10.2725,0.128596,
2,0,0,1,0,42407.3,0.127445,0.127113,-0.547016,22,0.0153243,10,-6.95329e-05,-3.262,-0.125496,-0.470136,9.99774,0.127113,
2,0,0,1,0,42407.6,0.125947,0.125619,-0.559887,22,0.0151541,10,-7.03327e-05,-3.2519,-0.140736,-0.419226,9.15205,0.125619,
2,0,0,0,0,42407.9,0.124449,0.124135,-0.574179,22,0.0149794,10,-7.12754e-05,-3.24095,-0.150494,-0.392042,8.74465,0.124135,
2,0,0,0,0,42408.2,0.122951,0.122587,-0.585068,22,0.014801,10,-7.1722e-05,-3.23279,-0.188986,-0.312193,7.09939,0.122587,
2,0,0,0,0,42408.5,0.121453,0.12115,-0.594559,22,0.0146194,10,-7.20306e-05,-3.2258,-0.231427,-0.25494,5.88845,0.12115,
2,0,0,1,0,42408.8,0.119954,0.119596,-0.60032,22,0.0144356,10,-7.17958e-05,-3.22162,-0.32333,-0.182476,4.27344,0.119596,
2,0,0,1,0,42409.1,0.118456,0.118138,-0.605673,22,0.0142499,10,-7.1553e-05,-3.21776,-0.390646,-0.151032,3.56841,0.118138,
2,0,0,1,0,42409.4,0.116958,0.116615,-0.612084,22,0.0140626,10,-7.13784e-05,-3.21319,-0.660328,-0.0893495,2.1275,0.116615,
2,0,0,1,0,42409.7,0.11546,0.115169,-0.615048,22,0.0138744,10,-7.08344e-05,-3.21109,-1.36448,-0.0432399,1.03304,0.115169,
2,0,0,1,0,42410,0.113962,0.113626,-0.611656,22,0.0136858,10,-6.95e-05,-3.21349,-12.7688,-0.00462063,0.110597,0.113626,
2,0,0,1,0,42410.3,0.112463,0.112111,-0.615132,22,0.0134972,10,-6.89634e-05,-3.21103,2.01167,0.0293289,-0.702575,0.112111,
2,0,0,1,0,42410.6,0.110965,0.110624,-0.61398,22,0.0133085,10,-6.79209e-05,-3.21185,3.87687,0.0152185,-0.36428,0.110624,
2,0,0,1,0,42410.9,0.109468,0.109167,-0.612897,22,0.01312,10,-6.69084e-05,-3.21261,0.885489,0.0666298,-1.59021,0.109167,
2,0,0,0,0,42411.2,0.107969,0.107675,-0.610868,22,0.0129318,10,-6.57752e-05,-3.21405,0.890489,0.0662557,-1.58091,0.107675,
2,0,0,0,0,42411.5,0.106471,0.106076,-0.60844,22,0.0127447,10,-6.45408e-05,-3.21578,1.15471,0.0510952,-1.21891,0.106076,
2,0,0,1,0,42411.8,0.104972,0.104674,-0.608358,22,0.0125578,10,-6.36792e-05,-3.21584,1.04571,0.0564212,-1.33645,0.104674,
2,0,0,1,0,42412.1,0.103474,0.103113,-0.604496,22,0.0123713,10,-6.23315e-05,-3.21861,0.730933,0.0807187,-1.90289,0.103113,
2,0,0,1,0,42412.4,0.101977,0.101616,-0.602428,22,0.0121859,10,-6.12164e-05,-3.2201,0.814209,0.072463,-1.70393,0.101616,
2,0,0,1,0,42412.7,0.100478,0.100163,-0.599309,22,0.0120015,10,-6.00286e-05,-3.22235,0.709194,0.083193,-1.94358,0.100163,
2,0,0,1,0,42413,0.0989798,0.0986445,-0.597054,22,0.0118177,10,-5.88961e-05,-3.22399,0.712352,0.0828242,-1.92569,0.0986445,
2,0,0,1,0,42413.3,0.0974812,0.0971614,-0.594345,22,0.0116346,10,-5.77474e-05,-3.22596,0.630744,0.0935403,-2.16715,0.0971614,
2,0,0,1,0,42413.6,0.0959834,0.0956498,-0.590091,22,0.0114527,10,-5.64421e-05,-3.22908,0.545153,0.108227,-2.49591,0.0956498,
2,0,0,1,0,42413.9,0.0944855,0.0941487,-0.584322,22,0.0112719,10,-5.50132e-05,-3.23335,0.613626,0.0961497,-2.20323,0.0941487,
2,0,0,0,0,42414.2,0.0929871,0.0927084,-0.582792,22,0.011092,10,-5.40297e-05,-3.23449,0.679324,0.086851,-1.97378,0.0927084,
2,0,0,0,0,42414.5,0.0914889,0.0911718,-0.581431,22,0.010913,10,-5.30101e-05,-3.2355,0.621683,0.0949036,-2.14454,0.0911718,
2,0,0,0,0,42414.8,0.0899907,0.0896618,-0.57632,22,0.0107351,10,-5.16739e-05,-3.23934,0.4322,0.136511,-3.06231,0.0896618,
2,0,0,1,0,42415.1,0.0884923,0.0881907,-0.569869,22,0.0105585,10,-5.02571e-05,-3.24423,0.496109,0.118925,-2.65578,0.08819069,
2,0,0,1,0,42415.4,0.0869946,0.0866941,-0.568573,22,0.0103833,10,-4.92919e-05,-3.24521,0.544038,0.108448,-2.40405,0.0866941,
2,0,0,1,0,42415.7,0.0854961,0.0851201,-0.563234,22,0.0102089,10,-4.79425e-05,-3.24931,0.488689,0.120731,-2.65786,0.0851201,
2,0,0,1,0,42416,0.083998,0.0836769,-0.559728,22,0.0100358,10,-4.68363e-05,-3.25202,0.374739,0.157443,-3.43767,0.0836769,
2,0,0,1,0,42416.3,0.0824998,0.0821436,-0.555972,22,0.00986391,10,-4.56695e-05,-3.25495,0.476064,0.123933,-2.68804,0.0821436,
2,0,0,1,0,42416.6,0.0810014,0.0806747,-0.552288,22,0.00969351,10,-4.45557e-05,-3.25783,0.501942,0.117544,-2.53652,0.0806747,
2,0,0,1,0,42416.9,0.0795035,0.0791575,-0.548813,22,0.00952405,10,-4.34427e-05,-3.26058,0.548912,0.107485,-2.29964,0.0791575,
2,0,0,1,0,42417.2,0.0780056,0.077631,-0.545411,22,0.00935565,10,-4.23408e-05,-3.26328,0.479099,0.123148,-2.61833,0.077631,
2,0,0,0,0,42417.5,0.076507,0.0761703,-0.541491,22,0.00918828,10,-4.12455e-05,-3.26641,0.456214,0.129325,-2.72992,0.0761703,
2,0,0,0,0,42417.8,0.0750088,0.0746698,-0.536866,22,0.00902259,10,-4.00877e-05,-3.27013,0.431608,0.136698,-2.87051,0.0746698,
2,0,0,1,0,42418.1,0.0735103,0.07315,-0.533592,22,0.00885771,10,-3.90322e-05,-3.27279,0.761342,0.0774947,-1.61314,0.07315,
2,0,0,1,0,42418.4,0.0720124,0.0716762,-0.529735,22,0.00869384,10,-3.79694e-05,-3.27594,0.570732,0.103376,-2.14176,0.0716762,
2,0,0,1,0,42418.7,0.0705146,0.0701803,-0.525508,22,0.00853108,10,-3.68803e-05,-3.27942,0.42617,0.138443,-2.84846,0.0701803,
2,0,0,1,0,42419,0.069016,0.0687464,-0.521587,22,0.0083695,10,-3.58572e-05,-3.28267,0.560556,0.105253,-2.1511,0.0687464,
2,0,0,1,0,42419.3,0.0675179,0.067213,-0.519054,22,0.00820902,10,-3.48872e-05,-3.28479,0.599567,0.0984043,-1.99602,0.067213,
2,0,0,1,0,42419.5,0.0660192,0.0656528,-0.519861,22,0.00804925,10,-3.41304e-05,-3.28411,0.54872,0.107523,-2.1639,0.0656528,
2,0,0,1,0,42419.8,0.0645214,0.064213,-0.514215,22,0.00789033,10,-3.30193e-05,-3.28886,0.515792,0.114387,-2.28541,0.064213,
2,0,0,1,0,42420.1,0.0630235,0.0626864,-0.509111,22,0.0077326,10,-3.19143e-05,-3.29319,0.511759,0.115289,-2.29406,0.0626864,
2,0,0,0,0,42420.4,0.0615251,0.0612154,-0.505951,22,0.00757604,10,-3.0972e-05,-3.29589,0.533379,0.110615,-2.18856,0.0612154,
2,0,0,0,0,42420.7,0.0600269,0.0596969,-0.503195,22,0.00742029,10,-3.00391e-05,-3.29826,0.565549,0.104323,-2.04947,0.0596969,
2,0,0,0,0,42421,0.0585287,0.0581741,-0.500204,22,0.00726554,10,-2.90989e-05,-3.30085,0.442371,0.133372,-2.60218,0.0581741,
2,0,0,1,0,42421.3,0.0570303,0.0567244,-0.497062,22,0.00711165,10,-2.81955e-05,-3.30359,0.60535,0.0974642,-1.88904,0.0567244,
2,0,0,1,0,42421.6,0.0555325,0.0551996,-0.492996,22,0.00695922,10,-2.72132e-05,-3.30716,0.48897,0.120662,-2.32944,0.0551996,
2,0,0,1,0,42421.9,0.0540342,0.0537649,-0.489962,22,0.00680756,10,-2.63428e-05,-3.30984,0.699384,0.0843599,-1.61042,0.0537649,
2,0,0,1,0,42422.2,0.052536,0.0521945,-0.487426,22,0.00665664,10,-2.5441e-05,-3.31209,0.584566,0.10093,-1.91461,0.0521945,
2,0,0,1,0,42422.5,0.0510378,0.0506876,-0.483541,22,0.00650691,10,-2.45096e-05,-3.31557,0.448183,0.131643,-2.48281,0.0506876,
2,0,0,1,0,42422.8,0.0495394,0.049172,-0.478533,22,0.00635848,10,-2.35304e-05,-3.32009,0.4249,0.138856,-2.60089,0.049172,
2,0,0,1,0,42423.1,0.0480415,0.0477173,-0.476284,22,0.00621096,10,-2.2727e-05,-3.32213,0.687686,0.085795,-1.59124,0.0477173,
2,0,0,1,0,42423.4,0.0465436,0.0462534,-0.47123,22,0.00606436,10,-2.1796e-05,-3.32677,0.496879,0.118741,-2.19005,0.0462534,
2,0,0,0,0,42423.7,0.045045,0.0447186,-0.468443,22,0.00591879,10,-2.09481e-05,-3.32934,0.401923,0.146794,-2.68953,0.0447186,
2,0,0,0,0,42424,0.0435468,0.043251,-0.463605,22,0.00577455,10,-2.00514e-05,-3.33385,0.401172,0.147069,-2.67183,0.043251,
2,0,0,1,0,42424.3,0.0420483,0.0417385,-0.461418,22,0.00563126,10,-1.92589e-05,-3.33591,0.535301,0.110218,-1.98678,0.04173851,
2,0,0,1,0,42424.6,0.0405504,0.0402247,-0.460339,22,0.00548882,10,-1.8517e-05,-3.33692,0.443948,0.132899,-2.37684,0.0402247,
2,0,0,1,0,42424.9,0.0390526,0.0387128,-0.455269,22,0.00534737,10,-1.76247e-05,-3.34173,0.376428,0.156737,-2.78185,0.0387128,
2,0,0,1,0,42425.2,0.0375541,0.0371919,-0.449636,22,0.00520713,10,-1.67228e-05,-3.34714,0.451782,0.130594,-2.30036,0.03719186,
2,0,0,1,0,42425.5,0.0360559,0.0357423,-0.446843,22,0.00506819,10,-1.59712e-05,-3.34985,0.466201,0.126555,-2.21554,0.0357423,
2,0,0,1,0,42425.8,0.0345572,0.0342126,-0.444877,22,0.00492992,10,-1.52204e-05,-3.35176,0.504182,0.117021,-2.0318,0.0342126,
2,0,0,1,0,42426.1,0.0330594,0.0327762,-0.441065,22,0.00479262,10,-1.44564e-05,-3.3555,0.458376,0.128715,-2.21549,0.0327762,
2,0,0,1,0,42426.4,0.0315615,0.0312454,-0.438658,22,0.00465631,10,-1.3706e-05,-3.35787,0.490895,0.120189,-2.05847,0.0312454,
2,0,0,0,0,42426.7,0.0300631,0.0297149,-0.434818,22,0.00452128,10,-1.29206e-05,-3.36169,0.500831,0.117804,-2.0012,0.0297149,
2,0,0,0,0,42427,0.0285649,0.028207,-0.433088,22,0.00438698,10,-1.22161e-05,-3.36342,0.56685,0.104084,-1.75304,0.028207,
2,0,0,0,0,42427.3,0.0270667,0.0267479,-0.431024,22,0.00425339,10,-1.1529e-05,-3.3655,0.607069,0.0971883,-1.62991,0.0267479,
2,0,0,1,0,42427.6,0.0255683,0.025278,-0.426852,22,0.00412078,10,-1.079e-05,-3.36972,0.534978,0.110285,-1.83953,0.025278,
2,0,0,1,0,42427.9,0.0240706,0.0237609,-0.42331,22,0.00398923,10,-1.00582e-05,-3.37334,0.672323,0.0877555,-1.45601,0.0237609,
2,0,0,1,0,42428.2,0.0225722,0.0222136,-0.421285,22,0.00385825,10,-9.35827e-06,-3.37542,0.86722,0.0680335,-1.11886,0.0222136,
2,0,0,1,0,42428.5,0.021074,0.0207481,-0.419928,22,0.00372787,10,-8.71271e-06,-3.37683,0.772448,0.0763805,-1.25262,0.0207481,
2,0,0,1,0,42428.8,0.0195758,0.0192572,-0.417799,22,0.00359814,10,-8.04563e-06,-3.37903,0.683826,0.0862792,-1.40809,0.0192572,
2,0,0,1,0,42429.1,0.0180774,0.0177099,-0.414291,22,0.00346895,10,-7.33704e-06,-3.38269,0.674235,0.0875065,-1.42052,0.0177099,
2,0,0,1,0,42429.4,0.0165795,0.0162702,-0.414358,22,0.00334045,10,-6.74167e-06,-3.38262,0.964567,0.0611673,-0.989413,0.0162702,
2,0,0,1,0,42429.7,0.0150817,0.0147903,-0.41415,22,0.00321218,10,-6.12542e-06,-3.38284,1.09669,0.0537982,-0.866379,0.0147903,
2,0,0,0,0,42430,0.013583,0.0132532,-0.412451,22,0.00308413,10,-5.46629e-06,-3.38463,0.677036,0.0871445,-1.4008,0.0132532,
2,0,0,0,0,42430.3,0.0120848,0.0117835,-0.410013,22,0.00295662,10,-4.83137e-06,-3.3872,1.33842,0.0440819,-0.707856,0.0117835,
2,0,0,1,0,42430.6,0.0105863,0.0102552,-0.409852,22,0.00282959,10,-4.2031e-06,-3.38737,2.02166,0.0291839,-0.467456,0.0102552,
2,0,0,1,0,42430.9,0.00908846,0.00874965,-0.409977,22,0.00270241,10,-3.58715e-06,-3.38724,57.168,0.00103205,-0.0165072,0.00874965,
2,0,0,1,0,42431.2,0.0075906,0.0072611,-0.41035,22,0.00257522,10,-2.97959e-06,-3.38685,2.04105,0.0289067,-0.461732,0.0072611,
2,0,0,1,0,42431.5,0.00609207,0.00577307,-0.410551,22,0.00244808,10,-2.37014e-06,-3.38663,-36.756,-0.00160518,0.0257021,0.005773074,
2,0,0,1,0,42431.8,0.00459389,0.0042885,-0.409885,22,0.00232122,10,-1.75779e-06,-3.38734,-2.92062,-0.0202012,0.323234,0.0042885,
2,0,0,1,0,42432.1,0.00309525,0.00275475,-0.411239,22,0.00219393,10,-1.13286e-06,-3.38591,-0.767791,-0.0768438,1.23092,0.00275475,
2,0,0,1,0,42432.4,0.00159739,0.00124808,-0.415248,22,0.00206477,10,-5.18264e-07,-3.38169, , , ,0.00124808,
2,0,0,0,0,42432.7,0.000199195,-0.000163081,-0.413294,22,0.00194501,10,6.74006e-08,-3.38374, , , ,-0.000163081,