File: Figure_codes/Fig_3-5/rawdata_trumpetplot_data/after 10th/20221101_1-115_003_TrumpetPlot_ParaChange_from10_every3_07_CV_C01_3.csv
mode,ox/red,error,control changes,counter inc.,time/s,control/V,Ewe/V,<I>/mA,cycle number,(Q-Qo)/C,I Range,P/W,log(|I|),Tafel slope mV/dec,alpha_eff,dI/d(E-IR),E-IR/V,
2,0,0,0,0,7075.41,2.44065e-05,-0.000287149,-2.70712,4,0.0000000E+000,10,7.77348e-07,-2.56749, , , ,-0.0002871489,
2,0,0,1,0,7075.43,0.0013005,0.000918115,-0.736363,4,-3.26404e-05,10,-6.76066e-07,-3.13291, , , ,0.000918115,
2,1,0,1,0,7075.46,0.00279471,0.00252514,0.4827,4,-3.38989e-05,10,1.21888e-06,-3.31632,-0.253144,-0.233069,648.553,0.00252514,
2,1,0,1,0,7075.48,0.00429425,0.00397345,1.13726,4,-1.23458e-05,10,4.51884e-06,-2.94414,0.00399559,14.7663,367.618,0.00397345,
2,1,0,1,0,7075.51,0.00579379,0.00547722,1.5423,4,2.19973e-05,10,8.44751e-06,-2.81183,0.013758,4.28843,228.744,0.00547722,
2,1,0,1,0,7075.53,0.007288,0.00700044,1.80605,4,6.42958e-05,10,1.26431e-05,-2.74327,0.0255044,2.31333,154.904,0.00700044,
2,1,0,1,0,7075.56,0.00878882,0.00847293,1.99067,4,0.000112291,10,1.68668e-05,-2.701,0.0408715,1.44355,109.259,0.00847293,
2,1,0,1,0,7075.58,0.0102896,0.00997253,2.12522,4,0.000164249,10,2.11939e-05,-2.6726,0.0607627,0.970991,79.3622,0.00997253,
2,1,0,1,0,7075.61,0.0117838,0.0114972,2.24413,4,0.000219041,10,2.58012e-05,-2.64895,0.0765881,0.770355,66.3515,0.0114972,
2,1,0,1,0,7075.63,0.0132834,0.0129571,2.31692,4,0.000276341,10,3.00206e-05,-2.63509,0.0904655,0.652183,58.9092,0.0129571,
2,1,0,1,0,7075.66,0.0147816,0.0144965,2.39651,4,0.00033576,10,3.4741e-05,-2.62042,0.10717,0.550528,51.454,0.0144965,
2,1,0,1,0,7075.68,0.0162811,0.015967,2.47233,4,0.000397132,10,3.94756e-05,-2.60689,0.138408,0.426275,40.9872,0.015967,
2,1,0,1,0,7075.71,0.0177753,0.0174563,2.53532,4,0.000459889,10,4.42572e-05,-2.59597,0.146181,0.40361,39.7543,0.0174563,
2,1,0,1,0,7075.73,0.0192761,0.0189584,2.58602,4,0.000524289,10,4.90267e-05,-2.58737,0.146436,0.402906,40.6782,0.0189584,
2,1,0,1,0,7075.76,0.020777,0.0205077,2.64636,4,0.000590152,10,5.42707e-05,-2.57735,0.157074,0.375618,38.7792,0.0205077,
2,1,0,1,0,7075.78,0.0222712,0.0219679,2.70542,4,0.000657232,10,5.94324e-05,-2.56777,0.169523,0.348036,36.6862,0.0219679,
2,1,0,1,0,7075.81,0.0237707,0.0234621,2.76556,4,0.000726008,10,6.4886e-05,-2.55822,0.186464,0.316415,34.0118,0.0234621,
2,1,0,1,0,7075.83,0.0252703,0.0249352,2.81045,4,0.000796081,10,7.0079e-05,-2.55122,0.176645,0.334003,36.7113,0.02493519,
2,1,0,1,0,7075.86,0.0267645,0.0264743,2.86028,4,0.000867177,10,7.57239e-05,-2.54359,0.169331,0.348431,39.0343,0.0264743,
2,1,0,1,0,7075.88,0.0282653,0.0279036,2.92298,4,0.000939953,10,8.15615e-05,-2.53417,0.205306,0.287375,32.7406,0.0279036,
2,1,0,1,0,7075.91,0.0297648,0.0294783,2.97913,4,0.00101416,10,8.78195e-05,-2.52591,0.200542,0.294203,34.1042,0.0294783,
2,1,0,1,0,7075.93,0.031259,0.0309516,3.02283,4,0.00108928,10,9.35615e-05,-2.51959,0.185872,0.317423,37.5065,0.0309516,
2,1,0,1,0,7075.95,0.0327585,0.0324561,3.0743,4,0.00116596,10,9.97797e-05,-2.51225,0.191361,0.308318,37.106,0.0324561,
2,1,0,1,0,7075.98,0.034258,0.0339898,3.13036,4,0.00124405,10,0.0001064,-2.50441,0.203341,0.290154,35.4896,0.0339898,
2,1,0,1,0,7076,0.0357576,0.0354515,3.19546,4,0.00132355,10,0.000113284,-2.49547,0.210073,0.280855,34.9071,0.0354515,
2,1,0,1,0,7076.03,0.0372518,0.0369359,3.24413,4,0.00140412,10,0.000119825,-2.4889,0.200169,0.294752,37.3329,0.0369359,
2,1,0,1,0,7076.05,0.0387526,0.0384028,3.29208,4,0.00148621,10,0.000126425,-2.48253,0.2035,0.289927,37.3699,0.03840284,
2,1,0,1,0,7076.08,0.0402534,0.0399396,3.35371,4,0.00156978,10,0.000133946,-2.47447,0.206745,0.285375,37.3247,0.0399396,
2,1,0,1,0,7076.1,0.0417476,0.0414486,3.42422,4,0.00165451,10,0.000141929,-2.46544,0.218313,0.270254,35.9104,0.0414486,
2,1,0,1,0,7076.13,0.0432472,0.0429418,3.47118,4,0.00174094,10,0.000149059,-2.45952,0.220877,0.267117,36.0951,0.0429418,
2,1,0,1,0,7076.15,0.0447467,0.0444886,3.51293,4,0.00182863,10,0.000156285,-2.45433,0.220678,0.267358,36.7458,0.0444886,
2,1,0,1,0,7076.18,0.0462463,0.045922,3.5695,4,0.00191764,10,0.000163918,-2.44739,0.232405,0.253867,35.4227,0.045922,
2,1,0,1,0,7076.2,0.0477391,0.0474256,3.62834,4,0.0020077,10,0.000172076,-2.44029,0.237816,0.248091,35.113,0.0474256,
2,1,0,1,0,7076.23,0.0492399,0.0489262,3.67975,4,0.00209949,10,0.000180036,-2.43418,0.223407,0.264092,37.9135,0.0489262,
2,1,0,1,0,7076.25,0.0507408,0.0504181,3.73078,4,0.00219262,10,0.000188099,-2.4282,0.223247,0.264281,38.5442,0.0504181,
2,1,0,1,0,7076.28,0.052235,0.0519463,3.7831,4,0.00228665,10,0.000196518,-2.42215,0.245344,0.240479,35.5502,0.0519463,
2,1,0,1,0,7076.3,0.0537345,0.0534465,3.85052,4,0.00238252,10,0.000205797,-2.41448,0.235536,0.250493,37.5575,0.0534465,
2,1,0,1,0,7076.33,0.0552341,0.0549239,3.89535,4,0.00247976,10,0.000213948,-2.40945,0.255289,0.231111,35.1012,0.0549239,
2,1,0,1,0,7076.35,0.0567283,0.0564127,3.93542,4,0.00257786,10,0.000222008,-2.40501,0.267084,0.220904,34.0653,0.05641273,
2,1,0,1,0,7076.38,0.0582291,0.0578614,3.99277,4,0.00267747,10,0.000231027,-2.39873,0.293057,0.201326,31.4086,0.0578614,
2,1,0,1,0,7076.4,0.0597299,0.0594336,4.05405,4,0.00277845,10,0.000240947,-2.39211,0.266968,0.221,34.8681,0.05943355,
2,1,0,1,0,7076.43,0.0612228,0.0609416,4.10435,4,0.00288032,10,0.000250126,-2.38676,0.268049,0.220109,35.1571,0.0609416,
2,1,0,1,0,7076.45,0.0627223,0.0624002,4.14923,4,0.0029839,10,0.000258913,-2.38203,0.282403,0.208921,33.8379,0.06240024,
2,1,0,1,0,7076.48,0.0642218,0.0639192,4.19044,4,0.00308856,10,0.00026785,-2.37774,0.308461,0.191272,31.3908,0.0639192,
2,1,0,1,0,7076.5,0.0657214,0.0653939,4.24743,4,0.00319448,10,0.000277756,-2.37187,0.291874,0.202142,33.4724,0.06539385,
2,1,0,1,0,7076.53,0.0672156,0.0669085,4.30594,4,0.00330131,10,0.000288104,-2.36593,0.2729,0.216196,36.2228,0.0669085,
2,1,0,1,0,7076.55,0.0687164,0.0684131,4.34813,4,0.00340982,10,0.000297469,-2.3617,0.314952,0.18733,31.7422,0.0684131,
2,1,0,1,0,7076.58,0.0702172,0.0699271,4.38754,4,0.00351941,10,0.000306808,-2.35778,0.352723,0.16727,28.667,0.0699271,
2,1,0,1,0,7076.6,0.0717114,0.07146,4.43736,4,0.00362966,10,0.000317094,-2.35287,0.349009,0.16905,29.2341,0.07146,
2,1,0,1,0,7076.63,0.073211,0.0728818,4.47892,4,0.00374152,10,0.000326432,-2.34883,0.317197,0.186005,32.5104,0.0728818,
2,1,0,1,0,7076.65,0.0747105,0.0744307,4.51668,4,0.00385447,10,0.000336179,-2.34518,0.35709,0.165225,29.1684,0.0744307,
2,1,0,1,0,7076.68,0.0762101,0.0759233,4.55571,4,0.00396847,10,0.000345884,-2.34144,0.375749,0.15702,27.9926,0.0759233,
2,1,0,1,0,7076.7,0.0777042,0.0773995,4.61079,4,0.00408299,10,0.000356873,-2.33622,0.381666,0.154585,27.7829,0.0773995,
2,1,0,1,0,7076.73,0.0792037,0.0789089,4.66212,4,0.00419911,10,0.000367883,-2.33142,0.358697,0.164484,29.8194,0.07890889,
2,1,0,1,0,7076.75,0.0807046,0.0804208,4.69216,4,0.00431636,10,0.000377348,-2.32863,0.372805,0.15826,28.9248,0.0804208,
2,1,0,1,0,7076.78,0.0821988,0.0819002,4.7256,4,0.00443412,10,0.000387028,-2.32554,0.445064,0.132565,24.4701,0.0819002,
2,1,0,1,0,7076.8,0.0836983,0.0833646,4.77096,4,0.00455324,10,0.000397729,-2.32139,0.420436,0.140331,26.1594,0.0833646,
2,1,0,1,0,7076.83,0.0851979,0.0848712,4.81438,4,0.00467345,10,0.000408602,-2.31746,0.381384,0.1547,29.0621,0.0848712,
2,1,0,1,0,7076.85,0.0866921,0.0863497,4.85223,4,0.00479432,10,0.000418988,-2.31406,0.387038,0.15244,28.8921,0.0863497,
2,1,0,1,0,7076.88,0.0881929,0.0878528,4.89903,4,0.00491666,10,0.000430394,-2.30989,0.420241,0.140396,26.8565,0.0878528,
2,1,0,1,0,7076.9,0.0896937,0.0893647,4.94612,4,0.00504,10,0.000442008,-2.30574,0.404898,0.145716,28.0941,0.0893647,
2,1,0,1,0,7076.93,0.0911879,0.0908891,4.98686,4,0.00516395,10,0.000453251,-2.30217,0.31739,0.185891,36.1727,0.0908891,
2,1,0,1,0,7076.95,0.0926861,0.0923856,5.03397,4,0.00528966,10,0.000465067,-2.29809,0.29439,0.200414,39.4341,0.0923856,
2,1,0,1,0,7076.98,0.0941856,0.0938812,5.09384,4,0.00541675,10,0.000478215,-2.29296,0.321208,0.183682,36.5667,0.0938812,
2,1,0,1,0,7077,0.0956852,0.0953888,5.14694,4,0.0055452,10,0.00049096,-2.28845,0.298644,0.197559,39.7258,0.0953888,
2,1,0,1,0,7077.03,0.0971794,0.0968555,5.21099,4,0.00567464,10,0.000504713,-2.28308,0.260767,0.226256,46.0212,0.0968555,
2,1,0,1,0,7077.05,0.0986802,0.0983566,5.27387,4,0.00580617,10,0.00051872,-2.27787,0.255413,0.230999,47.6509,0.0983566,
2,1,0,1,0,7077.08,0.100181,0.0998982,5.35121,4,0.00593951,10,0.000534576,-2.27155,0.264205,0.223311,46.6455,0.09989816,
2,1,0,1,0,7077.1,0.101675,0.101379,5.42485,4,0.00607412,10,0.000549967,-2.26561,0.255081,0.231299,49.003,0.101379,
2,1,0,1,0,7077.13,0.103175,0.102884,5.50778,4,0.00621111,10,0.000566664,-2.25902,0.226222,0.260806,56.1116,0.102884,
2,1,0,1,0,7077.15,0.104674,0.104349,5.5953,4,0.00635027,10,0.000583865,-2.25218,0.202782,0.290953,63.5648,0.104349,
2,1,0,1,0,7077.18,0.106169,0.10589,5.69172,4,0.00649127,10,0.000602696,-2.24476,0.220331,0.267779,59.4314,0.10589,
2,1,0,1,0,7077.2,0.107668,0.107325,5.78021,4,0.00663506,10,0.000620361,-2.23806,0.222049,0.265707,59.9959,0.107325,
2,1,0,1,0,7077.23,0.109169,0.108888,5.879,4,0.00678109,10,0.000640149,-2.2307,0.207049,0.284956,65.3267,0.108888,
2,1,0,1,0,7077.25,0.110663,0.110359,5.97187,4,0.00692906,10,0.000659051,-2.22389,0.201116,0.293363,68.3807,0.110359,
2,1,0,1,0,7077.28,0.112163,0.111875,6.07134,4,0.00708007,10,0.000679232,-2.21672,0.22459,0.2627,62.2484,0.111875,
2,1,0,1,0,7077.3,0.113662,0.113383,6.17644,4,0.00723354,10,0.000700301,-2.20926,0.237385,0.248542,59.8166,0.113383,
2,1,0,1,0,7077.33,0.115162,0.114827,6.26552,4,0.00738931,10,0.000719452,-2.20304,0.224938,0.262295,64.0567,0.114827,
2,1,0,1,0,7077.35,0.116656,0.116336,6.34771,4,0.00754675,10,0.000738469,-2.19738,0.22542,0.261734,64.873,0.116336,
2,1,0,1,0,7077.38,0.118157,0.117813,6.44462,4,0.0077072,10,0.000759262,-2.1908,0.262313,0.224922,56.5237,0.117813,
2,1,0,1,0,7077.4,0.119657,0.11932,6.53197,4,0.00786984,10,0.000779392,-2.18496,0.304553,0.193726,49.2872,0.11932,
2,1,0,1,0,7077.43,0.121152,0.120887,6.60122,4,0.00803371,10,0.000798004,-2.18038,0.312143,0.189016,48.6738,0.120887,
2,1,0,1,0,7077.45,0.122651,0.122399,6.67666,4,0.00820003,10,0.000817214,-2.17544,0.30072,0.196196,51.0962,0.122399,
2,1,0,1,0,7077.48,0.124151,0.123879,6.74051,4,0.00836817,10,0.000835009,-2.17131,0.332701,0.177336,46.6754,0.1238792,
2,1,0,1,0,7077.5,0.125649,0.125353,6.8128,4,0.00853802,10,0.000854007,-2.16667,0.388756,0.151766,40.3124,0.125353,
2,1,0,1,0,7077.53,0.127143,0.126815,6.86749,4,0.00870883,10,0.000870899,-2.1632,0.382389,0.154293,41.3423,0.1268148,
2,1,0,1,0,7077.55,0.128644,0.128332,6.92379,4,0.00888169,10,0.000888547,-2.15966,0.3833,0.153926,41.6406,0.128332,
2,1,0,1,0,7077.58,0.130145,0.129855,6.98113,4,0.00905607,10,0.000906535,-2.15607,0.42659,0.138306,37.7138,0.129855,
2,1,0,1,0,7077.6,0.131639,0.131294,7.04628,4,0.00923129,10,0.000925132,-2.15204,0.454837,0.129717,35.6406,0.131294,
2,1,0,1,0,7077.63,0.133139,0.132845,7.11022,4,0.00940861,10,0.00094456,-2.14812,0.453555,0.130083,36.0432,0.132845,
2,1,0,1,0,7077.65,0.134638,0.1343,7.1471,4,0.00958717,10,0.000959856,-2.14587,0.464937,0.126899,35.4495,0.1343,
2,1,0,1,0,7077.68,0.136132,0.135841,7.19631,4,0.00976633,10,0.000977552,-2.14289,0.515177,0.114524,32.1781,0.135841,
2,1,0,1,0,7077.7,0.137633,0.1373,7.25509,4,0.00994745,10,0.000996125,-2.13936,0.646429,0.0912707,25.79,0.1373,
2,1,0,1,0,7077.73,0.139133,0.138841,7.29492,4,0.0101296,10,0.00101283,-2.13698,0.784329,0.0752236,21.3464,0.138841,
2,1,0,1,0,7077.75,0.140627,0.140329,7.30836,4,0.0103118,10,0.00102558,-2.13618,1.34203,0.0439631,12.521,0.140329,
2,1,0,1,0,7077.78,0.142126,0.141794,7.31662,4,0.0104951,10,0.00103745,-2.13569,5.86224,0.0100644,2.87077,0.141794,
2,1,0,1,0,7077.8,0.143626,0.143325,7.32128,4,0.0106786,10,0.00104932,-2.13541,-1.25959,-0.0468405,-13.3355,0.143325,
2,1,0,1,0,7077.83,0.145125,0.144832,7.29413,4,0.0108617,10,0.00105642,-2.13703,-0.528721,-0.11159,-31.6161,0.144832,
2,1,0,1,0,7077.85,0.14662,0.146311,7.22063,4,0.0110429,10,0.00105646,-2.14143,-0.329963,-0.178808,-50.2574,0.146311,
2,1,0,1,0,7077.88,0.14812,0.1478,7.12907,4,0.0112228,10,0.00105368,-2.14697,-0.228717,-0.257961,-71.5426,0.1478,
2,1,0,1,0,7077.9,0.149621,0.149312,7.01306,4,0.0114001,10,0.00104713,-2.15409,-0.171601,-0.34382,-93.6187,0.149312,
2,1,0,1,0,7077.93,0.151116,0.15079,6.86215,4,0.0115731,10,0.00103474,-2.16354,-0.133678,-0.44136,-117.384,0.15079,
2,1,0,1,0,7077.95,0.152615,0.152288,6.65837,4,0.0117426,10,0.00101399,-2.17663,-0.113773,-0.518574,-134.268,0.152288,
2,1,0,1,0,7077.98,0.154115,0.153819,6.44405,4,0.0119068,10,0.000991221,-2.19084,-0.0962657,-0.612887,-153.727,0.153819,
2,1,0,1,0,7078,0.155614,0.155296,6.20668,4,0.0120653,10,0.000963871,-2.20714,-0.0860258,-0.685841,-165.564,0.155296,
2,1,0,1,0,7078.03,0.157107,0.156831,5.95642,4,0.0122171,10,0.000934154,-2.22501,-0.0787804,-0.748917,-173.291,0.156831,
2,1,0,1,0,7078.05,0.158608,0.158277,5.68449,4,0.012363,10,0.000899726,-2.24531,-0.0762376,-0.773897,-171.648,0.158277,
2,1,0,1,0,7078.08,0.160109,0.159794,5.4213,4,0.0125021,10,0.000866289,-2.2659,-0.0727852,-0.810605,-171.877,0.159794,
2,1,0,1,0,7078.1,0.161603,0.161314,5.18089,4,0.0126345,10,0.000835752,-2.2856,-0.074517,-0.791766,-160.218,0.161314,
2,1,0,1,0,7078.13,0.163102,0.162825,4.95144,4,0.0127615,10,0.000806219,-2.30527,-0.0763596,-0.772659,-149.561,0.162825,
2,1,0,1,0,7078.15,0.164602,0.164322,4.7387,4,0.012883,10,0.000778672,-2.32434,-0.0817549,-0.72167,-133.787,0.164322,
2,1,0,1,0,7078.18,0.166096,0.16582,4.5383,4,0.0129988,10,0.000752543,-2.34311,-0.0856578,-0.688787,-122.612,0.16582,
2,1,0,1,0,7078.2,0.167597,0.167287,4.37583,4,0.0131106,10,0.000732019,-2.35894,-0.0935378,-0.630761,-107.881,0.167287,
2,1,0,1,0,7078.23,0.169098,0.168781,4.2275,4,0.0132184,10,0.000713523,-2.37392,-0.10135,-0.582141,-96.0783,0.168781,
2,1,0,1,0,7078.25,0.170592,0.170327,4.08404,4,0.0133222,10,0.000695624,-2.38891,-0.109052,-0.541026,-86.3961,0.170327,
2,1,0,1,0,7078.28,0.17209,0.171837,3.94999,4,0.013423,10,0.000678756,-2.4034,-0.112876,-0.522696,-80.9466,0.171837,
2,1,0,1,0,7078.3,0.17359,0.173312,3.84566,4,0.0135208,10,0.000666499,-2.41503,-0.119104,-0.495366,-74.4769,0.173312,
2,1,0,1,0,7078.33,0.175089,0.174814,3.74789,4,0.0136161,10,0.000655185,-2.42621,-0.135848,-0.434309,-63.5129,0.174814,
2,1,0,1,0,7078.35,0.176583,0.176283,3.6499,4,0.0137085,10,0.000643416,-2.43772,-0.142888,-0.412912,-58.8303,0.176283,
2,1,0,1,0,7078.38,0.178084,0.177808,3.55544,4,0.0137991,10,0.000632184,-2.44911,-0.147644,-0.399611,-55.7204,0.177808,
2,1,0,1,0,7078.4,0.179585,0.179281,3.48468,4,0.0138875,10,0.000624737,-2.45784,-0.157614,-0.374331,-51.0621,0.1792808,
2,1,0,1,0,7078.43,0.181079,0.180772,3.42643,4,0.0139739,10,0.000619403,-2.46516,-0.177521,-0.332355,-44.3218,0.180772,
2,1,0,1,0,7078.45,0.182579,0.182314,3.35074,4,0.0140589,10,0.000610886,-2.47486,-0.183152,-0.322137,-42.1633,0.182314,
2,1,0,1,0,7078.48,0.184078,0.183802,3.28916,4,0.0141424,10,0.000604553,-2.48292,-0.185022,-0.318882,-41.0607,0.183802,
2,1,0,1,0,7078.5,0.185578,0.185289,3.23467,4,0.0142243,10,0.00059935,-2.49017,-0.191015,-0.308876,-39.0681,0.185289,
2,1,0,1,0,7078.53,0.187072,0.186801,3.19381,4,0.0143047,10,0.000596607,-2.49569,-0.234005,-0.252131,-31.3435,0.186801,
2,1,0,1,0,7078.55,0.188573,0.188288,3.14259,4,0.0143841,10,0.000591714,-2.50271,-0.268065,-0.220096,-26.9769,0.188288,
2,1,0,1,0,7078.58,0.190072,0.189773,3.092,4,0.0144624,10,0.000586777,-2.50976,-0.249238,-0.236722,-28.5875,0.189773,
2,1,0,1,0,7078.6,0.191567,0.19122,3.04578,4,0.0145393,10,0.000582415,-2.5163,-0.252885,-0.233307,-27.8367,0.19122,
2,1,0,1,0,7078.63,0.193066,0.192721,3.01642,4,0.0146154,10,0.000581328,-2.52051,-0.327752,-0.180014,-21.1969,0.192721,
2,1,0,1,0,7078.65,0.194566,0.194243,2.98454,4,0.0146909,10,0.000579725,-2.52512,-0.344106,-0.171459,-19.9619,0.194243,
2,1,0,1,0,7078.68,0.19606,0.195781,2.94751,4,0.0147651,10,0.000577067,-2.53055,-0.301659,-0.195585,-22.5414,0.195781,
2,1,0,1,0,7078.7,0.197561,0.197266,2.91233,4,0.0148389,10,0.000574505,-2.53576,-0.324385,-0.181882,-20.7281,0.197266,
2,1,0,1,0,7078.73,0.199062,0.198774,2.90119,4,0.0149119,10,0.000576681,-2.53742,-0.367215,-0.160669,-18.1305,0.1987742,
2,1,0,1,0,7078.75,0.200556,0.20025,2.86638,4,0.0149839,10,0.000573991,-2.54267,-0.470289,-0.125455,-14.0399,0.20025,
2,1,0,1,0,7078.78,0.202055,0.201734,2.83979,4,0.0150557,10,0.000572881,-2.54671,-0.4087,-0.14436,-16.0107,0.201734,
2,1,0,1,0,7078.8,0.203553,0.203245,2.81453,4,0.0151269,10,0.000572039,-2.55059,-0.401087,-0.1471,-16.1862,0.203245,
2,1,0,1,0,7078.83,0.205053,0.204764,2.79461,4,0.0151974,10,0.000572234,-2.55368,-0.636402,-0.0927087,-10.1422,0.204764,
2,1,0,1,0,7078.85,0.206547,0.206229,2.77616,4,0.0152671,10,0.000572524,-2.55656,-0.705143,-0.083671,-9.08264,0.206229,
2,1,0,1,0,7078.88,0.208048,0.207773,2.7641,4,0.0153369,10,0.000574304,-2.55845,-0.486341,-0.121314,-13.0698,0.207773,
2,1,0,1,0,7078.9,0.209549,0.209246,2.74279,4,0.0154062,10,0.000573919,-2.56181,-0.373181,-0.1581,-16.945,0.209246,
2,1,0,1,0,7078.93,0.211043,0.210763,2.72472,4,0.0154746,10,0.000574268,-2.56468,-0.475309,-0.12413,-13.1995,0.210763,
2,1,0,1,0,7078.95,0.212543,0.212258,2.71237,4,0.015543,10,0.000575724,-2.56665,-0.925601,-0.0637424,-6.73991,0.212258,
2,1,0,1,0,7078.98,0.214042,0.213767,2.68965,4,0.0156109,10,0.000574959,-2.5703,-0.668145,-0.0883042,-9.30232,0.213767,
2,1,0,1,0,7079,0.215536,0.215293,2.68291,4,0.0156783,10,0.000577612,-2.57139,-0.568309,-0.103817,-10.867,0.215293,
2,1,0,1,0,7079.03,0.217036,0.216739,2.66762,4,0.0157455,10,0.000578177,-2.57388,-0.684091,-0.0862458,-8.98184,0.216739,
2,1,0,1,0,7079.05,0.218537,0.218265,2.65388,4,0.0158124,10,0.00057925,-2.57612,-1.56244,-0.0377616,-3.9167,0.218265,
2,1,0,1,0,7079.08,0.220031,0.219732,2.64447,4,0.0158788,10,0.000581075,-2.57766,-0.876138,-0.067341,-6.95424,0.219732,
2,1,0,1,0,7079.1,0.22153,0.221236,2.63821,4,0.0159453,10,0.000583667,-2.57869,-0.648359,-0.090999,-9.34523,0.221236,
2,1,0,1,0,7079.13,0.22303,0.222774,2.62035,4,0.0160114,10,0.000583745,-2.58164,-0.668497,-0.0882576,-9.0323,0.222774,
2,1,0,1,0,7079.15,0.224529,0.224235,2.60919,4,0.0160772,10,0.000585071,-2.58349,-1.87052,-0.0315421,-3.21921,0.224235,
2,1,0,1,0,7079.18,0.226024,0.225738,2.60185,4,0.0161426,10,0.000587336,-2.58472,-0.989146,-0.0596474,-6.07439,0.225738,
2,1,0,1,0,7079.2,0.227525,0.227269,2.59555,4,0.016208,10,0.000589888,-2.58577,-0.654094,-0.090201,-9.11642,0.227269,
2,1,0,1,0,7079.23,0.229025,0.228737,2.59246,4,0.0162732,10,0.00059299,-2.58629,-0.878291,-0.0671759,-6.77547,0.2287368,
2,1,0,1,0,7079.25,0.23052,0.230226,2.57477,4,0.0163378,10,0.000592779,-2.58926,-2.39064,-0.0246796,-2.4845,0.230226,
2,1,0,1,0,7079.28,0.232019,0.231718,2.56681,4,0.0164025,10,0.000594775,-2.59061,-2.02261,-0.0291702,-2.92554,0.231718,
2,1,0,1,0,7079.3,0.233519,0.233205,2.55893,4,0.0164671,10,0.000596756,-2.59194,-0.978188,-0.0603156,-6.03075,0.233205,
2,1,0,1,0,7079.33,0.235018,0.234725,2.56022,4,0.0165315,10,0.000600948,-2.59172,-0.915586,-0.0644396,-6.42349,0.234725,
2,1,0,1,0,7079.35,0.236511,0.236179,2.54435,4,0.0165954,10,0.000600922,-2.59442,-1.33831,-0.0440855,-4.38451,0.236179,
2,1,0,1,0,7079.38,0.238012,0.237746,2.53522,4,0.0166594,10,0.000602739,-2.59598,-3.26939,-0.0180462,-1.78914,0.237746,
2,1,0,1,0,7079.4,0.239513,0.239247,2.53555,4,0.0167232,10,0.000606621,-2.59593,-0.841278,-0.0701314,-6.93656,0.239247,
2,1,0,1,0,7079.43,0.241007,0.240698,2.53143,4,0.0167866,10,0.000609312,-2.59663,-1.18193,-0.0499181,-4.9205,0.240698,
2,1,0,1,0,7079.45,0.242506,0.242228,2.51591,4,0.0168501,10,0.000609425,-2.5993,-2.84389,-0.0207462,-2.0412,0.242228,
2,1,0,1,0,7079.48,0.244006,0.2437,2.50826,4,0.0169134,10,0.000611264,-2.60063,-2.62952,-0.0224375,-2.20514,0.2437,
2,1,0,1,0,7079.5,0.2455,0.245192,2.51194,4,0.0169764,10,0.000615906,-2.59999,-1.01819,-0.057946,-5.68363,0.245192,
2,1,0,1,0,7079.53,0.247001,0.246705,2.51137,4,0.0170395,10,0.000619567,-2.60009,-1.17089,-0.0503889,-4.91256,0.246705,
2,1,0,1,0,7079.55,0.248502,0.248169,2.49381,4,0.0171025,10,0.000618888,-2.60314,-1.45462,-0.0405603,-3.95303,0.248169,
2,1,0,1,0,7079.58,0.249995,0.249692,2.48792,4,0.017165,10,0.000621213,-2.60416,-2.57711,-0.0228939,-2.22765,0.249692,
2,1,0,1,0,7079.6,0.251494,0.251221,2.48457,4,0.0172276,10,0.000624177,-2.60475,-1.22523,-0.0481541,-4.67903,0.251221,
2,1,0,1,0,7079.63,0.252994,0.25272,2.48458,4,0.0172901,10,0.000627904,-2.60475,-0.963479,-0.0612364,-5.92048,0.25272,
2,1,0,1,0,7079.65,0.254493,0.254213,2.47436,4,0.0173525,10,0.000629014,-2.60654,-2.71441,-0.0217358,-2.10069,0.2542133,
2,1,0,1,0,7079.68,0.255988,0.255692,2.46263,4,0.0174144,10,0.000629673,-2.6086,-2.49138,-0.0236816,-2.28465,0.255692,
2,1,0,1,0,7079.7,0.257488,0.257178,2.46572,4,0.0174765,10,0.000634128,-2.60806,-1.53185,-0.0385156,-3.70742,0.257178,
2,1,0,1,0,7079.73,0.258989,0.258756,2.46766,4,0.0175386,10,0.000638521,-2.60771,-1.22693,-0.0480873,-4.61038,0.258756,
2,1,0,1,0,7079.75,0.260483,0.26023,2.46237,4,0.0176002,10,0.000640781,-2.60865,-1.71693,-0.0343637,-3.28947,0.26023,
2,1,0,1,0,7079.78,0.261983,0.261741,2.4419,4,0.0176619,10,0.000639145,-2.61227,-1.98326,-0.0297491,-2.84968,0.261741,
2,1,0,1,0,7079.8,0.263482,0.263204,2.44082,4,0.0177234,10,0.000642433,-2.61246,-1.89397,-0.0311515,-2.97282,0.263204,
2,1,0,1,0,7079.83,0.264982,0.264694,2.44604,4,0.0177849,10,0.000647453,-2.61154,-1.59111,-0.037081,-3.52744,0.264694,
2,1,0,1,0,7079.85,0.266476,0.266204,2.43752,4,0.017846,10,0.000648877,-2.61305,-1.77625,-0.0332161,-3.15339,0.266204,
2,1,0,1,0,7079.88,0.267976,0.267724,2.42496,4,0.0179072,10,0.000649221,-2.6153,-3.86792,-0.0152537,-1.44775,0.267724,
2,1,0,1,0,7079.9,0.269477,0.269183,2.42223,4,0.0179683,10,0.000652021,-2.61579,-2.18936,-0.0269485,-2.55187,0.269183,
2,1,0,1,0,7079.93,0.270971,0.270679,2.42774,4,0.018029,10,0.000657137,-2.6148,-1.27081,-0.046427,-4.37923,0.2706787,
2,1,0,1,0,7079.95,0.27247,0.272208,2.41901,4,0.0180899,10,0.000658473,-2.61636,-1.53089,-0.0385396,-3.62387,0.272208,
2,1,0,1,0,7079.98,0.27397,0.273675,2.40372,4,0.0181507,10,0.000657837,-2.61912,-2.04191,-0.0288945,-2.72129,0.273675,
2,1,0,1,0,7080,0.275464,0.275159,2.4019,4,0.018211,10,0.000660905,-2.61944,-0.920749,-0.0640782,-6.0278,0.275159,
2,1,0,1,0,7080.03,0.276965,0.276657,2.40332,4,0.0182714,10,0.000664895,-2.61919,-1.23865,-0.0476326,-4.45777,0.276657,
2,1,0,1,0,7080.05,0.278466,0.278165,2.39898,4,0.0183318,10,0.000667311,-2.61997,-1.71326,-0.0344374,-3.21285,0.278165,
2,1,0,1,0,7080.07,0.27996,0.279659,2.38963,4,0.0183918,10,0.00066828,-2.62167,-2.05024,-0.0287771,-2.68444,0.279659,
2,1,0,1,0,7080.1,0.281458,0.281172,2.38165,4,0.0184518,10,0.000669652,-2.62312,-1.28784,-0.045813,-4.27088,0.281172,
2,1,0,1,0,7080.12,0.282958,0.282649,2.38491,4,0.0185118,10,0.000674093,-2.62253,-1.5899,-0.0371093,-3.44305,0.282649,
2,1,0,1,0,7080.15,0.284457,0.284187,2.37965,4,0.0185717,10,0.000676266,-2.62349,-2.24065,-0.0263317,-2.43957,0.284187,
2,1,0,1,0,7080.17,0.285951,0.285605,2.36861,4,0.0186313,10,0.000676486,-2.62551,-2.97431,-0.0198365,-1.83585,0.285605,
2,1,0,1,0,7080.2,0.287452,0.287159,2.35571,4,0.0186908,10,0.000676463,-2.62788,-1.02916,-0.0573282,-5.29107,0.287159,
2,1,0,1,0,7080.22,0.288953,0.288658,2.36366,4,0.0187502,10,0.000682287,-2.62642,-2.76809,-0.0213143,-1.95819,0.288658,
2,1,0,1,0,7080.25,0.290447,0.290149,2.35987,4,0.0188093,10,0.000684715,-2.62711,-7.74925,-0.00761364,-0.69918,0.290149,
2,1,0,1,0,7080.27,0.291947,0.291638,2.34298,4,0.0188686,10,0.000683301,-2.63023,-1.73216,-0.0340614,-3.12663,0.2916379,
2,1,0,1,0,7080.3,0.293446,0.293135,2.33339,4,0.0189276,10,0.000683999,-2.63201,-0.963834,-0.0612139,-5.59733,0.293135,
2,1,0,1,0,7080.32,0.29494,0.294635,2.34059,4,0.0189862,10,0.00068962,-2.63068,-1.2175,-0.0484601,-4.42548,0.2946355,
2,1,0,1,0,7080.35,0.29644,0.296144,2.34178,4,0.0190451,10,0.000693504,-2.63045,-12.3234,-0.00478764,-0.436053,0.296144,
2,1,0,1,0,7080.37,0.297941,0.297708,2.32808,4,0.0191039,10,0.000693087,-2.633,-1.36478,-0.0432303,-3.92923,0.2977083,
2,1,0,1,0,7080.4,0.29944,0.299169,2.31902,4,0.0191625,10,0.000693778,-2.6347,-0.00468387,-12.5964,-758.365,0.299169,
2,1,0,1,0,7080.41,0.299736,0.299492,1.71043,4,0.019192,10,0.000512261,-2.76689,0.000890892,66.2258,1967.87,0.2994923,
2,1,0,1,0,7080.44,0.298238,0.297957,0.129423,4,0.0192107,10,3.85623e-05,-3.88799,0.00557548,10.582,736.244,0.297957,
2,0,0,1,0,7080.46,0.296744,0.296453,-0.383947,4,0.0192061,10,-0.000113822,-3.41573,-0.0276185,-2.13625,279.542,0.2964533,
2,0,0,1,0,7080.49,0.295243,0.2949,-0.603738,4,0.0191929,10,-0.000178043,-3.21915,-0.00867631,-6.80012,124.807,0.2949,
2,0,0,1,0,7080.51,0.293742,0.293403,-0.736778,4,0.0191755,10,-0.000216173,-3.13266,-0.02233,-2.64219,70.4139,0.293403,
2,0,0,1,0,7080.54,0.292248,0.291914,-0.817728,4,0.0191558,10,-0.000238706,-3.08739,-0.0365997,-1.61203,49.779,0.291914,
2,0,0,1,0,7080.56,0.290748,0.290469,-0.886415,4,0.0191341,10,-0.000257476,-3.05236,-0.0460314,-1.28173,43.4232,0.290469,
2,0,0,1,0,7080.59,0.289249,0.288941,-0.933184,4,0.0191109,10,-0.000269635,-3.03003,-0.0638015,-0.924743,33.5188,0.288941,
2,0,0,1,0,7080.61,0.287754,0.287459,-0.982043,4,0.0190866,10,-0.000282297,-3.00787,-0.0800858,-0.73671,28.0298,0.2874594,
2,0,0,1,0,7080.64,0.286254,0.285959,-1.02922,4,0.019061,10,-0.000294315,-2.98749,-0.0850678,-0.693565,27.6094,0.2859593,
2,0,0,1,0,7080.66,0.284754,0.284514,-1.06391,4,0.0190345,10,-0.000302697,-2.9731,-0.0821269,-0.718401,29.7294,0.284514,
2,0,0,1,0,7080.69,0.28326,0.282963,-1.10163,4,0.0190071,10,-0.00031172,-2.95796,-0.106477,-0.554108,23.7169,0.282963,
2,0,0,1,0,7080.71,0.28176,0.281469,-1.13523,4,0.0189786,10,-0.000319532,-2.94492,-0.142797,-0.413173,18.1753,0.281469,
2,0,0,1,0,7080.74,0.280261,0.279988,-1.16228,4,0.0189494,10,-0.000325425,-2.93469,-0.13349,-0.441981,20.0469,0.2799879,
2,0,0,1,0,7080.76,0.278761,0.278482,-1.1933,4,0.0189196,10,-0.000332311,-2.92325,-0.134279,-0.439383,20.437,0.278482,
2,0,0,1,0,7080.79,0.277267,0.276986,-1.21853,4,0.0188891,10,-0.000337516,-2.91416,-0.146684,-0.402226,19.1551,0.276986,
2,0,0,1,0,7080.81,0.275766,0.275438,-1.25021,4,0.0188577,10,-0.000344355,-2.90302,-0.228115,-0.258641,12.5397,0.275438,
2,0,0,1,0,7080.84,0.274265,0.273916,-1.27708,4,0.0188258,10,-0.000349812,-2.89378,-0.17922,-0.329205,16.2796,0.273916,
2,0,0,1,0,7080.86,0.272771,0.27247,-1.29636,4,0.0187935,10,-0.000353218,-2.88727,-0.160852,-0.366798,18.5431,0.27247,
2,0,0,1,0,7080.89,0.271272,0.270993,-1.31584,4,0.0187604,10,-0.000356583,-2.8808,-0.180807,-0.326316,16.7729,0.270993,
2,0,0,1,0,7080.91,0.269772,0.269496,-1.34247,4,0.0187266,10,-0.000361791,-2.8721,-0.238873,-0.246993,12.9047,0.269496,
2,0,0,1,0,7080.94,0.268273,0.267975,-1.37144,4,0.0186924,10,-0.00036751,-2.86282,-0.264868,-0.222753,11.8012,0.267975,
2,0,0,1,0,7080.96,0.26678,0.26647,-1.37823,4,0.0186578,10,-0.000367256,-2.86068,-0.206022,-0.286377,15.4205,0.26647,
2,0,0,1,0,7080.99,0.265279,0.264961,-1.39554,4,0.0186227,10,-0.000369762,-2.85526,-0.20975,-0.281288,15.323,0.264961,
2,0,0,1,0,7081.01,0.263778,0.263537,-1.41709,4,0.0185871,10,-0.000373456,-2.8486,-0.298188,-0.197862,10.9302,0.263537,
2,0,0,1,0,7081.04,0.262284,0.262004,-1.43749,4,0.0185511,10,-0.000376629,-2.84239,-0.286742,-0.20576,11.5145,0.262004,
2,0,0,1,0,7081.06,0.260784,0.260491,-1.44973,4,0.0185146,10,-0.000377642,-2.83871,-0.255982,-0.230485,13.0875,0.260491,
2,0,0,1,0,7081.09,0.259285,0.259003,-1.46133,4,0.0184776,10,-0.000378489,-2.83525,-0.255101,-0.231281,13.3241,0.259003,
2,0,0,1,0,7081.11,0.257791,0.257472,-1.49381,4,0.0184403,10,-0.000384614,-2.8257,-0.35449,-0.166436,9.67104,0.257472,
2,0,0,1,0,7081.14,0.25629,0.255936,-1.51173,4,0.0184024,10,-0.000386907,-2.82053,-0.362652,-0.16269,9.52137,0.255936,
2,0,0,1,0,7081.16,0.254789,0.254486,-1.51813,4,0.0183641,10,-0.000386343,-2.81869,-0.30047,-0.196359,11.6585,0.254486,
2,0,0,1,0,7081.19,0.253296,0.252971,-1.53424,4,0.0183257,10,-0.000388117,-2.81411,-0.388402,-0.151905,9.12872,0.252971,
2,0,0,1,0,7081.21,0.251797,0.251491,-1.55025,4,0.0182867,10,-0.000389874,-2.8096,-0.332597,-0.177392,10.7172,0.251491,
2,0,0,1,0,7081.24,0.250297,0.249972,-1.57244,4,0.0182472,10,-0.000393065,-2.80343,-0.393107,-0.150086,9.1519,0.249972,
2,0,0,1,0,7081.26,0.248797,0.248484,-1.58561,4,0.0182073,10,-0.000393999,-2.7998,-0.360502,-0.163661,10.1139,0.248484,
2,0,0,1,0,7081.29,0.247303,0.246955,-1.58729,4,0.0181674,10,-0.000391989,-2.79934,-0.335067,-0.176084,10.9898,0.246955,
2,0,0,1,0,7081.31,0.245802,0.245563,-1.61322,4,0.0181269,10,-0.000396148,-2.79231,-0.395929,-0.149017,9.34946,0.245563,
2,0,0,1,0,7081.34,0.244302,0.244007,-1.63416,4,0.0180859,10,-0.000398745,-2.78671,-0.412783,-0.142932,9.04868,0.244007,
2,0,0,1,0,7081.36,0.242807,0.242473,-1.64289,4,0.0180448,10,-0.000398356,-2.78439,-0.380424,-0.15509,9.9234,0.242473,
2,0,0,1,0,7081.39,0.241308,0.241037,-1.64393,4,0.0180032,10,-0.000396247,-2.78412,-0.416645,-0.141608,9.15566,0.241037,
2,0,0,1,0,7081.41,0.239808,0.239518,-1.66429,4,0.0179613,10,-0.000398629,-2.77877,-0.399907,-0.147534,9.59007,0.239518,
2,0,0,1,0,7081.44,0.238309,0.238035,-1.68331,4,0.017919,10,-0.000400687,-2.77384,-0.475032,-0.124202,8.14567,0.238035,
2,0,0,1,0,7081.46,0.236815,0.236494,-1.69738,4,0.0178765,10,-0.000401421,-2.77022,-0.398405,-0.148091,9.79734,0.236494,
2,0,0,1,0,7081.49,0.235315,0.234984,-1.69917,4,0.0178335,10,-0.000399277,-2.76976,-0.397099,-0.148578,9.91626,0.234984,
2,0,0,1,0,7081.51,0.233814,0.233476,-1.71801,4,0.0177903,10,-0.000401113,-2.76497,-0.455232,-0.129604,8.71583,0.233476,
2,0,0,1,0,7081.54,0.23232,0.232009,-1.74321,4,0.0177468,10,-0.00040444,-2.75865,-0.439343,-0.134291,9.07152,0.232009,
2,0,0,1,0,7081.56,0.230821,0.230547,-1.75143,4,0.0177027,10,-0.000403787,-2.75661,-0.507204,-0.116324,7.92833,0.2305474,
2,0,0,1,0,7081.59,0.229321,0.229014,-1.75442,4,0.0176583,10,-0.000401788,-2.75587,-0.477853,-0.123469,8.50721,0.229014,
2,0,0,1,0,7081.61,0.227827,0.227548,-1.76927,4,0.0176139,10,-0.000402594,-2.7522,-0.614511,-0.0960112,6.66575,0.227548,
2,0,0,1,0,7081.64,0.226326,0.226031,-1.79511,4,0.017569,10,-0.000405749,-2.74591,-0.590348,-0.0999411,6.97024,0.2260309,
2,0,0,1,0,7081.66,0.224825,0.224514,-1.8046,4,0.0175236,10,-0.000405157,-2.74362,-0.394684,-0.149486,10.4952,0.224514,
2,0,0,1,0,7081.69,0.223331,0.223011,-1.81071,4,0.0174781,10,-0.000403809,-2.74215,-0.457397,-0.128991,9.13953,0.223011,
2,0,0,1,0,7081.71,0.221831,0.221532,-1.82259,4,0.0174322,10,-0.000403762,-2.73931,-0.593474,-0.0994147,7.10273,0.221532,
2,0,0,1,0,7081.74,0.220333,0.220031,-1.84155,4,0.0173859,10,-0.000405199,-2.73482,-0.414441,-0.14236,10.2179,0.220031,
2,0,0,1,0,7081.76,0.218834,0.218522,-1.86033,4,0.0173392,10,-0.000406521,-2.73041,-0.404761,-0.145765,10.5412,0.218522,
2,0,0,1,0,7081.79,0.217339,0.217015,-1.86657,4,0.0172924,10,-0.000405073,-2.72896,-0.600509,-0.0982499,7.18199,0.217015,
2,0,0,1,0,7081.81,0.215839,0.215536,-1.87268,4,0.0172451,10,-0.000403629,-2.72754,-0.703024,-0.0839232,6.1683,0.215536,
2,0,0,1,0,7081.84,0.214338,0.214035,-1.89371,4,0.0171975,10,-0.00040532,-2.72269,-0.560045,-0.105349,7.77866,0.214035,
2,0,0,1,0,7081.86,0.212844,0.212557,-1.91003,4,0.0171497,10,-0.00040599,-2.71896,-0.367898,-0.160371,11.9298,0.212557,
2,0,0,1,0,7081.89,0.211344,0.211051,-1.91961,4,0.0171015,10,-0.000405136,-2.71679,-0.576955,-0.102261,7.67422,0.211051,
2,0,0,1,0,7081.91,0.209845,0.209529,-1.92664,4,0.0170528,10,-0.000403687,-2.7152,-0.576057,-0.10242,7.72048,0.209529,
2,0,0,1,0,7081.94,0.20835,0.207975,-1.95135,4,0.0170041,10,-0.000405832,-2.70966,-0.357233,-0.165158,12.5981,0.207975,
2,0,0,1,0,7081.96,0.206851,0.206535,-1.97301,4,0.0169547,10,-0.000407495,-2.70487,-0.386744,-0.152556,11.6799,0.206535,
2,0,0,1,0,7081.99,0.20535,0.205001,-1.98113,4,0.0169047,10,-0.000406134,-2.70309,-0.473358,-0.124641,9.62866,0.205001,
2,0,0,1,0,7082.01,0.203856,0.203569,-1.99276,4,0.0168547,10,-0.000405665,-2.70054,-0.745038,-0.0791906,6.17187,0.203569,
2,0,0,1,0,7082.04,0.202356,0.202052,-2.00905,4,0.0168043,10,-0.000405932,-2.69701,-0.512833,-0.115047,9.0376,0.202052,
2,0,0,1,0,7082.06,0.200857,0.200547,-2.02576,4,0.0167534,10,-0.000406261,-2.69341,-0.361058,-0.163409,12.9013,0.200547,
2,0,0,1,0,7082.09,0.199357,0.199022,-2.03898,4,0.0167021,10,-0.000405801,-2.69059,-0.394388,-0.149599,11.9152,0.199022,
2,0,0,1,0,7082.11,0.197863,0.197477,-2.05742,4,0.0166506,10,-0.000406292,-2.68668,-0.534264,-0.110432,8.87515,0.197477,
2,0,0,1,0,7082.14,0.196362,0.196053,-2.07501,4,0.0165986,10,-0.000406811,-2.68298,-0.444409,-0.132761,10.7493,0.196053,
2,0,0,1,0,7082.16,0.194861,0.194513,-2.0932,4,0.0165461,10,-0.000407153,-2.67919,-0.317257,-0.185969,15.1559,0.194513,
2,0,0,1,0,7082.19,0.193367,0.193046,-2.10899,4,0.0164933,10,-0.000407132,-2.67593,-0.355671,-0.165884,13.6758,0.193046,
2,0,0,1,0,7082.21,0.191868,0.191539,-2.12736,4,0.0164399,10,-0.000407473,-2.67216,-0.538126,-0.10964,9.12411,0.191539,
2,0,0,1,0,7082.24,0.190368,0.190044,-2.14403,4,0.016386,10,-0.00040746,-2.66877,-0.489249,-0.120593,10.1065,0.190044,
2,0,0,1,0,7082.26,0.18887,0.188548,-2.16811,4,0.0163317,10,-0.000408793,-2.66392,-0.30089,-0.196085,16.5588,0.1885483,
2,0,0,1,0,7082.29,0.187376,0.187048,-2.18425,4,0.016277,10,-0.00040856,-2.6607,-0.298217,-0.197843,16.913,0.187048,
2,0,0,1,0,7082.31,0.185875,0.185573,-2.20649,4,0.0162216,10,-0.000409465,-2.6563,-0.440825,-0.13384,11.538,0.185573,
2,0,0,1,0,7082.34,0.184374,0.184048,-2.23036,4,0.0161656,10,-0.000410493,-2.65163,-0.374808,-0.157414,13.7031,0.184048,
2,0,0,1,0,7082.36,0.18288,0.182554,-2.25963,4,0.0161094,10,-0.000412504,-2.64596,-0.314955,-0.187328,16.5007,0.182554,
2,0,0,1,0,7082.39,0.18138,0.181068,-2.28058,4,0.0160522,10,-0.00041294,-2.64195,-0.265822,-0.221953,19.7959,0.181068,
2,0,0,1,0,7082.41,0.179881,0.179517,-2.29875,4,0.0159943,10,-0.000412665,-2.63851,-0.381213,-0.154769,13.9515,0.179517,
2,0,0,1,0,7082.44,0.178387,0.17813,-2.3394,4,0.0159361,10,-0.000416716,-2.6309,-0.32107,-0.18376,16.7834,0.17813,
2,0,0,1,0,7082.46,0.176886,0.176561,-2.36844,4,0.015877,10,-0.000418174,-2.62554,-0.254854,-0.231505,21.343,0.176561,
2,0,0,1,0,7082.49,0.175385,0.175111,-2.39477,4,0.0158171,10,-0.000419349,-2.62074,-0.233149,-0.253057,23.6587,0.175111,
2,0,0,1,0,7082.51,0.173892,0.173577,-2.42541,4,0.0157566,10,-0.000420995,-2.61522,-0.235589,-0.250436,23.7468,0.173577,
2,0,0,1,0,7082.54,0.172392,0.172107,-2.46313,4,0.0156951,10,-0.000423923,-2.60851,-0.235655,-0.250366,24.0618,0.172107,
2,0,0,1,0,7082.56,0.170893,0.170617,-2.49635,4,0.0156326,10,-0.00042592,-2.60269,-0.224662,-0.262617,25.6123,0.170617,
2,0,0,1,0,7082.59,0.169393,0.169073,-2.53483,4,0.0155692,10,-0.000428573,-2.59605,-0.179377,-0.328916,32.6568,0.169073,
2,0,0,1,0,7082.61,0.167899,0.167595,-2.58494,4,0.0155049,10,-0.000433223,-2.58755,-0.188699,-0.312667,31.6276,0.167595,
2,0,0,1,0,7082.64,0.166398,0.166082,-2.63723,4,0.0154392,10,-0.000437997,-2.57885,-0.208655,-0.282764,29.0778,0.166082,
2,0,0,1,0,7082.66,0.164898,0.164596,-2.68237,4,0.0153723,10,-0.000441506,-2.57148,-0.176329,-0.334601,35.0416,0.164596,
2,0,0,1,0,7082.69,0.163403,0.163054,-2.73327,4,0.0153044,10,-0.00044567,-2.56332,-0.149824,-0.393796,42.1562,0.163054,
2,0,0,1,0,7082.71,0.161904,0.161614,-2.79246,4,0.0152348,10,-0.000451301,-2.55401,-0.155822,-0.378637,41.4567,0.161614,
2,0,0,1,0,7082.74,0.160404,0.160089,-2.87006,4,0.0151635,10,-0.000459465,-2.54211,-0.155941,-0.378348,42.3314,0.160089,
2,0,0,1,0,7082.76,0.158905,0.158556,-2.93636,4,0.0150906,10,-0.000465578,-2.53219,-0.138543,-0.425861,48.8005,0.158556,
2,0,0,1,0,7082.79,0.157411,0.15707,-3.00527,4,0.0150162,10,-0.000472038,-2.52212,-0.120787,-0.488462,57.6049,0.15707,
2,0,0,1,0,7082.81,0.155911,0.155557,-3.09109,4,0.0149394,10,-0.000480842,-2.50989,-0.116797,-0.505151,61.2707,0.155557,
2,0,0,1,0,7082.84,0.15441,0.154095,-3.19824,4,0.0148602,10,-0.000492832,-2.49509,-0.114088,-0.517144,64.5067,0.154095,
2,0,0,1,0,7082.86,0.152916,0.152578,-3.30319,4,0.014779,10,-0.000503994,-2.48107,-0.107138,-0.550692,70.9066,0.152578,
2,0,0,1,0,7082.89,0.151417,0.151094,-3.4029,4,0.0146948,10,-0.000514159,-2.46815,-0.0987507,-0.597464,79.6222,0.151094,
2,0,0,1,0,7082.91,0.149917,0.149575,-3.52821,4,0.0146077,10,-0.000527731,-2.45245,-0.0916718,-0.643601,88.9255,0.149575,
2,0,0,1,0,7082.94,0.148423,0.148131,-3.67041,4,0.0145176,10,-0.000543703,-2.43529,-0.0916559,-0.643712,92.2783,0.1481313,
2,0,0,1,0,7082.96,0.146922,0.146571,-3.82086,4,0.0144236,10,-0.000560029,-2.41784,-0.0857696,-0.687889,102.571,0.1465714,
2,0,0,1,0,7082.99,0.145421,0.14511,-3.97546,4,0.0143259,10,-0.000576881,-2.40061,-0.0812493,-0.72616,112.8,0.14511,
2,0,0,1,0,7083.01,0.143927,0.143576,-4.14165,4,0.0142243,10,-0.000594641,-2.38283,-0.0801761,-0.735881,119.242,0.143576,
2,0,0,1,0,7083.04,0.142429,0.142116,-4.33348,4,0.0141179,10,-0.000615857,-2.36316,-0.0817209,-0.721969,122.214,0.142116,
2,0,0,1,0,7083.06,0.140929,0.140582,-4.53129,4,0.0140067,10,-0.000637017,-2.34378,-0.0778975,-0.757406,133.777,0.140582,
2,0,0,1,0,7083.09,0.13943,0.139144,-4.72091,4,0.0138906,10,-0.000656885,-2.32597,-0.0794589,-0.742522,136.956,0.139144,
2,0,0,1,0,7083.11,0.137935,0.137587,-4.92457,4,0.0137699,10,-0.000677557,-2.30763,-0.081143,-0.727111,140.084,0.137587,
2,0,0,1,0,7083.14,0.136435,0.136133,-5.14188,4,0.0136435,10,-0.00069998,-2.28888,-0.0847803,-0.695916,139.645,0.136133,
2,0,0,1,0,7083.16,0.134934,0.134614,-5.36628,4,0.0135117,10,-0.000722377,-2.27033,-0.0881595,-0.669241,139.58,0.134614,
2,0,0,1,0,7083.18,0.13344,0.133173,-5.56796,4,0.013375,10,-0.0007415,-2.2543,-0.0910132,-0.648258,140.771,0.133173,
2,0,0,1,0,7083.21,0.13194,0.131635,-5.76949,4,0.0132329,10,-0.000759464,-2.23886,-0.0975887,-0.604578,136.305,0.131635,
2,0,0,1,0,7083.23,0.13044,0.130136,-5.98245,4,0.0130854,10,-0.000778532,-2.22312,-0.102792,-0.573975,133.754,0.130136,
2,0,0,1,0,7083.26,0.128941,0.128659,-6.18441,4,0.0129328,10,-0.00079568,-2.2087,-0.111973,-0.526913,126.708,0.128659,
2,0,0,1,0,7083.28,0.127447,0.127143,-6.36486,4,0.012776,10,-0.000809246,-2.19621,-0.12294,-0.479907,118.953,0.127143,
2,0,0,1,0,7083.31,0.125946,0.125667,-6.52622,4,0.0126143,10,-0.000820128,-2.18534,-0.140279,-0.42059,107.147,0.125667,
2,0,0,1,0,7083.33,0.124446,0.124162,-6.69301,4,0.0124485,10,-0.000831015,-2.17438,-0.152695,-0.386391,100.699,0.124162,
2,0,0,1,0,7083.36,0.122952,0.122627,-6.84768,4,0.0122795,10,-0.000839712,-2.16446,-0.167257,-0.35275,93.9264,0.122627,
2,0,0,1,0,7083.38,0.121453,0.121149,-6.9732,4,0.0121063,10,-0.000844798,-2.15657,-0.191817,-0.307585,83.4557,0.1211492,
2,0,0,1,0,7083.41,0.119953,0.119693,-7.06961,4,0.0119302,10,-0.00084618,-2.1506,-0.225699,-0.26141,72.2239,0.119693,
2,0,0,1,0,7083.43,0.118459,0.118191,-7.18383,4,0.0117521,10,-0.000849066,-2.14364,-0.26298,-0.224352,62.8382,0.118191,
2,0,0,1,0,7083.46,0.116958,0.116649,-7.28409,4,0.0115708,10,-0.000849683,-2.13762,-0.309923,-0.19037,53.9409,0.116649,
2,0,0,1,0,7083.48,0.115457,0.115131,-7.35575,4,0.0113875,10,-0.000846873,-2.13337,-0.38202,-0.154442,44.1951,0.115131,
2,0,0,1,0,7083.51,0.113963,0.113606,-7.40088,4,0.0112033,10,-0.000840781,-2.13072,-0.496073,-0.118934,34.3234,0.113606,
2,0,0,1,0,7083.53,0.112464,0.11212,-7.45546,4,0.0110172,10,-0.000835905,-2.12753,-0.718507,-0.0821147,23.847,0.11212,
2,0,0,1,0,7083.56,0.110965,0.110698,-7.48574,4,0.01083,10,-0.000828657,-2.12577,-0.950339,-0.0620831,18.0974,0.110698,
2,0,0,1,0,7083.58,0.109466,0.109137,-7.49959,4,0.0106422,10,-0.000818483,-2.12496,-1.8318,-0.0322087,9.41126,0.109137,
2,0,0,1,0,7083.61,0.107972,0.107617,-7.50682,4,0.0104548,10,-0.000807865,-2.12454,9.36362,0.00630098,-1.84383,0.107617,
2,0,0,1,0,7083.63,0.106471,0.10619,-7.49287,4,0.0102669,10,-0.000795669,-2.12535,1.49293,0.0395196,-11.5599,0.1061902,
2,0,0,1,0,7083.66,0.10497,0.104655,-7.48629,4,0.0100792,10,-0.000783479,-2.12573,1.23007,0.0479646,-13.9748,0.104655,
2,0,0,1,0,7083.68,0.103476,0.103156,-7.4587,4,0.00989277,10,-0.000769406,-2.12734,0.819481,0.0719967,-20.9013,0.103156,
2,0,0,1,0,7083.71,0.101976,0.10165,-7.40928,4,0.00970643,10,-0.000753151,-2.13022,0.532098,0.110882,-32.0407,0.10165,
2,0,0,1,0,7083.73,0.100477,0.100194,-7.35372,4,0.0095214,10,-0.000736799,-2.13349,0.413265,0.142765,-40.9652,0.100194,
2,0,0,1,0,7083.76,0.0989825,0.0986316,-7.30286,4,0.00933849,10,-0.000720293,-2.13651,0.396142,0.148937,-42.3601,0.0986316,
2,0,0,1,0,7083.78,0.0974817,0.0971659,-7.23752,4,0.00915643,10,-0.00070324,-2.14041,0.367171,0.160688,-45.29,0.0971659,
2,0,0,1,0,7083.81,0.0959822,0.0956613,-7.1463,4,0.00897618,10,-0.000683625,-2.14592,0.298518,0.197643,-55.0911,0.0956613,
2,0,0,1,0,7083.83,0.094488,0.0941654,-7.05655,4,0.00879876,10,-0.000664483,-2.15141,0.26061,0.226392,-62.4004,0.0941654,
2,0,0,1,0,7083.86,0.0929884,0.0926745,-6.97623,4,0.00862294,10,-0.000646518,-2.15638,0.26513,0.222532,-60.5286,0.0926745,
2,0,0,1,0,7083.88,0.0914889,0.0911785,-6.8859,4,0.00844932,10,-0.000627846,-2.16204,0.269047,0.219292,-58.8731,0.0911785,
2,0,0,1,0,7083.91,0.0899894,0.0896476,-6.78701,4,0.00827797,10,-0.000608439,-2.16832,0.249698,0.236286,-62.5918,0.0896476,
2,0,0,1,0,7083.93,0.0884951,0.0881805,-6.68858,4,0.00810966,10,-0.000589803,-2.17467,0.236164,0.249826,-65.2658,0.0881805,
2,0,0,1,0,7083.96,0.0869943,0.086689,-6.60023,4,0.00794309,10,-0.000572168,-2.18044,0.242757,0.243041,-62.6145,0.08668898,
2,0,0,1,0,7083.98,0.0854935,0.0851545,-6.51301,4,0.00777879,10,-0.000554612,-2.18622,0.268914,0.219401,-55.7678,0.0851545,
2,0,0,1,0,7084.01,0.0839993,0.0837027,-6.42833,4,0.0076172,10,-0.000538069,-2.1919,0.265247,0.222434,-55.8262,0.0837027,
2,0,0,1,0,7084.03,0.0824998,0.0821881,-6.35175,4,0.00745699,10,-0.000522038,-2.19711,0.277429,0.212667,-52.766,0.0821881,
2,0,0,1,0,7084.06,0.0810002,0.0806996,-6.27782,4,0.00729882,10,-0.000506618,-2.20219,0.309195,0.190818,-46.7945,0.0806996,
2,0,0,1,0,7084.08,0.0795007,0.0791991,-6.21302,4,0.00714231,10,-0.000492066,-2.2067,0.363464,0.162327,-39.3811,0.0791991,
2,0,0,1,0,7084.11,0.0780078,0.0776685,-6.14927,4,0.00698791,10,-0.000477604,-2.21118,0.376106,0.156871,-37.6932,0.0776685,
2,0,0,1,0,7084.13,0.076507,0.0761872,-6.09281,4,0.00683439,10,-0.000464194,-2.21518,0.352439,0.167405,-39.8441,0.0761872,
2,0,0,1,0,7084.16,0.0750062,0.0746863,-6.04041,4,0.00668232,10,-0.000451136,-2.21893,0.40509,0.145647,-34.3356,0.0746863,
2,0,0,1,0,7084.18,0.073512,0.0731892,-5.9922,4,0.00653211,10,-0.000438564,-2.22241,0.488504,0.120777,-28.2432,0.0731892,
2,0,0,1,0,7084.21,0.0720124,0.0717185,-5.94281,4,0.00638244,10,-0.000426209,-2.22601,0.507037,0.116362,-27.0442,0.0717185,
2,0,0,1,0,7084.23,0.0705129,0.0702152,-5.9033,4,0.00623381,10,-0.000414501,-2.22891,0.451695,0.130619,-30.1101,0.0702152,
2,0,0,1,0,7084.26,0.0690187,0.0687137,-5.86497,4,0.00608686,10,-0.000403004,-2.23173,0.45869,0.128627,-29.4348,0.0687137,
2,0,0,1,0,7084.28,0.0675179,0.0672237,-5.82642,4,0.00594035,10,-0.000391674,-2.2346,0.618996,0.0953156,-21.6769,0.06722369,
2,0,0,1,0,7084.31,0.066017,0.065753,-5.78899,4,0.00579475,10,-0.000380643,-2.2374,0.619492,0.0952393,-21.5228,0.065753,
2,0,0,1,0,7084.33,0.0645242,0.0642476,-5.75188,4,0.00565053,10,-0.000369544,-2.24019,0.505548,0.116705,-26.1998,0.0642476,
2,0,0,1,0,7084.36,0.0630246,0.0627074,-5.7185,4,0.00550667,10,-0.000358592,-2.24272,0.521594,0.113115,-25.2383,0.0627074,
2,0,0,1,0,7084.38,0.0615251,0.0611825,-5.67588,4,0.00536382,10,-0.000347264,-2.24597,0.565536,0.104326,-23.1284,0.0611825,
2,0,0,1,0,7084.41,0.0600256,0.0596916,-5.63952,4,0.00522186,10,-0.000336632,-2.24876,0.610051,0.0967131,-21.3143,0.0596916,
2,0,0,1,0,7084.43,0.0585314,0.0582321,-5.6057,4,0.00508136,10,-0.000326432,-2.25137,0.483785,0.121955,-26.6821,0.0582321,
2,0,0,1,0,7084.46,0.0570305,0.0566805,-5.57417,4,0.00494113,10,-0.000315947,-2.25382,0.471285,0.12519,-27.1999,0.05668046,
2,0,0,1,0,7084.48,0.0555297,0.05521,-5.53619,4,0.00480201,10,-0.000305653,-2.25679,0.557262,0.105875,-22.8638,0.05521,
2,0,0,1,0,7084.51,0.0540355,0.0537429,-5.49719,4,0.00466427,10,-0.000295434,-2.25986,0.625598,0.0943098,-20.2199,0.0537429,
2,0,0,1,0,7084.53,0.052536,0.0522187,-5.4598,4,0.00452681,10,-0.000285104,-2.26282,0.492817,0.11972,-25.5169,0.0522187,
2,0,0,1,0,7084.56,0.0510364,0.0507005,-5.42814,4,0.00439032,10,-0.000275209,-2.26535,0.414357,0.142389,-30.1125,0.0507005,
2,0,0,1,0,7084.58,0.0495369,0.04923,-5.37925,4,0.00425488,10,-0.00026482,-2.26928,0.495372,0.119102,-25.0244,0.04923,
2,0,0,1,0,7084.61,0.0480427,0.0477011,-5.33401,4,0.00412102,10,-0.000254438,-2.27295,0.527706,0.111805,-23.3045,0.0477011,
2,0,0,1,0,7084.63,0.0465432,0.0462656,-5.30007,4,0.00398753,10,-0.000245211,-2.27572,0.446834,0.13204,-27.3048,0.0462656,
2,0,0,1,0,7084.66,0.0450424,0.0447428,-5.26466,4,0.00385504,10,-0.000235556,-2.27863,0.386966,0.152468,-31.2859,0.0447428,
2,0,0,1,0,7084.68,0.0435482,0.0432701,-5.21723,4,0.00372414,10,-0.00022575,-2.28256,0.408059,0.144587,-29.4191,0.0432701,
2,0,0,1,0,7084.71,0.0420486,0.0417648,-5.16706,4,0.00359392,10,-0.000215801,-2.28676,0.439219,0.134329,-27.1237,0.0417648,
2,0,0,1,0,7084.73,0.0405491,0.0402538,-5.1235,4,0.00346475,10,-0.00020624,-2.29043,0.393033,0.150115,-30.0343,0.0402538,
2,0,0,1,0,7084.76,0.0390549,0.0387065,-5.08926,4,0.00333711,10,-0.000196987,-2.29335,0.346414,0.170316,-33.7632,0.0387065,
2,0,0,1,0,7084.78,0.0375541,0.0372679,-5.03712,4,0.00321009,10,-0.000187723,-2.29782,0.350608,0.168279,-33.0323,0.0372679,
2,0,0,1,0,7084.81,0.0360532,0.0357663,-4.98167,4,0.0030845,10,-0.000178176,-2.30262,0.354276,0.166537,-32.4189,0.0357663,
2,0,0,1,0,7084.83,0.034559,0.0342263,-4.93188,4,0.00296065,10,-0.0001688,-2.30699,0.335326,0.175948,-33.8805,0.0342263,
2,0,0,1,0,7084.86,0.0330595,0.0327811,-4.8841,4,0.00283746,10,-0.000160106,-2.31122,0.316318,0.186521,-35.5078,0.0327811,
2,0,0,1,0,7084.88,0.0315613,0.0312268,-4.83507,4,0.00271555,10,-0.000150984,-2.3156,0.324675,0.18172,-34.2451,0.0312268,
2,0,0,1,0,7084.91,0.0300618,0.0297351,-4.77513,4,0.00259506,10,-0.000141989,-2.32101,0.319847,0.184463,-34.401,0.0297351,
2,0,0,1,0,7084.93,0.0285676,0.0282527,-4.71932,4,0.00247635,10,-0.000133333,-2.32612,0.314415,0.18765,-34.6245,0.0282527,
2,0,0,1,0,7084.96,0.0270667,0.0267546,-4.68035,4,0.00235838,10,-0.000125221,-2.32972,0.307724,0.19173,-34.9536,0.0267546,
2,0,0,1,0,7084.98,0.0255659,0.0252208,-4.63036,4,0.00224162,10,-0.000116781,-2.33439,0.299454,0.197025,-35.513,0.0252208,
2,0,0,1,0,7085.01,0.0240717,0.0237773,-4.56918,4,0.00212673,10,-0.000108643,-2.34016,0.332439,0.177476,-31.6951,0.0237773,
2,0,0,1,0,7085.03,0.0225722,0.0222769,-4.51878,4,0.00201269,10,-0.000100664,-2.34498,0.33715,0.174996,-30.915,0.0222769,
2,0,0,1,0,7085.06,0.0210726,0.0207878,-4.48174,4,0.00189972,10,-9.31655e-05,-2.34855,0.320376,0.184158,-32.1774,0.0207878,
2,0,0,1,0,7085.08,0.0195784,0.0192342,-4.43755,4,0.00178826,10,-8.53524e-05,-2.35286,0.351859,0.167681,-28.9911,0.0192342,
2,0,0,1,0,7085.11,0.0180789,0.0178031,-4.38287,4,0.00167755,10,-7.80287e-05,-2.35824,0.378526,0.155868,-26.7219,0.0178031,
2,0,0,1,0,7085.13,0.0165781,0.0162842,-4.34174,4,0.00156797,10,-7.07016e-05,-2.36234,0.374982,0.157341,-26.7677,0.0162842,
2,0,0,1,0,7085.16,0.0150839,0.0147635,-4.31574,4,0.0014597,10,-6.37152e-05,-2.36494,0.424275,0.139061,-23.4154,0.0147635,
2,0,0,1,0,7085.18,0.0135844,0.0132783,-4.28171,4,0.00135176,10,-5.68537e-05,-2.36838,0.430284,0.137119,-22.88,0.0132783,
2,0,0,1,0,7085.21,0.0120848,0.0117523,-4.25048,4,0.00124466,10,-4.9953e-05,-2.37156,0.497528,0.118586,-19.6815,0.0117523,
2,0,0,1,0,7085.23,0.0105853,0.0102472,-4.20941,4,0.00113849,10,-4.31349e-05,-2.37578,0.459067,0.128521,-21.1815,0.0102472,
2,0,0,1,0,7085.26,0.00909108,0.00877857,-4.19427,4,0.00103344,10,-3.68197e-05,-2.37734,0.555871,0.10614,-17.3658,0.008778573,
2,0,0,1,0,7085.28,0.00759027,0.00726364,-4.17345,4,0.000928556,10,-3.03144e-05,-2.37951,0.730629,0.0807524,-13.1253,0.00726364,
2,0,0,1,0,7085.31,0.00608945,0.00576931,-4.14601,4,0.000824207,10,-2.39196e-05,-2.38237,0.729642,0.0808616,-13.0836,0.00576931,
2,0,0,1,0,7085.33,0.00459524,0.00428891,-4.12334,4,0.000720889,10,-1.76846e-05,-2.38475,0.828352,0.0712258,-11.4841,0.00428891,
2,0,0,1,0,7085.36,0.0030957,0.00279932,-4.10859,4,0.000617555,10,-1.15013e-05,-2.38631,51.8043,0.0011389,-0.183251,0.00279932,
2,0,0,1,0,7085.38,0.00159616,0.00126589,-4.1429,4,0.000513898,10,-5.24444e-06,-2.3827, , , ,0.001265888,
2,0,0,1,0,7085.41,0.000199195,-0.00019553,-4.1036,4,0.000417405,10,8.02375e-07,-2.38684, , , ,-0.00019553,