File: Figure_codes/Fig_3-5/rawdata_trumpetplot_data/after 10th/20221101_1-115_003_TrumpetPlot_ParaChange_from10_every3_12_CV_C01_12.csv
mode,ox/red,error,control changes,counter inc.,time/s,control/V,Ewe/V,<I>/mA,cycle number,(Q-Qo)/C,I Range,P/W,log(|I|),Tafel slope mV/dec,alpha_eff,dI/d(E-IR),E-IR/V,
2,1,0,1,0,24838.1,2.44065e-05,-0.0002108,17.2789,13,0.0000000E+000,10,-3.64239e-06,-1.76248, , , ,-0.0002108,
2,1,0,1,0,24838.1,0.00200257,0.00163537,18.3049,13,5.55949e-05,10,2.99352e-05,-1.73743, , , ,0.00163537,
2,1,0,1,0,24838.1,0.004408,0.00407536,19.1925,13,0.000130766,10,7.82166e-05,-1.71687, , , ,0.00407536,
2,1,0,1,0,24838.1,0.0068051,0.00645173,19.8812,13,0.000209018,10,0.000128268,-1.70156,0.156628,0.376689,289.003,0.00645173,
2,1,0,1,0,24838.1,0.00920221,0.00885674,20.5053,13,0.000289879,10,0.00018161,-1.68813,0.185489,0.318078,252.928,0.00885674,
2,1,0,1,0,24838.1,0.0115993,0.0112299,21.0777,13,0.000373133,10,0.000236701,-1.67618,0.210763,0.279935,229.007,0.0112299,
2,1,0,1,0,24838.1,0.0140075,0.0136148,21.6053,13,0.000458555,10,0.000294152,-1.66544,0.23433,0.251781,211.265,0.0136148,
2,1,0,1,0,24838.1,0.0164046,0.0160569,22.0808,13,0.000545976,10,0.000354549,-1.65599,0.257269,0.229332,196.989,0.0160569,
2,1,0,1,0,24838.1,0.0188017,0.0184237,22.5265,13,0.000635255,10,0.000415022,-1.64731,0.283566,0.208065,182.478,0.0184237,
2,1,0,1,0,24838.1,0.0212099,0.0208298,22.9688,13,0.000726264,10,0.000478435,-1.63886,0.305633,0.193042,172.537,0.0208298,
2,1,0,1,0,24838.1,0.023607,0.0232422,23.3621,13,0.000818966,10,0.000542987,-1.63149,0.325834,0.181074,164.722,0.0232422,
2,1,0,1,0,24838.1,0.0260041,0.0256875,23.7424,13,0.000913224,10,0.000609884,-1.62447,0.350219,0.168466,155.879,0.0256875,
2,1,0,1,0,24838.1,0.0284012,0.0280395,24.1104,13,0.00100897,10,0.000676044,-1.6178,0.37024,0.159356,149.732,0.0280395,
2,1,0,1,0,24838.1,0.0308067,0.0304275,24.4649,13,0.00110618,10,0.000744405,-1.61146,0.383424,0.153876,146.759,0.0304275,
2,1,0,1,0,24838.1,0.0332038,0.0328718,24.804,13,0.00120475,10,0.00081535,-1.60548,0.401802,0.146839,142.039,0.03287176,
2,1,0,1,0,24838.1,0.0356009,0.0352598,25.1473,13,0.00130467,10,0.000886687,-1.59951,0.421403,0.140008,137.253,0.0352598,
2,1,0,1,0,24838.1,0.0380091,0.0376383,25.4738,13,0.00140595,10,0.000958791,-1.59391,0.429609,0.137334,136.402,0.0376383,
2,1,0,1,0,24838.2,0.0404062,0.0400454,25.7849,13,0.00150848,10,0.00103257,-1.58863,0.450975,0.130828,131.597,0.04004541,
2,1,0,1,0,24838.2,0.0428033,0.0424175,26.106,13,0.0016123,10,0.00110735,-1.58326,0.460708,0.128064,130.437,0.0424175,
2,1,0,1,0,24838.2,0.0452032,0.0448628,26.411,13,0.00171734,10,0.00118487,-1.57822,0.466609,0.126444,130.302,0.0448628,
2,1,0,1,0,24838.2,0.0476058,0.047289,26.7326,13,0.00182367,10,0.00126416,-1.57296,0.482001,0.122406,127.619,0.047289,
2,1,0,1,0,24838.2,0.0500029,0.049641,27.0353,13,0.00193123,10,0.00134206,-1.56807,0.475862,0.123985,130.813,0.049641,
2,1,0,1,0,24838.2,0.0524,0.0520269,27.3324,13,0.00203999,10,0.00142202,-1.56332,0.487849,0.120939,129.073,0.0520269,
2,1,0,1,0,24838.2,0.0548082,0.0544691,27.6676,13,0.00215002,10,0.00150703,-1.55803,0.487212,0.121097,130.713,0.05446906,
2,1,0,1,0,24838.2,0.0572053,0.0568783,27.9704,13,0.00226131,10,0.00159091,-1.5533,0.483236,0.122094,133.278,0.0568783,
2,1,0,1,0,24838.2,0.0596024,0.059243,28.2904,13,0.00237386,10,0.00167601,-1.54836,0.49468,0.119269,131.699,0.059243,
2,1,0,1,0,24838.2,0.0620051,0.0616777,28.6186,13,0.00248771,10,0.00176513,-1.54335,0.487475,0.121032,135.147,0.0616777,
2,1,0,1,0,24838.2,0.0644077,0.0640509,28.9295,13,0.00260283,10,0.00185296,-1.53866,0.495588,0.119051,134.424,0.0640509,
2,1,0,1,0,24838.2,0.0668048,0.0664421,29.2629,13,0.00271923,10,0.00194429,-1.53368,0.494452,0.119324,136.293,0.06644211,
2,1,0,1,0,24838.2,0.0692019,0.068863,29.5835,13,0.00283694,10,0.00203721,-1.52895,0.48756,0.121011,139.754,0.068863,
2,1,0,1,0,24838.2,0.0716074,0.0712659,29.9254,13,0.00295599,10,0.00213266,-1.52396,0.500801,0.117811,137.555,0.0712659,
2,1,0,1,0,24838.2,0.0740045,0.0736051,30.2648,13,0.0030764,10,0.00222764,-1.51906,0.49551,0.119069,140.588,0.07360515,
2,1,0,1,0,24838.2,0.0764016,0.0760324,30.5821,13,0.00319813,10,0.00232523,-1.51453,0.495259,0.11913,142.268,0.0760324,
2,1,0,1,0,24838.2,0.0788042,0.0784735,30.9347,13,0.00332119,10,0.00242755,-1.50955,0.501963,0.117538,141.936,0.0784735,
2,1,0,1,0,24838.2,0.0812069,0.0808212,31.2848,13,0.00344567,10,0.00252848,-1.50467,0.491592,0.120018,146.509,0.0808212,
2,1,0,1,0,24838.2,0.083604,0.0832199,31.6294,13,0.00357154,10,0.0026322,-1.49991,0.493014,0.119672,147.753,0.0832199,
2,1,0,1,0,24838.2,0.0860011,0.0856174,31.9864,13,0.0036988,10,0.00273859,-1.49504,0.497576,0.118575,148.033,0.0856174,
2,1,0,1,0,24838.2,0.0884065,0.0880373,32.3477,13,0.00382752,10,0.00284781,-1.49016,0.494293,0.119362,150.689,0.0880373,
2,1,0,1,0,24838.2,0.0908036,0.0904073,32.7039,13,0.00395764,10,0.00295667,-1.4854,0.498605,0.11833,151.047,0.0904073,
2,1,0,1,0,24838.2,0.0932007,0.0928314,33.0778,13,0.00408925,10,0.00307066,-1.48046,0.498122,0.118445,152.894,0.0928314,
2,1,0,1,0,24838.2,0.0956034,0.0952438,33.4404,13,0.00422233,10,0.00318499,-1.47573,0.50817,0.116103,151.47,0.0952438,
2,1,0,1,0,24838.2,0.098006,0.0976329,33.8148,13,0.00435689,10,0.00330144,-1.47089,0.519629,0.113543,149.738,0.0976329,
2,1,0,1,0,24838.3,0.100403,0.100047,34.1641,13,0.00449288,10,0.00341803,-1.46643,0.524066,0.112581,150.071,0.100047,
2,1,0,1,0,24838.3,0.1028,0.102435,34.5159,13,0.00463026,10,0.00353565,-1.46198,0.543119,0.108632,146.311,0.102435,
2,1,0,1,0,24838.3,0.105208,0.104849,34.8819,13,0.0047691,10,0.00365733,-1.4574,0.53123,0.111063,151.18,0.104849,
2,1,0,1,0,24838.3,0.107606,0.107212,35.2163,13,0.00490933,10,0.0037756,-1.45326,0.522928,0.112826,155.229,0.107212,
2,1,0,1,0,24838.3,0.110003,0.109569,35.6035,13,0.00505098,10,0.00390104,-1.44851,0.52265,0.112886,156.95,0.109569,
2,1,0,1,0,24838.3,0.112408,0.112004,36.0011,13,0.00519423,10,0.00403225,-1.44368,0.509919,0.115705,162.527,0.112004,
2,1,0,1,0,24838.3,0.114805,0.114387,36.3789,13,0.00533904,10,0.00416129,-1.43915,0.515325,0.114491,162.582,0.114387,
2,1,0,1,0,24838.3,0.117202,0.116833,36.78,13,0.0054854,10,0.0042971,-1.43439,0.517451,0.114021,163.686,0.116833,
2,1,0,1,0,24838.3,0.119599,0.119268,37.1805,13,0.00563336,10,0.00443446,-1.42968,0.518893,0.113704,164.951,0.119268,
2,1,0,1,0,24838.3,0.122008,0.121644,37.5791,13,0.00578292,10,0.00457126,-1.42505,0.522463,0.112927,165.594,0.121644,
2,1,0,1,0,24838.3,0.124405,0.124073,37.9766,13,0.00593405,10,0.00471187,-1.42048,0.513631,0.114868,170.315,0.1240731,
2,1,0,1,0,24838.3,0.126802,0.126488,38.3788,13,0.0060868,10,0.00485444,-1.41591,0.504378,0.116976,175.37,0.126488,
2,1,0,1,0,24838.3,0.129207,0.128864,38.8148,13,0.00624123,10,0.00500183,-1.411,0.497484,0.118597,179.743,0.128864,
2,1,0,1,0,24838.3,0.131604,0.131241,39.2622,13,0.00639743,10,0.00515283,-1.40602,0.485263,0.121584,186.291,0.131241,
2,1,0,1,0,24838.3,0.134001,0.133688,39.7047,13,0.00655541,10,0.00530804,-1.40116,0.481576,0.122514,189.896,0.133688,
2,1,0,1,0,24838.3,0.136399,0.136022,40.1549,13,0.00671518,10,0.00546194,-1.39626,0.484493,0.121777,190.921,0.136022,
2,1,0,1,0,24838.3,0.138807,0.138429,40.6311,13,0.00687681,10,0.00562452,-1.39114,0.473931,0.124491,197.443,0.138429,
2,1,0,1,0,24838.3,0.141204,0.140848,41.0963,13,0.00704031,10,0.00578831,-1.3862,0.474372,0.124375,199.533,0.140848,
2,1,0,1,0,24838.3,0.143601,0.143223,41.5874,13,0.00720572,10,0.00595627,-1.38104,0.48416,0.121861,197.721,0.143223,
2,1,0,1,0,24838.3,0.146009,0.145642,42.0744,13,0.0073731,10,0.00612779,-1.37598,0.487206,0.121099,198.685,0.145642,
2,1,0,1,0,24838.3,0.148406,0.148044,42.5321,13,0.00754234,10,0.00629661,-1.37128,0.501175,0.117723,195.36,0.148044,
2,1,0,1,0,24838.3,0.150803,0.15042,42.9982,13,0.00771346,10,0.00646778,-1.36655,0.511797,0.11528,193.436,0.15042,
2,1,0,1,0,24838.3,0.153206,0.152858,43.4697,13,0.00788644,10,0.00664468,-1.36181,0.519114,0.113655,192.725,0.152858,
2,1,0,1,0,24838.3,0.155606,0.155231,43.9293,13,0.0080613,10,0.0068192,-1.35725,0.544589,0.108339,185.557,0.155231,
2,1,0,1,0,24838.3,0.158003,0.157631,44.3798,13,0.00823796,10,0.00699562,-1.35281,0.561941,0.104993,181.675,0.1576307,
2,1,0,1,0,24838.4,0.1604,0.160059,44.7868,13,0.00841634,10,0.00716852,-1.34885,0.590009,0.0999985,174.694,0.160059,
2,1,0,1,0,24838.4,0.162808,0.162475,45.2168,13,0.00859638,10,0.00734659,-1.3447,0.623373,0.0946463,166.875,0.162475,
2,1,0,1,0,24838.4,0.165205,0.164836,45.6073,13,0.00877806,10,0.00751773,-1.34097,0.640914,0.0920561,163.708,0.164836,
2,1,0,1,0,24838.4,0.167602,0.167252,45.9853,13,0.00896128,10,0.00769113,-1.33738,0.699912,0.0842963,151.126,0.167252,
2,1,0,1,0,24838.4,0.170008,0.169651,46.3571,13,0.009146,10,0.00786455,-1.33388,0.756738,0.0779662,140.819,0.169651,
2,1,0,1,0,24838.4,0.172405,0.172063,46.6658,13,0.00933209,10,0.00802946,-1.331,0.837029,0.0704874,128.189,0.172063,
2,1,0,1,0,24838.4,0.174802,0.174433,46.9587,13,0.00951937,10,0.00819114,-1.32828,0.952278,0.0619567,113.403,0.174433,
2,1,0,1,0,24838.4,0.177199,0.17687,47.2182,13,0.00970775,10,0.00835147,-1.32589,1.11857,0.052746,97.0245,0.17687,
2,1,0,1,0,24838.4,0.179607,0.179261,47.4468,13,0.00989711,10,0.00850536,-1.32379,1.43003,0.041258,76.2007,0.179261,
2,1,0,1,0,24838.4,0.182005,0.181732,47.6039,13,0.0100872,10,0.00865114,-1.32236,2.0088,0.0293708,54.4229,0.181732,
2,1,0,1,0,24838.4,0.184402,0.184061,47.6924,13,0.0102778,10,0.00877833,-1.32155,4.00466,0.0147328,27.3566,0.184061,
2,1,0,1,0,24838.4,0.18681,0.186472,47.7408,13,0.0104687,10,0.0089023,-1.32111,173.416,0.000340222,0.632115,0.186472,
2,1,0,1,0,24838.4,0.189207,0.18891,47.7108,13,0.0106596,10,0.00901302,-1.32138,-4.10647,-0.0143676,-26.6703,0.1889095,
2,1,0,1,0,24838.4,0.191604,0.19129,47.61,13,0.0108503,10,0.00910732,-1.3223,-1.88672,-0.0312712,-57.9246,0.19129,
2,1,0,1,0,24838.4,0.194001,0.193655,47.4365,13,0.0110404,10,0.00918631,-1.32389,-1.19309,-0.0494513,-91.2367,0.193655,
2,1,0,1,0,24838.4,0.196407,0.196047,47.1861,13,0.0112296,10,0.00925071,-1.32619,-0.888602,-0.0663964,-121.848,0.1960471,
2,1,0,1,0,24838.4,0.198804,0.198442,46.8411,13,0.0114177,10,0.00929523,-1.32937,-0.709096,-0.0832046,-151.645,0.198442,
2,1,0,1,0,24838.4,0.201201,0.200886,46.4408,13,0.0116042,10,0.00932929,-1.3331,-0.576741,-0.102299,-184.818,0.200886,
2,1,0,1,0,24838.4,0.203609,0.203316,45.9714,13,0.011789,10,0.00934674,-1.33751,-0.49618,-0.118909,-212.574,0.2033162,
2,1,0,1,0,24838.4,0.206006,0.205658,45.41,13,0.0119717,10,0.0093389,-1.34285,-0.426702,-0.13827,-244.227,0.205658,
2,1,0,1,0,24838.4,0.208403,0.208096,44.7887,13,0.012152,10,0.00932038,-1.34883,-0.377579,-0.156259,-272.309,0.2080965,
2,1,0,1,0,24838.4,0.210803,0.210482,44.097,13,0.0123298,10,0.00928165,-1.35559,-0.344427,-0.171299,-294.007,0.210482,
2,1,0,1,0,24838.4,0.213206,0.212903,43.3608,13,0.0125046,10,0.00923165,-1.3629,-0.313941,-0.187933,-317.239,0.212903,
2,1,0,1,0,24838.4,0.215603,0.215292,42.5772,13,0.0126764,10,0.00916656,-1.37082,-0.294191,-0.20055,-332.505,0.215292,
2,1,0,1,0,24838.4,0.218,0.217665,41.7534,13,0.012845,10,0.00908823,-1.37931,-0.276227,-0.213592,-347.393,0.217665,
2,1,0,1,0,24838.5,0.220408,0.220073,40.9082,13,0.0130103,10,0.00900278,-1.38819,-0.263371,-0.224018,-357.026,0.220073,
2,1,0,1,0,24838.5,0.222805,0.222483,40.0328,13,0.0131721,10,0.00890663,-1.39758,-0.255539,-0.230885,-360.331,0.222483,
2,1,0,1,0,24838.5,0.225202,0.224907,39.1445,13,0.0133303,10,0.00880389,-1.40733,-0.247486,-0.238397,-364.039,0.224907,
2,1,0,1,0,24838.5,0.227605,0.227316,38.2755,13,0.0134851,10,0.00870065,-1.41708,-0.241599,-0.244207,-364.592,0.227316,
2,1,0,1,0,24838.5,0.230008,0.229711,37.3996,13,0.0136363,10,0.00859108,-1.42713,-0.237466,-0.248457,-362.534,0.229711,
2,1,0,1,0,24838.5,0.232405,0.23209,36.5301,13,0.0137841,10,0.00847828,-1.43735,-0.236863,-0.249089,-355.292,0.23209,
2,1,0,1,0,24838.5,0.234802,0.23445,35.685,13,0.0139284,10,0.00836635,-1.44751,-0.238795,-0.247074,-344.437,0.23445,
2,1,0,1,0,24838.5,0.237207,0.236891,34.8738,13,0.0140695,10,0.00826128,-1.4575,-0.240884,-0.244931,-333.687,0.236891,
2,1,0,1,0,24838.5,0.239604,0.239312,34.0927,13,0.0142073,10,0.00815877,-1.46734,-0.247292,-0.238584,-317.723,0.2393117,
2,1,0,1,0,24838.5,0.242002,0.241664,33.3356,13,0.0143421,10,0.008056,-1.47709,-0.249421,-0.236547,-308.113,0.241664,
2,1,0,1,0,24838.5,0.244404,0.244139,32.6066,13,0.0144739,10,0.00796054,-1.48669,-0.25498,-0.231391,-294.863,0.244139,
2,1,0,1,0,24838.5,0.246807,0.246475,31.9209,13,0.0146029,10,0.00786768,-1.49593,-0.261822,-0.225344,-281.132,0.246475,
2,1,0,1,0,24838.5,0.249204,0.248943,31.2526,13,0.0147291,10,0.00778014,-1.50511,-0.269457,-0.218959,-267.579,0.248943,
2,1,0,1,0,24838.5,0.251601,0.251266,30.6362,13,0.0148528,10,0.00769782,-1.51377,-0.27756,-0.212567,-254.549,0.251266,
2,1,0,1,0,24838.5,0.254006,0.253678,30.0541,13,0.0149742,10,0.00762407,-1.5221,-0.288039,-0.204834,-240.525,0.253678,
2,1,0,1,0,24838.5,0.256404,0.256065,29.4797,13,0.0150932,10,0.00754871,-1.53048,-0.300439,-0.196379,-226.347,0.256065,
2,1,0,1,0,24838.5,0.258801,0.258505,28.9528,13,0.01521,10,0.00748445,-1.53831,-0.309838,-0.190422,-215.593,0.258505,
2,1,0,1,0,24838.5,0.261203,0.260891,28.4575,13,0.0153247,10,0.00742431,-1.5458,-0.326522,-0.180692,-200.991,0.260891,
2,1,0,1,0,24838.5,0.263606,0.263247,27.9911,13,0.0154376,10,0.00736857,-1.55298,-0.336179,-0.175502,-191.931,0.263247,
2,1,0,1,0,24838.5,0.266003,0.265686,27.5459,13,0.0155486,10,0.00731857,-1.55994,-0.352403,-0.167422,-180.222,0.265686,
2,1,0,1,0,24838.5,0.2684,0.2681,27.1113,13,0.0156579,10,0.00726853,-1.56685,-0.369013,-0.159886,-169.509,0.2681,
2,1,0,1,0,24838.5,0.270808,0.270501,26.7255,13,0.0157655,10,0.00722929,-1.57307,-0.380224,-0.155172,-162.062,0.270501,
2,1,0,1,0,24838.5,0.273205,0.272891,26.3564,13,0.0158716,10,0.00719242,-1.57911,-0.406002,-0.145319,-149.648,0.272891,
2,1,0,1,0,24838.5,0.275603,0.275279,25.9913,13,0.0159763,10,0.00715486,-1.58517,-0.41576,-0.141909,-144.145,0.275279,
2,1,0,1,0,24838.5,0.278008,0.277698,25.6749,13,0.0160796,10,0.00712987,-1.59049,-0.428202,-0.137785,-138.146,0.277698,
2,1,0,1,0,24838.6,0.280405,0.280107,25.341,13,0.0161816,10,0.00709817,-1.59618,-0.452248,-0.13046,-129.162,0.2801066,
2,1,0,1,0,24838.6,0.282802,0.28245,25.0358,13,0.0162823,10,0.00707137,-1.60144,-0.467298,-0.126258,-123.573,0.28245,
2,1,0,1,0,24838.6,0.285199,0.284843,24.7559,13,0.0163818,10,0.00705156,-1.60632,-0.496095,-0.118929,-115.042,0.284843,
2,1,0,1,0,24838.6,0.287608,0.287274,24.4916,13,0.0164803,10,0.0070358,-1.61098,-0.516257,-0.114284,-109.307,0.287274,
2,1,0,1,0,24838.6,0.290005,0.289684,24.2391,13,0.0165777,10,0.00702169,-1.61548,-0.537886,-0.109689,-103.808,0.289684,
2,1,0,1,0,24838.6,0.292402,0.292048,23.9867,13,0.0166742,10,0.00700527,-1.62003,-0.5546,-0.106383,-99.6771,0.292048,
2,1,0,1,0,24838.6,0.294807,0.294529,23.7505,13,0.0167696,10,0.0069952,-1.62433,-0.576747,-0.102298,-94.9564,0.2945292,
2,1,0,1,0,24838.6,0.297204,0.296909,23.5312,13,0.0168641,10,0.00698663,-1.62836,-0.593039,-0.0994875,-91.7513,0.296909,
2,1,0,1,0,24838.6,0.299421,0.299199,23.3356,13,0.0169508,10,0.006982,-1.63198,-0.101275,-0.582572,-513.142,0.299199,
2,1,0,0,0,24838.6,0.300012,0.299766,23.2786,13,0.0169741,10,0.00697812,-1.63304,0.00208679,28.2731,22177.2,0.299766,
2,1,0,1,0,24838.6,0.299243,0.299054,21.4286,13,0.0170025,10,0.00640831,-1.66901,0.0216919,2.7199,1920.72,0.299054,
2,1,0,1,0,24838.6,0.296846,0.296615,17.0176,13,0.0170785,10,0.00504766,-1.7691,0.0243566,2.42234,1545.92,0.296615,
2,1,0,1,0,24838.6,0.294449,0.294185,13.7038,13,0.0171394,10,0.00403146,-1.86316,0.024521,2.4061,1321.3,0.294185,
2,1,0,1,0,24838.6,0.292041,0.291797,10.9591,13,0.0171883,10,0.00319782,-1.96023,0.0235448,2.50587,1075.07,0.291797,
2,1,0,1,0,24838.6,0.289644,0.289366,8.62795,13,0.0172272,10,0.00249664,-2.06409,0.0211354,2.79153,924.872,0.289366,
2,1,0,1,0,24838.6,0.287247,0.286918,6.59212,13,0.0172573,10,0.0018914,-2.18097,0.0181414,3.25222,801.093,0.286918,
2,1,0,1,0,24838.6,0.284841,0.28456,4.80264,13,0.0172799,10,0.00136664,-2.31852,0.0141394,4.17272,711.398,0.28456,
2,1,0,1,0,24838.6,0.282444,0.282125,3.21094,13,0.0172957,10,0.000905885,-2.49337,0.00884316,6.67182,633.285,0.282125,
2,1,0,1,0,24838.6,0.280047,0.279786,1.81298,13,0.0173056,10,0.000507246,-2.74161,0.0106684,5.53036,561.835,0.279786,
2,1,0,1,0,24838.6,0.27765,0.277376,0.549606,13,0.0173101,10,0.000152447,-3.25995,0.0321208,1.83682,507.37,0.277376,
2,0,0,1,0,24838.6,0.275242,0.27494,-0.602213,13,0.0173099,10,-0.000165572,-3.22025,-0.0630918,-0.935145,455.469,0.27494,
2,0,0,1,0,24838.6,0.272845,0.272599,-1.62209,13,0.0173053,10,-0.00044218,-2.78993,-0.0121188,-4.86849,413.189,0.272599,
2,0,0,1,0,24838.6,0.270448,0.270147,-2.57734,13,0.0172968,10,-0.000696261,-2.58883,-0.0113366,-5.20437,376.364,0.270147,
2,0,0,1,0,24838.6,0.268039,0.267728,-3.43665,13,0.0172847,10,-0.00092009,-2.46386,-0.0200538,-2.94209,341.581,0.267728,
2,0,0,1,0,24838.6,0.265642,0.265375,-4.20208,13,0.0172693,10,-0.00111513,-2.37654,-0.0284765,-2.07189,314.846,0.265375,
2,0,0,1,0,24838.6,0.263245,0.262922,-4.92765,13,0.0172509,10,-0.00129559,-2.30736,-0.0371344,-1.58882,290.698,0.262922,
2,0,0,1,0,24838.7,0.260843,0.260558,-5.59648,13,0.0172298,10,-0.00145821,-2.25209,-0.0463418,-1.27315,267.824,0.260558,
2,0,0,1,0,24838.7,0.258443,0.258182,-6.21191,13,0.0172061,10,-0.0016038,-2.20677,-0.0561338,-1.05106,247.595,0.258182,
2,0,0,1,0,24838.7,0.256046,0.255736,-6.78367,13,0.0171801,10,-0.00173483,-2.16854,-0.0666391,-0.885366,229.437,0.255736,
2,0,0,1,0,24838.7,0.253649,0.253343,-7.29927,13,0.0171518,10,-0.00184922,-2.13672,-0.0776451,-0.759868,213.282,0.253343,
2,0,0,1,0,24838.7,0.25124,0.250927,-7.80609,13,0.0171216,10,-0.00195876,-2.10757,-0.0887595,-0.664718,199.723,0.250927,
2,0,0,1,0,24838.7,0.248843,0.248531,-8.27025,13,0.0170894,10,-0.00205541,-2.08248,-0.0992115,-0.594689,189.812,0.248531,
2,0,0,1,0,24838.7,0.246446,0.246177,-8.69293,13,0.0170554,10,-0.00214,-2.06083,-0.113085,-0.52173,175.504,0.246177,
2,0,0,1,0,24838.7,0.244041,0.243722,-9.12546,13,0.0170198,10,-0.00222408,-2.03975,-0.126826,-0.465205,164.08,0.243722,
2,0,0,1,0,24838.7,0.241644,0.241348,-9.48737,13,0.0169825,10,-0.00228975,-2.02285,-0.139069,-0.424249,156.062,0.241348,
2,0,0,1,0,24838.7,0.239247,0.238898,-9.85079,13,0.0169438,10,-0.00235333,-2.00653,-0.154813,-0.381106,145.92,0.238898,
2,0,0,1,0,24838.7,0.236849,0.236529,-10.1986,13,0.0169036,10,-0.00241226,-1.99146,-0.164368,-0.358951,142.241,0.236529,
2,0,0,1,0,24838.7,0.234441,0.234099,-10.5297,13,0.0168621,10,-0.00246498,-1.97758,-0.180005,-0.327768,134.039,0.234099,
2,0,0,1,0,24838.7,0.232044,0.231764,-10.8506,13,0.0168193,10,-0.00251477,-1.96455,-0.195199,-0.302255,127.393,0.231764,
2,0,0,1,0,24838.7,0.229647,0.229336,-11.1324,13,0.0167753,10,-0.00255307,-1.95341,-0.209505,-0.281616,122.04,0.229336,
2,0,0,1,0,24838.7,0.227239,0.226911,-11.4238,13,0.0167302,10,-0.00259219,-1.94219,-0.228175,-0.258574,114.979,0.226911,
2,0,0,1,0,24838.7,0.224842,0.224518,-11.6989,13,0.0166839,10,-0.00262662,-1.93185,-0.237633,-0.248282,113.037,0.224518,
2,0,0,1,0,24838.7,0.222445,0.222159,-11.955,13,0.0166366,10,-0.0026559,-1.92245,-0.253512,-0.23273,108.401,0.222159,
2,0,0,1,0,24838.7,0.220047,0.219753,-12.2158,13,0.0165882,10,-0.00268445,-1.91308,-0.271492,-0.217317,103.359,0.219753,
2,0,0,1,0,24838.7,0.217642,0.217343,-12.461,13,0.0165388,10,-0.00270831,-1.90445,-0.286298,-0.206079,99.9813,0.217343,
2,0,0,1,0,24838.7,0.215245,0.214947,-12.6882,13,0.0164885,10,-0.00272729,-1.8966,-0.297962,-0.198012,98.0122,0.214947,
2,0,0,1,0,24838.7,0.212848,0.212502,-12.9204,13,0.0164373,10,-0.00274562,-1.88872,-0.314196,-0.187781,94.6194,0.212502,
2,0,0,1,0,24838.7,0.21044,0.210096,-13.1622,13,0.0163851,10,-0.00276533,-1.88067,-0.322433,-0.182984,93.7977,0.210096,
2,0,0,1,0,24838.7,0.208042,0.207715,-13.372,13,0.016332,10,-0.00277757,-1.8738,-0.338258,-0.174423,90.8778,0.207715,
2,0,0,1,0,24838.7,0.205645,0.205318,-13.5913,13,0.0162781,10,-0.00279055,-1.86674,-0.357697,-0.164944,87.3972,0.205318,
2,0,0,1,0,24838.7,0.203246,0.202939,-13.7896,13,0.0162233,10,-0.00279843,-1.86045,-0.364501,-0.161865,87.0754,0.202939,
2,0,0,1,0,24838.8,0.200843,0.20051,-14,13,0.0161677,10,-0.00280714,-1.85387,-0.380796,-0.154939,84.6075,0.20051,
2,0,0,1,0,24838.8,0.198446,0.198154,-14.2045,13,0.0161112,10,-0.00281469,-1.84757,-0.383135,-0.153993,85.3151,0.198154,
2,0,0,1,0,24838.8,0.196049,0.19575,-14.4009,13,0.016054,10,-0.00281897,-1.84161,-0.39825,-0.148148,83.2359,0.19575,
2,0,0,1,0,24838.8,0.19364,0.193321,-14.6101,13,0.015996,10,-0.00282444,-1.83535,-0.410788,-0.143627,81.8144,0.1933208,
2,0,0,1,0,24838.8,0.191243,0.190899,-14.8,13,0.0159371,10,-0.0028253,-1.82974,-0.408664,-0.144373,83.3789,0.190899,
2,0,0,1,0,24838.8,0.188846,0.188499,-14.9944,13,0.0158775,10,-0.00282644,-1.82407,-0.421451,-0.139993,81.9492,0.188499,
2,0,0,1,0,24838.8,0.186444,0.186134,-15.2026,13,0.0158171,10,-0.00282973,-1.81808,-0.425611,-0.138624,82.1801,0.186134,
2,0,0,1,0,24838.8,0.184041,0.183735,-15.3957,13,0.0157559,10,-0.00282872,-1.8126,-0.42563,-0.138618,83.2538,0.183735,
2,0,0,1,0,24838.8,0.181644,0.181319,-15.5873,13,0.0156939,10,-0.00282627,-1.80723,-0.430449,-0.137066,83.4559,0.1813191,
2,0,0,1,0,24838.8,0.179247,0.17893,-15.7911,13,0.0156311,10,-0.0028255,-1.80159,-0.427736,-0.137935,85.0562,0.17893,
2,0,0,1,0,24838.8,0.176841,0.176495,-16.007,13,0.0155675,10,-0.00282517,-1.79569,-0.418041,-0.141134,88.1598,0.176495,
2,0,0,1,0,24838.8,0.174444,0.174137,-16.212,13,0.015503,10,-0.00282311,-1.79016,-0.419434,-0.140666,89.0105,0.174137,
2,0,0,1,0,24838.8,0.172047,0.171743,-16.4315,13,0.0154377,10,-0.00282199,-1.78432,-0.413527,-0.142675,91.5467,0.171743,
2,0,0,1,0,24838.8,0.169644,0.169345,-16.6443,13,0.0153716,10,-0.00281863,-1.77873,-0.408256,-0.144517,93.9696,0.169345,
2,0,0,1,0,24838.8,0.167242,0.166927,-16.883,13,0.0153045,10,-0.00281823,-1.77255,-0.397461,-0.148442,97.8984,0.166927,
2,0,0,1,0,24838.8,0.164845,0.164492,-17.1184,13,0.0152365,10,-0.00281583,-1.76654,-0.376953,-0.156518,104.716,0.164492,
2,0,0,1,0,24838.8,0.162448,0.162108,-17.3748,13,0.0151675,10,-0.00281658,-1.76008,-0.371205,-0.158942,107.904,0.162108,
2,0,0,1,0,24838.8,0.160042,0.159726,-17.6515,13,0.0150974,10,-0.00281941,-1.75322,-0.355319,-0.166048,114.447,0.159726,
2,0,0,1,0,24838.8,0.157645,0.157334,-17.9181,13,0.0150262,10,-0.00281913,-1.74671,-0.338276,-0.174414,122.223,0.157334,
2,0,0,1,0,24838.8,0.155248,0.154916,-18.2143,13,0.0149539,10,-0.00282169,-1.73959,-0.323709,-0.182262,129.927,0.154916,
2,0,0,1,0,24838.8,0.152845,0.152493,-18.5499,13,0.0148804,10,-0.00282873,-1.73166,-0.304483,-0.193771,140.544,0.152493,
2,0,0,1,0,24838.8,0.150443,0.150163,-18.894,13,0.0148055,10,-0.00283718,-1.72368,-0.291316,-0.20253,149.571,0.150163,
2,0,0,1,0,24838.8,0.148046,0.14773,-19.2679,13,0.0147291,10,-0.00284645,-1.71516,-0.27477,-0.214725,161.825,0.14773,
2,0,0,1,0,24838.8,0.145648,0.145315,-19.6503,13,0.0146513,10,-0.00285549,-1.70663,-0.260748,-0.226272,174.14,0.145315,
2,0,0,1,0,24838.8,0.14324,0.142963,-20.0921,13,0.0145718,10,-0.00287243,-1.69698,-0.246983,-0.238883,187.88,0.142963,
2,0,0,1,0,24838.9,0.140843,0.140542,-20.5694,13,0.0144904,10,-0.00289087,-1.68678,-0.229795,-0.25675,206.667,0.140542,
2,0,0,1,0,24838.9,0.138446,0.13817,-21.064,13,0.0144071,10,-0.00291041,-1.67646,-0.220992,-0.266978,220.17,0.13817,
2,0,0,1,0,24838.9,0.136041,0.135728,-21.6317,13,0.0143217,10,-0.00293602,-1.66491,-0.212087,-0.278187,235.337,0.135728,
2,0,0,1,0,24838.9,0.133644,0.133366,-22.205,13,0.014234,10,-0.0029614,-1.65355,-0.20165,-0.292586,254.269,0.133366,
2,0,0,1,0,24838.9,0.131246,0.130968,-22.8226,13,0.0141439,10,-0.00298903,-1.64163,-0.192703,-0.306171,273.848,0.130968,
2,0,0,1,0,24838.9,0.128849,0.128525,-23.5165,13,0.0140512,10,-0.00302245,-1.62863,-0.18501,-0.318901,293.549,0.128525,
2,0,0,1,0,24838.9,0.126441,0.126148,-24.255,13,0.0139555,10,-0.00305973,-1.6152,-0.180525,-0.326824,309.739,0.1261483,
2,0,0,1,0,24838.9,0.124044,0.123763,-25.0239,13,0.0138569,10,-0.00309705,-1.60164,-0.177327,-0.332718,325.173,0.123763,
2,0,0,1,0,24838.9,0.121647,0.121335,-25.8062,13,0.0137552,10,-0.0031312,-1.58828,-0.17675,-0.333805,336.599,0.121335,
2,0,0,1,0,24838.9,0.119241,0.118942,-26.6326,13,0.0136502,10,-0.00316773,-1.57459,-0.177767,-0.331895,345.175,0.118942,
2,0,0,1,0,24838.9,0.116844,0.116543,-27.4881,13,0.0135419,10,-0.00320355,-1.56085,-0.177842,-0.331754,355.602,0.116543,
2,0,0,1,0,24838.9,0.114447,0.11415,-28.3423,13,0.0134302,10,-0.00323527,-1.54756,-0.181593,-0.324902,359.012,0.11415,
2,0,0,1,0,24838.9,0.11205,0.111808,-29.194,13,0.013315,10,-0.00326413,-1.53471,-0.187691,-0.314347,357.889,0.111808,
2,0,0,1,0,24838.9,0.109642,0.109385,-30.0635,13,0.0131964,10,-0.00328851,-1.52196,-0.19355,-0.304831,357.262,0.109385,
2,0,0,1,0,24838.9,0.107245,0.106941,-30.9246,13,0.0130743,10,-0.00330711,-1.5097,-0.19981,-0.29528,355.748,0.106941,
2,0,0,1,0,24838.9,0.104848,0.104515,-31.7845,13,0.0129488,10,-0.00332195,-1.49778,-0.209624,-0.281456,348.226,0.104515,
2,0,0,1,0,24838.9,0.10244,0.102205,-32.6102,13,0.0128199,10,-0.00333294,-1.48665,-0.217039,-0.27184,345.224,0.102205,
2,0,0,1,0,24838.9,0.100042,0.0998067,-33.399,13,0.0126879,10,-0.00333345,-1.47627,-0.225153,-0.262044,341.433,0.0998067,
2,0,0,1,0,24838.9,0.0976454,0.0974198,-34.2116,13,0.0125526,10,-0.00333288,-1.46583,-0.237508,-0.248412,331.368,0.0974198,
2,0,0,1,0,24838.9,0.0952427,0.0949776,-35.0408,13,0.012414,10,-0.0033281,-1.45543,-0.244466,-0.241342,329.224,0.0949776,
2,0,0,1,0,24838.9,0.0928428,0.0925801,-35.7998,13,0.0122722,10,-0.00331434,-1.44612,-0.259453,-0.227401,316.974,0.0925801,
2,0,0,1,0,24838.9,0.0904457,0.0902175,-36.556,13,0.0121274,10,-0.00329799,-1.43704,-0.277252,-0.212803,302.938,0.0902175,
2,0,0,1,0,24838.9,0.0880486,0.0877881,-37.2646,13,0.0119797,10,-0.00327139,-1.4287,-0.293635,-0.200929,291.573,0.08778809,
2,0,0,1,0,24838.9,0.0856404,0.0853714,-37.9509,13,0.0118292,10,-0.00323992,-1.42078,-0.317251,-0.185973,274.82,0.0853714,
2,0,0,1,0,24838.9,0.0832433,0.0829739,-38.6007,13,0.011676,10,-0.00320285,-1.41341,-0.33489,-0.176177,264.853,0.0829739,
2,0,0,1,0,24839,0.0808462,0.0805805,-39.2045,13,0.0115204,10,-0.00315912,-1.40666,-0.360495,-0.163664,250,0.0805805,
2,0,0,1,0,24839,0.0784408,0.0781988,-39.8043,13,0.0113623,10,-0.00311265,-1.40007,-0.387085,-0.152421,236.261,0.0781988,
2,0,0,1,0,24839,0.0760437,0.0757588,-40.3541,13,0.0112019,10,-0.00305718,-1.39411,-0.417069,-0.141463,222.27,0.0757588,
2,0,0,1,0,24839,0.0736466,0.0734281,-40.856,13,0.0110394,10,-0.00299997,-1.38874,-0.454404,-0.12984,206.686,0.0734281,
2,0,0,1,0,24839,0.0712495,0.0709987,-41.3342,13,0.010875,10,-0.00293468,-1.38369,-0.492562,-0.119782,192.948,0.0709987,
2,0,0,1,0,24839,0.0688413,0.0685969,-41.7889,13,0.0107087,10,-0.00286659,-1.37894,-0.539854,-0.109289,177.906,0.0685969,
2,0,0,1,0,24839,0.0664442,0.066142,-42.2096,13,0.0105407,10,-0.00279183,-1.37459,-0.602043,-0.0979996,161.032,0.066142,
2,0,0,1,0,24839,0.0640471,0.0637487,-42.578,13,0.010371,10,-0.00271429,-1.37081,-0.689467,-0.0855734,141.831,0.06374868,
2,0,0,1,0,24839,0.0616389,0.0613776,-42.8835,13,0.0102001,10,-0.00263209,-1.36771,-0.801489,-0.073613,122.957,0.0613776,
2,0,0,1,0,24839,0.0592417,0.0589588,-43.1559,13,0.010028,10,-0.00254442,-1.36496,-0.941331,-0.0626772,105.379,0.0589588,
2,0,0,1,0,24839,0.0568446,0.0565082,-43.3942,13,0.00985487,10,-0.00245213,-1.36257,-1.09164,-0.0540474,91.3861,0.0565082,
2,0,0,1,0,24839,0.0544475,0.0541721,-43.5872,13,0.00968088,10,-0.00236121,-1.36064,-1.32021,-0.0446899,75.9035,0.0541721,
2,0,0,1,0,24839,0.0520421,0.0516759,-43.7701,13,0.00950612,10,-0.00226186,-1.35882,-1.63166,-0.0361595,61.6532,0.0516759,
2,0,0,1,0,24839,0.049645,0.0493378,-43.8862,13,0.00933078,10,-0.00216524,-1.35767,-1.9185,-0.0307532,52.6167,0.0493378,
2,0,0,1,0,24839,0.0472479,0.0469296,-43.9847,13,0.00915502,10,-0.00206418,-1.3567,-2.58248,-0.0228462,39.1925,0.0469296,
2,0,0,1,0,24839,0.0448397,0.0445447,-44.0937,13,0.00897886,10,-0.00196414,-1.35562,-3.22853,-0.0182746,31.4067,0.0445447,
2,0,0,1,0,24839,0.0424426,0.0421418,-44.1438,13,0.0088024,10,-0.0018603,-1.35513,-4.63873,-0.012719,21.8853,0.0421418,
2,0,0,1,0,24839,0.0400455,0.0397623,-44.1869,13,0.00862575,10,-0.00175697,-1.35471,-10.3405,-0.00570571,9.82914,0.0397623,
2,0,0,1,0,24839,0.0376456,0.0373424,-44.1945,13,0.00844899,10,-0.00165033,-1.35463,-27.2964,-0.00216146,3.72526,0.03734244,
2,0,0,1,0,24839,0.035243,0.0349173,-44.1883,13,0.00827222,10,-0.00154294,-1.35469,21.6257,0.00272823,-4.70237,0.0349173,
2,0,0,1,0,24839,0.0328459,0.0325515,-44.1795,13,0.0080955,10,-0.00143811,-1.35478,13.8362,0.00426419,-7.34887,0.03255152,
2,0,0,1,0,24839,0.0304488,0.0301444,-44.1417,13,0.00791884,10,-0.00133062,-1.35515,7.48223,0.00788535,-13.5785,0.0301444,
2,0,0,1,0,24839,0.0280406,0.0277214,-44.1238,13,0.00774233,10,-0.00122317,-1.35533,5.10106,0.0115662,-19.899,0.0277214,
2,0,0,1,0,24839,0.0256435,0.0253227,-44.0581,13,0.00756597,10,-0.00111567,-1.35597,4.49762,0.013118,-22.5433,0.0253227,
2,0,0,1,0,24839,0.0232463,0.0229145,-43.9877,13,0.0073899,10,-0.00100796,-1.35667,3.57233,0.0165158,-28.3528,0.0229145,
2,0,0,1,0,24839.1,0.0208437,0.0205721,-43.9259,13,0.00721409,10,-0.000903648,-1.35728,3.29216,0.0179214,-30.7119,0.0205721,
2,0,0,1,0,24839.1,0.018441,0.0181364,-43.8521,13,0.00703854,10,-0.000795316,-1.35801,2.99595,0.0196932,-33.6831,0.0181364,
2,0,0,1,0,24839.1,0.0160439,0.0157398,-43.7638,13,0.00686333,10,-0.000688834,-1.35889,2.54708,0.0231638,-39.5369,0.0157398,
2,0,0,1,0,24839.1,0.0136468,0.0133168,-43.6645,13,0.0066885,10,-0.000581471,-1.35987,2.31266,0.0255117,-43.4528,0.0133168,
2,0,0,1,0,24839.1,0.0112414,0.0109288,-43.5446,13,0.00651408,10,-0.000475889,-1.36107,2.11914,0.0278415,-47.3053,0.0109288,
2,0,0,1,0,24839.1,0.00884431,0.00852695,-43.4345,13,0.00634013,10,-0.000370364,-1.36217,1.94403,0.0303493,-51.4252,0.00852695,
2,0,0,1,0,24839.1,0.0064472,0.0061474,-43.31,13,0.00616666,10,-0.000266244,-1.36341,2.01043,0.0293469,-49.5975,0.0061474,
2,0,0,1,0,24839.1,0.00404455,0.00372331,-43.1711,13,0.00599373,10,-0.000160739,-1.36481,1.73819,0.0339433,-57.1704,0.00372331,
2,0,0,1,0,24839.1,0.0016419,0.00126741,-43.0654,13,0.00582133,10,-5.45814e-05,-1.36587,1.55168,0.0380234,-63.81,0.001267407,
2,0,0,1,0,24839.1,-0.000755207,-0.00115138,-42.8812,13,0.00564946,10,4.93726e-05,-1.36773,1.4251,0.0414007,-69.2115,-0.00115138,
2,0,0,1,0,24839.1,-0.00315231,-0.00352669,-42.6927,13,0.00547836,10,0.000150564,-1.36965,1.19511,0.0493678,-82.2111,-0.00352669,
2,0,0,1,0,24839.1,-0.00555774,-0.00594018,-42.5023,13,0.00530797,10,0.000252471,-1.37159,1.11699,0.0528206,-87.5299,-0.00594018,
2,0,0,1,0,24839.1,-0.00795485,-0.00832291,-42.277,13,0.00513843,10,0.000351868,-1.3739,1.05693,0.0558223,-92.0429,-0.00832291,
2,0,0,1,0,24839.1,-0.010352,-0.0107237,-42.0433,13,0.0049698,10,0.000450859,-1.3763,0.972451,0.0606715,-99.5052,-0.0107237,
2,0,0,1,0,24839.1,-0.0127546,-0.0131276,-41.809,13,0.00480212,10,0.000548852,-1.37873,0.933982,0.0631704,-103.004,-0.0131276,
2,0,0,1,0,24839.1,-0.0151573,-0.0155167,-41.5494,13,0.00463543,10,0.00064471,-1.38144,0.888182,0.0664278,-107.651,-0.0155167,
2,0,0,1,0,24839.1,-0.0175544,-0.0179228,-41.2882,13,0.00446979,10,0.000739999,-1.38417,0.82898,0.0711718,-114.597,-0.0179228,
2,0,0,1,0,24839.1,-0.0199515,-0.0203257,-41.0097,13,0.00430522,10,0.000833549,-1.38711,0.803121,0.0734634,-117.497,-0.0203257,
2,0,0,1,0,24839.1,-0.0223597,-0.0227137,-40.7105,13,0.0041418,10,0.000924685,-1.39029,0.775809,0.0760497,-120.805,-0.0227137,
2,0,0,1,0,24839.1,-0.0247568,-0.0251314,-40.4197,13,0.00397956,10,0.0010158,-1.39341,0.769118,0.0767113,-121.024,-0.0251314,
2,0,0,1,0,24839.1,-0.0271539,-0.0275714,-40.1226,13,0.00381851,10,0.00110624,-1.39661,0.766929,0.0769302,-120.478,-0.0275714,
2,0,0,1,0,24839.1,-0.0295593,-0.0299425,-39.8458,13,0.0036586,10,0.00119308,-1.39962,0.748396,0.0788353,-122.547,-0.0299425,
2,0,0,1,0,24839.1,-0.0319564,-0.0323348,-39.5513,13,0.00349984,10,0.00127888,-1.40284,0.756089,0.0780331,-120.429,-0.0323348,
2,0,0,1,0,24839.1,-0.0343535,-0.0346942,-39.2478,13,0.00334229,10,0.00136167,-1.40618,0.761035,0.077526,-118.83,-0.0346942,
2,0,0,1,0,24839.1,-0.0367506,-0.0371225,-38.9724,13,0.0031859,10,0.00144675,-1.40924,0.776531,0.075979,-115.618,-0.0371225,
2,0,0,1,0,24839.2,-0.0391588,-0.0395052,-38.7095,13,0.00303056,10,0.00152923,-1.41218,0.811252,0.0727271,-109.89,-0.03950524,
2,0,0,1,0,24839.2,-0.0415559,-0.0419749,-38.4367,13,0.00287631,10,0.00161338,-1.41525,0.830523,0.0710396,-106.624,-0.0419749,
2,0,0,1,0,24839.2,-0.043953,-0.0443152,-38.1905,13,0.0027231,10,0.00169242,-1.41804,0.861521,0.0684835,-102.138,-0.0443152,
2,0,0,1,0,24839.2,-0.0463585,-0.0467181,-37.9492,13,0.00257086,10,0.00177292,-1.4208,0.918921,0.0642057,-95.1664,-0.0467181,
2,0,0,1,0,24839.2,-0.0487556,-0.049139,-37.7255,13,0.00241954,10,0.00185379,-1.42337,0.967126,0.0610055,-89.8932,-0.049139,
2,0,0,1,0,24839.2,-0.0511527,-0.0515515,-37.5254,13,0.00226907,10,0.00193449,-1.42567,1.06021,0.0556494,-81.5654,-0.0515515,
2,0,0,1,0,24839.2,-0.0535498,-0.05393,-37.3262,13,0.0021194,10,0.002013,-1.42799,1.12996,0.0522143,-76.1293,-0.05393,
2,0,0,1,0,24839.2,-0.055958,-0.0563212,-37.166,13,0.00197043,10,0.00209323,-1.42985,1.20684,0.0488881,-70.947,-0.05632117,
2,0,0,1,0,24839.2,-0.0583551,-0.0587283,-36.9955,13,0.00182213,10,0.00217268,-1.43185,1.41104,0.0418131,-60.4355,-0.0587283,
2,0,0,1,0,24839.2,-0.0607522,-0.0611185,-36.8466,13,0.00167447,10,0.00225201,-1.4336,1.49103,0.03957,-56.9721,-0.0611185,
2,0,0,1,0,24839.2,-0.0631604,-0.0635309,-36.746,13,0.0015273,10,0.00233451,-1.43479,1.76623,0.0334045,-47.9297,-0.0635309,
2,0,0,1,0,24839.2,-0.0655575,-0.0659147,-36.6194,13,0.00138058,10,0.00241376,-1.43629,2.0502,0.0287776,-41.1604,-0.0659147,
2,0,0,1,0,24839.2,-0.0679546,-0.0683197,-36.5358,13,0.00123429,10,0.00249611,-1.43728,2.19272,0.0269072,-38.3941,-0.0683197,
2,0,0,1,0,24839.2,-0.0703573,-0.070712,-36.4518,13,0.00108833,10,0.00257758,-1.43828,2.87387,0.0205298,-29.2271,-0.070712,
2,0,0,1,0,24839.2,-0.0727571,-0.0730894,-36.379,13,0.00094268,10,0.00265892,-1.43915,3.46389,0.0170329,-24.2096,-0.0730894,
2,0,0,1,0,24839.2,-0.0751542,-0.0755442,-36.3379,13,0.000797256,10,0.00274512,-1.43964,4.92908,0.0119698,-16.99,-0.0755442,
2,0,0,1,0,24839.2,-0.0775514,-0.0779015,-36.3038,13,0.000651978,10,0.00282812,-1.44005,7.35608,0.00802058,-11.3701,-0.0779015,
2,0,0,1,0,24839.2,-0.0799595,-0.0803309,-36.2883,13,0.000506809,10,0.00291508,-1.44023,11.6706,0.00505544,-7.16261,-0.0803309,
2,0,0,1,0,24839.2,-0.0823567,-0.0827264,-36.2694,13,0.000361696,10,0.00300044,-1.44046,205.425,0.00028721,-0.406904,-0.0827264,
2,0,0,1,0,24839.2,-0.0847538,-0.0851441,-36.2692,13,0.000216627,10,0.00308811,-1.44046,-19.9771,-0.00295339,4.18497,-0.0851441,
2,0,0,1,0,24839.2,-0.0871592,-0.0875449,-36.2999,13,7.15163e-05,10,0.00317787,-1.4401,-8.72659,-0.00676095,9.58211,-0.0875449,
2,0,0,1,0,24839.2,-0.0895563,-0.0899403,-36.3285,13,-7.37404e-05,10,0.0032674,-1.43975,-5.46878,-0.0107885,15.3015,-0.0899403,
2,0,0,1,0,24839.2,-0.0919534,-0.0923103,-36.3613,13,-0.000219112,10,0.00335652,-1.43936,-4.53863,-0.0129995,18.4609,-0.0923103,
2,0,0,1,0,24839.2,-0.0943505,-0.0946835,-36.4152,13,-0.000364668,10,0.00344791,-1.43872,-3.53098,-0.0167092,23.7644,-0.0946835,
2,0,0,1,0,24839.2,-0.0967587,-0.0971267,-36.4767,13,-0.000510453,10,0.00354287,-1.43798,-3.04478,-0.0193774,27.5815,-0.0971267,
2,0,0,1,0,24839.3,-0.0991558,-0.0995232,-36.5563,13,-0.00065651,10,0.0036382,-1.43704,15.3078,0.00385425,-5.47523,-0.0995232,
2,0,0,1,0,24839.3,-0.0999548,-0.100343,-36.5828,13,-0.000704042,10,0.00367083,-1.43672,0.0206308,2.85981,-3793.07,-0.100343,
2,0,0,1,1,24839.3,-0.0999548,-0.100305,-36.3844,13,-0.0007259,10,0.00364952,-1.43909,-0.0275581,-2.14093,2647.51,-0.100305,
2,0,0,1,1,24839.3,-0.0979573,-0.0984098,-31.6098,13,-0.00082938,10,0.00311072,-1.50018,-0.0355359,-1.66029,1920.3,-0.0984098,
2,0,0,1,1,24839.3,-0.0955546,-0.0960154,-27.2693,13,-0.000946462,10,0.00261827,-1.56433,-0.0363581,-1.62275,1751.57,-0.0960154,
2,0,0,1,1,24839.3,-0.0931519,-0.0935977,-23.63,13,-0.00104774,10,0.00221171,-1.62654,-0.0380172,-1.55193,1449.55,-0.0935977,
2,0,0,1,1,24839.3,-0.0907548,-0.0912086,-20.4518,13,-0.0011355,10,0.00186538,-1.68927,-0.0370693,-1.59161,1275.07,-0.0912086,
2,0,0,1,1,24839.3,-0.0883578,-0.0887537,-17.6129,13,-0.00121128,10,0.00156321,-1.75417,-0.0353448,-1.66927,1143.2,-0.0887537,
2,0,0,1,1,24839.3,-0.0859523,-0.0863933,-15.0004,13,-0.00127619,10,0.00129593,-1.8239,-0.0327204,-1.80316,1045.48,-0.0863933,
2,0,0,1,1,24839.3,-0.0835552,-0.0839596,-12.6118,13,-0.00133113,10,0.00105888,-1.89922,-0.0295281,-1.9981,965.951,-0.0839596,
2,0,0,1,1,24839.3,-0.0811581,-0.0815833,-10.3888,13,-0.00137686,10,0.000847549,-1.98344,-0.0259644,-2.27234,895.702,-0.0815833,
2,0,0,1,1,24839.3,-0.0787554,-0.0791273,-8.31424,13,-0.00141403,10,0.000657884,-2.08018,-0.0217999,-2.70643,838.366,-0.0791273,
2,0,0,1,1,24839.3,-0.0763528,-0.0767966,-6.40463,13,-0.00144324,10,0.000491853,-2.19351,-0.0172598,-3.41834,781.85,-0.0767966,
2,0,0,1,1,24839.3,-0.0739557,-0.0743926,-4.59116,13,-0.00146502,10,0.000341548,-2.33808,-0.0117757,-5.01031,735.959,-0.0743926,
2,0,0,1,1,24839.3,-0.0715586,-0.0719919,-2.88974,13,-0.0014798,10,0.000208038,-2.53914,-0.0066345,-8.8929,688.199,-0.0719919,
2,0,0,1,1,24839.3,-0.0691532,-0.0695752,-1.28425,13,-0.00148797,10,8.9352e-05,-2.89135,-0.0214824,-2.74643,647.896,-0.0695752,
2,0,0,1,1,24839.3,-0.0667561,-0.0671617,0.226078,13,-0.0014899,10,-1.51838e-05,-3.64574,0.585652,0.100742,610.902,-0.0671617,
2,1,0,1,1,24839.3,-0.0643589,-0.0647779,1.63817,13,-0.001486,10,-0.000106118,-2.78564,0.0182626,3.23065,582.683,-0.0647779,
2,1,0,1,1,24839.3,-0.0619563,-0.0623485,3.0014,13,-0.00147656,10,-0.000187133,-2.52268,0.00689256,8.55996,551.942,-0.0623485,
2,1,0,1,1,24839.3,-0.0595536,-0.0600029,4.29336,13,-0.00146182,10,-0.000257614,-2.3672,0.0157381,3.74887,523.746,-0.0600029,
2,1,0,1,1,24839.3,-0.0571565,-0.0576085,5.49889,13,-0.0014421,10,-0.000316783,-2.25973,0.0231714,2.54624,497.673,-0.0576085,
2,1,0,1,1,24839.3,-0.0547594,-0.055194,6.65774,13,-0.00141766,10,-0.000367467,-2.17667,0.0306994,1.92186,471.059,-0.055194,
2,1,0,1,1,24839.3,-0.0523512,-0.0527943,7.75631,13,-0.00138869,10,-0.000409488,-2.11035,0.0381022,1.54847,450.248,-0.0527943,
2,1,0,1,1,24839.3,-0.0499541,-0.0504306,8.80247,13,-0.00135548,10,-0.000443914,-2.0554,0.0456976,1.29109,430.722,-0.0504306,
2,1,0,1,1,24839.3,-0.047557,-0.0480182,9.81691,13,-0.00131815,10,-0.00047139,-2.00803,0.0539391,1.09383,409.142,-0.0480182,
2,1,0,1,1,24839.3,-0.0451544,-0.0456545,10.7666,13,-0.00127687,10,-0.000491543,-1.96792,0.0625145,0.943781,388.882,-0.0456545,
2,1,0,1,1,24839.3,-0.0427545,-0.0432061,11.6792,13,-0.00123186,10,-0.000504614,-1.93259,0.0720222,0.819192,367.416,-0.0432061,
2,1,0,1,1,24839.4,-0.0403574,-0.0408382,12.5328,13,-0.00118335,10,-0.000511817,-1.90195,0.0818357,0.720957,348.327,-0.0408382,
2,1,0,1,1,24839.4,-0.0379603,-0.0384067,13.3483,13,-0.0011315,10,-0.000512665,-1.87457,0.0915576,0.644403,332.48,-0.0384067,
2,1,0,1,1,24839.4,-0.0355521,-0.0359508,14.1467,13,-0.00107642,10,-0.000508583,-1.84935,0.101759,0.579801,316.969,-0.0359508,
2,1,0,1,1,24839.4,-0.033155,-0.0335447,14.8915,13,-0.00101825,10,-0.000499529,-1.82706,0.112133,0.526159,303.087,-0.0335447,
2,1,0,1,1,24839.4,-0.0307579,-0.0311789,15.5945,13,-0.000957197,10,-0.000486219,-1.80703,0.124863,0.472517,285.37,-0.0311789,
2,1,0,1,1,24839.4,-0.0283524,-0.0287739,16.2679,13,-0.000893415,10,-0.000468091,-1.78867,0.137235,0.429921,271.123,-0.0287739,
2,1,0,1,1,24839.4,-0.0259553,-0.0263594,16.8838,13,-0.000827027,10,-0.000445045,-1.77253,0.150924,0.390924,256.31,-0.0263594,
2,1,0,1,1,24839.4,-0.0235582,-0.0239363,17.4965,13,-0.000758206,10,-0.000418802,-1.75705,0.16507,0.357423,242.92,-0.0239363,
2,1,0,1,1,24839.4,-0.0211611,-0.0215356,18.0662,13,-0.000687009,10,-0.000389065,-1.74313,0.177136,0.333077,233.738,-0.0215356,
2,1,0,1,1,24839.4,-0.0187529,-0.0191147,18.6143,13,-0.000613573,10,-0.000355807,-1.73015,0.193289,0.305242,220.791,-0.0191147,
2,1,0,1,1,24839.4,-0.0163558,-0.0167691,19.1254,13,-0.000538041,10,-0.000320714,-1.71839,0.20896,0.28235,209.994,-0.0167691,
2,1,0,1,1,24839.4,-0.0139587,-0.0143545,19.6121,13,-0.000460515,10,-0.000281522,-1.70748,0.223746,0.263692,201.291,-0.0143545,
2,1,0,1,1,24839.4,-0.0115505,-0.0119294,20.0834,13,-0.000381096,10,-0.000239582,-1.69716,0.243839,0.241963,189.038,-0.0119294,
2,1,0,1,1,24839.4,-0.0091534,-0.00956465,20.5367,13,-0.000299806,10,-0.000196426,-1.68747,0.262545,0.224724,179.437,-0.00956465,
2,1,0,1,1,24839.4,-0.00675629,-0.00717237,20.9395,13,-0.000216789,10,-0.000150186,-1.67903,0.282574,0.208795,170.203,-0.00717237,
2,1,0,1,1,24839.4,-0.00435919,-0.00477267,21.3314,13,-0.000132208,10,-0.000101808,-1.67098,0.329631,0.178988,148.226,-0.00477267,
2,1,0,1,1,24839.4,-0.00195376,-0.00235812,21.7125,13,-4.60393e-05,10,-5.12007e-05,-1.66329, , , ,-0.00235812,
2,1,0,0,1,24839.4,-7.54729e-05,-0.000248974,21.9175,13,2.16712e-05,10,-5.45689e-06,-1.65921, , , ,-0.000248974,