File: Figure_codes/Fig_3-5/rawdata_trumpetplot_data/after 10th/20221101_1-115_003_TrumpetPlot_ParaChange_from10_every3_09_CV_C01_30.csv
mode,ox/red,error,control changes,counter inc.,time/s,control/V,Ewe/V,<I>/mA,cycle number,(Q-Qo)/C,I Range,P/W,log(|I|),Tafel slope mV/dec,alpha_eff,dI/d(E-IR),E-IR/V,
2,0,0,0,0,60286.4,2.44065e-05,-0.000516197,-5.29514,31,0.0000000E+000,10,2.73333e-06,-2.27612, , , ,-0.000516197,
2,0,0,1,0,60286.4,0.00179726,0.00137635,-3.35931,31,-7.38597e-05,10,-4.62359e-06,-2.47375, , , ,0.00137635,
2,0,0,1,0,60286.5,0.00379485,0.00346102,-1.96958,31,-0.000125901,10,-6.81674e-06,-2.70563,-0.00740907,-7.96321,596.442,0.00346102,
2,0,0,1,0,60286.5,0.00579244,0.00539133,-0.964605,31,-0.000154526,10,-5.2005e-06,-3.01565,-0.00369197,-15.9806,455.012,0.00539133,
2,0,0,1,0,60286.5,0.00779002,0.00742413,-0.166316,31,-0.00016528,10,-1.23475e-06,-3.77907,-0.0132046,-4.46813,356.941,0.00742413,
2,1,0,1,0,60286.5,0.00978761,0.00943003,0.476974,31,-0.000161723,10,4.49788e-06,-3.32151,0.00516597,11.4209,289.416,0.00943003,
2,1,0,1,0,60286.5,0.0117852,0.011439,0.995643,31,-0.000146639,10,1.13891e-05,-3.0019,0.00829398,7.11359,240.736,0.01143897,
2,1,0,1,0,60286.6,0.0137828,0.0133789,1.42762,31,-0.000122106,10,1.91e-05,-2.84539,0.0153038,3.85525,204.63,0.0133789,
2,1,0,1,0,60286.6,0.0157804,0.0153896,1.80406,31,-8.94827e-05,10,2.77638e-05,-2.74375,0.0233306,2.52887,173.236,0.0153896,
2,1,0,1,0,60286.6,0.017778,0.0174313,2.12963,31,-5.00922e-05,10,3.71221e-05,-2.6717,0.0327585,1.80106,146.555,0.0174313,
2,1,0,1,0,60286.6,0.0197755,0.019413,2.39371,31,-4.67618e-06,10,4.64692e-05,-2.62093,0.0431026,1.36883,126.873,0.019413,
2,1,0,1,0,60286.6,0.0217731,0.0214417,2.63844,31,4.59007e-05,10,5.65726e-05,-2.57865,0.052454,1.12479,114.904,0.0214417,
2,1,0,1,0,60286.7,0.0237707,0.0234272,2.85495,31,0.000101022,10,6.68835e-05,-2.5444,0.0636063,0.927581,102.782,0.0234272,
2,1,0,1,0,60286.7,0.0257683,0.0254456,3.04997,31,0.000159931,10,7.76083e-05,-2.5157,0.0750472,0.786171,93.1395,0.0254456,
2,1,0,1,0,60286.7,0.0277659,0.0273877,3.22384,31,0.000222816,10,8.82936e-05,-2.49163,0.0872568,0.676165,84.8877,0.0273877,
2,1,0,1,0,60286.7,0.0297635,0.0294474,3.38967,31,0.000289091,10,9.98172e-05,-2.46984,0.101976,0.578565,76.2045,0.0294474,
2,1,0,1,0,60286.7,0.0317611,0.0314143,3.53068,31,0.000358455,10,0.000110914,-2.45214,0.111434,0.52946,72.9737,0.0314143,
2,1,0,1,0,60286.8,0.0337587,0.0333903,3.6774,31,0.000430362,10,0.00012279,-2.43446,0.121591,0.485234,69.452,0.0333903,
2,1,0,1,0,60286.8,0.0357562,0.0354045,3.8078,31,0.000505378,10,0.000134813,-2.41933,0.139146,0.424016,62.904,0.03540447,
2,1,0,1,0,60286.8,0.0377538,0.0373734,3.92795,31,0.000582925,10,0.000146801,-2.40583,0.148728,0.396696,60.8099,0.0373734,
2,1,0,1,0,60286.8,0.0397514,0.0393929,4.05034,31,0.000662878,10,0.000159555,-2.39251,0.149519,0.394599,62.3972,0.0393929,
2,1,0,1,0,60286.8,0.041749,0.0413835,4.17817,31,0.000744866,10,0.000172907,-2.37901,0.165993,0.355436,57.7759,0.0413835,
2,1,0,1,0,60286.9,0.0437466,0.0434011,4.28192,31,0.000829617,10,0.00018584,-2.36836,0.188574,0.312874,52.2967,0.0434011,
2,1,0,1,0,60286.9,0.0457442,0.0454231,4.38943,31,0.000916484,10,0.000199381,-2.35759,0.18657,0.316235,54.1671,0.0454231,
2,1,0,1,0,60286.9,0.0477418,0.0473865,4.49779,31,0.0010055,10,0.000213135,-2.347,0.186681,0.316048,55.4873,0.0473865,
2,1,0,1,0,60286.9,0.0497484,0.0493902,4.60955,31,0.00109663,10,0.000227667,-2.33634,0.207358,0.284532,51.0656,0.0493902,
2,1,0,1,0,60286.9,0.0517369,0.0513673,4.70108,31,0.00118938,10,0.000241482,-2.3278,0.221849,0.265947,48.849,0.0513673,
2,1,0,1,0,60287,0.0537345,0.0533864,4.80476,31,0.00128458,10,0.000256509,-2.31833,0.225446,0.261703,49.0104,0.0533864,
2,1,0,1,0,60287,0.0557321,0.0553744,4.89747,31,0.00138177,10,0.000271194,-2.31003,0.241119,0.244692,46.7732,0.0553744,
2,1,0,1,0,60287,0.0577206,0.057396,4.99231,31,0.0014803,10,0.000286539,-2.3017,0.239441,0.246407,48.0151,0.057396,
2,1,0,1,0,60287,0.0597273,0.0593794,5.08977,31,0.00158132,10,0.000302227,-2.2933,0.244442,0.241366,47.9153,0.0593794,
2,1,0,1,0,60287,0.0617249,0.0613592,5.18221,31,0.00168419,10,0.000317976,-2.28549,0.266184,0.221651,44.7956,0.0613592,
2,1,0,1,0,60287.1,0.0637225,0.0633625,5.26819,31,0.00178886,10,0.000333806,-2.27834,0.278891,0.211552,43.5015,0.0633625,
2,1,0,1,0,60287.1,0.06572,0.0653689,5.35663,31,0.00189523,10,0.000350157,-2.27111,0.266368,0.221498,46.3343,0.0653689,
2,1,0,1,0,60287.1,0.0677176,0.0673504,5.45297,31,0.002003,10,0.00036726,-2.26337,0.295806,0.199455,42.3576,0.0673504,
2,1,0,1,0,60287.1,0.0697152,0.0693998,5.52737,31,0.00211297,10,0.000383599,-2.25748,0.326298,0.180816,39.0344,0.0693998,
2,1,0,1,0,60287.1,0.0717128,0.0713953,5.61086,31,0.00222452,10,0.000400589,-2.25097,0.299548,0.196963,43.1368,0.0713953,
2,1,0,1,0,60287.2,0.0737104,0.0733318,5.69699,31,0.00233772,10,0.00041777,-2.24435,0.313874,0.187974,41.7671,0.0733318,
2,1,0,1,0,60287.2,0.075708,0.075368,5.77679,31,0.00245201,10,0.000435385,-2.23831,0.350165,0.168492,37.9651,0.075368,
2,1,0,1,0,60287.2,0.0777056,0.0773818,5.85074,31,0.00256837,10,0.000452741,-2.23279,0.368842,0.15996,36.5165,0.0773818,
2,1,0,1,0,60287.2,0.0797031,0.0793638,5.9227,31,0.00268624,10,0.000470048,-2.22748,0.378656,0.155814,36.0166,0.0793638,
2,1,0,1,0,60287.2,0.0817007,0.0814027,5.99556,31,0.00280555,10,0.000488055,-2.22217,0.385546,0.15303,35.7962,0.0814027,
2,1,0,1,0,60287.3,0.0836983,0.0833485,6.06534,31,0.00292564,10,0.000505537,-2.21715,0.406923,0.144991,34.308,0.08334849,
2,1,0,1,0,60287.3,0.0856959,0.0853518,6.13105,31,0.00304772,10,0.000523296,-2.21247,0.433801,0.136007,32.5407,0.0853518,
2,1,0,1,0,60287.3,0.0876935,0.087373,6.1963,31,0.00317111,10,0.000541389,-2.20787,0.457569,0.128942,31.1648,0.087373,
2,1,0,1,0,60287.3,0.0896911,0.0893444,6.25548,31,0.00329574,10,0.000558892,-2.20374,0.437622,0.134819,32.9412,0.08934439,
2,1,0,1,0,60287.3,0.0916887,0.0912973,6.32557,31,0.00342105,10,0.000577507,-2.1989,0.418732,0.140902,34.7791,0.0912973,
2,1,0,1,0,60287.4,0.0936863,0.0933392,6.39441,31,0.0035484,10,0.000596849,-2.1942,0.470028,0.125524,31.2964,0.0933392,
2,1,0,1,0,60287.4,0.0956838,0.0953355,6.45195,31,0.00367702,10,0.0006151,-2.19031,0.453396,0.130129,32.8045,0.0953355,
2,1,0,1,0,60287.4,0.0976814,0.0973176,6.52492,31,0.0038069,10,0.00063499,-2.18542,0.394736,0.149467,38.0797,0.0973176,
2,1,0,1,0,60287.4,0.099679,0.0993486,6.60477,31,0.00393764,10,0.000656175,-2.18014,0.385701,0.152968,39.418,0.0993486,
2,1,0,1,0,60287.4,0.101677,0.101286,6.68135,31,0.00407063,10,0.000676727,-2.17514,0.37626,0.156807,40.9133,0.101286,
2,1,0,1,0,60287.5,0.103674,0.103313,6.76696,31,0.00420519,10,0.000699115,-2.16961,0.346437,0.170305,45.0083,0.103313,
2,1,0,1,0,60287.5,0.105672,0.105322,6.86299,31,0.00434162,10,0.000722822,-2.16349,0.323364,0.182457,48.8822,0.105322,
2,1,0,1,0,60287.5,0.107667,0.107335,6.96354,31,0.00447929,10,0.000747429,-2.15717,0.308564,0.191208,51.9838,0.107335,
2,1,0,1,0,60287.5,0.109667,0.109314,7.0705,31,0.00461976,10,0.000772901,-2.15055,0.29136,0.202499,55.911,0.109314,
2,1,0,1,0,60287.5,0.111665,0.111334,7.18715,31,0.00476244,10,0.000800172,-2.14344,0.274999,0.214546,60.1992,0.111334,
2,1,0,1,0,60287.6,0.113662,0.113293,7.31007,31,0.00490751,10,0.000828182,-2.13608,0.266413,0.221461,63.1875,0.113293,
2,1,0,1,0,60287.6,0.11566,0.115273,7.43604,31,0.00505501,10,0.000857172,-2.12866,0.264184,0.223329,64.8396,0.115273,
2,1,0,1,0,60287.6,0.117657,0.117302,7.57,31,0.00520441,10,0.000887975,-2.1209,0.276409,0.213452,62.989,0.117302,
2,1,0,1,0,60287.6,0.119655,0.119275,7.68811,31,0.00535712,10,0.000916996,-2.11418,0.297002,0.198652,59.613,0.119275,
2,1,0,1,0,60287.6,0.121652,0.121324,7.80979,31,0.00551224,10,0.000947517,-2.10736,0.299614,0.19692,59.9966,0.121324,
2,1,0,1,0,60287.7,0.12365,0.123251,7.92671,31,0.00566971,10,0.000976977,-2.10091,0.306095,0.19275,59.6336,0.123251,
2,1,0,1,0,60287.7,0.125648,0.125289,8.04622,31,0.0058288,10,0.0010081,-2.09441,0.334843,0.176202,55.2769,0.125289,
2,1,0,1,0,60287.7,0.127645,0.127311,8.15112,31,0.0059909,10,0.00103773,-2.08878,0.354551,0.166408,52.9353,0.127311,
2,1,0,1,0,60287.7,0.129643,0.129263,8.25659,31,0.00615511,10,0.00106727,-2.0832,0.375651,0.157061,50.5771,0.129263,
2,1,0,1,0,60287.7,0.13164,0.13129,8.35233,31,0.00632134,10,0.00109657,-2.07819,0.432509,0.136413,44.4267,0.13129,
2,1,0,1,0,60287.8,0.133638,0.133255,8.43392,31,0.00648855,10,0.00112386,-2.07397,0.478617,0.123272,40.5716,0.133255,
2,1,0,1,0,60287.8,0.135636,0.135291,8.51468,31,0.00665818,10,0.00115196,-2.06983,0.506151,0.116566,38.7182,0.135291,
2,1,0,1,0,60287.8,0.137633,0.137247,8.58849,31,0.00682929,10,0.00117874,-2.06608,0.607079,0.0971868,32.5384,0.137247,
2,1,0,1,0,60287.8,0.139631,0.139242,8.64322,31,0.00700175,10,0.0012035,-2.06332,0.688099,0.0857435,28.9349,0.139242,
2,1,0,1,0,60287.8,0.141628,0.14129,8.70546,31,0.00717447,10,0.00122999,-2.06021,0.774667,0.0761617,25.846,0.14129,
2,1,0,1,0,60287.9,0.143626,0.143291,8.74789,31,0.00734906,10,0.00125349,-2.0581,1.16727,0.0505451,17.24,0.143291,
2,1,0,1,0,60287.9,0.145624,0.145261,8.77392,31,0.00752436,10,0.0012745,-2.05681,3.41559,0.0172737,5.90522,0.145261,
2,1,0,1,0,60287.9,0.147621,0.147275,8.77142,31,0.00769986,10,0.00129181,-2.05693,-7.43593,-0.00793445,-2.71522,0.147275,
2,1,0,1,0,60287.9,0.149619,0.149267,8.76305,31,0.00787442,10,0.00130803,-2.05734,-1.43419,-0.0411383,-14.0373,0.149267,
2,1,0,1,0,60287.9,0.151616,0.151284,8.71514,31,0.00804932,10,0.00131846,-2.05973,-0.635092,-0.0928999,-31.5404,0.151284,
2,1,0,1,0,60288,0.153614,0.153294,8.63602,31,0.0082229,10,0.00132385,-2.06369,-0.4124,-0.143065,-48.129,0.153294,
2,1,0,1,0,60288,0.155611,0.155221,8.52567,31,0.00839463,10,0.00132336,-2.06927,-0.310579,-0.189968,-63.0995,0.155221,
2,1,0,1,0,60288,0.157609,0.157237,8.38724,31,0.00856301,10,0.00131878,-2.07638,-0.243225,-0.242574,-79.1874,0.157237,
2,1,0,1,0,60288,0.159607,0.159262,8.20571,31,0.00872906,10,0.00130685,-2.08588,-0.195306,-0.30209,-96.5712,0.159262,
2,1,0,1,0,60288,0.161604,0.161265,7.99822,31,0.00889114,10,0.00128983,-2.09701,-0.16538,-0.356753,-111.127,0.161265,
2,1,0,1,0,60288.1,0.163602,0.163259,7.76153,31,0.00904882,10,0.00126714,-2.11005,-0.148252,-0.397971,-120.416,0.163259,
2,1,0,1,0,60288.1,0.165606,0.165296,7.51284,31,0.00920162,10,0.00124184,-2.1242,-0.137085,-0.430389,-126.085,0.165296,
2,1,0,1,0,60288.1,0.167597,0.167259,7.25716,31,0.00934863,10,0.00121382,-2.13923,-0.128472,-0.459245,-129.989,0.167259,
2,1,0,1,0,60288.1,0.169595,0.169252,6.99855,31,0.00949124,10,0.00118452,-2.15499,-0.125365,-0.470625,-128.508,0.1692522,
2,1,0,1,0,60288.1,0.171592,0.171264,6.74243,31,0.00962869,10,0.00115474,-2.17118,-0.125033,-0.471877,-124.233,0.171264,
2,1,0,1,0,60288.2,0.173581,0.173269,6.49952,31,0.00976044,10,0.00112617,-2.18712,-0.126968,-0.464685,-117.978,0.173269,
2,1,0,1,0,60288.2,0.175587,0.175234,6.27412,31,0.00988825,10,0.00109944,-2.20245,-0.129143,-0.456857,-111.924,0.175234,
2,1,0,1,0,60288.2,0.177585,0.177192,6.06041,31,0.0100116,10,0.00107386,-2.2175,-0.13547,-0.435521,-103.074,0.177192,
2,1,0,1,0,60288.2,0.179582,0.17926,5.85909,31,0.0101308,10,0.0010503,-2.23217,-0.14358,-0.410921,-94.1038,0.1792603,
2,1,0,1,0,60288.2,0.18158,0.181239,5.67958,31,0.0102462,10,0.00102936,-2.24568,-0.154181,-0.382667,-84.9443,0.181239,
2,1,0,1,0,60288.3,0.183578,0.183252,5.52002,31,0.0103577,10,0.00101155,-2.25806,-0.161998,-0.364201,-78.4742,0.183252,
2,1,0,1,0,60288.3,0.185575,0.185242,5.3655,31,0.0104665,10,0.000993914,-2.27039,-0.167952,-0.35129,-73.6548,0.185242,
2,1,0,1,0,60288.3,0.187573,0.187223,5.22751,31,0.0105725,10,0.000978712,-2.28171,-0.180118,-0.327563,-66.8813,0.187223,
2,1,0,1,0,60288.3,0.18957,0.189208,5.10022,31,0.0106758,10,0.000965003,-2.29241,-0.198177,-0.297713,-59.3456,0.189208,
2,1,0,1,0,60288.3,0.191568,0.191229,4.98977,31,0.0107763,10,0.000954191,-2.30192,-0.215477,-0.273812,-53.3506,0.191229,
2,1,0,1,0,60288.4,0.193566,0.193215,4.88643,31,0.010875,10,0.000944133,-2.31101,-0.226543,-0.260436,-49.7047,0.1932153,
2,1,0,1,0,60288.4,0.195563,0.195206,4.79211,31,0.0109719,10,0.000935449,-2.31947,-0.235207,-0.250843,-46.9176,0.195206,
2,1,0,1,0,60288.4,0.197561,0.19719,4.69994,31,0.0110668,10,0.000926782,-2.32791,-0.260519,-0.226471,-41.6123,0.19719,
2,1,0,1,0,60288.4,0.199558,0.19922,4.62509,31,0.0111596,10,0.00092141,-2.33488,-0.289649,-0.203695,-36.7675,0.19922,
2,1,0,1,0,60288.4,0.201556,0.20124,4.55105,31,0.0112514,10,0.000915852,-2.34189,-0.291061,-0.202706,-36.016,0.20124,
2,1,0,1,0,60288.5,0.203554,0.203221,4.48098,31,0.0113418,10,0.00091063,-2.34863,-0.309226,-0.190799,-33.3979,0.203221,
2,1,0,1,0,60288.5,0.205551,0.205165,4.41996,31,0.0114308,10,0.00090682,-2.35458,-0.381647,-0.154593,-26.7109,0.205165,
2,1,0,1,0,60288.5,0.207549,0.207228,4.37396,31,0.0115183,10,0.000906406,-2.35912,-0.383079,-0.154015,-26.2491,0.207228,
2,1,0,1,0,60288.5,0.209546,0.209182,4.31452,31,0.0116052,10,0.000902518,-2.36507,-0.357243,-0.165154,-27.8323,0.209182,
2,1,0,1,0,60288.5,0.211544,0.211221,4.26282,31,0.0116911,10,0.000900397,-2.3703,-0.415025,-0.14216,-23.6723,0.211221,
2,1,0,1,0,60288.6,0.213541,0.2132,4.21939,31,0.0117759,10,0.000899575,-2.37475,-0.474603,-0.124314,-20.4828,0.2132,
2,1,0,1,0,60288.6,0.215539,0.215208,4.18115,31,0.0118595,10,0.000899818,-2.3787,-0.457171,-0.129055,-21.0389,0.215208,
2,1,0,1,0,60288.6,0.217537,0.217196,4.13532,31,0.0119428,10,0.000898176,-2.38349,-0.490826,-0.120206,-19.4336,0.217196,
2,1,0,1,0,60288.6,0.219534,0.219171,4.10415,31,0.0120253,10,0.000899508,-2.38678,-0.588498,-0.100255,-16.0554,0.219171,
2,1,0,1,0,60288.6,0.221532,0.221156,4.07175,31,0.0121071,10,0.00090049,-2.39022,-0.583133,-0.101178,-16.0792,0.221156,
2,1,0,1,0,60288.7,0.223525,0.223148,4.0402,31,0.0121878,10,0.000901561,-2.3936,-0.61434,-0.096038,-15.146,0.223148,
2,1,0,1,0,60288.7,0.225527,0.225204,4.01043,31,0.0122685,10,0.000903166,-2.39681,-0.6879,-0.0857683,-13.4333,0.225204,
2,1,0,1,0,60288.7,0.227525,0.227156,3.98635,31,0.0123485,10,0.000905524,-2.39942,-0.658924,-0.0895399,-13.9178,0.227156,
2,1,0,1,0,60288.7,0.229522,0.229164,3.95532,31,0.012428,10,0.000906416,-2.40282,-0.708268,-0.0833018,-12.8751,0.229164,
2,1,0,1,0,60288.7,0.23152,0.231186,3.93446,31,0.012507,10,0.000909593,-2.40511,-0.980807,-0.0601545,-9.24198,0.231186,
2,1,0,1,0,60288.8,0.233517,0.233186,3.91815,31,0.0125853,10,0.000913658,-2.40692,-0.975568,-0.0604776,-9.24216,0.233186,
2,1,0,1,0,60288.8,0.235515,0.235228,3.89711,31,0.0126635,10,0.00091671,-2.40926,-0.786275,-0.0750374,-11.4078,0.235228,
2,1,0,1,0,60288.8,0.237512,0.237151,3.87292,31,0.0127412,10,0.000918466,-2.41196,-0.864689,-0.0682326,-10.323,0.237151,
2,1,0,1,0,60288.8,0.23951,0.239194,3.85616,31,0.0128186,10,0.000922373,-2.41384,-1.21632,-0.048507,-7.30352,0.239194,
2,1,0,1,0,60288.8,0.241508,0.241226,3.84316,31,0.0128953,10,0.000927068,-2.41531,-1.09343,-0.0539586,-8.08645,0.241226,
2,1,0,1,0,60288.9,0.243505,0.243181,3.82393,31,0.012972,10,0.000929906,-2.41749,-1.04,-0.0567307,-8.47183,0.243181,
2,1,0,1,0,60288.9,0.245503,0.245164,3.80979,31,0.0130483,10,0.000934025,-2.4191,-1.14267,-0.0516333,-7.67462,0.245164,
2,1,0,1,0,60288.9,0.2475,0.247175,3.79327,31,0.0131244,10,0.000937603,-2.42099,-1.15918,-0.0508979,-7.53807,0.247175,
2,1,0,1,0,60288.9,0.249498,0.249118,3.77999,31,0.0131998,10,0.000941663,-2.42251,-1.33405,-0.0442261,-6.52482,0.249118,
2,1,0,1,0,60288.9,0.251496,0.251148,3.76735,31,0.0132754,10,0.000946163,-2.42396,-1.33313,-0.0442567,-6.50601,0.251148,
2,1,0,1,0,60289,0.253493,0.253169,3.75363,31,0.0133506,10,0.000950302,-2.42555,-1.17299,-0.0502988,-7.36659,0.253169,
2,1,0,1,0,60289,0.255491,0.255118,3.7381,31,0.0134256,10,0.000953658,-2.42735,-1.65369,-0.0356777,-5.21204,0.255118,
2,1,0,1,0,60289,0.257488,0.257156,3.73285,31,0.0135,10,0.000959925,-2.42796,-2.03586,-0.0289804,-4.21814,0.257156,
2,1,0,1,0,60289,0.259486,0.259189,3.72093,31,0.0135746,10,0.000964426,-2.42935,-1.26184,-0.0467572,-6.78687,0.259189,
2,1,0,1,0,60289,0.261484,0.261155,3.70571,31,0.0136489,10,0.000967764,-2.43113,-1.2958,-0.0455317,-6.58862,0.261155,
2,1,0,1,0,60289.1,0.263481,0.263168,3.69472,31,0.0137229,10,0.000972332,-2.43242,-2.09398,-0.0281761,-4.06589,0.263168,
2,1,0,1,0,60289.1,0.265479,0.265177,3.68936,31,0.0137965,10,0.000978332,-2.43305,-1.87493,-0.0314678,-4.52639,0.265177,
2,1,0,1,0,60289.1,0.267476,0.267141,3.67673,31,0.0138702,10,0.000982207,-2.43454,-1.47892,-0.039894,-5.72628,0.267141,
2,1,0,1,0,60289.1,0.269474,0.269169,3.6665,31,0.0139436,10,0.000986908,-2.43575,-1.55636,-0.0379089,-5.42359,0.2691693,
2,1,0,1,0,60289.1,0.271471,0.271127,3.65512,31,0.0140169,10,0.000991001,-2.4371,-2.94138,-0.0200586,-2.86578,0.271127,
2,1,0,1,0,60289.2,0.273469,0.273125,3.65516,31,0.0140896,10,0.000998315,-2.43709,-1.70512,-0.0346016,-4.9226,0.273125,
2,1,0,1,0,60289.2,0.275467,0.275107,3.63552,31,0.0141625,10,0.00100016,-2.43943,-1.33853,-0.0440781,-6.26599,0.275107,
2,1,0,1,0,60289.2,0.277464,0.277153,3.62992,31,0.0142352,10,0.00100604,-2.4401,-1.71756,-0.0343511,-4.86077,0.277153,
2,1,0,1,0,60289.2,0.279462,0.279116,3.61604,31,0.0143078,10,0.00100929,-2.44177,-1.85919,-0.0317343,-4.48449,0.279116,
2,1,0,1,0,60289.2,0.281464,0.281159,3.61195,31,0.0143801,10,0.00101553,-2.44226,-3.12818,-0.0188608,-2.65775,0.281159,
2,1,0,1,0,60289.3,0.283457,0.283136,3.60535,31,0.0144519,10,0.0010208,-2.44305,-1.84181,-0.0320337,-4.50456,0.283136,
2,1,0,1,0,60289.3,0.285455,0.285068,3.59435,31,0.014524,10,0.00102463,-2.44438,-1.28932,-0.0457607,-6.41603,0.285068,
2,1,0,1,0,60289.3,0.287452,0.287104,3.57989,31,0.0145958,10,0.0010278,-2.44613,-1.61856,-0.036452,-5.0987,0.287104,
2,1,0,1,0,60289.3,0.28945,0.289104,3.57377,31,0.0146673,10,0.00103319,-2.44687,-2.60071,-0.0226861,-3.16389,0.289104,
2,1,0,1,0,60289.3,0.291447,0.29112,3.56719,31,0.0147385,10,0.00103848,-2.44767,-1.50647,-0.0391644,-5.44563,0.29112,
2,1,0,1,0,60289.4,0.293445,0.293124,3.55188,31,0.0148098,10,0.00104114,-2.44954,-1.51717,-0.0388881,-5.39752,0.293124,
2,1,0,1,0,60289.4,0.295443,0.295101,3.5457,31,0.0148808,10,0.00104634,-2.4503,-2.98943,-0.0197362,-2.7316,0.295101,
2,1,0,1,0,60289.4,0.29744,0.297119,3.54096,31,0.0149518,10,0.00105209,-2.45088,-2.26661,-0.0260301,-3.59459,0.297119,
2,1,0,1,0,60289.4,0.299438,0.299146,3.53116,31,0.0150222,10,0.00105633,-2.45208,-0.0426809,-1.38235,-179.601,0.299146,
2,1,0,1,0,60289.4,0.299737,0.299431,3.12586,31,0.0150513,10,0.000935978,-2.50503,0.00505252,11.6774,1113.88,0.299431,
2,1,0,1,0,60289.5,0.29774,0.297419,1.60704,31,0.0150965,10,0.000477963,-2.79397,0.00644398,9.15583,589.704,0.297419,
2,1,0,1,0,60289.5,0.295742,0.295374,0.733524,31,0.0151193,10,0.000216664,-3.13459,0.00379835,15.5331,366.377,0.295374,
2,1,0,1,0,60289.5,0.293745,0.293421,0.142422,31,0.0151277,10,4.17897e-05,-3.84642,0.00961995,6.13309,253.674,0.293421,
2,0,0,1,0,60289.5,0.291747,0.291372,-0.2815,31,0.0151261,10,-8.20212e-05,-3.55052,-0.00638636,-9.23843,186.279,0.291372,
2,0,0,1,0,60289.5,0.289754,0.289413,-0.604223,31,0.0151172,10,-0.00017487,-3.2188,-0.00823793,-7.16199,143.832,0.289413,
2,0,0,1,0,60289.6,0.287752,0.287417,-0.850432,31,0.0151026,10,-0.000244429,-3.07036,-0.0168312,-3.5054,110.132,0.287417,
2,0,0,1,0,60289.6,0.285754,0.285401,-1.04606,31,0.0150836,10,-0.000298545,-2.98045,-0.0261725,-2.25427,89.9025,0.285401,
2,0,0,1,0,60289.6,0.283757,0.283362,-1.21497,31,0.0150609,10,-0.000344275,-2.91544,-0.0366129,-1.61145,74.8914,0.283362,
2,0,0,1,0,60289.6,0.281759,0.281364,-1.34839,31,0.0150353,10,-0.000379388,-2.87019,-0.0484883,-1.21679,63.4382,0.281364,
2,0,0,1,0,60289.6,0.279761,0.279427,-1.4646,31,0.0150072,10,-0.000409248,-2.83428,-0.0607416,-0.971328,55.1635,0.279427,
2,0,0,1,0,60289.7,0.277764,0.277392,-1.56751,31,0.0149769,10,-0.000434814,-2.80479,-0.0765895,-0.77034,46.8016,0.277392,
2,0,0,1,0,60289.7,0.275766,0.275409,-1.65266,31,0.0149447,10,-0.000455157,-2.78182,-0.0918763,-0.642168,41.3052,0.275409,
2,0,0,1,0,60289.7,0.273769,0.273422,-1.73148,31,0.0149108,10,-0.000473425,-2.76158,-0.102279,-0.576852,38.9362,0.273422,
2,0,0,1,0,60289.7,0.271771,0.2714,-1.80873,31,0.0148756,10,-0.00049089,-2.74263,-0.115459,-0.511004,35.9557,0.2714,
2,0,0,1,0,60289.7,0.269774,0.269394,-1.87632,31,0.0148387,10,-0.000505469,-2.72669,-0.140306,-0.42051,30.6774,0.269394,
2,0,0,1,0,60289.8,0.267776,0.267408,-1.9312,31,0.0148007,10,-0.000516419,-2.71417,-0.158443,-0.372374,28.0611,0.267408,
2,0,0,1,0,60289.8,0.265778,0.265466,-1.98654,31,0.0147615,10,-0.000527358,-2.7019,-0.161689,-0.364898,28.2926,0.265466,
2,0,0,1,0,60289.8,0.263781,0.263446,-2.0433,31,0.0147214,10,-0.0005383,-2.68967,-0.180313,-0.327208,26.0388,0.263446,
2,0,0,1,0,60289.8,0.261783,0.261395,-2.09253,31,0.0146801,10,-0.000546978,-2.67933,-0.214744,-0.274745,22.3847,0.261395,
2,0,0,1,0,60289.8,0.259786,0.259455,-2.13264,31,0.014638,10,-0.000553323,-2.67108,-0.22017,-0.267975,22.3424,0.259455,
2,0,0,1,0,60289.9,0.257788,0.257446,-2.18076,31,0.0145949,10,-0.000561429,-2.66139,-0.223003,-0.264571,22.4814,0.257446,
2,0,0,1,0,60289.9,0.25579,0.255454,-2.22259,31,0.0145511,10,-0.000567769,-2.65314,-0.264935,-0.222696,19.2897,0.255454,
2,0,0,1,0,60289.9,0.253793,0.253409,-2.25864,31,0.0145063,10,-0.00057236,-2.64615,-0.28904,-0.204124,17.992,0.253409,
2,0,0,1,0,60289.9,0.251795,0.25144,-2.2948,31,0.0144608,10,-0.000577006,-2.63925,-0.286483,-0.205946,18.4457,0.25144,
2,0,0,1,0,60289.9,0.249798,0.249448,-2.33171,31,0.0144146,10,-0.000581639,-2.63233,-0.307332,-0.191975,17.4543,0.249448,
2,0,0,1,0,60290,0.2478,0.247425,-2.36488,31,0.0143679,10,-0.000585132,-2.62619,-0.32294,-0.182696,16.8623,0.247425,
2,0,0,1,0,60290,0.245802,0.245486,-2.39852,31,0.0143203,10,-0.000588802,-2.62006,-0.326393,-0.180763,16.9199,0.245486,
2,0,0,1,0,60290,0.243805,0.243444,-2.43224,31,0.014272,10,-0.000592115,-2.61399,-0.379358,-0.155526,14.7379,0.243444,
2,0,0,1,0,60290,0.241807,0.241452,-2.45796,31,0.0142231,10,-0.00059348,-2.60943,-0.369636,-0.159616,15.34,0.241452,
2,0,0,1,0,60290,0.23981,0.239477,-2.4931,31,0.0141739,10,-0.00059704,-2.60326,-0.362017,-0.162976,15.8334,0.239477,
2,0,0,1,0,60290.1,0.237812,0.23747,-2.52101,31,0.0141237,10,-0.000598665,-2.59842,-0.421494,-0.139978,13.7699,0.23747,
2,0,0,1,0,60290.1,0.235815,0.235467,-2.54831,31,0.014073,10,-0.000600044,-2.59375,-0.418236,-0.141069,14.0339,0.235467,
2,0,0,1,0,60290.1,0.233817,0.233454,-2.57738,31,0.0140218,10,-0.000601699,-2.58882,-0.401517,-0.146943,14.7817,0.233454,
2,0,0,1,0,60290.1,0.231815,0.231491,-2.60709,31,0.0139701,10,-0.000603517,-2.58384,-0.423303,-0.13938,14.1728,0.231491,
2,0,0,1,0,60290.1,0.229822,0.22947,-2.63384,31,0.0139179,10,-0.000604387,-2.57941,-0.48706,-0.121135,12.4428,0.22947,
2,0,0,1,0,60290.2,0.227824,0.227474,-2.65707,31,0.0138651,10,-0.000604415,-2.5756,-0.470231,-0.12547,13.0235,0.2274739,
2,0,0,1,0,60290.2,0.225827,0.225496,-2.6856,31,0.0138117,10,-0.000605591,-2.57096,-0.497129,-0.118681,12.4214,0.2254959,
2,0,0,1,0,60290.2,0.223829,0.223482,-2.70665,31,0.0137578,10,-0.000604889,-2.56757,-0.530874,-0.111137,11.7504,0.223482,
2,0,0,1,0,60290.2,0.221831,0.22148,-2.73278,31,0.0137037,10,-0.000605257,-2.56339,-0.497405,-0.118616,12.6463,0.22148,
2,0,0,1,0,60290.2,0.219834,0.219484,-2.75722,31,0.0136488,10,-0.000605165,-2.55953,-0.487606,-0.120999,13.0279,0.219484,
2,0,0,1,0,60290.3,0.217836,0.217466,-2.78508,31,0.0135934,10,-0.00060566,-2.55516,-0.570391,-0.103438,11.2205,0.217466,
2,0,0,1,0,60290.3,0.215839,0.215498,-2.80194,31,0.0135375,10,-0.000603813,-2.55254,-0.544678,-0.108321,11.8744,0.215498,
2,0,0,1,0,60290.3,0.213841,0.213443,-2.83284,31,0.0134815,10,-0.000604652,-2.54778,-0.514364,-0.114705,12.6564,0.213443,
2,0,0,1,0,60290.3,0.211843,0.211487,-2.85271,31,0.0134246,10,-0.000603311,-2.54474,-0.605429,-0.0974515,10.8549,0.211487,
2,0,0,1,0,60290.3,0.209846,0.209512,-2.87552,31,0.0133673,10,-0.000602456,-2.54128,-0.566799,-0.104093,11.6837,0.209512,
2,0,0,1,0,60290.4,0.207848,0.207484,-2.89948,31,0.0133096,10,-0.000601595,-2.53768,-0.433681,-0.136045,15.4316,0.207484,
2,0,0,1,0,60290.4,0.205851,0.205486,-2.93765,31,0.0132516,10,-0.000603646,-2.532,-0.510791,-0.115507,13.1889,0.205486,
2,0,0,1,0,60290.4,0.203853,0.203488,-2.95218,31,0.0131927,10,-0.000600733,-2.52986,-0.764062,-0.0772189,8.90663,0.203488,
2,0,0,1,0,60290.4,0.201856,0.201477,-2.97335,31,0.0131335,10,-0.000599063,-2.52675,-0.59237,-0.0995999,11.5647,0.201477,
2,0,0,1,0,60290.4,0.199858,0.1995,-2.9983,31,0.0130738,10,-0.000598161,-2.52313,-0.492916,-0.119696,14.0206,0.1995,
2,0,0,1,0,60290.5,0.19786,0.197464,-3.02961,31,0.0130139,10,-0.000598241,-2.51861,-0.569162,-0.103661,12.2289,0.1974645,
2,0,0,1,0,60290.5,0.195863,0.195485,-3.0474,31,0.0129532,10,-0.000595721,-2.51607,-0.625653,-0.0943015,11.2312,0.1954848,
2,0,0,1,0,60290.5,0.193865,0.193519,-3.07393,31,0.0128921,10,-0.000594863,-2.51231,-0.580857,-0.101574,12.1762,0.1935188,
2,0,0,1,0,60290.5,0.191868,0.1915,-3.09592,31,0.0128304,10,-0.000592869,-2.50921,-0.544991,-0.108259,13.0991,0.1915,
2,0,0,1,0,60290.5,0.18987,0.189467,-3.127,31,0.0127685,10,-0.000592464,-2.50487,-0.535107,-0.110258,13.4376,0.189467,
2,0,0,1,0,60290.6,0.187872,0.187484,-3.14988,31,0.0127058,10,-0.000590554,-2.50171,-0.557248,-0.105878,13.0267,0.187484,
2,0,0,1,0,60290.6,0.185875,0.18553,-3.17829,31,0.0126425,10,-0.000589668,-2.49781,-0.575963,-0.102437,12.6938,0.18553,
2,0,0,1,0,60290.6,0.183877,0.183486,-3.20064,31,0.0125788,10,-0.000587272,-2.49476,-0.517394,-0.114033,14.2706,0.183486,
2,0,0,1,0,60290.6,0.18188,0.181549,-3.2351,31,0.0125148,10,-0.000587329,-2.49011,-0.468883,-0.125831,15.8721,0.181549,
2,0,0,1,0,60290.6,0.179882,0.179509,-3.26376,31,0.0124498,10,-0.000585874,-2.48628,-0.553592,-0.106577,13.5686,0.179509,
2,0,0,1,0,60290.7,0.177885,0.177545,-3.28943,31,0.0123843,10,-0.000584022,-2.48288,-0.523147,-0.112779,14.4924,0.177545,
2,0,0,1,0,60290.7,0.175887,0.175508,-3.32174,31,0.0123183,10,-0.000582993,-2.47863,-0.466958,-0.12635,16.3822,0.175508,
2,0,0,1,0,60290.7,0.173896,0.173524,-3.35531,31,0.0122519,10,-0.000582225,-2.47427,-0.436027,-0.135313,17.727,0.173524,
2,0,0,1,0,60290.7,0.171892,0.171532,-3.39223,31,0.0121845,10,-0.000581875,-2.46951,-0.468793,-0.125855,16.6408,0.171532,
2,0,0,1,0,60290.7,0.169894,0.169586,-3.42083,31,0.0121165,10,-0.000580125,-2.46587,-0.444304,-0.132792,17.7643,0.169586,
2,0,0,1,0,60290.8,0.167897,0.167516,-3.46358,31,0.0120477,10,-0.000580203,-2.46048,-0.397629,-0.148379,20.0457,0.167516,
2,0,0,1,0,60290.8,0.165899,0.165497,-3.50281,31,0.0119781,10,-0.000579703,-2.45558,-0.397031,-0.148603,20.3203,0.165497,
2,0,0,1,0,60290.8,0.163901,0.163542,-3.54432,31,0.011908,10,-0.000579645,-2.45047,-0.371259,-0.158919,21.9943,0.1635422,
2,0,0,1,0,60290.8,0.161904,0.161528,-3.5901,31,0.0118367,10,-0.000579901,-2.44489,-0.360886,-0.163487,22.9049,0.161528,
2,0,0,1,0,60290.8,0.159906,0.159545,-3.63587,31,0.0117644,10,-0.000580085,-2.43939,-0.342628,-0.172198,24.4512,0.159545,
2,0,0,1,0,60290.9,0.157909,0.157562,-3.68708,31,0.0116912,10,-0.000580942,-2.43332,-0.301149,-0.195917,28.2279,0.157562,
2,0,0,1,0,60290.9,0.155911,0.155558,-3.74841,31,0.0116172,10,-0.000583096,-2.42615,-0.267056,-0.220927,32.3445,0.1555582,
2,0,0,1,0,60290.9,0.153913,0.153565,-3.81635,31,0.0115416,10,-0.000586057,-2.41835,-0.263868,-0.223597,33.282,0.153565,
2,0,0,1,0,60290.9,0.151916,0.151594,-3.88036,31,0.0114647,10,-0.000588238,-2.41113,-0.245295,-0.240527,36.4985,0.151594,
2,0,0,1,0,60290.9,0.149918,0.149603,-3.96094,31,0.0113862,10,-0.00059257,-2.4022,-0.209811,-0.281206,43.5459,0.149603,
2,0,0,1,0,60291,0.147921,0.147543,-4.05674,31,0.0113065,10,-0.000598544,-2.39182,-0.200694,-0.29398,46.5095,0.147543,
2,0,0,1,0,60291,0.145923,0.14558,-4.14806,31,0.0112244,10,-0.000603875,-2.38216,-0.186774,-0.31589,51.2546,0.14558,
2,0,0,1,0,60291,0.143926,0.143579,-4.25993,31,0.0111404,10,-0.000611636,-2.3706,-0.166196,-0.355002,59.1057,0.143579,
2,0,0,1,0,60291,0.141928,0.141547,-4.38644,31,0.011054,10,-0.000620888,-2.35789,-0.145969,-0.404195,69.3561,0.141547,
2,0,0,1,0,60291,0.13993,0.139592,-4.53644,31,0.0109652,10,-0.000633251,-2.34328,-0.136773,-0.431373,76.3753,0.139592,
2,0,0,1,0,60291.1,0.137933,0.137569,-4.69027,31,0.0108731,10,-0.000645235,-2.3288,-0.130581,-0.451827,82.8875,0.137569,
2,0,0,1,0,60291.1,0.135935,0.135584,-4.86868,31,0.0107775,10,-0.000660114,-2.31259,-0.119334,-0.494409,94.0545,0.135584,
2,0,0,1,0,60291.1,0.133938,0.133601,-5.06348,31,0.0106782,10,-0.000676485,-2.29555,-0.116577,-0.506104,100.043,0.133601,
2,0,0,1,0,60291.1,0.13194,0.131606,-5.26661,31,0.0105755,10,-0.000693118,-2.27847,-0.116641,-0.505826,104.072,0.131606,
2,0,0,1,0,60291.1,0.129942,0.129541,-5.48599,31,0.010468,10,-0.000710661,-2.26075,-0.113466,-0.51998,111.332,0.129541,
2,0,0,1,0,60291.2,0.127945,0.127608,-5.71175,31,0.0103561,10,-0.000728864,-2.24323,-0.11639,-0.506915,112.892,0.127608,
2,0,0,1,0,60291.2,0.125947,0.125585,-5.93264,31,0.0102397,10,-0.000745048,-2.22675,-0.118844,-0.49645,115.08,0.125585,
2,0,0,1,0,60291.2,0.12395,0.123596,-6.17348,31,0.0101193,10,-0.000763015,-2.20947,-0.121645,-0.485017,116.662,0.123596,
2,0,0,1,0,60291.2,0.121952,0.121581,-6.39975,31,0.00999356,10,-0.000778086,-2.19384,-0.131262,-0.449484,112.156,0.121581,
2,0,0,1,0,60291.2,0.119955,0.119624,-6.6189,31,0.0098634,10,-0.000791781,-2.17921,-0.137622,-0.42871,110.701,0.119624,
2,0,0,1,0,60291.3,0.117957,0.117622,-6.83801,31,0.00972885,10,-0.000804298,-2.16507,-0.143569,-0.410952,109.635,0.117622,
2,0,0,1,0,60291.3,0.115955,0.115623,-7.0576,31,0.00958993,10,-0.000816019,-2.15134,-0.156393,-0.377254,103.72,0.115623,
2,0,0,1,0,60291.3,0.113962,0.113596,-7.25555,31,0.00944748,10,-0.000824202,-2.13933,-0.171558,-0.343906,97.3418,0.113596,
2,0,0,1,0,60291.3,0.111964,0.111579,-7.45122,31,0.00930043,10,-0.0008314,-2.12777,-0.177976,-0.331506,96.3152,0.111579,
2,0,0,1,0,60291.3,0.109967,0.109637,-7.63686,31,0.00914954,10,-0.000837283,-2.11709,-0.193001,-0.305698,91.0387,0.109637,
2,0,0,1,0,60291.4,0.107969,0.107603,-7.81322,31,0.00899505,10,-0.000840724,-2.10717,-0.209891,-0.281098,85.651,0.107603,
2,0,0,1,0,60291.4,0.105971,0.105624,-7.98062,31,0.00883791,10,-0.000842942,-2.09796,-0.228746,-0.257928,80.2457,0.1056236,
2,0,0,1,0,60291.4,0.103974,0.103622,-8.13265,31,0.0086768,10,-0.000842722,-2.08977,-0.25972,-0.227168,72.0335,0.103622,
2,0,0,1,0,60291.4,0.101976,0.101591,-8.27113,31,0.00851277,10,-0.000840269,-2.08244,-0.296682,-0.198866,64.1101,0.101591,
2,0,0,1,0,60291.4,0.0999786,0.0996154,-8.38951,31,0.00834623,10,-0.000835725,-2.07626,-0.330587,-0.178471,58.4197,0.09961544,
2,0,0,1,0,60291.5,0.0979811,0.0975905,-8.50481,31,0.00817808,10,-0.000829989,-2.07034,-0.388662,-0.151803,50.2968,0.0975905,
2,0,0,1,0,60291.5,0.0959835,0.0956121,-8.59087,31,0.00800709,10,-0.000821391,-2.06596,-0.486704,-0.121224,40.6127,0.0956121,
2,0,0,1,0,60291.5,0.0939859,0.0936581,-8.66452,31,0.00783455,10,-0.000811502,-2.06226,-0.617537,-0.0955408,32.2708,0.0936581,
2,0,0,1,0,60291.5,0.0919883,0.0916399,-8.71906,31,0.00766074,10,-0.000799013,-2.05953,-0.791309,-0.07456,25.3608,0.0916399,
2,0,0,1,0,60291.5,0.0899907,0.0896289,-8.7667,31,0.00748673,10,-0.00078575,-2.05716,-1.37421,-0.0429339,14.6584,0.0896289,
2,0,0,1,0,60291.6,0.0879931,0.0876464,-8.77759,31,0.00731128,10,-0.000769324,-2.05662,-3.85134,-0.0153194,5.24762,0.08764638,
2,0,0,1,0,60291.6,0.0859955,0.0856071,-8.78781,31,0.00713563,10,-0.000752298,-2.05612,36.8036,0.0016031,-0.549094,0.0856071,
2,0,0,1,0,60291.6,0.083998,0.0836185,-8.77538,31,0.00696,10,-0.000733785,-2.05673,2.82097,0.0209148,-7.16141,0.0836185,
2,0,0,1,0,60291.6,0.0820004,0.0816651,-8.75958,31,0.00678549,10,-0.000715352,-2.05752,1.69527,0.0348027,-11.8874,0.0816651,
2,0,0,1,0,60291.6,0.0800028,0.0796933,-8.72872,31,0.00661064,10,-0.00069562,-2.05905,1.25415,0.0470437,-16.0232,0.0796933,
2,0,0,1,0,60291.7,0.0780052,0.0776547,-8.69532,31,0.00643646,10,-0.000675232,-2.06071,0.990805,0.0595476,-20.1906,0.07765466,
2,0,0,1,0,60291.7,0.0760076,0.0756679,-8.64745,31,0.00626309,10,-0.000654334,-2.06311,0.924922,0.0637892,-21.5383,0.0756679,
2,0,0,1,0,60291.7,0.07401,0.0736103,-8.60821,31,0.0060915,10,-0.000633653,-2.06509,0.924167,0.0638413,-21.4383,0.0736103,
2,0,0,1,0,60291.7,0.0720124,0.0716677,-8.56169,31,0.00591985,10,-0.000613597,-2.06744,0.864945,0.0682124,-22.7949,0.0716677,
2,0,0,1,0,60291.7,0.0700148,0.0696228,-8.51731,31,0.00574913,10,-0.000592999,-2.0697,0.793327,0.0743703,-24.7061,0.0696228,
2,0,0,1,0,60291.8,0.0680173,0.067668,-8.46287,31,0.00557939,10,-0.000572666,-2.07248,0.981875,0.0600891,-19.8813,0.067668,
2,0,0,1,0,60291.8,0.0660106,0.0656591,-8.43851,31,0.00541046,10,-0.000554065,-2.07373,1.12375,0.0525028,-17.2692,0.0656591,
2,0,0,1,0,60291.8,0.0640221,0.0636379,-8.39328,31,0.005243,10,-0.000534131,-2.07607,0.892092,0.0661366,-21.6693,0.0636379,
2,0,0,1,0,60291.8,0.0620245,0.0616811,-8.35231,31,0.0050756,10,-0.000515179,-2.07819,0.953205,0.0618965,-20.1782,0.0616811,
2,0,0,1,0,60291.8,0.0600269,0.0596732,-8.31328,31,0.00490899,10,-0.00049608,-2.08023,1.06342,0.0554814,-18.0071,0.0596732,
2,0,0,1,0,60291.9,0.0580361,0.057694,-8.28051,31,0.0047439,10,-0.000477736,-2.08194,1.06941,0.0551704,-17.8226,0.057694,
2,0,0,1,0,60291.9,0.0560317,0.0556686,-8.2419,31,0.00457862,10,-0.000458815,-2.08397,1.06376,0.0554634,-17.8457,0.0556686,
2,0,0,1,0,60291.9,0.0540342,0.0536606,-8.20853,31,0.00441411,10,-0.000440474,-2.08573,1.08705,0.0542755,-17.3841,0.0536606,
2,0,0,1,0,60291.9,0.0520366,0.0516586,-8.17219,31,0.0042503,10,-0.000422164,-2.08766,0.946025,0.0623662,-19.8827,0.0516586,
2,0,0,1,0,60291.9,0.050039,0.0496782,-8.12935,31,0.00408728,10,-0.000403852,-2.08994,0.964671,0.0611607,-19.4144,0.0496782,
2,0,0,1,0,60292,0.0480414,0.0476992,-8.09532,31,0.00392581,10,-0.00038614,-2.09177,0.988812,0.0596676,-18.8431,0.0476992,
2,0,0,1,0,60292,0.0460438,0.0457083,-8.05455,31,0.00376433,10,-0.00036816,-2.09396,0.86588,0.0681388,-21.4123,0.04570831,
2,0,0,1,0,60292,0.0440462,0.0436643,-8.00893,31,0.00360373,10,-0.000349704,-2.09643,0.808148,0.0730064,-22.8192,0.0436643,
2,0,0,1,0,60292,0.0420486,0.0417195,-7.96353,31,0.00344406,10,-0.000332234,-2.09889,0.880506,0.0670069,-20.8343,0.04171947,
2,0,0,1,0,60292,0.040051,0.0396492,-7.92527,31,0.00328595,10,-0.00031423,-2.10099,0.874717,0.0674504,-20.8521,0.0396492,
2,0,0,1,0,60292.1,0.0380535,0.037684,-7.87938,31,0.00312792,10,-0.000296927,-2.10351,0.712184,0.0828438,-25.4603,0.037684,
2,0,0,1,0,60292.1,0.0360559,0.0356933,-7.82456,31,0.00297097,10,-0.000279284,-2.10654,0.696589,0.0846984,-25.8748,0.03569331,
2,0,0,1,0,60292.1,0.0340583,0.033703,-7.77637,31,0.00281501,10,-0.000262087,-2.10922,0.708187,0.0833114,-25.2774,0.033703,
2,0,0,1,0,60292.1,0.0320607,0.0317293,-7.72436,31,0.0026608,10,-0.000245089,-2.11214,0.64752,0.0911169,-27.4574,0.0317293,
2,0,0,1,0,60292.1,0.0300631,0.0297098,-7.66673,31,0.00250693,10,-0.000227777,-2.11539,0.602931,0.0978552,-29.2749,0.0297098,
2,0,0,1,0,60292.2,0.0280655,0.0277272,-7.6072,31,0.00235424,10,-0.000210926,-2.11878,0.581954,0.101383,-30.0952,0.0277272,
2,0,0,1,0,60292.2,0.0260679,0.0257015,-7.5461,31,0.00220272,10,-0.000193946,-2.12228,0.55846,0.105648,-31.1081,0.0257015,
2,0,0,1,0,60292.2,0.0240704,0.023729,-7.48282,31,0.00205318,10,-0.00017756,-2.12593,0.538916,0.109479,-31.9709,0.023729,
2,0,0,1,0,60292.2,0.0220728,0.0217483,-7.41971,31,0.00190416,10,-0.000161366,-2.12961,0.519913,0.11348,-32.8462,0.0217483,
2,0,0,1,0,60292.2,0.0200752,0.0197046,-7.35064,31,0.0017565,10,-0.000144842,-2.13368,0.484612,0.121747,-34.9182,0.0197046,
2,0,0,1,0,60292.3,0.0180776,0.0177131,-7.27881,31,0.0016102,10,-0.00012893,-2.13794,0.506733,0.116432,-33.0999,0.0177131,
2,0,0,1,0,60292.3,0.01608,0.0157113,-7.21846,31,0.00146601,10,-0.000113412,-2.14156,0.528901,0.111552,-31.4155,0.0157113,
2,0,0,1,0,60292.3,0.0140824,0.0137325,-7.15376,31,0.00132236,10,-9.82388e-05,-2.14547,0.469785,0.125589,-35.0359,0.0137325,
2,0,0,1,0,60292.3,0.0120848,0.0117138,-7.0784,31,0.0011801,10,-8.29149e-05,-2.15006,0.451758,0.130601,-36.0944,0.0117138,
2,0,0,1,0,60292.3,0.0100872,0.00974739,-7.00992,31,0.00103923,10,-6.83283e-05,-2.15429,0.52986,0.11135,-30.4961,0.009747385,
2,0,0,1,0,60292.4,0.00809193,0.0077395,-6.9572,31,0.000900344,10,-5.38453e-05,-2.15757,0.560202,0.105319,-28.5764,0.0077395,
2,0,0,1,0,60292.4,0.00609208,0.00573533,-6.89527,31,0.000761897,10,-3.95466e-05,-2.16145,0.499187,0.118192,-31.797,0.00573533,
2,0,0,1,0,60292.4,0.00409449,0.00373984,-6.83002,31,0.000624755,10,-2.55432e-05,-2.16558,0.754806,0.0781658,-20.9048,0.003739841,
2,0,0,1,0,60292.4,0.0020969,0.00167668,-6.81042,31,0.000488632,10,-1.14189e-05,-2.16683,0.764602,0.0771643,-20.4424,0.00167668,
2,0,0,1,0,60292.4,9.14991e-05,-0.000348749,-6.74644,31,0.000353137,10,2.35281e-06,-2.17093,0.542139,0.108828,-28.68,-0.000348749,
2,0,0,1,0,60292.4,-0.00189827,-0.00234111,-6.69519,31,0.000219422,10,1.56742e-05,-2.17424,0.621299,0.0949623,-24.8204,-0.00234111,
2,0,0,1,0,60292.5,-0.00389586,-0.00430545,-6.64823,31,8.60193e-05,10,2.86236e-05,-2.17729,0.722213,0.0816934,-21.2127,-0.00430545,
2,0,0,1,0,60292.5,-0.00589345,-0.00626895,-6.61187,31,-4.65301e-05,10,4.14495e-05,-2.17968,0.798876,0.0738538,-19.0521,-0.00626895,
2,0,0,1,0,60292.5,-0.00789103,-0.00830424,-6.57205,31,-0.00017831,10,5.45759e-05,-2.1823,0.995889,0.0592436,-15.2163,-0.00830424,
2,0,0,1,0,60292.5,-0.00988862,-0.010295,-6.55061,31,-0.000308863,10,6.74384e-05,-2.18372,1.19619,0.0493233,-12.6023,-0.010295,
2,0,0,1,0,60292.5,-0.0118862,-0.0122939,-6.52177,31,-0.000439564,10,8.01783e-05,-2.18563,1.10676,0.0533085,-13.5714,-0.0122939,
2,0,0,1,0,60292.6,-0.0138838,-0.0143185,-6.496,31,-0.000569804,10,9.3013e-05,-2.18735,1.60911,0.0366662,-9.30593,-0.0143185,
2,0,0,1,0,60292.6,-0.0158814,-0.0162689,-6.48478,31,-0.000699614,10,0.0001055,-2.1881,3.54725,0.0166326,-4.21126,-0.0162689,
2,0,0,1,0,60292.6,-0.017879,-0.0182803,-6.47932,31,-0.000828634,10,0.000118444,-2.18847,3.74275,0.0157638,-3.9846,-0.0182803,
2,0,0,1,0,60292.6,-0.0198766,-0.0202728,-6.46882,31,-0.000958129,10,0.000131141,-2.18917,4.92122,0.0119889,-3.02875,-0.0202728,
2,0,0,1,0,60292.6,-0.0218741,-0.0223044,-6.46713,31,-0.00108745,10,0.000144245,-2.18929,117.461,0.000502296,-0.126804,-0.02230438,
2,0,0,1,0,60292.7,-0.0238717,-0.0242513,-6.46832,31,-0.00121676,10,0.000156865,-2.18921,-4.67032,-0.012633,3.1916,-0.0242513,
2,0,0,1,0,60292.7,-0.0258693,-0.0263006,-6.47989,31,-0.00134562,10,0.000170425,-2.18843,-4.56775,-0.0129166,3.26395,-0.0263006,
2,0,0,1,0,60292.7,-0.0278669,-0.0282553,-6.48139,31,-0.00147522,10,0.000183134,-2.18833,-2.76251,-0.0213574,5.41001,-0.0282553,
2,0,0,1,0,60292.7,-0.0298645,-0.0302725,-6.50137,31,-0.00160504,10,0.000196813,-2.18699,-1.75646,-0.0335902,8.51905,-0.0302725,
2,0,0,1,0,60292.7,-0.0318621,-0.0322827,-6.5157,31,-0.00173515,10,0.000210344,-2.18604,-1.79392,-0.0328888,8.36614,-0.0322827,
2,0,0,1,0,60292.8,-0.0338597,-0.0342447,-6.53461,31,-0.00186495,10,0.000223776,-2.18478,-1.45857,-0.0404507,10.3184,-0.0342447,
2,0,0,1,0,60292.8,-0.0358573,-0.0362564,-6.5567,31,-0.00199584,10,0.000237722,-2.18331,-1.19345,-0.0494367,12.6566,-0.0362564,
2,0,0,1,0,60292.8,-0.0378549,-0.0382655,-6.5855,31,-0.00212724,10,0.000251998,-2.18141,-1.17921,-0.0500333,12.8535,-0.0382655,
2,0,0,1,0,60292.8,-0.0398524,-0.0402963,-6.60863,31,-0.00225912,10,0.000266303,-2.17989,-1.02557,-0.057529,14.8524,-0.04029626,
2,0,0,1,0,60292.8,-0.04185,-0.0422749,-6.64504,31,-0.00239092,10,0.000280919,-2.1775,-0.918459,-0.064238,16.651,-0.04227493,
2,0,0,1,0,60292.9,-0.0438476,-0.0442843,-6.67503,31,-0.00252412,10,0.000295599,-2.17555,-1.03597,-0.0569516,14.8356,-0.0442843,
2,0,0,1,0,60292.9,-0.0458452,-0.0462898,-6.70461,31,-0.00265794,10,0.000310355,-2.17363,-0.876494,-0.0673136,17.6269,-0.0462898,
2,0,0,1,0,60292.9,-0.0478428,-0.0482354,-6.74468,31,-0.00279244,10,0.000325332,-2.17104,-0.70298,-0.0839285,22.1029,-0.0482354,
2,0,0,1,0,60292.9,-0.0498495,-0.0502252,-6.79159,31,-0.00292773,10,0.000341109,-2.16803,-0.749085,-0.0787627,20.8613,-0.0502252,
2,0,0,1,0,60292.9,-0.051838,-0.0522711,-6.82887,31,-0.00306328,10,0.000356952,-2.16565,-0.796743,-0.0740515,19.7417,-0.0522711,
2,0,0,1,0,60293,-0.0538355,-0.0542296,-6.87064,31,-0.00320026,10,0.000372592,-2.163,-0.699797,-0.0843101,22.6167,-0.0542296,
2,0,0,1,0,60293,-0.0558331,-0.0562387,-6.9186,31,-0.00333813,10,0.000389093,-2.15998,-0.656312,-0.0898963,24.2747,-0.0562387,
2,0,0,1,0,60293,-0.0578216,-0.0582302,-6.96776,31,-0.00347625,10,0.000405734,-2.15691,-0.670218,-0.0880311,23.9336,-0.0582302,
2,0,0,1,0,60293,-0.0598283,-0.0602422,-7.01442,31,-0.00361611,10,0.000422564,-2.15401,-0.588811,-0.100202,27.4612,-0.0602422,
2,0,0,1,0,60293,-0.0618259,-0.0622134,-7.07714,31,-0.003757,10,0.000440293,-2.15014,-0.587546,-0.100418,27.7057,-0.0622134,
2,0,0,1,0,60293.1,-0.0638235,-0.0642366,-7.12509,31,-0.00389903,10,0.000457692,-2.14721,-0.627874,-0.093968,26.144,-0.0642366,
2,0,0,1,0,60293.1,-0.0658211,-0.0661896,-7.1811,31,-0.00404211,10,0.000475314,-2.14381,-0.539282,-0.109405,30.6797,-0.0661896,
2,0,0,1,0,60293.1,-0.0678187,-0.0681795,-7.24606,31,-0.00418572,10,0.000494033,-2.1399,-0.53085,-0.111142,31.4211,-0.0681795,
2,0,0,1,0,60293.1,-0.0698162,-0.0702044,-7.30725,31,-0.00433128,10,0.000513001,-2.13625,-0.569006,-0.10369,29.5649,-0.0702044,
2,0,0,1,0,60293.1,-0.0718138,-0.0722422,-7.36617,31,-0.00447807,10,0.000532148,-2.13276,-0.507459,-0.116265,33.4588,-0.0722422,
2,0,0,1,0,60293.2,-0.0738114,-0.0741999,-7.44093,31,-0.00462613,10,0.000552116,-2.12837,-0.460285,-0.128181,37.2173,-0.0741999,
2,0,0,1,0,60293.2,-0.075809,-0.076207,-7.51373,31,-0.00477496,10,0.000572598,-2.12414,-0.498255,-0.118413,34.708,-0.07620699,
2,0,0,1,0,60293.2,-0.0778066,-0.0782185,-7.58041,31,-0.00492592,10,0.000592928,-2.12031,-0.493594,-0.119531,35.3804,-0.0782185,
2,0,0,1,0,60293.2,-0.0798042,-0.0802101,-7.65536,31,-0.00507829,10,0.000614037,-2.11603,-0.460806,-0.128036,38.2608,-0.0802101,
2,0,0,1,0,60293.2,-0.0818018,-0.0822342,-7.73405,31,-0.0052322,10,0.000636004,-2.11159,-0.442981,-0.133189,40.2098,-0.0822342,
2,0,0,1,0,60293.3,-0.0837994,-0.0842216,-7.81666,31,-0.00538697,10,0.000658331,-2.10698,-0.433182,-0.136201,41.5477,-0.0842216,
2,0,0,1,0,60293.3,-0.0857969,-0.0862079,-7.89915,31,-0.00554408,10,0.000680969,-2.10242,-0.439842,-0.134139,41.3488,-0.0862079,
2,0,0,1,0,60293.3,-0.0877945,-0.088193,-7.98087,31,-0.00570288,10,0.000703857,-2.09795,-0.423929,-0.139174,43.3701,-0.088193,
2,0,0,1,0,60293.3,-0.0897921,-0.0901752,-8.07121,31,-0.00586341,10,0.000727823,-2.09306,-0.424772,-0.138898,43.7356,-0.0901752,
2,0,0,1,0,60293.3,-0.0917897,-0.0921991,-8.15608,31,-0.00602486,10,0.000751984,-2.08852,-0.43518,-0.135576,43.1585,-0.0921991,
2,0,0,1,0,60293.4,-0.0937873,-0.0941552,-8.24298,31,-0.00618891,10,0.000776119,-2.08392,-0.43147,-0.136742,43.994,-0.0941552,
2,0,0,1,0,60293.4,-0.0957849,-0.0962018,-8.33218,31,-0.00635473,10,0.000801571,-2.07924,-0.439468,-0.134253,43.6462,-0.0962018,
2,0,0,1,0,60293.4,-0.0977825,-0.0981674,-8.4181,31,-0.00652223,10,0.000826383,-2.07479,-0.431785,-0.136642,44.9057,-0.09816739,
2,0,0,1,0,60293.4,-0.0997501,-0.100163,-8.51006,31,-0.00668814,10,0.000852393,-2.07007,0.0106134,5.55903,-1655.28,-0.100163,
2,0,0,1,1,60293.4,-0.0987313,-0.0990892,-6.89221,31,-0.00680551,10,0.000682944,-2.16164,-0.0150234,-3.92721,1042.12,-0.09908922,
2,0,0,1,1,60293.5,-0.0967337,-0.0971163,-5.335,31,-0.00692667,10,0.000518115,-2.27287,-0.0181274,-3.25475,686.351,-0.0971163,
2,0,0,1,1,60293.5,-0.0947362,-0.0950883,-4.14614,31,-0.00702086,10,0.000394249,-2.38236,-0.017401,-3.39061,548.906,-0.0950883,
2,0,0,1,1,60293.5,-0.0927386,-0.0931392,-3.15194,31,-0.00709339,10,0.000293569,-2.50142,-0.0156521,-3.76947,461.701,-0.0931392,
2,0,0,1,1,60293.5,-0.090741,-0.0911092,-2.30901,31,-0.00714743,10,0.000210372,-2.63657,-0.0134254,-4.39465,390.623,-0.0911092,
2,0,0,1,1,60293.5,-0.0887434,-0.0891204,-1.58211,31,-0.00718607,10,0.000140998,-2.80076,-0.0101736,-5.79933,344.037,-0.0891204,
2,0,0,1,1,60293.6,-0.0867458,-0.0871162,-0.935278,31,-0.00721097,10,8.14779e-05,-3.02906,-0.00622413,-9.47923,306.274,-0.0871162,
2,0,0,1,1,60293.6,-0.0847482,-0.085139,-0.362718,31,-0.00722368,10,3.08815e-05,-3.44043,-0.00508792,-11.5961,271.887,-0.085139,
2,1,0,1,1,60293.6,-0.0827529,-0.083114,0.152872,31,-0.00722563,10,-1.27058e-05,-3.81567,0.0177651,3.32112,242.68,-0.083114,
2,1,0,1,1,60293.6,-0.080753,-0.0811319,0.609716,31,-0.00721782,10,-4.94675e-05,-3.21487,0.00477811,12.348,221.582,-0.08113195,
2,1,0,1,1,60293.6,-0.0787555,-0.0791551,1.03009,31,-0.00720124,10,-8.15369e-05,-2.98712,0.0109444,5.39089,200.018,-0.0791551,
2,1,0,1,1,60293.7,-0.0767579,-0.0771813,1.39991,31,-0.0071768,10,-0.000108047,-2.8539,0.0173373,3.40307,180.232,-0.0771813,
2,1,0,1,1,60293.7,-0.0747603,-0.0751785,1.74681,31,-0.00714522,10,-0.000131323,-2.75775,0.0237295,2.48636,165.934,-0.0751785,
2,1,0,1,1,60293.7,-0.0727627,-0.0731858,2.06291,31,-0.00710708,10,-0.000150975,-2.68552,0.0315487,1.87013,148.322,-0.0731858,
2,1,0,1,1,60293.7,-0.0707651,-0.071131,2.34714,31,-0.00706283,10,-0.000166954,-2.62946,0.0396517,1.48796,135.055,-0.071131,
2,1,0,1,1,60293.7,-0.0687675,-0.0691351,2.60997,31,-0.00701313,10,-0.000180441,-2.58336,0.0466944,1.26354,127.789,-0.0691351,
2,1,0,1,1,60293.8,-0.0667699,-0.0671791,2.85215,31,-0.0069584,10,-0.000191605,-2.54483,0.055852,1.05636,116.83,-0.0671791,
2,1,0,1,1,60293.8,-0.0647723,-0.0651958,3.07021,31,-0.00689929,10,-0.000200164,-2.51283,0.0666998,0.88456,105.555,-0.0651958,
2,1,0,1,1,60293.8,-0.0627748,-0.0631938,3.27282,31,-0.00683575,10,-0.000206822,-2.48508,0.077229,0.763962,97.2891,-0.0631938,
2,1,0,1,1,60293.8,-0.0607772,-0.0611493,3.46389,31,-0.00676829,10,-0.000211814,-2.46044,0.090624,0.651042,87.5906,-0.0611493,
2,1,0,1,1,60293.8,-0.0587796,-0.059139,3.62798,31,-0.00669728,10,-0.000214555,-2.44034,0.102904,0.573349,81.0719,-0.059139,
2,1,0,1,1,60293.9,-0.056782,-0.0571607,3.78724,31,-0.0066234,10,-0.000216482,-2.42168,0.116589,0.50605,74.5532,-0.0571607,
2,1,0,1,1,60293.9,-0.0547844,-0.0551441,3.92581,31,-0.00654619,10,-0.000216485,-2.40607,0.136097,0.433513,66.3099,-0.0551441,
2,1,0,1,1,60293.9,-0.0527868,-0.0531308,4.05447,31,-0.00646624,10,-0.000215417,-2.39207,0.149581,0.394434,62.3085,-0.0531308,
2,1,0,1,1,60293.9,-0.0507892,-0.0511914,4.1721,31,-0.00638388,10,-0.000213576,-2.37965,0.16214,0.363883,59.2404,-0.0511914,
2,1,0,1,1,60293.9,-0.0487916,-0.049142,4.29077,31,-0.00629963,10,-0.000210857,-2.36747,0.186256,0.316768,52.878,-0.049142,
2,1,0,1,1,60294,-0.046794,-0.0471791,4.38426,31,-0.00621283,10,-0.000206845,-2.3581,0.217065,0.271807,46.4839,-0.0471791,
2,1,0,1,1,60294,-0.0447965,-0.0451866,4.47463,31,-0.0061242,10,-0.000202193,-2.34924,0.248293,0.237623,41.4278,-0.0451866,
2,1,0,1,1,60294,-0.0427989,-0.0431477,4.55127,31,-0.00603391,10,-0.000196377,-2.34187,0.262388,0.224858,39.9526,-0.0431477,
2,1,0,1,1,60294,-0.0408013,-0.0412539,4.63175,31,-0.00594247,10,-0.000191078,-2.33425,0.295588,0.199602,36.0019,-0.0412539,
2,1,0,1,1,60294,-0.0388037,-0.0392187,4.69273,31,-0.00584916,10,-0.000184042,-2.32857,0.364939,0.161671,29.5975,-0.0392187,
2,1,0,1,1,60294.1,-0.0368061,-0.0372373,4.75063,31,-0.00575462,10,-0.000176901,-2.32325,0.378975,0.155683,28.861,-0.0372373,
2,1,0,1,1,60294.1,-0.0348085,-0.0352236,4.80803,31,-0.00565894,10,-0.000169356,-2.31803,0.421134,0.140098,26.2646,-0.0352236,
2,1,0,1,1,60294.1,-0.0328109,-0.0331811,4.85717,31,-0.0055627,10,-0.000161166,-2.31362,0.477747,0.123496,23.3986,-0.03318112,
2,1,0,1,1,60294.1,-0.0308134,-0.0312121,4.90189,31,-0.0054651,10,-0.000152998,-2.30964,0.580311,0.10167,19.4251,-0.0312121,
2,1,0,1,1,60294.1,-0.0288158,-0.0292092,4.93432,31,-0.00536671,10,-0.000144128,-2.30677,0.717393,0.0822422,15.835,-0.0292092,
2,1,0,1,1,60294.2,-0.0268182,-0.0272046,4.96535,31,-0.00526765,10,-0.00013508,-2.30405,0.740073,0.0797219,15.4471,-0.0272046,
2,1,0,1,1,60294.2,-0.0248138,-0.0252503,4.99547,31,-0.00516807,10,-0.000126137,-2.30142,0.860572,0.068559,13.3565,-0.0252503,
2,1,0,1,1,60294.2,-0.022823,-0.0232264,5.01848,31,-0.00506838,10,-0.000116561,-2.29943,1.07073,0.0551027,10.7896,-0.0232264,
2,1,0,1,1,60294.2,-0.0208254,-0.0212006,5.03917,31,-0.00496773,10,-0.000106834,-2.29764,1.36381,0.0432612,8.50175,-0.0212006,
2,1,0,1,1,60294.2,-0.0188278,-0.0192093,5.05264,31,-0.00486676,10,-9.70578e-05,-2.29648,1.47666,0.039955,7.88188,-0.0192093,
2,1,0,1,1,60294.3,-0.0168393,-0.0172571,5.07025,31,-0.00476601,10,-8.74978e-05,-2.29497,1.38223,0.0426846,8.4449,-0.0172571,
2,1,0,1,1,60294.3,-0.0148327,-0.0152269,5.08627,31,-0.00466438,10,-7.7448e-05,-2.2936,2.31051,0.0255355,5.06318,-0.0152269,
2,1,0,1,1,60294.3,-0.0128351,-0.0131659,5.09097,31,-0.00456262,10,-6.70271e-05,-2.2932,4.77812,0.012348,2.45345,-0.0131659,
2,1,0,1,1,60294.3,-0.0108375,-0.0112116,5.09612,31,-0.00446068,10,-5.71357e-05,-2.29276,3.72175,0.0158528,3.15355,-0.0112116,
2,1,0,1,1,60294.3,-0.00883989,-0.00921698,5.10342,31,-0.00435857,10,-4.70381e-05,-2.29214,3.75263,0.0157223,3.13077,-0.009216981,
2,1,0,1,1,60294.4,-0.0068423,-0.00722705,5.10859,31,-0.00425682,10,-3.69201e-05,-2.2917,4.03614,0.0146179,2.91476,-0.00722705,
2,1,0,1,1,60294.4,-0.00484471,-0.00524778,5.11499,31,-0.00415456,10,-2.68423e-05,-2.29116,6.50449,0.00907066,1.80972,-0.00524778,
2,1,0,1,1,60294.4,-0.00284713,-0.00322743,5.11583,31,-0.00405224,10,-1.6511e-05,-2.29108,-17.2603,-0.00341824,-0.682174,-0.00322743,
2,1,0,1,1,60294.4,-0.000849538,-0.00125521,5.11226,31,-0.00394987,10,-6.41696e-06,-2.29139, , , ,-0.00125521,
2,1,0,1,1,60294.4,-2.55332e-05,-0.000287149,5.1237,31,-0.00390843,10,-1.47126e-06,-2.29042, , , ,-0.0002871489,