File: Figure_codes/Fig_3-5/rawdata_trumpetplot_data/after 10th/20221101_1-115_003_TrumpetPlot_ParaChange_from10_every3_02_CV_C01_22.csv
mode,ox/red,error,control changes,counter inc.,time/s,control/V,Ewe/V,<I>/mA,cycle number,(Q-Qo)/C,I Range,P/W,log(|I|),Tafel slope mV/dec,alpha_eff,dI/d(E-IR),E-IR/V,
2,0,0,1,0,43682.9,2.44065e-05,-0.000325324,-0.376068,23,0.0000000E+000,10,1.22344e-07,-3.42473, , , ,-0.000325324,
2,0,0,1,0,43684.2,0.00129791,0.000954652,-0.180002,23,-0.000266392,10,-1.71839e-07,-3.74472, , , ,0.000954652,
2,0,0,1,0,43685.7,0.00279612,0.00244345,-0.144564,23,-0.000488717,10,-3.53234e-07,-3.83994,-0.01774,-3.32583,20.2732,0.00244345,
2,0,0,1,0,43687.2,0.00429431,0.00399483,-0.124198,23,-0.000672918,10,-4.96151e-07,-3.90589,-0.0250657,-2.35382,11.6012,0.00399483,
2,0,0,1,0,43688.7,0.00579242,0.00547824,-0.109243,23,-0.000831018,10,-5.98462e-07,-3.96161,-0.0272835,-2.16248,9.32189,0.00547824,
2,0,0,1,0,43690.2,0.00729061,0.00693737,-0.0972425,23,-0.000968552,10,-6.74608e-07,-4.01214,-0.0307053,-1.92149,7.36014,0.00693737,
2,0,0,1,0,43691.7,0.00878882,0.00839974,-0.086895,23,-0.00108982,10,-7.29895e-07,-4.06101,-0.0337623,-1.74751,6.00582,0.00839974,
2,0,0,1,0,43693.2,0.010287,0.00996488,-0.0789316,23,-0.00119789,10,-7.86544e-07,-4.10275,-0.0366803,-1.60849,4.99782,0.00996488,
2,0,0,1,0,43694.7,0.0117852,0.0114516,-0.0724803,23,-0.00129504,10,-8.30013e-07,-4.13978,-0.0370229,-1.59361,4.47303,0.0114516,
2,0,0,1,0,43696.2,0.0132834,0.0129584,-0.0660008,23,-0.00138218,10,-8.55266e-07,-4.18045,-0.0382174,-1.5438,3.96584,0.0129584,
2,0,0,1,0,43697.7,0.0147815,0.0144578,-0.0602191,23,-0.00146065,10,-8.70633e-07,-4.22027,-0.0380868,-1.54909,3.62009,0.0144578,
2,0,0,1,0,43699.2,0.0162797,0.0159932,-0.0549099,23,-0.00153096,10,-8.78186e-07,-4.26035,-0.0409417,-1.44107,3.12221,0.0159932,
2,0,0,1,0,43700.7,0.0177779,0.0174545,-0.0505616,23,-0.00159429,10,-8.82527e-07,-4.29618,-0.0403405,-1.46255,2.8853,0.0174545,
2,0,0,1,0,43702.2,0.0192761,0.0189581,-0.0465765,23,-0.00165192,10,-8.83003e-07,-4.33183,-0.0395632,-1.49128,2.71881,0.0189581,
2,0,0,1,0,43703.6,0.0207743,0.0204258,-0.0426216,23,-0.00170305,10,-8.70578e-07,-4.37037,-0.0404969,-1.4569,2.44499,0.0204258,
2,0,0,1,0,43705.1,0.0222725,0.0219188,-0.0389609,23,-0.00174868,10,-8.53975e-07,-4.40937,-0.0398704,-1.47979,2.25191,0.0219188,
2,0,0,1,0,43706.6,0.0237707,0.0234628,-0.0356619,23,-0.00178912,10,-8.36726e-07,-4.4478,-0.0383984,-1.53652,2.15916,0.0234628,
2,0,0,1,0,43708.1,0.0252689,0.0249378,-0.0334574,23,-0.00182537,10,-8.34352e-07,-4.47551,-0.038495,-1.53266,1.94649,0.0249378,
2,0,0,1,0,43709.6,0.0267671,0.026416,-0.0298134,23,-0.00185672,10,-7.87552e-07,-4.52559,-0.0331276,-1.78099,2.08574,0.026416,
2,0,0,1,0,43711.1,0.0282653,0.0279494,-0.0264633,23,-0.00188302,10,-7.39632e-07,-4.57736,-0.0310003,-1.90321,1.98911,0.0279494,
2,0,0,1,0,43712.6,0.0297635,0.0294404,-0.0239365,23,-0.00190513,10,-7.04699e-07,-4.62094,-0.0322385,-1.83011,1.71224,0.0294404,
2,0,0,1,0,43714.1,0.0312617,0.0309906,-0.0219577,23,-0.00192334,10,-6.80482e-07,-4.65841,-0.0295514,-1.99652,1.66153,0.0309906,
2,0,0,1,0,43715.6,0.0327599,0.0324169,-0.0186073,23,-0.00193767,10,-6.03191e-07,-4.73032,-0.027366,-2.15596,1.55294,0.0324169,
2,0,0,1,0,43717.1,0.0342581,0.0339216,-0.0162481,23,-0.00194788,10,-5.51163e-07,-4.7892,-0.0221254,-2.66662,1.66161,0.0339216,
2,0,0,1,0,43718.6,0.0357563,0.0354741,-0.0138157,23,-0.00195419,10,-4.90101e-07,-4.85963,-0.0212102,-2.78168,1.50201,0.0354741,
2,0,0,1,0,43720.1,0.0372544,0.0369406,-0.0114446,23,-0.00195679,10,-4.2277e-07,-4.9414,-0.0151493,-3.89457,1.64003,0.03694056,
2,0,0,1,0,43721.6,0.0387526,0.0384463,-0.00896254,23,-0.00195613,10,-3.44576e-07,-5.04757,-0.0112228,-5.25715,1.70188,0.0384463,
2,0,0,1,0,43723.1,0.0402508,0.0398991,-0.00644113,23,-0.00195137,10,-2.56995e-07,-5.19104,-0.00846829,-6.96717,1.54791,0.0398991,
2,0,0,1,0,43724.6,0.041749,0.0414165,-0.00399766,23,-0.00194248,10,-1.65569e-07,-5.39819,-0.00442051,-13.3469,1.59363,0.0414165,
2,0,0,1,0,43726.1,0.0432472,0.0429647,-0.00108393,23,-0.00193005,10,-4.65709e-08,-5.965,-0.0066783,-8.83459,1.48337,0.0429647,
2,0,0,1,0,43727.6,0.0447454,0.0444291,0.000652958,23,-0.00191425,10,2.90104e-08,-6.18511,0.0163959,3.59847,1.31085,0.0444291,
2,0,0,1,0,43729.1,0.0462435,0.0458935,0.00338254,23,-0.0018951,10,1.55236e-07,-5.47076,0.00262742,22.4555,1.34014,0.0458935,
2,1,0,1,0,43730.6,0.0477417,0.0473738,0.0049333,23,-0.00187262,10,2.33709e-07,-5.30686,0.00782967,7.53544,1.25588,0.0473738,
2,1,0,1,0,43732.1,0.0492399,0.0489274,0.00658114,23,-0.00184748,10,3.21998e-07,-5.1817,0.0114961,5.13216,1.34668,0.0489274,
2,1,0,1,0,43733.6,0.0507381,0.0504289,0.00853475,23,-0.00181964,10,4.30398e-07,-5.06881,0.015025,3.9268,1.31683,0.0504289,
2,1,0,1,0,43735.1,0.0522363,0.0518912,0.0104471,23,-0.00178841,10,5.42114e-07,-4.981,0.0157652,3.74243,1.47807,0.0518912,
2,1,0,1,0,43736.6,0.0537345,0.0533949,0.0125891,23,-0.00175394,10,6.72193e-07,-4.90001,0.0228663,2.58021,1.2662,0.0533949,
2,1,0,1,0,43738.1,0.0552327,0.0549059,0.0146219,23,-0.00171704,10,8.02831e-07,-4.83499,0.02689,2.19413,1.19814,0.0549059,
2,1,0,1,0,43739.6,0.0567309,0.0563767,0.0157247,23,-0.00167703,10,8.86505e-07,-4.80342,0.0277053,2.12955,1.31735,0.05637674,
2,1,0,1,0,43741.1,0.0582291,0.0578581,0.0186128,23,-0.00163448,10,1.0769e-06,-4.73019,0.0311187,1.89596,1.33522,0.0578581,
2,1,0,1,0,43742.6,0.0597273,0.0594042,0.0201296,23,-0.00158879,10,1.19578e-06,-4.69616,0.0396546,1.48785,1.1634,0.0594042,
2,1,0,1,0,43744.1,0.0612255,0.0608983,0.0219603,23,-0.00154043,10,1.33735e-06,-4.65836,0.0625736,0.94289,0.79546,0.0608983,
2,1,0,1,0,43745.6,0.0627237,0.0624094,0.0228367,23,-0.00148947,10,1.42522e-06,-4.64137,0.0426188,1.38437,1.26481,0.0624094,
2,1,0,1,0,43747.1,0.0642219,0.0639417,0.0250679,23,-0.00143665,10,1.60288e-06,-4.60088,0.0550339,1.07207,1.06303,0.0639417,
2,1,0,1,0,43748.6,0.0657201,0.0653977,0.0263026,23,-0.00138086,10,1.72013e-06,-4.58,0.0608788,0.969138,1.00845,0.0653977,
2,1,0,1,0,43750.1,0.0672183,0.066913,0.0287952,23,-0.00132258,10,1.92677e-06,-4.54068,0.0626968,0.941037,1.02122,0.066913,
2,1,0,1,0,43751.6,0.0687164,0.0683763,0.0299962,23,-0.00126205,10,2.05103e-06,-4.52293,0.0646833,0.912137,1.06029,0.0683763,
2,1,0,1,0,43753.1,0.0702146,0.0699181,0.0315404,23,-0.00119962,10,2.20525e-06,-4.50113,0.0726188,0.812461,0.984233,0.0699181,
2,1,0,1,0,43754.6,0.0717128,0.0713762,0.0330419,23,-0.0011342,10,2.35841e-06,-4.48093,0.062318,0.946757,1.20663,0.0713762,
2,1,0,1,0,43756.1,0.073211,0.0728788,0.0345708,23,-0.00106648,10,2.51948e-06,-4.46129,0.0715712,0.824354,1.11237,0.0728788,
2,1,0,1,0,43757.6,0.0747092,0.0743612,0.0360037,23,-0.000996284,10,2.67728e-06,-4.44365,0.0776519,0.759802,1.08045,0.0743612,
2,1,0,1,0,43759.1,0.0762074,0.0758893,0.0372721,23,-0.000924408,10,2.82856e-06,-4.42862,0.0919073,0.641951,0.941952,0.0758893,
2,1,0,1,0,43760.6,0.0777055,0.0773547,0.0387598,23,-0.000849804,10,2.99825e-06,-4.41162,0.0842238,0.700515,1.05391,0.0773547,
2,1,0,1,0,43762.1,0.0792037,0.0788551,0.0407828,23,-0.000773198,10,3.21593e-06,-4.38952,0.0957379,0.616266,0.96392,0.0788551,
2,1,0,1,0,43763.6,0.0807019,0.0804214,0.0412268,23,-0.000694701,10,3.31552e-06,-4.38482,0.0857282,0.688222,1.11796,0.0804214,
2,1,0,1,0,43765.1,0.0822001,0.0818625,0.0425288,23,-0.000614288,10,3.48152e-06,-4.37132,0.0989128,0.596485,1.00591,0.0818625,
2,1,0,1,0,43766.6,0.0836983,0.0834001,0.0445357,23,-0.000531268,10,3.71429e-06,-4.35129,0.10174,0.579911,1.00906,0.08340013,
2,1,0,1,0,43768.1,0.0851965,0.0848836,0.0460386,23,-0.00044588,10,3.90793e-06,-4.33688,0.0927459,0.636147,1.14997,0.0848836,
2,1,0,1,0,43769.6,0.0866947,0.0863343,0.0477685,23,-0.000358144,10,4.12406e-06,-4.32086,0.116948,0.504499,0.938617,0.0863343,
2,1,0,1,0,43771.1,0.0881929,0.0878655,0.0499122,23,-0.000267485,10,4.38556e-06,-4.30179,0.10888,0.541881,1.05152,0.0878655,
2,1,0,1,0,43772.6,0.0896911,0.0893787,0.0510409,23,-0.000174855,10,4.56197e-06,-4.29208,0.0931029,0.633707,1.27703,0.0893787,
2,1,0,1,0,43774.1,0.0911893,0.0908623,0.0532226,23,-7.92328e-05,10,4.83592e-06,-4.2739,0.0847992,0.695761,1.43758,0.0908623,
2,1,0,1,0,43775.6,0.0926875,0.092385,0.0553501,23,1.98416e-05,10,5.11352e-06,-4.25688,0.0892275,0.661231,1.41707,0.092385,
2,1,0,1,0,43777.1,0.0941857,0.0938357,0.0575413,23,0.000121593,10,5.39943e-06,-4.24002,0.0944733,0.624515,1.39897,0.0938357,
2,1,0,1,0,43778.6,0.0956839,0.0953276,0.0599429,23,0.000226282,10,5.71421e-06,-4.22226,0.0941179,0.626874,1.45224,0.0953276,
2,1,0,1,0,43780.1,0.0971821,0.0968493,0.0610783,23,0.000334545,10,5.9154e-06,-4.21411,0.0876649,0.673017,1.61731,0.0968493,
2,1,0,1,0,43781.6,0.0986803,0.0983371,0.0637772,23,0.000446118,10,6.27167e-06,-4.19533,0.102358,0.576411,1.43572,0.0983371,
2,1,0,1,0,43783.1,0.100178,0.0998311,0.0658098,23,0.000560946,10,6.56986e-06,-4.18171,0.112621,0.523882,1.34689,0.0998311,
2,1,0,1,0,43784.6,0.101677,0.101341,0.0672653,23,0.000678416,10,6.81674e-06,-4.17221,0.121225,0.4867,1.2918,0.101341,
2,1,0,1,0,43786,0.103175,0.102868,0.0695036,23,0.000798839,10,7.14971e-06,-4.15799,0.120192,0.490883,1.33002,0.1028681,
2,1,0,1,0,43787.5,0.104673,0.104355,0.0724034,23,0.000922476,10,7.55565e-06,-4.14024,0.115647,0.510174,1.4314,0.104355,
2,1,0,1,0,43789,0.106171,0.105819,0.0739661,23,0.00104934,10,7.82704e-06,-4.13097,0.132262,0.446085,1.2739,0.1058192,
2,1,0,1,0,43790.5,0.107669,0.10736,0.0754469,23,0.00117949,10,8.09998e-06,-4.12236,0.144688,0.407773,1.20061,0.10736,
2,1,0,1,0,43792,0.109167,0.108819,0.0774386,23,0.00131183,10,8.4268e-06,-4.11104,0.154368,0.382205,1.16469,0.108819,
2,1,0,1,0,43793.5,0.110666,0.110361,0.0786399,23,0.0014471,10,8.67878e-06,-4.10436,0.161037,0.366375,1.13685,0.110361,
2,1,0,1,0,43795,0.112164,0.111848,0.0806562,23,0.00158509,10,9.0212e-06,-4.09336,0.225994,0.261069,0.824074,0.111848,
2,1,0,1,0,43796.5,0.113662,0.11339,0.0825476,23,0.00172571,10,9.36011e-06,-4.0833,0.16084,0.366824,1.18242,0.11339,
2,1,0,1,0,43798,0.11516,0.114822,0.0848393,23,0.00186805,10,9.74142e-06,-4.0714,0.165092,0.357375,1.17707,0.114822,
2,1,0,1,0,43799.5,0.116658,0.116346,0.0863737,23,0.00201381,10,1.00492e-05,-4.06362,0.140494,0.419946,1.40756,0.116346,
2,1,0,1,0,43801,0.118157,0.117786,0.0880837,23,0.00216287,10,1.0375e-05,-4.0551,0.186954,0.315586,1.07895,0.117786,
2,1,0,1,0,43802.5,0.119655,0.119326,0.0898263,23,0.00231374,10,1.07186e-05,-4.0466,0.275111,0.214459,0.750967,0.119326,
2,1,0,1,0,43804,0.121153,0.120823,0.0904035,23,0.00246607,10,1.09228e-05,-4.04381,0.178616,0.330318,1.17071,0.120823,
2,1,0,1,0,43805.5,0.122651,0.122369,0.0923882,23,0.00262116,10,1.13055e-05,-4.03438,0.176499,0.33428,1.1945,0.122369,
2,1,0,1,0,43807,0.124149,0.123843,0.0929328,23,0.00277843,10,1.15091e-05,-4.03183,0.230144,0.256361,0.937849,0.123843,
2,1,0,1,0,43808.5,0.125648,0.125323,0.0946275,23,0.00293742,10,1.1859e-05,-4.02398,0.287915,0.204922,0.757985,0.125323,
2,1,0,1,0,43810,0.127146,0.126813,0.0945002,23,0.00309793,10,1.19839e-05,-4.02457,0.335022,0.176108,0.654483,0.126813,
2,1,0,1,0,43811.5,0.128644,0.128327,0.0974336,23,0.00325994,10,1.25034e-05,-4.01129,0.866512,0.0680891,0.255506,0.128327,
2,1,0,1,0,43813,0.130142,0.129832,0.0972969,23,0.00342317,10,1.26323e-05,-4.0119,17.919,0.00329259,0.0124099,0.129832,
2,1,0,1,0,43814.5,0.13164,0.131304,0.0967456,23,0.0035863,10,1.27031e-05,-4.01437,-0.651889,-0.0905062,-0.338906,0.131304,
2,1,0,1,0,43816,0.133139,0.132808,0.095903,23,0.00374855,10,1.27366e-05,-4.01817,-0.312999,-0.188499,-0.703288,0.1328076,
2,1,0,1,0,43817.5,0.134637,0.134283,0.0945271,23,0.00390892,10,1.26934e-05,-4.02444,-0.198941,-0.29657,-1.09091,0.134283,
2,1,0,1,0,43819,0.136135,0.135836,0.092731,23,0.00406715,10,1.25962e-05,-4.03277,-0.131412,-0.448969,-1.61799,0.135836,
2,1,0,1,0,43820.5,0.137633,0.137256,0.0905912,23,0.00422201,10,1.24342e-05,-4.04291,-0.103568,-0.569674,-1.99166,0.137256,
2,1,0,1,0,43822,0.139131,0.138805,0.0873228,23,0.00437219,10,1.21209e-05,-4.05887,-0.0980918,-0.601477,-2.03268,0.138805,
2,1,0,1,0,43823.5,0.14063,0.140314,0.083676,23,0.00451705,10,1.17409e-05,-4.0774,-0.0729749,-0.808497,-2.62017,0.140314,
2,1,0,1,0,43825,0.142128,0.141809,0.0797712,23,0.00465668,10,1.13123e-05,-4.09815,-0.0700492,-0.842265,-2.61087,0.141809,
2,1,0,1,0,43826.5,0.143626,0.143301,0.0759493,23,0.00479034,10,1.08836e-05,-4.11948,-0.0660378,-0.893428,-2.63692,0.143301,
2,1,0,1,0,43828,0.145124,0.144792,0.0721289,23,0.00491792,10,1.04437e-05,-4.14189,-0.0629614,-0.937082,-2.63761,0.144792,
2,1,0,1,0,43829.5,0.146622,0.146292,0.0677777,23,0.00503935,10,9.91532e-06,-4.16891,-0.0733201,-0.80469,-2.15394,0.146292,
2,1,0,1,0,43831,0.14812,0.14781,0.0649951,23,0.00515596,10,9.60694e-06,-4.18712,-0.081901,-0.720382,-1.83248,0.14781,
2,1,0,1,0,43832.5,0.149619,0.149297,0.0620868,23,0.00526821,10,9.26937e-06,-4.207,-0.0893984,-0.659967,-1.62186,0.149297,
2,1,0,1,0,43834,0.151117,0.150752,0.0602135,23,0.0053764,10,9.07729e-06,-4.22031,-0.0976451,-0.604229,-1.42174,0.150752,
2,1,0,1,0,43835.5,0.152615,0.152257,0.0577077,23,0.00548137,10,8.78638e-06,-4.23877,-0.110192,-0.535428,-1.21999,0.152257,
2,1,0,1,0,43837,0.154113,0.153746,0.0564382,23,0.00558359,10,8.67717e-06,-4.24843,-0.125001,-0.471998,-1.04244,0.153746,
2,1,0,1,0,43838.5,0.155611,0.155284,0.0556582,23,0.00568348,10,8.64283e-06,-4.25447,-0.141383,-0.417306,-0.901027,0.155284,
2,1,0,1,0,43840,0.15711,0.156796,0.0538008,23,0.00578141,10,8.43576e-06,-4.26921,-0.132521,-0.445212,-0.936729,0.156796,
2,1,0,1,0,43841.5,0.158608,0.158309,0.0526719,23,0.00587779,10,8.33846e-06,-4.27842,-0.20547,-0.287146,-0.597832,0.158309,
2,1,0,1,0,43843,0.160106,0.159764,0.0523858,23,0.00597252,10,8.36938e-06,-4.28079,-0.202542,-0.291297,-0.596952,0.159764,
2,1,0,1,0,43844.5,0.161604,0.161275,0.0519116,23,0.00606658,10,8.37206e-06,-4.28474,-0.776963,-0.0759367,-0.154898,0.161275,
2,1,0,1,0,43846,0.163102,0.162792,0.052192,23,0.00615996,10,8.49642e-06,-4.2824,-0.727678,-0.0810798,-0.162868,0.162792,
2,1,0,1,0,43847.5,0.164601,0.164237,0.0510447,23,0.00625296,10,8.38342e-06,-4.29205,-0.576692,-0.102308,-0.20345,0.164237,
2,1,0,1,0,43849,0.166099,0.165776,0.0511185,23,0.00634485,10,8.47421e-06,-4.29142,-0.350558,-0.168303,-0.335046,0.165776,
2,1,0,1,0,43850.5,0.167597,0.167259,0.0507355,23,0.00643657,10,8.48599e-06,-4.29469,-15.4887,-0.00380922,-0.00748735,0.167259,
2,1,0,1,0,43852,0.169095,0.168753,0.0505627,23,0.00652795,10,8.53262e-06,-4.29617,-1.53396,-0.0384627,-0.0760867,0.168753,
2,1,0,1,0,43853.5,0.170593,0.170244,0.0502836,23,0.00661904,10,8.5605e-06,-4.29857,-36.3824,-0.00162166,-0.00319357,0.170244,
2,1,0,1,0,43855,0.172091,0.171789,0.0503921,23,0.00671002,10,8.65682e-06,-4.29764,-2.31894,-0.0254427,-0.050188,0.171789,
2,1,0,1,0,43856.5,0.17359,0.173249,0.0503181,23,0.00680086,10,8.71757e-06,-4.29828,1.55348,0.0379791,0.0744979,0.173249,
2,1,0,1,0,43858,0.175088,0.174787,0.0503409,23,0.00689158,10,8.79893e-06,-4.29808,3.56427,0.0165532,0.0325108,0.174787,
2,1,0,1,0,43859.5,0.176586,0.176252,0.0500623,23,0.00698214,10,8.82361e-06,-4.30049,9.54757,0.00617958,0.0120734,0.176252,
2,1,0,1,0,43861,0.178084,0.177734,0.0500618,23,0.00707246,10,8.89767e-06,-4.30049,0.514882,0.114589,0.224991,0.177734,
2,1,0,1,0,43862.5,0.179582,0.179296,0.0508958,23,0.0071634,10,9.12541e-06,-4.29332,0.89489,0.0659299,0.129369,0.1792959,
2,1,0,1,0,43864,0.181081,0.180772,0.0511019,23,0.00725461,10,9.23778e-06,-4.29156,-1.24768,-0.0472877,-0.0942129,0.180772,
2,1,0,1,0,43865.5,0.182579,0.182283,0.0504386,23,0.00734596,10,9.1941e-06,-4.29724,-2.27783,-0.0259019,-0.0509681,0.182283,
2,1,0,1,0,43867,0.184077,0.18374,0.0505919,23,0.00743712,10,9.29576e-06,-4.29592,-0.66305,-0.0889828,-0.176323,0.18374,
2,1,0,1,0,43868.4,0.185575,0.185262,0.0506628,23,0.00752785,10,9.38587e-06,-4.29531,-18.0034,-0.00327715,-0.00649668,0.185262,
2,1,0,1,0,43869.9,0.187073,0.186723,0.0506478,23,0.00761876,10,9.4571e-06,-4.29544,8.30792,0.00710166,0.0139776,0.186723,
2,1,0,1,0,43871.4,0.188572,0.188267,0.0508537,23,0.00771004,10,9.57406e-06,-4.29368,1.44884,0.0407223,0.080439,0.188267,
2,1,0,1,0,43872.9,0.19007,0.189725,0.050976,23,0.00780117,10,9.67142e-06,-4.29263,2.16535,0.0272473,0.0541153,0.189725,
2,1,0,1,0,43874.4,0.191568,0.191238,0.0511478,23,0.00789237,10,9.78142e-06,-4.29117,0.737006,0.0800537,0.159002,0.191238,
2,1,0,1,0,43875.9,0.193066,0.192737,0.0510743,23,0.00798397,10,9.84388e-06,-4.2918,0.417066,0.141464,0.282441,0.192737,
2,1,0,1,0,43877.4,0.194564,0.194245,0.0514451,23,0.00807603,10,9.99298e-06,-4.28866,-37.0966,-0.00159044,-0.00318379,0.194245,
2,1,0,1,0,43878.9,0.196063,0.195776,0.0516418,23,0.00816809,10,1.01102e-05,-4.287,-8.33662,-0.0070772,-0.0142772,0.195776,
2,1,0,1,0,43880.4,0.197561,0.197207,0.0510761,23,0.00825988,10,1.00726e-05,-4.29178,0.822377,0.0717433,0.143885,0.197207,
2,1,0,1,0,43881.9,0.199059,0.198741,0.051333,23,0.00835172,10,1.02019e-05,-4.2896,7.00157,0.00842668,0.0168124,0.198741,
2,1,0,1,0,43883.4,0.200557,0.200235,0.0511253,23,0.00844359,10,1.02371e-05,-4.29136,-1.1722,-0.0503326,-0.10068,0.200235,
2,1,0,1,0,43884.9,0.202055,0.201684,0.0515481,23,0.00853532,10,1.03964e-05,-4.28779,4.75915,0.0123972,0.0248876,0.201684,
2,1,0,1,0,43886.4,0.203554,0.203239,0.0510803,23,0.0086272,10,1.03815e-05,-4.29175,1.08878,0.0541892,0.109186,0.203239,
2,1,0,1,0,43887.9,0.205052,0.204682,0.05163,23,0.00871941,10,1.05677e-05,-4.2871,0.482549,0.122267,0.250208,0.204682,
2,1,0,1,0,43889.4,0.20655,0.206267,0.0520748,23,0.00881207,10,1.07413e-05,-4.28337,1.05597,0.0558728,0.113846,0.206267,
2,1,0,1,0,43890.9,0.208048,0.20771,0.0524375,23,0.00890552,10,1.08918e-05,-4.28036,1.35223,0.0436315,0.0890233,0.2077105,
2,1,0,1,0,43892.4,0.209546,0.209265,0.0524158,23,0.00899893,10,1.09688e-05,-4.28054,0.601852,0.0980307,0.20138,0.209265,
2,1,0,1,0,43893.9,0.211044,0.210716,0.052512,23,0.00909229,10,1.10651e-05,-4.27974,3.89445,0.0151498,0.0311428,0.210716,
2,1,0,1,0,43895.4,0.212543,0.212172,0.0531281,23,0.00918615,10,1.12723e-05,-4.27468,2.31821,0.0254507,0.052396,0.212172,
2,1,0,1,0,43896.9,0.214041,0.213712,0.0529139,23,0.0092801,10,1.13083e-05,-4.27643,0.736844,0.0800712,0.166327,0.213712,
2,1,0,1,0,43898.4,0.215539,0.215187,0.0531175,23,0.00937449,10,1.14302e-05,-4.27476,0.405229,0.145597,0.302865,0.215187,
2,1,0,1,0,43899.9,0.217037,0.216695,0.0536666,23,0.00946909,10,1.16293e-05,-4.2703,1.54039,0.038302,0.0797363,0.2166954,
2,1,0,1,0,43901.4,0.218535,0.218189,0.0537799,23,0.00956411,10,1.17342e-05,-4.26938,0.786338,0.0750313,0.156732,0.218189,
2,1,0,1,0,43902.9,0.220034,0.219732,0.0534488,23,0.0096593,10,1.17444e-05,-4.27206,0.987901,0.0597226,0.125883,0.219732,
2,1,0,1,0,43904.4,0.221532,0.221203,0.0539205,23,0.00975478,10,1.19274e-05,-4.26825,0.650248,0.0907346,0.192263,0.221203,
2,1,0,1,0,43905.9,0.22303,0.222714,0.0541342,23,0.0098505,10,1.20565e-05,-4.26653,2.00828,0.0293783,0.0622037,0.222714,
2,1,0,1,0,43907.4,0.224528,0.224207,0.0548858,23,0.00994685,10,1.23058e-05,-4.26054,0.675882,0.0872933,0.185719,0.224207,
2,1,0,1,0,43908.9,0.226026,0.225718,0.0551188,23,0.0100433,10,1.24413e-05,-4.2587,1.58174,0.0373007,0.0800994,0.225718,
2,1,0,1,0,43910.4,0.227525,0.227208,0.0547158,23,0.01014,10,1.24319e-05,-4.26189,-1.97673,-0.0298473,-0.0638099,0.227208,
2,1,0,1,0,43911.9,0.229023,0.228709,0.0546698,23,0.0102366,10,1.25035e-05,-4.26225,0.955216,0.0617661,0.132463,0.228709,
2,1,0,1,0,43913.4,0.230521,0.230219,0.0549577,23,0.0103331,10,1.26523e-05,-4.25997,1.3007,0.0453603,0.0979702,0.230219,
2,1,0,1,0,43914.9,0.232019,0.231697,0.0553118,23,0.01043,10,1.28156e-05,-4.25718,1.07822,0.0547199,0.118507,0.231697,
2,1,0,1,0,43916.4,0.233517,0.233187,0.055682,23,0.0105276,10,1.29843e-05,-4.25428,0.646075,0.0913207,0.197546,0.233187,
2,1,0,1,0,43917.9,0.235016,0.234689,0.0556054,23,0.0106254,10,1.305e-05,-4.25488,2.40306,0.024552,0.0532635,0.234689,
2,1,0,1,0,43919.4,0.236514,0.236209,0.0560795,23,0.0107232,10,1.32465e-05,-4.2512,1.0638,0.0554616,0.121323,0.236209,
2,1,0,1,0,43920.9,0.238012,0.237708,0.0563267,23,0.0108215,10,1.33893e-05,-4.24929,0.586226,0.100644,0.221118,0.237708,
2,1,0,1,0,43922.4,0.23951,0.239171,0.0568927,23,0.0109204,10,1.36071e-05,-4.24494,0.537642,0.109738,0.24234,0.239171,
2,1,0,1,0,43923.9,0.241008,0.240694,0.0567694,23,0.0110198,10,1.36641e-05,-4.24589,0.706089,0.0835589,0.186062,0.240694,
2,1,0,1,0,43925.4,0.242506,0.24218,0.0567969,23,0.0111191,10,1.37551e-05,-4.24568,0.835396,0.0706252,0.157697,0.24218,
2,1,0,1,0,43926.9,0.244005,0.243703,0.0573998,23,0.0112192,10,1.39885e-05,-4.24109,0.566499,0.104148,0.232981,0.2437028,
2,1,0,1,0,43928.4,0.245503,0.245216,0.0574148,23,0.0113196,10,1.4079e-05,-4.24098,3.61038,0.0163418,0.0368238,0.245216,
2,1,0,1,0,43929.9,0.247001,0.246703,0.0571586,23,0.0114199,10,1.41012e-05,-4.24292,1.41939,0.0415673,0.0934681,0.246703,
2,1,0,1,0,43931.4,0.248499,0.248159,0.0578411,23,0.0115204,10,1.43538e-05,-4.23776,1.32693,0.0444635,0.100277,0.248159,
2,1,0,1,0,43932.9,0.249997,0.249675,0.0579461,23,0.0116211,10,1.44677e-05,-4.23698,1.75867,0.033548,0.075741,0.249675,
2,1,0,1,0,43934.4,0.251496,0.251164,0.0582301,23,0.0117222,10,1.46253e-05,-4.23485,1.23352,0.0478305,0.108641,0.251164,
2,1,0,1,0,43935.9,0.252994,0.252661,0.0582023,23,0.0118234,10,1.47054e-05,-4.23506,8.72106,0.00676523,0.0154036,0.252661,
2,1,0,1,0,43937.4,0.254492,0.254185,0.0585182,23,0.011925,10,1.48744e-05,-4.23271,0.992371,0.0594536,0.135456,0.254185,
2,1,0,1,0,43938.9,0.25599,0.255676,0.0585106,23,0.0120266,10,1.49597e-05,-4.23277,7.97634,0.00739687,0.0170499,0.255676,
2,1,0,1,0,43940.4,0.257488,0.257173,0.0589742,23,0.0121285,10,1.51666e-05,-4.22934,1.72806,0.0341424,0.0784244,0.257173,
2,1,0,1,0,43941.9,0.258987,0.258699,0.0588814,23,0.0122309,10,1.52326e-05,-4.23002,0.687159,0.0858608,0.197718,0.258699,
2,1,0,1,0,43943.4,0.260485,0.26022,0.0590441,23,0.012333,10,1.53644e-05,-4.22882,0.798695,0.0738705,0.171226,0.26022,
2,1,0,1,0,43944.9,0.261983,0.261611,0.0589861,23,0.0124354,10,1.54314e-05,-4.22925,0.649236,0.0908761,0.210706,0.261611,
2,1,0,1,0,43946.4,0.263481,0.263165,0.0596006,23,0.0125384,10,1.56848e-05,-4.22475,0.600709,0.0982172,0.227701,0.2631655,
2,1,0,1,0,43947.9,0.264979,0.264703,0.0599927,23,0.0126418,10,1.58803e-05,-4.2219,1.00722,0.0585771,0.137232,0.264703,
2,1,0,1,0,43949.4,0.266477,0.266171,0.0602476,23,0.0127454,10,1.60361e-05,-4.22006,1.0484,0.0562763,0.132037,0.266171,
2,1,0,1,0,43950.8,0.267976,0.267633,0.0601986,23,0.0128492,10,1.61111e-05,-4.22041,0.77046,0.0765776,0.180667,0.267633,
2,1,0,1,0,43952.3,0.269474,0.269129,0.0604913,23,0.0129535,10,1.628e-05,-4.21831,1.36815,0.043124,0.101526,0.269129,
2,1,0,1,0,43953.8,0.270972,0.270668,0.0608473,23,0.013058,10,1.64694e-05,-4.21576,1.43292,0.0411747,0.097468,0.270668,
2,1,0,1,0,43955.3,0.27247,0.272129,0.0607203,23,0.0131626,10,1.65238e-05,-4.21667,1.09959,0.0536565,0.127173,0.272129,
2,1,0,1,0,43956.8,0.273968,0.273643,0.0606351,23,0.0132673,10,1.65924e-05,-4.21728,5.20386,0.0113377,0.0269876,0.273643,
2,1,0,1,0,43958.3,0.275467,0.275142,0.0611767,23,0.0133723,10,1.68323e-05,-4.21341,1.75774,0.0335658,0.0798892,0.275142,
2,1,0,1,0,43959.8,0.276965,0.276673,0.0615326,23,0.0134777,10,1.70244e-05,-4.2109,0.598485,0.0985822,0.235965,0.276673,
2,1,0,1,0,43961.3,0.278463,0.278101,0.0614559,23,0.0135833,10,1.7091e-05,-4.21144,-1.19228,-0.0494851,-0.1184,0.278101,
2,1,0,1,0,43962.8,0.279961,0.279628,0.0614411,23,0.0136892,10,1.71807e-05,-4.21154,-18.5333,-0.00318345,-0.00767548,0.279628,
2,1,0,1,0,43964.3,0.281459,0.281141,0.0613957,23,0.0137947,10,1.72608e-05,-4.21186,-12.62,-0.00467513,-0.0112484,0.281141,
2,1,0,1,0,43965.8,0.282958,0.282644,0.0617935,23,0.0139002,10,1.74656e-05,-4.20906,1.9741,0.029887,0.0720375,0.282644,
2,1,0,1,0,43967.3,0.284456,0.284121,0.0621416,23,0.0140061,10,1.76557e-05,-4.20662,1.41256,0.0417681,0.100566,0.284121,
2,1,0,1,0,43968.8,0.285954,0.28562,0.0623553,23,0.0141125,10,1.78099e-05,-4.20513,0.689907,0.0855187,0.206197,0.28562,
2,1,0,1,0,43970.3,0.287452,0.287142,0.0623212,23,0.0142187,10,1.78951e-05,-4.20536,0.668277,0.0882867,0.214509,0.287142,
2,1,0,1,0,43971.8,0.28895,0.288596,0.0625451,23,0.0143257,10,1.80503e-05,-4.20381,0.442792,0.133245,0.324957,0.288596,
2,1,0,1,0,43973.3,0.290448,0.290112,0.0626464,23,0.0144329,10,1.81744e-05,-4.2031,3.63392,0.0162359,0.0397332,0.290112,
2,1,0,1,0,43974.8,0.291947,0.291634,0.0628133,23,0.0145404,10,1.83185e-05,-4.20195,-2.41652,-0.0244153,-0.0599005,0.291634,
2,1,0,1,0,43976.3,0.293445,0.293177,0.0627358,23,0.0146478,10,1.83927e-05,-4.20248,2.40037,0.0245795,0.0604849,0.293177,
2,1,0,1,0,43977.8,0.294943,0.294654,0.0634905,23,0.0147553,10,1.87078e-05,-4.19729,2.60868,0.0226168,0.0556193,0.294654,
2,1,0,1,0,43979.3,0.296441,0.296149,0.0635802,23,0.0148632,10,1.88293e-05,-4.19668,1.12816,0.0522976,0.128932,0.296149,
2,1,0,1,0,43980.8,0.297939,0.297623,0.0635255,23,0.0149714,10,1.89067e-05,-4.19705,1.25425,0.0470402,0.116575,0.297623,
2,1,0,1,0,43982.3,0.299438,0.299129,0.0637618,23,0.0150797,10,1.9073e-05,-4.19544,-0.00450696,-13.0909,-20.9162,0.299129,
2,1,0,1,0,43983.2,0.299737,0.299451,0.0321245,23,0.0151286,10,9.61969e-06,-4.49316,0.0020927,28.1932,39.006,0.299451,
2,1,0,1,0,43984.7,0.298239,0.297967,0.019179,23,0.0151508,10,5.71471e-06,-4.71717,0.00561408,10.5093,13.2729,0.297967,
2,1,0,1,0,43986.2,0.296741,0.296462,0.0149003,23,0.0151625,10,4.41737e-06,-4.82681,0.0132783,4.44333,2.66976,0.2964623,
2,1,0,1,0,43987.7,0.295243,0.29489,0.0116095,23,0.015169,10,3.42352e-06,-4.93519,0.0152848,3.86005,1.77589,0.29489,
2,1,0,1,0,43989.2,0.293745,0.293428,0.00898291,23,0.0151713,10,2.63584e-06,-5.04658,0.0135114,4.36668,1.5333,0.293428,
2,1,0,1,0,43990.7,0.292246,0.291925,0.00683324,23,0.0151703,10,1.99479e-06,-5.16537,0.0116647,5.05799,1.36269,0.2919248,
2,1,0,1,0,43992.2,0.290748,0.290407,0.00545,23,0.0151663,10,1.58272e-06,-5.2636,0.00981257,6.0127,1.18061,0.2904073,
2,0,0,1,0,43993.6,0.28925,0.288907,0.00359117,23,0.01516,10,1.03751e-06,-5.44476,0.00760842,7.75457,1.00459,0.288907,
2,1,0,1,0,43995.1,0.287752,0.287436,0.00230746,23,0.0151511,10,6.63247e-07,-5.63687,0.00416961,14.15,0.922923,0.287436,
2,1,0,1,0,43996.6,0.286254,0.285921,0.00160403,23,0.0151406,10,4.58625e-07,-5.79479,0.0075237,7.84188,0.86937,0.285921,
2,0,0,1,0,43998.1,0.284755,0.284454,0.000102379,23,0.0151282,10,2.91222e-08,-6.98979,-0.0311764,-1.89246,0.970046,0.2844542,
2,1,0,1,0,43999.6,0.283257,0.282955,-0.00141833,23,0.0151136,10,-4.01324e-07,-5.84822,-0.00374477,-15.7553,0.798213,0.282955,
2,0,0,1,0,44001.1,0.281759,0.281398,-0.00278761,23,0.0150972,10,-7.84429e-07,-5.55477,-0.00717261,-8.22574,0.763994,0.281398,
2,0,0,1,0,44002.6,0.280261,0.279953,-0.00352865,23,0.0150794,10,-9.87857e-07,-5.45239,-0.0124154,-4.75218,0.651779,0.279953,
2,0,0,1,0,44004.1,0.278763,0.278418,-0.00453269,23,0.0150598,10,-1.26198e-06,-5.34364,-0.016482,-3.57967,0.593406,0.278418,
2,0,0,1,0,44005.6,0.277264,0.276994,-0.00557059,23,0.0150387,10,-1.54302e-06,-5.2541,-0.027818,-2.12093,0.457034,0.276994,
2,1,0,1,0,44007.1,0.275766,0.275502,-0.00648761,23,0.0150162,10,-1.78735e-06,-5.18792,-0.0319783,-1.845,0.460134,0.275502,
2,0,0,1,0,44008.6,0.274268,0.273966,-0.00745409,23,0.0149924,10,-2.04217e-06,-5.12761,-0.0263441,-2.23959,0.639256,0.273966,
2,1,0,1,0,44010.1,0.27277,0.272432,-0.00803083,23,0.0149676,10,-2.18786e-06,-5.09524,-0.0328012,-1.79871,0.57629,0.272432,
2,0,0,1,0,44011.6,0.271272,0.270957,-0.0090316,23,0.0149414,10,-2.44718e-06,-5.04424,-0.0341753,-1.72639,0.602967,0.270957,
2,1,0,1,0,44013.1,0.269774,0.269481,-0.00952845,23,0.0149136,10,-2.56774e-06,-5.02098,-0.0393324,-1.50004,0.567829,0.269481,
2,0,0,1,0,44014.6,0.268275,0.267961,-0.0114085,23,0.0148846,10,-3.05704e-06,-4.94277,-0.0512194,-1.15191,0.479252,0.2679607,
2,0,0,1,0,44016.1,0.266777,0.266467,-0.0116828,23,0.0148544,10,-3.11307e-06,-4.93245,-0.0490443,-1.20299,0.541168,0.266467,
2,0,0,1,0,44017.6,0.265279,0.264968,-0.0128459,23,0.0148228,10,-3.40375e-06,-4.89124,-0.052179,-1.13072,0.541367,0.264968,
2,0,0,1,0,44019.1,0.263781,0.263468,-0.0130629,23,0.0147901,10,-3.44165e-06,-4.88396,-0.0600984,-0.981723,0.501166,0.263468,
2,0,0,1,0,44020.6,0.262283,0.262003,-0.013539,23,0.0147564,10,-3.54726e-06,-4.86841,-0.0789861,-0.746967,0.40189,0.2620033,
2,0,0,1,0,44022.1,0.260784,0.260491,-0.0138481,23,0.0147217,10,-3.6073e-06,-4.85861,-0.05979,-0.986787,0.570941,0.260491,
2,0,0,1,0,44023.6,0.259286,0.25901,-0.0151188,23,0.0146859,10,-3.91592e-06,-4.82048,-0.0611169,-0.965363,0.567534,0.25901,
2,0,0,1,0,44025.1,0.257788,0.257464,-0.0164175,23,0.0146485,10,-4.22692e-06,-4.78469,-0.0592817,-0.995248,0.606149,0.257464,
2,0,0,1,0,44026.6,0.25629,0.255991,-0.0167871,23,0.0146103,10,-4.29735e-06,-4.77502,-0.102724,-0.574353,0.373908,0.255991,
2,0,0,1,0,44028.1,0.254792,0.254467,-0.0168627,23,0.0145711,10,-4.291e-06,-4.77307,-0.095985,-0.614679,0.41281,0.254467,
2,0,0,1,0,44029.6,0.253293,0.252965,-0.0180943,23,0.014531,10,-4.57724e-06,-4.74246,-0.113891,-0.518038,0.364479,0.252965,
2,0,0,1,0,44031.1,0.251795,0.251471,-0.0185194,23,0.0144898,10,-4.65711e-06,-4.73237,-0.115465,-0.510977,0.36891,0.251471,
2,0,0,1,0,44032.6,0.250297,0.249968,-0.0190331,23,0.0144477,10,-4.75767e-06,-4.72049,-0.158239,-0.372854,0.276924,0.249968,
2,0,0,1,0,44034.1,0.248799,0.24846,-0.0194694,23,0.0144049,10,-4.83736e-06,-4.71065,-0.107487,-0.548902,0.422249,0.24846,
2,1,0,1,0,44035.6,0.247301,0.247001,-0.0200164,23,0.0143615,10,-4.94407e-06,-4.69861,-0.089612,-0.658394,0.527017,0.247001,
2,0,0,1,0,44037.1,0.245802,0.245479,-0.0208943,23,0.0143171,10,-5.12912e-06,-4.67997,-0.111015,-0.531459,0.434979,0.245479,
2,0,0,1,0,44038.6,0.244304,0.244029,-0.0212229,23,0.014271,10,-5.17902e-06,-4.67319,-0.0944846,-0.62444,0.517249,0.2440294,
2,0,0,1,0,44040.1,0.242806,0.242458,-0.0226132,23,0.0142242,10,-5.48275e-06,-4.64564,-0.132127,-0.44654,0.388322,0.242458,
2,0,0,1,0,44041.6,0.241308,0.241012,-0.0231025,23,0.0141767,10,-5.56798e-06,-4.63634,-0.122232,-0.482688,0.428297,0.2410116,
2,0,0,1,0,44043.1,0.23981,0.239486,-0.0235001,23,0.0141279,10,-5.62793e-06,-4.62893,-0.0960006,-0.61458,0.557011,0.239486,
2,0,0,1,0,44044.6,0.238312,0.238002,-0.0239486,23,0.0140781,10,-5.69981e-06,-4.62072,-0.159855,-0.369084,0.349402,0.238002,
2,0,0,1,0,44046.1,0.236813,0.236476,-0.0247487,23,0.0140274,10,-5.85248e-06,-4.60645,-0.199225,-0.296147,0.287411,0.236476,
2,0,0,1,0,44047.6,0.235315,0.234962,-0.0254054,23,0.013976,10,-5.96929e-06,-4.59507,-0.13875,-0.425224,0.418063,0.234962,
2,0,0,1,0,44049.1,0.233817,0.233495,-0.0255191,23,0.0139236,10,-5.95859e-06,-4.59313,-0.143387,-0.411473,0.412753,0.233495,
2,0,0,1,0,44050.6,0.232319,0.231939,-0.0266817,23,0.0138702,10,-6.18853e-06,-4.57379,-0.14154,-0.416842,0.426649,0.231939,
2,0,0,1,0,44052.1,0.230821,0.230509,-0.0268196,23,0.0138162,10,-6.18218e-06,-4.57155,-0.210494,-0.280293,0.294697,0.230509,
2,0,0,1,0,44053.6,0.229322,0.22901,-0.0275793,23,0.0137612,10,-6.31593e-06,-4.55942,-0.103302,-0.571141,0.613091,0.22901,
2,0,0,1,0,44055.1,0.227824,0.227474,-0.0283736,23,0.013705,10,-6.45427e-06,-4.54709,-0.134706,-0.437991,0.481084,0.227474,
2,0,0,1,0,44056.6,0.226326,0.226023,-0.029111,23,0.0136476,10,-6.57975e-06,-4.53594,-0.216025,-0.273117,0.311432,0.226023,
2,0,0,1,0,44058.1,0.224828,0.22455,-0.029707,23,0.0135893,10,-6.6707e-06,-4.52714,-0.184903,-0.319086,0.366266,0.22455,
2,0,0,1,0,44059.6,0.22333,0.222995,-0.0305299,23,0.0135299,10,-6.80803e-06,-4.51527,-0.173802,-0.339466,0.398709,0.222995,
2,0,0,1,0,44061.1,0.221831,0.221512,-0.0312455,23,0.0134698,10,-6.92125e-06,-4.50521,-0.172005,-0.343014,0.414884,0.221512,
2,0,0,1,0,44062.6,0.220333,0.220064,-0.0314206,23,0.0134087,10,-6.91455e-06,-4.50279,-0.203867,-0.289404,0.351903,0.220064,
2,0,0,1,0,44064.1,0.218835,0.218474,-0.0319977,23,0.0133466,10,-6.99066e-06,-4.49488,-0.170099,-0.346857,0.431749,0.218474,
2,0,0,1,0,44065.6,0.217337,0.216978,-0.0325869,23,0.0132838,10,-7.07065e-06,-4.48696,-0.285204,-0.20687,0.259839,0.216978,
2,0,0,1,0,44067.1,0.215839,0.215544,-0.0326885,23,0.0132204,10,-7.0458e-06,-4.48561,-0.2269,-0.260026,0.337097,0.215544,
2,0,0,1,0,44068.6,0.21434,0.214036,-0.0335543,23,0.0131561,10,-7.18182e-06,-4.47425,-0.175415,-0.336344,0.437828,0.214036,
2,0,0,1,0,44070.1,0.212842,0.212516,-0.0338971,23,0.0130908,10,-7.20369e-06,-4.46984,-0.196105,-0.30086,0.401725,0.212516,
2,0,0,1,0,44071.6,0.211344,0.211021,-0.0345316,23,0.0130248,10,-7.28689e-06,-4.46178,-0.427063,-0.138153,0.185721,0.211021,
2,0,0,1,0,44073.1,0.209846,0.20955,-0.0347506,23,0.012958,10,-7.282e-06,-4.45904,-0.22758,-0.259249,0.354639,0.20955,
2,0,0,1,0,44074.6,0.208348,0.208022,-0.0355279,23,0.0128908,10,-7.39059e-06,-4.44943,-0.40728,-0.144863,0.199979,0.208022,
2,0,0,1,0,44076,0.20685,0.206526,-0.0367657,23,0.0128223,10,-7.59308e-06,-4.43456,-0.232606,-0.253648,0.355853,0.206526,
2,0,0,1,0,44077.5,0.205351,0.205031,-0.0361944,23,0.0127533,10,-7.42097e-06,-4.44136,-0.220492,-0.267583,0.378435,0.205031,
2,0,0,1,0,44079,0.203853,0.203534,-0.0367554,23,0.0126838,10,-7.48097e-06,-4.43468,-0.232978,-0.253242,0.365373,0.203534,
2,0,0,1,0,44080.5,0.202355,0.20204,-0.0372476,23,0.0126135,10,-7.52549e-06,-4.4289,-0.173818,-0.339435,0.499304,0.20204,
2,0,0,1,0,44082,0.200857,0.200532,-0.0380869,23,0.012542,10,-7.63763e-06,-4.41922,-0.206136,-0.286219,0.426372,0.200532,
2,0,0,1,0,44083.5,0.199359,0.199058,-0.0385191,23,0.0124696,10,-7.66753e-06,-4.41432,-0.210017,-0.28093,0.42412,0.199058,
2,0,0,1,0,44085,0.19786,0.197501,-0.0392008,23,0.0123964,10,-7.7422e-06,-4.4067,-0.199108,-0.296321,0.457273,0.197501,
2,0,0,1,0,44086.5,0.196362,0.196018,-0.040807,23,0.0123223,10,-7.99893e-06,-4.38927,-0.157001,-0.375794,0.587549,0.196018,
2,0,0,1,0,44088,0.194864,0.194493,-0.0414041,23,0.012247,10,-8.05279e-06,-4.38296,-0.15269,-0.386405,0.610267,0.1944925,
2,0,0,1,0,44089.5,0.193366,0.193048,-0.0418119,23,0.0121702,10,-8.07171e-06,-4.3787,-0.223671,-0.26378,0.429343,0.193048,
2,0,0,1,0,44091,0.191868,0.191547,-0.0420988,23,0.012093,10,-8.06388e-06,-4.37573,-0.271068,-0.217658,0.363203,0.191547,
2,0,0,1,0,44092.5,0.190369,0.190037,-0.0426918,23,0.0120153,10,-8.11301e-06,-4.36966,-0.266203,-0.221635,0.370834,0.190037,
2,0,0,1,0,44094,0.188871,0.188588,-0.0436471,23,0.011936,10,-8.23132e-06,-4.36004,-0.146648,-0.402324,0.682333,0.1885881,
2,0,0,1,0,44095.5,0.187373,0.187077,-0.0439803,23,0.0118557,10,-8.2277e-06,-4.35674,-0.196911,-0.299628,0.518177,0.187077,
2,0,0,1,0,44097,0.185875,0.185532,-0.0449054,23,0.0117743,10,-8.3314e-06,-4.3477,-0.224598,-0.262691,0.461519,0.185532,
2,0,0,1,0,44098.5,0.184377,0.184022,-0.0455834,23,0.0116919,10,-8.38835e-06,-4.34119,-0.19015,-0.310282,0.552927,0.184022,
2,0,0,1,0,44100,0.182878,0.182583,-0.0468,23,0.0116085,10,-8.5449e-06,-4.32975,-0.282248,-0.209036,0.377486,0.182583,
2,0,0,1,0,44101.5,0.18138,0.181058,-0.0472014,23,0.0115238,10,-8.54621e-06,-4.32604,-0.272607,-0.216429,0.396589,0.181058,
2,0,0,1,0,44103,0.179882,0.179566,-0.0476559,23,0.0114381,10,-8.55739e-06,-4.32188,-0.339417,-0.173827,0.322977,0.179566,
2,0,0,1,0,44104.5,0.178384,0.17807,-0.048382,23,0.0113513,10,-8.61539e-06,-4.31532,-0.189968,-0.310578,0.589614,0.1780701,
2,0,0,1,0,44106,0.176886,0.176574,-0.0490159,23,0.0112636,10,-8.65492e-06,-4.30966,-0.205269,-0.287427,0.554856,0.176574,
2,0,0,1,0,44107.5,0.175388,0.175039,-0.0502417,23,0.0111742,10,-8.79428e-06,-4.29894,-0.208838,-0.282515,0.551807,0.1750394,
2,0,0,1,0,44109,0.173889,0.173556,-0.0506048,23,0.0110835,10,-8.78275e-06,-4.29581,-0.20443,-0.288607,0.573488,0.1735559,
2,0,0,1,0,44110.5,0.172391,0.17208,-0.0521953,23,0.0109916,10,-8.98177e-06,-4.28237,-0.189494,-0.311356,0.633005,0.17208,
2,0,0,1,0,44112,0.170893,0.170578,-0.0531801,23,0.0108981,10,-9.07138e-06,-4.27425,-0.167764,-0.351685,0.726701,0.170578,
2,0,0,1,0,44113.5,0.169395,0.169078,-0.0538548,23,0.0108029,10,-9.10565e-06,-4.26878,-0.165835,-0.355775,0.749983,0.1690778,
2,0,0,1,0,44115,0.167897,0.167611,-0.0548805,23,0.0107059,10,-9.19859e-06,-4.26058,-0.186078,-0.317072,0.6849,0.167611,
2,0,0,1,0,44116.5,0.166398,0.166099,-0.0560031,23,0.0106076,10,-9.30207e-06,-4.25179,-0.219672,-0.268582,0.590237,0.166099,
2,0,0,1,0,44118,0.1649,0.164577,-0.0568223,23,0.0105078,10,-9.35167e-06,-4.24548,-0.142731,-0.413366,0.924176,0.164577,
2,0,0,1,0,44119.5,0.163402,0.163043,-0.0589451,23,0.0104057,10,-9.61058e-06,-4.22955,-0.118119,-0.499494,1.14451,0.163043,
2,0,0,1,0,44121,0.161904,0.161559,-0.0602491,23,0.0103013,10,-9.7338e-06,-4.22005,-0.157936,-0.373569,0.875439,0.161559,
2,0,0,1,0,44122.5,0.160406,0.160104,-0.0614233,23,0.0101947,10,-9.83409e-06,-4.21167,-0.154757,-0.381243,0.911379,0.160104,
2,0,0,1,0,44124,0.158907,0.158623,-0.0623983,23,0.0100862,10,-9.89781e-06,-4.20483,-0.153736,-0.383774,0.939767,0.158623,
2,0,0,1,0,44125.5,0.157409,0.157075,-0.0645446,23,0.00997561,10,-1.01383e-05,-4.19014,-0.165984,-0.355455,0.893716,0.157075,
2,0,0,1,0,44127,0.155911,0.155569,-0.0654967,23,0.00986244,10,-1.01893e-05,-4.18378,-0.150009,-0.393311,1.01814,0.155569,
2,0,0,1,0,44128.5,0.154413,0.15405,-0.0678202,23,0.00974672,10,-1.04477e-05,-4.16864,-0.126458,-0.466558,1.23211,0.15405,
2,0,0,1,0,44130,0.152915,0.152583,-0.0696432,23,0.00962818,10,-1.06264e-05,-4.15712,-0.118068,-0.499714,1.36024,0.152583,
2,0,0,1,0,44131.5,0.151417,0.151105,-0.0717352,23,0.0095066,10,-1.08395e-05,-4.14427,-0.112214,-0.52578,1.47106,0.151105,
2,0,0,1,0,44133,0.149918,0.149602,-0.0743751,23,0.0093814,10,-1.11267e-05,-4.12857,-0.0978324,-0.603072,1.73995,0.149602,
2,0,0,1,0,44134.5,0.14842,0.148095,-0.0766972,23,0.00925225,10,-1.13585e-05,-4.11522,-0.0955766,-0.617306,1.84583,0.148095,
2,0,0,1,0,44136,0.146922,0.146592,-0.0795255,23,0.00911905,10,-1.16578e-05,-4.09949,-0.104439,-0.564923,1.74431,0.146592,
2,0,0,1,0,44137.5,0.145424,0.145127,-0.0819259,23,0.00898192,10,-1.18897e-05,-4.08658,-0.0880616,-0.669986,2.1559,0.145127,
2,0,0,1,0,44139,0.143926,0.143568,-0.0855223,23,0.00884,10,-1.22782e-05,-4.06792,-0.0789423,-0.747382,2.48933,0.143568,
2,0,0,1,0,44140.5,0.142427,0.142079,-0.0892945,23,0.00869204,10,-1.26869e-05,-4.04918,-0.0804659,-0.73323,2.56778,0.1420788,
2,0,0,1,0,44142,0.140929,0.140587,-0.0932885,23,0.0085383,10,-1.31151e-05,-4.03017,-0.0813244,-0.72549,2.66346,0.140587,
2,0,0,1,0,44143.5,0.139431,0.139169,-0.0976903,23,0.00837824,10,-1.35955e-05,-4.01015,-0.0719179,-0.82038,3.13365,0.139169,
2,0,0,1,0,44145,0.137933,0.137631,-0.102763,23,0.00821116,10,-1.41434e-05,-3.98816,-0.0732856,-0.80507,3.21818,0.1376314,
2,0,0,1,0,44146.5,0.136435,0.136078,-0.107436,23,0.00803682,10,-1.46196e-05,-3.96885,-0.0780882,-0.755556,3.15762,0.136078,
2,0,0,1,0,44148,0.134936,0.134629,-0.112297,23,0.00785554,10,-1.51185e-05,-3.94963,-0.0837908,-0.704135,3.07321,0.134629,
2,0,0,1,0,44149.5,0.133438,0.133123,-0.116036,23,0.00766709,10,-1.54471e-05,-3.93541,-0.0872627,-0.67612,3.06412,0.133123,
2,0,0,1,0,44151,0.13194,0.131622,-0.121582,23,0.00747143,10,-1.60029e-05,-3.91513,-0.097094,-0.607658,2.8741,0.131622,
2,0,0,1,0,44152.5,0.130442,0.130115,-0.125348,23,0.00726927,10,-1.63096e-05,-3.90188,-0.116813,-0.50508,2.47011,0.130115,
2,0,0,1,0,44154,0.128944,0.128599,-0.128928,23,0.00706111,10,-1.658e-05,-3.88965,-0.147309,-0.400518,2.01021,0.128599,
2,0,0,1,0,44155.5,0.127445,0.127126,-0.131824,23,0.0068484,10,-1.67582e-05,-3.88001,-0.166695,-0.35394,1.82126,0.127126,
2,0,0,1,0,44157,0.125947,0.125604,-0.134771,23,0.00663165,10,-1.69278e-05,-3.8704,-0.186586,-0.316208,1.65389,0.1256043,
2,0,0,1,0,44158.4,0.124449,0.124126,-0.137077,23,0.00641084,10,-1.70148e-05,-3.86304,-0.240739,-0.245078,1.30273,0.124126,
2,0,0,1,0,44159.9,0.122951,0.122627,-0.138745,23,0.00618703,10,-1.70139e-05,-3.85778,-0.322696,-0.182835,0.983849,0.122627,
2,0,0,1,0,44161.4,0.121453,0.121167,-0.139875,23,0.00596147,10,-1.69481e-05,-3.85426,-0.552502,-0.106787,0.580122,0.121167,
2,0,0,1,0,44162.9,0.119955,0.11962,-0.140227,23,0.00573501,10,-1.6774e-05,-3.85317,-0.656086,-0.0899273,0.492169,0.11962,
2,0,0,1,0,44164.4,0.118456,0.118117,-0.139997,23,0.00550725,10,-1.6536e-05,-3.85388,-0.630141,-0.0936298,0.513108,0.118117,
2,0,0,1,0,44165.9,0.116958,0.11658,-0.141087,23,0.00527855,10,-1.6448e-05,-3.85051,-2.21697,-0.0266129,0.146547,0.11658,
2,0,0,1,0,44167.4,0.11546,0.115068,-0.140948,23,0.00504962,10,-1.62186e-05,-3.85094,6.14922,0.00959471,-0.0528741,0.115068,
2,0,0,1,0,44168.9,0.113962,0.113654,-0.140681,23,0.00482105,10,-1.59889e-05,-3.85176,2.55267,0.0231131,-0.1274,0.113654,
2,0,0,1,0,44170.4,0.112464,0.112138,-0.14094,23,0.00459257,10,-1.58047e-05,-3.85097,4.90653,0.0120248,-0.0661112,0.112138,
2,0,0,1,0,44171.9,0.110965,0.11063,-0.141378,23,0.00436404,10,-1.56407e-05,-3.84962,4.53978,0.0129962,-0.0713483,0.11063,
2,0,0,1,0,44173.4,0.109467,0.109129,-0.141287,23,0.00413563,10,-1.54185e-05,-3.8499,1.24277,0.0474746,-0.260426,0.109129,
2,0,0,1,0,44174.9,0.107969,0.10762,-0.140424,23,0.00390756,10,-1.51124e-05,-3.85256,4.15025,0.014216,-0.0780483,0.10762,
2,0,0,1,0,44176.4,0.106471,0.106198,-0.140459,23,0.00368014,10,-1.49164e-05,-3.85245,-21.9563,-0.00268715,0.0147739,0.106198,
2,0,0,1,0,44177.9,0.104973,0.104673,-0.139999,23,0.00345255,10,-1.46541e-05,-3.85388,2.63848,0.0223614,-0.122374,0.104673,
2,0,0,1,0,44179.4,0.103474,0.10318,-0.139552,23,0.00322515,10,-1.43989e-05,-3.85527,0.900879,0.0654916,-0.357019,0.10318,
2,0,0,1,0,44180.9,0.101976,0.101667,-0.139819,23,0.00299864,10,-1.42149e-05,-3.85443,0.787385,0.0749316,-0.407093,0.101667,
2,0,0,1,0,44182.4,0.100478,0.100154,-0.139207,23,0.00277303,10,-1.39422e-05,-3.85634,0.885584,0.0666227,-0.360256,0.100154,
2,0,0,1,0,44183.9,0.0989798,0.0986922,-0.138648,23,0.00254818,10,-1.36835e-05,-3.85809,1.1082,0.0532397,-0.287183,0.0986922,
2,0,0,1,0,44185.4,0.0974816,0.0971228,-0.137667,23,0.00232427,10,-1.33706e-05,-3.86117,0.998404,0.0590943,-0.317597,0.0971228,
2,0,0,1,0,44186.9,0.0959834,0.0956584,-0.13676,23,0.00210126,10,-1.30822e-05,-3.86404,0.76646,0.0769773,-0.412092,0.0956584,
2,0,0,1,0,44188.4,0.0944852,0.0941505,-0.136184,23,0.00187979,10,-1.28218e-05,-3.86587,0.660189,0.0893683,-0.475515,0.0941505,
2,0,0,1,0,44189.9,0.0929871,0.0926734,-0.135522,23,0.00165918,10,-1.25593e-05,-3.86799,0.753317,0.0783203,-0.413534,0.0926734,
2,0,0,1,0,44191.4,0.0914889,0.0911559,-0.134706,23,0.00143945,10,-1.22792e-05,-3.87061,0.557126,0.105901,-0.556676,0.0911559,
2,0,0,1,0,44192.9,0.0899907,0.089683,-0.133663,23,0.00122159,10,-1.19873e-05,-3.87399,0.468104,0.12604,-0.657474,0.089683,
2,0,0,1,0,44194.4,0.0884925,0.0881889,-0.131997,23,0.00100525,10,-1.16407e-05,-3.87943,0.558085,0.105719,-0.547665,0.0881889,
2,0,0,1,0,44195.9,0.0869943,0.0866577,-0.1322,23,0.000790195,10,-1.14562e-05,-3.87877,0.449369,0.131295,-0.674813,0.0866577,
2,0,0,1,0,44197.4,0.0854961,0.0851837,-0.131206,23,0.000576265,10,-1.11766e-05,-3.88205,0.361851,0.163051,-0.833452,0.0851837,
2,0,0,1,0,44198.9,0.083998,0.0836748,-0.13002,23,0.000363922,10,-1.08794e-05,-3.88599,0.36285,0.162602,-0.822388,0.0836748,
2,0,0,1,0,44200.4,0.0824998,0.0821722,-0.129165,23,0.000153147,10,-1.06138e-05,-3.88886,0.44933,0.131307,-0.660689,0.0821722,
2,0,0,1,0,44201.9,0.0810016,0.0806675,-0.127654,23,-5.56289e-05,10,-1.02975e-05,-3.89397,0.502421,0.117431,-0.586665,0.0806675,
2,0,0,1,0,44203.4,0.0795034,0.0791861,-0.127091,23,-0.00026339,10,-1.00639e-05,-3.89588,0.484059,0.121886,-0.604471,0.0791861,
2,0,0,1,0,44204.9,0.0780052,0.0776411,-0.126046,23,-0.00046994,10,-9.78633e-06,-3.89947,0.510532,0.115566,-0.568987,0.0776411,
2,0,0,1,0,44206.4,0.076507,0.0762191,-0.125668,23,-0.000675209,10,-9.57832e-06,-3.90077,0.434465,0.135799,-0.663809,0.0762191,
2,0,0,1,0,44207.9,0.0750088,0.0747207,-0.124862,23,-0.000879022,10,-9.3298e-06,-3.90357,0.540977,0.109062,-0.530503,0.0747207,
2,0,0,1,0,44209.4,0.0735106,0.0731534,-0.123886,23,-0.00108199,10,-9.06271e-06,-3.90698,0.937086,0.0629612,-0.304693,0.0731534,
2,0,0,1,0,44210.9,0.0720124,0.0716985,-0.123529,23,-0.00128431,10,-8.85683e-06,-3.90823,0.831562,0.0709509,-0.341933,0.0716985,
2,0,0,1,0,44212.4,0.0705142,0.0701938,-0.122934,23,-0.00148586,10,-8.6292e-06,-3.91033,0.507454,0.116267,-0.55748,0.07019382,
2,0,0,1,0,44213.9,0.069016,0.0686965,-0.121652,23,-0.00168571,10,-8.35707e-06,-3.91488,0.503224,0.117244,-0.559475,0.0686965,
2,0,0,1,0,44215.4,0.0675178,0.067213,-0.120801,23,-0.0018846,10,-8.11941e-06,-3.91793,1.27077,0.0464286,-0.219508,0.067213,
2,0,0,1,0,44216.9,0.0660196,0.0656594,-0.121364,23,-0.00208247,10,-7.9687e-06,-3.91591,0.714555,0.0825689,-0.387658,0.0656594,
2,0,0,1,0,44218.4,0.0645214,0.0641898,-0.120017,23,-0.00227971,10,-7.70384e-06,-3.92076,0.608922,0.0968925,-0.452077,0.0641898,
2,0,0,1,0,44219.9,0.0630233,0.0626724,-0.118851,23,-0.00247552,10,-7.44868e-06,-3.925,0.651477,0.0905634,-0.42164,0.0626724,
2,0,0,1,0,44221.4,0.0615251,0.0611709,-0.119043,23,-0.00267042,10,-7.28198e-06,-3.9243,0.620486,0.0950868,-0.441293,0.0611709,
2,0,0,1,0,44222.9,0.0600269,0.0596778,-0.117809,23,-0.00286456,10,-7.03056e-06,-3.92882,0.656256,0.0899039,-0.415294,0.0596778,
2,0,0,1,0,44224.4,0.0585287,0.0582176,-0.117756,23,-0.00305803,10,-6.8555e-06,-3.92902,0.595649,0.0990516,-0.454303,0.0582176,
2,0,0,1,0,44225.9,0.0570305,0.0567086,-0.117059,23,-0.00325075,10,-6.63827e-06,-3.93159,0.903142,0.0653275,-0.298754,0.0567086,
2,0,0,1,0,44227.4,0.0555323,0.0552188,-0.116685,23,-0.0034423,10,-6.44318e-06,-3.93299,0.98063,0.0601654,-0.27406,0.0552188,
2,0,0,1,0,44228.9,0.0540342,0.053712,-0.116374,23,-0.00363334,10,-6.25069e-06,-3.93414,0.673819,0.0875606,-0.395564,0.053712,
2,0,0,1,0,44230.4,0.052536,0.0522073,-0.115622,23,-0.00382385,10,-6.03632e-06,-3.93696,0.469321,0.125713,-0.565056,0.0522073,
2,0,0,1,0,44231.9,0.0510378,0.0506814,-0.114934,23,-0.00401266,10,-5.82504e-06,-3.93955,0.582945,0.10121,-0.452983,0.0506814,
2,0,0,1,0,44233.4,0.0495396,0.0491946,-0.11416,23,-0.00420041,10,-5.61605e-06,-3.94249,1.13538,0.051965,-0.231116,0.0491946,
2,0,0,1,0,44234.9,0.0480414,0.0477461,-0.113759,23,-0.0043876,10,-5.43156e-06,-3.94401,1.16472,0.0506558,-0.224508,0.0477461,
2,0,0,1,0,44236.4,0.0465432,0.0462138,-0.11315,23,-0.00457437,10,-5.2291e-06,-3.94635,1.7635,0.0334563,-0.147773,0.0462138,
2,0,0,1,0,44237.9,0.045045,0.044706,-0.112477,23,-0.00476027,10,-5.0284e-06,-3.94894,0.618265,0.0954283,-0.419792,0.044706,
2,0,0,1,0,44239.4,0.0435468,0.0432319,-0.111365,23,-0.00494488,10,-4.81453e-06,-3.95325,0.800965,0.0736612,-0.322308,0.0432319,
2,0,0,1,0,44240.9,0.0420486,0.0417389,-0.111398,23,-0.00512866,10,-4.64963e-06,-3.95312,0.643888,0.0916308,-0.398109,0.0417389,
2,0,0,1,0,44242.3,0.0405504,0.0402182,-0.111873,23,-0.00531222,10,-4.49932e-06,-3.95128,0.610822,0.0965911,-0.418634,0.0402182,
2,0,0,1,0,44243.8,0.0390522,0.0387061,-0.110857,23,-0.00549465,10,-4.29085e-06,-3.95524,0.426389,0.138371,-0.594361,0.0387061,
2,0,0,1,0,44245.3,0.037554,0.0371642,-0.109517,23,-0.00567619,10,-4.07012e-06,-3.96052,1.183,0.0498732,-0.214165,0.0371642,
2,0,0,1,0,44246.8,0.0360558,0.0357253,-0.109266,23,-0.00585648,10,-3.90357e-06,-3.96151,0.685543,0.0860632,-0.367475,0.0357253,
2,0,0,1,0,44248.3,0.0345576,0.034299,-0.108879,23,-0.0060367,10,-3.73445e-06,-3.96306,0.751387,0.0785214,-0.333841,0.03429902,
2,0,0,1,0,44249.8,0.0330594,0.0327148,-0.108063,23,-0.00621595,10,-3.53524e-06,-3.96632,0.546293,0.108001,-0.458232,0.0327148,
2,0,0,1,0,44251.3,0.0315613,0.0311942,-0.107986,23,-0.00639414,10,-3.36854e-06,-3.96663,0.828099,0.0712475,-0.300914,0.0311942,
2,0,0,1,0,44252.8,0.0300631,0.0297319,-0.107658,23,-0.00657161,10,-3.20087e-06,-3.96795,1.1203,0.0526646,-0.220527,0.0297319,
2,0,0,1,0,44254.3,0.0285649,0.0282484,-0.10736,23,-0.0067487,10,-3.03276e-06,-3.96916,0.730945,0.0807174,-0.33759,0.0282484,
2,0,0,1,0,44255.8,0.0270667,0.026749,-0.106971,23,-0.00692524,10,-2.86135e-06,-3.97074,0.725432,0.0813309,-0.338356,0.026749,
2,0,0,1,0,44257.3,0.0255685,0.0252167,-0.106512,23,-0.00710118,10,-2.68588e-06,-3.9726,0.860752,0.0685447,-0.284587,0.0252167,
2,0,0,1,0,44258.8,0.0240703,0.0237735,-0.105831,23,-0.00727576,10,-2.51598e-06,-3.97539,2.44105,0.0241699,-0.0999551,0.0237735,
2,0,0,1,0,44260.3,0.0225722,0.0222306,-0.105745,23,-0.00745013,10,-2.35078e-06,-3.97574,-2.38333,-0.0247553,0.101943,0.0222306,
2,0,0,1,0,44261.8,0.021074,0.0207885,-0.105626,23,-0.0076246,10,-2.19581e-06,-3.97623,-17.3801,-0.00339468,0.0140411,0.0207885,
2,0,0,1,0,44263.3,0.0195758,0.0192202,-0.105911,23,-0.00779898,10,-2.03564e-06,-3.97506,-3.03503,-0.0194396,0.0801767,0.0192202,
2,0,0,1,0,44264.8,0.0180776,0.0177027,-0.105023,23,-0.00797336,10,-1.85919e-06,-3.97872,-3.6823,-0.0160226,0.0660047,0.0177027,
2,0,0,1,0,44266.3,0.0165794,0.0162902,-0.105992,23,-0.00814761,10,-1.72664e-06,-3.97473,-3.02698,-0.0194914,0.0806429,0.0162902,
2,0,0,1,0,44267.8,0.0150812,0.0147388,-0.106055,23,-0.00832198,10,-1.56313e-06,-3.97447,16.0028,0.00368686,-0.0152111,0.0147388,
2,0,0,1,0,44269.3,0.013583,0.0132404,-0.10577,23,-0.00849663,10,-1.40044e-06,-3.97564,-2063.56,-2.85913e-05,0.000118166,0.0132404,
2,0,0,1,0,44270.8,0.0120848,0.0117622,-0.106095,23,-0.00867121,10,-1.24791e-06,-3.97431,-0.895687,-0.0658712,0.274041,0.0117622,
2,0,0,1,0,44272.3,0.0105866,0.0102226,-0.106554,23,-0.00884601,10,-1.08926e-06,-3.97243,-0.708799,-0.0832393,0.34625,0.0102226,
2,0,0,1,0,44273.8,0.00908843,0.00874431,-0.106733,23,-0.00902173,10,-9.33309e-07,-3.9717,-1.49637,-0.0394288,0.164284,0.00874431,
2,0,0,1,0,44275.3,0.00759024,0.00722051,-0.107531,23,-0.00919802,10,-7.76428e-07,-3.96847,-2.01416,-0.0292926,0.122578,0.00722051,
2,0,0,1,0,44276.8,0.00609203,0.00577621,-0.107857,23,-0.00937453,10,-6.23008e-07,-3.96715,-0.628654,-0.0938514,0.395035,0.00577621,
2,0,0,1,0,44278.3,0.00459384,0.00430545,-0.108497,23,-0.00955146,10,-4.67128e-07,-3.96458,-0.534069,-0.110473,0.466489,0.00430545,
2,0,0,1,0,44279.8,0.00309563,0.0027466,-0.108894,23,-0.00972986,10,-2.99088e-07,-3.963,-0.395049,-0.149349,0.635414,0.0027466,
2,0,0,1,0,44281.3,0.00159744,0.00119099,-0.110528,23,-0.0099119,10,-1.31638e-07,-3.95653, , , ,0.00119099,
2,0,0,1,0,44282.7,0.000199235,-0.000203136,-0.110477,23,-0.0100806,10,2.24418e-08,-3.95673, , , ,-0.000203136,