File: Figure_codes/Fig_3-5/rawdata_trumpetplot_data/after 10th/20221101_1-115_003_TrumpetPlot_ParaChange_from10_every3_14_CV_C01_15.csv
mode,ox/red,error,control changes,counter inc.,time/s,control/V,Ewe/V,<I>/mA,cycle number,(Q-Qo)/C,I Range,P/W,log(|I|),Tafel slope mV/dec,alpha_eff,dI/d(E-IR),E-IR/V,
2,1,0,1,0,30751.1,2.44065e-05,-0.000363498,35.4484,16,0.0000000E+000,10,-1.28854e-05,-1.4504, , , ,-0.000363498,
2,1,0,1,0,30751.1,0.00332042,0.0029789,36.7514,16,0.000112445,10,0.000109479,-1.43473, , , ,0.0029789,
2,1,0,1,0,30751.1,0.0073156,0.00696603,37.8184,16,0.000261756,10,0.000263444,-1.4223, , , ,0.00696603,
2,1,0,1,0,30751.1,0.0113108,0.010932,38.7503,16,0.000415006,10,0.000423617,-1.41172,0.389655,0.151416,227.753,0.010932,
2,1,0,1,0,30751.1,0.0153059,0.014936,39.6005,16,0.000571808,10,0.000591475,-1.4023,0.433348,0.136149,209.747,0.014936,
2,1,0,1,0,30751.1,0.0193011,0.0189507,40.389,16,0.000731894,10,0.000765402,-1.39374,0.47847,0.12331,193.873,0.0189507,
2,1,0,1,0,30751.1,0.0233462,0.0229845,41.1783,16,0.000895166,10,0.000946463,-1.38533,0.519719,0.113523,181.821,0.0229845,
2,1,0,1,0,30751.1,0.0273414,0.0269833,41.8622,16,0.00106132,10,0.00112958,-1.37818,0.561211,0.10513,171.285,0.0269833,
2,1,0,1,0,30751.1,0.0313366,0.0309492,42.5121,16,0.00123015,10,0.00131572,-1.37149,0.6107,0.0966104,160.032,0.0309492,
2,1,0,1,0,30751.1,0.0353317,0.0349873,43.1358,16,0.00140152,10,0.0015092,-1.36516,0.647288,0.0911496,153.238,0.0349873,
2,1,0,1,0,30751.1,0.0393269,0.038968,43.7361,16,0.00157534,10,0.00170431,-1.35916,0.684248,0.0862261,146.974,0.038968,
2,1,0,1,0,30751.1,0.0433221,0.0429923,44.3154,16,0.0017515,10,0.00190522,-1.35345,0.724799,0.0814019,140.573,0.0429923,
2,1,0,1,0,30751.1,0.0473173,0.0469264,44.8603,16,0.0019299,10,0.00210513,-1.34814,0.760712,0.0775589,135.643,0.04692639,
2,1,0,1,0,30751.1,0.0513124,0.0509612,45.3813,16,0.00211045,10,0.00231269,-1.34312,0.792202,0.0744759,131.833,0.0509612,
2,1,0,1,0,30751.1,0.0553076,0.0549706,45.9068,16,0.00229308,10,0.00252352,-1.33812,0.807157,0.073096,130.95,0.0549706,
2,1,0,1,0,30751.1,0.0593028,0.0589185,46.415,16,0.00247777,10,0.00273471,-1.33334,0.832207,0.0708959,128.393,0.0589185,
2,1,0,1,0,30751.1,0.0633479,0.0629873,46.9635,16,0.00266454,10,0.0029581,-1.32824,0.86351,0.0683258,125.054,0.0629873,
2,1,0,1,0,30751.1,0.0673431,0.0670126,47.4422,16,0.00285338,10,0.00317923,-1.32384,0.886636,0.0665436,123.08,0.0670126,
2,1,0,1,0,30751.1,0.0713383,0.0709287,47.9024,16,0.0030441,10,0.00339765,-1.31964,0.920428,0.0641006,119.857,0.0709287,
2,1,0,1,0,30751.1,0.0753334,0.0749264,48.3853,16,0.00323673,10,0.00362534,-1.31529,0.924138,0.0638433,120.585,0.0749264,
2,1,0,1,0,30751.1,0.0793286,0.0789082,48.8717,16,0.00343128,10,0.00385638,-1.31094,0.914773,0.0644969,123.034,0.07890825,
2,1,0,1,0,30751.1,0.0833238,0.0829441,49.3633,16,0.00362779,10,0.0040944,-1.3066,0.918022,0.0642686,123.82,0.0829441,
2,1,0,1,0,30751.2,0.0873189,0.0869132,49.869,16,0.00382631,10,0.00433428,-1.30217,0.919791,0.064145,124.824,0.08691325,
2,1,0,1,0,30751.2,0.0913141,0.090876,50.3602,16,0.00402681,10,0.00457653,-1.29791,0.916984,0.0643414,126.471,0.090876,
2,1,0,1,0,30751.2,0.0953093,0.0948822,50.8656,16,0.00422934,10,0.00482624,-1.29358,0.921717,0.064011,127.104,0.0948822,
2,1,0,1,0,30751.2,0.0993045,0.0989075,51.3822,16,0.00443388,10,0.00508209,-1.28919,0.90861,0.0649344,130.253,0.0989075,
2,1,0,1,0,30751.2,0.103319,0.102915,51.9029,16,0.0046405,10,0.00534158,-1.28481,0.883025,0.0668158,135.448,0.1029148,
2,1,0,1,0,30751.2,0.107345,0.106928,52.451,16,0.00484926,10,0.00560851,-1.28025,0.866389,0.0680988,139.512,0.106928,
2,1,0,1,0,30751.2,0.11134,0.110905,53.0359,16,0.00506029,10,0.00588194,-1.27543,0.845021,0.0698208,144.565,0.110905,
2,1,0,1,0,30751.2,0.115335,0.114959,53.6216,16,0.00527367,10,0.00616428,-1.27066,0.84181,0.0700871,146.66,0.114959,
2,1,0,1,0,30751.2,0.11933,0.118952,54.2214,16,0.00548941,10,0.00644976,-1.26583,0.848235,0.0695562,147.146,0.118952,
2,1,0,1,0,30751.2,0.123325,0.122956,54.8017,16,0.0057075,10,0.00673823,-1.26121,0.844421,0.0698704,149.456,0.122956,
2,1,0,1,0,30751.2,0.127321,0.126927,55.3934,16,0.00592797,10,0.0070309,-1.25654,0.847671,0.0696024,150.537,0.126927,
2,1,0,1,0,30751.2,0.131316,0.130971,56.0147,16,0.00615084,10,0.0073363,-1.2517,0.831639,0.0709442,155.139,0.130971,
2,1,0,1,0,30751.2,0.135311,0.134976,56.6336,16,0.00637618,10,0.00764418,-1.24693,0.816349,0.072273,159.83,0.134976,
2,1,0,1,0,30751.2,0.139306,0.138942,57.2817,16,0.00660407,10,0.00795884,-1.24198,0.791567,0.0745357,166.792,0.138942,
2,1,0,1,0,30751.2,0.143301,0.142964,57.9567,16,0.00683461,10,0.00828573,-1.2369,0.77543,0.0760868,172.228,0.142964,
2,1,0,1,0,30751.2,0.147346,0.146972,58.6834,16,0.007068,10,0.00862479,-1.23148,0.765509,0.0770729,176.516,0.146972,
2,1,0,1,0,30751.2,0.151342,0.150975,59.3889,16,0.00730421,10,0.00896621,-1.22629,0.755104,0.0781349,181.112,0.150975,
2,1,0,1,0,30751.2,0.155337,0.15496,60.109,16,0.00754325,10,0.00931447,-1.22106,0.759156,0.0777178,182.384,0.15496,
2,1,0,1,0,30751.2,0.159332,0.158959,60.8536,16,0.00778524,10,0.00967325,-1.21571,0.758212,0.0778147,184.816,0.158959,
2,1,0,1,0,30751.2,0.163327,0.16298,61.6032,16,0.00803023,10,0.0100401,-1.2104,0.761126,0.0775167,186.316,0.16298,
2,1,0,1,0,30751.2,0.167322,0.166997,62.3502,16,0.00827821,10,0.0104123,-1.20516,0.771485,0.0764759,186.021,0.166997,
2,1,0,1,0,30751.2,0.171317,0.170957,63.0896,16,0.00852917,10,0.0107856,-1.20004,0.790398,0.074646,183.698,0.170957,
2,1,0,1,0,30751.2,0.175313,0.174922,63.8229,16,0.00878307,10,0.011164,-1.19502,0.809917,0.072847,181.339,0.174922,
2,1,0,1,0,30751.2,0.179308,0.178934,64.5339,16,0.00903988,10,0.0115473,-1.19021,0.835158,0.0706453,177.847,0.178934,
2,1,0,1,0,30751.2,0.183303,0.182939,65.2411,16,0.00929952,10,0.0119352,-1.18548,0.882242,0.066875,170.112,0.182939,
2,1,0,1,0,30751.3,0.187348,0.187004,65.9435,16,0.0095619,10,0.0123317,-1.18083,0.934905,0.063108,162.123,0.187004,
2,1,0,1,0,30751.3,0.191343,0.190977,66.5542,16,0.00982697,10,0.0127103,-1.17682,1.01297,0.0582443,151.031,0.190977,
2,1,0,1,0,30751.3,0.195338,0.194978,67.135,16,0.0100944,10,0.0130899,-1.17305,1.13127,0.052154,136.425,0.194978,
2,1,0,1,0,30751.3,0.199334,0.198951,67.6593,16,0.0103641,10,0.0134608,-1.16967,1.276,0.0462384,121.848,0.1989505,
2,1,0,1,0,30751.3,0.203329,0.202958,68.12,16,0.0106357,10,0.0138255,-1.16673,1.51477,0.0389498,103.301,0.202958,
2,1,0,1,0,30751.3,0.207324,0.206953,68.5008,16,0.010909,10,0.0141765,-1.1643,1.9124,0.0308513,82.2558,0.206953,
2,1,0,1,0,30751.3,0.211319,0.210959,68.7858,16,0.0111836,10,0.0145109,-1.1625,2.67441,0.022061,59.0559,0.210959,
2,1,0,1,0,30751.3,0.215314,0.214998,68.9792,16,0.0114592,10,0.0148304,-1.16128,4.65721,0.0126685,34.0017,0.214998,
2,1,0,1,0,30751.3,0.219309,0.218989,69.0668,16,0.0117353,10,0.0151249,-1.16073,17.9543,0.00328612,8.83063,0.218989,
2,1,0,1,0,30751.3,0.223305,0.222918,69.0436,16,0.0120116,10,0.0153911,-1.16088,-9.34687,-0.00631227,-16.9594,0.2229178,
2,1,0,1,0,30751.3,0.227314,0.226973,68.9272,16,0.0122875,10,0.0156446,-1.16161,-3.52389,-0.0167428,-44.894,0.226973,
2,1,0,1,0,30751.3,0.231345,0.231038,68.7072,16,0.0125628,10,0.015874,-1.163,-2.18888,-0.0269544,-72.0188,0.231038,
2,1,0,1,0,30751.3,0.23534,0.23503,68.3466,16,0.0128369,10,0.0160635,-1.16528,-1.55026,-0.0380582,-101.166,0.23503,
2,1,0,1,0,30751.3,0.239335,0.239012,67.8846,16,0.0131094,10,0.0162252,-1.16823,-1.19448,-0.049394,-130.432,0.239012,
2,1,0,1,0,30751.3,0.24333,0.243022,67.3036,16,0.0133797,10,0.0163562,-1.17196,-0.98127,-0.0601262,-157.413,0.243022,
2,1,0,1,0,30751.3,0.247326,0.246979,66.628,16,0.0136476,10,0.0164557,-1.17634,-0.836051,-0.0705699,-182.908,0.246979,
2,1,0,1,0,30751.3,0.251321,0.250981,65.8356,16,0.0139124,10,0.0165235,-1.18154,-0.735292,-0.0802403,-205.574,0.250981,
2,1,0,1,0,30751.3,0.255316,0.254992,64.9616,16,0.014174,10,0.0165647,-1.18734,-0.654824,-0.0901006,-227.818,0.254992,
2,1,0,1,0,30751.3,0.259311,0.25901,64.0169,16,0.0144319,10,0.016581,-1.19371,-0.595449,-0.0990849,-246.858,0.25901,
2,1,0,1,0,30751.3,0.263306,0.26298,62.9828,16,0.0146858,10,0.0165632,-1.20078,-0.555672,-0.106178,-260.423,0.26298,
2,1,0,1,0,30751.3,0.267302,0.267004,61.8803,16,0.0149354,10,0.0165223,-1.20845,-0.515487,-0.114455,-275.931,0.267004,
2,1,0,1,0,30751.3,0.271347,0.271056,60.7782,16,0.0151806,10,0.0164743,-1.21625,-0.486904,-0.121174,-286.836,0.271056,
2,1,0,1,0,30751.3,0.275342,0.275078,59.5831,16,0.0154212,10,0.01639,-1.22488,-0.465364,-0.126783,-294.362,0.275078,
2,1,0,1,0,30751.3,0.279337,0.279013,58.3838,16,0.015657,10,0.0162899,-1.23371,-0.442625,-0.133296,-303.408,0.279013,
2,1,0,1,0,30751.3,0.283332,0.28302,57.166,16,0.015888,10,0.0161791,-1.24286,-0.430955,-0.136905,-305.209,0.28302,
2,1,0,1,0,30751.4,0.287327,0.287013,55.9367,16,0.0161141,10,0.0160546,-1.2523,-0.425652,-0.138611,-302.568,0.287013,
2,1,0,1,0,30751.4,0.291322,0.290973,54.732,16,0.0163353,10,0.0159255,-1.26176,-0.424376,-0.139028,-297.326,0.290973,
2,1,0,1,0,30751.4,0.295318,0.294988,53.5503,16,0.0165518,10,0.0157967,-1.27124,-0.426086,-0.13847,-292.074,0.2949883,
2,1,0,1,0,30751.4,0.299013,0.298722,52.4972,16,0.0167479,10,0.0156821,-1.27986,-0.165739,-0.355982,-721.478,0.298722,
2,1,0,0,0,30751.4,0.300012,0.299804,52.2009,16,0.0168003,10,0.01565,-1.28232,0.00430899,13.6923,25382.5,0.299804,
2,1,0,1,0,30751.4,0.298714,0.298601,49.2282,16,0.016865,10,0.0146996,-1.30779,0.0505709,1.16668,1995.37,0.298601,
2,1,0,1,0,30751.4,0.294718,0.29453,41.9236,16,0.017046,10,0.0123478,-1.37754,0.0594684,0.992124,1579.76,0.29453,
2,1,0,1,0,30751.4,0.290723,0.290536,36.1623,16,0.0172013,10,0.0105064,-1.44174,0.0609609,0.967834,1393.1,0.290536,
2,1,0,1,0,30751.4,0.286728,0.286506,31.1939,16,0.0173353,10,0.00893725,-1.50593,0.0608797,0.969124,1189.36,0.286506,
2,1,0,1,0,30751.4,0.282733,0.282499,26.7962,16,0.0174507,10,0.0075699,-1.57193,0.0588738,1.00214,1051.02,0.282499,
2,1,0,1,0,30751.4,0.278738,0.278518,22.8795,16,0.0175496,10,0.00637235,-1.64055,0.0557121,1.05902,943.018,0.278518,
2,1,0,1,0,30751.4,0.274742,0.27452,19.3298,16,0.0176336,10,0.00530643,-1.71377,0.0517173,1.14082,852.102,0.27452,
2,1,0,1,0,30751.4,0.270747,0.270493,16.0932,16,0.017704,10,0.0043531,-1.79336,0.0469009,1.25797,777.531,0.270493,
2,1,0,1,0,30751.4,0.266702,0.266426,13.1007,16,0.017762,10,0.00349038,-1.8827,0.0416191,1.41762,708.838,0.2664263,
2,1,0,1,0,30751.4,0.262707,0.262486,10.4139,16,0.0178087,10,0.0027335,-1.98239,0.0354111,1.66615,649.662,0.262486,
2,1,0,1,0,30751.4,0.258712,0.258474,7.95577,16,0.0178451,10,0.00205636,-2.09932,0.0282016,2.09208,597.665,0.258474,
2,1,0,1,0,30751.4,0.254717,0.254448,5.66938,16,0.0178721,10,0.00144256,-2.24646,0.0197655,2.98499,549.5,0.254448,
2,1,0,1,0,30751.4,0.250722,0.250458,3.55683,16,0.0178903,10,0.000890837,-2.44894,0.0100751,5.85604,509.652,0.250458,
2,1,0,1,0,30751.4,0.246726,0.246466,1.61114,16,0.0179004,10,0.000397092,-2.79287,0.0332071,1.77673,472.036,0.246466,
2,1,0,1,0,30751.4,0.242731,0.242462,-0.204834,16,0.017903,10,-4.96645e-05,-3.6886,1.05079,0.0561483,436.667,0.242462,
2,0,0,1,0,30751.4,0.238736,0.238471,-1.8724,16,0.0178986,10,-0.000446514,-2.7276,-0.0330935,-1.78283,407.143,0.238471,
2,0,0,1,0,30751.4,0.234741,0.234448,-3.43422,16,0.0178878,10,-0.000805144,-2.46417,-0.0107821,-5.47203,381.255,0.234448,
2,0,0,1,0,30751.4,0.230746,0.230442,-4.91285,16,0.017871,10,-0.00113213,-2.30867,-0.0263342,-2.24043,357.514,0.230442,
2,0,0,1,0,30751.4,0.226701,0.226397,-6.32975,16,0.0178484,10,-0.00143304,-2.19861,-0.0392376,-1.50366,334.538,0.226397,
2,0,0,1,0,30751.4,0.222705,0.222447,-7.60114,16,0.0178204,10,-0.00169085,-2.11912,-0.0524768,-1.12431,312.784,0.222447,
2,0,0,1,0,30751.4,0.21871,0.218422,-8.7955,16,0.0177874,10,-0.00192113,-2.05574,-0.0663637,-0.88904,293.367,0.218422,
2,0,0,1,0,30751.4,0.214715,0.214411,-9.92715,16,0.0177498,10,-0.00212849,-2.00318,-0.0803221,-0.734542,276.565,0.214411,
2,0,0,1,0,30751.5,0.21072,0.210442,-11.0104,16,0.0177079,10,-0.00231705,-1.9582,-0.0943087,-0.625605,262.688,0.210442,
2,0,0,1,0,30751.5,0.206725,0.206426,-12.0319,16,0.0176617,10,-0.0024837,-1.91967,-0.109097,-0.540802,249.205,0.206426,
2,0,0,1,0,30751.5,0.202729,0.202434,-12.9953,16,0.0176115,10,-0.00263069,-1.88621,-0.125139,-0.471474,235.655,0.202434,
2,0,0,1,0,30751.5,0.198734,0.198423,-13.9114,16,0.0175576,10,-0.00276035,-1.85663,-0.140157,-0.420956,226.026,0.198423,
2,0,0,1,0,30751.5,0.194739,0.194405,-14.7897,16,0.0175001,10,-0.00287519,-1.83004,-0.155466,-0.379503,217.187,0.194405,
2,0,0,1,0,30751.5,0.190744,0.190455,-15.6419,16,0.0174391,10,-0.00297908,-1.80571,-0.170096,-0.346862,210.298,0.190455,
2,0,0,1,0,30751.5,0.186735,0.186436,-16.4699,16,0.0173748,10,-0.00307058,-1.78331,-0.186007,-0.317192,202.49,0.186436,
2,0,0,1,0,30751.5,0.182704,0.182403,-17.2805,16,0.0173072,10,-0.00315201,-1.76244,-0.202475,-0.291394,195.185,0.182403,
2,0,0,1,0,30751.5,0.178709,0.17839,-18.0325,16,0.0172365,10,-0.00321681,-1.74395,-0.218073,-0.270551,189.496,0.17839,
2,0,0,1,0,30751.5,0.174713,0.174376,-18.7803,16,0.0171628,10,-0.00327482,-1.7263,-0.231629,-0.254718,186.189,0.174376,
2,0,0,1,0,30751.5,0.170718,0.170396,-19.5094,16,0.0170862,10,-0.00332432,-1.70976,-0.242426,-0.243373,184.913,0.170396,
2,0,0,1,0,30751.5,0.166723,0.166412,-20.2578,16,0.0170066,10,-0.00337114,-1.69341,-0.252891,-0.233302,184.046,0.166412,
2,0,0,1,0,30751.5,0.162728,0.162458,-20.9786,16,0.016924,10,-0.00340813,-1.67822,-0.259283,-0.22755,186.153,0.162458,
2,0,0,1,0,30751.5,0.158733,0.158413,-21.7181,16,0.0168386,10,-0.00344043,-1.66318,-0.265562,-0.22217,188.393,0.158413,
2,0,0,1,0,30751.5,0.154737,0.154413,-22.4846,16,0.0167501,10,-0.00347192,-1.64812,-0.265849,-0.221931,194.897,0.154413,
2,0,0,1,0,30751.5,0.150742,0.150438,-23.2672,16,0.0166585,10,-0.00350027,-1.63326,-0.261459,-0.225657,205.427,0.150438,
2,0,0,1,0,30751.5,0.146747,0.146453,-24.0979,16,0.0165637,10,-0.0035292,-1.61802,-0.259611,-0.227263,214.252,0.146453,
2,0,0,1,0,30751.5,0.142702,0.142379,-25.012,16,0.0164654,10,-0.00356118,-1.60185,-0.255174,-0.231215,225.925,0.142379,
2,0,0,1,0,30751.5,0.138707,0.13843,-25.9091,16,0.0163635,10,-0.00358659,-1.58655,-0.247576,-0.23831,241.648,0.13843,
2,0,0,1,0,30751.5,0.134712,0.134382,-26.8946,16,0.0162578,10,-0.00361416,-1.57034,-0.2426,-0.243198,256.326,0.134382,
2,0,0,1,0,30751.5,0.130717,0.130461,-27.9623,16,0.016148,10,-0.00364799,-1.55343,-0.233111,-0.253098,277.238,0.130461,
2,0,0,1,0,30751.5,0.126721,0.126413,-29.1044,16,0.0160338,10,-0.00367918,-1.53604,-0.226133,-0.260908,297.359,0.1264134,
2,0,0,1,0,30751.5,0.122726,0.12244,-30.3421,16,0.0159148,10,-0.00371508,-1.51795,-0.221996,-0.265771,315.622,0.12244,
2,0,0,1,0,30751.5,0.118731,0.118423,-31.6401,16,0.0157907,10,-0.00374693,-1.49976,-0.21715,-0.271702,336.362,0.118423,
2,0,0,1,0,30751.5,0.114736,0.11438,-33.0378,16,0.0156612,10,-0.00377886,-1.48099,-0.216193,-0.272904,352.321,0.1143799,
2,0,0,1,0,30751.6,0.110741,0.1104,-34.4906,16,0.0155261,10,-0.00380777,-1.4623,-0.215353,-0.273969,368.958,0.1104002,
2,0,0,1,0,30751.6,0.106745,0.106444,-35.9779,16,0.015385,10,-0.00382962,-1.44396,-0.22006,-0.268109,376.155,0.106444,
2,0,0,1,0,30751.6,0.102703,0.102425,-37.5429,16,0.0152378,10,-0.00384532,-1.42547,-0.227126,-0.259767,379.498,0.102425,
2,0,0,1,0,30751.6,0.0987052,0.0984568,-39.0274,16,0.0150846,10,-0.00384251,-1.40863,-0.236168,-0.249823,379.614,0.09845683,
2,0,0,1,0,30751.6,0.09471,0.0944612,-40.5394,16,0.0149253,10,-0.0038294,-1.39212,-0.249075,-0.236877,373.967,0.0944612,
2,0,0,1,0,30751.6,0.0907148,0.0904455,-42.0511,16,0.01476,10,-0.00380333,-1.37622,-0.260938,-0.226107,369.859,0.0904455,
2,0,0,1,0,30751.6,0.0867197,0.0864711,-43.5091,16,0.0145887,10,-0.00376228,-1.36142,-0.276984,-0.213009,360.464,0.0864711,
2,0,0,1,0,30751.6,0.0827245,0.0824723,-44.9394,16,0.0144116,10,-0.00370625,-1.34737,-0.294945,-0.200037,349.634,0.08247228,
2,0,0,1,0,30751.6,0.0787293,0.0784501,-46.3108,16,0.014229,10,-0.00363309,-1.33432,-0.314829,-0.187404,337.626,0.0784501,
2,0,0,1,0,30751.6,0.0747341,0.0744704,-47.6365,16,0.0140409,10,-0.00354751,-1.32206,-0.340033,-0.173513,321.323,0.0744704,
2,0,0,1,0,30751.6,0.070739,0.0704367,-48.9227,16,0.0138477,10,-0.00344595,-1.31049,-0.363753,-0.162198,308.413,0.0704367,
2,0,0,1,0,30751.6,0.0667438,0.0665524,-50.0548,16,0.0136496,10,-0.00333127,-1.30055,-0.389287,-0.151559,295.536,0.0665524,
2,0,0,1,0,30751.6,0.0627403,0.0625483,-51.2152,16,0.0134469,10,-0.00320342,-1.2906,-0.424046,-0.139136,277.508,0.0625483,
2,0,0,1,0,30751.6,0.0587035,0.0584604,-52.368,16,0.0132395,10,-0.00306146,-1.28093,-0.455027,-0.129663,263.895,0.0584604,
2,0,0,1,0,30751.6,0.0547083,0.0544701,-53.3535,16,0.013028,10,-0.00290617,-1.27284,-0.499429,-0.118135,245.098,0.0544701,
2,0,0,1,0,30751.6,0.0507132,0.0504565,-54.3025,16,0.0128126,10,-0.00273991,-1.26518,-0.559536,-0.105445,222.745,0.0504565,
2,0,0,1,0,30751.6,0.046718,0.0464662,-55.1569,16,0.0125935,10,-0.00256293,-1.2584,-0.615014,-0.0959328,205.843,0.0464662,
2,0,0,1,0,30751.6,0.0427228,0.0424854,-55.9264,16,0.0123713,10,-0.00237606,-1.25238,-0.684497,-0.0861947,187.653,0.0424854,
2,0,0,1,0,30751.6,0.0387276,0.0385068,-56.6395,16,0.0121461,10,-0.002181,-1.24688,-0.75245,-0.0784105,172.983,0.0385068,
2,0,0,1,0,30751.6,0.0347325,0.0345218,-57.2927,16,0.0119181,10,-0.00197784,-1.2419,-0.820567,-0.0719015,160.516,0.0345218,
2,0,0,1,0,30751.6,0.0307373,0.0304795,-57.9223,16,0.0116876,10,-0.00176544,-1.23715,-0.900959,-0.0654858,147.761,0.0304795,
2,0,0,1,0,30751.6,0.0267421,0.0264605,-58.4986,16,0.0114547,10,-0.00154791,-1.23285,-0.977638,-0.0603495,137.531,0.0264605,
2,0,0,1,0,30751.6,0.022747,0.0224724,-59.0087,16,0.0112196,10,-0.00132607,-1.22908,-1.10246,-0.0535168,123.027,0.0224724,
2,0,0,1,0,30751.6,0.0187018,0.0184131,-59.5081,16,0.0109825,10,-0.00109573,-1.22542,-1.25811,-0.0468958,108.651,0.0184131,
2,0,0,1,0,30751.6,0.0147067,0.0144271,-59.8972,16,0.0107437,10,-0.000864139,-1.22259,-1.4352,-0.0411094,95.9017,0.0144271,
2,0,0,1,0,30751.7,0.0107115,0.0104177,-60.2417,16,0.0105033,10,-0.000627577,-1.2201,-1.68516,-0.0350114,82.2043,0.0104177,
2,0,0,1,0,30751.7,0.00671632,0.00641674,-60.5485,16,0.0102617,10,-0.000388524,-1.2179,-1.92655,-0.0306247,72.2802,0.00641674,
2,0,0,1,0,30751.7,0.00272115,0.00245082,-60.8203,16,0.0100189,10,-0.00014906,-1.21595,-2.25843,-0.0261244,61.925,0.00245082,
2,0,0,1,0,30751.7,-0.00127403,-0.00164235,-61.0587,16,0.00977509,10,0.00010028,-1.21425,-2.74939,-0.0214593,51.0502,-0.00164235,
2,0,0,1,0,30751.7,-0.0052692,-0.00563478,-61.2358,16,0.00953048,10,0.00034505,-1.21299,-3.49854,-0.0168642,40.2413,-0.005634781,
2,0,0,1,0,30751.7,-0.00926438,-0.00959646,-61.366,16,0.00928525,10,0.000588896,-1.21207,-4.92577,-0.0119778,28.6489,-0.00959646,
2,0,0,1,0,30751.7,-0.0132596,-0.01359,-61.4658,16,0.00903956,10,0.000835317,-1.21137,-6.73134,-0.00876498,21.0043,-0.01359,
2,0,0,1,0,30751.7,-0.0172547,-0.0175813,-61.5153,16,0.00879357,10,0.00108152,-1.21102,-12.7516,-0.00462689,11.0971,-0.0175813,
2,0,0,1,0,30751.7,-0.0212915,-0.02163,-61.5717,16,0.00854743,10,0.00133179,-1.21062,-461.65,-0.000127803,0.306587,-0.02163,
2,0,0,1,0,30751.7,-0.025295,-0.0256351,-61.544,16,0.00830118,10,0.00157769,-1.21081,15.0786,0.00391282,-9.3822,-0.0256351,
2,0,0,1,0,30751.7,-0.0292902,-0.0296074,-61.4707,16,0.00805515,10,0.00181999,-1.21133,6.58928,0.00895394,-21.456,-0.0296074,
2,0,0,1,0,30751.7,-0.0332854,-0.0336327,-61.3647,16,0.00780947,10,0.00206386,-1.21208,4.46745,0.0132066,-31.59,-0.0336327,
2,0,0,1,0,30751.7,-0.0372805,-0.037588,-61.2293,16,0.0075643,10,0.00230149,-1.21304,3.53165,0.0167061,-39.8694,-0.037588,
2,0,0,1,0,30751.7,-0.0412757,-0.0416494,-61.0381,16,0.00731979,10,0.0025422,-1.2144,2.98308,0.0197782,-47.0751,-0.0416494,
2,0,0,1,0,30751.7,-0.0452709,-0.0456312,-60.8318,16,0.00707605,10,0.00277583,-1.21587,2.56311,0.0230189,-54.6113,-0.0456312,
2,0,0,1,0,30751.7,-0.0492661,-0.0496289,-60.6117,16,0.00683319,10,0.00300809,-1.21744,2.35409,0.0250627,-59.2394,-0.0496289,
2,0,0,1,0,30751.7,-0.0532612,-0.0536299,-60.3533,16,0.00659128,10,0.00323674,-1.2193,2.17642,0.0271088,-63.8172,-0.05362986,
2,0,0,1,0,30751.7,-0.0572564,-0.0575915,-60.0937,16,0.0063504,10,0.00346089,-1.22117,2.15103,0.0274288,-64.3282,-0.0575915,
2,0,0,1,0,30751.7,-0.0612544,-0.0616158,-59.8117,16,0.00611062,10,0.00368535,-1.22321,2.09308,0.0281881,-65.8118,-0.06161578,
2,0,0,1,0,30751.7,-0.0652967,-0.0656771,-59.5793,16,0.00587178,10,0.003913,-1.2249,2.02174,0.0291828,-67.8196,-0.0656771,
2,0,0,1,0,30751.7,-0.0692919,-0.0696717,-59.2975,16,0.00563406,10,0.00413136,-1.22696,2.03408,0.0290057,-67.0954,-0.0696717,
2,0,0,1,0,30751.7,-0.0732871,-0.0736461,-59.0048,16,0.0053975,10,0.00434548,-1.22911,1.94224,0.0303773,-69.9696,-0.0736461,
2,0,0,1,0,30751.7,-0.0772822,-0.0776704,-58.7345,16,0.00516204,10,0.00456193,-1.23111,1.98909,0.0296618,-68.0132,-0.0776704,
2,0,0,1,0,30751.7,-0.0812774,-0.0816278,-58.4633,16,0.00492769,10,0.00477223,-1.23312,2.12507,0.0277638,-63.3827,-0.0816278,
2,0,0,1,0,30751.7,-0.0852726,-0.0856266,-58.2124,16,0.00469435,10,0.00498453,-1.23498,2.20611,0.026744,-60.7963,-0.08562658,
2,0,0,1,0,30751.8,-0.0892677,-0.0896477,-57.9906,16,0.00446197,10,0.00519872,-1.23664,2.39079,0.024678,-55.8752,-0.0896477,
2,0,0,1,0,30751.8,-0.0932629,-0.093603,-57.7659,16,0.00423049,10,0.00540706,-1.23833,2.62381,0.0224863,-50.7284,-0.093603,
2,0,0,1,0,30751.8,-0.0972581,-0.0976102,-57.5702,16,0.00399983,10,0.00561945,-1.2398,3.05778,0.019295,-43.4063,-0.0976102,
2,0,0,1,0,30751.8,-0.101253,-0.101631,-57.4005,16,0.00376991,10,0.00583369,-1.24108,3.50798,0.0168188,-37.7177,-0.1016313,
2,0,0,1,0,30751.8,-0.105298,-0.105654,-57.2958,16,0.00354054,10,0.00605356,-1.24188,4.03498,0.0146221,-32.703,-0.105654,
2,0,0,1,0,30751.8,-0.109294,-0.109641,-57.161,16,0.00331165,10,0.00626716,-1.2429,4.68832,0.0125845,-28.0806,-0.109641,
2,0,0,1,0,30751.8,-0.113289,-0.113641,-57.046,16,0.00308326,10,0.00648279,-1.24377,5.12546,0.0115112,-25.6478,-0.113641,
2,0,0,1,0,30751.8,-0.117284,-0.117649,-56.9507,16,0.00285528,10,0.00670018,-1.2445,6.59782,0.00894235,-19.8932,-0.117649,
2,0,0,1,0,30751.8,-0.121279,-0.121618,-56.8864,16,0.00262761,10,0.0069184,-1.24499,9.20758,0.00640777,-14.2373,-0.121618,
2,0,0,1,0,30751.8,-0.125274,-0.125618,-56.8432,16,0.00240018,10,0.00714051,-1.24532,15.9267,0.00370446,-8.22408,-0.125618,
2,0,0,1,0,30751.8,-0.129269,-0.129605,-56.8187,16,0.00217287,10,0.00736398,-1.24551,38.9953,0.001513,-3.35743,-0.129605,
2,0,0,1,0,30751.8,-0.133265,-0.133602,-56.8195,16,0.00194559,10,0.00759117,-1.2455,-85.1275,-0.000693078,1.53786,-0.133602,
2,0,0,1,0,30751.8,-0.13726,-0.137605,-56.8327,16,0.00171828,10,0.00782044,-1.2454,-14.1822,-0.00416013,9.23693,-0.137605,
2,0,0,1,0,30751.8,-0.141255,-0.141608,-56.8677,16,0.00149087,10,0.0080529,-1.24513,-9.48528,-0.00622016,13.82,-0.141608,
2,0,0,1,0,30751.8,-0.145286,-0.145649,-56.9669,16,0.00126324,10,0.00829716,-1.24438,-7.20098,-0.00819333,18.2195,-0.145649,
2,0,0,1,0,30751.8,-0.149295,-0.14962,-57.0409,16,0.0010352,10,0.00853446,-1.24381,-6.18577,-0.00953802,21.2317,-0.14962,
2,0,0,1,0,30751.8,-0.15329,-0.153645,-57.125,16,0.000806861,10,0.00877699,-1.24317,-6.21014,-0.00950059,21.1849,-0.153645,
2,0,0,1,0,30751.8,-0.157286,-0.157653,-57.2084,16,0.000578197,10,0.00901905,-1.24254,-5.34952,-0.011029,24.6366,-0.157653,
2,0,0,1,0,30751.8,-0.161281,-0.161649,-57.3059,16,0.000349153,10,0.00926345,-1.2418,-4.91516,-0.0120037,26.8614,-0.161649,
2,0,0,1,0,30751.8,-0.165276,-0.165596,-57.4345,16,0.000119675,10,0.00951093,-1.24083,-4.3647,-0.0135175,30.3071,-0.165596,
2,0,0,1,0,30751.8,-0.169271,-0.16961,-57.5538,16,-0.0001103,10,0.00976169,-1.23993,-4.0952,-0.0144071,32.3661,-0.16961,
2,0,0,1,0,30751.8,-0.173266,-0.173566,-57.6907,16,-0.000340805,10,0.0100132,-1.23889,-4.1333,-0.0142743,32.1388,-0.173566,
2,0,0,1,0,30751.8,-0.177261,-0.177611,-57.8225,16,-0.000571832,10,0.0102699,-1.2379,-3.86633,-0.01526,34.4393,-0.177611,
2,0,0,1,0,30751.8,-0.181257,-0.181601,-57.9489,16,-0.000803386,10,0.0105236,-1.23696,-3.53316,-0.0166989,37.795,-0.181601,
2,0,0,1,0,30751.8,-0.185252,-0.185551,-58.1028,16,-0.00103551,10,0.010781,-1.2358,-3.50038,-0.0168553,38.2375,-0.185551,
2,0,0,1,0,30751.9,-0.189297,-0.189634,-58.298,16,-0.00126838,10,0.0110553,-1.23435,-3.38698,-0.0174197,39.6106,-0.189634,
2,0,0,1,0,30751.9,-0.193292,-0.193648,-58.4357,16,-0.00150187,10,0.011316,-1.23332,-3.44427,-0.0171299,39.0352,-0.193648,
2,0,0,1,0,30751.9,-0.197287,-0.197593,-58.5823,16,-0.00173593,10,0.0115754,-1.23223,-30.6389,-0.00192566,4.38302,-0.197593,
2,0,0,0,0,30751.9,-0.199984,-0.200284,-58.6779,16,-0.00189423,10,0.0117523,-1.23153,0.066178,0.891535,-1913.09,-0.200284,
2,0,0,0,1,30751.9,-0.199984,-0.200494,-58.3456,16,-0.00192928,10,0.0116979,-1.23399,-0.0409529,-1.44068,2915.94,-0.200494,
2,0,0,1,1,30751.9,-0.196688,-0.197185,-51.6702,16,-0.00209712,10,0.0101886,-1.28676,-0.0701178,-0.841441,1613.97,-0.197185,
2,0,0,1,1,30751.9,-0.192693,-0.193167,-45.676,16,-0.00229084,10,0.00882307,-1.34031,-0.0748584,-0.788154,1429.59,-0.1931667,
2,0,0,1,1,30751.9,-0.188698,-0.189152,-40.711,16,-0.00246293,10,0.00770057,-1.39029,-0.0798124,-0.739234,1192.21,-0.189152,
2,0,0,1,1,30751.9,-0.184653,-0.1851,-36.3386,16,-0.00261646,10,0.00672629,-1.43963,-0.0811415,-0.727125,1040.69,-0.1851,
2,0,0,1,1,30751.9,-0.180657,-0.181073,-32.4615,16,-0.00275357,10,0.0058779,-1.48863,-0.0803152,-0.734605,935.4,-0.181073,
2,0,0,1,1,30751.9,-0.176662,-0.177085,-28.9394,16,-0.00287595,10,0.00512472,-1.53851,-0.0782358,-0.75413,852.624,-0.177085,
2,0,0,1,1,30751.9,-0.172667,-0.173095,-25.6916,16,-0.00298482,10,0.0044471,-1.59021,-0.074694,-0.789889,790.149,-0.173095,
2,0,0,1,1,30751.9,-0.168672,-0.169071,-22.6718,16,-0.0030812,10,0.00383315,-1.64451,-0.0703671,-0.83846,737.316,-0.169071,
2,0,0,1,1,30751.9,-0.164677,-0.165092,-19.8347,16,-0.00316587,10,0.00327455,-1.70258,-0.0652708,-0.903926,692.824,-0.165092,
2,0,0,1,1,30751.9,-0.160682,-0.161094,-17.149,16,-0.00323952,10,0.0027626,-1.76576,-0.0593625,-0.993893,655.918,-0.161094,
2,0,0,1,1,30751.9,-0.156686,-0.157117,-14.6215,16,-0.00330278,10,0.00229729,-1.83501,-0.0530163,-1.11286,621.511,-0.1571171,
2,0,0,1,1,30751.9,-0.152691,-0.153134,-12.2186,16,-0.00335619,10,0.00187108,-1.91298,-0.0458642,-1.28641,592.315,-0.153134,
2,0,0,1,1,30751.9,-0.148696,-0.149142,-9.92114,16,-0.00340022,10,0.00147966,-2.00344,-0.0383361,-1.53902,563.878,-0.149142,
2,0,0,1,1,30751.9,-0.14467,-0.145134,-7.69616,16,-0.00343525,10,0.00111698,-2.11373,-0.0300067,-1.96622,538.747,-0.145134,
2,0,0,1,1,30751.9,-0.140656,-0.141088,-5.58305,16,-0.00346154,10,0.000787701,-2.25313,-0.0204187,-2.88951,517.186,-0.141088,
2,0,0,1,1,30751.9,-0.136661,-0.137062,-3.55948,16,-0.0034796,10,0.000487868,-2.44861,-0.0106768,-5.52601,494.84,-0.137062,
2,0,0,1,1,30751.9,-0.132665,-0.133102,-1.62562,16,-0.00348974,10,0.000216374,-2.78898,-0.036742,-1.60579,478.11,-0.133102,
2,0,0,1,1,30751.9,-0.12867,-0.129093,0.241978,16,-0.00349229,10,-3.12376e-05,-3.61622,0.537989,0.109668,462.079,-0.129093,
2,1,0,1,1,30751.9,-0.124675,-0.125118,2.05223,16,-0.00348751,10,-0.000256772,-2.68777,0.0300602,1.96273,447.747,-0.125118,
2,1,0,1,1,30751.9,-0.12068,-0.121111,3.81097,16,-0.00347559,10,-0.00046155,-2.41897,0.0108507,5.43745,433.421,-0.121111,
2,1,0,1,1,30751.9,-0.116685,-0.11715,5.5167,16,-0.00345676,10,-0.000646283,-2.25832,0.0253568,2.32679,419.304,-0.11715,
2,1,0,1,1,30752,-0.112689,-0.113129,7.16084,16,-0.00343125,10,-0.000810101,-2.14504,0.0368188,1.60244,408.648,-0.113129,
2,1,0,1,1,30752,-0.108694,-0.109154,8.74618,16,-0.00339927,10,-0.000954679,-2.05818,0.0478817,1.2322,399.239,-0.109154,
2,1,0,1,1,30752,-0.104699,-0.105179,10.3214,16,-0.00336097,10,-0.00108559,-1.98626,0.0588851,1.00195,388.981,-0.105179,
2,1,0,1,1,30752,-0.100654,-0.10117,11.8967,16,-0.00331631,10,-0.00120359,-1.92457,0.0701353,0.841231,378.152,-0.10117,
2,1,0,1,1,30752,-0.0966588,-0.0971468,13.3777,16,-0.0032656,10,-0.0012996,-1.87362,0.0817845,0.721408,367.328,-0.0971468,
2,1,0,1,1,30752,-0.0926637,-0.0930865,14.8221,16,-0.00320906,10,-0.00137973,-1.82909,0.0941997,0.626329,355.957,-0.0930865,
2,1,0,1,1,30752,-0.0886685,-0.0891355,16.2148,16,-0.00314684,10,-0.00144531,-1.79009,0.106083,0.556168,347.296,-0.0891355,
2,1,0,1,1,30752,-0.0846733,-0.0851494,17.5993,16,-0.00307905,10,-0.00149857,-1.7545,0.118151,0.499359,338.928,-0.0851494,
2,1,0,1,1,30752,-0.0806781,-0.0811156,18.9453,16,-0.00300583,10,-0.00153676,-1.7225,0.130437,0.452324,330.818,-0.0811156,
2,1,0,1,1,30752,-0.076683,-0.0770967,20.2415,16,-0.0029273,10,-0.00156055,-1.69376,0.144124,0.40937,320.478,-0.0770967,
2,1,0,1,1,30752,-0.0726878,-0.0731127,21.5154,16,-0.00284365,10,-0.00157305,-1.66725,0.157401,0.374839,312.285,-0.0731127,
2,1,0,1,1,30752,-0.0686926,-0.0691129,22.7387,16,-0.00275502,10,-0.00157153,-1.64323,0.169319,0.348454,307.614,-0.0691129,
2,1,0,1,1,30752,-0.0646974,-0.0651077,23.9443,16,-0.00266152,10,-0.00155896,-1.6208,0.183803,0.320996,298.528,-0.0651077,
2,1,0,1,1,30752,-0.0606523,-0.0610474,25.1785,16,-0.00256318,10,-0.00153708,-1.59897,0.198137,0.297774,290.564,-0.0610474,
2,1,0,1,1,30752,-0.0566571,-0.0570698,26.3046,16,-0.0024601,10,-0.0015012,-1.57997,0.212547,0.277586,283.288,-0.0570698,
2,1,0,1,1,30752,-0.052662,-0.0530265,27.4128,16,-0.00235255,10,-0.0014536,-1.56205,0.230133,0.256374,273.155,-0.05302649,
2,1,0,1,1,30752,-0.0486668,-0.0490733,28.4867,16,-0.00224065,10,-0.00139793,-1.54536,0.245001,0.240816,266.777,-0.04907329,
2,1,0,1,1,30752,-0.0446716,-0.0450851,29.5386,16,-0.00212447,10,-0.00133175,-1.52961,0.260551,0.226443,260.165,-0.0450851,
2,1,0,1,1,30752,-0.0406764,-0.0410672,30.5737,16,-0.00200414,10,-0.00125558,-1.51465,0.276957,0.213029,253.302,-0.0410672,
2,1,0,1,1,30752,-0.0366813,-0.0370737,31.5632,16,-0.00187976,10,-0.00117016,-1.50082,0.296135,0.199233,244.605,-0.0370737,
2,1,0,1,1,30752,-0.0326861,-0.0330792,32.538,16,-0.00175146,10,-0.00107633,-1.48761,0.31469,0.187486,237.302,-0.0330792,
2,1,0,1,1,30752,-0.0286909,-0.0290539,33.4599,16,-0.00161937,10,-0.000972141,-1.47547,0.330228,0.178664,232.793,-0.0290539,
2,1,0,1,1,30752,-0.0246957,-0.0250975,34.3634,16,-0.00148363,10,-0.000862435,-1.4639,0.352597,0.16733,224.029,-0.0250975,
2,1,0,1,1,30752,-0.0206756,-0.0211146,35.2783,16,-0.00134427,10,-0.000744888,-1.45249,0.37161,0.158769,217.963,-0.0211146,
2,1,0,1,1,30752,-0.0166554,-0.0170172,36.1364,16,-0.00120133,10,-0.000614939,-1.44206,0.394277,0.149641,210.376,-0.0170172,
2,1,0,1,1,30752.1,-0.0126603,-0.0130364,36.9512,16,-0.00105505,10,-0.000481711,-1.43237,0.422937,0.139501,200.704,-0.0130364,
2,1,0,1,1,30752.1,-0.0086651,-0.00906838,37.7355,16,-0.00090559,10,-0.0003422,-1.42325,0.444674,0.132682,194.872,-0.00906838,
2,1,0,1,1,30752.1,-0.00466992,-0.00506852,38.4988,16,-0.000753039,10,-0.000195132,-1.41455, , , ,-0.00506852,
2,1,0,1,1,30752.1,-0.000974387,-0.00144193,39.1715,16,-0.000609313,10,-5.64827e-05,-1.40703, , , ,-0.00144193,
2,1,0,0,1,30752.1,-0.000175352,-0.000592546,39.3104,16,-0.000577938,10,-2.32932e-05,-1.40549, , , ,-0.000592546,