File: Figure_codes/Fig_3-5/rawdata_trumpetplot_data/after 10th/20221101_1-115_003_TrumpetPlot_ParaChange_from10_every3_07_CV_C01_34.csv
mode,ox/red,error,control changes,counter inc.,time/s,control/V,Ewe/V,<I>/mA,cycle number,(Q-Qo)/C,I Range,P/W,log(|I|),Tafel slope mV/dec,alpha_eff,dI/d(E-IR),E-IR/V,
2,0,0,0,0,68149.5,2.44065e-05,-0.000363498,-2.66705,35,0.0000000E+000,10,9.6947e-07,-2.57397, , , ,-0.000363498,
2,0,0,1,0,68149.5,0.0013005,0.000925147,-1.38783,35,-4.03302e-05,10,-1.28395e-06,-2.85766, , , ,0.000925147,
2,0,0,1,0,68149.5,0.00279471,0.00255454,-0.488671,35,-6.2615e-05,10,-1.24833e-06,-3.31098,-0.00491374,-12.0071,507.244,0.00255454,
2,1,0,1,0,68149.5,0.00429425,0.00401317,0.101102,35,-6.65991e-05,10,4.0574e-07,-3.99524,-0.0790969,-0.74592,355.993,0.00401317,
2,1,0,1,0,68149.5,0.00579379,0.00547696,0.543002,35,-5.77604e-05,10,2.974e-06,-3.2652,0.00344713,17.1157,264.357,0.00547696,
2,1,0,1,0,68149.6,0.007288,0.00698085,0.889326,35,-3.93483e-05,10,6.20825e-06,-3.05094,0.00853738,6.91079,201.579,0.00698085,
2,1,0,1,0,68149.6,0.00878882,0.00844806,1.14849,35,-1.33506e-05,10,9.70249e-06,-2.93987,0.015156,3.89285,162.691,0.00844806,
2,1,0,1,0,68149.6,0.0102896,0.0100022,1.36585,35,1.86114e-05,10,1.36614e-05,-2.8646,0.0229922,2.56608,131.476,0.0100022,
2,1,0,1,0,68149.6,0.0117838,0.0115047,1.5406,35,5.52894e-05,10,1.77241e-05,-2.81231,0.0321513,1.83508,107.701,0.0115047,
2,1,0,1,0,68149.7,0.0132834,0.012953,1.68535,35,9.60268e-05,10,2.18304e-05,-2.77331,0.0425355,1.38708,89.991,0.012953,
2,1,0,1,0,68149.7,0.0147816,0.0144387,1.80904,35,0.000140122,10,2.61202e-05,-2.74255,0.052277,1.1286,78.9124,0.0144387,
2,1,0,1,0,68149.7,0.0162811,0.0159845,1.91562,35,0.000187156,10,3.06203e-05,-2.71769,0.0650496,0.907,67.1939,0.0159845,
2,1,0,1,0,68149.7,0.0177753,0.017461,2.00806,35,0.000236484,10,3.50628e-05,-2.69722,0.0836618,0.70522,55.006,0.017461,
2,1,0,1,0,68149.8,0.0192761,0.018928,2.08903,35,0.000288064,10,3.95411e-05,-2.68006,0.0934427,0.631403,51.2413,0.018928,
2,1,0,1,0,68149.8,0.020777,0.0204633,2.16785,35,0.000341622,10,4.43613e-05,-2.66397,0.098251,0.600503,50.4479,0.0204633,
2,1,0,1,0,68149.8,0.0222712,0.0219037,2.2311,35,0.000396807,10,4.88692e-05,-2.65148,0.113397,0.520296,45.1804,0.0219037,
2,1,0,1,0,68149.8,0.0237707,0.023466,2.2954,35,0.000453835,10,5.38639e-05,-2.63914,0.136655,0.431744,38.6363,0.023466,
2,1,0,1,0,68149.9,0.0252703,0.0249355,2.35391,35,0.000512362,10,5.86959e-05,-2.62821,0.139067,0.424256,38.9562,0.02493545,
2,1,0,1,0,68149.9,0.0267645,0.0264733,2.41341,35,0.000572069,10,6.38909e-05,-2.61737,0.143946,0.409875,38.5161,0.0264733,
2,1,0,1,0,68149.9,0.0282653,0.0279543,2.46692,35,0.000633437,10,6.89611e-05,-2.60784,0.153011,0.385593,37.0874,0.0279543,
2,1,0,1,0,68149.9,0.0297648,0.0294883,2.51725,35,0.000696134,10,7.42295e-05,-2.59907,0.187249,0.315088,30.9403,0.02948831,
2,1,0,1,0,68150,0.031259,0.0309283,2.56659,35,0.000759822,10,7.93805e-05,-2.59064,0.186301,0.316691,31.6783,0.0309283,
2,1,0,1,0,68150,0.0327585,0.0324218,2.61624,35,0.000824964,10,8.48233e-05,-2.58232,0.184488,0.319804,32.6322,0.0324218,
2,1,0,1,0,68150,0.034258,0.0339555,2.66356,35,0.000891355,10,9.04426e-05,-2.57454,0.175963,0.335298,34.8715,0.0339555,
2,1,0,1,0,68150,0.0357576,0.0354474,2.70821,35,0.000958969,10,9.59988e-05,-2.56732,0.205942,0.286488,30.3184,0.0354474,
2,1,0,1,0,68150.1,0.0372518,0.0368872,2.76184,35,0.00102754,10,0.000101876,-2.5588,0.201464,0.292856,31.5079,0.03688715,
2,1,0,1,0,68150.1,0.0387526,0.0384744,2.80639,35,0.0010975,10,0.000107974,-2.55185,0.195925,0.301135,32.9876,0.0384744,
2,1,0,1,0,68150.1,0.0402534,0.0399218,2.85178,35,0.00116864,10,0.000113848,-2.54488,0.201646,0.292592,32.5837,0.03992179,
2,1,0,1,0,68150.1,0.0417476,0.0413923,2.90035,35,0.00124076,10,0.000120052,-2.53755,0.217307,0.271505,30.7362,0.0413923,
2,1,0,1,0,68150.2,0.0432472,0.0429745,2.95233,35,0.00131425,10,0.000126875,-2.52983,0.251098,0.234968,26.9942,0.0429745,
2,1,0,1,0,68150.2,0.0447467,0.0444282,2.99508,35,0.00138888,10,0.000133066,-2.52359,0.218479,0.270048,31.504,0.0444282,
2,1,0,1,0,68150.2,0.0462463,0.0459189,3.03673,35,0.00146464,10,0.000139443,-2.51759,0.207247,0.284685,33.7327,0.0459189,
2,1,0,1,0,68150.2,0.0477391,0.0474234,3.07691,35,0.00154121,10,0.000145917,-2.51189,0.241175,0.244635,29.4695,0.0474234,
2,1,0,1,0,68150.3,0.0492399,0.0489275,3.12791,35,0.00161922,10,0.000153041,-2.50475,0.253375,0.232856,28.3833,0.0489275,
2,1,0,1,0,68150.3,0.0507408,0.0504482,3.16896,35,0.00169832,10,0.000159869,-2.49908,0.239923,0.245912,30.3878,0.05044819,
2,1,0,1,0,68150.3,0.052235,0.0518963,3.20862,35,0.00177816,10,0.000166515,-2.49368,0.236208,0.24978,31.3388,0.0518963,
2,1,0,1,0,68150.3,0.0537345,0.0534168,3.25967,35,0.00185944,10,0.000174121,-2.48683,0.257428,0.22919,29.1716,0.0534168,
2,1,0,1,0,68150.4,0.0552341,0.0549061,3.30346,35,0.00194191,10,0.00018138,-2.48103,0.283147,0.208372,26.8255,0.0549061,
2,1,0,1,0,68150.4,0.0567283,0.0564012,3.34718,35,0.0020251,10,0.000188785,-2.47532,0.275833,0.213897,27.9002,0.0564012,
2,1,0,1,0,68150.4,0.0582291,0.0579231,3.38534,35,0.00210959,10,0.000196089,-2.4704,0.260657,0.226352,29.9324,0.0579231,
2,1,0,1,0,68150.4,0.0597299,0.0594006,3.42942,35,0.00219514,10,0.000203709,-2.46478,0.284424,0.207437,27.7571,0.0594006,
2,1,0,1,0,68150.5,0.0612228,0.0608766,3.47218,35,0.00228143,10,0.000211374,-2.4594,0.313505,0.188195,25.4329,0.0608766,
2,1,0,1,0,68150.5,0.0627223,0.0624178,3.51212,35,0.00236909,10,0.000219219,-2.45443,0.291587,0.202341,27.6713,0.0624178,
2,1,0,1,0,68150.5,0.0642218,0.0639365,3.54352,35,0.00245764,10,0.00022656,-2.45056,0.287541,0.205188,28.4375,0.0639365,
2,1,0,1,0,68150.5,0.0657214,0.0654166,3.58556,35,0.00254723,10,0.000234555,-2.44544,0.313737,0.188056,26.3563,0.0654166,
2,1,0,1,0,68150.6,0.0672156,0.0668779,3.62856,35,0.0026375,10,0.000242671,-2.44027,0.360941,0.163462,23.1214,0.0668779,
2,1,0,1,0,68150.6,0.0687164,0.0683908,3.6675,35,0.00272911,10,0.000250823,-2.43563,0.331796,0.17782,25.4027,0.0683908,
2,1,0,1,0,68150.6,0.0702172,0.0699037,3.69889,35,0.00282158,10,0.000258566,-2.43193,0.329569,0.179022,25.8764,0.0699037,
2,1,0,1,0,68150.6,0.0717114,0.0713857,3.73487,35,0.00291459,10,0.000266617,-2.42772,0.381571,0.154624,22.5369,0.0713857,
2,1,0,1,0,68150.7,0.073211,0.0729156,3.77365,35,0.00300888,10,0.000275158,-2.42324,0.398857,0.147923,21.7635,0.0729156,
2,1,0,1,0,68150.7,0.0747105,0.0744108,3.80761,35,0.003104,10,0.000283327,-2.41935,0.418778,0.140886,20.9079,0.0744108,
2,1,0,1,0,68150.7,0.0762101,0.0759179,3.83138,35,0.00319993,10,0.00029087,-2.41665,0.401759,0.146854,21.9831,0.0759179,
2,1,0,1,0,68150.7,0.0777042,0.0773616,3.86461,35,0.00329621,10,0.000298972,-2.41289,0.448639,0.131509,19.8549,0.0773616,
2,1,0,1,0,68150.8,0.0792037,0.0788614,3.90088,35,0.00339367,10,0.000307629,-2.40884,0.48551,0.121522,18.4808,0.0788614,
2,1,0,1,0,68150.8,0.0807046,0.0803917,3.93134,35,0.00349191,10,0.000316047,-2.40546,0.506139,0.116569,17.8382,0.0803917,
2,1,0,1,0,68150.8,0.0821988,0.0818714,3.95482,35,0.00359048,10,0.000323786,-2.40287,0.455704,0.12947,19.9831,0.0818714,
2,1,0,1,0,68150.8,0.0836983,0.0833638,3.97732,35,0.00369003,10,0.000331564,-2.40041,0.530206,0.111277,17.3014,0.0833638,
2,1,0,1,0,68150.9,0.0851978,0.0848779,4.01215,35,0.00379034,10,0.000340542,-2.39662,0.549312,0.107407,16.8012,0.0848779,
2,1,0,1,0,68150.9,0.0866921,0.0863256,4.04173,35,0.00389093,10,0.000348905,-2.39343,0.538943,0.109474,17.239,0.0863256,
2,1,0,1,0,68150.9,0.0881929,0.0878518,4.06671,35,0.0039926,10,0.000357267,-2.39076,0.482716,0.122225,19.3726,0.0878518,
2,1,0,1,0,68150.9,0.0896937,0.0894137,4.08816,35,0.00409488,10,0.000365537,-2.38847,0.500897,0.117789,18.8244,0.0894137,
2,1,0,1,0,68151,0.0911879,0.0908452,4.12141,35,0.00419747,10,0.000374411,-2.38495,0.482009,0.122404,19.672,0.0908452,
2,1,0,1,0,68151,0.0926861,0.0923792,4.15726,35,0.00430128,10,0.000384044,-2.38119,0.423156,0.139428,22.5863,0.09237919,
2,1,0,1,0,68151,0.0941856,0.0938564,4.18385,35,0.00440588,10,0.000392681,-2.37842,0.433909,0.135973,22.1906,0.0938564,
2,1,0,1,0,68151,0.0956852,0.0953584,4.2071,35,0.00451123,10,0.000401182,-2.37602,0.427042,0.13816,22.7614,0.0953584,
2,1,0,1,0,68151.1,0.0971794,0.0968713,4.25068,35,0.00461701,10,0.000411769,-2.37154,0.397912,0.148274,24.6049,0.0968713,
2,1,0,1,0,68151.1,0.0986802,0.0983373,4.2949,35,0.00472422,10,0.000422349,-2.36705,0.345562,0.170736,28.6085,0.0983373,
2,1,0,1,0,68151.1,0.100181,0.0998833,4.33863,35,0.0048325,10,0.000433357,-2.36265,0.317201,0.186002,31.4984,0.09988334,
2,1,0,1,0,68151.1,0.101675,0.101352,4.37567,35,0.00494147,10,0.00044348,-2.35896,0.303559,0.194361,33.2783,0.101352,
2,1,0,1,0,68151.2,0.103175,0.102859,4.43451,35,0.00505209,10,0.000456127,-2.35315,0.2893,0.203941,35.3632,0.102859,
2,1,0,1,0,68151.2,0.104674,0.104343,4.50026,35,0.00516413,10,0.000469571,-2.34676,0.258511,0.22823,40.0424,0.104343,
2,1,0,1,0,68151.2,0.106169,0.105853,4.5581,35,0.00527727,10,0.00048249,-2.34122,0.247084,0.238785,42.4537,0.105853,
2,1,0,1,0,68151.2,0.107668,0.107342,4.61559,35,0.00539241,10,0.000495446,-2.33577,0.246544,0.239308,43.1851,0.107342,
2,1,0,1,0,68151.3,0.109169,0.108868,4.68357,35,0.0055091,10,0.000509892,-2.32942,0.249393,0.236574,43.3169,0.1088682,
2,1,0,1,0,68151.3,0.110663,0.110325,4.75921,35,0.00562707,10,0.000525058,-2.32247,0.226255,0.260768,48.3916,0.110325,
2,1,0,1,0,68151.3,0.112163,0.111808,4.82995,35,0.00574728,10,0.000540027,-2.31606,0.236027,0.249972,47.076,0.111808,
2,1,0,1,0,68151.3,0.113662,0.113387,4.89373,35,0.00586928,10,0.000554885,-2.31036,0.246837,0.239024,45.6723,0.113387,
2,1,0,1,0,68151.4,0.115162,0.11483,4.96523,35,0.00599294,10,0.000570156,-2.30406,0.253017,0.233186,45.1997,0.11483,
2,1,0,1,0,68151.4,0.116656,0.116332,5.04189,35,0.00611785,10,0.000586535,-2.29741,0.241218,0.244592,48.0437,0.116332,
2,1,0,1,0,68151.4,0.118157,0.11785,5.10842,35,0.00624508,10,0.000602025,-2.29171,0.255015,0.231359,46.0636,0.11785,
2,1,0,1,0,68151.4,0.119657,0.119316,5.17442,35,0.00637404,10,0.000617393,-2.28614,0.286439,0.205977,41.5515,0.119316,
2,1,0,1,0,68151.5,0.121152,0.120855,5.23167,35,0.00650398,10,0.000632275,-2.28136,0.328114,0.179816,36.6958,0.120855,
2,1,0,1,0,68151.5,0.122651,0.122347,5.29034,35,0.00663588,10,0.000647256,-2.27652,0.342149,0.17244,35.5454,0.122347,
2,1,0,1,0,68151.5,0.124151,0.123799,5.34107,35,0.00676916,10,0.00066122,-2.27237,0.346437,0.170305,35.4625,0.123799,
2,1,0,1,0,68151.5,0.125649,0.125358,5.38298,35,0.00690369,10,0.000674799,-2.26898,0.404043,0.146024,30.6968,0.125358,
2,1,0,1,0,68151.6,0.127143,0.126828,5.42469,35,0.00703878,10,0.000688002,-2.26563,0.50625,0.116543,24.6765,0.126828,
2,1,0,1,0,68151.6,0.128644,0.128355,5.47117,35,0.00717535,10,0.000702252,-2.26192,0.548475,0.107571,22.9357,0.128355,
2,1,0,1,0,68151.6,0.130145,0.1298,5.50153,35,0.00731285,10,0.000714098,-2.25952,0.577128,0.10223,21.9238,0.1298,
2,1,0,1,0,68151.6,0.131639,0.131342,5.52562,35,0.00745063,10,0.000725744,-2.25762,0.706056,0.0835628,18.0188,0.131342,
2,1,0,1,0,68151.7,0.133139,0.13282,5.55604,35,0.00758966,10,0.000737954,-2.25523,0.820868,0.0718752,15.5842,0.13282,
2,1,0,1,0,68151.7,0.134638,0.13431,5.58227,35,0.00772921,10,0.000749754,-2.25319,1.09688,0.053789,11.7011,0.1343099,
2,1,0,1,0,68151.7,0.136132,0.135783,5.60088,35,0.00786876,10,0.000760504,-2.25174,1.00127,0.0589249,12.8661,0.135783,
2,1,0,1,0,68151.7,0.137633,0.137267,5.60916,35,0.0080093,10,0.000769954,-2.2511,1.57491,0.0374625,8.19859,0.137267,
2,1,0,1,0,68151.8,0.139133,0.138847,5.6214,35,0.00815014,10,0.000780514,-2.25016,3.87918,0.0152094,3.33351,0.138847,
2,1,0,1,0,68151.8,0.140627,0.140349,5.62436,35,0.00829049,10,0.000789377,-2.24993,-2.82828,-0.0208607,-4.56974,0.140349,
2,1,0,1,0,68151.8,0.142126,0.141785,5.61712,35,0.0084314,10,0.000796426,-2.25049,-2.24915,-0.0262322,-5.7366,0.141785,
2,1,0,1,0,68151.8,0.143626,0.143288,5.59674,35,0.00857201,10,0.000801944,-2.25206,-0.813233,-0.07255,-15.8237,0.143288,
2,1,0,1,0,68151.9,0.145125,0.1448,5.56323,35,0.00871202,10,0.000805558,-2.25467,-0.439822,-0.134145,-29.0941,0.1448,
2,1,0,1,0,68151.9,0.14662,0.146309,5.5234,35,0.00885049,10,0.000808126,-2.25779,-0.345072,-0.170979,-36.7452,0.146309,
2,1,0,1,0,68151.9,0.14812,0.147811,5.46152,35,0.00898811,10,0.000807274,-2.26269,-0.270738,-0.217923,-46.2811,0.147811,
2,1,0,1,0,68151.9,0.149621,0.149269,5.37781,35,0.00912401,10,0.000802742,-2.26939,-0.217009,-0.271878,-56.8997,0.149269,
2,1,0,1,0,68152,0.151115,0.150815,5.28441,35,0.00925718,10,0.000796967,-2.277,-0.168688,-0.349758,-71.9082,0.150815,
2,1,0,1,0,68152,0.152615,0.152329,5.17416,35,0.00938833,10,0.000788174,-2.28616,-0.149749,-0.393992,-79.2459,0.152329,
2,1,0,1,0,68152,0.154115,0.153816,5.04476,35,0.0095164,10,0.000775966,-2.29716,-0.131895,-0.447325,-87.9031,0.153816,
2,1,0,1,0,68152,0.155614,0.155286,4.90193,35,0.00964117,10,0.0007612,-2.30963,-0.120843,-0.488237,-93.314,0.155286,
2,1,0,1,0,68152.1,0.157107,0.156791,4.75387,35,0.0097619,10,0.000745364,-2.32295,-0.107599,-0.548334,-101.629,0.156791,
2,1,0,1,0,68152.1,0.158608,0.158271,4.60658,35,0.00987934,10,0.000729088,-2.33662,-0.10276,-0.574151,-103.046,0.158271,
2,1,0,1,0,68152.1,0.160109,0.159811,4.44984,35,0.00999282,10,0.000711134,-2.35166,-0.101268,-0.582612,-101.118,0.159811,
2,1,0,1,0,68152.1,0.161603,0.161307,4.29587,35,0.0101021,10,0.000692953,-2.36695,-0.101189,-0.583068,-97.7982,0.161307,
2,1,0,1,0,68152.2,0.163102,0.162777,4.14867,35,0.010208,10,0.000675307,-2.38209,-0.0974885,-0.6052,-98.1414,0.162777,
2,1,0,1,0,68152.2,0.164602,0.164328,4.01438,35,0.0103105,10,0.000659676,-2.39638,-0.101765,-0.579765,-90.7694,0.164328,
2,1,0,1,0,68152.2,0.166096,0.165748,3.88075,35,0.0104091,10,0.000643225,-2.41108,-0.107932,-0.54664,-82.9251,0.165748,
2,1,0,1,0,68152.2,0.167597,0.167298,3.76138,35,0.0105049,10,0.000629271,-2.42465,-0.112602,-0.523967,-77.0193,0.167298,
2,1,0,1,0,68152.3,0.169098,0.168755,3.64996,35,0.0105979,10,0.000615949,-2.43771,-0.114821,-0.513844,-73.2981,0.168755,
2,1,0,1,0,68152.3,0.170592,0.170271,3.55005,35,0.0106878,10,0.000604473,-2.44977,-0.117843,-0.500667,-69.3488,0.170271,
2,1,0,1,0,68152.3,0.17209,0.171766,3.44779,35,0.0107756,10,0.000592214,-2.46246,-0.134716,-0.437959,-59.0321,0.171766,
2,1,0,1,0,68152.3,0.17359,0.173232,3.36253,35,0.0108611,10,0.000582499,-2.47333,-0.138829,-0.424982,-55.8837,0.173232,
2,1,0,1,0,68152.4,0.175089,0.174775,3.28248,35,0.0109445,10,0.000573697,-2.4838,-0.147034,-0.401268,-51.4866,0.174775,
2,1,0,1,0,68152.4,0.176583,0.17623,3.20935,35,0.0110257,10,0.000565584,-2.49358,-0.16078,-0.366962,-45.9759,0.17623,
2,1,0,1,0,68152.4,0.178084,0.177773,3.14309,35,0.0111055,10,0.000558758,-2.50264,-0.174439,-0.338226,-41.5055,0.177773,
2,1,0,1,0,68152.4,0.179585,0.179279,3.07919,35,0.0111836,10,0.000552034,-2.51156,-0.18407,-0.32053,-38.6274,0.179279,
2,1,0,1,0,68152.5,0.181079,0.180785,3.02319,35,0.01126,10,0.000546547,-2.51953,-0.197732,-0.298383,-35.2899,0.180785,
2,1,0,1,0,68152.5,0.182579,0.182322,2.98044,35,0.0113354,10,0.000543399,-2.52572,-0.208104,-0.283512,-32.9306,0.182322,
2,1,0,1,0,68152.5,0.184078,0.183782,2.93032,35,0.0114097,10,0.000538541,-2.53308,-0.22522,-0.261966,-29.9618,0.183782,
2,1,0,1,0,68152.5,0.185578,0.185295,2.88322,35,0.0114827,10,0.000534248,-2.54012,-0.24564,-0.240189,-27.1131,0.185295,
2,1,0,1,0,68152.6,0.187072,0.186752,2.84556,35,0.0115544,10,0.000531415,-2.54583,-0.25581,-0.23064,-25.6288,0.1867525,
2,1,0,1,0,68152.6,0.188573,0.188269,2.81378,35,0.0116255,10,0.000529747,-2.55071,-0.275092,-0.214474,-23.5388,0.188269,
2,1,0,1,0,68152.6,0.190072,0.189741,2.77952,35,0.0116957,10,0.000527389,-2.55603,-0.311127,-0.189633,-20.5554,0.189741,
2,1,0,1,0,68152.6,0.191567,0.191252,2.74398,35,0.0117649,10,0.000524793,-2.56162,-0.333661,-0.176826,-18.9796,0.1912525,
2,1,0,1,0,68152.7,0.193066,0.19275,2.71463,35,0.0118335,10,0.000523245,-2.56629,-0.354186,-0.166579,-17.6812,0.19275,
2,1,0,1,0,68152.7,0.194566,0.19424,2.69152,35,0.0119016,10,0.0005228,-2.57,-0.368671,-0.160034,-16.8209,0.19424,
2,1,0,1,0,68152.7,0.19606,0.195758,2.67274,35,0.0119687,10,0.000523209,-2.57304,-0.416037,-0.141814,-14.7775,0.195758,
2,1,0,1,0,68152.7,0.197561,0.197239,2.64646,35,0.0120356,10,0.000521985,-2.57734,-0.435249,-0.135554,-14.0203,0.197239,
2,1,0,1,0,68152.8,0.199062,0.198747,2.62699,35,0.0121019,10,0.000522108,-2.58054,-0.430715,-0.136981,-14.0493,0.198747,
2,1,0,1,0,68152.8,0.200556,0.20026,2.61106,35,0.0121674,10,0.000522891,-2.58318,-0.461698,-0.127789,-13.0027,0.20026,
2,1,0,1,0,68152.8,0.202055,0.201731,2.59325,35,0.0122328,10,0.000523139,-2.58616,-0.561709,-0.105037,-10.615,0.201731,
2,1,0,1,0,68152.8,0.203553,0.20319,2.57117,35,0.0122977,10,0.000522434,-2.58987,-0.75838,-0.0777974,-7.82313,0.20319,
2,1,0,1,0,68152.9,0.205053,0.204709,2.55495,35,0.0123622,10,0.00052302,-2.59262,-0.707614,-0.0833788,-8.36521,0.204709,
2,1,0,1,0,68152.9,0.206547,0.206228,2.54331,35,0.0124262,10,0.000524501,-2.5946,-0.711066,-0.082974,-8.24848,0.206228,
2,1,0,1,0,68152.9,0.208048,0.207735,2.5409,35,0.0124902,10,0.000527834,-2.59501,-0.814957,-0.0723965,-7.14853,0.207735,
2,1,0,1,0,68152.9,0.209549,0.209246,2.52278,35,0.0125539,10,0.000527882,-2.59812,-0.695335,-0.0848511,-8.36343,0.2092464,
2,1,0,1,0,68153,0.211043,0.210735,2.50734,35,0.0126168,10,0.000528384,-2.60079,-0.684103,-0.0862443,-8.45711,0.210735,
2,1,0,1,0,68153,0.212543,0.212275,2.50073,35,0.0126799,10,0.000530842,-2.60193,-0.86114,-0.0685138,-6.68253,0.212275,
2,1,0,1,0,68153,0.214042,0.213711,2.4958,35,0.0127426,10,0.000533379,-2.60279,-1.10234,-0.0535226,-5.20403,0.213711,
2,1,0,1,0,68153,0.215536,0.215239,2.48005,35,0.0128049,10,0.000533802,-2.60554,-0.811838,-0.0726746,-7.03532,0.215239,
2,1,0,1,0,68153.1,0.217036,0.216731,2.4626,35,0.0128672,10,0.000533721,-2.60861,-0.864007,-0.0682865,-6.59191,0.216731,
2,1,0,1,0,68153.1,0.218537,0.218196,2.46171,35,0.0129292,10,0.000537136,-2.60876,-1.12028,-0.0526656,-5.06443,0.218196,
2,1,0,1,0,68153.1,0.220031,0.219782,2.46307,35,0.0129909,10,0.000541337,-2.60852,-1.34931,-0.043726,-4.18992,0.219782,
2,1,0,1,0,68153.1,0.22153,0.221264,2.44992,35,0.0130526,10,0.000542078,-2.61085,-1.76089,-0.0335058,-3.20508,0.221264,
2,1,0,1,0,68153.2,0.22303,0.222708,2.43378,35,0.0131142,10,0.000542023,-2.61372,-1.04755,-0.0563217,-5.36863,0.222708,
2,1,0,1,0,68153.2,0.22453,0.224234,2.43265,35,0.0131755,10,0.000545483,-2.61392,-0.700118,-0.0842716,-8.00745,0.2242344,
2,1,0,1,0,68153.2,0.226024,0.225746,2.43076,35,0.0132364,10,0.000548735,-2.61426,-1.5621,-0.0377697,-3.57881,0.225746,
2,1,0,1,0,68153.2,0.227525,0.227201,2.41886,35,0.0132974,10,0.000549567,-2.61639,-1.82401,-0.0323463,-3.05549,0.227201,
2,1,0,1,0,68153.3,0.229025,0.228735,2.41517,35,0.0133582,10,0.000552435,-2.61705,-1.02878,-0.0573496,-5.41321,0.2287353,
2,1,0,1,0,68153.3,0.23052,0.230203,2.41016,35,0.0134187,10,0.000554827,-2.61795,-1.31274,-0.0449443,-4.22718,0.230203,
2,1,0,1,0,68153.3,0.232019,0.231678,2.40831,35,0.0134792,10,0.000557953,-2.61829,-3.13982,-0.0187909,-1.76267,0.231678,
2,1,0,1,0,68153.3,0.233519,0.233205,2.40065,35,0.0135397,10,0.000559844,-2.61967,-2.27437,-0.0259412,-2.42695,0.233205,
2,1,0,1,0,68153.4,0.235018,0.234715,2.39588,35,0.0136,10,0.000562348,-2.62054,-1.36415,-0.0432502,-4.0441,0.234715,
2,1,0,1,0,68153.4,0.236511,0.23618,2.3864,35,0.0136599,10,0.00056362,-2.62226,-1.05487,-0.0559309,-5.22229,0.23618,
2,1,0,1,0,68153.4,0.238012,0.237707,2.38676,35,0.01372,10,0.00056735,-2.62219,-2.30305,-0.0256183,-2.38122,0.237707,
2,1,0,1,0,68153.4,0.239513,0.239217,2.38618,35,0.01378,10,0.000570813,-2.6223,-4.70641,-0.0125361,-1.16582,0.239217,
2,1,0,1,0,68153.5,0.241007,0.240703,2.37471,35,0.0138396,10,0.0005716,-2.62439,-1.76383,-0.0334499,-3.10515,0.240703,
2,1,0,1,0,68153.5,0.242506,0.242162,2.37076,35,0.0138993,10,0.000574107,-2.62511,-1.31905,-0.044729,-4.14121,0.242162,
2,1,0,1,0,68153.5,0.244006,0.243693,2.37146,35,0.013959,10,0.000577908,-2.62498,-2.28458,-0.0258253,-2.38664,0.243693,
2,1,0,1,0,68153.5,0.2455,0.245205,2.36683,35,0.0140183,10,0.000580359,-2.62583,4.99669,0.0118078,1.09024,0.245205,
2,1,0,1,0,68153.6,0.247001,0.246704,2.36279,35,0.0140778,10,0.00058291,-2.62657,-1.94606,-0.0303177,-2.79609,0.246704,
2,1,0,1,0,68153.6,0.248502,0.248206,2.35827,35,0.0141373,10,0.000585337,-2.62741,-1.06955,-0.0551634,-5.07145,0.248206,
2,1,0,1,0,68153.6,0.249995,0.249658,2.36041,35,0.0141963,10,0.000589295,-2.62701,-1.24653,-0.0473313,-4.34594,0.249658,
2,1,0,1,0,68153.6,0.251494,0.251161,2.35402,35,0.0142555,10,0.000591237,-2.62819,-5.7991,-0.010174,-0.933254,0.251161,
2,1,0,1,0,68153.7,0.252994,0.252674,2.33959,35,0.0143146,10,0.000591154,-2.63086,-1.54831,-0.0381061,-3.48332,0.252674,
2,1,0,1,0,68153.7,0.254493,0.254198,2.34232,35,0.0143736,10,0.000595413,-2.63035,-1.73664,-0.0339737,-3.11035,0.2541976,
2,1,0,1,0,68153.7,0.255988,0.255726,2.33897,35,0.0144322,10,0.000598135,-2.63097,-2.94458,-0.0200368,-1.83094,0.255726,
2,1,0,1,0,68153.7,0.257488,0.257185,2.3373,35,0.0144911,10,0.000601119,-2.63129,-4.84882,-0.0121679,-1.10904,0.257185,
2,1,0,1,0,68153.8,0.258989,0.258648,2.33537,35,0.0145499,10,0.000604038,-2.63165,-4.98642,-0.0118321,-1.07746,0.258648,
2,1,0,1,0,68153.8,0.260483,0.260235,2.33421,35,0.0146083,10,0.000607445,-2.63186,-1.37691,-0.0428494,-3.8985,0.2602351,
2,1,0,1,0,68153.8,0.261983,0.261634,2.32888,35,0.0146669,10,0.000609315,-2.63285,-1.71956,-0.034311,-3.11809,0.261634,
2,1,0,1,0,68153.8,0.263482,0.26317,2.32054,35,0.0147254,10,0.000610696,-2.63441,-9.60632,-0.00614179,-0.556658,0.26317,
2,1,0,1,0,68153.9,0.264982,0.264679,2.3149,35,0.0147838,10,0.000612705,-2.63547,-8.4082,-0.00701696,-0.63649,0.264679,
2,1,0,1,0,68153.9,0.266476,0.266182,2.31606,35,0.0148419,10,0.000616494,-2.63525,-1.71686,-0.034365,-3.10876,0.266182,
2,1,0,1,0,68153.9,0.267976,0.267656,2.31659,35,0.0149002,10,0.000620049,-2.63515,-1.82898,-0.0322584,-2.91286,0.267656,
2,1,0,1,0,68153.9,0.269477,0.269175,2.31086,35,0.0149584,10,0.000622026,-2.63623,-1.86916,-0.031565,-2.84422,0.269175,
2,1,0,1,0,68154,0.270971,0.270691,2.30906,35,0.0150163,10,0.000625042,-2.63656,-6.33168,-0.00931823,-0.839192,0.270691,
2,1,0,1,0,68154,0.27247,0.272177,2.30551,35,0.0150744,10,0.000627508,-2.63723,-1.5602,-0.0378156,-3.40084,0.272177,
2,1,0,1,0,68154,0.27397,0.273649,2.30295,35,0.0151323,10,0.000630198,-2.63772,-2.02143,-0.0291873,-2.62064,0.273649,
2,1,0,1,0,68154,0.275464,0.275112,2.29742,35,0.0151899,10,0.000632049,-2.63876,-4.56489,-0.0129247,-1.15983,0.275112,
2,1,0,1,0,68154.1,0.276965,0.276687,2.28837,35,0.0152477,10,0.000633161,-2.64047,-29.5298,-0.00199798,-0.179101,0.276687,
2,1,0,1,0,68154.1,0.278466,0.278157,2.29177,35,0.0153054,10,0.000637471,-2.63983,-1.35818,-0.0434403,-3.88162,0.278157,
2,1,0,1,0,68154.1,0.27996,0.279659,2.29157,35,0.0153628,10,0.000640857,-2.63987,-1.37626,-0.0428699,-3.82557,0.279659,
2,1,0,1,0,68154.1,0.281458,0.281139,2.28818,35,0.0154203,10,0.000643297,-2.64051,-9.25741,-0.00637327,-0.568562,0.281139,
2,1,0,1,0,68154.2,0.282958,0.282655,2.27797,35,0.0154777,10,0.000643881,-2.64245,-27.5474,-0.00214176,-0.190697,0.282655,
2,1,0,1,0,68154.2,0.284457,0.284162,2.27714,35,0.0155351,10,0.000647077,-2.64261,-3.80979,-0.0154864,-1.37665,0.284162,
2,1,0,1,0,68154.2,0.285951,0.285628,2.2777,35,0.0155922,10,0.000650574,-2.6425,-1.53711,-0.0383837,-3.4064,0.285628,
2,1,0,1,0,68154.2,0.287452,0.287105,2.27126,35,0.0156493,10,0.00065209,-2.64373,-1.88797,-0.0312505,-2.76914,0.287105,
2,1,0,1,0,68154.3,0.288953,0.288668,2.26353,35,0.0157064,10,0.00065341,-2.64521,-4.42992,-0.0133185,-1.17756,0.288668,
2,1,0,1,0,68154.3,0.290447,0.290166,2.2639,35,0.0157632,10,0.000656908,-2.64514,-1.262,-0.0467511,-4.13159,0.290166,
2,1,0,1,0,68154.3,0.291947,0.291634,2.26021,35,0.0158201,10,0.000659153,-2.64585,-1.19683,-0.0492968,-4.34418,0.291634,
2,1,0,1,0,68154.3,0.293446,0.29316,2.25321,35,0.0158769,10,0.000660549,-2.6472,-2.50348,-0.0235672,-2.07395,0.29316,
2,1,0,1,0,68154.4,0.29494,0.294601,2.24847,35,0.0159334,10,0.000662402,-2.64811,-2.98641,-0.0197562,-1.73697,0.294601,
2,1,0,1,0,68154.4,0.29644,0.296124,2.2532,35,0.01599,10,0.000667226,-2.6472,-1.78504,-0.0330525,-2.90283,0.2961238,
2,1,0,1,0,68154.4,0.297941,0.297666,2.25039,35,0.0160466,10,0.000669865,-2.64774,-1.26661,-0.0465809,-4.07337,0.297666,
2,1,0,1,0,68154.4,0.29944,0.299098,2.24114,35,0.0161031,10,0.000670319,-2.64953,-0.00943881,-6.25079,-441.316,0.299098,
2,1,0,1,0,68154.5,0.299736,0.299438,1.87934,35,0.0161324,10,0.000562744,-2.726,0.00222683,26.495,1312.76,0.299438,
2,1,0,1,0,68154.5,0.298238,0.297925,0.852428,35,0.0161644,10,0.000253959,-3.06934,0.00327585,18.0106,564.079,0.297925,
2,1,0,1,0,68154.5,0.296744,0.296436,0.299511,35,0.0161777,10,8.87857e-05,-3.52359,0.00429838,13.7261,306.48,0.296436,
2,1,0,1,0,68154.5,0.295243,0.294882,-0.0442559,35,0.0161801,10,-1.30503e-05,-4.35403,0.0298603,1.97587,196.61,0.294882,
2,0,0,1,0,68154.6,0.293742,0.293422,-0.275378,35,0.0161755,10,-8.08019e-05,-3.56007,-0.00414795,-14.2239,134.574,0.293422,
2,0,0,1,0,68154.6,0.292248,0.291906,-0.439473,35,0.016166,10,-0.000128285,-3.35707,-0.00880856,-6.69803,97.116,0.291906,
2,0,0,1,0,68154.6,0.290748,0.290449,-0.565451,35,0.0161529,10,-0.000164235,-3.24761,-0.0161275,-3.65835,75.2274,0.290449,
2,0,0,1,0,68154.6,0.289249,0.288942,-0.665157,35,0.0161371,10,-0.000192192,-3.17708,-0.0241764,-2.44039,61.0888,0.288942,
2,0,0,1,0,68154.7,0.287754,0.287425,-0.745017,35,0.016119,10,-0.000214136,-3.12783,-0.0333601,-1.76858,50.3699,0.2874248,
2,0,0,1,0,68154.7,0.286254,0.285945,-0.807239,35,0.0160991,10,-0.000230826,-3.093,-0.0441598,-1.33606,41.8245,0.285945,
2,0,0,1,0,68154.7,0.284754,0.284415,-0.871754,35,0.0160776,10,-0.00024794,-3.05961,-0.0568941,-1.03701,34.8788,0.284415,
2,0,0,1,0,68154.7,0.28326,0.282934,-0.926751,35,0.0160548,10,-0.00026221,-3.03304,-0.0674746,-0.874403,31.1823,0.282934,
2,0,0,1,0,68154.8,0.28176,0.281433,-0.968295,35,0.0160308,10,-0.00027251,-3.01399,-0.0782874,-0.753633,28.1823,0.281433,
2,0,0,1,0,68154.8,0.280261,0.279955,-0.997471,35,0.0160057,10,-0.000279247,-3.0011,-0.0927151,-0.636358,24.8833,0.279955,
2,0,0,1,0,68154.8,0.278761,0.278417,-1.04216,35,0.0159797,10,-0.000290155,-2.98207,-0.108617,-0.543192,21.9989,0.278417,
2,0,0,1,0,68154.8,0.277267,0.277011,-1.07563,35,0.0159529,10,-0.000297961,-2.96834,-0.118408,-0.498277,20.8034,0.277011,
2,0,0,1,0,68154.9,0.275766,0.275456,-1.1026,35,0.0159252,10,-0.000303719,-2.95758,-0.128788,-0.458116,19.7047,0.275456,
2,0,0,1,0,68154.9,0.274265,0.273911,-1.13254,35,0.0158968,10,-0.000310215,-2.94595,-0.149594,-0.3944,17.4569,0.2739107,
2,0,0,1,0,68154.9,0.272771,0.272459,-1.16069,35,0.0158678,10,-0.000316242,-2.93528,-0.160457,-0.367699,16.6706,0.272459,
2,0,0,1,0,68154.9,0.271272,0.270968,-1.19161,35,0.015838,10,-0.000322887,-2.92387,-0.148999,-0.395975,18.3144,0.270968,
2,0,0,1,0,68155,0.269772,0.269403,-1.21728,35,0.0158075,10,-0.00032794,-2.91461,-0.150446,-0.392169,18.5284,0.269403,
2,0,0,1,0,68155,0.268273,0.267964,-1.23712,35,0.0157764,10,-0.000331505,-2.90759,-0.213295,-0.276613,13.3602,0.267964,
2,0,0,1,0,68155,0.26678,0.266457,-1.25605,35,0.015745,10,-0.000334682,-2.90099,-0.228638,-0.25805,12.6624,0.266457,
2,0,0,1,0,68155,0.265279,0.264917,-1.28145,35,0.0157129,10,-0.000339478,-2.8923,-0.213585,-0.276237,13.7674,0.264917,
2,0,0,1,0,68155.1,0.263778,0.263452,-1.29706,35,0.0156802,10,-0.000341713,-2.88704,-0.196523,-0.30022,15.2082,0.263452,
2,0,0,1,0,68155.1,0.262284,0.261963,-1.31251,35,0.0156472,10,-0.000343829,-2.8819,-0.268832,-0.219468,11.2899,0.261963,
2,0,0,1,0,68155.1,0.260784,0.260473,-1.3365,35,0.0156135,10,-0.000348121,-2.87403,-0.296993,-0.198658,10.3675,0.260473,
2,0,0,1,0,68155.1,0.259285,0.259001,-1.35641,35,0.0155795,10,-0.000351311,-2.86761,-0.260729,-0.226289,11.9476,0.259001,
2,0,0,1,0,68155.2,0.257791,0.2575,-1.37674,35,0.0155451,10,-0.00035451,-2.86115,-0.254964,-0.231405,12.3807,0.2575,
2,0,0,1,0,68155.2,0.25629,0.25598,-1.38572,35,0.0155102,10,-0.000354718,-2.85832,-0.28904,-0.204124,11.0543,0.2559804,
2,0,0,1,0,68155.2,0.254789,0.25444,-1.40482,35,0.0154748,10,-0.000357441,-2.85238,-0.381768,-0.154544,8.4724,0.25444,
2,0,0,1,0,68155.2,0.253296,0.252932,-1.42204,35,0.0154392,10,-0.000359679,-2.84709,-0.315119,-0.187231,10.3711,0.252932,
2,0,0,1,0,68155.3,0.251797,0.251472,-1.43788,35,0.0154031,10,-0.000361585,-2.84228,-0.284301,-0.207527,11.6331,0.251472,
2,0,0,1,0,68155.3,0.250297,0.249987,-1.45096,35,0.0153665,10,-0.000362721,-2.83835,-0.342629,-0.172198,9.77543,0.249987,
2,0,0,1,0,68155.3,0.248798,0.248484,-1.46673,35,0.0153295,10,-0.000364459,-2.83365,-0.456079,-0.129364,7.40207,0.248484,
2,0,0,1,0,68155.3,0.247303,0.246989,-1.48039,35,0.0152924,10,-0.000365639,-2.82962,-0.362019,-0.162975,9.41082,0.246989,
2,0,0,1,0,68155.4,0.245802,0.24551,-1.4991,35,0.0152548,10,-0.000368042,-2.82417,-0.29285,-0.201468,11.7754,0.24551,
2,0,0,1,0,68155.4,0.244302,0.244023,-1.50895,35,0.0152167,10,-0.000368218,-2.82133,-0.34342,-0.171801,10.1335,0.244023,
2,0,0,1,0,68155.4,0.242807,0.242454,-1.52698,35,0.0151784,10,-0.000370221,-2.81617,-0.478653,-0.123263,7.34947,0.242454,
2,0,0,1,0,68155.4,0.241308,0.241034,-1.53907,35,0.0151397,10,-0.000370967,-2.81274,-0.426093,-0.138467,8.31676,0.241034,
2,0,0,1,0,68155.5,0.239808,0.239488,-1.55419,35,0.0151006,10,-0.000372209,-2.8085,-0.326266,-0.180834,10.9539,0.239488,
2,0,0,1,0,68155.5,0.238309,0.238014,-1.56204,35,0.0150612,10,-0.000371787,-2.80631,-0.370459,-0.159262,9.72787,0.238014,
2,0,0,1,0,68155.5,0.236815,0.236469,-1.57768,35,0.0150216,10,-0.000373072,-2.80198,-0.464994,-0.126883,7.81951,0.236469,
2,0,0,1,0,68155.5,0.235315,0.235026,-1.58762,35,0.0149816,10,-0.000373133,-2.79925,-0.433258,-0.136178,8.4374,0.235026,
2,0,0,1,0,68155.6,0.233814,0.233435,-1.60459,35,0.0149413,10,-0.000374566,-2.79464,-0.362839,-0.162607,10.1695,0.233435,
2,0,0,1,0,68155.6,0.23232,0.23197,-1.61484,35,0.0149008,10,-0.000374595,-2.79187,-0.379493,-0.155471,9.80355,0.23197,
2,0,0,1,0,68155.6,0.230821,0.230503,-1.6288,35,0.0148598,10,-0.000375443,-2.78813,-0.534253,-0.110435,7.00495,0.230503,
2,0,0,1,0,68155.6,0.229321,0.228984,-1.64209,35,0.0148184,10,-0.000376014,-2.7846,-0.64229,-0.0918588,5.88193,0.228984,
2,0,0,1,0,68155.7,0.227827,0.227475,-1.6507,35,0.014777,10,-0.000375492,-2.78233,-0.445669,-0.132385,8.54604,0.227475,
2,0,0,1,0,68155.7,0.226326,0.226024,-1.66424,35,0.0147351,10,-0.000376158,-2.77878,-0.501938,-0.117544,7.64937,0.226024,
2,0,0,1,0,68155.7,0.224825,0.224477,-1.67953,35,0.0146929,10,-0.000377016,-2.77481,-0.696727,-0.0846816,5.52947,0.2244768,
2,0,0,1,0,68155.7,0.223331,0.223034,-1.6949,35,0.0146505,10,-0.000378021,-2.77086,-0.484446,-0.121788,8.0225,0.223034,
2,0,0,1,0,68155.8,0.221831,0.221538,-1.70508,35,0.0146077,10,-0.00037774,-2.76825,-0.406395,-0.145179,9.64425,0.221538,
2,0,0,1,0,68155.8,0.220333,0.220017,-1.70965,35,0.0145646,10,-0.000376154,-2.76709,-0.394751,-0.149461,10.0097,0.220017,
2,0,0,1,0,68155.8,0.218834,0.218511,-1.72596,35,0.0145211,10,-0.000377141,-2.76297,-0.53662,-0.109947,7.41214,0.218511,
2,0,0,1,0,68155.8,0.217339,0.217033,-1.74199,35,0.0144775,10,-0.000378069,-2.75895,-0.642933,-0.091767,6.21632,0.217033,
2,0,0,1,0,68155.9,0.215839,0.215488,-1.74763,35,0.0144336,10,-0.000376593,-2.75755,-0.44473,-0.132665,9.05079,0.215488,
2,0,0,1,0,68155.9,0.214338,0.213995,-1.75847,35,0.0143893,10,-0.000376303,-2.75487,-0.462317,-0.127618,8.76003,0.213995,
2,0,0,1,0,68155.9,0.212844,0.212506,-1.77098,35,0.0143449,10,-0.000376344,-2.75179,-0.549653,-0.107341,7.41473,0.212506,
2,0,0,1,0,68155.9,0.211344,0.210986,-1.782,35,0.0143,10,-0.000375978,-2.74909,-0.784569,-0.0752005,5.22782,0.210986,
2,0,0,1,0,68156,0.209845,0.209547,-1.79348,35,0.0142548,10,-0.00037582,-2.7463,-0.490451,-0.120297,8.41478,0.209547,
2,0,0,1,0,68156,0.20835,0.208042,-1.80621,35,0.0142095,10,-0.000375767,-2.74323,-0.375652,-0.15706,11.1236,0.208042,
2,0,0,1,0,68156,0.206851,0.206511,-1.82369,35,0.0141637,10,-0.000376613,-2.73905,-0.584766,-0.100895,7.17354,0.206511,
2,0,0,1,0,68156,0.20535,0.205011,-1.84065,35,0.0141175,10,-0.000377354,-2.73503,-0.674658,-0.0874518,6.24262,0.205011,
2,0,0,1,0,68156.1,0.203856,0.203491,-1.84598,35,0.0140713,10,-0.000375641,-2.73377,-0.548294,-0.107607,7.74415,0.203491,
2,0,0,1,0,68156.1,0.202356,0.202014,-1.85263,35,0.0140246,10,-0.000374258,-2.73221,-0.514549,-0.114663,8.3143,0.202014,
2,0,0,1,0,68156.1,0.200857,0.200532,-1.86546,35,0.0139777,10,-0.000374083,-2.72921,-0.543761,-0.108503,7.90654,0.200532,
2,0,0,1,0,68156.1,0.199357,0.199015,-1.88471,35,0.0139304,10,-0.000375086,-2.72475,-0.648961,-0.0909145,6.66111,0.199015,
2,0,0,1,0,68156.2,0.197863,0.197536,-1.89488,35,0.013883,10,-0.000374308,-2.72242,-0.542534,-0.108749,8.01475,0.197536,
2,0,0,1,0,68156.2,0.196362,0.196083,-1.89823,35,0.0138353,10,-0.000372211,-2.72165,-0.461095,-0.127956,9.50335,0.196083,
2,0,0,1,0,68156.2,0.194861,0.194506,-1.91524,35,0.0137872,10,-0.000372526,-2.71778,-0.441225,-0.133719,9.9911,0.194506,
2,0,0,1,0,68156.2,0.193367,0.193067,-1.93699,35,0.0137388,10,-0.00037397,-2.71287,-0.604588,-0.0975872,7.32987,0.193067,
2,0,0,1,0,68156.3,0.191868,0.19155,-1.94251,35,0.01369,10,-0.000372088,-2.71164,-0.619301,-0.0952687,7.2173,0.19155,
2,0,0,1,0,68156.3,0.190368,0.190059,-1.9461,35,0.0136409,10,-0.000369875,-2.71083,-0.482584,-0.122259,9.32887,0.190059,
2,0,0,1,0,68156.3,0.18887,0.188569,-1.9644,35,0.0135915,10,-0.000370426,-2.70677,-0.532174,-0.110866,8.51546,0.188569,
2,0,0,1,0,68156.3,0.187376,0.187027,-1.98532,35,0.0135419,10,-0.000371308,-2.70217,-0.531443,-0.111018,8.58716,0.187027,
2,0,0,1,0,68156.4,0.185875,0.185525,-1.99742,35,0.0134917,10,-0.000370572,-2.69953,-0.428686,-0.13763,10.7034,0.185525,
2,0,0,1,0,68156.4,0.184374,0.184041,-2.00413,35,0.0134413,10,-0.000368842,-2.69807,-0.439245,-0.134322,10.5463,0.184041,
2,0,0,1,0,68156.4,0.18288,0.182574,-2.01926,35,0.0133906,10,-0.000368665,-2.69481,-0.504799,-0.116878,9.25263,0.182574,
2,0,0,1,0,68156.4,0.18138,0.18104,-2.04011,35,0.0133394,10,-0.000369341,-2.69035,-0.51373,-0.114846,9.14191,0.18104,
2,0,0,1,0,68156.5,0.179881,0.179531,-2.0543,35,0.0132878,10,-0.000368812,-2.68734,-0.469972,-0.125539,10.0642,0.179531,
2,0,0,1,0,68156.5,0.178387,0.178045,-2.06857,35,0.0132359,10,-0.000368299,-2.68433,-0.499542,-0.118108,9.55326,0.178045,
2,0,0,1,0,68156.5,0.176886,0.176548,-2.0814,35,0.0131836,10,-0.000367466,-2.68164,-0.480204,-0.122864,10.0229,0.176548,
2,0,0,1,0,68156.5,0.175385,0.175045,-2.1041,35,0.0131308,10,-0.000368312,-2.67693,-0.420776,-0.140217,11.501,0.175045,
2,0,0,1,0,68156.6,0.173892,0.173583,-2.12369,35,0.0130778,10,-0.000368636,-2.67291,-0.386794,-0.152536,12.6076,0.173583,
2,0,0,1,0,68156.6,0.172392,0.172063,-2.13775,35,0.0130241,10,-0.000367826,-2.67004,-0.379259,-0.155567,12.9812,0.172063,
2,0,0,1,0,68156.6,0.170893,0.170609,-2.15343,35,0.01297,10,-0.000367396,-2.66687,-0.410257,-0.143812,12.1193,0.170609,
2,0,0,1,0,68156.6,0.169393,0.169038,-2.17801,35,0.0129154,10,-0.000368166,-2.66194,-0.349249,-0.168934,14.3365,0.169038,
2,0,0,1,0,68156.7,0.167899,0.167567,-2.19878,35,0.0128605,10,-0.000368442,-2.65782,-0.325616,-0.181195,15.5475,0.167567,
2,0,0,1,0,68156.7,0.166398,0.166105,-2.2163,35,0.0128048,10,-0.000368138,-2.65437,-0.350131,-0.168509,14.6189,0.166105,
2,0,0,1,0,68156.7,0.164898,0.16459,-2.23812,35,0.0127486,10,-0.000368372,-2.65012,-0.349064,-0.169023,14.8151,0.16459,
2,0,0,1,0,68156.7,0.163403,0.163114,-2.26807,35,0.012692,10,-0.000369953,-2.64434,-0.324498,-0.18182,16.0787,0.163114,
2,0,0,1,0,68156.8,0.161904,0.161572,-2.29758,35,0.0126346,10,-0.000371225,-2.63873,-0.271622,-0.217213,19.4252,0.161572,
2,0,0,1,0,68156.8,0.160404,0.160096,-2.322,35,0.0125765,10,-0.000371742,-2.63414,-0.288609,-0.204429,18.5113,0.160096,
2,0,0,1,0,68156.8,0.158905,0.158632,-2.33998,35,0.0125177,10,-0.000371196,-2.63079,-0.283343,-0.208228,19.1003,0.158632,
2,0,0,1,0,68156.8,0.157411,0.157068,-2.38061,35,0.0124584,10,-0.000373919,-2.62331,-0.263003,-0.224332,20.8642,0.157068,
2,0,0,1,0,68156.9,0.155911,0.15561,-2.41414,35,0.012398,10,-0.000375665,-2.61724,-0.216171,-0.272932,25.7339,0.15561,
2,0,0,1,0,68156.9,0.15441,0.154081,-2.45697,35,0.0123367,10,-0.000378573,-2.6096,-0.213077,-0.276895,26.4891,0.154081,
2,0,0,1,0,68156.9,0.152916,0.152617,-2.49435,35,0.0122747,10,-0.000380681,-2.60304,-0.208918,-0.282407,27.4668,0.1526172,
2,0,0,1,0,68156.9,0.151417,0.151081,-2.53381,35,0.0122114,10,-0.000382812,-2.59623,-0.196622,-0.300068,29.743,0.151081,
2,0,0,1,0,68157,0.149917,0.149576,-2.58457,35,0.012147,10,-0.000386589,-2.58761,-0.16795,-0.351295,35.4698,0.149576,
2,0,0,1,0,68157,0.148423,0.148118,-2.63924,35,0.0120815,10,-0.000390917,-2.57852,-0.150937,-0.390892,40.3565,0.1481175,
2,0,0,1,0,68157,0.146922,0.14657,-2.69892,35,0.0120143,10,-0.000395581,-2.56881,-0.14876,-0.396613,41.8819,0.14657,
2,0,0,1,0,68157,0.145421,0.145092,-2.76186,35,0.0119456,10,-0.000400722,-2.5588,-0.14317,-0.412098,44.519,0.145092,
2,0,0,1,0,68157.1,0.143927,0.143609,-2.84283,35,0.0118755,10,-0.000408256,-2.54625,-0.121096,-0.487216,53.9571,0.143609,
2,0,0,1,0,68157.1,0.142429,0.142065,-2.92002,35,0.0118031,10,-0.000414831,-2.53461,-0.113707,-0.518879,59.2024,0.142065,
2,0,0,1,0,68157.1,0.140929,0.140608,-3.00342,35,0.0117285,10,-0.000422305,-2.52238,-0.117968,-0.500134,58.7591,0.140608,
2,0,0,1,0,68157.1,0.13943,0.139111,-3.09802,35,0.0116517,10,-0.000430968,-2.50892,-0.109162,-0.540481,65.4718,0.139111,
2,0,0,1,0,68157.2,0.137935,0.137577,-3.20601,35,0.0115729,10,-0.000441072,-2.49403,-0.105017,-0.561812,70.2618,0.137577,
2,0,0,1,0,68157.2,0.136435,0.136116,-3.31351,35,0.011491,10,-0.00045102,-2.47971,-0.0991253,-0.595206,76.9387,0.1361156,
2,0,0,1,0,68157.2,0.134934,0.134592,-3.42449,35,0.0114063,10,-0.000460911,-2.4654,-0.101385,-0.58194,77.8233,0.134592,
2,0,0,1,0,68157.2,0.13344,0.133108,-3.54803,35,0.011319,10,-0.000472271,-2.45001,-0.10239,-0.57623,79.6814,0.133108,
2,0,0,1,0,68157.3,0.13194,0.131627,-3.67556,35,0.0112283,10,-0.000483805,-2.43468,-0.101975,-0.578574,82.8649,0.131627,
2,0,0,1,0,68157.3,0.13044,0.130121,-3.79223,35,0.0111346,10,-0.00049345,-2.42111,-0.102198,-0.577312,85.4921,0.130121,
2,0,0,1,0,68157.3,0.128941,0.128585,-3.9192,35,0.0110376,10,-0.00050395,-2.4068,-0.10785,-0.547058,83.6619,0.128585,
2,0,0,1,0,68157.3,0.127447,0.127194,-4.04954,35,0.0109379,10,-0.000515078,-2.39259,-0.112642,-0.523781,82.6868,0.127194,
2,0,0,1,0,68157.4,0.125946,0.125626,-4.17554,35,0.0108347,10,-0.000524555,-2.37929,-0.119291,-0.494589,80.4365,0.1256256,
2,0,0,1,0,68157.4,0.124446,0.124155,-4.29541,35,0.0107284,10,-0.000533295,-2.367,-0.119199,-0.494972,82.819,0.124155,
2,0,0,1,0,68157.4,0.122952,0.122646,-4.41491,35,0.0106195,10,-0.000541472,-2.35508,-0.127426,-0.463012,79.6918,0.122646,
2,0,0,1,0,68157.4,0.121453,0.1211,-4.53315,35,0.0105072,10,-0.000548963,-2.3436,-0.140132,-0.421031,74.4041,0.1211,
2,0,0,1,0,68157.5,0.119953,0.119639,-4.64535,35,0.010392,10,-0.000555764,-2.33298,-0.144061,-0.409548,74.1578,0.119639,
2,0,0,1,0,68157.5,0.118459,0.118139,-4.75353,35,0.0102745,10,-0.000561578,-2.32298,-0.150062,-0.39317,72.8729,0.1181391,
2,0,0,1,0,68157.5,0.116958,0.116663,-4.86194,35,0.0101539,10,-0.000567206,-2.31319,-0.159952,-0.36886,69.9722,0.1166626,
2,0,0,1,0,68157.5,0.115457,0.115147,-4.96133,35,0.0100306,10,-0.000571282,-2.3044,-0.182204,-0.323812,62.6101,0.115147,
2,0,0,1,0,68157.6,0.113963,0.113677,-5.05765,35,0.00990542,10,-0.00057494,-2.29605,-0.191931,-0.307401,60.5617,0.113677,
2,0,0,1,0,68157.6,0.112464,0.112154,-5.14553,35,0.00977748,10,-0.000577089,-2.28857,-0.19561,-0.30162,60.5086,0.112154,
2,0,0,1,0,68157.6,0.110965,0.110665,-5.22743,35,0.00964734,10,-0.000578493,-2.28171,-0.226392,-0.26061,53.115,0.110665,
2,0,0,1,0,68157.6,0.109466,0.109126,-5.30516,35,0.00951516,10,-0.000578932,-2.2753,-0.269183,-0.219182,45.319,0.109126,
2,0,0,1,0,68157.7,0.107972,0.107679,-5.37299,35,0.00938173,10,-0.00057856,-2.26978,-0.282223,-0.209055,43.7966,0.107679,
2,0,0,1,0,68157.7,0.106471,0.106159,-5.43541,35,0.00924621,10,-0.000577018,-2.26477,-0.312904,-0.188556,39.9753,0.106159,
2,0,0,1,0,68157.7,0.10497,0.104638,-5.48758,35,0.00910921,10,-0.000574208,-2.26062,-0.366294,-0.161073,34.4636,0.104638,
2,0,0,1,0,68157.7,0.103476,0.103121,-5.53913,35,0.00897142,10,-0.000571202,-2.25656,-0.48363,-0.121994,26.3094,0.103121,
2,0,0,1,0,68157.8,0.101976,0.101677,-5.57585,35,0.00883205,10,-0.000566934,-2.25369,-0.676908,-0.087161,18.9205,0.101677,
2,0,0,1,0,68157.8,0.100477,0.100134,-5.59832,35,0.00869195,10,-0.000560583,-2.25194,-0.781261,-0.0755189,16.4784,0.100134,
2,0,0,1,0,68157.8,0.0989825,0.0986698,-5.61594,35,0.00855186,10,-0.000554124,-2.25058,-1.31425,-0.0448927,9.82947,0.0986698,
2,0,0,1,0,68157.8,0.0974817,0.0971639,-5.63034,35,0.00841081,10,-0.000547065,-2.24947,-3.57219,-0.0165165,3.6236,0.0971639,
2,0,0,1,0,68157.9,0.0959822,0.0956462,-5.63103,35,0.00826962,10,-0.000538587,-2.24941,7.23521,0.00815456,-1.78903,0.0956462,
2,0,0,1,0,68157.9,0.094488,0.0941778,-5.62481,35,0.00812905,10,-0.000529733,-2.24989,3.76645,0.0156646,-3.43628,0.0941778,
2,0,0,1,0,68157.9,0.0929884,0.0926343,-5.60817,35,0.00798812,10,-0.000519508,-2.25118,1.64295,0.035911,-7.86383,0.0926343,
2,0,0,1,0,68157.9,0.0914889,0.0911594,-5.59665,35,0.00784749,10,-0.000510188,-2.25207,0.947423,0.0622742,-13.5939,0.0911594,
2,0,0,1,0,68158,0.0899894,0.0896634,-5.58375,35,0.00770729,10,-0.000500658,-2.25307,0.753468,0.0783045,-17.0195,0.0896634,
2,0,0,1,0,68158,0.0884952,0.0881607,-5.5499,35,0.00756827,10,-0.000489283,-2.25571,0.756744,0.0779656,-16.8854,0.0881607,
2,0,0,1,0,68158,0.0869943,0.0866294,-5.5193,35,0.00742946,10,-0.000478134,-2.25812,0.6859,0.0860183,-18.5483,0.08662945,
2,0,0,1,0,68158,0.0854935,0.0851673,-5.49341,35,0.00729132,10,-0.000467858,-2.26016,0.619701,0.0952071,-20.4075,0.0851673,
2,0,0,1,0,68158.1,0.0839993,0.0837234,-5.46901,35,0.00715442,10,-0.000457884,-2.26209,0.546848,0.107891,-22.997,0.0837234,
2,0,0,1,0,68158.1,0.0824998,0.0821603,-5.43583,35,0.00701773,10,-0.000446609,-2.26473,0.655518,0.0900051,-19.0892,0.0821603,
2,0,0,1,0,68158.1,0.0810002,0.0806462,-5.39959,35,0.0068819,10,-0.000435457,-2.26764,0.650163,0.0907464,-19.1541,0.0806462,
2,0,0,1,0,68158.1,0.0795007,0.0791749,-5.37653,35,0.00674674,10,-0.000425686,-2.2695,0.69396,0.0850193,-17.8453,0.0791749,
2,0,0,1,0,68158.2,0.0780078,0.0776582,-5.35338,35,0.00661276,10,-0.000415734,-2.27137,0.764459,0.0771787,-16.1085,0.0776582,
2,0,0,1,0,68158.2,0.076507,0.0762108,-5.32609,35,0.00647887,10,-0.000405905,-2.27359,0.785341,0.0751266,-15.6076,0.0762108,
2,0,0,1,0,68158.2,0.0750062,0.0746625,-5.29613,35,0.00634568,10,-0.000395423,-2.27604,0.797067,0.0740214,-15.314,0.0746625,
2,0,0,1,0,68158.2,0.073512,0.0731828,-5.27953,35,0.00621359,10,-0.000386371,-2.2774,0.779287,0.0757103,-15.5949,0.0731828,
2,0,0,1,0,68158.3,0.0720124,0.0716854,-5.25818,35,0.00608145,10,-0.000376935,-2.27916,0.889423,0.0663351,-13.6115,0.0716854,
2,0,0,1,0,68158.3,0.0705129,0.0701868,-5.23724,35,0.00594982,10,-0.000367586,-2.2809,0.909554,0.0648669,-13.2617,0.0701868,
2,0,0,1,0,68158.3,0.0690187,0.068705,-5.21294,35,0.00581923,10,-0.000358155,-2.28292,0.909797,0.0648496,-13.2064,0.068705,
2,0,0,1,0,68158.3,0.0675179,0.0672069,-5.19727,35,0.00568864,10,-0.000349292,-2.28422,0.861746,0.0684657,-13.8893,0.0672069,
2,0,0,1,0,68158.4,0.066017,0.0656663,-5.18133,35,0.0055585,10,-0.000340239,-2.28556,0.95042,0.0620778,-12.534,0.06566631,
2,0,0,1,0,68158.4,0.0645242,0.0642197,-5.16418,35,0.0054293,10,-0.000331643,-2.287,0.970518,0.0607923,-12.2252,0.0642197,
2,0,0,1,0,68158.4,0.0630246,0.062702,-5.13686,35,0.00530009,10,-0.000322091,-2.2893,0.893725,0.0660159,-13.2442,0.062702,
2,0,0,1,0,68158.4,0.0615251,0.0612297,-5.11493,35,0.00517148,10,-0.000313186,-2.29116,0.807396,0.0730744,-14.6056,0.0612297,
2,0,0,1,0,68158.5,0.0600256,0.0596834,-5.09801,35,0.00504331,10,-0.000304267,-2.2926,0.860059,0.0686,-13.6479,0.0596834,
2,0,0,1,0,68158.5,0.0585314,0.0582084,-5.08162,35,0.00491614,10,-0.000295793,-2.294,0.807419,0.0730723,-14.4689,0.0582084,
2,0,0,1,0,68158.5,0.0570305,0.0566425,-5.05365,35,0.00478901,10,-0.000286252,-2.29639,0.754829,0.0781634,-15.4187,0.0566425,
2,0,0,1,0,68158.5,0.0555297,0.0551884,-5.02903,35,0.00466253,10,-0.000277544,-2.29852,0.678621,0.086941,-17.077,0.0551884,
2,0,0,1,0,68158.5,0.0540355,0.053674,-5.01022,35,0.00453716,10,-0.000268918,-2.30014,0.707697,0.083369,-16.2848,0.053674,
2,0,0,1,0,68158.6,0.052536,0.0522146,-4.98644,35,0.00441178,10,-0.000260365,-2.30221,0.779346,0.0757045,-14.7104,0.0522146,
2,0,0,1,0,68158.6,0.0510364,0.0507289,-4.96036,35,0.00428699,10,-0.000251633,-2.30449,0.691815,0.0852829,-16.5114,0.0507289,
2,0,0,1,0,68158.6,0.0495369,0.0492223,-4.9291,35,0.00416292,10,-0.000242622,-2.30723,0.619778,0.0951954,-18.3343,0.0492223,
2,0,0,1,0,68158.6,0.0480427,0.0477373,-4.91111,35,0.00403998,10,-0.000234443,-2.30882,0.678714,0.0869291,-16.642,0.0477373,
2,0,0,1,0,68158.7,0.0465432,0.0461925,-4.88719,35,0.00391714,10,-0.000225751,-2.31094,0.723897,0.0815033,-15.5281,0.0461925,
2,0,0,1,0,68158.7,0.0450424,0.0446881,-4.85667,35,0.00379494,10,-0.000217036,-2.31366,0.651744,0.0905263,-17.1559,0.0446881,
2,0,0,1,0,68158.7,0.0435482,0.0432051,-4.82288,35,0.00367393,10,-0.000208373,-2.31669,0.536581,0.109955,-20.7186,0.0432051,
2,0,0,1,0,68158.7,0.0420486,0.0417364,-4.80128,35,0.00355319,10,-0.000200388,-2.31864,0.571209,0.10329,-19.3642,0.0417364,
2,0,0,1,0,68158.8,0.0405491,0.0402368,-4.77704,35,0.0034331,10,-0.000192213,-2.32084,0.589424,0.100098,-18.6276,0.0402368,
2,0,0,1,0,68158.8,0.0390549,0.0387617,-4.73827,35,0.00331413,10,-0.000183663,-2.32438,0.570959,0.103335,-19.1257,0.0387617,
2,0,0,1,0,68158.8,0.0375541,0.0372086,-4.70891,35,0.00319549,10,-0.000175212,-2.32708,0.464363,0.127056,-23.3716,0.0372086,
2,0,0,1,0,68158.8,0.0360532,0.0357243,-4.68261,35,0.00307775,10,-0.000167283,-2.32951,0.444871,0.132623,-24.2205,0.0357243,
2,0,0,1,0,68158.9,0.034559,0.0342673,-4.64902,35,0.00296122,10,-0.00015931,-2.33264,0.606182,0.0973305,-17.6364,0.0342673,
2,0,0,1,0,68158.9,0.0330595,0.0327424,-4.61468,35,0.002845,10,-0.000151096,-2.33586,0.489774,0.120464,-21.6894,0.0327424,
2,0,0,1,0,68158.9,0.0315613,0.0312283,-4.57812,35,0.00272961,10,-0.000142967,-2.33931,0.45631,0.129298,-23.1136,0.0312283,
2,0,0,1,0,68158.9,0.0300618,0.0297542,-4.54634,35,0.00261515,10,-0.000135273,-2.34234,0.421843,0.139863,-24.7944,0.0297542,
2,0,0,1,0,68159,0.0285676,0.0282439,-4.50824,35,0.002502,10,-0.00012733,-2.34599,0.480475,0.122795,-21.5987,0.0282439,
2,0,0,1,0,68159,0.0270667,0.0267332,-4.47359,35,0.00238925,10,-0.000119593,-2.34934,0.486075,0.12138,-21.2006,0.0267332,
2,0,0,1,0,68159,0.0255659,0.025268,-4.43995,35,0.00227732,10,-0.000112189,-2.35262,0.400643,0.147263,-25.5315,0.025268,
2,0,0,1,0,68159,0.0240717,0.0237703,-4.40839,35,0.00216673,10,-0.000104789,-2.35572,0.41509,0.142138,-24.4471,0.0237703,
2,0,0,1,0,68159.1,0.0225722,0.0222274,-4.37601,35,0.00205656,10,-9.72672e-05,-2.35892,0.488281,0.120832,-20.6181,0.0222274,
2,0,0,1,0,68159.1,0.0210726,0.0207494,-4.34211,35,0.00194719,10,-9.00962e-05,-2.3623,0.504624,0.116919,-19.8111,0.0207494,
2,0,0,1,0,68159.1,0.0195784,0.0192535,-4.3081,35,0.00183905,10,-8.2946e-05,-2.36571,0.42958,0.137344,-23.1061,0.0192535,
2,0,0,1,0,68159.1,0.0180789,0.0177217,-4.27983,35,0.00173129,10,-7.58459e-05,-2.36857,0.422383,0.139684,-23.3067,0.0177217,
2,0,0,1,0,68159.2,0.0165781,0.016245,-4.25146,35,0.00162433,10,-6.90649e-05,-2.37146,0.533052,0.110683,-18.3484,0.01624498,
2,0,0,1,0,68159.2,0.0150839,0.014757,-4.21851,35,0.00151854,10,-6.22526e-05,-2.37484,0.60173,0.0980506,-16.1349,0.014757,
2,0,0,1,0,68159.2,0.0135844,0.0132752,-4.19153,35,0.00141295,10,-5.56432e-05,-2.37763,0.483406,0.122051,-19.9636,0.0132752,
2,0,0,1,0,68159.2,0.0120848,0.0117195,-4.16545,35,0.00130803,10,-4.88172e-05,-2.38034,0.511042,0.11545,-18.765,0.0117195,
2,0,0,1,0,68159.3,0.0105853,0.0102498,-4.1405,35,0.00120384,10,-4.24394e-05,-2.38295,0.561826,0.105015,-16.9696,0.0102498,
2,0,0,1,0,68159.3,0.00909108,0.0087728,-4.11313,35,0.00110063,10,-3.60836e-05,-2.38583,0.73387,0.0803957,-12.9136,0.008772797,
2,0,0,1,0,68159.3,0.00759027,0.00726615,-4.09025,35,0.000997596,10,-2.97204e-05,-2.38825,0.577742,0.102122,-16.3131,0.00726615,
2,0,0,1,0,68159.3,0.00608945,0.00576554,-4.07648,35,0.00089508,10,-2.35031e-05,-2.38971,0.641004,0.0920431,-14.6254,0.00576554,
2,0,0,1,0,68159.4,0.00459524,0.00426414,-4.05629,35,0.000793523,10,-1.72966e-05,-2.39187,0.806098,0.0731921,-11.581,0.00426414,
2,0,0,1,0,68159.4,0.0030957,0.0027841,-4.03434,35,0.000691977,10,-1.1232e-05,-2.39423,2.43712,0.0242089,-3.82358,0.0027841,
2,0,0,1,0,68159.4,0.00159616,0.00122875,-4.04053,35,0.000590421,10,-4.96478e-06,-2.39356, , , ,0.00122875,
2,0,0,1,0,68159.4,0.000199195,-0.000193621,-4.02654,35,0.000495978,10,7.79623e-07,-2.39507, , , ,-0.000193621,