File: Figure_codes/Fig_3-5/rawdata_trumpetplot_data/after 10th/20221101_1-115_003_TrumpetPlot_ParaChange_from10_every3_08_CV_C01_20.csv
mode,ox/red,error,control changes,counter inc.,time/s,control/V,Ewe/V,<I>/mA,cycle number,(Q-Qo)/C,I Range,P/W,log(|I|),Tafel slope mV/dec,alpha_eff,dI/d(E-IR),E-IR/V,
2,0,0,0,0,40577.6,2.44065e-05,-0.000229887,-4.02435,21,0.0000000E+000,10,9.25145e-07,-2.3953, , , ,-0.000229887,
2,0,0,1,0,40577.6,0.0012943,0.000924214,-2.5116,21,-4.96097e-05,10,-2.32126e-06,-2.60005, , , ,0.000924214,
2,0,0,1,0,40577.7,0.00279784,0.00244472,-1.34699,21,-8.50725e-05,10,-3.29303e-06,-2.87063,-0.00411515,-14.3373,665.227,0.00244472,
2,0,0,1,0,40577.7,0.00429425,0.00396768,-0.533749,21,-0.000102122,10,-2.11774e-06,-3.27266,-0.00495619,-11.9043,482.559,0.00396768,
2,0,0,1,0,40577.7,0.00579065,0.00547995,0.0857537,21,-0.000105898,10,4.69926e-07,-4.06675,-0.103319,-0.571044,378.453,0.00547995,
2,1,0,1,0,40577.7,0.0072942,0.00696637,0.585925,21,-9.9228e-05,10,4.08177e-06,-3.23216,0.00390614,15.1044,304.248,0.006966373,
2,1,0,1,0,40577.7,0.00878347,0.00849302,0.986244,21,-8.43022e-05,10,8.37619e-06,-3.00602,0.00766843,7.69388,247.07,0.00849302,
2,1,0,1,0,40577.8,0.010287,0.00998524,1.31585,21,-6.24046e-05,10,1.31391e-05,-2.88079,0.0137242,4.29896,203.845,0.00998524,
2,1,0,1,0,40577.8,0.0117905,0.0114478,1.58942,21,-3.48121e-05,10,1.81953e-05,-2.79876,0.0199073,2.96374,176.143,0.0114478,
2,1,0,1,0,40577.8,0.013278,0.0129407,1.81776,21,-2.84932e-06,10,2.35231e-05,-2.74046,0.0280395,2.10418,146.178,0.0129407,
2,1,0,1,0,40577.8,0.0147816,0.014423,2.01839,21,3.35676e-05,10,2.91113e-05,-2.695,0.0360393,1.6371,127.098,0.014423,
2,1,0,1,0,40577.8,0.0162851,0.0159555,2.19858,21,7.35797e-05,10,3.50794e-05,-2.65786,0.0451019,1.30815,110.821,0.0159555,
2,1,0,1,0,40577.8,0.0177744,0.017462,2.35085,21,0.000116221,10,4.10506e-05,-2.62878,0.0552424,1.06802,97.1164,0.017462,
2,1,0,1,0,40577.9,0.0192779,0.0189808,2.48279,21,0.000161946,10,4.71254e-05,-2.60506,0.0677814,0.870445,83.9991,0.0189808,
2,1,0,1,0,40577.9,0.0207743,0.020416,2.61002,21,0.000209858,10,5.32862e-05,-2.58336,0.0762149,0.774127,78.4916,0.020416,
2,1,0,1,0,40577.9,0.0222707,0.0219492,2.72604,21,0.000259976,10,5.98344e-05,-2.56447,0.0867435,0.680166,72.0867,0.0219492,
2,1,0,1,0,40577.9,0.0237743,0.0234445,2.82645,21,0.000312431,10,6.62649e-05,-2.54876,0.0987154,0.597678,65.7689,0.0234445,
2,1,0,1,0,40577.9,0.0252636,0.0249306,2.925,21,0.000366164,10,7.2922e-05,-2.53387,0.108708,0.54274,61.7996,0.0249306,
2,1,0,1,0,40578,0.0267671,0.0264518,3.01753,21,0.000422193,10,7.98191e-05,-2.52035,0.118379,0.498401,58.5066,0.0264518,
2,1,0,1,0,40578,0.0282706,0.0279628,3.10503,21,0.000479914,10,8.68251e-05,-2.50793,0.127801,0.461655,55.7969,0.0279628,
2,1,0,1,0,40578,0.0297581,0.0294093,3.18735,21,0.000538585,10,9.37378e-05,-2.49657,0.136789,0.431322,53.504,0.0294093,
2,1,0,1,0,40578,0.0312617,0.0309206,3.25963,21,0.000599393,10,0.00010079,-2.48683,0.142605,0.413729,52.601,0.0309206,
2,1,0,1,0,40578,0.0327652,0.0324616,3.33817,21,0.000661638,10,0.000108362,-2.47649,0.144909,0.407152,52.9887,0.0324616,
2,1,0,1,0,40578.1,0.0342545,0.0339388,3.41304,21,0.000724615,10,0.000115834,-2.46686,0.157919,0.37361,49.7097,0.0339388,
2,1,0,1,0,40578.1,0.035758,0.0354317,3.48318,21,0.000789688,10,0.000123415,-2.45802,0.165383,0.356748,48.4495,0.0354317,
2,1,0,1,0,40578.1,0.0372544,0.0369509,3.55134,21,0.000855725,10,0.000131225,-2.44961,0.173097,0.34085,47.2827,0.0369509,
2,1,0,1,0,40578.1,0.0387508,0.0384028,3.61784,21,0.000923011,10,0.000138935,-2.44155,0.176872,0.333575,47.1859,0.0384028,
2,1,0,1,0,40578.1,0.0402544,0.0399527,3.68934,21,0.000991987,10,0.000147399,-2.43305,0.184259,0.320202,46.1268,0.0399527,
2,1,0,1,0,40578.1,0.0417437,0.0414466,3.76196,21,0.00106159,10,0.00015592,-2.42459,0.195191,0.302268,44.3369,0.0414466,
2,1,0,1,0,40578.2,0.0432472,0.0429528,3.83041,21,0.00113319,10,0.000164527,-2.41675,0.20924,0.281973,42.1051,0.0429528,
2,1,0,1,0,40578.2,0.0447507,0.0444856,3.88891,21,0.00120599,10,0.000173,-2.41017,0.213865,0.275875,41.9247,0.0444856,
2,1,0,1,0,40578.2,0.0462382,0.0459082,3.95638,21,0.00127923,10,0.00018163,-2.4027,0.211971,0.278339,42.9983,0.0459082,
2,1,0,1,0,40578.2,0.0477418,0.0474056,4.02421,21,0.0013545,10,0.00019077,-2.39532,0.221357,0.266537,41.8577,0.0474056,
2,1,0,1,0,40578.2,0.0492453,0.0489397,4.08746,21,0.00143101,10,0.000200039,-2.38855,0.234676,0.25141,40.1003,0.0489397,
2,1,0,1,0,40578.3,0.0507346,0.0504292,4.15038,21,0.00150785,10,0.0002093,-2.38191,0.2326,0.253655,41.0841,0.0504292,
2,1,0,1,0,40578.3,0.0522381,0.0518979,4.21679,21,0.00158664,10,0.000218843,-2.37502,0.230197,0.256302,42.1671,0.0518979,
2,1,0,1,0,40578.3,0.0537345,0.0534321,4.28316,21,0.00166624,10,0.000228858,-2.36824,0.227657,0.259162,43.2361,0.0534321,
2,1,0,1,0,40578.3,0.0552309,0.0549038,4.34567,21,0.00174704,10,0.000238594,-2.36194,0.247396,0.238484,40.328,0.0549038,
2,1,0,1,0,40578.3,0.0567345,0.0563753,4.39927,21,0.00182942,10,0.00024801,-2.35662,0.250233,0.23578,40.4818,0.05637525,
2,1,0,1,0,40578.4,0.0582237,0.0578467,4.45707,21,0.00191197,10,0.000257827,-2.35095,0.242373,0.243427,42.3703,0.0578467,
2,1,0,1,0,40578.4,0.0597273,0.0593771,4.51342,21,0.00199654,10,0.000267994,-2.34549,0.255217,0.231176,40.7521,0.0593771,
2,1,0,1,0,40578.4,0.0612308,0.0609051,4.572,21,0.00208224,10,0.000278458,-2.33989,0.261762,0.225396,40.2219,0.0609051,
2,1,0,1,0,40578.4,0.0627183,0.0624178,4.62849,21,0.0021681,10,0.0002889,-2.33456,0.270113,0.218427,39.482,0.0624178,
2,1,0,1,0,40578.4,0.0642219,0.0638899,4.68495,21,0.00225588,10,0.000299321,-2.3293,0.285644,0.206551,37.8148,0.0638899,
2,1,0,1,0,40578.4,0.0657254,0.0654227,4.73919,21,0.00234477,10,0.00031005,-2.3243,0.276393,0.213464,39.4921,0.0654227,
2,1,0,1,0,40578.5,0.0672147,0.0669506,4.80563,21,0.0024338,10,0.00032174,-2.31825,0.298878,0.197405,36.9726,0.0669506,
2,1,0,1,0,40578.5,0.0687182,0.0683989,4.85558,21,0.00252484,10,0.000332116,-2.31376,0.33264,0.177369,33.6013,0.0683989,
2,1,0,1,0,40578.5,0.0702146,0.0699196,4.90399,21,0.00261635,10,0.000342885,-2.30945,0.351605,0.167802,32.1318,0.0699196,
2,1,0,1,0,40578.5,0.071711,0.0714259,4.95975,21,0.00270881,10,0.000354255,-2.30454,0.342961,0.172031,33.2747,0.0714259,
2,1,0,1,0,40578.5,0.0732146,0.0729291,5.00979,21,0.00280273,10,0.000365359,-2.30018,0.362362,0.162821,31.8337,0.0729291,
2,1,0,1,0,40578.6,0.0747038,0.0743916,5.06406,21,0.00289661,10,0.000376724,-2.2955,0.358976,0.164357,32.4445,0.0743916,
2,1,0,1,0,40578.6,0.0762074,0.0758852,5.10801,21,0.00299239,10,0.000387623,-2.29175,0.374221,0.157661,31.4137,0.0758852,
2,1,0,1,0,40578.6,0.0777109,0.0773839,5.16152,21,0.00308906,10,0.000399419,-2.28722,0.3707,0.159158,32.0118,0.0773839,
2,1,0,1,0,40578.6,0.0791984,0.0788949,5.20469,21,0.00318558,10,0.000410624,-2.28361,0.36984,0.159528,32.3725,0.0788949,
2,1,0,1,0,40578.6,0.0807019,0.0803424,5.24588,21,0.00328402,10,0.000421467,-2.28018,0.382917,0.15408,31.5223,0.0803424,
2,1,0,1,0,40578.7,0.0822055,0.0818974,5.28847,21,0.0033833,10,0.000433112,-2.27667,0.408949,0.144272,29.7787,0.0818974,
2,1,0,1,0,40578.7,0.0836948,0.0833981,5.32806,21,0.00348224,10,0.000444351,-2.27343,0.454653,0.129769,27.004,0.0833981,
2,1,0,1,0,40578.7,0.0851983,0.0848968,5.37141,21,0.00358307,10,0.000456015,-2.26991,0.41839,0.141017,29.5378,0.0848968,
2,1,0,1,0,40578.7,0.0866947,0.0863726,5.40845,21,0.00368415,10,0.000467142,-2.26693,0.443584,0.133007,28.0957,0.0863726,
2,1,0,1,0,40578.7,0.0881911,0.0878908,5.45031,21,0.00378596,10,0.000479032,-2.26358,0.507495,0.116257,24.7344,0.0878908,
2,1,0,1,0,40578.7,0.0896946,0.0893701,5.48878,21,0.00388901,10,0.000490532,-2.26052,0.471973,0.125007,26.8077,0.0893701,
2,1,0,1,0,40578.8,0.0911839,0.0908916,5.53042,21,0.0039917,10,0.000502669,-2.25724,0.450376,0.131002,28.2767,0.0908916,
2,1,0,1,0,40578.8,0.0926857,0.0923889,5.57656,21,0.00409634,10,0.000515212,-2.25363,0.447385,0.131878,28.6842,0.0923889,
2,1,0,1,0,40578.8,0.0941892,0.0938556,5.61472,21,0.00420178,10,0.000526973,-2.25067,0.490912,0.120185,26.3545,0.0938556,
2,1,0,1,0,40578.8,0.0956785,0.0953567,5.65903,21,0.00430685,10,0.000539626,-2.24726,0.457812,0.128874,28.482,0.0953567,
2,1,0,1,0,40578.8,0.097182,0.0968605,5.70577,21,0.00441389,10,0.000552664,-2.24369,0.419455,0.140659,31.3252,0.0968605,
2,1,0,1,0,40578.9,0.0986856,0.0983684,5.758,21,0.00452187,10,0.000566405,-2.23973,0.390539,0.151073,33.9509,0.0983684,
2,1,0,1,0,40578.9,0.100175,0.099847,5.81526,21,0.00462967,10,0.000580636,-2.23543,0.371071,0.158999,36.0732,0.099847,
2,1,0,1,0,40578.9,0.101678,0.101392,5.86802,21,0.00473965,10,0.000594972,-2.23151,0.353349,0.166974,38.2581,0.101392,
2,1,0,1,0,40578.9,0.103175,0.102837,5.93205,21,0.00485015,10,0.000610036,-2.2268,0.298946,0.19736,45.7472,0.102837,
2,1,0,1,0,40578.9,0.104671,0.104352,6.00054,21,0.00496188,10,0.00062617,-2.22181,0.270306,0.218271,51.1434,0.104352,
2,1,0,1,0,40579,0.106175,0.105844,6.07588,21,0.00507562,10,0.000643094,-2.21639,0.272941,0.216164,51.2328,0.1058438,
2,1,0,1,0,40579,0.107662,0.107352,6.15138,21,0.00518957,10,0.000660361,-2.21103,0.261589,0.225545,54.1641,0.107352,
2,1,0,1,0,40579,0.109166,0.108857,6.22696,21,0.00530613,10,0.000677849,-2.20572,0.257253,0.229346,55.8066,0.108857,
2,1,0,1,0,40579,0.110669,0.110313,6.31099,21,0.00542428,10,0.000696184,-2.1999,0.246826,0.239034,58.9111,0.110313,
2,1,0,1,0,40579,0.112159,0.11182,6.40043,21,0.00554279,10,0.000715697,-2.19379,0.258694,0.228069,56.9844,0.11182,
2,1,0,1,0,40579,0.113662,0.113358,6.48568,21,0.00566418,10,0.000735206,-2.18804,0.261452,0.225663,57.1638,0.113358,
2,1,0,1,0,40579.1,0.115166,0.114811,6.57525,21,0.00578719,10,0.000754914,-2.18209,0.251751,0.234359,60.1836,0.114811,
2,1,0,1,0,40579.1,0.116655,0.116334,6.67425,21,0.00591066,10,0.000776443,-2.1756,0.250293,0.235724,61.3983,0.116334,
2,1,0,1,0,40579.1,0.118158,0.117835,6.77053,21,0.00603726,10,0.000797803,-2.16938,0.261065,0.225997,59.6746,0.117835,
2,1,0,1,0,40579.1,0.119655,0.119338,6.86259,21,0.00616493,10,0.000818965,-2.16351,0.280708,0.210183,56.234,0.119338,
2,1,0,1,0,40579.1,0.121151,0.120801,6.94293,21,0.0062942,10,0.000838716,-2.15846,0.285428,0.206707,56.0057,0.120801,
2,1,0,1,0,40579.2,0.122655,0.122369,7.03051,21,0.00642573,10,0.000860317,-2.15301,0.298721,0.197509,54.1372,0.122369,
2,1,0,1,0,40579.2,0.124142,0.123808,7.11055,21,0.00655741,10,0.000880343,-2.1481,0.304342,0.193861,53.7513,0.123808,
2,1,0,1,0,40579.2,0.125646,0.125345,7.1872,21,0.00669199,10,0.000900881,-2.14344,0.332031,0.177694,49.7774,0.125345,
2,1,0,1,0,40579.2,0.127149,0.126853,7.25092,21,0.00682793,10,0.000919804,-2.13961,0.360978,0.163445,46.248,0.126853,
2,1,0,1,0,40579.2,0.128639,0.128334,7.31801,21,0.00696367,10,0.00093915,-2.13561,0.373648,0.157902,45.0955,0.128334,
2,1,0,1,0,40579.3,0.130142,0.129832,7.38443,21,0.00710209,10,0.000958736,-2.13168,0.398636,0.148005,42.6235,0.129832,
2,1,0,1,0,40579.3,0.131646,0.131367,7.44322,21,0.00724172,10,0.000977793,-2.12824,0.456509,0.129242,37.4905,0.131367,
2,1,0,1,0,40579.3,0.133135,0.132811,7.49192,21,0.00738088,10,0.000995011,-2.12541,0.498634,0.118323,34.6054,0.1328111,
2,1,0,1,0,40579.3,0.134639,0.134337,7.53974,21,0.00752245,10,0.00101286,-2.12264,0.538704,0.109522,32.2296,0.134337,
2,1,0,1,0,40579.3,0.136135,0.135832,7.58243,21,0.00766416,10,0.00102994,-2.12019,0.609032,0.0968751,28.6898,0.135832,
2,1,0,1,0,40579.3,0.137631,0.137296,7.62965,21,0.00780673,10,0.00104752,-2.1175,0.693405,0.0850874,25.3258,0.137296,
2,1,0,1,0,40579.4,0.139135,0.138831,7.67023,21,0.00795081,10,0.00106487,-2.11519,0.837403,0.0704559,21.0728,0.138831,
2,1,0,1,0,40579.4,0.140622,0.14034,7.69763,21,0.00809398,10,0.00108029,-2.11364,0.966249,0.0610609,18.3446,0.14034,
2,1,0,1,0,40579.4,0.142126,0.141787,7.72731,21,0.0082392,10,0.00109563,-2.11197,1.17894,0.0500449,15.0855,0.141787,
2,1,0,1,0,40579.4,0.143629,0.143307,7.75242,21,0.00838493,10,0.00111097,-2.11056,1.94864,0.0302775,9.1423,0.143307,
2,1,0,1,0,40579.4,0.145119,0.144802,7.75829,21,0.00852938,10,0.00112341,-2.11023,-6.57475,-0.00897372,-2.71205,0.144802,
2,1,0,1,0,40579.5,0.146622,0.146337,7.74443,21,0.00867531,10,0.00113329,-2.11101,-1.60995,-0.0366472,-11.059,0.146337,
2,1,0,1,0,40579.5,0.148126,0.147813,7.72062,21,0.00882092,10,0.00114121,-2.11235,-1.00305,-0.0588206,-17.6917,0.147813,
2,1,0,1,0,40579.5,0.149615,0.149316,7.68827,21,0.00896439,10,0.00114798,-2.11417,-0.53339,-0.110613,-33.0865,0.149316,
2,1,0,1,0,40579.5,0.151119,0.150788,7.62424,21,0.00910851,10,0.00114964,-2.1178,-0.363558,-0.162285,-48.1123,0.150788,
2,1,0,1,0,40579.5,0.152615,0.152305,7.5387,21,0.00925047,10,0.00114818,-2.1227,-0.273286,-0.215891,-63.3125,0.152305,
2,1,0,1,0,40579.6,0.154111,0.153784,7.42099,21,0.00939052,10,0.00114123,-2.12954,-0.216392,-0.272653,-78.805,0.153784,
2,1,0,1,0,40579.6,0.155615,0.155325,7.28838,21,0.00952909,10,0.00113207,-2.13737,-0.177316,-0.332739,-94.4173,0.155325,
2,1,0,1,0,40579.6,0.157103,0.156778,7.13966,21,0.00966359,10,0.00111934,-2.14632,-0.149394,-0.394928,-109.696,0.156778,
2,1,0,1,0,40579.6,0.158606,0.15827,6.9606,21,0.0097964,10,0.00110166,-2.15735,-0.132135,-0.446512,-121.049,0.15827,
2,1,0,1,0,40579.6,0.16011,0.15977,6.76629,21,0.0099257,10,0.00108105,-2.16965,-0.115699,-0.509945,-134.458,0.15977,
2,1,0,1,0,40579.6,0.161599,0.161282,6.56425,21,0.0100499,10,0.0010587,-2.18281,-0.108204,-0.545266,-139.524,0.161282,
2,1,0,1,0,40579.7,0.163102,0.162823,6.35306,21,0.0101716,10,0.00103442,-2.19702,-0.102023,-0.578301,-143.23,0.162823,
2,1,0,1,0,40579.7,0.164606,0.164287,6.13859,21,0.0102893,10,0.00100849,-2.21193,-0.0965209,-0.611267,-146.374,0.164287,
2,1,0,1,0,40579.7,0.166095,0.165798,5.93048,21,0.0104016,10,0.000983263,-2.22691,-0.0959827,-0.614694,-142.222,0.165798,
2,1,0,1,0,40579.7,0.167599,0.167298,5.72322,21,0.0105113,10,0.000957482,-2.24236,-0.0998854,-0.590677,-131.963,0.1672978,
2,1,0,1,0,40579.7,0.169095,0.168735,5.53302,21,0.0106166,10,0.000933617,-2.25704,-0.100572,-0.586646,-126.621,0.168735,
2,1,0,1,0,40579.8,0.170592,0.170259,5.34642,21,0.0107184,10,0.000910279,-2.27194,-0.104094,-0.566793,-118.287,0.170259,
2,1,0,1,0,40579.8,0.172095,0.171781,5.17224,21,0.0108174,10,0.000888491,-2.28632,-0.105524,-0.559113,-112.943,0.171781,
2,1,0,1,0,40579.8,0.173583,0.173229,5.0069,21,0.0109122,10,0.000867342,-2.30043,-0.113593,-0.519397,-101.696,0.173229,
2,1,0,1,0,40579.8,0.175086,0.17477,4.8625,21,0.0110051,10,0.000849818,-2.31314,-0.119291,-0.494589,-93.9274,0.17477,
2,1,0,1,0,40579.8,0.17659,0.176257,4.72209,21,0.0110953,10,0.0008323,-2.32587,-0.123727,-0.476857,-87.9681,0.176257,
2,1,0,1,0,40579.9,0.178079,0.177738,4.60089,21,0.0111822,10,0.000817753,-2.33716,-0.132794,-0.444297,-79.8407,0.177738,
2,1,0,1,0,40579.9,0.179582,0.179285,4.48102,21,0.0112677,10,0.000803382,-2.34862,-0.145364,-0.405877,-71.1648,0.1792853,
2,1,0,1,0,40579.9,0.181086,0.180795,4.37415,21,0.0113512,10,0.000790825,-2.35911,-0.157919,-0.373609,-63.953,0.180795,
2,1,0,1,0,40579.9,0.182575,0.182288,4.28123,21,0.011432,10,0.000780417,-2.36843,-0.15842,-0.372429,-62.3189,0.182288,
2,1,0,1,0,40579.9,0.184079,0.183765,4.19451,21,0.0115119,10,0.000770804,-2.37732,-0.168727,-0.349678,-57.3474,0.183765,
2,1,0,1,0,40579.9,0.185582,0.185254,4.11533,21,0.0115902,10,0.000762382,-2.3856,-0.181195,-0.325615,-52.345,0.185254,
2,1,0,1,0,40580,0.18707,0.186723,4.03982,21,0.0116663,10,0.000754326,-2.39364,-0.199388,-0.295905,-46.7067,0.186723,
2,1,0,1,0,40580,0.188573,0.188253,3.97579,21,0.0117418,10,0.000748454,-2.40058,-0.214534,-0.275014,-42.6976,0.188253,
2,1,0,1,0,40580,0.19007,0.189734,3.914,21,0.0118158,10,0.000742618,-2.40738,-0.228938,-0.257712,-39.4043,0.189734,
2,1,0,1,0,40580,0.191566,0.191226,3.85631,21,0.0118886,10,0.000737428,-2.41383,-0.236684,-0.249277,-37.5647,0.191226,
2,1,0,1,0,40580,0.19307,0.192737,3.80053,21,0.0119608,10,0.000732502,-2.42016,-0.270846,-0.217836,-32.3665,0.192737,
2,1,0,1,0,40580.1,0.194559,0.194215,3.76077,21,0.0120313,10,0.000730397,-2.42472,-0.282869,-0.208577,-30.635,0.194215,
2,1,0,1,0,40580.1,0.196063,0.195744,3.71616,21,0.0121018,10,0.000727415,-2.42991,-0.29163,-0.202311,-29.324,0.195744,
2,1,0,1,0,40580.1,0.197566,0.19726,3.66877,21,0.0121714,10,0.000723702,-2.43548,-0.312899,-0.188559,-27.0463,0.1972601,
2,1,0,1,0,40580.1,0.199055,0.198734,3.63487,21,0.0122394,10,0.000722373,-2.43951,-0.344488,-0.171269,-24.3099,0.198734,
2,1,0,1,0,40580.1,0.200559,0.200226,3.60054,21,0.0123076,10,0.000720923,-2.44363,-0.416499,-0.141657,-19.8893,0.200226,
2,1,0,1,0,40580.2,0.202062,0.201714,3.56353,21,0.0123751,10,0.000718815,-2.44812,-0.417508,-0.141315,-19.6648,0.201714,
2,1,0,1,0,40580.2,0.20355,0.20323,3.53102,21,0.0124414,10,0.00071761,-2.4521,-0.429205,-0.137463,-18.9907,0.20323,
2,1,0,1,0,40580.2,0.205054,0.204739,3.49625,21,0.0125077,10,0.000715819,-2.4564,-0.529583,-0.111408,-15.2725,0.204739,
2,1,0,1,0,40580.2,0.20655,0.20624,3.47485,21,0.0125732,10,0.000716653,-2.45906,-0.522806,-0.112853,-15.334,0.20624,
2,1,0,1,0,40580.2,0.208046,0.207718,3.45685,21,0.0126384,10,0.000718049,-2.46132,-0.45687,-0.12914,-17.4117,0.2077179,
2,1,0,1,0,40580.2,0.20955,0.209246,3.43839,21,0.0127034,10,0.000719468,-2.46365,-0.44373,-0.132964,-17.836,0.209246,
2,1,0,1,0,40580.3,0.211039,0.210722,3.41067,21,0.0127673,10,0.000718702,-2.46716,-0.477174,-0.123645,-16.4705,0.210722,
2,1,0,1,0,40580.3,0.212543,0.212208,3.39456,21,0.0128314,10,0.000720353,-2.46922,-0.55623,-0.106071,-14.0418,0.2122082,
2,1,0,1,0,40580.3,0.214046,0.213733,3.37638,21,0.0128952,10,0.000721643,-2.47155,-0.593076,-0.0994813,-13.101,0.213733,
2,1,0,1,0,40580.3,0.215535,0.215234,3.35675,21,0.012958,10,0.000722488,-2.47408,-0.568412,-0.103798,-13.6035,0.215234,
2,1,0,1,0,40580.3,0.217039,0.216716,3.33788,21,0.0130211,10,0.000723372,-2.47653,-0.617968,-0.0954742,-12.4418,0.216716,
2,1,0,1,0,40580.4,0.218543,0.218252,3.32455,21,0.0130839,10,0.000725591,-2.47827,-0.978105,-0.0603207,-7.82601,0.218252,
2,1,0,1,0,40580.4,0.22003,0.219755,3.31338,21,0.0131458,10,0.000728133,-2.47973,-1.06434,-0.0554334,-7.15758,0.219755,
2,1,0,1,0,40580.4,0.221534,0.2212,3.29478,21,0.013208,10,0.000728805,-2.48217,-0.896723,-0.0657951,-8.45607,0.2212,
2,1,0,1,0,40580.4,0.22303,0.222707,3.27633,21,0.0132697,10,0.000729662,-2.48461,-0.932956,-0.0632399,-8.08987,0.222707,
2,1,0,1,0,40580.4,0.224526,0.224183,3.26555,21,0.0133311,10,0.000732082,-2.48604,-0.925423,-0.0637546,-8.13266,0.224183,
2,1,0,1,0,40580.5,0.22603,0.225726,3.25312,21,0.0133926,10,0.000734315,-2.4877,-1.21306,-0.0486374,-6.17991,0.225726,
2,1,0,1,0,40580.5,0.227519,0.227187,3.23968,21,0.0134533,10,0.000736014,-2.4895,-0.9439,-0.0625067,-7.91563,0.227187,
2,1,0,1,0,40580.5,0.229023,0.228733,3.22718,21,0.0135144,10,0.000738162,-2.49118,-0.99263,-0.0594381,-7.50218,0.228733,
2,1,0,1,0,40580.5,0.230526,0.230191,3.21731,21,0.0135752,10,0.000740597,-2.49251,-0.891892,-0.0661515,-8.32266,0.2301912,
2,1,0,1,0,40580.5,0.232016,0.231676,3.20663,21,0.0136352,10,0.000742897,-2.49395,-1.06199,-0.0555563,-6.96161,0.231676,
2,1,0,1,0,40580.5,0.233519,0.233245,3.20012,21,0.0136958,10,0.000746413,-2.49483,-0.855908,-0.0689326,-8.61015,0.233245,
2,1,0,1,0,40580.6,0.235023,0.234724,3.19374,21,0.0137561,10,0.000749647,-2.4957,-0.903944,-0.0652696,-8.13361,0.234724,
2,1,0,1,0,40580.6,0.23651,0.2362,3.18408,21,0.0138156,10,0.000752081,-2.49702,-0.980179,-0.0601931,-7.48379,0.2362,
2,1,0,1,0,40580.6,0.238014,0.237711,3.17596,21,0.0138755,10,0.00075496,-2.49812,-1.54408,-0.0382103,-4.73211,0.237711,
2,1,0,1,0,40580.6,0.23951,0.239193,3.17341,21,0.0139351,10,0.000759058,-2.49847,-1.43082,-0.0412352,-5.09598,0.239193,
2,1,0,1,0,40580.6,0.241006,0.240716,3.16308,21,0.0139945,10,0.000761403,-2.49989,-1.2597,-0.0468365,-5.77575,0.2407158,
2,1,0,1,0,40580.7,0.24251,0.2422,3.15449,21,0.014054,10,0.000764017,-2.50107,-1.22084,-0.0483274,-5.94295,0.2421995,
2,1,0,1,0,40580.7,0.243999,0.24367,3.14666,21,0.0141127,10,0.000766746,-2.50215,-3.39423,-0.0173825,-2.13493,0.24367,
2,1,0,1,0,40580.7,0.245503,0.245202,3.1454,21,0.014172,10,0.000771256,-2.50232,-3.52707,-0.0167278,-2.04927,0.245202,
2,1,0,1,0,40580.7,0.247006,0.246699,3.1319,21,0.0142312,10,0.000772638,-2.50419,-2.41541,-0.0244265,-2.98239,0.246699,
2,1,0,1,0,40580.7,0.248496,0.248195,3.12094,21,0.0142896,10,0.000774601,-2.50571,-1.50334,-0.0392458,-4.78915,0.248195,
2,1,0,1,0,40580.8,0.249999,0.249637,3.11266,21,0.0143484,10,0.000777037,-2.50687,-2.5797,-0.0228709,-2.78664,0.249637,
2,1,0,1,0,40580.8,0.251503,0.251196,3.10841,21,0.0144072,10,0.000780819,-2.50746,-4.51725,-0.013061,-1.58706,0.251196,
2,1,0,1,0,40580.8,0.25299,0.25272,3.10476,21,0.0144652,10,0.000784635,-2.50797,-1.92946,-0.0305786,-3.70284,0.25272,
2,1,0,1,0,40580.8,0.254494,0.254182,3.0988,21,0.0145238,10,0.000787658,-2.50881,-1.43859,-0.0410125,-4.96316,0.254182,
2,1,0,1,0,40580.8,0.25599,0.255668,3.09016,21,0.0145819,10,0.000790056,-2.51002,-1.59171,-0.0370671,-4.47263,0.255668,
2,1,0,1,0,40580.8,0.257487,0.257162,3.08744,21,0.0146399,10,0.000793972,-2.5104,-1.4029,-0.0420558,-5.06766,0.257162,
2,1,0,1,0,40580.9,0.25899,0.258688,3.08169,21,0.0146981,10,0.000797196,-2.51121,-1.49609,-0.0394362,-4.73858,0.258688,
2,1,0,1,0,40580.9,0.260479,0.260173,3.07909,21,0.0147556,10,0.000801095,-2.51158,-1.45322,-0.0405996,-4.87656,0.260173,
2,1,0,1,0,40580.9,0.261983,0.261683,3.06965,21,0.0148136,10,0.000803275,-2.51291,-1.11854,-0.0527473,-6.32242,0.2616829,
2,1,0,1,0,40580.9,0.263486,0.263153,3.06743,21,0.0148715,10,0.000807203,-2.51323,-2.52633,-0.023354,-2.79134,0.263153,
2,1,0,1,0,40580.9,0.264974,0.264697,3.06471,21,0.0149287,10,0.00081122,-2.51361,-2.11989,-0.0278317,-3.32423,0.264697,
2,1,0,1,0,40581,0.266477,0.266142,3.06026,21,0.0149864,10,0.000814466,-2.51424,-2.64411,-0.0223137,-2.6607,0.266142,
2,1,0,1,0,40581,0.267981,0.267665,3.0494,21,0.015044,10,0.000816217,-2.51579,-7.10682,-0.00830188,-0.989032,0.2676647,
2,1,0,1,0,40581,0.26947,0.269164,3.04192,21,0.0151008,10,0.000818776,-2.51685,-4.11067,-0.0143529,-1.70698,0.269164,
2,1,0,1,0,40581,0.270974,0.270672,3.04269,21,0.0151582,10,0.000823571,-2.51674,-5.85009,-0.0100853,-1.19593,0.270672,
2,1,0,1,0,40581,0.27247,0.272149,3.03324,21,0.0152153,10,0.000825494,-2.51809,-3.73559,-0.015794,-1.86914,0.272149,
2,1,0,1,0,40581.1,0.273967,0.273686,3.02338,21,0.0152722,10,0.000827456,-2.51951,-1.72808,-0.0341419,-4.03761,0.273686,
2,1,0,1,0,40581.1,0.27547,0.275137,3.02203,21,0.0153293,10,0.000831474,-2.5197,-2.86731,-0.0205768,-2.42842,0.275137,
2,1,0,1,0,40581.1,0.276959,0.276658,3.01416,21,0.0153857,10,0.000833892,-2.52083,-2.2323,-0.0264301,-3.11581,0.276658,
2,1,0,1,0,40581.1,0.278463,0.278181,3.01516,21,0.0154426,10,0.00083876,-2.52069,-1.25172,-0.047135,-5.53899,0.278181,
2,1,0,1,0,40581.1,0.279967,0.279704,3.00989,21,0.0154995,10,0.000841877,-2.52145,-1.13322,-0.052064,-6.11553,0.279704,
2,1,0,1,0,40581.1,0.281454,0.281162,3.00112,21,0.0155556,10,0.000843801,-2.52272,-1.60731,-0.0367074,-4.30593,0.281162,
2,1,0,1,0,40581.2,0.282958,0.282644,2.99738,21,0.0156122,10,0.000847193,-2.52326,-2.0114,-0.0293328,-3.4335,0.282644,
2,1,0,1,0,40581.2,0.284461,0.284169,2.99637,21,0.0156687,10,0.000851474,-2.52341,-1.829,-0.032258,-3.76553,0.284169,
2,1,0,1,0,40581.2,0.28595,0.285641,2.99221,21,0.0157246,10,0.0008547,-2.52401,-1.26839,-0.0465156,-5.42644,0.285641,
2,1,0,1,0,40581.2,0.287454,0.287203,2.98521,21,0.0157809,10,0.000857362,-2.52502,-1.06945,-0.0551686,-6.42098,0.287203,
2,1,0,1,0,40581.2,0.28895,0.28864,2.98089,21,0.0158369,10,0.000860401,-2.52565,-2.21936,-0.0265842,-3.08804,0.28864,
2,1,0,1,0,40581.3,0.290447,0.29018,2.97506,21,0.0158927,10,0.000863305,-2.5265,-4.09484,-0.0144084,-1.67279,0.29018,
2,1,0,1,0,40581.3,0.29195,0.291666,2.96927,21,0.0159487,10,0.000866036,-2.52735,-2.93577,-0.020097,-2.32826,0.291666,
2,1,0,1,0,40581.3,0.29344,0.293154,2.96106,21,0.0160041,10,0.000868046,-2.52855,-2.22287,-0.0265422,-3.06534,0.293154,
2,1,0,1,0,40581.3,0.294943,0.294651,2.95541,21,0.0160599,10,0.000870816,-2.52938,-2.97717,-0.0198175,-2.28858,0.294651,
2,1,0,1,0,40581.3,0.296447,0.296148,2.95404,21,0.0161157,10,0.000874833,-2.52958,-3.84217,-0.0153559,-1.76866,0.296148,
2,1,0,1,0,40581.4,0.297934,0.29765,2.94632,21,0.0161707,10,0.00087697,-2.53072,-2.88767,-0.0204317,-2.34987,0.29765,
2,1,0,1,0,40581.4,0.299438,0.299134,2.93861,21,0.0162263,10,0.000879037,-2.53186,-0.0358092,-1.64762,-175.901,0.2991339,
2,1,0,1,0,40581.4,0.300012,0.29967,2.93893,21,0.016247,10,0.00088071,-2.53181,0.00171577,34.3869,2651.87,0.29967,
2,1,0,1,0,40581.4,0.298737,0.298439,1.57155,21,0.0162809,10,0.000469013,-2.80367,0.00436102,13.5289,739.963,0.298439,
2,1,0,1,0,40581.4,0.29724,0.296932,0.728429,21,0.0163015,10,0.000216294,-3.13761,0.00267707,22.039,479.477,0.296932,
2,1,0,1,0,40581.4,0.295744,0.295452,0.192675,21,0.0163096,10,5.69264e-05,-3.71517,0.0071094,8.29888,308.328,0.295452,
2,0,0,1,0,40581.4,0.29424,0.293942,-0.173202,21,0.0163095,10,-5.09113e-05,-3.76145,-0.025846,-2.28275,211.236,0.293942,
2,0,0,1,0,40581.5,0.292751,0.292436,-0.431488,21,0.0163036,10,-0.000126183,-3.36503,-0.00383326,-15.3916,155.015,0.292436,
2,0,0,1,0,40581.5,0.291248,0.290953,-0.632179,21,0.0162934,10,-0.000183934,-3.19916,-0.0104446,-5.64885,121.393,0.290953,
2,0,0,1,0,40581.5,0.289744,0.289444,-0.780448,21,0.0162799,10,-0.000225896,-3.10766,-0.0181354,-3.25331,93.6821,0.289444,
2,0,0,1,0,40581.5,0.288257,0.287929,-0.903889,21,0.016264,10,-0.000260256,-3.04388,-0.0263191,-2.24172,76.4547,0.2879293,
2,0,0,1,0,40581.5,0.286753,0.286419,-1.00112,21,0.0162459,10,-0.000286739,-2.99952,-0.0352693,-1.67284,64.2301,0.286419,
2,0,0,1,0,40581.6,0.285249,0.284967,-1.08561,21,0.016226,10,-0.000309363,-2.96433,-0.0448138,-1.31656,55.3688,0.284967,
2,0,0,1,0,40581.6,0.28376,0.283478,-1.15838,21,0.0162048,10,-0.000328374,-2.93615,-0.0550127,-1.07248,48.3575,0.283478,
2,0,0,1,0,40581.6,0.282257,0.281931,-1.22664,21,0.0161821,10,-0.000345827,-2.91128,-0.0708331,-0.832944,39.6617,0.281931,
2,0,0,1,0,40581.6,0.28076,0.280461,-1.28474,21,0.0161583,10,-0.000360321,-2.89118,-0.0842439,-0.700348,35.1208,0.280461,
2,0,0,1,0,40581.6,0.279264,0.278965,-1.33785,21,0.0161335,10,-0.000373214,-2.87359,-0.0941379,-0.62674,32.6514,0.278965,
2,0,0,1,0,40581.7,0.27776,0.277447,-1.39238,21,0.0161077,10,-0.000386312,-2.85624,-0.105237,-0.560638,30.273,0.2774466,
2,0,0,1,0,40581.7,0.276271,0.275913,-1.43393,21,0.0160812,10,-0.00039564,-2.84347,-0.117227,-0.503296,28.0936,0.275913,
2,0,0,1,0,40581.7,0.274767,0.274445,-1.47127,21,0.0160537,10,-0.000403783,-2.83231,-0.141242,-0.417722,23.9129,0.274445,
2,0,0,1,0,40581.7,0.273264,0.272944,-1.51355,21,0.0160255,10,-0.000413114,-2.82,-0.147912,-0.398886,23.4987,0.272944,
2,0,0,1,0,40581.7,0.271776,0.27142,-1.54565,21,0.0159968,10,-0.00041952,-2.81089,-0.144343,-0.408749,24.6253,0.27142,
2,0,0,1,0,40581.7,0.270273,0.269936,-1.5819,21,0.0159672,10,-0.000427013,-2.80082,-0.162448,-0.363193,22.3896,0.269936,
2,0,0,1,0,40581.8,0.268769,0.268477,-1.61902,21,0.0159369,10,-0.000434671,-2.79075,-0.174524,-0.338062,21.2392,0.268477,
2,0,0,1,0,40581.8,0.26728,0.266969,-1.64161,21,0.0159065,10,-0.000438259,-2.78473,-0.198654,-0.296999,19.0385,0.266969,
2,0,0,1,0,40581.8,0.265777,0.265469,-1.67714,21,0.0158751,10,-0.000445228,-2.77543,-0.180833,-0.326268,21.2928,0.265469,
2,0,0,1,0,40581.8,0.26428,0.263961,-1.70015,21,0.0158434,10,-0.000448773,-2.76951,-0.200308,-0.294547,19.5574,0.263961,
2,0,0,1,0,40581.8,0.262784,0.262475,-1.72756,21,0.0158111,10,-0.000453441,-2.76257,-0.232598,-0.253656,17.0895,0.2624746,
2,0,0,1,0,40581.9,0.26128,0.260995,-1.75223,21,0.0157782,10,-0.000457324,-2.75641,-0.228528,-0.258174,17.6627,0.260995,
2,0,0,1,0,40581.9,0.259791,0.259492,-1.77246,21,0.0157451,10,-0.00045994,-2.75142,-0.228247,-0.258492,17.9432,0.259492,
2,0,0,1,0,40581.9,0.258287,0.25798,-1.79979,21,0.0157113,10,-0.000464309,-2.74478,-0.247715,-0.238177,16.7449,0.25798,
2,0,0,1,0,40581.9,0.256786,0.256483,-1.82579,21,0.0156769,10,-0.000468285,-2.73855,-0.294255,-0.200507,14.2816,0.256483,
2,0,0,1,0,40581.9,0.255296,0.255005,-1.84789,21,0.0156425,10,-0.000471222,-2.73332,-0.34168,-0.172676,12.4454,0.255005,
2,0,0,1,0,40582,0.253793,0.253461,-1.8681,21,0.0156074,10,-0.000473489,-2.7286,-0.37538,-0.157174,11.4559,0.253461,
2,0,0,1,0,40582,0.252289,0.251966,-1.89317,21,0.0155719,10,-0.000477016,-2.72281,-0.349201,-0.168957,12.4636,0.251966,
2,0,0,1,0,40582,0.2508,0.250476,-1.91435,21,0.0155363,10,-0.000479499,-2.71798,-0.376821,-0.156573,11.6922,0.250476,
2,0,0,1,0,40582,0.249296,0.249008,-1.93723,21,0.0154999,10,-0.000482386,-2.71282,-0.388944,-0.151693,11.4493,0.249008,
2,0,0,1,0,40582,0.2478,0.247497,-1.95216,21,0.0154634,10,-0.000483153,-2.70948,-0.389943,-0.151304,11.5195,0.247497,
2,0,0,1,0,40582,0.246304,0.246048,-1.97475,21,0.0154266,10,-0.000485881,-2.70449,-0.304823,-0.193555,14.8985,0.246048,
2,0,0,1,0,40582.1,0.2448,0.244482,-1.99339,21,0.0153891,10,-0.000487347,-2.70041,-0.33708,-0.175033,13.6013,0.244482,
2,0,0,1,0,40582.1,0.243313,0.242968,-2.01379,21,0.0153517,10,-0.000489286,-2.69599,-0.355167,-0.166119,13.0206,0.2429681,
2,0,0,1,0,40582.1,0.241809,0.241492,-2.02478,21,0.0153136,10,-0.000488968,-2.69362,-0.343345,-0.171839,13.5994,0.2414919,
2,0,0,1,0,40582.1,0.240306,0.239996,-2.0432,21,0.0152751,10,-0.000490361,-2.68969,-0.335982,-0.175604,14.0285,0.239996,
2,0,0,1,0,40582.1,0.238816,0.238498,-2.06411,21,0.0152367,10,-0.000492286,-2.68527,-0.354844,-0.16627,13.3752,0.238498,
2,0,0,1,0,40582.2,0.237313,0.236974,-2.07769,21,0.0151975,10,-0.000492359,-2.68242,-0.473072,-0.124717,10.1165,0.236974,
2,0,0,1,0,40582.2,0.235809,0.235482,-2.09437,21,0.015158,10,-0.000493188,-2.67895,-0.419627,-0.140601,11.5051,0.235482,
2,0,0,1,0,40582.2,0.23432,0.233993,-2.10987,21,0.0151187,10,-0.000493695,-2.67574,-0.499548,-0.118107,9.75202,0.233993,
2,0,0,1,0,40582.2,0.232816,0.232484,-2.12835,21,0.0150786,10,-0.000494807,-2.67196,-0.483665,-0.121985,10.1456,0.232484,
2,0,0,1,0,40582.2,0.23132,0.231017,-2.15066,21,0.0150384,10,-0.000496839,-2.66743,-0.463907,-0.127181,10.6604,0.231017,
2,0,0,1,0,40582.3,0.229824,0.229488,-2.16326,21,0.0149979,10,-0.00049644,-2.66489,-0.517594,-0.113989,9.61406,0.229488,
2,0,0,1,0,40582.3,0.22832,0.227995,-2.18121,21,0.0149568,10,-0.000497303,-2.6613,-0.572449,-0.103066,8.77485,0.227995,
2,0,0,1,0,40582.3,0.226833,0.226528,-2.19494,21,0.0149159,10,-0.000497217,-2.65858,-0.515085,-0.114544,9.81992,0.226528,
2,0,0,1,0,40582.3,0.225329,0.225011,-2.21461,21,0.0148743,10,-0.000498311,-2.6547,-0.452253,-0.130458,11.2676,0.225011,
2,0,0,1,0,40582.3,0.223825,0.223506,-2.2297,21,0.0148324,10,-0.000498351,-2.65175,-0.452402,-0.130415,11.3393,0.2235062,
2,0,0,1,0,40582.3,0.222336,0.222051,-2.24209,21,0.0147906,10,-0.000497859,-2.64935,-0.457861,-0.12886,11.2825,0.222051,
2,0,0,1,0,40582.4,0.220833,0.220538,-2.2626,21,0.0147481,10,-0.000498989,-2.64539,-0.407373,-0.14483,12.765,0.2205378,
2,0,0,1,0,40582.4,0.219329,0.219001,-2.2842,21,0.0147053,10,-0.000500242,-2.64127,-0.406206,-0.145246,12.9037,0.219001,
2,0,0,1,0,40582.4,0.21784,0.217477,-2.29286,21,0.0146626,10,-0.000498646,-2.63962,-0.447186,-0.131936,11.7771,0.217477,
2,0,0,1,0,40582.4,0.216336,0.216023,-2.3062,21,0.0146191,10,-0.000498191,-2.6371,-0.487697,-0.120977,10.8884,0.2160226,
2,0,0,1,0,40582.4,0.21484,0.214515,-2.32104,21,0.0145757,10,-0.000497898,-2.63432,-0.439742,-0.13417,12.1706,0.214515,
2,0,0,1,0,40582.5,0.213343,0.212983,-2.33497,21,0.0145319,10,-0.000497308,-2.63172,-0.424144,-0.139104,12.6832,0.212983,
2,0,0,1,0,40582.5,0.21184,0.211512,-2.35148,21,0.0144876,10,-0.000497367,-2.62866,-0.578206,-0.10204,9.36029,0.211512,
2,0,0,1,0,40582.5,0.210352,0.210009,-2.3684,21,0.0144435,10,-0.000497386,-2.62555,-0.610736,-0.0966047,8.93467,0.210009,
2,0,0,1,0,40582.5,0.208849,0.208532,-2.38179,21,0.0143987,10,-0.000496679,-2.6231,-0.500581,-0.117863,10.9777,0.208532,
2,0,0,1,0,40582.5,0.207345,0.207055,-2.39384,21,0.0143536,10,-0.000495656,-2.62091,-0.57817,-0.102046,9.55996,0.207055,
2,0,0,1,0,40582.6,0.205856,0.205553,-2.41821,21,0.0143085,10,-0.000497071,-2.61651,-0.555716,-0.106169,10.009,0.205553,
2,0,0,1,0,40582.6,0.204353,0.204013,-2.43737,21,0.0142627,10,-0.000497255,-2.61308,-0.831427,-0.0709624,6.72998,0.204013,
2,0,0,1,0,40582.6,0.202849,0.202515,-2.44991,21,0.0142166,10,-0.000496142,-2.61085,-0.554541,-0.106394,10.1642,0.202515,
2,0,0,1,0,40582.6,0.20136,0.201072,-2.46533,21,0.0141708,10,-0.000495708,-2.60812,-0.609568,-0.0967899,9.29727,0.201072,
2,0,0,1,0,40582.6,0.199856,0.199519,-2.47912,21,0.0141241,10,-0.000494631,-2.6057,-0.547787,-0.107706,10.43,0.199519,
2,0,0,1,0,40582.6,0.19836,0.198003,-2.4961,21,0.0140774,10,-0.000494235,-2.60274,-0.520468,-0.113359,11.0381,0.1980031,
2,0,0,1,0,40582.7,0.196863,0.196558,-2.509,21,0.0140305,10,-0.000493163,-2.6005,-0.47805,-0.123418,12.0988,0.196558,
2,0,0,1,0,40582.7,0.19536,0.19504,-2.52908,21,0.013983,10,-0.00049327,-2.59704,-0.411742,-0.143294,14.1386,0.19504,
2,0,0,1,0,40582.7,0.193872,0.193542,-2.5529,21,0.0139356,10,-0.000494093,-2.59297,-0.393641,-0.149883,14.8724,0.193542,
2,0,0,1,0,40582.7,0.192369,0.192055,-2.56344,21,0.0138874,10,-0.000492322,-2.59118,-0.463937,-0.127172,12.713,0.192055,
2,0,0,1,0,40582.7,0.190865,0.190497,-2.57271,21,0.0138388,10,-0.000490094,-2.58961,-0.471145,-0.125227,12.6126,0.190497,
2,0,0,1,0,40582.8,0.189376,0.189044,-2.59213,21,0.0137905,10,-0.000490025,-2.58634,-0.502551,-0.117401,11.9135,0.189044,
2,0,0,1,0,40582.8,0.187872,0.187517,-2.61114,21,0.0137413,10,-0.000489634,-2.58317,-0.448377,-0.131586,13.4276,0.187517,
2,0,0,1,0,40582.8,0.186369,0.186046,-2.6293,21,0.0136918,10,-0.000489172,-2.58016,-0.579816,-0.101756,10.4634,0.1860463,
2,0,0,1,0,40582.8,0.18488,0.184548,-2.65062,21,0.0136424,10,-0.000489168,-2.57665,-0.538998,-0.109462,11.3285,0.1845483,
2,0,0,1,0,40582.8,0.183376,0.18305,-2.67129,21,0.0135922,10,-0.00048898,-2.57328,-0.563438,-0.104714,10.9148,0.18305,
2,0,0,1,0,40582.9,0.18188,0.18153,-2.69547,21,0.0135418,10,-0.00048931,-2.56936,-0.44823,-0.131629,13.8258,0.18153,
2,0,0,1,0,40582.9,0.180383,0.180058,-2.7204,21,0.0134911,10,-0.000489829,-2.56537,-0.440367,-0.133979,14.1788,0.180058,
2,0,0,1,0,40582.9,0.17888,0.178567,-2.74002,21,0.0134397,10,-0.000489279,-2.56225,-0.503557,-0.117167,12.5004,0.178567,
2,0,0,1,0,40582.9,0.177392,0.177051,-2.75944,21,0.0133884,10,-0.000488562,-2.55918,-0.482439,-0.122295,13.1504,0.177051,
2,0,0,1,0,40582.9,0.175889,0.175577,-2.7796,21,0.0133363,10,-0.000488034,-2.55602,-0.392287,-0.1504,16.3045,0.175577,
2,0,0,1,0,40582.9,0.174385,0.174053,-2.807,21,0.0132836,10,-0.000488567,-2.55176,-0.340234,-0.17341,18.9727,0.174053,
2,0,0,1,0,40583,0.172896,0.172559,-2.82946,21,0.0132311,10,-0.000488249,-2.5483,-0.373364,-0.158023,17.4318,0.172559,
2,0,0,1,0,40583,0.171392,0.171078,-2.84892,21,0.0131775,10,-0.000487388,-2.54532,-0.352068,-0.167581,18.6677,0.171078,
2,0,0,1,0,40583,0.169889,0.16962,-2.87795,21,0.0131235,10,-0.000488157,-2.54092,-0.320336,-0.184182,20.7089,0.16962,
2,0,0,1,0,40583,0.1684,0.168035,-2.9077,21,0.0130695,10,-0.000488597,-2.53645,-0.308431,-0.19129,21.7179,0.168035,
2,0,0,1,0,40583,0.166896,0.166567,-2.93392,21,0.0130143,10,-0.000488696,-2.53255,-0.314895,-0.187364,21.4724,0.166567,
2,0,0,1,0,40583.1,0.165392,0.165037,-2.96504,21,0.0129585,10,-0.000489339,-2.52797,-0.322741,-0.182809,21.2081,0.165037,
2,0,0,1,0,40583.1,0.163905,0.163597,-3.00236,21,0.0129027,10,-0.000491177,-2.52254,-0.30988,-0.190396,22.3642,0.163597,
2,0,0,1,0,40583.1,0.162401,0.162043,-3.03598,21,0.0128457,10,-0.000491961,-2.5177,-0.2907,-0.202959,24.1024,0.162043,
2,0,0,1,0,40583.1,0.160905,0.160589,-3.07554,21,0.0127883,10,-0.000493897,-2.51208,-0.28359,-0.208047,24.9952,0.160589,
2,0,0,1,0,40583.1,0.159409,0.15909,-3.11998,21,0.0127301,10,-0.000496358,-2.50585,-0.279597,-0.211018,25.7146,0.15909,
2,0,0,1,0,40583.2,0.157905,0.157571,-3.163,21,0.0126709,10,-0.000498397,-2.4999,-0.253013,-0.23319,28.8178,0.157571,
2,0,0,1,0,40583.2,0.156416,0.156079,-3.21614,21,0.0126115,10,-0.000501971,-2.49266,-0.221491,-0.266376,33.4205,0.156079,
2,0,0,1,0,40583.2,0.154912,0.154577,-3.2718,21,0.0125504,10,-0.000505747,-2.48521,-0.205602,-0.286962,36.6113,0.154577,
2,0,0,1,0,40583.2,0.153409,0.153089,-3.32772,21,0.0124882,10,-0.000509436,-2.47785,-0.204174,-0.288969,37.5306,0.153089,
2,0,0,1,0,40583.2,0.151919,0.151586,-3.38,21,0.0124257,10,-0.00051236,-2.47108,-0.181267,-0.325487,43.0435,0.151586,
2,0,0,1,0,40583.2,0.150416,0.150031,-3.44895,21,0.0123613,10,-0.00051745,-2.46231,-0.161366,-0.365628,49.2653,0.150031,
2,0,0,1,0,40583.3,0.148912,0.14856,-3.52724,21,0.0122956,10,-0.000524006,-2.45257,-0.146955,-0.401484,55.3278,0.14856,
2,0,0,1,0,40583.3,0.147425,0.147066,-3.60348,21,0.0122291,10,-0.000529951,-2.44328,-0.14239,-0.414354,58.376,0.147066,
2,0,0,1,0,40583.3,0.145921,0.145613,-3.68964,21,0.0121603,10,-0.000537257,-2.43302,-0.133687,-0.44133,63.6922,0.145613,
2,0,0,1,0,40583.3,0.144425,0.144105,-3.78697,21,0.0120901,10,-0.00054572,-2.42171,-0.12382,-0.476497,70.709,0.144105,
2,0,0,1,0,40583.3,0.142929,0.142606,-3.89855,21,0.012018,10,-0.000555958,-2.4091,-0.119316,-0.494484,75.3774,0.1426063,
2,0,0,1,0,40583.4,0.141425,0.141111,-4.01708,21,0.0119433,10,-0.000566853,-2.39609,-0.115122,-0.512498,80.4731,0.141111,
2,0,0,1,0,40583.4,0.139936,0.139612,-4.13955,21,0.0118672,10,-0.000577933,-2.38305,-0.111936,-0.527088,85.4251,0.139612,
2,0,0,1,0,40583.4,0.138432,0.138122,-4.27146,21,0.0117879,10,-0.000589984,-2.36942,-0.108235,-0.545109,91.2048,0.138122,
2,0,0,1,0,40583.4,0.136929,0.136609,-4.42009,21,0.011706,10,-0.000603827,-2.35457,-0.102328,-0.576575,99.6453,0.136609,
2,0,0,1,0,40583.4,0.135439,0.135167,-4.5788,21,0.011622,10,-0.000618901,-2.33925,-0.103587,-0.569568,101.812,0.135167,
2,0,0,1,0,40583.5,0.133936,0.133621,-4.74478,21,0.0115342,10,-0.000634002,-2.32378,-0.102104,-0.577844,106.949,0.133621,
2,0,0,1,0,40583.5,0.132432,0.132087,-4.91198,21,0.0114434,10,-0.000648809,-2.30874,-0.102649,-0.574774,110.01,0.132087,
2,0,0,1,0,40583.5,0.130945,0.130633,-5.07607,21,0.0113504,10,-0.0006631,-2.29447,-0.102281,-0.576844,114.139,0.130633,
2,0,0,1,0,40583.5,0.129441,0.129094,-5.25195,21,0.0112532,10,-0.000677995,-2.27968,-0.103982,-0.567408,116.159,0.129094,
2,0,0,1,0,40583.5,0.127945,0.127593,-5.42,21,0.0111532,10,-0.000691556,-2.266,-0.110739,-0.532784,112.607,0.127593,
2,0,0,1,0,40583.5,0.126448,0.126149,-5.58716,21,0.0110501,10,-0.000704817,-2.25281,-0.113022,-0.52202,113.743,0.126149,
2,0,0,1,0,40583.6,0.124945,0.124682,-5.75988,21,0.0109432,10,-0.000718156,-2.23959,-0.116187,-0.507801,113.987,0.124682,
2,0,0,1,0,40583.6,0.123456,0.123118,-5.92114,21,0.0108344,10,-0.000728997,-2.22759,-0.121719,-0.484722,111.915,0.1231178,
2,0,0,1,0,40583.6,0.121952,0.121645,-6.08417,21,0.0107213,10,-0.000740107,-2.2158,-0.131382,-0.449072,106.452,0.121645,
2,0,0,1,0,40583.6,0.120449,0.120113,-6.23925,21,0.0106052,10,-0.000749414,-2.20487,-0.137996,-0.427549,103.991,0.120113,
2,0,0,1,0,40583.6,0.118959,0.118659,-6.38246,21,0.0104876,10,-0.000757335,-2.19501,-0.146319,-0.403229,100.495,0.118659,
2,0,0,1,0,40583.7,0.117456,0.117128,-6.53106,21,0.0103659,10,-0.000764971,-2.18502,-0.158639,-0.371914,94.7587,0.117128,
2,0,0,1,0,40583.7,0.115952,0.115648,-6.67192,21,0.0102415,10,-0.000771596,-2.17575,-0.174166,-0.338757,88.0899,0.1156482,
2,0,0,1,0,40583.7,0.114465,0.114169,-6.80517,21,0.0101159,10,-0.000776941,-2.16716,-0.188712,-0.312645,82.9651,0.114169,
2,0,0,1,0,40583.7,0.112961,0.112685,-6.92404,21,0.0099866,10,-0.000780235,-2.15964,-0.199464,-0.295793,79.9169,0.112685,
2,0,0,1,0,40583.7,0.111465,0.111184,-7.04854,21,0.00985572,10,-0.000783688,-2.1519,-0.217601,-0.271139,74.4651,0.111184,
2,0,0,1,0,40583.8,0.109968,0.109627,-7.16184,21,0.00972267,10,-0.00078513,-2.14498,-0.235899,-0.250107,69.7682,0.109627,
2,0,0,1,0,40583.8,0.108465,0.108176,-7.26697,21,0.00958691,10,-0.000786114,-2.13865,-0.265325,-0.222368,62.9222,0.108176,
2,0,0,1,0,40583.8,0.106976,0.106682,-7.35354,21,0.00945082,10,-0.000784492,-2.1335,-0.285902,-0.206364,59.1586,0.106682,
2,0,0,1,0,40583.8,0.105472,0.105168,-7.44081,21,0.00931163,10,-0.000782535,-2.12838,-0.310146,-0.190233,55.1458,0.1051679,
2,0,0,1,0,40583.8,0.103968,0.103649,-7.51683,21,0.00917087,10,-0.000779115,-2.12397,-0.362597,-0.162715,47.6621,0.103649,
2,0,0,1,0,40583.8,0.102479,0.102142,-7.584,21,0.00903029,10,-0.000774641,-2.1201,-0.432682,-0.136359,40.2763,0.102142,
2,0,0,1,0,40583.9,0.100976,0.100644,-7.62778,21,0.00888711,10,-0.000767692,-2.1176,-0.506629,-0.116456,34.6406,0.1006442,
2,0,0,1,0,40583.9,0.0994721,0.0991554,-7.67828,21,0.00874301,10,-0.000761343,-2.11474,-0.600946,-0.0981786,29.3809,0.0991554,
2,0,0,1,0,40583.9,0.0979846,0.0976284,-7.7084,21,0.00859971,10,-0.000752559,-2.11304,-0.832006,-0.070913,21.3192,0.0976284,
2,0,0,1,0,40583.9,0.0964811,0.0961546,-7.73112,21,0.00845429,10,-0.000743382,-2.11176,-1.38698,-0.0425386,12.8233,0.0961546,
2,0,0,1,0,40583.9,0.0949847,0.0946719,-7.74304,21,0.00830929,10,-0.000733048,-2.11109,-3.73489,-0.015797,4.77029,0.0946719,
2,0,0,1,0,40584,0.0934883,0.0931684,-7.74362,21,0.00816423,10,-0.000721461,-2.11106,9.92861,0.00594242,-1.79621,0.0931684,
2,0,0,1,0,40584,0.0919847,0.0916847,-7.73939,21,0.00801838,10,-0.000709584,-2.11129,2.9631,0.0199116,-6.01344,0.0916847,
2,0,0,1,0,40584,0.0904955,0.0901779,-7.73183,21,0.0078742,10,-0.00069724,-2.11172,1.35547,0.0435274,-13.1184,0.0901779,
2,0,0,1,0,40584,0.0889919,0.0886509,-7.71363,21,0.0077288,10,-0.00068382,-2.11274,0.901005,0.0654824,-19.6886,0.08865089,
2,0,0,1,0,40584,0.0874884,0.0871614,-7.68119,21,0.00758393,10,-0.000669503,-2.11457,0.766023,0.0770212,-23.0788,0.0871614,
2,0,0,1,0,40584.1,0.0860009,0.0856808,-7.64798,21,0.00744123,10,-0.000655285,-2.11645,0.65955,0.0894549,-26.676,0.08568076,
2,0,0,1,0,40584.1,0.0844974,0.0842052,-7.60941,21,0.00729768,10,-0.000640752,-2.11865,0.642776,0.0917893,-27.2284,0.0842052,
2,0,0,1,0,40584.1,0.0829938,0.0826844,-7.56691,21,0.00715486,10,-0.000625666,-2.12108,0.576893,0.102272,-30.1843,0.08268439,
2,0,0,1,0,40584.1,0.0815045,0.0811768,-7.52161,21,0.00701443,10,-0.000610581,-2.12369,0.574196,0.102752,-30.1671,0.0811768,
2,0,0,1,0,40584.1,0.080001,0.0796758,-7.47295,21,0.00687334,10,-0.000595413,-2.12651,0.648077,0.0910385,-26.5544,0.0796758,
2,0,0,1,0,40584.1,0.0785046,0.078188,-7.43102,21,0.00673377,10,-0.000581017,-2.12895,0.623917,0.0945639,-27.4165,0.078188,
2,0,0,1,0,40584.2,0.0770082,0.0766501,-7.39079,21,0.00659502,10,-0.000566505,-2.13131,0.604172,0.0976543,-28.1555,0.0766501,
2,0,0,1,0,40584.2,0.0755046,0.0751971,-7.33932,21,0.00645636,10,-0.000551895,-2.13434,0.641225,0.0920113,-26.3778,0.0751971,
2,0,0,1,0,40584.2,0.0740154,0.0737106,-7.3009,21,0.00632,10,-0.000538154,-2.13662,0.673947,0.087544,-24.9621,0.0737106,
2,0,0,1,0,40584.2,0.0725118,0.0722089,-7.2639,21,0.00618289,10,-0.000524518,-2.13883,0.740771,0.0796467,-22.5881,0.0722089,
2,0,0,1,0,40584.2,0.0710083,0.0706734,-7.22452,21,0.00604645,10,-0.000510581,-2.14119,0.704798,0.083712,-23.6043,0.0706734,
2,0,0,1,0,40584.3,0.0695208,0.0691614,-7.1856,21,0.00591212,10,-0.000496966,-2.14354,0.667232,0.0884251,-24.8307,0.06916137,
2,0,0,1,0,40584.3,0.0680173,0.0676617,-7.1489,21,0.00577708,10,-0.000483706,-2.14576,0.711748,0.0828945,-23.1764,0.0676617,
2,0,0,1,0,40584.3,0.0665137,0.0661957,-7.12542,21,0.00564263,10,-0.000471672,-2.14719,0.745575,0.0791336,-22.0105,0.0661957,
2,0,0,1,0,40584.3,0.0650244,0.0647035,-7.09423,21,0.00551017,10,-0.000459021,-2.14909,0.70674,0.083482,-23.113,0.0647035,
2,0,0,1,0,40584.3,0.0635209,0.0631604,-7.06611,21,0.00537687,10,-0.000446298,-2.15082,0.682867,0.0864004,-23.814,0.0631604,
2,0,0,1,0,40584.4,0.0620245,0.0617196,-7.03209,21,0.00524489,10,-0.000434018,-2.15292,0.730948,0.0807171,-22.1595,0.0617196,
2,0,0,1,0,40584.4,0.0605281,0.0602111,-7.00929,21,0.00511354,10,-0.000422037,-2.15433,0.797307,0.0739991,-20.2129,0.0602111,
2,0,0,1,0,40584.4,0.0590246,0.0586954,-6.97469,21,0.00498199,10,-0.000409382,-2.15648,0.81023,0.0728189,-19.8035,0.0586954,
2,0,0,1,0,40584.4,0.0575353,0.0571636,-6.94896,21,0.0048524,10,-0.000397228,-2.15808,0.778742,0.0757632,-20.5257,0.0571636,
2,0,0,1,0,40584.4,0.0560317,0.0556977,-6.90804,21,0.00472203,10,-0.000384761,-2.16065,0.764028,0.0772223,-20.8215,0.05569765,
2,0,0,1,0,40584.4,0.0545282,0.0541973,-6.8773,21,0.00459227,10,-0.000372731,-2.16258,0.862739,0.0683868,-18.3594,0.0541973,
2,0,0,1,0,40584.5,0.0530407,0.0527071,-6.8459,21,0.00446445,10,-0.000360828,-2.16457,0.824428,0.0715648,-19.1233,0.05270708,
2,0,0,1,0,40584.5,0.0515372,0.0511811,-6.81623,21,0.00433581,10,-0.000348862,-2.16646,0.788636,0.0748127,-19.8885,0.0511811,
2,0,0,1,0,40584.5,0.0500336,0.0496944,-6.77562,21,0.00420779,10,-0.00033671,-2.16905,0.726428,0.0812193,-21.4935,0.0496944,
2,0,0,1,0,40584.5,0.0485444,0.0482113,-6.74383,21,0.00408182,10,-0.000325129,-2.17109,0.754516,0.0781958,-20.5907,0.0482113,
2,0,0,1,0,40584.5,0.0470408,0.0467447,-6.70933,21,0.00395509,10,-0.000313626,-2.17332,0.663141,0.0889706,-23.3007,0.0467447,
2,0,0,1,0,40584.6,0.0455444,0.0452055,-6.67617,21,0.00382965,10,-0.0003018,-2.17547,0.585958,0.10069,-26.2383,0.0452055,
2,0,0,1,0,40584.6,0.044048,0.0437197,-6.64294,21,0.00370489,10,-0.000290427,-2.17764,0.569674,0.103568,-26.8578,0.0437197,
2,0,0,1,0,40584.6,0.0425445,0.0422036,-6.60007,21,0.00358021,10,-0.000278547,-2.18045,0.534125,0.110461,-28.4742,0.0422036,
2,0,0,1,0,40584.6,0.0410552,0.0407209,-6.56551,21,0.0034575,10,-0.000267354,-2.18273,0.586054,0.100673,-25.8082,0.0407209,
2,0,0,1,0,40584.6,0.0395517,0.0392014,-6.53818,21,0.00333415,10,-0.000256306,-2.18454,0.557693,0.105793,-26.9537,0.0392014,
2,0,0,1,0,40584.7,0.0380481,0.0377085,-6.50375,21,0.00321147,10,-0.000245247,-2.18684,0.507399,0.116279,-29.4556,0.0377085,
2,0,0,1,0,40584.7,0.0365606,0.036202,-6.45445,21,0.00309092,10,-0.000233664,-2.19014,0.540609,0.109136,-27.4762,0.036202,
2,0,0,1,0,40584.7,0.0350571,0.034736,-6.41217,21,0.00296987,10,-0.000222733,-2.193,0.551339,0.107012,-26.7646,0.03473603,
2,0,0,1,0,40584.7,0.0335535,0.0332595,-6.37166,21,0.00284955,10,-0.000211918,-2.19575,0.551975,0.106889,-26.5599,0.0332595,
2,0,0,1,0,40584.7,0.0320643,0.0317141,-6.32465,21,0.00273132,10,-0.000200581,-2.19896,0.484083,0.12188,-30.0772,0.0317141,
2,0,0,1,0,40584.7,0.0305607,0.0302468,-6.27821,21,0.00261268,10,-0.000189896,-2.20216,0.492118,0.11989,-29.3773,0.0302468,
2,0,0,1,0,40584.8,0.0290643,0.0287341,-6.23252,21,0.00249553,10,-0.000179086,-2.20534,0.492823,0.119718,-29.1082,0.0287341,
2,0,0,1,0,40584.8,0.0275679,0.0271935,-6.18461,21,0.00237922,10,-0.000168181,-2.20869,0.470498,0.125399,-30.2802,0.0271935,
2,0,0,1,0,40584.8,0.0260644,0.0257132,-6.13536,21,0.0022632,10,-0.00015776,-2.21216,0.439438,0.134262,-32.1567,0.0257132,
2,0,0,1,0,40584.8,0.0245751,0.0242329,-6.0873,21,0.00214927,10,-0.000147513,-2.21557,0.41458,0.142313,-33.8159,0.0242329,
2,0,0,1,0,40584.8,0.0230716,0.022724,-6.03928,21,0.0020351,10,-0.000137236,-2.21901,0.41491,0.142199,-33.5373,0.022724,
2,0,0,1,0,40584.9,0.021568,0.021242,-5.98747,21,0.00192181,10,-0.000127186,-2.22276,0.429042,0.137516,-32.1517,0.02124198,
2,0,0,1,0,40584.9,0.0200805,0.0197787,-5.93912,21,0.00181062,10,-0.000117468,-2.22628,0.386588,0.152617,-35.3868,0.01977873,
2,0,0,1,0,40584.9,0.018577,0.0182541,-5.89529,21,0.00169916,10,-0.000107613,-2.2295,0.378769,0.155768,-35.8153,0.0182541,
2,0,0,1,0,40584.9,0.0170735,0.0167517,-5.84147,21,0.00158865,10,-9.78545e-05,-2.23348,0.431059,0.136872,-31.2347,0.01675169,
2,0,0,1,0,40584.9,0.0155842,0.015238,-5.79838,21,0.0014802,10,-8.83557e-05,-2.23669,0.443172,0.133131,-30.1442,0.015238,
2,0,0,1,0,40585,0.0140806,0.0137274,-5.75964,21,0.00137136,10,-7.90647e-05,-2.2396,0.427559,0.137993,-30.9822,0.0137274,
2,0,0,1,0,40585,0.0125842,0.0122335,-5.71849,21,0.00126389,10,-6.9957e-05,-2.24272,0.441064,0.133767,-29.825,0.0122335,
2,0,0,1,0,40585,0.0110878,0.0107825,-5.66723,21,0.00115735,10,-6.11068e-05,-2.24663,0.449929,0.131132,-29.0236,0.0107825,
2,0,0,1,0,40585,0.00958429,0.00930389,-5.629,21,0.00105101,10,-5.23716e-05,-2.24957,0.535088,0.110262,-24.2111,0.00930389,
2,0,0,1,0,40585,0.0080968,0.00774452,-5.5933,21,0.000946511,10,-4.33174e-05,-2.25233,0.539764,0.109307,-23.8598,0.00774452,
2,0,0,1,0,40585,0.00659326,0.00626968,-5.55249,21,0.000841594,10,-3.48124e-05,-2.25551,0.583746,0.101071,-21.8919,0.00626968,
2,0,0,1,0,40585.1,0.00508972,0.00477031,-5.50796,21,0.000737383,10,-2.62747e-05,-2.25901,0.598514,0.0985775,-21.2288,0.00477031,
2,0,0,1,0,40585.1,0.00360044,0.00327911,-5.48224,21,0.000634953,10,-1.79769e-05,-2.26104,1.07581,0.0548422,-11.7703,0.00327911,
2,0,0,1,0,40585.1,0.0020969,0.00171463,-5.4933,21,0.000531844,10,-9.419e-06,-2.26017,1.00051,0.0589699,-12.5788,0.00171463,
2,0,0,1,0,40585.1,0.000593362,0.000233321,-5.44393,21,0.000428839,10,-1.27019e-06,-2.26409, , , ,0.000233321,
2,0,0,1,0,40585.1,0.000199195,-0.000145903,-5.44079,21,0.00040212,10,7.93826e-07,-2.26434, , , ,-0.000145903,