File: Figure_codes/Fig_3-5/rawdata_trumpetplot_data/after 10th/20221101_1-115_003_TrumpetPlot_ParaChange_from10_every3_07_CV_C01_9.csv
mode,ox/red,error,control changes,counter inc.,time/s,control/V,Ewe/V,<I>/mA,cycle number,(Q-Qo)/C,I Range,P/W,log(|I|),Tafel slope mV/dec,alpha_eff,dI/d(E-IR),E-IR/V,
2,0,0,0,0,18896.2,2.44065e-05,-0.000287149,-2.75674,10,0.0000000E+000,10,7.91593e-07,-2.5596, , , ,-0.0002871489,
2,0,0,1,0,18896.2,0.0013005,0.000902795,-1.11732,10,-3.78308e-05,10,-1.00871e-06,-2.95182, , , ,0.000902795,
2,0,0,1,0,18896.2,0.00279471,0.00248799,-0.0108266,10,-5.03219e-05,10,-2.69365e-08,-4.96551,-0.013465,-4.38172,598.287,0.00248799,
2,1,0,1,0,18896.3,0.00429425,0.00397758,0.64604,10,-4.13859e-05,10,2.56967e-06,-3.18974,0.00696156,8.47511,376.114,0.00397758,
2,1,0,1,0,18896.3,0.00579379,0.0054651,1.07826,10,-1.9033e-05,10,5.89281e-06,-2.96728,0.00767547,7.68683,261.182,0.0054651,
2,1,0,1,0,18896.3,0.007288,0.00695975,1.38773,10,1.2358e-05,10,9.65824e-06,-2.8577,0.0161478,3.65374,184.025,0.00695975,
2,1,0,1,0,18896.3,0.00878882,0.00846213,1.62799,10,5.06865e-05,10,1.37762e-05,-2.78835,0.0261275,2.25816,137.662,0.00846213,
2,1,0,1,0,18896.4,0.0102896,0.00998384,1.81494,10,9.41704e-05,10,1.81201e-05,-2.74114,0.0375171,1.57262,108.154,0.00998384,
2,1,0,1,0,18896.4,0.0117838,0.0114988,1.94883,10,0.000141416,10,2.24091e-05,-2.71023,0.0505299,1.16762,87.5926,0.0114988,
2,1,0,1,0,18896.4,0.0132834,0.0129597,2.05666,10,0.000192019,10,2.66538e-05,-2.68684,0.0623378,0.946456,76.0107,0.0129597,
2,1,0,1,0,18896.4,0.0147816,0.0144439,2.16747,10,0.000245347,10,3.13067e-05,-2.66405,0.0786387,0.750266,63.1833,0.0144439,
2,1,0,1,0,18896.5,0.0162811,0.0159899,2.2608,10,0.000301256,10,3.61501e-05,-2.64574,0.0908794,0.649212,56.8601,0.0159899,
2,1,0,1,0,18896.5,0.0177753,0.0174771,2.342,10,0.000358977,10,4.09314e-05,-2.63041,0.10301,0.572763,52.1679,0.0174771,
2,1,0,1,0,18896.5,0.0192761,0.018979,2.40878,10,0.000418776,10,4.57163e-05,-2.6182,0.113691,0.518953,48.7868,0.018979,
2,1,0,1,0,18896.5,0.020777,0.0204314,2.48151,10,0.000480368,10,5.07006e-05,-2.60528,0.129613,0.455202,43.9922,0.0204314,
2,1,0,1,0,18896.6,0.0222712,0.0219689,2.55351,10,0.000543389,10,5.60979e-05,-2.59286,0.143326,0.411648,40.8176,0.0219689,
2,1,0,1,0,18896.6,0.0237707,0.0234982,2.60739,10,0.000608279,10,6.1269e-05,-2.58379,0.141879,0.415847,42.2701,0.0234982,
2,1,0,1,0,18896.6,0.0252703,0.0249581,2.65768,10,0.00067459,10,6.63309e-05,-2.5755,0.157132,0.375479,39.1559,0.0249581,
2,1,0,1,0,18896.6,0.0267645,0.0264582,2.72566,10,0.0007421,10,7.21161e-05,-2.56453,0.158207,0.37293,39.6879,0.0264582,
2,1,0,1,0,18896.7,0.0282653,0.0279674,2.79373,10,0.00081141,10,7.81334e-05,-2.55381,0.163545,0.360756,39.1439,0.0279674,
2,1,0,1,0,18896.7,0.0297648,0.0294265,2.84884,10,0.000882233,10,8.38315e-05,-2.54533,0.168943,0.349231,38.6776,0.0294265,
2,1,0,1,0,18896.7,0.031259,0.0309144,2.89195,10,0.000954119,10,8.94031e-05,-2.53881,0.177927,0.331597,37.5122,0.0309144,
2,1,0,1,0,18896.7,0.0327585,0.0324419,2.9514,10,0.00102762,10,9.5749e-05,-2.52997,0.195062,0.302468,34.8745,0.0324419,
2,1,0,1,0,18896.8,0.034258,0.0339441,3.01339,10,0.00110252,10,0.000102287,-2.52094,0.194815,0.302851,35.5435,0.0339441,
2,1,0,1,0,18896.8,0.0357576,0.0354551,3.0635,10,0.00117888,10,0.000108617,-2.51378,0.186982,0.315539,37.7041,0.0354551,
2,1,0,1,0,18896.8,0.0372518,0.0369263,3.11404,10,0.00125626,10,0.00011499,-2.50668,0.195116,0.302384,36.8153,0.0369263,
2,1,0,1,0,18896.8,0.0387526,0.0384418,3.16681,10,0.00133522,10,0.000121738,-2.49938,0.212379,0.277805,34.3986,0.0384418,
2,1,0,1,0,18896.9,0.0402534,0.0399306,3.2273,10,0.00141557,10,0.000128868,-2.49116,0.211602,0.278825,35.0642,0.0399306,
2,1,0,1,0,18896.9,0.0417476,0.0414318,3.28327,10,0.00149704,10,0.000136032,-2.48369,0.20281,0.290912,37.2195,0.0414318,
2,1,0,1,0,18896.9,0.0432472,0.0429105,3.33253,10,0.00158018,10,0.000143001,-2.47723,0.216998,0.271891,35.3743,0.0429105,
2,1,0,1,0,18896.9,0.0447467,0.0444301,3.38607,10,0.00166456,10,0.000150443,-2.4703,0.226894,0.260033,34.3573,0.0444301,
2,1,0,1,0,18897,0.0462463,0.0459606,3.44356,10,0.00175029,10,0.000158268,-2.46299,0.222074,0.265677,35.6233,0.0459606,
2,1,0,1,0,18897,0.0477391,0.0474758,3.49114,10,0.00183698,10,0.000165745,-2.45703,0.223961,0.263439,35.87,0.0474758,
2,1,0,1,0,18897,0.0492399,0.0489501,3.53513,10,0.00192532,10,0.000173045,-2.45159,0.241789,0.244014,33.7159,0.0489501,
2,1,0,1,0,18897,0.0507408,0.0503816,3.58746,10,0.00201488,10,0.000180742,-2.44521,0.27589,0.213853,29.9668,0.0503816,
2,1,0,1,0,18897.1,0.052235,0.0519022,3.64102,10,0.00210529,10,0.000188977,-2.43878,0.246601,0.239253,34.0133,0.05190222,
2,1,0,1,0,18897.1,0.0537345,0.053455,3.701,10,0.00219737,10,0.000197837,-2.43168,0.244826,0.240988,34.7009,0.053455,
2,1,0,1,0,18897.1,0.0552341,0.0549136,3.74024,10,0.00229079,10,0.00020539,-2.4271,0.25714,0.229447,33.4976,0.0549136,
2,1,0,1,0,18897.1,0.0567283,0.056416,3.78563,10,0.00238493,10,0.00021357,-2.42186,0.297901,0.198052,29.3249,0.056416,
2,1,0,1,0,18897.2,0.0582291,0.0578928,3.84115,10,0.0024806,10,0.000222375,-2.41554,0.302659,0.194939,29.1694,0.0578928,
2,1,0,1,0,18897.2,0.0597299,0.0594401,3.88701,10,0.0025775,10,0.000231044,-2.41038,0.27282,0.21626,32.7373,0.0594401,
2,1,0,1,0,18897.2,0.0612228,0.0608929,3.92935,10,0.00267519,10,0.000239269,-2.40568,0.293987,0.200689,30.7544,0.0608929,
2,1,0,1,0,18897.2,0.0627223,0.0624258,3.97333,10,0.00277441,10,0.000248038,-2.40085,0.325843,0.181069,28.0842,0.0624258,
2,1,0,1,0,18897.3,0.0642218,0.0639197,4.02076,10,0.00287465,10,0.000257006,-2.39569,0.317826,0.185636,29.1119,0.0639197,
2,1,0,1,0,18897.3,0.0657214,0.0654243,4.06286,10,0.00297602,10,0.00026581,-2.39117,0.293835,0.200793,31.8262,0.0654243,
2,1,0,1,0,18897.3,0.0672156,0.0668824,4.10307,10,0.00307817,10,0.000274423,-2.38689,0.315266,0.187144,29.9664,0.0668824,
2,1,0,1,0,18897.3,0.0687164,0.0684305,4.14935,10,0.00318185,10,0.000283942,-2.38202,0.373096,0.158136,25.6033,0.0684305,
2,1,0,1,0,18897.4,0.0702172,0.0698761,4.1912,10,0.00328646,10,0.000292864,-2.37766,0.379638,0.155411,25.4113,0.0698761,
2,1,0,1,0,18897.4,0.0717114,0.0714022,4.23282,10,0.00339167,10,0.000302233,-2.37337,0.339706,0.17368,28.6557,0.0714022,
2,1,0,1,0,18897.4,0.073211,0.0728709,4.26632,10,0.00349833,10,0.00031089,-2.36995,0.349673,0.168729,28.1452,0.0728709,
2,1,0,1,0,18897.4,0.0747105,0.0743909,4.30584,10,0.00360599,10,0.000320315,-2.36594,0.454538,0.129802,21.8119,0.07439094,
2,1,0,1,0,18897.5,0.0762101,0.0758782,4.34322,10,0.00371452,10,0.000329556,-2.36219,0.436655,0.135118,22.9018,0.0758782,
2,1,0,1,0,18897.5,0.0777042,0.0773673,4.38256,10,0.00382346,10,0.000339067,-2.35827,0.39221,0.15043,25.6887,0.0773673,
2,1,0,1,0,18897.5,0.0792037,0.0788868,4.41586,10,0.00393379,10,0.000348353,-2.35498,0.389363,0.151529,26.0902,0.0788868,
2,1,0,1,0,18897.5,0.0807046,0.0804,4.44954,10,0.00404506,10,0.000357743,-2.35168,0.509977,0.115691,20.0689,0.08039996,
2,1,0,1,0,18897.6,0.0821988,0.0818868,4.48418,10,0.00415664,10,0.000367195,-2.34832,0.569249,0.103645,18.1111,0.0818868,
2,1,0,1,0,18897.6,0.0836983,0.0833599,4.50831,10,0.00426935,10,0.000375812,-2.34599,0.452733,0.13032,22.9571,0.0833599,
2,1,0,1,0,18897.6,0.0851979,0.0848812,4.53969,10,0.00438293,10,0.000385335,-2.34297,0.43967,0.134192,23.8225,0.0848812,
2,1,0,1,0,18897.6,0.0866921,0.0863645,4.57541,10,0.00449694,10,0.000395153,-2.33957,0.509575,0.115783,20.7155,0.0863645,
2,1,0,1,0,18897.7,0.0881929,0.0878618,4.62264,10,0.0046123,10,0.000406154,-2.33511,0.471377,0.125165,22.5424,0.0878618,
2,1,0,1,0,18897.7,0.0896937,0.0893484,4.65673,10,0.00472846,10,0.000416071,-2.33192,0.418948,0.140829,25.5647,0.0893484,
2,1,0,1,0,18897.7,0.0911879,0.0908349,4.69118,10,0.00484514,10,0.000426123,-2.32872,0.365395,0.161469,29.5501,0.0908349,
2,1,0,1,0,18897.7,0.0926861,0.0923769,4.7308,10,0.00496328,10,0.000437016,-2.32507,0.385465,0.153062,28.2994,0.0923769,
2,1,0,1,0,18897.8,0.0941856,0.0938843,4.77848,10,0.00508253,10,0.000448624,-2.32071,0.385966,0.152863,28.4685,0.0938843,
2,1,0,1,0,18897.8,0.0956852,0.0953589,4.81511,10,0.00520282,10,0.000459163,-2.31739,0.334501,0.176382,33.1977,0.0953589,
2,1,0,1,0,18897.8,0.0971794,0.0968517,4.85818,10,0.0053237,10,0.000470523,-2.31353,0.291791,0.2022,38.4567,0.0968517,
2,1,0,1,0,18897.8,0.0986802,0.0983521,4.91779,10,0.00544644,10,0.000483675,-2.30823,0.280894,0.210043,40.4027,0.0983521,
2,1,0,1,0,18897.9,0.100181,0.0998389,4.98848,10,0.00557073,10,0.000498044,-2.30203,0.288391,0.204583,39.8081,0.0998389,
2,1,0,1,0,18897.9,0.101675,0.101362,5.05504,10,0.00569613,10,0.000512391,-2.29628,0.254612,0.231725,45.686,0.101362,
2,1,0,1,0,18897.9,0.103175,0.1029,5.11562,10,0.00582363,10,0.000526395,-2.2911,0.232906,0.253321,50.7083,0.1029,
2,1,0,1,0,18897.9,0.104674,0.104408,5.20014,10,0.00595302,10,0.000542938,-2.28399,0.224562,0.262734,53.3588,0.104408,
2,1,0,1,0,18898,0.106169,0.105837,5.28111,10,0.00608391,10,0.000558938,-2.27727,0.239276,0.246577,50.7547,0.105837,
2,1,0,1,0,18898,0.107668,0.107364,5.36203,10,0.00621734,10,0.000575687,-2.27067,0.228005,0.258767,54.1571,0.107364,
2,1,0,1,0,18898,0.109169,0.108817,5.44267,10,0.00635274,10,0.000592254,-2.26419,0.212413,0.277761,59.0593,0.108817,
2,1,0,1,0,18898,0.110663,0.110363,5.52333,10,0.00648974,10,0.000609569,-2.2578,0.217697,0.271018,58.4923,0.110363,
2,1,0,1,0,18898.1,0.112163,0.111839,5.61527,10,0.0066295,10,0.000628005,-2.25063,0.2353,0.250743,54.8945,0.111839,
2,1,0,1,0,18898.1,0.113662,0.113357,5.70792,10,0.00677142,10,0.000647031,-2.24352,0.232689,0.253558,56.4,0.113357,
2,1,0,1,0,18898.1,0.115162,0.114792,5.77656,10,0.00691531,10,0.000663103,-2.23833,0.243418,0.242381,54.7066,0.114792,
2,1,0,1,0,18898.1,0.116656,0.116363,5.85897,10,0.00706073,10,0.00068177,-2.23218,0.252175,0.233965,53.4986,0.116363,
2,1,0,1,0,18898.2,0.118157,0.117885,5.94965,10,0.00720881,10,0.000701376,-2.22551,0.28623,0.206128,47.7785,0.117885,
2,1,0,1,0,18898.2,0.119657,0.11929,6.02005,10,0.00735874,10,0.000718131,-2.2204,0.310953,0.189739,44.4865,0.11929,
2,1,0,1,0,18898.2,0.121152,0.120868,6.07435,10,0.00750971,10,0.000734191,-2.2165,0.320494,0.184091,43.6529,0.120868,
2,1,0,1,0,18898.2,0.122651,0.122343,6.13964,10,0.00766283,10,0.000751141,-2.21186,0.356478,0.165508,39.6544,0.122343,
2,1,0,1,0,18898.3,0.124151,0.123875,6.20206,10,0.00781747,10,0.000768281,-2.20746,0.379539,0.155452,37.5719,0.123875,
2,1,0,1,0,18898.3,0.125649,0.12533,6.2515,10,0.00797353,10,0.000783501,-2.20402,0.40845,0.144449,35.2076,0.12533,
2,1,0,1,0,18898.3,0.127143,0.126842,6.29656,10,0.00813025,10,0.000798668,-2.2009,0.43207,0.136552,33.5649,0.126842,
2,1,0,1,0,18898.3,0.128644,0.128312,6.34371,10,0.00828869,10,0.000813977,-2.19766,0.490922,0.120182,29.7625,0.128312,
2,1,0,1,0,18898.4,0.130145,0.129882,6.39925,10,0.00844835,10,0.000831147,-2.19387,0.513759,0.11484,28.623,0.129882,
2,1,0,1,0,18898.4,0.131639,0.131333,6.44384,10,0.0086085,10,0.00084629,-2.19085,0.551914,0.106901,26.8106,0.131333,
2,1,0,1,0,18898.4,0.133139,0.13282,6.47382,10,0.00877032,10,0.000859853,-2.18884,0.520767,0.113295,28.6377,0.13282,
2,1,0,1,0,18898.4,0.134638,0.134317,6.50883,10,0.00893301,10,0.000874247,-2.1865,0.624789,0.0944319,24.0085,0.134317,
2,1,0,1,0,18898.5,0.136132,0.135804,6.55069,10,0.00909605,10,0.000889609,-2.18371,0.684161,0.086237,22.0286,0.135804,
2,1,0,1,0,18898.5,0.137633,0.137321,6.59092,10,0.00926062,10,0.000905072,-2.18105,0.806545,0.0731515,18.7566,0.1373211,
2,1,0,1,0,18898.5,0.139133,0.138806,6.60713,10,0.00942591,10,0.000917106,-2.17999,1.1143,0.0529482,13.6283,0.138806,
2,1,0,1,0,18898.5,0.140627,0.140307,6.61627,10,0.00959093,10,0.00092831,-2.17939,2.13846,0.0275899,7.11825,0.140307,
2,1,0,1,0,18898.6,0.142126,0.141823,6.62494,10,0.00975686,10,0.000939565,-2.17882,-5.20807,-0.0113286,-2.92273,0.141823,
2,1,0,1,0,18898.6,0.143626,0.143337,6.61996,10,0.00992285,10,0.000948885,-2.17914,-1.10192,-0.0535429,-13.7761,0.143337,
2,1,0,1,0,18898.6,0.145125,0.144782,6.57989,10,0.0100883,10,0.000952647,-2.18178,-0.490879,-0.120192,-30.7886,0.144782,
2,1,0,1,0,18898.6,0.14662,0.1463,6.51391,10,0.0102518,10,0.000952986,-2.18616,-0.313681,-0.188089,-47.7519,0.1463,
2,1,0,1,0,18898.7,0.14812,0.147791,6.44333,10,0.0104143,10,0.000952266,-2.19089,-0.230261,-0.256232,-64.1229,0.147791,
2,1,0,1,0,18898.7,0.149621,0.149301,6.33771,10,0.0105744,10,0.000946226,-2.19807,-0.181595,-0.324899,-79.9411,0.1493009,
2,1,0,1,0,18898.7,0.151116,0.150811,6.19627,10,0.0107308,10,0.000934465,-2.20787,-0.142953,-0.412724,-99.3518,0.150811,
2,1,0,1,0,18898.7,0.152615,0.152304,6.02679,10,0.0108841,10,0.000917906,-2.21991,-0.118186,-0.499212,-117.109,0.152304,
2,1,0,1,0,18898.8,0.154115,0.153831,5.84778,10,0.0110329,10,0.000899567,-2.23301,-0.104118,-0.566667,-128.996,0.153831,
2,1,0,1,0,18898.8,0.155614,0.155295,5.65142,10,0.011177,10,0.000877638,-2.24784,-0.0944178,-0.624882,-137.301,0.1552951,
2,1,0,1,0,18898.8,0.157107,0.156808,5.42936,10,0.0113153,10,0.000851369,-2.26525,-0.087114,-0.677273,-143.302,0.156808,
2,1,0,1,0,18898.8,0.158608,0.158273,5.21376,10,0.0114488,10,0.000825195,-2.28285,-0.0811924,-0.726669,-147.776,0.158273,
2,1,0,1,0,18898.9,0.160109,0.159797,4.99592,10,0.0115767,10,0.000798335,-2.30138,-0.0809154,-0.729157,-142.191,0.159797,
2,1,0,1,0,18898.9,0.161603,0.16129,4.78954,10,0.0116988,10,0.000772502,-2.31971,-0.082339,-0.71655,-133.843,0.16129,
2,1,0,1,0,18898.9,0.163102,0.162825,4.58992,10,0.0118163,10,0.000747351,-2.3382,-0.0861143,-0.685136,-122.829,0.162825,
2,1,0,1,0,18898.9,0.164602,0.164249,4.39749,10,0.0119291,10,0.000722284,-2.3568,-0.0850677,-0.693565,-119.496,0.164249,
2,1,0,1,0,18899,0.166096,0.165771,4.2353,10,0.0120369,10,0.000702092,-2.37312,-0.0887697,-0.664641,-110.111,0.165771,
2,1,0,1,0,18899,0.167597,0.167326,4.08706,10,0.0121412,10,0.000683873,-2.38859,-0.100963,-0.584374,-93.4055,0.167326,
2,1,0,1,0,18899,0.169098,0.168805,3.95323,10,0.012242,10,0.000667327,-2.40305,-0.107103,-0.550873,-85.1325,0.168805,
2,1,0,1,0,18899,0.170592,0.170273,3.82531,10,0.0123393,10,0.000651348,-2.41733,-0.108582,-0.543371,-81.3296,0.170273,
2,1,0,1,0,18899.1,0.17209,0.17175,3.70885,10,0.0124338,10,0.000636995,-2.43076,-0.115549,-0.510605,-74.1399,0.17175,
2,1,0,1,0,18899.1,0.17359,0.173279,3.61645,10,0.0125257,10,0.000626655,-2.44172,-0.134673,-0.438097,-61.8706,0.173279,
2,1,0,1,0,18899.1,0.175089,0.174749,3.52122,10,0.0126152,10,0.00061533,-2.45331,-0.146517,-0.402683,-55.449,0.174749,
2,1,0,1,0,18899.1,0.176583,0.176299,3.43835,10,0.0127023,10,0.000606179,-2.46365,-0.144321,-0.408812,-54.9376,0.176299,
2,1,0,1,0,18899.2,0.178084,0.177776,3.36188,10,0.0127877,10,0.000597661,-2.47342,-0.150453,-0.39215,-51.5466,0.177776,
2,1,0,1,0,18899.2,0.179585,0.179262,3.29659,10,0.0128713,10,0.000590955,-2.48194,-0.182259,-0.323715,-41.7231,0.179262,
2,1,0,1,0,18899.2,0.181079,0.180778,3.23478,10,0.0129529,10,0.000584776,-2.49016,-0.205307,-0.287375,-36.3364,0.180778,
2,1,0,1,0,18899.2,0.182579,0.182281,3.17686,10,0.0130335,10,0.000579081,-2.498,-0.198624,-0.297044,-36.9034,0.182281,
2,1,0,1,0,18899.3,0.184078,0.183772,3.13036,10,0.0131128,10,0.000575273,-2.50441,-0.211721,-0.278669,-34.0466,0.183772,
2,1,0,1,0,18899.3,0.185578,0.185275,3.08138,10,0.0131907,10,0.000570902,-2.51125,-0.228265,-0.258472,-31.1034,0.185275,
2,1,0,1,0,18899.3,0.187072,0.186757,3.03739,10,0.0132673,10,0.000567254,-2.5175,-0.274143,-0.215216,-25.5389,0.1867575,
2,1,0,1,0,18899.3,0.188573,0.188267,2.99625,10,0.0133431,10,0.000564096,-2.52342,-0.276208,-0.213607,-25.0151,0.188267,
2,1,0,1,0,18899.4,0.190072,0.189778,2.96417,10,0.0134181,10,0.000562535,-2.5281,-0.270561,-0.218065,-25.2236,0.189778,
2,1,0,1,0,18899.4,0.191567,0.191248,2.93291,10,0.0134918,10,0.000560913,-2.5327,-0.32072,-0.183961,-21.0526,0.191248,
2,1,0,1,0,18899.4,0.193066,0.192741,2.89514,10,0.013565,10,0.000558014,-2.53833,-0.403924,-0.146067,-16.5473,0.192741,
2,1,0,1,0,18899.4,0.194566,0.19425,2.87442,10,0.0136376,10,0.000558355,-2.54145,-0.35926,-0.164226,-18.4312,0.19425,
2,1,0,1,0,18899.5,0.19606,0.195722,2.84972,10,0.0137092,10,0.000557754,-2.5452,-0.347831,-0.169623,-18.8677,0.195722,
2,1,0,1,0,18899.5,0.197561,0.19725,2.82317,10,0.0137805,10,0.000556871,-2.54926,-0.391956,-0.150527,-16.5813,0.19725,
2,1,0,1,0,18899.5,0.199062,0.198735,2.8024,10,0.0138511,10,0.000556935,-2.55247,-0.511,-0.11546,-12.6261,0.198735,
2,1,0,1,0,18899.5,0.200556,0.200212,2.77575,10,0.0139209,10,0.000555737,-2.55662,-0.505418,-0.116735,-12.6629,0.200212,
2,1,0,1,0,18899.6,0.202055,0.201745,2.76355,10,0.0139906,10,0.000557532,-2.55853,-0.445448,-0.132451,-14.2543,0.2017446,
2,1,0,1,0,18899.6,0.203553,0.203258,2.74567,10,0.0140598,10,0.000558078,-2.56135,-0.539537,-0.109353,-11.6974,0.203258,
2,1,0,1,0,18899.6,0.205053,0.204706,2.71628,10,0.0141285,10,0.000556038,-2.56603,-0.852297,-0.0692247,-7.38572,0.204706,
2,1,0,1,0,18899.6,0.206547,0.206204,2.70359,10,0.0141965,10,0.00055749,-2.56806,-0.691031,-0.0853797,-9.04708,0.2062037,
2,1,0,1,0,18899.7,0.208048,0.207723,2.69578,10,0.0142646,10,0.000559976,-2.56932,-0.502342,-0.11745,-12.337,0.207723,
2,1,0,1,0,18899.7,0.209549,0.209289,2.68804,10,0.0143323,10,0.000562578,-2.57056,-0.597149,-0.0988028,-10.34,0.209289,
2,1,0,1,0,18899.7,0.211043,0.210745,2.67062,10,0.0143993,10,0.000562819,-2.57339,-0.876174,-0.0673382,-7.0128,0.210745,
2,1,0,1,0,18899.7,0.212543,0.212225,2.65165,10,0.0144662,10,0.000562746,-2.57648,-0.789167,-0.0747624,-7.75124,0.212225,
2,1,0,1,0,18899.8,0.214042,0.213742,2.64388,10,0.0145328,10,0.000565109,-2.57776,-0.710784,-0.083007,-8.57479,0.213742,
2,1,0,1,0,18899.8,0.215536,0.215192,2.63861,10,0.0145989,10,0.000567809,-2.57862,-0.739853,-0.0797455,-8.19751,0.215192,
2,1,0,1,0,18899.8,0.217036,0.216747,2.61914,10,0.014665,10,0.00056769,-2.58184,-1.31519,-0.0448606,-4.59385,0.2167467,
2,1,0,1,0,18899.8,0.218537,0.218265,2.60807,10,0.0147308,10,0.000569251,-2.58368,-1.10294,-0.0534936,-5.46225,0.218265,
2,1,0,1,0,18899.9,0.220031,0.219723,2.60885,10,0.0147962,10,0.000573224,-2.58355,-0.918405,-0.0642418,-6.52662,0.219723,
2,1,0,1,0,18899.9,0.22153,0.221247,2.6021,10,0.0148616,10,0.000575706,-2.58468,-0.845336,-0.0697947,-7.0613,0.221247,
2,1,0,1,0,18899.9,0.22303,0.222712,2.5815,10,0.0149268,10,0.000574931,-2.58813,-1.35999,-0.0433826,-4.38656,0.222712,
2,1,0,1,0,18899.9,0.224529,0.224259,2.57335,10,0.0149917,10,0.000577098,-2.5895,-1.01925,-0.0578856,-5.83479,0.224259,
2,1,0,1,0,18900,0.226024,0.2257,2.5648,10,0.0150562,10,0.000578875,-2.59095,-0.957023,-0.0616495,-6.18443,0.2257,
2,1,0,1,0,18900,0.227525,0.227246,2.56661,10,0.0151208,10,0.000583253,-2.59064,-1.02132,-0.0577682,-5.77183,0.227246,
2,1,0,1,0,18900,0.229025,0.228717,2.55126,10,0.0151852,10,0.000583517,-2.59325,-1.57271,-0.0375148,-3.74224,0.228717,
2,1,0,1,0,18900,0.23052,0.230266,2.54532,10,0.0152491,10,0.000586103,-2.59426,-1.4546,-0.040561,-4.04281,0.230266,
2,1,0,1,0,18900.1,0.232019,0.231691,2.54317,10,0.0153131,10,0.000589231,-2.59462,-1.41898,-0.0415793,-4.12398,0.231691,
2,1,0,1,0,18900.1,0.233519,0.233244,2.54217,10,0.015377,10,0.000592945,-2.5948,-1.4791,-0.0398892,-3.94369,0.233244,
2,1,0,1,0,18900.1,0.235018,0.234673,2.53264,10,0.0154407,10,0.000594343,-2.59643,-4.32511,-0.0136413,-1.34897,0.234673,
2,1,0,1,0,18900.1,0.236511,0.236209,2.52068,10,0.015504,10,0.000595408,-2.59848,-1.58827,-0.0371474,-3.66328,0.236209,
2,1,0,1,0,18900.2,0.238012,0.237752,2.51522,10,0.0155674,10,0.000597996,-2.59942,-1.3103,-0.0450279,-4.42158,0.237752,
2,1,0,1,0,18900.2,0.239513,0.23923,2.51276,10,0.0156306,10,0.000601127,-2.59985,-1.64751,-0.0358116,-3.50699,0.23923,
2,1,0,1,0,18900.2,0.241007,0.240679,2.5042,10,0.0156935,10,0.000602709,-2.60133,-1.94828,-0.0302831,-2.96245,0.240679,
2,1,0,1,0,18900.2,0.242506,0.242207,2.48731,10,0.0157564,10,0.000602445,-2.60427,-1.21322,-0.048631,-4.75115,0.242207,
2,1,0,1,0,18900.3,0.244006,0.243685,2.49138,10,0.0158193,10,0.000607112,-2.60356,-2.43312,-0.0242487,-2.3627,0.243685,
2,1,0,1,0,18900.3,0.2455,0.245195,2.49997,10,0.0158817,10,0.000612979,-2.60207,-1.45567,-0.0405311,-3.94147,0.245195,
2,1,0,1,0,18900.3,0.247001,0.24673,2.48862,10,0.0159444,10,0.000614018,-2.60404,-2.04535,-0.028846,-2.79628,0.24673,
2,1,0,1,0,18900.3,0.248502,0.248198,2.47871,10,0.0160069,10,0.000615211,-2.60577,-1.14977,-0.0513147,-4.97203,0.248198,
2,1,0,1,0,18900.4,0.249995,0.249658,2.47283,10,0.0160689,10,0.000617361,-2.60681,-0.876831,-0.0672878,-6.50133,0.249658,
2,1,0,1,0,18900.4,0.251494,0.251195,2.47564,10,0.0161311,10,0.000621869,-2.60631,-2.36208,-0.024978,-2.40693,0.251195,
2,1,0,1,0,18900.4,0.252994,0.252644,2.46655,10,0.0161932,10,0.000623158,-2.60791,-1.62987,-0.0361993,-3.48018,0.2526435,
2,1,0,1,0,18900.4,0.254493,0.254177,2.45712,10,0.0162552,10,0.000624544,-2.60957,-1.28741,-0.0458284,-4.41254,0.254177,
2,1,0,1,0,18900.5,0.255988,0.255695,2.45512,10,0.0163167,10,0.000627764,-2.60993,-1.10995,-0.0531554,-5.09266,0.255695,
2,1,0,1,0,18900.5,0.257488,0.257208,2.45668,10,0.0163785,10,0.000631876,-2.60965,-2.9985,-0.0196765,-1.88124,0.257208,
2,1,0,1,0,18900.5,0.258989,0.258701,2.45108,10,0.0164401,10,0.000634097,-2.61064,-3.60274,-0.0163764,-1.56266,0.258701,
2,1,0,1,0,18900.5,0.260483,0.260168,2.44029,10,0.0165014,10,0.000634885,-2.61256,-1.05226,-0.0560696,-5.34476,0.260168,
2,1,0,1,0,18900.6,0.261983,0.261691,2.43815,10,0.0165628,10,0.000638042,-2.61294,-1.07782,-0.05474,-5.214,0.261691,
2,1,0,1,0,18900.6,0.263482,0.263236,2.43588,10,0.016624,10,0.00064121,-2.61334,-3.968,-0.0148689,-1.41083,0.263236,
2,1,0,1,0,18900.6,0.264982,0.264651,2.43077,10,0.0166852,10,0.000643305,-2.61426,-30.7513,-0.00191862,-0.18182,0.264651,
2,1,0,1,0,18900.6,0.266476,0.266197,2.41896,10,0.016746,10,0.00064392,-2.61637,-1.86794,-0.0315856,-2.99122,0.266197,
2,1,0,1,0,18900.7,0.267976,0.267663,2.41509,10,0.0168069,10,0.000646431,-2.61707,-1.37441,-0.0429275,-4.05725,0.267663,
2,1,0,1,0,18900.7,0.269477,0.269145,2.41701,10,0.0168677,10,0.000650527,-2.61672,-3.10251,-0.0190168,-1.79169,0.269145,
2,1,0,1,0,18900.7,0.270971,0.270704,2.41456,10,0.0169282,10,0.000653632,-2.61716,7.74511,0.00761771,0.71572,0.2707037,
2,1,0,1,0,18900.7,0.27247,0.27217,2.40591,10,0.0169888,10,0.000654816,-2.61872,-1.10641,-0.0533254,-5.00848,0.27217,
2,1,0,1,0,18900.8,0.27397,0.273666,2.39955,10,0.0170493,10,0.000656676,-2.61987,-0.954296,-0.0618257,-5.79888,0.273666,
2,1,0,1,0,18900.8,0.275464,0.275124,2.40038,10,0.0171094,10,0.000660401,-2.61972,-1.59824,-0.0369156,-3.4523,0.275124,
2,1,0,1,0,18900.8,0.276965,0.276691,2.39357,10,0.0171697,10,0.000662281,-2.62095,-3.03955,-0.0194107,-1.81398,0.276691,
2,1,0,1,0,18900.8,0.278466,0.278188,2.38516,10,0.0172298,10,0.000663521,-2.62248,-1.15538,-0.0510657,-4.75472,0.278188,
2,1,0,1,0,18900.9,0.27996,0.279688,2.38288,10,0.0172896,10,0.000666465,-2.6229,-1.44935,-0.040708,-3.78252,0.279688,
2,1,0,1,0,18900.9,0.281458,0.281155,2.37926,10,0.0173494,10,0.000668939,-2.62356,-3.4374,-0.0171642,-1.59074,0.281155,
2,1,0,1,0,18900.9,0.282958,0.282641,2.3716,10,0.0174092,10,0.000670312,-2.62496,4.8742,0.0121046,1.12093,0.282641,
2,1,0,1,0,18900.9,0.284457,0.284144,2.36834,10,0.0174688,10,0.00067295,-2.62556,-2.28068,-0.0258695,-2.39339,0.284144,
2,1,0,1,0,18901,0.285951,0.285621,2.36138,10,0.0175282,10,0.000674458,-2.62683,-1.30353,-0.0452617,-4.17619,0.285621,
2,1,0,1,0,18901,0.287452,0.287202,2.36465,10,0.0175876,10,0.000679133,-2.62623,-1.18116,-0.049951,-4.59704,0.287202,
2,1,0,1,0,18901,0.288953,0.288626,2.35693,10,0.0176469,10,0.000680273,-2.62765,-8.79151,-0.00671102,-0.615742,0.288626,
2,1,0,1,0,18901,0.290447,0.290132,2.34822,10,0.0177059,10,0.000681292,-2.62926,-2.10783,-0.0279909,-2.56582,0.290132,
2,1,0,1,0,18901.1,0.291947,0.291669,2.3458,10,0.0177649,10,0.000684197,-2.62971,-0.997476,-0.0591493,-5.41614,0.291669,
2,1,0,1,0,18901.1,0.293446,0.293123,2.33575,10,0.0178239,10,0.000684664,-2.63157,-1.25094,-0.0471644,-4.30377,0.293123,
2,1,0,1,0,18901.1,0.29494,0.294638,2.33503,10,0.0178824,10,0.000687986,-2.63171,-13.7857,-0.00427979,-0.390078,0.294638,
2,1,0,1,0,18901.1,0.29644,0.296152,2.33089,10,0.0179411,10,0.000690298,-2.63248,-2.65656,-0.0222092,-2.02086,0.296152,
2,1,0,1,0,18901.2,0.297941,0.297671,2.3281,10,0.0179997,10,0.000693007,-2.633,-1.15103,-0.0512585,-4.6443,0.297671,
2,1,0,1,0,18901.2,0.29944,0.299134,2.3206,10,0.0180582,10,0.000694171,-2.6344,-0.00613876,-9.61106,-639.859,0.299134,
2,1,0,1,0,18901.2,0.299736,0.299446,1.81868,10,0.0180881,10,0.000544594,-2.74024,0.00115912,50.9009,1776.27,0.299446,
2,1,0,1,0,18901.2,0.298238,0.297939,0.464573,10,0.0181133,10,0.000138414,-3.33295,0.00374606,15.7499,664.891,0.297939,
2,0,0,1,0,18901.2,0.296744,0.296422,-0.0895397,10,0.0181166,10,-2.65416e-05,-4.04798,0.0169527,3.48026,297.645,0.296422,
2,0,0,1,0,18901.3,0.295243,0.294968,-0.383951,10,0.0181098,10,-0.000113253,-3.41572,-0.00365871,-16.1259,158.431,0.294968,
2,0,0,1,0,18901.3,0.293742,0.293433,-0.55032,10,0.0180976,10,-0.000161482,-3.25938,-0.010952,-5.38713,98.9731,0.293433,
2,0,0,1,0,18901.3,0.292248,0.291909,-0.658973,10,0.018082,10,-0.00019236,-3.18113,-0.0206687,-2.85456,70.0233,0.291909,
2,0,0,1,0,18901.3,0.290748,0.290417,-0.749122,10,0.0180639,10,-0.000217558,-3.12545,-0.0318207,-1.85414,52.757,0.290417,
2,0,0,1,0,18901.4,0.289249,0.288898,-0.820985,10,0.0180438,10,-0.000237181,-3.08566,-0.0440275,-1.34007,42.2053,0.288898,
2,0,0,1,0,18901.4,0.287754,0.287468,-0.881994,10,0.0180222,10,-0.000253545,-3.05453,-0.0545835,-1.08091,36.5676,0.287468,
2,0,0,1,0,18901.4,0.286254,0.285948,-0.920934,10,0.0179993,10,-0.000263339,-3.03577,-0.0666538,-0.88517,31.8233,0.285948,
2,0,0,1,0,18901.4,0.284754,0.284412,-0.969473,10,0.0179752,10,-0.00027573,-3.01346,-0.0762425,-0.773846,29.152,0.284412,
2,0,0,1,0,18901.5,0.28326,0.282905,-1.01604,10,0.01795,10,-0.000287444,-2.99309,-0.0866843,-0.680631,26.7284,0.282905,
2,0,0,1,0,18901.5,0.28176,0.281415,-1.05453,10,0.0179238,10,-0.000296762,-2.97694,-0.0979288,-0.602479,24.49,0.281415,
2,0,0,1,0,18901.5,0.280261,0.279941,-1.07731,10,0.0178967,10,-0.000301583,-2.96766,-0.103921,-0.567737,24.0239,0.279941,
2,0,0,1,0,18901.5,0.278761,0.278465,-1.11046,10,0.0178688,10,-0.000309224,-2.9545,-0.136816,-0.431235,18.7761,0.278465,
2,0,0,1,0,18901.6,0.277267,0.276953,-1.14586,10,0.0178402,10,-0.000317349,-2.94087,-0.151235,-0.390121,17.3956,0.2769531,
2,0,0,1,0,18901.6,0.275766,0.275434,-1.17935,10,0.0178108,10,-0.000324832,-2.92836,-0.155188,-0.380184,17.3185,0.2754339,
2,0,0,1,0,18901.6,0.274265,0.27397,-1.1999,10,0.0177807,10,-0.000328735,-2.92086,-0.154383,-0.382166,17.918,0.27397,
2,0,0,1,0,18901.6,0.272771,0.272417,-1.22337,10,0.0177501,10,-0.000333265,-2.91244,-0.173299,-0.340451,16.3168,0.272417,
2,0,0,1,0,18901.7,0.271272,0.270955,-1.25437,10,0.0177187,10,-0.000339879,-2.90157,-0.179576,-0.328551,15.9945,0.270955,
2,0,0,1,0,18901.7,0.269772,0.269457,-1.27644,10,0.0176867,10,-0.000343945,-2.894,-0.177489,-0.332415,16.4898,0.2694571,
2,0,0,1,0,18901.7,0.268273,0.267986,-1.29307,10,0.0176541,10,-0.000346525,-2.88838,-0.19251,-0.306477,15.5204,0.267986,
2,0,0,1,0,18901.7,0.26678,0.266462,-1.31131,10,0.0176212,10,-0.000349414,-2.8823,-0.20915,-0.282094,14.4934,0.266462,
2,0,0,1,0,18901.8,0.265279,0.264977,-1.33898,10,0.0175876,10,-0.000354798,-2.87323,-0.206905,-0.285156,14.8362,0.264977,
2,0,0,1,0,18901.8,0.263778,0.263479,-1.35878,10,0.0175535,10,-0.00035801,-2.86685,-0.229285,-0.257321,13.6003,0.263479,
2,0,0,1,0,18901.8,0.262284,0.261909,-1.37909,10,0.017519,10,-0.000361197,-2.86041,-0.22624,-0.260784,14.0201,0.2619091,
2,0,0,1,0,18901.8,0.260784,0.260482,-1.38679,10,0.0174839,10,-0.000361235,-2.85799,-0.286927,-0.205627,11.2182,0.260482,
2,0,0,1,0,18901.9,0.259285,0.258994,-1.41363,10,0.0174484,10,-0.000366122,-2.84966,-0.266087,-0.221732,12.2143,0.258994,
2,0,0,1,0,18901.9,0.257791,0.257515,-1.43668,10,0.0174126,10,-0.000369968,-2.84264,-0.2281,-0.258658,14.4245,0.257515,
2,0,0,1,0,18901.9,0.25629,0.255946,-1.44902,10,0.0173761,10,-0.00037087,-2.83893,-0.289978,-0.203464,11.4915,0.255946,
2,0,0,1,0,18901.9,0.254789,0.254512,-1.46525,10,0.0173392,10,-0.000372925,-2.83409,-0.330444,-0.178547,10.2092,0.254512,
2,0,0,1,0,18902,0.253296,0.252957,-1.47868,10,0.0173022,10,-0.000374043,-2.83013,-0.341334,-0.172851,9.98728,0.252957,
2,0,0,1,0,18902,0.251797,0.251472,-1.49517,10,0.0172645,10,-0.000375993,-2.82531,-0.26401,-0.223477,13.0307,0.251472,
2,0,0,1,0,18902,0.250297,0.250003,-1.51136,10,0.0172265,10,-0.000377845,-2.82063,-0.294841,-0.200108,11.7941,0.250003,
2,0,0,1,0,18902,0.248797,0.248475,-1.52457,10,0.017188,10,-0.000378817,-2.81685,-0.481546,-0.122522,7.31323,0.248475,
2,0,0,1,0,18902.1,0.247303,0.246951,-1.54502,10,0.0171494,10,-0.000381543,-2.81107,-0.382543,-0.154231,9.29071,0.246951,
2,0,0,1,0,18902.1,0.245802,0.245476,-1.56507,10,0.0171102,10,-0.000384187,-2.80547,-0.310566,-0.189976,11.5184,0.245476,
2,0,0,1,0,18902.1,0.244302,0.243985,-1.5771,10,0.0170705,10,-0.000384787,-2.80214,-0.348402,-0.169345,10.3881,0.243985,
2,0,0,1,0,18902.1,0.242807,0.242507,-1.58593,10,0.0170307,10,-0.000384599,-2.79972,-0.516191,-0.114299,7.09065,0.242507,
2,0,0,1,0,18902.2,0.241308,0.241047,-1.60228,10,0.0169904,10,-0.000386225,-2.79526,-0.666832,-0.0884781,5.53191,0.241047,
2,0,0,1,0,18902.2,0.239808,0.239463,-1.61831,10,0.0169498,10,-0.000387525,-2.79094,-0.300212,-0.196528,12.3765,0.2394627,
2,0,0,1,0,18902.2,0.238309,0.238007,-1.62628,10,0.0169088,10,-0.000387067,-2.7888,-0.344149,-0.171437,10.9325,0.238007,
2,0,0,1,0,18902.2,0.236815,0.236467,-1.64021,10,0.0168676,10,-0.000387857,-2.7851,-0.417935,-0.14117,9.05831,0.2364669,
2,0,0,1,0,18902.3,0.235315,0.234997,-1.65173,10,0.016826,10,-0.000388151,-2.78206,-0.530089,-0.111302,7.18772,0.234997,
2,0,0,1,0,18902.3,0.233814,0.233504,-1.66934,10,0.016784,10,-0.000389797,-2.77745,-0.352126,-0.167553,10.922,0.233504,
2,0,0,1,0,18902.3,0.23232,0.231997,-1.68323,10,0.0167418,10,-0.000390506,-2.77386,-0.354978,-0.166208,10.9128,0.231997,
2,0,0,1,0,18902.3,0.230821,0.230488,-1.69389,10,0.0166991,10,-0.000390422,-2.77111,-0.646097,-0.0913175,6.05522,0.2304883,
2,0,0,1,0,18902.4,0.229321,0.228973,-1.71089,10,0.016656,10,-0.000391748,-2.76678,-0.662638,-0.089038,5.93933,0.228973,
2,0,0,1,0,18902.4,0.227827,0.227525,-1.71899,10,0.0166129,10,-0.000391113,-2.76473,-0.414641,-0.142292,9.55873,0.227525,
2,0,0,1,0,18902.4,0.226326,0.226038,-1.73409,10,0.0165693,10,-0.00039197,-2.76093,-0.399775,-0.147583,10.0055,0.226038,
2,0,0,1,0,18902.4,0.224825,0.22449,-1.74748,10,0.0165253,10,-0.000392292,-2.75759,-0.505665,-0.116678,7.96454,0.22449,
2,0,0,1,0,18902.5,0.223331,0.223043,-1.76491,10,0.0164812,10,-0.000393651,-2.75328,-0.607726,-0.0970832,6.6591,0.223043,
2,0,0,1,0,18902.5,0.221831,0.221499,-1.77754,10,0.0164366,10,-0.000393723,-2.75018,-0.396405,-0.148838,10.3034,0.221499,
2,0,0,1,0,18902.5,0.220333,0.22005,-1.78717,10,0.0163917,10,-0.000393266,-2.74783,-0.322809,-0.182771,12.7492,0.22005,
2,0,0,1,0,18902.5,0.218834,0.218547,-1.79509,10,0.0163464,10,-0.000392312,-2.74591,-0.427687,-0.137951,9.70676,0.218547,
2,0,0,1,0,18902.6,0.217339,0.216994,-1.81808,10,0.0163009,10,-0.000394513,-2.74039,-0.816144,-0.0722911,5.10536,0.216994,
2,0,0,1,0,18902.6,0.215839,0.215513,-1.82558,10,0.016255,10,-0.000393435,-2.7386,-0.525126,-0.112354,7.99867,0.215513,
2,0,0,1,0,18902.6,0.214338,0.214033,-1.8352,10,0.0162089,10,-0.000392793,-2.73632,-0.384629,-0.153395,10.9849,0.214033,
2,0,0,1,0,18902.6,0.212844,0.212524,-1.84808,10,0.0161625,10,-0.000392761,-2.73328,-0.544464,-0.108364,7.83208,0.212524,
2,0,0,1,0,18902.7,0.211344,0.211039,-1.86254,10,0.0161157,10,-0.00039307,-2.72989,-0.888919,-0.0663728,4.82341,0.211039,
2,0,0,1,0,18902.7,0.209845,0.209558,-1.87526,10,0.0160685,10,-0.000392974,-2.72694,-0.489193,-0.120607,8.82483,0.209558,
2,0,0,1,0,18902.7,0.20835,0.20806,-1.8854,10,0.0160213,10,-0.000392276,-2.7246,-0.368012,-0.160321,11.8621,0.2080602,
2,0,0,1,0,18902.7,0.206851,0.206502,-1.90477,10,0.0159734,10,-0.00039334,-2.72016,-0.489333,-0.120572,8.96416,0.206502,
2,0,0,1,0,18902.8,0.20535,0.205009,-1.92316,10,0.0159251,10,-0.000394265,-2.71599,-0.584,-0.101027,7.54821,0.205009,
2,0,0,1,0,18902.8,0.203856,0.203528,-1.93632,10,0.0158767,10,-0.000394097,-2.71302,-0.585983,-0.100686,7.58739,0.203528,
2,0,0,1,0,18902.8,0.202356,0.202048,-1.94056,10,0.0158279,10,-0.000392088,-2.71207,-0.432258,-0.136493,10.3591,0.202048,
2,0,0,1,0,18902.8,0.200857,0.200512,-1.95365,10,0.0157788,10,-0.00039173,-2.70915,-0.463283,-0.127352,9.73764,0.200512,
2,0,0,1,0,18902.9,0.199357,0.199023,-1.9706,10,0.0157292,10,-0.000392193,-2.7054,-0.768188,-0.0768041,5.90149,0.199023,
2,0,0,1,0,18902.9,0.197863,0.197535,-1.98772,10,0.0156796,10,-0.000392645,-2.70164,-0.456063,-0.129368,9.99893,0.197535,
2,0,0,1,0,18902.9,0.196362,0.196029,-2.00079,10,0.0156295,10,-0.000392212,-2.6988,-0.379091,-0.155635,12.1373,0.196029,
2,0,0,1,0,18902.9,0.194861,0.194504,-2.0116,10,0.0155789,10,-0.000391264,-2.69646,-0.421534,-0.139965,10.9894,0.194504,
2,0,0,1,0,18903,0.193367,0.193042,-2.03157,10,0.0155281,10,-0.000392178,-2.69217,-0.489014,-0.120651,9.54845,0.1930421,
2,0,0,1,0,18903,0.191868,0.191566,-2.04865,10,0.0154767,10,-0.000392451,-2.68853,-0.500679,-0.11784,9.39781,0.191566,
2,0,0,1,0,18903,0.190368,0.190055,-2.05042,10,0.015425,10,-0.000389692,-2.68816,-0.388127,-0.152012,12.229,0.190055,
2,0,0,1,0,18903,0.18887,0.188548,-2.07437,10,0.0153729,10,-0.000391119,-2.68311,-0.431484,-0.136737,11.0883,0.188548,
2,0,0,1,0,18903.1,0.187376,0.187059,-2.09464,10,0.0153206,10,-0.000391821,-2.67889,-0.452301,-0.130444,10.6584,0.187059,
2,0,0,1,0,18903.1,0.185875,0.185553,-2.11418,10,0.0152676,10,-0.000392293,-2.67486,-0.458044,-0.128809,10.5976,0.185553,
2,0,0,1,0,18903.1,0.184374,0.184031,-2.12473,10,0.0152141,10,-0.000391016,-2.6727,-0.342819,-0.172103,14.2869,0.184031,
2,0,0,1,0,18903.1,0.18288,0.182535,-2.14359,10,0.0151606,10,-0.000391279,-2.66886,-0.370363,-0.159303,13.3794,0.182535,
2,0,0,1,0,18903.2,0.18138,0.181066,-2.16742,10,0.0151063,10,-0.000392446,-2.66406,-0.392132,-0.150459,12.7214,0.181066,
2,0,0,1,0,18903.2,0.179881,0.179524,-2.19301,10,0.0150513,10,-0.000393699,-2.65896,-0.418493,-0.140982,12.0187,0.179524,
2,0,0,1,0,18903.2,0.178387,0.178019,-2.20643,10,0.0149962,10,-0.000392786,-2.65631,-0.320193,-0.184264,15.886,0.178019,
2,0,0,1,0,18903.2,0.176886,0.176582,-2.22374,10,0.0149404,10,-0.000392673,-2.65292,-0.359071,-0.164313,14.3437,0.1765822,
2,0,0,1,0,18903.3,0.175385,0.175048,-2.25463,10,0.014884,10,-0.000394669,-2.64693,-0.322065,-0.183193,16.0868,0.175048,
2,0,0,1,0,18903.3,0.173892,0.173581,-2.28491,10,0.0148271,10,-0.000396617,-2.64113,-0.293122,-0.201281,17.8701,0.173581,
2,0,0,1,0,18903.3,0.172392,0.172071,-2.30493,10,0.0147694,10,-0.000396611,-2.63734,-0.292622,-0.201625,18.1184,0.172071,
2,0,0,1,0,18903.3,0.170893,0.170608,-2.32196,10,0.0147112,10,-0.000396145,-2.63415,-0.313581,-0.188149,17.1307,0.170608,
2,0,0,1,0,18903.4,0.169393,0.169098,-2.35869,10,0.0146522,10,-0.00039885,-2.62733,-0.255299,-0.231101,21.2596,0.169098,
2,0,0,1,0,18903.4,0.167899,0.167594,-2.39303,10,0.0145926,10,-0.000401058,-2.62105,-0.238813,-0.247055,23.0171,0.167594,
2,0,0,1,0,18903.4,0.166398,0.166081,-2.42309,10,0.014532,10,-0.000402429,-2.61563,-0.250258,-0.235756,22.3101,0.166081,
2,0,0,1,0,18903.4,0.164898,0.164577,-2.45033,10,0.0144706,10,-0.000403268,-2.61078,-0.244184,-0.241621,23.1931,0.164577,
2,0,0,1,0,18903.5,0.163403,0.163088,-2.49707,10,0.0144086,10,-0.000407243,-2.60257,-0.218311,-0.270257,26.3143,0.163088,
2,0,0,1,0,18903.5,0.161904,0.161581,-2.54139,10,0.0143452,10,-0.000410641,-2.59493,-0.195898,-0.301178,29.8086,0.161581,
2,0,0,1,0,18903.5,0.160404,0.160089,-2.57962,10,0.0142808,10,-0.000412969,-2.58844,-0.190404,-0.309868,31.2398,0.160089,
2,0,0,1,0,18903.5,0.158905,0.158613,-2.6218,10,0.0142153,10,-0.000415851,-2.5814,-0.180706,-0.326497,33.5794,0.158613,
2,0,0,1,0,18903.6,0.157411,0.15711,-2.68075,10,0.0141488,10,-0.000421172,-2.57174,-0.168943,-0.349231,36.6374,0.15711,
2,0,0,1,0,18903.6,0.155911,0.155575,-2.74119,10,0.0140806,10,-0.000426462,-2.56206,-0.154201,-0.382618,40.9304,0.155575,
2,0,0,1,0,18903.6,0.15441,0.154055,-2.80438,10,0.0140108,10,-0.00043203,-2.55216,-0.143514,-0.411111,44.9755,0.154055,
2,0,0,1,0,18903.6,0.152916,0.152606,-2.86489,10,0.0139397,10,-0.000437199,-2.54289,-0.138045,-0.427397,47.9959,0.152606,
2,0,0,1,0,18903.7,0.151417,0.151075,-2.9446,10,0.0138667,10,-0.000444856,-2.53097,-0.132602,-0.444939,51.3049,0.151075,
2,0,0,1,0,18903.7,0.149917,0.149574,-3.03444,10,0.0137915,10,-0.000453874,-2.51792,-0.115743,-0.50975,60.3615,0.149574,
2,0,0,1,0,18903.7,0.148423,0.148115,-3.12697,10,0.0137144,10,-0.000463152,-2.50488,-0.106389,-0.554569,67.7788,0.148115,
2,0,0,1,0,18903.7,0.146922,0.146595,-3.22207,10,0.0136346,10,-0.000472339,-2.49187,-0.104373,-0.565279,71.3434,0.146595,
2,0,0,1,0,18903.8,0.145421,0.145074,-3.3361,10,0.0135521,10,-0.000483982,-2.47676,-0.100029,-0.58983,77.0053,0.145074,
2,0,0,1,0,18903.8,0.143927,0.143594,-3.46374,10,0.0134671,10,-0.000497373,-2.46045,-0.0914265,-0.645327,87.2596,0.143594,
2,0,0,1,0,18903.8,0.142429,0.142112,-3.60031,10,0.0133785,10,-0.000511647,-2.44366,-0.086724,-0.680319,95.6286,0.142112,
2,0,0,1,0,18903.8,0.140929,0.140619,-3.73832,10,0.0132863,10,-0.000525679,-2.42732,-0.0874563,-0.674623,98.6713,0.140619,
2,0,0,1,0,18903.9,0.13943,0.139127,-3.88677,10,0.0131904,10,-0.000540755,-2.41041,-0.0876518,-0.673118,102.391,0.139127,
2,0,0,1,0,18903.9,0.137935,0.137576,-4.05527,10,0.013091,10,-0.000557905,-2.39198,-0.0828513,-0.712119,112.811,0.137576,
2,0,0,1,0,18903.9,0.136435,0.136121,-4.22457,10,0.0129871,10,-0.000575051,-2.37422,-0.0835326,-0.706311,116.369,0.1361206,
2,0,0,1,0,18903.9,0.134934,0.134573,-4.3953,10,0.0128789,10,-0.000591489,-2.35701,-0.0888823,-0.663799,113.851,0.134573,
2,0,0,1,0,18904,0.13344,0.133108,-4.57763,10,0.0127667,10,-0.000609319,-2.33936,-0.091346,-0.645896,115.124,0.133108,
2,0,0,1,0,18904,0.13194,0.131632,-4.75165,10,0.0126498,10,-0.000625468,-2.32316,-0.0922214,-0.639765,118.598,0.131632,
2,0,0,1,0,18904,0.13044,0.130135,-4.92861,10,0.0125284,10,-0.000641385,-2.30728,-0.0947224,-0.622872,119.66,0.130135,
2,0,0,1,0,18904,0.128941,0.128607,-5.10365,10,0.0124025,10,-0.000656367,-2.29212,-0.101021,-0.584039,116.176,0.128607,
2,0,0,1,0,18904.1,0.127447,0.127093,-5.27687,10,0.0122727,10,-0.000670651,-2.27762,-0.113489,-0.519873,106.791,0.127093,
2,0,0,1,0,18904.1,0.125946,0.1256,-5.44741,10,0.0121384,10,-0.000684194,-2.26381,-0.116429,-0.506747,107.326,0.1256,
2,0,0,1,0,18904.1,0.124446,0.124144,-5.5944,10,0.012,10,-0.000694513,-2.25225,-0.123894,-0.476213,103.714,0.124144,
2,0,0,1,0,18904.1,0.122952,0.122647,-5.73792,10,0.0118584,10,-0.000703737,-2.24125,-0.139652,-0.422478,94.5072,0.122647,
2,0,0,1,0,18904.2,0.121453,0.121163,-5.87744,10,0.0117127,10,-0.000712126,-2.23081,-0.161352,-0.365661,83.7465,0.121163,
2,0,0,1,0,18904.2,0.119953,0.119633,-6.00575,10,0.0115637,10,-0.000718485,-2.22143,-0.174657,-0.337805,79.0107,0.119633,
2,0,0,1,0,18904.2,0.118459,0.118141,-6.11793,10,0.0114123,10,-0.000722781,-2.2134,-0.182814,-0.322732,76.9774,0.118141,
2,0,0,1,0,18904.2,0.116958,0.116698,-6.23526,10,0.0112575,10,-0.000727644,-2.20515,-0.202333,-0.291599,70.776,0.116698,
2,0,0,1,0,18904.3,0.115457,0.115107,-6.33028,10,0.0110999,10,-0.000728663,-2.19858,-0.249602,-0.236376,58.2507,0.115107,
2,0,0,1,0,18904.3,0.113963,0.11368,-6.41534,10,0.0109408,10,-0.000729295,-2.19278,-0.281483,-0.209604,52.4032,0.11368,
2,0,0,1,0,18904.3,0.112464,0.11216,-6.49378,10,0.0107791,10,-0.000728342,-2.1875,-0.295445,-0.199698,50.5011,0.11216,
2,0,0,1,0,18904.3,0.110965,0.110645,-6.54977,10,0.0106156,10,-0.000724701,-2.18377,-0.347546,-0.169762,43.4098,0.110645,
2,0,0,1,0,18904.4,0.109466,0.109148,-6.6112,10,0.0104505,10,-0.000721599,-2.17972,-0.493899,-0.119458,30.7786,0.109148,
2,0,0,1,0,18904.4,0.107972,0.107657,-6.66472,10,0.0102847,10,-0.000717505,-2.17622,-0.601324,-0.0981168,25.4592,0.107657,
2,0,0,1,0,18904.4,0.106471,0.106155,-6.69278,10,0.0101174,10,-0.000710469,-2.17439,-0.727472,-0.0811028,21.1573,0.106155,
2,0,0,1,0,18904.4,0.10497,0.104726,-6.71211,10,0.00994935,10,-0.000702933,-2.17314,-1.07663,-0.0548007,14.3463,0.104726,
2,0,0,1,0,18904.5,0.103476,0.103116,-6.73045,10,0.00978143,10,-0.000694019,-2.17196,-3.43927,-0.0171548,4.49675,0.103116,
2,0,0,1,0,18904.5,0.101976,0.10164,-6.73649,10,0.00961267,10,-0.000684699,-2.17157,3.2479,0.0181656,-4.76613,0.1016404,
2,0,0,1,0,18904.5,0.100477,0.100162,-6.72247,10,0.0094441,10,-0.000673333,-2.17247,1.73101,0.0340841,-8.92916,0.100162,
2,0,0,1,0,18904.5,0.0989825,0.0986414,-6.69681,10,0.00927655,10,-0.000660582,-2.17413,1.10348,0.0534671,-13.9655,0.0986414,
2,0,0,1,0,18904.6,0.0974817,0.0971772,-6.67242,10,0.00910892,10,-0.000648407,-2.17572,0.655968,0.0899435,-23.41,0.0971772,
2,0,0,1,0,18904.6,0.0959822,0.0956731,-6.64215,10,0.00894205,10,-0.000635475,-2.17769,0.534227,0.11044,-28.5623,0.0956731,
2,0,0,1,0,18904.6,0.094488,0.0941559,-6.59234,10,0.0087769,10,-0.000620708,-2.18096,0.480177,0.122871,-31.5755,0.0941559,
2,0,0,1,0,18904.6,0.0929884,0.0926841,-6.53223,10,0.00861237,10,-0.000605434,-2.18494,0.432803,0.136321,-34.7808,0.0926841,
2,0,0,1,0,18904.7,0.0914889,0.0911963,-6.48538,10,0.00844915,10,-0.000591442,-2.18806,0.367658,0.160475,-40.5745,0.0911963,
2,0,0,1,0,18904.7,0.0899894,0.0896417,-6.42773,10,0.00828734,10,-0.000576192,-2.19194,0.343715,0.171654,-42.9711,0.0896417,
2,0,0,1,0,18904.7,0.0884951,0.0881484,-6.35524,10,0.00812779,10,-0.000560205,-2.19687,0.354004,0.166665,-41.3496,0.0881484,
2,0,0,1,0,18904.7,0.0869943,0.0866463,-6.29226,10,0.00796929,10,-0.000545201,-2.20119,0.341681,0.172676,-42.4214,0.0866463,
2,0,0,1,0,18904.8,0.0854935,0.0851195,-6.2322,10,0.00781233,10,-0.000530482,-2.20536,0.329644,0.178981,-43.5245,0.0851195,
2,0,0,1,0,18904.8,0.0839993,0.0837019,-6.16943,10,0.00765755,10,-0.000516393,-2.20976,0.314066,0.187858,-45.1904,0.0837019,
2,0,0,1,0,18904.8,0.0824997,0.0821762,-6.11496,10,0.00750369,10,-0.000502504,-2.21361,0.368762,0.159995,-38.1533,0.0821762,
2,0,0,1,0,18904.8,0.0810002,0.0806771,-6.04141,10,0.00735142,10,-0.000487403,-2.21886,0.388871,0.151721,-35.8531,0.0806771,
2,0,0,1,0,18904.9,0.0795007,0.079162,-5.99498,10,0.0072005,10,-0.000474575,-2.22221,0.405656,0.145444,-34.0539,0.079162,
2,0,0,1,0,18904.9,0.0780078,0.0776695,-5.94989,10,0.00705135,10,-0.000462125,-2.22549,0.433385,0.136138,-31.5991,0.0776695,
2,0,0,1,0,18904.9,0.076507,0.0761616,-5.90562,10,0.0069028,10,-0.000449781,-2.22873,0.471122,0.125233,-28.8416,0.0761616,
2,0,0,1,0,18904.9,0.0750062,0.0747072,-5.84852,10,0.00675543,10,-0.000436927,-2.23295,0.514856,0.114595,-26.2158,0.0747072,
2,0,0,1,0,18905,0.073512,0.0732516,-5.81099,10,0.00660973,10,-0.000425665,-2.23575,0.541242,0.109008,-24.764,0.0732516,
2,0,0,1,0,18905,0.0720124,0.071704,-5.78315,10,0.00646432,10,-0.000414675,-2.23784,0.568752,0.103736,-23.4062,0.071704,
2,0,0,1,0,18905,0.0705129,0.0701616,-5.75297,10,0.00631974,10,-0.000403638,-2.24011,0.587854,0.100365,-22.5072,0.0701616,
2,0,0,1,0,18905,0.0690187,0.0686733,-5.70771,10,0.00617662,10,-0.000391967,-2.24354,0.620393,0.095101,-21.2257,0.0686733,
2,0,0,1,0,18905.1,0.0675179,0.0671885,-5.68158,10,0.00603379,10,-0.000381737,-2.24553,0.652315,0.0904472,-20.0786,0.0671885,
2,0,0,1,0,18905.1,0.066017,0.0656713,-5.66377,10,0.00589166,10,-0.000371947,-2.24689,0.65981,0.0894196,-19.7253,0.0656713,
2,0,0,1,0,18905.1,0.0645242,0.0641785,-5.62801,10,0.00575072,10,-0.000361197,-2.24965,0.681769,0.0865396,-18.9751,0.0641785,
2,0,0,1,0,18905.1,0.0630246,0.0626845,-5.58964,10,0.00561002,10,-0.000350384,-2.25262,0.634721,0.0929542,-20.3088,0.0626845,
2,0,0,1,0,18905.2,0.0615251,0.0612127,-5.55963,10,0.00547017,10,-0.00034032,-2.25495,0.648024,0.091046,-19.7819,0.0612127,
2,0,0,1,0,18905.2,0.0600256,0.0597138,-5.53725,10,0.005331,10,-0.00033065,-2.25671,0.653431,0.0902927,-19.499,0.0597138,
2,0,0,1,0,18905.2,0.0585314,0.0582172,-5.50832,10,0.00519308,10,-0.000320679,-2.25898,0.670852,0.0879479,-18.8919,0.0582172,
2,0,0,1,0,18905.2,0.0570305,0.056697,-5.47746,10,0.0050553,10,-0.000310556,-2.26142,0.640617,0.0920987,-19.6838,0.05669703,
2,0,0,1,0,18905.3,0.0555297,0.0552087,-5.44202,10,0.00491839,10,-0.000300447,-2.26424,0.533619,0.110566,-23.5026,0.05520872,
2,0,0,1,0,18905.3,0.0540355,0.0536946,-5.41798,10,0.00478274,10,-0.000290917,-2.26616,0.598967,0.098503,-20.8132,0.0536946,
2,0,0,1,0,18905.3,0.052536,0.0521885,-5.3945,10,0.00464723,10,-0.000281531,-2.26805,0.734351,0.0803431,-16.8878,0.0521885,
2,0,0,1,0,18905.3,0.0510364,0.0507051,-5.35469,10,0.00451245,10,-0.00027151,-2.27127,0.588804,0.100203,-20.9535,0.0507051,
2,0,0,1,0,18905.4,0.0495369,0.0492081,-5.3175,10,0.00437854,10,-0.000261664,-2.27429,0.603384,0.0977818,-20.329,0.0492081,
2,0,0,1,0,18905.4,0.0480427,0.0477144,-5.29345,10,0.00424596,10,-0.000252574,-2.27626,0.580774,0.101589,-20.9797,0.0477144,
2,0,0,1,0,18905.4,0.0465432,0.0461905,-5.26618,10,0.00411356,10,-0.000243247,-2.2785,0.615968,0.0957841,-19.6574,0.0461905,
2,0,0,1,0,18905.4,0.0450424,0.0446813,-5.22926,10,0.00398197,10,-0.00023365,-2.28156,0.540025,0.109254,-22.2891,0.0446813,
2,0,0,1,0,18905.5,0.0435482,0.0432474,-5.18991,10,0.00385178,10,-0.00022445,-2.28484,0.495797,0.119,-24.1232,0.0432474,
2,0,0,1,0,18905.5,0.0420486,0.0417274,-5.16135,10,0.00372199,10,-0.00021537,-2.28724,0.546186,0.108022,-21.7651,0.0417274,
2,0,0,1,0,18905.5,0.0405491,0.0402009,-5.12982,10,0.00359294,10,-0.000206224,-2.2899,0.569192,0.103656,-20.7196,0.0402009,
2,0,0,1,0,18905.5,0.0390549,0.038758,-5.08917,10,0.00346522,10,-0.000197246,-2.29335,0.474533,0.124333,-24.7132,0.038758,
2,0,0,1,0,18905.6,0.0375541,0.0371559,-5.05419,10,0.00333793,10,-0.000187793,-2.29635,0.423703,0.139248,-27.4573,0.0371559,
2,0,0,1,0,18905.6,0.0360532,0.0357439,-5.01913,10,0.00321171,10,-0.000179404,-2.29937,0.384503,0.153445,-30.0258,0.0357439,
2,0,0,1,0,18905.6,0.034559,0.0342155,-4.9806,10,0.00308689,10,-0.000170414,-2.30272,0.473772,0.124532,-24.1619,0.0342155,
2,0,0,1,0,18905.6,0.0330595,0.0327146,-4.93395,10,0.00296255,10,-0.000161412,-2.3068,0.421246,0.140061,-26.9808,0.0327146,
2,0,0,1,0,18905.7,0.0315613,0.0311966,-4.88663,10,0.00283927,10,-0.000152446,-2.31099,0.388495,0.151868,-29.0073,0.0311966,
2,0,0,1,0,18905.7,0.0300618,0.0297945,-4.85119,10,0.00271709,10,-0.000144539,-2.31415,0.387892,0.152104,-28.7981,0.02979446,
2,0,0,1,0,18905.7,0.0285676,0.0281884,-4.81181,10,0.0025964,10,-0.000135637,-2.31769,0.430426,0.137073,-25.7114,0.0281884,
2,0,0,1,0,18905.7,0.0270667,0.0267101,-4.7671,10,0.00247622,10,-0.00012733,-2.32175,0.40306,0.14638,-27.2365,0.0267101,
2,0,0,1,0,18905.8,0.0255659,0.0252705,-4.72591,10,0.00235709,10,-0.000119426,-2.32551,0.330543,0.178494,-32.9237,0.0252705,
2,0,0,1,0,18905.8,0.0240717,0.0237577,-4.67902,10,0.00223961,10,-0.000111163,-2.32984,0.352182,0.167527,-30.6064,0.0237577,
2,0,0,1,0,18905.8,0.0225722,0.0222671,-4.64078,10,0.00212274,10,-0.000103337,-2.33341,0.414906,0.142201,-25.7168,0.0222671,
2,0,0,1,0,18905.8,0.0210726,0.020752,-4.59367,10,0.00200689,10,-9.53277e-05,-2.33784,0.397973,0.148251,-26.5994,0.020752,
2,0,0,1,0,18905.9,0.0195784,0.0192447,-4.5526,10,0.00189258,10,-8.76134e-05,-2.34174,0.352,0.167614,-29.8116,0.0192447,
2,0,0,1,0,18905.9,0.0180789,0.017772,-4.5084,10,0.0017788,10,-8.01232e-05,-2.34598,0.372459,0.158407,-27.8791,0.017772,
2,0,0,1,0,18905.9,0.0165781,0.0162395,-4.4742,10,0.0016661,10,-7.26586e-05,-2.34928,0.443963,0.132894,-23.221,0.0162395,
2,0,0,1,0,18905.9,0.0150839,0.0147325,-4.43677,10,0.00155474,10,-6.53647e-05,-2.35293,0.499369,0.118149,-20.4624,0.0147325,
2,0,0,1,0,18906,0.0135844,0.0132697,-4.40144,10,0.00144379,10,-5.8406e-05,-2.35641,0.382016,0.154444,-26.5381,0.0132697,
2,0,0,1,0,18906,0.0120848,0.0117206,-4.36672,10,0.00133369,10,-5.11804e-05,-2.35984,0.405778,0.1454,-24.7859,0.0117206,
2,0,0,1,0,18906,0.0105853,0.010279,-4.33186,10,0.00122454,10,-4.4527e-05,-2.36333,0.529218,0.111485,-18.8766,0.010279,
2,0,0,1,0,18906,0.00909108,0.00880042,-4.30213,10,0.00111659,10,-3.78606e-05,-2.36632,0.5893,0.100119,-16.8402,0.00880042,
2,0,0,1,0,18906.1,0.00759027,0.00727419,-4.27899,10,0.00100886,10,-3.11262e-05,-2.36866,0.521087,0.113225,-18.9103,0.00727419,
2,0,0,1,0,18906.1,0.00608945,0.0058002,-4.25576,10,0.000901778,10,-2.46842e-05,-2.37102,0.522296,0.112963,-18.7513,0.0058002,
2,0,0,1,0,18906.1,0.00459523,0.00426028,-4.23373,10,0.000795819,10,-1.80369e-05,-2.37328,0.634909,0.0929267,-15.3262,0.00426028,
2,0,0,1,0,18906.1,0.0030957,0.00278075,-4.20202,10,0.000690015,10,-1.16848e-05,-2.37654,2.31387,0.0254984,-4.19787,0.00278075,
2,0,0,1,0,18906.2,0.00159616,0.00125557,-4.2159,10,0.000584172,10,-5.29336e-06,-2.37511, , , ,0.00125557,
2,0,0,1,0,18906.2,0.000199195,-0.000157355,-4.19175,10,0.000485803,10,6.59593e-07,-2.3776, , , ,-0.000157355,