File: Figure_codes/Fig_3-5/rawdata_trumpetplot_data/after 10th/20221101_1-115_003_TrumpetPlot_ParaChange_from10_every3_13_CV_C01_18.csv
mode,ox/red,error,control changes,counter inc.,time/s,control/V,Ewe/V,<I>/mA,cycle number,(Q-Qo)/C,I Range,P/W,log(|I|),Tafel slope mV/dec,alpha_eff,dI/d(E-IR),E-IR/V,
2,1,0,1,0,36660.2,2.44065e-05,-0.000325324,17.8513,19,0.0000000E+000,10,-5.80746e-06,-1.74833, , , ,-0.000325324,
2,1,0,1,0,36660.2,0.00266289,0.002296,19.0918,19,5.77569e-05,10,4.38347e-05,-1.71915, , , ,0.002296,
2,1,0,1,0,36660.2,0.00586735,0.00551115,20.146,19,0.000136417,10,0.000111028,-1.69581, , , ,0.005511154,
2,1,0,1,0,36660.2,0.00906349,0.00870086,21.0642,19,0.000218939,10,0.000183276,-1.67646,0.171797,0.343429,279.179,0.008700856,
2,1,0,1,0,36660.2,0.0122624,0.0119139,21.8914,19,0.00030496,10,0.000260811,-1.65973,0.196864,0.2997,254.098,0.0119139,
2,1,0,1,0,36660.2,0.0154641,0.0151131,22.6701,19,0.000394186,10,0.000342616,-1.64455,0.220175,0.267968,235.705,0.0151131,
2,1,0,1,0,36660.2,0.0186602,0.0182519,23.3834,19,0.000486392,10,0.000426793,-1.63109,0.24184,0.243963,221.671,0.0182519,
2,1,0,1,0,36660.2,0.0218675,0.0214947,24.0797,19,0.00058141,10,0.000517586,-1.61835,0.262607,0.22467,210.358,0.0214947,
2,1,0,1,0,36660.2,0.0250636,0.0247215,24.7304,19,0.000679102,10,0.000611373,-1.60677,0.283449,0.20815,200.257,0.0247215,
2,1,0,1,0,36660.2,0.0282597,0.0279122,25.3624,19,0.000779357,10,0.000707923,-1.59581,0.304466,0.193782,191.237,0.0279122,
2,1,0,1,0,36660.2,0.031467,0.0311433,25.965,19,0.000882102,10,0.000808636,-1.58561,0.321579,0.18347,185.434,0.0311433,
2,1,0,1,0,36660.2,0.0346631,0.0343256,26.5335,19,0.000987158,10,0.000910777,-1.57621,0.341957,0.172536,178.353,0.0343256,
2,1,0,1,0,36660.3,0.0378704,0.0375057,27.1011,19,0.00109448,10,0.00101645,-1.56701,0.360156,0.163818,172.961,0.0375057,
2,1,0,1,0,36660.3,0.0410665,0.0407082,27.6446,19,0.001204,10,0.00112536,-1.55839,0.37391,0.157792,170,0.0407082,
2,1,0,1,0,36660.3,0.0442626,0.0439032,28.172,19,0.00131569,10,0.00123684,-1.55018,0.39467,0.149492,164.178,0.0439032,
2,1,0,1,0,36660.3,0.0474671,0.0471088,28.7066,19,0.0014295,10,0.00135233,-1.54202,0.407178,0.1449,162.12,0.0471088,
2,1,0,1,0,36660.3,0.0506632,0.0503292,29.2064,19,0.00154538,10,0.00146994,-1.53452,0.42117,0.140086,159.539,0.0503292,
2,1,0,1,0,36660.3,0.0538621,0.0534945,29.7176,19,0.00166326,10,0.00158973,-1.52699,0.436533,0.135156,156.657,0.0534945,
2,1,0,1,0,36660.3,0.0570638,0.0567086,30.2149,19,0.00178317,10,0.00171345,-1.51978,0.442499,0.133334,157.141,0.0567086,
2,1,0,1,0,36660.3,0.06026,0.0599302,30.7152,19,0.00190508,10,0.00184077,-1.51265,0.456276,0.129308,154.924,0.0599302,
2,1,0,1,0,36660.3,0.0634672,0.0630976,31.2128,19,0.00202901,10,0.00196946,-1.50567,0.467056,0.126323,153.767,0.0630976,
2,1,0,1,0,36660.3,0.0666633,0.0663074,31.7026,19,0.00215488,10,0.00210212,-1.49891,0.469595,0.12564,155.423,0.0663074,
2,1,0,1,0,36660.3,0.0698595,0.0695258,32.1858,19,0.00228271,10,0.00223774,-1.49234,0.480467,0.122797,154.268,0.0695258,
2,1,0,1,0,36660.3,0.0730667,0.0727028,32.7003,19,0.00241253,10,0.0023774,-1.48545,0.481016,0.122657,156.508,0.0727028,
2,1,0,1,0,36660.3,0.0762628,0.0758999,33.1878,19,0.00254435,10,0.00251895,-1.47902,0.487102,0.121124,156.839,0.0758999,
2,1,0,1,0,36660.3,0.0794701,0.0791182,33.7076,19,0.00267818,10,0.00266688,-1.47227,0.497973,0.11848,155.768,0.0791182,
2,1,0,1,0,36660.3,0.0826662,0.0823153,34.1917,19,0.00281401,10,0.0028145,-1.46608,0.50069,0.117837,157.213,0.0823153,
2,1,0,1,0,36660.3,0.0858624,0.0855029,34.6942,19,0.00295182,10,0.00296646,-1.45974,0.505888,0.116627,157.974,0.0855029,
2,1,0,1,0,36660.3,0.0890668,0.088717,35.2028,19,0.00309167,10,0.00312309,-1.45342,0.505073,0.116815,160.521,0.088717,
2,1,0,1,0,36660.3,0.092263,0.0919035,35.7273,19,0.00323358,10,0.00328347,-1.447,0.511988,0.115237,160.612,0.0919035,
2,1,0,1,0,36660.3,0.0954674,0.0951314,36.2489,19,0.00337757,10,0.00344841,-1.4407,0.516602,0.114208,161.459,0.0951314,
2,1,0,1,0,36660.3,0.0986636,0.0983084,36.7509,19,0.00352362,10,0.00361292,-1.43473,0.522872,0.112838,161.848,0.0983084,
2,1,0,1,0,36660.3,0.10186,0.101494,37.2658,19,0.00367172,10,0.00378225,-1.42869,0.528124,0.111716,162.512,0.101494,
2,1,0,1,0,36660.3,0.105067,0.104693,37.7973,19,0.00382189,10,0.00395712,-1.42254,0.528306,0.111678,164.724,0.104693,
2,1,0,1,0,36660.3,0.108263,0.107864,38.3181,19,0.00397419,10,0.00413313,-1.4166,0.533636,0.110562,165.307,0.107864,
2,1,0,1,0,36660.3,0.111465,0.111096,38.8573,19,0.00412859,10,0.00431688,-1.41053,0.540939,0.10907,165.336,0.111096,
2,1,0,1,0,36660.3,0.114666,0.114253,39.3749,19,0.00428512,10,0.00449869,-1.40478,0.53959,0.109342,168.076,0.114253,
2,1,0,1,0,36660.4,0.117863,0.117446,39.9057,19,0.00444373,10,0.00468675,-1.39896,0.54245,0.108766,169.495,0.117446,
2,1,0,1,0,36660.4,0.12107,0.1207,40.4755,19,0.00460453,10,0.0048854,-1.39281,0.543566,0.108542,171.406,0.1207,
2,1,0,1,0,36660.4,0.124266,0.123872,41.0227,19,0.00476757,10,0.00508155,-1.38698,0.544529,0.108351,173.409,0.123872,
2,1,0,1,0,36660.4,0.127462,0.127069,41.5716,19,0.00493281,10,0.00528246,-1.3812,0.55233,0.10682,173.301,0.127069,
2,1,0,1,0,36660.4,0.130667,0.130284,42.132,19,0.00510028,10,0.00548912,-1.37539,0.5577,0.105792,173.928,0.130284,
2,1,0,1,0,36660.4,0.133863,0.133447,42.6846,19,0.00526998,10,0.00569614,-1.36973,0.553511,0.106592,177.603,0.133447,
2,1,0,1,0,36660.4,0.137067,0.136675,43.2496,19,0.00544188,10,0.00591114,-1.36402,0.538552,0.109553,185.131,0.136675,
2,1,0,1,0,36660.4,0.140263,0.139815,43.8354,19,0.00561607,10,0.00612884,-1.35818,0.529324,0.111463,190.955,0.139815,
2,1,0,1,0,36660.4,0.143459,0.143021,44.4901,19,0.00579281,10,0.00636305,-1.35174,0.521593,0.113115,196.419,0.143021,
2,1,0,1,0,36660.4,0.146667,0.146265,45.1323,19,0.00597212,10,0.00660129,-1.34551,0.522938,0.112824,198.584,0.146265,
2,1,0,1,0,36660.4,0.149863,0.149465,45.7617,19,0.00615398,10,0.00683975,-1.3395,0.533736,0.110542,197.364,0.149465,
2,1,0,1,0,36660.4,0.153064,0.152675,46.3893,19,0.00633834,10,0.00708251,-1.33358,0.54512,0.108233,195.908,0.152675,
2,1,0,1,0,36660.4,0.156266,0.155894,47.0307,19,0.00652523,10,0.00733179,-1.32762,0.555488,0.106213,194.837,0.155894,
2,1,0,1,0,36660.4,0.159462,0.159116,47.65,19,0.00671466,10,0.00758189,-1.32194,0.569019,0.103687,192.672,0.159116,
2,1,0,1,0,36660.4,0.16267,0.162325,48.2674,19,0.00690653,10,0.00783502,-1.31635,0.58952,0.100081,188.371,0.162325,
2,1,0,1,0,36660.4,0.165866,0.165493,48.8588,19,0.00710085,10,0.00808577,-1.31106,0.605437,0.0974503,185.703,0.165493,
2,1,0,1,0,36660.4,0.169062,0.168711,49.445,19,0.0072975,10,0.00834192,-1.30588,0.62928,0.093758,180.812,0.168711,
2,1,0,1,0,36660.4,0.172266,0.171911,50.026,19,0.00749653,10,0.00860003,-1.3008,0.656917,0.0898134,175.155,0.171911,
2,1,0,1,0,36660.4,0.175462,0.175115,50.5799,19,0.0076978,10,0.00885729,-1.29602,0.690055,0.0855005,168.561,0.175115,
2,1,0,1,0,36660.4,0.178667,0.178288,51.1001,19,0.00790121,10,0.00911056,-1.29158,0.742131,0.0795007,158.332,0.178288,
2,1,0,1,0,36660.4,0.181863,0.181505,51.6016,19,0.00810666,10,0.00936593,-1.28734,0.796304,0.0740923,148.996,0.181505,
2,1,0,1,0,36660.4,0.185059,0.184689,52.0491,19,0.00831402,10,0.00961291,-1.28359,0.876191,0.067337,136.583,0.184689,
2,1,0,1,0,36660.4,0.188266,0.187909,52.4862,19,0.00852317,10,0.0098626,-1.27996,0.982471,0.0600526,122.775,0.1879085,
2,1,0,1,0,36660.4,0.191463,0.191147,52.8563,19,0.0087339,10,0.0101033,-1.2769,1.14351,0.0515956,106.175,0.191147,
2,1,0,1,0,36660.4,0.194664,0.194343,53.1778,19,0.008946,10,0.0103347,-1.27427,1.39881,0.0421786,87.3135,0.194343,
2,1,0,1,0,36660.5,0.197866,0.197541,53.4137,19,0.00915924,10,0.0105514,-1.27235,1.82666,0.0322993,67.1658,0.197541,
2,1,0,1,0,36660.5,0.201062,0.200701,53.6031,19,0.00937331,10,0.0107582,-1.27081,2.68369,0.0219846,45.8781,0.200701,
2,1,0,1,0,36660.5,0.204269,0.203894,53.7125,19,0.00958798,10,0.0109517,-1.26992,5.28405,0.0111657,23.3405,0.203894,
2,1,0,1,0,36660.5,0.207465,0.207171,53.7663,19,0.00980296,10,0.0111388,-1.26949,-830.404,-7.10497e-05,-0.148631,0.207171,
2,1,0,1,0,36660.5,0.210662,0.210311,53.7118,19,0.0100179,10,0.0112962,-1.26993,-5.09331,-0.0115838,-24.2119,0.210311,
2,1,0,1,0,36660.5,0.213866,0.213526,53.6012,19,0.0102326,10,0.0114452,-1.27083,-2.51587,-0.0234511,-48.9211,0.213526,
2,1,0,1,0,36660.5,0.217062,0.216752,53.4012,19,0.0104466,10,0.0115748,-1.27245,-1.70665,-0.0345706,-71.8452,0.216752,
2,1,0,1,0,36660.5,0.220267,0.219974,53.14,19,0.0106596,10,0.0116894,-1.27458,-1.26596,-0.0466048,-96.3657,0.219974,
2,1,0,1,0,36660.5,0.223463,0.223104,52.7926,19,0.0108715,10,0.0117783,-1.27743,-1.01797,-0.0579583,-119.055,0.223104,
2,1,0,1,0,36660.5,0.226659,0.226329,52.3674,19,0.0110818,10,0.0118523,-1.28094,-0.84451,-0.069863,-142.39,0.226329,
2,1,0,1,0,36660.5,0.229866,0.229576,51.8744,19,0.0112903,10,0.0119091,-1.28505,-0.732211,-0.0805779,-162.708,0.229576,
2,1,0,1,0,36660.5,0.233062,0.232768,51.3183,19,0.0114966,10,0.0119452,-1.28973,-0.649643,-0.0908191,-181.45,0.232768,
2,1,0,1,0,36660.5,0.236264,0.235952,50.7021,19,0.0117006,10,0.0119633,-1.29497,-0.576737,-0.1023,-201.925,0.235952,
2,1,0,1,0,36660.5,0.239466,0.239169,50.0377,19,0.011902,10,0.0119674,-1.3007,-0.529982,-0.111324,-216.882,0.239169,
2,1,0,1,0,36660.5,0.242662,0.242319,49.3013,19,0.0121006,10,0.0119466,-1.30714,-0.487819,-0.120947,-232.242,0.242319,
2,1,0,1,0,36660.5,0.245869,0.24555,48.5461,19,0.0122963,10,0.0119205,-1.31385,-0.454256,-0.129883,-245.613,0.24555,
2,1,0,1,0,36660.5,0.249065,0.248741,47.7321,19,0.0124887,10,0.0118729,-1.32119,-0.433101,-0.136227,-253.407,0.248741,
2,1,0,1,0,36660.5,0.252261,0.251921,46.9055,19,0.0126779,10,0.0118165,-1.32878,-0.414282,-0.142415,-260.443,0.251921,
2,1,0,1,0,36660.5,0.255466,0.255095,46.0638,19,0.0128638,10,0.0117506,-1.33664,-0.401101,-0.147095,-264.22,0.255095,
2,1,0,1,0,36660.5,0.258662,0.258353,45.2115,19,0.0130463,10,0.0116805,-1.34475,-0.392805,-0.150202,-264.852,0.258353,
2,1,0,1,0,36660.5,0.261866,0.2615,44.361,19,0.0132253,10,0.0116004,-1.353,-0.383778,-0.153735,-266.009,0.2615,
2,1,0,1,0,36660.5,0.265063,0.264776,43.5008,19,0.0134009,10,0.011518,-1.3615,-0.380317,-0.155134,-263.399,0.264776,
2,1,0,1,0,36660.5,0.268259,0.267917,42.6529,19,0.0135732,10,0.0114274,-1.37005,-0.377434,-0.156319,-260.295,0.267917,
2,1,0,1,0,36660.5,0.271466,0.271142,41.843,19,0.0137421,10,0.0113454,-1.37838,-0.379381,-0.155516,-254.01,0.271142,
2,1,0,1,0,36660.5,0.274662,0.274349,41.0165,19,0.0139077,10,0.0112528,-1.38704,-0.381605,-0.15461,-247.642,0.274349,
2,1,0,1,0,36660.6,0.277869,0.277597,40.2443,19,0.0140702,10,0.0111717,-1.3953,-0.383015,-0.154041,-242.098,0.277597,
2,1,0,1,0,36660.6,0.281065,0.280765,39.4712,19,0.0142295,10,0.0110821,-1.40372,-0.389318,-0.151547,-233.643,0.280765,
2,1,0,1,0,36660.6,0.284262,0.283964,38.7387,19,0.0143858,10,0.0110004,-1.41185,-0.393354,-0.149992,-226.992,0.283964,
2,1,0,1,0,36660.6,0.287469,0.287134,38.0293,19,0.0145393,10,0.0109195,-1.41988,-0.402901,-0.146438,-217.52,0.2871339,
2,1,0,1,0,36660.6,0.290665,0.290363,37.3465,19,0.01469,10,0.010844,-1.42775,-0.413264,-0.142766,-208.311,0.290363,
2,1,0,1,0,36660.6,0.293861,0.293574,36.6851,19,0.014838,10,0.0107698,-1.43551,-0.424134,-0.139107,-199.778,0.293574,
2,1,0,1,0,36660.6,0.297066,0.296788,36.0675,19,0.0149834,10,0.0107044,-1.44288,-0.421375,-0.140018,-199.007,0.296788,
2,1,0,1,0,36660.6,0.299638,0.299317,35.5954,19,0.0150981,10,0.0106543,-1.44861,-0.125531,-0.470004,-641.601,0.299317,
2,1,0,1,0,36660.6,0.300012,0.299613,35.5057,19,0.0151158,10,0.010638,-1.4497,0.0114182,5.1672,6438.8,0.299613,
2,1,0,1,0,36660.6,0.298983,0.29881,33.3255,19,0.0151597,10,0.00995799,-1.47722,0.0409869,1.43948,1654.56,0.29881,
2,1,0,1,0,36660.6,0.295787,0.295554,28.1199,19,0.0152816,10,0.00831094,-1.55099,0.0442473,1.33342,1424.48,0.295554,
2,1,0,1,0,36660.6,0.292579,0.292345,24.0594,19,0.0153853,10,0.00703363,-1.61872,0.0460615,1.2809,1229.63,0.292345,
2,1,0,1,0,36660.6,0.289383,0.289141,20.5891,19,0.0154742,10,0.00595315,-1.68636,0.0458861,1.28579,1041.57,0.289141,
2,1,0,1,0,36660.6,0.286187,0.285977,17.5457,19,0.01555,10,0.00501766,-1.75583,0.0443165,1.33133,912.35,0.285977,
2,1,0,1,0,36660.6,0.282983,0.282771,14.8065,19,0.0156144,10,0.00418686,-1.82955,0.0415964,1.41839,815.492,0.282771,
2,1,0,1,0,36660.6,0.279786,0.279512,12.3511,19,0.0156684,10,0.00345229,-1.90829,0.0381991,1.54454,735.651,0.279512,
2,1,0,1,0,36660.6,0.276582,0.276288,10.1074,19,0.015713,10,0.00279255,-1.99536,0.0340124,1.73466,669.562,0.276288,
2,1,0,1,0,36660.6,0.273386,0.273104,8.07538,19,0.0157491,10,0.00220542,-2.09284,0.0290879,2.02833,615.007,0.273104,
2,1,0,1,0,36660.6,0.27019,0.269926,6.20545,19,0.0157775,10,0.00167501,-2.20723,0.0235787,2.50226,563.84,0.269926,
2,1,0,1,0,36660.6,0.266982,0.266731,4.49067,19,0.0157986,10,0.0011978,-2.34769,0.0170806,3.45421,518.053,0.266731,
2,1,0,1,0,36660.6,0.263786,0.263508,2.90151,19,0.0158132,10,0.000764571,-2.53738,0.00658647,8.95776,479.347,0.263508,
2,1,0,1,0,36660.6,0.260585,0.260284,1.43433,19,0.0158217,10,0.000373333,-2.84335,0.0220979,2.66993,441.118,0.260284,
2,1,0,1,0,36660.6,0.257383,0.257128,0.0707445,19,0.0158245,10,1.81904e-05,-4.15031,0.143499,0.411151,409.119,0.257128,
2,0,0,1,0,36660.6,0.254187,0.253882,-1.17722,19,0.0158222,10,-0.000298875,-2.92914,-0.0335059,-1.76088,382.415,0.253882,
2,0,0,1,0,36660.6,0.25098,0.250646,-2.36045,19,0.015815,10,-0.000591639,-2.627,-0.00710892,-8.29943,355.527,0.250646,
2,0,0,1,0,36660.6,0.247783,0.247511,-3.4505,19,0.0158032,10,-0.000854037,-2.46212,-0.0192264,-3.0687,333.813,0.247511,
2,0,0,1,0,36660.6,0.244587,0.244318,-4.48346,19,0.0157872,10,-0.00109539,-2.34839,-0.0297516,-1.98309,311.769,0.244318,
2,0,0,1,0,36660.7,0.241383,0.24109,-5.44726,19,0.0157672,10,-0.00131328,-2.26382,-0.0402538,-1.4657,291.301,0.24109,
2,0,0,1,0,36660.7,0.238187,0.237877,-6.34155,19,0.0157435,10,-0.00150851,-2.1978,-0.0512012,-1.15232,272.864,0.237877,
2,0,0,1,0,36660.7,0.234982,0.234682,-7.18755,19,0.0157164,10,-0.00168679,-2.14342,-0.0621911,-0.948688,257.947,0.234682,
2,0,0,1,0,36660.7,0.231786,0.231478,-7.98686,19,0.0156859,10,-0.00184879,-2.09762,-0.073642,-0.801173,243.895,0.231478,
2,0,0,1,0,36660.7,0.22859,0.228302,-8.746,19,0.0156524,10,-0.00199673,-2.05819,-0.0856606,-0.688765,230.442,0.228302,
2,0,0,1,0,36660.7,0.225383,0.225061,-9.46733,19,0.0156158,10,-0.00213073,-2.02377,-0.0982011,-0.600808,218.538,0.2250609,
2,0,0,1,0,36660.7,0.222187,0.221932,-10.1258,19,0.0155766,10,-0.00224723,-1.99457,-0.11118,-0.53067,207.348,0.221932,
2,0,0,1,0,36660.7,0.218979,0.218632,-10.7944,19,0.0155347,10,-0.00235999,-1.9668,-0.124935,-0.472244,196.755,0.218632,
2,0,0,1,0,36660.7,0.215783,0.21553,-11.3942,19,0.0154902,10,-0.00245578,-1.94332,-0.138265,-0.426717,188.034,0.21553,
2,0,0,1,0,36660.7,0.212587,0.212277,-11.9827,19,0.0154434,10,-0.00254365,-1.92145,-0.152741,-0.386276,179.461,0.212277,
2,0,0,1,0,36660.7,0.20938,0.209079,-12.5424,19,0.0153943,10,-0.00262236,-1.90162,-0.168625,-0.349888,170.098,0.209079,
2,0,0,1,0,36660.7,0.206184,0.205851,-13.0881,19,0.015343,10,-0.00269419,-1.88312,-0.182302,-0.323638,164.277,0.205851,
2,0,0,1,0,36660.7,0.202988,0.202659,-13.5835,19,0.0152896,10,-0.00275282,-1.86699,-0.197582,-0.29861,157.641,0.202659,
2,0,0,1,0,36660.7,0.199783,0.19947,-14.0865,19,0.0152342,10,-0.00280984,-1.8512,-0.211816,-0.278544,152.63,0.19947,
2,0,0,1,0,36660.7,0.196587,0.19627,-14.5617,19,0.0151769,10,-0.00285803,-1.83679,-0.226125,-0.260918,147.726,0.19627,
2,0,0,1,0,36660.7,0.193382,0.193075,-15.0381,19,0.0151176,10,-0.00290347,-1.82281,-0.242196,-0.243604,142.409,0.193075,
2,0,0,1,0,36660.7,0.190186,0.189873,-15.4722,19,0.0150566,10,-0.00293777,-1.81045,-0.256205,-0.230284,138.689,0.189873,
2,0,0,1,0,36660.7,0.18699,0.186673,-15.9089,19,0.0149938,10,-0.00296977,-1.79836,-0.272412,-0.216584,134.249,0.186673,
2,0,0,1,0,36660.7,0.183783,0.183478,-16.3358,19,0.0149292,10,-0.00299726,-1.78686,-0.281962,-0.209248,133.195,0.1834781,
2,0,0,1,0,36660.7,0.180587,0.180262,-16.7582,19,0.014863,10,-0.00302086,-1.77577,-0.2948,-0.200136,130.67,0.180262,
2,0,0,1,0,36660.7,0.17738,0.177065,-17.1783,19,0.0147951,10,-0.00304167,-1.76502,-0.307715,-0.191736,128.271,0.177065,
2,0,0,1,0,36660.7,0.174183,0.173899,-17.578,19,0.0147255,10,-0.00305681,-1.75503,-0.313848,-0.187989,128.901,0.173899,
2,0,0,1,0,36660.7,0.170987,0.170704,-17.9743,19,0.0146544,10,-0.00306829,-1.74535,-0.324511,-0.181812,127.597,0.170704,
2,0,0,1,0,36660.7,0.16778,0.167472,-18.4068,19,0.0145816,10,-0.00308262,-1.73502,-0.326277,-0.180828,129.835,0.167472,
2,0,0,1,0,36660.7,0.164584,0.164264,-18.8117,19,0.0145071,10,-0.00309008,-1.72557,-0.330275,-0.178639,131.075,0.164264,
2,0,0,1,0,36660.8,0.161382,0.161081,-19.2423,19,0.014431,10,-0.00309957,-1.71574,-0.3349,-0.176172,132.289,0.161081,
2,0,0,1,0,36660.8,0.158183,0.1579,-19.6526,19,0.0143531,10,-0.00310315,-1.70658,-0.331057,-0.178217,136.829,0.1579,
2,0,0,1,0,36660.8,0.154987,0.154675,-20.0997,19,0.0142736,10,-0.00310892,-1.69681,-0.328688,-0.179502,141.036,0.154675,
2,0,0,1,0,36660.8,0.151783,0.151488,-20.5598,19,0.0141922,10,-0.00311456,-1.68698,-0.31857,-0.185203,148.827,0.151488,
2,0,0,1,0,36660.8,0.148587,0.148265,-21.0498,19,0.014109,10,-0.00312096,-1.67675,-0.308847,-0.191033,157.227,0.148265,
2,0,0,1,0,36660.8,0.145385,0.145097,-21.5581,19,0.0140237,10,-0.00312801,-1.66639,-0.299955,-0.196696,165.829,0.1450967,
2,0,0,1,0,36660.8,0.142183,0.141889,-22.11,19,0.0139363,10,-0.00313717,-1.65541,-0.28639,-0.206012,178.248,0.141889,
2,0,0,1,0,36660.8,0.138987,0.138706,-22.6794,19,0.0138467,10,-0.00314577,-1.64437,-0.274531,-0.214912,190.879,0.138706,
2,0,0,1,0,36660.8,0.13578,0.135476,-23.3295,19,0.0137546,10,-0.00316058,-1.63209,-0.26271,-0.224583,205.092,0.135476,
2,0,0,1,0,36660.8,0.132584,0.132295,-24.0016,19,0.0136599,10,-0.0031753,-1.61976,-0.249465,-0.236506,222.239,0.132295,
2,0,0,1,0,36660.8,0.129388,0.129073,-24.7385,19,0.0135624,10,-0.00319307,-1.60663,-0.240741,-0.245077,237.369,0.129073,
2,0,0,1,0,36660.8,0.12618,0.125869,-25.5322,19,0.0134618,10,-0.00321372,-1.59291,-0.231199,-0.255192,254.944,0.125869,
2,0,0,1,0,36660.8,0.122984,0.122678,-26.3674,19,0.0133579,10,-0.00323469,-1.57893,-0.223787,-0.263643,272.041,0.122678,
2,0,0,1,0,36660.8,0.119782,0.119496,-27.2647,19,0.0132506,10,-0.00325803,-1.5644,-0.217794,-0.270898,288.96,0.119496,
2,0,0,1,0,36660.8,0.116584,0.116287,-28.2169,19,0.0131395,10,-0.00328125,-1.54949,-0.213846,-0.275899,304.353,0.116287,
2,0,0,1,0,36660.8,0.113387,0.113128,-29.214,19,0.0130246,10,-0.00330491,-1.53441,-0.214194,-0.275452,314.241,0.113128,
2,0,0,1,0,36660.8,0.110183,0.109909,-30.2535,19,0.0129055,10,-0.00332514,-1.51922,-0.215338,-0.273988,323.34,0.109909,
2,0,0,1,0,36660.8,0.106987,0.106683,-31.291,19,0.0127823,10,-0.00333823,-1.50458,-0.219422,-0.268888,328.131,0.106683,
2,0,0,1,0,36660.8,0.103785,0.103488,-32.355,19,0.012655,10,-0.00334837,-1.49006,-0.226176,-0.260859,329.041,0.103488,
2,0,0,1,0,36660.8,0.100583,0.100316,-33.418,19,0.0125233,10,-0.00335235,-1.47602,-0.231994,-0.254317,331.105,0.100316,
2,0,0,1,0,36660.8,0.0973873,0.0970645,-34.4799,19,0.0123874,10,-0.00334678,-1.46243,-0.241294,-0.244515,328.4,0.0970645,
2,0,0,1,0,36660.8,0.0941801,0.0939162,-35.5183,19,0.0122473,10,-0.00333574,-1.44955,-0.252926,-0.23327,322.642,0.0939162,
2,0,0,1,0,36660.8,0.0909839,0.0906894,-36.5583,19,0.012103,10,-0.00331545,-1.43701,-0.265925,-0.221867,315.565,0.0906894,
2,0,0,1,0,36660.8,0.0877878,0.0875315,-37.5427,19,0.0119547,10,-0.00328617,-1.42547,-0.280372,-0.210435,307.513,0.08753147,
2,0,0,1,0,36660.8,0.0845806,0.084381,-38.4824,19,0.0118025,10,-0.00324718,-1.41474,-0.293597,-0.200956,301.555,0.084381,
2,0,0,1,0,36660.9,0.0813844,0.0811701,-39.4379,19,0.0116466,10,-0.00320118,-1.40409,-0.310735,-0.189872,291.811,0.0811701,
2,0,0,1,0,36660.9,0.0781828,0.0779263,-40.407,19,0.0114868,10,-0.00314877,-1.39354,-0.327026,-0.180414,283.604,0.0779263,
2,0,0,1,0,36660.9,0.0749839,0.0747366,-41.2764,19,0.0113233,10,-0.00308486,-1.3843,-0.345996,-0.170522,273.995,0.07473661,
2,0,0,1,0,36660.9,0.0717877,0.0715162,-42.1309,19,0.0111564,10,-0.00301304,-1.3754,-0.373594,-0.157925,259.122,0.0715162,
2,0,0,1,0,36660.9,0.0685832,0.0683318,-42.9555,19,0.0109861,10,-0.00293523,-1.36698,-0.402727,-0.146501,244.884,0.0683318,
2,0,0,1,0,36660.9,0.0653871,0.0651346,-43.7216,19,0.0108127,10,-0.00284779,-1.3593,-0.433605,-0.136068,231.483,0.06513463,
2,0,0,1,0,36660.9,0.0621854,0.0618855,-44.4234,19,0.0106363,10,-0.00274917,-1.35239,-0.476446,-0.123834,214.153,0.0618855,
2,0,0,1,0,36660.9,0.0589837,0.0587563,-45.0846,19,0.0104572,10,-0.002649,-1.34597,-0.511461,-0.115356,202.592,0.0587563,
2,0,0,1,0,36660.9,0.0557876,0.0555316,-45.6967,19,0.0102755,10,-0.00253761,-1.34011,-0.556392,-0.10604,188.79,0.0555316,
2,0,0,1,0,36660.9,0.0525804,0.0523864,-46.3043,19,0.0100915,10,-0.00242572,-1.33438,-0.605773,-0.0973963,175.623,0.0523864,
2,0,0,1,0,36660.9,0.0493842,0.0491098,-46.8354,19,0.00990512,10,-0.00230007,-1.32943,-0.655659,-0.0899858,164.152,0.0491098,
2,0,0,1,0,36660.9,0.0461881,0.0459105,-47.3406,19,0.00971668,10,-0.00217343,-1.32477,-0.730946,-0.0807173,148.867,0.0459105,
2,0,0,1,0,36660.9,0.0429808,0.0426964,-47.8037,19,0.00952632,10,-0.00204105,-1.32054,-0.797551,-0.0739764,137.759,0.0426964,
2,0,0,1,0,36660.9,0.0397847,0.0394982,-48.2229,19,0.00933422,10,-0.00190472,-1.31675,-0.878734,-0.0671421,126.159,0.03949824,
2,0,0,1,0,36660.9,0.036583,0.0362481,-48.6072,19,0.00914051,10,-0.00176192,-1.3133,-0.99265,-0.0594369,112.554,0.0362481,
2,0,0,1,0,36660.9,0.0333841,0.033069,-48.9607,19,0.00894534,10,-0.00161908,-1.31015,-1.09499,-0.0538819,102.779,0.033069,
2,0,0,1,0,36660.9,0.030188,0.0298623,-49.2482,19,0.00874888,10,-0.00147067,-1.30761,-1.24233,-0.0474912,91.1637,0.0298623,
2,0,0,1,0,36660.9,0.0269835,0.0267309,-49.5352,19,0.00855126,10,-0.00132412,-1.30509,-1.40092,-0.0421151,81.3223,0.0267309,
2,0,0,1,0,36660.9,0.0237874,0.0234914,-49.7701,19,0.00835262,10,-0.00116917,-1.30303,-1.56059,-0.0378063,73.3534,0.0234914,
2,0,0,1,0,36660.9,0.0205857,0.0203123,-49.9981,19,0.00815306,10,-0.00101558,-1.30105,-1.81197,-0.0325612,63.4628,0.0203123,
2,0,0,1,0,36660.9,0.017384,0.0170791,-50.1859,19,0.00795264,10,-0.000857131,-1.29942,-2.07362,-0.0284527,55.6617,0.0170791,
2,0,0,1,0,36660.9,0.0141879,0.0139138,-50.3486,19,0.00775154,10,-0.000700541,-1.29801,-2.48681,-0.0237252,46.5702,0.0139138,
2,0,0,1,0,36660.9,0.0109806,0.0106478,-50.485,19,0.00754983,10,-0.000537553,-1.29684,-2.98507,-0.019765,38.9032,0.0106478,
2,0,0,1,0,36660.9,0.00778448,0.00748881,-50.5953,19,0.00734765,10,-0.000378899,-1.29589,-3.2631,-0.018081,35.6902,0.00748881,
2,0,0,1,0,36660.9,0.00458834,0.00429699,-50.6831,19,0.00714507,10,-0.000217785,-1.29514,-4.41053,-0.0133771,26.4447,0.00429699,
2,0,0,1,0,36661,0.0013811,0.00102033,-50.8087,19,0.0069421,10,-5.18418e-05,-1.29406,-6.00428,-0.00982632,19.4508,0.00102033,
2,0,0,1,0,36661,-0.00181504,-0.00215559,-50.8236,19,0.00673882,10,0.000109555,-1.29393,-10.4407,-0.00565096,11.1935,-0.00215559,
2,0,0,1,0,36661,-0.0050195,-0.00538771,-50.8458,19,0.00653548,10,0.000273942,-1.29375,211.022,0.000279592,-0.554366,-0.00538771,
2,0,0,1,0,36661,-0.00821564,-0.00856999,-50.8272,19,0.00633214,10,0.000435588,-1.2939,18.3906,0.00320816,-6.35821,-0.00856999,
2,0,0,1,0,36661,-0.0114118,-0.0117915,-50.8016,19,0.00612889,10,0.000599028,-1.29412,8.04727,0.00733168,-14.522,-0.0117915,
2,0,0,1,0,36661,-0.0146162,-0.0150151,-50.7418,19,0.00592579,10,0.000761896,-1.29463,5.43355,0.0108585,-21.4806,-0.0150151,
2,0,0,1,0,36661,-0.0178124,-0.0181741,-50.6601,19,0.00572298,10,0.000920701,-1.29533,3.9047,0.01511,-29.8443,-0.0181741,
2,0,0,1,0,36661,-0.0210196,-0.0214073,-50.5514,19,0.00552057,10,0.00108217,-1.29627,3.0547,0.0193145,-38.0652,-0.0214073,
2,0,0,1,0,36661,-0.0242158,-0.0246426,-50.4181,19,0.00531864,10,0.00124243,-1.29741,2.65626,0.0222117,-43.6714,-0.0246426,
2,0,0,1,0,36661,-0.0274119,-0.0277612,-50.2567,19,0.00511729,10,0.00139519,-1.29881,2.25582,0.0261546,-51.2648,-0.0277612,
2,0,0,1,0,36661,-0.0306191,-0.031005,-50.0997,19,0.00491659,10,0.00155334,-1.30016,2.03079,0.0290527,-56.755,-0.031005,
2,0,0,1,0,36661,-0.0338153,-0.0341703,-49.8971,19,0.0047166,10,0.001705,-1.30192,1.86303,0.0316688,-61.6246,-0.0341703,
2,0,0,1,0,36661,-0.037017,-0.0373844,-49.6949,19,0.00451744,10,0.00185782,-1.30369,1.70204,0.0346643,-67.1951,-0.0373844,
2,0,0,1,0,36661,-0.0402187,-0.0405794,-49.4667,19,0.00431913,10,0.00200733,-1.30569,1.64043,0.0359661,-69.4097,-0.0405794,
2,0,0,1,0,36661,-0.0434148,-0.0437691,-49.242,19,0.00412174,10,0.00215528,-1.30766,1.56212,0.0377692,-72.5634,-0.04376914,
2,0,0,1,0,36661,-0.0466193,-0.0470246,-49.0049,19,0.00392527,10,0.00230444,-1.30976,1.50532,0.0391944,-74.9308,-0.0470246,
2,0,0,1,0,36661,-0.0498154,-0.0502016,-48.7649,19,0.00372975,10,0.00244807,-1.31189,1.47891,0.0398942,-75.9087,-0.0502016,
2,0,0,1,0,36661,-0.0530115,-0.0533679,-48.5085,19,0.00353523,10,0.0025888,-1.31418,1.45902,0.0404382,-76.5671,-0.0533679,
2,0,0,1,0,36661,-0.056216,-0.0565619,-48.271,19,0.00334168,10,0.0027303,-1.31631,1.5126,0.0390057,-73.5153,-0.0565619,
2,0,0,1,0,36661,-0.0594121,-0.0597484,-48.0307,19,0.00314908,10,0.00286976,-1.31848,1.53367,0.0384698,-72.133,-0.0597484,
2,0,0,1,0,36661,-0.0626194,-0.0629911,-47.8247,19,0.00295741,10,0.00301253,-1.32035,1.57264,0.0375164,-70.0143,-0.0629911,
2,0,0,1,0,36661,-0.0658155,-0.0661734,-47.5848,19,0.00276662,10,0.00314885,-1.32253,1.64149,0.035943,-66.7709,-0.0661734,
2,0,0,1,0,36661,-0.0690117,-0.0694278,-47.3702,19,0.00257673,10,0.00328881,-1.3245,1.68607,0.0349926,-64.7445,-0.0694278,
2,0,0,1,0,36661,-0.0722189,-0.0726037,-47.1723,19,0.00238766,10,0.00342489,-1.32631,1.83988,0.0320673,-59.0773,-0.0726037,
2,0,0,1,0,36661,-0.075415,-0.0757849,-46.9963,19,0.00219935,10,0.00356161,-1.32794,1.99779,0.0295326,-54.1981,-0.0757849,
2,0,0,1,0,36661.1,-0.0786167,-0.0789725,-46.8287,19,0.00201173,10,0.00369818,-1.32949,2.13527,0.0276311,-50.5199,-0.0789725,
2,0,0,1,0,36661.1,-0.0818184,-0.082175,-46.6793,19,0.00182473,10,0.00383587,-1.33088,2.4051,0.0245312,-44.7184,-0.082175,
2,0,0,1,0,36661.1,-0.0850146,-0.0853753,-46.5271,19,0.00163834,10,0.00397226,-1.33229,2.66157,0.0221673,-40.2891,-0.0853753,
2,0,0,1,0,36661.1,-0.088219,-0.0885936,-46.4235,19,0.00145248,10,0.00411283,-1.33326,3.09357,0.0190718,-34.5783,-0.0885936,
2,0,0,1,0,36661.1,-0.0914152,-0.0917685,-46.3131,19,0.00126703,10,0.00425008,-1.3343,3.70587,0.0159207,-28.7943,-0.0917685,
2,0,0,1,0,36661.1,-0.0946141,-0.0950292,-46.2348,19,0.00108195,10,0.00439366,-1.33503,4.32023,0.0136567,-24.6586,-0.0950292,
2,0,0,1,0,36661.1,-0.0978158,-0.0981733,-46.1586,19,0.00089714,10,0.00453154,-1.33575,5.79363,0.0101836,-18.3596,-0.0981733,
2,0,0,1,0,36661.1,-0.101012,-0.10138,-46.1082,19,0.000712612,10,0.00467445,-1.33622,8.30819,0.00710143,-12.7913,-0.10138,
2,0,0,1,0,36661.1,-0.104219,-0.104585,-46.0778,19,0.000528245,10,0.00481903,-1.33651,14.7777,0.00399251,-7.18506,-0.104585,
2,0,0,1,0,36661.1,-0.107415,-0.107753,-46.0721,19,0.000343955,10,0.0049644,-1.33656,166.534,0.000354283,-0.637461,-0.107753,
2,0,0,1,0,36661.1,-0.110611,-0.11095,-46.0668,19,0.000159679,10,0.00511112,-1.33661,-27.4329,-0.0021507,3.86962,-0.11095,
2,0,0,1,0,36661.1,-0.113819,-0.114187,-46.1001,19,-2.46757e-05,10,0.00526401,-1.3363,-11.7466,-0.00502271,9.04242,-0.114187,
2,0,0,1,0,36661.1,-0.117015,-0.117387,-46.1274,19,-0.000209135,10,0.00541474,-1.33604,-7.06925,-0.008346,15.0361,-0.117387,
2,0,0,1,0,36661.1,-0.120216,-0.120558,-46.1879,19,-0.000393754,10,0.00556834,-1.33547,-5.56678,-0.0105986,19.119,-0.1205585,
2,0,0,1,0,36661.1,-0.123418,-0.123725,-46.2589,19,-0.00057865,10,0.00572337,-1.3348,-4.26982,-0.0138179,24.9612,-0.123725,
2,0,0,1,0,36661.1,-0.126614,-0.127002,-46.3451,19,-0.000763857,10,0.0058859,-1.334,-3.71824,-0.0158677,28.7167,-0.127002,
2,0,0,1,0,36661.1,-0.129819,-0.130192,-46.447,19,-0.000949462,10,0.00604704,-1.33304,-3.30445,-0.0178547,32.378,-0.130192,
2,0,0,1,0,36661.1,-0.133015,-0.133411,-46.5569,19,-0.00113547,10,0.00621119,-1.33202,-2.84838,-0.0207136,37.6587,-0.133411,
2,0,0,1,0,36661.1,-0.136214,-0.136526,-46.6734,19,-0.00132195,10,0.00637213,-1.33093,-2.60351,-0.0226617,41.3117,-0.136526,
2,0,0,1,0,36661.1,-0.139416,-0.139771,-46.826,19,-0.00150899,10,0.00654491,-1.32951,-2.34684,-0.0251402,45.9666,-0.139771,
2,0,0,1,0,36661.1,-0.142612,-0.142983,-46.9754,19,-0.00169661,10,0.00671668,-1.32813,-2.24005,-0.0263387,48.2947,-0.142983,
2,0,0,1,0,36661.1,-0.145819,-0.146187,-47.1442,19,-0.00188486,10,0.0068919,-1.32657,-2.16835,-0.0272096,50.0647,-0.146187,
2,0,0,1,0,36661.1,-0.149015,-0.149384,-47.2943,19,-0.00207376,10,0.00706499,-1.32519,-2.0578,-0.0286714,52.9429,-0.149384,
2,0,0,1,0,36661.1,-0.152211,-0.152586,-47.4676,19,-0.0022633,10,0.00724288,-1.3236,-2.05292,-0.0287395,53.2598,-0.152586,
2,0,0,1,0,36661.1,-0.155418,-0.155823,-47.6552,19,-0.00245358,10,0.0074258,-1.32189,-1.98891,-0.0296645,55.162,-0.155823,
2,0,0,1,0,36661.2,-0.158615,-0.159015,-47.8274,19,-0.00264455,10,0.00760529,-1.32032,-1.94918,-0.0302692,56.4982,-0.159015,
2,0,0,1,0,36661.2,-0.161816,-0.162222,-48.0025,19,-0.00283623,10,0.00778706,-1.31874,-2.01131,-0.0293342,54.9561,-0.162222,
2,0,0,1,0,36661.2,-0.165018,-0.165332,-48.1877,19,-0.00302863,10,0.00796697,-1.31706,-1.95785,-0.0301351,56.6709,-0.165332,
2,0,0,1,0,36661.2,-0.168214,-0.16855,-48.3546,19,-0.00322174,10,0.00815019,-1.31556,-1.99783,-0.0295321,55.733,-0.1685504,
2,0,0,1,0,36661.2,-0.171419,-0.171713,-48.547,19,-0.00341557,10,0.00833613,-1.31384,-2.06093,-0.0286278,54.2248,-0.171713,
2,0,0,1,0,36661.2,-0.174615,-0.174955,-48.7122,19,-0.00361009,10,0.00852245,-1.31236,-2.11638,-0.0278777,52.9774,-0.174955,
2,0,0,1,0,36661.2,-0.177814,-0.178135,-48.8819,19,-0.00380528,10,0.00870761,-1.31085,-2.25118,-0.0262085,49.9834,-0.178135,
2,0,0,1,0,36661.2,-0.181015,-0.181366,-49.0336,19,-0.00400114,10,0.00889305,-1.30951,-2.27509,-0.0259331,49.6217,-0.181366,
2,0,0,1,0,36661.2,-0.184211,-0.18456,-49.1892,19,-0.00419761,10,0.00907838,-1.30813,-2.34944,-0.0251124,48.209,-0.18456,
2,0,0,1,0,36661.2,-0.187419,-0.187754,-49.3473,19,-0.00439471,10,0.00926517,-1.30674,-2.40178,-0.0245651,47.2975,-0.187754,
2,0,0,1,0,36661.2,-0.190615,-0.190939,-49.4992,19,-0.00459242,10,0.00945131,-1.3054,-2.47434,-0.0238448,46.0484,-0.190939,
2,0,0,1,0,36661.2,-0.193811,-0.19414,-49.6378,19,-0.00479073,10,0.00963668,-1.30419,-2.71555,-0.0217267,42.0601,-0.19414,
2,0,0,1,0,36661.2,-0.197018,-0.197352,-49.7782,19,-0.00498959,10,0.00982384,-1.30296,-3.59802,-0.0163979,31.7749,-0.197352,
2,0,0,1,0,36661.2,-0.199647,-0.19996,-49.8606,19,-0.00515404,10,0.00997011,-1.30224,0.25964,0.227238,-430.057,-0.19996,
2,0,0,1,0,36661.2,-0.200134,-0.200532,-49.804,19,-0.00518395,10,0.00998731,-1.30274,-0.0165092,-3.57376,6390.79,-0.200532,
2,0,0,1,1,36661.2,-0.198935,-0.199421,-47.3667,19,-0.00525608,10,0.00944591,-1.32453,-0.0592738,-0.995381,1694.97,-0.199421,
2,0,0,1,1,36661.2,-0.195739,-0.196147,-42.0796,19,-0.00543398,10,0.00825381,-1.37593,-0.067182,-0.878211,1426.69,-0.196147,
2,0,0,1,1,36661.2,-0.192535,-0.19293,-37.9459,19,-0.0055934,10,0.00732092,-1.42083,-0.0711934,-0.828729,1253.54,-0.19293,
2,0,0,1,1,36661.2,-0.189339,-0.189733,-34.3969,19,-0.0057376,10,0.00652623,-1.46348,-0.0751729,-0.784858,1066.09,-0.189733,
2,0,0,1,1,36661.2,-0.186137,-0.186573,-31.2614,19,-0.00586851,10,0.00583253,-1.50499,-0.0764224,-0.772025,948.94,-0.186573,
2,0,0,1,1,36661.2,-0.182935,-0.183336,-28.421,19,-0.0059875,10,0.00521059,-1.54636,-0.0764651,-0.771593,859.318,-0.183336,
2,0,0,1,1,36661.2,-0.179739,-0.180152,-25.8205,19,-0.00609567,10,0.00465162,-1.58804,-0.0753575,-0.782934,790.113,-0.180152,
2,0,0,1,1,36661.2,-0.176532,-0.176916,-23.3829,19,-0.00619378,10,0.00413681,-1.6311,-0.0730155,-0.808048,737.529,-0.176916,
2,0,0,1,1,36661.2,-0.173336,-0.173734,-21.1168,19,-0.00628252,10,0.0036687,-1.67537,-0.0703422,-0.838757,690.224,-0.173734,
2,0,0,1,1,36661.2,-0.17014,-0.170543,-18.986,19,-0.00636249,10,0.00323794,-1.72157,-0.0666623,-0.885059,653.322,-0.170543,
2,0,0,1,1,36661.2,-0.166932,-0.167328,-16.9687,19,-0.00643415,10,0.00283933,-1.77035,-0.0630734,-0.935418,615.615,-0.167328,
2,0,0,1,1,36661.2,-0.163736,-0.164169,-15.0549,19,-0.006498,10,0.00247155,-1.82232,-0.058358,-1.011,588.328,-0.164169,
2,0,0,1,1,36661.3,-0.160532,-0.160911,-13.2231,19,-0.00655434,10,0.00212775,-1.87867,-0.0535213,-1.10236,561.648,-0.160911,
2,0,0,1,1,36661.3,-0.157336,-0.15776,-11.4653,19,-0.00660353,10,0.00180877,-1.94061,-0.0483329,-1.2207,536.816,-0.15776,
2,0,0,1,1,36661.3,-0.154139,-0.154555,-9.79496,19,-0.00664587,10,0.00151386,-2.009,-0.0424515,-1.38982,517.954,-0.154555,
2,0,0,1,1,36661.3,-0.150935,-0.151356,-8.17679,19,-0.00668162,10,0.0012376,-2.08742,-0.0366443,-1.61007,494.777,-0.151356,
2,0,0,1,1,36661.3,-0.147739,-0.148179,-6.6284,19,-0.00671107,10,0.00098219,-2.17859,-0.0301361,-1.95779,477.162,-0.148179,
2,0,0,1,1,36661.3,-0.144532,-0.144945,-5.12475,19,-0.00673442,10,0.000742806,-2.29033,-0.0230261,-2.56231,461.367,-0.1449447,
2,0,0,1,1,36661.3,-0.141335,-0.141736,-3.6781,19,-0.00675186,10,0.000521319,-2.43438,-0.0149171,-3.95519,445.259,-0.1417359,
2,0,0,1,1,36661.3,-0.138139,-0.138565,-2.27561,19,-0.00676362,10,0.000315321,-2.6429,-0.0115461,-5.10996,430.108,-0.138565,
2,0,0,1,1,36661.3,-0.134932,-0.135346,-0.914363,19,-0.00676982,10,0.000123755,-3.03888,-0.0372607,-1.58344,419.446,-0.135346,
2,1,0,1,1,36661.3,-0.131736,-0.132108,0.396216,19,-0.00677072,10,-5.23435e-05,-3.40207,0.115342,0.511523,407.32,-0.132108,
2,1,0,1,1,36661.3,-0.12854,-0.12898,1.6722,19,-0.00676644,10,-0.000215681,-2.77671,0.0194636,3.0313,395.98,-0.12898,
2,1,0,1,1,36661.3,-0.125333,-0.125765,2.93815,19,-0.00675708,10,-0.000369517,-2.53193,0.0112773,5.23176,387.779,-0.125765,
2,1,0,1,1,36661.3,-0.122136,-0.122573,4.14333,19,-0.00674277,10,-0.000507861,-2.38265,0.0217147,2.71706,376.187,-0.122573,
2,1,0,1,1,36661.3,-0.118932,-0.119375,5.33394,19,-0.00672369,10,-0.00063674,-2.27295,0.0309178,1.90829,365.487,-0.1193751,
2,1,0,1,1,36661.3,-0.115736,-0.116213,6.47509,19,-0.00669995,10,-0.000752489,-2.18875,0.0394926,1.49395,358.788,-0.116213,
2,1,0,1,1,36661.3,-0.11254,-0.112994,7.60599,19,-0.00667167,10,-0.000859428,-2.11884,0.0482702,1.22229,350.505,-0.112994,
2,1,0,1,1,36661.3,-0.109335,-0.109794,8.72827,19,-0.00663887,10,-0.000958314,-2.05907,0.0569315,1.03633,343.24,-0.1097943,
2,1,0,1,1,36661.3,-0.106139,-0.106593,9.81415,19,-0.00660167,10,-0.00104612,-2.00815,0.0658743,0.895645,335.309,-0.106593,
2,1,0,1,1,36661.3,-0.102932,-0.103388,10.877,19,-0.00656018,10,-0.00112456,-1.96349,0.0754708,0.781759,325.886,-0.103388,
2,1,0,1,1,36661.3,-0.0997357,-0.100191,11.8987,19,-0.00651452,10,-0.00119215,-1.9245,0.0843679,0.699319,320.644,-0.100191,
2,1,0,1,1,36661.3,-0.0965395,-0.096974,12.9062,19,-0.00646477,10,-0.00125157,-1.8892,0.093867,0.628549,313.426,-0.096974,
2,1,0,1,1,36661.3,-0.0933323,-0.0937822,13.9219,19,-0.006411,10,-0.00130562,-1.8563,0.10279,0.573988,308.617,-0.0937822,
2,1,0,1,1,36661.3,-0.0901361,-0.0905956,14.8866,19,-0.00635327,10,-0.00134866,-1.82721,0.112746,0.523299,301.282,-0.0905956,
2,1,0,1,1,36661.3,-0.0869345,-0.0874102,15.8432,19,-0.00629171,10,-0.00138485,-1.80016,0.124135,0.47529,291.645,-0.0874102,
2,1,0,1,1,36661.3,-0.0837328,-0.0841611,16.7665,19,-0.00622638,10,-0.00141109,-1.77556,0.133957,0.440441,286.36,-0.0841611,
2,1,0,1,1,36661.4,-0.0805366,-0.0809205,17.6729,19,-0.00615742,10,-0.0014301,-1.75269,0.14533,0.405971,278.484,-0.0809205,
2,1,0,1,1,36661.4,-0.0773322,-0.0777403,18.5678,19,-0.00608484,10,-0.00144347,-1.73124,0.155216,0.380116,273.964,-0.0777403,
2,1,0,1,1,36661.4,-0.074136,-0.0745209,19.4326,19,-0.00600875,10,-0.00144814,-1.71147,0.165597,0.356287,268.912,-0.0745209,
2,1,0,1,1,36661.4,-0.0709371,-0.0713355,20.2803,19,-0.00592924,10,-0.0014467,-1.69293,0.178155,0.331171,260.974,-0.0713355,
2,1,0,1,1,36661.4,-0.0677354,-0.0681468,21.1079,19,-0.00584637,10,-0.00143844,-1.67556,0.188396,0.31317,257.113,-0.0681468,
2,1,0,1,1,36661.4,-0.0645393,-0.0649402,21.9083,19,-0.00576023,10,-0.00142273,-1.65939,0.200691,0.293984,250.677,-0.0649402,
2,1,0,1,1,36661.4,-0.0613321,-0.061708,22.727,19,-0.00567088,10,-0.00140244,-1.64346,0.21259,0.27753,245.243,-0.061708,
2,1,0,1,1,36661.4,-0.0581359,-0.0585067,23.4961,19,-0.00557834,10,-0.00137468,-1.629,0.223816,0.26361,240.869,-0.0585067,
2,1,0,1,1,36661.4,-0.0549398,-0.0553361,24.2496,19,-0.00548276,10,-0.00134188,-1.61529,0.238668,0.247205,233.341,-0.0553361,
2,1,0,1,1,36661.4,-0.0517325,-0.0521676,24.9849,19,-0.0053842,10,-0.0013034,-1.60232,0.250816,0.235232,228.844,-0.0521676,
2,1,0,1,1,36661.4,-0.0485364,-0.0489376,25.7069,19,-0.00528274,10,-0.00125803,-1.58995,0.264472,0.223086,223.34,-0.0489376,
2,1,0,1,1,36661.4,-0.0453347,-0.0457479,26.4159,19,-0.00517841,10,-0.00120847,-1.57813,0.280198,0.210565,216.545,-0.0457479,
2,1,0,1,1,36661.4,-0.042133,-0.0425359,27.1084,19,-0.00507128,10,-0.00115308,-1.5669,0.292839,0.201476,212.649,-0.0425359,
2,1,0,1,1,36661.4,-0.0389369,-0.0393239,27.7661,19,-0.00496146,10,-0.00109187,-1.55649,0.311495,0.189409,204.82,-0.0393239,
2,1,0,1,1,36661.4,-0.0357324,-0.0361438,28.4274,19,-0.00484903,10,-0.00102747,-1.54626,0.327411,0.180202,199.491,-0.03614375,
2,1,0,1,1,36661.4,-0.0325363,-0.0329275,29.0418,19,-0.00473402,10,-0.000956274,-1.53698,0.342502,0.172262,194.934,-0.0329275,
2,1,0,1,1,36661.4,-0.0293374,-0.0297336,29.6624,19,-0.00461654,10,-0.000881969,-1.52779,0.363954,0.162109,187.367,-0.0297336,
2,1,0,1,1,36661.4,-0.0261357,-0.0265227,30.2615,19,-0.00449661,10,-0.000802615,-1.51911,0.377903,0.156125,184.039,-0.0265227,
2,1,0,1,1,36661.4,-0.0229395,-0.0232853,30.8367,19,-0.00437433,10,-0.00071804,-1.51093,0.399496,0.147686,177.427,-0.0232853,
2,1,0,1,1,36661.4,-0.0197323,-0.0201221,31.3985,19,-0.0042498,10,-0.000631802,-1.50309,0.421848,0.139861,171.096,-0.0201221,
2,1,0,1,1,36661.4,-0.0165361,-0.0169398,31.9323,19,-0.00412308,10,-0.000540927,-1.49577,0.43944,0.134262,167.119,-0.01693978,
2,1,0,1,1,36661.4,-0.01334,-0.0136971,32.4559,19,-0.00399423,10,-0.00044455,-1.48871,0.46308,0.127408,161.174,-0.0136971,
2,1,0,1,1,36661.4,-0.0101328,-0.0104883,32.9753,19,-0.00386329,10,-0.000345854,-1.48181,0.487971,0.120909,155.324,-0.0104883,
2,1,0,1,1,36661.4,-0.00693663,-0.00738445,33.4515,19,-0.00373037,10,-0.000247021,-1.47558,0.51377,0.114837,149.618,-0.007384453,
2,1,0,1,1,36661.4,-0.00373494,-0.00413537,33.9212,19,-0.00359559,10,-0.000140276,-1.46953, , , ,-0.00413537,
2,1,0,1,1,36661.5,-0.000774629,-0.0011763,34.3292,19,-0.00346929,10,-4.03815e-05,-1.46434, , , ,-0.0011763,
2,1,0,0,1,36661.5,-0.000125413,-0.000554371,34.4333,19,-0.0034418,10,-1.90888e-05,-1.46302, , , ,-0.000554371,