File: Figure_codes/Fig_3-5/rawdata_trumpetplot_data/after 10th/20221101_1-115_003_TrumpetPlot_ParaChange_from10_every3_09_CV_C01_1.csv
mode,ox/red,error,control changes,counter inc.,time/s,control/V,Ewe/V,<I>/mA,cycle number,(Q-Qo)/C,I Range,P/W,log(|I|),Tafel slope mV/dec,alpha_eff,dI/d(E-IR),E-IR/V,
2,0,0,0,0,3152.65,2.44065e-05,-0.00042076,-5.10051,2,0.0000000E+000,10,2.14609e-06,-2.29239, , , ,-0.00042076,
2,0,0,1,0,3152.67,0.00179726,0.00143527,-1.80198,2,-5.68857e-05,10,-2.58634e-06,-2.74425, , , ,0.001435274,
2,1,0,1,0,3152.69,0.00379485,0.00348301,0.304279,2,-6.94101e-05,10,1.05981e-06,-3.51673,-0.0526759,-1.12006,823.181,0.00348301,
2,1,0,1,0,3152.71,0.00579244,0.00546021,1.51127,2,-5.0075e-05,10,8.25183e-06,-2.82066,0.00454278,12.9877,498.214,0.00546021,
2,1,0,1,0,3152.73,0.00779002,0.0074623,2.28682,2,-1.14836e-05,10,1.70649e-05,-2.64077,0.0148047,3.98521,325.99,0.0074623,
2,1,0,1,0,3152.75,0.00978761,0.00945953,2.81501,2,3.96772e-05,10,2.66286e-05,-2.55052,0.0284094,2.07678,218.852,0.00945953,
2,1,0,1,0,3152.77,0.0117852,0.011455,3.16063,2,9.97011e-05,10,3.62051e-05,-2.50023,0.0474638,1.24305,150.815,0.011455,
2,1,0,1,0,3152.79,0.0137828,0.0134865,3.42234,2,0.000165708,10,4.61554e-05,-2.46568,0.0667984,0.883254,116.796,0.01348652,
2,1,0,1,0,3152.81,0.0157804,0.0154447,3.62661,2,0.000236328,10,5.60119e-05,-2.4405,0.0876548,0.673095,94.7289,0.0154447,
2,1,0,1,0,3152.83,0.017778,0.0174354,3.79641,2,0.000310336,10,6.6192e-05,-2.42063,0.117786,0.500907,73.7509,0.0174354,
2,1,0,1,0,3152.85,0.0197755,0.0194574,3.92255,2,0.000387527,10,7.63228e-05,-2.40643,0.14406,0.40955,62.69,0.0194574,
2,1,0,1,0,3152.87,0.0217731,0.0214915,4.05069,2,0.000467313,10,8.70552e-05,-2.39247,0.155655,0.379044,59.7774,0.0214915,
2,1,0,1,0,3152.89,0.0237707,0.0234583,4.16171,2,0.000549443,10,9.76268e-05,-2.38073,0.174022,0.339038,55.0285,0.0234583,
2,1,0,1,0,3152.91,0.0257683,0.0254582,4.26897,2,0.00063333,10,0.00010868,-2.36968,0.187232,0.315117,52.4605,0.0254582,
2,1,0,1,0,3152.93,0.0277659,0.027458,4.37154,2,0.00071975,10,0.000120034,-2.35937,0.196872,0.299686,51.1233,0.027458,
2,1,0,1,0,3152.95,0.0297635,0.0294843,4.4748,2,0.000808258,10,0.000131936,-2.34923,0.209266,0.281938,49.1775,0.0294843,
2,1,0,1,0,3152.97,0.0317611,0.0314672,4.5687,2,0.000898713,10,0.000143764,-2.34021,0.19593,0.301127,53.832,0.0314672,
2,1,0,1,0,3152.99,0.0337586,0.0334476,4.68815,2,0.000990839,10,0.000156807,-2.329,0.187753,0.314242,57.4217,0.0334476,
2,1,0,1,0,3153.01,0.0357562,0.0354518,4.7975,2,0.00108568,10,0.00017008,-2.31898,0.213222,0.276707,51.7262,0.03545177,
2,1,0,1,0,3153.03,0.0377538,0.0374103,4.89312,2,0.00118269,10,0.000183053,-2.31041,0.215423,0.27388,52.4014,0.0374103,
2,1,0,1,0,3153.05,0.0397514,0.0394887,5.00905,2,0.00128177,10,0.000197801,-2.30024,0.186611,0.316166,61.899,0.03948874,
2,1,0,1,0,3153.07,0.041749,0.0414312,5.14201,2,0.00138272,10,0.00021304,-2.28887,0.196474,0.300294,60.0801,0.0414312,
2,1,0,1,0,3153.09,0.0437466,0.0434284,5.24575,2,0.00148655,10,0.000227815,-2.28019,0.223808,0.263619,54.0038,0.0434284,
2,1,0,1,0,3153.11,0.0457442,0.0454239,5.35764,2,0.00159253,10,0.000243365,-2.27103,0.218172,0.270429,56.5673,0.0454239,
2,1,0,1,0,3153.13,0.0477418,0.0474901,5.4755,2,0.00170091,10,0.000260033,-2.26158,0.197976,0.298016,63.7879,0.0474901,
2,1,0,1,0,3153.15,0.0497484,0.0494318,5.61329,2,0.00181169,10,0.000277475,-2.25078,0.204576,0.288402,63.0169,0.0494318,
2,1,0,1,0,3153.17,0.0517369,0.0514328,5.72396,2,0.00192442,10,0.0002944,-2.2423,0.220653,0.267389,59.8151,0.0514328,
2,1,0,1,0,3153.19,0.0537345,0.0534279,5.85232,2,0.00204012,10,0.000312677,-2.23267,0.223317,0.264199,60.2587,0.0534279,
2,1,0,1,0,3153.21,0.0557321,0.0554515,5.96612,2,0.00215833,10,0.000330831,-2.22431,0.235903,0.250103,58.24,0.0554515,
2,1,0,1,0,3153.23,0.0577206,0.0573839,6.08271,2,0.00227825,10,0.00034905,-2.2159,0.224244,0.263106,62.5336,0.0573839,
2,1,0,1,0,3153.25,0.0597273,0.0594418,6.21565,2,0.00240138,10,0.00036947,-2.20651,0.226047,0.261008,63.2411,0.0594418,
2,1,0,1,0,3153.27,0.0617249,0.061387,6.33588,2,0.00252696,10,0.00038894,-2.19819,0.248177,0.237734,58.7424,0.06138701,
2,1,0,1,0,3153.29,0.0637224,0.0634059,6.44851,2,0.00265489,10,0.000408874,-2.19054,0.254134,0.232161,58.475,0.0634059,
2,1,0,1,0,3153.31,0.06572,0.0654461,6.57323,2,0.00278514,10,0.000430192,-2.18222,0.238185,0.247707,63.5599,0.0654461,
2,1,0,1,0,3153.33,0.0677176,0.0674052,6.7027,2,0.00291739,10,0.000451797,-2.17375,0.260233,0.22672,59.1964,0.0674052,
2,1,0,1,0,3153.35,0.0697152,0.069423,6.80865,2,0.00305256,10,0.000472677,-2.16694,0.28243,0.208901,55.5394,0.069423,
2,1,0,1,0,3153.37,0.0717128,0.0713745,6.92316,2,0.00318989,10,0.000494137,-2.1597,0.27982,0.21085,56.9629,0.0713745,
2,1,0,1,0,3153.39,0.0737104,0.0734376,7.03733,2,0.00332952,10,0.000516805,-2.15259,0.28031,0.210482,57.8118,0.0734376,
2,1,0,1,0,3153.41,0.075708,0.0753633,7.15375,2,0.00347081,10,0.00053913,-2.14547,0.293447,0.201059,56.0841,0.0753633,
2,1,0,1,0,3153.43,0.0777056,0.0773861,7.25878,2,0.00361488,10,0.000561729,-2.13914,0.320929,0.183841,52.0825,0.0773861,
2,1,0,1,0,3153.45,0.0797031,0.0794297,7.36555,2,0.0037611,10,0.000585043,-2.1328,0.32837,0.179675,51.6298,0.0794297,
2,1,0,1,0,3153.47,0.0817007,0.0814382,7.46799,2,0.00390947,10,0.00060818,-2.1268,0.323172,0.182565,53.2268,0.0814382,
2,1,0,1,0,3153.49,0.0836983,0.0833912,7.5764,2,0.00405909,10,0.000631806,-2.12054,0.332615,0.177382,52.405,0.0833912,
2,1,0,1,0,3153.51,0.0856959,0.085351,7.67304,2,0.00421159,10,0.000654902,-2.11503,0.367829,0.160401,48.0273,0.085351,
2,1,0,1,0,3153.53,0.0876935,0.0873958,7.76873,2,0.00436605,10,0.000678955,-2.10965,0.382685,0.154174,46.7352,0.0873958,
2,1,0,1,0,3153.55,0.0896911,0.0894012,7.86233,2,0.00452232,10,0.000702902,-2.10445,0.354528,0.166418,51.113,0.0894012,
2,1,0,1,0,3153.57,0.0916887,0.0913693,7.97183,2,0.00467986,10,0.00072838,-2.09844,0.337747,0.174687,54.3282,0.0913693,
2,1,0,1,0,3153.59,0.0936862,0.093344,8.07653,2,0.00484045,10,0.000753895,-2.09278,0.35484,0.166272,52.406,0.093344,
2,1,0,1,0,3153.61,0.0956838,0.0953633,8.18114,2,0.00500304,10,0.000780181,-2.08719,0.334278,0.1765,56.4083,0.0953633,
2,1,0,1,0,3153.63,0.0976814,0.0973532,8.30268,2,0.00516781,10,0.000808292,-2.08078,0.299038,0.197299,63.9675,0.0973532,
2,1,0,1,0,3153.65,0.099679,0.0993341,8.43514,2,0.00533423,10,0.000837898,-2.07391,0.314022,0.187885,61.7885,0.0993341,
2,1,0,1,0,3153.67,0.101677,0.101384,8.55171,2,0.00550411,10,0.000867002,-2.06795,0.306878,0.192259,64.2478,0.101384,
2,1,0,1,0,3153.69,0.103674,0.103323,8.69144,2,0.0056765,10,0.000898029,-2.06091,0.256713,0.229829,78.0947,0.103323,
2,1,0,1,0,3153.71,0.105672,0.105377,8.86357,2,0.005852,10,0.000934016,-2.05239,0.238694,0.247178,85.5038,0.105377,
2,1,0,1,0,3153.73,0.107667,0.107377,9.03809,2,0.00603005,10,0.000970487,-2.04392,0.228949,0.2577,90.935,0.107377,
2,1,0,1,0,3153.75,0.109667,0.109322,9.22234,2,0.00621266,10,0.00100821,-2.03516,0.224073,0.263307,94.8041,0.109322,
2,1,0,1,0,3153.77,0.111665,0.111363,9.41595,2,0.00639902,10,0.00104859,-2.02614,0.224636,0.262647,96.527,0.111363,
2,1,0,1,0,3153.79,0.113662,0.113383,9.61436,2,0.00658932,10,0.00109011,-2.01708,0.220513,0.267558,100.393,0.113383,
2,1,0,1,0,3153.81,0.11566,0.115345,9.81571,2,0.00678358,10,0.00113219,-2.00808,0.207198,0.284751,109.223,0.115345,
2,1,0,1,0,3153.83,0.117657,0.117333,10.0457,2,0.00698124,10,0.00117869,-1.99802,0.211689,0.278711,109.134,0.117333,
2,1,0,1,0,3153.85,0.119655,0.119362,10.2541,2,0.00718418,10,0.00122395,-1.9891,0.232229,0.25406,101.6,0.1193621,
2,1,0,1,0,3153.87,0.121652,0.12132,10.4508,2,0.00739115,10,0.0012679,-1.98085,0.243039,0.24276,99.0159,0.12132,
2,1,0,1,0,3153.89,0.12365,0.123368,10.6507,2,0.00760216,10,0.00131396,-1.97262,0.243286,0.242513,100.815,0.123368,
2,1,0,1,0,3153.91,0.125648,0.125335,10.8556,2,0.0078163,10,0.00136058,-1.96435,0.262279,0.224951,95.1658,0.125335,
2,1,0,1,0,3153.93,0.127645,0.127368,11.0314,2,0.0080352,10,0.00140506,-1.95737,0.284445,0.207421,89.3075,0.127368,
2,1,0,1,0,3153.95,0.129643,0.129317,11.2112,2,0.00825765,10,0.0014498,-1.95035,0.290742,0.202929,88.7663,0.129317,
2,1,0,1,0,3153.97,0.13164,0.131375,11.3871,2,0.00848365,10,0.00149598,-1.94359,0.312381,0.188872,83.874,0.131375,
2,1,0,1,0,3153.99,0.133638,0.133333,11.5481,2,0.00871198,10,0.00153974,-1.93749,0.332246,0.177579,80.0096,0.133333,
2,1,0,1,0,3154.01,0.135636,0.135335,11.704,2,0.00894451,10,0.00158396,-1.93167,0.355411,0.166005,75.7981,0.1353353,
2,1,0,1,0,3154.03,0.137633,0.137351,11.8526,2,0.00918002,10,0.00162797,-1.92619,0.387025,0.152445,70.4573,0.137351,
2,1,0,1,0,3154.05,0.139631,0.139288,11.9825,2,0.00941838,10,0.00166902,-1.92145,0.41658,0.14163,66.2409,0.139288,
2,1,0,1,0,3154.07,0.141628,0.141339,12.1167,2,0.00965815,10,0.00171256,-1.91661,0.46194,0.127722,60.3286,0.141339,
2,1,0,1,0,3154.09,0.143626,0.143297,12.2243,2,0.00990158,10,0.00175171,-1.91277,0.582465,0.101294,48.28,0.143297,
2,1,0,1,0,3154.11,0.145624,0.145336,12.3097,2,0.010147,10,0.00178904,-1.90975,0.887509,0.0664782,31.8806,0.145336,
2,1,0,1,0,3154.13,0.147621,0.147302,12.352,2,0.0103936,10,0.00181948,-1.90826,1.76389,0.0334488,16.1109,0.147302,
2,1,0,1,0,3154.15,0.149619,0.149311,12.3738,2,0.0106397,10,0.00184753,-1.9075,-3.79055,-0.015565,-7.49407,0.149311,
2,1,0,1,0,3154.17,0.151616,0.151345,12.3217,2,0.0108867,10,0.00186483,-1.90933,-0.634926,-0.0929243,-44.551,0.1513454,
2,1,0,1,0,3154.19,0.153614,0.153299,12.1961,2,0.011132,10,0.00186965,-1.91378,-0.331196,-0.178142,-84.5007,0.153299,
2,1,0,1,0,3154.21,0.155611,0.155289,11.9884,2,0.011374,10,0.00186168,-1.92124,-0.23025,-0.256243,-119.551,0.155289,
2,1,0,1,0,3154.23,0.157609,0.15731,11.7165,2,0.0116099,10,0.00184313,-1.9312,-0.155962,-0.378297,-171.864,0.15731,
2,1,0,1,0,3154.25,0.159607,0.159294,11.3002,2,0.0118401,10,0.00180006,-1.94691,-0.114878,-0.513587,-225.697,0.159294,
2,1,0,1,0,3154.27,0.161604,0.1613,10.816,2,0.0120614,10,0.00174462,-1.96594,-0.0947284,-0.622833,-261.671,0.1613,
2,1,0,1,0,3154.29,0.163602,0.163318,10.2472,2,0.012272,10,0.00167355,-1.9894,-0.0795587,-0.741591,-295.585,0.163318,
2,1,0,1,0,3154.31,0.165606,0.165303,9.63294,2,0.0124706,10,0.00159235,-2.01624,-0.0712021,-0.828627,-310.922,0.165303,
2,1,0,1,0,3154.33,0.167597,0.167302,9.0085,2,0.012656,10,0.00150714,-2.04535,-0.0676346,-0.872335,-306.607,0.167302,
2,1,0,1,0,3154.35,0.169595,0.169301,8.40699,2,0.01283,10,0.00142331,-2.07536,-0.0673674,-0.875794,-287.701,0.169301,
2,1,0,1,0,3154.37,0.171592,0.171319,7.85267,2,0.0129924,10,0.00134531,-2.10498,-0.0685957,-0.860112,-264.272,0.171319,
2,1,0,1,0,3154.39,0.173581,0.173256,7.36182,2,0.0131435,10,0.00127548,-2.13301,-0.0756711,-0.77969,-225.007,0.173256,
2,1,0,1,0,3154.41,0.175587,0.175311,6.95455,2,0.0132865,10,0.00121921,-2.15773,-0.0845028,-0.698202,-189.979,0.175311,
2,1,0,1,0,3154.43,0.177585,0.177286,6.59629,2,0.0134219,10,0.00116943,-2.1807,-0.0920175,-0.641183,-165.653,0.177286,
2,1,0,1,0,3154.45,0.179582,0.179285,6.29623,2,0.0135507,10,0.00112882,-2.20092,-0.107951,-0.546543,-134.838,0.179285,
2,1,0,1,0,3154.47,0.18158,0.181303,6.05458,2,0.0136741,10,0.00109771,-2.21792,-0.124068,-0.475548,-112.623,0.181303,
2,1,0,1,0,3154.49,0.183578,0.183283,5.84601,2,0.0137925,10,0.00107147,-2.23314,-0.13468,-0.438076,-100.052,0.183283,
2,1,0,1,0,3154.51,0.185575,0.185305,5.65418,2,0.0139075,10,0.00104775,-2.24763,-0.147976,-0.398713,-88.2135,0.185305,
2,1,0,1,0,3154.53,0.187573,0.187254,5.49572,2,0.0140189,10,0.00102909,-2.25998,-0.17201,-0.343004,-73.7107,0.187254,
2,1,0,1,0,3154.55,0.18957,0.189279,5.36123,2,0.0141274,10,0.00101477,-2.27074,-0.189771,-0.310902,-65.0838,0.189279,
2,1,0,1,0,3154.57,0.191568,0.19127,5.23433,2,0.0142329,10,0.00100117,-2.28114,-0.201686,-0.292534,-59.8387,0.19127,
2,1,0,1,0,3154.59,0.193566,0.193256,5.12327,2,0.0143364,10,0.000990102,-2.29045,-0.226627,-0.26034,-52.1144,0.1932561,
2,1,0,1,0,3154.61,0.195563,0.195275,5.02558,2,0.0144379,10,0.000981372,-2.29881,-0.224357,-0.262974,-51.5188,0.195275,
2,1,0,1,0,3154.63,0.197561,0.197244,4.91781,2,0.0145374,10,0.000970009,-2.30823,-0.269379,-0.219023,-42.2282,0.197244,
2,1,0,1,0,3154.65,0.199558,0.199293,4.85592,2,0.0146346,10,0.000967751,-2.31373,-0.314361,-0.187682,-35.4953,0.199293,
2,1,0,1,0,3154.67,0.201556,0.20127,4.7749,2,0.0147309,10,0.000961045,-2.32104,-0.275699,-0.214002,-39.899,0.20127,
2,1,0,1,0,3154.69,0.203553,0.203213,4.69951,2,0.0148256,10,0.000955003,-2.32795,-0.313015,-0.188489,-34.6142,0.2032131,
2,1,0,1,0,3154.71,0.205551,0.205262,4.63673,2,0.0149189,10,0.000951744,-2.33379,-0.436461,-0.135178,-24.5325,0.205262,
2,1,0,1,0,3154.72,0.207549,0.207219,4.60124,2,0.0150108,10,0.000953464,-2.33712,-0.453704,-0.130041,-23.2922,0.207219,
2,1,0,1,0,3154.74,0.209546,0.209301,4.54265,2,0.0151021,10,0.000950782,-2.34269,-0.363061,-0.162507,-28.8129,0.209301,
2,1,0,1,0,3154.76,0.211544,0.211239,4.48541,2,0.0151922,10,0.000947494,-2.3482,-0.396446,-0.148822,-26.0829,0.211239,
2,1,0,1,0,3154.78,0.213541,0.213262,4.43934,2,0.0152814,10,0.000946742,-2.35268,-0.532523,-0.110793,-19.2285,0.213262,
2,1,0,1,0,3154.8,0.215539,0.215222,4.40883,2,0.0153693,10,0.000948876,-2.35568,-0.517305,-0.114053,-19.5861,0.215222,
2,1,0,1,0,3154.82,0.217537,0.21724,4.36142,2,0.0154569,10,0.000947476,-2.36037,-0.473387,-0.124634,-21.2357,0.21724,
2,1,0,1,0,3154.84,0.219534,0.219258,4.32311,2,0.0155438,10,0.000947878,-2.3642,-0.566191,-0.104205,-17.5934,0.219258,
2,1,0,1,0,3154.86,0.221532,0.221245,4.29097,2,0.01563,10,0.000949354,-2.36744,-0.661395,-0.0892053,-14.9469,0.2212448,
2,1,0,1,0,3154.88,0.223525,0.223232,4.26372,2,0.0157151,10,0.000951798,-2.37021,-0.706278,-0.0835365,-13.8997,0.223232,
2,1,0,1,0,3154.9,0.225527,0.22519,4.23612,2,0.0158001,10,0.000953935,-2.37303,-0.712974,-0.0827519,-13.6821,0.22519,
2,1,0,1,0,3154.92,0.227525,0.227196,4.20948,2,0.0158845,10,0.000956378,-2.37577,-0.682922,-0.0863934,-14.1857,0.227196,
2,1,0,1,0,3154.94,0.229522,0.229243,4.17864,2,0.0159684,10,0.000957923,-2.37897,-0.700729,-0.084198,-13.7422,0.229243,
2,1,0,1,0,3154.96,0.23152,0.231176,4.15479,2,0.0160517,10,0.000960487,-2.38145,-1.23681,-0.0477033,-7.75104,0.231176,
2,1,0,1,0,3154.98,0.233517,0.23317,4.1482,2,0.0161344,10,0.000967235,-2.38214,-1.00013,-0.0589922,-9.52136,0.23317,
2,1,0,1,0,3155,0.235515,0.235197,4.1165,2,0.016217,10,0.00096819,-2.38547,-0.756978,-0.0779415,-12.5406,0.2351972,
2,1,0,1,0,3155.02,0.237512,0.237223,4.09736,2,0.0162991,10,0.000971991,-2.3875,-0.975311,-0.0604935,-9.67241,0.237223,
2,1,0,1,0,3155.04,0.23951,0.239231,4.07748,2,0.0163808,10,0.000975461,-2.38961,-1.38333,-0.0426508,-6.79759,0.239231,
2,1,0,1,0,3155.06,0.241508,0.241211,4.07026,2,0.016462,10,0.000981792,-2.39038,-1.04256,-0.0565916,-8.96585,0.241211,
2,1,0,1,0,3155.08,0.243505,0.24323,4.04163,2,0.016543,10,0.000983046,-2.39344,-1.01487,-0.0581357,-9.19308,0.24323,
2,1,0,1,0,3155.1,0.245503,0.245208,4.03351,2,0.0166237,10,0.00098905,-2.39432,-1.32535,-0.0445164,-6.9974,0.245208,
2,1,0,1,0,3155.12,0.2475,0.247217,4.01373,2,0.0167042,10,0.000992263,-2.39645,-1.14041,-0.0517357,-8.11108,0.247217,
2,1,0,1,0,3155.14,0.249498,0.249223,4.00095,2,0.0167839,10,0.000997128,-2.39784,-1.15546,-0.051062,-7.96671,0.249223,
2,1,0,1,0,3155.16,0.251496,0.251219,3.98185,2,0.0168638,10,0.00100032,-2.39992,-1.26928,-0.0464829,-7.23207,0.251219,
2,1,0,1,0,3155.18,0.253493,0.253178,3.97234,2,0.0169433,10,0.00100571,-2.40095,-1.15104,-0.0512582,-7.93358,0.2531783,
2,1,0,1,0,3155.2,0.255491,0.255234,3.95,2,0.0170225,10,0.00100817,-2.4034,-1.5707,-0.0375629,-5.80611,0.2552335,
2,1,0,1,0,3155.22,0.257488,0.257216,3.9489,2,0.0171011,10,0.00101572,-2.40352,-2.99997,-0.0196669,-3.02715,0.257216,
2,1,0,1,0,3155.24,0.259486,0.259205,3.93798,2,0.01718,10,0.00102074,-2.40473,-1.06119,-0.0555978,-8.53132,0.259205,
2,1,0,1,0,3155.26,0.261484,0.261211,3.91482,2,0.0172585,10,0.00102259,-2.40729,-0.994038,-0.0593538,-9.07975,0.261211,
2,1,0,1,0,3155.28,0.263481,0.263208,3.90163,2,0.0173366,10,0.00102694,-2.40875,-3.42878,-0.0172073,-2.62548,0.263208,
2,1,0,1,0,3155.3,0.265479,0.26518,3.9044,2,0.0174143,10,0.00103537,-2.40845,-1.85541,-0.0317988,-4.83011,0.26518,
2,1,0,1,0,3155.32,0.267476,0.267158,3.88255,2,0.0174921,10,0.00103725,-2.41088,-0.96066,-0.0614161,-9.31363,0.2671577,
2,1,0,1,0,3155.34,0.269474,0.269182,3.86713,2,0.0175696,10,0.00104096,-2.41261,-1.63734,-0.036034,-5.44463,0.269182,
2,1,0,1,0,3155.36,0.271471,0.27117,3.86071,2,0.0176469,10,0.00104691,-2.41333,-4.44227,-0.0132815,-2.00238,0.27117,
2,1,0,1,0,3155.38,0.273469,0.273205,3.85907,2,0.0177236,10,0.00105432,-2.41352,-1.43582,-0.0410915,-6.17151,0.273205,
2,1,0,1,0,3155.4,0.275467,0.275167,3.83604,2,0.0178005,10,0.00105555,-2.41612,-0.918095,-0.0642635,-9.63048,0.275167,
2,1,0,1,0,3155.42,0.277464,0.27718,3.82079,2,0.0178771,10,0.00105905,-2.41785,-1.31545,-0.0448515,-6.69111,0.27718,
2,1,0,1,0,3155.44,0.279462,0.279183,3.80917,2,0.0179535,10,0.00106346,-2.41917,-2.08879,-0.028246,-4.20268,0.279183,
2,1,0,1,0,3155.46,0.281464,0.281139,3.80415,2,0.0180295,10,0.00106949,-2.41974,-2.43976,-0.0241827,-3.58823,0.281139,
2,1,0,1,0,3155.48,0.283457,0.283175,3.79484,2,0.0181051,10,0.00107461,-2.42081,-1.82417,-0.0323435,-4.78963,0.283175,
2,1,0,1,0,3155.5,0.285455,0.285178,3.7848,2,0.0181809,10,0.00107934,-2.42196,-1.12319,-0.052529,-7.74753,0.285178,
2,1,0,1,0,3155.52,0.287452,0.287207,3.76361,2,0.0182564,10,0.00108093,-2.4244,-1.27705,-0.0462004,-6.79969,0.287207,
2,1,0,1,0,3155.54,0.28945,0.289173,3.75764,2,0.0183316,10,0.00108661,-2.42508,-3.86454,-0.015267,-2.23981,0.289173,
2,1,0,1,0,3155.56,0.291447,0.291158,3.75476,2,0.0184064,10,0.00109323,-2.42542,-1.20687,-0.0488868,-7.14204,0.291158,
2,1,0,1,0,3155.58,0.293445,0.293153,3.72921,2,0.0184812,10,0.00109323,-2.42838,-1.02905,-0.0573342,-8.36401,0.293153,
2,1,0,1,0,3155.6,0.295442,0.295165,3.72125,2,0.0185557,10,0.00109838,-2.42931,-2.58793,-0.0227982,-3.31212,0.295165,
2,1,0,1,0,3155.62,0.29744,0.297168,3.71592,2,0.0186301,10,0.00110425,-2.42993,-1.7725,-0.0332862,-4.82165,0.297168,
2,1,0,1,0,3155.64,0.299438,0.299143,3.70206,2,0.018704,10,0.00110745,-2.43156,-0.0230781,-2.55654,-331.466,0.299143,
2,1,0,1,0,3155.65,0.299737,0.299457,2.95729,2,0.0187337,10,0.000885581,-2.52911,0.0014587,40.447,2035.28,0.299457,
2,1,0,1,0,3155.67,0.29774,0.29745,0.255609,2,0.0187607,10,7.60308e-05,-3.59242,0.00655729,8.99762,923.4,0.29745,
2,0,0,1,0,3155.69,0.295742,0.295466,-0.728167,2,0.0187545,10,-0.000215148,-3.13777,-0.00613584,-9.61563,351.296,0.295466,
2,0,0,1,0,3155.71,0.293745,0.293416,-1.16155,2,0.0187352,10,-0.000340816,-2.93496,-0.014482,-4.07402,162.654,0.293416,
2,0,0,1,0,3155.73,0.291747,0.291407,-1.38837,2,0.0187096,10,-0.000404582,-2.85749,-0.0320541,-1.84064,96.5525,0.291407,
2,0,0,1,0,3155.75,0.289754,0.289446,-1.54484,2,0.0186805,10,-0.000447149,-2.81112,-0.0528532,-1.1163,65.9838,0.289446,
2,0,0,1,0,3155.77,0.287752,0.287469,-1.64822,2,0.0186485,10,-0.000473811,-2.78299,-0.0791357,-0.745555,47.6633,0.287469,
2,0,0,1,0,3155.79,0.285754,0.285456,-1.73504,2,0.0186147,10,-0.000495278,-2.76069,-0.0948863,-0.621797,42.0203,0.285456,
2,0,0,1,0,3155.81,0.283757,0.283435,-1.81774,2,0.0185792,10,-0.000515211,-2.74047,-0.110359,-0.534619,37.7629,0.283435,
2,0,0,1,0,3155.83,0.281759,0.281434,-1.8869,2,0.0185422,10,-0.000531039,-2.72425,-0.131857,-0.447454,32.8743,0.281434,
2,0,0,1,0,3155.85,0.279761,0.279446,-1.94886,2,0.018504,10,-0.000544601,-2.71022,-0.146621,-0.402398,30.572,0.279446,
2,0,0,1,0,3155.87,0.277764,0.27748,-2.0078,2,0.0184645,10,-0.000557124,-2.69728,-0.162695,-0.362642,28.373,0.27748,
2,0,0,1,0,3155.89,0.275766,0.275468,-2.06174,2,0.0184238,10,-0.000567942,-2.68577,-0.188761,-0.312565,25.1025,0.275468,
2,0,0,1,0,3155.91,0.273769,0.273459,-2.10872,2,0.0183821,10,-0.00057665,-2.67598,-0.188743,-0.312594,25.7784,0.273459,
2,0,0,1,0,3155.93,0.271771,0.271454,-2.16521,2,0.0183396,10,-0.000587755,-2.6645,-0.192844,-0.305947,25.7904,0.271454,
2,0,0,1,0,3155.95,0.269774,0.269453,-2.21205,2,0.0182959,10,-0.000596043,-2.65521,-0.244394,-0.241414,20.7858,0.269453,
2,0,0,1,0,3155.97,0.267776,0.267487,-2.24767,2,0.0182514,10,-0.000601222,-2.64827,-0.271596,-0.217235,19.0731,0.267487,
2,0,0,1,0,3155.99,0.265778,0.26548,-2.28783,2,0.0182061,10,-0.000607372,-2.64058,-0.249143,-0.236812,21.1645,0.26548,
2,0,0,1,0,3156.01,0.263781,0.263459,-2.33292,2,0.0181601,10,-0.000614628,-2.6321,-0.247055,-0.238813,21.7217,0.263459,
2,0,0,1,0,3156.03,0.261783,0.261515,-2.37395,2,0.0181131,10,-0.000620824,-2.62453,-0.320121,-0.184305,17.0205,0.261515,
2,0,0,1,0,3156.05,0.259786,0.259516,-2.40003,2,0.0180654,10,-0.000622846,-2.61978,-0.324285,-0.181939,17.0981,0.2595157,
2,0,0,1,0,3156.07,0.257788,0.257512,-2.4424,2,0.0180171,10,-0.000628947,-2.61218,-0.296066,-0.19928,18.9637,0.257512,
2,0,0,1,0,3156.09,0.25579,0.255453,-2.47708,2,0.0179682,10,-0.000632777,-2.60606,-0.377929,-0.156114,15.0649,0.255453,
2,0,0,1,0,3156.11,0.253793,0.253481,-2.50312,2,0.0179184,10,-0.000634494,-2.60152,-0.385912,-0.152885,14.9561,0.253481,
2,0,0,1,0,3156.13,0.251795,0.251485,-2.53642,2,0.017868,10,-0.000637871,-2.59578,-0.359687,-0.164031,16.2309,0.251485,
2,0,0,1,0,3156.15,0.249798,0.249482,-2.56803,2,0.017817,10,-0.000640677,-2.5904,-0.343379,-0.171822,17.2397,0.249482,
2,0,0,1,0,3156.17,0.2478,0.247466,-2.60571,2,0.0177656,10,-0.000644825,-2.58407,-0.340598,-0.173225,17.5976,0.2474658,
2,0,0,1,0,3156.19,0.245802,0.245485,-2.63836,2,0.0177132,10,-0.00064768,-2.57867,-0.408302,-0.144501,14.8601,0.245485,
2,0,0,1,0,3156.21,0.243805,0.243504,-2.66458,2,0.0176603,10,-0.000648837,-2.57437,-0.516211,-0.114294,11.8748,0.243504,
2,0,0,1,0,3156.23,0.241807,0.241461,-2.68615,2,0.0176067,10,-0.000648601,-2.57087,-0.394789,-0.149447,15.7232,0.241461,
2,0,0,1,0,3156.25,0.23981,0.239515,-2.7273,2,0.0175529,10,-0.00065323,-2.56427,-0.379219,-0.155583,16.5077,0.2395155,
2,0,0,1,0,3156.27,0.237812,0.237501,-2.75152,2,0.0174982,10,-0.000653489,-2.56043,-0.494651,-0.119276,12.8159,0.237501,
2,0,0,1,0,3156.29,0.235815,0.235467,-2.77918,2,0.0174429,10,-0.000654406,-2.55608,-0.494481,-0.119317,12.9322,0.235467,
2,0,0,1,0,3156.31,0.233817,0.233518,-2.80303,2,0.0173872,10,-0.000654558,-2.55237,-0.409502,-0.144078,15.8016,0.233518,
2,0,0,1,0,3156.33,0.231815,0.231523,-2.84151,2,0.0173309,10,-0.000657874,-2.54645,-0.394724,-0.149472,16.545,0.231523,
2,0,0,1,0,3156.35,0.229822,0.229486,-2.86974,2,0.0172741,10,-0.000658565,-2.54216,-0.547757,-0.107712,12.0472,0.229486,
2,0,0,1,0,3156.37,0.227824,0.227466,-2.89038,2,0.0172166,10,-0.000657463,-2.53904,-0.531028,-0.111105,12.5509,0.2274656,
2,0,0,1,0,3156.39,0.225827,0.225527,-2.91944,2,0.0171586,10,-0.00065841,-2.5347,-0.488888,-0.120682,13.7406,0.2255266,
2,0,0,1,0,3156.41,0.223829,0.223517,-2.94464,2,0.0171,10,-0.000658177,-2.53097,-0.481297,-0.122586,14.1011,0.223517,
2,0,0,1,0,3156.43,0.221831,0.221538,-2.97567,2,0.0170411,10,-0.000659226,-2.52641,-0.491388,-0.120068,13.928,0.221538,
2,0,0,1,0,3156.45,0.219834,0.219528,-3.00021,2,0.0169813,10,-0.000658628,-2.52285,-0.44112,-0.13375,15.6965,0.2195276,
2,0,0,1,0,3156.47,0.217836,0.217523,-3.03871,2,0.0169209,10,-0.000660987,-2.51731,-0.509863,-0.115717,13.6727,0.217523,
2,0,0,1,0,3156.49,0.215839,0.215515,-3.05506,2,0.0168601,10,-0.000658413,-2.51498,-0.480126,-0.122884,14.7145,0.215515,
2,0,0,1,0,3156.51,0.213841,0.213499,-3.09791,2,0.0167988,10,-0.000661401,-2.50893,-0.397175,-0.148549,17.9174,0.213499,
2,0,0,1,0,3156.53,0.211843,0.211534,-3.12641,2,0.0167366,10,-0.00066134,-2.50495,-0.579207,-0.101863,12.4128,0.211534,
2,0,0,1,0,3156.55,0.209846,0.209543,-3.14702,2,0.0166739,10,-0.000659435,-2.5021,-0.57049,-0.10342,12.7217,0.209543,
2,0,0,1,0,3156.57,0.207848,0.207509,-3.1776,2,0.0166107,10,-0.000659382,-2.4979,-0.337308,-0.174914,21.781,0.2075094,
2,0,0,1,0,3156.59,0.205851,0.205511,-3.23483,2,0.0165468,10,-0.000664794,-2.49015,-0.38293,-0.154075,19.3395,0.205511,
2,0,0,1,0,3156.61,0.203853,0.203496,-3.25521,2,0.016482,10,-0.000662424,-2.48742,-0.599421,-0.0984283,12.5217,0.203496,
2,0,0,1,0,3156.63,0.201856,0.201527,-3.28472,2,0.0164167,10,-0.00066196,-2.4835,-0.438869,-0.134437,17.2589,0.201527,
2,0,0,1,0,3156.65,0.199858,0.199506,-3.32408,2,0.0163506,10,-0.000663174,-2.47833,-0.380077,-0.155232,20.1454,0.199506,
2,0,0,1,0,3156.67,0.19786,0.197481,-3.36623,2,0.0162841,10,-0.000664766,-2.47286,-0.451827,-0.130581,17.1116,0.1974811,
2,0,0,1,0,3156.69,0.195863,0.195559,-3.39162,2,0.0162166,10,-0.000663262,-2.46959,-0.396273,-0.148887,19.7869,0.195559,
2,0,0,1,0,3156.71,0.193865,0.193516,-3.44469,2,0.0161483,10,-0.000666602,-2.46285,-0.353901,-0.166713,22.3563,0.193516,
2,0,0,1,0,3156.73,0.191868,0.191563,-3.48096,2,0.0160792,10,-0.000666823,-2.4583,-0.35675,-0.165382,22.5216,0.191563,
2,0,0,1,0,3156.75,0.18987,0.18953,-3.53445,2,0.0160095,10,-0.000669885,-2.45168,-0.341385,-0.172826,23.7976,0.18953,
2,0,0,1,0,3156.77,0.187872,0.187569,-3.576,2,0.0159384,10,-0.000670747,-2.4466,-0.362311,-0.162844,22.7472,0.187569,
2,0,0,1,0,3156.79,0.185875,0.185574,-3.62443,2,0.0158665,10,-0.000672602,-2.44076,-0.33829,-0.174407,24.6746,0.185574,
2,0,0,1,0,3156.81,0.183877,0.183568,-3.67472,2,0.0157935,10,-0.000674562,-2.43478,-0.265416,-0.222293,31.9928,0.1835684,
2,0,0,1,0,3156.83,0.18188,0.181592,-3.75183,2,0.0157198,10,-0.000681304,-2.42576,-0.259579,-0.227291,33.1785,0.181592,
2,0,0,1,0,3156.85,0.179882,0.17959,-3.80673,2,0.0156443,10,-0.000683649,-2.41945,-0.309928,-0.190367,28.2968,0.17959,
2,0,0,1,0,3156.87,0.177885,0.177549,-3.86624,2,0.0155675,10,-0.000686448,-2.41271,-0.273604,-0.21564,32.585,0.177549,
2,0,0,1,0,3156.89,0.175887,0.175566,-3.93783,2,0.0154895,10,-0.00069135,-2.40474,-0.224588,-0.262704,40.4616,0.175566,
2,0,0,1,0,3156.91,0.173896,0.173554,-4.02787,2,0.0154103,10,-0.000699054,-2.39492,-0.201005,-0.293525,46.1478,0.173554,
2,0,0,1,0,3156.93,0.171892,0.171607,-4.12055,2,0.0153288,10,-0.000707115,-2.38504,-0.207084,-0.284909,45.7815,0.171607,
2,0,0,1,0,3156.95,0.169894,0.169616,-4.2082,2,0.0152457,10,-0.000713776,-2.3759,-0.193885,-0.304304,50.125,0.169616,
2,0,0,1,0,3156.97,0.167897,0.167579,-4.32243,2,0.0151604,10,-0.00072435,-2.36427,-0.175413,-0.33635,56.7163,0.167579,
2,0,0,1,0,3156.99,0.165899,0.165614,-4.43517,2,0.0150728,10,-0.000734524,-2.35309,-0.163887,-0.360005,62.4655,0.165614,
2,0,0,1,0,3157.01,0.163901,0.163586,-4.57189,2,0.0149831,10,-0.000747896,-2.3399,-0.150553,-0.391888,69.9651,0.163586,
2,0,0,1,0,3157.03,0.161904,0.161586,-4.71699,2,0.0148903,10,-0.000762197,-2.32634,-0.142347,-0.41448,76.4109,0.161586,
2,0,0,1,0,3157.05,0.159906,0.159567,-4.87896,2,0.0147944,10,-0.000778521,-2.31167,-0.132451,-0.445449,84.8943,0.159567,
2,0,0,1,0,3157.07,0.157909,0.157621,-5.05357,2,0.0146951,10,-0.000796549,-2.2964,-0.118493,-0.497921,98.558,0.157621,
2,0,0,1,0,3157.09,0.155911,0.155602,-5.26979,2,0.0145924,10,-0.000819988,-2.27821,-0.109143,-0.540576,111.282,0.155602,
2,0,0,1,0,3157.11,0.153913,0.153588,-5.50238,2,0.0144847,10,-0.000845099,-2.25945,-0.107841,-0.547103,117.48,0.153588,
2,0,0,1,0,3157.13,0.151916,0.151588,-5.74125,2,0.0143724,10,-0.000870307,-2.24099,-0.100918,-0.584635,131.453,0.151588,
2,0,0,1,0,3157.15,0.149918,0.149588,-6.02821,2,0.0142547,10,-0.000901746,-2.21981,-0.0920714,-0.640807,151.014,0.149588,
2,0,0,1,0,3157.17,0.147921,0.147586,-6.34574,2,0.0141316,10,-0.00093654,-2.19752,-0.0899069,-0.656234,162.509,0.1475856,
2,0,0,1,0,3157.19,0.145923,0.145618,-6.67341,2,0.0140014,10,-0.000971765,-2.17565,-0.0890696,-0.662404,172.832,0.145618,
2,0,0,1,0,3157.21,0.143926,0.143584,-7.03728,2,0.0138642,10,-0.00101044,-2.15259,-0.0850007,-0.694112,190.924,0.143584,
2,0,0,1,0,3157.23,0.141928,0.141621,-7.4364,2,0.0137195,10,-0.00105315,-2.12864,-0.0843846,-0.699179,202.834,0.141621,
2,0,0,1,0,3157.25,0.13993,0.139606,-7.84414,2,0.0135675,10,-0.00109509,-2.10545,-0.0874037,-0.675028,206.519,0.1396064,
2,0,0,1,0,3157.27,0.137933,0.137651,-8.25636,2,0.0134065,10,-0.00113649,-2.08321,-0.0924298,-0.638322,205.353,0.137651,
2,0,0,1,0,3157.29,0.135935,0.135655,-8.6556,2,0.0132373,10,-0.00117417,-2.0627,-0.0954609,-0.618054,209.183,0.135655,
2,0,0,1,0,3157.31,0.133938,0.133608,-9.10209,2,0.0130596,10,-0.00121611,-2.04086,-0.0964758,-0.611552,216.815,0.133608,
2,0,0,1,0,3157.33,0.13194,0.131636,-9.52694,2,0.0128744,10,-0.00125409,-2.02105,-0.104496,-0.564617,209.566,0.131636,
2,0,0,1,0,3157.35,0.129942,0.129653,-9.93095,2,0.0126798,10,-0.00128757,-2.00301,-0.115019,-0.512957,198.523,0.129653,
2,0,0,1,0,3157.37,0.127945,0.127657,-10.3169,2,0.0124772,10,-0.00131702,-1.98645,-0.128756,-0.458231,184.131,0.127657,
2,0,0,1,0,3157.39,0.125947,0.125637,-10.6704,2,0.0122674,10,-0.00134059,-1.97182,-0.139921,-0.421668,175.41,0.125637,
2,0,0,1,0,3157.41,0.12395,0.123713,-11.0087,2,0.0120517,10,-0.00136192,-1.95826,-0.158182,-0.372987,159.933,0.123713,
2,0,0,1,0,3157.43,0.121952,0.121638,-11.3099,2,0.0118284,10,-0.00137572,-1.94654,-0.189337,-0.311613,137.243,0.1216383,
2,0,0,1,0,3157.45,0.119955,0.119651,-11.5662,2,0.0115995,10,-0.00138391,-1.93681,-0.212515,-0.277628,125.2,0.119651,
2,0,0,1,0,3157.47,0.117957,0.117691,-11.8041,2,0.0113657,10,-0.00138924,-1.92797,-0.240206,-0.245622,113.039,0.117691,
2,0,0,1,0,3157.49,0.115955,0.115626,-12.0212,2,0.0111274,10,-0.00138996,-1.92005,-0.293033,-0.201342,94.2422,0.115626,
2,0,0,1,0,3157.51,0.113962,0.11365,-12.185,2,0.0108863,10,-0.00138482,-1.91418,-0.383624,-0.153796,73.0243,0.1136496,
2,0,0,1,0,3157.53,0.111964,0.111635,-12.3126,2,0.0106413,10,-0.00137452,-1.90965,-0.49927,-0.118173,56.7156,0.111635,
2,0,0,1,0,3157.55,0.109967,0.109663,-12.411,2,0.010394,10,-0.00136104,-1.90619,-0.720047,-0.0819391,39.6263,0.109663,
2,0,0,1,0,3157.57,0.107969,0.107637,-12.471,2,0.0101451,10,-0.00134234,-1.9041,-1.30047,-0.0453684,22.053,0.107637,
2,0,0,1,0,3157.59,0.105971,0.105657,-12.4994,2,0.00989656,10,-0.00132064,-1.90311,-4.02222,-0.0146685,7.14735,0.105657,
2,0,0,1,0,3157.61,0.103974,0.103675,-12.4993,2,0.00964657,10,-0.00129587,-1.90311,2.71533,0.0217285,-10.5816,0.103675,
2,0,0,1,0,3157.63,0.101976,0.101689,-12.4574,2,0.00939697,10,-0.00126679,-1.90457,0.902723,0.0653578,-31.7207,0.101689,
2,0,0,1,0,3157.65,0.0999786,0.0996896,-12.3729,2,0.00914868,10,-0.00123345,-1.90753,0.652816,0.0903777,-43.6308,0.0996896,
2,0,0,1,0,3157.67,0.0979811,0.0976897,-12.2829,2,0.00890325,10,-0.00119991,-1.9107,0.496502,0.118831,-56.8461,0.0976897,
2,0,0,1,0,3157.69,0.0959835,0.0956461,-12.1431,2,0.00865896,10,-0.00116144,-1.91567,0.366796,0.160853,-76.1339,0.0956461,
2,0,0,1,0,3157.71,0.0939859,0.0936353,-11.9742,2,0.00841776,10,-0.00112121,-1.92175,0.306198,0.192686,-89.9695,0.0936353,
2,0,0,1,0,3157.73,0.0919883,0.0916884,-11.787,2,0.00818013,10,-0.00108073,-1.9286,0.29268,0.201585,-92.765,0.0916884,
2,0,0,1,0,3157.75,0.0899907,0.0897113,-11.6102,2,0.00794723,10,-0.00104157,-1.93516,0.263509,0.223901,-101.21,0.0897113,
2,0,0,1,0,3157.77,0.0879931,0.0876715,-11.3804,2,0.00771727,10,-0.000997741,-1.94384,0.238169,0.247723,-110.097,0.0876715,
2,0,0,1,0,3157.79,0.0859955,0.0856995,-11.1685,2,0.00749176,10,-0.000957138,-1.952,0.241411,0.244396,-106.519,0.0856995,
2,0,0,1,0,3157.81,0.083998,0.0837036,-10.9578,2,0.0072705,10,-0.000917205,-1.96028,0.242981,0.242817,-103.851,0.0837036,
2,0,0,1,0,3157.83,0.0820004,0.0816883,-10.752,2,0.00705445,10,-0.000878311,-1.96851,0.248495,0.237429,-99.6738,0.0816883,
2,0,0,1,0,3157.85,0.0800028,0.0796958,-10.5583,2,0.00684136,10,-0.000841452,-1.97641,0.261916,0.225263,-92.8773,0.0796958,
2,0,0,1,0,3157.87,0.0780052,0.0776783,-10.3795,2,0.00663202,10,-0.000806265,-1.98382,0.275378,0.214251,-86.8255,0.0776783,
2,0,0,1,0,3157.89,0.0760076,0.0757007,-10.2114,2,0.00642612,10,-0.000773012,-1.99091,0.296787,0.198796,-79.3075,0.0757007,
2,0,0,1,0,3157.91,0.07401,0.07373,-10.0664,2,0.00622443,10,-0.000742196,-1.99713,0.330943,0.178278,-70.0555,0.07373,
2,0,0,1,0,3157.93,0.0720124,0.0716495,-9.92762,2,0.0060245,10,-0.000711309,-2.00315,0.348305,0.169392,-65.668,0.0716495,
2,0,0,1,0,3157.95,0.0700148,0.0696969,-9.80156,2,0.00582721,10,-0.000683139,-2.0087,0.35741,0.165077,-63.1466,0.06969694,
2,0,0,1,0,3157.97,0.0680173,0.067678,-9.67683,2,0.00563249,10,-0.000654909,-2.01427,0.433454,0.136116,-51.517,0.067678,
2,0,0,1,0,3157.99,0.0660106,0.0656869,-9.59497,2,0.00543992,10,-0.000630264,-2.01796,0.449437,0.131275,-49.0767,0.0656869,
2,0,0,1,0,3158.01,0.0640221,0.0637122,-9.48221,2,0.0052501,10,-0.000604132,-2.02309,0.408531,0.14442,-53.4782,0.0637122,
2,0,0,1,0,3158.03,0.0620245,0.0617105,-9.38233,2,0.0050615,10,-0.000578988,-2.02769,0.435915,0.135347,-49.5644,0.0617105,
2,0,0,1,0,3158.05,0.0600269,0.0597358,-9.28512,2,0.00487486,10,-0.000554654,-2.03221,0.470264,0.125461,-45.4957,0.0597358,
2,0,0,1,0,3158.07,0.0580361,0.0577409,-9.20173,2,0.00469098,10,-0.000531316,-2.03613,0.45965,0.128359,-46.0513,0.0577409,
2,0,0,1,0,3158.09,0.0560317,0.055745,-9.10133,2,0.00450785,10,-0.000507354,-2.04089,0.465518,0.12674,-45.0588,0.055745,
2,0,0,1,0,3158.11,0.0540342,0.0536666,-9.01814,2,0.00432665,10,-0.000483973,-2.04488,0.478062,0.123415,-43.4119,0.0536666,
2,0,0,1,0,3158.13,0.0520366,0.0516954,-8.92554,2,0.0041472,10,-0.000461409,-2.04937,0.420903,0.140175,-48.8069,0.0516954,
2,0,0,1,0,3158.15,0.050039,0.0497286,-8.82594,2,0.0039696,10,-0.000438901,-2.05424,0.440333,0.13399,-46.1864,0.0497286,
2,0,0,1,0,3158.17,0.0480414,0.0476772,-8.73995,2,0.0037947,10,-0.000416696,-2.05849,0.432911,0.136287,-46.4516,0.0476772,
2,0,0,1,0,3158.19,0.0460438,0.0457589,-8.64154,2,0.00362086,10,-0.000395428,-2.06341,0.368639,0.160048,-53.9284,0.0457589,
2,0,0,1,0,3158.21,0.0440462,0.0437572,-8.52855,2,0.0034491,10,-0.000373186,-2.06912,0.360575,0.163627,-54.4863,0.0437572,
2,0,0,1,0,3158.23,0.0420486,0.0417672,-8.42405,2,0.00327963,10,-0.000351849,-2.07448,0.366952,0.160784,-52.8421,0.0417672,
2,0,0,1,0,3158.25,0.040051,0.0397116,-8.31477,2,0.00311304,10,-0.000330193,-2.08015,0.347931,0.169574,-55.008,0.0397116,
2,0,0,1,0,3158.27,0.0380535,0.0377096,-8.20085,2,0.00294789,10,-0.000309251,-2.08614,0.292286,0.201857,-64.494,0.0377096,
2,0,0,1,0,3158.29,0.0360559,0.0357623,-8.06006,2,0.00278534,10,-0.000288246,-2.09366,0.287012,0.205566,-64.7476,0.03576228,
2,0,0,1,0,3158.31,0.0340583,0.0337091,-7.94183,2,0.00262532,10,-0.000267712,-2.10008,0.29592,0.199379,-61.7394,0.0337091,
2,0,0,1,0,3158.33,0.0320607,0.0317165,-7.81028,2,0.00246858,10,-0.000247714,-2.10733,0.264809,0.222802,-67.8797,0.0317165,
2,0,0,1,0,3158.35,0.0300631,0.0297451,-7.67275,2,0.00231374,10,-0.000228227,-2.11505,0.25668,0.229858,-68.8305,0.0297451,
2,0,0,1,0,3158.37,0.0280655,0.0277476,-7.53709,2,0.00216162,10,-0.000209136,-2.1228,0.270652,0.217992,-64.1807,0.0277476,
2,0,0,1,0,3158.39,0.0260679,0.025755,-7.41666,2,0.00201204,10,-0.000191016,-2.12979,0.273717,0.215551,-62.3604,0.025755,
2,0,0,1,0,3158.41,0.0240704,0.0237902,-7.29031,2,0.00186571,10,-0.000173438,-2.13725,0.278549,0.211812,-60.3024,0.0237902,
2,0,0,1,0,3158.43,0.0220728,0.0217396,-7.17453,2,0.00172103,10,-0.000155971,-2.14421,0.295652,0.199559,-55.8902,0.0217396,
2,0,0,1,0,3158.45,0.0200752,0.0197315,-7.06347,2,0.00157864,10,-0.000139373,-2.15098,0.289945,0.203487,-56.0861,0.0197315,
2,0,0,1,0,3158.47,0.0180776,0.0177638,-6.95154,2,0.00143841,10,-0.000123486,-2.15792,0.343517,0.171753,-46.7255,0.0177638,
2,0,0,1,0,3158.49,0.01608,0.0157852,-6.87908,2,0.00130085,10,-0.000108588,-2.16247,0.418367,0.141024,-37.8382,0.0157852,
2,0,0,1,0,3158.51,0.0140824,0.0137325,-6.799,2,0.00116408,10,-9.33672e-05,-2.16755,0.398507,0.148052,-39.2875,0.0137325,
2,0,0,1,0,3158.53,0.0120848,0.0117486,-6.72049,2,0.00102893,10,-7.89567e-05,-2.1726,0.414779,0.142245,-37.3298,0.0117486,
2,0,0,1,0,3158.55,0.0100872,0.00975278,-6.65044,2,0.000895319,10,-6.48603e-05,-2.17715,0.555452,0.10622,-27.6273,0.00975278,
2,0,0,1,0,3158.57,0.00809193,0.00770914,-6.60889,2,0.000763448,10,-5.09488e-05,-2.17987,0.658868,0.0895475,-23.0814,0.00770914,
2,0,0,1,0,3158.59,0.00609208,0.00578739,-6.55891,2,0.000631743,10,-3.7959e-05,-2.18317,0.637639,0.0925288,-23.697,0.00578739,
2,0,0,1,0,3158.61,0.00409449,0.00378192,-6.51583,2,0.000501024,10,-2.46423e-05,-2.18603,5.97398,0.00987616,-2.52604,0.00378192,
2,0,0,1,0,3158.63,0.0020969,0.00168709,-6.54856,2,0.000370828,10,-1.1048e-05,-2.18385,4.58482,0.0128685,-3.26907,0.00168709,
2,0,0,1,0,3158.65,9.14991e-05,-0.000244202,-6.50267,2,0.000240367,10,1.58797e-06,-2.18691,0.786513,0.0750147,-19.0612,-0.000244202,
2,0,0,1,0,3158.67,-0.00189827,-0.00225605,-6.47339,2,0.000111193,10,1.46043e-05,-2.18887,1.25644,0.0469581,-11.8732,-0.00225605,
2,0,0,1,0,3158.69,-0.00389586,-0.00426022,-6.45498,2,-1.81104e-05,10,2.74996e-05,-2.1901,3.47856,0.016961,-4.27935,-0.00426022,
2,0,0,1,0,3158.71,-0.00589345,-0.00622206,-6.45642,2,-0.000147253,10,4.01723e-05,-2.19001,5.19867,0.0113491,-2.85651,-0.00622206,
2,0,0,1,0,3158.73,-0.00789103,-0.00823909,-6.44362,2,-0.000276365,10,5.30896e-05,-2.19087,-8.27621,-0.00712887,1.79729,-0.00823909,
2,0,0,1,0,3158.75,-0.00988862,-0.0102369,-6.46364,2,-0.000404971,10,6.61673e-05,-2.18952,-1.73376,-0.0340301,8.58068,-0.0102369,
2,0,0,1,0,3158.77,-0.0118862,-0.0122779,-6.47827,2,-0.000534536,10,7.95396e-05,-2.18854,-2.36346,-0.0249634,6.30954,-0.0122779,
2,0,0,1,0,3158.79,-0.0138838,-0.0142656,-6.48906,2,-0.000664337,10,9.25702e-05,-2.18782,-1.83794,-0.0321011,8.13617,-0.0142656,
2,0,0,1,0,3158.81,-0.0158814,-0.0162372,-6.51049,2,-0.000794403,10,0.000105712,-2.18639,-0.944726,-0.062452,15.8929,-0.0162372,
2,0,0,1,0,3158.83,-0.017879,-0.0182516,-6.55241,2,-0.000924541,10,0.000119592,-2.1836,-0.92113,-0.0640518,16.3559,-0.0182516,
2,0,0,1,0,3158.85,-0.0198766,-0.0202264,-6.57573,2,-0.0010559,10,0.000133003,-2.18206,-1.13128,-0.0521535,13.3911,-0.02022635,
2,0,0,1,0,3158.87,-0.0218741,-0.0222496,-6.60594,2,-0.00118771,10,0.00014698,-2.18007,-0.891305,-0.066195,17.0751,-0.0222496,
2,0,0,1,0,3158.89,-0.0238717,-0.0242002,-6.64359,2,-0.00132025,10,0.000160776,-2.1776,-0.671634,-0.0878454,22.802,-0.0242002,
2,0,0,1,0,3158.91,-0.0258693,-0.0262142,-6.69635,2,-0.00145309,10,0.00017554,-2.17416,-0.757052,-0.0779338,20.3311,-0.0262142,
2,0,0,1,0,3158.93,-0.0278669,-0.0282371,-6.72566,2,-0.00158733,10,0.000189913,-2.17227,-0.86386,-0.0682981,17.9442,-0.0282371,
2,0,0,1,0,3158.95,-0.0298645,-0.0302083,-6.76802,2,-0.00172235,10,0.00020445,-2.16954,-0.69457,-0.0849447,22.4447,-0.0302083,
2,0,0,1,0,3158.97,-0.0318621,-0.0322311,-6.81531,2,-0.00185832,10,0.000219665,-2.16651,-0.620859,-0.0950296,25.2897,-0.0322311,
2,0,0,1,0,3158.99,-0.0338597,-0.0342505,-6.87024,2,-0.00199456,10,0.00023531,-2.16303,-0.565755,-0.104285,27.9638,-0.03425055,
2,0,0,1,0,3159.01,-0.0358573,-0.0362128,-6.92665,2,-0.00213259,10,0.000250833,-2.15948,-0.594305,-0.0992757,26.8259,-0.0362128,
2,0,0,1,0,3159.03,-0.0378548,-0.0382572,-6.97773,2,-0.00227172,10,0.000266949,-2.15629,-0.673643,-0.0875834,23.8386,-0.0382572,
2,0,0,1,0,3159.05,-0.0398524,-0.040212,-7.02199,2,-0.00241183,10,0.000282368,-2.15354,-0.524974,-0.112386,30.87,-0.040212,
2,0,0,1,0,3159.07,-0.04185,-0.0421843,-7.09895,2,-0.00255238,10,0.000299464,-2.14881,-0.514676,-0.114635,31.6996,-0.0421843,
2,0,0,1,0,3159.09,-0.0438476,-0.0442322,-7.14942,2,-0.00269501,10,0.000316235,-2.14573,-0.600342,-0.0982773,27.4383,-0.0442322,
2,0,0,1,0,3159.11,-0.0458452,-0.0461961,-7.20903,2,-0.00283882,10,0.000333029,-2.14212,-0.540333,-0.109192,30.7261,-0.04619607,
2,0,0,1,0,3159.13,-0.0478428,-0.048205,-7.27149,2,-0.0029837,10,0.000350522,-2.13838,-0.445111,-0.132551,37.6834,-0.048205,
2,0,0,1,0,3159.15,-0.0498495,-0.0502183,-7.3606,2,-0.00313004,10,0.000369637,-2.13309,-0.457626,-0.128926,36.9562,-0.0502183,
2,0,0,1,0,3159.17,-0.051838,-0.0521877,-7.41868,2,-0.00327721,10,0.000387163,-2.12967,-0.539668,-0.109326,31.6744,-0.0521877,
2,0,0,1,0,3159.19,-0.0538355,-0.0542126,-7.48712,2,-0.00342635,10,0.000405896,-2.12569,-0.473051,-0.124722,36.467,-0.05421257,
2,0,0,1,0,3159.21,-0.0558331,-0.0562172,-7.56562,2,-0.003577,10,0.000425318,-2.12116,-0.428312,-0.13775,40.6828,-0.05621716,
2,0,0,1,0,3159.23,-0.0578216,-0.0581812,-7.64857,2,-0.00372847,10,0.000445003,-2.11642,-0.428685,-0.13763,41.0718,-0.0581812,
2,0,0,1,0,3159.25,-0.0598283,-0.0601728,-7.72808,2,-0.00388243,10,0.00046502,-2.11193,-0.415751,-0.141912,42.836,-0.0601728,
2,0,0,1,0,3159.27,-0.0618259,-0.062203,-7.82085,2,-0.00403795,10,0.00048648,-2.10675,-0.406553,-0.145122,44.2772,-0.062203,
2,0,0,1,0,3159.29,-0.0638235,-0.0642388,-7.90812,2,-0.00419532,10,0.000508008,-2.10193,-0.412615,-0.142991,44.1327,-0.0642388,
2,0,0,1,0,3159.31,-0.0658211,-0.0661857,-7.99662,2,-0.00435447,10,0.000529262,-2.09709,-0.37546,-0.157141,49.0938,-0.0661857,
2,0,0,1,0,3159.33,-0.0678187,-0.0682115,-8.10315,2,-0.00451485,10,0.000552728,-2.09135,-0.359913,-0.163929,51.8181,-0.0682115,
2,0,0,1,0,3159.35,-0.0698162,-0.070177,-8.20344,2,-0.00467799,10,0.000575693,-2.086,-0.379651,-0.155406,49.7405,-0.070177,
2,0,0,1,0,3159.37,-0.0718138,-0.0721713,-8.30011,2,-0.0048431,10,0.00059903,-2.08092,-0.361086,-0.163396,52.9846,-0.0721713,
2,0,0,1,0,3159.39,-0.0738114,-0.0741758,-8.41532,2,-0.00501035,10,0.000624213,-2.07493,-0.321848,-0.183316,60.2421,-0.0741758,
2,0,0,1,0,3159.41,-0.075809,-0.0761857,-8.54195,2,-0.00517922,10,0.000650775,-2.06844,-0.333318,-0.177008,58.9446,-0.0761857,
2,0,0,1,0,3159.43,-0.0778066,-0.0781773,-8.65118,2,-0.00535129,10,0.000676326,-2.06292,-0.340355,-0.173349,58.5756,-0.0781773,
2,0,0,1,0,3159.45,-0.0798042,-0.0801763,-8.7757,2,-0.00552564,10,0.000703603,-2.05672,-0.320928,-0.183842,62.9638,-0.0801763,
2,0,0,1,0,3159.47,-0.0818018,-0.0821518,-8.90143,2,-0.00570247,10,0.000731269,-2.05054,-0.310376,-0.190092,66.067,-0.0821518,
2,0,0,1,0,3159.49,-0.0837994,-0.0841241,-9.03652,2,-0.00588107,10,0.000760189,-2.044,-0.320413,-0.184138,64.8987,-0.0841241,
2,0,0,1,0,3159.51,-0.0857969,-0.0861602,-9.16157,2,-0.00606308,10,0.000789363,-2.03803,-0.326547,-0.180678,64.6342,-0.0861602,
2,0,0,1,0,3159.53,-0.0877945,-0.0881577,-9.29723,2,-0.00624776,10,0.000819623,-2.03165,-0.319316,-0.18477,67.026,-0.0881577,
2,0,0,1,0,3159.55,-0.0897921,-0.0901602,-9.42968,2,-0.00643512,10,0.000850182,-2.0255,-0.323162,-0.182571,67.1953,-0.0901602,
2,0,0,1,0,3159.57,-0.0917897,-0.0921492,-9.56544,2,-0.00662411,10,0.000881448,-2.01929,-0.332538,-0.177423,66.2007,-0.0921492,
2,0,0,1,0,3159.59,-0.0937873,-0.0941356,-9.69285,2,-0.00681681,10,0.000912443,-2.01355,-0.354718,-0.166329,62.9052,-0.0941356,
2,0,0,1,0,3159.61,-0.0957849,-0.0961485,-9.81701,2,-0.00701202,10,0.000943891,-2.00802,-0.372627,-0.158335,60.6455,-0.0961485,
2,0,0,1,0,3159.63,-0.0977825,-0.0981561,-9.93668,2,-0.00720963,10,0.000975345,-2.00276,-0.362613,-0.162708,63.1273,-0.0981561,
2,0,0,1,0,3159.65,-0.0997501,-0.100104,-10.0667,2,-0.00740566,10,0.00100772,-1.99711,0.00667716,8.83609,-2923.56,-0.100104,
2,0,0,1,1,3159.66,-0.0987313,-0.0991027,-7.16938,2,-0.00753789,10,0.000710505,-2.14452,-0.00805014,-7.32906,1929.58,-0.0991027,
2,0,0,1,1,3159.68,-0.0967337,-0.0970898,-4.25092,2,-0.00764964,10,0.000412721,-2.37152,-0.00791125,-7.45773,1235.53,-0.09708982,
2,0,0,1,1,3159.7,-0.0947361,-0.0951212,-2.25019,2,-0.00771331,10,0.000214041,-2.64778,-0.00541534,-10.895,866.743,-0.0951212,
2,0,0,1,1,3159.72,-0.0927386,-0.093075,-0.77108,2,-0.00774261,10,7.17682e-05,-3.1129,-0.00495894,-11.8977,639.232,-0.093075,
2,1,0,1,1,3159.74,-0.090741,-0.0910656,0.342282,2,-0.00774633,10,-3.11701e-05,-3.46562,0.0206858,2.8522,498.293,-0.09106563,
2,1,0,1,1,3159.76,-0.0887434,-0.0891258,1.19678,2,-0.00773056,10,-0.000106664,-2.92199,0.00536228,11.0028,387.812,-0.0891258,
2,1,0,1,1,3159.78,-0.0867458,-0.0870971,1.88131,2,-0.00769942,10,-0.000163857,-2.72554,0.0128732,4.58317,311.588,-0.0870971,
2,1,0,1,1,3159.8,-0.0847482,-0.0851614,2.43203,2,-0.00765599,10,-0.000207115,-2.61403,0.0212489,2.77661,254.75,-0.0851614,
2,1,0,1,1,3159.82,-0.0827529,-0.0831266,2.89281,2,-0.00760288,10,-0.000240469,-2.53868,0.0311763,1.89246,209.137,-0.0831266,
2,1,0,1,1,3159.84,-0.080753,-0.0811411,3.27283,2,-0.00754107,10,-0.000265561,-2.48508,0.0427804,1.37913,173.799,-0.0811411,
2,1,0,1,1,3159.86,-0.0787554,-0.0791126,3.59044,2,-0.0074723,10,-0.000284049,-2.44485,0.0569578,1.03585,143.659,-0.0791126,
2,1,0,1,1,3159.88,-0.0767579,-0.0771232,3.85004,2,-0.00739785,10,-0.000296927,-2.41453,0.0726024,0.812646,121.454,-0.07712318,
2,1,0,1,1,3159.9,-0.0747603,-0.0750895,4.07906,2,-0.00731848,10,-0.000306295,-2.38944,0.0861012,0.68524,108.723,-0.0750895,
2,1,0,1,1,3159.92,-0.0727627,-0.0730866,4.28891,2,-0.00723497,10,-0.000313462,-2.36765,0.106071,0.556231,92.4635,-0.0730866,
2,1,0,1,1,3159.94,-0.0707651,-0.0711314,4.44504,2,-0.00714752,10,-0.000316182,-2.35212,0.132012,0.446928,77.4567,-0.0711314,
2,1,0,1,1,3159.96,-0.0687675,-0.0691198,4.59617,2,-0.00705705,10,-0.000317686,-2.3376,0.149665,0.394214,70.5262,-0.0691198,
2,1,0,1,1,3159.98,-0.0667699,-0.0671471,4.72603,2,-0.00696377,10,-0.00031734,-2.3255,0.17601,0.335209,61.7266,-0.0671471,
2,1,0,1,1,3160,-0.0647723,-0.0651251,4.84275,2,-0.0068684,10,-0.000315384,-2.31491,0.209201,0.282026,53.1938,-0.0651251,
2,1,0,1,1,3160.02,-0.0627748,-0.0630988,4.94138,2,-0.00677061,10,-0.000311795,-2.30615,0.247166,0.238706,45.9705,-0.0630988,
2,1,0,1,1,3160.04,-0.0607772,-0.0611033,5.02763,2,-0.00667089,10,-0.000307205,-2.29864,0.286075,0.20624,40.412,-0.0611033,
2,1,0,1,1,3160.06,-0.0587796,-0.0591464,5.10111,2,-0.00656952,10,-0.000301712,-2.29234,0.325832,0.181075,36.0356,-0.0591464,
2,1,0,1,1,3160.08,-0.056782,-0.0571076,5.17162,2,-0.00646723,10,-0.000295339,-2.28637,0.367772,0.160426,32.3481,-0.0571076,
2,1,0,1,1,3160.1,-0.0547844,-0.0550748,5.23281,2,-0.00636316,10,-0.000288196,-2.28126,0.460391,0.128152,26.1235,-0.0550748,
2,1,0,1,1,3160.12,-0.0527868,-0.0531404,5.27525,2,-0.006258,10,-0.000280329,-2.27776,0.590499,0.0999155,20.5624,-0.0531404,
2,1,0,1,1,3160.14,-0.0507892,-0.0511337,5.31385,2,-0.00615204,10,-0.000271717,-2.27459,0.515636,0.114422,23.7693,-0.0511337,
2,1,0,1,1,3160.16,-0.0487916,-0.0491247,5.3707,2,-0.00604569,10,-0.000263834,-2.26997,0.565059,0.104414,21.8311,-0.0491247,
2,1,0,1,1,3160.18,-0.046794,-0.0471331,5.40119,2,-0.0059379,10,-0.000254575,-2.26751,0.977853,0.0603363,12.7064,-0.0471331,
2,1,0,1,1,3160.2,-0.0447965,-0.0451185,5.42161,2,-0.0058297,10,-0.000244615,-2.26587,1.23421,0.0478039,10.1145,-0.0451185,
2,1,0,1,1,3160.22,-0.0427989,-0.0431221,5.44176,2,-0.00572109,10,-0.00023466,-2.26426,1.02115,0.057778,12.2804,-0.0431221,
2,1,0,1,1,3160.24,-0.0408013,-0.0411241,5.47066,2,-0.00561252,10,-0.000224976,-2.26196,1.65889,0.035566,7.5741,-0.0411241,
2,1,0,1,1,3160.26,-0.0388037,-0.0391655,5.47173,2,-0.00550306,10,-0.000214303,-2.26188,3.4635,0.0170348,3.64183,-0.0391655,
2,1,0,1,1,3160.28,-0.0368061,-0.0371091,5.48528,2,-0.00539345,10,-0.000203554,-2.2608,2.20108,0.026805,5.73617,-0.0371091,
2,1,0,1,1,3160.3,-0.0348085,-0.0351257,5.4949,2,-0.0052836,10,-0.000193012,-2.26004,2.02276,0.0291681,6.25828,-0.0351257,
2,1,0,1,1,3160.32,-0.0328109,-0.0331304,5.51018,2,-0.00517414,10,-0.000182554,-2.25883,6.04593,0.00975863,2.09429,-0.0331304,
2,1,0,1,1,3160.34,-0.0308134,-0.0312069,5.50311,2,-0.00506405,10,-0.000171735,-2.25939,-4.96687,-0.0118787,-2.55212,-0.0312069,
2,1,0,1,1,3160.36,-0.0288158,-0.0291767,5.50009,2,-0.00495398,10,-0.000160474,-2.25963,-12.1859,-0.00484166,-1.03944,-0.0291767,
2,1,0,1,1,3160.38,-0.0268182,-0.0271951,5.49894,2,-0.0048439,10,-0.000149544,-2.25972,-11.3611,-0.00519315,-1.11427,-0.0271951,
2,1,0,1,1,3160.4,-0.0248138,-0.0251874,5.49565,2,-0.004734,10,-0.000138421,-2.25998,30.9917,0.00190373,0.408615,-0.0251874,
2,1,0,1,1,3160.42,-0.022823,-0.023133,5.5006,2,-0.00462451,10,-0.000127245,-2.25959,-10.8175,-0.0054541,-1.16928,-0.023133,
2,1,0,1,1,3160.44,-0.0208254,-0.0211716,5.49095,2,-0.00451457,10,-0.000116252,-2.26035,-1.95709,-0.0301468,-6.45658,-0.0211716,
2,1,0,1,1,3160.46,-0.0188278,-0.0191691,5.475,2,-0.0044049,10,-0.000104951,-2.26162,-3.02438,-0.0195081,-4.17415,-0.0191691,
2,1,0,1,1,3160.48,-0.0168393,-0.0171885,5.47433,2,-0.0042959,10,-9.40957e-05,-2.26167,-7.70528,-0.00765708,-1.63513,-0.01718854,
2,1,0,1,1,3160.5,-0.0148327,-0.0151705,5.46846,2,-0.00418633,10,-8.29593e-05,-2.26213,-2.57501,-0.0229125,-4.88648,-0.0151705,
2,1,0,1,1,3160.52,-0.0128351,-0.0132127,5.4549,2,-0.00407705,10,-7.20742e-05,-2.26321,-3.36626,-0.0175269,-3.73544,-0.0132127,
2,1,0,1,1,3160.54,-0.0108375,-0.0111808,5.45356,2,-0.00396796,10,-6.09752e-05,-2.26332,-5.8147,-0.0101467,-2.15838,-0.0111808,
2,1,0,1,1,3160.56,-0.00883989,-0.00918098,5.4462,2,-0.00385893,10,-5.00014e-05,-2.26391,-2.29767,-0.0256782,-5.45439,-0.00918098,
2,1,0,1,1,3160.58,-0.0068423,-0.00721917,5.43195,2,-0.00375054,10,-3.92142e-05,-2.26504,-3.25435,-0.0181296,-3.84793,-0.007219167,
2,1,0,1,1,3160.6,-0.00484471,-0.00516147,5.43073,2,-0.0036419,10,-2.80305e-05,-2.26514,-4.7156,-0.0125117,-2.64978,-0.00516147,
2,1,0,1,1,3160.62,-0.00284713,-0.00320917,5.42133,2,-0.00353338,10,-1.7398e-05,-2.26589,-2.58534,-0.022821,-4.82828,-0.003209169,
2,1,0,1,1,3160.64,-0.000849538,-0.00120956,5.41165,2,-0.003425,10,-6.54574e-06,-2.26667, , , ,-0.00120956,
2,1,0,1,1,3160.65,-2.55332e-05,-0.000363498,5.42518,2,-0.00338113,10,-1.97204e-06,-2.26559, , , ,-0.000363498,