File: Figure_codes/Fig_3-5/rawdata_trumpetplot_data/after 10th/20221101_1-115_003_TrumpetPlot_ParaChange_from10_every3_13_CV_C01_9.csv
mode,ox/red,error,control changes,counter inc.,time/s,control/V,Ewe/V,<I>/mA,cycle number,(Q-Qo)/C,I Range,P/W,log(|I|),Tafel slope mV/dec,alpha_eff,dI/d(E-IR),E-IR/V,
2,1,0,1,0,18929,2.44065e-05,-0.000248974,21.9894,10,0.0000000E+000,10,-5.47478e-06,-1.65779, , , ,-0.000248974,
2,1,0,1,0,18929,0.00266289,0.00226525,23.2769,10,7.06599e-05,10,5.27279e-05,-1.63308, , , ,0.00226525,
2,1,0,1,0,18929,0.00586735,0.00549949,24.4034,10,0.000166218,10,0.000134206,-1.61255, , , ,0.00549949,
2,1,0,1,0,18929,0.00906349,0.0086648,25.3624,10,0.000265863,10,0.000219761,-1.59581,0.198244,0.297614,291.55,0.0086648,
2,1,0,1,0,18929,0.0122624,0.0118545,26.222,10,0.000369136,10,0.000310849,-1.58133,0.230631,0.25582,259.904,0.0118545,
2,1,0,1,0,18929,0.0154641,0.0150993,27.0186,10,0.000475715,10,0.000407964,-1.56834,0.260102,0.226834,237.816,0.01509935,
2,1,0,1,0,18929.1,0.0186602,0.0183081,27.7324,10,0.000585309,10,0.000507729,-1.55701,0.287955,0.204893,220.827,0.0183081,
2,1,0,1,0,18929.1,0.0218675,0.021536,28.4234,10,0.000697695,10,0.000612127,-1.54632,0.314348,0.18769,207.5,0.021536,
2,1,0,1,0,18929.1,0.0250636,0.0246992,29.0585,10,0.000812738,10,0.000717722,-1.53673,0.336797,0.17518,198.145,0.0246992,
2,1,0,1,0,18929.1,0.0282597,0.0279186,29.6786,10,0.000930291,10,0.000828586,-1.52756,0.365276,0.161522,186.621,0.0279186,
2,1,0,1,0,18929.1,0.031467,0.0311125,30.2696,10,0.00105028,10,0.000941764,-1.51899,0.386218,0.152763,180.027,0.0311125,
2,1,0,1,0,18929.1,0.0346631,0.0343722,30.8189,10,0.00117251,10,0.00105932,-1.51118,0.40762,0.144742,173.856,0.0343722,
2,1,0,1,0,18929.1,0.0378704,0.0375026,31.3634,10,0.00129692,10,0.00117621,-1.50358,0.429282,0.137439,168.061,0.0375026,
2,1,0,1,0,18929.1,0.0410665,0.0407113,31.9027,10,0.00142349,10,0.0012988,-1.49617,0.439995,0.134092,166.786,0.0407113,
2,1,0,1,0,18929.1,0.0442626,0.0439074,32.4199,10,0.00155219,10,0.00142347,-1.48919,0.461016,0.127978,161.766,0.0439074,
2,1,0,1,0,18929.1,0.0474671,0.0471257,32.946,10,0.00168297,10,0.00155261,-1.4822,0.474541,0.124331,159.71,0.0471257,
2,1,0,1,0,18929.1,0.0506632,0.050308,33.4349,10,0.00181578,10,0.00168204,-1.4758,0.482416,0.122301,159.552,0.050308,
2,1,0,1,0,18929.1,0.0538621,0.0535179,33.9481,10,0.00195059,10,0.00181683,-1.46919,0.492861,0.119709,158.609,0.0535179,
2,1,0,1,0,18929.1,0.0570638,0.0566726,34.4566,10,0.00208746,10,0.00195274,-1.46273,0.491742,0.119982,161.339,0.0566726,
2,1,0,1,0,18929.1,0.06026,0.0599089,34.9736,10,0.00222637,10,0.00209523,-1.45626,0.499362,0.118151,161.252,0.0599089,
2,1,0,1,0,18929.1,0.0634672,0.0630891,35.497,10,0.00236738,10,0.00223947,-1.44981,0.504273,0.117,162.031,0.0630891,
2,1,0,1,0,18929.1,0.0666633,0.0663297,36.014,10,0.00251044,10,0.0023888,-1.44353,0.50354,0.11717,164.697,0.0663297,
2,1,0,1,0,18929.1,0.0698595,0.069495,36.5342,10,0.00265559,10,0.00253895,-1.4373,0.509491,0.115802,165.169,0.069495,
2,1,0,1,0,18929.1,0.0730667,0.0727017,37.0805,10,0.00280287,10,0.00269581,-1.43085,0.501353,0.117682,170.353,0.0727017,
2,1,0,1,0,18929.1,0.0762628,0.0759243,37.617,10,0.00295232,10,0.00285604,-1.42462,0.50655,0.116474,170.999,0.0759243,
2,1,0,1,0,18929.1,0.0794701,0.0791076,38.1907,10,0.00310396,10,0.00302118,-1.41804,0.511595,0.115326,171.795,0.07910759,
2,1,0,1,0,18929.1,0.0826662,0.0822994,38.7238,10,0.00325784,10,0.00318694,-1.41202,0.50887,0.115943,175.233,0.0822994,
2,1,0,1,0,18929.1,0.0858624,0.0855082,39.2806,10,0.00341389,10,0.00335881,-1.40582,0.514104,0.114763,176.042,0.0855082,
2,1,0,1,0,18929.1,0.0890668,0.0887106,39.8576,10,0.00357222,10,0.00353579,-1.39949,0.511033,0.115452,179.613,0.0887106,
2,1,0,1,0,18929.1,0.092263,0.0918919,40.4413,10,0.00373287,10,0.00371623,-1.39317,0.513128,0.114981,181.421,0.0918919,
2,1,0,1,0,18929.1,0.0954674,0.0951081,41.0244,10,0.00389586,10,0.00390175,-1.38696,0.519463,0.113579,181.772,0.0951081,
2,1,0,1,0,18929.2,0.0986636,0.0982946,41.6003,10,0.00406118,10,0.00408908,-1.3809,0.516127,0.114313,185.663,0.0982946,
2,1,0,1,0,18929.2,0.10186,0.101485,42.1797,10,0.00422881,10,0.00428062,-1.3749,0.517703,0.113965,187.754,0.101485,
2,1,0,1,0,18929.2,0.105067,0.104674,42.8145,10,0.00439884,10,0.00448156,-1.36841,0.515316,0.114493,191.29,0.104674,
2,1,0,1,0,18929.2,0.108263,0.1079,43.4261,10,0.00457141,10,0.00468566,-1.36225,0.519595,0.11355,192.306,0.1079,
2,1,0,1,0,18929.2,0.111465,0.11107,44.0442,10,0.00474639,10,0.004892,-1.35611,0.535585,0.11016,189.242,0.11107,
2,1,0,1,0,18929.2,0.114666,0.114248,44.6341,10,0.00492381,10,0.00509937,-1.35033,0.542414,0.108773,189.435,0.114248,
2,1,0,1,0,18929.2,0.117863,0.11751,45.2436,10,0.00510363,10,0.00531659,-1.34444,0.552103,0.106864,188.666,0.11751,
2,1,0,1,0,18929.2,0.12107,0.120669,45.845,10,0.00528586,10,0.00553208,-1.33871,0.539828,0.109294,195.667,0.120669,
2,1,0,1,0,18929.2,0.124266,0.123834,46.4523,10,0.00547047,10,0.0057524,-1.33299,0.531311,0.111046,201.6,0.123834,
2,1,0,1,0,18929.2,0.127462,0.127028,47.1347,10,0.00565772,10,0.00598745,-1.32666,0.524588,0.112469,207.017,0.127028,
2,1,0,1,0,18929.2,0.130667,0.130273,47.8167,10,0.00584768,10,0.00622923,-1.32042,0.514119,0.114759,214.161,0.130273,
2,1,0,1,0,18929.2,0.133863,0.13353,48.5074,10,0.00604041,10,0.00647718,-1.31419,0.516244,0.114287,216.379,0.13353,
2,1,0,1,0,18929.2,0.137067,0.136709,49.2095,10,0.00623589,10,0.00672738,-1.30795,0.513374,0.114926,220.771,0.136709,
2,1,0,1,0,18929.2,0.140263,0.139886,49.9168,10,0.00643423,10,0.00698265,-1.30175,0.508968,0.115921,225.911,0.139886,
2,1,0,1,0,18929.2,0.143459,0.143129,50.6547,10,0.00663544,10,0.00725014,-1.29538,0.508494,0.116029,229.414,0.143129,
2,1,0,1,0,18929.2,0.146667,0.146298,51.3919,10,0.00683961,10,0.00751854,-1.28911,0.506465,0.116494,233.686,0.146298,
2,1,0,1,0,18929.2,0.149863,0.149503,52.1446,10,0.00704675,10,0.00779576,-1.28279,0.503246,0.117239,238.664,0.149503,
2,1,0,1,0,18929.2,0.153064,0.152708,52.9132,10,0.00725693,10,0.00808028,-1.27644,0.509833,0.115724,238.94,0.152708,
2,1,0,1,0,18929.2,0.156266,0.155881,53.6983,10,0.00747024,10,0.00837055,-1.27004,0.517361,0.11404,238.815,0.155881,
2,1,0,1,0,18929.2,0.159462,0.159091,54.4486,10,0.00768661,10,0.00866228,-1.26401,0.531351,0.111038,235.764,0.159091,
2,1,0,1,0,18929.2,0.16267,0.162304,55.2017,10,0.00790596,10,0.00895946,-1.25805,0.552652,0.106758,229.832,0.162304,
2,1,0,1,0,18929.2,0.165866,0.165485,55.9255,10,0.00812829,10,0.00925484,-1.25239,0.568121,0.103851,226.508,0.165485,
2,1,0,1,0,18929.2,0.169062,0.16874,56.6536,10,0.0083535,10,0.0095597,-1.24677,0.591346,0.0997724,220.386,0.16874,
2,1,0,1,0,18929.2,0.172266,0.171901,57.3501,10,0.00858161,10,0.00985852,-1.24147,0.624414,0.0944886,211.172,0.1719006,
2,1,0,1,0,18929.2,0.175462,0.17509,58.0197,10,0.00881241,10,0.0101587,-1.23642,0.664534,0.0887841,200.706,0.17509,
2,1,0,1,0,18929.3,0.178667,0.178278,58.627,10,0.00904575,10,0.0104519,-1.2319,0.72249,0.081662,186.564,0.178278,
2,1,0,1,0,18929.3,0.181863,0.181498,59.2144,10,0.00928151,10,0.0107473,-1.22757,0.788893,0.0747884,172.558,0.181498,
2,1,0,1,0,18929.3,0.185059,0.184733,59.7441,10,0.00951951,10,0.0110367,-1.2237,0.883819,0.0667557,155.32,0.184733,
2,1,0,1,0,18929.3,0.188266,0.18793,60.2352,10,0.00975955,10,0.01132,-1.22015,1.03968,0.056748,133.021,0.1879297,
2,1,0,1,0,18929.3,0.191463,0.191105,60.6192,10,0.0100013,10,0.0115846,-1.21739,1.30284,0.0452856,106.791,0.191105,
2,1,0,1,0,18929.3,0.194664,0.19432,60.9199,10,0.0102445,10,0.0118379,-1.21524,1.85908,0.0317361,75.1994,0.19432,
2,1,0,1,0,18929.3,0.197866,0.197521,61.1098,10,0.0104886,10,0.0120705,-1.21389,3.33635,0.017684,42.022,0.197521,
2,1,0,1,0,18929.3,0.201062,0.20073,61.1978,10,0.0107332,10,0.0122842,-1.21326,26.0799,0.00226228,5.38163,0.20073,
2,1,0,1,0,18929.3,0.204269,0.203919,61.1577,10,0.010978,10,0.0124712,-1.21355,-3.85665,-0.0152982,-36.346,0.2039185,
2,1,0,1,0,18929.3,0.207465,0.207156,60.989,10,0.0112223,10,0.0126342,-1.21475,-1.75362,-0.0336448,-79.6867,0.207156,
2,1,0,1,0,18929.3,0.210662,0.21033,60.6443,10,0.0114656,10,0.0127553,-1.21721,-1.12063,-0.0526489,-124.021,0.21033,
2,1,0,1,0,18929.3,0.213866,0.213482,60.1816,10,0.0117072,10,0.0128477,-1.22054,-0.821271,-0.0718399,-167.955,0.213482,
2,1,0,1,0,18929.3,0.217062,0.216741,59.5674,10,0.0119467,10,0.0129107,-1.22499,-0.649686,-0.0908131,-210.12,0.216741,
2,1,0,1,0,18929.3,0.220267,0.219987,58.8339,10,0.0121835,10,0.0129427,-1.23037,-0.535603,-0.110156,-251.686,0.219987,
2,1,0,1,0,18929.3,0.223463,0.223156,57.9491,10,0.012417,10,0.0129317,-1.23695,-0.456468,-0.129253,-290.983,0.223156,
2,1,0,1,0,18929.3,0.226659,0.226373,56.9373,10,0.0126467,10,0.012889,-1.2446,-0.398619,-0.148011,-327.654,0.226373,
2,1,0,1,0,18929.3,0.229866,0.229541,55.8428,10,0.0128722,10,0.0128182,-1.25303,-0.360933,-0.163465,-355.046,0.229541,
2,1,0,1,0,18929.3,0.233062,0.232717,54.6628,10,0.0130931,10,0.012721,-1.26231,-0.334567,-0.176348,-375.076,0.232717,
2,1,0,1,0,18929.3,0.236264,0.235913,53.4199,10,0.0133092,10,0.0126025,-1.2723,-0.311301,-0.189527,-394.068,0.235913,
2,1,0,1,0,18929.3,0.239466,0.239188,52.1307,10,0.0135201,10,0.012469,-1.28291,-0.296458,-0.199016,-404.107,0.239188,
2,1,0,1,0,18929.3,0.242662,0.242363,50.7903,10,0.0137259,10,0.0123097,-1.29422,-0.28449,-0.207389,-410.725,0.2423625,
2,1,0,1,0,18929.3,0.245869,0.245541,49.4808,10,0.0139263,10,0.0121495,-1.30556,-0.276946,-0.213038,-411.189,0.245541,
2,1,0,1,0,18929.3,0.249065,0.248712,48.163,10,0.0141214,10,0.0119787,-1.31729,-0.2745,-0.214936,-403.978,0.2487122,
2,1,0,1,0,18929.3,0.252261,0.25197,46.8748,10,0.0143113,10,0.011811,-1.32906,-0.273031,-0.216093,-395.521,0.25197,
2,1,0,1,0,18929.3,0.255466,0.255157,45.6215,10,0.0144962,10,0.0116407,-1.34083,-0.275873,-0.213866,-381.151,0.255157,
2,1,0,1,0,18929.4,0.258662,0.258363,44.4092,10,0.0146761,10,0.0114737,-1.35253,-0.277558,-0.212568,-368.932,0.258363,
2,1,0,1,0,18929.4,0.261866,0.261586,43.2563,10,0.0148513,10,0.0113152,-1.36395,-0.281941,-0.209263,-353.842,0.2615855,
2,1,0,1,0,18929.4,0.265063,0.26477,42.1524,10,0.015022,10,0.0111607,-1.37518,-0.291313,-0.202531,-333.861,0.26477,
2,1,0,1,0,18929.4,0.268259,0.267909,41.1095,10,0.0151884,10,0.0110136,-1.38606,-0.297572,-0.198271,-318.743,0.267909,
2,1,0,1,0,18929.4,0.271466,0.27115,40.14,10,0.0153508,10,0.010884,-1.39642,-0.310416,-0.190068,-298.301,0.27115,
2,1,0,1,0,18929.4,0.274662,0.274326,39.1953,10,0.0155094,10,0.0107523,-1.40677,-0.323319,-0.182482,-279.77,0.274326,
2,1,0,1,0,18929.4,0.277869,0.277561,38.337,10,0.0156643,10,0.0106408,-1.41638,-0.334634,-0.176312,-264.406,0.277561,
2,1,0,1,0,18929.4,0.281065,0.280762,37.5135,10,0.0158159,10,0.0105324,-1.42581,-0.353176,-0.167055,-245.146,0.280762,
2,1,0,1,0,18929.4,0.284262,0.283927,36.7617,10,0.0159644,10,0.0104377,-1.4346,-0.365598,-0.16138,-231.999,0.283927,
2,1,0,1,0,18929.4,0.287469,0.287153,36.0509,10,0.01611,10,0.0103521,-1.44308,-0.384043,-0.153629,-216.505,0.287153,
2,1,0,1,0,18929.4,0.290665,0.290328,35.375,10,0.0162527,10,0.0102703,-1.4513,-0.404434,-0.145883,-201.848,0.290328,
2,1,0,1,0,18929.4,0.293861,0.29356,34.7427,10,0.0163929,10,0.0101991,-1.45914,-0.419876,-0.140518,-191.296,0.29356,
2,1,0,1,0,18929.4,0.297066,0.296737,34.1761,10,0.0165307,10,0.0101413,-1.46628,-0.434455,-0.135802,-182.901,0.296737,
2,1,0,1,0,18929.4,0.299637,0.299231,33.7404,10,0.0166393,10,0.0100962,-1.47185,-0.111557,-0.528879,-679.472,0.299231,
2,1,0,1,0,18929.4,0.300012,0.299708,33.6593,10,0.0166562,10,0.010088,-1.4729,0.00809482,7.28861,8330.02,0.299708,
2,1,0,1,0,18929.4,0.298983,0.298831,31.161,10,0.0166973,10,0.00931188,-1.50639,0.0304046,1.9405,1991.02,0.298831,
2,1,0,1,0,18929.4,0.295787,0.295621,24.8835,10,0.0168082,10,0.00735609,-1.60409,0.0326546,1.80679,1673.86,0.2956214,
2,1,0,1,0,18929.4,0.292579,0.292344,20.0274,10,0.0168973,10,0.00585489,-1.69838,0.0325924,1.81024,1445.45,0.292344,
2,1,0,1,0,18929.4,0.289383,0.289152,15.9893,10,0.0169687,10,0.00462333,-1.79617,0.0308875,1.91016,1192.48,0.289152,
2,1,0,1,0,18929.4,0.286187,0.285952,12.544,10,0.0170253,10,0.00358698,-1.90156,0.0276462,2.13411,1025.28,0.285952,
2,1,0,1,0,18929.4,0.282983,0.282745,9.52854,10,0.017069,10,0.00269415,-2.02097,0.0235233,2.50815,890.103,0.282745,
2,1,0,1,0,18929.4,0.279786,0.279528,6.88731,10,0.0171015,10,0.00192519,-2.16195,0.018201,3.24159,785.179,0.279528,
2,1,0,1,0,18929.4,0.276582,0.276288,4.53915,10,0.0171241,10,0.00125411,-2.34303,0.010843,5.44132,693.471,0.276288,
2,1,0,1,0,18929.4,0.273386,0.273131,2.47777,10,0.0171378,10,0.000676757,-2.60594,0.015584,3.78594,618.61,0.273131,
2,1,0,1,0,18929.4,0.27019,0.269903,0.623315,10,0.0171438,10,0.000168235,-3.20529,0.0508877,1.15942,554.882,0.269903,
2,0,0,1,0,18929.4,0.266982,0.266717,-1.03754,10,0.0171427,10,-0.00027673,-2.98399,-0.0649149,-0.908882,497.018,0.266717,
2,0,0,1,0,18929.4,0.263786,0.263518,-2.54695,10,0.0171353,10,-0.000671166,-2.59398,-0.0139538,-4.22824,451.474,0.263518,
2,0,0,1,0,18929.5,0.260585,0.260282,-3.90838,10,0.0171222,10,-0.00101728,-2.408,-0.0164573,-3.58503,406.918,0.260282,
2,0,0,1,0,18929.5,0.257383,0.257096,-5.15899,10,0.017104,10,-0.00132636,-2.28744,-0.0280629,-2.10242,370.574,0.257096,
2,0,0,1,0,18929.5,0.254187,0.25386,-6.26904,10,0.017081,10,-0.00159146,-2.2028,-0.0394546,-1.49539,339.212,0.25386,
2,0,0,1,0,18929.5,0.25098,0.250673,-7.30687,10,0.0170537,10,-0.00183163,-2.13627,-0.0515518,-1.14448,310.898,0.250673,
2,0,0,1,0,18929.5,0.247783,0.247476,-8.25251,10,0.0170225,10,-0.0020423,-2.08341,-0.0638049,-0.924694,287.522,0.247476,
2,0,0,1,0,18929.5,0.244587,0.244292,-9.13953,10,0.0169876,10,-0.00223272,-2.03908,-0.0774942,-0.761347,264.283,0.244292,
2,0,0,1,0,18929.5,0.241383,0.241067,-9.94754,10,0.0169493,10,-0.00239802,-2.00228,-0.0910775,-0.6478,246.271,0.241067,
2,0,0,1,0,18929.5,0.238187,0.237845,-10.697,10,0.0169079,10,-0.00254424,-1.97074,-0.106573,-0.553612,227.503,0.237845,
2,0,0,1,0,18929.5,0.234982,0.2347,-11.3988,10,0.0168636,10,-0.0026753,-1.94314,-0.122049,-0.483413,212.28,0.2347,
2,0,0,1,0,18929.5,0.231786,0.231481,-12.0542,10,0.0168166,10,-0.00279032,-1.91886,-0.136794,-0.431307,200.853,0.2314806,
2,0,0,1,0,18929.5,0.22859,0.228262,-12.6657,10,0.0167671,10,-0.00289109,-1.89737,-0.155089,-0.380426,186.432,0.228262,
2,0,0,1,0,18929.5,0.225383,0.225087,-13.2595,10,0.0167152,10,-0.00298454,-1.87747,-0.170931,-0.345168,177.217,0.2250874,
2,0,0,1,0,18929.5,0.222187,0.221868,-13.7911,10,0.016661,10,-0.00305981,-1.8604,-0.188221,-0.313461,167.722,0.221868,
2,0,0,1,0,18929.5,0.218979,0.218684,-14.3221,10,0.0166047,10,-0.00313201,-1.84399,-0.207253,-0.284676,158.301,0.218684,
2,0,0,1,0,18929.5,0.215783,0.215474,-14.8106,10,0.0165464,10,-0.00319129,-1.82943,-0.222193,-0.265535,152.827,0.215474,
2,0,0,1,0,18929.5,0.212587,0.212288,-15.2856,10,0.0164861,10,-0.00324495,-1.81572,-0.241298,-0.244511,145.38,0.212288,
2,0,0,1,0,18929.5,0.20938,0.209071,-15.7468,10,0.016424,10,-0.00329221,-1.80281,-0.260255,-0.226701,138.75,0.209071,
2,0,0,1,0,18929.5,0.206184,0.205863,-16.1859,10,0.0163601,10,-0.00333209,-1.79086,-0.276716,-0.213215,134.219,0.2058633,
2,0,0,1,0,18929.5,0.202988,0.202663,-16.5881,10,0.0162945,10,-0.00336179,-1.7802,-0.295191,-0.19987,129.161,0.202663,
2,0,0,1,0,18929.5,0.199783,0.19948,-17.0047,10,0.0162273,10,-0.0033921,-1.76943,-0.308932,-0.190981,126.565,0.19948,
2,0,0,1,0,18929.5,0.196587,0.196291,-17.3975,10,0.0161584,10,-0.00341498,-1.75951,-0.324088,-0.182049,123.383,0.196291,
2,0,0,1,0,18929.5,0.193382,0.193098,-17.8015,10,0.016088,10,-0.00343744,-1.74954,-0.341192,-0.172923,119.863,0.193098,
2,0,0,1,0,18929.5,0.190186,0.189858,-18.168,10,0.016016,10,-0.00344934,-1.74069,-0.350817,-0.168179,119.121,0.1898575,
2,0,0,1,0,18929.5,0.18699,0.186675,-18.5395,10,0.0159425,10,-0.00346087,-1.7319,-0.367053,-0.16074,116.299,0.186675,
2,0,0,1,0,18929.5,0.183783,0.183494,-18.9219,10,0.0158676,10,-0.00347206,-1.72304,-0.367406,-0.160585,118.534,0.183494,
2,0,0,1,0,18929.6,0.180587,0.180241,-19.2968,10,0.0157911,10,-0.00347808,-1.71451,-0.376304,-0.156788,118.01,0.180241,
2,0,0,1,0,18929.6,0.17738,0.177107,-19.6794,10,0.0157131,10,-0.00348536,-1.70599,-0.385523,-0.153039,117.452,0.177107,
2,0,0,1,0,18929.6,0.174183,0.173856,-20.0523,10,0.0156336,10,-0.00348622,-1.69784,-0.380924,-0.154887,121.28,0.173856,
2,0,0,1,0,18929.6,0.170987,0.170676,-20.4274,10,0.0155526,10,-0.00348647,-1.68979,-0.383644,-0.153789,122.78,0.170676,
2,0,0,1,0,18929.6,0.16778,0.16743,-20.8505,10,0.01547,10,-0.003491,-1.68088,-0.372162,-0.158533,129.094,0.16743,
2,0,0,1,0,18929.6,0.164584,0.164276,-21.2548,10,0.0153858,10,-0.00349165,-1.67254,-0.366613,-0.160933,133.596,0.164276,
2,0,0,1,0,18929.6,0.161382,0.161094,-21.6998,10,0.0152999,10,-0.00349571,-1.66354,-0.35943,-0.164149,139.18,0.161094,
2,0,0,1,0,18929.6,0.158183,0.157879,-22.1371,10,0.0152121,10,-0.00349497,-1.65488,-0.345436,-0.170799,147.897,0.157879,
2,0,0,1,0,18929.6,0.154987,0.154679,-22.6253,10,0.0151226,10,-0.00349964,-1.64541,-0.332974,-0.177191,156.908,0.154679,
2,0,0,1,0,18929.6,0.151783,0.151478,-23.1476,10,0.015031,10,-0.00350635,-1.63549,-0.314174,-0.187794,170.091,0.151478,
2,0,0,1,0,18929.6,0.148587,0.148279,-23.7106,10,0.0149372,10,-0.00351578,-1.62506,-0.297285,-0.198463,184.21,0.148279,
2,0,0,1,0,18929.6,0.145385,0.145087,-24.3128,10,0.0148411,10,-0.00352748,-1.61416,-0.283956,-0.207779,197.808,0.145087,
2,0,0,1,0,18929.6,0.142183,0.141896,-24.9799,10,0.0147425,10,-0.00354455,-1.60241,-0.26633,-0.22153,216.764,0.1418964,
2,0,0,1,0,18929.6,0.138987,0.138656,-25.684,10,0.0146411,10,-0.00356123,-1.59034,-0.25128,-0.234798,236.387,0.138656,
2,0,0,1,0,18929.6,0.13578,0.135481,-26.4848,10,0.0145367,10,-0.00358818,-1.577,-0.238874,-0.246993,256.306,0.135481,
2,0,0,1,0,18929.6,0.132584,0.132281,-27.3401,10,0.014429,10,-0.00361657,-1.5632,-0.225373,-0.261788,280.281,0.132281,
2,0,0,1,0,18929.6,0.129388,0.129072,-28.2669,10,0.0143177,10,-0.00364846,-1.54872,-0.217235,-0.271595,300.614,0.129072,
2,0,0,1,0,18929.6,0.12618,0.125895,-29.2606,10,0.0142026,10,-0.00368376,-1.53372,-0.209068,-0.282205,323.345,0.125895,
2,0,0,1,0,18929.6,0.122984,0.122709,-30.3241,10,0.0140833,10,-0.00372105,-1.51821,-0.201609,-0.292646,347.594,0.1227094,
2,0,0,1,0,18929.6,0.119783,0.119494,-31.4745,10,0.0139597,10,-0.00376103,-1.50204,-0.198157,-0.297743,366.644,0.119494,
2,0,0,1,0,18929.6,0.116584,0.116289,-32.7102,10,0.0138312,10,-0.00380383,-1.48532,-0.195607,-0.301625,385.223,0.116289,
2,0,0,1,0,18929.6,0.113387,0.113072,-33.9619,10,0.0136977,10,-0.00384015,-1.46901,-0.196362,-0.300466,398.09,0.113072,
2,0,0,1,0,18929.6,0.110183,0.109923,-35.2497,10,0.0135592,10,-0.00387475,-1.45285,-0.200736,-0.293919,404.115,0.109923,
2,0,0,1,0,18929.6,0.106987,0.106747,-36.549,10,0.0134154,10,-0.0039015,-1.43712,-0.205427,-0.287207,409.274,0.1067471,
2,0,0,1,0,18929.6,0.103785,0.103505,-37.8761,10,0.0132664,10,-0.00392038,-1.42163,-0.212676,-0.277417,409.355,0.103505,
2,0,0,1,0,18929.7,0.100583,0.100298,-39.1902,10,0.0131122,10,-0.00393069,-1.40682,-0.222222,-0.2655,405.022,0.1002977,
2,0,0,1,0,18929.7,0.0973873,0.0971197,-40.4908,10,0.0129526,10,-0.00393245,-1.39264,-0.233377,-0.25281,398.134,0.0971197,
2,0,0,1,0,18929.7,0.0941801,0.0939225,-41.7433,10,0.012788,10,-0.00392063,-1.37941,-0.245104,-0.240714,391.103,0.0939225,
2,0,0,1,0,18929.7,0.0909839,0.0907996,-42.9347,10,0.0126186,10,-0.00389846,-1.36719,-0.257269,-0.229332,383.916,0.0907996,
2,0,0,1,0,18929.7,0.0877878,0.087558,-44.1728,10,0.0124443,10,-0.00386768,-1.35485,-0.270682,-0.217968,375.052,0.087558,
2,0,0,1,0,18929.7,0.0845806,0.0843513,-45.3927,10,0.0122649,10,-0.00382894,-1.34301,-0.287385,-0.2053,362.464,0.0843513,
2,0,0,1,0,18929.7,0.0813844,0.0811807,-46.5221,10,0.012081,10,-0.0037767,-1.33234,-0.305556,-0.19309,349.472,0.0811807,
2,0,0,1,0,18929.7,0.0781827,0.0778616,-47.6243,10,0.0118926,10,-0.00370811,-1.32217,-0.330556,-0.178487,330.731,0.0778616,
2,0,0,1,0,18929.7,0.0749839,0.0747461,-48.6501,10,0.0116999,10,-0.00363641,-1.31292,-0.35537,-0.166024,314.284,0.0747461,
2,0,0,1,0,18929.7,0.0717877,0.0715437,-49.6286,10,0.0115033,10,-0.00355062,-1.30427,-0.382253,-0.154348,298.153,0.0715437,
2,0,0,1,0,18929.7,0.0685832,0.0683848,-50.5437,10,0.0113028,10,-0.00345642,-1.29633,-0.418559,-0.14096,277.283,0.0683848,
2,0,0,1,0,18929.7,0.0653871,0.065141,-51.417,10,0.0110988,10,-0.00334935,-1.28889,-0.453068,-0.130223,260.596,0.065141,
2,0,0,1,0,18929.7,0.0621854,0.061946,-52.1994,10,0.0108914,10,-0.00323354,-1.28233,-0.498833,-0.118276,240.369,0.061946,
2,0,0,1,0,18929.7,0.0589837,0.0587616,-52.9596,10,0.010681,10,-0.00311199,-1.27606,-0.548049,-0.107655,221.95,0.0587616,
2,0,0,1,0,18929.7,0.0557876,0.0555284,-53.6339,10,0.0104678,10,-0.00297821,-1.27056,-0.613845,-0.0961155,200.597,0.0555284,
2,0,0,1,0,18929.7,0.0525804,0.0523175,-54.2632,10,0.0102519,10,-0.00283891,-1.26549,-0.711528,-0.0829201,175.003,0.0523175,
2,0,0,1,0,18929.7,0.0493842,0.0491055,-54.7752,10,0.0100337,10,-0.00268976,-1.26142,-0.820188,-0.0719348,153.313,0.0491055,
2,0,0,1,0,18929.7,0.0461881,0.0458893,-55.2123,10,0.00981369,10,-0.00253365,-1.25796,-0.975811,-0.0604626,130.001,0.0458893,
2,0,0,1,0,18929.7,0.0429808,0.0427134,-55.5987,10,0.00959199,10,-0.00237481,-1.25494,-1.14427,-0.0515613,111.66,0.0427134,
2,0,0,1,0,18929.7,0.0397847,0.0394834,-55.9316,10,0.0093689,10,-0.00220837,-1.25234,-1.35048,-0.0436882,95.1765,0.0394834,
2,0,0,1,0,18929.7,0.036583,0.0362566,-56.2099,10,0.00914457,10,-0.00203798,-1.25019,-1.67982,-0.0351229,76.8858,0.0362566,
2,0,0,1,0,18929.7,0.0333841,0.0330393,-56.4353,10,0.00891925,10,-0.00186458,-1.24845,-2.0703,-0.0284983,62.652,0.0330393,
2,0,0,1,0,18929.7,0.030188,0.0298719,-56.586,10,0.00869317,10,-0.00169033,-1.24729,-2.73029,-0.0216094,47.6606,0.0298719,
2,0,0,1,0,18929.7,0.0269835,0.0266854,-56.7334,10,0.00846649,10,-0.00151395,-1.24616,-3.58622,-0.0164519,36.3843,0.0266854,
2,0,0,1,0,18929.7,0.0237874,0.0234914,-56.8183,10,0.00823937,10,-0.00133474,-1.24551,-4.85656,-0.0121485,26.91,0.0234914,
2,0,0,1,0,18929.8,0.0205857,0.020254,-56.9005,10,0.00801191,10,-0.00115246,-1.24488,-8.29422,-0.00711339,15.7781,0.020254,
2,0,0,1,0,18929.8,0.017384,0.0170823,-56.9302,10,0.00778421,10,-0.000972498,-1.24466,-16.6629,-0.0035408,7.85846,0.0170823,
2,0,0,1,0,18929.8,0.0141879,0.0138396,-56.9361,10,0.00755647,10,-0.000787972,-1.24461,74.1481,0.000795705,-1.76663,0.0138396,
2,0,0,1,0,18929.8,0.0109806,0.0106764,-56.919,10,0.00732876,10,-0.000607689,-1.24474,15.3664,0.00383955,-8.52257,0.0106764,
2,0,0,1,0,18929.8,0.00778448,0.00747397,-56.8779,10,0.00710117,10,-0.000425103,-1.24506,12.3862,0.00476338,-10.5718,0.00747397,
2,0,0,1,0,18929.8,0.00458834,0.00427896,-56.821,10,0.00687377,10,-0.000243135,-1.24549,6.53732,0.00902511,-20.0026,0.00427896,
2,0,0,1,0,18929.8,0.0013811,0.00102139,-56.8006,10,0.00664656,10,-5.80157e-05,-1.24565,4.92884,0.0119704,-26.4916,0.00102139,
2,0,0,1,0,18929.8,-0.00181504,-0.00221921,-56.661,10,0.00641965,10,0.000125743,-1.24672,3.66106,0.0161156,-35.5933,-0.00221921,
2,0,0,1,0,18929.8,-0.0050195,-0.00540149,-56.5368,10,0.00619328,10,0.000305383,-1.24767,2.74144,0.0215215,-47.4523,-0.00540149,
2,0,0,1,0,18929.8,-0.00821564,-0.00854136,-56.3647,10,0.00596749,10,0.000481431,-1.24899,2.43293,0.0242506,-53.3035,-0.00854136,
2,0,0,1,0,18929.8,-0.0114118,-0.011782,-56.1931,10,0.00574239,10,0.000662064,-1.25032,2.03548,0.0289858,-63.4953,-0.011782,
2,0,0,1,0,18929.8,-0.0146162,-0.0149536,-55.9822,10,0.00551803,10,0.000837138,-1.25195,1.78868,0.0329852,-71.9633,-0.0149536,
2,0,0,1,0,18929.8,-0.0178124,-0.0181932,-55.7246,10,0.00529462,10,0.00101381,-1.25395,1.5555,0.0379298,-82.3993,-0.0181932,
2,0,0,1,0,18929.8,-0.0210196,-0.0213627,-55.442,10,0.00507231,10,0.00118439,-1.25616,1.37679,0.0428532,-92.6292,-0.0213627,
2,0,0,1,0,18929.8,-0.0242158,-0.0245683,-55.1395,10,0.00485118,10,0.00135469,-1.25854,1.27316,0.0463415,-99.6221,-0.0245683,
2,0,0,1,0,18929.8,-0.0274119,-0.0277782,-54.7943,10,0.00463133,10,0.00152209,-1.26126,1.14267,0.0516336,-110.292,-0.0277782,
2,0,0,1,0,18929.8,-0.0306191,-0.0310135,-54.4474,10,0.00441287,10,0.0016886,-1.26402,1.07046,0.0551167,-116.989,-0.0310135,
2,0,0,1,0,18929.8,-0.0338153,-0.0341725,-54.0292,10,0.00419593,10,0.00184631,-1.26737,1.00702,0.0585884,-123.471,-0.0341725,
2,0,0,1,0,18929.8,-0.037017,-0.0373653,-53.6424,10,0.00398065,10,0.00200437,-1.27049,0.956028,0.0617137,-129.139,-0.0373653,
2,0,0,1,0,18929.8,-0.0402187,-0.0405879,-53.2127,10,0.00376698,10,0.00215979,-1.27398,0.945371,0.0624094,-129.566,-0.0405879,
2,0,0,1,0,18929.8,-0.0434148,-0.0437872,-52.7978,10,0.00355501,10,0.00231187,-1.27738,0.920285,0.0641105,-132.083,-0.0437872,
2,0,0,1,0,18929.8,-0.0466193,-0.0469684,-52.3713,10,0.00334473,10,0.0024598,-1.28091,0.911111,0.0647561,-132.332,-0.0469684,
2,0,0,1,0,18929.8,-0.0498154,-0.0501984,-51.9473,10,0.00313614,10,0.00260767,-1.28444,0.920185,0.0641175,-130.025,-0.0501984,
2,0,0,1,0,18929.8,-0.0530115,-0.0533669,-51.5216,10,0.00292927,10,0.00274955,-1.28801,0.944339,0.0624775,-125.72,-0.0533669,
2,0,0,1,0,18929.8,-0.056216,-0.0565735,-51.1353,10,0.00272399,10,0.0028929,-1.29128,0.990547,0.059563,-118.977,-0.0565735,
2,0,0,1,0,18929.9,-0.0594121,-0.0598014,-50.758,10,0.00252023,10,0.0030354,-1.2945,1.04413,0.0565063,-112.03,-0.0598014,
2,0,0,1,0,18929.9,-0.0626194,-0.0629901,-50.4254,10,0.00231791,10,0.0031763,-1.29735,1.09569,0.0538472,-106.027,-0.0629901,
2,0,0,1,0,18929.9,-0.0658155,-0.066167,-50.0876,10,0.0021169,10,0.00331415,-1.30027,1.18985,0.0495862,-97.0266,-0.066167,
2,0,0,1,0,18929.9,-0.0690117,-0.0693843,-49.777,10,0.00191721,10,0.00345374,-1.30297,1.29639,0.0455108,-88.5539,-0.0693843,
2,0,0,1,0,18929.9,-0.0722189,-0.0725306,-49.5229,10,0.00171864,10,0.00359192,-1.30519,1.46529,0.0402652,-77.9215,-0.07253056,
2,0,0,1,0,18929.9,-0.075415,-0.0757712,-49.2936,10,0.00152104,10,0.00373503,-1.30721,1.67887,0.0351427,-67.6737,-0.07577116,
2,0,0,1,0,18929.9,-0.0786167,-0.0789853,-49.0888,10,0.00132431,10,0.00387729,-1.30902,1.88913,0.0312314,-59.8913,-0.0789853,
2,0,0,1,0,18929.9,-0.0818184,-0.0821877,-48.9105,10,0.00112833,10,0.00401984,-1.3106,2.24995,0.0262228,-50.1172,-0.0821877,
2,0,0,1,0,18929.9,-0.0850146,-0.0853816,-48.7532,10,0.000933038,10,0.00416263,-1.312,2.68342,0.0219869,-41.8923,-0.0853816,
2,0,0,1,0,18929.9,-0.088219,-0.0885947,-48.6509,10,0.00073828,10,0.00431021,-1.31291,3.48996,0.0169056,-32.1341,-0.08859466,
2,0,0,1,0,18929.9,-0.0914152,-0.0917462,-48.5542,10,0.000543871,10,0.00445466,-1.31377,4.81227,0.0122603,-23.2563,-0.0917462,
2,0,0,1,0,18929.9,-0.0946141,-0.0949783,-48.4995,10,0.000349782,10,0.0046064,-1.31426,7.02242,0.00840167,-15.9188,-0.0949783,
2,0,0,1,0,18929.9,-0.0978158,-0.0981839,-48.4555,10,0.000155858,10,0.00475755,-1.31466,17.6098,0.00335041,-6.34344,-0.0981839,
2,0,0,1,0,18929.9,-0.101012,-0.101378,-48.4474,10,-3.79412e-05,10,0.0049115,-1.31473,-71.0404,-0.000830513,1.57231,-0.101378,
2,0,0,1,0,18929.9,-0.104219,-0.104575,-48.4728,10,-0.000231773,10,0.00506905,-1.3145,-11.3337,-0.00520569,9.85708,-0.104575,
2,0,0,1,0,18929.9,-0.107415,-0.107786,-48.5197,10,-0.000425768,10,0.00522973,-1.31408,-6.00824,-0.00981985,18.6124,-0.107786,
2,0,0,1,0,18929.9,-0.110611,-0.110949,-48.5813,10,-0.000619971,10,0.00539005,-1.31353,-4.67303,-0.0126256,23.9598,-0.1109491,
2,0,0,1,0,18929.9,-0.113819,-0.114145,-48.6851,10,-0.000814517,10,0.00555716,-1.3126,-3.53847,-0.0166739,31.7048,-0.114145,
2,0,0,1,0,18929.9,-0.117015,-0.117354,-48.779,10,-0.00100945,10,0.00572441,-1.31177,-2.93261,-0.0201186,38.3374,-0.117354,
2,0,0,1,0,18929.9,-0.120216,-0.120565,-48.9248,10,-0.00120486,10,0.00589861,-1.31047,-2.51296,-0.0234783,44.8724,-0.120565,
2,0,0,1,0,18929.9,-0.123418,-0.1238,-49.074,10,-0.00140088,10,0.00607537,-1.30915,-2.17185,-0.0271658,52.0681,-0.1238,
2,0,0,1,0,18929.9,-0.126614,-0.126963,-49.2602,10,-0.00159756,10,0.00625425,-1.3075,-2.00927,-0.0293639,56.4804,-0.126963,
2,0,0,1,0,18929.9,-0.129819,-0.130166,-49.4461,10,-0.00179499,10,0.00643619,-1.30587,-1.84179,-0.0320341,61.8446,-0.130166,
2,0,0,1,0,18929.9,-0.133015,-0.133372,-49.6482,10,-0.00199319,10,0.0066217,-1.3041,-1.69861,-0.0347343,67.3587,-0.133372,
2,0,0,1,0,18929.9,-0.136214,-0.13658,-49.8644,10,-0.00219223,10,0.00681048,-1.30221,-1.60289,-0.0368086,71.6879,-0.13658,
2,0,0,1,0,18930,-0.139416,-0.139771,-50.1229,10,-0.00239224,10,0.00700573,-1.29996,-1.50884,-0.0391029,76.5108,-0.139771,
2,0,0,1,0,18930,-0.142612,-0.142972,-50.3642,10,-0.00259323,10,0.00720068,-1.29788,-1.45379,-0.0405836,79.7811,-0.142972,
2,0,0,1,0,18930,-0.145819,-0.146165,-50.627,10,-0.00279524,10,0.0073999,-1.29562,-1.44725,-0.0407669,80.5635,-0.146165,
2,0,0,1,0,18930,-0.149015,-0.149338,-50.8822,10,-0.00299829,10,0.00759864,-1.29343,-1.38464,-0.0426102,84.6492,-0.149338,
2,0,0,1,0,18930,-0.152211,-0.152573,-51.1543,10,-0.00320239,10,0.00780478,-1.29112,-1.36879,-0.0431037,86.0854,-0.152573,
2,0,0,1,0,18930,-0.155418,-0.155754,-51.4462,10,-0.00340764,10,0.00801297,-1.28865,-1.3657,-0.0432012,86.7238,-0.155754,
2,0,0,1,0,18930,-0.158615,-0.158926,-51.7255,10,-0.00361401,10,0.00822053,-1.2863,-1.33827,-0.0440869,88.9884,-0.158926,
2,0,0,1,0,18930,-0.161816,-0.162186,-51.9964,10,-0.00382149,10,0.00843308,-1.28403,-1.37933,-0.0427742,86.8062,-0.162186,
2,0,0,1,0,18930,-0.165018,-0.165338,-52.2903,10,-0.00403009,10,0.0086456,-1.28158,-1.36002,-0.0433818,88.531,-0.165338,
2,0,0,1,0,18930,-0.168214,-0.168564,-52.5581,10,-0.00423979,10,0.00885942,-1.27936,-1.36125,-0.0433426,88.9083,-0.168564,
2,0,0,1,0,18930,-0.171419,-0.17174,-52.8599,10,-0.00445066,10,0.00907817,-1.27687,-1.39273,-0.0423627,87.3719,-0.17174,
2,0,0,1,0,18930,-0.174615,-0.174932,-53.1296,10,-0.00466267,10,0.00929407,-1.27466,-1.40012,-0.0421393,87.3496,-0.174932,
2,0,0,1,0,18930,-0.177814,-0.178138,-53.4086,10,-0.00487577,10,0.00951407,-1.27239,-1.44085,-0.0409479,85.3423,-0.178138,
2,0,0,1,0,18930,-0.181015,-0.181338,-53.6739,10,-0.00508998,10,0.00973311,-1.27024,-1.43612,-0.041083,86.0669,-0.181338,
2,0,0,1,0,18930,-0.184211,-0.184519,-53.9505,10,-0.00530525,10,0.0099549,-1.268,-1.4499,-0.0406926,85.6879,-0.184519,
2,0,0,1,0,18930,-0.187419,-0.18776,-54.2337,10,-0.00552166,10,0.0101829,-1.26573,-1.47129,-0.0401008,84.8476,-0.1877597,
2,0,0,1,0,18930,-0.190615,-0.190961,-54.5074,10,-0.00573917,10,0.0104088,-1.26354,-1.49241,-0.0395334,84.0679,-0.190961,
2,0,0,1,0,18930,-0.193811,-0.194145,-54.7606,10,-0.00595773,10,0.0106315,-1.26153,-1.53746,-0.038375,81.968,-0.194145,
2,0,0,1,0,18930,-0.197018,-0.197354,-55.0295,10,-0.00617735,10,0.0108603,-1.2594,-1.77264,-0.0332836,71.2446,-0.197354,
2,0,0,1,0,18930,-0.199647,-0.199926,-55.231,10,-0.0063593,10,0.0110421,-1.25782,0.278193,0.212083,-443.574,-0.199926,
2,0,0,1,0,18930,-0.200134,-0.200532,-55.1893,10,-0.00639244,10,0.0110672,-1.25815,-0.0150837,-3.91151,7701.7,-0.200532,
2,0,0,1,1,18930,-0.198935,-0.199379,-52.4393,10,-0.00647233,10,0.0104553,-1.28034,-0.0538799,-1.09503,2042.85,-0.199379,
2,0,0,1,1,18930,-0.195739,-0.196199,-46.1357,10,-0.00666835,10,0.0090518,-1.33596,-0.0607903,-0.970549,1716.16,-0.196199,
2,0,0,1,1,18930,-0.192535,-0.192995,-41.0713,10,-0.00684201,10,0.00792655,-1.38646,-0.0629921,-0.936625,1529.67,-0.192995,
2,0,0,1,1,18930,-0.189339,-0.189749,-36.6835,10,-0.00699693,10,0.00696066,-1.43553,-0.0648899,-0.909232,1314.97,-0.189749,
2,0,0,1,1,18930,-0.186137,-0.186532,-32.7879,10,-0.00713536,10,0.00611598,-1.48429,-0.0646657,-0.912385,1174.09,-0.186532,
2,0,0,1,1,18930.1,-0.182935,-0.183363,-29.2565,10,-0.00725899,10,0.00536456,-1.53378,-0.0630669,-0.935514,1069.99,-0.183363,
2,0,0,1,1,18930.1,-0.179739,-0.180172,-26.0166,10,-0.00736913,10,0.00468747,-1.58475,-0.0607254,-0.971586,984.98,-0.180172,
2,0,0,1,1,18930.1,-0.176532,-0.176953,-22.992,10,-0.00746677,10,0.0040685,-1.63842,-0.0576629,-1.02319,914.64,-0.176953,
2,0,0,1,1,18930.1,-0.173336,-0.173733,-20.181,10,-0.00755277,10,0.00350611,-1.69506,-0.0541781,-1.089,851.765,-0.173733,
2,0,0,1,1,18930.1,-0.17014,-0.170561,-17.5469,10,-0.00762792,10,0.00299282,-1.7558,-0.0498688,-1.1831,800.925,-0.170561,
2,0,0,1,1,18930.1,-0.166932,-0.167309,-15.0596,10,-0.00769282,10,0.00251961,-1.82219,-0.0448851,-1.31447,759.261,-0.167309,
2,0,0,1,1,18930.1,-0.163736,-0.164116,-12.7103,10,-0.00774811,10,0.00208596,-1.89584,-0.0395739,-1.49088,720.314,-0.164116,
2,0,0,1,1,18930.1,-0.160532,-0.160947,-10.4736,10,-0.00779422,10,0.0016857,-1.9799,-0.0338496,-1.743,684.475,-0.160947,
2,0,0,1,1,18930.1,-0.157336,-0.157783,-8.34286,10,-0.00783161,10,0.00131636,-2.07868,-0.027515,-2.14428,653.352,-0.157783,
2,0,0,1,1,18930.1,-0.154139,-0.154534,-6.31565,10,-0.00786068,10,0.000975983,-2.19958,-0.0206077,-2.86301,622.954,-0.154534,
2,0,0,1,1,18930.1,-0.150935,-0.151341,-4.36388,10,-0.00788181,10,0.000660434,-2.36013,-0.0120628,-4.89105,594.892,-0.151341,
2,0,0,1,1,18930.1,-0.147739,-0.148165,-2.51094,10,-0.00789535,10,0.000372034,-2.60016,-0.0159016,-3.71032,571.129,-0.148165,
2,0,0,1,1,18930.1,-0.144532,-0.144975,-0.72373,10,-0.00790162,10,0.000104923,-3.14042,-0.0585541,-1.00762,550.481,-0.144975,
2,1,0,1,1,18930.1,-0.141335,-0.141741,0.990659,10,-0.00790089,10,-0.000140417,-3.00408,0.0561558,1.05065,527.812,-0.1417412,
2,1,0,1,1,18930.1,-0.138139,-0.138609,2.64501,10,-0.00789343,10,-0.000366622,-2.57757,0.0142795,4.13181,504.465,-0.138609,
2,1,0,1,1,18930.1,-0.134932,-0.135368,4.24347,10,-0.00787946,10,-0.00057443,-2.37228,0.0147484,4.00045,490.955,-0.135368,
2,1,0,1,1,18930.1,-0.131736,-0.132099,5.77203,10,-0.00785926,10,-0.000762479,-2.23867,0.0248022,2.37882,472.083,-0.132099,
2,1,0,1,1,18930.1,-0.12854,-0.128993,7.24946,10,-0.00783306,10,-0.000935129,-2.13969,0.0338293,1.74405,459.439,-0.128993,
2,1,0,1,1,18930.1,-0.125333,-0.125785,8.69876,10,-0.007801,10,-0.00109418,-2.06054,0.042705,1.38157,447.165,-0.125785,
2,1,0,1,1,18930.1,-0.122136,-0.122642,10.0903,10,-0.00776327,10,-0.00123749,-1.9961,0.0519855,1.13493,431.791,-0.1226422,
2,1,0,1,1,18930.1,-0.118932,-0.119379,11.4598,10,-0.00772002,10,-0.00136806,-1.94082,0.0617368,0.955671,416.218,-0.119379,
2,1,0,1,1,18930.1,-0.115736,-0.116219,12.765,10,-0.00767143,10,-0.00148354,-1.89398,0.0711468,0.829271,405.003,-0.116219,
2,1,0,1,1,18930.1,-0.11254,-0.112938,14.0458,10,-0.00761768,10,-0.00158632,-1.85245,0.0807339,0.730796,394.341,-0.112938,
2,1,0,1,1,18930.1,-0.109335,-0.109784,15.298,10,-0.00755883,10,-0.00167947,-1.81537,0.0909194,0.648926,382.06,-0.109784,
2,1,0,1,1,18930.1,-0.106139,-0.106601,16.4986,10,-0.00749512,10,-0.00175878,-1.78255,0.100899,0.584746,372.128,-0.106601,
2,1,0,1,1,18930.2,-0.102932,-0.103375,17.6725,10,-0.00742665,10,-0.00182688,-1.7527,0.112623,0.523872,357.6,-0.103375,
2,1,0,1,1,18930.2,-0.0997357,-0.100169,18.7977,10,-0.00735359,10,-0.00188295,-1.7259,0.123628,0.477238,347.286,-0.100169,
2,1,0,1,1,18930.2,-0.0965395,-0.0969602,19.8837,10,-0.00727609,10,-0.00192792,-1.7015,0.134851,0.437519,337.277,-0.0969602,
2,1,0,1,1,18930.2,-0.0933323,-0.0937196,20.9723,10,-0.00719426,10,-0.00196552,-1.67835,0.146571,0.402536,327.191,-0.0937196,
2,1,0,1,1,18930.2,-0.0901362,-0.0905734,21.99,10,-0.00710822,10,-0.00199171,-1.65777,0.157424,0.374784,319.869,-0.0905734,
2,1,0,1,1,18930.2,-0.0869345,-0.0873317,22.998,10,-0.00701813,10,-0.00200845,-1.63831,0.170299,0.34645,309.507,-0.0873317,
2,1,0,1,1,18930.2,-0.0837328,-0.0841473,23.9821,10,-0.00692405,10,-0.00201803,-1.62011,0.182981,0.322439,300.359,-0.0841473,
2,1,0,1,1,18930.2,-0.0805366,-0.0809534,24.9235,10,-0.00682615,10,-0.00201765,-1.60339,0.194623,0.30315,293.711,-0.0809534,
2,1,0,1,1,18930.2,-0.0773322,-0.077717,25.8516,10,-0.00672451,10,-0.00200911,-1.58751,0.209614,0.281469,282.886,-0.077717,
2,1,0,1,1,18930.2,-0.074136,-0.0745655,26.7475,10,-0.00661921,10,-0.00199444,-1.57272,0.222497,0.265172,275.798,-0.0745655,
2,1,0,1,1,18930.2,-0.0709371,-0.0713312,27.6076,10,-0.00651039,10,-0.00196928,-1.55897,0.236988,0.248958,267.43,-0.0713312,
2,1,0,1,1,18930.2,-0.0677354,-0.06815,28.4547,10,-0.00639815,10,-0.00193919,-1.54585,0.251358,0.234725,260.047,-0.06815,
2,1,0,1,1,18930.2,-0.0645393,-0.0649412,29.2682,10,-0.0062826,10,-0.00190071,-1.5336,0.265339,0.222357,253.379,-0.06494122,
2,1,0,1,1,18930.2,-0.061332,-0.0616996,30.0933,10,-0.00616381,10,-0.00185674,-1.52153,0.283149,0.208371,243.897,-0.0616996,
2,1,0,1,1,18930.2,-0.0581359,-0.0585395,30.8487,10,-0.00604183,10,-0.00180587,-1.51076,0.298142,0.197893,237.596,-0.0585395,
2,1,0,1,1,18930.2,-0.0549398,-0.0553201,31.5839,10,-0.00591688,10,-0.00174722,-1.50053,0.318806,0.185065,227.688,-0.0553201,
2,1,0,1,1,18930.2,-0.0517325,-0.0521368,32.3105,10,-0.00578899,10,-0.00168456,-1.49066,0.3343,0.176488,222.128,-0.0521368,
2,1,0,1,1,18930.2,-0.0485364,-0.0489291,33.001,10,-0.00565829,10,-0.00161471,-1.48147,0.351508,0.167848,215.79,-0.04892908,
2,1,0,1,1,18930.2,-0.0453347,-0.0457383,33.6923,10,-0.00552483,10,-0.00154103,-1.47247,0.375336,0.157193,206.206,-0.0457383,
2,1,0,1,1,18930.2,-0.042133,-0.0425539,34.3387,10,-0.0053887,10,-0.00146125,-1.46422,0.395204,0.14929,199.644,-0.0425539,
2,1,0,1,1,18930.2,-0.0389369,-0.0393377,34.9497,10,-0.00525006,10,-0.00137484,-1.45656,0.421397,0.140011,190.685,-0.0393377,
2,1,0,1,1,18930.2,-0.0357324,-0.0360971,35.5628,10,-0.00510899,10,-0.00128371,-1.449,0.44355,0.133018,184.323,-0.0360971,
2,1,0,1,1,18930.2,-0.0325363,-0.0329509,36.1306,10,-0.00496553,10,-0.00119054,-1.44212,0.469164,0.125756,177.04,-0.0329509,
2,1,0,1,1,18930.2,-0.0293374,-0.0297421,36.7002,10,-0.00481982,10,-0.00109154,-1.43533,0.497629,0.118562,169.511,-0.0297421,
2,1,0,1,1,18930.2,-0.0261357,-0.0265163,37.2196,10,-0.0046719,10,-0.000986927,-1.42923,0.527161,0.11192,162.315,-0.0265163,
2,1,0,1,1,18930.3,-0.0229395,-0.0233287,37.7272,10,-0.00452194,10,-0.000880127,-1.42335,0.564878,0.104447,153.57,-0.0233287,
2,1,0,1,1,18930.3,-0.0197323,-0.020138,38.2104,10,-0.00437002,10,-0.000769479,-1.41782,0.59446,0.0992497,147.791,-0.020138,
2,1,0,1,1,18930.3,-0.0165361,-0.0169451,38.6654,10,-0.00421619,10,-0.000655189,-1.41268,0.63026,0.0936122,141.106,-0.0169451,
2,1,0,1,1,18930.3,-0.01334,-0.0137469,39.1068,10,-0.00406058,10,-0.000537597,-1.40775,0.675135,0.08739,133.209,-0.0137469,
2,1,0,1,1,18930.3,-0.0101328,-0.0105275,39.5335,10,-0.00390324,10,-0.000416189,-1.40303,0.714842,0.0825358,127.151,-0.0105275,
2,1,0,1,1,18930.3,-0.00693663,-0.00732189,39.9176,10,-0.00374428,10,-0.000292272,-1.39884,0.768177,0.0768052,119.452,-0.00732189,
2,1,0,1,1,18930.3,-0.00373494,-0.00413643,40.2941,10,-0.00358384,10,-0.000166673,-1.39476, , , ,-0.00413643,
2,1,0,1,1,18930.3,-0.000774628,-0.00121129,40.6042,10,-0.00343415,10,-4.91836e-05,-1.39143, , , ,-0.00121129,
2,1,0,0,1,18930.3,-0.000125413,-0.000611633,40.6798,10,-0.00340164,10,-2.48811e-05,-1.39062, , , ,-0.000611633,