File: Figure_codes/Fig_3-5/rawdata_trumpetplot_data/after 10th/20221101_1-115_003_TrumpetPlot_ParaChange_from10_every3_08_CV_C01_29.csv
mode,ox/red,error,control changes,counter inc.,time/s,control/V,Ewe/V,<I>/mA,cycle number,(Q-Qo)/C,I Range,P/W,log(|I|),Tafel slope mV/dec,alpha_eff,dI/d(E-IR),E-IR/V,
2,0,0,0,0,58308.8,2.44065e-05,-0.000401673,-3.97855,30,0.0000000E+000,10,1.59808e-06,-2.40027, , , ,-0.000401673,
2,0,0,1,0,58308.8,0.0012943,0.000907172,-2.5626,30,-4.97483e-05,10,-2.32472e-06,-2.59132, , , ,0.000907172,
2,0,0,1,0,58308.8,0.00279784,0.0024195,-1.47323,30,-8.68389e-05,10,-3.56448e-06,-2.83173,-0.00503691,-11.7135,631.745,0.0024195,
2,0,0,1,0,58308.9,0.00429425,0.00391996,-0.700592,30,-0.000106569,10,-2.74629e-06,-3.15453,-0.0029171,-20.2256,464.366,0.00391996,
2,0,0,1,0,58308.9,0.00579065,0.00541791,-0.0949816,30,-0.000113564,10,-5.14602e-07,-4.02236,-0.0160835,-3.66836,367.759,0.00541791,
2,1,0,1,0,58308.9,0.0072942,0.00694285,0.395774,30,-0.000110361,10,2.7478e-06,-3.40255,0.0078247,7.54023,295.383,0.00694285,
2,1,0,1,0,58308.9,0.00878347,0.00842417,0.791607,30,-9.90008e-05,10,6.66863e-06,-3.10149,0.00563629,10.4679,246.225,0.00842417,
2,1,0,1,0,58308.9,0.010287,0.00988775,1.12701,30,-8.07101e-05,10,1.11436e-05,-2.94807,0.0115926,5.08943,202.773,0.009887754,
2,1,0,1,0,58308.9,0.0117905,0.0114502,1.40746,30,-5.66594e-05,10,1.61156e-05,-2.85157,0.0174762,3.37602,175.732,0.0114502,
2,1,0,1,0,58309,0.013278,0.0129073,1.63886,30,-2.81198e-05,10,2.11532e-05,-2.78546,0.0242043,2.43759,151.859,0.0129073,
2,1,0,1,0,58309,0.0147816,0.0143542,1.84732,30,4.92775e-06,10,2.65168e-05,-2.73346,0.0313632,1.88119,132.991,0.0143542,
2,1,0,1,0,58309,0.0162851,0.0159207,2.02807,30,4.17312e-05,10,3.22883e-05,-2.69292,0.0401712,1.46871,114.843,0.0159207,
2,1,0,1,0,58309,0.0177744,0.0174392,2.19176,30,8.12731e-05,10,3.82225e-05,-2.65921,0.0487341,1.21065,102.455,0.0174392,
2,1,0,1,0,58309,0.0192779,0.0189317,2.32624,30,0.000124028,10,4.40397e-05,-2.63335,0.0595082,0.99146,89.5136,0.0189317,
2,1,0,1,0,58309.1,0.0207743,0.0204364,2.45442,30,0.000169073,10,5.01596e-05,-2.61005,0.0681339,0.865942,82.6016,0.0204364,
2,1,0,1,0,58309.1,0.0222707,0.0219124,2.56875,30,0.000216373,10,5.62876e-05,-2.59028,0.0810171,0.728241,72.8955,0.0219124,
2,1,0,1,0,58309.1,0.0237743,0.0234357,2.68606,30,0.000266073,10,6.29496e-05,-2.57088,0.0916415,0.643813,67.1425,0.0234357,
2,1,0,1,0,58309.1,0.0252636,0.0249214,2.77792,30,0.000317132,10,6.92298e-05,-2.55628,0.099487,0.593042,64.2126,0.0249214,
2,1,0,1,0,58309.1,0.0267671,0.0264153,2.87456,30,0.000370505,10,7.59324e-05,-2.54143,0.111107,0.531019,59.4487,0.0264153,
2,1,0,1,0,58309.2,0.0282706,0.0279229,2.96559,30,0.000425644,10,8.28079e-05,-2.52789,0.122682,0.480919,55.508,0.0279229,
2,1,0,1,0,58309.2,0.0297581,0.0293653,3.05027,30,0.000481752,10,8.95722e-05,-2.51566,0.136947,0.430825,51.0817,0.02936534,
2,1,0,1,0,58309.2,0.0312617,0.0308988,3.1233,30,0.000539963,10,9.65062e-05,-2.50539,0.13937,0.423333,51.5125,0.0308988,
2,1,0,1,0,58309.2,0.0327652,0.0324067,3.20085,30,0.00059959,10,0.000103729,-2.49473,0.146011,0.404078,50.3903,0.0324067,
2,1,0,1,0,58309.2,0.0342545,0.0339177,3.27797,30,0.000659993,10,0.000111181,-2.4844,0.153368,0.384694,49.0825,0.0339177,
2,1,0,1,0,58309.2,0.035758,0.0354003,3.34445,30,0.00072243,10,0.000118395,-2.47568,0.160329,0.367994,47.9655,0.0354003,
2,1,0,1,0,58309.3,0.0372544,0.0368693,3.41645,30,0.000785851,10,0.000125962,-2.46643,0.167912,0.351375,46.8034,0.0368693,
2,1,0,1,0,58309.3,0.0387508,0.0383602,3.4816,30,0.000850519,10,0.000133555,-2.45822,0.174547,0.338017,45.9324,0.0383602,
2,1,0,1,0,58309.3,0.0402544,0.0398927,3.54817,30,0.000916793,10,0.000141546,-2.45,0.181606,0.324878,44.9798,0.0398927,
2,1,0,1,0,58309.3,0.0417436,0.0413859,3.61537,30,0.000983645,10,0.000149626,-2.44185,0.181613,0.324866,45.7664,0.0413859,
2,1,0,1,0,58309.3,0.0432472,0.0429075,3.67886,30,0.00105245,10,0.00015785,-2.43429,0.196601,0.3001,43.0582,0.0429075,
2,1,0,1,0,58309.4,0.0447507,0.0443823,3.73842,30,0.0011224,10,0.00016592,-2.42731,0.202905,0.290777,42.4453,0.0443823,
2,1,0,1,0,58309.4,0.0462382,0.0458735,3.80488,30,0.0011928,10,0.000174543,-2.41966,0.207567,0.284246,42.1694,0.0458735,
2,1,0,1,0,58309.4,0.0477417,0.0473493,3.86496,30,0.00126515,10,0.000183003,-2.41285,0.206827,0.285263,43.0298,0.0473493,
2,1,0,1,0,58309.4,0.0492453,0.0488852,3.92531,30,0.00133866,10,0.000191889,-2.40613,0.24415,0.241655,37.014,0.0488852,
2,1,0,1,0,58309.4,0.0507346,0.0503675,3.98406,30,0.00141248,10,0.000200667,-2.39967,0.246688,0.239169,37.2188,0.0503675,
2,1,0,1,0,58309.5,0.0522381,0.0518669,4.04913,30,0.00148819,10,0.000210016,-2.39264,0.229195,0.257422,40.6441,0.0518669,
2,1,0,1,0,58309.5,0.0537345,0.0533666,4.11171,30,0.00156465,10,0.000219428,-2.38598,0.240505,0.245317,39.3082,0.0533666,
2,1,0,1,0,58309.5,0.0552309,0.0548285,4.17065,30,0.00164224,10,0.00022867,-2.3798,0.252481,0.233681,37.9487,0.0548285,
2,1,0,1,0,58309.5,0.0567345,0.0563886,4.22285,30,0.00172133,10,0.00023812,-2.37439,0.256655,0.229881,37.857,0.05638855,
2,1,0,1,0,58309.5,0.0582237,0.0578474,4.28158,30,0.00180058,10,0.000247678,-2.3684,0.259133,0.227682,38.039,0.0578474,
2,1,0,1,0,58309.5,0.0597273,0.0593566,4.33687,30,0.00188175,10,0.000257422,-2.36282,0.256259,0.230236,38.9542,0.0593566,
2,1,0,1,0,58309.6,0.0612308,0.0608645,4.38938,30,0.00196401,10,0.000267157,-2.3576,0.268547,0.219701,37.6198,0.0608645,
2,1,0,1,0,58309.6,0.0627183,0.0623397,4.44186,30,0.00204641,10,0.000276904,-2.35243,0.276046,0.213732,37.0718,0.0623397,
2,1,0,1,0,58309.6,0.0642218,0.0638237,4.49181,30,0.00213063,10,0.000286684,-2.34758,0.281192,0.209821,36.8538,0.0638237,
2,1,0,1,0,58309.6,0.0657254,0.0653759,4.5433,30,0.00221589,10,0.000297022,-2.34263,0.279003,0.211468,37.5486,0.0653759,
2,1,0,1,0,58309.6,0.0672147,0.0668303,4.60048,30,0.00230125,10,0.000307451,-2.3372,0.29914,0.197232,35.435,0.06683033,
2,1,0,1,0,58309.7,0.0687182,0.0683907,4.65087,30,0.00238853,10,0.000318076,-2.33247,0.338029,0.174541,31.677,0.0683907,
2,1,0,1,0,58309.7,0.0702146,0.0698653,4.69613,30,0.00247625,10,0.000328097,-2.32826,0.327451,0.18018,33.0802,0.0698653,
2,1,0,1,0,58309.7,0.071711,0.0713441,4.75138,30,0.00256484,10,0.000338983,-2.32318,0.33464,0.176309,32.7087,0.0713441,
2,1,0,1,0,58309.7,0.0732146,0.0728476,4.79936,30,0.0026549,10,0.000349622,-2.31882,0.350318,0.168418,31.5586,0.0728476,
2,1,0,1,0,58309.7,0.0747038,0.0743395,4.85109,30,0.0027449,10,0.000360627,-2.31416,0.392524,0.150309,28.4343,0.0743395,
2,1,0,1,0,58309.8,0.0762074,0.0758283,4.89172,30,0.00283668,10,0.000370931,-2.31054,0.399202,0.147795,28.2119,0.0758283,
2,1,0,1,0,58309.8,0.0777109,0.077372,4.93891,30,0.00292929,10,0.000382133,-2.30637,0.396381,0.148847,28.6807,0.077372,
2,1,0,1,0,58309.8,0.0791984,0.0788618,4.98568,30,0.00302174,10,0.00039318,-2.30228,0.391941,0.150533,29.2627,0.0788618,
2,1,0,1,0,58309.8,0.0807019,0.0803598,5.02501,30,0.00311601,10,0.000403809,-2.29886,0.41362,0.142643,27.9599,0.0803598,
2,1,0,1,0,58309.8,0.0822055,0.0818442,5.06651,30,0.00321109,10,0.000414665,-2.29529,0.426406,0.138366,27.3308,0.0818442,
2,1,0,1,0,58309.8,0.0836947,0.0833712,5.10567,30,0.00330584,10,0.000425666,-2.29195,0.428226,0.137778,27.4618,0.0833712,
2,1,0,1,0,58309.9,0.0851983,0.084858,5.14034,30,0.00340237,10,0.000436199,-2.28901,0.422548,0.139629,28.0257,0.08485797,
2,1,0,1,0,58309.9,0.0866947,0.0862758,5.17856,30,0.00349914,10,0.000446784,-2.28579,0.447058,0.131974,26.6771,0.0862758,
2,1,0,1,0,58309.9,0.0881911,0.087823,5.2219,30,0.00359663,10,0.000458603,-2.28217,0.440204,0.134029,27.2827,0.087823,
2,1,0,1,0,58309.9,0.0896946,0.0893316,5.25124,30,0.00369529,10,0.000469101,-2.27974,0.471549,0.125119,25.6742,0.0893316,
2,1,0,1,0,58309.9,0.0911839,0.0908292,5.29263,30,0.00379363,10,0.000480725,-2.27633,0.438196,0.134643,27.8256,0.0908292,
2,1,0,1,0,58310,0.0926857,0.0923255,5.33432,30,0.00389381,10,0.000492494,-2.27292,0.447068,0.131971,27.4968,0.0923255,
2,1,0,1,0,58310,0.0941892,0.0938276,5.37562,30,0.00399476,10,0.000504382,-2.26957,0.482037,0.122397,25.7029,0.0938276,
2,1,0,1,0,58310,0.0956785,0.0953318,5.4183,30,0.00409541,10,0.000516536,-2.26614,0.469023,0.125793,26.6111,0.0953318,
2,1,0,1,0,58310,0.097182,0.0968162,5.46177,30,0.00419791,10,0.000528788,-2.26267,0.424187,0.13909,29.6723,0.0968162,
2,1,0,1,0,58310,0.0986856,0.0983322,5.51306,30,0.0043013,10,0.000542111,-2.25861,0.391675,0.150635,32.4384,0.0983322,
2,1,0,1,0,58310.1,0.100175,0.0998442,5.56979,30,0.00440455,10,0.000556111,-2.25416,0.397755,0.148332,32.2231,0.0998442,
2,1,0,1,0,58310.1,0.101678,0.101316,5.61832,30,0.00450987,10,0.000569225,-2.25039,0.355946,0.165755,36.3877,0.101316,
2,1,0,1,0,58310.1,0.103175,0.102778,5.68172,30,0.00461567,10,0.000583956,-2.24552,0.302925,0.194768,43.2029,0.1027781,
2,1,0,1,0,58310.1,0.104671,0.104322,5.75289,30,0.00472269,10,0.000600154,-2.24011,0.278058,0.212186,47.602,0.104322,
2,1,0,1,0,58310.1,0.106175,0.105798,5.81934,30,0.00483163,10,0.000615675,-2.23513,0.274575,0.214877,48.7796,0.105798,
2,1,0,1,0,58310.1,0.107662,0.107305,5.89049,30,0.00494079,10,0.000632079,-2.22985,0.264683,0.222908,51.2611,0.107305,
2,1,0,1,0,58310.2,0.109166,0.108769,5.96922,30,0.00505244,10,0.000649265,-2.22408,0.267344,0.220689,51.442,0.108769,
2,1,0,1,0,58310.2,0.110669,0.110299,6.04283,30,0.00516558,10,0.000666518,-2.21876,0.241988,0.243814,57.5621,0.110299,
2,1,0,1,0,58310.2,0.112159,0.111815,6.12981,30,0.00527906,10,0.000685403,-2.21255,0.247954,0.237947,56.8984,0.1118147,
2,1,0,1,0,58310.2,0.113662,0.113294,6.21266,30,0.00539535,10,0.000703855,-2.20672,0.260669,0.226341,54.8773,0.113294,
2,1,0,1,0,58310.2,0.115166,0.114803,6.29398,30,0.00551319,10,0.000722567,-2.20107,0.257108,0.229476,56.3765,0.114803,
2,1,0,1,0,58310.3,0.116655,0.116279,6.38048,30,0.00563127,10,0.000741916,-2.19515,0.268065,0.220096,54.818,0.1162791,
2,1,0,1,0,58310.3,0.118158,0.117807,6.47054,30,0.00575231,10,0.000762274,-2.18906,0.264277,0.22325,56.3267,0.117807,
2,1,0,1,0,58310.3,0.119655,0.119317,6.55482,30,0.00587433,10,0.000782101,-2.18344,0.281953,0.209255,53.5015,0.119317,
2,1,0,1,0,58310.3,0.121151,0.120819,6.63631,30,0.00599783,10,0.000801793,-2.17807,0.299696,0.196866,50.952,0.120819,
2,1,0,1,0,58310.3,0.122655,0.122328,6.71213,30,0.00612351,10,0.000821082,-2.17314,0.308258,0.191398,50.0921,0.122328,
2,1,0,1,0,58310.4,0.124142,0.123773,6.78666,30,0.00624923,10,0.000840005,-2.16834,0.331004,0.178245,47.1811,0.123773,
2,1,0,1,0,58310.4,0.125646,0.125281,6.85656,30,0.00637765,10,0.000859,-2.16389,0.370172,0.159385,42.5812,0.1252815,
2,1,0,1,0,58310.4,0.127149,0.126776,6.91209,30,0.0065073,10,0.000876287,-2.16039,0.397627,0.14838,40.0086,0.1267761,
2,1,0,1,0,58310.4,0.128639,0.128295,6.96991,30,0.00663661,10,0.000894201,-2.15677,0.418211,0.141077,38.3877,0.128295,
2,1,0,1,0,58310.4,0.130142,0.129773,7.03134,30,0.00676839,10,0.000912482,-2.15296,0.444791,0.132647,36.3521,0.129773,
2,1,0,1,0,58310.4,0.131646,0.131306,7.08204,30,0.00690128,10,0.000929916,-2.14984,0.488198,0.120853,33.3517,0.131306,
2,1,0,1,0,58310.5,0.133135,0.132775,7.12233,30,0.0070336,10,0.000945669,-2.14738,0.584362,0.100965,28.0641,0.132775,
2,1,0,1,0,58310.5,0.134639,0.134265,7.16016,30,0.00716809,10,0.00096136,-2.14508,0.612501,0.0963264,26.92,0.134265,
2,1,0,1,0,58310.5,0.136135,0.13578,7.19754,30,0.00730264,10,0.000977283,-2.14282,0.695561,0.0848236,23.8255,0.13578,
2,1,0,1,0,58310.5,0.137631,0.137252,7.23506,30,0.00743787,10,0.000993027,-2.14056,0.784146,0.0752411,21.231,0.137252,
2,1,0,1,0,58310.5,0.139135,0.138779,7.26854,30,0.00757442,10,0.00100872,-2.13855,1.03728,0.0568796,16.111,0.138779,
2,1,0,1,0,58310.6,0.140622,0.140294,7.28109,30,0.00770996,10,0.00102149,-2.1378,1.46216,0.0403512,11.4683,0.140294,
2,1,0,1,0,58310.6,0.142126,0.141796,7.29875,30,0.0078473,10,0.00103494,-2.13675,2.56448,0.0230066,6.55054,0.141796,
2,1,0,1,0,58310.6,0.143629,0.143265,7.31117,30,0.00798491,10,0.00104744,-2.13601,57.064,0.00103393,0.294572,0.143265,
2,1,0,1,0,58310.6,0.145119,0.144785,7.30867,30,0.00812113,10,0.00105819,-2.13616,-1.54816,-0.0381097,-10.8488,0.144785,
2,1,0,1,0,58310.6,0.146622,0.146271,7.29051,30,0.00825858,10,0.00106639,-2.13724,-0.87077,-0.0677561,-19.2481,0.146271,
2,1,0,1,0,58310.7,0.148126,0.147747,7.25817,30,0.00839551,10,0.00107237,-2.13917,-0.614721,-0.0959785,-27.1125,0.147747,
2,1,0,1,0,58310.7,0.149615,0.14922,7.21391,30,0.00853028,10,0.00107646,-2.14183,-0.442715,-0.133269,-37.4242,0.14922,
2,1,0,1,0,58310.7,0.151119,0.15077,7.14626,30,0.00866543,10,0.00107744,-2.14592,-0.324104,-0.18204,-50.5858,0.15077,
2,1,0,1,0,58310.7,0.152615,0.152255,7.05865,30,0.00879845,10,0.00107471,-2.15128,-0.259578,-0.227292,-62.4266,0.152255,
2,1,0,1,0,58310.7,0.154111,0.153731,6.95302,30,0.00892961,10,0.0010689,-2.15783,-0.219904,-0.268299,-72.6357,0.153731,
2,1,0,1,0,58310.7,0.155615,0.15526,6.83104,30,0.00905937,10,0.00106059,-2.16551,-0.185579,-0.317924,-84.5315,0.15526,
2,1,0,1,0,58310.8,0.157103,0.156733,6.69402,30,0.00918542,10,0.00104917,-2.17431,-0.155712,-0.378906,-98.7014,0.156733,
2,1,0,1,0,58310.8,0.158606,0.158267,6.53312,30,0.00931,10,0.00103398,-2.18488,-0.140309,-0.420502,-107.127,0.158267,
2,1,0,1,0,58310.8,0.16011,0.159749,6.36281,30,0.0094315,10,0.00101645,-2.19635,-0.129951,-0.454019,-112.674,0.159749,
2,1,0,1,0,58310.8,0.161599,0.161246,6.1951,30,0.00954857,10,0.000998933,-2.20795,-0.121867,-0.484135,-116.923,0.161246,
2,1,0,1,0,58310.8,0.163102,0.162746,6.01518,30,0.00966356,10,0.000978949,-2.22075,-0.115291,-0.511749,-120.076,0.162746,
2,1,0,1,0,58310.9,0.164606,0.164215,5.83574,30,0.00977521,10,0.000958318,-2.2339,-0.111708,-0.528163,-120.275,0.164215,
2,1,0,1,0,58310.9,0.166095,0.165737,5.66337,30,0.00988231,10,0.000938632,-2.24693,-0.110333,-0.534747,-118.237,0.165737,
2,1,0,1,0,58310.9,0.167599,0.167233,5.48616,30,0.00998727,10,0.000917467,-2.26073,-0.114208,-0.516601,-110.749,0.167233,
2,1,0,1,0,58310.9,0.169095,0.168723,5.32969,30,0.0100886,10,0.000899243,-2.2733,-0.115774,-0.509613,-106.083,0.168723,
2,1,0,1,0,58310.9,0.170592,0.170231,5.17573,30,0.010187,10,0.000881071,-2.28603,-0.118269,-0.498861,-100.808,0.170231,
2,1,0,1,0,58311,0.172095,0.171735,5.02665,30,0.0102831,10,0.000863254,-2.29872,-0.122281,-0.482495,-94.769,0.171735,
2,1,0,1,0,58311,0.173583,0.173203,4.89442,30,0.0103755,10,0.000847726,-2.3103,-0.130249,-0.452977,-86.5923,0.173203,
2,1,0,1,0,58311,0.175086,0.174717,4.76674,30,0.0104665,10,0.000832833,-2.32178,-0.134918,-0.437301,-81.3859,0.174717,
2,1,0,1,0,58311,0.17659,0.17621,4.64661,30,0.0105551,10,0.000818776,-2.33286,-0.142792,-0.413189,-74.9612,0.17621,
2,1,0,1,0,58311,0.178079,0.177742,4.53751,30,0.0106407,10,0.000806507,-2.34318,-0.152779,-0.386179,-68.4382,0.1777423,
2,1,0,1,0,58311,0.179582,0.179238,4.43282,30,0.0107251,10,0.000794528,-2.35332,-0.162414,-0.36327,-62.9786,0.179238,
2,1,0,1,0,58311.1,0.181086,0.180764,4.34059,30,0.0108079,10,0.000784621,-2.36245,-0.17177,-0.343484,-58.2624,0.180764,
2,1,0,1,0,58311.1,0.182575,0.182238,4.25583,30,0.010888,10,0.000775576,-2.37102,-0.17524,-0.336681,-55.9566,0.182238,
2,1,0,1,0,58311.1,0.184079,0.183717,4.16624,30,0.0109674,10,0.00076541,-2.38026,-0.187318,-0.314973,-51.338,0.183717,
2,1,0,1,0,58311.1,0.185582,0.185268,4.09296,30,0.0110453,10,0.000758295,-2.38796,-0.191156,-0.308648,-49.3819,0.185268,
2,1,0,1,0,58311.1,0.18707,0.186716,4.02802,30,0.0111211,10,0.000752095,-2.39491,-0.211029,-0.279582,-43.986,0.186716,
2,1,0,1,0,58311.2,0.188573,0.188221,3.96386,30,0.0111964,10,0.000746082,-2.40188,-0.216528,-0.272482,-42.2003,0.188221,
2,1,0,1,0,58311.2,0.19007,0.189695,3.90348,30,0.0112702,10,0.000740471,-2.40855,-0.21585,-0.273337,-41.6575,0.189695,
2,1,0,1,0,58311.2,0.191566,0.191202,3.84639,30,0.0113428,10,0.000735437,-2.41495,-0.228859,-0.257801,-38.7514,0.191202,
2,1,0,1,0,58311.2,0.19307,0.192674,3.79229,30,0.0114148,10,0.000730676,-2.4211,-0.26018,-0.226766,-33.5884,0.192674,
2,1,0,1,0,58311.2,0.194559,0.194172,3.75318,30,0.0114852,10,0.000728764,-2.4256,-0.277063,-0.212948,-31.1559,0.1941724,
2,1,0,1,0,58311.3,0.196063,0.195749,3.70455,30,0.0115554,10,0.000725162,-2.43126,-0.271872,-0.217014,-31.3551,0.195749,
2,1,0,1,0,58311.3,0.197566,0.197213,3.65419,30,0.0116247,10,0.000720652,-2.43721,-0.295946,-0.199361,-28.4895,0.197213,
2,1,0,1,0,58311.3,0.199055,0.198702,3.62156,30,0.0116926,10,0.000719611,-2.4411,-0.342014,-0.172507,-24.3734,0.198702,
2,1,0,1,0,58311.3,0.200559,0.200216,3.58289,30,0.0117604,10,0.000717353,-2.44577,-0.367316,-0.160625,-22.4646,0.200216,
2,1,0,1,0,58311.3,0.202062,0.201689,3.54633,30,0.0118276,10,0.000715255,-2.45022,-0.387496,-0.15226,-21.0734,0.201689,
2,1,0,1,0,58311.3,0.20355,0.203192,3.5128,30,0.0118935,10,0.000713774,-2.45435,-0.443265,-0.133103,-18.265,0.203192,
2,1,0,1,0,58311.4,0.205053,0.204662,3.48114,30,0.0119594,10,0.000712457,-2.45828,-0.514551,-0.114663,-15.623,0.204662,
2,1,0,1,0,58311.4,0.20655,0.206187,3.45133,30,0.0120245,10,0.000711619,-2.46201,-0.544918,-0.108273,-14.6152,0.206187,
2,1,0,1,0,58311.4,0.208046,0.207684,3.42735,30,0.0120892,10,0.000711807,-2.46504,-0.453001,-0.130242,-17.4441,0.207684,
2,1,0,1,0,58311.4,0.20955,0.209197,3.40783,30,0.0121538,10,0.000712908,-2.46752,-0.411054,-0.143533,-19.0993,0.209197,
2,1,0,1,0,58311.4,0.211039,0.210689,3.38382,30,0.0122171,10,0.000712933,-2.47059,-0.484298,-0.121826,-16.102,0.210689,
2,1,0,1,0,58311.5,0.212543,0.212196,3.36081,30,0.0122807,10,0.000713149,-2.47356,-0.516032,-0.114334,-15.0062,0.212196,
2,1,0,1,0,58311.5,0.214046,0.213699,3.33898,30,0.0123439,10,0.000713538,-2.47639,-0.508452,-0.116039,-15.1314,0.213699,
2,1,0,1,0,58311.5,0.215535,0.215179,3.32543,30,0.0124061,10,0.000715562,-2.47815,-0.507113,-0.116345,-15.0751,0.215179,
2,1,0,1,0,58311.5,0.217039,0.216655,3.30116,30,0.0124686,10,0.000715213,-2.48133,-0.551509,-0.106979,-13.784,0.216655,
2,1,0,1,0,58311.5,0.218543,0.218184,3.2883,30,0.0125307,10,0.000717454,-2.48303,-0.727649,-0.081083,-10.4015,0.218184,
2,1,0,1,0,58311.5,0.22003,0.219705,3.2758,30,0.0125919,10,0.000719711,-2.48468,-0.700631,-0.0842098,-10.7582,0.2197054,
2,1,0,1,0,58311.6,0.221534,0.221178,3.25682,30,0.0126534,10,0.000720335,-2.48721,-0.664332,-0.088811,-11.2782,0.221178,
2,1,0,1,0,58311.6,0.22303,0.222705,3.24181,30,0.0127144,10,0.000721968,-2.48921,-0.935778,-0.0630492,-7.97328,0.222705,
2,1,0,1,0,58311.6,0.224526,0.224179,3.22892,30,0.012775,10,0.000723855,-2.49094,-0.978319,-0.0603076,-7.5927,0.224179,
2,1,0,1,0,58311.6,0.22603,0.225711,3.21113,30,0.0128357,10,0.00072479,-2.49334,-1.48339,-0.0397737,-4.98724,0.225711,
2,1,0,1,0,58311.6,0.227519,0.227171,3.19999,30,0.0128956,10,0.000726944,-2.49485,-0.911825,-0.0647054,-8.07909,0.227171,
2,1,0,1,0,58311.7,0.229023,0.228669,3.1855,30,0.0129559,10,0.000728425,-2.49682,-1.03656,-0.056919,-7.08646,0.228669,
2,1,0,1,0,58311.7,0.230526,0.230164,3.17229,30,0.0130159,10,0.000730146,-2.49863,-1.06699,-0.0552955,-6.86343,0.230164,
2,1,0,1,0,58311.7,0.232016,0.231683,3.16357,30,0.0130751,10,0.000732945,-2.49982,-1.23754,-0.0476754,-5.89173,0.231683,
2,1,0,1,0,58311.7,0.233519,0.233175,3.15338,30,0.0131348,10,0.000735289,-2.50122,-1.04169,-0.0566385,-6.97459,0.233175,
2,1,0,1,0,58311.7,0.235023,0.234677,3.14658,30,0.0131942,10,0.000738428,-2.50216,-0.934849,-0.0631118,-7.74888,0.2346767,
2,1,0,1,0,58311.8,0.23651,0.236145,3.13222,30,0.0132529,10,0.000739659,-2.50415,-1.06346,-0.0554791,-6.79726,0.236145,
2,1,0,1,0,58311.8,0.238014,0.237676,3.12816,30,0.013312,10,0.00074349,-2.50471,-1.25328,-0.0470765,-5.74607,0.237676,
2,1,0,1,0,58311.8,0.23951,0.239156,3.12185,30,0.0133706,10,0.000746609,-2.50559,-1.16385,-0.0506939,-6.1698,0.239156,
2,1,0,1,0,58311.8,0.241006,0.240696,3.1173,30,0.0134291,10,0.000750322,-2.50622,-0.868889,-0.0679028,-8.25271,0.240696,
2,1,0,1,0,58311.8,0.24251,0.242137,3.10316,30,0.0134877,10,0.00075139,-2.5082,-1.22864,-0.0480207,-5.81968,0.242137,
2,1,0,1,0,58311.8,0.243999,0.243618,3.10046,30,0.0135455,10,0.000755328,-2.50857,-2.48957,-0.0236989,-2.86333,0.243618,
2,1,0,1,0,58311.9,0.245503,0.24514,3.09509,30,0.0136039,10,0.000758731,-2.50933,-2.92299,-0.0201848,-2.43338,0.24514,
2,1,0,1,0,58311.9,0.247006,0.246645,3.08364,30,0.0136622,10,0.000760565,-2.51094,-1.66623,-0.0354093,-4.25648,0.246645,
2,1,0,1,0,58311.9,0.248496,0.248111,3.0769,30,0.0137197,10,0.000763415,-2.51189,-2.57463,-0.0229159,-2.75199,0.248111,
2,1,0,1,0,58311.9,0.249999,0.249661,3.0673,30,0.0137776,10,0.000765784,-2.51324,-2.10427,-0.0280382,-3.35897,0.249661,
2,1,0,1,0,58311.9,0.251503,0.251158,3.05697,30,0.0138354,10,0.00076778,-2.51471,-3.7782,-0.0156159,-1.8667,0.251158,
2,1,0,1,0,58312,0.25299,0.252665,3.05197,30,0.0138926,10,0.000771127,-2.51542,-1.49402,-0.0394908,-4.70879,0.252665,
2,1,0,1,0,58312,0.254494,0.254126,3.04641,30,0.0139502,10,0.000774173,-2.51621,-1.7202,-0.0342983,-4.07995,0.254126,
2,1,0,1,0,58312,0.25599,0.255622,3.0395,30,0.0140073,10,0.000776963,-2.5172,-1.98498,-0.0297233,-3.5329,0.255622,
2,1,0,1,0,58312,0.257487,0.257148,3.03782,30,0.0140644,10,0.000781168,-2.51744,-1.99139,-0.0296276,-3.51141,0.257148,
2,1,0,1,0,58312,0.25899,0.258648,3.03108,30,0.0141217,10,0.00078398,-2.5184,-1.54096,-0.0382879,-4.53088,0.258648,
2,1,0,1,0,58312.1,0.260479,0.260168,3.02578,30,0.0141783,10,0.000787211,-2.51916,-1.2579,-0.0469037,-5.53937,0.260168,
2,1,0,1,0,58312.1,0.261983,0.261638,3.02276,30,0.0142353,10,0.000790869,-2.5196,-1.37523,-0.0429018,-5.05817,0.2616379,
2,1,0,1,0,58312.1,0.263486,0.263126,3.0146,30,0.0142923,10,0.000793221,-2.52077,-1.64772,-0.035807,-4.21676,0.263126,
2,1,0,1,0,58312.1,0.264974,0.2646,3.01187,30,0.0143485,10,0.00079694,-2.52116,-1.79406,-0.0328863,-3.86702,0.2645998,
2,1,0,1,0,58312.1,0.266477,0.266104,3.00659,30,0.0144053,10,0.000800066,-2.52193,-1.51287,-0.0389987,-4.57564,0.266104,
2,1,0,1,0,58312.1,0.267981,0.267605,2.99967,30,0.014462,10,0.000802727,-2.52293,-4.75678,-0.0124033,-1.4531,0.267605,
2,1,0,1,0,58312.2,0.26947,0.269119,2.9995,30,0.0145179,10,0.000807223,-2.52295,-6.59309,-0.00894877,-1.04628,0.269119,
2,1,0,1,0,58312.2,0.270974,0.270648,2.99546,30,0.0145744,10,0.000810716,-2.52354,-8.7976,-0.00670638,-0.783071,0.270648,
2,1,0,1,0,58312.2,0.27247,0.27214,2.98871,30,0.0146306,10,0.000813345,-2.52452,-8.6704,-0.00680476,-0.792475,0.27214,
2,1,0,1,0,58312.2,0.273967,0.273614,2.97826,30,0.0146866,10,0.000814895,-2.52604,-1.91556,-0.0308004,-3.58586,0.273614,
2,1,0,1,0,58312.2,0.27547,0.275082,2.97422,30,0.0147428,10,0.000818155,-2.52663,-3.01015,-0.0196003,-2.27435,0.275082,
2,1,0,1,0,58312.3,0.276959,0.276629,2.96748,30,0.0147983,10,0.000820891,-2.52761,-3.98879,-0.0147915,-1.71448,0.276629,
2,1,0,1,0,58312.3,0.278463,0.278102,2.96167,30,0.0148543,10,0.000823646,-2.52846,-1.96154,-0.0300785,-3.48447,0.278102,
2,1,0,1,0,58312.3,0.279967,0.279597,2.95731,30,0.0149103,10,0.000826857,-2.5291,-1.86339,-0.0316626,-3.66023,0.279597,
2,1,0,1,0,58312.3,0.281454,0.281123,2.95081,30,0.0149655,10,0.00082954,-2.53006,-1.65403,-0.0356706,-4.1175,0.281123,
2,1,0,1,0,58312.3,0.282958,0.282631,2.9496,30,0.0150212,10,0.000833649,-2.53024,-1.4167,-0.0416462,-4.79502,0.282631,
2,1,0,1,0,58312.4,0.284461,0.284129,2.94611,30,0.0150769,10,0.000837076,-2.53075,-1.79178,-0.0329281,-3.78615,0.284129,
2,1,0,1,0,58312.4,0.28595,0.285571,2.94431,30,0.0151318,10,0.00084081,-2.53102,-1.40352,-0.0420371,-4.82466,0.285571,
2,1,0,1,0,58312.4,0.287454,0.28713,2.93666,30,0.0151873,10,0.000843204,-2.53215,-1.46545,-0.0402606,-4.61178,0.28713,
2,1,0,1,0,58312.4,0.28895,0.288603,2.93527,30,0.0152423,10,0.000847128,-2.53235,-2.8758,-0.020516,-2.34651,0.288603,
2,1,0,1,0,58312.4,0.290447,0.290071,2.93055,30,0.0152973,10,0.000850066,-2.53305,-2.46745,-0.0239113,-2.73187,0.2900708,
2,1,0,1,0,58312.4,0.29195,0.291619,2.92447,30,0.0153525,10,0.000852831,-2.53395,-2.09288,-0.0281908,-3.21393,0.291619,
2,1,0,1,0,58312.5,0.29344,0.29307,2.91712,30,0.015407,10,0.00085492,-2.53505,-1.82783,-0.0322787,-3.6733,0.29307,
2,1,0,1,0,58312.5,0.294943,0.294587,2.91501,30,0.0154619,10,0.000858724,-2.53536,-4.32143,-0.0136529,-1.55119,0.294587,
2,1,0,1,0,58312.5,0.296447,0.296122,2.90947,30,0.0155168,10,0.000861558,-2.53619,-7.70778,-0.0076546,-0.867889,0.296122,
2,1,0,1,0,58312.5,0.297934,0.297575,2.90088,30,0.0155711,10,0.000863229,-2.53747,-3.09905,-0.0190381,-2.15699,0.297575,
2,1,0,1,0,58312.5,0.299438,0.299066,2.89396,30,0.0156258,10,0.000865487,-2.53851,-0.0369497,-1.59677,-168.526,0.299066,
2,1,0,1,0,58312.5,0.300012,0.299498,2.90204,30,0.0156462,10,0.000869156,-2.5373,0.00219589,26.8684,2118.84,0.299498,
2,1,0,1,0,58312.6,0.298737,0.298406,1.64556,30,0.0156804,10,0.000491044,-2.78369,0.00498884,11.8264,695.386,0.298406,
2,1,0,1,0,58312.6,0.29724,0.296894,0.854034,30,0.0157029,10,0.000253558,-3.06852,0.00402492,14.6587,448.269,0.296894,
2,1,0,1,0,58312.6,0.295744,0.295374,0.328848,30,0.0157135,10,9.71332e-05,-3.483,0.0045257,13.0367,295.126,0.295374,
2,1,0,1,0,58312.6,0.29424,0.293846,-0.0393345,30,0.0157158,10,-1.15583e-05,-4.40523,0.0381874,1.54501,214.784,0.293846,
2,0,0,1,0,58312.6,0.292751,0.292337,-0.305213,30,0.0157123,10,-8.9225e-05,-3.5154,-0.00450803,-13.0877,161.75,0.292337,
2,0,0,1,0,58312.7,0.291248,0.290843,-0.519391,30,0.0157043,10,-0.000151061,-3.28451,-0.00782903,-7.53606,125.743,0.290843,
2,0,0,1,0,58312.7,0.289744,0.289359,-0.683516,30,0.0156928,10,-0.000197781,-3.16525,-0.0140437,-4.20118,103.552,0.289359,
2,0,0,1,0,58312.7,0.288257,0.287863,-0.812653,30,0.0156786,10,-0.000233932,-3.0901,-0.0213575,-2.7625,84.226,0.287863,
2,0,0,1,0,58312.7,0.286753,0.286353,-0.92443,30,0.015662,10,-0.000264713,-3.03413,-0.0302022,-1.9535,68.8042,0.2863532,
2,0,0,1,0,58312.7,0.285249,0.284881,-1.01756,30,0.0156435,10,-0.000289882,-2.99244,-0.0383368,-1.53899,60.4125,0.284881,
2,0,0,1,0,58312.8,0.28376,0.283412,-1.10177,30,0.0156236,10,-0.000312257,-2.95791,-0.0474844,-1.24251,52.8748,0.2834124,
2,0,0,1,0,58312.8,0.282257,0.281881,-1.17169,30,0.0156019,10,-0.000330278,-2.93119,-0.0580648,-1.01611,46.1577,0.2818813,
2,0,0,1,0,58312.8,0.28076,0.280341,-1.23818,30,0.0155791,10,-0.000347113,-2.90722,-0.0706781,-0.834771,40.1853,0.280341,
2,0,0,1,0,58312.8,0.279264,0.278889,-1.29002,30,0.0155553,10,-0.000359771,-2.8894,-0.0824633,-0.715469,35.9806,0.2788887,
2,0,0,1,0,58312.8,0.27776,0.277386,-1.34425,30,0.0155302,10,-0.000372877,-2.87152,-0.095304,-0.619071,32.4243,0.277386,
2,0,0,1,0,58312.8,0.276271,0.275898,-1.39754,30,0.0155045,10,-0.000385579,-2.85464,-0.11161,-0.528629,28.7218,0.275898,
2,0,0,1,0,58312.9,0.274767,0.274341,-1.44207,30,0.0154776,10,-0.00039562,-2.84101,-0.126802,-0.465292,26.0607,0.274341,
2,0,0,1,0,58312.9,0.273264,0.272862,-1.47907,30,0.01545,10,-0.000403581,-2.83001,-0.135115,-0.436664,25.1389,0.272862,
2,0,0,1,0,58312.9,0.271776,0.271402,-1.52155,30,0.015422,10,-0.000412952,-2.81771,-0.138715,-0.425334,25.114,0.271402,
2,0,0,1,0,58312.9,0.270273,0.269917,-1.55592,30,0.0153929,10,-0.00041997,-2.80801,-0.149646,-0.394263,23.8796,0.269917,
2,0,0,1,0,58312.9,0.268769,0.268399,-1.58987,30,0.0153632,10,-0.000426719,-2.79864,-0.170827,-0.345379,21.3831,0.268399,
2,0,0,1,0,58313,0.26728,0.266968,-1.61759,30,0.0153331,10,-0.000431843,-2.79113,-0.176094,-0.335049,21.1477,0.266968,
2,0,0,1,0,58313,0.265777,0.265376,-1.65007,30,0.0153022,10,-0.000437888,-2.7825,-0.186697,-0.31602,20.3153,0.265376,
2,0,0,1,0,58313,0.26428,0.263898,-1.68362,30,0.0152709,10,-0.000444304,-2.77376,-0.174662,-0.337795,22.1066,0.2638981,
2,0,0,1,0,58313,0.262784,0.262439,-1.70789,30,0.015239,10,-0.000448217,-2.76754,-0.214538,-0.275009,18.3089,0.262439,
2,0,0,1,0,58313,0.26128,0.260912,-1.72792,30,0.0152065,10,-0.000450835,-2.76248,-0.224687,-0.262587,17.7698,0.260912,
2,0,0,1,0,58313.1,0.259791,0.259431,-1.75777,30,0.0151738,10,-0.00045602,-2.75504,-0.221498,-0.266369,18.2983,0.259431,
2,0,0,1,0,58313.1,0.258287,0.257954,-1.7799,30,0.0151404,10,-0.000459133,-2.7496,-0.231862,-0.254462,17.6913,0.2579537,
2,0,0,1,0,58313.1,0.256786,0.25644,-1.8064,30,0.0151064,10,-0.000463231,-2.74319,-0.275921,-0.213829,15.0693,0.25644,
2,0,0,1,0,58313.1,0.255296,0.254906,-1.82698,30,0.0150723,10,-0.000465709,-2.73827,-0.316684,-0.186306,13.3097,0.254906,
2,0,0,1,0,58313.1,0.253793,0.253357,-1.8505,30,0.0150375,10,-0.000468836,-2.73271,-0.340261,-0.173396,12.5312,0.2533567,
2,0,0,1,0,58313.1,0.252289,0.251906,-1.87198,30,0.0150023,10,-0.000471562,-2.7277,-0.340871,-0.173086,12.6344,0.251906,
2,0,0,1,0,58313.2,0.2508,0.250413,-1.89478,30,0.014967,10,-0.000474478,-2.72244,-0.355971,-0.165744,12.2622,0.250413,
2,0,0,1,0,58313.2,0.249296,0.248885,-1.91787,30,0.014931,10,-0.000477328,-2.71718,-0.400306,-0.147387,11.0047,0.248885,
2,0,0,1,0,58313.2,0.2478,0.247444,-1.94147,30,0.0148948,10,-0.000480406,-2.71187,-0.397198,-0.14854,11.236,0.247444,
2,0,0,1,0,58313.2,0.246304,0.24595,-1.95497,30,0.0148583,10,-0.000480826,-2.70886,-0.311535,-0.189385,14.4445,0.24595,
2,0,0,1,0,58313.2,0.2448,0.244462,-1.97544,30,0.0148212,10,-0.00048292,-2.70434,-0.320195,-0.184263,14.194,0.244462,
2,0,0,1,0,58313.3,0.243313,0.24293,-1.99489,30,0.0147841,10,-0.00048462,-2.70008,-0.34396,-0.171532,13.3211,0.24293,
2,0,0,1,0,58313.3,0.241809,0.24145,-2.00767,30,0.0147462,10,-0.000484752,-2.69731,-0.366767,-0.160865,12.6203,0.24145,
2,0,0,1,0,58313.3,0.240306,0.239927,-2.02561,30,0.0147081,10,-0.000485998,-2.69344,-0.347468,-0.1698,13.4533,0.239927,
2,0,0,1,0,58313.3,0.238816,0.238417,-2.04676,30,0.01467,10,-0.000487982,-2.68893,-0.352389,-0.167429,13.378,0.238417,
2,0,0,1,0,58313.3,0.237313,0.237002,-2.06506,30,0.0146312,10,-0.000489424,-2.68507,-0.405426,-0.145526,11.7011,0.237002,
2,0,0,1,0,58313.4,0.235809,0.235424,-2.07653,30,0.014592,10,-0.000488865,-2.68266,-0.408143,-0.144557,11.7244,0.235424,
2,0,0,1,0,58313.4,0.23432,0.233953,-2.09416,30,0.014553,10,-0.000489935,-2.67899,-0.43332,-0.136158,11.1438,0.233953,
2,0,0,1,0,58313.4,0.232816,0.232456,-2.10663,30,0.0145132,10,-0.000489699,-2.67641,-0.459238,-0.128474,10.5898,0.232456,
2,0,0,1,0,58313.4,0.23132,0.230923,-2.12943,30,0.0144734,10,-0.000491734,-2.67174,-0.53255,-0.110788,9.20267,0.230923,
2,0,0,1,0,58313.4,0.229824,0.229475,-2.14521,30,0.0144332,10,-0.000492272,-2.66853,-0.54053,-0.109152,9.13808,0.229475,
2,0,0,1,0,58313.4,0.22832,0.227933,-2.16214,30,0.0143925,10,-0.000492822,-2.66512,-0.579608,-0.101793,8.58155,0.227933,
2,0,0,1,0,58313.5,0.226833,0.226498,-2.17778,30,0.014352,10,-0.000493261,-2.66199,-0.464372,-0.127053,10.7846,0.226498,
2,0,0,1,0,58313.5,0.225329,0.224949,-2.19491,30,0.0143107,10,-0.000493745,-2.65858,-0.488681,-0.120733,10.35,0.224949,
2,0,0,1,0,58313.5,0.223825,0.223471,-2.21084,30,0.0142691,10,-0.00049406,-2.65544,-0.580201,-0.101689,8.76042,0.223471,
2,0,0,1,0,58313.5,0.222336,0.221937,-2.22299,30,0.0142277,10,-0.000493363,-2.65306,-0.600004,-0.0983326,8.53548,0.221937,
2,0,0,1,0,58313.5,0.220833,0.220469,-2.24056,30,0.0141856,10,-0.000493974,-2.64964,-0.403804,-0.146111,12.7834,0.220469,
2,0,0,1,0,58313.6,0.219329,0.21893,-2.25834,30,0.0141431,10,-0.000494419,-2.64621,-0.460564,-0.128104,11.2708,0.21893,
2,0,0,1,0,58313.6,0.21784,0.217469,-2.27076,30,0.0141008,10,-0.000493821,-2.64383,-0.503411,-0.117201,10.3734,0.217469,
2,0,0,1,0,58313.6,0.216336,0.215972,-2.28185,30,0.0140578,10,-0.000492817,-2.64171,-0.523804,-0.112638,10.0392,0.215972,
2,0,0,1,0,58313.6,0.21484,0.214495,-2.29648,30,0.0140148,10,-0.000492582,-2.63894,-0.458458,-0.128692,11.5592,0.214495,
2,0,0,1,0,58313.6,0.213343,0.212978,-2.31321,30,0.0139714,10,-0.000492663,-2.63578,-0.44854,-0.131538,11.8783,0.212978,
2,0,0,1,0,58313.7,0.21184,0.211462,-2.32729,30,0.0139276,10,-0.000492134,-2.63315,-0.484879,-0.12168,11.0609,0.211462,
2,0,0,1,0,58313.7,0.210352,0.209991,-2.3425,30,0.0138839,10,-0.000491903,-2.63032,-0.548481,-0.10757,9.83151,0.209991,
2,0,0,1,0,58313.7,0.208849,0.208501,-2.35326,30,0.0138395,10,-0.000490657,-2.62833,-0.531001,-0.111111,10.2349,0.208501,
2,0,0,1,0,58313.7,0.207345,0.206994,-2.37161,30,0.0137949,10,-0.000490909,-2.62496,-0.487031,-0.121142,11.2249,0.2069943,
2,0,0,1,0,58313.7,0.205856,0.205494,-2.39464,30,0.0137503,10,-0.000492085,-2.62076,-0.577996,-0.102077,9.52346,0.205494,
2,0,0,1,0,58313.7,0.204353,0.203959,-2.40986,30,0.013705,10,-0.000491514,-2.61801,-0.883661,-0.0667677,6.26888,0.203959,
2,0,0,1,0,58313.8,0.202849,0.202464,-2.41674,30,0.0136595,10,-0.000489304,-2.61677,-0.611402,-0.0964995,9.11606,0.202464,
2,0,0,1,0,58313.8,0.20136,0.200956,-2.43872,30,0.0136141,10,-0.000490075,-2.61284,-0.511111,-0.115435,10.9656,0.200956,
2,0,0,1,0,58313.8,0.199856,0.199502,-2.45331,30,0.013568,10,-0.00048944,-2.61025,-0.557242,-0.105879,10.1352,0.199502,
2,0,0,1,0,58313.8,0.19836,0.197992,-2.46777,30,0.0135219,10,-0.000488598,-2.60769,-0.555586,-0.106194,10.2139,0.197992,
2,0,0,1,0,58313.8,0.196863,0.196487,-2.48204,30,0.0134754,10,-0.000487689,-2.60519,-0.522662,-0.112884,10.9321,0.196487,
2,0,0,1,0,58313.9,0.19536,0.195002,-2.4952,30,0.0134285,10,-0.00048657,-2.60289,-0.470239,-0.125468,12.2206,0.195002,
2,0,0,1,0,58313.9,0.193872,0.193498,-2.51613,30,0.0133818,10,-0.000486865,-2.59927,-0.439259,-0.134317,13.1548,0.193498,
2,0,0,1,0,58313.9,0.192369,0.192002,-2.52708,30,0.0133342,10,-0.000485203,-2.59738,-0.493184,-0.119631,11.7896,0.192002,
2,0,0,1,0,58313.9,0.190865,0.190476,-2.54077,30,0.0132863,10,-0.000483957,-2.59503,-0.514235,-0.114734,11.4043,0.190476,
2,0,0,1,0,58313.9,0.189376,0.189007,-2.55771,30,0.0132386,10,-0.000483424,-2.59215,-0.534475,-0.110389,11.0424,0.189007,
2,0,0,1,0,58314,0.187872,0.187518,-2.56997,30,0.0131902,10,-0.000481917,-2.59007,-0.468309,-0.125985,12.672,0.1875184,
2,0,0,1,0,58314,0.186369,0.185985,-2.59542,30,0.0131413,10,-0.000482709,-2.58579,-0.572002,-0.103146,10.4414,0.185985,
2,0,0,1,0,58314,0.18488,0.184484,-2.61163,30,0.0130927,10,-0.000481805,-2.58309,-0.65268,-0.0903965,9.21182,0.184484,
2,0,0,1,0,58314,0.183376,0.182984,-2.62789,30,0.0130433,10,-0.000480863,-2.58039,-0.626373,-0.094193,9.66814,0.182984,
2,0,0,1,0,58314,0.18188,0.181491,-2.64659,30,0.0129938,10,-0.000480331,-2.57731,-0.52709,-0.111935,11.5613,0.181491,
2,0,0,1,0,58314,0.180383,0.179996,-2.67298,30,0.0129439,10,-0.000481125,-2.573,-0.480797,-0.122713,12.7688,0.179996,
2,0,0,1,0,58314.1,0.17888,0.178466,-2.69304,30,0.0128933,10,-0.000480616,-2.56976,-0.581368,-0.101485,10.644,0.178466,
2,0,0,1,0,58314.1,0.177392,0.177003,-2.70544,30,0.012843,10,-0.000478872,-2.56776,-0.567533,-0.103959,10.9864,0.177003,
2,0,0,1,0,58314.1,0.175889,0.175597,-2.72647,30,0.0127918,10,-0.000478761,-2.5644,-0.414302,-0.142408,15.1385,0.175597,
2,0,0,1,0,58314.1,0.174385,0.174021,-2.74831,30,0.0127401,10,-0.000478263,-2.56093,-0.43549,-0.13548,14.5294,0.174021,
2,0,0,1,0,58314.1,0.172896,0.172513,-2.77103,30,0.0126886,10,-0.000478039,-2.55736,-0.399618,-0.147641,15.9515,0.172513,
2,0,0,1,0,58314.2,0.171392,0.171025,-2.78964,30,0.0126362,10,-0.000477098,-2.55445,-0.40241,-0.146617,15.9819,0.171025,
2,0,0,1,0,58314.2,0.169889,0.169551,-2.81499,30,0.0125833,10,-0.000477285,-2.55052,-0.367292,-0.160635,17.6627,0.169551,
2,0,0,1,0,58314.2,0.1684,0.168019,-2.84425,30,0.0125305,10,-0.000477888,-2.54603,-0.349326,-0.168896,18.7211,0.168019,
2,0,0,1,0,58314.2,0.166896,0.166495,-2.86321,30,0.0124766,10,-0.000476711,-2.54315,-0.337608,-0.174759,19.5575,0.166495,
2,0,0,1,0,58314.2,0.165392,0.165022,-2.88711,30,0.0124223,10,-0.000476437,-2.53954,-0.34833,-0.16938,19.1371,0.165022,
2,0,0,1,0,58314.3,0.163905,0.163534,-2.91863,30,0.012368,10,-0.000477295,-2.53482,-0.35199,-0.167618,19.1421,0.163534,
2,0,0,1,0,58314.3,0.162401,0.162073,-2.94807,30,0.0123126,10,-0.000477804,-2.53046,-0.331849,-0.177792,20.5078,0.162073,
2,0,0,1,0,58314.3,0.160905,0.160527,-2.98419,30,0.0122568,10,-0.000479044,-2.52517,-0.345626,-0.170705,19.8902,0.160527,
2,0,0,1,0,58314.3,0.159409,0.159004,-3.01858,30,0.0122005,10,-0.000479967,-2.5202,-0.323314,-0.182485,21.5098,0.159004,
2,0,0,1,0,58314.3,0.157905,0.157533,-3.05722,30,0.0121432,10,-0.000481611,-2.51467,-0.297204,-0.198517,23.6973,0.157533,
2,0,0,1,0,58314.3,0.156416,0.156034,-3.10062,30,0.0120858,10,-0.000483802,-2.50855,-0.250976,-0.235082,28.4268,0.156034,
2,0,0,1,0,58314.4,0.154912,0.154507,-3.14758,30,0.012027,10,-0.000486322,-2.50202,-0.245058,-0.24076,29.5232,0.154507,
2,0,0,1,0,58314.4,0.153409,0.153037,-3.19413,30,0.0119673,10,-0.00048882,-2.49565,-0.229311,-0.257293,32.0294,0.153037,
2,0,0,1,0,58314.4,0.151919,0.151532,-3.23568,30,0.0119074,10,-0.000490308,-2.49003,-0.206577,-0.285608,36.1407,0.151532,
2,0,0,1,0,58314.4,0.150416,0.150071,-3.29499,30,0.0118458,10,-0.000494483,-2.48215,-0.199046,-0.296415,38.0921,0.150071,
2,0,0,1,0,58314.4,0.148912,0.14854,-3.3586,30,0.0117832,10,-0.000498887,-2.47384,-0.174781,-0.337566,44.2214,0.14854,
2,0,0,1,0,58314.5,0.147425,0.147111,-3.41979,30,0.01172,10,-0.000503089,-2.466,-0.168491,-0.350167,46.7152,0.147111,
2,0,0,1,0,58314.5,0.145921,0.145567,-3.48569,30,0.0116549,10,-0.0005074,-2.45771,-0.151768,-0.38875,53.0125,0.145567,
2,0,0,1,0,58314.5,0.144425,0.144054,-3.56655,30,0.0115888,10,-0.000513778,-2.44775,-0.140496,-0.419942,58.6199,0.144054,
2,0,0,1,0,58314.5,0.142929,0.142586,-3.65466,30,0.011521,10,-0.000521103,-2.43715,-0.133746,-0.441134,63.0264,0.142586,
2,0,0,1,0,58314.5,0.141425,0.141053,-3.75184,30,0.0114511,10,-0.000529208,-2.42576,-0.133271,-0.442707,64.8698,0.141053,
2,0,0,1,0,58314.6,0.139936,0.139566,-3.85284,30,0.0113801,10,-0.000537727,-2.41422,-0.127354,-0.463277,69.8537,0.1395663,
2,0,0,1,0,58314.6,0.138432,0.138093,-3.95864,30,0.0113064,10,-0.000546661,-2.40245,-0.118134,-0.499434,77.6094,0.138093,
2,0,0,1,0,58314.6,0.136929,0.136556,-4.09365,30,0.0112305,10,-0.000559012,-2.38789,-0.110042,-0.536158,85.7842,0.136556,
2,0,0,1,0,58314.6,0.135439,0.135071,-4.23068,30,0.0111529,10,-0.000571442,-2.37359,-0.106982,-0.551493,91.0202,0.135071,
2,0,0,1,0,58314.6,0.133936,0.133575,-4.36991,30,0.0110719,10,-0.000583712,-2.35953,-0.107613,-0.548261,93.4277,0.133575,
2,0,0,1,0,58314.6,0.132432,0.132087,-4.5139,30,0.0109883,10,-0.000596227,-2.34545,-0.10614,-0.55587,97.8438,0.1320868,
2,0,0,1,0,58314.7,0.130945,0.130566,-4.66148,30,0.0109028,10,-0.000608629,-2.33148,-0.105812,-0.557593,101.361,0.130566,
2,0,0,1,0,58314.7,0.129441,0.129086,-4.81725,30,0.0108135,10,-0.000621841,-2.3172,-0.106413,-0.554442,104.134,0.129086,
2,0,0,1,0,58314.7,0.127945,0.127606,-4.96745,30,0.0107219,10,-0.000633875,-2.30387,-0.110915,-0.531938,103.167,0.127606,
2,0,0,1,0,58314.7,0.126448,0.126041,-5.11844,30,0.0106274,10,-0.000645132,-2.29086,-0.114153,-0.516852,103.285,0.126041,
2,0,0,1,0,58314.7,0.124945,0.12453,-5.27631,30,0.0105294,10,-0.00065706,-2.27767,-0.115411,-0.511217,105.169,0.12453,
2,0,0,1,0,58314.8,0.123456,0.123108,-5.43161,30,0.0104297,10,-0.000668677,-2.26507,-0.119048,-0.495597,104.879,0.123108,
2,0,0,1,0,58314.8,0.121952,0.121619,-5.5776,30,0.010326,10,-0.000678345,-2.25355,-0.128882,-0.457781,99.4867,0.121619,
2,0,0,1,0,58314.8,0.120449,0.120104,-5.72157,30,0.0102195,10,-0.000687184,-2.24248,-0.132929,-0.443847,99.0552,0.120104,
2,0,0,1,0,58314.8,0.118959,0.118631,-5.86376,30,0.0101115,10,-0.000695626,-2.23182,-0.14402,-0.409667,93.7234,0.118631,
2,0,0,1,0,58314.8,0.117456,0.117103,-6.00142,30,0.00999975,10,-0.000702786,-2.22175,-0.14985,-0.393728,92.1717,0.117103,
2,0,0,1,0,58314.9,0.115952,0.115596,-6.13486,30,0.00988531,10,-0.000709166,-2.2122,-0.161386,-0.365584,87.4982,0.115596,
2,0,0,1,0,58314.9,0.114465,0.114074,-6.26585,30,0.00976969,10,-0.00071477,-2.20302,-0.171811,-0.3434,83.94,0.114074,
2,0,0,1,0,58314.9,0.112961,0.112597,-6.38865,30,0.00965052,10,-0.000719344,-2.19459,-0.189468,-0.311398,77.578,0.112597,
2,0,0,1,0,58314.9,0.111465,0.111136,-6.50888,30,0.00952969,10,-0.000723371,-2.18649,-0.195875,-0.301213,76.4246,0.111136,
2,0,0,1,0,58314.9,0.109968,0.109606,-6.6228,30,0.00940674,10,-0.000725899,-2.17896,-0.214363,-0.275234,71.0571,0.109606,
2,0,0,1,0,58314.9,0.108465,0.10815,-6.72772,30,0.00928102,10,-0.000727604,-2.17213,-0.236808,-0.249147,65.3197,0.10815,
2,0,0,1,0,58315,0.106976,0.106606,-6.8296,30,0.00915483,10,-0.000728073,-2.1656,-0.252258,-0.233887,62.2489,0.106606,
2,0,0,1,0,58315,0.105472,0.105084,-6.91959,30,0.00902549,10,-0.000727136,-2.15992,-0.262041,-0.225156,60.7093,0.1050837,
2,0,0,1,0,58315,0.103968,0.103609,-7.0056,30,0.00889445,10,-0.000725842,-2.15455,-0.294417,-0.200396,54.7048,0.103609,
2,0,0,1,0,58315,0.102479,0.102088,-7.07776,30,0.00876331,10,-0.000722552,-2.1501,-0.347406,-0.16983,46.8406,0.102088,
2,0,0,1,0,58315,0.100976,0.100624,-7.13489,30,0.00862949,10,-0.00071794,-2.14661,-0.395937,-0.149013,41.4721,0.100624,
2,0,0,1,0,58315.1,0.0994721,0.0991452,-7.19479,30,0.00849454,10,-0.000713329,-2.14298,-0.457605,-0.128932,36.1639,0.0991452,
2,0,0,1,0,58315.1,0.0979846,0.0976045,-7.23839,30,0.0083601,10,-0.000706499,-2.14036,-0.567316,-0.103998,29.3463,0.0976045,
2,0,0,1,0,58315.1,0.0964811,0.0961001,-7.27462,30,0.00822341,10,-0.000699091,-2.13819,-0.768127,-0.0768102,21.7785,0.0961001,
2,0,0,1,0,58315.1,0.0949847,0.094613,-7.29539,30,0.00808686,10,-0.000690239,-2.13695,-1.1593,-0.0508926,14.4906,0.094613,
2,0,0,1,0,58315.1,0.0934883,0.093116,-7.31697,30,0.00794998,10,-0.000681327,-2.13567,-1.89371,-0.0311558,8.89877,0.093116,
2,0,0,1,0,58315.1,0.0919847,0.0916104,-7.32518,30,0.00781207,10,-0.000671063,-2.13518,-7.95097,-0.00742048,2.1198,0.0916104,
2,0,0,1,0,58315.2,0.0904955,0.0901295,-7.33139,30,0.00767551,10,-0.000660775,-2.13481,3.72577,0.0158357,-4.52483,0.0901295,
2,0,0,1,0,58315.2,0.0889919,0.0886219,-7.32367,30,0.00753755,10,-0.000649037,-2.13527,1.66387,0.0354594,-10.122,0.0886219,
2,0,0,1,0,58315.2,0.0874884,0.0871034,-7.30667,30,0.00739987,10,-0.000636436,-2.13628,1.12693,0.0523546,-14.9198,0.0871034,
2,0,0,1,0,58315.2,0.0860009,0.0855857,-7.28808,30,0.007264,10,-0.000623755,-2.13739,0.990718,0.0595528,-16.9113,0.0855857,
2,0,0,1,0,58315.2,0.0844974,0.0841054,-7.26137,30,0.00712711,10,-0.00061072,-2.13898,0.827353,0.0713118,-20.1866,0.08410538,
2,0,0,1,0,58315.3,0.0829938,0.0826196,-7.23344,30,0.00699076,10,-0.000597624,-2.14066,0.742699,0.07944,-22.3892,0.08261963,
2,0,0,1,0,58315.3,0.0815045,0.0811711,-7.1925,30,0.0068565,10,-0.000583823,-2.14312,0.764166,0.0772083,-21.6747,0.0811711,
2,0,0,1,0,58315.3,0.080001,0.0796584,-7.15789,30,0.00672147,10,-0.000570186,-2.14522,0.786558,0.0750104,-20.9458,0.0796584,
2,0,0,1,0,58315.3,0.0785046,0.0781091,-7.12841,30,0.00658773,10,-0.000556793,-2.14701,0.779204,0.0757183,-21.0424,0.0781091,
2,0,0,1,0,58315.3,0.0770082,0.0766126,-7.09178,30,0.00645465,10,-0.000543319,-2.14925,0.716928,0.0822955,-22.7657,0.0766126,
2,0,0,1,0,58315.4,0.0755046,0.0751453,-7.04761,30,0.00632155,10,-0.000529594,-2.15196,0.742384,0.0794737,-21.8785,0.0751453,
2,0,0,1,0,58315.4,0.0740154,0.0736138,-7.01513,30,0.00619053,10,-0.000516411,-2.15396,0.741765,0.07954,-21.793,0.07361383,
2,0,0,1,0,58315.4,0.0725118,0.072107,-6.98892,30,0.00605872,10,-0.00050395,-2.15559,0.821123,0.0718528,-19.5964,0.07210695,
2,0,0,1,0,58315.4,0.0710083,0.0706512,-6.95502,30,0.00592744,10,-0.000491381,-2.1577,0.791626,0.0745301,-20.2223,0.0706512,
2,0,0,1,0,58315.4,0.0695208,0.0691634,-6.92124,30,0.00579812,10,-0.000478697,-2.15982,0.7674,0.0768829,-20.79,0.0691634,
2,0,0,1,0,58315.4,0.0680173,0.0676627,-6.89399,30,0.00566803,10,-0.000466466,-2.16153,0.806259,0.0731775,-19.7182,0.0676627,
2,0,0,1,0,58315.5,0.0665137,0.0661415,-6.86721,30,0.00553842,10,-0.000454207,-2.16322,0.88881,0.0663809,-17.8067,0.0661415,
2,0,0,1,0,58315.5,0.0650244,0.064697,-6.84454,30,0.00541062,10,-0.000442821,-2.16466,0.77731,0.0759028,-20.2812,0.064697,
2,0,0,1,0,58315.5,0.0635209,0.0631557,-6.82595,30,0.00528192,10,-0.000431098,-2.16584,0.781037,0.0755406,-20.1051,0.0631557,
2,0,0,1,0,58315.5,0.0620245,0.0616769,-6.79793,30,0.00515443,10,-0.000419275,-2.16762,0.868724,0.0679157,-18.0169,0.06167686,
2,0,0,1,0,58315.5,0.0605281,0.0601164,-6.77797,30,0.0050274,10,-0.000407467,-2.1689,0.963335,0.0612456,-16.1939,0.0601164,
2,0,0,1,0,58315.6,0.0590246,0.058648,-6.75297,30,0.00490012,10,-0.000396049,-2.1705,0.950665,0.0620618,-16.3426,0.058648,
2,0,0,1,0,58315.6,0.0575353,0.0571275,-6.72978,30,0.00477459,10,-0.000384455,-2.172,0.976963,0.0603913,-15.8383,0.0571275,
2,0,0,1,0,58315.6,0.0560317,0.0556799,-6.69817,30,0.00464826,10,-0.000372954,-2.17404,0.938576,0.0628612,-16.4384,0.0556799,
2,0,0,1,0,58315.6,0.0545282,0.0541458,-6.67307,30,0.00452242,10,-0.000361319,-2.17567,1.1588,0.0509148,-13.2554,0.0541458,
2,0,0,1,0,58315.6,0.0530407,0.0526559,-6.64733,30,0.00439834,10,-0.000350022,-2.17735,1.05321,0.0560193,-14.5312,0.05265595,
2,0,0,1,0,58315.7,0.0515372,0.0511566,-6.62371,30,0.0042734,10,-0.000338847,-2.1789,0.868964,0.067897,-17.5438,0.05115658,
2,0,0,1,0,58315.7,0.0500336,0.0496667,-6.58874,30,0.00414898,10,-0.000327241,-2.1812,0.854923,0.0690121,-17.7562,0.0496667,
2,0,0,1,0,58315.7,0.0485444,0.0482103,-6.55695,30,0.00402644,10,-0.000316112,-2.1833,0.756202,0.0780215,-19.9889,0.0482103,
2,0,0,1,0,58315.7,0.0470408,0.0467045,-6.52488,30,0.00390312,10,-0.000304741,-2.18543,0.743216,0.0793847,-20.2453,0.0467045,
2,0,0,1,0,58315.7,0.0455444,0.0451512,-6.50603,30,0.00378097,10,-0.000293755,-2.18668,0.657092,0.0897896,-22.786,0.0451512,
2,0,0,1,0,58315.7,0.044048,0.0436638,-6.47539,30,0.00365938,10,-0.00028274,-2.18873,0.616693,0.0956716,-24.178,0.0436638,
2,0,0,1,0,58315.8,0.0425445,0.042147,-6.43913,30,0.00353778,10,-0.00027139,-2.19117,0.622926,0.0947142,-23.8224,0.042147,
2,0,0,1,0,58315.8,0.0410552,0.0406528,-6.41545,30,0.00341804,10,-0.000260806,-2.19277,0.651745,0.0905262,-22.654,0.0406528,
2,0,0,1,0,58315.8,0.0395516,0.0391476,-6.38484,30,0.00329759,10,-0.000249951,-2.19485,0.643884,0.0916315,-22.8019,0.0391476,
2,0,0,1,0,58315.8,0.0380481,0.0376758,-6.35214,30,0.00317774,10,-0.000239322,-2.19708,0.564438,0.104529,-25.8813,0.03767582,
2,0,0,1,0,58315.8,0.0365606,0.0361526,-6.31591,30,0.00305986,10,-0.000228337,-2.19956,0.638592,0.0923907,-22.7553,0.0361526,
2,0,0,1,0,58315.9,0.0350571,0.0346897,-6.27747,30,0.00294139,10,-0.000217763,-2.20222,0.62711,0.0940824,-23.034,0.0346897,
2,0,0,1,0,58315.9,0.0335535,0.0331494,-6.24008,30,0.00282357,10,-0.000206855,-2.20481,0.629687,0.0936973,-22.8106,0.0331494,
2,0,0,1,0,58315.9,0.0320643,0.0316667,-6.20215,30,0.00270768,10,-0.000196402,-2.20746,0.561404,0.105094,-25.426,0.0316667,
2,0,0,1,0,58315.9,0.0305607,0.0301667,-6.15187,30,0.00259133,10,-0.000185581,-2.21099,0.54719,0.107824,-25.9121,0.0301667,
2,0,0,1,0,58315.9,0.0290643,0.0286877,-6.11996,30,0.00247632,10,-0.000175568,-2.21325,0.56896,0.103698,-24.7675,0.0286877,
2,0,0,1,0,58316,0.0275679,0.0271904,-6.07718,30,0.00236207,10,-0.000165241,-2.2163,0.513766,0.114838,-27.2452,0.0271904,
2,0,0,1,0,58316,0.0260644,0.0257047,-6.0348,30,0.00224795,10,-0.000155122,-2.21934,0.47409,0.124449,-29.3121,0.0257047,
2,0,0,1,0,58316,0.0245751,0.0242244,-5.98796,30,0.00213587,10,-0.000145055,-2.22272,0.482685,0.122233,-28.6004,0.0242244,
2,0,0,1,0,58316,0.0230716,0.0226926,-5.94524,30,0.00202347,10,-0.000134913,-2.22583,0.448739,0.131479,-30.5254,0.0226926,
2,0,0,1,0,58316,0.021568,0.0211551,-5.90672,30,0.00191183,10,-0.000124957,-2.22865,0.46277,0.127493,-29.3731,0.0211551,
2,0,0,1,0,58316,0.0200805,0.0196911,-5.86421,30,0.00180218,10,-0.000115473,-2.23179,0.435323,0.135531,-30.9944,0.0196911,
2,0,0,1,0,58316.1,0.018577,0.0181952,-5.81554,30,0.00169217,10,-0.000105815,-2.23541,0.431158,0.136841,-31.0812,0.0181952,
2,0,0,1,0,58316.1,0.0170735,0.0167282,-5.77564,30,0.00158303,10,-9.66159e-05,-2.2384,0.463514,0.127288,-28.7149,0.0167282,
2,0,0,1,0,58316.1,0.0155842,0.0151746,-5.73956,30,0.00147579,10,-8.70955e-05,-2.24112,0.508513,0.116025,-25.9743,0.0151746,
2,0,0,1,0,58316.1,0.0140806,0.0137195,-5.70002,30,0.00136812,10,-7.82016e-05,-2.24412,0.491635,0.120008,-26.6772,0.0137195,
2,0,0,1,0,58316.1,0.0125842,0.0121917,-5.66107,30,0.00126175,10,-6.90179e-05,-2.2471,0.492889,0.119702,-26.4242,0.0121917,
2,0,0,1,0,58316.2,0.0110878,0.0107119,-5.61446,30,0.0011562,10,-6.01416e-05,-2.25069,0.486351,0.121312,-26.5808,0.0107119,
2,0,0,1,0,58316.2,0.00958429,0.009203,-5.58148,30,0.00105079,10,-5.13663e-05,-2.25325,0.557794,0.105774,-23.0349,0.009203,
2,0,0,1,0,58316.2,0.0080968,0.00772543,-5.54418,30,0.00094718,10,-4.28312e-05,-2.25616,0.639509,0.0922583,-19.9744,0.00772543,
2,0,0,1,0,58316.2,0.00659326,0.00620629,-5.50858,30,0.000843129,10,-3.41879e-05,-2.25896,0.616441,0.0957108,-20.5777,0.00620629,
2,0,0,1,0,58316.2,0.00508972,0.00472532,-5.47538,30,0.000739651,10,-2.58729e-05,-2.26159,0.643083,0.0917456,-19.6185,0.004725317,
2,0,0,1,0,58316.3,0.00360044,0.00323037,-5.44196,30,0.000637933,10,-1.75795e-05,-2.26424,0.993106,0.0594096,-12.6631,0.003230371,
2,0,0,1,0,58316.3,0.0020969,0.00163897,-5.44843,30,0.000535548,10,-8.9298e-06,-2.26373,1.05154,0.0561081,-11.8814,0.00163897,
2,0,0,1,0,58316.3,0.000593362,0.000156972,-5.41097,30,0.000433285,10,-8.49371e-07,-2.26672, , , ,0.000156972,
2,0,0,1,0,58316.3,0.000199195,-0.000233704,-5.40269,30,0.000406751,10,1.26263e-06,-2.26739, , , ,-0.000233704,