File: Figure_codes/Fig_3-5/rawdata_trumpetplot_data/after 10th/20221101_1-115_003_TrumpetPlot_ParaChange_from10_every3_05_CV_C01_24.csv
mode,ox/red,error,control changes,counter inc.,time/s,control/V,Ewe/V,<I>/mA,cycle number,(Q-Qo)/C,I Range,P/W,log(|I|),Tafel slope mV/dec,alpha_eff,dI/d(E-IR),E-IR/V,
2,0,0,1,0,48403.1,2.44065e-05,-0.000363498,-0.739242,25,0.0000000E+000,10,2.68713e-07,-3.13121, , , ,-0.000363498,
2,0,0,1,0,48403.2,0.00129787,0.000961804,0.0160021,25,-1.62694e-05,10,1.53909e-08,-4.79582, , , ,0.0009618036,
2,1,0,1,0,48403.3,0.00279606,0.00250216,0.363207,25,7.30603e-07,10,9.08801e-07,-3.43985,0.0086682,6.80649,179.711,0.00250216,
2,1,0,1,0,48403.4,0.00429425,0.0039939,0.509622,25,3.509e-05,10,2.03538e-06,-3.29275,0.0117285,5.03047,83.3246,0.0039939,
2,1,0,1,0,48403.4,0.00579244,0.0054687,0.592016,25,7.77237e-05,10,3.23756e-06,-3.22767,0.026277,2.24531,49.1983,0.0054687,
2,1,0,1,0,48403.5,0.00729063,0.00696628,0.651569,25,0.000125558,10,4.53902e-06,-3.18604,0.0424088,1.39122,34.5421,0.00696628,
2,1,0,1,0,48403.6,0.00878882,0.00846439,0.696966,25,0.000177254,10,5.89939e-06,-3.15679,0.0589498,1.00085,26.7179,0.00846439,
2,1,0,1,0,48403.7,0.010287,0.00997676,0.7309,25,0.000231878,10,7.29202e-06,-3.13614,0.0809278,0.729045,20.5604,0.00997676,
2,1,0,1,0,48403.7,0.0117852,0.0114464,0.758657,25,0.000288811,10,8.68386e-06,-3.11995,0.0953091,0.619038,18.2056,0.0114464,
2,1,0,1,0,48403.8,0.0132847,0.0129521,0.784603,25,0.000347732,10,1.01623e-05,-3.10535,0.106683,0.553042,16.928,0.0129521,
2,1,0,1,0,48403.9,0.0147802,0.0144621,0.80665,25,0.000408447,10,1.16659e-05,-3.09331,0.117881,0.500504,15.7399,0.0144621,
2,1,0,1,0,48404,0.0162798,0.0159379,0.831011,25,0.00047117,10,1.32446e-05,-3.08039,0.138768,0.425169,13.7234,0.0159379,
2,1,0,1,0,48404,0.017778,0.0175272,0.852102,25,0.000535281,10,1.4935e-05,-3.06951,0.152349,0.38727,12.847,0.01752723,
2,1,0,1,0,48404.1,0.0192761,0.0189358,0.866982,25,0.000600713,10,1.6417e-05,-3.06199,0.157493,0.374621,12.7073,0.0189358,
2,1,0,1,0,48404.2,0.0207743,0.0204532,0.888902,25,0.000667729,10,1.81809e-05,-3.05115,0.152728,0.386306,13.3695,0.0204532,
2,1,0,1,0,48404.3,0.0222725,0.0219674,0.907631,25,0.000736202,10,1.99383e-05,-3.04209,0.164357,0.358975,12.7174,0.0219674,
2,1,0,1,0,48404.3,0.0237707,0.0234548,0.927067,25,0.000806117,10,2.17441e-05,-3.03289,0.179647,0.328422,11.8689,0.0234548,
2,1,0,1,0,48404.4,0.0252689,0.0249321,0.941988,25,0.000877215,10,2.34858e-05,-3.02595,0.185494,0.31807,11.7363,0.02493214,
2,1,0,1,0,48404.5,0.0267671,0.0264649,0.961755,25,0.000949692,10,2.54527e-05,-3.01694,0.166186,0.355024,13.3195,0.0264649,
2,1,0,1,0,48404.6,0.0282653,0.0279332,0.9808,25,0.00102361,10,2.73969e-05,-3.00842,0.176701,0.333898,12.7873,0.02793319,
2,1,0,1,0,48404.6,0.0297644,0.0294605,0.998575,25,0.00109909,10,2.94185e-05,-3.00062,0.199305,0.296029,11.5303,0.02946052,
2,1,0,1,0,48404.7,0.0312599,0.0309175,1.01332,25,0.00117567,10,3.13293e-05,-2.99425,0.196029,0.300975,11.941,0.03091755,
2,1,0,1,0,48404.8,0.0327599,0.0324328,1.03202,25,0.00125367,10,3.34714e-05,-2.98631,0.187036,0.315448,12.7513,0.0324328,
2,1,0,1,0,48404.9,0.034258,0.033953,1.05329,25,0.00133304,10,3.57625e-05,-2.97745,0.199812,0.295278,12.1412,0.033953,
2,1,0,1,0,48404.9,0.0357562,0.0354291,1.07167,25,0.00141384,10,3.79684e-05,-2.96994,0.224419,0.262901,10.9877,0.0354291,
2,1,0,1,0,48405,0.0372544,0.0369255,1.08856,25,0.00149598,10,4.01958e-05,-2.96315,0.208602,0.282835,12.0425,0.0369255,
2,1,0,1,0,48405.1,0.0387526,0.0383881,1.10716,25,0.00157937,10,4.25019e-05,-2.95579,0.194256,0.303722,13.1624,0.0383881,
2,1,0,1,0,48405.2,0.0402508,0.0399425,1.12704,25,0.00166429,10,4.50169e-05,-2.94806,0.204539,0.288453,12.697,0.0399425,
2,1,0,1,0,48405.2,0.041749,0.041442,1.14827,25,0.00175075,10,4.75865e-05,-2.93996,0.211933,0.27839,12.4532,0.041442,
2,1,0,1,0,48405.3,0.0432472,0.0429363,1.16632,25,0.00183853,10,5.00772e-05,-2.93318,0.225793,0.261301,11.8733,0.0429363,
2,1,0,1,0,48405.4,0.0447449,0.0444487,1.18246,25,0.00192757,10,5.25588e-05,-2.92721,0.231901,0.254419,11.7323,0.0444487,
2,1,0,1,0,48405.5,0.0462445,0.0459175,1.20128,25,0.00201808,10,5.51595e-05,-2.92036,0.213571,0.276254,12.9321,0.0459175,
2,1,0,1,0,48405.5,0.04774,0.047442,1.21908,25,0.00210968,10,5.78357e-05,-2.91397,0.230549,0.255911,12.1737,0.047442,
2,1,0,1,0,48405.6,0.0492399,0.0489344,1.23296,25,0.0022029,10,6.03344e-05,-2.90905,0.253304,0.232921,11.2138,0.0489344,
2,1,0,1,0,48405.7,0.0507381,0.0504099,1.24995,25,0.00229727,10,6.30097e-05,-2.90311,0.261531,0.225595,11.0249,0.0504099,
2,1,0,1,0,48405.8,0.0522363,0.0519052,1.26876,25,0.00239285,10,6.58553e-05,-2.89662,0.24265,0.243149,12.0494,0.0519052,
2,1,0,1,0,48405.8,0.0537345,0.0534119,1.28868,25,0.00248983,10,6.88311e-05,-2.88985,0.253649,0.232605,11.6828,0.05341189,
2,1,0,1,0,48405.9,0.0552327,0.054922,1.30466,25,0.00258813,10,7.16543e-05,-2.8845,0.310065,0.190283,9.66948,0.054922,
2,1,0,1,0,48406,0.0567309,0.0563653,1.31815,25,0.00268758,10,7.42976e-05,-2.88004,0.315647,0.186918,9.62285,0.0563653,
2,1,0,1,0,48406.1,0.0582291,0.0578758,1.3362,25,0.00278799,10,7.73337e-05,-2.87413,0.312722,0.188666,9.84256,0.0578758,
2,1,0,1,0,48406.1,0.0597291,0.0593619,1.35184,25,0.00288985,10,8.02476e-05,-2.86908,0.276197,0.213615,11.2528,0.0593619,
2,1,0,1,0,48406.2,0.0612246,0.0609392,1.36676,25,0.0029927,10,8.32893e-05,-2.86431,0.330163,0.1787,9.51422,0.0609392,
2,1,0,1,0,48406.3,0.0627241,0.0624324,1.38157,25,0.00309697,10,8.62549e-05,-2.85963,0.331726,0.177858,9.58748,0.0624324,
2,1,0,1,0,48406.4,0.0642218,0.0639322,1.39578,25,0.00320195,10,8.92355e-05,-2.85518,0.33854,0.174278,9.50157,0.06393221,
2,1,0,1,0,48406.4,0.06572,0.0654092,1.40934,25,0.00330808,10,9.21838e-05,-2.85098,0.337022,0.175063,9.61352,0.0654092,
2,1,0,1,0,48406.5,0.0672182,0.0669031,1.42406,25,0.00341542,10,9.52738e-05,-2.84647,0.367583,0.160508,8.89664,0.06690307,
2,1,0,1,0,48406.6,0.0687164,0.0683616,1.43442,25,0.00352365,10,9.80589e-05,-2.84332,0.423543,0.139301,7.80224,0.06836158,
2,1,0,1,0,48406.7,0.0702146,0.0699297,1.44733,25,0.00363263,10,0.000101212,-2.83943,0.420959,0.140156,7.91825,0.0699297,
2,1,0,1,0,48406.7,0.0717128,0.071376,1.45987,25,0.0037426,10,0.0001042,-2.83568,0.39556,0.149155,8.48923,0.071376,
2,1,0,1,0,48406.8,0.073211,0.0729191,1.469,25,0.00385354,10,0.000107119,-2.83298,0.412383,0.143071,8.21446,0.07291913,
2,1,0,1,0,48406.9,0.0747092,0.0744077,1.48122,25,0.00396532,10,0.000110214,-2.82938,0.530004,0.11132,6.43666,0.0744077,
2,1,0,1,0,48407,0.0762087,0.0758532,1.49164,25,0.00407797,10,0.000113146,-2.82633,0.491469,0.120048,6.99056,0.0758532,
2,1,0,1,0,48407,0.0777042,0.0773765,1.50272,25,0.00419107,10,0.000116275,-2.82312,0.465476,0.126752,7.43317,0.0773765,
2,1,0,1,0,48407.1,0.0792037,0.078874,1.51484,25,0.00430532,10,0.000119482,-2.81963,0.48085,0.122699,7.23663,0.078874,
2,1,0,1,0,48407.2,0.0807019,0.0804025,1.52261,25,0.00442032,10,0.000122421,-2.81741,0.569644,0.103573,6.15093,0.0804025,
2,1,0,1,0,48407.3,0.0822001,0.0818931,1.52971,25,0.00453591,10,0.000125272,-2.81539,0.585267,0.100809,6.03342,0.0818931,
2,1,0,1,0,48407.3,0.0836983,0.083376,1.54031,25,0.00465203,10,0.000128425,-2.81239,0.560634,0.105238,6.33779,0.08337602,
2,1,0,1,0,48407.4,0.0851965,0.0848217,1.55058,25,0.00476901,10,0.000131523,-2.80951,0.459562,0.128383,7.77882,0.0848217,
2,1,0,1,0,48407.5,0.0866947,0.0863721,1.56382,25,0.00488687,10,0.00013507,-2.80581,0.495839,0.11899,7.25941,0.0863721,
2,1,0,1,0,48407.6,0.0881929,0.087889,1.57588,25,0.00500557,10,0.000138502,-2.80248,0.481634,0.1225,7.5369,0.087889,
2,1,0,1,0,48407.6,0.0896911,0.0893443,1.58639,25,0.00512499,10,0.000141735,-2.79959,0.427043,0.138159,8.56479,0.0893443,
2,1,0,1,0,48407.7,0.0911893,0.0908528,1.60074,25,0.00524548,10,0.000145431,-2.79568,0.334255,0.176512,11.028,0.0908528,
2,1,0,1,0,48407.8,0.0926884,0.0923289,1.61911,25,0.00536742,10,0.000149491,-2.79072,0.321402,0.183571,11.5847,0.0923289,
2,1,0,1,0,48407.9,0.0941839,0.093854,1.6343,25,0.00549025,10,0.000153385,-2.78667,0.323385,0.182445,11.6561,0.093854,
2,1,0,1,0,48407.9,0.0956838,0.0953529,1.64912,25,0.00561458,10,0.000157248,-2.78275,0.29419,0.200551,12.9515,0.0953529,
2,1,0,1,0,48408,0.097182,0.0968302,1.67406,25,0.00574027,10,0.0001621,-2.77623,0.238281,0.247607,16.1597,0.0968302,
2,1,0,1,0,48408.1,0.0986802,0.0983647,1.69796,25,0.00586768,10,0.00016702,-2.77007,0.238775,0.247095,16.3822,0.0983647,
2,1,0,1,0,48408.2,0.100178,0.099881,1.72364,25,0.005997,10,0.000172159,-2.76355,0.23112,0.255278,17.1787,0.099881,
2,1,0,1,0,48408.2,0.101677,0.10139,1.74434,25,0.00612816,10,0.000176859,-2.75837,0.222529,0.265133,18.1088,0.10139,
2,1,0,1,0,48408.3,0.103175,0.102836,1.77824,25,0.00626135,10,0.000182868,-2.75001,0.199936,0.295095,20.4957,0.102836,
2,1,0,1,0,48408.4,0.104673,0.104321,1.81373,25,0.00639686,10,0.00018921,-2.74143,0.194386,0.303519,21.4231,0.104321,
2,1,0,1,0,48408.5,0.106171,0.105832,1.84165,25,0.0065348,10,0.000194905,-2.73479,0.222895,0.264698,18.9912,0.105832,
2,1,0,1,0,48408.5,0.107669,0.107338,1.86886,25,0.00667508,10,0.000200599,-2.72842,0.210387,0.280435,20.4661,0.107338,
2,1,0,1,0,48408.6,0.109168,0.108809,1.90098,25,0.00681763,10,0.000206845,-2.72102,0.216701,0.272265,20.2195,0.108809,
2,1,0,1,0,48408.7,0.110664,0.110333,1.93159,25,0.00696213,10,0.000213118,-2.71408,0.210132,0.280776,21.1745,0.110333,
2,1,0,1,0,48408.8,0.112164,0.111846,1.96285,25,0.0071094,10,0.000219536,-2.70711,0.237842,0.248064,18.963,0.111846,
2,1,0,1,0,48408.8,0.113662,0.113382,1.99084,25,0.0072587,10,0.000225725,-2.70096,0.260764,0.226258,17.5372,0.1133818,
2,1,0,1,0,48408.9,0.11516,0.114851,2.01333,25,0.00740972,10,0.000231232,-2.69609,0.294258,0.200504,15.7488,0.114851,
2,1,0,1,0,48409,0.116658,0.116331,2.03853,25,0.00756253,10,0.000237144,-2.69068,0.309645,0.190541,15.1387,0.116331,
2,1,0,1,0,48409.1,0.118157,0.117843,2.06038,25,0.00771722,10,0.000242801,-2.68605,0.35741,0.165076,13.2381,0.117843,
2,1,0,1,0,48409.1,0.119655,0.119349,2.0789,25,0.00787341,10,0.000248114,-2.68217,0.47663,0.123786,10.0279,0.1193486,
2,1,0,1,0,48409.2,0.121153,0.120804,2.09213,25,0.00803076,10,0.000252737,-2.67941,0.46216,0.127661,10.4223,0.120804,
2,1,0,1,0,48409.3,0.122653,0.122326,2.1085,25,0.00818939,10,0.000257924,-2.67603,0.467087,0.126315,10.3883,0.122326,
2,1,0,1,0,48409.4,0.124149,0.123859,2.12126,25,0.00834872,10,0.000262738,-2.67341,0.539558,0.109349,9.04358,0.123859,
2,1,0,1,0,48409.4,0.125648,0.125367,2.1337,25,0.00850946,10,0.000267495,-2.67087,0.689031,0.0856275,7.11522,0.125367,
2,1,0,1,0,48409.5,0.127146,0.126844,2.13768,25,0.00867071,10,0.000271152,-2.67006,0.772711,0.0763546,6.37821,0.126844,
2,1,0,1,0,48409.6,0.128644,0.128279,2.15067,25,0.00883249,10,0.000275886,-2.66743,0.74561,0.0791299,6.64232,0.128279,
2,1,0,1,0,48409.7,0.130142,0.129808,2.15964,25,0.00899506,10,0.000280338,-2.66562,0.960043,0.0614556,5.17454,0.129808,
2,1,0,1,0,48409.7,0.13164,0.131299,2.16821,25,0.00915835,10,0.000284683,-2.6639,2.14766,0.0274718,2.31693,0.131299,
2,1,0,1,0,48409.8,0.133139,0.132842,2.17187,25,0.009322,10,0.000288515,-2.66317,-16.3606,-0.00360623,-0.304856,0.132842,
2,1,0,1,0,48409.9,0.134637,0.134303,2.17113,25,0.00948557,10,0.000291589,-2.66331,-1.37615,-0.0428734,-3.61962,0.134303,
2,1,0,1,0,48410,0.136135,0.135782,2.15186,25,0.0096482,10,0.000292184,-2.66719,-0.991544,-0.0595031,-5.01095,0.135782,
2,1,0,1,0,48410,0.137633,0.137308,2.15084,25,0.00981061,10,0.000295328,-2.66739,-1.32379,-0.0445689,-3.71765,0.137308,
2,1,0,1,0,48410.1,0.139133,0.138793,2.13952,25,0.00997262,10,0.000296951,-2.66968,-0.38143,-0.154681,-12.849,0.138793,
2,1,0,1,0,48410.2,0.140628,0.14033,2.11304,25,0.0101327,10,0.000296523,-2.67509,-0.250132,-0.235876,-19.3724,0.14033,
2,1,0,1,0,48410.3,0.142128,0.141804,2.07932,25,0.0102911,10,0.000294855,-2.68208,-0.192249,-0.306894,-24.8201,0.141804,
2,1,0,1,0,48410.3,0.143626,0.14327,2.03692,25,0.0104465,10,0.000291829,-2.69103,-0.144542,-0.408186,-32.2733,0.14327,
2,1,0,1,0,48410.4,0.145124,0.1448,1.98377,25,0.0105982,10,0.00028725,-2.70251,-0.115887,-0.509119,-39.2609,0.1448,
2,1,0,1,0,48410.5,0.146622,0.14633,1.91857,25,0.0107455,10,0.000280744,-2.71702,-0.097561,-0.60475,-45.1496,0.14633,
2,1,0,1,0,48410.6,0.14812,0.147825,1.8466,25,0.0108877,10,0.000272974,-2.73363,-0.0889036,-0.66364,-47.7482,0.147825,
2,1,0,1,0,48410.6,0.149619,0.149347,1.77604,25,0.0110246,10,0.000265246,-2.75055,-0.0818322,-0.720988,-49.8372,0.149347,
2,1,0,1,0,48410.7,0.151117,0.150814,1.69963,25,0.0111558,10,0.000256328,-2.76965,-0.0748973,-0.787745,-52.1028,0.150814,
2,1,0,1,0,48410.8,0.152615,0.152294,1.61658,25,0.0112812,10,0.000246196,-2.7914,-0.0744535,-0.792441,-50.1614,0.152294,
2,1,0,1,0,48410.9,0.154113,0.153755,1.54737,25,0.0114007,10,0.000237917,-2.8104,-0.0765855,-0.77038,-46.6338,0.153755,
2,1,0,1,0,48410.9,0.155613,0.155309,1.47854,25,0.0115153,10,0.000229632,-2.83017,-0.0781095,-0.755349,-43.7106,0.1553095,
2,1,0,1,0,48411,0.157108,0.156791,1.41779,25,0.0116248,10,0.000222298,-2.84839,-0.0802036,-0.735628,-40.7937,0.156791,
2,1,0,1,0,48411.1,0.158608,0.158261,1.36157,25,0.0117301,10,0.000215484,-2.86596,-0.0895726,-0.658684,-35.1325,0.158261,
2,1,0,1,0,48411.2,0.160106,0.15974,1.31086,25,0.0118312,10,0.000209398,-2.88244,-0.0963855,-0.612125,-31.4514,0.15974,
2,1,0,1,0,48411.2,0.161604,0.161306,1.26985,25,0.0119289,10,0.000204835,-2.89625,-0.110508,-0.533896,-26.5331,0.161306,
2,1,0,1,0,48411.3,0.163102,0.162767,1.23245,25,0.0120237,10,0.000200602,-2.90923,-0.117871,-0.500547,-24.1493,0.162767,
2,1,0,1,0,48411.4,0.164601,0.164275,1.20038,25,0.0121158,10,0.000197193,-2.92068,-0.132586,-0.444995,-20.8964,0.164275,
2,1,0,1,0,48411.5,0.166099,0.165743,1.17054,25,0.0122056,10,0.000194009,-2.93161,-0.154748,-0.381265,-17.4679,0.1657427,
2,1,0,1,0,48411.5,0.167597,0.167283,1.1466,25,0.0122934,10,0.000191806,-2.94059,-0.189554,-0.311256,-13.9619,0.167283,
2,1,0,1,0,48411.6,0.169095,0.168768,1.12667,25,0.0123797,10,0.000190146,-2.9482,-0.194292,-0.303666,-13.3749,0.168768,
2,1,0,1,0,48411.7,0.170593,0.170264,1.10736,25,0.0124645,10,0.000188544,-2.95571,-0.204821,-0.288056,-12.4764,0.170264,
2,1,0,1,0,48411.7,0.172092,0.171741,1.08889,25,0.012548,10,0.000187007,-2.96302,-0.239914,-0.245921,-10.4913,0.171741,
2,1,0,1,0,48411.8,0.173588,0.173292,1.0766,25,0.0126301,10,0.000186566,-2.96795,-0.288558,-0.204465,-8.60073,0.173292,
2,1,0,1,0,48411.9,0.175088,0.174775,1.06621,25,0.0127114,10,0.000186348,-2.97216,-0.323994,-0.182102,-7.57992,0.174775,
2,1,0,1,0,48412,0.176586,0.17626,1.05364,25,0.0127919,10,0.000185715,-2.97731,-0.330202,-0.178679,-7.33822,0.17626,
2,1,0,1,0,48412,0.178084,0.177732,1.04271,25,0.0128716,10,0.000185322,-2.98184,-0.376525,-0.156696,-6.39189,0.177732,
2,1,0,1,0,48412.1,0.179582,0.179261,1.03443,25,0.0129505,10,0.000185434,-2.9853,-0.432946,-0.136276,-5.51788,0.179261,
2,1,0,1,0,48412.2,0.181081,0.180798,1.02833,25,0.0130288,10,0.000185921,-2.98787,-0.455501,-0.129528,-5.2026,0.180798,
2,1,0,1,0,48412.3,0.182579,0.182281,1.02077,25,0.0131066,10,0.000186067,-2.99107,-0.455716,-0.129467,-5.15675,0.182281,
2,1,0,1,0,48412.3,0.184077,0.18377,1.01493,25,0.013184,10,0.000186514,-2.99356,-0.508341,-0.116064,-4.59775,0.18377,
2,1,0,1,0,48412.4,0.185577,0.185256,1.00957,25,0.0132608,10,0.000187029,-2.99586,-0.628086,-0.0939362,-3.69857,0.185256,
2,1,0,1,0,48412.5,0.187073,0.186737,1.00487,25,0.013337,10,0.000187646,-2.99789,-0.887431,-0.0664841,-2.59932,0.186737,
2,1,0,1,0,48412.6,0.188572,0.188259,0.998337,25,0.0134132,10,0.000187946,-3.00072,-1.0924,-0.0540097,-2.10339,0.188259,
2,1,0,1,0,48412.6,0.19007,0.18974,0.993617,25,0.0134888,10,0.000188529,-3.00278,-0.807271,-0.0730858,-2.83274,0.1897396,
2,1,0,1,0,48412.7,0.191568,0.191272,0.987267,25,0.0135641,10,0.000188837,-3.00557,-1.10864,-0.0532184,-2.05555,0.191272,
2,1,0,1,0,48412.8,0.193066,0.192754,0.984402,25,0.0136391,10,0.000189748,-3.00683,-2.17119,-0.027174,-1.04357,0.192754,
2,1,0,1,0,48412.9,0.194564,0.194264,0.980316,25,0.0137139,10,0.00019044,-3.00863,-1.11095,-0.0531078,-2.03353,0.194264,
2,1,0,1,0,48412.9,0.196063,0.195692,0.976902,25,0.0137884,10,0.000191172,-3.01015,-0.748182,-0.0788578,-3.01086,0.195692,
2,1,0,1,0,48413,0.197561,0.197226,0.971425,25,0.0138626,10,0.000191591,-3.01259,-0.785876,-0.0750754,-2.85909,0.197226,
2,1,0,1,0,48413.1,0.199059,0.198741,0.972077,25,0.0139365,10,0.000193191,-3.0123,-0.96286,-0.0612758,-2.32407,0.198741,
2,1,0,1,0,48413.2,0.200557,0.20024,0.969002,25,0.0140103,10,0.000194033,-3.01368,-1.37761,-0.0428277,-1.61943,0.20024,
2,1,0,1,0,48413.2,0.202057,0.201721,0.965577,25,0.0140839,10,0.000194777,-3.01521,-1.03876,-0.0567986,-2.14009,0.201721,
2,1,0,1,0,48413.3,0.203552,0.203209,0.961815,25,0.0141572,10,0.000195449,-3.01691,-1.55478,-0.0379476,-1.42669,0.203209,
2,1,0,1,0,48413.4,0.205052,0.204732,0.96075,25,0.0142303,10,0.000196696,-3.01739,-2.25053,-0.0262161,-0.986928,0.204732,
2,1,0,1,0,48413.5,0.20655,0.206203,0.958218,25,0.0143033,10,0.000197588,-3.01854,-2.16297,-0.0272773,-1.02006,0.206203,
2,1,0,1,0,48413.5,0.208048,0.207768,0.959281,25,0.0143764,10,0.000199308,-3.01805,-1.57825,-0.0373831,-1.39578,0.207768,
2,1,0,1,0,48413.6,0.209546,0.209252,0.95565,25,0.0144491,10,0.000199972,-3.0197,-1.25833,-0.0468875,-1.74859,0.209252,
2,1,0,1,0,48413.7,0.211044,0.210718,0.950864,25,0.0145215,10,0.000200364,-3.02188,-1.3126,-0.044949,-1.67175,0.210718,
2,1,0,1,0,48413.8,0.212543,0.212231,0.950177,25,0.0145938,10,0.000201657,-3.0222,-2.6421,-0.0223308,-0.826809,0.212231,
2,1,0,1,0,48413.8,0.214041,0.213805,0.949938,25,0.0146661,10,0.000203102,-3.0223,-3.02536,-0.0195018,-0.721465,0.213805,
2,1,0,1,0,48413.9,0.215539,0.215262,0.948575,25,0.0147381,10,0.000204192,-3.02293,-1.40849,-0.0418889,-1.5487,0.215262,
2,1,0,1,0,48414,0.217037,0.216713,0.943831,25,0.01481,10,0.00020454,-3.02511,-1.66171,-0.0355056,-1.31065,0.216713,
2,1,0,1,0,48414.1,0.218536,0.218193,0.943266,25,0.0148818,10,0.000205814,-3.02537,3.79773,0.0155356,0.571633,0.218193,
2,1,0,1,0,48414.1,0.220032,0.219734,0.942693,25,0.0149535,10,0.000207142,-3.02563,-1.97407,-0.0298875,-1.09874,0.219734,
2,1,0,1,0,48414.2,0.221532,0.221256,0.940644,25,0.0150252,10,0.000208123,-3.02657,-1.50937,-0.0390892,-1.43354,0.221256,
2,1,0,1,0,48414.3,0.22303,0.222721,0.935362,25,0.0150966,10,0.000208324,-3.02902,-2.67624,-0.0220458,-0.806791,0.222721,
2,1,0,1,0,48414.4,0.224528,0.224192,0.936489,25,0.0151679,10,0.000209954,-3.0285,-2.1496,-0.027447,-1.00359,0.224192,
2,1,0,1,0,48414.4,0.226026,0.225742,0.937026,25,0.0152391,10,0.000211526,-3.02825,-1.77652,-0.0332109,-1.21249,0.225742,
2,1,0,1,0,48414.5,0.227525,0.227233,0.937183,25,0.0153103,10,0.000212959,-3.02818,-1.18135,-0.0499428,-1.81878,0.227233,
2,1,0,1,0,48414.6,0.229023,0.228686,0.933394,25,0.0153813,10,0.000213454,-3.02993,-1.39749,-0.0422185,-1.5382,0.228686,
2,1,0,1,0,48414.7,0.230521,0.230222,0.931161,25,0.0154521,10,0.000214374,-3.03098,-3.16216,-0.0186581,-0.67982,0.230222,
2,1,0,1,0,48414.7,0.232019,0.231698,0.931038,25,0.0155229,10,0.00021572,-3.03103,-1.86577,-0.0316223,-1.14728,0.231698,
2,1,0,1,0,48414.8,0.233517,0.233178,0.932502,25,0.0155937,10,0.000217439,-3.03035,-2.46817,-0.0239043,-0.866881,0.233178,
2,1,0,1,0,48414.9,0.235016,0.234666,0.928379,25,0.0156644,10,0.000217859,-3.03227,-1.56163,-0.037781,-1.36729,0.234666,
2,1,0,1,0,48415,0.236512,0.236183,0.927093,25,0.0157348,10,0.000218964,-3.03288,-3.10452,-0.0190045,-0.687565,0.236183,
2,1,0,1,0,48415,0.238012,0.237705,0.925853,25,0.0158054,10,0.00022008,-3.03346,-2.88529,-0.0204485,-0.738173,0.237705,
2,1,0,1,0,48415.1,0.23951,0.239181,0.924338,25,0.0158757,10,0.000221085,-3.03417,-4.3816,-0.0134654,-0.486133,0.239181,
2,1,0,1,0,48415.2,0.241008,0.240677,0.92235,25,0.015946,10,0.000221989,-3.0351,-2.46546,-0.0239306,-0.862577,0.240677,
2,1,0,1,0,48415.3,0.242506,0.242204,0.920944,25,0.0160162,10,0.000223056,-3.03577,-1.84328,-0.0320082,-1.15112,0.242204,
2,1,0,1,0,48415.3,0.244005,0.243686,0.922879,25,0.0160862,10,0.000224893,-3.03486,-8.46506,-0.00696983,-0.250391,0.243686,
2,1,0,1,0,48415.4,0.245503,0.245189,0.923372,25,0.0161563,10,0.0002264,-3.03462,-6.41664,-0.00919484,-0.330148,0.245189,
2,1,0,1,0,48415.5,0.247001,0.246698,0.919246,25,0.0162263,10,0.000226776,-3.03657,-1.65902,-0.0355632,-1.27423,0.246698,
2,1,0,1,0,48415.6,0.248501,0.248203,0.915715,25,0.0162962,10,0.000227283,-3.03824,-1.18278,-0.0498825,-1.7861,0.248203,
2,1,0,1,0,48415.6,0.249996,0.249679,0.917516,25,0.0163658,10,0.000229085,-3.03739,-3.81872,-0.0154502,-0.55295,0.249679,
2,1,0,1,0,48415.7,0.251496,0.251164,0.914977,25,0.0164355,10,0.000229809,-3.03859,-13.1274,-0.00449441,-0.16059,0.251164,
2,1,0,1,0,48415.8,0.252994,0.252692,0.912684,25,0.0165051,10,0.000230628,-3.03968,-1.60385,-0.0367865,-1.30954,0.252692,
2,1,0,1,0,48415.9,0.254492,0.254189,0.913031,25,0.0165746,10,0.000232082,-3.03951,-4.9702,-0.0118708,-0.422753,0.254189,
2,1,0,1,0,48415.9,0.25599,0.255662,0.910875,25,0.0166439,10,0.000232876,-3.04054,-2.47292,-0.0238584,-0.849203,0.2556622,
2,1,0,1,0,48416,0.257488,0.257205,0.911387,25,0.0167132,10,0.000234413,-3.0403,-4.94269,-0.0119368,-0.424237,0.257205,
2,1,0,1,0,48416.1,0.258987,0.258715,0.910741,25,0.0167825,10,0.000235622,-3.04061,-1.77009,-0.0333317,-1.1821,0.2587148,
2,1,0,1,0,48416.2,0.260485,0.260163,0.908258,25,0.0168516,10,0.000236295,-3.04179,-1.39087,-0.0424196,-1.50293,0.260163,
2,1,0,1,0,48416.2,0.261983,0.26171,0.907407,25,0.0169206,10,0.000237478,-3.0422,-2.87285,-0.0205371,-0.728592,0.26171,
2,1,0,1,0,48416.3,0.263481,0.263169,0.905084,25,0.0169894,10,0.00023819,-3.04331,4.33064,0.0136239,0.480913,0.263169,
2,1,0,1,0,48416.4,0.264981,0.264657,0.904697,25,0.0170584,10,0.000239434,-3.0435,-7.87379,-0.00749322,-0.264252,0.264657,
2,1,0,1,0,48416.5,0.266476,0.266171,0.904033,25,0.0171272,10,0.000240628,-3.04382,-1.70465,-0.0346112,-1.22017,0.266171,
2,1,0,1,0,48416.5,0.267976,0.267653,0.901682,25,0.0171959,10,0.000241338,-3.04495,-2.45063,-0.0240754,-0.847825,0.267653,
2,1,0,1,0,48416.6,0.269474,0.269181,0.898998,25,0.0172644,10,0.000241994,-3.04624,5.29791,0.0111365,0.391021,0.269181,
2,1,0,1,0,48416.7,0.270972,0.270685,0.899068,25,0.0173328,10,0.000243364,-3.04621,-2.23937,-0.0263467,-0.923288,0.270685,
2,1,0,1,0,48416.8,0.27247,0.272144,0.898508,25,0.0174013,10,0.000244523,-3.04648,-1.37672,-0.0428554,-1.49933,0.272144,
2,1,0,1,0,48416.8,0.273968,0.273658,0.894947,25,0.0174696,10,0.00024491,-3.0482,-1.41241,-0.0417726,-1.46349,0.2736581,
2,1,0,1,0,48416.9,0.275467,0.275183,0.892707,25,0.0175376,10,0.000245658,-3.04929,-1.36196,-0.0433199,-1.51464,0.275183,
2,1,0,1,0,48417,0.276965,0.276637,0.893644,25,0.0176057,10,0.000247215,-3.04884,-3.30671,-0.0178425,-0.622544,0.276637,
2,1,0,1,0,48417.1,0.278463,0.278139,0.8933,25,0.0176736,10,0.000248462,-3.049,-1.00037,-0.058978,-2.05282,0.278139,
2,1,0,1,0,48417.1,0.279961,0.279666,0.889469,25,0.0177415,10,0.000248754,-3.05087,-1.84463,-0.0319848,-1.11368,0.279666,
2,1,0,1,0,48417.2,0.28146,0.281137,0.888262,25,0.0178092,10,0.000249723,-3.05146,-2.80503,-0.0210336,-0.730693,0.281137,
2,1,0,1,0,48417.3,0.282956,0.282653,0.886647,25,0.0178767,10,0.000250614,-3.05225,-8.60635,-0.0068554,-0.237175,0.282653,
2,1,0,1,0,48417.4,0.284456,0.284129,0.885987,25,0.0179444,10,0.000251735,-3.05257,-2.01654,-0.029258,-1.01218,0.284129,
2,1,0,1,0,48417.4,0.285954,0.285588,0.885464,25,0.0180118,10,0.000252878,-3.05283,-1.05613,-0.0558644,-1.93075,0.285588,
2,1,0,1,0,48417.5,0.287452,0.287125,0.880685,25,0.018079,10,0.000252867,-3.05518,-1.3068,-0.0451485,-1.55797,0.2871255,
2,1,0,1,0,48417.6,0.28895,0.288629,0.87952,25,0.0181461,10,0.000253855,-3.05575,-3.1236,-0.0188885,-0.648993,0.288629,
2,1,0,1,0,48417.7,0.290449,0.290151,0.880794,25,0.0182132,10,0.000255563,-3.05513,-2.37446,-0.0248478,-0.854679,0.290151,
2,1,0,1,0,48417.7,0.291947,0.29163,0.879744,25,0.0182801,10,0.00025656,-3.05564,-1.15895,-0.050908,-1.74365,0.29163,
2,1,0,1,0,48417.8,0.293445,0.293123,0.873481,25,0.0183469,10,0.000256037,-3.05875,-1.12727,-0.0523388,-1.79311,0.293123,
2,1,0,1,0,48417.9,0.294943,0.294635,0.876307,25,0.0184135,10,0.00025819,-3.05734,-3.38364,-0.0174369,-0.595226,0.294635,
2,1,0,1,0,48418,0.296441,0.296142,0.875747,25,0.0184801,10,0.000259346,-3.05762,-3.64607,-0.0161818,-0.551675,0.296142,
2,1,0,1,0,48418,0.29794,0.297687,0.873214,25,0.0185467,10,0.000259944,-3.05888,-1.55187,-0.0380186,-1.29403,0.297687,
2,1,0,1,0,48418.1,0.299436,0.299162,0.869805,25,0.018613,10,0.000260213,-3.06058,-0.00427286,-13.8081,-299.298,0.299162,
2,1,0,1,0,48418.2,0.299739,0.299416,0.594941,25,0.0186471,10,0.000178135,-3.22553,0.000691179,85.3614,726.335,0.299416,
2,1,0,1,0,48418.2,0.298239,0.297929,0.080148,25,0.0186665,10,2.38784e-05,-4.09611,0.00380917,15.489,252.039,0.297929,
2,0,0,1,0,48418.3,0.296741,0.296428,-0.0609365,25,0.0186653,10,-1.80633e-05,-4.21512,0.0477509,1.23558,80.0991,0.2964282,
2,0,0,1,0,48418.4,0.295243,0.294856,-0.127538,25,0.0186568,10,-3.76053e-05,-3.89436,-0.00463405,-12.7319,39.0808,0.294856,
2,0,0,1,0,48418.5,0.293745,0.293455,-0.169455,25,0.0186446,10,-4.97274e-05,-3.77095,-0.0146228,-4.0348,24.0909,0.293455,
2,0,0,1,0,48418.5,0.292246,0.291913,-0.198203,25,0.0186297,10,-5.78578e-05,-3.70289,-0.0230812,-2.55619,19.1162,0.2919125,
2,0,0,1,0,48418.6,0.290748,0.290442,-0.223607,25,0.0186127,10,-6.49451e-05,-3.65051,-0.0327342,-1.80239,15.349,0.290442,
2,0,0,1,0,48418.7,0.28925,0.288939,-0.245836,25,0.0185939,10,-7.10316e-05,-3.60935,-0.0409566,-1.44055,13.5895,0.288939,
2,0,0,1,0,48418.8,0.287752,0.287482,-0.264419,25,0.0185737,10,-7.60157e-05,-3.57771,-0.0568422,-1.03796,10.6514,0.287482,
2,0,0,1,0,48418.8,0.286254,0.285954,-0.278801,25,0.0185523,10,-7.97241e-05,-3.55471,-0.0646555,-0.912529,9.96309,0.285954,
2,0,0,1,0,48418.9,0.284754,0.284451,-0.295029,25,0.0185297,10,-8.39214e-05,-3.53013,-0.0637944,-0.924847,10.5915,0.284451,
2,0,0,1,0,48419,0.283259,0.282963,-0.308872,25,0.018506,10,-8.73996e-05,-3.51022,-0.0777306,-0.759032,9.09596,0.282963,
2,0,0,1,0,48419.1,0.281759,0.281446,-0.322546,25,0.0184811,10,-9.07792e-05,-3.49141,-0.0902755,-0.653555,8.17636,0.281446,
2,0,0,1,0,48419.1,0.280261,0.279921,-0.332499,25,0.0184555,10,-9.30734e-05,-3.47821,-0.0949653,-0.621279,8.08104,0.279921,
2,0,0,1,0,48419.2,0.278763,0.278455,-0.345686,25,0.018429,10,-9.62578e-05,-3.46132,-0.106642,-0.553251,7.42697,0.278455,
2,0,0,1,0,48419.3,0.277264,0.276943,-0.356013,25,0.0184015,10,-9.85954e-05,-3.44853,-0.108857,-0.541996,7.51781,0.276943,
2,0,0,1,0,48419.4,0.275766,0.275456,-0.367358,25,0.0183732,10,-0.000101191,-3.43491,-0.146821,-0.40185,5.726,0.275456,
2,0,0,1,0,48419.4,0.274268,0.273951,-0.378601,25,0.0183443,10,-0.000103718,-3.42182,-0.139316,-0.423497,6.26904,0.273951,
2,0,0,1,0,48419.5,0.27277,0.272459,-0.386198,25,0.0183147,10,-0.000105223,-3.41319,-0.145102,-0.40661,6.13036,0.272459,
2,0,0,1,0,48419.6,0.271272,0.270955,-0.395656,25,0.0182843,10,-0.000107205,-3.40268,-0.136159,-0.433315,6.68423,0.270955,
2,0,0,1,0,48419.7,0.269774,0.269431,-0.407229,25,0.0182532,10,-0.00010972,-3.39016,-0.164675,-0.358281,5.65273,0.269431,
2,0,0,1,0,48419.7,0.268274,0.267942,-0.412733,25,0.0182214,10,-0.000110588,-3.38433,-0.166857,-0.353597,5.69653,0.267942,
2,0,0,1,0,48419.8,0.266779,0.266453,-0.42034,25,0.0181892,10,-0.000112001,-3.3764,-0.173313,-0.340425,5.58567,0.266453,
2,0,0,1,0,48419.9,0.265279,0.264968,-0.428331,25,0.0181563,10,-0.000113494,-3.36822,-0.177298,-0.332772,5.54775,0.264968,
2,0,0,1,0,48420,0.263781,0.26349,-0.436883,25,0.0181228,10,-0.000115114,-3.35963,-0.189242,-0.31177,5.30844,0.26349,
2,0,0,1,0,48420,0.262283,0.261985,-0.444658,25,0.0180887,10,-0.000116494,-3.35197,-0.220913,-0.267074,4.62417,0.261985,
2,0,0,1,0,48420.1,0.260784,0.260511,-0.449219,25,0.0180541,10,-0.000117027,-3.34754,-0.21676,-0.272191,4.794,0.260511,
2,0,0,1,0,48420.2,0.259286,0.258969,-0.458632,25,0.0180189,10,-0.000118771,-3.33854,-0.217317,-0.271493,4.86022,0.258969,
2,0,0,1,0,48420.3,0.257788,0.257459,-0.469495,25,0.0179832,10,-0.000120875,-3.32837,-0.229294,-0.257311,4.68885,0.257459,
2,0,0,1,0,48420.3,0.25629,0.255945,-0.473385,25,0.0179468,10,-0.000121161,-3.32479,-0.264999,-0.222642,4.09158,0.255945,
2,0,0,1,0,48420.4,0.25479,0.254462,-0.476724,25,0.01791,10,-0.000121308,-3.32173,-0.279982,-0.210728,3.93371,0.254462,
2,0,0,1,0,48420.5,0.253294,0.252927,-0.486974,25,0.0178729,10,-0.000123169,-3.31249,-0.247659,-0.238231,4.51447,0.252927,
2,0,0,1,0,48420.6,0.251795,0.25146,-0.490226,25,0.0178352,10,-0.000123272,-3.3096,-0.249973,-0.236025,4.53611,0.25146,
2,0,0,1,0,48420.6,0.250297,0.249969,-0.498638,25,0.017797,10,-0.000124644,-3.30221,-0.286766,-0.205743,3.99887,0.249969,
2,0,0,1,0,48420.7,0.248799,0.248464,-0.502155,25,0.0177583,10,-0.000124768,-3.29916,-0.296303,-0.19912,3.91774,0.248464,
2,0,0,1,0,48420.8,0.247301,0.246989,-0.51075,25,0.0177193,10,-0.00012615,-3.29179,-0.294947,-0.200036,3.98752,0.246989,
2,0,0,1,0,48420.9,0.245802,0.245497,-0.517244,25,0.0176798,10,-0.000126982,-3.2863,-0.288467,-0.204529,4.11778,0.245497,
2,0,0,1,0,48420.9,0.244304,0.244015,-0.523904,25,0.0176396,10,-0.00012784,-3.28075,-0.293131,-0.201275,4.09588,0.244015,
2,0,0,1,0,48421,0.242806,0.242516,-0.528112,25,0.0175991,10,-0.000128076,-3.27727,-0.401968,-0.146778,3.0237,0.242516,
2,0,0,1,0,48421.1,0.241308,0.24103,-0.532043,25,0.0175583,10,-0.000128239,-3.27405,-0.371508,-0.158812,3.30906,0.24103,
2,0,0,1,0,48421.2,0.23981,0.239574,-0.538615,25,0.0175171,10,-0.000129038,-3.26872,-0.295599,-0.199595,4.19553,0.239574,
2,0,0,1,0,48421.2,0.23831,0.238013,-0.545636,25,0.0174754,10,-0.000129868,-3.2631,-0.304298,-0.193889,4.12262,0.238013,
2,0,0,1,0,48421.3,0.236815,0.236498,-0.548774,25,0.0174333,10,-0.000129784,-3.26061,-0.356852,-0.165335,3.53702,0.2364978,
2,0,0,1,0,48421.4,0.235315,0.235011,-0.552579,25,0.0173907,10,-0.000129862,-3.25761,-0.351617,-0.167796,3.63925,0.2350114,
2,0,0,1,0,48421.5,0.233817,0.233499,-0.562371,25,0.0173478,10,-0.000131313,-3.24998,-0.325577,-0.181217,3.96548,0.233499,
2,0,0,1,0,48421.5,0.232319,0.232016,-0.566497,25,0.0173044,10,-0.000131436,-3.2468,-0.292943,-0.201404,4.45549,0.232016,
2,0,0,1,0,48421.6,0.230821,0.230508,-0.570286,25,0.0172606,10,-0.000131456,-3.24391,-0.507186,-0.116328,2.5885,0.230508,
2,0,0,1,0,48421.7,0.229322,0.229008,-0.573713,25,0.0172164,10,-0.000131385,-3.24131,-0.372642,-0.158329,3.56735,0.229008,
2,0,0,1,0,48421.8,0.227824,0.227517,-0.580389,25,0.017172,10,-0.000132049,-3.23628,-0.347265,-0.169899,3.86456,0.227517,
2,0,0,1,0,48421.8,0.226326,0.226045,-0.58496,25,0.0171271,10,-0.000132227,-3.23287,-0.338416,-0.174342,3.99279,0.226045,
2,0,0,1,0,48421.9,0.224828,0.224488,-0.59242,25,0.0170817,10,-0.000132991,-3.22737,-0.487887,-0.12093,2.79185,0.224488,
2,0,0,1,0,48422,0.22333,0.222999,-0.597704,25,0.0170359,10,-0.000133287,-3.22351,-0.390611,-0.151045,3.52958,0.222999,
2,0,0,1,0,48422.1,0.22183,0.221492,-0.604382,25,0.0169898,10,-0.000133866,-3.21869,-0.398157,-0.148183,3.48849,0.221492,
2,0,0,1,0,48422.1,0.220335,0.220017,-0.609456,25,0.0169434,10,-0.000134091,-3.21506,-0.339766,-0.173649,4.12562,0.220017,
2,0,0,1,0,48422.2,0.218835,0.218541,-0.614128,25,0.0168963,10,-0.000134212,-3.21174,-0.375645,-0.157063,3.75697,0.2185415,
2,0,0,1,0,48422.3,0.217337,0.217003,-0.618801,25,0.016849,10,-0.000134282,-3.20845,-0.427897,-0.137884,3.33756,0.2170027,
2,0,0,1,0,48422.4,0.215839,0.21549,-0.62109,25,0.0168014,10,-0.000133839,-3.20685,-0.442564,-0.133314,3.24984,0.21549,
2,0,0,1,0,48422.4,0.21434,0.21404,-0.628946,25,0.0167534,10,-0.000134619,-3.20139,-0.368229,-0.160227,3.91647,0.21404,
2,0,0,1,0,48422.5,0.212842,0.212533,-0.631898,25,0.0167049,10,-0.000134299,-3.19935,-0.455853,-0.129428,3.2032,0.212533,
2,0,0,1,0,48422.6,0.211344,0.211003,-0.638563,25,0.0166562,10,-0.000134739,-3.1948,-0.611086,-0.0965493,2.41316,0.211003,
2,0,0,1,0,48422.7,0.209846,0.20952,-0.64222,25,0.0166071,10,-0.000134558,-3.19232,-0.569106,-0.103671,2.60423,0.20952,
2,0,0,1,0,48422.7,0.208348,0.208001,-0.649235,25,0.0165576,10,-0.000135042,-3.1876,-0.388198,-0.151984,3.8639,0.208001,
2,0,0,1,0,48422.8,0.20685,0.206527,-0.657462,25,0.0165077,10,-0.000135783,-3.18213,-0.477689,-0.123511,3.15393,0.2065265,
2,0,0,1,0,48422.9,0.20535,0.205001,-0.661627,25,0.0164571,10,-0.000135634,-3.17939,-0.456198,-0.12933,3.3213,0.205001,
2,0,0,1,0,48423,0.203855,0.203559,-0.663756,25,0.0164064,10,-0.000135113,-3.17799,-0.540626,-0.109133,2.83805,0.203559,
2,0,0,1,0,48423,0.202355,0.20202,-0.668209,25,0.0163553,10,-0.000134991,-3.17509,-0.450323,-0.131017,3.42239,0.20202,
2,0,0,1,0,48423.1,0.200857,0.200537,-0.673737,25,0.0163038,10,-0.000135109,-3.17151,-0.412588,-0.143,3.76279,0.200537,
2,0,0,1,0,48423.2,0.199359,0.199041,-0.681385,25,0.0162519,10,-0.000135623,-3.16661,-0.532305,-0.110839,2.93855,0.199041,
2,0,0,1,0,48423.3,0.19786,0.197506,-0.686382,25,0.0161997,10,-0.000135565,-3.16343,-0.486826,-0.121193,3.23438,0.197506,
2,0,0,1,0,48423.3,0.196362,0.196041,-0.689586,25,0.0161471,10,-0.000135187,-3.16141,-0.428028,-0.137842,3.71433,0.196041,
2,0,0,1,0,48423.4,0.194864,0.194556,-0.69526,25,0.016094,10,-0.000135267,-3.15785,-0.325645,-0.181179,4.92174,0.194556,
2,0,0,1,0,48423.5,0.193366,0.193024,-0.704837,25,0.0160404,10,-0.000136051,-3.15191,-0.380737,-0.154963,4.24767,0.193024,
2,0,0,1,0,48423.6,0.191866,0.191523,-0.707588,25,0.0159863,10,-0.000135519,-3.15022,-0.514698,-0.11463,3.17459,0.191523,
2,0,0,1,0,48423.6,0.19037,0.190052,-0.711795,25,0.015932,10,-0.000135278,-3.14764,-0.410819,-0.143616,3.9978,0.190052,
2,0,0,1,0,48423.7,0.188871,0.188563,-0.719107,25,0.0158771,10,-0.000135597,-3.14321,-0.329996,-0.17879,5.02006,0.188563,
2,0,0,1,0,48423.8,0.187373,0.187048,-0.726415,25,0.0158218,10,-0.000135875,-3.13882,-0.387097,-0.152416,4.32256,0.187048,
2,0,0,1,0,48423.9,0.185875,0.185569,-0.732426,25,0.0157661,10,-0.000135916,-3.13524,-0.410812,-0.143618,4.10167,0.185569,
2,0,0,1,0,48423.9,0.184377,0.184107,-0.736037,25,0.0157099,10,-0.00013551,-3.1331,-0.402662,-0.146525,4.21485,0.184107,
2,0,0,1,0,48424,0.182878,0.182602,-0.744759,25,0.0156532,10,-0.000135995,-3.12798,-0.352828,-0.16722,4.86686,0.182602,
2,0,0,1,0,48424.1,0.18138,0.181094,-0.75363,25,0.0155961,10,-0.000136478,-3.12284,-0.35345,-0.166926,4.90154,0.181094,
2,0,0,1,0,48424.2,0.179882,0.179543,-0.757967,25,0.0155383,10,-0.000136087,-3.12035,-0.457963,-0.128831,3.81391,0.179543,
2,0,0,1,0,48424.2,0.178384,0.178059,-0.766844,25,0.01548,10,-0.000136544,-3.11529,-0.415355,-0.142047,4.2495,0.178059,
2,0,0,1,0,48424.3,0.176886,0.17655,-0.7727,25,0.0154213,10,-0.00013642,-3.11199,-0.346571,-0.170239,5.14249,0.17655,
2,0,0,1,0,48424.4,0.175386,0.175073,-0.779959,25,0.0153619,10,-0.00013655,-3.10793,-0.327485,-0.180161,5.4917,0.175073,
2,0,0,1,0,48424.5,0.173891,0.17357,-0.790823,25,0.0153021,10,-0.000137263,-3.10192,-0.300741,-0.196182,6.03682,0.17357,
2,0,0,1,0,48424.5,0.172391,0.172036,-0.798221,25,0.0152414,10,-0.000137323,-3.09788,-0.319951,-0.184403,5.72594,0.172036,
2,0,0,1,0,48424.6,0.170893,0.170602,-0.807253,25,0.0151802,10,-0.000137719,-3.09299,-0.316932,-0.18616,5.86277,0.170602,
2,0,0,1,0,48424.7,0.169395,0.169049,-0.815128,25,0.0151184,10,-0.000137797,-3.08877,-0.233192,-0.253011,8.05025,0.169049,
2,0,0,1,0,48424.8,0.167897,0.167553,-0.824349,25,0.0150557,10,-0.000138122,-3.08389,-0.262208,-0.225013,7.25546,0.167553,
2,0,0,1,0,48424.8,0.166398,0.166083,-0.839547,25,0.0149921,10,-0.000139435,-3.07596,-0.306774,-0.192324,6.27926,0.166083,
2,0,0,1,0,48424.9,0.1649,0.164555,-0.845479,25,0.0149279,10,-0.000139128,-3.0729,-0.262729,-0.224566,7.43721,0.164555,
2,0,0,1,0,48425,0.163402,0.163053,-0.860069,25,0.0148629,10,-0.000140237,-3.06547,-0.22837,-0.258353,8.68981,0.163053,
2,0,0,1,0,48425.1,0.161904,0.161574,-0.872131,25,0.0147968,10,-0.000140914,-3.05942,-0.235934,-0.25007,8.51855,0.1615743,
2,0,0,1,0,48425.1,0.160406,0.160074,-0.886934,25,0.0147298,10,-0.000141975,-3.05211,-0.225946,-0.261125,9.0353,0.160074,
2,0,0,1,0,48425.2,0.158906,0.158606,-0.898959,25,0.0146616,10,-0.000142581,-3.04626,-0.203147,-0.290431,10.2393,0.158606,
2,0,0,1,0,48425.3,0.157411,0.157059,-0.916161,25,0.0145926,10,-0.000143892,-3.03803,-0.184804,-0.319257,11.4627,0.1570594,
2,0,0,1,0,48425.4,0.155911,0.155627,-0.933517,25,0.014522,10,-0.000145281,-3.02988,-0.170355,-0.346336,12.665,0.155627,
2,0,0,1,0,48425.4,0.154413,0.154096,-0.955646,25,0.01445,10,-0.000147261,-3.0197,-0.163682,-0.360454,13.4393,0.1540962,
2,0,0,1,0,48425.5,0.152915,0.152623,-0.978424,25,0.0143765,10,-0.00014933,-3.00947,-0.155242,-0.380052,14.5305,0.152623,
2,0,0,1,0,48425.6,0.151417,0.151142,-0.996708,25,0.0143014,10,-0.000150644,-3.00143,-0.139408,-0.423219,16.5696,0.151142,
2,0,0,1,0,48425.7,0.149918,0.149546,-1.02739,25,0.0142243,10,-0.000153642,-2.98826,-0.122548,-0.481445,19.3132,0.149546,
2,0,0,1,0,48425.7,0.14842,0.148152,-1.0578,25,0.0141451,10,-0.000156715,-2.9756,-0.117005,-0.504254,20.8372,0.1481518,
2,0,0,1,0,48425.8,0.146922,0.146602,-1.09143,25,0.0140635,10,-0.000160006,-2.96201,-0.106487,-0.554056,23.6502,0.146602,
2,0,0,1,0,48425.9,0.145424,0.145089,-1.12625,25,0.0139794,10,-0.000163407,-2.94837,-0.100504,-0.587044,25.8971,0.145089,
2,0,0,1,0,48426,0.143926,0.143613,-1.16782,25,0.0138923,10,-0.000167714,-2.93262,-0.08961,-0.658409,30.0541,0.143613,
2,0,0,1,0,48426,0.142426,0.142115,-1.21333,25,0.0138018,10,-0.000172433,-2.91602,-0.0892484,-0.661076,31.3355,0.142115,
2,0,0,1,0,48426.1,0.140931,0.140582,-1.26368,25,0.013708,10,-0.00017765,-2.89836,-0.0858724,-0.687066,33.8826,0.140582,
2,0,0,1,0,48426.2,0.139431,0.139125,-1.30885,25,0.0136103,10,-0.000182094,-2.88311,-0.0864017,-0.682857,35.0298,0.139125,
2,0,0,1,0,48426.3,0.137933,0.137599,-1.36764,25,0.0135088,10,-0.000188185,-2.86403,-0.0883115,-0.66809,35.682,0.1375986,
2,0,0,1,0,48426.3,0.136435,0.136103,-1.42203,25,0.0134031,10,-0.000193543,-2.84709,-0.0832166,-0.708993,39.3529,0.136103,
2,0,0,1,0,48426.4,0.134936,0.134614,-1.48455,25,0.013293,10,-0.000199842,-2.8284,-0.0884139,-0.667316,38.5427,0.1346145,
2,0,0,1,0,48426.5,0.133438,0.133146,-1.53971,25,0.0131785,10,-0.000205006,-2.81256,-0.0909915,-0.648412,38.9849,0.133146,
2,0,0,1,0,48426.5,0.13194,0.131619,-1.59948,25,0.0130597,10,-0.000210522,-2.79602,-0.0939107,-0.628257,39.2783,0.131619,
2,0,0,1,0,48426.6,0.130442,0.130081,-1.6629,25,0.0129364,10,-0.000216312,-2.77913,-0.0991008,-0.595353,38.5623,0.130081,
2,0,0,1,0,48426.7,0.128942,0.128668,-1.72222,25,0.0128083,10,-0.000221595,-2.76391,-0.107159,-0.550583,36.8401,0.128668,
2,0,0,1,0,48426.8,0.127446,0.12711,-1.7725,25,0.0126765,10,-0.000225301,-2.75141,-0.114789,-0.513988,35.5421,0.1271096,
2,0,0,1,0,48426.8,0.125947,0.125635,-1.82668,25,0.0125403,10,-0.000229496,-2.73834,-0.119209,-0.494928,35.2211,0.125635,
2,0,0,1,0,48426.9,0.124449,0.124133,-1.87977,25,0.0124003,10,-0.000233341,-2.72589,-0.128398,-0.45951,33.6279,0.1241326,
2,0,0,1,0,48427,0.122951,0.122657,-1.92556,25,0.0122566,10,-0.000236185,-2.71544,-0.142031,-0.415402,31.1787,0.122657,
2,0,0,1,0,48427.1,0.121453,0.121121,-1.97406,25,0.0121094,10,-0.0002391,-2.70464,-0.160379,-0.367878,28.224,0.121121,
2,0,0,1,0,48427.1,0.119955,0.11962,-2.00641,25,0.0119591,10,-0.000240007,-2.69758,-0.182089,-0.324017,25.4015,0.11962,
2,0,0,1,0,48427.2,0.118456,0.118147,-2.04734,25,0.0118059,10,-0.000241886,-2.68881,-0.190327,-0.309994,24.7447,0.1181467,
2,0,0,1,0,48427.3,0.116958,0.11664,-2.08447,25,0.0116499,10,-0.000243133,-2.68101,-0.231263,-0.255121,20.6905,0.11664,
2,0,0,1,0,48427.4,0.11546,0.11515,-2.11061,25,0.0114916,10,-0.000243036,-2.67559,-0.303195,-0.194594,15.9798,0.11515,
2,0,0,1,0,48427.4,0.113962,0.113624,-2.13064,25,0.0113314,10,-0.000242091,-2.67149,-0.367078,-0.160729,13.3595,0.113624,
2,0,0,1,0,48427.5,0.112462,0.112115,-2.1524,25,0.0111697,10,-0.000241316,-2.66708,-0.455321,-0.129579,10.8644,0.112115,
2,0,0,1,0,48427.6,0.110967,0.110665,-2.16475,25,0.011007,10,-0.000239562,-2.66459,-0.57722,-0.102214,8.62719,0.110665,
2,0,0,1,0,48427.7,0.109467,0.10913,-2.17574,25,0.0108429,10,-0.000237438,-2.66239,-1.33604,-0.0441602,3.73734,0.10913,
2,0,0,1,0,48427.7,0.107969,0.107649,-2.18013,25,0.0106785,10,-0.00023469,-2.66152,-2.6845,-0.021978,1.86798,0.107649,
2,0,0,1,0,48427.8,0.106471,0.106118,-2.17992,25,0.0105141,10,-0.000231329,-2.66156,-43.2943,-0.00136277,0.115933,0.106118,
2,0,0,1,0,48427.9,0.104973,0.104666,-2.17964,25,0.0103496,10,-0.000228135,-2.66161,2.04758,0.0288145,-2.44804,0.1046664,
2,0,0,1,0,48428,0.103474,0.103169,-2.17511,25,0.0101853,10,-0.000224404,-2.66252,1.03244,0.0571463,-4.84088,0.103169,
2,0,0,1,0,48428,0.101976,0.101667,-2.16515,25,0.0100215,10,-0.000220124,-2.66451,0.699754,0.0843153,-7.1198,0.101667,
2,0,0,1,0,48428.1,0.100478,0.100194,-2.15199,25,0.00985865,10,-0.000215617,-2.66716,0.660903,0.0892717,-7.50355,0.100194,
2,0,0,1,0,48428.2,0.0989799,0.0986683,-2.14263,25,0.0096966,10,-0.000211409,-2.66905,0.683546,0.0863146,-7.21554,0.0986683,
2,0,0,1,0,48428.3,0.0974817,0.0971375,-2.13225,25,0.00953535,10,-0.000207121,-2.67116,0.591272,0.0997849,-8.29374,0.0971375,
2,0,0,1,0,48428.3,0.0959821,0.0956155,-2.11787,25,0.0093748,10,-0.000202501,-2.6741,0.565664,0.104302,-8.61831,0.0956155,
2,0,0,1,0,48428.4,0.0944866,0.0941788,-2.10245,25,0.00921581,10,-0.000198006,-2.67727,0.563656,0.104674,-8.599,0.0941788,
2,0,0,1,0,48428.5,0.0929871,0.0927141,-2.09073,25,0.00905742,10,-0.00019384,-2.6797,0.592249,0.0996203,-8.12719,0.0927141,
2,0,0,1,0,48428.6,0.0914889,0.0911538,-2.08181,25,0.00890005,10,-0.000189765,-2.68156,0.623815,0.0945794,-7.67315,0.0911538,
2,0,0,1,0,48428.6,0.0899907,0.0896537,-2.06828,25,0.00874356,10,-0.000185429,-2.68439,0.561605,0.105056,-8.46857,0.08965373,
2,0,0,1,0,48428.7,0.0884925,0.0881635,-2.05301,25,0.008588,10,-0.000181,-2.68761,0.549562,0.107358,-8.61123,0.0881635,
2,0,0,1,0,48428.8,0.0869943,0.0866717,-2.04147,25,0.00843349,10,-0.000176937,-2.69006,0.568359,0.103808,-8.27953,0.0866717,
2,0,0,1,0,48428.9,0.0854961,0.0851119,-2.03201,25,0.00827969,10,-0.000172948,-2.69207,0.663706,0.0888948,-7.04781,0.0851119,
2,0,0,1,0,48428.9,0.083998,0.083646,-2.02243,25,0.00812667,10,-0.000169168,-2.69413,0.531803,0.110943,-8.74943,0.083646,
2,0,0,1,0,48429,0.0824998,0.0822441,-2.01098,25,0.00797447,10,-0.000165391,-2.69659,0.636994,0.0926225,-7.26998,0.0822441,
2,0,0,1,0,48429.1,0.081002,0.0806726,-1.99943,25,0.00782328,10,-0.000161299,-2.69909,0.710175,0.0830782,-6.48759,0.08067257,
2,0,0,1,0,48429.2,0.0795025,0.0791702,-1.99067,25,0.00767248,10,-0.000157602,-2.701,0.799083,0.0738346,-5.73477,0.0791702,
2,0,0,1,0,48429.2,0.078007,0.0777107,-1.98338,25,0.0075227,10,-0.00015413,-2.70259,0.799958,0.0737539,-5.70452,0.0777107,
2,0,0,1,0,48429.3,0.076507,0.0762094,-1.97147,25,0.00737325,10,-0.000150245,-2.70521,0.657536,0.0897289,-6.90212,0.0762094,
2,0,0,1,0,48429.4,0.0750088,0.0746984,-1.95757,25,0.00722495,10,-0.000146228,-2.70828,0.58635,0.100622,-7.70099,0.0746984,
2,0,0,1,0,48429.5,0.0735106,0.0732098,-1.94905,25,0.00707734,10,-0.000142689,-2.71018,0.756498,0.0779909,-5.93214,0.0732098,
2,0,0,1,0,48429.5,0.0720124,0.0716834,-1.94058,25,0.00693043,10,-0.000139107,-2.71207,0.62035,0.0951077,-7.20002,0.0716834,
2,0,0,1,0,48429.6,0.0705142,0.0701895,-1.92992,25,0.00678433,10,-0.00013546,-2.71446,0.541071,0.109043,-8.21576,0.0701895,
2,0,0,1,0,48429.7,0.069016,0.0686849,-1.91645,25,0.00663912,10,-0.000131631,-2.7175,0.596975,0.0988316,-7.39723,0.0686849,
2,0,0,1,0,48429.8,0.0675179,0.0671953,-1.90756,25,0.00649469,10,-0.000128179,-2.71952,0.707872,0.0833485,-6.20966,0.0671953,
2,0,0,1,0,48429.8,0.0660179,0.0656865,-1.90107,25,0.00635079,10,-0.000124874,-2.721,0.672315,0.0877565,-6.50245,0.0656865,
2,0,0,1,0,48429.9,0.0645224,0.0642377,-1.89027,25,0.00620793,10,-0.000121426,-2.72348,0.597971,0.0986669,-7.25951,0.0642377,
2,0,0,1,0,48430,0.0630229,0.0626858,-1.87473,25,0.00606557,10,-0.000117519,-2.72706,0.545268,0.108204,-7.92466,0.0626858,
2,0,0,1,0,48430.1,0.0615251,0.0612071,-1.86581,25,0.0059244,10,-0.000114201,-2.72913,0.602492,0.0979265,-7.13218,0.0612071,
2,0,0,1,0,48430.1,0.0600269,0.0597277,-1.8544,25,0.00578402,10,-0.000110759,-2.7318,0.665866,0.0886064,-6.4108,0.0597277,
2,0,0,1,0,48430.2,0.0585287,0.0582104,-1.84505,25,0.0056444,10,-0.000107401,-2.73399,0.497526,0.118587,-8.52564,0.05821041,
2,0,0,1,0,48430.3,0.0570305,0.0566684,-1.83148,25,0.00550555,10,-0.000103787,-2.7372,0.515115,0.114538,-8.18612,0.0566684,
2,0,0,1,0,48430.4,0.0555323,0.0552082,-1.81737,25,0.00536778,10,-0.000100334,-2.74056,0.543006,0.108654,-7.72314,0.0552082,
2,0,0,1,0,48430.4,0.0540341,0.0537163,-1.80985,25,0.00523078,10,-9.72187e-05,-2.74236,0.560313,0.105298,-7.42542,0.0537163,
2,0,0,1,0,48430.5,0.052536,0.0522272,-1.79926,25,0.0050945,10,-9.39702e-05,-2.74491,0.535922,0.110091,-7.72175,0.0522272,
2,0,0,1,0,48430.6,0.0510378,0.0506855,-1.78635,25,0.00495909,10,-9.05422e-05,-2.74803,0.464266,0.127082,-8.85043,0.0506855,
2,0,0,1,0,48430.7,0.0495382,0.0491993,-1.77064,25,0.00482455,10,-8.71141e-05,-2.75187,0.501632,0.117616,-8.13959,0.0491993,
2,0,0,1,0,48430.7,0.0480427,0.0477466,-1.76074,25,0.0046913,10,-8.40694e-05,-2.7543,0.590576,0.0999024,-6.86487,0.0477466,
2,0,0,1,0,48430.8,0.0465432,0.0462201,-1.74768,25,0.00455855,10,-8.0778e-05,-2.75754,0.476245,0.123886,-8.45823,0.0462201,
2,0,0,1,0,48430.9,0.045045,0.0447148,-1.736,25,0.00442683,10,-7.76249e-05,-2.76045,0.467921,0.12609,-8.53842,0.0447148,
2,0,0,1,0,48431,0.0435468,0.0432562,-1.71973,25,0.00429614,10,-7.43888e-05,-2.76454,0.452025,0.130524,-8.77474,0.0432562,
2,0,0,1,0,48431,0.0420486,0.0417356,-1.71061,25,0.00416643,10,-7.13934e-05,-2.76685,0.535122,0.110255,-7.37425,0.0417356,
2,0,0,1,0,48431.1,0.0405504,0.0402086,-1.70127,25,0.00403764,10,-6.84059e-05,-2.76923,0.447834,0.131745,-8.72507,0.0402086,
2,0,0,1,0,48431.2,0.0390523,0.0387184,-1.68478,25,0.00390963,10,-6.52318e-05,-2.77346,0.396554,0.148782,-9.76708,0.0387184,
2,0,0,1,0,48431.3,0.0375541,0.0372302,-1.66953,25,0.00378277,10,-6.21571e-05,-2.7774,0.383437,0.153871,-10.0412,0.0372302,
2,0,0,1,0,48431.3,0.0360559,0.0357052,-1.65795,25,0.00365711,10,-5.91975e-05,-2.78043,0.396462,0.148816,-9.63379,0.0357052,
2,0,0,1,0,48431.4,0.0345577,0.0342367,-1.64352,25,0.00353236,10,-5.62687e-05,-2.78423,0.44394,0.132901,-8.5207,0.0342367,
2,0,0,1,0,48431.5,0.0330582,0.0327234,-1.63132,25,0.00340838,10,-5.33824e-05,-2.78746,0.405513,0.145495,-9.25042,0.0327234,
2,0,0,1,0,48431.6,0.0315626,0.03122,-1.61842,25,0.00328573,10,-5.0527e-05,-2.79091,0.405304,0.14557,-9.18136,0.03122,
2,0,0,1,0,48431.6,0.0300631,0.0297637,-1.60302,25,0.00316388,10,-4.77119e-05,-2.79506,0.474034,0.124464,-7.79761,0.0297637,
2,0,0,1,0,48431.7,0.0285649,0.0282189,-1.59307,25,0.00304308,10,-4.49546e-05,-2.79777,0.467265,0.126267,-7.83891,0.0282189,
2,0,0,1,0,48431.8,0.0270667,0.0267319,-1.57957,25,0.00292308,10,-4.22249e-05,-2.80146,0.432664,0.136364,-8.40745,0.0267319,
2,0,0,1,0,48431.9,0.0255685,0.0252899,-1.56696,25,0.002804,10,-3.96284e-05,-2.80494,0.413686,0.14262,-8.72658,0.02528994,
2,0,0,1,0,48431.9,0.0240704,0.0237578,-1.55226,25,0.00268598,10,-3.68783e-05,-2.80903,0.436403,0.135196,-8.21603,0.0237578,
2,0,0,1,0,48432,0.0225722,0.0222085,-1.5425,25,0.00256883,10,-3.42566e-05,-2.81177,0.578159,0.102048,-6.15249,0.0222085,
2,0,0,1,0,48432.1,0.021074,0.0207888,-1.53218,25,0.00245244,10,-3.18523e-05,-2.81469,0.482854,0.12219,-7.31188,0.0207888,
2,0,0,1,0,48432.2,0.0195758,0.0192188,-1.52353,25,0.00233679,10,-2.92804e-05,-2.81715,0.509842,0.115722,-6.86982,0.0192188,
2,0,0,1,0,48432.2,0.018078,0.0177497,-1.51126,25,0.00222198,10,-2.68245e-05,-2.82066,0.549362,0.107397,-6.34705,0.0177497,
2,0,0,1,0,48432.3,0.0165785,0.0162189,-1.5036,25,0.00210784,10,-2.43867e-05,-2.82287,0.657958,0.0896714,-5.27103,0.0162189,
2,0,0,1,0,48432.4,0.015083,0.014738,-1.49714,25,0.0019945,10,-2.20648e-05,-2.82474,0.742893,0.0794193,-4.63622,0.014738,
2,0,0,1,0,48432.5,0.013583,0.0132424,-1.48888,25,0.00188131,10,-1.97162e-05,-2.82714,0.684708,0.0861681,-5.00302,0.0132424,
2,0,0,1,0,48432.5,0.0120848,0.0117664,-1.47924,25,0.00176894,10,-1.74054e-05,-2.82996,0.617173,0.0955971,-5.52982,0.0117664,
2,0,0,1,0,48432.6,0.0105866,0.0102991,-1.4729,25,0.00165722,10,-1.51695e-05,-2.83183,0.718107,0.0821605,-4.73206,0.0102991,
2,0,0,1,0,48432.7,0.00908845,0.00876978,-1.46864,25,0.00154583,10,-1.28796e-05,-2.83309,1.1157,0.0528814,-3.03213,0.00876978,
2,0,0,1,0,48432.8,0.00759027,0.00727995,-1.46525,25,0.00143481,10,-1.0667e-05,-2.83409,1.26181,0.0467582,-2.67298,0.00727995,
2,0,0,1,0,48432.8,0.00609208,0.00577383,-1.46077,25,0.00132411,10,-8.43422e-06,-2.83542,1.03411,0.0570541,-3.25239,0.005773834,
2,0,0,1,0,48432.9,0.00459389,0.00428869,-1.45569,25,0.00121381,10,-6.243e-06,-2.83693,1.35234,0.0436281,-2.48117,0.00428869,
2,0,0,1,0,48433,0.00309391,0.00274509,-1.45644,25,0.00110352,10,-3.99806e-06,-2.83671,-1.32896,-0.0443957,2.52745,0.00274509,
2,0,0,1,0,48433.1,0.0015984,0.00123796,-1.46833,25,0.000992774,10,-1.81773e-06,-2.83318, , , ,0.00123796,
2,0,0,1,0,48433.1,0.000199195,-0.000180014,-1.46011,25,0.000889278,10,2.6284e-07,-2.83561, , , ,-0.000180014,