File: Figure_codes/Fig_3-5/rawdata_trumpetplot_data/after 10th/20221101_1-115_003_TrumpetPlot_ParaChange_from10_every3_13_CV_C01_8.csv
mode,ox/red,error,control changes,counter inc.,time/s,control/V,Ewe/V,<I>/mA,cycle number,(Q-Qo)/C,I Range,P/W,log(|I|),Tafel slope mV/dec,alpha_eff,dI/d(E-IR),E-IR/V,
2,1,0,1,0,16958.9,2.44065e-05,-0.000306236,24.8591,9,0.0000000E+000,10,-7.61277e-06,-1.60451, , , ,-0.000306236,
2,1,0,1,0,16958.9,0.00266289,0.002296,26.2792,9,7.98104e-05,10,6.03372e-05,-1.58039, , , ,0.002296,
2,1,0,1,0,16958.9,0.00586735,0.00550373,27.4846,9,0.000187561,10,0.000151268,-1.56091, , , ,0.00550373,
2,1,0,1,0,16958.9,0.00906349,0.00874221,28.4712,9,0.000299618,10,0.000248901,-1.54559,0.214952,0.274479,301.749,0.00874221,
2,1,0,1,0,16958.9,0.0122624,0.0119287,29.3403,9,0.000415355,10,0.000349992,-1.53254,0.253398,0.232835,264.877,0.0119287,
2,1,0,1,0,16958.9,0.0154641,0.0151153,30.1475,9,0.000534439,10,0.000455686,-1.52075,0.284631,0.207286,242.667,0.0151153,
2,1,0,1,0,16958.9,0.0186602,0.018324,30.8804,9,0.000656583,10,0.000565855,-1.51032,0.317083,0.186071,223.286,0.018324,
2,1,0,1,0,16958.9,0.0218675,0.0215381,31.5763,9,0.000781581,10,0.000680095,-1.50064,0.350113,0.168517,206.85,0.0215381,
2,1,0,1,0,16958.9,0.0250636,0.0247374,32.2002,9,0.000909216,10,0.00079655,-1.49214,0.378428,0.155908,195.393,0.0247374,
2,1,0,1,0,16958.9,0.0282597,0.027908,32.7936,9,0.00103927,10,0.000915205,-1.48421,0.409819,0.143966,183.937,0.027908,
2,1,0,1,0,16958.9,0.031467,0.0311019,33.3772,9,0.0011717,10,0.00103809,-1.47655,0.432248,0.136496,177.512,0.0311019,
2,1,0,1,0,16958.9,0.0346631,0.0343171,33.9268,9,0.00130636,10,0.00116427,-1.46946,0.456089,0.129361,171.052,0.0343171,
2,1,0,1,0,16958.9,0.0378704,0.0375322,34.4715,9,0.0014432,10,0.00129379,-1.46254,0.48202,0.122402,164.422,0.0375322,
2,1,0,1,0,16959,0.0410665,0.0407665,34.9931,9,0.00158218,10,0.00142655,-1.45602,0.494558,0.119299,162.749,0.0407665,
2,1,0,1,0,16959,0.0442626,0.0439159,35.484,9,0.00172318,10,0.00155831,-1.44997,0.509483,0.115804,160.372,0.0439159,
2,1,0,1,0,16959,0.0474671,0.0470886,36.0054,9,0.00186622,10,0.00169544,-1.44363,0.516566,0.114216,160.504,0.0470886,
2,1,0,1,0,16959,0.0506632,0.0502932,36.518,9,0.00201132,10,0.00183661,-1.43749,0.517602,0.113987,162.41,0.0502932,
2,1,0,1,0,16959,0.0538621,0.0535306,37.0418,9,0.00215846,10,0.00198287,-1.43131,0.529844,0.111354,160.917,0.0535306,
2,1,0,1,0,16959,0.0570638,0.0566514,37.5524,9,0.00230773,10,0.0021274,-1.42536,0.532745,0.110747,162.292,0.0566514,
2,1,0,1,0,16959,0.06026,0.0599206,38.0703,9,0.00245903,10,0.00228119,-1.41941,0.531065,0.111098,165.125,0.0599206,
2,1,0,1,0,16959,0.0634672,0.0631188,38.5995,9,0.00261243,10,0.00243635,-1.41342,0.534995,0.110281,166.177,0.0631188,
2,1,0,1,0,16959,0.0666633,0.0662735,39.146,9,0.00276797,10,0.00259434,-1.40731,0.52706,0.111942,171.071,0.06627351,
2,1,0,1,0,16959,0.0698595,0.0695024,39.688,9,0.00292572,10,0.00275841,-1.40134,0.524302,0.112531,174.353,0.0695024,
2,1,0,1,0,16959,0.0730667,0.0727568,40.2662,9,0.00308571,10,0.00292964,-1.39506,0.524536,0.11248,176.768,0.0727568,
2,1,0,1,0,16959,0.0762629,0.0758659,40.822,9,0.00324796,10,0.003097,-1.38911,0.522172,0.112989,180.047,0.0758659,
2,1,0,1,0,16959,0.0794701,0.0790928,41.412,9,0.00341246,10,0.00327539,-1.38287,0.52016,0.113427,183.354,0.0790928,
2,1,0,1,0,16959,0.0826662,0.0823132,41.9945,9,0.00357933,10,0.0034567,-1.37681,0.522017,0.113023,185.251,0.08231321,
2,1,0,1,0,16959,0.0858624,0.0854637,42.596,9,0.00374855,10,0.00364041,-1.37063,0.521952,0.113037,187.932,0.0854637,
2,1,0,1,0,16959,0.0890668,0.0886831,43.1964,9,0.0039202,10,0.00383079,-1.36455,0.514805,0.114606,193.296,0.0886831,
2,1,0,1,0,16959,0.092263,0.0918611,43.8116,9,0.00409427,10,0.00402458,-1.35841,0.516866,0.114149,195.297,0.0918611,
2,1,0,1,0,16959,0.0954674,0.0950795,44.4622,9,0.00427087,10,0.00422744,-1.35201,0.517081,0.114102,197.951,0.0950795,
2,1,0,1,0,16959,0.0986636,0.0983126,45.1054,9,0.00445007,10,0.00443443,-1.34577,0.51789,0.113924,200.446,0.0983126,
2,1,0,1,0,16959,0.10186,0.101501,45.7337,9,0.00463183,10,0.00464203,-1.33976,0.532228,0.110855,197.782,0.101501,
2,1,0,1,0,16959,0.105067,0.104675,46.3801,9,0.00481614,10,0.00485484,-1.33367,0.543904,0.108475,196.186,0.104675,
2,1,0,1,0,16959,0.108263,0.107879,46.9936,9,0.00500297,10,0.0050696,-1.32796,0.535027,0.110275,202.325,0.107879,
2,1,0,1,0,16959,0.111465,0.111034,47.6012,9,0.00519221,10,0.00528537,-1.32238,0.53254,0.11079,206.191,0.111034,
2,1,0,1,0,16959,0.114666,0.114255,48.3141,9,0.00538411,10,0.00552011,-1.31593,0.518953,0.11369,214.554,0.114255,
2,1,0,1,0,16959,0.117863,0.117476,49.0196,9,0.00557884,10,0.00575864,-1.30963,0.512453,0.115133,220.195,0.117476,
2,1,0,1,0,16959.1,0.12107,0.120698,49.744,9,0.00577644,10,0.00600399,-1.30326,0.523326,0.112741,218.713,0.1206978,
2,1,0,1,0,16959.1,0.124266,0.123915,50.4375,9,0.00597684,10,0.00624996,-1.29725,0.521832,0.113063,222.546,0.123915,
2,1,0,1,0,16959.1,0.127462,0.127128,51.1296,9,0.00618004,10,0.00650002,-1.29133,0.525513,0.112271,224.203,0.127128,
2,1,0,1,0,16959.1,0.130667,0.130321,51.8781,9,0.00638612,10,0.00676081,-1.28502,0.514352,0.114707,232.376,0.130321,
2,1,0,1,0,16959.1,0.133863,0.133533,52.6217,9,0.0065952,10,0.00702673,-1.27884,0.506992,0.116373,239.082,0.133533,
2,1,0,1,0,16959.1,0.137067,0.136696,53.4075,9,0.00680731,10,0.0073006,-1.2724,0.503082,0.117277,244.533,0.136696,
2,1,0,1,0,16959.1,0.140263,0.139902,54.1836,9,0.00702258,10,0.00758038,-1.26613,0.496352,0.118867,251.49,0.139902,
2,1,0,1,0,16959.1,0.143459,0.143114,55.0064,9,0.00724103,10,0.00787217,-1.25959,0.497193,0.118666,254.817,0.143114,
2,1,0,1,0,16959.1,0.146667,0.146306,55.8339,9,0.0074628,10,0.00816881,-1.2531,0.492491,0.119799,261.04,0.146306,
2,1,0,1,0,16959.1,0.149863,0.149495,56.6689,9,0.0076879,10,0.00847174,-1.24666,0.500921,0.117783,260.429,0.149495,
2,1,0,1,0,16959.1,0.153064,0.152665,57.5153,9,0.00791637,10,0.00878056,-1.24022,0.511573,0.115331,258.683,0.152665,
2,1,0,1,0,16959.1,0.156266,0.155904,58.3374,9,0.00814816,10,0.00909506,-1.23405,0.521403,0.113156,257.467,0.155904,
2,1,0,1,0,16959.1,0.159462,0.159097,59.1429,9,0.00838322,10,0.00940947,-1.2281,0.546733,0.107914,248.914,0.159097,
2,1,0,1,0,16959.1,0.16267,0.162296,59.9648,9,0.0086215,10,0.00973208,-1.2221,0.563699,0.104666,244.629,0.162296,
2,1,0,1,0,16959.1,0.165866,0.165537,60.7194,9,0.00886297,10,0.0100513,-1.21667,0.594468,0.0992485,234.878,0.165537,
2,1,0,1,0,16959.1,0.169062,0.168692,61.4656,9,0.00910742,10,0.0103687,-1.21137,0.635347,0.0928627,222.433,0.1686918,
2,1,0,1,0,16959.1,0.172266,0.171947,62.1611,9,0.00935477,10,0.0106884,-1.20648,0.679035,0.086888,210.435,0.171947,
2,1,0,1,0,16959.1,0.175462,0.17508,62.8082,9,0.00960479,10,0.0109964,-1.20198,0.744526,0.0792451,193.915,0.17508,
2,1,0,1,0,16959.1,0.178667,0.178349,63.4154,9,0.00985731,10,0.0113101,-1.19781,0.826262,0.0714059,176.346,0.178349,
2,1,0,1,0,16959.1,0.181863,0.181521,63.9533,9,0.0101121,10,0.0116088,-1.19414,0.951603,0.0620007,154.357,0.1815206,
2,1,0,1,0,16959.1,0.185059,0.184717,64.4129,9,0.010369,10,0.0118981,-1.19103,1.17707,0.0501243,125.616,0.184717,
2,1,0,1,0,16959.1,0.188266,0.187895,64.7863,9,0.0106274,10,0.012173,-1.18852,1.57877,0.0373708,94.1502,0.1878947,
2,1,0,1,0,16959.1,0.191463,0.191123,65.02,9,0.0108871,10,0.0124268,-1.18695,2.6635,0.0221513,55.9952,0.191123,
2,1,0,1,0,16959.1,0.194664,0.194328,65.1591,9,0.0111475,10,0.0126623,-1.18602,11.7238,0.0050325,12.7403,0.194328,
2,1,0,1,0,16959.1,0.197866,0.197568,65.1325,9,0.0114082,10,0.0128681,-1.1862,-4.42959,-0.0133195,-33.6864,0.197568,
2,1,0,1,0,16959.2,0.201062,0.200736,64.9499,9,0.0116684,10,0.0130378,-1.18742,-1.73377,-0.0340299,-85.8042,0.200736,
2,1,0,1,0,16959.2,0.204269,0.20393,64.5885,9,0.0119275,10,0.0131716,-1.18984,-1.05455,-0.0559482,-140.246,0.20393,
2,1,0,1,0,16959.2,0.207465,0.207145,64.0594,9,0.0121847,10,0.0132696,-1.19342,-0.751081,-0.0785535,-195.258,0.2071453,
2,1,0,1,0,16959.2,0.210662,0.210372,63.3367,9,0.0124395,10,0.0133243,-1.19834,-0.578382,-0.102009,-250.675,0.210372,
2,1,0,1,0,16959.2,0.213866,0.213546,62.4487,9,0.012691,10,0.0133357,-1.20448,-0.472798,-0.124789,-302.411,0.213546,
2,1,0,1,0,16959.2,0.217062,0.216762,61.3719,9,0.0129386,10,0.0133031,-1.21203,-0.396267,-0.148889,-354.683,0.216762,
2,1,0,1,0,16959.2,0.220267,0.220001,60.1718,9,0.0131816,10,0.0132378,-1.22061,-0.348097,-0.169493,-396.006,0.220001,
2,1,0,1,0,16959.2,0.223463,0.223166,58.799,9,0.0134195,10,0.0131219,-1.23063,-0.309845,-0.190418,-435.067,0.223166,
2,1,0,1,0,16959.2,0.226659,0.226403,57.3571,9,0.0136516,10,0.0129858,-1.24141,-0.281857,-0.209326,-466.749,0.226403,
2,1,0,1,0,16959.2,0.229866,0.229557,55.8053,9,0.0138779,10,0.0128105,-1.25332,-0.263405,-0.223989,-486.253,0.229557,
2,1,0,1,0,16959.2,0.233062,0.232793,54.2008,9,0.0140977,10,0.0126176,-1.26599,-0.247482,-0.238401,-503.163,0.232793,
2,1,0,1,0,16959.2,0.236264,0.235981,52.5676,9,0.0143111,10,0.012405,-1.27928,-0.239395,-0.246455,-504.93,0.235981,
2,1,0,1,0,16959.2,0.239466,0.239176,50.9304,9,0.014518,10,0.0121813,-1.29302,-0.233411,-0.252773,-502.28,0.239176,
2,1,0,1,0,16959.2,0.242662,0.242399,49.3212,9,0.0147183,10,0.0119554,-1.30697,-0.229131,-0.257494,-495.734,0.242399,
2,1,0,1,0,16959.2,0.245869,0.245604,47.7662,9,0.0149123,10,0.0117316,-1.32088,-0.227887,-0.2589,-482.783,0.245604,
2,1,0,1,0,16959.2,0.249065,0.248766,46.2295,9,0.0151001,10,0.0115003,-1.33508,-0.229391,-0.257203,-464.654,0.248766,
2,1,0,1,0,16959.2,0.252261,0.251947,44.7645,9,0.0152819,10,0.0112783,-1.34907,-0.23256,-0.253698,-444.314,0.251947,
2,1,0,1,0,16959.2,0.255466,0.255171,43.3863,9,0.0154581,10,0.0110709,-1.36265,-0.239538,-0.246307,-418.172,0.255171,
2,1,0,1,0,16959.2,0.258662,0.258348,42.1039,9,0.0156289,10,0.0108775,-1.37568,-0.247987,-0.237916,-391.902,0.258348,
2,1,0,1,0,16959.2,0.261866,0.261547,40.8848,9,0.0157948,10,0.0106933,-1.38844,-0.256661,-0.229876,-367.712,0.261547,
2,1,0,1,0,16959.2,0.265063,0.264743,39.7498,9,0.0159559,10,0.0105235,-1.40067,-0.269199,-0.219169,-341.042,0.264743,
2,1,0,1,0,16959.2,0.268259,0.267973,38.6788,9,0.0161126,10,0.0103649,-1.41253,-0.28065,-0.210226,-318.421,0.267973,
2,1,0,1,0,16959.2,0.271466,0.271202,37.72,9,0.0162653,10,0.0102298,-1.42343,-0.297516,-0.198309,-292.851,0.271202,
2,1,0,1,0,16959.2,0.274662,0.274351,36.808,9,0.0164143,10,0.0100983,-1.43406,-0.312045,-0.189075,-272.368,0.2743507,
2,1,0,1,0,16959.2,0.277869,0.27758,35.9907,9,0.0165598,10,0.00999028,-1.44381,-0.327556,-0.180122,-253.629,0.27758,
2,1,0,1,0,16959.3,0.281065,0.280752,35.1982,9,0.0167021,10,0.00988198,-1.45348,-0.349088,-0.169012,-232.82,0.280752,
2,1,0,1,0,16959.3,0.284262,0.283943,34.4886,9,0.0168414,10,0.0097928,-1.46232,-0.368483,-0.160116,-216.156,0.283943,
2,1,0,1,0,16959.3,0.287469,0.28715,33.8281,9,0.0169779,10,0.00971373,-1.47072,-0.392609,-0.150277,-198.88,0.28715,
2,1,0,1,0,16959.3,0.290665,0.290356,33.2289,9,0.0171119,10,0.00964822,-1.47848,-0.420168,-0.14042,-182.518,0.290356,
2,1,0,1,0,16959.3,0.293861,0.293541,32.6548,9,0.0172436,10,0.00958553,-1.48605,-0.439383,-0.134279,-171.772,0.293541,
2,1,0,1,0,16959.3,0.297066,0.29676,32.1492,9,0.0173732,10,0.00954061,-1.49283,-0.447558,-0.131826,-166.924,0.29676,
2,1,0,1,0,16959.3,0.299638,0.29925,31.7496,9,0.0174754,10,0.00950107,-1.49826,-0.0997969,-0.591201,-708.707,0.29925,
2,1,0,1,0,16959.3,0.300012,0.29967,31.6742,9,0.0174913,10,0.00949182,-1.49929,0.00683315,8.63437,8981.87,0.29967,
2,1,0,1,0,16959.3,0.298983,0.298901,28.8559,9,0.0175295,10,0.00862507,-1.53977,0.0242961,2.42838,2210.64,0.298901,
2,1,0,1,0,16959.3,0.295787,0.295611,21.8248,9,0.0176295,10,0.00645166,-1.66105,0.0253998,2.32285,1850.98,0.295611,
2,1,0,1,0,16959.3,0.292579,0.292371,16.5428,9,0.0177054,10,0.00483664,-1.78139,0.0245755,2.40076,1565.47,0.292371,
2,1,0,1,0,16959.3,0.289383,0.289154,12.209,9,0.0177623,10,0.00353029,-1.91332,0.0213668,2.76129,1271.14,0.289154,
2,1,0,1,0,16959.3,0.286187,0.285942,8.56866,9,0.0178033,10,0.00245014,-2.06709,0.016588,3.55679,1069.16,0.285942,
2,1,0,1,0,16959.3,0.282983,0.282723,5.44203,9,0.0178309,10,0.00153859,-2.26424,0.00886378,6.65631,917.183,0.282723,
2,1,0,1,0,16959.3,0.279786,0.279485,2.76554,9,0.0178469,10,0.000772928,-2.55822,0.0175435,3.36306,794.927,0.279485,
2,1,0,1,0,16959.3,0.276582,0.276317,0.434908,9,0.017853,10,0.000120172,-3.3616,0.0627975,0.939527,691.457,0.2763167,
2,0,0,1,0,16959.3,0.273386,0.273151,-1.59895,9,0.0178504,10,-0.000436754,-2.79617,-0.0495407,-1.19094,609.71,0.2731514,
2,0,0,1,0,16959.3,0.27019,0.269929,-3.40432,9,0.0178402,10,-0.000918925,-2.46797,-0.0109971,-5.36503,533.243,0.269929,
2,0,0,1,0,16959.3,0.266982,0.266752,-4.99815,9,0.0178231,10,-0.00133326,-2.30119,-0.0188194,-3.13506,474.109,0.266752,
2,0,0,1,0,16959.3,0.263786,0.263458,-6.4218,9,0.0178001,10,-0.00169188,-2.19234,-0.0310788,-1.8984,421.707,0.263458,
2,0,0,1,0,16959.3,0.260585,0.260326,-7.67969,9,0.0177717,10,-0.00199922,-2.11466,-0.0436536,-1.35155,377.145,0.260326,
2,0,0,1,0,16959.3,0.257383,0.257067,-8.82819,9,0.0177386,10,-0.00226944,-2.05413,-0.0566568,-1.04136,342.205,0.257067,
2,0,0,1,0,16959.3,0.254187,0.253899,-9.84566,9,0.0177011,10,-0.0024998,-2.00675,-0.0710659,-0.830216,308.575,0.253899,
2,0,0,1,0,16959.3,0.25098,0.250677,-10.7955,9,0.0176597,10,-0.0027062,-1.96676,-0.0860696,-0.685492,281.485,0.250677,
2,0,0,1,0,16959.3,0.247783,0.247486,-11.6416,9,0.0176147,10,-0.00288114,-1.93399,-0.102309,-0.576687,256.787,0.247486,
2,0,0,1,0,16959.3,0.244587,0.244309,-12.4193,9,0.0175665,10,-0.00303415,-1.9059,-0.120152,-0.491044,234.399,0.244309,
2,0,0,1,0,16959.3,0.241383,0.241105,-13.1309,9,0.0175153,10,-0.00316593,-1.8817,-0.138673,-0.425461,215.431,0.241105,
2,0,0,1,0,16959.4,0.238187,0.237907,-13.7889,9,0.0174614,10,-0.00328048,-1.86047,-0.157917,-0.373614,199.152,0.237907,
2,0,0,1,0,16959.4,0.234982,0.234659,-14.4051,9,0.0174049,10,-0.00338028,-1.84148,-0.17851,-0.330513,184.166,0.234659,
2,0,0,1,0,16959.4,0.231786,0.231466,-14.9771,9,0.0173461,10,-0.00346669,-1.82457,-0.197468,-0.298783,173.401,0.231466,
2,0,0,1,0,16959.4,0.22859,0.228299,-15.4893,9,0.0172851,10,-0.00353619,-1.80997,-0.219567,-0.268711,161.621,0.228299,
2,0,0,1,0,16959.4,0.225383,0.225111,-16.0078,9,0.017222,10,-0.00360352,-1.79567,-0.238616,-0.24726,153.799,0.225111,
2,0,0,1,0,16959.4,0.222187,0.22192,-16.4639,9,0.017157,10,-0.00365367,-1.78347,-0.260479,-0.226506,144.991,0.22192,
2,0,0,1,0,16959.4,0.218979,0.218707,-16.9394,9,0.0170902,10,-0.00370477,-1.7711,-0.285338,-0.206772,136.095,0.218707,
2,0,0,1,0,16959.4,0.215783,0.215466,-17.35,9,0.0170215,10,-0.00373833,-1.7607,-0.304879,-0.19352,130.574,0.215466,
2,0,0,1,0,16959.4,0.212587,0.212291,-17.7524,9,0.0169513,10,-0.00376868,-1.75074,-0.326833,-0.18052,124.891,0.212291,
2,0,0,1,0,16959.4,0.20938,0.209076,-18.141,9,0.0168794,10,-0.00379285,-1.74134,-0.343119,-0.171952,121.564,0.209076,
2,0,0,1,0,16959.4,0.206184,0.205899,-18.539,9,0.0168061,10,-0.00381716,-1.73191,-0.360302,-0.163752,118.231,0.205899,
2,0,0,1,0,16959.4,0.202988,0.2027,-18.9019,9,0.0167311,10,-0.00383141,-1.7235,-0.380255,-0.155159,114.216,0.2027,
2,0,0,1,0,16959.4,0.199783,0.199463,-19.2691,9,0.0166548,10,-0.00384348,-1.71514,-0.398128,-0.148194,111.29,0.199463,
2,0,0,1,0,16959.4,0.196587,0.196288,-19.6016,9,0.016577,10,-0.00384756,-1.70771,-0.414766,-0.142249,108.76,0.196288,
2,0,0,1,0,16959.4,0.193382,0.193096,-19.9639,9,0.0164978,10,-0.00385494,-1.69976,-0.426048,-0.138482,107.819,0.193096,
2,0,0,1,0,16959.4,0.190186,0.189877,-20.2966,9,0.0164173,10,-0.00385384,-1.69258,-0.430095,-0.137179,108.618,0.189877,
2,0,0,1,0,16959.4,0.18699,0.186691,-20.6462,9,0.0163354,10,-0.00385446,-1.68516,-0.444152,-0.132837,107.021,0.186691,
2,0,0,1,0,16959.4,0.183783,0.183495,-20.9911,9,0.016252,10,-0.00385177,-1.67796,-0.440221,-0.134023,109.801,0.183495,
2,0,0,1,0,16959.4,0.180587,0.180252,-21.3384,9,0.0161673,10,-0.0038463,-1.67084,-0.44401,-0.13288,110.723,0.180252,
2,0,0,1,0,16959.4,0.17738,0.177057,-21.7041,9,0.0160812,10,-0.00384287,-1.66346,-0.440244,-0.134017,113.554,0.177057,
2,0,0,1,0,16959.4,0.174183,0.17382,-22.0713,9,0.0159937,10,-0.00383643,-1.65617,-0.423325,-0.139373,120.207,0.17382,
2,0,0,1,0,16959.4,0.170987,0.170674,-22.447,9,0.0159046,10,-0.00383112,-1.64884,-0.418074,-0.141123,123.841,0.170674,
2,0,0,1,0,16959.4,0.16778,0.167436,-22.879,9,0.0158139,10,-0.00383077,-1.64056,-0.404216,-0.145962,130.415,0.167436,
2,0,0,1,0,16959.4,0.164584,0.164289,-23.2854,9,0.0157216,10,-0.00382553,-1.63292,-0.386382,-0.152698,138.999,0.164289,
2,0,0,1,0,16959.4,0.161382,0.161046,-23.7372,9,0.0156275,10,-0.00382278,-1.62457,-0.372846,-0.158242,147.019,0.161046,
2,0,0,1,0,16959.5,0.158183,0.157884,-24.2248,9,0.0155315,10,-0.00382471,-1.61574,-0.35168,-0.167766,159.04,0.157884,
2,0,0,1,0,16959.5,0.154987,0.154656,-24.7579,9,0.0154335,10,-0.00382896,-1.60629,-0.330652,-0.178435,172.862,0.154656,
2,0,0,1,0,16959.5,0.151783,0.151469,-25.3243,9,0.0153333,10,-0.00383584,-1.59646,-0.312452,-0.188829,187.202,0.151469,
2,0,0,1,0,16959.5,0.148587,0.148294,-25.9416,9,0.0152307,10,-0.00384698,-1.586,-0.29101,-0.202742,206.127,0.148294,
2,0,0,1,0,16959.5,0.145385,0.145101,-26.6178,9,0.0151255,10,-0.00386227,-1.57483,-0.272832,-0.21625,225.675,0.145101,
2,0,0,1,0,16959.5,0.142183,0.141893,-27.3887,9,0.0150175,10,-0.00388627,-1.56243,-0.254616,-0.231722,248.74,0.141893,
2,0,0,1,0,16959.5,0.138987,0.138692,-28.2077,9,0.0149062,10,-0.00391218,-1.54963,-0.239628,-0.246215,272.14,0.138692,
2,0,0,1,0,16959.5,0.13578,0.135474,-29.1305,9,0.0147915,10,-0.00394641,-1.53565,-0.228061,-0.258702,295.177,0.135474,
2,0,0,1,0,16959.5,0.132584,0.13232,-30.0961,9,0.0146729,10,-0.00398231,-1.52149,-0.214996,-0.274423,323.681,0.13232,
2,0,0,1,0,16959.5,0.129388,0.129102,-31.1645,9,0.0145504,10,-0.00402338,-1.50634,-0.205053,-0.28773,351.665,0.129102,
2,0,0,1,0,16959.5,0.12618,0.125952,-32.3313,9,0.0144233,10,-0.0040722,-1.49038,-0.197214,-0.299168,379.065,0.125952,
2,0,0,1,0,16959.5,0.122984,0.122735,-33.6103,9,0.0142913,10,-0.00412515,-1.47353,-0.191581,-0.307963,404.841,0.122735,
2,0,0,1,0,16959.5,0.119782,0.119493,-34.9582,9,0.014154,10,-0.00417727,-1.45645,-0.190483,-0.309739,422.77,0.119493,
2,0,0,1,0,16959.5,0.116584,0.116329,-36.3354,9,0.0140113,10,-0.00422685,-1.43967,-0.190642,-0.309481,439.121,0.116329,
2,0,0,1,0,16959.5,0.113387,0.113119,-37.7568,9,0.013863,10,-0.00427101,-1.42301,-0.192706,-0.306166,451.18,0.113119,
2,0,0,1,0,16959.5,0.110183,0.109893,-39.2492,9,0.0137089,10,-0.00431323,-1.40617,-0.197055,-0.299409,458.074,0.109893,
2,0,0,1,0,16959.5,0.106987,0.106751,-40.7071,9,0.0135488,10,-0.00434554,-1.39033,-0.203659,-0.2897,459.332,0.106751,
2,0,0,1,0,16959.5,0.103785,0.103493,-42.2153,9,0.0133828,10,-0.00436898,-1.37453,-0.214299,-0.275316,451.852,0.103493,
2,0,0,1,0,16959.5,0.100583,0.100313,-43.6392,9,0.0132109,10,-0.00437756,-1.36012,-0.223224,-0.264308,448.787,0.100313,
2,0,0,1,0,16959.5,0.0973873,0.0971928,-44.988,9,0.0130336,10,-0.00437251,-1.3469,-0.233742,-0.252415,442.996,0.0971928,
2,0,0,1,0,16959.5,0.0941801,0.0939904,-46.434,9,0.0128506,10,-0.00436435,-1.33316,-0.246964,-0.238902,432.05,0.0939904,
2,0,0,1,0,16959.5,0.0909839,0.0907922,-47.8416,9,0.0126618,10,-0.00434364,-1.32019,-0.2589,-0.227887,423.883,0.0907922,
2,0,0,1,0,16959.5,0.0877878,0.0875601,-49.1489,9,0.0124677,10,-0.00430348,-1.30849,-0.278248,-0.212041,405.35,0.0875601,
2,0,0,1,0,16959.5,0.0845806,0.0843365,-50.4376,9,0.0122684,10,-0.00425373,-1.29725,-0.301594,-0.195627,383.756,0.0843365,
2,0,0,1,0,16959.5,0.0813844,0.0811871,-51.6239,9,0.0120641,10,-0.00419119,-1.28715,-0.324392,-0.181879,365.241,0.0811871,
2,0,0,1,0,16959.6,0.0781828,0.0779549,-52.768,9,0.0118552,10,-0.00411352,-1.27763,-0.350893,-0.168142,345.268,0.0779549,
2,0,0,1,0,16959.6,0.0749838,0.0747334,-53.8337,9,0.0116419,10,-0.00402318,-1.26895,-0.380704,-0.154976,324.635,0.0747334,
2,0,0,1,0,16959.6,0.0717877,0.0715405,-54.8556,9,0.0114244,10,-0.0039244,-1.26078,-0.413542,-0.14267,304.54,0.0715405,
2,0,0,1,0,16959.6,0.0685832,0.068389,-55.7786,9,0.011203,10,-0.00381464,-1.25353,-0.45229,-0.130447,283.185,0.068389,
2,0,0,1,0,16959.6,0.0653871,0.0651463,-56.6687,9,0.010978,10,-0.00369176,-1.24666,-0.506148,-0.116567,256.99,0.0651463,
2,0,0,1,0,16959.6,0.0621854,0.0619417,-57.4561,9,0.0107496,10,-0.00355893,-1.24066,-0.573886,-0.102808,229.686,0.0619417,
2,0,0,1,0,16959.6,0.0589837,0.0586895,-58.1582,9,0.0105183,10,-0.00341327,-1.23539,-0.661362,-0.0892099,201.764,0.0586895,
2,0,0,1,0,16959.6,0.0557876,0.0555008,-58.7388,9,0.0102844,10,-0.00326005,-1.23107,-0.783012,-0.07535,172.187,0.0555008,
2,0,0,1,0,16959.6,0.0525804,0.0523313,-59.2543,9,0.0100483,10,-0.00310085,-1.22728,-0.939478,-0.0628008,144.795,0.05233128,
2,0,0,1,0,16959.6,0.0493842,0.0491151,-59.6647,9,0.00981043,10,-0.00293044,-1.22428,-1.14067,-0.0517239,120.116,0.0491151,
2,0,0,1,0,16959.6,0.0461881,0.0459201,-60.0071,9,0.00957104,10,-0.00275553,-1.2218,-1.44348,-0.0408734,95.4932,0.04592007,
2,0,0,1,0,16959.6,0.0429808,0.0427028,-60.2761,9,0.00933041,10,-0.00257396,-1.21986,-1.88413,-0.0313142,73.4912,0.0427028,
2,0,0,1,0,16959.6,0.0397847,0.039512,-60.4785,9,0.00908886,10,-0.00238963,-1.2184,-2.60329,-0.0226636,53.378,0.03951202,
2,0,0,1,0,16959.6,0.036583,0.0362746,-60.6084,9,0.00884668,10,-0.00219855,-1.21747,-4.0988,-0.0143945,33.9836,0.0362746,
2,0,0,1,0,16959.6,0.0333841,0.0330902,-60.692,9,0.00860406,10,-0.00200831,-1.21687,-7.2631,-0.00812326,19.2122,0.0330902,
2,0,0,1,0,16959.6,0.030188,0.0298814,-60.7118,9,0.00836124,10,-0.00181415,-1.21673,-27.3917,-0.00215393,5.09757,0.0298814,
2,0,0,1,0,16959.6,0.0269835,0.0266928,-60.7248,9,0.00811834,10,-0.00162091,-1.21663,20.9577,0.0028152,-6.66344,0.0266928,
2,0,0,1,0,16959.6,0.0237874,0.0234373,-60.6738,9,0.00787551,10,-0.00142203,-1.217,8.44772,0.00698413,-16.5192,0.0234373,
2,0,0,1,0,16959.6,0.0205857,0.0202996,-60.6067,9,0.00763295,10,-0.00123029,-1.21748,5.15494,0.0114453,-27.0467,0.02029958,
2,0,0,1,0,16959.6,0.017384,0.0170473,-60.4998,9,0.00739073,10,-0.00103136,-1.21825,4.01902,0.0146802,-34.6346,0.0170473,
2,0,0,1,0,16959.6,0.0141878,0.0138725,-60.378,9,0.00714899,10,-0.000837591,-1.21912,3.24575,0.0181776,-42.8002,0.01387246,
2,0,0,1,0,16959.6,0.0109806,0.0106764,-60.2319,9,0.00690777,10,-0.000643059,-1.22017,2.71883,0.0217005,-50.9613,0.0106764,
2,0,0,1,0,16959.6,0.00778448,0.0074676,-60.0575,9,0.00666719,10,-0.000448486,-1.22143,2.67295,0.022073,-51.7253,0.0074676,
2,0,0,1,0,16959.6,0.00458834,0.00427472,-59.8489,9,0.00642738,10,-0.000255837,-1.22294,2.24414,0.0262907,-61.3944,0.00427472,
2,0,0,1,0,16959.6,0.0013811,0.00103306,-59.7139,9,0.00618831,10,-6.16879e-05,-1.22392,2.02088,0.0291952,-67.9306,0.00103306,
2,0,0,1,0,16959.7,-0.00181504,-0.00219164,-59.4418,9,0.00595004,10,0.000130275,-1.22591,1.78321,0.0330865,-76.6438,-0.00219164,
2,0,0,1,0,16959.7,-0.0050195,-0.00539089,-59.184,9,0.00571283,10,0.000319054,-1.2278,1.47086,0.0401126,-92.5483,-0.00539089,
2,0,0,1,0,16959.7,-0.00821564,-0.0085562,-58.8655,9,0.00547674,10,0.000503665,-1.23014,1.35816,0.043441,-99.6859,-0.008556203,
2,0,0,1,0,16959.7,-0.0114118,-0.0117894,-58.5272,9,0.00524199,10,0.000689999,-1.23264,1.20121,0.0491173,-112.074,-0.0117894,
2,0,0,1,0,16959.7,-0.0146162,-0.0150406,-58.161,9,0.00500862,10,0.000874775,-1.23537,1.11477,0.0529256,-119.995,-0.0150406,
2,0,0,1,0,16959.7,-0.0178124,-0.0181476,-57.7543,9,0.00477681,10,0.0010481,-1.23842,1.031,0.0572261,-128.862,-0.0181476,
2,0,0,1,0,16959.7,-0.0210196,-0.0213543,-57.3298,9,0.00454665,10,0.00122423,-1.24162,0.930805,0.063386,-141.644,-0.0213543,
2,0,0,1,0,16959.7,-0.0242158,-0.0245853,-56.8783,9,0.00431826,10,0.00139837,-1.24505,0.8862,0.0665764,-147.591,-0.0245853,
2,0,0,1,0,16959.7,-0.0274119,-0.0277156,-56.3656,9,0.00409182,10,0.00156221,-1.24899,0.829842,0.0710979,-156.283,-0.0277156,
2,0,0,1,0,16959.7,-0.0306191,-0.0309573,-55.8637,9,0.00386741,10,0.00172939,-1.25287,0.792877,0.0744126,-162.152,-0.0309573,
2,0,0,1,0,16959.7,-0.0338153,-0.0341534,-55.3295,9,0.00364507,10,0.00188969,-1.25704,0.778094,0.0758263,-163.666,-0.0341534,
2,0,0,1,0,16959.7,-0.037017,-0.0373664,-54.8058,9,0.00342486,10,0.0020479,-1.26117,0.753528,0.0782984,-167.405,-0.0373664,
2,0,0,1,0,16959.7,-0.0402187,-0.0405784,-54.2604,9,0.00320678,10,0.0022018,-1.26552,0.75066,0.0785975,-166.421,-0.0405784,
2,0,0,1,0,16959.7,-0.0434148,-0.0437755,-53.7179,9,0.0029909,10,0.00235153,-1.26988,0.754984,0.0781473,-163.925,-0.0437755,
2,0,0,1,0,16959.7,-0.0466193,-0.0469875,-53.1936,9,0.00277714,10,0.00249943,-1.27414,0.767834,0.0768395,-159.635,-0.04698747,
2,0,0,1,0,16959.7,-0.0498154,-0.0501804,-52.7053,9,0.00256541,10,0.00264477,-1.27815,0.806778,0.0731304,-150.546,-0.0501804,
2,0,0,1,0,16959.7,-0.0530115,-0.0533722,-52.2181,9,0.00235561,10,0.00278699,-1.28218,0.836032,0.0705715,-143.955,-0.0533722,
2,0,0,1,0,16959.7,-0.056216,-0.056581,-51.7901,9,0.00214763,10,0.00293033,-1.28575,0.89714,0.0657646,-133.074,-0.056581,
2,0,0,1,0,16959.7,-0.0594121,-0.0597749,-51.3528,9,0.0019414,10,0.00306961,-1.28944,0.970119,0.0608173,-122.074,-0.05977492,
2,0,0,1,0,16959.7,-0.0626194,-0.0629869,-51.0011,9,0.00173675,10,0.0032124,-1.29242,1.04852,0.0562699,-112.148,-0.0629869,
2,0,0,1,0,16959.7,-0.0658155,-0.0661893,-50.6535,9,0.00153346,10,0.00335272,-1.29539,1.18868,0.0496348,-98.2543,-0.0661893,
2,0,0,1,0,16959.7,-0.0690117,-0.0693939,-50.3532,9,0.00133148,10,0.0034942,-1.29797,1.31443,0.0448863,-88.3503,-0.0693939,
2,0,0,1,0,16959.7,-0.0722189,-0.0725486,-50.0977,9,0.00113059,10,0.00363452,-1.30018,1.52368,0.038722,-75.8119,-0.0725486,
2,0,0,1,0,16959.7,-0.075415,-0.0757563,-49.8729,9,0.00093069,10,0.00377819,-1.30214,1.81491,0.0325086,-63.3693,-0.0757563,
2,0,0,1,0,16959.7,-0.0786167,-0.0789895,-49.6831,9,0.000731611,10,0.00392444,-1.30379,2.19781,0.0268449,-52.1346,-0.0789895,
2,0,0,1,0,16959.8,-0.0818184,-0.0821474,-49.545,9,0.00053317,10,0.00406999,-1.305,2.92638,0.0201614,-39.0448,-0.08214739,
2,0,0,1,0,16959.8,-0.0850146,-0.0853848,-49.4285,9,0.000335243,10,0.00422044,-1.30602,3.77637,0.0156235,-30.1759,-0.0853848,
2,0,0,1,0,16959.8,-0.088219,-0.0885628,-49.3729,9,0.00013768,10,0.0043726,-1.30651,5.84515,0.0100938,-19.4681,-0.0885628,
2,0,0,1,0,16959.8,-0.0914152,-0.0917589,-49.2977,9,-5.96393e-05,10,0.00452351,-1.30717,13.3249,0.0044278,-8.53198,-0.0917589,
2,0,0,1,0,16959.8,-0.0946141,-0.0949688,-49.2954,9,-0.00025682,10,0.00468152,-1.30719,237.879,0.000248025,-0.477883,-0.0949688,
2,0,0,1,0,16959.8,-0.0978158,-0.0981733,-49.3194,9,-0.000454057,10,0.00484185,-1.30698,-9.8535,-0.00598772,11.5372,-0.0981733,
2,0,0,1,0,16959.8,-0.101012,-0.101345,-49.3667,9,-0.000651433,10,0.00500307,-1.30657,-5.88404,-0.0100271,19.339,-0.101345,
2,0,0,1,0,16959.8,-0.104219,-0.104552,-49.4453,9,-0.00084906,10,0.00516959,-1.30587,-4.27996,-0.0137852,26.625,-0.104552,
2,0,0,1,0,16959.8,-0.107415,-0.107755,-49.5426,9,-0.00104705,10,0.00533848,-1.30502,-3.07065,-0.0192142,37.197,-0.107755,
2,0,0,1,0,16959.8,-0.110611,-0.110968,-49.6601,9,-0.00124546,10,0.00551069,-1.30399,-2.65317,-0.0222375,43.1516,-0.110968,
2,0,0,1,0,16959.8,-0.113819,-0.114157,-49.8433,9,-0.00144448,10,0.00568995,-1.30239,-2.20728,-0.0267297,52.0287,-0.114157,
2,0,0,1,0,16959.8,-0.117015,-0.117389,-49.9993,9,-0.00164418,10,0.00586936,-1.30104,-1.95917,-0.0301147,58.807,-0.117389,
2,0,0,1,0,16959.8,-0.120216,-0.120571,-50.2094,9,-0.00184462,10,0.00605381,-1.29921,-1.81576,-0.0324932,63.7221,-0.120571,
2,0,0,1,0,16959.8,-0.123418,-0.123799,-50.4146,9,-0.00204588,10,0.00624128,-1.29744,-1.61788,-0.0364674,71.8106,-0.1237991,
2,0,0,1,0,16959.8,-0.126614,-0.12695,-50.6585,9,-0.00224803,10,0.00643107,-1.29535,-1.52909,-0.038585,76.3422,-0.12695,
2,0,0,1,0,16959.8,-0.129819,-0.130171,-50.9172,9,-0.00245119,10,0.00662794,-1.29314,-1.42353,-0.0414462,82.3897,-0.130171,
2,0,0,1,0,16959.8,-0.133015,-0.133386,-51.1878,9,-0.00265542,10,0.00682774,-1.29083,-1.37426,-0.0429322,85.7962,-0.133386,
2,0,0,1,0,16959.8,-0.136214,-0.136499,-51.4609,9,-0.00286073,10,0.00702434,-1.28852,-1.34467,-0.043877,88.1511,-0.136499,
2,0,0,1,0,16959.8,-0.139416,-0.139759,-51.7575,9,-0.0030672,10,0.00723359,-1.28603,-1.28025,-0.0460847,93.1342,-0.1397593,
2,0,0,1,0,16959.8,-0.142612,-0.142959,-52.0444,9,-0.00327486,10,0.00744019,-1.28363,-1.26193,-0.0467536,95.0087,-0.142959,
2,0,0,1,0,16959.8,-0.145819,-0.146222,-52.3833,9,-0.00348373,10,0.00765961,-1.28081,-1.22275,-0.0482521,98.65,-0.146222,
2,0,0,1,0,16959.8,-0.149015,-0.149362,-52.6831,9,-0.00369391,10,0.00786887,-1.27833,-1.20453,-0.0489817,100.715,-0.149362,
2,0,0,1,0,16959.8,-0.152211,-0.152557,-53.02,9,-0.00390535,10,0.0080886,-1.27556,-1.22224,-0.0482721,99.8777,-0.152557,
2,0,0,1,0,16959.8,-0.155418,-0.155754,-53.3331,9,-0.00411811,10,0.00830688,-1.273,-1.20677,-0.0488907,101.757,-0.155754,
2,0,0,1,0,16959.8,-0.158615,-0.158947,-53.6542,9,-0.00433212,10,0.00852819,-1.2704,-1.2136,-0.0486155,101.824,-0.158947,
2,0,0,1,0,16959.9,-0.161816,-0.162134,-53.9827,9,-0.00454742,10,0.00875242,-1.26775,-1.2265,-0.0481044,101.34,-0.162134,
2,0,0,1,0,16959.9,-0.165018,-0.165324,-54.3199,9,-0.00476406,10,0.00898037,-1.26504,-1.23025,-0.0479579,101.634,-0.1653236,
2,0,0,1,0,16959.9,-0.168214,-0.168569,-54.6318,9,-0.00498201,10,0.00920926,-1.26255,-1.26928,-0.0464831,99.0744,-0.168569,
2,0,0,1,0,16959.9,-0.171419,-0.171746,-54.955,9,-0.00520121,10,0.00943833,-1.25999,-1.2905,-0.0457187,98.039,-0.171746,
2,0,0,1,0,16959.9,-0.174615,-0.174926,-55.25,9,-0.00542165,10,0.00966464,-1.25767,-1.29268,-0.0456415,98.4272,-0.174926,
2,0,0,1,0,16959.9,-0.177814,-0.178157,-55.5781,9,-0.00564334,10,0.0099016,-1.2551,-1.31769,-0.0447754,97.1065,-0.178157,
2,0,0,1,0,16959.9,-0.181015,-0.181334,-55.8881,9,-0.00586633,10,0.0101344,-1.25268,-1.32992,-0.0443636,96.728,-0.1813336,
2,0,0,1,0,16959.9,-0.184211,-0.184472,-56.1908,9,-0.00609053,10,0.0103657,-1.25033,-1.35671,-0.0434875,95.3512,-0.184472,
2,0,0,1,0,16959.9,-0.187419,-0.187746,-56.4901,9,-0.00631593,10,0.0106058,-1.24803,-1.39018,-0.0424404,93.5557,-0.187746,
2,0,0,1,0,16959.9,-0.190615,-0.190872,-56.7905,9,-0.00654254,10,0.0108397,-1.24572,-1.39334,-0.0423442,93.855,-0.190872,
2,0,0,1,0,16959.9,-0.193811,-0.19412,-57.0844,9,-0.00677033,10,0.0110812,-1.24348,-1.43149,-0.0412157,91.7643,-0.19412,
2,0,0,1,0,16959.9,-0.197018,-0.197365,-57.4008,9,-0.00699936,10,0.0113289,-1.24108,-1.67279,-0.0352704,78.7,-0.197365,
2,0,0,1,0,16959.9,-0.199647,-0.199964,-57.6113,9,-0.00718915,10,0.0115202,-1.23949,0.255704,0.230735,-501.879,-0.1999644,
2,0,0,1,0,16959.9,-0.200134,-0.200647,-57.5598,9,-0.00722372,10,0.0115492,-1.23988,-0.0134786,-4.37733,8902.43,-0.200647,
2,0,0,1,1,16959.9,-0.198935,-0.199458,-54.4053,9,-0.00730675,10,0.0108516,-1.26436,-0.048761,-1.20998,2317.5,-0.199458,
2,0,0,1,1,16959.9,-0.195739,-0.196214,-47.1581,9,-0.00750855,10,0.0092531,-1.32644,-0.0551428,-1.06995,1931.19,-0.196214,
2,0,0,1,1,16959.9,-0.192535,-0.192982,-41.43,9,-0.00768486,10,0.00799525,-1.38269,-0.0566145,-1.04214,1721.59,-0.192982,
2,0,0,1,1,16959.9,-0.189339,-0.189755,-36.5264,9,-0.00784011,10,0.00693108,-1.43739,-0.0579666,-1.01783,1466.14,-0.189755,
2,0,0,1,1,16959.9,-0.186137,-0.186553,-32.188,9,-0.00797695,10,0.00600476,-1.49231,-0.0572471,-1.03062,1300.84,-0.186553,
2,0,0,1,1,16959.9,-0.182935,-0.183328,-28.2654,9,-0.00809737,10,0.00518185,-1.54874,-0.0551106,-1.07057,1181.43,-0.183328,
2,0,0,1,1,16959.9,-0.179739,-0.180114,-24.6908,9,-0.00820281,10,0.00444715,-1.60747,-0.0523971,-1.12602,1081.46,-0.180114,
2,0,0,1,1,16959.9,-0.176532,-0.17693,-21.3738,9,-0.00829455,10,0.00378166,-1.67012,-0.0490294,-1.20336,996.958,-0.17693,
2,0,0,1,1,16959.9,-0.173336,-0.173735,-18.3256,9,-0.00837359,10,0.00318379,-1.73694,-0.0446512,-1.32135,932.16,-0.173735,
2,0,0,1,1,16959.9,-0.17014,-0.170493,-15.4693,9,-0.00844085,10,0.0026374,-1.81053,-0.039845,-1.48074,873.611,-0.170493,
2,0,0,1,1,16959.9,-0.166932,-0.167319,-12.7639,9,-0.00849698,10,0.00213564,-1.89402,-0.0344956,-1.71036,822.796,-0.167319,
2,0,0,1,1,16959.9,-0.163736,-0.164162,-10.2201,9,-0.00854267,10,0.00167776,-1.99054,-0.0284927,-2.07071,780.725,-0.164162,
2,0,0,1,1,16959.9,-0.160532,-0.160949,-7.80587,9,-0.00857844,10,0.00125635,-2.10758,-0.0220476,-2.67603,735.835,-0.160949,
2,0,0,1,1,16960,-0.157336,-0.15776,-5.52803,9,-0.00860485,10,0.000872101,-2.25743,-0.0141483,-4.17011,698.11,-0.15776,
2,0,0,1,1,16960,-0.154139,-0.154539,-3.35991,9,-0.00862238,10,0.000519237,-2.47367,-0.0123297,-4.78519,666.872,-0.154539,
2,0,0,1,1,16960,-0.150935,-0.151339,-1.26793,9,-0.00863141,10,0.000191887,-2.89691,-0.0393683,-1.49867,638.047,-0.151339,
2,1,0,1,1,16960,-0.147739,-0.148168,0.717483,9,-0.00863228,10,-0.000106308,-3.14419,0.105587,0.558782,612.574,-0.148168,
2,1,0,1,1,16960,-0.144532,-0.14499,2.61947,9,-0.0086254,10,-0.000379797,-2.58179,0.0184524,3.19742,587.021,-0.14499,
2,1,0,1,1,16960,-0.141335,-0.141815,4.43438,9,-0.00861108,10,-0.000628864,-2.35317,0.0122688,4.80894,561.344,-0.141815,
2,1,0,1,1,16960,-0.138139,-0.138628,6.19375,9,-0.00858962,10,-0.000858626,-2.20805,0.0228254,2.58484,538.671,-0.138628,
2,1,0,1,1,16960,-0.134932,-0.135395,7.88789,9,-0.00856127,10,-0.00106798,-2.10304,0.032238,1.83014,518.308,-0.135395,
2,1,0,1,1,16960,-0.131736,-0.132222,9.49741,9,-0.00852632,10,-0.00125577,-2.02239,0.0415418,1.42026,500.335,-0.132222,
2,1,0,1,1,16960,-0.12854,-0.128995,11.0793,9,-0.00848499,10,-0.00142917,-1.95549,0.0508158,1.16106,484.3,-0.128995,
2,1,0,1,1,16960,-0.125333,-0.125795,12.6146,9,-0.00843743,10,-0.00158685,-1.89913,0.0601978,0.980102,469.082,-0.1257948,
2,1,0,1,1,16960,-0.122136,-0.122602,14.0834,9,-0.00838387,10,-0.00172665,-1.85129,0.0699451,0.843519,453.725,-0.122602,
2,1,0,1,1,16960,-0.118932,-0.119381,15.5206,9,-0.00832454,10,-0.00185288,-1.80909,0.080154,0.736083,438.171,-0.119381,
2,1,0,1,1,16960,-0.115736,-0.11618,16.8938,9,-0.00825956,10,-0.00196272,-1.77227,0.0905461,0.651602,423.503,-0.11618,
2,1,0,1,1,16960,-0.11254,-0.112966,18.2358,9,-0.00818918,10,-0.00206002,-1.73908,0.101929,0.578834,406.87,-0.112966,
2,1,0,1,1,16960,-0.109335,-0.109767,19.5191,9,-0.0081135,10,-0.00214255,-1.70954,0.112476,0.524557,395.542,-0.109767,
2,1,0,1,1,16960,-0.106139,-0.106518,20.7545,9,-0.00803281,10,-0.00221072,-1.68289,0.123625,0.477251,383.438,-0.106518,
2,1,0,1,1,16960,-0.102932,-0.103344,21.971,9,-0.00794724,10,-0.00227057,-1.65815,0.136024,0.433748,369.076,-0.103344,
2,1,0,1,1,16960,-0.0997357,-0.100199,23.1312,9,-0.00785689,10,-0.00231772,-1.6358,0.146999,0.401363,359.953,-0.100199,
2,1,0,1,1,16960,-0.0965395,-0.0969263,24.2583,9,-0.00776196,10,-0.00235126,-1.61514,0.160019,0.368706,347.109,-0.0969263,
2,1,0,1,1,16960,-0.0933323,-0.093727,25.3586,9,-0.00766262,10,-0.00237678,-1.59588,0.173149,0.340747,335.546,-0.09372703,
2,1,0,1,1,16960,-0.0901362,-0.0905554,26.41,9,-0.00755896,10,-0.00239157,-1.57823,0.184425,0.319913,328.366,-0.0905554,
2,1,0,1,1,16960,-0.0869345,-0.0873073,27.4569,9,-0.00745114,10,-0.00239719,-1.56135,0.197504,0.298728,318.726,-0.0873073,
2,1,0,1,1,16960,-0.0837328,-0.0841484,28.4541,9,-0.0073392,10,-0.00239437,-1.54586,0.211245,0.279297,308.894,-0.0841484,
2,1,0,1,1,16960,-0.0805366,-0.0809862,29.4194,9,-0.00722335,10,-0.00238256,-1.53137,0.227077,0.259824,297.291,-0.0809862,
2,1,0,1,1,16960.1,-0.0773322,-0.0777711,30.359,9,-0.00710372,10,-0.00236105,-1.51771,0.241965,0.243837,287.943,-0.07777109,
2,1,0,1,1,16960.1,-0.074136,-0.0745082,31.262,9,-0.0069804,10,-0.00232927,-1.50498,0.257942,0.228733,278.273,-0.0745082,
2,1,0,1,1,16960.1,-0.0709371,-0.0713577,32.1371,9,-0.00685351,10,-0.00229323,-1.49299,0.274516,0.214924,268.852,-0.0713577,
2,1,0,1,1,16960.1,-0.0677354,-0.0681373,32.9949,9,-0.00672314,10,-0.00224818,-1.48155,0.289415,0.20386,261.793,-0.0681373,
2,1,0,1,1,16960.1,-0.0645393,-0.0649412,33.8083,9,-0.00658943,10,-0.00219556,-1.47098,0.30818,0.191447,251.996,-0.06494122,
2,1,0,1,1,16960.1,-0.061332,-0.0617388,34.6049,9,-0.00645252,10,-0.00213647,-1.46086,0.325831,0.181076,244.033,-0.0617388,
2,1,0,1,1,16960.1,-0.0581359,-0.0585311,35.3693,9,-0.00631247,10,-0.00207021,-1.45137,0.345776,0.170631,235.039,-0.0585311,
2,1,0,1,1,16960.1,-0.0549398,-0.0553445,36.1168,9,-0.00616943,10,-0.00199887,-1.44229,0.364252,0.161976,227.83,-0.0553445,
2,1,0,1,1,16960.1,-0.0517325,-0.0521039,36.8256,9,-0.00602345,10,-0.00191876,-1.43385,0.38618,0.152778,219.113,-0.0521039,
2,1,0,1,1,16960.1,-0.0485364,-0.0489598,37.5163,9,-0.0058747,10,-0.00183679,-1.42578,0.412014,0.143199,209.254,-0.0489598,
2,1,0,1,1,16960.1,-0.0453347,-0.0457786,38.1636,9,-0.00572327,10,-0.00174708,-1.41835,0.43453,0.135779,201.888,-0.04577861,
2,1,0,1,1,16960.1,-0.042133,-0.0425157,38.8012,9,-0.00556927,10,-0.00164966,-1.41115,0.463741,0.127226,192.358,-0.0425157,
2,1,0,1,1,16960.1,-0.0389369,-0.0393441,39.4017,9,-0.00541282,10,-0.00155022,-1.40449,0.491915,0.119939,184.137,-0.0393441,
2,1,0,1,1,16960.1,-0.0357324,-0.0360897,39.992,9,-0.005254,10,-0.0014433,-1.39803,0.521791,0.113072,176.151,-0.0360897,
2,1,0,1,1,16960.1,-0.0325363,-0.0328894,40.537,9,-0.00509287,10,-0.00133323,-1.39215,0.55684,0.105955,167.33,-0.0328894,
2,1,0,1,1,16960.1,-0.0293374,-0.0297187,41.0554,9,-0.00492966,10,-0.00122012,-1.38663,0.594389,0.0992615,158.821,-0.0297187,
2,1,0,1,1,16960.1,-0.0261357,-0.0265121,41.5489,9,-0.00476437,10,-0.00110155,-1.38144,0.62945,0.0937326,151.807,-0.0265121,
2,1,0,1,1,16960.1,-0.0229395,-0.0233171,42.0206,9,-0.00459718,10,-0.000979797,-1.37654,0.672218,0.0877691,143.752,-0.0233171,
2,1,0,1,1,16960.1,-0.0197323,-0.0201146,42.4763,9,-0.00442814,10,-0.000854395,-1.37185,0.722074,0.0817091,135.225,-0.02011464,
2,1,0,1,1,16960.1,-0.0165361,-0.016943,42.892,9,-0.00425735,10,-0.000726717,-1.36762,0.771402,0.0764841,127.855,-0.016943,
2,1,0,1,1,16960.1,-0.01334,-0.0137543,43.274,9,-0.00408496,10,-0.000595205,-1.36377,0.83696,0.0704932,118.941,-0.0137543,
2,1,0,1,1,16960.1,-0.0101328,-0.010519,43.6569,9,-0.00391104,10,-0.000459227,-1.35995,0.900682,0.0655059,111.471,-0.010519,
2,1,0,1,1,16960.1,-0.00693663,-0.00730598,43.9997,9,-0.00373568,10,-0.000321461,-1.35655,0.963299,0.0612479,105.01,-0.00730598,
2,1,0,1,1,16960.1,-0.00373494,-0.00411628,44.3218,9,-0.00355902,10,-0.000182441,-1.35338, , , ,-0.00411628,
2,1,0,1,1,16960.1,-0.000774628,-0.00116835,44.5957,9,-0.00339449,10,-5.21032e-05,-1.35071, , , ,-0.00116835,
2,1,0,0,1,16960.1,-0.000125413,-0.000516197,44.6601,9,-0.00335879,10,-2.30534e-05,-1.35008, , , ,-0.000516197,