File: Figure_codes/Fig_3-5/rawdata_trumpetplot_data/after 10th/20221101_1-115_003_TrumpetPlot_ParaChange_from10_every3_04_CV_C01_22.csv
mode,ox/red,error,control changes,counter inc.,time/s,control/V,Ewe/V,<I>/mA,cycle number,(Q-Qo)/C,I Range,P/W,log(|I|),Tafel slope mV/dec,alpha_eff,dI/d(E-IR),E-IR/V,
2,0,0,1,0,44402.9,2.44065e-05,-0.000382585,-0.376704,23,0.0000000E+000,10,1.44121e-07,-3.424, , , ,-0.000382585,
2,1,0,1,0,44403,0.00129787,0.000902627,0.122348,23,-3.50421e-06,10,1.10435e-07,-3.9124, , , ,0.000902627,
2,1,0,1,0,44403.2,0.00279606,0.00245718,0.261133,23,2.96922e-05,10,6.41651e-07,-3.58314,0.00352108,16.7562,70.756,0.00245718,
2,1,0,1,0,44403.3,0.00429425,0.00393751,0.302696,23,7.45642e-05,10,1.19187e-06,-3.51899,0.0258436,2.28296,25.2987,0.00393751,
2,1,0,1,0,44403.5,0.00579244,0.00546874,0.329159,23,0.000124391,10,1.80008e-06,-3.48259,0.0444807,1.32642,16.7819,0.00546874,
2,1,0,1,0,44403.6,0.00729063,0.00695755,0.352757,23,0.00017794,10,2.45432e-06,-3.45252,0.0594753,0.992009,13.5144,0.00695755,
2,1,0,1,0,44403.8,0.00878882,0.00844212,0.370648,23,0.000234562,10,3.12906e-06,-3.43104,0.0806169,0.731857,10.5466,0.008442116,
2,1,0,1,0,44403.9,0.010287,0.00998501,0.387132,23,0.000293798,10,3.86552e-06,-3.41214,0.0931716,0.63324,9.49535,0.00998501,
2,1,0,1,0,44404.1,0.0117852,0.0114537,0.398913,23,0.000355195,10,4.56902e-06,-3.39912,0.0998225,0.591049,9.22306,0.01145367,
2,1,0,1,0,44404.2,0.0132838,0.0129565,0.413137,23,0.00041843,10,5.35279e-06,-3.38391,0.106099,0.556084,9.00092,0.0129565,
2,1,0,1,0,44404.4,0.0147814,0.0144713,0.425035,23,0.000483668,10,6.1508e-06,-3.37158,0.118773,0.496746,8.21081,0.0144713,
2,1,0,1,0,44404.5,0.0162789,0.0159885,0.436739,23,0.000550888,10,6.98279e-06,-3.35978,0.135896,0.434156,7.38136,0.0159885,
2,1,0,1,0,44404.7,0.017778,0.0174322,0.447211,23,0.000619563,10,7.79588e-06,-3.34949,0.159215,0.370567,6.46832,0.0174322,
2,1,0,1,0,44404.8,0.0192761,0.0189847,0.457308,23,0.000689587,10,8.68184e-06,-3.33979,0.157788,0.373921,6.68811,0.0189847,
2,1,0,1,0,44405,0.0207743,0.020448,0.467723,23,0.000761328,10,9.56401e-06,-3.33001,0.136214,0.433143,7.88579,0.020448,
2,1,0,1,0,44405.1,0.0222725,0.021957,0.480296,23,0.000834754,10,1.05459e-05,-3.31849,0.154642,0.381527,7.13442,0.021957,
2,1,0,1,0,44405.3,0.0237707,0.0234554,0.490308,23,0.000909726,10,1.15003e-05,-3.30953,0.166827,0.35366,6.76802,0.0234554,
2,1,0,1,0,44405.4,0.0252689,0.0249781,0.497843,23,0.000986118,10,1.24352e-05,-3.30291,0.163668,0.360485,7.04832,0.0249781,
2,1,0,1,0,44405.6,0.0267671,0.0264033,0.508906,23,0.00106406,10,1.34368e-05,-3.29336,0.148808,0.396483,7.88398,0.02640328,
2,1,0,1,0,44405.7,0.0282662,0.0279564,0.521061,23,0.00114377,10,1.4567e-05,-3.28311,0.169898,0.347268,7.05932,0.0279564,
2,1,0,1,0,44405.9,0.0297635,0.0294371,0.530436,23,0.00122494,10,1.56145e-05,-3.27537,0.199091,0.296346,6.1272,0.0294371,
2,1,0,1,0,44406,0.031261,0.030953,0.538144,23,0.00130746,10,1.66572e-05,-3.2691,0.183457,0.321602,6.78699,0.030953,
2,1,0,1,0,44406.2,0.0327599,0.0324646,0.550601,23,0.00139138,10,1.7875e-05,-3.25916,0.190618,0.309519,6.63173,0.0324646,
2,1,0,1,0,44406.3,0.034258,0.0338855,0.562161,23,0.00147696,10,1.90491e-05,-3.25014,0.181306,0.325417,7.11621,0.0338855,
2,1,0,1,0,44406.5,0.0357562,0.035421,0.570053,23,0.0015641,10,2.01918e-05,-3.24408,0.218784,0.269672,5.9898,0.035421,
2,1,0,1,0,44406.6,0.0372544,0.0369352,0.579755,23,0.00165275,10,2.14134e-05,-3.23676,0.199285,0.296059,6.72122,0.03693524,
2,1,0,1,0,44406.8,0.0387526,0.0384272,0.589867,23,0.00174267,10,2.2667e-05,-3.22925,0.191917,0.307425,7.10458,0.03842723,
2,1,0,1,0,44406.9,0.0402508,0.0399139,0.602161,23,0.00183429,10,2.40346e-05,-3.22029,0.204857,0.288006,6.7674,0.0399139,
2,1,0,1,0,44407.1,0.041749,0.0414006,0.611307,23,0.0019277,10,2.53085e-05,-3.21374,0.21645,0.272581,6.48674,0.0414006,
2,1,0,1,0,44407.2,0.0432472,0.0429435,0.623567,23,0.00202255,10,2.67781e-05,-3.20512,0.236447,0.249528,6.05561,0.0429435,
2,1,0,1,0,44407.4,0.0447458,0.0444212,0.630664,23,0.00211867,10,2.80148e-05,-3.2002,0.233256,0.252941,6.22077,0.0444212,
2,1,0,1,0,44407.5,0.0462433,0.0459046,0.642242,23,0.00221637,10,2.94819e-05,-3.1923,0.2104,0.280418,7.01509,0.0459046,
2,1,0,1,0,44407.7,0.0477409,0.0474198,0.650565,23,0.00231553,10,3.08497e-05,-3.18671,0.225219,0.261968,6.6478,0.0474198,
2,1,0,1,0,44407.8,0.0492399,0.0489337,0.660805,23,0.0024162,10,3.23357e-05,-3.17993,0.252888,0.233305,6.01281,0.0489337,
2,1,0,1,0,44408,0.0507381,0.0504512,0.666512,23,0.00251805,10,3.36263e-05,-3.17619,0.245623,0.240205,6.26965,0.0504512,
2,1,0,1,0,44408.1,0.0522363,0.0519029,0.679465,23,0.00262123,10,3.52662e-05,-3.16783,0.245914,0.239921,6.3626,0.0519029,
2,1,0,1,0,44408.3,0.0537345,0.053398,0.687742,23,0.00272598,10,3.67241e-05,-3.16257,0.254584,0.231751,6.20773,0.053398,
2,1,0,1,0,44408.4,0.0552327,0.054925,0.696676,23,0.00283214,10,3.8265e-05,-3.15697,0.322684,0.182841,4.95525,0.054925,
2,1,0,1,0,44408.6,0.0567309,0.0563884,0.701906,23,0.00293935,10,3.95793e-05,-3.15372,0.323329,0.182477,5.01122,0.0563884,
2,1,0,1,0,44408.7,0.0582291,0.0578645,0.712177,23,0.0030476,10,4.12097e-05,-3.14741,0.305061,0.193404,5.37955,0.05786448,
2,1,0,1,0,44408.9,0.0597282,0.0594219,0.720896,23,0.00315731,10,4.2837e-05,-3.14213,0.299875,0.196749,5.52494,0.0594219,
2,1,0,1,0,44409,0.0612255,0.0609377,0.728893,23,0.00326825,10,4.44171e-05,-3.13734,0.344161,0.171431,4.86468,0.0609377,
2,1,0,1,0,44409.2,0.062723,0.0624056,0.734954,23,0.0033803,10,4.58652e-05,-3.13374,0.351631,0.167789,4.81646,0.0624056,
2,1,0,1,0,44409.3,0.0642218,0.0638908,0.742512,23,0.00349332,10,4.74397e-05,-3.1293,0.308225,0.191419,5.56163,0.06389077,
2,1,0,1,0,44409.5,0.06572,0.0654209,0.750109,23,0.00360756,10,4.90728e-05,-3.12488,0.28878,0.204308,5.97486,0.0654209,
2,1,0,1,0,44409.6,0.0672182,0.0668652,0.759747,23,0.00372318,10,5.08006e-05,-3.11933,0.411147,0.143501,4.23154,0.0668652,
2,1,0,1,0,44409.8,0.0687164,0.0683625,0.765332,23,0.00383974,10,5.232e-05,-3.11615,0.521036,0.113236,3.37268,0.0683625,
2,1,0,1,0,44409.9,0.0702146,0.0698937,0.769823,23,0.0039569,10,5.38058e-05,-3.11361,0.434889,0.135667,4.08531,0.0698937,
2,1,0,1,0,44410.1,0.0717128,0.0714175,0.775954,23,0.00407499,10,5.54167e-05,-3.11016,0.387285,0.152343,4.6114,0.07141754,
2,1,0,1,0,44410.2,0.073211,0.0729074,0.782482,23,0.0041942,10,5.70487e-05,-3.10653,0.422628,0.139603,4.26623,0.0729074,
2,1,0,1,0,44410.4,0.0747092,0.0743824,0.789499,23,0.00431433,10,5.87249e-05,-3.10265,0.504942,0.116845,3.59414,0.0743824,
2,1,0,1,0,44410.5,0.0762078,0.0758517,0.79209,23,0.00443516,10,6.00814e-05,-3.10123,0.532339,0.110832,3.43432,0.0758517,
2,1,0,1,0,44410.7,0.0777053,0.0773778,0.79921,23,0.00455671,10,6.18411e-05,-3.09734,0.415883,0.141867,4.41654,0.0773778,
2,1,0,1,0,44410.8,0.0792029,0.078902,0.805993,23,0.00467913,10,6.35945e-05,-3.09367,0.487692,0.120978,3.7942,0.078902,
2,1,0,1,0,44411,0.0807019,0.080396,0.809534,23,0.00480266,10,6.50833e-05,-3.09177,0.547643,0.107734,3.39584,0.080396,
2,1,0,1,0,44411.1,0.0822001,0.0818604,0.814124,23,0.00492677,10,6.66446e-05,-3.08931,0.610385,0.0966603,3.07666,0.0818604,
2,1,0,1,0,44411.3,0.0836983,0.083362,0.819528,23,0.0050515,10,6.83174e-05,-3.08644,0.491355,0.120076,3.85725,0.083362,
2,1,0,1,0,44411.4,0.0851965,0.0848911,0.827817,23,0.00517733,10,7.02742e-05,-3.08207,0.413618,0.142644,4.6056,0.0848911,
2,1,0,1,0,44411.6,0.0866947,0.0863714,0.835178,23,0.00530432,10,7.21355e-05,-3.07822,0.498108,0.118448,3.85454,0.0863714,
2,1,0,1,0,44411.7,0.0881929,0.0878867,0.84276,23,0.00543233,10,7.40674e-05,-3.0743,0.422587,0.139616,4.59211,0.0878867,
2,1,0,1,0,44411.9,0.0896911,0.0893649,0.848626,23,0.00556119,10,7.58374e-05,-3.07128,0.380216,0.155175,5.15594,0.0893649,
2,1,0,1,0,44412,0.0911902,0.0908831,0.85927,23,0.00569158,10,7.80931e-05,-3.06587,0.275118,0.214453,7.18661,0.0908831,
2,1,0,1,0,44412.2,0.0926875,0.0923983,0.8713,23,0.00582361,10,8.05067e-05,-3.05983,0.259776,0.227118,7.7016,0.0923983,
2,1,0,1,0,44412.3,0.094185,0.093851,0.880078,23,0.0059571,10,8.25962e-05,-3.05548,0.267183,0.220822,7.5951,0.093851,
2,1,0,1,0,44412.5,0.0956838,0.0953244,0.890925,23,0.00609226,10,8.49269e-05,-3.05016,0.228259,0.258478,9.00326,0.0953244,
2,1,0,1,0,44412.6,0.097182,0.0968864,0.904464,23,0.00622918,10,8.76303e-05,-3.04361,0.209902,0.281083,9.93416,0.0968864,
2,1,0,1,0,44412.8,0.0986802,0.0983455,0.919838,23,0.00636833,10,9.04619e-05,-3.03629,0.205666,0.286873,10.2941,0.0983455,
2,1,0,1,0,44412.9,0.100178,0.0998873,0.934594,23,0.00650972,10,9.33541e-05,-3.02938,0.220033,0.268142,9.77615,0.0998873,
2,1,0,1,0,44413,0.101677,0.10134,0.946819,23,0.00665328,10,9.59508e-05,-3.02373,0.204852,0.288013,10.6892,0.10134,
2,1,0,1,0,44413.2,0.103175,0.102867,0.966613,23,0.0067991,10,9.94326e-05,-3.01475,0.203039,0.290584,10.9703,0.102867,
2,1,0,1,0,44413.3,0.104673,0.104337,0.985744,23,0.00694773,10,0.000102849,-3.00624,0.200667,0.29402,11.2783,0.104337,
2,1,0,1,0,44413.5,0.106171,0.105833,1.00375,23,0.00709903,10,0.00010623,-2.99837,0.226399,0.260602,10.1531,0.105833,
2,1,0,1,0,44413.6,0.10767,0.107319,1.01687,23,0.00725288,10,0.00010913,-2.99273,0.228455,0.258256,10.2376,0.107319,
2,1,0,1,0,44413.8,0.109167,0.108818,1.03226,23,0.00740861,10,0.000112329,-2.98621,0.229562,0.257012,10.3772,0.108818,
2,1,0,1,0,44413.9,0.110665,0.110326,1.04788,23,0.00756692,10,0.000115609,-2.97969,0.233271,0.252925,10.3359,0.110326,
2,1,0,1,0,44414.1,0.112164,0.111865,1.06105,23,0.00772752,10,0.000118694,-2.97426,0.29107,0.202701,8.3926,0.111865,
2,1,0,1,0,44414.2,0.113662,0.113347,1.07394,23,0.00789,10,0.000121728,-2.96902,0.315333,0.187104,7.83926,0.113347,
2,1,0,1,0,44414.4,0.11516,0.114809,1.08521,23,0.00805402,10,0.000124592,-2.96449,0.33156,0.177947,7.52765,0.114809,
2,1,0,1,0,44414.5,0.116658,0.11634,1.0963,23,0.00821989,10,0.000127543,-2.96007,0.342725,0.17215,7.3562,0.11634,
2,1,0,1,0,44414.7,0.118157,0.117842,1.1068,23,0.00838751,10,0.000130428,-2.95593,0.426278,0.138407,5.96691,0.117842,
2,1,0,1,0,44414.8,0.119655,0.119328,1.11424,23,0.00855658,10,0.00013296,-2.95302,0.608186,0.0970098,4.21494,0.119328,
2,1,0,1,0,44415,0.121153,0.120834,1.11961,23,0.00872644,10,0.000135286,-2.95093,0.624302,0.0945055,4.13989,0.120834,
2,1,0,1,0,44415.1,0.122652,0.122356,1.12814,23,0.00889738,10,0.000138036,-2.94764,0.478521,0.123297,5.42586,0.122356,
2,1,0,1,0,44415.3,0.124149,0.123813,1.13504,23,0.00906938,10,0.000140533,-2.94499,0.538667,0.10953,4.84598,0.123813,
2,1,0,1,0,44415.4,0.125647,0.125329,1.1417,23,0.00924236,10,0.000143087,-2.94245,0.775774,0.0760531,3.383,0.125329,
2,1,0,1,0,44415.6,0.127146,0.126792,1.14094,23,0.00941615,10,0.000144661,-2.94274,0.732839,0.0805088,3.59504,0.126792,
2,1,0,1,0,44415.7,0.128644,0.12833,1.14907,23,0.00959039,10,0.000147459,-2.93965,0.832142,0.0709013,3.17884,0.12833,
2,1,0,1,0,44415.9,0.130142,0.129834,1.15577,23,0.00976548,10,0.000150058,-2.93713,1.52135,0.0387813,1.7419,0.129834,
2,1,0,1,0,44416,0.13164,0.131258,1.15355,23,0.009941,10,0.000151413,-2.93796,-2.13494,-0.0276355,-1.24168,0.131258,
2,1,0,1,0,44416.2,0.133139,0.132798,1.15261,23,0.0101164,10,0.000153064,-2.93832,-1.25636,-0.0469609,-2.1106,0.132798,
2,1,0,1,0,44416.3,0.134637,0.134321,1.14828,23,0.010291,10,0.000154238,-2.93995,-0.574712,-0.10266,-4.59468,0.134321,
2,1,0,1,0,44416.5,0.136135,0.135823,1.13973,23,0.0104649,10,0.000154802,-2.9432,-0.349503,-0.168811,-7.48299,0.135823,
2,1,0,1,0,44416.6,0.137633,0.137309,1.12811,23,0.0106374,10,0.000154899,-2.94765,-0.233861,-0.252286,-11.0433,0.137309,
2,1,0,1,0,44416.8,0.139132,0.138813,1.10824,23,0.0108074,10,0.000153839,-2.95536,-0.172393,-0.342242,-14.725,0.138813,
2,1,0,1,0,44416.9,0.140629,0.1403,1.08284,23,0.0109737,10,0.000151922,-2.96544,-0.138649,-0.425534,-17.9302,0.1403,
2,1,0,1,0,44417.1,0.142127,0.141819,1.05479,23,0.0111362,10,0.000149589,-2.97683,-0.122483,-0.4817,-19.6973,0.141819,
2,1,0,1,0,44417.2,0.143626,0.14331,1.02084,23,0.0112943,10,0.000146296,-2.99104,-0.0993031,-0.59414,-23.5628,0.14331,
2,1,0,1,0,44417.4,0.145124,0.144827,0.980402,23,0.0114467,10,0.000141989,-3.0086,-0.0826509,-0.713846,-27.2857,0.144827,
2,1,0,1,0,44417.5,0.146622,0.146272,0.937547,23,0.0115929,10,0.000137137,-3.02801,-0.0776076,-0.760235,-27.8336,0.146272,
2,1,0,1,0,44417.7,0.14812,0.147815,0.89725,23,0.0117328,10,0.000132627,-3.04709,-0.0741596,-0.795582,-27.8333,0.147815,
2,1,0,1,0,44417.8,0.149619,0.149294,0.857469,23,0.0118665,10,0.000128015,-3.06678,-0.0726291,-0.812346,-27.153,0.1492938,
2,1,0,1,0,44418,0.151117,0.150826,0.817393,23,0.0119941,10,0.000123284,-3.08757,-0.0715038,-0.825131,-26.2864,0.150826,
2,1,0,1,0,44418.1,0.152615,0.152259,0.778424,23,0.0121158,10,0.000118522,-3.10878,-0.0769336,-0.766896,-23.4105,0.152259,
2,1,0,1,0,44418.3,0.154114,0.15373,0.745519,23,0.0122323,10,0.000114609,-3.12754,-0.082744,-0.713042,-20.8793,0.15373,
2,1,0,1,0,44418.4,0.155612,0.155293,0.718415,23,0.0123443,10,0.000111565,-3.14362,-0.095884,-0.615327,-17.296,0.155293,
2,1,0,1,0,44418.6,0.157109,0.156796,0.692221,23,0.0124523,10,0.000108538,-3.15976,-0.100046,-0.589731,-15.9809,0.156796,
2,1,0,1,0,44418.7,0.158608,0.158299,0.671017,23,0.0125569,10,0.000106221,-3.17327,-0.113561,-0.519546,-13.6778,0.158299,
2,1,0,1,0,44418.9,0.160106,0.159834,0.65342,23,0.0126583,10,0.000104439,-3.18481,-0.128863,-0.457849,-11.7181,0.159834,
2,1,0,1,0,44419,0.161604,0.161294,0.637779,23,0.0127573,10,0.00010287,-3.19533,-0.151375,-0.38976,-9.72741,0.1612944,
2,1,0,1,0,44419.2,0.163102,0.162792,0.625252,23,0.0128542,10,0.000101786,-3.20394,-0.171087,-0.344854,-8.41302,0.1627917,
2,1,0,1,0,44419.3,0.164601,0.164238,0.614407,23,0.0129493,10,0.000100909,-3.21154,-0.19872,-0.2969,-7.11326,0.1642381,
2,1,0,1,0,44419.5,0.166099,0.165749,0.60207,23,0.0130425,10,9.97925e-05,-3.22035,-0.222486,-0.265185,-6.25446,0.165749,
2,1,0,1,0,44419.6,0.167597,0.167283,0.593966,23,0.0131345,10,9.93601e-05,-3.22624,-0.27124,-0.21752,-5.05376,0.167283,
2,1,0,1,0,44419.8,0.169095,0.168752,0.587787,23,0.0132254,10,9.91904e-05,-3.23078,-0.299153,-0.197224,-4.52916,0.168752,
2,1,0,1,0,44419.9,0.170594,0.170277,0.580718,23,0.0133152,10,9.88827e-05,-3.23603,-0.298673,-0.19754,-4.48404,0.170277,
2,1,0,1,0,44420.1,0.172091,0.171784,0.57344,23,0.0134038,10,9.85077e-05,-3.24151,-0.378092,-0.156047,-3.5052,0.171784,
2,1,0,1,0,44420.2,0.173589,0.173273,0.569485,23,0.0134917,10,9.86764e-05,-3.24452,-0.5061,-0.116578,-2.589,0.173273,
2,1,0,1,0,44420.4,0.175088,0.174714,0.565109,23,0.013579,10,9.87324e-05,-3.24787,-0.463305,-0.127346,-2.80468,0.174714,
2,1,0,1,0,44420.5,0.176586,0.176245,0.562671,23,0.0136657,10,9.9168e-05,-3.24975,-0.516284,-0.114278,-2.50279,0.176245,
2,1,0,1,0,44420.7,0.178084,0.177764,0.555215,23,0.0137518,10,9.8697e-05,-3.25554,-0.518224,-0.11385,-2.47102,0.177764,
2,1,0,1,0,44420.8,0.179582,0.179246,0.554185,23,0.0138372,10,9.93354e-05,-3.25635,-0.589175,-0.10014,-2.1721,0.179246,
2,1,0,1,0,44421,0.181081,0.180768,0.551228,23,0.0139222,10,9.96443e-05,-3.25867,-0.719717,-0.0819766,-1.76902,0.180768,
2,1,0,1,0,44421.1,0.182579,0.182265,0.551264,23,0.014007,10,0.000100476,-3.25864,-0.561213,-0.10513,-2.25472,0.182265,
2,1,0,1,0,44421.3,0.184077,0.18372,0.547509,23,0.0140913,10,0.000100588,-3.26161,-1.16593,-0.0506034,-1.08125,0.18372,
2,1,0,1,0,44421.4,0.185576,0.18527,0.546416,23,0.0141752,10,0.000101235,-3.26248,-0.95532,-0.0617594,-1.31271,0.18527,
2,1,0,1,0,44421.6,0.187074,0.186757,0.544059,23,0.0142589,10,0.000101607,-3.26435,-0.895441,-0.0658893,-1.39354,0.186757,
2,1,0,1,0,44421.7,0.188571,0.188234,0.54071,23,0.0143423,10,0.00010178,-3.26704,-1.47561,-0.0399835,-0.843782,0.188234,
2,1,0,1,0,44421.9,0.19007,0.189748,0.539052,23,0.0144254,10,0.000102284,-3.26837,-1.30147,-0.0453334,-0.954356,0.189748,
2,1,0,1,0,44422,0.191568,0.191236,0.535354,23,0.0145081,10,0.000102379,-3.27136,-0.966626,-0.0610371,-1.28169,0.191236,
2,1,0,1,0,44422.2,0.193066,0.192759,0.535657,23,0.0145906,10,0.000103253,-3.27111,-3.1278,-0.0188631,-0.394185,0.192759,
2,1,0,1,0,44422.3,0.194564,0.194231,0.53642,23,0.0146731,10,0.000104189,-3.2705,-1.88685,-0.0312691,-0.652457,0.194231,
2,1,0,1,0,44422.5,0.196063,0.195731,0.531226,23,0.0147553,10,0.000103977,-3.27472,-0.85557,-0.0689599,-1.43441,0.1957311,
2,1,0,1,0,44422.6,0.197561,0.197243,0.528546,23,0.0148371,10,0.000104252,-3.27692,-0.880708,-0.0669915,-1.3906,0.197243,
2,1,0,1,0,44422.8,0.199059,0.198753,0.529644,23,0.0149187,10,0.000105269,-3.27602,-3.13032,-0.0188479,-0.390051,0.198753,
2,1,0,1,0,44422.9,0.200557,0.200206,0.529441,23,0.0150003,10,0.000105997,-3.27618,-1.41067,-0.041824,-0.862599,0.200206,
2,1,0,1,0,44423.1,0.202056,0.201718,0.526847,23,0.0150817,10,0.000106274,-3.27832,-1.16024,-0.0508516,-1.04819,0.201718,
2,1,0,1,0,44423.2,0.203553,0.203208,0.526179,23,0.0151629,10,0.000106924,-3.27887,-1.26407,-0.0466745,-0.960633,0.203208,
2,1,0,1,0,44423.4,0.205051,0.204711,0.525033,23,0.0152438,10,0.00010748,-3.27981,21.308,0.00276891,0.0571538,0.204711,
2,1,0,1,0,44423.5,0.20655,0.206276,0.524385,23,0.0153248,10,0.000108168,-3.28035,-1.56815,-0.037624,-0.770208,0.206276,
2,1,0,1,0,44423.7,0.208048,0.207758,0.524727,23,0.0154059,10,0.000109016,-3.28007,-1.02254,-0.0576996,-1.17729,0.207758,
2,1,0,1,0,44423.8,0.209546,0.209242,0.523358,23,0.0154865,10,0.000109508,-3.2812,-1.28073,-0.0460677,-0.941764,0.209242,
2,1,0,1,0,44424,0.211044,0.210762,0.521626,23,0.0155668,10,0.000109939,-3.28264,-1.04793,-0.0563017,-1.14661,0.210762,
2,1,0,1,0,44424.1,0.212543,0.212235,0.522348,23,0.0156471,10,0.000110861,-3.28204,-5.00887,-0.0117791,-0.239455,0.212235,
2,1,0,1,0,44424.3,0.214041,0.21371,0.521912,23,0.0157273,10,0.000111538,-3.2824,-2.29698,-0.0256859,-0.521185,0.21371,
2,1,0,1,0,44424.4,0.215539,0.215238,0.520092,23,0.0158075,10,0.000111944,-3.28392,-1.64224,-0.0359265,-0.728741,0.215238,
2,1,0,1,0,44424.6,0.217038,0.216704,0.517348,23,0.0158873,10,0.000112111,-3.28622,-2.65599,-0.0222139,-0.450167,0.216704,
2,1,0,1,0,44424.7,0.218535,0.218249,0.516953,23,0.0159671,10,0.000112824,-3.28655,2.0654,0.028566,0.576197,0.218249,
2,1,0,1,0,44424.9,0.220033,0.219677,0.51591,23,0.0160468,10,0.000113334,-3.28743,-2.27331,-0.0259534,-0.523717,0.2196773,
2,1,0,1,0,44425,0.221532,0.221247,0.516096,23,0.0161265,10,0.000114185,-3.28727,-1.6859,-0.0349961,-0.70493,0.221247,
2,1,0,1,0,44425.2,0.22303,0.222701,0.512975,23,0.016206,10,0.00011424,-3.2899,-1.41262,-0.0417664,-0.840166,0.222701,
2,1,0,1,0,44425.3,0.224528,0.224186,0.514824,23,0.0162852,10,0.000115416,-3.28834,-1.25741,-0.0469218,-0.942124,0.224186,
2,1,0,1,0,44425.5,0.226026,0.225744,0.514135,23,0.0163645,10,0.000116063,-3.28892,-1.94068,-0.0304018,-0.608552,0.225744,
2,1,0,1,0,44425.6,0.227524,0.22721,0.512401,23,0.0164436,10,0.000116423,-3.29039,-0.885072,-0.0666612,-1.33217,0.22721,
2,1,0,1,0,44425.8,0.229023,0.228728,0.511199,23,0.0165226,10,0.000116926,-3.29141,-2.08433,-0.0283064,-0.565425,0.228728,
2,1,0,1,0,44425.9,0.230521,0.230197,0.511132,23,0.0166013,10,0.000117661,-3.29147,-5.00691,-0.0117837,-0.235979,0.230197,
2,1,0,1,0,44426.1,0.232019,0.231686,0.5114,23,0.01668,10,0.000118484,-3.29124,-4.79088,-0.0123151,-0.245311,0.231686,
2,1,0,1,0,44426.2,0.233518,0.233165,0.511998,23,0.0167589,10,0.00011938,-3.29073,-1.24885,-0.0472435,-0.939333,0.233165,
2,1,0,1,0,44426.4,0.235015,0.234698,0.509805,23,0.0168375,10,0.00011965,-3.2926,-4.53103,-0.0130213,-0.258728,0.234698,
2,1,0,1,0,44426.5,0.236513,0.236209,0.508573,23,0.0169158,10,0.00012013,-3.29365,-2.80927,-0.0210019,-0.416641,0.236209,
2,1,0,1,0,44426.7,0.238012,0.237722,0.508155,23,0.0169942,10,0.0001208,-3.294,-3.93937,-0.014977,-0.296143,0.237722,
2,1,0,1,0,44426.8,0.23951,0.239193,0.508214,23,0.0170726,10,0.000121561,-3.29395,-2.47637,-0.0238252,-0.471821,0.2391929,
2,1,0,1,0,44427,0.241008,0.240719,0.506585,23,0.0171508,10,0.000121945,-3.29535,-1.38715,-0.0425333,-0.841832,0.240719,
2,1,0,1,0,44427.1,0.242506,0.24219,0.504353,23,0.0172287,10,0.000122149,-3.29727,-11.2933,-0.00522433,-0.10334,0.24219,
2,1,0,1,0,44427.3,0.244005,0.24367,0.503493,23,0.0173066,10,0.000122686,-3.29801,-3.35731,-0.0175736,-0.346295,0.24367,
2,1,0,1,0,44427.4,0.245503,0.245206,0.505201,23,0.0173845,10,0.000123879,-3.29654,-3.37048,-0.0175049,-0.344639,0.245206,
2,1,0,1,0,44427.6,0.247001,0.246648,0.505631,23,0.0174623,10,0.000124713,-3.29617,-1.21315,-0.0486338,-0.955685,0.246648,
2,1,0,1,0,44427.7,0.2485,0.248164,0.501908,23,0.01754,10,0.000124555,-3.29938,-10.6999,-0.00551408,-0.108466,0.248164,
2,1,0,1,0,44427.9,0.249997,0.249705,0.502447,23,0.0176175,10,0.000125463,-3.29891,-1.56133,-0.0377883,-0.74031,0.249705,
2,1,0,1,0,44428,0.251495,0.251154,0.502444,23,0.017695,10,0.000126191,-3.29891,-3.53677,-0.0166819,-0.326913,0.251154,
2,1,0,1,0,44428.2,0.252994,0.252675,0.500469,23,0.0177724,10,0.000126456,-3.30062,-0.926952,-0.0636495,-1.24347,0.252675,
2,1,0,1,0,44428.3,0.254492,0.254239,0.500349,23,0.0178497,10,0.000127208,-3.30073,-2.09328,-0.0281854,-0.551186,0.254239,
2,1,0,1,0,44428.5,0.25599,0.255655,0.499159,23,0.0179267,10,0.000127612,-3.30176,5.04522,0.0116942,0.228372,0.255655,
2,1,0,1,0,44428.6,0.257488,0.257161,0.499336,23,0.0180038,10,0.00012841,-3.30161,-4.06356,-0.0145193,-0.283042,0.2571615,
2,1,0,1,0,44428.8,0.258987,0.258653,0.498317,23,0.0180809,10,0.000128891,-3.30249,-3.22681,-0.0182843,-0.354892,0.258653,
2,1,0,1,0,44428.9,0.260485,0.260145,0.498234,23,0.0181577,10,0.000129613,-3.30257,-1.65353,-0.0356812,-0.693961,0.260145,
2,1,0,1,0,44429.1,0.261983,0.261669,0.49602,23,0.0182343,10,0.000129793,-3.3045,-1.32722,-0.0444538,-0.861807,0.261669,
2,1,0,1,0,44429.2,0.263481,0.263171,0.497511,23,0.018311,10,0.00013093,-3.3032,-6.66234,-0.00885575,-0.171455,0.263171,
2,1,0,1,0,44429.4,0.26498,0.264697,0.496261,23,0.0183875,10,0.000131359,-3.30429,-7.02437,-0.00839933,-0.162438,0.264697,
2,1,0,1,0,44429.5,0.266477,0.266144,0.494813,23,0.0184639,10,0.000131692,-3.30556,-9.42178,-0.00626209,-0.121074,0.266144,
2,1,0,1,0,44429.7,0.267976,0.267657,0.493114,23,0.0185402,10,0.000131986,-3.30705,-2.83906,-0.0207815,-0.400696,0.267657,
2,1,0,1,0,44429.8,0.269474,0.269161,0.4937,23,0.0186164,10,0.000132885,-3.30654,-11.7855,-0.00500617,-0.0963818,0.269161,
2,1,0,1,0,44430,0.270972,0.270675,0.493296,23,0.0186924,10,0.000133523,-3.30689,-1.53631,-0.0384037,-0.736211,0.270675,
2,1,0,1,0,44430.1,0.27247,0.272192,0.492961,23,0.0187685,10,0.00013418,-3.30719,-1.08591,-0.0543325,-1.04095,0.272192,
2,1,0,1,0,44430.3,0.273968,0.273637,0.489889,23,0.0188443,10,0.000134052,-3.3099,-0.906913,-0.0650558,-1.2459,0.273637,
2,1,0,1,0,44430.4,0.275467,0.275116,0.490281,23,0.0189199,10,0.000134884,-3.30955,-1.38685,-0.0425425,-0.814372,0.275116,
2,1,0,1,0,44430.6,0.276965,0.276652,0.488155,23,0.0189954,10,0.000135049,-3.31144,-1.84527,-0.0319736,-0.61184,0.2766518,
2,1,0,1,0,44430.7,0.278463,0.278155,0.488205,23,0.0190709,10,0.000135797,-3.3114,-1.08036,-0.0546114,-1.04176,0.278155,
2,1,0,1,0,44430.9,0.279962,0.279713,0.488603,23,0.0191463,10,0.000136669,-3.31104,-2.873,-0.020536,-0.391103,0.279713,
2,1,0,1,0,44431,0.281459,0.281138,0.4876,23,0.0192214,10,0.000137083,-3.31194,-12.4117,-0.00475357,-0.0904659,0.281138,
2,1,0,1,0,44431.2,0.282957,0.282622,0.486315,23,0.0192965,10,0.000137443,-3.31308,-3.91123,-0.0150848,-0.285574,0.282622,
2,1,0,1,0,44431.3,0.284456,0.284186,0.486857,23,0.0193716,10,0.000138358,-3.3126,-3.67267,-0.0160646,-0.304275,0.284186,
2,1,0,1,0,44431.5,0.285954,0.285636,0.484872,23,0.0194465,10,0.000138497,-3.31437,-1.71949,-0.0343124,-0.649754,0.285636,
2,1,0,1,0,44431.6,0.287452,0.287139,0.484036,23,0.0195211,10,0.000138986,-3.31512,-2.61837,-0.0225331,-0.425605,0.287139,
2,1,0,1,0,44431.8,0.28895,0.28864,0.482122,23,0.0195956,10,0.000139159,-3.31684,7.9833,0.00739043,0.139135,0.28864,
2,1,0,1,0,44431.9,0.290449,0.290154,0.482693,23,0.0196701,10,0.000140055,-3.31633,-1.23993,-0.0475834,-0.895322,0.290154,
2,1,0,1,0,44432.1,0.291947,0.291624,0.480508,23,0.0197444,10,0.000140127,-3.3183,-0.872282,-0.0676387,-1.26805,0.291624,
2,1,0,1,0,44432.2,0.293445,0.293108,0.480175,23,0.0198184,10,0.000140743,-3.3186,-1.97213,-0.0299168,-0.560171,0.293108,
2,1,0,1,0,44432.4,0.294943,0.294657,0.479588,23,0.0198924,10,0.000141314,-3.31913,-2.75895,-0.0213849,-0.399445,0.294657,
2,1,0,1,0,44432.5,0.296442,0.296163,0.481294,23,0.0199665,10,0.000142541,-3.31759,-2.13171,-0.0276773,-0.516622,0.296163,
2,1,0,1,0,44432.7,0.297939,0.297624,0.47805,23,0.0200403,10,0.000142279,-3.32053,-2.29201,-0.0257416,-0.479253,0.2976239,
2,1,0,1,0,44432.8,0.299437,0.299153,0.477145,23,0.020114,10,0.00014274,-3.32135,-0.00261076,-22.5988,-217.645,0.299153,
2,1,0,1,0,44432.9,0.299738,0.29942,0.259294,23,0.0201498,10,7.76379e-05,-3.58621,0.000573089,102.951,398.773,0.29942,
2,1,0,1,0,44433.1,0.29824,0.297908,0.0151035,23,0.0201616,10,4.49945e-06,-4.82092,0.00345073,17.0978,141.231,0.297908,
2,0,0,1,0,44433.2,0.296741,0.296451,-0.0294364,23,0.0201579,10,-8.72644e-06,-4.53112,-0.0339924,-1.73568,26.9688,0.296451,
2,0,0,1,0,44433.4,0.295243,0.294954,-0.0542505,23,0.0201493,10,-1.60014e-05,-4.2656,-0.00660208,-8.93658,14.1928,0.294954,
2,0,0,1,0,44433.5,0.293745,0.293399,-0.0724392,23,0.0201376,10,-2.12536e-05,-4.14003,-0.0142428,-4.14243,10.6974,0.293399,
2,0,0,1,0,44433.7,0.292246,0.291934,-0.0865173,23,0.0201237,10,-2.52574e-05,-4.0629,-0.0221938,-2.6584,8.55139,0.291934,
2,0,0,1,0,44433.8,0.290748,0.29042,-0.0991585,23,0.0201077,10,-2.87976e-05,-4.00367,-0.0266045,-2.21767,8.23411,0.29042,
2,0,0,1,0,44434,0.28925,0.288911,-0.109347,23,0.0200899,10,-3.15915e-05,-3.96119,-0.0360721,-1.63561,6.95322,0.288911,
2,0,0,1,0,44434.1,0.287752,0.287457,-0.119517,23,0.0200706,10,-3.43561e-05,-3.92257,-0.0414372,-1.42384,6.54028,0.287457,
2,0,0,1,0,44434.3,0.286253,0.285909,-0.127813,23,0.0200499,10,-3.65428e-05,-3.89343,-0.0520949,-1.13255,5.62114,0.2859093,
2,0,0,1,0,44434.4,0.284755,0.284431,-0.136362,23,0.020028,10,-3.87856e-05,-3.86531,-0.052902,-1.11527,5.81262,0.284431,
2,0,0,1,0,44434.6,0.283258,0.282987,-0.14483,23,0.0200048,10,-4.09852e-05,-3.83914,-0.0656634,-0.898522,5.03188,0.282987,
2,0,0,1,0,44434.7,0.281759,0.281432,-0.149417,23,0.0199806,10,-4.20507e-05,-3.8256,-0.0780207,-0.756209,4.42756,0.281432,
2,0,0,1,0,44434.9,0.280261,0.279948,-0.156001,23,0.0199553,10,-4.36721e-05,-3.80687,-0.0765897,-0.770339,4.73861,0.279948,
2,0,0,1,0,44435,0.278763,0.27844,-0.162891,23,0.0199292,10,-4.53554e-05,-3.7881,-0.091907,-0.641953,4.10029,0.27844,
2,0,0,1,0,44435.2,0.277264,0.276902,-0.17012,23,0.0199019,10,-4.71066e-05,-3.76924,-0.100064,-0.58962,3.91057,0.276902,
2,0,0,1,0,44435.3,0.275766,0.275438,-0.176001,23,0.0198738,10,-4.84772e-05,-3.75449,-0.130024,-0.453762,3.09184,0.275438,
2,0,0,1,0,44435.5,0.274268,0.27398,-0.181413,23,0.0198448,10,-4.97034e-05,-3.74133,-0.115198,-0.512162,3.62881,0.27398,
2,0,0,1,0,44435.6,0.27277,0.27245,-0.185727,23,0.0198152,10,-5.06013e-05,-3.73113,-0.117872,-0.500544,3.65631,0.27245,
2,0,0,1,0,44435.8,0.271272,0.270998,-0.192446,23,0.0197845,10,-5.21524e-05,-3.71569,-0.114693,-0.514416,3.84559,0.270998,
2,0,0,1,0,44435.9,0.269773,0.26946,-0.19909,23,0.019753,10,-5.36469e-05,-3.70095,-0.152499,-0.386887,2.96072,0.26946,
2,0,0,1,0,44436.1,0.268275,0.267946,-0.202458,23,0.0197208,10,-5.42477e-05,-3.69367,-0.145364,-0.405878,3.20274,0.267946,
2,0,0,1,0,44436.2,0.266778,0.266485,-0.205635,23,0.0196881,10,-5.47986e-05,-3.6869,-0.15455,-0.381754,3.08346,0.266485,
2,0,0,1,0,44436.4,0.265279,0.264975,-0.211135,23,0.0196546,10,-5.59455e-05,-3.67544,-0.136331,-0.43277,3.55643,0.264975,
2,0,0,1,0,44436.5,0.263781,0.263521,-0.21413,23,0.0196203,10,-5.64277e-05,-3.66932,-0.145006,-0.40688,3.42754,0.263521,
2,0,0,1,0,44436.7,0.262283,0.261987,-0.220314,23,0.0195853,10,-5.77194e-05,-3.65696,-0.200856,-0.293743,2.52046,0.261987,
2,0,0,1,0,44436.8,0.260784,0.26049,-0.223188,23,0.0195498,10,-5.81382e-05,-3.65133,-0.166926,-0.35345,3.10704,0.26049,
2,0,0,1,0,44437,0.259286,0.259007,-0.229277,23,0.0195136,10,-5.93843e-05,-3.63964,-0.168575,-0.349992,3.13392,0.259007,
2,0,0,1,0,44437.1,0.257788,0.257467,-0.234751,23,0.0194767,10,-6.04406e-05,-3.62939,-0.207116,-0.284865,2.58764,0.257467,
2,0,0,1,0,44437.3,0.25629,0.255935,-0.238155,23,0.0194392,10,-6.09521e-05,-3.62314,-0.289339,-0.203913,1.87987,0.255935,
2,0,0,1,0,44437.4,0.254791,0.254465,-0.240235,23,0.0194012,10,-6.11314e-05,-3.61936,-0.225725,-0.26138,2.451,0.254465,
2,0,0,1,0,44437.6,0.253293,0.252944,-0.24416,23,0.0193628,10,-6.17588e-05,-3.61233,-0.239869,-0.245967,2.35352,0.252944,
2,0,0,1,0,44437.7,0.251796,0.251474,-0.247229,23,0.0193238,10,-6.21716e-05,-3.6069,-0.202046,-0.292013,2.83301,0.251474,
2,0,0,1,0,44437.9,0.250297,0.249969,-0.252145,23,0.0192841,10,-6.30283e-05,-3.59835,-0.246143,-0.239698,2.3439,0.249969,
2,0,0,1,0,44438,0.248799,0.248439,-0.254645,23,0.0192439,10,-6.32636e-05,-3.59407,-0.25903,-0.227773,2.26393,0.2484386,
2,0,0,1,0,44438.2,0.247301,0.246967,-0.258364,23,0.0192033,10,-6.38073e-05,-3.58777,-0.246752,-0.239107,2.41319,0.246967,
2,0,0,1,0,44438.3,0.245802,0.245506,-0.261856,23,0.0191622,10,-6.42871e-05,-3.58194,-0.256466,-0.23005,2.34106,0.245506,
2,0,0,1,0,44438.5,0.244304,0.243981,-0.265593,23,0.0191203,10,-6.47995e-05,-3.57578,-0.247064,-0.238805,2.47287,0.243981,
2,0,0,1,0,44438.6,0.242806,0.242507,-0.268649,23,0.0190781,10,-6.51492e-05,-3.57081,-0.413385,-0.142724,1.49623,0.2425067,
2,0,0,1,0,44438.8,0.241308,0.241032,-0.272077,23,0.0190356,10,-6.55791e-05,-3.56531,-0.290316,-0.203227,2.15607,0.241032,
2,0,0,1,0,44438.9,0.23981,0.239548,-0.274323,23,0.0189925,10,-6.57137e-05,-3.56174,-0.225149,-0.262049,2.79021,0.239548,
2,0,0,1,0,44439.1,0.238311,0.237983,-0.276508,23,0.0189488,10,-6.58042e-05,-3.55829,-0.304157,-0.193979,2.10395,0.237983,
2,0,0,1,0,44439.2,0.236814,0.236473,-0.279989,23,0.0189047,10,-6.62099e-05,-3.55286,-0.308736,-0.191102,2.09351,0.236473,
2,0,0,1,0,44439.4,0.235316,0.235007,-0.282176,23,0.0188602,10,-6.63134e-05,-3.54948,-0.287933,-0.204908,2.27587,0.235007,
2,0,0,1,0,44439.5,0.233817,0.233492,-0.286876,23,0.0188153,10,-6.69833e-05,-3.54231,-0.343446,-0.171788,1.9192,0.233492,
2,0,0,1,0,44439.7,0.232319,0.232014,-0.290507,23,0.0187698,10,-6.74017e-05,-3.53684,-0.290867,-0.202842,2.29029,0.232014,
2,0,0,1,0,44439.8,0.230821,0.230453,-0.292913,23,0.0187239,10,-6.75026e-05,-3.53326,-0.465848,-0.126651,1.43768,0.230453,
2,0,0,1,0,44440,0.229322,0.228994,-0.295745,23,0.0186774,10,-6.77239e-05,-3.52908,-0.353676,-0.166819,1.92445,0.228994,
2,0,0,1,0,44440.1,0.227824,0.227482,-0.297409,23,0.0186308,10,-6.76551e-05,-3.52665,-0.373111,-0.15813,1.84676,0.2274818,
2,0,0,1,0,44440.3,0.226326,0.22603,-0.301399,23,0.0185835,10,-6.81252e-05,-3.52086,-0.286368,-0.206028,2.4283,0.2260301,
2,0,0,1,0,44440.4,0.224828,0.2245,-0.304417,23,0.0185358,10,-6.83416e-05,-3.51653,-0.525424,-0.11229,1.33099,0.2245,
2,0,0,1,0,44440.6,0.223329,0.222975,-0.308859,23,0.0184876,10,-6.88679e-05,-3.51024,-0.313226,-0.188363,2.25612,0.222975,
2,0,0,1,0,44440.7,0.221831,0.221532,-0.312555,23,0.0184392,10,-6.92408e-05,-3.50507,-0.346578,-0.170236,2.05892,0.221532,
2,0,0,1,0,44440.9,0.220334,0.219997,-0.315809,23,0.0183901,10,-6.9477e-05,-3.50058,-0.262441,-0.224813,2.74755,0.219997,
2,0,0,1,0,44441,0.218835,0.218523,-0.316413,23,0.0183405,10,-6.91438e-05,-3.49975,-0.351487,-0.167858,2.06885,0.218523,
2,0,0,1,0,44441.2,0.217337,0.216981,-0.31831,23,0.0182905,10,-6.9067e-05,-3.49715,-0.36913,-0.159835,1.99201,0.216981,
2,0,0,1,0,44441.3,0.215839,0.215512,-0.321142,23,0.0182402,10,-6.921e-05,-3.4933,-0.293193,-0.201233,2.53715,0.215512,
2,0,0,1,0,44441.5,0.21434,0.214017,-0.325179,23,0.0181894,10,-6.95939e-05,-3.48788,-0.271767,-0.217098,2.75398,0.214017,
2,0,0,1,0,44441.6,0.212842,0.212486,-0.326767,23,0.018138,10,-6.94332e-05,-3.48576,-0.367324,-0.160621,2.05466,0.212486,
2,0,0,1,0,44441.8,0.211344,0.211052,-0.330168,23,0.0180862,10,-6.96825e-05,-3.48127,-0.439857,-0.134134,1.73164,0.211052,
2,0,0,1,0,44441.9,0.209846,0.20953,-0.331048,23,0.0180341,10,-6.93645e-05,-3.48011,-0.457617,-0.128929,1.67881,0.20953,
2,0,0,1,0,44442.1,0.208348,0.208045,-0.338804,23,0.0179816,10,-7.04863e-05,-3.47005,-0.325668,-0.181166,2.38851,0.208045,
2,0,0,1,0,44442.2,0.206849,0.206542,-0.344023,23,0.0179284,10,-7.10553e-05,-3.46341,-0.453739,-0.130031,1.72461,0.206542,
2,0,0,1,0,44442.3,0.205352,0.20503,-0.343185,23,0.0178746,10,-7.03634e-05,-3.46447,-0.403763,-0.146125,1.95336,0.20503,
2,0,0,1,0,44442.5,0.203854,0.203498,-0.345578,23,0.0178206,10,-7.03243e-05,-3.46145,-0.517611,-0.113985,1.54526,0.203498,
2,0,0,1,0,44442.6,0.202355,0.202059,-0.348262,23,0.0177662,10,-7.03693e-05,-3.45809,-0.439253,-0.134319,1.83655,0.202059,
2,0,0,1,0,44442.8,0.200857,0.200495,-0.352211,23,0.0177113,10,-7.06167e-05,-3.4532,-0.429888,-0.137245,1.88689,0.2004955,
2,0,0,1,0,44442.9,0.199359,0.198998,-0.357729,23,0.0176559,10,-7.11874e-05,-3.44645,-0.419031,-0.140801,1.95537,0.198998,
2,0,0,1,0,44443.1,0.19786,0.197521,-0.358539,23,0.0176001,10,-7.0819e-05,-3.44546,-0.328016,-0.179869,2.51306,0.197521,
2,0,0,1,0,44443.2,0.196362,0.196042,-0.360894,23,0.0175438,10,-7.07504e-05,-3.44262,-0.331491,-0.177984,2.51517,0.196042,
2,0,0,1,0,44443.4,0.194864,0.194524,-0.364758,23,0.0174871,10,-7.09543e-05,-3.438,-0.330659,-0.178431,2.53882,0.194524,
2,0,0,1,0,44443.5,0.193366,0.193013,-0.368898,23,0.0174297,10,-7.12022e-05,-3.43309,-0.352711,-0.167276,2.40834,0.193013,
2,0,0,1,0,44443.7,0.191867,0.191535,-0.372552,23,0.0173718,10,-7.13567e-05,-3.42881,-0.466719,-0.126414,1.84126,0.191535,
2,0,0,1,0,44443.8,0.190369,0.190015,-0.374014,23,0.0173135,10,-7.10684e-05,-3.42711,-0.356461,-0.165516,2.43011,0.190015,
2,0,0,1,0,44444,0.188872,0.188554,-0.378336,23,0.0172548,10,-7.13368e-05,-3.42212,-0.337345,-0.174895,2.58077,0.188554,
2,0,0,1,0,44444.1,0.187373,0.187045,-0.381671,23,0.0171954,10,-7.13899e-05,-3.41831,-0.314465,-0.18762,2.80265,0.187045,
2,0,0,1,0,44444.3,0.185875,0.185563,-0.385664,23,0.0171356,10,-7.1565e-05,-3.41379,-0.378367,-0.155933,2.3447,0.185563,
2,0,0,1,0,44444.4,0.184377,0.184046,-0.388197,23,0.0170752,10,-7.14462e-05,-3.41095,-0.340537,-0.173256,2.63369,0.184046,
2,0,0,1,0,44444.6,0.182878,0.1826,-0.39393,23,0.0170142,10,-7.19316e-05,-3.40458,-0.367213,-0.16067,2.46839,0.1826001,
2,0,0,1,0,44444.7,0.18138,0.181057,-0.398367,23,0.0169526,10,-7.21273e-05,-3.39972,-0.390445,-0.15111,2.3441,0.181057,
2,0,0,1,0,44444.9,0.179882,0.179551,-0.401288,23,0.0168904,10,-7.20519e-05,-3.39654,-0.434818,-0.135689,2.12362,0.179551,
2,0,0,1,0,44445,0.178384,0.178064,-0.407113,23,0.0168276,10,-7.2492e-05,-3.39029,-0.414684,-0.142277,2.26481,0.178064,
2,0,0,1,0,44445.2,0.176886,0.176569,-0.409669,23,0.0167643,10,-7.23346e-05,-3.38757,-0.304846,-0.193541,3.10232,0.176569,
2,0,0,1,0,44445.3,0.175387,0.175035,-0.415558,23,0.0167001,10,-7.27375e-05,-3.38137,-0.297414,-0.198377,3.20849,0.175035,
2,0,0,1,0,44445.5,0.17389,0.173541,-0.41984,23,0.0166353,10,-7.28596e-05,-3.37692,-0.299435,-0.197038,3.22451,0.173541,
2,0,0,1,0,44445.6,0.172392,0.172054,-0.425219,23,0.0165698,10,-7.31605e-05,-3.37139,-0.290636,-0.203003,3.37011,0.172054,
2,0,0,1,0,44445.8,0.170893,0.170591,-0.427746,23,0.0165036,10,-7.29695e-05,-3.36881,-0.2425,-0.243299,4.07612,0.170591,
2,0,0,1,0,44445.9,0.169395,0.169056,-0.434121,23,0.0164364,10,-7.33905e-05,-3.36239,-0.224424,-0.262895,4.45503,0.169056,
2,0,0,1,0,44446.1,0.167897,0.167557,-0.441668,23,0.0163683,10,-7.40046e-05,-3.3549,-0.271046,-0.217676,3.74962,0.167557,
2,0,0,1,0,44446.2,0.166398,0.166121,-0.447174,23,0.0162994,10,-7.42851e-05,-3.34952,-0.285243,-0.206841,3.61684,0.166121,
2,0,0,1,0,44446.4,0.1649,0.164566,-0.45124,23,0.0162296,10,-7.42587e-05,-3.34559,-0.223934,-0.26347,4.67758,0.164566,
2,0,0,1,0,44446.5,0.163402,0.163046,-0.460966,23,0.0161587,10,-7.51588e-05,-3.33633,-0.191868,-0.307504,5.5407,0.163046,
2,0,0,1,0,44446.7,0.161904,0.161579,-0.47031,23,0.0160866,10,-7.5992e-05,-3.32762,-0.208591,-0.28285,5.17346,0.161579,
2,0,0,1,0,44446.8,0.160405,0.160072,-0.478205,23,0.0160132,10,-7.65472e-05,-3.32039,-0.198709,-0.296917,5.52406,0.160072,
2,0,0,1,0,44447,0.158907,0.158557,-0.485106,23,0.0159387,10,-7.69172e-05,-3.31416,-0.170389,-0.346266,6.57839,0.1585575,
2,0,0,1,0,44447.1,0.15741,0.157094,-0.497504,23,0.0158629,10,-7.8155e-05,-3.3032,-0.143932,-0.409917,7.97072,0.1570943,
2,0,0,1,0,44447.3,0.155911,0.155599,-0.506772,23,0.0157852,10,-7.88533e-05,-3.29519,-0.151322,-0.389898,7.73498,0.155599,
2,0,0,1,0,44447.4,0.154413,0.154075,-0.519502,23,0.0157058,10,-8.00424e-05,-3.28441,-0.155687,-0.378965,7.67914,0.154075,
2,0,0,1,0,44447.6,0.152915,0.152602,-0.532264,23,0.0156247,10,-8.12247e-05,-3.27387,-0.137207,-0.430007,8.95084,0.152602,
2,0,0,1,0,44447.7,0.151417,0.151085,-0.546427,23,0.0155417,10,-8.25569e-05,-3.26247,-0.127891,-0.46133,9.85105,0.151085,
2,0,0,1,0,44447.9,0.149918,0.149554,-0.561828,23,0.0154562,10,-8.40233e-05,-3.2504,-0.104769,-0.563141,12.365,0.149554,
2,0,0,1,0,44448,0.14842,0.148086,-0.581733,23,0.015368,10,-8.61465e-05,-3.23528,-0.104594,-0.564087,12.7948,0.148086,
2,0,0,1,0,44448.2,0.146922,0.146565,-0.602263,23,0.015277,10,-8.82708e-05,-3.22021,-0.0980925,-0.601473,14.1596,0.146565,
2,0,0,1,0,44448.3,0.145424,0.145104,-0.622619,23,0.015183,10,-9.03445e-05,-3.20578,-0.0948337,-0.622142,15.1919,0.145104,
2,0,0,1,0,44448.5,0.143925,0.143595,-0.649,23,0.0150853,10,-9.31929e-05,-3.18776,-0.0824029,-0.715994,18.1328,0.143595,
2,0,0,1,0,44448.6,0.142428,0.142094,-0.67471,23,0.0149836,10,-9.58723e-05,-3.17088,-0.0799772,-0.73771,19.493,0.142094,
2,0,0,1,0,44448.8,0.14093,0.14063,-0.703178,23,0.0148777,10,-9.88878e-05,-3.15293,-0.0854163,-0.690734,19.0178,0.14063,
2,0,0,1,0,44448.9,0.139431,0.13911,-0.732343,23,0.0147674,10,-0.000101876,-3.13529,-0.0783474,-0.753056,21.6141,0.13911,
2,0,0,1,0,44449.1,0.137933,0.137647,-0.766583,23,0.0146525,10,-0.000105518,-3.11544,-0.078773,-0.748987,22.4052,0.137647,
2,0,0,1,0,44449.2,0.136435,0.136108,-0.801458,23,0.0145324,10,-0.000109085,-3.09612,-0.0812192,-0.726429,22.7259,0.136108,
2,0,0,1,0,44449.4,0.134936,0.134589,-0.836935,23,0.0144072,10,-0.000112642,-3.07731,-0.0843104,-0.699795,22.7915,0.134589,
2,0,0,1,0,44449.5,0.133438,0.133138,-0.869714,23,0.0142768,10,-0.000115792,-3.06062,-0.0892896,-0.660771,22.4118,0.133138,
2,0,0,1,0,44449.7,0.13194,0.131584,-0.90282,23,0.0141416,10,-0.000118797,-3.0444,-0.0910153,-0.648243,22.8928,0.131584,
2,0,0,1,0,44449.8,0.130442,0.130089,-0.937672,23,0.0140011,10,-0.000121981,-3.02795,-0.0964787,-0.611534,22.3524,0.130089,
2,0,0,1,0,44450,0.128943,0.128637,-0.971175,23,0.0138553,10,-0.000124929,-3.0127,-0.107283,-0.549948,20.7543,0.128637,
2,0,0,1,0,44450.1,0.127445,0.127102,-1.0031,23,0.0137049,10,-0.000127496,-2.99865,-0.116979,-0.504362,19.6783,0.1271016,
2,0,0,1,0,44450.3,0.125948,0.125628,-1.02909,23,0.0135505,10,-0.000129282,-2.98755,-0.127101,-0.464199,18.612,0.125628,
2,0,0,1,0,44450.4,0.124449,0.124119,-1.05602,23,0.0133916,10,-0.000131071,-2.97633,-0.135191,-0.436419,17.9358,0.124119,
2,0,0,1,0,44450.6,0.122951,0.122634,-1.08056,23,0.0132289,10,-0.000132514,-2.96635,-0.155998,-0.37821,15.9006,0.122634,
2,0,0,1,0,44450.7,0.121453,0.121139,-1.10139,23,0.0130628,10,-0.000133421,-2.95806,-0.199542,-0.295677,12.672,0.121139,
2,0,0,1,0,44450.9,0.119955,0.119668,-1.11666,23,0.012894,10,-0.000133629,-2.95208,-0.227645,-0.259175,11.2962,0.119668,
2,0,0,1,0,44451,0.118456,0.118135,-1.13336,23,0.0127227,10,-0.000133889,-2.94563,-0.259811,-0.227088,10.0388,0.1181348,
2,0,0,1,0,44451.2,0.116958,0.11663,-1.14929,23,0.0125491,10,-0.000134042,-2.93957,-0.351817,-0.167701,7.49199,0.11663,
2,0,0,1,0,44451.3,0.11546,0.115152,-1.15762,23,0.0123738,10,-0.000133302,-2.93644,-0.591,-0.0998308,4.49263,0.115152,
2,0,0,1,0,44451.5,0.113962,0.113626,-1.16027,23,0.0121976,10,-0.000131837,-2.93544,-0.910096,-0.0648283,2.93591,0.113626,
2,0,0,1,0,44451.6,0.112463,0.112178,-1.16557,23,0.0120207,10,-0.000130751,-2.93346,-1.48845,-0.0396386,1.80155,0.112178,
2,0,0,1,0,44451.8,0.110966,0.110611,-1.16665,23,0.0118435,10,-0.000129045,-2.93306,-4.93503,-0.0119553,0.543478,0.110611,
2,0,0,1,0,44451.9,0.109468,0.109164,-1.16594,23,0.0116661,10,-0.000127279,-2.93332,1.6736,0.0352534,-1.60165,0.109164,
2,0,0,1,0,44452.1,0.107969,0.107649,-1.16441,23,0.0114888,10,-0.000125348,-2.93389,1.42887,0.0412914,-1.87566,0.107649,
2,0,0,1,0,44452.2,0.106471,0.106161,-1.1598,23,0.0113123,10,-0.000123126,-2.93562,1.16661,0.0505741,-2.29426,0.106161,
2,0,0,1,0,44452.4,0.104973,0.104666,-1.15571,23,0.0111363,10,-0.000120963,-2.93715,0.974734,0.0605293,-2.72979,0.104666,
2,0,0,1,0,44452.5,0.103474,0.103127,-1.15279,23,0.0109607,10,-0.000118884,-2.93825,0.606993,0.0972004,-4.36459,0.103127,
2,0,0,1,0,44452.7,0.101976,0.101625,-1.14672,23,0.0107861,10,-0.000116536,-2.94054,0.590287,0.0999513,-4.46588,0.101625,
2,0,0,1,0,44452.8,0.100478,0.100195,-1.13827,23,0.0106127,10,-0.000114049,-2.94375,0.615168,0.0959087,-4.27003,0.100195,
2,0,0,1,0,44453,0.0989798,0.0986806,-1.13462,23,0.01044,10,-0.000111965,-2.94515,0.740654,0.0796593,-3.51937,0.0986806,
2,0,0,1,0,44453.1,0.0974808,0.0971825,-1.12765,23,0.010268,10,-0.000109587,-2.94783,0.632663,0.0932566,-4.10292,0.0971825,
2,0,0,1,0,44453.3,0.0959833,0.0956179,-1.12091,23,0.0100972,10,-0.00010718,-2.95043,0.608353,0.0969832,-4.24716,0.0956179,
2,0,0,1,0,44453.4,0.0944857,0.094185,-1.11118,23,0.00992739,10,-0.000104657,-2.95421,0.622819,0.0947306,-4.12478,0.09418498,
2,0,0,1,0,44453.6,0.0929871,0.0926691,-1.10738,23,0.00975844,10,-0.00010262,-2.9557,0.772227,0.0764024,-3.30503,0.0926691,
2,0,0,1,0,44453.7,0.0914889,0.0911729,-1.1039,23,0.00959027,10,-0.000100646,-2.95707,0.658519,0.089595,-3.85339,0.0911729,
2,0,0,1,0,44453.9,0.0899907,0.0896448,-1.09657,23,0.009423,10,-9.83017e-05,-2.95996,0.512695,0.115078,-4.91558,0.0896448,
2,0,0,1,0,44454,0.0884925,0.0881667,-1.08769,23,0.00925678,10,-9.5898e-05,-2.96349,0.493714,0.119502,-5.08797,0.0881667,
2,0,0,1,0,44454.2,0.0869943,0.086663,-1.08305,23,0.00909169,10,-9.38604e-05,-2.96535,0.616583,0.0956886,-4.04946,0.086663,
2,0,0,1,0,44454.3,0.0854961,0.0851381,-1.07783,23,0.0089273,10,-9.17649e-05,-2.96745,0.57747,0.10217,-4.29929,0.0851381,
2,0,0,1,0,44454.5,0.083998,0.0836864,-1.07079,23,0.00876385,10,-8.96105e-05,-2.9703,0.47692,0.12371,-5.16488,0.0836864,
2,0,0,1,0,44454.6,0.0824998,0.0822051,-1.06599,23,0.00860133,10,-8.76299e-05,-2.97225,0.499941,0.118014,-4.904,0.08220505,
2,0,0,1,0,44454.8,0.0810011,0.0806785,-1.0562,23,0.00844003,10,-8.52123e-05,-2.97626,0.601185,0.0981395,-4.05577,0.0806785,
2,0,0,1,0,44454.9,0.0795036,0.0791747,-1.05099,23,0.00827959,10,-8.32117e-05,-2.9784,0.695389,0.0848447,-3.47875,0.0791747,
2,0,0,1,0,44455.1,0.0780061,0.0776705,-1.04648,23,0.00811991,10,-8.12808e-05,-2.98027,0.568419,0.103797,-4.23312,0.0776705,
2,0,0,1,0,44455.2,0.076507,0.0761491,-1.03985,23,0.00796103,10,-7.91838e-05,-2.98303,0.616377,0.0957207,-3.88612,0.0761491,
2,0,0,1,0,44455.4,0.0750088,0.0746804,-1.03118,23,0.00780358,10,-7.7009e-05,-2.98667,0.585781,0.10072,-4.0648,0.07468041,
2,0,0,1,0,44455.5,0.0735106,0.0732223,-1.02688,23,0.0076469,10,-7.51907e-05,-2.98848,0.778854,0.0757523,-3.0312,0.0732223,
2,0,0,1,0,44455.7,0.0720124,0.0716922,-1.01989,23,0.00749105,10,-7.3118e-05,-2.99145,0.557646,0.105802,-4.21504,0.0716922,
2,0,0,1,0,44455.8,0.0705142,0.0702129,-1.01303,23,0.00733613,10,-7.11276e-05,-2.99438,0.527009,0.111953,-4.43334,0.0702129,
2,0,0,1,0,44456,0.069016,0.0687156,-1.00602,23,0.00718236,10,-6.9129e-05,-2.99739,0.486405,0.121298,-4.77587,0.0687156,
2,0,0,1,0,44456.1,0.0675179,0.067213,-1.00278,23,0.00702948,10,-6.74001e-05,-2.99879,0.640862,0.0920634,-3.60186,0.067213,
2,0,0,1,0,44456.3,0.0660188,0.0656924,-1.00032,23,0.00687721,10,-6.57132e-05,-2.99986,0.677051,0.0871426,-3.38345,0.0656924,
2,0,0,1,0,44456.4,0.0645213,0.0642235,-0.992638,23,0.00672578,10,-6.37507e-05,-3.00321,0.549924,0.107288,-4.14099,0.0642235,
2,0,0,1,0,44456.6,0.0630237,0.0627215,-0.982872,23,0.0065755,10,-6.16472e-05,-3.0075,0.510515,0.11557,-4.43793,0.0627215,
2,0,0,1,0,44456.7,0.0615251,0.0612143,-0.976794,23,0.00642621,10,-5.97938e-05,-3.0102,0.570233,0.103466,-3.95219,0.0612143,
2,0,0,1,0,44456.9,0.0600269,0.0597213,-0.971609,23,0.00627784,10,-5.80257e-05,-3.01251,0.623217,0.09467,-3.59056,0.0597213,
2,0,0,1,0,44457,0.0585287,0.0582123,-0.965572,23,0.00613027,10,-5.62082e-05,-3.01522,0.476371,0.123853,-4.66109,0.0582123,
2,0,0,1,0,44457.2,0.0570305,0.0567023,-0.958167,23,0.00598373,10,-5.43302e-05,-3.01856,0.531255,0.111058,-4.16052,0.0567023,
2,0,0,1,0,44457.3,0.0555323,0.0551732,-0.952484,23,0.00583828,10,-5.25515e-05,-3.02114,0.563556,0.104692,-3.89868,0.05517317,
2,0,0,1,0,44457.5,0.0540342,0.053731,-0.947593,23,0.00569362,10,-5.09151e-05,-3.02338,0.59361,0.0993918,-3.66635,0.053731,
2,0,0,1,0,44457.6,0.052536,0.0521733,-0.942021,23,0.00554964,10,-4.91483e-05,-3.02594,0.48515,0.121612,-4.46388,0.0521733,
2,0,0,1,0,44457.8,0.0510378,0.0507226,-0.934386,23,0.00540678,10,-4.73945e-05,-3.02947,0.484505,0.121774,-4.43768,0.05072264,
2,0,0,1,0,44457.9,0.0495391,0.0491951,-0.925139,23,0.00526513,10,-4.55123e-05,-3.03379,0.538166,0.109632,-3.9672,0.0491951,
2,0,0,1,0,44458.1,0.0480416,0.0477288,-0.919921,23,0.00512451,10,-4.39067e-05,-3.03625,0.568965,0.103697,-3.71987,0.0477288,
2,0,0,1,0,44458.2,0.0465441,0.0462313,-0.912993,23,0.00498473,10,-4.22089e-05,-3.03953,0.536,0.110075,-3.92583,0.0462313,
2,0,0,1,0,44458.4,0.045045,0.0446667,-0.906586,23,0.0048459,10,-4.04942e-05,-3.04259,0.42591,0.138527,-4.89855,0.0446667,
2,0,0,1,0,44458.5,0.0435468,0.0432256,-0.897426,23,0.00470828,10,-3.87917e-05,-3.047,0.454917,0.129694,-4.55349,0.0432256,
2,0,0,1,0,44458.7,0.0420486,0.0417686,-0.892532,23,0.00457183,10,-3.72798e-05,-3.04938,0.465352,0.126786,-4.41823,0.0417686,
2,0,0,1,0,44458.8,0.0405504,0.0401822,-0.889463,23,0.00443615,10,-3.57406e-05,-3.05087,0.480179,0.122871,-4.24581,0.0401822,
2,0,0,1,0,44459,0.0390523,0.0386775,-0.880503,23,0.00430131,10,-3.40556e-05,-3.05527,0.383633,0.153793,-5.27395,0.0386775,
2,0,0,1,0,44459.1,0.0375541,0.0372078,-0.871875,23,0.0041677,10,-3.24405e-05,-3.05955,0.364274,0.161966,-5.519,0.0372078,
2,0,0,1,0,44459.3,0.0360559,0.0357211,-0.86512,23,0.00403539,10,-3.0903e-05,-3.06292,0.410439,0.143748,-4.85981,0.0357211,
2,0,0,1,0,44459.4,0.0345568,0.0342398,-0.859489,23,0.00390371,10,-2.94288e-05,-3.06576,0.563379,0.104725,-3.5122,0.0342398,
2,0,0,1,0,44459.6,0.0330593,0.0327445,-0.852742,23,0.00377315,10,-2.79226e-05,-3.06918,0.400511,0.147312,-4.89907,0.0327445,
2,0,0,1,0,44459.7,0.0315618,0.031238,-0.846213,23,0.00364352,10,-2.6434e-05,-3.07252,0.438665,0.134499,-4.44295,0.031238,
2,0,0,1,0,44459.9,0.0300631,0.029734,-0.837344,23,0.00351508,10,-2.48976e-05,-3.0771,0.450199,0.131053,-4.29162,0.029734,
2,0,0,1,0,44460,0.0285649,0.0282134,-0.831903,23,0.00338752,10,-2.34708e-05,-3.07993,0.596908,0.0988428,-3.20956,0.0282134,
2,0,0,1,0,44460.2,0.0270667,0.0267331,-0.825215,23,0.0032608,10,-2.20605e-05,-3.08343,0.458979,0.128546,-4.14287,0.0267331,
2,0,0,1,0,44460.3,0.0255685,0.0252326,-0.819309,23,0.00313499,10,-2.06733e-05,-3.08655,0.40363,0.146174,-4.68178,0.0252326,
2,0,0,1,0,44460.5,0.0240704,0.0237098,-0.810501,23,0.00301034,10,-1.92169e-05,-3.09125,0.433319,0.136158,-4.32668,0.0237098,
2,0,0,1,0,44460.6,0.0225722,0.0222221,-0.808487,23,0.00288645,10,-1.79663e-05,-3.09233,0.574564,0.102686,-3.23742,0.0222221,
2,0,0,1,0,44460.8,0.021074,0.0207874,-0.803693,23,0.00276326,10,-1.67067e-05,-3.09491,0.572538,0.10305,-3.23052,0.0207874,
2,0,0,1,0,44460.9,0.0195758,0.0192583,-0.798897,23,0.00264085,10,-1.53854e-05,-3.09751,0.53508,0.110264,-3.43499,0.0192583,
2,0,0,1,0,44461.1,0.0180772,0.0177519,-0.790363,23,0.00251919,10,-1.40304e-05,-3.10217,0.60688,0.0972186,-3.00995,0.0177519,
2,0,0,1,0,44461.2,0.0165796,0.0162471,-0.789908,23,0.00239823,10,-1.28337e-05,-3.10242,0.836854,0.0705021,-2.17551,0.0162471,
2,0,0,1,0,44461.4,0.0150821,0.0147751,-0.787006,23,0.00227776,10,-1.16281e-05,-3.10402,1.01656,0.0580388,-1.78131,0.0147751,
2,0,0,1,0,44461.5,0.013583,0.0132776,-0.782693,23,0.00215755,10,-1.03923e-05,-3.10641,0.707859,0.0833499,-2.54507,0.0132776,
2,0,0,1,0,44461.7,0.0120848,0.0117866,-0.779636,23,0.00203804,10,-9.18929e-06,-3.10811,0.841303,0.0701293,-2.13794,0.0117866,
2,0,0,1,0,44461.8,0.0105866,0.0103148,-0.776771,23,0.00191907,10,-8.01223e-06,-3.10971,1.19091,0.0495421,-1.50545,0.0103148,
2,0,0,1,0,44462,0.00908846,0.00876872,-0.776621,23,0.00180031,10,-6.80997e-06,-3.10979,1.77312,0.0332747,-1.00809,0.00876872,
2,0,0,1,0,44462.1,0.00759027,0.0072587,-0.775269,23,0.00168171,10,-5.62745e-06,-3.11055,1.19259,0.0494723,-1.49564,0.007258703,
2,0,0,1,0,44462.3,0.00609207,0.00574762,-0.773444,23,0.0015634,10,-4.44546e-06,-3.11157,2.2999,0.0256533,-0.774353,0.00574762,
2,0,0,1,0,44462.4,0.00459389,0.00428532,-0.77269,23,0.00144546,10,-3.31123e-06,-3.11199,-6.42156,-0.0091878,0.277497,0.00428532,
2,0,0,1,0,44462.6,0.0030948,0.00277134,-0.772123,23,0.00132735,10,-2.13981e-06,-3.11231,-0.909516,-0.0648697,1.95949,0.00277134,
2,0,0,1,0,44462.7,0.00159728,0.00122471,-0.78241,23,0.00120779,10,-9.58227e-07,-3.10657, , , ,0.00122471,
2,0,0,1,0,44462.9,0.000199195,-0.000199347,-0.774473,23,0.00109675,10,1.54389e-07,-3.11099, , , ,-0.000199347,