File: Figure_codes/Fig_3-5/rawdata_trumpetplot_data/after 10th/20221101_1-115_003_TrumpetPlot_ParaChange_from10_every3_05_CV_C01_9.csv
mode,ox/red,error,control changes,counter inc.,time/s,control/V,Ewe/V,<I>/mA,cycle number,(Q-Qo)/C,I Range,P/W,log(|I|),Tafel slope mV/dec,alpha_eff,dI/d(E-IR),E-IR/V,
2,0,0,1,0,18851.2,2.44065e-05,-0.000401673,-0.742422,10,0.0000000E+000,10,2.98211e-07,-3.12935, , , ,-0.000401673,
2,1,0,1,0,18851.3,0.00129787,0.000912481,0.161147,10,-9.48796e-06,10,1.47043e-07,-3.79278, , , ,0.000912481,
2,1,0,1,0,18851.3,0.00279606,0.00247736,0.496889,10,1.84608e-05,10,1.23097e-06,-3.30374,0.00384181,15.3574,171.49,0.00247736,
2,1,0,1,0,18851.4,0.00429425,0.00395767,0.607954,10,6.16795e-05,10,2.40608e-06,-3.21613,0.0186951,3.15591,67.2717,0.00395767,
2,1,0,1,0,18851.5,0.00579244,0.00545822,0.675422,10,0.000111355,10,3.6866e-06,-3.17043,0.0376796,1.56583,40.1256,0.005458219,
2,1,0,1,0,18851.6,0.00729063,0.00697541,0.727624,10,0.000165337,10,5.07547e-06,-3.13809,0.0543057,1.08644,30.388,0.00697541,
2,1,0,1,0,18851.6,0.00878882,0.0084493,0.765596,10,0.000222675,10,6.46875e-06,-3.116,0.0711341,0.82942,24.6132,0.0084493,
2,1,0,1,0,18851.7,0.010287,0.00996485,0.802714,10,0.000282769,10,7.99892e-06,-3.09544,0.0900604,0.655116,20.3264,0.00996485,
2,1,0,1,0,18851.8,0.0117852,0.0114779,0.829375,10,0.000345133,10,9.51946e-06,-3.08125,0.107192,0.550412,17.7543,0.0114779,
2,1,0,1,0,18851.9,0.0132847,0.0129492,0.853984,10,0.000409458,10,1.10584e-05,-3.06855,0.110007,0.536327,17.919,0.0129492,
2,1,0,1,0,18851.9,0.0147802,0.0144383,0.877751,10,0.00047569,10,1.26732e-05,-3.05663,0.122879,0.480145,16.4351,0.01443829,
2,1,0,1,0,18852,0.0162798,0.0159442,0.905083,10,0.000544041,10,1.44308e-05,-3.04331,0.142795,0.413179,14.562,0.0159442,
2,1,0,1,0,18852.1,0.017778,0.0174577,0.925723,10,0.000613842,10,1.6161e-05,-3.03352,0.164173,0.359377,12.9737,0.0174577,
2,1,0,1,0,18852.2,0.0192761,0.0189559,0.944302,10,0.000685025,10,1.79001e-05,-3.02489,0.162481,0.363119,13.3847,0.0189559,
2,1,0,1,0,18852.2,0.0207743,0.0204522,0.965601,10,0.000757872,10,1.97486e-05,-3.0152,0.149149,0.395578,14.8834,0.0204522,
2,1,0,1,0,18852.3,0.0222725,0.0219716,0.987762,10,0.00083233,10,2.17028e-05,-3.00535,0.17117,0.344687,13.2721,0.0219716,
2,1,0,1,0,18852.4,0.0237707,0.0234655,1.00798,10,0.000908339,10,2.36528e-05,-2.99655,0.171489,0.344046,13.5259,0.0234655,
2,1,0,1,0,18852.5,0.0252689,0.024944,1.02314,10,0.000985713,10,2.55212e-05,-2.99007,0.178744,0.330081,13.2267,0.024944,
2,1,0,1,0,18852.5,0.0267671,0.0264718,1.04615,10,0.00106454,10,2.76934e-05,-2.98041,0.169511,0.34806,14.2059,0.0264718,
2,1,0,1,0,18852.6,0.0282653,0.0279442,1.06942,10,0.00114495,10,2.9884e-05,-2.97085,0.188701,0.312664,13.017,0.0279442,
2,1,0,1,0,18852.7,0.0297644,0.0294324,1.08786,10,0.00122704,10,3.20183e-05,-2.96343,0.19691,0.299629,12.6841,0.0294324,
2,1,0,1,0,18852.8,0.0312599,0.0309207,1.1009,10,0.00131029,10,3.40407e-05,-2.95825,0.198616,0.297055,12.7985,0.0309207,
2,1,0,1,0,18852.8,0.0327599,0.0324308,1.12642,10,0.00139522,10,3.65307e-05,-2.9483,0.191019,0.30887,13.5745,0.0324308,
2,1,0,1,0,18852.9,0.034258,0.033926,1.1465,10,0.0014816,10,3.8896e-05,-2.94063,0.19809,0.297844,13.3191,0.033926,
2,1,0,1,0,18853,0.0357562,0.0354697,1.16743,10,0.00156956,10,4.14084e-05,-2.93277,0.231438,0.254928,11.5782,0.0354697,
2,1,0,1,0,18853.1,0.0372544,0.0369288,1.18489,10,0.001659,10,4.37565e-05,-2.92632,0.217126,0.271732,12.5742,0.0369288,
2,1,0,1,0,18853.1,0.0387526,0.0384472,1.20586,10,0.00174967,10,4.63618e-05,-2.9187,0.219686,0.268566,12.6686,0.0384472,
2,1,0,1,0,18853.2,0.0402508,0.0399107,1.22469,10,0.00184193,10,4.88781e-05,-2.91197,0.201016,0.293509,14.0329,0.0399107,
2,1,0,1,0,18853.3,0.041749,0.0414397,1.24511,10,0.00193589,10,5.1597e-05,-2.90479,0.226145,0.260894,12.6529,0.0414397,
2,1,0,1,0,18853.4,0.0432472,0.0429569,1.26692,10,0.00203124,10,5.44231e-05,-2.89725,0.239695,0.246146,12.1341,0.0429569,
2,1,0,1,0,18853.4,0.0447449,0.0444125,1.28203,10,0.00212779,10,5.69379e-05,-2.8921,0.236415,0.249561,12.5029,0.0444125,
2,1,0,1,0,18853.5,0.0462445,0.0459291,1.30183,10,0.00222592,10,5.9792e-05,-2.88544,0.214641,0.274877,13.9536,0.0459291,
2,1,0,1,0,18853.6,0.04774,0.0474461,1.32009,10,0.00232527,10,6.26331e-05,-2.8794,0.229864,0.256674,13.2206,0.0474461,
2,1,0,1,0,18853.7,0.0492399,0.0489377,1.33713,10,0.00242632,10,6.54359e-05,-2.87383,0.264497,0.223065,11.6411,0.0489377,
2,1,0,1,0,18853.7,0.0507381,0.0504319,1.35153,10,0.00252849,10,6.81602e-05,-2.86917,0.278413,0.211915,11.2155,0.0504319,
2,1,0,1,0,18853.8,0.0522363,0.0519147,1.3715,10,0.00263188,10,7.12009e-05,-2.8628,0.251241,0.234835,12.5907,0.0519147,
2,1,0,1,0,18853.9,0.0537345,0.0534181,1.39511,10,0.00273682,10,7.45243e-05,-2.85539,0.266674,0.221244,12.004,0.0534181,
2,1,0,1,0,18854,0.0552327,0.0549464,1.40929,10,0.00284317,10,7.74354e-05,-2.851,0.325568,0.181221,9.94803,0.0549464,
2,1,0,1,0,18854,0.0567309,0.0563926,1.42266,10,0.00295059,10,8.02274e-05,-2.8469,0.337076,0.175035,9.74208,0.0563926,
2,1,0,1,0,18854.1,0.0582291,0.0579143,1.44185,10,0.00305903,10,8.35036e-05,-2.84108,0.324757,0.181674,10.2245,0.0579143,
2,1,0,1,0,18854.2,0.0597291,0.0594164,1.45708,10,0.00316899,10,8.65742e-05,-2.83652,0.318029,0.185517,10.5339,0.0594164,
2,1,0,1,0,18854.3,0.0612246,0.0609042,1.47191,10,0.00327991,10,8.96456e-05,-2.83212,0.373403,0.158006,9.0662,0.0609042,
2,1,0,1,0,18854.3,0.0627241,0.0624254,1.48855,10,0.00339226,10,9.29232e-05,-2.82724,0.333835,0.176734,10.2707,0.0624254,
2,1,0,1,0,18854.4,0.0642219,0.0639014,1.50237,10,0.00350535,10,9.60033e-05,-2.82322,0.32818,0.17978,10.5572,0.0639014,
2,1,0,1,0,18854.5,0.06572,0.0654242,1.51759,10,0.00361983,10,9.92874e-05,-2.81884,0.313465,0.188219,11.143,0.0654242,
2,1,0,1,0,18854.6,0.0672182,0.0668672,1.53673,10,0.00373554,10,0.000102757,-2.8134,0.343635,0.171694,10.2666,0.0668672,
2,1,0,1,0,18854.6,0.0687164,0.0683954,1.55025,10,0.00385231,10,0.00010603,-2.8096,0.480062,0.122901,7.42344,0.0683954,
2,1,0,1,0,18854.7,0.0702146,0.0699107,1.55855,10,0.00396983,10,0.000108959,-2.80728,0.475601,0.124054,7.55124,0.0699107,
2,1,0,1,0,18854.8,0.0717128,0.0713954,1.57295,10,0.00408833,10,0.000112301,-2.80328,0.373283,0.158057,9.68765,0.07139536,
2,1,0,1,0,18854.9,0.073211,0.0728609,1.58509,10,0.0042079,10,0.000115491,-2.79995,0.410745,0.143641,8.88494,0.0728609,
2,1,0,1,0,18854.9,0.0747092,0.0744026,1.60014,10,0.00432843,10,0.000119054,-2.79584,0.455072,0.12965,8.08158,0.07440263,
2,1,0,1,0,18855,0.0762087,0.07584,1.60538,10,0.00445001,10,0.000121752,-2.79442,0.452695,0.13033,8.19638,0.07584,
2,1,0,1,0,18855.1,0.0777042,0.0773768,1.62129,10,0.00457207,10,0.00012545,-2.79014,0.41052,0.14372,9.09474,0.07737685,
2,1,0,1,0,18855.1,0.0792037,0.0789032,1.63535,10,0.00469544,10,0.000129034,-2.78639,0.445708,0.132374,8.43939,0.0789032,
2,1,0,1,0,18855.2,0.0807019,0.0803958,1.64577,10,0.00481961,10,0.000132313,-2.78363,0.50377,0.117117,7.50676,0.0803958,
2,1,0,1,0,18855.3,0.0822001,0.0818677,1.65223,10,0.00494457,10,0.000135264,-2.78193,0.537342,0.1098,7.09663,0.08186774,
2,1,0,1,0,18855.4,0.0836983,0.0834047,1.66489,10,0.00507017,10,0.000138859,-2.77862,0.513346,0.114932,7.48035,0.0834047,
2,1,0,1,0,18855.4,0.0851965,0.0848636,1.67798,10,0.0051968,10,0.0001424,-2.77521,0.433873,0.135984,8.92492,0.0848636,
2,1,0,1,0,18855.5,0.0866947,0.0863727,1.69372,10,0.00532445,10,0.000146291,-2.77116,0.479546,0.123033,8.12553,0.0863727,
2,1,0,1,0,18855.6,0.0881929,0.0879004,1.7071,10,0.00545311,10,0.000150055,-2.76774,0.422986,0.139485,9.30846,0.08790043,
2,1,0,1,0,18855.7,0.0896911,0.0893756,1.72214,10,0.00558266,10,0.000153917,-2.76393,0.330406,0.178568,12.0211,0.0893756,
2,1,0,1,0,18855.7,0.0911893,0.090889,1.74032,10,0.00571359,10,0.000158176,-2.75937,0.285767,0.206462,14.0305,0.090889,
2,1,0,1,0,18855.8,0.0926884,0.0923411,1.76274,10,0.00584632,10,0.000162773,-2.75381,0.283938,0.207792,14.2747,0.0923411,
2,1,0,1,0,18855.9,0.0941839,0.0938694,1.78221,10,0.00598013,10,0.000167295,-2.74904,0.309915,0.190375,13.2601,0.0938694,
2,1,0,1,0,18856,0.0956838,0.0953591,1.79894,10,0.00611574,10,0.000171545,-2.74498,0.265091,0.222565,15.6807,0.0953591,
2,1,0,1,0,18856,0.097182,0.0968518,1.82616,10,0.00625303,10,0.000176867,-2.73846,0.220952,0.267026,19.0602,0.0968518,
2,1,0,1,0,18856.1,0.0986802,0.0983199,1.85665,10,0.00639234,10,0.000182545,-2.73127,0.220862,0.267136,19.3795,0.0983199,
2,1,0,1,0,18856.2,0.100178,0.0998757,1.8864,10,0.00653387,10,0.000188405,-2.72437,0.215344,0.27398,20.1713,0.0998757,
2,1,0,1,0,18856.3,0.101677,0.101334,1.91501,10,0.00667766,10,0.000194055,-2.71783,0.205625,0.286931,21.496,0.101334,
2,1,0,1,0,18856.3,0.103175,0.102851,1.95269,10,0.00682371,10,0.000200836,-2.70937,0.196995,0.2995,22.836,0.102851,
2,1,0,1,0,18856.4,0.104673,0.104333,1.99167,10,0.00697254,10,0.000207798,-2.70078,0.186494,0.316364,24.5037,0.104333,
2,1,0,1,0,18856.5,0.106171,0.105858,2.02338,10,0.00712409,10,0.000214192,-2.69392,0.211565,0.278874,21.9565,0.105858,
2,1,0,1,0,18856.6,0.107669,0.10734,2.05694,10,0.00727813,10,0.000220792,-2.68678,0.217556,0.271194,21.7441,0.10734,
2,1,0,1,0,18856.6,0.109168,0.108857,2.08568,10,0.00743466,10,0.00022704,-2.68075,0.211961,0.278353,22.6944,0.1088567,
2,1,0,1,0,18856.7,0.110664,0.110348,2.11824,10,0.00759334,10,0.000233744,-2.67403,0.22232,0.265383,21.9564,0.110348,
2,1,0,1,0,18856.8,0.112164,0.111849,2.15147,10,0.00775498,10,0.000240639,-2.66726,0.276205,0.21361,17.8982,0.1118487,
2,1,0,1,0,18856.9,0.113662,0.113338,2.17864,10,0.00791856,10,0.000246924,-2.66181,0.287999,0.204862,17.3901,0.1133383,
2,1,0,1,0,18856.9,0.11516,0.11481,2.20176,10,0.00808386,10,0.000252785,-2.65723,0.299731,0.196843,16.9187,0.11481,
2,1,0,1,0,18857,0.116658,0.116333,2.22908,10,0.00825111,10,0.000259316,-2.65187,0.336758,0.1752,15.2199,0.116333,
2,1,0,1,0,18857.1,0.118157,0.117846,2.25225,10,0.00842032,10,0.000265419,-2.64738,0.374607,0.157499,13.826,0.117846,
2,1,0,1,0,18857.2,0.119655,0.119355,2.27203,10,0.00859104,10,0.000271177,-2.64359,0.452213,0.130469,11.5568,0.119355,
2,1,0,1,0,18857.2,0.121153,0.120871,2.28622,10,0.00876293,10,0.000276337,-2.64088,0.441342,0.133683,11.9392,0.120871,
2,1,0,1,0,18857.3,0.122653,0.122326,2.3046,10,0.00893628,10,0.000281914,-2.6374,0.410842,0.143608,12.9071,0.122326,
2,1,0,1,0,18857.4,0.124149,0.12387,2.32018,10,0.00911065,10,0.000287402,-2.63448,0.428575,0.137665,12.4616,0.12387,
2,1,0,1,0,18857.5,0.125648,0.125286,2.33778,10,0.00928678,10,0.000292891,-2.6312,0.530395,0.111238,10.1409,0.125286,
2,1,0,1,0,18857.5,0.127146,0.126776,2.35138,10,0.00946387,10,0.000298099,-2.62868,0.520371,0.113381,10.4157,0.1267762,
2,1,0,1,0,18857.6,0.128644,0.128336,2.36868,10,0.00964195,10,0.000303987,-2.62549,0.507752,0.116198,10.7579,0.128336,
2,1,0,1,0,18857.7,0.130142,0.129813,2.38584,10,0.00982135,10,0.000309713,-2.62236,0.517451,0.114021,10.6098,0.129813,
2,1,0,1,0,18857.8,0.13164,0.131279,2.40208,10,0.0100021,10,0.000315343,-2.61941,0.798067,0.0739286,6.9137,0.131279,
2,1,0,1,0,18857.8,0.133139,0.132826,2.41124,10,0.0101837,10,0.000320276,-2.61776,1.05089,0.056143,5.28067,0.132826,
2,1,0,1,0,18857.9,0.134637,0.134294,2.41686,10,0.0103658,10,0.00032457,-2.61675,2.53311,0.0232915,2.19571,0.134294,
2,1,0,1,0,18858,0.136135,0.135828,2.4207,10,0.0105483,10,0.000328799,-2.61606,-4.67846,-0.012611,-1.18696,0.135828,
2,1,0,1,0,18858.1,0.137633,0.137304,2.41565,10,0.0107308,10,0.000331677,-2.61697,-0.740277,-0.0796999,-7.48177,0.137304,
2,1,0,1,0,18858.1,0.139133,0.13884,2.40037,10,0.0109126,10,0.000333267,-2.61972,-0.387125,-0.152405,-14.21,0.1388398,
2,1,0,1,0,18858.2,0.140628,0.140319,2.36823,10,0.0110921,10,0.000332309,-2.62558,-0.25349,-0.232751,-21.4291,0.140319,
2,1,0,1,0,18858.3,0.142128,0.141814,2.33184,10,0.0112698,10,0.000330687,-2.6323,-0.192139,-0.30707,-27.8038,0.141814,
2,1,0,1,0,18858.4,0.143626,0.143346,2.28774,10,0.0114441,10,0.000327938,-2.64059,-0.14632,-0.403227,-35.7624,0.143346,
2,1,0,1,0,18858.4,0.145124,0.144795,2.22223,10,0.0116142,10,0.000321768,-2.65321,-0.109219,-0.540199,-46.6548,0.144795,
2,1,0,1,0,18858.5,0.146622,0.146313,2.1441,10,0.0117791,10,0.000313709,-2.66876,-0.0981341,-0.601218,-50.2528,0.146313,
2,1,0,1,0,18858.6,0.14812,0.147803,2.06745,10,0.0119382,10,0.000305575,-2.68457,-0.0885783,-0.666078,-53.564,0.147803,
2,1,0,1,0,18858.7,0.149619,0.149332,1.98757,10,0.0120914,10,0.000296807,-2.70168,-0.0816439,-0.722651,-55.8449,0.149332,
2,1,0,1,0,18858.7,0.151117,0.150763,1.90089,10,0.0122382,10,0.000286583,-2.72104,-0.0734077,-0.803731,-59.4859,0.150763,
2,1,0,1,0,18858.8,0.152615,0.152284,1.80837,10,0.0123784,10,0.000275386,-2.74271,-0.0715045,-0.825122,-58.3659,0.152284,
2,1,0,1,0,18858.9,0.154113,0.15376,1.72954,10,0.0125122,10,0.000265934,-2.76207,-0.0771416,-0.764828,-51.8022,0.15376,
2,1,0,1,0,18859,0.155613,0.155278,1.65519,10,0.0126403,10,0.000257015,-2.78115,-0.0791571,-0.745353,-48.273,0.155278,
2,1,0,1,0,18859,0.157108,0.156806,1.58376,10,0.0127626,10,0.000248344,-2.80031,-0.0799497,-0.737964,-45.6528,0.156806,
2,1,0,1,0,18859.1,0.158608,0.158249,1.51657,10,0.0128802,10,0.000239995,-2.81914,-0.0852588,-0.69201,-41.1462,0.158249,
2,1,0,1,0,18859.2,0.160106,0.159777,1.46057,10,0.0129929,10,0.000233366,-2.83548,-0.0907319,-0.650268,-37.1963,0.159777,
2,1,0,1,0,18859.3,0.161604,0.161321,1.40987,10,0.0131016,10,0.000227442,-2.85082,-0.10145,-0.581567,-32.0785,0.161321,
2,1,0,1,0,18859.3,0.163102,0.16279,1.36471,10,0.0132067,10,0.000222161,-2.86496,-0.112783,-0.523128,-27.9385,0.16279,
2,1,0,1,0,18859.4,0.164601,0.164232,1.32402,10,0.0133086,10,0.000217447,-2.87811,-0.119334,-0.49441,-25.6175,0.164232,
2,1,0,1,0,18859.5,0.166099,0.165774,1.2895,10,0.0134076,10,0.000213765,-2.88958,-0.130915,-0.450673,-22.7149,0.165774,
2,1,0,1,0,18859.6,0.167597,0.167246,1.25632,10,0.0135042,10,0.000210115,-2.9009,-0.155988,-0.378235,-18.5975,0.167246,
2,1,0,1,0,18859.6,0.169095,0.168686,1.23052,10,0.0135986,10,0.000207571,-2.90991,-0.159951,-0.368862,-17.7632,0.168686,
2,1,0,1,0,18859.7,0.170593,0.170332,1.20348,10,0.0136911,10,0.000204991,-2.91956,-0.172327,-0.342372,-16.1125,0.170332,
2,1,0,1,0,18859.8,0.172092,0.171745,1.1799,10,0.0137818,10,0.000202643,-2.92815,-0.199839,-0.295238,-13.6339,0.171745,
2,1,0,1,0,18859.9,0.173588,0.173249,1.16328,10,0.0138707,10,0.000201537,-2.93432,-0.225943,-0.261128,-11.8872,0.173249,
2,1,0,1,0,18859.9,0.175088,0.17474,1.14694,10,0.0139585,10,0.000200417,-2.94046,-0.240081,-0.245751,-10.9845,0.17474,
2,1,0,1,0,18860,0.176586,0.176311,1.12971,10,0.014045,10,0.00019918,-2.94703,-0.248148,-0.237762,-10.467,0.176311,
2,1,0,1,0,18860.1,0.178084,0.177762,1.11368,10,0.0141304,10,0.000197969,-2.95324,-0.285949,-0.20633,-8.98758,0.177762,
2,1,0,1,0,18860.2,0.179582,0.179293,1.10387,10,0.0142146,10,0.000197916,-2.95708,-0.345649,-0.170693,-7.3721,0.179293,
2,1,0,1,0,18860.2,0.181081,0.180789,1.09263,10,0.0142981,10,0.000197535,-2.96153,-0.356826,-0.165347,-7.05502,0.180789,
2,1,0,1,0,18860.3,0.182579,0.1823,1.0811,10,0.0143809,10,0.000197085,-2.96613,-0.330663,-0.178429,-7.52638,0.1823,
2,1,0,1,0,18860.4,0.184077,0.183794,1.07367,10,0.0144629,10,0.000197334,-2.96913,-0.37384,-0.157822,-6.61829,0.183794,
2,1,0,1,0,18860.5,0.185577,0.185262,1.06263,10,0.0145441,10,0.000196864,-2.97362,-0.459084,-0.128517,-5.34578,0.185262,
2,1,0,1,0,18860.5,0.187073,0.186789,1.05778,10,0.0146246,10,0.000197582,-2.9756,-0.566139,-0.104215,-4.29632,0.186789,
2,1,0,1,0,18860.6,0.188572,0.188252,1.05051,10,0.0147049,10,0.000197761,-2.9786,-0.549374,-0.107395,-4.39517,0.188252,
2,1,0,1,0,18860.7,0.19007,0.189806,1.04299,10,0.0147845,10,0.000197965,-2.98172,-0.557809,-0.105771,-4.30799,0.189806,
2,1,0,1,0,18860.8,0.191568,0.191245,1.03481,10,0.0148635,10,0.000197904,-2.98514,-0.600107,-0.0983158,-3.9807,0.191245,
2,1,0,1,0,18860.8,0.193066,0.192743,1.02966,10,0.0149422,10,0.000198459,-2.98731,-1.35754,-0.0434609,-1.74722,0.192743,
2,1,0,1,0,18860.9,0.194564,0.194288,1.02703,10,0.0150205,10,0.00019954,-2.98842,-0.848227,-0.0695568,-2.78649,0.194288,
2,1,0,1,0,18861,0.196063,0.195755,1.02195,10,0.0150986,10,0.000200053,-2.99057,-0.553456,-0.106603,-4.2518,0.195755,
2,1,0,1,0,18861.1,0.197561,0.197259,1.01257,10,0.0151761,10,0.000199739,-2.99457,-0.889948,-0.066296,-2.63102,0.197259,
2,1,0,1,0,18861.1,0.199059,0.198714,1.01108,10,0.0152532,10,0.000200917,-2.99521,-0.675359,-0.087361,-3.4475,0.198714,
2,1,0,1,0,18861.2,0.200557,0.200226,1.00819,10,0.0153301,10,0.000201866,-2.99646,-1.35355,-0.043589,-1.7133,0.200226,
2,1,0,1,0,18861.3,0.202057,0.201753,1.00489,10,0.0154068,10,0.000202739,-2.99788,-0.918992,-0.0642008,-2.50968,0.201753,
2,1,0,1,0,18861.4,0.203552,0.203267,0.997039,10,0.0154829,10,0.000202665,-3.00129,-0.686603,-0.0859303,-3.35296,0.203267,
2,1,0,1,0,18861.4,0.205052,0.204748,0.993783,10,0.0155589,10,0.000203475,-3.00271,39.4,0.00149746,0.0584434,0.204748,
2,1,0,1,0,18861.5,0.20655,0.206229,0.990728,10,0.0156346,10,0.000204317,-3.00405,-1.30992,-0.045041,-1.743,0.206229,
2,1,0,1,0,18861.6,0.208048,0.20777,0.989358,10,0.0157103,10,0.000205559,-3.00465,-0.916112,-0.0644026,-2.48402,0.20777,
2,1,0,1,0,18861.7,0.209546,0.209198,0.98728,10,0.0157857,10,0.000206537,-3.00556,-0.748759,-0.0787971,-3.04185,0.209198,
2,1,0,1,0,18861.7,0.211044,0.210762,0.983191,10,0.0158606,10,0.00020722,-3.00736,-1.19107,-0.0495351,-1.90019,0.210762,
2,1,0,1,0,18861.8,0.212543,0.212255,0.979861,10,0.0159354,10,0.00020798,-3.00884,-1.69615,-0.0347846,-1.32863,0.212255,
2,1,0,1,0,18861.9,0.214041,0.213738,0.979516,10,0.01601,10,0.00020936,-3.00899,-0.901408,-0.0654531,-2.49666,0.2137381,
2,1,0,1,0,18862,0.215539,0.215229,0.973417,10,0.0160844,10,0.000209508,-3.0117,-1.20704,-0.0488799,-1.85989,0.215229,
2,1,0,1,0,18862,0.217037,0.216725,0.970321,10,0.0161584,10,0.000210293,-3.01308,-1.80801,-0.0326326,-1.2392,0.216725,
2,1,0,1,0,18862.1,0.218536,0.218236,0.968198,10,0.0162324,10,0.000211295,-3.01404,-2.19712,-0.0268533,-1.01488,0.2182357,
2,1,0,1,0,18862.2,0.220032,0.219731,0.968437,10,0.0163061,10,0.000212796,-3.01393,-1.70754,-0.0345527,-1.30489,0.219731,
2,1,0,1,0,18862.3,0.221532,0.221232,0.963107,10,0.0163798,10,0.00021307,-3.01633,-0.956043,-0.0617127,-2.32223,0.221232,
2,1,0,1,0,18862.3,0.22303,0.222718,0.95712,10,0.0164532,10,0.000213168,-3.01903,-2.02492,-0.029137,-1.09346,0.222718,
2,1,0,1,0,18862.4,0.224528,0.224179,0.957174,10,0.0165263,10,0.000214579,-3.01901,-1.59314,-0.0370338,-1.38384,0.224179,
2,1,0,1,0,18862.5,0.226026,0.225693,0.958534,10,0.0165993,10,0.000216335,-3.01839,-1.52757,-0.0386234,-1.44162,0.225693,
2,1,0,1,0,18862.6,0.227525,0.227241,0.956727,10,0.0166722,10,0.000217408,-3.01921,-1.13674,-0.0519026,-1.93254,0.227241,
2,1,0,1,0,18862.6,0.229023,0.228713,0.950241,10,0.0167449,10,0.000217333,-3.02217,-1.98351,-0.0297453,-1.10814,0.228713,
2,1,0,1,0,18862.7,0.230521,0.230257,0.949102,10,0.0168174,10,0.000218537,-3.02269,-2.17836,-0.0270845,-1.0074,0.230257,
2,1,0,1,0,18862.8,0.232019,0.231677,0.949516,10,0.0168898,10,0.000219981,-3.0225,-2.4538,-0.0240444,-0.891517,0.231677,
2,1,0,1,0,18862.9,0.233517,0.233242,0.949213,10,0.0169621,10,0.000221396,-3.02264,-2.57154,-0.0229435,-0.846928,0.233242,
2,1,0,1,0,18862.9,0.235016,0.234699,0.946346,10,0.0170344,10,0.000222107,-3.02395,-1.99206,-0.0296177,-1.09112,0.234699,
2,1,0,1,0,18863,0.236512,0.236169,0.942138,10,0.0171062,10,0.000222504,-3.02589,-2.52128,-0.0234008,-0.860192,0.236169,
2,1,0,1,0,18863.1,0.238012,0.237715,0.944303,10,0.0171781,10,0.000224475,-3.02489,41.8722,0.00140905,0.0517383,0.237715,
2,1,0,1,0,18863.2,0.23951,0.239215,0.937984,10,0.0172497,10,0.00022438,-3.0278,-1.38129,-0.0427137,-1.5654,0.239215,
2,1,0,1,0,18863.2,0.241008,0.240696,0.936638,10,0.0173213,10,0.000225444,-3.02843,-1.47051,-0.0401221,-1.47005,0.240696,
2,1,0,1,0,18863.3,0.242506,0.242175,0.933398,10,0.0173926,10,0.000226045,-3.02993,-1.66116,-0.0355174,-1.2973,0.242175,
2,1,0,1,0,18863.4,0.244005,0.243693,0.934494,10,0.0174639,10,0.00022773,-3.02942,-1013.19,-5.8232e-05,-0.00212529,0.243693,
2,1,0,1,0,18863.5,0.245503,0.245208,0.935654,10,0.0175351,10,0.00022943,-3.02888,-1.58836,-0.0371452,-1.35227,0.245208,
2,1,0,1,0,18863.5,0.247001,0.246748,0.932767,10,0.0176062,10,0.000230158,-3.03023,-1.30832,-0.0450961,-1.63524,0.246748,
2,1,0,1,0,18863.6,0.248501,0.248162,0.927962,10,0.0176772,10,0.000230285,-3.03247,-1.26606,-0.0466014,-1.69101,0.248162,
2,1,0,1,0,18863.7,0.249997,0.249722,0.93034,10,0.0177478,10,0.000232326,-3.03136,-29.4847,-0.00200103,-0.0725129,0.249722,
2,1,0,1,0,18863.8,0.251496,0.251204,0.924901,10,0.0178186,10,0.000232339,-3.0339,-1.58997,-0.0371076,-1.34051,0.251204,
2,1,0,1,0,18863.8,0.252994,0.252675,0.922993,10,0.0178892,10,0.000233217,-3.0348,-1.33325,-0.0442528,-1.59329,0.252675,
2,1,0,1,0,18863.9,0.254492,0.254168,0.920474,10,0.0179596,10,0.000233955,-3.03599,-1.35471,-0.0435519,-1.57121,0.254168,
2,1,0,1,0,18864,0.25599,0.255706,0.92203,10,0.0180298,10,0.000235768,-3.03525,-2.71903,-0.0216989,-0.781259,0.255706,
2,1,0,1,0,18864.1,0.257488,0.257193,0.919842,10,0.0180999,10,0.000236577,-3.03629,-7.21602,-0.00817625,-0.293174,0.257193,
2,1,0,1,0,18864.1,0.258987,0.258686,0.917679,10,0.0181701,10,0.000237391,-3.03731,-1.51117,-0.0390425,-1.39646,0.258686,
2,1,0,1,0,18864.2,0.260485,0.260206,0.918821,10,0.0182401,10,0.000239083,-3.03677,-1.02404,-0.0576147,-2.06087,0.260206,
2,1,0,1,0,18864.3,0.261983,0.261639,0.913649,10,0.0183097,10,0.000239046,-3.03922,-1.68116,-0.0350947,-1.25184,0.261639,
2,1,0,1,0,18864.4,0.263481,0.263223,0.912561,10,0.0183793,10,0.000240207,-3.03974,-4.02827,-0.0146465,-0.520645,0.263223,
2,1,0,1,0,18864.4,0.264981,0.264651,0.911111,10,0.018449,10,0.000241127,-3.04043,-3.11013,-0.0189703,-0.673969,0.264651,
2,1,0,1,0,18864.5,0.266476,0.266203,0.909761,10,0.0185184,10,0.000242181,-3.04107,-2.82381,-0.0208938,-0.741563,0.266203,
2,1,0,1,0,18864.6,0.267976,0.267651,0.904564,10,0.0185876,10,0.000242108,-3.04356,-1.59863,-0.0369067,-1.30878,0.2676512,
2,1,0,1,0,18864.7,0.269474,0.269157,0.90761,10,0.0186568,10,0.000244289,-3.0421,-40.8438,-0.00144453,-0.0509834,0.269157,
2,1,0,1,0,18864.7,0.270972,0.270648,0.907322,10,0.0187259,10,0.000245565,-3.04224,-2.10205,-0.0280678,-0.989736,0.270648,
2,1,0,1,0,18864.8,0.27247,0.272132,0.903797,10,0.0187949,10,0.000245952,-3.04393,-0.893139,-0.0660592,-2.32438,0.2721315,
2,1,0,1,0,18864.9,0.273968,0.273662,0.900416,10,0.0188637,10,0.00024641,-3.04556,-1.23884,-0.0476253,-1.67577,0.273662,
2,1,0,1,0,18865,0.275467,0.275164,0.898672,10,0.0189323,10,0.000247282,-3.0464,-0.981899,-0.0600877,-2.106,0.275164,
2,1,0,1,0,18865,0.276965,0.276658,0.898036,10,0.0190008,10,0.000248449,-3.04671,-1.40217,-0.0420777,-1.47403,0.276658,
2,1,0,1,0,18865.1,0.278463,0.278171,0.894623,10,0.0190692,10,0.000248858,-3.04836,-1.05375,-0.0559902,-1.95204,0.278171,
2,1,0,1,0,18865.2,0.279961,0.279642,0.896922,10,0.0191374,10,0.000250818,-3.04725,-2.47544,-0.0238341,-0.831306,0.279642,
2,1,0,1,0,18865.3,0.28146,0.281144,0.893229,10,0.0192055,10,0.000251126,-3.04904,-1.44477,-0.0408369,-1.41967,0.281144,
2,1,0,1,0,18865.3,0.282956,0.282652,0.890371,10,0.0192734,10,0.000251665,-3.05043,-2.32389,-0.0253885,-0.880166,0.282652,
2,1,0,1,0,18865.4,0.284456,0.284143,0.888034,10,0.0193414,10,0.000252328,-3.05157,-1.6961,-0.0347857,-1.20524,0.284143,
2,1,0,1,0,18865.5,0.285954,0.285636,0.88573,10,0.0194091,10,0.000252996,-3.0527,-1.19522,-0.0493634,-1.70744,0.285636,
2,1,0,1,0,18865.6,0.287452,0.287125,0.882846,10,0.0194765,10,0.000253488,-3.05411,-1.44732,-0.0407651,-1.40537,0.287125,
2,1,0,1,0,18865.6,0.28895,0.288645,0.883289,10,0.019544,10,0.000254957,-3.0539,31.7776,0.00185665,0.0638368,0.288645,
2,1,0,1,0,18865.7,0.290449,0.290073,0.882758,10,0.0196113,10,0.000256064,-3.05416,-1.3133,-0.0449249,-1.54903,0.290073,
2,1,0,1,0,18865.8,0.291947,0.291649,0.879191,10,0.0196785,10,0.000256415,-3.05592,-1.58441,-0.0372379,-1.27747,0.291649,
2,1,0,1,0,18865.9,0.293445,0.293135,0.872468,10,0.0197455,10,0.000255751,-3.05925,-1.51787,-0.0388701,-1.33105,0.293135,
2,1,0,1,0,18865.9,0.294943,0.294641,0.875865,10,0.0198124,10,0.000258065,-3.05756,-2.33647,-0.0252518,-0.86298,0.294641,
2,1,0,1,0,18866,0.296441,0.296166,0.875451,10,0.0198792,10,0.000259278,-3.05777,-3.62878,-0.0162589,-0.554511,0.2961655,
2,1,0,1,0,18866.1,0.29794,0.297658,0.873145,10,0.019946,10,0.000259898,-3.05891,-3.20372,-0.0184161,-0.627232,0.297658,
2,1,0,1,0,18866.2,0.299436,0.299111,0.866667,10,0.0200124,10,0.000259229,-3.06215,-0.0029144,-20.2443,-359.508,0.299111,
2,1,0,1,0,18866.2,0.299739,0.299435,0.504912,10,0.0200454,10,0.000151188,-3.29678,0.00105571,55.8867,777.554,0.299435,
2,1,0,1,0,18866.3,0.298239,0.29792,-0.0135206,10,0.0200562,10,-4.02805e-06,-4.86901,0.00468063,12.6052,274.31,0.29792,
2,0,0,1,0,18866.4,0.296741,0.296423,-0.117082,10,0.0200492,10,-3.47057e-05,-3.93151,-0.0077499,-7.613,60.4204,0.296423,
2,0,0,1,0,18866.4,0.295243,0.294954,-0.170043,10,0.020037,10,-5.01548e-05,-3.76944,-0.0111728,-5.2807,29.9608,0.294954,
2,0,0,1,0,18866.5,0.293745,0.293432,-0.20671,10,0.0200215,10,-6.06551e-05,-3.68464,-0.0207833,-2.83881,21.5389,0.293432,
2,0,0,1,0,18866.6,0.292246,0.291918,-0.231711,10,0.0200039,10,-6.76407e-05,-3.63505,-0.0311786,-1.89232,16.7118,0.291918,
2,0,0,1,0,18866.7,0.290748,0.290441,-0.255729,10,0.0199843,10,-7.42743e-05,-3.59222,-0.0377948,-1.56106,15.2434,0.290441,
2,0,0,1,0,18866.7,0.28925,0.288972,-0.276587,10,0.0199631,10,-7.99259e-05,-3.55817,-0.050171,-1.17598,12.6066,0.288972,
2,0,0,1,0,18866.8,0.287752,0.287483,-0.294968,10,0.0199404,10,-8.47982e-05,-3.53023,-0.06035,-0.977631,11.1297,0.287483,
2,0,0,1,0,18866.9,0.286254,0.285968,-0.308963,10,0.0199166,10,-8.83535e-05,-3.51009,-0.0730058,-0.808155,9.7574,0.285968,
2,0,0,1,0,18867,0.284754,0.284447,-0.324637,10,0.0198916,10,-9.23418e-05,-3.4886,-0.0684314,-0.862177,10.8155,0.284447,
2,0,0,1,0,18867,0.283259,0.28296,-0.339449,10,0.0198654,10,-9.60506e-05,-3.46923,-0.0855841,-0.68938,9.04469,0.28296,
2,0,0,1,0,18867.1,0.281759,0.281478,-0.350134,10,0.0198382,10,-9.85551e-05,-3.45577,-0.0950899,-0.620465,8.47766,0.281478,
2,0,0,1,0,18867.2,0.280261,0.279957,-0.360551,10,0.0198102,10,-0.000100939,-3.44303,-0.109036,-0.541105,7.65448,0.279957,
2,0,0,1,0,18867.3,0.278763,0.278441,-0.374236,10,0.0197814,10,-0.000104202,-3.42685,-0.132388,-0.44566,6.48961,0.278441,
2,0,0,1,0,18867.3,0.277264,0.27694,-0.386388,10,0.0197516,10,-0.000107006,-3.41298,-0.121416,-0.485934,7.25686,0.27694,
2,0,0,1,0,18867.4,0.275766,0.275433,-0.39404,10,0.0197212,10,-0.000108532,-3.40446,-0.173117,-0.340811,5.23117,0.275433,
2,0,0,1,0,18867.5,0.274268,0.273947,-0.404254,10,0.01969,10,-0.000110744,-3.39335,-0.162644,-0.362755,5.72252,0.273947,
2,0,0,1,0,18867.6,0.27277,0.272476,-0.412103,10,0.0196583,10,-0.000112288,-3.38499,-0.148847,-0.396379,6.40905,0.2724759,
2,0,0,1,0,18867.6,0.271272,0.270932,-0.422421,10,0.0196258,10,-0.000114447,-3.37425,-0.150874,-0.391054,6.41338,0.270932,
2,0,0,1,0,18867.7,0.269774,0.269426,-0.432021,10,0.0195925,10,-0.000116398,-3.36449,-0.159911,-0.368956,6.19329,0.269426,
2,0,0,1,0,18867.8,0.268274,0.267957,-0.439897,10,0.0195586,10,-0.000117873,-3.35665,-0.181686,-0.324736,5.54584,0.267957,
2,0,0,1,0,18867.9,0.266779,0.266425,-0.4448,10,0.0195243,10,-0.000118506,-3.35183,-0.180114,-0.32757,5.70901,0.266425,
2,0,0,1,0,18867.9,0.265279,0.264991,-0.452341,10,0.0194892,10,-0.000119866,-3.34453,-0.183512,-0.321505,5.67263,0.264991,
2,0,0,1,0,18868,0.263781,0.263457,-0.461898,10,0.0194537,10,-0.00012169,-3.33545,-0.187967,-0.313884,5.66505,0.263457,
2,0,0,1,0,18868.1,0.262283,0.26193,-0.468637,10,0.0194175,10,-0.00012275,-3.32916,-0.234216,-0.251904,4.60056,0.26193,
2,0,0,1,0,18868.2,0.260784,0.26048,-0.472889,10,0.0193808,10,-0.000123178,-3.32524,-0.225968,-0.261098,4.84775,0.2604804,
2,0,0,1,0,18868.2,0.259286,0.258985,-0.483507,10,0.0193436,10,-0.000125221,-3.3156,-0.219462,-0.268839,5.06523,0.258985,
2,0,0,1,0,18868.3,0.257788,0.257449,-0.494984,10,0.0193059,10,-0.000127433,-3.30541,-0.271825,-0.217052,4.15067,0.257449,
2,0,0,1,0,18868.4,0.25629,0.255985,-0.498711,10,0.0192676,10,-0.000127662,-3.30215,-0.24015,-0.24568,4.76041,0.255985,
2,0,0,1,0,18868.5,0.25479,0.254471,-0.502088,10,0.0192287,10,-0.000127767,-3.29922,-0.254526,-0.231804,4.5341,0.254471,
2,0,0,1,0,18868.5,0.253294,0.252963,-0.509621,10,0.0191897,10,-0.000128915,-3.29275,-0.286298,-0.206079,4.11228,0.252963,
2,0,0,1,0,18868.6,0.251795,0.251448,-0.515566,10,0.01915,10,-0.000129638,-3.28772,-0.273782,-0.2155,4.34325,0.251448,
2,0,0,1,0,18868.7,0.250297,0.249963,-0.523987,10,0.0191098,10,-0.000130978,-3.28068,-0.355477,-0.165974,3.37181,0.249963,
2,0,0,1,0,18868.8,0.248799,0.248496,-0.525974,10,0.0190692,10,-0.000130702,-3.27904,-0.366227,-0.161102,3.31425,0.248496,
2,0,0,1,0,18868.8,0.247301,0.247015,-0.531955,10,0.0190283,10,-0.000131401,-3.27413,-0.344317,-0.171354,3.56887,0.247015,
2,0,0,1,0,18868.9,0.245802,0.245526,-0.540054,10,0.0189869,10,-0.000132597,-3.26756,-0.284277,-0.207544,4.35368,0.245526,
2,0,0,1,0,18869,0.244304,0.243994,-0.543595,10,0.0189449,10,-0.000132634,-3.26472,-0.310206,-0.190196,4.04052,0.243994,
2,0,0,1,0,18869.1,0.242806,0.24248,-0.550028,10,0.0189025,10,-0.000133371,-3.25961,-0.436383,-0.135202,2.90142,0.24248,
2,0,0,1,0,18869.1,0.241308,0.240995,-0.554665,10,0.0188598,10,-0.000133672,-3.25597,-0.347524,-0.169772,3.69119,0.240995,
2,0,0,1,0,18869.2,0.23981,0.23947,-0.559797,10,0.0188168,10,-0.000134054,-3.25197,-0.266321,-0.221537,4.84694,0.23947,
2,0,0,1,0,18869.3,0.23831,0.238,-0.567677,10,0.0187731,10,-0.000135107,-3.2459,-0.419151,-0.140761,3.11418,0.238,
2,0,0,1,0,18869.4,0.236815,0.236482,-0.570651,10,0.0187292,10,-0.000134949,-3.24363,-0.321083,-0.183753,4.09609,0.236482,
2,0,0,1,0,18869.4,0.235315,0.234993,-0.572897,10,0.0186848,10,-0.000134627,-3.24192,-0.28633,-0.206056,4.65316,0.234993,
2,0,0,1,0,18869.5,0.233817,0.233492,-0.582921,10,0.0186401,10,-0.000136108,-3.23439,-0.326046,-0.180956,4.10538,0.233492,
2,0,0,1,0,18869.6,0.232319,0.232002,-0.589885,10,0.0185949,10,-0.000136854,-3.22923,-0.362952,-0.162556,3.7201,0.232002,
2,0,0,1,0,18869.7,0.230821,0.230493,-0.594808,10,0.0185492,10,-0.000137099,-3.22562,-0.441658,-0.133588,3.08079,0.230493,
2,0,0,1,0,18869.7,0.229322,0.228976,-0.596352,10,0.0185032,10,-0.00013655,-3.2245,-0.499769,-0.118055,2.76514,0.228976,
2,0,0,1,0,18869.8,0.227824,0.227523,-0.603824,10,0.0184569,10,-0.000137384,-3.21909,-0.480231,-0.122858,2.9026,0.227523,
2,0,0,1,0,18869.9,0.226326,0.22601,-0.607283,10,0.0184101,10,-0.000137252,-3.21661,-0.495713,-0.11902,2.83029,0.22601,
2,0,0,1,0,18869.9,0.224828,0.224512,-0.613421,10,0.018363,10,-0.00013772,-3.21224,-0.488145,-0.120866,2.89125,0.2245117,
2,0,0,1,0,18870,0.22333,0.222967,-0.623396,10,0.0183154,10,-0.000138997,-3.20524,-0.424038,-0.139139,3.3702,0.222967,
2,0,0,1,0,18870.1,0.22183,0.221494,-0.626194,10,0.0182676,10,-0.000138698,-3.20329,-0.424992,-0.138826,3.38652,0.221494,
2,0,0,1,0,18870.2,0.220335,0.220059,-0.630086,10,0.0182193,10,-0.000138656,-3.2006,-0.356433,-0.165529,4.06229,0.220059,
2,0,0,1,0,18870.2,0.218835,0.218514,-0.635179,10,0.0181705,10,-0.000138795,-3.1971,-0.381146,-0.154796,3.82835,0.218514,
2,0,0,1,0,18870.3,0.217337,0.217008,-0.640547,10,0.0181214,10,-0.000139004,-3.19345,-0.536915,-0.109887,2.7575,0.2170082,
2,0,0,1,0,18870.4,0.215839,0.215519,-0.644456,10,0.0180721,10,-0.000138893,-3.19081,-0.449784,-0.131174,3.31113,0.215519,
2,0,0,1,0,18870.5,0.21434,0.213994,-0.65146,10,0.0180222,10,-0.000139408,-3.18611,-0.319172,-0.184853,4.68383,0.213994,
2,0,0,1,0,18870.5,0.212842,0.212558,-0.65578,10,0.017972,10,-0.000139391,-3.18324,-0.460714,-0.128062,3.27548,0.212558,
2,0,0,1,0,18870.6,0.211344,0.211,-0.661698,10,0.0179213,10,-0.000139618,-3.17934,-0.483549,-0.122015,3.14766,0.211,
2,0,0,1,0,18870.7,0.209846,0.209515,-0.66412,10,0.0178703,10,-0.000139143,-3.17775,-0.423562,-0.139295,3.61703,0.209515,
2,0,0,1,0,18870.8,0.208348,0.208027,-0.672104,10,0.017819,10,-0.000139816,-3.17256,-0.351368,-0.167915,4.41039,0.2080265,
2,0,0,1,0,18870.8,0.20685,0.206528,-0.684134,10,0.0177671,10,-0.000141293,-3.16486,-0.342757,-0.172134,4.55448,0.2065277,
2,0,0,1,0,18870.9,0.20535,0.205065,-0.68358,10,0.0177146,10,-0.000140178,-3.16521,-0.512374,-0.11515,3.05885,0.205065,
2,0,0,1,0,18871,0.203855,0.203563,-0.687883,10,0.017662,10,-0.000140027,-3.16249,-0.49129,-0.120092,3.23532,0.203563,
2,0,0,1,0,18871.1,0.202355,0.202049,-0.691902,10,0.0176089,10,-0.000139798,-3.15996,-0.443468,-0.133042,3.60502,0.202049,
2,0,0,1,0,18871.1,0.200857,0.200549,-0.698687,10,0.0175554,10,-0.000140121,-3.15572,-0.420959,-0.140156,3.82188,0.200549,
2,0,0,1,0,18871.2,0.199359,0.199039,-0.70638,10,0.0175014,10,-0.000140597,-3.15096,-0.46186,-0.127744,3.51804,0.199039,
2,0,0,1,0,18871.3,0.19786,0.197503,-0.712009,10,0.017447,10,-0.000140624,-3.14751,-0.446424,-0.132161,3.67064,0.197503,
2,0,0,1,0,18871.4,0.196362,0.196053,-0.71754,10,0.0173923,10,-0.000140676,-3.14415,-0.467787,-0.126126,3.53087,0.196053,
2,0,0,1,0,18871.4,0.194864,0.194525,-0.724035,10,0.017337,10,-0.000140843,-3.14024,-0.357645,-0.164968,4.65727,0.194525,
2,0,0,1,0,18871.5,0.193366,0.193009,-0.732535,10,0.0172811,10,-0.000141386,-3.13517,-0.371203,-0.158943,4.52766,0.193009,
2,0,0,1,0,18871.6,0.191866,0.191524,-0.73741,10,0.0172248,10,-0.000141232,-3.13229,-0.459906,-0.128287,3.69447,0.191524,
2,0,0,1,0,18871.7,0.19037,0.190042,-0.741035,10,0.0171682,10,-0.000140828,-3.13016,-0.34782,-0.169628,4.92149,0.190042,
2,0,0,1,0,18871.7,0.188871,0.188538,-0.750723,10,0.0171109,10,-0.00014154,-3.12452,-0.319811,-0.184484,5.40451,0.188538,
2,0,0,1,0,18871.8,0.187373,0.187049,-0.757384,10,0.0170532,10,-0.000141668,-3.12068,-0.31638,-0.186485,5.5086,0.187049,
2,0,0,1,0,18871.9,0.185875,0.185536,-0.765326,10,0.0169949,10,-0.000141996,-3.11615,-0.401446,-0.146969,4.37276,0.185536,
2,0,0,1,0,18872,0.184377,0.184036,-0.767018,10,0.0169361,10,-0.000141159,-3.11519,-0.400693,-0.147245,4.43107,0.184036,
2,0,0,1,0,18872,0.182878,0.182575,-0.77741,10,0.0168768,10,-0.000141935,-3.10935,-0.33611,-0.175538,5.34259,0.182575,
2,0,0,1,0,18872.1,0.18138,0.18106,-0.788182,10,0.0168169,10,-0.000142708,-3.10337,-0.336512,-0.175328,5.39134,0.18106,
2,0,0,1,0,18872.2,0.179882,0.179563,-0.796238,10,0.0167562,10,-0.000142975,-3.09896,-0.419355,-0.140692,4.36449,0.179563,
2,0,0,1,0,18872.3,0.178384,0.178042,-0.80344,10,0.0166949,10,-0.000143046,-3.09505,-0.3345,-0.176383,5.54548,0.178042,
2,0,0,1,0,18872.3,0.176886,0.176604,-0.814527,10,0.0166331,10,-0.000143848,-3.08909,-0.278971,-0.211492,6.72357,0.176604,
2,0,0,1,0,18872.4,0.175386,0.175066,-0.826872,10,0.0165704,10,-0.000144757,-3.08256,-0.23371,-0.252449,8.11974,0.175066,
2,0,0,1,0,18872.5,0.173891,0.173595,-0.836273,10,0.016507,10,-0.000145173,-3.07765,-0.250045,-0.235957,7.67487,0.173595,
2,0,0,1,0,18872.6,0.172391,0.172037,-0.845151,10,0.0164426,10,-0.000145397,-3.07307,-0.251638,-0.234464,7.74083,0.172037,
2,0,0,1,0,18872.6,0.170893,0.170587,-0.85564,10,0.0163776,10,-0.000145961,-3.06771,-0.23866,-0.247214,8.27995,0.170587,
2,0,0,1,0,18872.7,0.169395,0.169062,-0.867793,10,0.0163116,10,-0.00014671,-3.06158,-0.211144,-0.27943,9.4831,0.169062,
2,0,0,1,0,18872.8,0.167897,0.16758,-0.88399,10,0.0162446,10,-0.000148139,-3.05355,-0.218195,-0.2704,9.32451,0.16758,
2,0,0,1,0,18872.9,0.166398,0.166067,-0.894441,10,0.0161766,10,-0.000148537,-3.04845,-0.252785,-0.2334,8.18356,0.166067,
2,0,0,1,0,18872.9,0.1649,0.164568,-0.907898,10,0.0161077,10,-0.000149411,-3.04196,-0.202589,-0.291231,10.3767,0.164568,
2,0,0,1,0,18873,0.163402,0.163089,-0.92835,10,0.0160376,10,-0.000151403,-3.03229,-0.172806,-0.341422,12.3881,0.163089,
2,0,0,1,0,18873.1,0.161904,0.161598,-0.947612,10,0.0159659,10,-0.000153132,-3.02337,-0.169555,-0.347969,12.867,0.161598,
2,0,0,1,0,18873.2,0.160406,0.160043,-0.96803,10,0.0158929,10,-0.000154926,-3.01411,-0.176882,-0.333556,12.596,0.1600429,
2,0,0,1,0,18873.2,0.158906,0.158577,-0.986157,10,0.0158182,10,-0.000156381,-3.00605,-0.144295,-0.408884,15.8084,0.158577,
2,0,0,1,0,18873.3,0.157411,0.157077,-1.01164,10,0.0157422,10,-0.000158906,-2.99497,-0.137681,-0.428526,16.999,0.157077,
2,0,0,1,0,18873.4,0.155911,0.1556,-1.03775,10,0.0156639,10,-0.000161475,-2.98391,-0.124799,-0.472761,19.2131,0.1556,
2,0,0,1,0,18873.5,0.154413,0.1541,-1.06575,10,0.0155836,10,-0.000164232,-2.97234,-0.127168,-0.463952,19.3497,0.1541,
2,0,0,1,0,18873.5,0.152915,0.152565,-1.10243,10,0.015501,10,-0.000168193,-2.95765,-0.114523,-0.515182,22.1774,0.152565,
2,0,0,1,0,18873.6,0.151416,0.151075,-1.13903,10,0.015416,10,-0.00017208,-2.94346,-0.104338,-0.565469,25.1499,0.151075,
2,0,0,1,0,18873.7,0.149918,0.149551,-1.17853,10,0.0153281,10,-0.000176251,-2.92866,-0.0951034,-0.620377,28.5083,0.149551,
2,0,0,1,0,18873.8,0.14842,0.148103,-1.22192,10,0.0152369,10,-0.00018097,-2.91296,-0.091685,-0.643508,30.7035,0.148103,
2,0,0,1,0,18873.8,0.146922,0.146633,-1.27098,10,0.0151423,10,-0.000186368,-2.89586,-0.0846028,-0.697377,34.6603,0.146633,
2,0,0,1,0,18873.9,0.145424,0.145101,-1.32252,10,0.0150439,10,-0.0001919,-2.8786,-0.0809931,-0.728458,37.7588,0.145101,
2,0,0,1,0,18874,0.143926,0.14361,-1.38135,10,0.0149413,10,-0.000198376,-2.8597,-0.0741899,-0.795256,42.9776,0.14361,
2,0,0,1,0,18874.1,0.142426,0.142092,-1.44762,10,0.0148338,10,-0.000205696,-2.83934,-0.0734922,-0.802806,45.4098,0.142092,
2,0,0,1,0,18874.1,0.140931,0.140605,-1.51738,10,0.0147215,10,-0.000213351,-2.8189,-0.076437,-0.771877,45.7143,0.140605,
2,0,0,1,0,18874.2,0.139431,0.139115,-1.58402,10,0.0146038,10,-0.000220362,-2.80024,-0.0763011,-0.773252,47.9286,0.139115,
2,0,0,1,0,18874.3,0.137933,0.137652,-1.66108,10,0.0144809,10,-0.000228652,-2.77961,-0.076508,-0.771161,50.0251,0.137652,
2,0,0,1,0,18874.4,0.136435,0.136147,-1.74176,10,0.0143521,10,-0.000237135,-2.75901,-0.0775693,-0.76061,51.565,0.136147,
2,0,0,1,0,18874.4,0.134936,0.134609,-1.81806,10,0.0142174,10,-0.000244728,-2.74039,-0.0837874,-0.704163,49.8194,0.134609,
2,0,0,1,0,18874.5,0.133438,0.13313,-1.88939,10,0.0140771,10,-0.000251535,-2.72368,-0.0890272,-0.662718,48.8327,0.13313,
2,0,0,1,0,18874.6,0.13194,0.131609,-1.9643,10,0.0139315,10,-0.00025852,-2.70679,-0.0957788,-0.616003,47.1764,0.131609,
2,0,0,1,0,18874.7,0.130442,0.130132,-2.03535,10,0.0137803,10,-0.000264865,-2.69136,-0.101628,-0.580547,46.0077,0.130132,
2,0,0,1,0,18874.7,0.128942,0.128625,-2.10459,10,0.0136238,10,-0.000270702,-2.67683,-0.113536,-0.519661,42.5257,0.128625,
2,0,0,1,0,18874.8,0.127446,0.12713,-2.16582,10,0.0134628,10,-0.00027534,-2.66438,-0.128403,-0.459489,38.6537,0.12713,
2,0,0,1,0,18874.9,0.125947,0.125608,-2.21596,10,0.0132972,10,-0.000278343,-2.65444,-0.138554,-0.425826,36.7777,0.125608,
2,0,0,1,0,18875,0.124449,0.124148,-2.27065,10,0.0131278,10,-0.000281895,-2.64385,-0.151555,-0.389296,34.3887,0.124148,
2,0,0,1,0,18875,0.122951,0.122652,-2.31697,10,0.0129546,10,-0.000284181,-2.63508,-0.184812,-0.319244,28.7559,0.122652,
2,0,0,1,0,18875.1,0.121453,0.121141,-2.35315,10,0.0127783,10,-0.000285063,-2.62835,-0.244598,-0.241213,22.1095,0.121141,
2,0,0,1,0,18875.2,0.119955,0.119669,-2.38178,10,0.0125994,10,-0.000285025,-2.6231,-0.281305,-0.209737,19.4936,0.119669,
2,0,0,1,0,18875.3,0.118456,0.118168,-2.41137,10,0.0124184,10,-0.000284946,-2.61774,-0.314701,-0.18748,17.6205,0.118168,
2,0,0,1,0,18875.3,0.116958,0.116665,-2.43804,10,0.0122354,10,-0.000284435,-2.61296,-0.400894,-0.147171,13.9706,0.116665,
2,0,0,1,0,18875.4,0.11546,0.115176,-2.45588,10,0.0120508,10,-0.000282859,-2.60979,-0.752551,-0.0784,7.48017,0.115176,
2,0,0,1,0,18875.5,0.113962,0.113654,-2.45797,10,0.0118653,10,-0.000279359,-2.60942,-1.29368,-0.0456064,4.37216,0.113654,
2,0,0,1,0,18875.6,0.112462,0.112147,-2.46789,10,0.0116794,10,-0.000276767,-2.60767,-5.41617,-0.0108933,1.04768,0.112147,
2,0,0,1,0,18875.6,0.110967,0.110639,-2.46742,10,0.0114936,10,-0.000272993,-2.60776,9.59099,0.0061516,-0.590963,0.110639,
2,0,0,1,0,18875.7,0.109467,0.109195,-2.46007,10,0.0113074,10,-0.000268627,-2.60905,1.30903,0.0450714,-4.3213,0.109195,
2,0,0,1,0,18875.8,0.107969,0.107619,-2.45305,10,0.0111219,10,-0.000263996,-2.61029,0.900352,0.0655299,-6.27143,0.107619,
2,0,0,1,0,18875.9,0.106471,0.106156,-2.44196,10,0.0109372,10,-0.000259229,-2.61226,0.730669,0.080748,-7.70116,0.106156,
2,0,0,1,0,18875.9,0.104973,0.104689,-2.4292,10,0.0107534,10,-0.000254311,-2.61454,0.572862,0.102992,-9.7594,0.104689,
2,0,0,1,0,18876,0.103474,0.103178,-2.41761,10,0.0105705,10,-0.000249444,-2.61661,0.430744,0.136972,-12.8817,0.103178,
2,0,0,1,0,18876.1,0.101976,0.101693,-2.39464,10,0.010389,10,-0.000243519,-2.62076,0.361527,0.163197,-15.2346,0.101693,
2,0,0,1,0,18876.2,0.100478,0.100098,-2.37427,10,0.0102093,10,-0.00023766,-2.62447,0.401042,0.147117,-13.6264,0.100098,
2,0,0,1,0,18876.2,0.0989799,0.0986585,-2.35228,10,0.0100312,10,-0.000232073,-2.62851,0.39202,0.150502,-13.7992,0.0986585,
2,0,0,1,0,18876.3,0.0974817,0.097128,-2.32974,10,0.00985459,10,-0.000226283,-2.63269,0.359545,0.164096,-14.9127,0.097128,
2,0,0,1,0,18876.4,0.0959821,0.0956429,-2.30464,10,0.00967936,10,-0.000220422,-2.6374,0.33222,0.177593,-15.9642,0.0956429,
2,0,0,1,0,18876.5,0.0944866,0.0941443,-2.27519,10,0.00950657,10,-0.000214196,-2.64298,0.333427,0.17695,-15.7798,0.0941443,
2,0,0,1,0,18876.5,0.0929871,0.0927039,-2.25651,10,0.00933515,10,-0.000209188,-2.64656,0.406037,0.145307,-12.8208,0.0927039,
2,0,0,1,0,18876.6,0.0914889,0.0911805,-2.24142,10,0.00916534,10,-0.000204373,-2.64948,0.385159,0.153184,-13.3731,0.0911805,
2,0,0,1,0,18876.7,0.0899907,0.0896805,-2.21893,10,0.00899698,10,-0.000198995,-2.65386,0.362519,0.16275,-14.0683,0.0896805,
2,0,0,1,0,18876.8,0.0884925,0.0881634,-2.19466,10,0.00883036,10,-0.000193489,-2.65863,0.367733,0.160443,-13.7626,0.0881634,
2,0,0,1,0,18876.8,0.0869943,0.0866385,-2.18021,10,0.00866539,10,-0.00018889,-2.6615,0.378959,0.15569,-13.2481,0.0866385,
2,0,0,1,0,18876.9,0.0854961,0.0851699,-2.15982,10,0.00850164,10,-0.000183951,-2.66558,0.443648,0.132988,-11.2095,0.0851699,
2,0,0,1,0,18877,0.083998,0.083691,-2.142,10,0.00833908,10,-0.000179266,-2.66918,0.399646,0.147631,-12.3412,0.083691,
2,0,0,1,0,18877.1,0.0824998,0.0821648,-2.1286,10,0.0081778,10,-0.000174896,-2.67191,0.459763,0.128327,-10.6628,0.0821648,
2,0,0,1,0,18877.1,0.081002,0.080698,-2.11232,10,0.00801795,10,-0.00017046,-2.67524,0.527417,0.111866,-9.23324,0.080698,
2,0,0,1,0,18877.2,0.0795025,0.0791664,-2.09952,10,0.00785883,10,-0.000166212,-2.67788,0.5703,0.103454,-8.46544,0.0791664,
2,0,0,1,0,18877.3,0.078007,0.0777016,-2.08483,10,0.00770101,10,-0.000161995,-2.68093,0.572438,0.103068,-8.38039,0.0777016,
2,0,0,1,0,18877.4,0.076507,0.0761752,-2.07251,10,0.00754382,10,-0.000157874,-2.6835,0.48312,0.122123,-9.86152,0.0761752,
2,0,0,1,0,18877.4,0.0750088,0.074691,-2.05515,10,0.00738801,10,-0.000153501,-2.68716,0.556451,0.106029,-8.51732,0.074691,
2,0,0,1,0,18877.5,0.0735106,0.0732138,-2.04087,10,0.0072332,10,-0.00014942,-2.69018,0.625748,0.0942871,-7.51,0.0732138,
2,0,0,1,0,18877.6,0.0720124,0.0717089,-2.03151,10,0.00707915,10,-0.000145678,-2.69218,0.549091,0.10745,-8.52144,0.0717089,
2,0,0,1,0,18877.7,0.0705142,0.0702126,-2.01967,10,0.00692611,10,-0.000141807,-2.69472,0.496697,0.118785,-9.35782,0.0702126,
2,0,0,1,0,18877.7,0.0690161,0.0687019,-2.00407,10,0.00677406,10,-0.000137683,-2.69809,0.547874,0.107689,-8.43749,0.0687019,
2,0,0,1,0,18877.8,0.0675179,0.0672016,-1.99505,10,0.00662304,10,-0.00013407,-2.70005,0.587606,0.100407,-7.81524,0.0672016,
2,0,0,1,0,18877.9,0.0660179,0.0657101,-1.98692,10,0.0064726,10,-0.000130561,-2.70182,0.634224,0.0930271,-7.19318,0.06571006,
2,0,0,1,0,18878,0.0645224,0.0642062,-1.97384,10,0.00632328,10,-0.000126733,-2.70469,0.589147,0.100145,-7.69694,0.0642062,
2,0,0,1,0,18878,0.0630229,0.0626907,-1.95764,10,0.00617458,10,-0.000122726,-2.70827,0.518834,0.113717,-8.69872,0.0626907,
2,0,0,1,0,18878.1,0.0615251,0.0611972,-1.94412,10,0.00602718,10,-0.000118975,-2.71128,0.491461,0.12005,-9.1266,0.0611972,
2,0,0,1,0,18878.2,0.0600269,0.0597363,-1.93052,10,0.00588056,10,-0.000115322,-2.71433,0.59209,0.0996471,-7.5225,0.0597363,
2,0,0,1,0,18878.3,0.0585287,0.0582132,-1.92141,10,0.00573484,10,-0.000111851,-2.71638,0.474025,0.124466,-9.32625,0.0582132,
2,0,0,1,0,18878.3,0.0570305,0.056715,-1.90929,10,0.00559001,10,-0.000108285,-2.71913,0.534835,0.110314,-8.2169,0.056715,
2,0,0,1,0,18878.4,0.0555323,0.055239,-1.89499,10,0.00544635,10,-0.000104677,-2.72239,0.551073,0.107064,-7.92647,0.055239,
2,0,0,1,0,18878.5,0.0540342,0.0537396,-1.886,10,0.00530352,10,-0.000101353,-2.72446,0.534326,0.110419,-8.11272,0.0537396,
2,0,0,1,0,18878.6,0.052536,0.0521638,-1.87452,10,0.00516143,10,-9.7782e-05,-2.72711,0.529408,0.111445,-8.14238,0.0521638,
2,0,0,1,0,18878.6,0.0510378,0.0506922,-1.86125,10,0.00502037,10,-9.4351e-05,-2.73019,0.460485,0.128126,-9.29993,0.0506922,
2,0,0,1,0,18878.7,0.0495382,0.0492048,-1.84042,10,0.00488023,10,-9.05574e-05,-2.73508,0.462703,0.127512,-9.18316,0.0492048,
2,0,0,1,0,18878.8,0.0480427,0.0477367,-1.83207,10,0.00474144,10,-8.74572e-05,-2.73706,0.578884,0.10192,-7.2861,0.0477367,
2,0,0,1,0,18878.9,0.0465432,0.0461754,-1.81861,10,0.00460326,10,-8.39748e-05,-2.74026,0.467556,0.126188,-8.96176,0.0461754,
2,0,0,1,0,18878.9,0.045045,0.0446668,-1.80781,10,0.0044662,10,-8.07493e-05,-2.74285,0.431335,0.136785,-9.6245,0.0446668,
2,0,0,1,0,18879,0.0435468,0.0432423,-1.78403,10,0.00433027,10,-7.71457e-05,-2.7486,0.424503,0.138986,-9.70157,0.0432423,
2,0,0,1,0,18879.1,0.0420486,0.0417458,-1.77577,10,0.00419549,10,-7.41309e-05,-2.75061,0.446998,0.131992,-9.15156,0.0417458,
2,0,0,1,0,18879.2,0.0405504,0.0402297,-1.76497,10,0.00406171,10,-7.10042e-05,-2.75326,0.429307,0.137431,-9.44606,0.0402297,
2,0,0,1,0,18879.2,0.0390523,0.0387285,-1.74847,10,0.00392887,10,-6.77156e-05,-2.75734,0.378363,0.155935,-10.6117,0.0387285,
2,0,0,1,0,18879.3,0.0375541,0.0372331,-1.73323,10,0.0037972,10,-6.45335e-05,-2.76114,0.351886,0.167668,-11.3285,0.0372331,
2,0,0,1,0,18879.4,0.0360559,0.0357489,-1.71807,10,0.00366691,10,-6.14191e-05,-2.76496,0.352576,0.16734,-11.2313,0.0357489,
2,0,0,1,0,18879.5,0.0345577,0.0342168,-1.70211,10,0.00353764,10,-5.8241e-05,-2.76901,0.420676,0.140251,-9.31284,0.03421684,
2,0,0,1,0,18879.5,0.0330582,0.0326875,-1.68631,10,0.00340925,10,-5.51211e-05,-2.77306,0.387826,0.15213,-10.0045,0.0326875,
2,0,0,1,0,18879.6,0.0315626,0.0312486,-1.67429,10,0.00328224,10,-5.23191e-05,-2.77617,0.379745,0.155368,-10.1324,0.0312486,
2,0,0,1,0,18879.7,0.0300631,0.0297736,-1.65641,10,0.00315627,10,-4.93173e-05,-2.78083,0.396278,0.148885,-9.63546,0.0297736,
2,0,0,1,0,18879.8,0.0285649,0.0282515,-1.64163,10,0.00303144,10,-4.63786e-05,-2.78472,0.458392,0.128711,-8.24195,0.0282515,
2,0,0,1,0,18879.8,0.0270667,0.0267183,-1.62877,10,0.00290753,10,-4.35179e-05,-2.78814,0.403085,0.146371,-9.3099,0.0267183,
2,0,0,1,0,18879.9,0.0255685,0.0252612,-1.6144,10,0.00278472,10,-4.07817e-05,-2.79199,0.380017,0.155256,-9.78603,0.0252612,
2,0,0,1,0,18880,0.0240704,0.0237489,-1.59948,10,0.00266309,10,-3.79859e-05,-2.79602,0.427383,0.138049,-8.63078,0.0237489,
2,0,0,1,0,18880.1,0.0225722,0.022254,-1.5896,10,0.00254242,10,-3.53748e-05,-2.79871,0.507858,0.116174,-7.20115,0.022254,
2,0,0,1,0,18880.1,0.021074,0.0207432,-1.57543,10,0.00242259,10,-3.26796e-05,-2.8026,0.433367,0.136143,-8.37253,0.0207432,
2,0,0,1,0,18880.2,0.0195758,0.0192618,-1.56498,10,0.00230365,10,-3.01444e-05,-2.80549,0.389369,0.151527,-9.24738,0.0192618,
2,0,0,1,0,18880.3,0.018078,0.0177683,-1.54968,10,0.00218569,10,-2.75353e-05,-2.80976,0.484039,0.121891,-7.38658,0.0177683,
2,0,0,1,0,18880.4,0.0165785,0.0162516,-1.54036,10,0.00206853,10,-2.50333e-05,-2.81238,0.57512,0.102587,-6.17817,0.0162516,
2,0,0,1,0,18880.4,0.015083,0.0147628,-1.53277,10,0.00195232,10,-2.26279e-05,-2.81452,0.647395,0.0911344,-5.44988,0.0147628,
2,0,0,1,0,18880.5,0.013583,0.0132694,-1.52322,10,0.00183631,10,-2.02122e-05,-2.81724,0.473099,0.12471,-7.4059,0.0132694,
2,0,0,1,0,18880.6,0.0120848,0.0118024,-1.51331,10,0.00172122,10,-1.78607e-05,-2.82007,0.562318,0.104923,-6.21059,0.0118024,
2,0,0,1,0,18880.7,0.0105866,0.0102128,-1.5054,10,0.00160699,10,-1.53744e-05,-2.82235,0.67278,0.0876959,-5.1608,0.0102128,
2,0,0,1,0,18880.7,0.00908846,0.00880779,-1.50008,10,0.00149311,10,-1.32124e-05,-2.82389,1.29583,0.0455308,-2.66446,0.00880779,
2,0,0,1,0,18880.8,0.00759027,0.00724714,-1.4923,10,0.00137966,10,-1.08149e-05,-2.82614,0.701179,0.0841439,-4.90343,0.007247143,
2,0,0,1,0,18880.9,0.00609208,0.0057621,-1.49251,10,0.00126659,10,-8.60001e-06,-2.82608,0.975166,0.0605025,-3.51492,0.0057621,
2,0,0,1,0,18881,0.00459389,0.00425342,-1.48309,10,0.00115416,10,-6.30822e-06,-2.82883,1.25148,0.047144,-2.73362,0.00425342,
2,0,0,1,0,18881,0.00309391,0.00280457,-1.48224,10,0.00104173,10,-4.15704e-06,-2.82908,-1.60616,-0.0367335,2.12975,0.00280457,
2,0,0,1,0,18881.1,0.0015984,0.00123541,-1.49594,10,0.000928596,10,-1.8481e-06,-2.82509, , , ,0.00123541,
2,0,0,1,0,18881.2,0.000199195,-0.000182169,-1.48148,10,0.000823171,10,2.6988e-07,-2.8293, , , ,-0.000182169,