File: Figure_codes/Fig_3-5/rawdata_trumpetplot_data/after 10th/20221101_1-115_003_TrumpetPlot_ParaChange_from10_every3_05_CV_C01_25.csv
mode,ox/red,error,control changes,counter inc.,time/s,control/V,Ewe/V,<I>/mA,cycle number,(Q-Qo)/C,I Range,P/W,log(|I|),Tafel slope mV/dec,alpha_eff,dI/d(E-IR),E-IR/V,
2,0,0,1,0,50373.3,2.44065e-05,-0.000478022,-0.742422,26,0.0000000E+000,10,3.54894e-07,-3.12935, , , ,-0.000478022,
2,0,0,1,0,50373.3,0.00129787,0.000916535,0.00984622,26,-1.63836e-05,10,9.0244e-09,-5.00673, , , ,0.000916535,
2,1,0,1,0,50373.4,0.00279606,0.00246884,0.354336,26,1.92011e-07,10,8.74798e-07,-3.45058,0.00887178,6.6503,178.115,0.00246884,
2,1,0,1,0,50373.5,0.00429425,0.00398081,0.502082,26,3.4139e-05,10,1.99869e-06,-3.29923,0.0115734,5.09792,82.8999,0.00398081,
2,1,0,1,0,50373.6,0.00579244,0.00545302,0.586893,26,7.64767e-05,10,3.20034e-06,-3.23144,0.0257333,2.29275,49.9899,0.00545302,
2,1,0,1,0,50373.6,0.00729063,0.00693799,0.64915,26,0.000124106,10,4.5038e-06,-3.18765,0.0416455,1.41672,34.9447,0.00693799,
2,1,0,1,0,50373.7,0.00878882,0.00844734,0.693665,26,0.000175665,10,5.85963e-06,-3.15885,0.0591549,0.997382,26.6298,0.00844734,
2,1,0,1,0,50373.8,0.010287,0.00991722,0.729671,26,0.000230197,10,7.23631e-06,-3.13687,0.0767766,0.768463,21.6525,0.00991722,
2,1,0,1,0,50373.9,0.0117852,0.0114481,0.7567,26,0.000287155,10,8.66281e-06,-3.12108,0.0917648,0.642948,18.9672,0.0114481,
2,1,0,1,0,50373.9,0.0132847,0.0129664,0.781982,26,0.000346127,10,1.01395e-05,-3.1068,0.0983338,0.599997,18.3854,0.0129664,
2,1,0,1,0,50374,0.0147802,0.0144339,0.808812,26,0.000406919,10,1.16743e-05,-3.09215,0.120223,0.490756,15.4363,0.01443386,
2,1,0,1,0,50374.1,0.0162798,0.0159902,0.831178,26,0.000469729,10,1.32907e-05,-3.08031,0.146008,0.404088,13.0509,0.0159902,
2,1,0,1,0,50374.2,0.017778,0.0174386,0.851085,26,0.000533934,10,1.48417e-05,-3.07003,0.150461,0.392128,13.0226,0.0174386,
2,1,0,1,0,50374.2,0.0192761,0.0189085,0.868112,26,0.000599484,10,1.64147e-05,-3.06142,0.159845,0.369109,12.5216,0.0189085,
2,1,0,1,0,50374.3,0.0207743,0.0204481,0.889065,26,0.000666601,10,1.81797e-05,-3.05107,0.159058,0.370933,12.86,0.0204481,
2,1,0,1,0,50374.4,0.0222725,0.0219465,0.908076,26,0.000735188,10,1.99291e-05,-3.04188,0.177241,0.33288,11.7872,0.0219465,
2,1,0,1,0,50374.5,0.0237707,0.0234464,0.927338,26,0.000805167,10,2.17428e-05,-3.03276,0.188004,0.313823,11.3526,0.0234464,
2,1,0,1,0,50374.5,0.0252689,0.0249335,0.942163,26,0.00087633,10,2.34914e-05,-3.02587,0.187354,0.314911,11.6357,0.0249335,
2,1,0,1,0,50374.6,0.0267671,0.0264098,0.961407,26,0.000948872,10,2.53905e-05,-3.01709,0.161841,0.364555,13.6819,0.0264098,
2,1,0,1,0,50374.7,0.0282653,0.0278879,0.981914,26,0.00102288,10,2.73835e-05,-3.00793,0.173023,0.340995,13.0461,0.0278879,
2,1,0,1,0,50374.8,0.0297644,0.029437,0.999028,26,0.00109843,10,2.94084e-05,-3.00042,0.190764,0.309283,12.0587,0.029437,
2,1,0,1,0,50374.8,0.0312599,0.0309781,1.01517,26,0.00117504,10,3.14482e-05,-2.99346,0.183685,0.321202,12.7647,0.0309781,
2,1,0,1,0,50374.9,0.0327599,0.0324335,1.03524,26,0.00125315,10,3.35765e-05,-2.98496,0.195659,0.301545,12.183,0.03243354,
2,1,0,1,0,50375,0.034258,0.0339523,1.0556,26,0.00133264,10,3.584e-05,-2.9765,0.190281,0.310067,12.7564,0.0339523,
2,1,0,1,0,50375.1,0.0357562,0.0354007,1.07128,26,0.00141348,10,3.79239e-05,-2.9701,0.211282,0.279248,11.6713,0.0354007,
2,1,0,1,0,50375.1,0.0372544,0.036951,1.09076,26,0.00149566,10,4.03048e-05,-2.96227,0.237949,0.247952,10.5599,0.03695102,
2,1,0,1,0,50375.2,0.0387526,0.03838,1.10691,26,0.00157911,10,4.24832e-05,-2.95589,0.190869,0.309113,13.3974,0.03838,
2,1,0,1,0,50375.3,0.0402508,0.0399287,1.12672,26,0.00166399,10,4.49886e-05,-2.94818,0.200218,0.294679,12.9613,0.0399287,
2,1,0,1,0,50375.4,0.041749,0.0414152,1.14849,26,0.00175046,10,4.75651e-05,-2.93987,0.219192,0.26917,12.0226,0.0414152,
2,1,0,1,0,50375.4,0.0432472,0.0429319,1.16836,26,0.00183821,10,5.01598e-05,-2.93242,0.244879,0.240936,10.9466,0.0429319,
2,1,0,1,0,50375.5,0.0447449,0.0444173,1.18062,26,0.00192719,10,5.24401e-05,-2.92789,0.235217,0.250832,11.5544,0.0444173,
2,1,0,1,0,50375.6,0.0462445,0.0459137,1.19797,26,0.00201759,10,5.50031e-05,-2.92156,0.218846,0.269596,12.6182,0.0459137,
2,1,0,1,0,50375.7,0.04774,0.0474067,1.218,26,0.00210911,10,5.77414e-05,-2.91435,0.232069,0.254235,12.0653,0.0474067,
2,1,0,1,0,50375.7,0.0492399,0.048902,1.23557,26,0.00220224,10,6.0422e-05,-2.90813,0.265967,0.221832,10.6792,0.048902,
2,1,0,1,0,50375.8,0.0507381,0.0503727,1.2473,26,0.00229649,10,6.283e-05,-2.90403,0.253763,0.2325,11.3365,0.0503727,
2,1,0,1,0,50375.9,0.0522363,0.05192,1.26758,26,0.00239196,10,6.58128e-05,-2.89702,0.247034,0.238834,11.8145,0.05192,
2,1,0,1,0,50376,0.0537345,0.0534121,1.28692,26,0.00248872,10,6.87369e-05,-2.89045,0.253635,0.232618,11.6575,0.0534121,
2,1,0,1,0,50376,0.0552327,0.054884,1.30168,26,0.0025868,10,7.14415e-05,-2.88549,0.289045,0.20412,10.3401,0.054884,
2,1,0,1,0,50376.1,0.0567309,0.0564012,1.31392,26,0.00268603,10,7.41064e-05,-2.88143,0.319695,0.184551,9.48096,0.0564012,
2,1,0,1,0,50376.2,0.0582291,0.0579072,1.33269,26,0.00278629,10,7.71725e-05,-2.87527,0.313025,0.188483,9.79917,0.0579072,
2,1,0,1,0,50376.3,0.0597291,0.0594102,1.3496,26,0.0028879,10,8.01802e-05,-2.86979,0.300399,0.196405,10.3256,0.0594102,
2,1,0,1,0,50376.3,0.0612246,0.0609123,1.36147,26,0.00299041,10,8.29306e-05,-2.86599,0.348428,0.169332,8.97703,0.0609123,
2,1,0,1,0,50376.4,0.0627241,0.0624224,1.37543,26,0.00309431,10,8.58576e-05,-2.86156,0.321931,0.183269,9.83904,0.06242235,
2,1,0,1,0,50376.5,0.0642218,0.0638655,1.38829,26,0.00319896,10,8.86636e-05,-2.85752,0.321677,0.183414,9.95661,0.06386549,
2,1,0,1,0,50376.6,0.06572,0.0653541,1.40384,26,0.00330481,10,9.17466e-05,-2.85268,0.338728,0.174181,9.52931,0.0653541,
2,1,0,1,0,50376.6,0.0672182,0.0669065,1.41993,26,0.00341178,10,9.50024e-05,-2.84773,0.365317,0.161504,8.93074,0.0669065,
2,1,0,1,0,50376.7,0.0687164,0.0683506,1.42968,26,0.00351971,10,9.77194e-05,-2.84476,0.424947,0.138841,7.74762,0.0683506,
2,1,0,1,0,50376.8,0.0702146,0.0698662,1.44094,26,0.00362839,10,0.000100673,-2.84135,0.419055,0.140793,7.92266,0.0698662,
2,1,0,1,0,50376.9,0.0717128,0.0713732,1.45197,26,0.00373794,10,0.000103632,-2.83804,0.416154,0.141775,8.03074,0.0713732,
2,1,0,1,0,50376.9,0.073211,0.0728815,1.46337,26,0.00384843,10,0.000106653,-2.83464,0.481373,0.122566,7.00392,0.0728815,
2,1,0,1,0,50377,0.0747092,0.0743611,1.47576,26,0.00395976,10,0.000109739,-2.83098,0.530779,0.111157,6.40283,0.0743611,
2,1,0,1,0,50377.1,0.0762087,0.0758701,1.48471,26,0.00407198,10,0.000112645,-2.82836,0.521152,0.113211,6.56171,0.0758701,
2,1,0,1,0,50377.2,0.0777042,0.0773757,1.49771,26,0.00418465,10,0.000115887,-2.82457,0.414066,0.142489,8.31893,0.07737565,
2,1,0,1,0,50377.2,0.0792037,0.0788382,1.5082,26,0.00429842,10,0.000118904,-2.82154,0.479458,0.123056,7.22968,0.0788382,
2,1,0,1,0,50377.3,0.0807019,0.0803438,1.51728,26,0.00441294,10,0.000121904,-2.81893,0.533263,0.11064,6.54318,0.08034385,
2,1,0,1,0,50377.4,0.0822001,0.0818414,1.52562,26,0.0045281,10,0.000124859,-2.81655,0.57442,0.102712,6.11829,0.0818414,
2,1,0,1,0,50377.5,0.0836983,0.0834015,1.53234,26,0.00464383,10,0.000127799,-2.81464,0.548969,0.107474,6.44944,0.0834015,
2,1,0,1,0,50377.5,0.0851965,0.0847935,1.54389,26,0.00476034,10,0.000130912,-2.81138,0.515407,0.114473,6.90785,0.0847935,
2,1,0,1,0,50377.6,0.0866947,0.0863299,1.55708,26,0.00487769,10,0.000134422,-2.80769,0.579265,0.101853,6.18348,0.0863299,
2,1,0,1,0,50377.7,0.0881929,0.0878751,1.5703,26,0.00499595,10,0.00013799,-2.80402,0.455268,0.129594,7.92909,0.08787512,
2,1,0,1,0,50377.8,0.0896911,0.0894007,1.58088,26,0.00511495,10,0.000141332,-2.8011,0.416361,0.141704,8.76036,0.0894007,
2,1,0,1,0,50377.8,0.0911893,0.0908381,1.59484,26,0.00523499,10,0.000144872,-2.79728,0.332819,0.177274,11.0366,0.09083809,
2,1,0,1,0,50377.9,0.0926883,0.0923509,1.61199,26,0.00535654,10,0.000148868,-2.79264,0.301838,0.195469,12.288,0.09235093,
2,1,0,1,0,50378,0.0941839,0.093854,1.62954,26,0.00547892,10,0.000152939,-2.78793,0.310195,0.190203,12.1009,0.093854,
2,1,0,1,0,50378.1,0.0956838,0.0953573,1.64238,26,0.00560281,10,0.000156613,-2.78453,0.287074,0.205522,13.23,0.0953573,
2,1,0,1,0,50378.1,0.097182,0.0968018,1.66559,26,0.00572809,10,0.000161232,-2.77843,0.23675,0.249208,16.2203,0.0968018,
2,1,0,1,0,50378.2,0.0986802,0.0983796,1.69171,26,0.00585509,10,0.00016643,-2.77167,0.238945,0.246919,16.3238,0.0983796,
2,1,0,1,0,50378.3,0.100178,0.099816,1.71828,26,0.00598399,10,0.000171512,-2.76491,0.226042,0.261014,17.5089,0.099816,
2,1,0,1,0,50378.4,0.101677,0.101378,1.74189,26,0.00611483,10,0.00017659,-2.75898,0.206015,0.286387,19.5071,0.101378,
2,1,0,1,0,50378.4,0.103175,0.102866,1.77195,26,0.00624765,10,0.000182274,-2.75155,0.204793,0.288095,19.9542,0.102866,
2,1,0,1,0,50378.5,0.104673,0.104393,1.80662,26,0.0063828,10,0.000188599,-2.74313,0.196073,0.300908,21.1692,0.104393,
2,1,0,1,0,50378.6,0.106171,0.105849,1.83709,26,0.00652036,10,0.000194455,-2.73587,0.211992,0.278313,19.9067,0.105849,
2,1,0,1,0,50378.7,0.107669,0.107352,1.86468,26,0.00666018,10,0.000200178,-2.72939,0.213893,0.275839,20.0869,0.107352,
2,1,0,1,0,50378.7,0.109168,0.108813,1.89469,26,0.00680235,10,0.000206168,-2.72246,0.213179,0.276763,20.4871,0.108813,
2,1,0,1,0,50378.8,0.110664,0.110282,1.92468,26,0.00694649,10,0.000212257,-2.71564,0.223032,0.264536,19.8695,0.1102815,
2,1,0,1,0,50378.9,0.112164,0.111768,1.95648,26,0.00709337,10,0.000218672,-2.70852,0.242719,0.24308,18.5225,0.111768,
2,1,0,1,0,50379,0.113662,0.113297,1.9836,26,0.00724213,10,0.000224737,-2.70255,0.267845,0.220276,17.021,0.1132975,
2,1,0,1,0,50379,0.11516,0.114808,2.00651,26,0.00739265,10,0.000230363,-2.69756,0.296498,0.19899,15.5668,0.114808,
2,1,0,1,0,50379.1,0.116658,0.116277,2.03115,26,0.00754506,10,0.000236176,-2.69226,0.306742,0.192344,15.2113,0.116277,
2,1,0,1,0,50379.2,0.118157,0.117826,2.05477,26,0.00769922,10,0.000242106,-2.68724,0.364981,0.161652,12.9207,0.117826,
2,1,0,1,0,50379.3,0.119655,0.119312,2.07035,26,0.0078548,10,0.000247017,-2.68396,0.463547,0.127279,10.2721,0.119312,
2,1,0,1,0,50379.3,0.121153,0.120799,2.08122,26,0.00801154,10,0.000251411,-2.68168,0.501932,0.117546,9.55542,0.120799,
2,1,0,1,0,50379.4,0.122653,0.122325,2.09703,26,0.0081695,10,0.000256518,-2.6784,0.501262,0.117703,9.62814,0.122325,
2,1,0,1,0,50379.5,0.124149,0.123777,2.11045,26,0.00832809,10,0.000261226,-2.67562,0.614821,0.0959629,7.90092,0.123777,
2,1,0,1,0,50379.6,0.125648,0.125335,2.12098,26,0.00848802,10,0.000265834,-2.67346,0.744994,0.0791952,6.54997,0.125335,
2,1,0,1,0,50379.6,0.127146,0.126794,2.12506,26,0.00864848,10,0.000269445,-2.67263,0.855169,0.0689922,5.73523,0.126794,
2,1,0,1,0,50379.7,0.128644,0.128297,2.13739,26,0.00880949,10,0.00027422,-2.67012,0.874024,0.0675038,5.6346,0.128297,
2,1,0,1,0,50379.8,0.130142,0.129808,2.14754,26,0.00897123,10,0.000278768,-2.66806,1.0393,0.0567691,4.75399,0.129808,
2,1,0,1,0,50379.9,0.13164,0.131286,2.1527,26,0.00913352,10,0.000282618,-2.66702,2.36744,0.0249214,2.09036,0.131286,
2,1,0,1,0,50379.9,0.133139,0.132788,2.15744,26,0.0092962,10,0.000286481,-2.66606,4.36146,0.0135276,1.1372,0.132788,
2,1,0,1,0,50380,0.134637,0.134268,2.15487,26,0.00945884,10,0.000289329,-2.66658,-2.75769,-0.0213947,-1.7991,0.1342677,
2,1,0,1,0,50380.1,0.136135,0.135749,2.15429,26,0.00962137,10,0.000292442,-2.6667,-1.14741,-0.0514203,-4.31258,0.135749,
2,1,0,1,0,50380.2,0.137633,0.137261,2.14414,26,0.0097835,10,0.000294307,-2.66875,-0.519794,-0.113507,-9.45413,0.137261,
2,1,0,1,0,50380.2,0.139133,0.138828,2.12715,26,0.00994487,10,0.000295307,-2.6722,-0.311459,-0.189431,-15.6538,0.138828,
2,1,0,1,0,50380.3,0.140628,0.14028,2.09933,26,0.010104,10,0.000294494,-2.67792,-0.230612,-0.25584,-20.8784,0.14028,
2,1,0,1,0,50380.4,0.142128,0.141801,2.06491,26,0.0102613,10,0.000292805,-2.6851,-0.188694,-0.312675,-25.0701,0.141801,
2,1,0,1,0,50380.5,0.143626,0.143337,2.02199,26,0.0104155,10,0.000289827,-2.69422,-0.144884,-0.407222,-31.9611,0.143337,
2,1,0,1,0,50380.5,0.145124,0.144815,1.96597,26,0.010566,10,0.000284702,-2.70642,-0.112438,-0.524735,-40.1117,0.144815,
2,1,0,1,0,50380.6,0.146622,0.146241,1.90061,26,0.0107121,10,0.000277947,-2.72111,-0.0992334,-0.594558,-44.0364,0.146241,
2,1,0,1,0,50380.7,0.14812,0.147773,1.8343,26,0.0108532,10,0.00027106,-2.73653,-0.0885984,-0.665926,-47.5404,0.147773,
2,1,0,1,0,50380.8,0.149619,0.149281,1.76104,26,0.010989,10,0.000262889,-2.75423,-0.083123,-0.709791,-48.6898,0.149281,
2,1,0,1,0,50380.8,0.151117,0.150823,1.68942,26,0.0111194,10,0.000254804,-2.77226,-0.0774491,-0.76179,-50.0605,0.150823,
2,1,0,1,0,50380.9,0.152615,0.152258,1.61108,26,0.0112441,10,0.000245299,-2.79288,-0.0765097,-0.771144,-48.586,0.152258,
2,1,0,1,0,50381,0.154113,0.153755,1.5429,26,0.0113633,10,0.000237229,-2.81166,-0.0793349,-0.743683,-44.8666,0.153755,
2,1,0,1,0,50381.1,0.155613,0.155269,1.47734,26,0.0114776,10,0.000229385,-2.83052,-0.083554,-0.70613,-40.781,0.155269,
2,1,0,1,0,50381.1,0.157108,0.156754,1.41806,26,0.0115871,10,0.000222287,-2.8483,-0.0844076,-0.698989,-38.6917,0.156754,
2,1,0,1,0,50381.2,0.158608,0.158251,1.36202,26,0.0116925,10,0.000215541,-2.86581,-0.0921873,-0.640001,-34.1849,0.158251,
2,1,0,1,0,50381.3,0.160106,0.159759,1.31507,26,0.0117937,10,0.000210094,-2.88105,-0.0979004,-0.602654,-31.0451,0.159759,
2,1,0,1,0,50381.4,0.161604,0.161215,1.27286,26,0.0118916,10,0.000205204,-2.89522,-0.111775,-0.527848,-26.2616,0.161215,
2,1,0,1,0,50381.4,0.163102,0.16277,1.236,26,0.0119867,10,0.000201183,-2.90798,-0.11954,-0.493558,-23.8618,0.16277,
2,1,0,1,0,50381.5,0.164601,0.164243,1.20228,26,0.012079,10,0.000197466,-2.92,-0.133269,-0.442713,-20.813,0.164243,
2,1,0,1,0,50381.6,0.166099,0.165773,1.17407,26,0.0121691,10,0.000194629,-2.93031,-0.152022,-0.388103,-17.8159,0.165773,
2,1,0,1,0,50381.7,0.167597,0.167264,1.14903,26,0.0122571,10,0.000192191,-2.93967,-0.175964,-0.335295,-15.0503,0.167264,
2,1,0,1,0,50381.7,0.169095,0.168767,1.13028,26,0.0123436,10,0.000190754,-2.94681,-0.21054,-0.280232,-12.3576,0.168767,
2,1,0,1,0,50381.8,0.170593,0.170238,1.10917,26,0.0124286,10,0.000188822,-2.955,-0.213212,-0.27672,-12.0062,0.170238,
2,1,0,1,0,50381.9,0.172092,0.171754,1.08936,26,0.0125122,10,0.000187102,-2.96283,-0.240551,-0.24527,-10.4775,0.171754,
2,1,0,1,0,50382,0.173588,0.173221,1.07782,26,0.0125944,10,0.000186701,-2.96745,-0.294972,-0.200019,-8.41764,0.173221,
2,1,0,1,0,50382,0.175088,0.174773,1.0652,26,0.0126759,10,0.000186168,-2.97257,-0.316208,-0.186586,-7.77212,0.174773,
2,1,0,1,0,50382.1,0.176586,0.176236,1.05498,26,0.0127564,10,0.000185926,-2.97676,-0.330769,-0.178372,-7.33578,0.176236,
2,1,0,1,0,50382.2,0.178084,0.177695,1.03955,26,0.012836,10,0.000184722,-2.98316,-0.362396,-0.162805,-6.6376,0.177695,
2,1,0,1,0,50382.3,0.179582,0.179289,1.03439,26,0.0129148,10,0.000185455,-2.98532,-0.461612,-0.127813,-5.1697,0.1792893,
2,1,0,1,0,50382.3,0.181081,0.180788,1.02596,26,0.0129931,10,0.000185482,-2.98887,-0.445949,-0.132302,-5.30808,0.180788,
2,1,0,1,0,50382.4,0.182579,0.182234,1.02036,26,0.0130709,10,0.000185944,-2.99125,-0.390135,-0.15123,-6.01056,0.182234,
2,1,0,1,0,50382.5,0.184077,0.183753,1.01262,26,0.0131482,10,0.000186072,-2.99455,-0.526756,-0.112006,-4.42976,0.183753,
2,1,0,1,0,50382.6,0.185577,0.185279,1.00683,26,0.0132249,10,0.000186545,-2.99704,-0.616205,-0.0957473,-3.76106,0.185279,
2,1,0,1,0,50382.6,0.187073,0.1867,0.999999,26,0.0133011,10,0.0001867,-3,-0.739371,-0.0797976,-3.11671,0.1867,
2,1,0,1,0,50382.7,0.188572,0.188219,0.997524,26,0.0133771,10,0.000187753,-3.00108,-0.70841,-0.0832852,-3.23847,0.188219,
2,1,0,1,0,50382.8,0.19007,0.189732,0.990427,26,0.0134526,10,0.000187916,-3.00418,-0.922653,-0.063946,-2.47117,0.189732,
2,1,0,1,0,50382.9,0.191568,0.191224,0.983824,26,0.0135277,10,0.000188131,-3.00708,-0.803727,-0.0734081,-2.82573,0.191224,
2,1,0,1,0,50382.9,0.193066,0.19273,0.97977,26,0.0136026,10,0.000188831,-3.00888,-1.35789,-0.0434498,-1.66307,0.19273,
2,1,0,1,0,50383,0.194564,0.194213,0.979727,26,0.0136772,10,0.000190276,-3.00889,-1.10066,-0.0536044,-2.04812,0.194213,
2,1,0,1,0,50383.1,0.196063,0.195716,0.975859,26,0.0137515,10,0.000190992,-3.01061,-0.803663,-0.0734139,-2.79456,0.195716,
2,1,0,1,0,50383.2,0.197561,0.197182,0.96965,26,0.0138256,10,0.000191197,-3.01339,-0.908021,-0.0649764,-2.46557,0.197182,
2,1,0,1,0,50383.2,0.199059,0.198734,0.968629,26,0.0138993,10,0.000192499,-3.01384,-1.00843,-0.0585067,-2.20961,0.198734,
2,1,0,1,0,50383.3,0.200557,0.200198,0.966685,26,0.0139729,10,0.000193528,-3.01472,-2.2823,-0.0258511,-0.973893,0.200198,
2,1,0,1,0,50383.4,0.202057,0.201756,0.96476,26,0.0140464,10,0.000194646,-3.01558,-1.01843,-0.0579322,-2.17954,0.2017556,
2,1,0,1,0,50383.5,0.203552,0.20319,0.958732,26,0.0141195,10,0.000194804,-3.0183,-1.18957,-0.0495976,-1.8587,0.20319,
2,1,0,1,0,50383.5,0.205052,0.204734,0.955967,26,0.0141925,10,0.000195719,-3.01956,13.5547,0.00435274,0.163308,0.204734,
2,1,0,1,0,50383.6,0.20655,0.206199,0.954981,26,0.0142652,10,0.000196916,-3.02001,-2.54916,-0.0231449,-0.864376,0.206199,
2,1,0,1,0,50383.7,0.208048,0.207678,0.954876,26,0.0143381,10,0.000198307,-3.02005,-1.16412,-0.050682,-1.88377,0.207678,
2,1,0,1,0,50383.8,0.209546,0.209218,0.952368,26,0.0144106,10,0.000199253,-3.0212,-1.01819,-0.057946,-2.15221,0.209218,
2,1,0,1,0,50383.8,0.211044,0.210682,0.949012,26,0.0144829,10,0.000199939,-3.02273,-1.31973,-0.0447062,-1.65681,0.210682,
2,1,0,1,0,50383.9,0.212543,0.212219,0.946616,26,0.0145551,10,0.000200889,-3.02383,-4.56212,-0.0129326,-0.478184,0.212219,
2,1,0,1,0,50384,0.214041,0.213681,0.947849,26,0.0146271,10,0.000202538,-3.02326,-1.752,-0.0336757,-1.24131,0.213681,
2,1,0,1,0,50384.1,0.215539,0.215179,0.942212,26,0.014699,10,0.000202744,-3.02585,-2.2251,-0.0265157,-0.976735,0.215179,
2,1,0,1,0,50384.1,0.217037,0.21673,0.940383,26,0.0147707,10,0.00020381,-3.0267,-1.66487,-0.0354381,-1.30351,0.21673,
2,1,0,1,0,50384.2,0.218536,0.218211,0.938164,26,0.0148423,10,0.000204717,-3.02772,58.378,0.00101066,0.037128,0.218211,
2,1,0,1,0,50384.3,0.220032,0.219686,0.939748,26,0.0149138,10,0.00020645,-3.02699,-8.01933,-0.00735722,-0.269668,0.219686,
2,1,0,1,0,50384.4,0.221532,0.221237,0.937314,26,0.0149854,10,0.000207368,-3.02811,-1.56888,-0.0376063,-1.3744,0.221237,
2,1,0,1,0,50384.4,0.22303,0.222695,0.932255,26,0.0150567,10,0.000207609,-3.03047,-1.16044,-0.050843,-1.85899,0.222695,
2,1,0,1,0,50384.5,0.224528,0.224211,0.935203,26,0.0151278,10,0.000209682,-3.02909,-2.83786,-0.0207903,-0.759885,0.224211,
2,1,0,1,0,50384.6,0.226026,0.225711,0.934464,26,0.0151988,10,0.000210919,-3.02944,-3.18711,-0.018512,-0.673982,0.225711,
2,1,0,1,0,50384.7,0.227525,0.227175,0.932471,26,0.0152698,10,0.000211834,-3.03036,-1.501,-0.039307,-1.4275,0.227175,
2,1,0,1,0,50384.7,0.229023,0.228707,0.931391,26,0.0153407,10,0.000213016,-3.03087,-1.52361,-0.0387238,-1.40597,0.228707,
2,1,0,1,0,50384.8,0.230521,0.230205,0.927924,26,0.0154114,10,0.000213613,-3.03249,-3.11602,-0.0189344,-0.687444,0.230205,
2,1,0,1,0,50384.9,0.232019,0.231686,0.929038,26,0.015482,10,0.000215245,-3.03197,-350.547,-0.000168308,-0.00609703,0.231686,
2,1,0,1,0,50385,0.233517,0.233207,0.926401,26,0.0155527,10,0.000216043,-3.0332,-1.44909,-0.0407152,-1.47182,0.233207,
2,1,0,1,0,50385,0.235016,0.234684,0.926519,26,0.0156233,10,0.000217439,-3.03315,-3.03602,-0.0194333,-0.701558,0.234684,
2,1,0,1,0,50385.1,0.236512,0.236161,0.92498,26,0.0156935,10,0.000218444,-3.03387,-3.74697,-0.015746,-0.568091,0.236161,
2,1,0,1,0,50385.2,0.238012,0.237657,0.924018,26,0.0157639,10,0.0002196,-3.03432,55.5433,0.00106223,0.0381854,0.237657,
2,1,0,1,0,50385.3,0.23951,0.239187,0.921638,26,0.0158341,10,0.000220444,-3.03544,-4.33267,-0.0136175,-0.490389,0.239187,
2,1,0,1,0,50385.3,0.241008,0.240693,0.921182,26,0.0159043,10,0.000221723,-3.03565,-2.48971,-0.0236975,-0.851242,0.240693,
2,1,0,1,0,50385.4,0.242506,0.242157,0.917539,26,0.0159742,10,0.000222189,-3.03738,-9.1408,-0.00645458,-0.231844,0.242157,
2,1,0,1,0,50385.5,0.244005,0.243696,0.919181,26,0.0160441,10,0.000224001,-3.0366,-28.5834,-0.00206413,-0.0739601,0.243696,
2,1,0,1,0,50385.6,0.245503,0.245211,0.919363,26,0.016114,10,0.000225438,-3.03651,-2.319,-0.025442,-0.910335,0.245211,
2,1,0,1,0,50385.6,0.247001,0.246705,0.9164,26,0.0161839,10,0.00022608,-3.03791,-1.79957,-0.0327855,-1.17215,0.246705,
2,1,0,1,0,50385.7,0.248501,0.24812,0.91466,26,0.0162537,10,0.000226945,-3.03874,-1.17995,-0.050002,-1.78621,0.24812,
2,1,0,1,0,50385.8,0.249996,0.249688,0.913817,26,0.0163231,10,0.000228169,-3.03914,-10.6127,-0.00555936,-0.198349,0.249688,
2,1,0,1,0,50385.9,0.251496,0.251174,0.913193,26,0.0163927,10,0.00022937,-3.03944,-128.508,-0.000459115,-0.0163511,0.251174,
2,1,0,1,0,50385.9,0.252994,0.252654,0.910983,26,0.0164622,10,0.000230163,-3.04049,-1.51937,-0.038832,-1.37914,0.252654,
2,1,0,1,0,50386,0.254492,0.254126,0.90853,26,0.0165315,10,0.000230881,-3.04166,-2.89781,-0.0203602,-0.72367,0.254126,
2,1,0,1,0,50386.1,0.25599,0.255665,0.908981,26,0.0166007,10,0.000232394,-3.04144,-5.99739,-0.00983762,-0.349142,0.255665,
2,1,0,1,0,50386.2,0.257488,0.257176,0.906028,26,0.0166698,10,0.000233009,-3.04286,-5.55003,-0.0106306,-0.376492,0.257176,
2,1,0,1,0,50386.2,0.258987,0.2587,0.908428,26,0.016739,10,0.00023501,-3.04171,-14.0063,-0.0042124,-0.149242,0.2587,
2,1,0,1,0,50386.3,0.260485,0.260169,0.90837,26,0.0168081,10,0.00023633,-3.04174,-1.33611,-0.0441581,-1.56117,0.260169,
2,1,0,1,0,50386.4,0.261983,0.261652,0.90335,26,0.0168769,10,0.000236364,-3.04414,-1.66806,-0.0353703,-1.24997,0.261652,
2,1,0,1,0,50386.4,0.263481,0.26313,0.903568,26,0.0169457,10,0.000237756,-3.04404,-3.602,-0.0163798,-0.576226,0.26313,
2,1,0,1,0,50386.5,0.264981,0.264672,0.901501,26,0.0170146,10,0.000238602,-3.04503,-2.99998,-0.0196668,-0.693017,0.264672,
2,1,0,1,0,50386.6,0.266476,0.266168,0.902777,26,0.0170831,10,0.000240291,-3.04442,-3.32347,-0.0177525,-0.624815,0.266168,
2,1,0,1,0,50386.7,0.267976,0.267635,0.896546,26,0.0171517,10,0.000239947,-3.04743,-9.16999,-0.00643403,-0.225945,0.267635,
2,1,0,1,0,50386.7,0.269474,0.269154,0.898225,26,0.0172201,10,0.000241761,-3.04661,116.099,0.000508186,0.0178164,0.2691538,
2,1,0,1,0,50386.8,0.270972,0.270661,0.901356,26,0.0172885,10,0.000243962,-3.0451,-4.10668,-0.0143668,-0.502508,0.270661,
2,1,0,1,0,50386.9,0.27247,0.272169,0.89606,26,0.0173568,10,0.000243879,-3.04766,-1.62244,-0.036365,-1.27073,0.272169,
2,1,0,1,0,50387,0.273968,0.273642,0.892737,26,0.017425,10,0.00024429,-3.04928,-2.01033,-0.0293484,-1.02368,0.273642,
2,1,0,1,0,50387,0.275467,0.275094,0.893342,26,0.017493,10,0.000245753,-3.04898,-1.75633,-0.0335928,-1.17018,0.275094,
2,1,0,1,0,50387.1,0.276965,0.276632,0.891846,26,0.0175609,10,0.000246713,-3.04971,-2.18624,-0.0269869,-0.939052,0.276632,
2,1,0,1,0,50387.2,0.278463,0.278113,0.890461,26,0.0176287,10,0.000247649,-3.05038,-1.08088,-0.0545852,-1.8938,0.278113,
2,1,0,1,0,50387.3,0.279961,0.279625,0.88834,26,0.0176965,10,0.000248402,-3.05142,-2.18718,-0.0269754,-0.935394,0.279625,
2,1,0,1,0,50387.3,0.28146,0.281127,0.887411,26,0.0177641,10,0.000249475,-3.05188,-1.56705,-0.0376504,-1.30398,0.281127,
2,1,0,1,0,50387.4,0.282956,0.282614,0.886251,26,0.0178315,10,0.000250467,-3.05244,-7.11392,-0.0082936,-0.286628,0.282614,
2,1,0,1,0,50387.5,0.284456,0.284121,0.88564,26,0.017899,10,0.000251629,-3.05274,-2.17735,-0.0270971,-0.934296,0.284121,
2,1,0,1,0,50387.6,0.285954,0.28567,0.883739,26,0.0179663,10,0.000252457,-3.05368,-1.58897,-0.0371309,-1.28087,0.28567,
2,1,0,1,0,50387.6,0.287452,0.287116,0.879487,26,0.0180334,10,0.000252515,-3.05577,-2.65052,-0.0222598,-0.765043,0.287116,
2,1,0,1,0,50387.7,0.28895,0.288629,0.88031,26,0.0181004,10,0.000254083,-3.05536,20.8514,0.00282954,0.0970139,0.288629,
2,1,0,1,0,50387.8,0.290449,0.290143,0.879886,26,0.0181674,10,0.000255293,-3.05557,-2.59585,-0.0227286,-0.780209,0.290143,
2,1,0,1,0,50387.9,0.291947,0.2916,0.876318,26,0.0182343,10,0.000255535,-3.05734,-1.41723,-0.0416305,-1.42285,0.2916,
2,1,0,1,0,50387.9,0.293445,0.293097,0.874028,26,0.018301,10,0.000256175,-3.05847,-1.37113,-0.0430303,-1.46981,0.293097,
2,1,0,1,0,50388,0.294943,0.294578,0.871759,26,0.0183675,10,0.000256801,-3.0596,-2.14271,-0.0275352,-0.939755,0.294578,
2,1,0,1,0,50388.1,0.296441,0.296145,0.875177,26,0.0184339,10,0.00025918,-3.0579,-8.58819,-0.0068699,-0.233831,0.296145,
2,1,0,1,0,50388.2,0.29794,0.29761,0.869999,26,0.0185004,10,0.00025892,-3.06048,-13.7136,-0.00430229,-0.146355,0.29761,
2,1,0,1,0,50388.2,0.299436,0.299097,0.8682,26,0.0185666,10,0.000259676,-3.06138,-0.00419824,-14.0535,-303.511,0.299097,
2,1,0,1,0,50388.3,0.299739,0.299402,0.590887,26,0.0186007,10,0.000176913,-3.2285,0.00074465,79.2319,676.443,0.299402,
2,1,0,1,0,50388.4,0.298239,0.297899,0.0830982,26,0.0186201,10,2.47549e-05,-4.08041,0.00379476,15.5477,253.564,0.297899,
2,0,0,1,0,50388.4,0.296741,0.296416,-0.0582701,26,0.018619,10,-1.72722e-05,-4.23455,0.0437757,1.34778,80.3258,0.296416,
2,0,0,1,0,50388.5,0.295243,0.29492,-0.127238,26,0.0186106,10,-3.75251e-05,-3.89538,-0.00486219,-12.1344,38.0259,0.29492,
2,0,0,1,0,50388.6,0.293745,0.293409,-0.169135,26,0.0185982,10,-4.96255e-05,-3.77177,-0.0144683,-4.07789,24.2912,0.293409,
2,0,0,1,0,50388.7,0.292246,0.291873,-0.197983,26,0.0185834,10,-5.77857e-05,-3.70337,-0.0240349,-2.45477,18.3961,0.291873,
2,0,0,1,0,50388.7,0.290748,0.290439,-0.224224,26,0.0185663,10,-6.51234e-05,-3.64932,-0.0303591,-1.9434,16.5039,0.290439,
2,0,0,1,0,50388.8,0.28925,0.288882,-0.245002,26,0.0185475,10,-7.07769e-05,-3.61083,-0.0411608,-1.4334,13.5702,0.288882,
2,0,0,1,0,50388.9,0.287752,0.287444,-0.265712,26,0.0185272,10,-7.63774e-05,-3.57559,-0.0545306,-1.08196,11.1237,0.287444,
2,0,0,1,0,50389,0.286254,0.285935,-0.278908,26,0.0185057,10,-7.97496e-05,-3.55454,-0.0609201,-0.968482,10.5536,0.2859346,
2,0,0,1,0,50389,0.284754,0.284394,-0.295937,26,0.0184829,10,-8.41626e-05,-3.5288,-0.0643115,-0.91741,10.5402,0.284394,
2,0,0,1,0,50389.1,0.283259,0.282919,-0.310934,26,0.018459,10,-8.79692e-05,-3.50733,-0.0775869,-0.760438,9.17892,0.282919,
2,0,0,1,0,50389.2,0.281759,0.281408,-0.323692,26,0.0184341,10,-9.10895e-05,-3.48987,-0.0894493,-0.659591,8.28333,0.2814078,
2,0,0,1,0,50389.3,0.280261,0.279937,-0.332985,26,0.0184082,10,-9.32147e-05,-3.47758,-0.0927832,-0.635891,8.32793,0.279937,
2,0,0,1,0,50389.3,0.278763,0.278402,-0.34588,26,0.0183816,10,-9.62936e-05,-3.46108,-0.105582,-0.558806,7.54547,0.278402,
2,0,0,1,0,50389.4,0.277264,0.27692,-0.359115,26,0.018354,10,-9.9446e-05,-3.44477,-0.113677,-0.519015,7.22319,0.27692,
2,0,0,1,0,50389.5,0.275766,0.275431,-0.369687,26,0.0183256,10,-0.000101823,-3.43217,-0.146653,-0.402309,5.76753,0.2754311,
2,0,0,1,0,50389.6,0.274268,0.273951,-0.37874,26,0.0182966,10,-0.000103756,-3.42166,-0.15371,-0.38384,5.66487,0.273951,
2,0,0,1,0,50389.6,0.27277,0.272428,-0.386189,26,0.0182668,10,-0.000105209,-3.4132,-0.144652,-0.407875,6.16482,0.272428,
2,0,0,1,0,50389.7,0.271272,0.270949,-0.397742,26,0.0182363,10,-0.000107768,-3.4004,-0.132514,-0.445237,6.89199,0.270949,
2,0,0,1,0,50389.8,0.269774,0.269425,-0.407436,26,0.0182051,10,-0.000109774,-3.38994,-0.176907,-0.333508,5.26927,0.269425,
2,0,0,1,0,50389.9,0.268274,0.267906,-0.414612,26,0.0181732,10,-0.000111077,-3.38236,-0.180715,-0.326481,5.28869,0.267906,
2,0,0,1,0,50389.9,0.266779,0.266462,-0.4208,26,0.0181409,10,-0.000112127,-3.37592,-0.172119,-0.342786,5.63564,0.266462,
2,0,0,1,0,50390,0.265279,0.264937,-0.429878,26,0.0181078,10,-0.000113891,-3.36666,-0.151014,-0.390691,6.53298,0.264937,
2,0,0,1,0,50390.1,0.263781,0.26345,-0.437377,26,0.0180742,10,-0.000115227,-3.35914,-0.183488,-0.321547,5.48023,0.26345,
2,0,0,1,0,50390.2,0.262283,0.261934,-0.445224,26,0.01804,10,-0.00011662,-3.35142,-0.210005,-0.280945,4.86533,0.261934,
2,0,0,1,0,50390.2,0.260784,0.260431,-0.450789,26,0.0180053,10,-0.000117399,-3.34603,-0.231745,-0.254591,4.49752,0.260431,
2,0,0,1,0,50390.3,0.259286,0.259004,-0.457609,26,0.01797,10,-0.000118523,-3.33951,-0.192357,-0.306722,5.49222,0.259004,
2,0,0,1,0,50390.4,0.257788,0.257496,-0.469346,26,0.0179342,10,-0.000120855,-3.32851,-0.218286,-0.270288,4.918,0.257496,
2,0,0,1,0,50390.5,0.25629,0.255985,-0.472449,26,0.0178978,10,-0.00012094,-3.32564,-0.251258,-0.234818,4.32218,0.255985,
2,0,0,1,0,50390.5,0.25479,0.254457,-0.479302,26,0.0178609,10,-0.000121962,-3.31939,-0.261525,-0.2256,4.22575,0.254457,
2,0,0,1,0,50390.6,0.253294,0.252921,-0.486554,26,0.0178237,10,-0.00012306,-3.31287,-0.262999,-0.224336,4.26311,0.252921,
2,0,0,1,0,50390.7,0.251795,0.251429,-0.49184,26,0.0177858,10,-0.000123663,-3.30818,-0.235031,-0.251031,4.83718,0.251429,
2,0,0,1,0,50390.8,0.250297,0.249972,-0.497592,26,0.0177475,10,-0.000124384,-3.30313,-0.323852,-0.182182,3.544,0.249972,
2,0,0,1,0,50390.8,0.248799,0.248459,-0.50495,26,0.0177087,10,-0.000125459,-3.29675,-0.314219,-0.187767,3.70695,0.248459,
2,0,0,1,0,50390.9,0.247301,0.247005,-0.51227,26,0.0176695,10,-0.000126533,-3.2905,-0.255503,-0.230917,4.60755,0.247005,
2,0,0,1,0,50391,0.245802,0.245495,-0.51624,26,0.0176299,10,-0.000126734,-3.28715,-0.263061,-0.224282,4.52551,0.245495,
2,0,0,1,0,50391.1,0.244304,0.24395,-0.523745,26,0.0175898,10,-0.000127767,-3.28088,-0.323843,-0.182187,3.70798,0.24395,
2,0,0,1,0,50391.1,0.242806,0.242455,-0.52869,26,0.0175492,10,-0.000128183,-3.2768,-0.37509,-0.157296,3.2483,0.242455,
2,0,0,1,0,50391.2,0.241308,0.240958,-0.532307,26,0.0175084,10,-0.000128263,-3.27384,-0.326785,-0.180547,3.76869,0.2409576,
2,0,0,1,0,50391.3,0.23981,0.239469,-0.541231,26,0.0174671,10,-0.000129608,-3.26662,-0.286566,-0.205886,4.33312,0.239469,
2,0,0,1,0,50391.4,0.23831,0.237943,-0.54449,26,0.0174252,10,-0.000129558,-3.26401,-0.311065,-0.189671,4.03483,0.2379432,
2,0,0,1,0,50391.4,0.236815,0.236469,-0.550403,26,0.0173831,10,-0.000130153,-3.25932,-0.351436,-0.167883,3.60278,0.236469,
2,0,0,1,0,50391.5,0.235315,0.234957,-0.552571,26,0.0173405,10,-0.000129831,-3.25761,-0.345565,-0.170735,3.70361,0.234957,
2,0,0,1,0,50391.6,0.233817,0.233453,-0.562305,26,0.0172975,10,-0.000131272,-3.25003,-0.316392,-0.186478,4.09629,0.233453,
2,0,0,1,0,50391.7,0.232319,0.231949,-0.568229,26,0.0172541,10,-0.0001318,-3.24548,-0.342808,-0.172108,3.80657,0.231949,
2,0,0,1,0,50391.7,0.230821,0.23043,-0.571234,26,0.0172102,10,-0.000131629,-3.24319,-0.548278,-0.10761,2.39514,0.23043,
2,0,0,1,0,50391.8,0.229322,0.228983,-0.577344,26,0.0171659,10,-0.000132202,-3.23857,-0.423811,-0.139213,3.13348,0.2289834,
2,0,0,1,0,50391.9,0.227824,0.227473,-0.581898,26,0.0171214,10,-0.000132366,-3.23515,-0.405324,-0.145563,3.31941,0.227473,
2,0,0,1,0,50392,0.226326,0.225946,-0.587738,26,0.0170764,10,-0.000132797,-3.23082,-0.371556,-0.158792,3.64375,0.225946,
2,0,0,1,0,50392,0.224828,0.224489,-0.592652,26,0.0170309,10,-0.000133044,-3.2272,-0.542468,-0.108762,2.50839,0.224489,
2,0,0,1,0,50392.1,0.22333,0.222977,-0.59915,26,0.0169851,10,-0.000133597,-3.22246,-0.380437,-0.155085,3.623,0.2229771,
2,0,0,1,0,50392.2,0.22183,0.221511,-0.603556,26,0.016939,10,-0.000133694,-3.21928,-0.404131,-0.145992,3.44147,0.221511,
2,0,0,1,0,50392.3,0.220335,0.220011,-0.6079,26,0.0168925,10,-0.000133745,-3.21617,-0.341859,-0.172586,4.09052,0.2200115,
2,0,0,1,0,50392.3,0.218835,0.218476,-0.614763,26,0.0168454,10,-0.000134311,-3.21129,-0.410501,-0.143727,3.43787,0.218476,
2,0,0,1,0,50392.4,0.217337,0.21701,-0.617738,26,0.016798,10,-0.000134055,-3.2092,-0.502963,-0.117305,2.84073,0.21701,
2,0,0,1,0,50392.5,0.215839,0.215496,-0.623382,26,0.0167504,10,-0.000134336,-3.20525,-0.407898,-0.144644,3.53373,0.215496,
2,0,0,1,0,50392.6,0.21434,0.214001,-0.625752,26,0.0167023,10,-0.000133911,-3.2036,-0.329846,-0.178872,4.38501,0.214001,
2,0,0,1,0,50392.6,0.212842,0.2125,-0.632862,26,0.0166539,10,-0.000134484,-3.19869,-0.483776,-0.121957,3.01852,0.2125,
2,0,0,1,0,50392.7,0.211344,0.210978,-0.638396,26,0.016605,10,-0.000134687,-3.19491,-0.711792,-0.0828894,2.06635,0.210978,
2,0,0,1,0,50392.8,0.209846,0.209502,-0.642668,26,0.0165559,10,-0.00013464,-3.19201,-0.4499,-0.13114,3.29019,0.209502,
2,0,0,1,0,50392.9,0.208348,0.208029,-0.648125,26,0.0165064,10,-0.000134829,-3.18834,-0.377982,-0.156092,3.96008,0.208029,
2,0,0,1,0,50392.9,0.20685,0.206502,-0.659466,26,0.0164564,10,-0.000136181,-3.18081,-0.372924,-0.158209,4.03696,0.206502,
2,0,0,1,0,50393,0.20535,0.204987,-0.65999,26,0.0164057,10,-0.000135289,-3.18046,-0.604091,-0.0976674,2.51064,0.204987,
2,0,0,1,0,50393.1,0.203855,0.203522,-0.662657,26,0.016355,10,-0.000134866,-3.17871,-0.505998,-0.116601,3.03361,0.203522,
2,0,0,1,0,50393.2,0.202355,0.202048,-0.666897,26,0.016304,10,-0.000134745,-3.17594,-0.42503,-0.138814,3.62842,0.202048,
2,0,0,1,0,50393.2,0.200857,0.20054,-0.674994,26,0.0162525,10,-0.000135363,-3.1707,-0.379338,-0.155534,4.09246,0.20054,
2,0,0,1,0,50393.3,0.199359,0.199006,-0.680614,26,0.0162005,10,-0.000135446,-3.1671,-0.628417,-0.0938867,2.48478,0.199006,
2,0,0,1,0,50393.4,0.19786,0.197516,-0.684919,26,0.0161482,10,-0.000135283,-3.16436,-0.47063,-0.125364,3.34806,0.197516,
2,0,0,1,0,50393.5,0.196362,0.196014,-0.689724,26,0.0160956,10,-0.000135196,-3.16132,-0.442099,-0.133454,3.59437,0.196014,
2,0,0,1,0,50393.5,0.194864,0.194528,-0.698051,26,0.0160425,10,-0.00013579,-3.15611,-0.400427,-0.147343,3.99615,0.194528,
2,0,0,1,0,50393.6,0.193366,0.193006,-0.705634,26,0.0159888,10,-0.000136192,-3.15142,-0.379451,-0.155488,4.26117,0.193006,
2,0,0,1,0,50393.7,0.191866,0.191541,-0.70872,26,0.0159346,10,-0.000135749,-3.14953,-0.514453,-0.114685,3.17273,0.191541,
2,0,0,1,0,50393.8,0.19037,0.190034,-0.709866,26,0.0158804,10,-0.000134899,-3.14882,-0.358753,-0.164459,4.57681,0.190034,
2,0,0,1,0,50393.8,0.188871,0.188532,-0.719352,26,0.0158255,10,-0.000135621,-3.14306,-0.3182,-0.185418,5.21326,0.188532,
2,0,0,1,0,50393.9,0.187373,0.187023,-0.725709,26,0.0157701,10,-0.000135725,-3.13924,-0.336516,-0.175326,4.96867,0.187023,
2,0,0,1,0,50394,0.185875,0.185528,-0.73309,26,0.0157143,10,-0.000136009,-3.13484,-0.467086,-0.126315,3.60791,0.185528,
2,0,0,1,0,50394.1,0.184377,0.184026,-0.735548,26,0.0156581,10,-0.00013536,-3.13339,-0.375131,-0.157278,4.52656,0.184026,
2,0,0,1,0,50394.1,0.182878,0.182552,-0.745031,26,0.0156015,10,-0.000136007,-3.12783,-0.39533,-0.149242,4.34137,0.182552,
2,0,0,1,0,50394.2,0.18138,0.181078,-0.752818,26,0.0155442,10,-0.000136319,-3.12331,-0.352766,-0.16725,4.90365,0.181078,
2,0,0,1,0,50394.3,0.179882,0.179512,-0.758638,26,0.0154865,10,-0.000136185,-3.11997,-0.580689,-0.101604,3.00565,0.1795124,
2,0,0,1,0,50394.4,0.178384,0.178044,-0.764799,26,0.0154283,10,-0.000136168,-3.11645,-0.420066,-0.140454,4.19587,0.178044,
2,0,0,1,0,50394.4,0.176886,0.176544,-0.771657,26,0.0153696,10,-0.000136232,-3.11258,-0.343033,-0.171995,5.18736,0.1765444,
2,0,0,1,0,50394.5,0.175386,0.175032,-0.781249,26,0.0153103,10,-0.000136744,-3.10721,-0.296343,-0.199093,6.05275,0.175032,
2,0,0,1,0,50394.6,0.173891,0.173542,-0.787335,26,0.0152504,10,-0.000136636,-3.10384,-0.292697,-0.201573,6.19705,0.173542,
2,0,0,1,0,50394.7,0.172391,0.172059,-0.795174,26,0.0151898,10,-0.000136817,-3.09954,-0.377888,-0.156131,4.84722,0.172059,
2,0,0,1,0,50394.7,0.170893,0.170557,-0.801725,26,0.0151287,10,-0.00013674,-3.09597,-0.303378,-0.194477,6.10888,0.1705571,
2,0,0,1,0,50394.8,0.169395,0.169049,-0.814516,26,0.015067,10,-0.000137693,-3.0891,-0.251771,-0.23434,7.44269,0.169049,
2,0,0,1,0,50394.9,0.167897,0.167552,-0.824792,26,0.0150043,10,-0.000138195,-3.08366,-0.263275,-0.2241,7.21363,0.167552,
2,0,0,1,0,50395,0.166398,0.16605,-0.835317,26,0.0149409,10,-0.000138705,-3.07815,-0.333356,-0.176988,5.77355,0.16605,
2,0,0,1,0,50395,0.1649,0.164567,-0.844806,26,0.0148768,10,-0.000139027,-3.07324,-0.258527,-0.228216,7.54262,0.164567,
2,0,0,1,0,50395.1,0.163402,0.16304,-0.858549,26,0.0148119,10,-0.000139978,-3.06623,-0.245652,-0.240177,8.05133,0.1630397,
2,0,0,1,0,50395.2,0.161904,0.161585,-0.873028,26,0.0147459,10,-0.000141068,-3.05897,-0.220946,-0.267033,9.07039,0.161585,
2,0,0,1,0,50395.3,0.160406,0.160087,-0.88582,26,0.014679,10,-0.000141808,-3.05265,-0.244959,-0.240857,8.29162,0.160087,
2,0,0,1,0,50395.3,0.158906,0.158554,-0.896158,26,0.014611,10,-0.000142089,-3.04762,-0.20687,-0.285203,10.0145,0.158554,
2,0,0,1,0,50395.4,0.157411,0.157078,-0.913562,26,0.0145422,10,-0.0001435,-3.03926,-0.185012,-0.318898,11.4134,0.157078,
2,0,0,1,0,50395.5,0.155911,0.155549,-0.930006,26,0.0144718,10,-0.000144661,-3.03151,-0.169301,-0.348493,12.6829,0.155549,
2,0,0,1,0,50395.6,0.154413,0.154078,-0.949945,26,0.0144001,10,-0.000146366,-3.0223,-0.17119,-0.344646,12.7761,0.154078,
2,0,0,1,0,50395.6,0.152915,0.152603,-0.970764,26,0.0143268,10,-0.000148141,-3.01289,-0.161304,-0.365768,13.9081,0.152603,
2,0,0,1,0,50395.7,0.151417,0.151044,-0.994152,26,0.0142521,10,-0.000150161,-3.00255,-0.141728,-0.416291,16.2035,0.151044,
2,0,0,1,0,50395.8,0.149918,0.149549,-1.02146,26,0.0141754,10,-0.000152759,-2.99078,-0.122138,-0.483062,19.2672,0.149549,
2,0,0,1,0,50395.9,0.14842,0.148104,-1.05141,26,0.0140967,10,-0.000155717,-2.97823,-0.113937,-0.51783,21.2644,0.148104,
2,0,0,1,0,50395.9,0.146922,0.146592,-1.08368,26,0.0140156,10,-0.000158858,-2.9651,-0.108599,-0.543285,22.9853,0.146592,
2,0,0,1,0,50396,0.145424,0.145069,-1.11406,26,0.0139321,10,-0.000161615,-2.95309,-0.101079,-0.583704,25.5292,0.145069,
2,0,0,1,0,50396.1,0.143926,0.14356,-1.15772,26,0.0138457,10,-0.000166201,-2.9364,-0.0918167,-0.642585,29.0643,0.14356,
2,0,0,1,0,50396.2,0.142426,0.142087,-1.20203,26,0.013756,10,-0.000170794,-2.92008,-0.0889508,-0.663288,31.1598,0.142087,
2,0,0,1,0,50396.2,0.140931,0.140554,-1.25009,26,0.013663,10,-0.000175705,-2.90306,-0.0891895,-0.661513,32.3024,0.140554,
2,0,0,1,0,50396.3,0.139431,0.139061,-1.29693,26,0.0135662,10,-0.000180352,-2.88708,-0.0874629,-0.674572,34.2334,0.139061,
2,0,0,1,0,50396.4,0.137933,0.137605,-1.35185,26,0.0134657,10,-0.000186021,-2.86907,-0.0850697,-0.693549,36.637,0.137605,
2,0,0,1,0,50396.5,0.136435,0.136113,-1.40946,26,0.013361,10,-0.000191846,-2.85095,-0.0857835,-0.687778,37.7917,0.136113,
2,0,0,1,0,50396.5,0.134936,0.134615,-1.46845,26,0.0132521,10,-0.000197675,-2.83314,-0.0902526,-0.653721,37.3722,0.134615,
2,0,0,1,0,50396.6,0.133438,0.133141,-1.52435,26,0.0131388,10,-0.000202953,-2.81691,-0.089442,-0.659645,39.2326,0.133141,
2,0,0,1,0,50396.7,0.13194,0.131591,-1.5833,26,0.0130212,10,-0.000208349,-2.80044,-0.0946554,-0.623314,38.537,0.131591,
2,0,0,1,0,50396.8,0.130442,0.130098,-1.64037,26,0.0128991,10,-0.000213409,-2.78506,-0.0972337,-0.606786,38.8551,0.130098,
2,0,0,1,0,50396.8,0.128942,0.128636,-1.70013,26,0.0127725,10,-0.000218698,-2.76952,-0.106314,-0.55496,36.7646,0.128636,
2,0,0,1,0,50396.9,0.127446,0.127131,-1.75749,26,0.0126419,10,-0.000223431,-2.75511,-0.111216,-0.5305,36.2774,0.127131,
2,0,0,1,0,50397,0.125947,0.125609,-1.80982,26,0.012507,10,-0.00022733,-2.74237,-0.119996,-0.491685,34.66,0.125609,
2,0,0,1,0,50397.1,0.124449,0.124148,-1.86027,26,0.0123684,10,-0.00023095,-2.73042,-0.126357,-0.466931,33.8149,0.124148,
2,0,0,1,0,50397.1,0.122951,0.122603,-1.90826,26,0.0122259,10,-0.000233959,-2.71936,-0.139744,-0.422201,31.3812,0.122603,
2,0,0,1,0,50397.2,0.121453,0.121091,-1.95312,26,0.01208,10,-0.000236506,-2.70927,-0.15943,-0.370069,28.1472,0.121091,
2,0,0,1,0,50397.3,0.119955,0.119642,-1.99033,26,0.0119311,10,-0.000238127,-2.70108,-0.178573,-0.330397,25.6609,0.119642,
2,0,0,1,0,50397.4,0.118456,0.118134,-2.03045,26,0.0117791,10,-0.000239865,-2.69241,-0.186303,-0.316688,25.0391,0.118134,
2,0,0,1,0,50397.4,0.116958,0.116648,-2.06916,26,0.0116243,10,-0.000241364,-2.68421,-0.225138,-0.262062,21.085,0.116648,
2,0,0,1,0,50397.5,0.11546,0.115102,-2.09723,26,0.0114671,10,-0.000241395,-2.67835,-0.30081,-0.196137,15.9908,0.115102,
2,0,0,1,0,50397.6,0.113962,0.11364,-2.1151,26,0.011308,10,-0.00024036,-2.67467,-0.366224,-0.161104,13.2951,0.11364,
2,0,0,1,0,50397.7,0.112462,0.112128,-2.13722,26,0.0111472,10,-0.000239642,-2.67015,-0.43521,-0.135567,11.2964,0.112128,
2,0,0,1,0,50397.7,0.110967,0.110637,-2.15417,26,0.0109854,10,-0.00023833,-2.66672,-0.570046,-0.103501,8.68217,0.110637,
2,0,0,1,0,50397.8,0.109467,0.109115,-2.16489,26,0.0108222,10,-0.000236221,-2.66456,-1.05328,-0.0560156,4.72199,0.1091148,
2,0,0,1,0,50397.9,0.107969,0.107612,-2.16972,26,0.0106586,10,-0.000233487,-2.6636,-2.40658,-0.0245161,2.0723,0.107612,
2,0,0,1,0,50398,0.106471,0.106159,-2.1683,26,0.0104948,10,-0.000230186,-2.66388,12.3073,0.00479392,-0.4059,0.1061594,
2,0,0,1,0,50398,0.104973,0.104675,-2.17038,26,0.010331,10,-0.000227184,-2.66346,4.97155,0.0118675,-1.00375,0.104675,
2,0,0,1,0,50398.1,0.103474,0.103143,-2.16769,26,0.0101673,10,-0.000223582,-2.664,1.19502,0.0493714,-4.1656,0.103143,
2,0,0,1,0,50398.2,0.101976,0.101656,-2.15948,26,0.0100041,10,-0.000219524,-2.66565,0.715166,0.0824984,-6.93863,0.101656,
2,0,0,1,0,50398.3,0.100478,0.100161,-2.1455,26,0.00984169,10,-0.000214896,-2.66847,0.679245,0.0868611,-7.27279,0.100161,
2,0,0,1,0,50398.3,0.0989798,0.0986596,-2.13579,26,0.00968014,10,-0.000210716,-2.67044,0.658631,0.0895797,-7.46165,0.09865956,
2,0,0,1,0,50398.4,0.0974817,0.0971611,-2.12361,26,0.00951943,10,-0.000206333,-2.67292,0.576641,0.102317,-8.47441,0.0971611,
2,0,0,1,0,50398.5,0.0959821,0.0956714,-2.11064,26,0.0093595,10,-0.000201928,-2.67559,0.57229,0.103095,-8.48406,0.0956714,
2,0,0,1,0,50398.6,0.0944866,0.0941591,-2.09192,26,0.00920101,10,-0.000196974,-2.67945,0.584699,0.100907,-8.25314,0.0941591,
2,0,0,1,0,50398.6,0.0929871,0.0926618,-2.08393,26,0.00904317,10,-0.000193101,-2.68112,0.648738,0.0909458,-7.39766,0.0926618,
2,0,0,1,0,50398.7,0.0914889,0.0911983,-2.07364,26,0.00888636,10,-0.000189112,-2.68327,0.577214,0.102215,-8.25658,0.0911983,
2,0,0,1,0,50398.8,0.0899907,0.0896628,-2.05631,26,0.00873043,10,-0.000184374,-2.68691,0.496335,0.118871,-9.54421,0.0896628,
2,0,0,1,0,50398.9,0.0884925,0.0881296,-2.04221,26,0.00857553,10,-0.000179979,-2.6899,0.55751,0.105828,-8.4472,0.08812961,
2,0,0,1,0,50398.9,0.0869943,0.0866726,-2.03187,26,0.00842165,10,-0.000176108,-2.6921,0.566167,0.10421,-8.27568,0.0866726,
2,0,0,1,0,50399,0.0854961,0.0851468,-2.02482,26,0.00826851,10,-0.000172407,-2.69361,0.636785,0.0926529,-7.31817,0.0851468,
2,0,0,1,0,50399.1,0.083998,0.0836792,-2.01167,26,0.00811616,10,-0.000168335,-2.69644,0.599341,0.0984414,-7.72313,0.0836792,
2,0,0,1,0,50399.2,0.0824998,0.0822039,-2.00334,26,0.0079646,10,-0.000164682,-2.69825,0.719186,0.0820372,-6.40911,0.0822039,
2,0,0,1,0,50399.2,0.081002,0.0806852,-1.99058,26,0.00781398,10,-0.00016061,-2.70102,0.647227,0.0911582,-7.08673,0.0806852,
2,0,0,1,0,50399.3,0.0795025,0.0791768,-1.98235,26,0.00766379,10,-0.000156956,-2.70282,0.927982,0.0635788,-4.91678,0.0791768,
2,0,0,1,0,50399.4,0.078007,0.0777139,-1.97353,26,0.00751461,10,-0.000153371,-2.70476,0.759012,0.0777326,-5.98105,0.0777139,
2,0,0,1,0,50399.5,0.076507,0.0761576,-1.9642,26,0.0073657,10,-0.000149589,-2.70681,0.653105,0.0903377,-6.92284,0.0761576,
2,0,0,1,0,50399.5,0.0750088,0.0747035,-1.95228,26,0.0072179,10,-0.000145842,-2.70946,0.672001,0.0877974,-6.69523,0.0747035,
2,0,0,1,0,50399.6,0.0735106,0.073149,-1.94132,26,0.00707083,10,-0.000142005,-2.7119,0.754102,0.0782387,-5.93377,0.073149,
2,0,0,1,0,50399.7,0.0720124,0.0716601,-1.9323,26,0.00692441,10,-0.000138469,-2.71393,0.726528,0.0812082,-6.12417,0.0716601,
2,0,0,1,0,50399.8,0.0705142,0.070114,-1.922,26,0.00677864,10,-0.000134759,-2.71625,0.553288,0.106635,-8.00178,0.070114,
2,0,0,1,0,50399.8,0.069016,0.0686838,-1.91164,26,0.00663379,10,-0.000131298,-2.71859,0.542311,0.108794,-8.12477,0.0686838,
2,0,0,1,0,50399.9,0.0675179,0.0671728,-1.9023,26,0.00648982,10,-0.000127783,-2.72072,0.660542,0.0893205,-6.63408,0.0671728,
2,0,0,1,0,50400,0.0660179,0.0657142,-1.89519,26,0.00634634,10,-0.000124541,-2.72235,0.679658,0.0868084,-6.40517,0.06571424,
2,0,0,1,0,50400.1,0.0645224,0.0641504,-1.88397,26,0.00620384,10,-0.000120858,-2.72493,0.584016,0.101025,-7.40793,0.0641504,
2,0,0,1,0,50400.1,0.0630228,0.0626437,-1.87254,26,0.00606185,10,-0.000117303,-2.72757,0.562323,0.104922,-7.66648,0.0626437,
2,0,0,1,0,50400.2,0.0615251,0.06121,-1.85998,26,0.00592105,10,-0.000113849,-2.73049,0.620195,0.0951314,-6.90985,0.06121,
2,0,0,1,0,50400.3,0.0600269,0.0596694,-1.84867,26,0.00578095,10,-0.000110309,-2.73314,0.633388,0.0931498,-6.72076,0.0596694,
2,0,0,1,0,50400.4,0.0585287,0.0581521,-1.83929,26,0.00564159,10,-0.000106959,-2.73535,0.516711,0.114184,-8.18331,0.0581521,
2,0,0,1,0,50400.4,0.0570305,0.0566597,-1.82626,26,0.00550308,10,-0.000103475,-2.73844,0.501309,0.117692,-8.39044,0.0566597,
2,0,0,1,0,50400.5,0.0555323,0.0551868,-1.81589,26,0.00536559,10,-0.000100213,-2.74091,0.528874,0.111558,-7.90653,0.0551868,
2,0,0,1,0,50400.6,0.0540342,0.053681,-1.80534,26,0.00522879,10,-9.69125e-05,-2.74344,0.592299,0.0996118,-7.01376,0.053681,
2,0,0,1,0,50400.7,0.052536,0.0521845,-1.79674,26,0.00509274,10,-9.37618e-05,-2.74552,0.519453,0.113581,-7.94885,0.0521845,
2,0,0,1,0,50400.7,0.0510378,0.0507027,-1.78437,26,0.00495754,10,-9.04724e-05,-2.74852,0.468324,0.125981,-8.7634,0.0507027,
2,0,0,1,0,50400.8,0.0495382,0.0492018,-1.7677,26,0.00482323,10,-8.69741e-05,-2.75259,0.503893,0.117088,-8.09164,0.0492018,
2,0,0,1,0,50400.9,0.0480427,0.0477416,-1.75772,26,0.00469013,10,-8.39164e-05,-2.75505,0.551323,0.107015,-7.33618,0.0477416,
2,0,0,1,0,50401,0.0465432,0.0461939,-1.7467,26,0.00455749,10,-8.06869e-05,-2.75778,0.582212,0.101338,-6.90933,0.0461939,
2,0,0,1,0,50401,0.045045,0.0446954,-1.73475,26,0.00442595,10,-7.75356e-05,-2.76076,0.455041,0.129659,-8.77148,0.0446954,
2,0,0,1,0,50401.1,0.0435468,0.0432071,-1.7182,26,0.00429537,10,-7.42385e-05,-2.76493,0.444243,0.13281,-8.91662,0.0432071,
2,0,0,1,0,50401.2,0.0420486,0.041687,-1.70751,26,0.00416583,10,-7.11809e-05,-2.76764,0.462937,0.127447,-8.50053,0.041687,
2,0,0,1,0,50401.2,0.0405504,0.0402145,-1.69895,26,0.00403707,10,-6.83223e-05,-2.76982,0.515343,0.114487,-7.57234,0.04021452,
2,0,0,1,0,50401.3,0.0390523,0.0387144,-1.68364,26,0.00390923,10,-6.51811e-05,-2.77375,0.38608,0.152818,-10.0238,0.0387144,
2,0,0,1,0,50401.4,0.0375541,0.037212,-1.6677,26,0.00378246,10,-6.20584e-05,-2.77788,0.420346,0.140361,-9.14524,0.037212,
2,0,0,1,0,50401.5,0.0360559,0.0357062,-1.65584,26,0.00365684,10,-5.91239e-05,-2.78098,0.444586,0.132708,-8.57824,0.0357062,
2,0,0,1,0,50401.5,0.0345577,0.0342515,-1.64253,26,0.0035321,10,-5.6259e-05,-2.78449,0.4386,0.134519,-8.62488,0.0342515,
2,0,0,1,0,50401.6,0.0330582,0.0327123,-1.63016,26,0.00340815,10,-5.33264e-05,-2.78777,0.438486,0.134554,-8.55722,0.03271227,
2,0,0,1,0,50401.7,0.0315626,0.0312137,-1.61732,26,0.00328549,10,-5.04824e-05,-2.7912,0.439935,0.134111,-8.46515,0.0312137,
2,0,0,1,0,50401.8,0.0300631,0.0297257,-1.60427,26,0.00316359,10,-4.76881e-05,-2.79472,0.459293,0.128458,-8.03951,0.0297257,
2,0,0,1,0,50401.8,0.0285649,0.0282463,-1.59117,26,0.00304275,10,-4.49446e-05,-2.79828,0.498483,0.118359,-7.35102,0.0282463,
2,0,0,1,0,50401.9,0.0270667,0.0267161,-1.58175,26,0.00292266,10,-4.22583e-05,-2.80086,0.497157,0.118675,-7.31928,0.0267161,
2,0,0,1,0,50402,0.0255685,0.0252236,-1.56809,26,0.00280352,10,-3.95528e-05,-2.80463,0.394529,0.149545,-9.16028,0.0252236,
2,0,0,1,0,50402.1,0.0240704,0.023732,-1.55221,26,0.00268538,10,-3.68371e-05,-2.80905,0.439663,0.134194,-8.14974,0.023732,
2,0,0,1,0,50402.1,0.0225722,0.0222188,-1.54271,26,0.00256814,10,-3.42772e-05,-2.81172,0.562659,0.104859,-6.32062,0.0222188,
2,0,0,1,0,50402.2,0.021074,0.0207281,-1.53564,26,0.00245166,10,-3.18308e-05,-2.81371,0.507134,0.11634,-6.9646,0.0207281,
2,0,0,1,0,50402.3,0.0195758,0.0192422,-1.52262,26,0.00233594,10,-2.92986e-05,-2.81741,0.46224,0.127639,-7.58649,0.0192422,
2,0,0,1,0,50402.4,0.018078,0.0177474,-1.51036,26,0.00222101,10,-2.68049e-05,-2.82092,0.597423,0.0987575,-5.83311,0.0177474,
2,0,0,1,0,50402.4,0.0165785,0.0162385,-1.50453,26,0.00210673,10,-2.44313e-05,-2.8226,0.721645,0.0817577,-4.80794,0.0162385,
2,0,0,1,0,50402.5,0.015083,0.0147651,-1.49778,26,0.00199324,10,-2.21148e-05,-2.82455,0.779219,0.0757169,-4.4286,0.0147651,
2,0,0,1,0,50402.6,0.013583,0.0132393,-1.49054,26,0.00187991,10,-1.97336e-05,-2.82666,0.569042,0.103683,-6.02198,0.0132393,
2,0,0,1,0,50402.7,0.0120848,0.0117452,-1.48281,26,0.00176731,10,-1.74159e-05,-2.82891,0.635718,0.0928084,-5.3714,0.0117452,
2,0,0,1,0,50402.7,0.0105866,0.0102491,-1.47536,26,0.00165545,10,-1.51211e-05,-2.8311,0.829454,0.0711311,-4.10199,0.0102491,
2,0,0,1,0,50402.8,0.00908846,0.00876235,-1.47007,26,0.00154394,10,-1.28813e-05,-2.83266,1.30111,0.045346,-2.60412,0.00876235,
2,0,0,1,0,50402.9,0.00759027,0.00722601,-1.4659,26,0.00143277,10,-1.05926e-05,-2.8339,1.12126,0.0526193,-3.00834,0.00722601,
2,0,0,1,0,50403,0.00609208,0.0057572,-1.46224,26,0.00132189,10,-8.41839e-06,-2.83498,1.28768,0.0458187,-2.61371,0.0057572,
2,0,0,1,0,50403,0.00459389,0.00424907,-1.45842,26,0.00121146,10,-6.19695e-06,-2.83612,1.5295,0.0385748,-2.1957,0.00424907,
2,0,0,1,0,50403.1,0.00309391,0.0027698,-1.45862,26,0.00110104,10,-4.0401e-06,-2.83606,-1.4109,-0.0418173,2.38306,0.0027698,
2,0,0,1,0,50403.2,0.0015984,0.00122424,-1.46862,26,0.000990152,10,-1.79795e-06,-2.83309, , , ,0.00122424,
2,0,0,1,0,50403.3,0.000199195,-0.000137991,-1.45679,26,0.000886572,10,2.01023e-07,-2.8366, , , ,-0.000137991,