File: Figure_codes/Fig_3-5/rawdata_trumpetplot_data/after 10th/20221101_1-115_003_TrumpetPlot_ParaChange_from10_every3_06_CV_C01_14.csv
mode,ox/red,error,control changes,counter inc.,time/s,control/V,Ewe/V,<I>/mA,cycle number,(Q-Qo)/C,I Range,P/W,log(|I|),Tafel slope mV/dec,alpha_eff,dI/d(E-IR),E-IR/V,
2,0,0,0,0,28731.8,2.44065e-05,-0.000268062,-1.42679,15,0.0000000E+000,10,3.82468e-07,-2.84564, , , ,-0.000268062,
2,0,0,1,0,28731.9,0.00129787,0.000930179,-0.325307,15,-2.4053e-05,10,-3.02593e-07,-3.48771, , , ,0.000930179,
2,1,0,1,0,28731.9,0.00279427,0.0024783,0.343362,15,-2.18686e-05,10,8.50952e-07,-3.46425,0.0457819,1.28872,358.263,0.0024783,
2,1,0,1,0,28732,0.00429425,0.00398841,0.704455,15,-9.64434e-07,10,2.80966e-06,-3.15215,0.00522814,11.2851,205.737,0.00398841,
2,1,0,1,0,28732,0.00579422,0.00543802,0.936157,15,3.07604e-05,10,5.09084e-06,-3.02865,0.0142884,4.12923,136.194,0.00543802,
2,1,0,1,0,28732,0.00729063,0.00694541,1.09877,15,6.95733e-05,10,7.63138e-06,-2.95909,0.0252059,2.34072,95.5806,0.00694541,
2,1,0,1,0,28732.1,0.00878703,0.00843865,1.22165,15,0.00011358,10,1.03091e-05,-2.91305,0.0389732,1.51386,70.041,0.00843865,
2,1,0,1,0,28732.1,0.010287,0.00992574,1.31312,15,0.000161665,10,1.30337e-05,-2.88169,0.0526055,1.12156,56.2984,0.009925737,
2,1,0,1,0,28732.1,0.011787,0.011442,1.38672,15,0.000212836,10,1.58668e-05,-2.85801,0.0681747,0.865424,46.3185,0.011442,
2,1,0,1,0,28732.2,0.0132825,0.0129569,1.44123,15,0.000266289,10,1.86738e-05,-2.84127,0.0824972,0.715176,40.2858,0.0129569,
2,1,0,1,0,28732.2,0.014778,0.0144602,1.49747,15,0.000321961,10,2.16536e-05,-2.82464,0.0947642,0.622598,36.3705,0.0144602,
2,1,0,1,0,28732.2,0.0162816,0.0159582,1.5491,15,0.000380003,10,2.47209e-05,-2.80992,0.110778,0.532594,32.159,0.0159582,
2,1,0,1,0,28732.3,0.017778,0.0174697,1.59545,15,0.000439483,10,2.78719e-05,-2.79712,0.127,0.464568,28.8925,0.0174697,
2,1,0,1,0,28732.3,0.0192744,0.0189558,1.6375,15,0.000500484,10,3.10401e-05,-2.78582,0.140768,0.41913,26.737,0.0189558,
2,1,0,1,0,28732.4,0.0207743,0.0204477,1.68247,15,0.000563263,10,3.44026e-05,-2.77405,0.139928,0.421645,27.5149,0.0204477,
2,1,0,1,0,28732.4,0.0222743,0.0219663,1.72301,15,0.00062758,10,3.7848e-05,-2.76371,0.146906,0.401617,26.8816,0.0219663,
2,1,0,1,0,28732.4,0.0237707,0.023445,1.7579,15,0.000693194,10,4.1214e-05,-2.75501,0.171027,0.344974,23.6263,0.023445,
2,1,0,1,0,28732.5,0.0252671,0.024965,1.79236,15,0.000760163,10,4.47463e-05,-2.74658,0.169284,0.348527,24.4357,0.024965,
2,1,0,1,0,28732.5,0.0267671,0.0264262,1.82948,15,0.000828614,10,4.83463e-05,-2.73767,0.16397,0.359821,25.7466,0.0264262,
2,1,0,1,0,28732.5,0.0282671,0.0279512,1.87171,15,0.000898571,10,5.23164e-05,-2.72776,0.157745,0.374021,27.2633,0.0279512,
2,1,0,1,0,28732.6,0.0297626,0.0294269,1.90637,15,0.000969793,10,5.60986e-05,-2.71979,0.189433,0.311455,23.1199,0.0294269,
2,1,0,1,0,28732.6,0.0312581,0.0309419,1.93728,15,0.00104232,10,5.99431e-05,-2.71281,0.191103,0.308735,23.3503,0.0309419,
2,1,0,1,0,28732.7,0.0327616,0.0324345,1.97884,15,0.00111647,10,6.41826e-05,-2.70359,0.189496,0.311352,23.989,0.0324345,
2,1,0,1,0,28732.7,0.034258,0.0339069,2.01247,15,0.00119165,10,6.82367e-05,-2.69627,0.187583,0.314528,24.6728,0.0339069,
2,1,0,1,0,28732.7,0.0357545,0.0354516,2.04833,15,0.00126818,10,7.26168e-05,-2.6886,0.208048,0.283588,22.6425,0.0354516,
2,1,0,1,0,28732.8,0.0372544,0.0369196,2.08376,15,0.00134628,10,7.69315e-05,-2.68115,0.207497,0.284341,23.1276,0.0369196,
2,1,0,1,0,28732.8,0.0387544,0.0384296,2.11169,15,0.00142559,10,8.11512e-05,-2.67537,0.198853,0.296701,24.5905,0.0384296,
2,1,0,1,0,28732.8,0.0402508,0.0399211,2.15628,15,0.00150608,10,8.60811e-05,-2.66629,0.197767,0.298331,25.0746,0.0399211,
2,1,0,1,0,28732.9,0.0417472,0.0414297,2.1916,15,0.00158804,10,9.07973e-05,-2.65924,0.212822,0.277227,23.7068,0.0414297,
2,1,0,1,0,28732.9,0.0432472,0.0429239,2.2299,15,0.00167152,10,9.5716e-05,-2.65171,0.223182,0.264358,22.9461,0.0429239,
2,1,0,1,0,28733,0.0447472,0.044408,2.26185,15,0.00175625,10,0.000100444,-2.64554,0.217594,0.271147,23.9031,0.044408,
2,1,0,1,0,28733,0.0462427,0.0459435,2.29814,15,0.00184202,10,0.000105585,-2.63862,0.222101,0.265644,23.78,0.0459435,
2,1,0,1,0,28733,0.0477382,0.0474006,2.32881,15,0.00192911,10,0.000110387,-2.63287,0.232689,0.253557,23.0604,0.0474006,
2,1,0,1,0,28733.1,0.0492417,0.0489092,2.36091,15,0.00201798,10,0.00011547,-2.62692,0.245869,0.239965,22.1558,0.0489092,
2,1,0,1,0,28733.1,0.0507381,0.0504142,2.39021,15,0.0021076,10,0.000120501,-2.62156,0.257632,0.229009,21.4653,0.0504142,
2,1,0,1,0,28733.1,0.0522345,0.0518991,2.43022,15,0.00219843,10,0.000126127,-2.61435,0.240316,0.24551,23.2976,0.0518991,
2,1,0,1,0,28733.2,0.0537345,0.0534627,2.4679,15,0.00229082,10,0.000131941,-2.60767,0.242777,0.243021,23.3798,0.0534627,
2,1,0,1,0,28733.2,0.0552345,0.0548858,2.50088,15,0.0023845,10,0.000137262,-2.60191,0.273701,0.215564,20.9679,0.0548858,
2,1,0,1,0,28733.3,0.0567309,0.0563945,2.52701,15,0.0024791,10,0.000142509,-2.59739,0.301705,0.195555,19.2654,0.0563945,
2,1,0,1,0,28733.3,0.0582273,0.0578915,2.56011,15,0.00257467,10,0.000148208,-2.59174,0.288183,0.204731,20.4384,0.0578915,
2,1,0,1,0,28733.3,0.0597309,0.0593762,2.58913,15,0.00267196,10,0.000153733,-2.58685,0.271812,0.217062,21.9148,0.0593762,
2,1,0,1,0,28733.4,0.0612264,0.0609351,2.61584,15,0.00276993,10,0.000159396,-2.58239,0.327272,0.180278,18.4046,0.0609351,
2,1,0,1,0,28733.4,0.0627219,0.0623791,2.64407,15,0.00286901,10,0.000164935,-2.57773,0.321773,0.183359,18.9394,0.06237907,
2,1,0,1,0,28733.4,0.0642218,0.0639261,2.67219,15,0.00296934,10,0.000170823,-2.57313,0.309701,0.190506,19.9085,0.0639261,
2,1,0,1,0,28733.5,0.0657218,0.0654073,2.70229,15,0.00307075,10,0.000176749,-2.56827,0.302202,0.195234,20.5869,0.0654073,
2,1,0,1,0,28733.5,0.0672182,0.0669189,2.73884,15,0.00317309,10,0.00018328,-2.56243,0.302764,0.194871,20.7592,0.0669189,
2,1,0,1,0,28733.6,0.0687146,0.0683677,2.76346,15,0.00327649,10,0.000188931,-2.55855,0.374587,0.157507,16.9431,0.0683677,
2,1,0,1,0,28733.6,0.0702146,0.0698946,2.78753,15,0.00338107,10,0.000194833,-2.55478,0.378417,0.155912,16.9549,0.0698946,
2,1,0,1,0,28733.6,0.0717146,0.0713989,2.81149,15,0.00348657,10,0.000200737,-2.55106,0.363234,0.16243,17.819,0.0713989,
2,1,0,1,0,28733.7,0.073211,0.0729091,2.83427,15,0.00359276,10,0.000206644,-2.54756,0.400765,0.147218,16.2937,0.0729091,
2,1,0,1,0,28733.7,0.0747074,0.0743966,2.85865,15,0.00369987,10,0.000212674,-2.54384,0.469442,0.125681,14.0251,0.0743966,
2,1,0,1,0,28733.7,0.0762109,0.0758767,2.87766,15,0.00380836,10,0.000218347,-2.54096,0.434434,0.135809,15.2694,0.0758767,
2,1,0,1,0,28733.8,0.0777064,0.0773645,2.89962,15,0.00391704,10,0.000224328,-2.53766,0.429417,0.137396,15.5664,0.0773645,
2,1,0,1,0,28733.8,0.079202,0.0788937,2.92831,15,0.00402659,10,0.000231025,-2.53338,0.502463,0.117422,13.3847,0.0788937,
2,1,0,1,0,28733.9,0.0807019,0.0803978,2.94839,15,0.00413733,10,0.000237044,-2.53041,0.496266,0.118888,13.6508,0.0803978,
2,1,0,1,0,28733.9,0.0822019,0.0819052,2.96389,15,0.00424876,10,0.000242758,-2.52814,0.530703,0.111173,12.8622,0.0819052,
2,1,0,1,0,28733.9,0.0836983,0.0833847,2.98252,15,0.00436056,10,0.000248696,-2.52542,0.503879,0.117092,13.6537,0.0833847,
2,1,0,1,0,28734,0.0851947,0.0848822,3.00267,15,0.00447314,10,0.000254873,-2.52249,0.491626,0.12001,14.0873,0.08488217,
2,1,0,1,0,28734,0.0866947,0.086384,3.02405,15,0.00458683,10,0.000261229,-2.51941,0.559266,0.105495,12.4601,0.086384,
2,1,0,1,0,28734,0.0881947,0.0878496,3.0485,15,0.0047013,10,0.000267809,-2.51591,0.548507,0.107565,12.8017,0.0878496,
2,1,0,1,0,28734.1,0.0896911,0.0893476,3.06446,15,0.00481611,10,0.000273802,-2.51365,0.438867,0.134437,16.1179,0.0893476,
2,1,0,1,0,28734.1,0.0911875,0.0908444,3.0917,15,0.00493181,10,0.000280864,-2.5098,0.386909,0.152491,18.4021,0.0908444,
2,1,0,1,0,28734.2,0.0926901,0.0923802,3.12984,15,0.00504929,10,0.000289136,-2.50448,0.336142,0.175521,21.3739,0.0923802,
2,1,0,1,0,28734.2,0.0941856,0.0938103,3.15267,15,0.00516722,10,0.000295753,-2.50132,0.383758,0.153743,18.9216,0.0938103,
2,1,0,1,0,28734.2,0.0956821,0.0953851,3.17557,15,0.00528618,10,0.000302902,-2.49818,0.33749,0.17482,21.747,0.0953851,
2,1,0,1,0,28734.3,0.097182,0.0968479,3.21334,15,0.00540665,10,0.000311206,-2.49304,0.294452,0.200372,25.2167,0.0968479,
2,1,0,1,0,28734.3,0.098682,0.0983636,3.25398,15,0.0055286,10,0.000320073,-2.48759,0.259964,0.226954,28.872,0.0983636,
2,1,0,1,0,28734.3,0.100178,0.0998746,3.29628,15,0.00565179,10,0.000329215,-2.48198,0.271674,0.217172,27.9587,0.0998746,
2,1,0,1,0,28734.4,0.101675,0.101372,3.34155,15,0.00577659,10,0.000338738,-2.47605,0.25386,0.232411,30.3532,0.101372,
2,1,0,1,0,28734.4,0.103175,0.102888,3.39424,15,0.00590337,10,0.000349228,-2.46926,0.22866,0.258025,34.2042,0.102888,
2,1,0,1,0,28734.5,0.104675,0.104357,3.45262,15,0.00603219,10,0.000360303,-2.46185,0.213571,0.276255,37.1285,0.1043565,
2,1,0,1,0,28734.5,0.106171,0.105879,3.50317,15,0.00616274,10,0.000370912,-2.45554,0.216259,0.272821,37.2652,0.1058789,
2,1,0,1,0,28734.5,0.107667,0.107342,3.55501,15,0.00629535,10,0.000381602,-2.44916,0.217869,0.270805,37.6144,0.107342,
2,1,0,1,0,28734.6,0.10917,0.108849,3.6116,15,0.00643072,10,0.000393119,-2.4423,0.212907,0.277116,39.1546,0.108849,
2,1,0,1,0,28734.6,0.110666,0.110347,3.67103,15,0.00656757,10,0.000405085,-2.43521,0.207487,0.284355,40.7901,0.110347,
2,1,0,1,0,28734.6,0.112162,0.111825,3.73086,15,0.00670667,10,0.000417204,-2.42819,0.233562,0.25261,36.7549,0.111825,
2,1,0,1,0,28734.7,0.113662,0.113358,3.79423,15,0.00684831,10,0.000430106,-2.42088,0.234868,0.251205,37.0912,0.113358,
2,1,0,1,0,28734.7,0.115162,0.11487,3.84428,15,0.00699188,10,0.000441591,-2.41518,0.250331,0.235688,35.2572,0.11487,
2,1,0,1,0,28734.8,0.116658,0.116375,3.89406,15,0.00713702,10,0.000453172,-2.4096,0.256772,0.229776,34.8348,0.116375,
2,1,0,1,0,28734.8,0.118155,0.117875,3.94171,15,0.00728409,10,0.00046463,-2.40432,0.286782,0.205731,31.5799,0.117875,
2,1,0,1,0,28734.8,0.119655,0.119343,3.98699,15,0.00743331,10,0.000475818,-2.39935,0.356455,0.165519,25.7221,0.119343,
2,1,0,1,0,28734.9,0.121155,0.120847,4.01405,15,0.00758397,10,0.000485084,-2.39642,0.377234,0.156402,24.5552,0.120847,
2,1,0,1,0,28734.9,0.122651,0.12229,4.05322,15,0.00773556,10,0.000495666,-2.3922,0.378557,0.155855,24.6858,0.12229,
2,1,0,1,0,28734.9,0.124147,0.123835,4.09292,15,0.00788856,10,0.000506848,-2.38797,0.421935,0.139832,22.295,0.123835,
2,1,0,1,0,28735,0.12565,0.125336,4.12461,15,0.00804357,10,0.000516961,-2.38462,0.523443,0.112715,18.0962,0.125336,
2,1,0,1,0,28735,0.127146,0.126823,4.14332,15,0.00819877,10,0.000525467,-2.38265,0.583541,0.101107,16.3534,0.126823,
2,1,0,1,0,28735.1,0.128642,0.128308,4.17828,15,0.00835485,10,0.000536106,-2.379,0.59601,0.0989917,16.1151,0.128308,
2,1,0,1,0,28735.1,0.130142,0.129827,4.19815,15,0.00851236,10,0.000545032,-2.37694,0.571675,0.103206,16.9067,0.129827,
2,1,0,1,0,28735.1,0.131642,0.131323,4.22026,15,0.00867088,10,0.000554217,-2.37466,0.670813,0.087953,14.4764,0.131323,
2,1,0,1,0,28735.2,0.133139,0.132869,4.2428,15,0.00882979,10,0.000563736,-2.37235,0.804306,0.0733552,12.1522,0.132869,
2,1,0,1,0,28735.2,0.134635,0.134289,4.25727,15,0.00898928,10,0.000571705,-2.37087,0.996955,0.0591802,9.83916,0.134289,
2,1,0,1,0,28735.2,0.136135,0.135787,4.27776,15,0.00914993,10,0.000580865,-2.36878,1.00296,0.0588257,9.80326,0.135787,
2,1,0,1,0,28735.3,0.137635,0.137342,4.29082,15,0.00931111,10,0.000589308,-2.36746,1.9606,0.0300928,5.02431,0.1373416,
2,1,0,1,0,28735.3,0.13913,0.1388,4.29495,15,0.00947215,10,0.00059614,-2.36704,-7.88755,-0.00748014,-1.24854,0.1388,
2,1,0,1,0,28735.4,0.140626,0.140304,4.28456,15,0.00963306,10,0.000601141,-2.36809,-1.12335,-0.0525214,-8.75634,0.140304,
2,1,0,1,0,28735.4,0.14213,0.141855,4.26649,15,0.00979437,10,0.000605224,-2.36993,-0.624153,-0.0945281,-15.6875,0.141855,
2,1,0,1,0,28735.4,0.143626,0.143288,4.23423,15,0.00995396,10,0.000606715,-2.37323,-0.368252,-0.160217,-26.3789,0.143288,
2,1,0,1,0,28735.5,0.145122,0.144807,4.18537,15,0.0101121,10,0.00060607,-2.37827,-0.240857,-0.244959,-39.8778,0.1448068,
2,1,0,1,0,28735.5,0.146622,0.146326,4.10989,15,0.0102683,10,0.000601382,-2.38617,-0.180526,-0.326823,-52.3113,0.146326,
2,1,0,1,0,28735.5,0.148122,0.147823,4.02742,15,0.0104215,10,0.000595347,-2.39497,-0.145346,-0.405928,-63.5433,0.147823,
2,1,0,1,0,28735.6,0.149619,0.149286,3.92381,15,0.0105709,10,0.000585768,-2.40629,-0.119305,-0.494531,-75.4493,0.149286,
2,1,0,1,0,28735.6,0.151115,0.150798,3.80958,15,0.010716,10,0.000574478,-2.41912,-0.103141,-0.572034,-84.5486,0.150798,
2,1,0,1,0,28735.7,0.152615,0.152285,3.66844,15,0.0108568,10,0.00055865,-2.43552,-0.0931425,-0.633438,-90.468,0.152285,
2,1,0,1,0,28735.7,0.154115,0.153806,3.52911,15,0.0109923,10,0.000542801,-2.45233,-0.0859096,-0.686768,-94.4933,0.153806,
2,1,0,1,0,28735.7,0.155611,0.155304,3.38672,15,0.0111222,10,0.000525971,-2.47022,-0.0829794,-0.71102,-93.9544,0.155304,
2,1,0,1,0,28735.8,0.157106,0.156783,3.24158,15,0.0112468,10,0.000508225,-2.48924,-0.0789493,-0.747315,-94.6383,0.156783,
2,1,0,1,0,28735.8,0.15861,0.158289,3.10404,15,0.0113667,10,0.000491335,-2.50807,-0.0793685,-0.743368,-90.2239,0.158289,
2,1,0,1,0,28735.8,0.160106,0.159791,2.97375,15,0.0114809,10,0.000475179,-2.5267,-0.0831217,-0.709803,-82.5711,0.159791,
2,1,0,1,0,28735.9,0.161602,0.161282,2.85823,15,0.0115904,10,0.000460981,-2.5439,-0.0861997,-0.684457,-76.3588,0.161282,
2,1,0,1,0,28735.9,0.163102,0.162753,2.75,15,0.011696,10,0.00044757,-2.56067,-0.089008,-0.662862,-71.0954,0.162753,
2,1,0,1,0,28736,0.164602,0.164308,2.64913,15,0.0117976,10,0.000435273,-2.5769,-0.0959797,-0.614713,-63.6063,0.164308,
2,1,0,1,0,28736,0.166099,0.165755,2.55471,15,0.0118954,10,0.000423456,-2.59266,-0.103546,-0.569793,-57.0616,0.165755,
2,1,0,1,0,28736,0.167595,0.167303,2.47495,15,0.01199,10,0.000414066,-2.60643,-0.11566,-0.510117,-49.45,0.167303,
2,1,0,1,0,28736.1,0.169095,0.168753,2.40715,15,0.0120822,10,0.000406215,-2.6185,-0.126753,-0.465471,-43.9151,0.168753,
2,1,0,1,0,28736.1,0.170595,0.170264,2.3409,15,0.0121719,10,0.000398572,-2.63062,-0.132758,-0.444417,-40.795,0.170264,
2,1,0,1,0,28736.1,0.172091,0.171788,2.28696,15,0.0122591,10,0.000392873,-2.64074,-0.145362,-0.405883,-36.2934,0.171788,
2,1,0,1,0,28736.2,0.173586,0.173308,2.23983,15,0.0123442,10,0.000388182,-2.64978,-0.165768,-0.355919,-31.1128,0.173308,
2,1,0,1,0,28736.2,0.17509,0.174798,2.1967,15,0.012428,10,0.000383979,-2.65823,-0.181234,-0.325546,-27.8371,0.174798,
2,1,0,1,0,28736.3,0.176586,0.176279,2.1511,15,0.0125098,10,0.000379192,-2.66734,-0.191655,-0.307844,-25.8208,0.176279,
2,1,0,1,0,28736.3,0.178083,0.177769,2.11445,15,0.0125901,10,0.000375884,-2.6748,-0.206348,-0.285924,-23.6388,0.177769,
2,1,0,1,0,28736.3,0.179582,0.17925,2.08051,15,0.0126693,10,0.000372932,-2.68183,-0.239256,-0.246598,-20.1034,0.17925,
2,1,0,1,0,28736.4,0.181082,0.18078,2.05263,15,0.0127474,10,0.000371074,-2.68769,-0.266665,-0.221251,-17.7915,0.1807801,
2,1,0,1,0,28736.4,0.182579,0.182277,2.02687,15,0.0128243,10,0.000369452,-2.69317,-0.271001,-0.217712,-17.2471,0.182277,
2,1,0,1,0,28736.4,0.184075,0.183761,2.00459,15,0.0129003,10,0.000368364,-2.69798,-0.30725,-0.192026,-15.0389,0.183761,
2,1,0,1,0,28736.5,0.185579,0.185242,1.98906,15,0.0129758,10,0.000368457,-2.70135,-0.34546,-0.170787,-13.2248,0.185242,
2,1,0,1,0,28736.5,0.187074,0.186766,1.9648,15,0.0130502,10,0.000366957,-2.70668,-0.397325,-0.148493,-11.3742,0.186766,
2,1,0,1,0,28736.6,0.18857,0.18826,1.94552,15,0.0131239,10,0.000366265,-2.71096,-0.436172,-0.135268,-10.2765,0.18826,
2,1,0,1,0,28736.6,0.19007,0.189726,1.93084,15,0.0131972,10,0.000366331,-2.71425,-0.398727,-0.147971,-11.1503,0.189726,
2,1,0,1,0,28736.6,0.19157,0.191271,1.91362,15,0.0132699,10,0.000366019,-2.71815,-0.464204,-0.127099,-9.5181,0.191271,
2,1,0,1,0,28736.7,0.193066,0.19276,1.90203,15,0.0133419,10,0.000366635,-2.72078,-0.513328,-0.114936,-8.55051,0.1927601,
2,1,0,1,0,28736.7,0.194563,0.194218,1.89174,15,0.0134134,10,0.000367408,-2.72314,-0.563969,-0.104616,-7.73978,0.194218,
2,1,0,1,0,28736.7,0.196063,0.195753,1.88047,15,0.0134848,10,0.000368108,-2.72573,-0.520514,-0.113349,-8.32417,0.195753,
2,1,0,1,0,28736.8,0.197563,0.197222,1.86743,15,0.0135556,10,0.000368299,-2.72876,-0.642166,-0.0918765,-6.70366,0.197222,
2,1,0,1,0,28736.8,0.199059,0.198742,1.86092,15,0.0136259,10,0.000369841,-2.73027,-0.66209,-0.0891118,-6.45834,0.198742,
2,1,0,1,0,28736.9,0.200555,0.200222,1.855,15,0.0136959,10,0.000371411,-2.73166,-0.746563,-0.0790288,-5.70147,0.200222,
2,1,0,1,0,28736.9,0.202059,0.201779,1.84361,15,0.0137659,10,0.000372,-2.73433,-0.662287,-0.0890852,-6.40219,0.201779,
2,1,0,1,0,28736.9,0.203554,0.203247,1.83253,15,0.0138352,10,0.000372457,-2.73695,-0.869586,-0.0678483,-4.86619,0.203247,
2,1,0,1,0,28737,0.20505,0.204741,1.82403,15,0.0139042,10,0.000373453,-2.73897,-1.51939,-0.0388314,-2.78014,0.204741,
2,1,0,1,0,28737,0.20655,0.206214,1.81986,15,0.0139731,10,0.00037528,-2.73996,-2.05654,-0.028689,-2.04184,0.206214,
2,1,0,1,0,28737,0.20805,0.20775,1.81406,15,0.014042,10,0.000376871,-2.74135,-1.02102,-0.0577853,-4.0857,0.20775,
2,1,0,1,0,28737.1,0.209546,0.20922,1.81103,15,0.0141104,10,0.000378904,-2.74207,-0.786482,-0.0750176,-5.29419,0.20922,
2,1,0,1,0,28737.1,0.211043,0.210722,1.80343,15,0.0141783,10,0.000380024,-2.7439,-0.927164,-0.0636349,-4.47357,0.210722,
2,1,0,1,0,28737.2,0.212543,0.212212,1.79765,15,0.0142464,10,0.000381484,-2.74529,-1.50707,-0.0391488,-2.74402,0.212212,
2,1,0,1,0,28737.2,0.214043,0.213746,1.79255,15,0.0143142,10,0.000383149,-2.74653,-1.29884,-0.0454252,-3.1773,0.213746,
2,1,0,1,0,28737.2,0.215539,0.215251,1.78288,15,0.0143817,10,0.000383767,-2.74888,-0.942364,-0.0626085,-4.37511,0.215251,
2,1,0,1,0,28737.3,0.217035,0.216733,1.77764,15,0.0144489,10,0.000385273,-2.75016,-1.30781,-0.0451135,-3.14467,0.216733,
2,1,0,1,0,28737.3,0.218538,0.218225,1.77563,15,0.0145163,10,0.000387488,-2.75065,-1.99421,-0.0295856,-2.05313,0.218225,
2,1,0,1,0,28737.3,0.220034,0.219722,1.7758,15,0.0145833,10,0.000390183,-2.75061,-3.12604,-0.0188737,-1.30581,0.2197223,
2,1,0,1,0,28737.4,0.22153,0.221246,1.77148,15,0.0146501,10,0.000391932,-2.75166,-1.05247,-0.0560584,-3.86235,0.221246,
2,1,0,1,0,28737.4,0.22303,0.222728,1.76341,15,0.0147169,10,0.000392761,-2.75365,-1.34693,-0.0438034,-3.01158,0.222728,
2,1,0,1,0,28737.5,0.22453,0.224236,1.75905,15,0.0147834,10,0.000394443,-2.75472,-1.84754,-0.0319344,-2.19289,0.224236,
2,1,0,1,0,28737.5,0.226026,0.225717,1.75751,15,0.0148498,10,0.0003967,-2.7551,-2.64099,-0.0223401,-1.53205,0.225717,
2,1,0,1,0,28737.5,0.227523,0.227177,1.75194,15,0.0149159,10,0.000398002,-2.75648,-1.01917,-0.0578902,-3.96449,0.227177,
2,1,0,1,0,28737.6,0.229023,0.228746,1.74656,15,0.0149822,10,0.000399519,-2.75782,-1.77242,-0.0332878,-2.27375,0.228746,
2,1,0,1,0,28737.6,0.230523,0.230218,1.74144,15,0.0150482,10,0.00040091,-2.75909,-2.27784,-0.0259017,-1.76417,0.230218,
2,1,0,1,0,28737.6,0.232019,0.231726,1.74117,15,0.0151139,10,0.000403473,-2.75916,-2.5333,-0.0232897,-1.5815,0.231726,
2,1,0,1,0,28737.7,0.233515,0.233204,1.74242,15,0.0151796,10,0.000406339,-2.75885,-1.75508,-0.0336167,-2.27488,0.233204,
2,1,0,1,0,28737.7,0.235018,0.234689,1.73315,15,0.0152455,10,0.000406752,-2.76116,-1.78386,-0.0330744,-2.23573,0.234689,
2,1,0,1,0,28737.8,0.236514,0.236203,1.72858,15,0.0153107,10,0.000408297,-2.76231,-2.18985,-0.0269425,-1.81831,0.236203,
2,1,0,1,0,28737.8,0.23801,0.23772,1.73001,15,0.015376,10,0.000411258,-2.76195,-11.2444,-0.00524706,-0.353996,0.23772,
2,1,0,1,0,28737.8,0.23951,0.239204,1.72266,15,0.0154414,10,0.000412068,-2.7638,-2.46041,-0.0239797,-1.61534,0.239204,
2,1,0,1,0,28737.9,0.24101,0.240715,1.71897,15,0.0155066,10,0.000413781,-2.76473,-1.81964,-0.0324239,-2.18462,0.240715,
2,1,0,1,0,28737.9,0.242506,0.242182,1.71553,15,0.0155715,10,0.000415472,-2.7656,-2.00698,-0.0293974,-1.97353,0.242182,
2,1,0,1,0,28737.9,0.244003,0.243747,1.71655,15,0.0156362,10,0.000418404,-2.76534,-2.83873,-0.020784,-1.392,0.243747,
2,1,0,1,0,28738,0.245503,0.245231,1.71867,15,0.0157011,10,0.00042147,-2.76481,-1.83371,-0.0321753,-2.14761,0.245231,
2,1,0,1,0,28738,0.247003,0.246688,1.7111,15,0.0157659,10,0.000422107,-2.76673,-1.93968,-0.0304174,-2.02558,0.246688,
2,1,0,1,0,28738.1,0.248499,0.248185,1.70435,15,0.0158304,10,0.000422994,-2.76844,-1.47767,-0.0399278,-2.65937,0.248185,
2,1,0,1,0,28738.1,0.249995,0.249693,1.70399,15,0.0158947,10,0.000425475,-2.76853,-2.13381,-0.0276501,-1.8409,0.249693,
2,1,0,1,0,28738.1,0.251498,0.25121,1.70034,15,0.0159593,10,0.000427143,-2.76946,-6.2051,-0.00950831,-0.632513,0.25121,
2,1,0,1,0,28738.2,0.252994,0.252699,1.69467,15,0.0160235,10,0.000428241,-2.77092,-1.53353,-0.0384733,-2.55241,0.252699,
2,1,0,1,0,28738.2,0.25449,0.254221,1.69557,15,0.0160876,10,0.00043105,-2.77068,-1.60452,-0.0367711,-2.43645,0.254221,
2,1,0,1,0,28738.2,0.25599,0.255725,1.69276,15,0.0161516,10,0.000432882,-2.7714,-2.18994,-0.0269414,-1.78117,0.255725,
2,1,0,1,0,28738.3,0.25749,0.257208,1.69558,15,0.0162156,10,0.000436117,-2.77068,136.031,0.000433724,0.0285655,0.257208,
2,1,0,1,0,28738.3,0.258987,0.258682,1.69022,15,0.0162794,10,0.00043723,-2.77206,-2.01009,-0.0293519,-1.93156,0.2586816,
2,1,0,1,0,28738.4,0.260483,0.260168,1.68775,15,0.0163431,10,0.000439099,-2.77269,-1.51535,-0.0389348,-2.56163,0.260168,
2,1,0,1,0,28738.4,0.261983,0.261696,1.68038,15,0.0164068,10,0.000439749,-2.77459,-2.56257,-0.0230237,-1.51365,0.261696,
2,1,0,1,0,28738.4,0.263483,0.26319,1.67715,15,0.0164703,10,0.000441407,-2.77543,-4.19051,-0.0140794,-0.923169,0.26319,
2,1,0,1,0,28738.5,0.264978,0.264686,1.6758,15,0.0165337,10,0.00044356,-2.77578,-3.51192,-0.0167999,-1.10191,0.264686,
2,1,0,1,0,28738.5,0.266474,0.266158,1.67528,15,0.016597,10,0.00044589,-2.77591,-2.19464,-0.0268837,-1.75639,0.266158,
2,1,0,1,0,28738.5,0.267977,0.267685,1.67203,15,0.0166604,10,0.000447577,-2.77676,-1.89551,-0.0311261,-2.03201,0.267685,
2,1,0,1,0,28738.6,0.269474,0.269148,1.66983,15,0.0167234,10,0.000449432,-2.77733,-3.52522,-0.0167365,-1.08939,0.269148,
2,1,0,1,0,28738.6,0.27097,0.270679,1.67171,15,0.0167863,10,0.000452497,-2.77684,-1.85312,-0.0318381,-2.06769,0.270679,
2,1,0,1,0,28738.7,0.27247,0.27216,1.66418,15,0.0168494,10,0.000452924,-2.7788,-1.35912,-0.0434105,-2.8156,0.27216,
2,1,0,1,0,28738.7,0.27397,0.273636,1.65598,15,0.0169123,10,0.000453136,-2.78094,-1.2733,-0.0463362,-3.00633,0.273636,
2,1,0,1,0,28738.7,0.275467,0.275154,1.65182,15,0.0169749,10,0.000454505,-2.78204,-2.17224,-0.027161,-1.7599,0.275154,
2,1,0,1,0,28738.8,0.276963,0.27665,1.65482,15,0.0170374,10,0.000457805,-2.78125,-3.23262,-0.0182514,-1.17845,0.27665,
2,1,0,1,0,28738.8,0.278463,0.278134,1.65211,15,0.0170999,10,0.000459508,-2.78196,-1.39149,-0.0424005,-2.73285,0.278134,
2,1,0,1,0,28738.8,0.279963,0.279682,1.65324,15,0.0171624,10,0.000462382,-2.78166,-1.83171,-0.0322103,-2.07049,0.279682,
2,1,0,1,0,28738.9,0.281459,0.28117,1.64658,15,0.0172245,10,0.00046297,-2.78342,-1.65576,-0.0356332,-2.28433,0.28117,
2,1,0,1,0,28738.9,0.282954,0.282653,1.64635,15,0.0172866,10,0.000465345,-2.78348,-4.11266,-0.014346,-0.918089,0.282653,
2,1,0,1,0,28739,0.284458,0.284177,1.64244,15,0.0173489,10,0.000466743,-2.78451,-3.44117,-0.0171454,-1.09809,0.284177,
2,1,0,1,0,28739,0.285954,0.285639,1.63626,15,0.0174107,10,0.000467381,-2.78615,-1.26552,-0.046621,-2.98655,0.285639,
2,1,0,1,0,28739,0.28745,0.287152,1.62633,15,0.0174724,10,0.000467004,-2.78879,-2.50782,-0.0235264,-1.50258,0.287152,
2,1,0,1,0,28739.1,0.28895,0.288648,1.6274,15,0.0175341,10,0.000469746,-2.78851,-5.29074,-0.0111516,-0.709447,0.288648,
2,1,0,1,0,28739.1,0.29045,0.290156,1.62589,15,0.0175958,10,0.000471762,-2.78891,-1.97491,-0.0298748,-1.89744,0.290156,
2,1,0,1,0,28739.1,0.291947,0.291634,1.62762,15,0.0176572,10,0.000474669,-2.78845,-0.997455,-0.0591505,-3.74329,0.291634,
2,1,0,1,0,28739.2,0.293443,0.293133,1.62285,15,0.0177184,10,0.00047571,-2.78972,-1.11898,-0.0527265,-3.32732,0.293133,
2,1,0,1,0,28739.2,0.294943,0.294634,1.6161,15,0.0177796,10,0.000476158,-2.79153,-1.59924,-0.0368924,-2.32974,0.294634,
2,1,0,1,0,28739.3,0.296443,0.296151,1.61859,15,0.0178408,10,0.000479348,-2.79086,-2.22265,-0.0265449,-1.67167,0.296151,
2,1,0,1,0,28739.3,0.297939,0.297683,1.61135,15,0.0179018,10,0.000479672,-2.79281,-1.34333,-0.0439207,-2.76414,0.297683,
2,1,0,1,0,28739.3,0.299434,0.299115,1.6059,15,0.0179626,10,0.000480348,-2.79428,-0.0161088,-3.6626,-197.499,0.2991153,
2,1,0,0,0,28739.3,0.299962,0.299594,1.53871,15,0.0179865,10,0.000460987,-2.81284,0.000989273,59.6397,1771.6,0.299594,
2,1,0,1,0,28739.4,0.298689,0.29838,0.479461,15,0.018014,10,0.000143062,-3.31925,0.00227956,25.8822,492.347,0.29838,
2,1,0,1,0,28739.4,0.297189,0.296881,0.0307549,15,0.0180217,10,9.13056e-06,-4.51209,0.00734181,8.03616,240.389,0.296881,
2,0,0,1,0,28739.5,0.295692,0.29535,-0.170645,15,0.0180181,10,-5.04e-05,-3.76791,-0.0122131,-4.83087,111.967,0.29535,
2,0,0,1,0,28739.5,0.294196,0.29389,-0.288787,15,0.0180087,10,-8.48715e-05,-3.53942,-0.00783364,-7.53162,66.4017,0.29389,
2,0,0,1,0,28739.5,0.292696,0.292392,-0.361368,15,0.0179958,10,-0.000105661,-3.44205,-0.0167147,-3.52982,46.673,0.292392,
2,0,0,1,0,28739.6,0.291196,0.290874,-0.423199,15,0.0179804,10,-0.000123098,-3.37346,-0.025988,-2.27027,36.3184,0.290874,
2,0,0,1,0,28739.6,0.2897,0.289353,-0.470509,15,0.017963,10,-0.000136143,-3.32743,-0.0357498,-1.65036,29.8485,0.289353,
2,0,0,1,0,28739.6,0.288205,0.287924,-0.507748,15,0.017944,10,-0.000146193,-3.29435,-0.0464215,-1.27096,25.0208,0.287924,
2,0,0,1,0,28739.7,0.286701,0.286402,-0.54323,15,0.0179235,10,-0.000155582,-3.26502,-0.0563028,-1.04791,22.1513,0.286402,
2,0,0,1,0,28739.7,0.285205,0.284869,-0.577138,15,0.0179018,10,-0.000164409,-3.23872,-0.0609919,-0.967342,21.6729,0.284869,
2,0,0,1,0,28739.7,0.283708,0.283417,-0.608093,15,0.017879,10,-0.000172344,-3.21603,-0.075302,-0.783512,18.4026,0.283417,
2,0,0,1,0,28739.8,0.282208,0.281923,-0.633486,15,0.0178551,10,-0.000178594,-3.19826,-0.0912471,-0.646596,15.8026,0.281923,
2,0,0,1,0,28739.8,0.280709,0.280367,-0.660583,15,0.0178303,10,-0.000185206,-3.18007,-0.104895,-0.562469,14.3295,0.280367,
2,0,0,1,0,28739.9,0.279212,0.278915,-0.6802,15,0.0178048,10,-0.000189718,-3.16736,-0.110391,-0.534462,14.1528,0.278915,
2,0,0,1,0,28739.9,0.277716,0.277481,-0.701235,15,0.0177783,10,-0.000194579,-3.15414,-0.106127,-0.555936,15.1656,0.2774812,
2,0,0,1,0,28739.9,0.276216,0.275932,-0.720507,15,0.017751,10,-0.000198811,-3.14236,-0.126047,-0.468079,13.1619,0.2759316,
2,0,0,1,0,28740,0.274716,0.274416,-0.741041,15,0.017723,10,-0.000203354,-3.13016,-0.139943,-0.421599,12.1449,0.274416,
2,0,0,1,0,28740,0.27322,0.272912,-0.758508,15,0.0176944,10,-0.000207006,-3.12004,-0.145422,-0.405717,11.98,0.2729122,
2,0,0,1,0,28740,0.271725,0.271448,-0.776891,15,0.0176652,10,-0.000210886,-3.10964,-0.134492,-0.438687,13.209,0.271448,
2,0,0,1,0,28740.1,0.270221,0.269939,-0.792086,15,0.0176351,10,-0.000213815,-3.10123,-0.161219,-0.365962,11.2615,0.269939,
2,0,0,1,0,28740.1,0.268725,0.268437,-0.806988,15,0.0176045,10,-0.000216626,-3.09313,-0.185423,-0.318191,10.0304,0.268437,
2,0,0,1,0,28740.2,0.267228,0.266912,-0.819721,15,0.0175733,10,-0.000218794,-3.08633,-0.195375,-0.301984,9.6959,0.266912,
2,0,0,1,0,28740.2,0.265728,0.265419,-0.838703,15,0.0175415,10,-0.000222607,-3.07639,-0.178922,-0.329752,10.8328,0.265419,
2,0,0,1,0,28740.2,0.264228,0.263926,-0.849707,15,0.0175092,10,-0.00022426,-3.07073,-0.190463,-0.309771,10.315,0.263926,
2,0,0,1,0,28740.3,0.262732,0.26242,-0.867814,15,0.0174764,10,-0.000227731,-3.06157,-0.23643,-0.249545,8.40856,0.26242,
2,0,0,1,0,28740.3,0.261236,0.260957,-0.879864,15,0.0174431,10,-0.000229607,-3.05558,-0.233084,-0.253127,8.67995,0.260957,
2,0,0,1,0,28740.3,0.259736,0.259402,-0.89472,15,0.0174093,10,-0.000232093,-3.04831,-0.224716,-0.262554,9.14849,0.259402,
2,0,0,1,0,28740.4,0.258236,0.257965,-0.907723,15,0.017375,10,-0.000234161,-3.04205,-0.224014,-0.263376,9.28189,0.257965,
2,0,0,1,0,28740.4,0.256741,0.25641,-0.919975,15,0.0173402,10,-0.00023589,-3.03622,-0.261839,-0.225329,8.05062,0.25641,
2,0,0,1,0,28740.5,0.255241,0.254901,-0.92823,15,0.0173048,10,-0.000236607,-3.03234,-0.295992,-0.19933,7.24072,0.254901,
2,0,0,1,0,28740.5,0.253741,0.253468,-0.935964,15,0.0172692,10,-0.000237237,-3.02874,-0.314846,-0.187393,6.92019,0.253468,
2,0,0,1,0,28740.5,0.252245,0.25191,-0.950639,15,0.0172331,10,-0.000239476,-3.02198,-0.245477,-0.240348,8.94037,0.25191,
2,0,0,1,0,28740.6,0.250748,0.250443,-0.965934,15,0.0171966,10,-0.000241912,-3.01505,-0.283431,-0.208164,7.82895,0.250443,
2,0,0,1,0,28740.6,0.249248,0.248919,-0.978484,15,0.0171595,10,-0.000243563,-3.00945,-0.295844,-0.199429,7.57244,0.248919,
2,0,0,1,0,28740.6,0.247748,0.247453,-0.985372,15,0.0171221,10,-0.000243833,-3.0064,-0.316565,-0.186376,7.17313,0.247453,
2,0,0,1,0,28740.7,0.246252,0.245886,-1.00071,15,0.0170844,10,-0.000246061,-2.99969,-0.252981,-0.23322,9.05734,0.2458864,
2,0,0,1,0,28740.7,0.244756,0.244447,-1.00968,15,0.0170462,10,-0.000246813,-2.99582,-0.30014,-0.196575,7.73735,0.244447,
2,0,0,1,0,28740.8,0.243252,0.24295,-1.02057,15,0.0170074,10,-0.000247946,-2.99116,-0.414253,-0.142425,5.67192,0.24295,
2,0,0,1,0,28740.8,0.241756,0.241435,-1.02412,15,0.0169684,10,-0.000247259,-2.98965,-0.362174,-0.162905,6.56002,0.241435,
2,0,0,1,0,28740.8,0.240261,0.239946,-1.03615,15,0.0169291,10,-0.000248619,-2.98458,-0.352507,-0.167373,6.79101,0.239946,
2,0,0,1,0,28740.9,0.238761,0.238447,-1.04952,15,0.0168893,10,-0.000250256,-2.97901,-0.355596,-0.165919,6.799,0.2384468,
2,0,0,1,0,28740.9,0.237261,0.236922,-1.05881,15,0.0168491,10,-0.000250856,-2.97518,-0.430408,-0.137079,5.64769,0.236922,
2,0,0,1,0,28740.9,0.235765,0.235456,-1.07164,15,0.0168086,10,-0.000252323,-2.96995,-0.377405,-0.156331,6.51239,0.235456,
2,0,0,1,0,28741,0.234268,0.233967,-1.08097,15,0.0167679,10,-0.000252911,-2.96619,-0.357605,-0.164987,6.95159,0.233967,
2,0,0,1,0,28741,0.232768,0.232428,-1.08497,15,0.0167266,10,-0.000252179,-2.96458,-0.323869,-0.182173,7.73428,0.232428,
2,0,0,1,0,28741.1,0.231268,0.230952,-1.09779,15,0.0166849,10,-0.000253538,-2.95948,-0.456513,-0.129241,5.54749,0.230952,
2,0,0,1,0,28741.1,0.229772,0.229461,-1.10992,15,0.0166429,10,-0.000254683,-2.95471,-0.521381,-0.113161,4.90377,0.229461,
2,0,0,1,0,28741.1,0.228275,0.227992,-1.1153,15,0.0166007,10,-0.000254279,-2.95261,-0.421744,-0.139895,6.10646,0.227992,
2,0,0,1,0,28741.2,0.226772,0.226461,-1.12659,15,0.0165579,10,-0.000255129,-2.94823,-0.352627,-0.167316,7.34793,0.2264608,
2,0,0,1,0,28741.2,0.225276,0.224924,-1.14071,15,0.016515,10,-0.000256575,-2.94282,-0.378331,-0.155948,6.90383,0.224924,
2,0,0,1,0,28741.2,0.223781,0.223416,-1.14908,15,0.0164717,10,-0.000256723,-2.93965,-0.557404,-0.105848,4.72723,0.223416,
2,0,0,1,0,28741.3,0.222281,0.221961,-1.15307,15,0.016428,10,-0.000255936,-2.93815,-0.391309,-0.150776,6.7737,0.221961,
2,0,0,1,0,28741.3,0.220781,0.220465,-1.16316,15,0.0163839,10,-0.000256435,-2.93436,-0.371507,-0.158813,7.20718,0.220465,
2,0,0,1,0,28741.4,0.219284,0.218995,-1.1734,15,0.0163396,10,-0.000256969,-2.93055,-0.466704,-0.126418,5.78063,0.218995,
2,0,0,1,0,28741.4,0.217788,0.217465,-1.18088,15,0.0162949,10,-0.000256799,-2.9278,-0.465483,-0.12675,5.84404,0.217465,
2,0,0,1,0,28741.4,0.216288,0.215958,-1.18838,15,0.0162498,10,-0.00025664,-2.92505,-0.519451,-0.113581,5.27248,0.215958,
2,0,0,1,0,28741.5,0.214788,0.214475,-1.19989,15,0.0162044,10,-0.000257346,-2.92086,-0.499521,-0.118113,5.53053,0.214475,
2,0,0,1,0,28741.5,0.213292,0.212965,-1.21302,15,0.0161587,10,-0.000258331,-2.91613,-0.458554,-0.128665,6.05715,0.212965,
2,0,0,1,0,28741.5,0.211796,0.211516,-1.22428,15,0.0161127,10,-0.000258954,-2.91212,-0.451257,-0.130746,6.2026,0.211516,
2,0,0,1,0,28741.6,0.210293,0.209985,-1.22535,15,0.016066,10,-0.000257305,-2.91174,-0.379562,-0.155442,7.45926,0.209985,
2,0,0,1,0,28741.6,0.208797,0.208502,-1.23697,15,0.0160194,10,-0.000257912,-2.90764,-0.374829,-0.157405,7.62465,0.208502,
2,0,0,1,0,28741.7,0.207301,0.207015,-1.24074,15,0.0159723,10,-0.000256851,-2.90632,-0.418082,-0.141121,6.88533,0.2070151,
2,0,0,1,0,28741.7,0.205801,0.205481,-1.25826,15,0.0159246,10,-0.000258548,-2.90023,-0.471044,-0.125254,6.1431,0.205481,
2,0,0,1,0,28741.7,0.204301,0.203974,-1.26531,15,0.0158766,10,-0.00025809,-2.8978,-0.818052,-0.0721225,3.57152,0.203974,
2,0,0,1,0,28741.8,0.202804,0.20253,-1.27528,15,0.0158286,10,-0.000258283,-2.89439,-0.553669,-0.106562,5.29768,0.20253,
2,0,0,1,0,28741.8,0.201308,0.200958,-1.28724,15,0.0157801,10,-0.00025868,-2.89034,-0.446712,-0.132076,6.58812,0.200958,
2,0,0,1,0,28741.8,0.199808,0.199549,-1.29557,15,0.0157312,10,-0.000258529,-2.88754,-0.434792,-0.135697,6.84734,0.199549,
2,0,0,1,0,28741.9,0.198308,0.198014,-1.30322,15,0.0156819,10,-0.000258056,-2.88498,-0.46572,-0.126686,6.4379,0.198014,
2,0,0,1,0,28741.9,0.196812,0.196495,-1.30933,15,0.0156323,10,-0.000257278,-2.88295,-0.465838,-0.126653,6.48851,0.196495,
2,0,0,1,0,28742,0.195316,0.194983,-1.31958,15,0.0155824,10,-0.000257297,-2.87956,-0.403086,-0.146371,7.56421,0.194983,
2,0,0,1,0,28742,0.193813,0.193435,-1.33208,15,0.0155319,10,-0.000257671,-2.87547,-0.38141,-0.154689,8.06603,0.193435,
2,0,0,1,0,28742,0.192317,0.192012,-1.34718,15,0.0154811,10,-0.000258675,-2.87057,-0.48274,-0.122219,6.3983,0.192012,
2,0,0,1,0,28742.1,0.190821,0.190506,-1.35336,15,0.01543,10,-0.000257823,-2.86859,-0.520034,-0.113454,5.99689,0.190506,
2,0,0,1,0,28742.1,0.189321,0.189005,-1.36436,15,0.0153784,10,-0.000257871,-2.86507,-0.409673,-0.144017,7.65692,0.189005,
2,0,0,1,0,28742.1,0.187821,0.187517,-1.37594,15,0.0153264,10,-0.000258012,-2.8614,-0.440017,-0.134086,7.18837,0.187517,
2,0,0,1,0,28742.2,0.186324,0.186025,-1.38805,15,0.0152741,10,-0.000258213,-2.85759,-0.459263,-0.128467,6.9369,0.186025,
2,0,0,1,0,28742.2,0.184828,0.184502,-1.39979,15,0.0152214,10,-0.000258264,-2.85394,-0.45774,-0.128894,7.03449,0.184502,
2,0,0,1,0,28742.3,0.183328,0.182988,-1.40648,15,0.0151681,10,-0.000257369,-2.85187,-0.404813,-0.145746,8.03941,0.182988,
2,0,0,1,0,28742.3,0.181828,0.181521,-1.41899,15,0.0151144,10,-0.000257576,-2.84802,-0.359333,-0.164193,9.13548,0.181521,
2,0,0,1,0,28742.3,0.180332,0.179992,-1.43796,15,0.0150603,10,-0.000258821,-2.84225,-0.351012,-0.168085,9.42347,0.179992,
2,0,0,1,0,28742.4,0.178836,0.17853,-1.45248,15,0.0150056,10,-0.00025931,-2.83789,-0.373949,-0.157775,8.9098,0.17853,
2,0,0,1,0,28742.4,0.177333,0.177012,-1.46221,15,0.0149502,10,-0.000258828,-2.83499,-0.345409,-0.170812,9.75016,0.1770117,
2,0,0,1,0,28742.4,0.175837,0.175501,-1.48048,15,0.0148946,10,-0.000259825,-2.8296,-0.305377,-0.193204,11.1223,0.1755009,
2,0,0,1,0,28742.5,0.174341,0.173981,-1.49397,15,0.0148384,10,-0.000259923,-2.82566,-0.345893,-0.170573,9.95061,0.173981,
2,0,0,1,0,28742.5,0.172841,0.172518,-1.50952,15,0.0147814,10,-0.000260419,-2.82116,-0.31921,-0.184831,10.8868,0.172518,
2,0,0,1,0,28742.6,0.171341,0.171026,-1.51902,15,0.0147239,10,-0.000259793,-2.81844,-0.317362,-0.185908,11.109,0.171026,
2,0,0,1,0,28742.6,0.169844,0.169513,-1.54145,15,0.0146659,10,-0.000261296,-2.81207,-0.288753,-0.204327,12.3554,0.169513,
2,0,0,1,0,28742.6,0.168348,0.168013,-1.56575,15,0.0146072,10,-0.000263065,-2.80528,-0.28562,-0.206568,12.6209,0.168013,
2,0,0,1,0,28742.7,0.166848,0.166523,-1.586,15,0.0145474,10,-0.000264106,-2.7997,-0.28825,-0.204683,12.6412,0.166523,
2,0,0,1,0,28742.7,0.165348,0.165017,-1.6089,15,0.014487,10,-0.000265496,-2.79347,-0.263053,-0.22429,14.0438,0.165017,
2,0,0,1,0,28742.7,0.163852,0.163518,-1.62838,15,0.014426,10,-0.00026627,-2.78824,-0.205297,-0.287389,18.2668,0.163518,
2,0,0,1,0,28742.8,0.162357,0.162039,-1.6509,15,0.014364,10,-0.00026751,-2.78228,-0.203399,-0.290071,18.7199,0.162039,
2,0,0,1,0,28742.8,0.160853,0.160556,-1.68074,15,0.0143007,10,-0.000269853,-2.7745,-0.213488,-0.276363,18.1253,0.160556,
2,0,0,1,0,28742.9,0.159357,0.159018,-1.70587,15,0.0142366,10,-0.000271263,-2.76805,-0.203341,-0.290153,19.3914,0.159018,
2,0,0,1,0,28742.9,0.157861,0.15753,-1.73795,15,0.0141715,10,-0.00027378,-2.75996,-0.185382,-0.318261,21.6929,0.15753,
2,0,0,1,0,28742.9,0.156361,0.156065,-1.7748,15,0.014105,10,-0.000276984,-2.75085,-0.157936,-0.373568,25.9182,0.156065,
2,0,0,1,0,28743,0.154861,0.15458,-1.8174,15,0.014037,10,-0.000280933,-2.74055,-0.153404,-0.384605,27.2395,0.15458,
2,0,0,1,0,28743,0.153364,0.153042,-1.85992,15,0.0139676,10,-0.000284645,-2.73051,-0.153346,-0.38475,27.8859,0.153042,
2,0,0,1,0,28743,0.151868,0.15154,-1.89908,15,0.0138968,10,-0.000287786,-2.72146,-0.134963,-0.437158,32.5109,0.15154,
2,0,0,1,0,28743.1,0.150368,0.150056,-1.95101,15,0.0138239,10,-0.000292761,-2.70974,-0.12376,-0.47673,36.366,0.150056,
2,0,0,1,0,28743.1,0.148868,0.148529,-2.00681,15,0.013749,10,-0.00029807,-2.69749,-0.11377,-0.518592,40.8185,0.148529,
2,0,0,1,0,28743.2,0.147372,0.147068,-2.06928,15,0.013672,10,-0.000304324,-2.68418,-0.108731,-0.542625,43.9677,0.147068,
2,0,0,1,0,28743.2,0.145877,0.145583,-2.13998,15,0.0135926,10,-0.000311543,-2.66959,-0.0991328,-0.595161,49.9267,0.145583,
2,0,0,1,0,28743.2,0.144373,0.144058,-2.21958,15,0.01351,10,-0.000319749,-2.65373,-0.0948775,-0.621855,54.0108,0.144058,
2,0,0,1,0,28743.3,0.142877,0.142563,-2.30909,15,0.0134247,10,-0.000329192,-2.63656,-0.0892259,-0.661243,59.504,0.142563,
2,0,0,1,0,28743.3,0.14138,0.141032,-2.39952,15,0.0133361,10,-0.000338409,-2.61988,-0.0886118,-0.665825,62.1679,0.141032,
2,0,0,1,0,28743.3,0.13988,0.139556,-2.49696,15,0.0132437,10,-0.000348467,-2.60259,-0.0852522,-0.692064,67.4469,0.139556,
2,0,0,1,0,28743.4,0.13838,0.138065,-2.5978,15,0.0131476,10,-0.000358665,-2.58539,-0.0830142,-0.710722,72.1965,0.138065,
2,0,0,1,0,28743.4,0.136884,0.13653,-2.70795,15,0.0130477,10,-0.000369718,-2.56736,-0.083113,-0.709877,75.1073,0.1365304,
2,0,0,1,0,28743.5,0.135388,0.135064,-2.82037,15,0.0129436,10,-0.00038093,-2.54969,-0.0858073,-0.687587,75.7321,0.135064,
2,0,0,1,0,28743.5,0.133888,0.133546,-2.93862,15,0.0128349,10,-0.000392441,-2.53186,-0.0874645,-0.67456,77.2996,0.1335461,
2,0,0,1,0,28743.5,0.132389,0.13204,-3.04688,15,0.012722,10,-0.00040231,-2.51615,-0.091531,-0.64459,76.7489,0.13204,
2,0,0,1,0,28743.6,0.130893,0.130593,-3.17409,15,0.0126049,10,-0.000414513,-2.49838,-0.0948824,-0.621822,76.6926,0.130593,
2,0,0,1,0,28743.6,0.129393,0.129049,-3.28613,15,0.0124832,10,-0.000424071,-2.48331,-0.101787,-0.579642,74.0836,0.129049,
2,0,0,1,0,28743.6,0.127893,0.127602,-3.39229,15,0.0123574,10,-0.000432864,-2.46951,-0.108359,-0.544486,71.943,0.127602,
2,0,0,1,0,28743.7,0.126397,0.126083,-3.49411,15,0.0122279,10,-0.000440549,-2.45666,-0.114928,-0.513364,69.9453,0.126083,
2,0,0,1,0,28743.7,0.1249,0.12458,-3.59637,15,0.0120945,10,-0.000448038,-2.44414,-0.123368,-0.478243,67.1598,0.12458,
2,0,0,1,0,28743.8,0.1234,0.123111,-3.69578,15,0.011957,10,-0.000454992,-2.43229,-0.137098,-0.430348,62.0268,0.123111,
2,0,0,1,0,28743.8,0.1219,0.121601,-3.78453,15,0.0118159,10,-0.000460204,-2.42199,-0.155932,-0.378371,55.8383,0.121601,
2,0,0,1,0,28743.8,0.120404,0.120129,-3.86572,15,0.011672,10,-0.000464386,-2.41277,-0.165485,-0.356528,53.7533,0.120129,
2,0,0,1,0,28743.9,0.118908,0.118606,-3.94644,15,0.0115253,10,-0.000468072,-2.40379,-0.179823,-0.328101,50.456,0.118606,
2,0,0,1,0,28743.9,0.117404,0.117052,-4.02205,15,0.0113749,10,-0.000470789,-2.39555,-0.202164,-0.291843,45.6459,0.117052,
2,0,0,1,0,28743.9,0.115909,0.11559,-4.08285,15,0.0112227,10,-0.000471937,-2.38904,-0.239625,-0.246218,39.1114,0.11559,
2,0,0,1,0,28744,0.114413,0.114094,-4.13581,15,0.0110683,10,-0.000471871,-2.38344,-0.282307,-0.208993,33.6956,0.114094,
2,0,0,1,0,28744,0.112913,0.112555,-4.1786,15,0.0109118,10,-0.000470324,-2.37897,-0.320573,-0.184045,30.0229,0.112555,
2,0,0,1,0,28744.1,0.111413,0.11105,-4.21941,15,0.0107535,10,-0.000468564,-2.37475,-0.385231,-0.153155,25.2203,0.11105,
2,0,0,1,0,28744.1,0.109917,0.10959,-4.2572,15,0.0105942,10,-0.000466547,-2.37088,-0.480909,-0.122684,20.351,0.1095902,
2,0,0,1,0,28744.1,0.10842,0.108106,-4.28662,15,0.0104337,10,-0.000463408,-2.36789,-0.711524,-0.0829205,13.8361,0.108106,
2,0,0,1,0,28744.2,0.10692,0.106599,-4.30418,15,0.0102722,10,-0.000458823,-2.36611,-1.00298,-0.0588246,9.85868,0.106599,
2,0,0,1,0,28744.2,0.10542,0.105102,-4.31598,15,0.01011,10,-0.000453621,-2.36492,-1.66189,-0.0355018,5.96204,0.105102,
2,0,0,1,0,28744.2,0.103924,0.103605,-4.31937,15,0.00994799,10,-0.00044751,-2.36458,-14.2178,-0.00414972,0.698129,0.103605,
2,0,0,1,0,28744.3,0.102427,0.102138,-4.31129,15,0.00978592,10,-0.000440348,-2.36539,1.67455,0.0352333,-5.92394,0.102138,
2,0,0,1,0,28744.3,0.100924,0.100627,-4.29687,15,0.00962334,10,-0.000432383,-2.36685,1.05826,0.0557521,-9.36221,0.1006275,
2,0,0,1,0,28744.4,0.0994284,0.0991179,-4.2841,15,0.00946216,10,-0.000424631,-2.36814,0.834011,0.0707424,-11.8284,0.0991179,
2,0,0,1,0,28744.4,0.0979329,0.0976304,-4.26519,15,0.0093016,10,-0.000416413,-2.37006,0.676504,0.0872131,-14.5053,0.0976304,
2,0,0,1,0,28744.4,0.0964329,0.0960713,-4.24506,15,0.00914142,10,-0.000407829,-2.37212,0.51293,0.115025,-18.9952,0.0960713,
2,0,0,1,0,28744.5,0.094933,0.0946177,-4.20729,15,0.00898233,10,-0.000398084,-2.376,0.425563,0.13864,-22.7451,0.0946177,
2,0,0,1,0,28744.5,0.0934366,0.0931345,-4.17626,15,0.00882499,10,-0.000388954,-2.37921,0.458001,0.128821,-20.9876,0.0931345,
2,0,0,1,0,28744.5,0.0919401,0.0915885,-4.14542,15,0.00866878,10,-0.000379672,-2.38243,0.442961,0.133194,-21.5306,0.09158846,
2,0,0,1,0,28744.6,0.0904402,0.0901321,-4.11026,15,0.00851332,10,-0.000370467,-2.38613,0.37201,0.158598,-25.4165,0.09013214,
2,0,0,1,0,28744.6,0.0889402,0.0886177,-4.07191,15,0.00835917,10,-0.000360843,-2.3902,0.39392,0.149777,-23.8444,0.0886177,
2,0,0,1,0,28744.7,0.0874438,0.0871525,-4.03801,15,0.00820695,10,-0.000351923,-2.39383,0.415396,0.142033,-22.412,0.0871525,
2,0,0,1,0,28744.7,0.0859483,0.0856356,-4.0063,15,0.00805588,10,-0.000343082,-2.39726,0.455425,0.129549,-20.2536,0.08563561,
2,0,0,1,0,28744.7,0.0844447,0.0841231,-3.97328,15,0.0079052,10,-0.000334245,-2.40085,0.485242,0.121589,-18.8637,0.0841231,
2,0,0,1,0,28744.8,0.0829492,0.0826616,-3.95052,15,0.00775648,10,-0.000326556,-2.40335,0.464571,0.126999,-19.5495,0.0826616,
2,0,0,1,0,28744.8,0.0814528,0.0811201,-3.91805,15,0.00760886,10,-0.000317833,-2.40693,0.516546,0.11422,-17.4652,0.0811201,
2,0,0,1,0,28744.8,0.0799528,0.0796378,-3.89026,15,0.00746185,10,-0.000309812,-2.41002,0.567939,0.103884,-15.7801,0.0796378,
2,0,0,1,0,28744.9,0.0784529,0.0781164,-3.86888,15,0.0073157,10,-0.000302223,-2.41242,0.620435,0.0950945,-14.3695,0.0781164,
2,0,0,1,0,28744.9,0.0769565,0.0766187,-3.84372,15,0.00717077,10,-0.000294501,-2.41525,0.572797,0.103003,-15.4672,0.0766187,
2,0,0,1,0,28745,0.0754601,0.0751819,-3.81934,15,0.00702669,10,-0.000287145,-2.41801,0.644219,0.0915838,-13.6843,0.0751819,
2,0,0,1,0,28745,0.0739601,0.0736439,-3.80352,15,0.00688308,10,-0.000280106,-2.41981,0.657569,0.0897245,-13.3293,0.0736439,
2,0,0,1,0,28745,0.0724601,0.0721492,-3.78788,15,0.0067401,10,-0.000273293,-2.4216,0.707333,0.0834119,-12.3158,0.0721492,
2,0,0,1,0,28745.1,0.0709637,0.0706268,-3.77121,15,0.00659817,10,-0.000266348,-2.42352,0.614638,0.0959915,-14.0935,0.0706268,
2,0,0,1,0,28745.1,0.0694682,0.0691469,-3.74611,15,0.00645701,10,-0.000259032,-2.42642,0.668948,0.0881982,-12.8907,0.0691469,
2,0,0,1,0,28745.1,0.0679646,0.0676254,-3.72524,15,0.00631591,10,-0.000251921,-2.42885,0.745699,0.0791204,-11.5231,0.0676254,
2,0,0,1,0,28745.2,0.0664691,0.0661224,-3.70669,15,0.00617616,10,-0.000245095,-2.43101,0.74447,0.079251,-11.4793,0.0661224,
2,0,0,1,0,28745.2,0.0649727,0.0646324,-3.69025,15,0.00603694,10,-0.000238509,-2.43294,0.686563,0.0859352,-12.3993,0.0646324,
2,0,0,1,0,28745.3,0.0634727,0.0631509,-3.67257,15,0.00589813,10,-0.000231926,-2.43503,0.604355,0.0976247,-14.0066,0.06315089,
2,0,0,1,0,28745.3,0.0619728,0.0616647,-3.65479,15,0.00576011,10,-0.000225371,-2.43714,0.602628,0.0979045,-13.9632,0.06166466,
2,0,0,1,0,28745.3,0.0604764,0.0601569,-3.63734,15,0.00562316,10,-0.000218811,-2.43922,0.725219,0.0813548,-11.5317,0.06015693,
2,0,0,1,0,28745.4,0.05898,0.0586509,-3.62407,15,0.00548688,10,-0.000212555,-2.4408,0.654795,0.0901046,-12.7105,0.0586509,
2,0,0,1,0,28745.4,0.05748,0.0571484,-3.60265,15,0.00535092,10,-0.000205886,-2.44338,0.591112,0.0998118,-14.0105,0.0571484,
2,0,0,1,0,28745.4,0.05598,0.0556973,-3.57722,15,0.0052158,10,-0.000199242,-2.44645,0.658365,0.089616,-12.5121,0.0556973,
2,0,0,1,0,28745.5,0.0544836,0.0541662,-3.55419,15,0.00508179,10,-0.000192517,-2.44926,0.782153,0.0754328,-10.4789,0.0541662,
2,0,0,1,0,28745.5,0.0529881,0.0526491,-3.53635,15,0.0049484,10,-0.000186186,-2.45145,0.675452,0.087349,-12.0683,0.0526491,
2,0,0,1,0,28745.6,0.0514846,0.0511574,-3.51594,15,0.00481502,10,-0.000179867,-2.45396,0.530425,0.111232,-15.2714,0.05115743,
2,0,0,1,0,28745.6,0.049989,0.0496661,-3.49341,15,0.00468319,10,-0.000173504,-2.45675,0.514671,0.114636,-15.6392,0.0496661,
2,0,0,1,0,28745.6,0.0484926,0.0481667,-3.47192,15,0.00455224,10,-0.000167231,-2.45943,0.544009,0.108454,-14.6935,0.0481667,
2,0,0,1,0,28745.7,0.0469927,0.0466673,-3.4616,15,0.00442171,10,-0.000161543,-2.46072,0.563038,0.104789,-14.1081,0.0466673,
2,0,0,1,0,28745.7,0.0454927,0.0451749,-3.43324,15,0.00429194,10,-0.000155096,-2.4643,0.457297,0.129019,-17.2539,0.0451749,
2,0,0,1,0,28745.7,0.0439963,0.0436225,-3.40723,15,0.00416336,10,-0.000148632,-2.4676,0.526534,0.112054,-14.9053,0.0436225,
2,0,0,1,0,28745.8,0.0424999,0.0421561,-3.38365,15,0.00403573,10,-0.000142641,-2.47061,0.520953,0.113254,-14.9789,0.0421561,
2,0,0,1,0,28745.8,0.0409999,0.0406346,-3.36149,15,0.00390857,10,-0.000136593,-2.47347,0.540191,0.109221,-14.3511,0.0406346,
2,0,0,1,0,28745.9,0.0394999,0.039166,-3.34375,15,0.00378214,10,-0.000130961,-2.47577,0.501064,0.117749,-15.349,0.039166,
2,0,0,1,0,28745.9,0.0380044,0.0376729,-3.31803,15,0.0036569,10,-0.000125,-2.47912,0.454708,0.129754,-16.7972,0.0376729,
2,0,0,1,0,28745.9,0.0365089,0.0361966,-3.29305,15,0.00353269,10,-0.000119197,-2.4824,0.430453,0.137065,-17.6029,0.0361966,
2,0,0,1,0,28746,0.0350054,0.0346542,-3.26832,15,0.00340876,10,-0.000113261,-2.48568,0.433354,0.136147,-17.3349,0.03465423,
2,0,0,1,0,28746,0.033509,0.0332125,-3.24402,15,0.00328639,10,-0.000107742,-2.48892,0.450319,0.131018,-16.5549,0.0332125,
2,0,0,1,0,28746,0.0320125,0.0317231,-3.21655,15,0.00316501,10,-0.000102039,-2.49261,0.433636,0.136059,-17.0823,0.0317231,
2,0,0,1,0,28746.1,0.0305126,0.0301935,-3.18464,15,0.00304434,10,-9.61551e-05,-2.49694,0.438376,0.134588,-16.7551,0.0301935,
2,0,0,1,0,28746.1,0.0290126,0.0286983,-3.15918,15,0.00292465,10,-9.06631e-05,-2.50043,0.451201,0.130762,-16.1505,0.0286983,
2,0,0,1,0,28746.2,0.0275162,0.0271868,-3.13614,15,0.00280625,10,-8.52617e-05,-2.5036,0.397637,0.148377,-18.1621,0.0271868,
2,0,0,1,0,28746.2,0.0260198,0.0257036,-3.11237,15,0.00268872,10,-7.99993e-05,-2.50691,0.431632,0.13669,-16.5789,0.0257036,
2,0,0,1,0,28746.2,0.0245198,0.0242136,-3.08357,15,0.00257192,10,-7.46643e-05,-2.51095,0.387857,0.152118,-18.3091,0.0242136,
2,0,0,1,0,28746.3,0.0230198,0.0227374,-3.06307,15,0.00245618,10,-6.96463e-05,-2.51384,0.423508,0.139313,-16.6231,0.0227374,
2,0,0,1,0,28746.3,0.0215243,0.0212074,-3.03665,15,0.00234161,10,-6.43994e-05,-2.51761,0.468824,0.125847,-14.8928,0.0212074,
2,0,0,1,0,28746.3,0.0200288,0.0197262,-3.01093,15,0.00222792,10,-5.93942e-05,-2.5213,0.426169,0.138443,-16.2579,0.0197262,
2,0,0,1,0,28746.4,0.0185253,0.0181761,-2.98773,15,0.0021145,10,-5.43052e-05,-2.52466,0.480383,0.122819,-14.3289,0.0181761,
2,0,0,1,0,28746.4,0.0170289,0.0166764,-2.95671,15,0.00200266,10,-4.93072e-05,-2.52919,0.43691,0.135039,-15.6662,0.0166764,
2,0,0,1,0,28746.5,0.0155325,0.0152204,-2.94159,15,0.00189156,10,-4.47722e-05,-2.53142,0.559967,0.105363,-12.1179,0.0152204,
2,0,0,1,0,28746.5,0.0140325,0.0136898,-2.92809,15,0.00178081,10,-4.0085e-05,-2.53342,0.547782,0.107707,-12.2905,0.0136898,
2,0,0,1,0,28746.5,0.0125325,0.0122154,-2.90689,15,0.00167079,10,-3.55087e-05,-2.53657,0.469816,0.125581,-14.2299,0.0122154,
2,0,0,1,0,28746.6,0.0110361,0.0107027,-2.88857,15,0.00156185,10,-3.09155e-05,-2.53932,0.568404,0.103799,-11.6976,0.0107027,
2,0,0,1,0,28746.6,0.0095397,0.00921271,-2.86887,15,0.00145359,10,-2.64301e-05,-2.54229,0.693803,0.0850386,-9.52659,0.00921271,
2,0,0,1,0,28746.6,0.00803616,0.00768283,-2.85943,15,0.00134528,10,-2.19685e-05,-2.54372,0.773417,0.0762848,-8.50981,0.00768283,
2,0,0,1,0,28746.7,0.00654064,0.00619436,-2.84266,15,0.00123808,10,-1.76085e-05,-2.54627,0.688666,0.0856728,-9.51017,0.00619436,
2,0,0,1,0,28746.7,0.00504513,0.00471833,-2.82478,15,0.00113139,10,-1.33283e-05,-2.54901,0.927598,0.0636051,-7.03469,0.00471833,
2,0,0,1,0,28746.8,0.00354515,0.00322693,-2.8172,15,0.00102492,10,-9.09091e-06,-2.55018,-70.3078,-0.000839167,0.0927961,0.00322693,
2,0,0,1,0,28746.8,0.00204518,0.00163948,-2.8454,15,0.000918514,10,-4.66497e-06,-2.54586,2.28377,0.0258345,-2.83873,0.00163948,
2,0,0,1,0,28746.8,0.000548773,0.00015612,-2.81785,15,0.000812104,10,-4.39923e-07,-2.55008, , , ,0.00015612,
2,0,0,1,0,28746.8,0.000177222,-0.00022836,-2.80985,15,0.000785759,10,6.41658e-07,-2.55132, , , ,-0.00022836,