File: Figure_codes/Fig_3-5/rawdata_trumpetplot_data/after 10th/20221101_1-115_003_TrumpetPlot_ParaChange_from10_every3_07_CV_C01_31.csv
mode,ox/red,error,control changes,counter inc.,time/s,control/V,Ewe/V,<I>/mA,cycle number,(Q-Qo)/C,I Range,P/W,log(|I|),Tafel slope mV/dec,alpha_eff,dI/d(E-IR),E-IR/V,
2,0,0,0,0,62239.1,2.44065e-05,-0.00042076,-2.70204,32,0.0000000E+000,10,1.13691e-06,-2.56831, , , ,-0.00042076,
2,0,0,1,0,62239.1,0.0013005,0.000944234,-1.53251,32,-4.24157e-05,10,-1.44705e-06,-2.8146, , , ,0.0009442342,
2,0,0,1,0,62239.1,0.00279471,0.00246762,-0.687238,32,-6.90431e-05,10,-1.69584e-06,-3.16289,-0.00253367,-23.2864,474.713,0.00246762,
2,0,0,1,0,62239.1,0.00429425,0.00395797,-0.11003,32,-7.82753e-05,10,-4.35497e-07,-3.95849,-0.012572,-4.69296,345.332,0.00395797,
2,1,0,1,0,62239.2,0.00579379,0.00545736,0.321607,32,-7.49451e-05,10,1.75513e-06,-3.49267,0.00922483,6.39578,265.459,0.00545736,
2,1,0,1,0,62239.2,0.007288,0.00695825,0.660781,32,-6.20901e-05,10,4.59788e-06,-3.17994,0.00553489,10.6596,208.596,0.00695825,
2,1,0,1,0,62239.2,0.00878882,0.00845183,0.941953,32,-4.15369e-05,10,7.96123e-06,-3.02597,0.0120372,4.90145,162.614,0.00845183,
2,1,0,1,0,62239.2,0.0102896,0.00994692,1.16478,32,-1.48344e-05,10,1.15859e-05,-2.93376,0.0184405,3.19948,137.58,0.00994692,
2,1,0,1,0,62239.3,0.0117838,0.011417,1.34016,32,1.67859e-05,10,1.53005e-05,-2.87284,0.0260868,2.26168,115.029,0.011417,
2,1,0,1,0,62239.3,0.0132834,0.0129411,1.49828,32,5.26874e-05,10,1.93894e-05,-2.82441,0.0351454,1.67874,96.5571,0.0129411,
2,1,0,1,0,62239.3,0.0147816,0.0144467,1.63152,32,9.2204e-05,10,2.35701e-05,-2.78741,0.0445631,1.32397,83.1496,0.0144467,
2,1,0,1,0,62239.3,0.0162811,0.0159105,1.748,32,0.000134859,10,2.78115e-05,-2.75746,0.0535871,1.10101,74.3109,0.0159105,
2,1,0,1,0,62239.4,0.0177753,0.0174158,1.84759,32,0.000180056,10,3.21774e-05,-2.73339,0.0645577,0.913911,65.5327,0.0174158,
2,1,0,1,0,62239.4,0.0192761,0.0189667,1.93507,32,0.000227776,10,3.67018e-05,-2.7133,0.0804197,0.733651,55.2674,0.01896668,
2,1,0,1,0,62239.4,0.020777,0.0204236,2.0242,32,0.00027764,10,4.13414e-05,-2.69375,0.0882549,0.668518,52.4151,0.0204236,
2,1,0,1,0,62239.4,0.0222712,0.02194,2.09816,32,0.000329246,10,4.60336e-05,-2.67816,0.0981818,0.600926,48.9563,0.02194003,
2,1,0,1,0,62239.5,0.0237707,0.0234025,2.16578,32,0.000382905,10,5.06848e-05,-2.66439,0.109681,0.537922,45.349,0.0234025,
2,1,0,1,0,62239.5,0.0252703,0.0249287,2.227,32,0.000438212,10,5.55163e-05,-2.65228,0.121089,0.487243,42.3943,0.0249287,
2,1,0,1,0,62239.5,0.0267645,0.0264333,2.28992,32,0.000494875,10,6.05302e-05,-2.64018,0.130606,0.45174,40.4051,0.0264333,
2,1,0,1,0,62239.5,0.0282653,0.0279184,2.35421,32,0.000553308,10,6.57258e-05,-2.62815,0.138679,0.425443,38.9774,0.0279184,
2,1,0,1,0,62239.6,0.0297648,0.0293733,2.40702,32,0.000613193,10,7.07022e-05,-2.61852,0.151777,0.388727,36.5005,0.0293733,
2,1,0,1,0,62239.6,0.031259,0.0308953,2.45762,32,0.000674181,10,7.5929e-05,-2.60949,0.159971,0.368816,35.3946,0.0308953,
2,1,0,1,0,62239.6,0.0327585,0.0323723,2.51238,32,0.000736692,10,8.13315e-05,-2.59991,0.174531,0.338049,33.1055,0.0323723,
2,1,0,1,0,62239.6,0.034258,0.0339307,2.56818,32,0.000800539,10,8.71402e-05,-2.59037,0.167356,0.352543,35.2554,0.0339307,
2,1,0,1,0,62239.7,0.0357576,0.0354345,2.61671,32,0.000865665,10,9.27219e-05,-2.58224,0.180642,0.326613,33.3202,0.0354345,
2,1,0,1,0,62239.7,0.0372518,0.0369075,2.65641,32,0.00093178,10,9.80416e-05,-2.5757,0.18396,0.320721,33.3978,0.0369075,
2,1,0,1,0,62239.7,0.0387526,0.0384028,2.71287,32,0.000999317,10,0.000104182,-2.56657,0.198338,0.297472,31.505,0.03840284,
2,1,0,1,0,62239.7,0.0402534,0.0398989,2.76913,32,0.00106814,10,0.000110485,-2.55766,0.189183,0.311868,33.5865,0.0398989,
2,1,0,1,0,62239.8,0.0417476,0.041422,2.81178,32,0.00113793,10,0.000116469,-2.55102,0.194462,0.303401,33.2677,0.041422,
2,1,0,1,0,62239.8,0.0432472,0.0429456,2.85819,32,0.00120922,10,0.000122747,-2.54391,0.214627,0.274895,30.6823,0.0429456,
2,1,0,1,0,62239.8,0.0447467,0.0444375,2.90425,32,0.00128159,10,0.000129058,-2.53697,0.234419,0.251686,28.5329,0.0444375,
2,1,0,1,0,62239.8,0.0462463,0.0459088,2.95392,32,0.00135514,10,0.000135611,-2.5296,0.214076,0.275603,31.7232,0.0459088,
2,1,0,1,0,62239.9,0.0477391,0.0473849,2.99401,32,0.00142955,10,0.000141871,-2.52375,0.217691,0.271027,31.6955,0.0473849,
2,1,0,1,0,62239.9,0.0492399,0.0489252,3.04016,32,0.00150537,10,0.000148741,-2.5171,0.249249,0.236711,28.0863,0.0489252,
2,1,0,1,0,62239.9,0.0507408,0.0504452,3.08141,32,0.00158231,10,0.000155442,-2.51125,0.24461,0.2412,29.0482,0.0504452,
2,1,0,1,0,62239.9,0.052235,0.0518622,3.13308,32,0.00166001,10,0.000162489,-2.50403,0.231632,0.254715,31.1104,0.05186224,
2,1,0,1,0,62240,0.0537345,0.0534225,3.17886,32,0.00173919,10,0.000169823,-2.49773,0.236572,0.249396,30.8985,0.0534225,
2,1,0,1,0,62240,0.0552341,0.0549554,3.21828,32,0.00181952,10,0.000176862,-2.49238,0.254964,0.231405,29.061,0.0549554,
2,1,0,1,0,62240,0.0567283,0.0564165,3.25809,32,0.00190057,10,0.00018381,-2.48704,0.270209,0.218349,27.7735,0.0564165,
2,1,0,1,0,62240,0.0582291,0.0578983,3.30394,32,0.00198293,10,0.000191293,-2.48097,0.266956,0.22101,28.4832,0.0578983,
2,1,0,1,0,62240.1,0.0597299,0.0593999,3.34922,32,0.00206641,10,0.000198943,-2.47506,0.260449,0.226532,29.5598,0.0593999,
2,1,0,1,0,62240.1,0.0612228,0.0608892,3.38352,32,0.00215061,10,0.00020602,-2.47063,0.296706,0.19885,26.2805,0.0608892,
2,1,0,1,0,62240.1,0.0627223,0.0623897,3.42844,32,0.00223616,10,0.000213899,-2.4649,0.31651,0.186408,24.9301,0.0623897,
2,1,0,1,0,62240.1,0.0642218,0.06388,3.46827,32,0.00232262,10,0.000221553,-2.45989,0.298934,0.197368,26.6939,0.06388,
2,1,0,1,0,62240.2,0.0657214,0.0653766,3.50612,32,0.00241008,10,0.000229218,-2.45517,0.27495,0.214584,29.3492,0.0653766,
2,1,0,1,0,62240.2,0.0672156,0.0668439,3.54157,32,0.00249824,10,0.000236733,-2.4508,0.313292,0.188323,26.045,0.0668439,
2,1,0,1,0,62240.2,0.0687164,0.0684016,3.58637,32,0.00258774,10,0.000245313,-2.44535,0.359375,0.164174,22.9367,0.0684016,
2,1,0,1,0,62240.2,0.0702172,0.0698668,3.61988,32,0.00267809,10,0.000252909,-2.44131,0.359463,0.164134,23.1627,0.0698668,
2,1,0,1,0,62240.3,0.0717114,0.0713592,3.65373,32,0.00276897,10,0.000260727,-2.43726,0.328862,0.179407,25.5793,0.0713592,
2,1,0,1,0,62240.3,0.073211,0.0728756,3.69159,32,0.00286113,10,0.000269027,-2.43279,0.381294,0.154736,22.2918,0.0728756,
2,1,0,1,0,62240.3,0.0747105,0.0743922,3.72543,32,0.00295419,10,0.000277143,-2.42882,0.415626,0.141954,20.6264,0.0743922,
2,1,0,1,0,62240.3,0.0762101,0.0758738,3.75536,32,0.00304806,10,0.000284934,-2.42535,0.426086,0.13847,20.2927,0.0758738,
2,1,0,1,0,62240.4,0.0777042,0.0773236,3.78469,32,0.00314231,10,0.000292646,-2.42197,0.385267,0.153141,22.6368,0.0773236,
2,1,0,1,0,62240.4,0.0792037,0.0788702,3.82229,32,0.00323777,10,0.000301465,-2.41768,0.41358,0.142657,21.2617,0.0788702,
2,1,0,1,0,62240.4,0.0807046,0.0803246,3.8527,32,0.00333405,10,0.000309467,-2.41423,0.472513,0.124864,18.75,0.08032462,
2,1,0,1,0,62240.4,0.0821988,0.0818402,3.88069,32,0.00343068,10,0.000317596,-2.41109,0.498672,0.118314,17.9051,0.0818402,
2,1,0,1,0,62240.5,0.0836983,0.0833728,3.9065,32,0.00352833,10,0.000325696,-2.40821,0.469333,0.12571,19.1828,0.0833728,
2,1,0,1,0,62240.5,0.0851979,0.084874,3.93055,32,0.00362672,10,0.000333601,-2.40555,0.468492,0.125936,19.3525,0.084874,
2,1,0,1,0,62240.5,0.0866921,0.0863432,3.96502,32,0.00372546,10,0.000342352,-2.40175,0.571219,0.103288,15.9854,0.0863432,
2,1,0,1,0,62240.5,0.0881929,0.0878267,3.99289,32,0.00382528,10,0.000350683,-2.39871,0.499772,0.118054,18.3833,0.0878267,
2,1,0,1,0,62240.6,0.0896937,0.0893316,4.02219,32,0.00392572,10,0.000359309,-2.39554,0.456461,0.129255,20.286,0.0893316,
2,1,0,1,0,62240.6,0.0911879,0.0908396,4.04672,32,0.00402649,10,0.000367602,-2.3929,0.442365,0.133374,21.0777,0.0908396,
2,1,0,1,0,62240.6,0.0926861,0.0923797,4.08023,32,0.00412846,10,0.000376931,-2.38931,0.433865,0.135987,21.6413,0.0923797,
2,1,0,1,0,62240.6,0.0941856,0.0938714,4.11474,32,0.00423122,10,0.000386256,-2.38566,0.439505,0.134242,21.544,0.0938714,
2,1,0,1,0,62240.7,0.0956852,0.0953145,4.1433,32,0.00433474,10,0.000394917,-2.38265,0.402357,0.146636,23.7295,0.0953145,
2,1,0,1,0,62240.7,0.0971794,0.0968459,4.17366,32,0.00443867,10,0.000404202,-2.37948,0.366716,0.160887,26.2514,0.0968459,
2,1,0,1,0,62240.7,0.0986802,0.0983672,4.21998,32,0.00454398,10,0.000415107,-2.37469,0.376576,0.156675,25.7922,0.0983672,
2,1,0,1,0,62240.7,0.100181,0.0998369,4.26416,32,0.00465032,10,0.000425721,-2.37017,0.3365,0.175334,29.1372,0.0998369,
2,1,0,1,0,62240.8,0.101675,0.101345,4.30489,32,0.00475735,10,0.00043628,-2.36604,0.299417,0.19705,33.1381,0.101345,
2,1,0,1,0,62240.8,0.103175,0.102833,4.35185,32,0.00486595,10,0.000447512,-2.36133,0.285677,0.206527,35.1621,0.102833,
2,1,0,1,0,62240.8,0.104674,0.10434,4.41523,32,0.00497591,10,0.000460684,-2.35505,0.269558,0.218876,37.6885,0.1043397,
2,1,0,1,0,62240.8,0.106169,0.105839,4.47648,32,0.0050869,10,0.000473784,-2.34906,0.270908,0.217786,37.9776,0.105839,
2,1,0,1,0,62240.9,0.107668,0.107354,4.53022,32,0.00519978,10,0.000486338,-2.34388,0.250274,0.235742,41.6947,0.107354,
2,1,0,1,0,62240.9,0.109169,0.1088,4.58968,32,0.00531413,10,0.000499356,-2.33822,0.248,0.237904,42.7046,0.1088,
2,1,0,1,0,62240.9,0.110663,0.110301,4.65471,32,0.00542964,10,0.000513421,-2.33211,0.250073,0.235931,42.8926,0.110301,
2,1,0,1,0,62240.9,0.112163,0.111816,4.72826,32,0.0055473,10,0.000528694,-2.3253,0.246891,0.238972,44.0471,0.111816,
2,1,0,1,0,62241,0.113662,0.113295,4.79445,32,0.00566664,10,0.000543187,-2.31926,0.243681,0.24212,45.2603,0.113295,
2,1,0,1,0,62241,0.115162,0.114796,4.85425,32,0.00578759,10,0.000557249,-2.31388,0.240276,0.245551,46.5816,0.114796,
2,1,0,1,0,62241,0.116656,0.116308,4.92888,32,0.00590979,10,0.000573267,-2.30725,0.254621,0.231717,44.563,0.116308,
2,1,0,1,0,62241,0.118157,0.117806,5.00225,32,0.00603423,10,0.000589296,-2.30083,0.274418,0.215,41.8738,0.117806,
2,1,0,1,0,62241.1,0.119657,0.119312,5.06414,32,0.00616031,10,0.000604212,-2.29549,0.289963,0.203474,40.1303,0.119312,
2,1,0,1,0,62241.1,0.121152,0.120769,5.11398,32,0.00628735,10,0.000617609,-2.29124,0.307299,0.191995,38.33,0.120769,
2,1,0,1,0,62241.1,0.122651,0.122312,5.17308,32,0.0064163,10,0.000632732,-2.28625,0.335581,0.175814,35.47,0.122312,
2,1,0,1,0,62241.1,0.124151,0.123781,5.22748,32,0.00654665,10,0.000647063,-2.28171,0.353669,0.166823,33.9798,0.123781,
2,1,0,1,0,62241.2,0.125649,0.12529,5.27082,32,0.00667826,10,0.00066038,-2.27812,0.381648,0.154593,31.7902,0.12529,
2,1,0,1,0,62241.2,0.127143,0.126797,5.30976,32,0.00681049,10,0.000673263,-2.27492,0.453756,0.130026,26.966,0.126797,
2,1,0,1,0,62241.2,0.128644,0.128284,5.35157,32,0.00694423,10,0.00068652,-2.27152,0.544647,0.108327,22.6408,0.128284,
2,1,0,1,0,62241.2,0.130145,0.129807,5.3961,32,0.00707895,10,0.000700454,-2.26792,0.520809,0.113285,23.8206,0.129807,
2,1,0,1,0,62241.3,0.131639,0.13126,5.42721,32,0.00721402,10,0.000712373,-2.26542,0.61524,0.0958975,20.2814,0.13126,
2,1,0,1,0,62241.3,0.133139,0.132764,5.45588,32,0.00735041,10,0.000724345,-2.26313,0.725425,0.0813316,17.3063,0.132764,
2,1,0,1,0,62241.3,0.134638,0.134272,5.47584,32,0.00748736,10,0.00073525,-2.26155,0.864323,0.0682615,14.6001,0.134272,
2,1,0,1,0,62241.3,0.136132,0.135806,5.50461,32,0.0076244,10,0.000747561,-2.25927,0.8942,0.0659808,14.1566,0.135806,
2,1,0,1,0,62241.4,0.137633,0.137258,5.52945,32,0.00776259,10,0.000758961,-2.25732,0.996164,0.0592272,12.7438,0.137258,
2,1,0,1,0,62241.4,0.139133,0.13876,5.53856,32,0.00790121,10,0.000768531,-2.2566,1.44678,0.0407802,8.80183,0.13876,
2,1,0,1,0,62241.4,0.140627,0.140284,5.54381,32,0.00803947,10,0.000777709,-2.25619,5.21398,0.0113157,2.44677,0.140284,
2,1,0,1,0,62241.4,0.142126,0.14176,5.54993,32,0.00817844,10,0.000786761,-2.25571,-26.7567,-0.00220506,-0.476113,0.14176,
2,1,0,1,0,62241.5,0.143626,0.143314,5.53955,32,0.00831741,10,0.000793896,-2.25653,-1.63504,-0.0360848,-7.78575,0.143314,
2,1,0,1,0,62241.5,0.145125,0.144813,5.51663,32,0.00845605,10,0.000798878,-2.25833,-0.689065,-0.0856233,-18.4168,0.144813,
2,1,0,1,0,62241.5,0.14662,0.14625,5.48027,32,0.00859344,10,0.000801489,-2.2612,-0.444429,-0.132755,-28.3694,0.14625,
2,1,0,1,0,62241.5,0.14812,0.147812,5.44157,32,0.00873036,10,0.000804327,-2.26428,-0.336351,-0.175412,-37.1267,0.147812,
2,1,0,1,0,62241.6,0.149621,0.149311,5.38542,32,0.00886596,10,0.000804103,-2.26878,-0.272477,-0.216532,-45.3164,0.149311,
2,1,0,1,0,62241.6,0.151116,0.150768,5.29799,32,0.00899927,10,0.000798769,-2.27589,-0.211826,-0.27853,-57.4369,0.150768,
2,1,0,1,0,62241.6,0.152615,0.152297,5.20196,32,0.00913094,10,0.000792242,-2.28383,-0.166066,-0.355281,-71.9571,0.152297,
2,1,0,1,0,62241.6,0.154115,0.153757,5.09424,32,0.00925997,10,0.000783272,-2.29292,-0.148749,-0.39664,-78.6671,0.153757,
2,1,0,1,0,62241.7,0.155614,0.155281,4.97076,32,0.00938611,10,0.000771865,-2.30358,-0.13513,-0.436616,-84.4781,0.155281,
2,1,0,1,0,62241.7,0.157107,0.156734,4.83672,32,0.00950858,10,0.000758079,-2.31545,-0.121939,-0.483848,-91.1801,0.156734,
2,1,0,1,0,62241.7,0.158608,0.1583,4.69309,32,0.00962807,10,0.000742913,-2.32854,-0.111801,-0.527723,-96.6371,0.1583,
2,1,0,1,0,62241.7,0.160109,0.159789,4.5509,32,0.00974389,10,0.000727186,-2.3419,-0.106563,-0.553662,-98.1788,0.1597894,
2,1,0,1,0,62241.8,0.161603,0.16128,4.39938,32,0.00985563,10,0.000709533,-2.35661,-0.107302,-0.549848,-94.3884,0.16128,
2,1,0,1,0,62241.8,0.163102,0.162795,4.25701,32,0.00996419,10,0.000693021,-2.3709,-0.10681,-0.552381,-91.8624,0.162795,
2,1,0,1,0,62241.8,0.164602,0.164264,4.11877,32,0.0100693,10,0.000676564,-2.38523,-0.103551,-0.56977,-91.6823,0.164264,
2,1,0,1,0,62241.8,0.166096,0.165769,3.98832,32,0.0101705,10,0.000661139,-2.39921,-0.103862,-0.568061,-88.4545,0.165769,
2,1,0,1,0,62241.9,0.167597,0.167302,3.86593,32,0.0102689,10,0.000646777,-2.41275,-0.113051,-0.52189,-78.7079,0.167302,
2,1,0,1,0,62241.9,0.169098,0.16879,3.74509,32,0.0103644,10,0.000632133,-2.42654,-0.118871,-0.496335,-72.6399,0.16879,
2,1,0,1,0,62241.9,0.170592,0.170284,3.63731,32,0.0104566,10,0.000619375,-2.43922,-0.119243,-0.494786,-70.4128,0.170284,
2,1,0,1,0,62241.9,0.17209,0.171785,3.53459,32,0.0105467,10,0.00060719,-2.45166,-0.124772,-0.472864,-65.3971,0.171785,
2,1,0,1,0,62242,0.17359,0.173255,3.44465,32,0.0106343,10,0.000596803,-2.46286,-0.13381,-0.440923,-59.433,0.173255,
2,1,0,1,0,62242,0.175089,0.174723,3.35641,32,0.0107196,10,0.000586442,-2.47412,-0.148916,-0.396197,-52.0756,0.174723,
2,1,0,1,0,62242,0.176583,0.176228,3.28025,32,0.0108027,10,0.000578072,-2.48409,-0.147881,-0.398969,-51.1659,0.176228,
2,1,0,1,0,62242,0.178084,0.177734,3.21116,32,0.0108842,10,0.000570733,-2.49334,-0.159079,-0.370886,-46.5251,0.177734,
2,1,0,1,0,62242.1,0.179585,0.179246,3.14559,32,0.0109639,10,0.000563836,-2.5023,-0.17822,-0.331052,-40.6846,0.179246,
2,1,0,1,0,62242.1,0.181079,0.180749,3.0827,32,0.0110418,10,0.000557196,-2.51107,-0.193252,-0.305301,-36.7791,0.180749,
2,1,0,1,0,62242.1,0.182579,0.182239,3.03194,32,0.0111186,10,0.000552536,-2.51828,-0.19175,-0.307692,-36.4277,0.182239,
2,1,0,1,0,62242.1,0.184078,0.183747,2.98469,32,0.0111941,10,0.000548427,-2.5251,-0.202378,-0.291534,-33.952,0.183747,
2,1,0,1,0,62242.2,0.185578,0.185193,2.93801,32,0.0112683,10,0.000544098,-2.53195,-0.238725,-0.247147,-28.3514,0.185193,
2,1,0,1,0,62242.2,0.187072,0.186761,2.89122,32,0.0113412,10,0.000539967,-2.53892,-0.275725,-0.213982,-24.1836,0.186761,
2,1,0,1,0,62242.2,0.188573,0.1882,2.85239,32,0.0114134,10,0.00053682,-2.54479,-0.269306,-0.219081,-24.4088,0.1882,
2,1,0,1,0,62242.2,0.190072,0.189697,2.82012,32,0.0114847,10,0.000534968,-2.54973,-0.257962,-0.228716,-25.1547,0.189697,
2,1,0,1,0,62242.3,0.191567,0.191198,2.78442,32,0.0115547,10,0.000532375,-2.55527,-0.302973,-0.194737,-21.195,0.191198,
2,1,0,1,0,62242.3,0.193066,0.192729,2.75374,32,0.0116243,10,0.000530725,-2.56008,-0.381756,-0.154549,-16.6445,0.192729,
2,1,0,1,0,62242.3,0.194566,0.194211,2.72368,32,0.0116932,10,0.000528969,-2.56484,-0.334591,-0.176335,-18.8072,0.194211,
2,1,0,1,0,62242.3,0.19606,0.195659,2.70406,32,0.0117612,10,0.000529073,-2.56798,-0.330757,-0.178379,-18.8218,0.1956587,
2,1,0,1,0,62242.4,0.197561,0.19723,2.67867,32,0.0118288,10,0.000528314,-2.57208,-0.437543,-0.134844,-14.1014,0.19723,
2,1,0,1,0,62242.4,0.199062,0.198758,2.65741,32,0.0118957,10,0.000528182,-2.57554,-0.469336,-0.125709,-13.0512,0.198758,
2,1,0,1,0,62242.4,0.200556,0.20024,2.6355,32,0.0119619,10,0.000527733,-2.57914,-0.441343,-0.133683,-13.7521,0.20024,
2,1,0,1,0,62242.4,0.202055,0.201719,2.62409,32,0.012028,10,0.00052933,-2.58102,-0.440036,-0.13408,-13.6837,0.201719,
2,1,0,1,0,62242.5,0.203553,0.203204,2.59734,32,0.0120935,10,0.00052779,-2.58547,-0.510504,-0.115572,-11.7222,0.203204,
2,1,0,1,0,62242.5,0.205053,0.204696,2.57529,32,0.0121586,10,0.00052715,-2.58917,-0.782163,-0.0754318,-7.61961,0.204696,
2,1,0,1,0,62242.5,0.206547,0.206142,2.56387,32,0.012223,10,0.000528521,-2.5911,-0.671954,-0.0878036,-8.80973,0.2061417,
2,1,0,1,0,62242.5,0.208048,0.207716,2.5596,32,0.0122875,10,0.000531672,-2.59183,-0.609066,-0.0968696,-9.6493,0.207716,
2,1,0,1,0,62242.6,0.209549,0.209203,2.54646,32,0.0123516,10,0.000532726,-2.59406,-0.582076,-0.101361,-10.0531,0.209203,
2,1,0,1,0,62242.6,0.211043,0.210705,2.52786,32,0.012415,10,0.000532632,-2.59725,-0.712248,-0.0828364,-8.18183,0.210705,
2,1,0,1,0,62242.6,0.212543,0.212199,2.51289,32,0.0124784,10,0.000533233,-2.59983,-0.790067,-0.0746772,-7.33358,0.212199,
2,1,0,1,0,62242.6,0.214042,0.213668,2.50672,32,0.0125415,10,0.000535608,-2.60089,-0.683005,-0.0863829,-8.44351,0.213668,
2,1,0,1,0,62242.7,0.215536,0.215243,2.4954,32,0.0126041,10,0.000537118,-2.60286,-0.774404,-0.0761876,-7.41788,0.215243,
2,1,0,1,0,62242.7,0.217036,0.216714,2.48509,32,0.0126666,10,0.000538552,-2.60466,-1.1356,-0.0519549,-5.03993,0.216714,
2,1,0,1,0,62242.7,0.218537,0.218227,2.47148,32,0.0127289,10,0.000539343,-2.60704,-1.10255,-0.0535124,-5.17407,0.218227,
2,1,0,1,0,62242.7,0.220031,0.219689,2.46966,32,0.0127908,10,0.000542558,-2.60736,-0.811831,-0.0726752,-6.99449,0.219689,
2,1,0,1,0,62242.8,0.22153,0.221206,2.45939,32,0.0128527,10,0.000544033,-2.60917,-0.888853,-0.0663777,-6.35952,0.221206,
2,1,0,1,0,62242.8,0.22303,0.222723,2.44729,32,0.0129144,10,0.00054507,-2.61131,-1.61178,-0.0366055,-3.49968,0.222723,
2,1,0,1,0,62242.8,0.224529,0.224188,2.43704,32,0.0129759,10,0.000546355,-2.61314,-0.971586,-0.0607255,-5.79384,0.224188,
2,1,0,1,0,62242.8,0.226024,0.225701,2.43621,32,0.0130369,10,0.000549855,-2.61329,-0.950679,-0.0620609,-5.89416,0.225701,
2,1,0,1,0,62242.9,0.227525,0.227217,2.43224,32,0.0130981,10,0.000552645,-2.61399,-1.18528,-0.0497771,-4.71607,0.2272166,
2,1,0,1,0,62242.9,0.229025,0.228691,2.41894,32,0.0131591,10,0.000553189,-2.61638,-1.51659,-0.0389031,-3.67767,0.228691,
2,1,0,1,0,62242.9,0.23052,0.230192,2.41062,32,0.0132195,10,0.000554907,-2.61787,-1.09885,-0.0536923,-5.06575,0.230192,
2,1,0,1,0,62242.9,0.232019,0.231679,2.41198,32,0.0132801,10,0.000558805,-2.61763,-1.3775,-0.0428313,-4.02875,0.231679,
2,1,0,1,0,62243,0.233519,0.233173,2.40793,32,0.0133407,10,0.000561462,-2.61836,-2.05264,-0.0287434,-2.69325,0.233173,
2,1,0,1,0,62243,0.235018,0.234686,2.39677,32,0.013401,10,0.000562488,-2.62037,-1.98361,-0.0297437,-2.78503,0.234686,
2,1,0,1,0,62243,0.236511,0.236135,2.38742,32,0.013461,10,0.000563753,-2.62207,-1.37128,-0.0430256,-4.01963,0.236135,
2,1,0,1,0,62243,0.238012,0.23768,2.38973,32,0.013521,10,0.000567992,-2.62165,-1.21103,-0.048719,-4.53569,0.23768,
2,1,0,1,0,62243.1,0.239513,0.239166,2.38606,32,0.013581,10,0.000570665,-2.62232,-1.95853,-0.0301246,-2.79896,0.239166,
2,1,0,1,0,62243.1,0.241007,0.240646,2.37556,32,0.0136406,10,0.00057167,-2.62423,-1.90353,-0.030995,-2.87575,0.240646,
2,1,0,1,0,62243.1,0.242506,0.242125,2.36709,32,0.0137003,10,0.000573132,-2.62578,-1.50302,-0.0392543,-3.64001,0.242125,
2,1,0,1,0,62243.1,0.244006,0.243658,2.36589,32,0.0137599,10,0.000576468,-2.62601,-1.2093,-0.0487884,-4.50906,0.243658,
2,1,0,1,0,62243.2,0.2455,0.245194,2.37038,32,0.0138191,10,0.000581204,-2.62518,-1.77641,-0.0332131,-3.06702,0.245194,
2,1,0,1,0,62243.2,0.247001,0.246686,2.36441,32,0.0138786,10,0.000583265,-2.62628,-2.76844,-0.0213116,-1.96015,0.246686,
2,1,0,1,0,62243.2,0.248502,0.248183,2.35264,32,0.0139379,10,0.000583885,-2.62844,-1.23339,-0.0478355,-4.4008,0.248183,
2,1,0,1,0,62243.2,0.249995,0.249666,2.34748,32,0.0139968,10,0.000586084,-2.6294,-1.22224,-0.0482719,-4.428,0.249666,
2,1,0,1,0,62243.3,0.251494,0.251136,2.34734,32,0.0140558,10,0.000589502,-2.62942,-1.78437,-0.0330648,-3.02815,0.251136,
2,1,0,1,0,62243.3,0.252994,0.252635,2.34171,32,0.0141148,10,0.000591599,-2.63047,-2.22523,-0.0265141,-2.42524,0.252635,
2,1,0,1,0,62243.3,0.254493,0.254144,2.33451,32,0.0141737,10,0.000593303,-2.6318,-2.34321,-0.0251791,-2.30373,0.254144,
2,1,0,1,0,62243.3,0.255988,0.255669,2.33285,32,0.0142322,10,0.000596436,-2.63211,-1.62709,-0.0362611,-3.30951,0.255669,
2,1,0,1,0,62243.4,0.257488,0.257157,2.33596,32,0.014291,10,0.000600707,-2.63153,-3.87807,-0.0152138,-1.38327,0.257157,
2,1,0,1,0,62243.4,0.258989,0.258708,2.3338,32,0.0143496,10,0.000603775,-2.63194,-10.8553,-0.00543514,-0.494125,0.258708,
2,1,0,1,0,62243.4,0.260483,0.260184,2.32489,32,0.0144079,10,0.000604898,-2.6336,-1.85956,-0.0317279,-2.8815,0.260184,
2,1,0,1,0,62243.4,0.261983,0.261675,2.32293,32,0.0144664,10,0.000607852,-2.63396,-1.53356,-0.0384727,-3.48839,0.261675,
2,1,0,1,0,62243.5,0.263482,0.263136,2.31849,32,0.0145247,10,0.000610077,-2.6348,-4.68322,-0.0125982,-1.13986,0.263136,
2,1,0,1,0,62243.5,0.264982,0.264701,2.31485,32,0.014583,10,0.000612743,-2.63548,-4.10231,-0.0143821,-1.29997,0.264701,
2,1,0,1,0,62243.5,0.266476,0.266131,2.30818,32,0.0146409,10,0.000614279,-2.63673,-1.8933,-0.0311625,-2.81305,0.266131,
2,1,0,1,0,62243.5,0.267976,0.267652,2.30585,32,0.014699,10,0.000617164,-2.63717,-1.28751,-0.0458247,-4.12779,0.267652,
2,1,0,1,0,62243.6,0.269477,0.269152,2.30776,32,0.0147569,10,0.000621138,-2.63681,-13.4254,-0.00439465,-0.395328,0.269152,
2,1,0,1,0,62243.6,0.270971,0.270666,2.30524,32,0.0148146,10,0.00062395,-2.63728,-5.74682,-0.0102665,-0.922358,0.270666,
2,1,0,1,0,62243.6,0.27247,0.272172,2.29842,32,0.0148725,10,0.000625566,-2.63857,-1.67772,-0.0351668,-3.15343,0.272172,
2,1,0,1,0,62243.6,0.27397,0.273627,2.2937,32,0.0149303,10,0.000627617,-2.63946,-1.23571,-0.047746,-4.28125,0.273627,
2,1,0,1,0,62243.7,0.275464,0.275146,2.29571,32,0.0149877,10,0.000631656,-2.63908,-1.588,-0.0371538,-3.32347,0.275146,
2,1,0,1,0,62243.7,0.276965,0.276626,2.28614,32,0.0150453,10,0.000632404,-2.6409,-5.74547,-0.010269,-0.917012,0.2766256,
2,1,0,1,0,62243.7,0.278466,0.278174,2.28523,32,0.0151028,10,0.000635692,-2.64107,-1.80657,-0.0326586,-2.9139,0.278174,
2,1,0,1,0,62243.7,0.27996,0.279642,2.28447,32,0.01516,10,0.000638835,-2.64121,-2.0231,-0.0291632,-2.59476,0.279642,
2,1,0,1,0,62243.8,0.281458,0.281121,2.27607,32,0.0152173,10,0.000639851,-2.64281,-2.14777,-0.0274703,-2.44065,0.281121,
2,1,0,1,0,62243.8,0.282958,0.282623,2.2767,32,0.0152745,10,0.000643447,-2.64269,-334.646,-0.000176306,-0.0156427,0.282623,
2,1,0,1,0,62243.8,0.284457,0.284084,2.26968,32,0.0153316,10,0.00064478,-2.64404,-3.39518,-0.0173776,-1.54023,0.284084,
2,1,0,1,0,62243.8,0.285951,0.285652,2.26564,32,0.0153885,10,0.000647183,-2.64481,-1.32508,-0.0445255,-3.93869,0.285652,
2,1,0,1,0,62243.9,0.287452,0.287143,2.2652,32,0.0154454,10,0.000650435,-2.64489,-1.53527,-0.0384297,-3.39484,0.287143,
2,1,0,1,0,62243.9,0.288953,0.288612,2.26318,32,0.0155023,10,0.000653181,-2.64528,-4.99995,-0.0118001,-1.03918,0.288612,
2,1,0,1,0,62243.9,0.290447,0.290117,2.2553,32,0.0155588,10,0.0006543,-2.6468,-2.34309,-0.0251804,-2.21496,0.290117,
2,1,0,1,0,62243.9,0.291947,0.291659,2.25477,32,0.0156155,10,0.000657624,-2.6469,-1.1445,-0.0515508,-4.53171,0.291659,
2,1,0,1,0,62244,0.293446,0.293108,2.2493,32,0.0156722,10,0.000659287,-2.64795,-1.82422,-0.0323426,-2.83615,0.2931076,
2,1,0,1,0,62244,0.29494,0.294593,2.243,32,0.0157284,10,0.000660772,-2.64917,-5.74178,-0.0102756,-0.9017,0.294593,
2,1,0,1,0,62244,0.29644,0.296101,2.24223,32,0.0157848,10,0.000663925,-2.64932,-2.81798,-0.020937,-1.834,0.296101,
2,1,0,1,0,62244,0.297941,0.297648,2.24048,32,0.0158412,10,0.000666876,-2.64966,-1.79827,-0.0328093,-2.86475,0.297648,
2,1,0,1,0,62244.1,0.29944,0.299118,2.23611,32,0.0158975,10,0.000668862,-2.65051,-0.0102168,-5.77479,-415.912,0.299118,
2,1,0,1,0,62244.1,0.299736,0.299384,1.907,32,0.0159269,10,0.000570926,-2.71965,0.00245852,23.9982,1260.28,0.299384,
2,1,0,1,0,62244.1,0.298238,0.297908,0.941416,32,0.0159605,10,0.000280455,-3.02622,0.00417545,14.1302,518.136,0.2979078,
2,1,0,1,0,62244.1,0.296744,0.296436,0.411725,32,0.0159764,10,0.00012205,-3.38539,0.00230492,25.5974,297.143,0.296436,
2,1,0,1,0,62244.1,0.295243,0.294911,0.0633674,32,0.0159816,10,1.86877e-05,-4.19813,0.0105456,5.59476,199.661,0.294911,
2,0,0,1,0,62244.2,0.293742,0.293342,-0.172939,32,0.0159797,10,-5.07304e-05,-3.76211,-0.0105066,-5.61554,139.401,0.293342,
2,0,0,1,0,62244.2,0.292248,0.291911,-0.343046,32,0.0159728,10,-0.000100139,-3.46465,-0.00577985,-10.2079,100.989,0.291911,
2,0,0,1,0,62244.2,0.290748,0.290416,-0.476196,32,0.0159621,10,-0.000138295,-3.32221,-0.0126429,-4.66667,78.6285,0.290416,
2,0,0,1,0,62244.2,0.289249,0.288914,-0.583702,32,0.0159484,10,-0.00016864,-3.23381,-0.0200164,-2.94758,63.7854,0.288914,
2,0,0,1,0,62244.3,0.287754,0.287419,-0.66614,32,0.0159325,10,-0.000191461,-3.17643,-0.0276304,-2.13533,53.9939,0.287419,
2,0,0,1,0,62244.3,0.286254,0.285936,-0.735518,32,0.0159145,10,-0.000210311,-3.13341,-0.0361576,-1.63175,46.1947,0.285936,
2,0,0,1,0,62244.3,0.284754,0.284423,-0.794138,32,0.0158949,10,-0.000225871,-3.1001,-0.0467669,-1.26157,38.9187,0.284423,
2,0,0,1,0,62244.3,0.28326,0.282925,-0.855284,32,0.015874,10,-0.000241981,-3.06789,-0.060679,-0.97233,32.0049,0.2829245,
2,0,0,1,0,62244.4,0.28176,0.281447,-0.902835,32,0.0158516,10,-0.0002541,-3.04439,-0.0687122,-0.858654,29.902,0.281447,
2,0,0,1,0,62244.4,0.280261,0.279936,-0.939068,32,0.0158282,10,-0.000262878,-3.0273,-0.0776972,-0.759358,27.7966,0.279936,
2,0,0,1,0,62244.4,0.278761,0.278436,-0.978987,32,0.0158038,10,-0.000272586,-3.00922,-0.0950408,-0.620786,23.6967,0.278436,
2,0,0,1,0,62244.4,0.277267,0.276914,-1.01417,32,0.0157786,10,-0.000280838,-2.99389,-0.107881,-0.5469,21.6033,0.276914,
2,0,0,1,0,62244.5,0.275766,0.275388,-1.04846,32,0.0157524,10,-0.000288734,-2.97945,-0.113646,-0.519158,21.1651,0.275388,
2,0,0,1,0,62244.5,0.274265,0.273959,-1.07773,32,0.0157254,10,-0.000295253,-2.96749,-0.11836,-0.498478,20.9285,0.273959,
2,0,0,1,0,62244.5,0.272771,0.272402,-1.10453,32,0.0156978,10,-0.000300875,-2.95682,-0.137017,-0.430603,18.6191,0.272402,
2,0,0,1,0,62244.5,0.271272,0.270922,-1.13826,32,0.0156694,10,-0.00030838,-2.94376,-0.153357,-0.384722,16.9856,0.270922,
2,0,0,1,0,62244.6,0.269772,0.269427,-1.16484,32,0.0156403,10,-0.00031384,-2.93373,-0.150443,-0.392175,17.7084,0.269427,
2,0,0,1,0,62244.6,0.268273,0.267941,-1.18316,32,0.0156105,10,-0.000317018,-2.92696,-0.175978,-0.335269,15.505,0.267941,
2,0,0,1,0,62244.6,0.26678,0.266438,-1.20695,32,0.0155804,10,-0.000321576,-2.91831,-0.207044,-0.284964,13.4431,0.266438,
2,0,0,1,0,62244.6,0.265279,0.264943,-1.23438,32,0.0155495,10,-0.000327039,-2.90855,-0.202637,-0.291161,13.9627,0.264943,
2,0,0,1,0,62244.7,0.263778,0.263391,-1.25513,32,0.0155181,10,-0.00033059,-2.90131,-0.210861,-0.279805,13.6407,0.263391,
2,0,0,1,0,62244.7,0.262284,0.261885,-1.27098,32,0.0154863,10,-0.00033285,-2.89586,-0.213649,-0.276154,13.6951,0.261885,
2,0,0,1,0,62244.7,0.260784,0.260507,-1.288,32,0.0154539,10,-0.000335533,-2.89008,-0.259429,-0.227422,11.4617,0.260507,
2,0,0,1,0,62244.7,0.259285,0.258924,-1.31092,32,0.015421,10,-0.00033943,-2.88242,-0.226831,-0.260105,13.2781,0.258924,
2,0,0,1,0,62244.8,0.257791,0.257439,-1.3341,32,0.0153878,10,-0.000343451,-2.87481,-0.218189,-0.270408,13.9911,0.257439,
2,0,0,1,0,62244.8,0.25629,0.255931,-1.34574,32,0.0153539,10,-0.000344417,-2.87104,-0.250763,-0.235282,12.3293,0.255931,
2,0,0,1,0,62244.8,0.254789,0.254429,-1.36288,32,0.0153196,10,-0.000346756,-2.86554,-0.3248,-0.18165,9.68085,0.2544291,
2,0,0,1,0,62244.8,0.253296,0.25292,-1.38162,32,0.0152851,10,-0.000349438,-2.85961,-0.334746,-0.176253,9.50357,0.25292,
2,0,0,1,0,62244.9,0.251797,0.25144,-1.39885,32,0.01525,10,-0.000351727,-2.85423,-0.263496,-0.223913,12.1844,0.25144,
2,0,0,1,0,62244.9,0.250297,0.249957,-1.41078,32,0.0152146,10,-0.000352634,-2.85054,-0.286826,-0.205699,11.3369,0.249957,
2,0,0,1,0,62244.9,0.248797,0.248416,-1.42363,32,0.0151787,10,-0.000353651,-2.8466,-0.346457,-0.170295,9.4957,0.248416,
2,0,0,1,0,62244.9,0.247303,0.246936,-1.4405,32,0.0151426,10,-0.000355711,-2.84149,-0.337292,-0.174923,9.84395,0.246936,
2,0,0,1,0,62245,0.245802,0.245447,-1.46087,32,0.015106,10,-0.000358565,-2.83539,-0.278232,-0.212053,12.0314,0.245447,
2,0,0,1,0,62245,0.244302,0.243948,-1.47154,32,0.015069,10,-0.000358979,-2.83223,-0.286659,-0.20582,11.8007,0.243948,
2,0,0,1,0,62245,0.242807,0.242425,-1.4864,32,0.0150317,10,-0.000360341,-2.82786,-0.427816,-0.13791,8.00156,0.242425,
2,0,0,1,0,62245,0.241308,0.240967,-1.50217,32,0.0149941,10,-0.000361972,-2.82328,-0.416779,-0.141562,8.2942,0.240967,
2,0,0,1,0,62245.1,0.239808,0.239476,-1.51261,32,0.014956,10,-0.000362232,-2.82027,-0.312974,-0.188514,11.1185,0.239476,
2,0,0,1,0,62245.1,0.238309,0.237924,-1.52426,32,0.0149176,10,-0.000362658,-2.81694,-0.347389,-0.169838,10.1286,0.237924,
2,0,0,1,0,62245.1,0.236815,0.23647,-1.5392,32,0.0148791,10,-0.000363974,-2.81271,-0.391686,-0.150631,9.06099,0.23647,
2,0,0,1,0,62245.1,0.235315,0.234957,-1.55157,32,0.01484,10,-0.000364551,-2.80923,-0.474088,-0.124449,7.52698,0.234957,
2,0,0,1,0,62245.2,0.233814,0.233411,-1.5677,32,0.0148007,10,-0.00036592,-2.80474,-0.367334,-0.160617,9.79544,0.233411,
2,0,0,1,0,62245.2,0.23232,0.231945,-1.57869,32,0.0147612,10,-0.00036617,-2.8017,-0.347382,-0.169842,10.4653,0.231945,
2,0,0,1,0,62245.2,0.230821,0.230466,-1.59128,32,0.0147211,10,-0.000366735,-2.79825,-0.45894,-0.128557,7.98571,0.230466,
2,0,0,1,0,62245.2,0.229321,0.228996,-1.6013,32,0.0146808,10,-0.000366692,-2.79553,-0.565496,-0.104333,6.52932,0.2289964,
2,0,0,1,0,62245.3,0.227827,0.2275,-1.61661,32,0.0146403,10,-0.000367777,-2.7914,-0.435741,-0.135402,8.5487,0.2275,
2,0,0,1,0,62245.3,0.226326,0.225968,-1.62721,32,0.0145994,10,-0.000367698,-2.78856,-0.469994,-0.125533,7.9779,0.225968,
2,0,0,1,0,62245.3,0.224825,0.224488,-1.63978,32,0.0145581,10,-0.000368112,-2.78521,-0.547308,-0.1078,6.89449,0.224488,
2,0,0,1,0,62245.3,0.223331,0.223015,-1.65315,32,0.0145168,10,-0.000368678,-2.78169,-0.596764,-0.0988665,6.37133,0.223015,
2,0,0,1,0,62245.4,0.221831,0.221511,-1.66794,32,0.0144749,10,-0.000369466,-2.77782,-0.473896,-0.1245,8.0812,0.221511,
2,0,0,1,0,62245.4,0.220333,0.220011,-1.67477,32,0.0144328,10,-0.000368468,-2.77605,-0.383185,-0.153973,10.0867,0.220011,
2,0,0,1,0,62245.4,0.218834,0.218473,-1.68892,32,0.0143903,10,-0.000368983,-2.77239,-0.503918,-0.117083,7.71719,0.218473,
2,0,0,1,0,62245.4,0.217339,0.216972,-1.6999,32,0.0143477,10,-0.00036883,-2.76958,-0.704127,-0.0837917,5.56407,0.216972,
2,0,0,1,0,62245.5,0.215839,0.215477,-1.71302,32,0.0143047,10,-0.000369116,-2.76624,-0.515378,-0.114479,7.64979,0.215477,
2,0,0,1,0,62245.5,0.214338,0.214031,-1.72285,32,0.0142613,10,-0.000368742,-2.76375,-0.444826,-0.132636,8.92199,0.214031,
2,0,0,1,0,62245.5,0.212844,0.212504,-1.7346,32,0.0142179,10,-0.00036861,-2.7608,-0.512535,-0.115114,7.79885,0.212504,
2,0,0,1,0,62245.5,0.211344,0.211048,-1.7478,32,0.0141739,10,-0.00036887,-2.75751,-0.596853,-0.0988519,6.73142,0.211048,
2,0,0,1,0,62245.6,0.209845,0.209467,-1.76046,32,0.0141297,10,-0.000368758,-2.75437,-0.576346,-0.102369,7.01718,0.209467,
2,0,0,1,0,62245.6,0.20835,0.207975,-1.77328,32,0.0140854,10,-0.000368797,-2.75122,-0.396018,-0.148983,10.3138,0.207975,
2,0,0,1,0,62245.6,0.206851,0.206499,-1.78246,32,0.0140406,10,-0.000368077,-2.74898,-0.48722,-0.121095,8.43426,0.206499,
2,0,0,1,0,62245.6,0.20535,0.204991,-1.80168,32,0.0139954,10,-0.000369328,-2.74432,-0.581392,-0.101481,7.09604,0.204991,
2,0,0,1,0,62245.7,0.203856,0.203483,-1.80977,32,0.0139501,10,-0.000368257,-2.74238,-0.634904,-0.0929275,6.55454,0.203483,
2,0,0,1,0,62245.7,0.202356,0.201986,-1.81543,32,0.0139044,10,-0.00036669,-2.74102,-0.433757,-0.136021,9.65867,0.201986,
2,0,0,1,0,62245.7,0.200857,0.200509,-1.82669,32,0.0138584,10,-0.000366267,-2.73834,-0.4671,-0.126311,9.03092,0.200509,
2,0,0,1,0,62245.7,0.199357,0.199013,-1.83935,32,0.0138121,10,-0.000366054,-2.73534,-0.572236,-0.103104,7.40461,0.199013,
2,0,0,1,0,62245.8,0.197863,0.197478,-1.85837,32,0.0137657,10,-0.000366986,-2.73087,-0.521933,-0.113041,8.18206,0.1974778,
2,0,0,1,0,62245.8,0.196362,0.196011,-1.86591,32,0.0137188,10,-0.000365739,-2.72911,-0.522486,-0.112922,8.22815,0.196011,
2,0,0,1,0,62245.8,0.194861,0.194524,-1.87446,32,0.0136716,10,-0.000364627,-2.72712,-0.499455,-0.118129,8.65997,0.194524,
2,0,0,1,0,62245.8,0.193367,0.192939,-1.89458,32,0.0136242,10,-0.000365537,-2.72249,-0.546573,-0.107945,7.9601,0.192939,
2,0,0,1,0,62245.9,0.191868,0.191488,-1.90795,32,0.0135764,10,-0.000365349,-2.71943,-0.563114,-0.104775,7.78905,0.191488,
2,0,0,1,0,62245.9,0.190368,0.189969,-1.91517,32,0.0135282,10,-0.000363823,-2.71779,-0.462932,-0.127449,9.53481,0.1899693,
2,0,0,1,0,62245.9,0.18887,0.188541,-1.9193,32,0.0134798,10,-0.000361866,-2.71686,-0.483787,-0.121954,9.19963,0.188541,
2,0,0,1,0,62245.9,0.187376,0.187033,-1.94441,32,0.0134312,10,-0.000363668,-2.71121,-0.558951,-0.105555,8.00622,0.187033,
2,0,0,1,0,62246,0.185875,0.185551,-1.96285,32,0.013382,10,-0.000364209,-2.70711,-0.533944,-0.110498,8.41208,0.185551,
2,0,0,1,0,62246,0.184374,0.184027,-1.97109,32,0.0133325,10,-0.000362733,-2.70529,-0.413716,-0.14261,10.9532,0.184027,
2,0,0,1,0,62246,0.18288,0.182553,-1.97971,32,0.013283,10,-0.000361403,-2.7034,-0.509073,-0.115897,8.98614,0.182553,
2,0,0,1,0,62246,0.18138,0.181015,-2.00103,32,0.0132328,10,-0.000362216,-2.69875,-0.546868,-0.107887,8.41533,0.181015,
2,0,0,1,0,62246.1,0.179881,0.179534,-2.01489,32,0.0131822,10,-0.000361743,-2.69575,-0.449113,-0.13137,10.321,0.179534,
2,0,0,1,0,62246.1,0.178387,0.178031,-2.0308,32,0.0131315,10,-0.000361544,-2.69233,-0.428164,-0.137798,10.9196,0.1780306,
2,0,0,1,0,62246.1,0.176886,0.176521,-2.0408,32,0.0130802,10,-0.000360244,-2.6902,-0.429065,-0.137508,10.9831,0.176521,
2,0,0,1,0,62246.1,0.175385,0.17502,-2.06087,32,0.0130285,10,-0.000360694,-2.68595,-0.433239,-0.136183,10.9522,0.1750198,
2,0,0,1,0,62246.2,0.173892,0.173506,-2.07886,32,0.0129766,10,-0.000360695,-2.68218,-0.392803,-0.150203,12.1773,0.173506,
2,0,0,1,0,62246.2,0.172393,0.172007,-2.09552,32,0.012924,10,-0.000360444,-2.67871,-0.377697,-0.15621,12.7716,0.172007,
2,0,0,1,0,62246.2,0.170893,0.170539,-2.10485,32,0.012871,10,-0.00035896,-2.67678,-0.40652,-0.145134,11.9917,0.170539,
2,0,0,1,0,62246.2,0.169393,0.169003,-2.12966,32,0.0128176,10,-0.000359917,-2.67169,-0.353845,-0.16674,13.875,0.169003,
2,0,0,1,0,62246.3,0.167899,0.167557,-2.16001,32,0.0127638,10,-0.000361924,-2.66554,-0.346144,-0.17045,14.3118,0.167557,
2,0,0,1,0,62246.3,0.166398,0.16605,-2.17618,32,0.0127093,10,-0.000361354,-2.6623,-0.312027,-0.189086,16.0461,0.16605,
2,0,0,1,0,62246.3,0.164898,0.164522,-2.18983,32,0.0126543,10,-0.000360276,-2.65959,-0.353202,-0.167043,14.3427,0.164522,
2,0,0,1,0,62246.3,0.163403,0.162997,-2.21853,32,0.0125989,10,-0.000361614,-2.65394,-0.327775,-0.180001,15.5833,0.162997,
2,0,0,1,0,62246.4,0.161904,0.161536,-2.24555,32,0.0125428,10,-0.000362738,-2.64868,-0.296544,-0.198959,17.4219,0.161536,
2,0,0,1,0,62246.4,0.160404,0.160032,-2.2718,32,0.0124859,10,-0.00036356,-2.64363,-0.305452,-0.193157,17.1123,0.160032,
2,0,0,1,0,62246.4,0.158905,0.158586,-2.29264,32,0.0124284,10,-0.000363582,-2.63966,-0.273761,-0.215516,19.3409,0.158586,
2,0,0,1,0,62246.4,0.157411,0.157046,-2.32499,32,0.0123705,10,-0.00036513,-2.63358,-0.264174,-0.223338,20.3191,0.157046,
2,0,0,1,0,62246.5,0.155911,0.155565,-2.36101,32,0.0123116,10,-0.00036729,-2.6269,-0.244914,-0.240901,22.1653,0.155565,
2,0,0,1,0,62246.5,0.15441,0.154087,-2.39652,32,0.0122517,10,-0.000369271,-2.62042,-0.231028,-0.25538,23.8479,0.1540868,
2,0,0,1,0,62246.5,0.152916,0.152549,-2.42904,32,0.0121912,10,-0.000370546,-2.61457,-0.208747,-0.282638,26.8655,0.1525486,
2,0,0,1,0,62246.5,0.151417,0.151043,-2.47083,32,0.0121296,10,-0.000373202,-2.60716,-0.201829,-0.292327,28.2735,0.1510433,
2,0,0,1,0,62246.6,0.149917,0.149559,-2.51855,32,0.0120668,10,-0.000376671,-2.59885,-0.180886,-0.326172,32.0627,0.149559,
2,0,0,1,0,62246.6,0.148423,0.148047,-2.56865,32,0.0120031,10,-0.000380282,-2.5903,-0.162039,-0.36411,36.5488,0.148047,
2,0,0,1,0,62246.6,0.146922,0.146549,-2.62119,32,0.0119378,10,-0.000384134,-2.5815,-0.154346,-0.382257,39.2041,0.146549,
2,0,0,1,0,62246.6,0.145421,0.145048,-2.67901,32,0.0118711,10,-0.000388586,-2.57203,-0.151029,-0.390654,40.9832,0.145048,
2,0,0,1,0,62246.7,0.143927,0.143582,-2.75078,32,0.0118032,10,-0.000394963,-2.56054,-0.133657,-0.441427,47.3485,0.143582,
2,0,0,1,0,62246.7,0.142429,0.142057,-2.82013,32,0.0117332,10,-0.000400618,-2.54973,-0.121355,-0.486176,53.6094,0.142057,
2,0,0,1,0,62246.7,0.140929,0.140585,-2.89996,32,0.0116612,10,-0.00040769,-2.53761,-0.118233,-0.499017,56.6851,0.140585,
2,0,0,1,0,62246.7,0.13943,0.139068,-2.98175,32,0.0115872,10,-0.000414667,-2.52553,-0.115173,-0.512274,59.8801,0.139068,
2,0,0,1,0,62246.8,0.137935,0.137613,-3.08769,32,0.0115112,10,-0.000424906,-2.51037,-0.110061,-0.536068,64.6661,0.137613,
2,0,0,1,0,62246.8,0.136435,0.136076,-3.1904,32,0.0114324,10,-0.000434139,-2.49615,-0.101784,-0.579659,72.1569,0.136076,
2,0,0,1,0,62246.8,0.134934,0.134556,-3.29396,32,0.0113509,10,-0.000443221,-2.48228,-0.103731,-0.568778,73.2028,0.134556,
2,0,0,1,0,62246.8,0.13344,0.133107,-3.40702,32,0.011267,10,-0.000453499,-2.46763,-0.102877,-0.573502,76.3383,0.133107,
2,0,0,1,0,62246.9,0.13194,0.131625,-3.52556,32,0.01118,10,-0.000464053,-2.45277,-0.102075,-0.578007,79.5932,0.131625,
2,0,0,1,0,62246.9,0.13044,0.130116,-3.64641,32,0.0110899,10,-0.000474456,-2.43813,-0.0994062,-0.593524,84.4221,0.130116,
2,0,0,1,0,62246.9,0.128941,0.128534,-3.76779,32,0.0109968,10,-0.000484291,-2.42391,-0.106657,-0.553173,81.2728,0.128534,
2,0,0,1,0,62246.9,0.127447,0.127059,-3.89117,32,0.010901,10,-0.000494407,-2.40992,-0.113577,-0.519472,78.7824,0.127059,
2,0,0,1,0,62247,0.125946,0.12564,-4.01342,32,0.0108018,10,-0.000504247,-2.39649,-0.11576,-0.509675,79.7181,0.12564,
2,0,0,1,0,62247,0.124446,0.124109,-4.13391,32,0.0106996,10,-0.000513056,-2.38364,-0.114108,-0.517053,83.2722,0.124109,
2,0,0,1,0,62247,0.122952,0.122627,-4.24943,32,0.0105948,10,-0.000521096,-2.37167,-0.123023,-0.479586,79.4705,0.122627,
2,0,0,1,0,62247,0.121453,0.121098,-4.36269,32,0.0104867,10,-0.000528313,-2.36025,-0.137306,-0.429698,73.1525,0.121098,
2,0,0,1,0,62247.1,0.119953,0.119655,-4.47693,32,0.0103758,10,-0.000535688,-2.34902,-0.142285,-0.414662,72.4248,0.119655,
2,0,0,1,0,62247.1,0.118459,0.118132,-4.58824,32,0.0102625,10,-0.000542016,-2.33835,-0.144714,-0.407702,72.8555,0.118132,
2,0,0,1,0,62247.1,0.116958,0.116563,-4.69205,32,0.0101461,10,-0.000546919,-2.32864,-0.159664,-0.369526,67.6046,0.1165629,
2,0,0,1,0,62247.1,0.115457,0.115044,-4.79742,32,0.0100271,10,-0.000551914,-2.31899,-0.170947,-0.345136,64.4748,0.115044,
2,0,0,1,0,62247.2,0.113963,0.113583,-4.88604,32,0.00990619,10,-0.000554969,-2.31104,-0.181871,-0.324405,61.8238,0.113583,
2,0,0,1,0,62247.2,0.112464,0.112129,-4.98323,32,0.00978251,10,-0.000558767,-2.30249,-0.186936,-0.315616,61.2464,0.112129,
2,0,0,1,0,62247.2,0.110965,0.110619,-5.05908,32,0.00965659,10,-0.00055963,-2.29593,-0.199825,-0.295258,58.2969,0.110619,
2,0,0,1,0,62247.2,0.109466,0.109124,-5.13951,32,0.00952854,10,-0.000560846,-2.28908,-0.231488,-0.254873,51.1143,0.109124,
2,0,0,1,0,62247.3,0.107972,0.10764,-5.2225,32,0.00939906,10,-0.000562149,-2.28212,-0.258847,-0.227934,46.3662,0.10764,
2,0,0,1,0,62247.3,0.106471,0.106113,-5.28911,32,0.00926732,10,-0.000561245,-2.27662,-0.272475,-0.216534,44.6159,0.106113,
2,0,0,1,0,62247.3,0.10497,0.104649,-5.34385,32,0.00913395,10,-0.000559227,-2.27215,-0.312755,-0.188646,39.3276,0.104649,
2,0,0,1,0,62247.3,0.103476,0.103143,-5.40072,32,0.00899967,10,-0.000557045,-2.26755,-0.372067,-0.158573,33.395,0.103143,
2,0,0,1,0,62247.4,0.101976,0.101655,-5.45499,32,0.00886359,10,-0.000554528,-2.26321,-0.471537,-0.125123,26.5714,0.101655,
2,0,0,1,0,62247.4,0.100477,0.100111,-5.48584,32,0.00872651,10,-0.000549191,-2.26076,-0.557653,-0.1058,22.6247,0.100111,
2,0,0,1,0,62247.4,0.0989825,0.0986336,-5.51568,32,0.00858917,10,-0.000544032,-2.2584,-0.650931,-0.0906395,19.4877,0.0986336,
2,0,0,1,0,62247.4,0.0974817,0.0971526,-5.53576,32,0.00845061,10,-0.000537813,-2.25682,-1.16167,-0.0507891,10.9628,0.0971526,
2,0,0,1,0,62247.5,0.0959822,0.0956362,-5.55058,32,0.00831162,10,-0.000530836,-2.25566,-2.12519,-0.0277622,6.00476,0.0956362,
2,0,0,1,0,62247.5,0.094488,0.0940973,-5.55682,32,0.00817295,10,-0.000522882,-2.25517,-4.04778,-0.0145759,3.15633,0.0940973,
2,0,0,1,0,62247.5,0.0929884,0.0926374,-5.54809,32,0.00803369,10,-0.000513961,-2.25586,16.5597,0.00356286,-0.772045,0.0926374,
2,0,0,1,0,62247.5,0.0914889,0.0911308,-5.55075,32,0.00789449,10,-0.000505845,-2.25565,2.45641,0.0240188,-5.19947,0.0911308,
2,0,0,1,0,62247.6,0.0899894,0.0896543,-5.5387,32,0.00775546,10,-0.000496569,-2.25659,1.13062,0.0521836,-11.2546,0.0896543,
2,0,0,1,0,62247.6,0.0884951,0.0880977,-5.51986,32,0.00761737,10,-0.000486287,-2.25807,1.18139,0.049941,-10.7459,0.0880977,
2,0,0,1,0,62247.6,0.0869943,0.0866144,-5.49552,32,0.00747932,10,-0.000475991,-2.25999,0.828274,0.0712325,-15.2818,0.0866144,
2,0,0,1,0,62247.6,0.0854935,0.0851665,-5.47252,32,0.00734177,10,-0.000466075,-2.26181,0.689855,0.0855253,-18.2515,0.0851665,
2,0,0,1,0,62247.7,0.0839993,0.0836207,-5.45,32,0.00720539,10,-0.000455732,-2.2636,0.632654,0.093258,-19.8148,0.0836207,
2,0,0,1,0,62247.7,0.0824998,0.0821216,-5.42232,32,0.00706915,10,-0.000445289,-2.26581,0.717878,0.0821867,-17.3782,0.0821216,
2,0,0,1,0,62247.7,0.0810002,0.0806284,-5.38741,32,0.00693365,10,-0.000434378,-2.26862,0.707425,0.0834011,-17.558,0.0806284,
2,0,0,1,0,62247.7,0.0795007,0.0791615,-5.36148,32,0.00679883,10,-0.000424423,-2.27072,0.703306,0.0838895,-17.5716,0.07916148,
2,0,0,1,0,62247.8,0.0780078,0.0775996,-5.34113,32,0.00666515,10,-0.00041447,-2.27237,0.745941,0.0790947,-16.478,0.0775996,
2,0,0,1,0,62247.8,0.076507,0.0761485,-5.31646,32,0.00653155,10,-0.00040484,-2.27438,0.814836,0.0724072,-15.0205,0.07614851,
2,0,0,1,0,62247.8,0.0750062,0.074659,-5.28682,32,0.00639863,10,-0.000394708,-2.27681,0.822252,0.0717541,-14.814,0.074659,
2,0,0,1,0,62247.8,0.073512,0.0731768,-5.26766,32,0.00626685,10,-0.00038547,-2.27838,0.790312,0.0746541,-15.3427,0.0731768,
2,0,0,1,0,62247.9,0.0720124,0.0716269,-5.25123,32,0.00613504,10,-0.000376129,-2.27974,0.80391,0.0733913,-15.0259,0.0716269,
2,0,0,1,0,62247.9,0.0705129,0.0701231,-5.22684,32,0.00600374,10,-0.000366522,-2.28176,0.803125,0.0734631,-14.9741,0.0701231,
2,0,0,1,0,62247.9,0.0690187,0.068661,-5.20149,32,0.0058735,10,-0.00035714,-2.28387,0.9033,0.065316,-13.279,0.068661,
2,0,0,1,0,62247.9,0.0675179,0.0671498,-5.18256,32,0.0057433,10,-0.000348008,-2.28546,1.06123,0.0555961,-11.2546,0.0671498,
2,0,0,1,0,62248,0.066017,0.0656394,-5.17088,32,0.00561351,10,-0.000339414,-2.28644,0.896319,0.0658248,-13.2639,0.0656394,
2,0,0,1,0,62248,0.0645242,0.0641955,-5.15336,32,0.00548463,10,-0.000330823,-2.28791,0.953387,0.0618846,-12.4233,0.0641955,
2,0,0,1,0,62248,0.0630246,0.0626605,-5.12868,32,0.00535571,10,-0.000321366,-2.28999,0.945323,0.0624126,-12.5,0.0626605,
2,0,0,1,0,62248,0.0615251,0.0611735,-5.10381,32,0.00522735,10,-0.000312218,-2.29211,0.848021,0.0695737,-13.8853,0.0611735,
2,0,0,1,0,62248.1,0.0600256,0.0596857,-5.09012,32,0.00509946,10,-0.000303807,-2.29327,0.91687,0.0643494,-12.7841,0.0596857,
2,0,0,1,0,62248.1,0.0585314,0.058169,-5.07572,32,0.00497249,10,-0.000295249,-2.2945,0.896751,0.065793,-13.016,0.058169,
2,0,0,1,0,62248.1,0.0570305,0.0566571,-5.04937,32,0.00484554,10,-0.000286083,-2.29676,0.901386,0.0654547,-12.9012,0.0566571,
2,0,0,1,0,62248.1,0.0555297,0.0551932,-5.02707,32,0.00471917,10,-0.00027746,-2.29869,0.761055,0.077524,-15.2254,0.0551932,
2,0,0,1,0,62248.2,0.0540355,0.0536822,-5.00731,32,0.00459383,10,-0.000268804,-2.3004,0.815938,0.0723094,-14.1336,0.0536822,
2,0,0,1,0,62248.2,0.052536,0.0521852,-4.99367,32,0.00446844,10,-0.000260596,-2.30158,0.896599,0.0658042,-12.8004,0.0521852,
2,0,0,1,0,62248.2,0.0510364,0.0506528,-4.96259,32,0.00434361,10,-0.000251369,-2.30429,0.732549,0.0805407,-15.6057,0.0506528,
2,0,0,1,0,62248.2,0.0495369,0.0491619,-4.93783,32,0.00421941,10,-0.000242753,-2.30646,0.707729,0.0833653,-16.083,0.0491619,
2,0,0,1,0,62248.3,0.0480427,0.0477097,-4.91754,32,0.0040963,10,-0.000234614,-2.30825,0.720753,0.0818588,-15.7082,0.04770967,
2,0,0,1,0,62248.3,0.0465432,0.046203,-4.89372,32,0.00397327,10,-0.000226105,-2.31036,0.724699,0.0814131,-15.5431,0.046203,
2,0,0,1,0,62248.3,0.0450424,0.0447125,-4.86896,32,0.00385084,10,-0.000217703,-2.31256,0.780357,0.0756065,-14.3646,0.0447125,
2,0,0,1,0,62248.3,0.0435482,0.0431912,-4.83713,32,0.00372955,10,-0.000208921,-2.31541,0.617313,0.0955755,-18.0686,0.04319118,
2,0,0,1,0,62248.4,0.0420486,0.0417153,-4.81648,32,0.00360845,10,-0.000200921,-2.31727,0.618373,0.0954117,-17.9419,0.0417153,
2,0,0,1,0,62248.4,0.0405491,0.0402187,-4.79281,32,0.00348796,10,-0.000192761,-2.31941,0.650055,0.0907616,-16.962,0.0402187,
2,0,0,1,0,62248.4,0.0390549,0.0386841,-4.76595,32,0.00336853,10,-0.000184367,-2.32185,0.622568,0.0947688,-17.6085,0.0386841,
2,0,0,1,0,62248.4,0.0375541,0.03717,-4.73113,32,0.00324936,10,-0.000175856,-2.32503,0.503155,0.11726,-21.6824,0.03717,
2,0,0,1,0,62248.5,0.0360532,0.0356696,-4.70755,32,0.00313099,10,-0.000167916,-2.32721,0.493823,0.119476,-21.9448,0.0356696,
2,0,0,1,0,62248.5,0.034559,0.0342062,-4.67813,32,0.00301379,10,-0.000160021,-2.32993,0.564577,0.104503,-19.0603,0.0342062,
2,0,0,1,0,62248.5,0.0330595,0.0327048,-4.64608,32,0.00289685,10,-0.000151949,-2.33291,0.56912,0.103669,-18.7946,0.0327048,
2,0,0,1,0,62248.5,0.0315613,0.0312041,-4.61308,32,0.0027807,10,-0.000143947,-2.33601,0.480731,0.12273,-22.0994,0.0312041,
2,0,0,1,0,62248.6,0.0300618,0.0297256,-4.58148,32,0.00266541,10,-0.000136187,-2.33899,0.461372,0.12788,-22.8588,0.0297256,
2,0,0,1,0,62248.6,0.0285676,0.0281625,-4.54825,32,0.00255139,10,-0.00012809,-2.34216,0.512101,0.115212,-20.4402,0.0281625,
2,0,0,1,0,62248.6,0.0270667,0.0267041,-4.51949,32,0.00243766,10,-0.000120689,-2.34491,0.539282,0.109405,-19.2896,0.0267041,
2,0,0,1,0,62248.6,0.0255659,0.0252283,-4.47836,32,0.00232476,10,-0.000112981,-2.34888,0.431235,0.136816,-23.9322,0.0252283,
2,0,0,1,0,62248.7,0.0240717,0.0237649,-4.44421,32,0.00221318,10,-0.000105616,-2.35221,0.424559,0.138968,-24.135,0.0237649,
2,0,0,1,0,62248.7,0.0225722,0.0221861,-4.41793,32,0.00210199,10,-9.80166e-05,-2.35478,0.481464,0.122543,-21.1098,0.0221861,
2,0,0,1,0,62248.7,0.0210726,0.0207156,-4.38634,32,0.00199159,10,-9.08657e-05,-2.3579,0.504253,0.117005,-20.0212,0.0207156,
2,0,0,1,0,62248.7,0.0195784,0.0192367,-4.34824,32,0.00188244,10,-8.36457e-05,-2.36169,0.481726,0.122476,-20.8055,0.0192367,
2,0,0,1,0,62248.8,0.0180789,0.0176939,-4.3202,32,0.00177368,10,-7.6441e-05,-2.3645,0.43964,0.134201,-22.6194,0.0176939,
2,0,0,1,0,62248.8,0.0165781,0.0162043,-4.29465,32,0.00166571,10,-6.95917e-05,-2.36707,0.532228,0.110855,-18.5519,0.0162043,
2,0,0,1,0,62248.8,0.0150839,0.0147779,-4.25964,32,0.00155892,10,-6.29485e-05,-2.37063,0.554647,0.106374,-17.6781,0.0147779,
2,0,0,1,0,62248.8,0.0135844,0.0131957,-4.22774,32,0.00145236,10,-5.57881e-05,-2.37389,0.475917,0.123971,-20.464,0.01319572,
2,0,0,1,0,62248.9,0.0120848,0.0117275,-4.20191,32,0.00134653,10,-4.92781e-05,-2.37655,0.462262,0.127633,-20.9392,0.0117275,
2,0,0,1,0,62248.9,0.0105853,0.0102524,-4.17747,32,0.00124147,10,-4.28291e-05,-2.37909,0.527625,0.111822,-18.2336,0.0102524,
2,0,0,1,0,62248.9,0.00909108,0.00870348,-4.14946,32,0.00113745,10,-3.61147e-05,-2.38201,0.641675,0.0919469,-14.8882,0.00870348,
2,0,0,1,0,62248.9,0.00759027,0.00725736,-4.12081,32,0.00103359,10,-2.99062e-05,-2.38502,0.590403,0.0999318,-16.0991,0.00725736,
2,0,0,1,0,62249,0.00608945,0.00572134,-4.10731,32,0.000930327,10,-2.34993e-05,-2.38644,0.54076,0.109106,-17.4634,0.00572134,
2,0,0,1,0,62249,0.00459524,0.00425383,-4.08222,32,0.000828063,10,-1.7365e-05,-2.3891,0.680535,0.0866965,-13.8138,0.004253827,
2,0,0,1,0,62249,0.0030957,0.00275289,-4.06499,32,0.000725933,10,-1.11905e-05,-2.39094,1.54041,0.0383015,-6.08293,0.00275289,
2,0,0,1,0,62249,0.00159616,0.00118928,-4.06393,32,0.000623872,10,-4.83315e-06,-2.39105, , , ,0.00118928,
2,0,0,1,0,62249.1,0.000199195,-0.000264244,-4.03783,32,0.00052906,10,1.06697e-06,-2.39385, , , ,-0.000264244,