File: Figure_codes/Fig_3-5/rawdata_trumpetplot_data/after 10th/20221101_1-115_003_TrumpetPlot_ParaChange_from10_every3_07_CV_C01_15.csv
mode,ox/red,error,control changes,counter inc.,time/s,control/V,Ewe/V,<I>/mA,cycle number,(Q-Qo)/C,I Range,P/W,log(|I|),Tafel slope mV/dec,alpha_eff,dI/d(E-IR),E-IR/V,
2,0,0,0,0,30717,2.44065e-05,-0.000382585,-2.72557,16,0.0000000E+000,10,1.04276e-06,-2.56454, , , ,-0.000382585,
2,0,0,1,0,30717,0.0013005,0.000984167,-1.28396,16,-3.96678e-05,10,-1.26363e-06,-2.89145, , , ,0.000984167,
2,0,0,1,0,30717,0.00279471,0.00244337,-0.289563,16,-5.794e-05,10,-7.0751e-07,-3.53826,-0.0074849,-7.88253,565.213,0.00244337,
2,1,0,1,0,30717,0.00429425,0.00398325,0.342747,16,-5.63214e-05,10,1.36525e-06,-3.46503,0.019547,3.01836,367.007,0.00398325,
2,1,0,1,0,30717.1,0.00579379,0.00546897,0.790861,16,-4.13992e-05,10,4.3252e-06,-3.1019,0.00449141,13.1362,265.287,0.00546897,
2,1,0,1,0,30717.1,0.007288,0.00698311,1.11531,16,-1.70796e-05,10,7.7883e-06,-2.95261,0.0116742,5.05386,196.965,0.00698311,
2,1,0,1,0,30717.1,0.00878882,0.00844254,1.36812,16,1.45771e-05,10,1.15504e-05,-2.86388,0.0195471,3.01835,153.109,0.00844254,
2,1,0,1,0,30717.1,0.0102896,0.00995068,1.5716,16,5.18813e-05,10,1.56385e-05,-2.80366,0.0288764,2.04319,121.294,0.00995068,
2,1,0,1,0,30717.2,0.0117838,0.0114521,1.73532,16,9.34672e-05,10,1.9873e-05,-2.76062,0.040217,1.46704,97.2108,0.0114521,
2,1,0,1,0,30717.2,0.0132834,0.0129602,1.86794,16,0.000138798,10,2.42089e-05,-2.72864,0.0510964,1.15468,83.025,0.0129602,
2,1,0,1,0,30717.2,0.0147816,0.0144178,1.97181,16,0.000187215,10,2.84292e-05,-2.70514,0.063045,0.93584,71.6602,0.0144178,
2,1,0,1,0,30717.2,0.0162811,0.0159409,2.07174,16,0.000238321,10,3.30255e-05,-2.68366,0.0767464,0.768766,61.9359,0.0159409,
2,1,0,1,0,30717.3,0.0177753,0.0174497,2.16339,16,0.000291548,10,3.77507e-05,-2.66486,0.0891333,0.66193,55.6064,0.0174497,
2,1,0,1,0,30717.3,0.0192761,0.018919,2.24487,16,0.000346985,10,4.24707e-05,-2.64881,0.102014,0.578354,50.4261,0.018919,
2,1,0,1,0,30717.3,0.020777,0.0204266,2.31147,16,0.000404356,10,4.72154e-05,-2.63611,0.108029,0.54615,49.1797,0.0204266,
2,1,0,1,0,30717.3,0.0222712,0.0219578,2.3843,16,0.000463252,10,5.23541e-05,-2.62264,0.127356,0.463269,43.0146,0.0219578,
2,1,0,1,0,30717.4,0.0237707,0.0234345,2.44718,16,0.000524059,10,5.73485e-05,-2.61133,0.138892,0.424791,40.5007,0.0234345,
2,1,0,1,0,30717.4,0.0252703,0.0249378,2.50711,16,0.000586352,10,6.25217e-05,-2.60083,0.142384,0.414373,40.5149,0.0249378,
2,1,0,1,0,30717.4,0.0267645,0.0265074,2.56397,16,0.000649873,10,6.79643e-05,-2.59109,0.145136,0.406516,40.6932,0.0265074,
2,1,0,1,0,30717.4,0.0282653,0.027953,2.62637,16,0.000715141,10,7.34152e-05,-2.58064,0.159256,0.370473,37.9152,0.027953,
2,1,0,1,0,30717.5,0.0297648,0.0294961,2.6856,16,0.000781847,10,7.92146e-05,-2.57096,0.177786,0.331859,34.652,0.0294961,
2,1,0,1,0,30717.5,0.031259,0.0309294,2.73737,16,0.000849704,10,8.46651e-05,-2.56267,0.165575,0.356333,37.9509,0.0309294,
2,1,0,1,0,30717.5,0.0327585,0.032451,2.78555,16,0.000919111,10,9.03937e-05,-2.55509,0.178053,0.331362,36.1103,0.032451,
2,1,0,1,0,30717.5,0.034258,0.0339547,2.84151,16,0.000989911,10,9.64828e-05,-2.54645,0.189475,0.311387,34.5468,0.0339547,
2,1,0,1,0,30717.6,0.0357576,0.0354293,2.90037,16,0.00106207,10,0.000102758,-2.53755,0.194767,0.302926,34.2097,0.0354293,
2,1,0,1,0,30717.6,0.0372518,0.0369314,2.95059,16,0.00113527,10,0.000108969,-2.53009,0.194823,0.302839,34.8293,0.0369314,
2,1,0,1,0,30717.6,0.0387526,0.0384129,2.99707,16,0.00121,10,0.000115126,-2.5233,0.190974,0.308943,36.2113,0.0384129,
2,1,0,1,0,30717.6,0.0402534,0.0399195,3.05324,16,0.00128602,10,0.000121884,-2.51524,0.20422,0.288904,34.4188,0.0399195,
2,1,0,1,0,30717.7,0.0417476,0.0414449,3.10751,16,0.00136312,10,0.000128791,-2.50759,0.214484,0.275078,33.2897,0.0414449,
2,1,0,1,0,30717.7,0.0432472,0.0429105,3.16169,16,0.00144185,10,0.00013567,-2.50008,0.211829,0.278526,34.329,0.0429105,
2,1,0,1,0,30717.7,0.0447467,0.0444027,3.20164,16,0.00152178,10,0.000142161,-2.49463,0.209483,0.281646,35.3057,0.0444027,
2,1,0,1,0,30717.7,0.0462463,0.0459217,3.25892,16,0.00160299,10,0.000149655,-2.48693,0.226052,0.261002,33.2115,0.0459217,
2,1,0,1,0,30717.8,0.0477391,0.0474025,3.31168,16,0.00168515,10,0.000156982,-2.47995,0.224074,0.263306,33.9764,0.0474025,
2,1,0,1,0,30717.8,0.0492399,0.0488986,3.35954,16,0.00176892,10,0.000164277,-2.47372,0.233989,0.252149,33.0058,0.0488986,
2,1,0,1,0,30717.8,0.0507408,0.0503781,3.40513,16,0.00185389,10,0.000171544,-2.46787,0.233187,0.253016,33.6713,0.0503781,
2,1,0,1,0,30717.8,0.052235,0.0519342,3.45648,16,0.00193968,10,0.000179509,-2.46137,0.239733,0.246107,33.2025,0.0519342,
2,1,0,1,0,30717.9,0.0537345,0.0534207,3.50725,16,0.00202709,10,0.00018736,-2.45503,0.252422,0.233736,31.9316,0.0534207,
2,1,0,1,0,30717.9,0.0552341,0.0549092,3.55492,16,0.00211573,10,0.000195198,-2.44917,0.26114,0.225932,31.3014,0.05490924,
2,1,0,1,0,30717.9,0.0567283,0.0563843,3.59574,16,0.00220519,10,0.000202743,-2.44421,0.259389,0.227457,31.9446,0.0563843,
2,1,0,1,0,30717.9,0.0582291,0.0578727,3.64285,16,0.00229607,10,0.000210821,-2.43856,0.280704,0.210186,29.9086,0.0578727,
2,1,0,1,0,30718,0.0597299,0.0594464,3.697,16,0.00238817,10,0.000219773,-2.43215,0.280559,0.210294,30.259,0.0594464,
2,1,0,1,0,30718,0.0612228,0.0609122,3.74035,16,0.00248107,10,0.000227833,-2.42709,0.296101,0.199256,29.0168,0.0609122,
2,1,0,1,0,30718,0.0627223,0.0624389,3.77681,16,0.00257542,10,0.00023582,-2.42288,0.289975,0.203466,30.0069,0.0624389,
2,1,0,1,0,30718,0.0642218,0.0639045,3.81482,16,0.00267082,10,0.000243784,-2.41853,0.307845,0.191655,28.6148,0.0639045,
2,1,0,1,0,30718.1,0.0657214,0.0654346,3.86678,16,0.00276732,10,0.000253021,-2.41265,0.314227,0.187763,28.3174,0.0654346,
2,1,0,1,0,30718.1,0.0672156,0.06691,3.91426,16,0.00286457,10,0.000261903,-2.40735,0.31782,0.18564,28.2951,0.06691,
2,1,0,1,0,30718.1,0.0687164,0.0683878,3.94686,16,0.00296325,10,0.000269917,-2.40375,0.340767,0.173139,26.6778,0.0683878,
2,1,0,1,0,30718.1,0.0702172,0.0698992,3.98572,16,0.00306285,10,0.000278598,-2.39949,0.387815,0.152135,23.6935,0.0698992,
2,1,0,1,0,30718.2,0.0717114,0.0713999,4.02885,16,0.00316304,10,0.000287659,-2.39482,0.361792,0.163077,25.6148,0.0713999,
2,1,0,1,0,30718.2,0.073211,0.0728699,4.0744,16,0.00326465,10,0.000296901,-2.38994,0.356323,0.16558,26.2705,0.0728699,
2,1,0,1,0,30718.2,0.0747105,0.0744147,4.10247,16,0.00336719,10,0.000305284,-2.38695,0.380884,0.154903,24.8152,0.0744147,
2,1,0,1,0,30718.2,0.0762101,0.0758921,4.13168,16,0.00347059,10,0.000313562,-2.38387,0.437734,0.134785,21.7799,0.0758921,
2,1,0,1,0,30718.3,0.0777042,0.0773912,4.17419,16,0.00357442,10,0.000323046,-2.37943,0.432186,0.136515,22.2321,0.0773912,
2,1,0,1,0,30718.3,0.0792037,0.0788853,4.20783,16,0.00367955,10,0.000331936,-2.37594,0.40035,0.147371,24.1734,0.0788853,
2,1,0,1,0,30718.3,0.0807046,0.0803954,4.24021,16,0.00378557,10,0.000340893,-2.37261,0.441609,0.133602,22.0828,0.08039543,
2,1,0,1,0,30718.3,0.0821988,0.081853,4.26661,16,0.00389191,10,0.000349235,-2.36992,0.541419,0.108973,18.1595,0.081853,
2,1,0,1,0,30718.4,0.0836983,0.0833602,4.29905,16,0.00399937,10,0.00035837,-2.36663,0.529069,0.111517,18.7217,0.0833602,
2,1,0,1,0,30718.4,0.0851979,0.0848668,4.3337,16,0.00410763,10,0.000367787,-2.36314,0.467821,0.126117,21.3001,0.0848668,
2,1,0,1,0,30718.4,0.0866921,0.0863605,4.35943,16,0.00421624,10,0.000376483,-2.36057,0.483864,0.121935,20.7532,0.0863605,
2,1,0,1,0,30718.4,0.0881929,0.0878523,4.38362,16,0.00432602,10,0.000385111,-2.35817,0.515777,0.114391,19.6174,0.0878523,
2,1,0,1,0,30718.5,0.0896937,0.0893665,4.42296,16,0.00443649,10,0.000395265,-2.35429,0.464837,0.126926,21.9148,0.0893665,
2,1,0,1,0,30718.5,0.0911879,0.0908703,4.46,16,0.0045474,10,0.000405281,-2.35067,0.402446,0.146604,25.4716,0.0908703,
2,1,0,1,0,30718.5,0.0926861,0.0923735,4.49478,16,0.00465971,10,0.000415199,-2.34729,0.39592,0.14902,26.1411,0.0923735,
2,1,0,1,0,30718.5,0.0941856,0.0938701,4.52712,16,0.00477291,10,0.000424961,-2.34418,0.44123,0.133717,23.6687,0.0938701,
2,1,0,1,0,30718.6,0.0956852,0.0953553,4.56216,16,0.004887,10,0.000435026,-2.34083,0.413037,0.142844,25.4873,0.0953553,
2,1,0,1,0,30718.6,0.0971794,0.0968457,4.61444,16,0.00500164,10,0.000446889,-2.33588,0.350515,0.168324,30.2845,0.0968457,
2,1,0,1,0,30718.6,0.0986802,0.0983282,4.65848,16,0.00511792,10,0.00045806,-2.33176,0.315432,0.187045,34.0336,0.0983282,
2,1,0,1,0,30718.6,0.100181,0.0998507,4.7044,16,0.00523538,10,0.000469738,-2.3275,0.316394,0.186476,34.3035,0.0998507,
2,1,0,1,0,30718.7,0.101675,0.101337,4.76644,16,0.00535371,10,0.000483019,-2.32181,0.288315,0.204637,38.102,0.101337,
2,1,0,1,0,30718.7,0.103175,0.102886,4.83216,16,0.00547399,10,0.000497161,-2.31586,0.25348,0.23276,43.8974,0.102886,
2,1,0,1,0,30718.7,0.104674,0.104349,4.8974,16,0.00559598,10,0.000511041,-2.31003,0.232323,0.253956,48.5695,0.104349,
2,1,0,1,0,30718.7,0.106169,0.105859,4.9643,16,0.0057192,10,0.000525516,-2.30414,0.24863,0.237301,46.0299,0.105859,
2,1,0,1,0,30718.8,0.107668,0.10733,5.03785,16,0.00584468,10,0.000540712,-2.29775,0.245579,0.240248,47.2737,0.1073299,
2,1,0,1,0,30718.8,0.109169,0.108829,5.11878,16,0.00597193,10,0.000557072,-2.29083,0.220672,0.267365,53.3598,0.108829,
2,1,0,1,0,30718.8,0.110663,0.11034,5.1919,16,0.00610065,10,0.000572876,-2.28467,0.213778,0.275987,55.9343,0.11034,
2,1,0,1,0,30718.8,0.112163,0.111827,5.26846,16,0.00623186,10,0.000589155,-2.27832,0.232139,0.254158,52.2932,0.111827,
2,1,0,1,0,30718.9,0.113662,0.113353,5.35379,16,0.00636507,10,0.000606865,-2.27134,0.252199,0.233942,48.8512,0.113353,
2,1,0,1,0,30718.9,0.115162,0.11485,5.4337,16,0.00650021,10,0.000624059,-2.2649,0.239059,0.246801,52.2732,0.1148496,
2,1,0,1,0,30718.9,0.116656,0.116387,5.50292,16,0.00663672,10,0.000640469,-2.25941,0.240549,0.245272,52.6924,0.116387,
2,1,0,1,0,30718.9,0.118157,0.117852,5.58344,16,0.00677575,10,0.000658018,-2.2531,0.257002,0.22957,49.9932,0.117852,
2,1,0,1,0,30719,0.119657,0.119326,5.65827,16,0.00691664,10,0.000675179,-2.24732,0.306409,0.192553,42.4346,0.119326,
2,1,0,1,0,30719,0.121152,0.120817,5.71859,16,0.00705863,10,0.000690904,-2.24271,0.316554,0.186382,41.5673,0.120817,
2,1,0,1,0,30719,0.122651,0.122327,5.77893,16,0.00720275,10,0.000706918,-2.23815,0.3155,0.187005,42.1698,0.122327,
2,1,0,1,0,30719,0.124151,0.123835,5.8329,16,0.00734838,10,0.00072232,-2.23412,0.362758,0.162643,37.071,0.123835,
2,1,0,1,0,30719.1,0.125649,0.125338,5.89473,16,0.00749543,10,0.000738836,-2.22954,0.413615,0.142645,32.7865,0.125338,
2,1,0,1,0,30719.1,0.127143,0.126813,5.94061,16,0.00764316,10,0.000753346,-2.22617,0.443274,0.133101,30.8201,0.126813,
2,1,0,1,0,30719.1,0.128644,0.128304,5.98332,16,0.00779254,10,0.000767683,-2.22306,0.435024,0.135625,31.6702,0.128304,
2,1,0,1,0,30719.1,0.130145,0.129844,6.02432,16,0.00794308,10,0.00078222,-2.22009,0.496815,0.118757,27.9141,0.129844,
2,1,0,1,0,30719.2,0.131639,0.131301,6.06691,16,0.00809407,10,0.000796594,-2.21703,0.624255,0.0945126,22.3599,0.131301,
2,1,0,1,0,30719.2,0.133139,0.132812,6.1059,16,0.00824663,10,0.000810936,-2.21425,0.608862,0.0969021,23.0789,0.132812,
2,1,0,1,0,30719.2,0.134638,0.134301,6.13716,16,0.00839998,10,0.000824227,-2.21203,0.601947,0.0980153,23.4793,0.134301,
2,1,0,1,0,30719.2,0.136132,0.13583,6.16389,16,0.0085536,10,0.000837242,-2.21014,0.688534,0.0856893,20.6173,0.13583,
2,1,0,1,0,30719.3,0.137633,0.137337,6.19884,16,0.00870858,10,0.000851329,-2.20769,1.01321,0.0582309,14.0704,0.137337,
2,1,0,1,0,30719.3,0.139133,0.13885,6.22255,16,0.00886417,10,0.000863998,-2.20603,1.2038,0.0490113,11.8784,0.13885,
2,1,0,1,0,30719.3,0.140627,0.140305,6.23093,16,0.00901956,10,0.000874231,-2.20545,1.61962,0.0364283,8.84554,0.140305,
2,1,0,1,0,30719.3,0.142126,0.141831,6.23437,16,0.00917579,10,0.000884224,-2.20521,11.8935,0.00496068,1.20545,0.141831,
2,1,0,1,0,30719.4,0.143626,0.143329,6.23452,16,0.0093321,10,0.000893591,-2.2052,-1.39635,-0.0422532,-10.2507,0.143329,
2,1,0,1,0,30719.4,0.145125,0.14489,6.21172,16,0.00948808,10,0.000900014,-2.20679,-0.584684,-0.100909,-24.3786,0.1448897,
2,1,0,1,0,30719.4,0.14662,0.146291,6.16307,16,0.00964254,10,0.000901602,-2.2102,-0.398743,-0.147965,-35.4967,0.146291,
2,1,0,1,0,30719.4,0.14812,0.147797,6.09574,16,0.00979621,10,0.000900929,-2.21497,-0.272453,-0.216551,-51.3751,0.147797,
2,1,0,1,0,30719.5,0.149621,0.149264,6.01105,16,0.009948,10,0.000897237,-2.22105,-0.207822,-0.283896,-66.3787,0.149264,
2,1,0,1,0,30719.5,0.151116,0.150756,5.91138,16,0.0100968,10,0.000891177,-2.22831,-0.166982,-0.353332,-81.004,0.1507562,
2,1,0,1,0,30719.5,0.152615,0.152271,5.76728,16,0.0102431,10,0.00087819,-2.23903,-0.139496,-0.422953,-94.8664,0.152271,
2,1,0,1,0,30719.5,0.154115,0.153777,5.60741,16,0.0103857,10,0.000862292,-2.25124,-0.11878,-0.496715,-108.56,0.153777,
2,1,0,1,0,30719.6,0.155614,0.155307,5.44044,16,0.0105243,10,0.000844937,-2.26437,-0.104683,-0.563604,-119.403,0.155307,
2,1,0,1,0,30719.6,0.157107,0.156827,5.26121,16,0.0106579,10,0.000825098,-2.27891,-0.0956747,-0.616673,-126.118,0.156827,
2,1,0,1,0,30719.6,0.158608,0.158269,5.06142,16,0.0107872,10,0.000801065,-2.29573,-0.09036,-0.652944,-128.777,0.158269,
2,1,0,1,0,30719.6,0.160109,0.15979,4.8558,16,0.0109115,10,0.000775907,-2.31374,-0.0847758,-0.695954,-132.02,0.15979,
2,1,0,1,0,30719.7,0.161603,0.161272,4.66359,16,0.0110304,10,0.000752107,-2.33128,-0.0825085,-0.715078,-130.149,0.161272,
2,1,0,1,0,30719.7,0.163102,0.162819,4.48133,16,0.011145,10,0.000729644,-2.34859,-0.0845559,-0.697763,-121.923,0.1628186,
2,1,0,1,0,30719.7,0.164602,0.164248,4.29766,16,0.0112551,10,0.00070588,-2.36677,-0.0868097,-0.679648,-114.173,0.164248,
2,1,0,1,0,30719.7,0.166096,0.165775,4.12828,16,0.0113604,10,0.000684365,-2.38423,-0.0902416,-0.6538,-105.735,0.165775,
2,1,0,1,0,30719.8,0.167597,0.167276,3.98179,16,0.0114621,10,0.000666058,-2.39992,-0.0946701,-0.623217,-97.0901,0.167276,
2,1,0,1,0,30719.8,0.169098,0.168798,3.85111,16,0.0115603,10,0.000650058,-2.41441,-0.101677,-0.580269,-87.1721,0.1687976,
2,1,0,1,0,30719.8,0.170592,0.170264,3.72189,16,0.0116548,10,0.000633703,-2.42924,-0.106343,-0.554808,-80.6901,0.170264,
2,1,0,1,0,30719.8,0.17209,0.171797,3.5989,16,0.0117467,10,0.00061828,-2.44383,-0.115009,-0.513001,-72.3992,0.171797,
2,1,0,1,0,30719.9,0.17359,0.173284,3.49798,16,0.0118358,10,0.000606144,-2.45618,-0.123598,-0.477353,-65.3984,0.173284,
2,1,0,1,0,30719.9,0.175089,0.174707,3.41436,16,0.0119226,10,0.000596511,-2.46669,-0.134847,-0.437534,-58.3011,0.174707,
2,1,0,1,0,30719.9,0.176583,0.176268,3.32985,16,0.0120068,10,0.000586944,-2.47758,-0.144988,-0.406929,-52.9198,0.176268,
2,1,0,1,0,30719.9,0.178084,0.177748,3.2459,16,0.0120894,10,0.000576952,-2.48866,-0.152155,-0.387762,-49.313,0.1777478,
2,1,0,1,0,30720,0.179585,0.179282,3.18098,16,0.0121702,10,0.000570292,-2.49744,-0.165354,-0.356811,-44.4282,0.179282,
2,1,0,1,0,30720,0.181079,0.180744,3.12656,16,0.0122491,10,0.000565107,-2.50493,-0.183354,-0.321782,-39.2924,0.180744,
2,1,0,1,0,30720,0.182579,0.182253,3.06924,16,0.0123268,10,0.000559377,-2.51297,-0.201215,-0.293219,-35.1438,0.1822526,
2,1,0,1,0,30720,0.184078,0.183778,3.01569,16,0.0124033,10,0.000554217,-2.52061,-0.220156,-0.267992,-31.6258,0.183778,
2,1,0,1,0,30720.1,0.185578,0.185251,2.97125,16,0.0124785,10,0.000550426,-2.52706,-0.229305,-0.2573,-29.9016,0.185251,
2,1,0,1,0,30720.1,0.187072,0.186737,2.93678,16,0.0125524,10,0.000548407,-2.53213,-0.278391,-0.211932,-24.2726,0.186737,
2,1,0,1,0,30720.1,0.188573,0.188281,2.89768,16,0.0126257,10,0.00054558,-2.53795,-0.303911,-0.194136,-21.95,0.188281,
2,1,0,1,0,30720.1,0.190072,0.189732,2.86074,16,0.0126981,10,0.000542774,-2.54352,-0.286432,-0.205983,-23.0565,0.189732,
2,1,0,1,0,30720.2,0.191567,0.191211,2.82953,16,0.0127693,10,0.000541037,-2.54829,-0.307865,-0.191642,-21.1992,0.191211,
2,1,0,1,0,30720.2,0.193066,0.192782,2.80356,16,0.0128401,10,0.000540475,-2.55229,-0.408419,-0.14446,-15.8183,0.192782,
2,1,0,1,0,30720.2,0.194566,0.194273,2.78541,16,0.0129103,10,0.000541128,-2.55511,-0.438975,-0.134404,-14.5873,0.1942727,
2,1,0,1,0,30720.2,0.19606,0.195779,2.75207,16,0.0129797,10,0.000538797,-2.56034,-0.398097,-0.148205,-15.9599,0.195779,
2,1,0,1,0,30720.3,0.197561,0.197217,2.72984,16,0.0130486,10,0.000538372,-2.56386,-0.370556,-0.15922,-17.0194,0.197217,
2,1,0,1,0,30720.3,0.199062,0.198716,2.71603,16,0.013117,10,0.00053972,-2.56606,-0.466759,-0.126404,-13.386,0.198716,
2,1,0,1,0,30720.3,0.200556,0.200248,2.69539,16,0.0131847,10,0.000539746,-2.56938,-0.612372,-0.0963466,-10.1135,0.200248,
2,1,0,1,0,30720.3,0.202055,0.201782,2.67368,16,0.0132522,10,0.0005395,-2.57289,-0.617257,-0.0955842,-9.98308,0.201782,
2,1,0,1,0,30720.4,0.203553,0.203242,2.65472,16,0.0133193,10,0.00053955,-2.57598,-0.514222,-0.114736,-11.9187,0.203242,
2,1,0,1,0,30720.4,0.205053,0.204705,2.6469,16,0.013386,10,0.000541834,-2.57726,-0.735008,-0.0802712,-8.29763,0.204705,
2,1,0,1,0,30720.4,0.206547,0.206215,2.62697,16,0.013452,10,0.000541721,-2.58054,-0.953682,-0.0618655,-6.3591,0.206215,
2,1,0,1,0,30720.4,0.208048,0.207777,2.62102,16,0.0135181,10,0.000544588,-2.58153,-0.743244,-0.0793817,-8.11774,0.207777,
2,1,0,1,0,30720.5,0.209549,0.209247,2.61145,16,0.0135839,10,0.00054644,-2.58312,-0.496243,-0.118893,-12.0986,0.209247,
2,1,0,1,0,30720.5,0.211043,0.210738,2.59773,16,0.013649,10,0.00054744,-2.58541,-0.613945,-0.0960998,-9.72894,0.210738,
2,1,0,1,0,30720.5,0.212543,0.212191,2.58513,16,0.0137141,10,0.000548541,-2.58752,-1.06749,-0.0552701,-5.56806,0.212191,
2,1,0,1,0,30720.5,0.214042,0.213738,2.57243,16,0.013779,10,0.000549824,-2.58966,-0.937151,-0.0629568,-6.33279,0.213738,
2,1,0,1,0,30720.6,0.215536,0.215227,2.56334,16,0.0138433,10,0.0005517,-2.59119,-0.615109,-0.0959179,-9.60037,0.2152275,
2,1,0,1,0,30720.6,0.217036,0.216726,2.55383,16,0.0139077,10,0.000553482,-2.59281,-0.806279,-0.0731756,-7.29053,0.216726,
2,1,0,1,0,30720.6,0.218537,0.218259,2.54301,16,0.0139717,10,0.000555035,-2.59465,-1.5715,-0.0375438,-3.72918,0.218259,
2,1,0,1,0,30720.6,0.220031,0.219748,2.53767,16,0.0140354,10,0.000557646,-2.59557,-1.48632,-0.0396953,-3.93327,0.219748,
2,1,0,1,0,30720.7,0.22153,0.221254,2.53127,16,0.0140992,10,0.000560054,-2.59666,-0.780121,-0.0756293,-7.477,0.221254,
2,1,0,1,0,30720.7,0.22303,0.222726,2.52043,16,0.0141628,10,0.000561367,-2.59852,-1.03753,-0.0568658,-5.60036,0.222726,
2,1,0,1,0,30720.7,0.224529,0.22418,2.51681,16,0.014226,10,0.000564218,-2.59915,-1.32908,-0.0443915,-4.35872,0.22418,
2,1,0,1,0,30720.7,0.226024,0.22572,2.5065,16,0.014289,10,0.000565766,-2.60093,-2.93586,-0.0200964,-1.96902,0.22572,
2,1,0,1,0,30720.8,0.227525,0.227239,2.49888,16,0.014352,10,0.000567842,-2.60226,-0.806746,-0.0731333,-7.1434,0.227239,
2,1,0,1,0,30720.8,0.229025,0.228699,2.49592,16,0.0144148,10,0.000570814,-2.60277,-0.977749,-0.0603427,-5.87414,0.228699,
2,1,0,1,0,30720.8,0.23052,0.230188,2.48924,16,0.0144772,10,0.000572993,-2.60393,-2.53415,-0.023282,-2.26217,0.230188,
2,1,0,1,0,30720.8,0.232019,0.231711,2.4808,16,0.0145397,10,0.00057483,-2.60541,-5.68863,-0.0103716,-1.00588,0.231711,
2,1,0,1,0,30720.9,0.233519,0.233213,2.47966,16,0.0146021,10,0.00057829,-2.60561,-1.27926,-0.0461204,-4.46173,0.233213,
2,1,0,1,0,30720.9,0.235018,0.234741,2.47912,16,0.0146644,10,0.00058195,-2.6057,-1.18493,-0.049792,-4.80143,0.234741,
2,1,0,1,0,30720.9,0.236511,0.236235,2.46646,16,0.0147262,10,0.000582664,-2.60793,-1.82907,-0.0322568,-3.10269,0.236235,
2,1,0,1,0,30720.9,0.238012,0.237739,2.45998,16,0.0147882,10,0.000584834,-2.60907,-2.83509,-0.0208106,-1.99865,0.237739,
2,1,0,1,0,30721,0.239513,0.2392,2.45575,16,0.01485,10,0.000587414,-2.60982,-1.23009,-0.0479642,-4.5961,0.2392,
2,1,0,1,0,30721,0.241007,0.240695,2.45344,16,0.0149115,10,0.000590529,-2.61023,-1.24027,-0.0475704,-4.54647,0.240695,
2,1,0,1,0,30721,0.242506,0.242223,2.44604,16,0.0149731,10,0.000592487,-2.61154,-2.62876,-0.022444,-2.14307,0.242223,
2,1,0,1,0,30721,0.244006,0.243649,2.43803,16,0.0150345,10,0.000594023,-2.61296,-3.92751,-0.0150222,-1.43286,0.243649,
2,1,0,1,0,30721.1,0.2455,0.24522,2.43883,16,0.0150957,10,0.000598049,-2.61282,-1.23068,-0.0479408,-4.56811,0.24522,
2,1,0,1,0,30721.1,0.247001,0.246683,2.43894,16,0.015157,10,0.000601644,-2.6128,-1.01517,-0.0581183,-5.50819,0.2466829,
2,1,0,1,0,30721.1,0.248502,0.248157,2.42758,16,0.0152181,10,0.00060242,-2.61483,-3.39192,-0.0173943,-1.64739,0.248157,
2,1,0,1,0,30721.1,0.249995,0.24971,2.42047,16,0.0152789,10,0.000604416,-2.6161,-2.17666,-0.0271058,-2.56456,0.24971,
2,1,0,1,0,30721.2,0.251494,0.251188,2.41554,16,0.0153398,10,0.000606757,-2.61698,-1.85099,-0.0318748,-3.0148,0.251188,
2,1,0,1,0,30721.2,0.252994,0.252669,2.41904,16,0.0154006,10,0.000611218,-2.61636,-1.06774,-0.0552571,-5.20271,0.2526693,
2,1,0,1,0,30721.2,0.254493,0.254217,2.41104,16,0.0154614,10,0.000612926,-2.6178,-4.6071,-0.0128063,-1.20512,0.254217,
2,1,0,1,0,30721.2,0.255988,0.255703,2.40339,16,0.0155217,10,0.000614554,-2.61918,-4.21368,-0.014002,-1.31866,0.255703,
2,1,0,1,0,30721.3,0.257488,0.257151,2.401,16,0.0155822,10,0.000617419,-2.61961,-2.34843,-0.0251232,-2.35818,0.257151,
2,1,0,1,0,30721.3,0.258989,0.25871,2.40606,16,0.0156427,10,0.000622471,-2.61869,-1.58619,-0.037196,-3.48153,0.25871,
2,1,0,1,0,30721.3,0.260483,0.260206,2.39627,16,0.0157028,10,0.000623523,-2.62046,-2.95589,-0.0199601,-1.86578,0.260206,
2,1,0,1,0,30721.3,0.261983,0.261663,2.38899,16,0.015763,10,0.000625108,-2.62179,-2.34805,-0.0251272,-2.34535,0.261663,
2,1,0,1,0,30721.4,0.263482,0.263135,2.38747,16,0.0158231,10,0.000628229,-2.62206,-4.03514,-0.0146215,-1.36237,0.263135,
2,1,0,1,0,30721.4,0.264982,0.264675,2.38541,16,0.0158831,10,0.000631359,-2.62244,-2.28096,-0.0258664,-2.40878,0.264675,
2,1,0,1,0,30721.4,0.266476,0.266168,2.38376,16,0.0159428,10,0.00063448,-2.62274,-2.11251,-0.0279289,-2.59462,0.266168,
2,1,0,1,0,30721.4,0.267976,0.26764,2.36995,16,0.0160027,10,0.000634293,-2.62526,-9.985,-0.00590887,-0.547866,0.26764,
2,1,0,1,0,30721.5,0.269477,0.269154,2.37005,16,0.0160624,10,0.000637906,-2.62524,-2.28011,-0.025876,-2.39641,0.269154,
2,1,0,1,0,30721.5,0.270971,0.270702,2.37589,16,0.0161218,10,0.000643158,-2.62417,-2.01099,-0.0293389,-2.70758,0.270702,
2,1,0,1,0,30721.5,0.27247,0.27214,2.36781,16,0.0161814,10,0.000644376,-2.62565,-2.73958,-0.0215362,-1.98495,0.27214,
2,1,0,1,0,30721.5,0.27397,0.273673,2.35541,16,0.0162409,10,0.000644613,-2.62793,-2.3069,-0.0255754,-2.36204,0.273673,
2,1,0,1,0,30721.6,0.275464,0.275137,2.35509,16,0.0163,10,0.000647972,-2.62799,-1.35403,-0.0435737,-4.01711,0.275137,
2,1,0,1,0,30721.6,0.276965,0.276666,2.35493,16,0.0163593,10,0.000651529,-2.62802,-1.22928,-0.0479956,-4.40981,0.276666,
2,1,0,1,0,30721.6,0.278466,0.278157,2.35542,16,0.0164185,10,0.000655175,-2.62793,-1.71189,-0.0344648,-3.15669,0.278157,
2,1,0,1,0,30721.6,0.27996,0.279669,2.3454,16,0.0164774,10,0.000655937,-2.62978,-2.56304,-0.0230195,-2.1075,0.279669,
2,1,0,1,0,30721.7,0.281458,0.281144,2.34078,16,0.0165363,10,0.000658097,-2.63064,-1.59168,-0.0370677,-3.3935,0.2811442,
2,1,0,1,0,30721.7,0.282958,0.282645,2.33803,16,0.0165951,10,0.000660834,-2.63115,-1.85443,-0.0318157,-2.90063,0.282645,
2,1,0,1,0,30721.7,0.284457,0.284133,2.33694,16,0.0166539,10,0.000664002,-2.63135,71.1038,0.000829773,0.0754225,0.284133,
2,1,0,1,0,30721.7,0.285951,0.285656,2.32842,16,0.0167124,10,0.000665128,-2.63294,-2.15161,-0.0274214,-2.49376,0.285656,
2,1,0,1,0,30721.8,0.287452,0.28714,2.32082,16,0.0167709,10,0.0006664,-2.63436,-1.18042,-0.0499822,-4.54021,0.28714,
2,1,0,1,0,30721.8,0.288953,0.288631,2.32215,16,0.0168293,10,0.000670244,-2.63411,-2.42906,-0.0242892,-2.19775,0.288631,
2,1,0,1,0,30721.8,0.290447,0.290163,2.31621,16,0.0168874,10,0.00067208,-2.63522,-2.058,-0.0286685,-2.58979,0.290163,
2,1,0,1,0,30721.8,0.291947,0.291658,2.31029,16,0.0169457,10,0.000673814,-2.63633,-2.72507,-0.0216508,-1.95287,0.291658,
2,1,0,1,0,30721.9,0.293446,0.293134,2.30209,16,0.0170038,10,0.000674821,-2.63788,-1.29914,-0.0454146,-4.09304,0.293134,
2,1,0,1,0,30721.9,0.29494,0.294588,2.30565,16,0.0170616,10,0.000679217,-2.63721,-1.85864,-0.0317437,-2.85485,0.294588,
2,1,0,1,0,30721.9,0.29644,0.296148,2.30404,16,0.0171195,10,0.000682337,-2.63751,-4.05278,-0.0145579,-1.30448,0.296148,
2,1,0,1,0,30721.9,0.297941,0.29764,2.29671,16,0.0171774,10,0.000683593,-2.63889,-2.1583,-0.0273363,-2.45081,0.29764,
2,1,0,1,0,30722,0.29944,0.299137,2.29153,16,0.0172351,10,0.000685483,-2.63987,-0.0078407,-7.52484,-519.653,0.299137,
2,1,0,1,0,30722,0.299736,0.2994,1.86201,16,0.0172649,10,0.000557485,-2.73002,0.00175282,33.6601,1460.06,0.2994,
2,1,0,1,0,30722,0.298238,0.297959,0.652112,16,0.0172937,10,0.000194303,-3.18568,0.00201633,29.2611,627.908,0.297959,
2,1,0,1,0,30722,0.296744,0.296434,0.0968511,16,0.0173019,10,2.871e-05,-4.0139,0.00813958,7.24853,308.991,0.296434,
2,0,0,1,0,30722.1,0.295243,0.294869,-0.222257,16,0.0172994,10,-6.55368e-05,-3.65314,-0.0136751,-4.31443,177.182,0.294869,
2,0,0,1,0,30722.1,0.293742,0.293412,-0.424942,16,0.0172908,10,-0.000124683,-3.37167,-0.00637083,-9.26095,112.802,0.293412,
2,0,0,1,0,30722.1,0.292248,0.291899,-0.562228,16,0.0172781,10,-0.000164114,-3.25009,-0.0142668,-4.13549,82.1406,0.291899,
2,0,0,1,0,30722.1,0.290748,0.29042,-0.664066,16,0.0172623,10,-0.000192858,-3.17779,-0.0228413,-2.58304,64.0712,0.29042,
2,0,0,1,0,30722.2,0.289249,0.288929,-0.739964,16,0.0172442,10,-0.000213797,-3.13079,-0.0349282,-1.68918,48.2559,0.288929,
2,0,0,1,0,30722.2,0.287754,0.287403,-0.806251,16,0.0172244,10,-0.000231719,-3.09353,-0.0464585,-1.26995,39.6544,0.287403,
2,0,0,1,0,30722.2,0.286254,0.285918,-0.867043,16,0.0172031,10,-0.000247903,-3.06196,-0.0553463,-1.06602,35.6259,0.285918,
2,0,0,1,0,30722.2,0.284754,0.284443,-0.910473,16,0.0171804,10,-0.000258977,-3.04073,-0.062303,-0.946986,33.6118,0.284443,
2,0,0,1,0,30722.3,0.28326,0.28293,-0.958961,16,0.0171567,10,-0.000271319,-3.0182,-0.0787994,-0.748737,27.8325,0.2829302,
2,0,0,1,0,30722.3,0.28176,0.28144,-1.00394,16,0.0171318,10,-0.00028255,-2.99829,-0.0943304,-0.625461,24.1583,0.28144,
2,0,0,1,0,30722.3,0.280261,0.279982,-1.03246,16,0.0171059,10,-0.000289069,-2.98613,-0.101913,-0.578925,23.3016,0.279982,
2,0,0,1,0,30722.3,0.278761,0.278449,-1.06509,16,0.0170793,10,-0.000296572,-2.97261,-0.110643,-0.533244,22.1638,0.278449,
2,0,0,1,0,30722.4,0.277267,0.276924,-1.09477,16,0.017052,10,-0.000303168,-2.96068,-0.122137,-0.483062,20.6336,0.276924,
2,0,0,1,0,30722.4,0.275766,0.275416,-1.12668,16,0.0170237,10,-0.000310305,-2.9482,-0.156997,-0.375803,16.4254,0.275416,
2,0,0,1,0,30722.4,0.274265,0.273927,-1.1593,16,0.0169948,10,-0.000317563,-2.9358,-0.158628,-0.371938,16.6937,0.273927,
2,0,0,1,0,30722.4,0.272771,0.272475,-1.18001,16,0.0169654,10,-0.000321522,-2.92812,-0.138789,-0.425107,19.5634,0.272475,
2,0,0,1,0,30722.5,0.271272,0.270955,-1.20219,16,0.0169352,10,-0.00032574,-2.92003,-0.164572,-0.358506,16.8621,0.270955,
2,0,0,1,0,30722.5,0.269772,0.269447,-1.23275,16,0.0169042,10,-0.00033216,-2.90913,-0.181965,-0.324238,15.516,0.2694473,
2,0,0,1,0,30722.5,0.268273,0.267968,-1.25617,16,0.0168728,10,-0.000336615,-2.90095,-0.218461,-0.270071,13.1863,0.267968,
2,0,0,1,0,30722.5,0.26678,0.266479,-1.26982,16,0.0168409,10,-0.000338381,-2.89626,-0.211925,-0.2784,13.8189,0.266479,
2,0,0,1,0,30722.6,0.265279,0.264987,-1.28896,16,0.0168085,10,-0.000341558,-2.88976,-0.214553,-0.27499,13.8872,0.264987,
2,0,0,1,0,30722.6,0.263778,0.263427,-1.31648,16,0.0167755,10,-0.000346798,-2.88058,-0.239311,-0.246541,12.6271,0.2634275,
2,0,0,1,0,30722.6,0.262284,0.261977,-1.33614,16,0.0167421,10,-0.000350039,-2.87415,-0.242435,-0.243364,12.6265,0.261977,
2,0,0,1,0,30722.6,0.260784,0.260468,-1.34953,16,0.0167081,10,-0.000351509,-2.86982,-0.230841,-0.255587,13.5115,0.260468,
2,0,0,1,0,30722.7,0.259285,0.25897,-1.36497,16,0.0166737,10,-0.000353488,-2.86488,-0.268645,-0.219621,11.7735,0.25897,
2,0,0,1,0,30722.7,0.257791,0.257487,-1.38981,16,0.016639,10,-0.000357858,-2.85704,-0.281897,-0.209296,11.3382,0.257487,
2,0,0,1,0,30722.7,0.25629,0.255993,-1.40942,16,0.0166036,10,-0.000360802,-2.85096,-0.333732,-0.176788,9.67496,0.255993,
2,0,0,1,0,30722.7,0.254789,0.254446,-1.41761,16,0.0165679,10,-0.000360706,-2.84844,-0.274043,-0.215295,11.9138,0.254446,
2,0,0,1,0,30722.8,0.253296,0.252979,-1.43519,16,0.0165319,10,-0.000363073,-2.84309,-0.269348,-0.219047,12.2855,0.252979,
2,0,0,1,0,30722.8,0.251797,0.251498,-1.4479,16,0.0164954,10,-0.000364145,-2.83926,-0.345196,-0.170917,9.68375,0.251498,
2,0,0,1,0,30722.8,0.250297,0.250021,-1.47126,16,0.0164584,10,-0.000367845,-2.83231,-0.380087,-0.155227,8.88287,0.250021,
2,0,0,1,0,30722.8,0.248797,0.248471,-1.48377,16,0.016421,10,-0.000368673,-2.82863,-0.331451,-0.178005,10.3096,0.248471,
2,0,0,1,0,30722.9,0.247303,0.246975,-1.4934,16,0.0163835,10,-0.000368831,-2.82583,-0.3147,-0.18748,10.9791,0.246975,
2,0,0,1,0,30722.9,0.245802,0.24549,-1.51394,16,0.0163455,10,-0.000371656,-2.81989,-0.335894,-0.175651,10.3686,0.24549,
2,0,0,1,0,30722.9,0.244302,0.243918,-1.53714,16,0.0163069,10,-0.000374938,-2.81329,-0.350788,-0.168193,10.0206,0.243918,
2,0,0,1,0,30722.9,0.242807,0.242499,-1.54861,16,0.0162682,10,-0.000375536,-2.81006,-0.34954,-0.168793,10.1648,0.242499,
2,0,0,1,0,30723,0.241308,0.240976,-1.55303,16,0.016229,10,-0.000374244,-2.80882,-0.377504,-0.15629,9.50587,0.240976,
2,0,0,1,0,30723,0.239808,0.239504,-1.57057,16,0.0161895,10,-0.000376158,-2.80394,-0.443968,-0.132893,8.14666,0.239504,
2,0,0,1,0,30723,0.238309,0.237981,-1.58831,16,0.0161496,10,-0.000377988,-2.79906,-0.457884,-0.128854,7.97341,0.237981,
2,0,0,1,0,30723,0.236815,0.23652,-1.5967,16,0.0161096,10,-0.000377651,-2.79678,-0.386245,-0.152753,9.52336,0.23652,
2,0,0,1,0,30723.1,0.235315,0.235014,-1.6042,16,0.0160691,10,-0.000377008,-2.79474,-0.404761,-0.145765,9.18249,0.235014,
2,0,0,1,0,30723.1,0.233814,0.233462,-1.62952,16,0.0160282,10,-0.00038043,-2.78794,-0.536103,-0.110054,6.98542,0.233462,
2,0,0,1,0,30723.1,0.23232,0.232013,-1.64219,16,0.0159872,10,-0.000381009,-2.78458,-0.422041,-0.139797,8.91352,0.232013,
2,0,0,1,0,30723.1,0.230821,0.230525,-1.64987,16,0.0159456,10,-0.000380336,-2.78255,-0.44299,-0.133186,8.56651,0.230525,
2,0,0,1,0,30723.2,0.229321,0.228991,-1.65923,16,0.0159037,10,-0.000379949,-2.78009,-0.471213,-0.125209,8.13676,0.228991,
2,0,0,1,0,30723.2,0.227827,0.227485,-1.674,16,0.0158618,10,-0.000380811,-2.77624,-0.592716,-0.0995417,6.52023,0.227485,
2,0,0,1,0,30723.2,0.226326,0.226009,-1.69648,16,0.0158193,10,-0.00038342,-2.77045,-0.472766,-0.124798,8.22711,0.226009,
2,0,0,1,0,30723.2,0.224825,0.224516,-1.70309,16,0.0157764,10,-0.000382372,-2.76876,-0.44165,-0.13359,8.85058,0.224516,
2,0,0,1,0,30723.3,0.223331,0.223027,-1.71363,16,0.0157334,10,-0.000382186,-2.76608,-0.498063,-0.118459,7.93556,0.223027,
2,0,0,1,0,30723.3,0.221831,0.221526,-1.72703,16,0.0156901,10,-0.000382583,-2.7627,-0.553431,-0.106608,7.18938,0.221526,
2,0,0,1,0,30723.3,0.220333,0.22004,-1.74209,16,0.0156463,10,-0.000383329,-2.75893,-0.386908,-0.152491,10.3283,0.22004,
2,0,0,1,0,30723.3,0.218834,0.218525,-1.75498,16,0.0156022,10,-0.000383508,-2.75573,-0.429951,-0.137225,9.38991,0.218525,
2,0,0,1,0,30723.4,0.217339,0.217025,-1.76204,16,0.015558,10,-0.000382408,-2.75398,-0.545504,-0.108157,7.45657,0.217025,
2,0,0,1,0,30723.4,0.215839,0.215509,-1.77256,16,0.0155133,10,-0.000382003,-2.7514,-0.573151,-0.10294,7.15384,0.215509,
2,0,0,1,0,30723.4,0.214338,0.214019,-1.78874,16,0.0154683,10,-0.000382824,-2.74745,-0.452167,-0.130483,9.10474,0.214019,
2,0,0,1,0,30723.4,0.212844,0.212497,-1.80291,16,0.0154232,10,-0.000383114,-2.74403,-0.453453,-0.130113,9.13659,0.2124972,
2,0,0,1,0,30723.5,0.211344,0.211085,-1.81404,16,0.0153775,10,-0.000382917,-2.74135,-0.530709,-0.111172,7.87579,0.211085,
2,0,0,1,0,30723.5,0.209845,0.209551,-1.81875,16,0.0153316,10,-0.000381121,-2.74023,-0.622858,-0.0947247,6.76213,0.209551,
2,0,0,1,0,30723.5,0.20835,0.208027,-1.84149,16,0.0152856,10,-0.000383081,-2.73483,-0.485243,-0.121589,8.7537,0.208027,
2,0,0,1,0,30723.5,0.206851,0.206546,-1.85934,16,0.015239,10,-0.000384038,-2.73064,-0.380154,-0.1552,11.2311,0.206546,
2,0,0,1,0,30723.6,0.20535,0.204998,-1.86423,16,0.015192,10,-0.000382164,-2.7295,-0.461613,-0.127813,9.29746,0.204998,
2,0,0,1,0,30723.6,0.203856,0.203542,-1.87724,16,0.0151449,10,-0.000382098,-2.72648,-0.704959,-0.0836928,6.14481,0.203542,
2,0,0,1,0,30723.6,0.202356,0.202031,-1.89257,16,0.0150974,10,-0.000382357,-2.72295,-0.59679,-0.0988623,7.2983,0.202031,
2,0,0,1,0,30723.6,0.200857,0.200514,-1.9077,16,0.0150496,10,-0.000382521,-2.71949,-0.395703,-0.149102,11.059,0.200514,
2,0,0,1,0,30723.7,0.199357,0.199034,-1.91231,16,0.0150014,10,-0.000380615,-2.71844,-0.513521,-0.114893,8.59354,0.199034,
2,0,0,1,0,30723.7,0.197863,0.197559,-1.92739,16,0.0149531,10,-0.000380773,-2.71503,-0.668638,-0.0882391,6.64642,0.197559,
2,0,0,1,0,30723.7,0.196362,0.19605,-1.94648,16,0.0149043,10,-0.000381608,-2.71075,-0.572666,-0.103027,7.80603,0.19605,
2,0,0,1,0,30723.7,0.194861,0.194552,-1.9606,16,0.0148551,10,-0.000381438,-2.70761,-0.366466,-0.160997,12.2976,0.194552,
2,0,0,1,0,30723.8,0.193367,0.193023,-1.97223,16,0.0148058,10,-0.000380686,-2.70504,-0.432217,-0.136505,10.5204,0.193023,
2,0,0,1,0,30723.8,0.191868,0.191552,-1.98532,16,0.0147558,10,-0.000380292,-2.70217,-0.609052,-0.0968718,7.5182,0.191552,
2,0,0,1,0,30723.8,0.190368,0.190042,-1.99822,16,0.0147056,10,-0.000379747,-2.69936,-0.478238,-0.12337,9.6438,0.190042,
2,0,0,1,0,30723.8,0.18887,0.188487,-2.01362,16,0.014655,10,-0.000379541,-2.69602,-0.373664,-0.157896,12.4255,0.188487,
2,0,0,1,0,30723.9,0.187376,0.187055,-2.02862,16,0.0146042,10,-0.000379463,-2.6928,-0.356579,-0.165461,13.1315,0.1870546,
2,0,0,1,0,30723.9,0.185875,0.185508,-2.04583,16,0.0145528,10,-0.000379518,-2.68913,-0.521217,-0.113197,9.03883,0.185508,
2,0,0,1,0,30723.9,0.184374,0.184083,-2.06462,16,0.0145009,10,-0.000380061,-2.68516,-0.465585,-0.126722,10.1826,0.184083,
2,0,0,1,0,30723.9,0.18288,0.182584,-2.08288,16,0.014449,10,-0.000380299,-2.68134,-0.38544,-0.153072,12.431,0.182584,
2,0,0,1,0,30724,0.18138,0.181063,-2.09569,16,0.0143964,10,-0.000379453,-2.67867,-0.37061,-0.159197,13.0416,0.1810635,
2,0,0,1,0,30724,0.179881,0.179573,-2.10827,16,0.0143433,10,-0.000378588,-2.67607,-0.557384,-0.105852,8.75006,0.179573,
2,0,0,1,0,30724,0.178387,0.178086,-2.14109,16,0.0142899,10,-0.000381297,-2.66937,-0.458218,-0.12876,10.7261,0.178086,
2,0,0,1,0,30724,0.176886,0.176587,-2.15407,16,0.0142359,10,-0.000380382,-2.66674,-0.326455,-0.180729,15.1859,0.176587,
2,0,0,1,0,30724.1,0.175385,0.175031,-2.17225,16,0.0141814,10,-0.000380211,-2.66309,-0.320333,-0.184183,15.6372,0.175031,
2,0,0,1,0,30724.1,0.173892,0.173566,-2.19708,16,0.0141266,10,-0.000381338,-2.65815,-0.352832,-0.167218,14.3323,0.173566,
2,0,0,1,0,30724.1,0.172392,0.172084,-2.21908,16,0.014071,10,-0.000381869,-2.65383,-0.404557,-0.145838,12.5888,0.172084,
2,0,0,1,0,30724.1,0.170893,0.170606,-2.23782,16,0.0140149,10,-0.000381786,-2.65017,-0.335848,-0.175675,15.3417,0.170606,
2,0,0,1,0,30724.2,0.169393,0.169055,-2.26023,16,0.0139582,10,-0.000382105,-2.64585,-0.255829,-0.230622,20.3849,0.169055,
2,0,0,1,0,30724.2,0.167899,0.167578,-2.2885,16,0.013901,10,-0.000383503,-2.64045,-0.298441,-0.197694,17.7285,0.167578,
2,0,0,1,0,30724.2,0.166398,0.166061,-2.32518,16,0.0138429,10,-0.000386121,-2.63354,-0.325207,-0.181423,16.4487,0.166061,
2,0,0,1,0,30724.2,0.164898,0.164543,-2.3516,16,0.0137841,10,-0.00038694,-2.62864,-0.249199,-0.236759,21.7159,0.164543,
2,0,0,1,0,30724.3,0.163403,0.163052,-2.37893,16,0.0137248,10,-0.000387889,-2.62362,-0.224636,-0.262647,24.4503,0.1630518,
2,0,0,1,0,30724.3,0.161904,0.161605,-2.41268,16,0.0136644,10,-0.000389903,-2.6175,-0.227538,-0.259298,24.4712,0.161605,
2,0,0,1,0,30724.3,0.160404,0.160076,-2.45462,16,0.0136031,10,-0.000392926,-2.61002,-0.240904,-0.244911,23.4473,0.160076,
2,0,0,1,0,30724.3,0.158905,0.158626,-2.4932,16,0.0135409,10,-0.000395486,-2.60324,-0.20537,-0.287286,27.9621,0.158626,
2,0,0,1,0,30724.3,0.157411,0.157113,-2.53161,16,0.0134779,10,-0.000397749,-2.5966,-0.186604,-0.316178,31.3548,0.157113,
2,0,0,1,0,30724.4,0.155911,0.155542,-2.58389,16,0.0134135,10,-0.000401903,-2.58773,-0.176302,-0.334653,33.7927,0.155542,
2,0,0,1,0,30724.4,0.15441,0.154049,-2.6402,16,0.0133478,10,-0.000406719,-2.57836,-0.177573,-0.332258,34.1818,0.154049,
2,0,0,1,0,30724.4,0.152916,0.152584,-2.69747,16,0.013281,10,-0.000411592,-2.56904,-0.154164,-0.38271,40.2388,0.1525842,
2,0,0,1,0,30724.4,0.151417,0.151069,-2.74496,16,0.0132126,10,-0.000414679,-2.56146,-0.143416,-0.411391,44.3709,0.151069,
2,0,0,1,0,30724.5,0.149917,0.149572,-2.82347,16,0.0131425,10,-0.000422312,-2.54922,-0.134076,-0.44005,48.6216,0.149572,
2,0,0,1,0,30724.5,0.148423,0.14811,-2.90156,16,0.0130708,10,-0.000429751,-2.53737,-0.131205,-0.449677,50.9858,0.14811,
2,0,0,1,0,30724.5,0.146922,0.146619,-2.9894,16,0.0129968,10,-0.000438303,-2.52442,-0.115768,-0.50964,59.397,0.146619,
2,0,0,1,0,30724.5,0.145421,0.145096,-3.07284,16,0.0129207,10,-0.000445856,-2.51246,-0.106661,-0.553156,66.5463,0.145096,
2,0,0,1,0,30724.6,0.143927,0.143615,-3.17539,16,0.0128425,10,-0.000456034,-2.4982,-0.0999803,-0.590116,73.3179,0.143615,
2,0,0,1,0,30724.6,0.142429,0.142125,-3.29393,16,0.0127613,10,-0.000468149,-2.48229,-0.0966102,-0.610701,78.4319,0.142125,
2,0,0,1,0,30724.6,0.140929,0.140617,-3.41392,16,0.0126771,10,-0.000480057,-2.46675,-0.0955271,-0.617626,82.2577,0.140617,
2,0,0,1,0,30724.6,0.13943,0.139124,-3.53149,16,0.0125898,10,-0.000491316,-2.45204,-0.094662,-0.62327,86.1107,0.139124,
2,0,0,1,0,30724.7,0.137935,0.137621,-3.66789,16,0.0124996,10,-0.000504778,-2.43558,-0.091012,-0.648266,93.0505,0.137621,
2,0,0,1,0,30724.7,0.136435,0.136118,-3.82052,16,0.0124056,10,-0.000520042,-2.41788,-0.0897182,-0.657614,97.9666,0.136118,
2,0,0,1,0,30724.7,0.134934,0.134622,-3.97059,16,0.0123078,10,-0.000534527,-2.40114,-0.0907315,-0.650271,100.567,0.1346215,
2,0,0,1,0,30724.7,0.13344,0.133131,-4.12209,16,0.0122067,10,-0.000548776,-2.38488,-0.0904303,-0.652436,104.888,0.1331306,
2,0,0,1,0,30724.8,0.13194,0.13167,-4.26983,16,0.0121013,10,-0.000562208,-2.36959,-0.0950282,-0.620868,103.554,0.13167,
2,0,0,1,0,30724.8,0.13044,0.130094,-4.42508,16,0.0119921,10,-0.000575677,-2.35408,-0.100236,-0.588608,101.738,0.130094,
2,0,0,1,0,30724.8,0.128941,0.128612,-4.59044,16,0.0118789,10,-0.000590387,-2.33815,-0.102375,-0.576315,102.989,0.128612,
2,0,0,1,0,30724.8,0.127447,0.127095,-4.74113,16,0.0117624,10,-0.000602572,-2.32412,-0.108931,-0.541626,100.076,0.127095,
2,0,0,1,0,30724.9,0.125946,0.125637,-4.88545,16,0.0116416,10,-0.000613792,-2.3111,-0.117956,-0.500188,95.2869,0.125637,
2,0,0,1,0,30724.9,0.124446,0.124113,-5.03219,16,0.0115172,10,-0.000624559,-2.29824,-0.121622,-0.485112,95.0155,0.124113,
2,0,0,1,0,30724.9,0.122952,0.122641,-5.17366,16,0.0113898,10,-0.000634503,-2.2862,-0.129334,-0.456182,91.7891,0.122641,
2,0,0,1,0,30724.9,0.121453,0.121116,-5.29712,16,0.0112585,10,-0.000641565,-2.27596,-0.142374,-0.414401,85.5881,0.121116,
2,0,0,1,0,30725,0.119953,0.119622,-5.41353,16,0.0111241,10,-0.000647577,-2.26652,-0.15723,-0.375248,79.3057,0.119622,
2,0,0,1,0,30725,0.118459,0.118174,-5.53794,16,0.0109872,10,-0.000654441,-2.25665,-0.170644,-0.345749,74.6029,0.118174,
2,0,0,1,0,30725,0.116958,0.116597,-5.65838,16,0.010847,10,-0.000659748,-2.24731,-0.182704,-0.322926,71.049,0.116597,
2,0,0,1,0,30725,0.115457,0.115119,-5.75224,16,0.010704,10,-0.00066219,-2.24016,-0.207451,-0.284405,63.6929,0.115119,
2,0,0,1,0,30725.1,0.113963,0.113623,-5.82997,16,0.0105593,10,-0.000662418,-2.23433,-0.234886,-0.251186,57.1622,0.113623,
2,0,0,1,0,30725.1,0.112464,0.112138,-5.92471,16,0.0104119,10,-0.000664387,-2.22733,-0.271985,-0.216924,50.054,0.112138,
2,0,0,1,0,30725.1,0.110965,0.110604,-6.00081,16,0.0102624,10,-0.000663713,-2.22179,-0.283338,-0.208232,48.6612,0.110604,
2,0,0,1,0,30725.1,0.109466,0.109118,-6.06224,16,0.0101112,10,-0.0006615,-2.21737,-0.325955,-0.181007,42.7876,0.109118,
2,0,0,1,0,30725.2,0.107972,0.107648,-6.11978,16,0.00995896,10,-0.000658784,-2.21326,-0.402598,-0.146548,34.9753,0.107648,
2,0,0,1,0,30725.2,0.106471,0.106175,-6.16962,16,0.00980485,10,-0.000655059,-2.20974,-0.479663,-0.123003,29.5953,0.106175,
2,0,0,1,0,30725.2,0.10497,0.104621,-6.21624,16,0.00964963,10,-0.00065035,-2.20647,-0.604943,-0.0975298,23.602,0.104621,
2,0,0,1,0,30725.2,0.103476,0.103148,-6.24545,16,0.00949406,10,-0.000644207,-2.20444,-0.792511,-0.0744469,18.1049,0.1031483,
2,0,0,1,0,30725.3,0.101976,0.101655,-6.25946,16,0.00933728,10,-0.000636306,-2.20346,-1.899,-0.031069,7.58474,0.101655,
2,0,0,1,0,30725.3,0.100477,0.100141,-6.26997,16,0.00918025,10,-0.000627881,-2.20273,-27.6424,-0.0021344,0.521623,0.100141,
2,0,0,1,0,30725.3,0.0989825,0.0986645,-6.27335,16,0.00902373,10,-0.000618957,-2.2025,14.1261,0.00417668,-1.0205,0.0986645,
2,0,0,1,0,30725.3,0.0974817,0.0971343,-6.25863,16,0.00886668,10,-0.000607927,-2.20352,1.86273,0.0316739,-7.73036,0.0971343,
2,0,0,1,0,30725.4,0.0959822,0.0956713,-6.24215,16,0.00870995,10,-0.000597195,-2.20467,0.970783,0.0607757,-14.7989,0.0956713,
2,0,0,1,0,30725.4,0.094488,0.0941912,-6.2126,16,0.0085544,10,-0.000585172,-2.20673,0.660851,0.0892788,-21.6418,0.0941912,
2,0,0,1,0,30725.4,0.0929884,0.092657,-6.18579,16,0.00839901,10,-0.000573157,-2.2086,0.664048,0.088849,-21.4229,0.092657,
2,0,0,1,0,30725.4,0.0914889,0.0911434,-6.14785,16,0.00824441,10,-0.000560336,-2.21128,0.621252,0.0949695,-22.767,0.0911434,
2,0,0,1,0,30725.5,0.0899894,0.0896693,-6.10477,16,0.00809078,10,-0.000547411,-2.21433,0.469835,0.125576,-29.9075,0.0896693,
2,0,0,1,0,30725.5,0.0884951,0.0881685,-6.05474,16,0.00793884,10,-0.000533837,-2.2179,0.425117,0.138785,-32.8151,0.0881685,
2,0,0,1,0,30725.5,0.0869943,0.0866907,-6.01518,16,0.00778756,10,-0.00052146,-2.22075,0.435447,0.135493,-31.7948,0.0866907,
2,0,0,1,0,30725.5,0.0854935,0.0851427,-5.96244,16,0.00763745,10,-0.000507658,-2.22458,0.471755,0.125065,-29.1161,0.08514265,
2,0,0,1,0,30725.6,0.0839993,0.0836617,-5.91264,16,0.00748913,10,-0.000494661,-2.22822,0.414329,0.142399,-32.8748,0.0836617,
2,0,0,1,0,30725.6,0.0824998,0.0821961,-5.86998,16,0.00734138,10,-0.000482489,-2.23136,0.420122,0.140435,-32.1656,0.0821961,
2,0,0,1,0,30725.6,0.0810002,0.0806975,-5.82621,16,0.00719486,10,-0.000470161,-2.23461,0.464378,0.127052,-28.8871,0.0806975,
2,0,0,1,0,30725.6,0.0795007,0.0791795,-5.77967,16,0.00704942,10,-0.000457632,-2.2381,0.557495,0.105831,-23.8964,0.07917954,
2,0,0,1,0,30725.7,0.0780078,0.0776567,-5.73832,16,0.00690552,10,-0.000445619,-2.24122,0.511111,0.115435,-25.8889,0.0776567,
2,0,0,1,0,30725.7,0.076507,0.0761565,-5.70783,16,0.00676195,10,-0.000434688,-2.24353,0.50158,0.117628,-26.1919,0.0761565,
2,0,0,1,0,30725.7,0.0750062,0.0746853,-5.67325,16,0.00661938,10,-0.000423709,-2.24617,0.553731,0.10655,-23.573,0.07468532,
2,0,0,1,0,30725.7,0.073512,0.0732117,-5.63959,16,0.00647822,10,-0.000412884,-2.24875,0.710806,0.0830043,-18.2509,0.0732117,
2,0,0,1,0,30725.8,0.0720124,0.0716664,-5.60103,16,0.00633729,10,-0.000401405,-2.25173,0.640834,0.0920675,-20.1509,0.0716664,
2,0,0,1,0,30725.8,0.0705129,0.0701675,-5.57182,16,0.0061971,10,-0.000390961,-2.254,0.556528,0.106014,-23.0704,0.0701675,
2,0,0,1,0,30725.8,0.0690187,0.0686477,-5.54594,16,0.00605827,10,-0.000380716,-2.25602,0.626643,0.0941524,-20.38,0.0686477,
2,0,0,1,0,30725.8,0.0675179,0.0671704,-5.52124,16,0.00591962,10,-0.000370864,-2.25796,0.830484,0.0710429,-15.3035,0.0671704,
2,0,0,1,0,30725.9,0.066017,0.0656736,-5.49262,16,0.00578159,10,-0.00036072,-2.26022,0.751742,0.0784844,-16.8238,0.0656736,
2,0,0,1,0,30725.9,0.0645242,0.0641705,-5.46686,16,0.00564468,10,-0.000350811,-2.26226,0.637616,0.0925322,-19.7255,0.0641705,
2,0,0,1,0,30725.9,0.0630246,0.0626987,-5.44059,16,0.00550793,10,-0.000341118,-2.26435,0.696365,0.0847257,-17.9808,0.06269867,
2,0,0,1,0,30725.9,0.0615251,0.0611689,-5.41103,16,0.00537194,10,-0.000330986,-2.26672,0.753559,0.0782951,-16.5426,0.0611689,
2,0,0,1,0,30726,0.0600256,0.0597102,-5.37776,16,0.00523658,10,-0.000321107,-2.2694,0.707718,0.0833665,-17.5268,0.0597102,
2,0,0,1,0,30726,0.0585314,0.0581826,-5.35676,16,0.00510246,10,-0.00031167,-2.2711,0.579028,0.101895,-21.2987,0.0581826,
2,0,0,1,0,30726,0.0570305,0.0567006,-5.33336,16,0.00496843,10,-0.000302404,-2.273,0.679015,0.0868906,-18.0552,0.05670055,
2,0,0,1,0,30726,0.0555297,0.0552243,-5.30221,16,0.0048352,10,-0.000292811,-2.27554,0.69311,0.0851236,-17.6027,0.0552243,
2,0,0,1,0,30726.1,0.0540355,0.0537379,-5.26768,16,0.00470321,10,-0.000283074,-2.27838,0.703195,0.0839027,-17.2633,0.05373795,
2,0,0,1,0,30726.1,0.052536,0.0522218,-5.24672,16,0.00457132,10,-0.000273993,-2.28011,0.632353,0.0933023,-19.088,0.0522218,
2,0,0,1,0,30726.1,0.0510364,0.0507358,-5.22492,16,0.0044401,10,-0.000265091,-2.28192,0.596155,0.0989676,-20.1454,0.0507358,
2,0,0,1,0,30726.1,0.0495369,0.0492104,-5.18198,16,0.00430971,10,-0.000255007,-2.2855,0.642433,0.0918384,-18.5905,0.0492104,
2,0,0,1,0,30726.2,0.0480427,0.0477044,-5.14956,16,0.00418061,10,-0.000245657,-2.28823,0.633626,0.0931148,-18.7314,0.0477044,
2,0,0,1,0,30726.2,0.0465432,0.0462289,-5.12584,16,0.0040517,10,-0.000236962,-2.29023,0.559398,0.105471,-21.0939,0.0462289,
2,0,0,1,0,30726.2,0.0450424,0.0447225,-5.09897,16,0.00392351,10,-0.000228039,-2.29252,0.525144,0.11235,-22.3092,0.0447225,
2,0,0,1,0,30726.2,0.0435482,0.0432471,-5.0592,16,0.00379666,10,-0.000218796,-2.29592,0.584582,0.100927,-19.9267,0.0432471,
2,0,0,1,0,30726.3,0.0420486,0.0417227,-5.02556,16,0.00367015,10,-0.00020968,-2.29882,0.572658,0.103028,-20.234,0.0417227,
2,0,0,1,0,30726.3,0.0405491,0.0402123,-4.998,16,0.0035444,10,-0.000200981,-2.3012,0.482356,0.122316,-23.8606,0.04021227,
2,0,0,1,0,30726.3,0.0390549,0.0387555,-4.96864,16,0.0034199,10,-0.000192562,-2.30376,0.475962,0.12396,-23.9898,0.0387555,
2,0,0,1,0,30726.3,0.0375541,0.0371838,-4.93194,16,0.00329581,10,-0.000183388,-2.30698,0.501543,0.117637,-22.6333,0.0371838,
2,0,0,1,0,30726.4,0.0360532,0.0357351,-4.89061,16,0.00317268,10,-0.000174767,-2.31064,0.477241,0.123627,-23.6073,0.0357351,
2,0,0,1,0,30726.4,0.034559,0.0342361,-4.85731,16,0.00305089,10,-0.000166295,-2.3136,0.458331,0.128728,-24.3894,0.0342361,
2,0,0,1,0,30726.4,0.0330595,0.0327587,-4.82444,16,0.0029295,10,-0.000158042,-2.31655,0.432504,0.136415,-25.6462,0.0327587,
2,0,0,1,0,30726.4,0.0315613,0.031274,-4.78425,16,0.00280903,10,-0.000149623,-2.32019,0.46717,0.126292,-23.5587,0.031274,
2,0,0,1,0,30726.5,0.0300618,0.0297661,-4.73644,16,0.0026896,10,-0.000140985,-2.32455,0.405273,0.145581,-26.951,0.02976609,
2,0,0,1,0,30726.5,0.0285676,0.0282288,-4.70122,16,0.0025716,10,-0.00013271,-2.32779,0.407169,0.144903,-26.5935,0.0282288,
2,0,0,1,0,30726.5,0.0270667,0.0267611,-4.66808,16,0.00245406,10,-0.000124923,-2.33086,0.419477,0.140651,-25.5874,0.0267611,
2,0,0,1,0,30726.5,0.0255659,0.025262,-4.62732,16,0.00233747,10,-0.000116895,-2.33467,0.372889,0.158224,-28.5333,0.02526198,
2,0,0,1,0,30726.6,0.0240717,0.0237608,-4.5742,16,0.00222242,10,-0.000108687,-2.33968,0.398585,0.148024,-26.5036,0.0237608,
2,0,0,1,0,30726.6,0.0225722,0.0222408,-4.54291,16,0.00210797,10,-0.000101038,-2.34267,0.382757,0.154145,-27.3402,0.0222408,
2,0,0,1,0,30726.6,0.0210726,0.0208144,-4.51135,16,0.00199443,10,-9.39009e-05,-2.34569,0.406467,0.145153,-25.514,0.0208144,
2,0,0,1,0,30726.6,0.0195784,0.0192633,-4.46905,16,0.00188228,10,-8.60887e-05,-2.34978,0.409138,0.144206,-25.1277,0.0192633,
2,0,0,1,0,30726.7,0.0180789,0.0177474,-4.42276,16,0.00177066,10,-7.84923e-05,-2.35431,0.419976,0.140484,-24.3005,0.0177474,
2,0,0,1,0,30726.7,0.0165781,0.0162523,-4.39097,16,0.00166004,10,-7.13632e-05,-2.35744,0.411823,0.143266,-24.5802,0.0162523,
2,0,0,1,0,30726.7,0.0150839,0.0147315,-4.36213,16,0.00155068,10,-6.42606e-05,-2.3603,0.471216,0.125208,-21.2952,0.0147315,
2,0,0,1,0,30726.7,0.0135844,0.0132331,-4.32821,16,0.00144163,10,-5.72757e-05,-2.36369,0.47215,0.12496,-21.0946,0.0132331,
2,0,0,1,0,30726.8,0.0120848,0.0118109,-4.2914,16,0.00133339,10,-5.06851e-05,-2.3674,0.476904,0.123715,-20.7631,0.0118109,
2,0,0,1,0,30726.8,0.0105853,0.0102779,-4.26065,16,0.00122606,10,-4.37907e-05,-2.37052,0.443954,0.132897,-22.1427,0.0102779,
2,0,0,1,0,30726.8,0.00909108,0.00877681,-4.2389,16,0.00111985,10,-3.7204e-05,-2.37275,0.55731,0.105866,-17.5055,0.00877681,
2,0,0,1,0,30726.8,0.00759027,0.00722095,-4.21245,16,0.00101388,10,-3.04179e-05,-2.37547,0.588913,0.100185,-16.4485,0.00722095,
2,0,0,1,0,30726.9,0.00608945,0.00576278,-4.18385,16,0.000908535,10,-2.41106e-05,-2.37842,0.716461,0.0823493,-13.4534,0.00576278,
2,0,0,1,0,30726.9,0.00459524,0.00427059,-4.16097,16,0.000804269,10,-1.77698e-05,-2.38081,0.675858,0.0872965,-14.1759,0.00427059,
2,0,0,1,0,30726.9,0.0030957,0.00282305,-4.14579,16,0.000700086,10,-1.17038e-05,-2.38239,1.41096,0.0418155,-6.77369,0.002823052,
2,0,0,1,0,30726.9,0.00159616,0.00124603,-4.15341,16,0.000595937,10,-5.17526e-06,-2.3816, , , ,0.00124603,
2,0,0,1,0,30727,0.000199195,-0.000203165,-4.11934,16,0.000499131,10,8.36904e-07,-2.38517, , , ,-0.000203165,