File: Figure_codes/Fig_3-5/rawdata_trumpetplot_data/after 10th/20221101_1-115_003_TrumpetPlot_ParaChange_from10_every3_06_CV_C01_0.csv
mode,ox/red,error,control changes,counter inc.,time/s,control/V,Ewe/V,<I>/mA,cycle number,(Q-Qo)/C,I Range,P/W,log(|I|),Tafel slope mV/dec,alpha_eff,dI/d(E-IR),E-IR/V,
2,0,0,1,0,1150.02,2.44065e-05,-0.000325324,-1.37655,1,0.0000000E+000,10,4.47823e-07,-2.86121, , , ,-0.000325324,
2,1,0,1,0,1150.05,0.00129787,0.000929668,0.259716,1,-1.15915e-05,10,2.4145e-07,-3.5855, , , ,0.000929668,
2,1,0,1,0,1150.09,0.00279427,0.00245904,1.03,1,1.52232e-05,10,2.53281e-06,-2.98716,0.00471121,12.5233,385.393,0.002459039,
2,1,0,1,0,1150.13,0.00429425,0.00398607,1.29725,1,6.01571e-05,10,5.17091e-06,-2.88698,0.0167768,3.51677,154.975,0.00398607,
2,1,0,1,0,1150.16,0.00579422,0.0054837,1.4269,1,0.000112408,10,7.82467e-06,-2.84561,0.0416608,1.4162,76.301,0.0054837,
2,1,0,1,0,1150.2,0.00729063,0.00698222,1.51528,1,0.000168337,10,1.058e-05,-2.81951,0.074078,0.796458,46.4749,0.00698222,
2,1,0,1,0,1150.24,0.00878703,0.00844939,1.57961,1,0.000226869,10,1.33467e-05,-2.80145,0.103034,0.572626,34.8399,0.00844939,
2,1,0,1,0,1150.27,0.010287,0.00997831,1.62481,1,0.000287536,10,1.62128e-05,-2.7892,0.143215,0.411967,25.8187,0.00997831,
2,1,0,1,0,1150.31,0.011787,0.0114984,1.65893,1,0.000349688,10,1.90751e-05,-2.78017,0.161776,0.364701,23.4929,0.0114984,
2,1,0,1,0,1150.35,0.0132825,0.0129814,1.69071,1,0.000412835,10,2.19478e-05,-2.77193,0.166159,0.355082,23.4433,0.0129814,
2,1,0,1,0,1150.39,0.014778,0.0144328,1.71804,1,0.000477283,10,2.4796e-05,-2.76497,0.18198,0.324211,21.8028,0.0144328,
2,1,0,1,0,1150.42,0.0162816,0.015973,1.75056,1,0.000543444,10,2.79618e-05,-2.75682,0.204576,0.288401,19.6928,0.015973,
2,1,0,1,0,1150.46,0.017778,0.0174794,1.77801,1,0.000610216,10,3.10785e-05,-2.75007,0.272177,0.21677,15.1012,0.0174794,
2,1,0,1,0,1150.5,0.0192744,0.0189426,1.79946,1,0.00067778,10,3.40865e-05,-2.74486,0.261021,0.226036,15.9359,0.0189426,
2,1,0,1,0,1150.54,0.0207743,0.0204562,1.82726,1,0.000746598,10,3.73789e-05,-2.7382,0.233129,0.253079,18.0495,0.0204562,
2,1,0,1,0,1150.57,0.0222743,0.0219809,1.85917,1,0.000816446,10,4.08664e-05,-2.73068,0.232909,0.253318,18.3293,0.0219809,
2,1,0,1,0,1150.61,0.0237707,0.0234592,1.88601,1,0.000887081,10,4.42442e-05,-2.72446,0.284183,0.207613,15.228,0.0234592,
2,1,0,1,0,1150.65,0.0252671,0.0249659,1.90287,1,0.000958502,10,4.75069e-05,-2.72059,0.261083,0.225982,16.8511,0.0249659,
2,1,0,1,0,1150.69,0.0267671,0.0264689,1.93351,1,0.00103108,10,5.1178e-05,-2.71365,0.217134,0.271721,20.5141,0.0264689,
2,1,0,1,0,1150.72,0.0282671,0.0279876,1.96016,1,0.00110484,10,5.48602e-05,-2.70771,0.226832,0.260104,19.937,0.0279876,
2,1,0,1,0,1150.76,0.0297626,0.0295179,1.99083,1,0.00117947,10,5.8765e-05,-2.70097,0.266772,0.221162,17.1849,0.02951787,
2,1,0,1,0,1150.8,0.0312581,0.0309237,2.00941,1,0.00125503,10,6.21385e-05,-2.69693,0.265556,0.222176,17.4763,0.0309237,
2,1,0,1,0,1150.84,0.0327616,0.0324597,2.04215,1,0.00133191,10,6.62875e-05,-2.68991,0.232735,0.253508,20.2348,0.0324597,
2,1,0,1,0,1150.87,0.034258,0.0339569,2.07468,1,0.00140961,10,7.04495e-05,-2.68305,0.224923,0.262312,21.2286,0.0339569,
2,1,0,1,0,1150.91,0.0357545,0.0354542,2.1109,1,0.00148857,10,7.48401e-05,-2.67553,0.257375,0.229238,18.7942,0.0354542,
2,1,0,1,0,1150.95,0.0372544,0.0369289,2.13982,1,0.00156895,10,7.90212e-05,-2.66962,0.229176,0.257444,21.525,0.0369289,
2,1,0,1,0,1150.99,0.0387544,0.0384253,2.16905,1,0.00165037,10,8.33466e-05,-2.66373,0.208447,0.283045,24.064,0.0384253,
2,1,0,1,0,1151.02,0.0402508,0.039944,2.20618,1,0.00173295,10,8.81235e-05,-2.65636,0.201486,0.292824,25.3104,0.039944,
2,1,0,1,0,1151.06,0.0417472,0.0414261,2.24992,1,0.00181708,10,9.32057e-05,-2.64783,0.215005,0.274412,24.0702,0.0414261,
2,1,0,1,0,1151.1,0.0432472,0.0430082,2.28881,1,0.00190278,10,9.84379e-05,-2.64039,0.212826,0.277221,24.7065,0.0430082,
2,1,0,1,0,1151.14,0.0447472,0.0444547,2.32071,1,0.00198969,10,0.000103167,-2.63438,0.202228,0.291749,26.4367,0.04445472,
2,1,0,1,0,1151.17,0.0462427,0.045897,2.36277,1,0.00207783,10,0.000108444,-2.62658,0.193191,0.305398,28.0946,0.045897,
2,1,0,1,0,1151.21,0.0477382,0.0474521,2.40333,1,0.00216756,10,0.000114043,-2.61919,0.196424,0.300371,28.1133,0.0474521,
2,1,0,1,0,1151.25,0.0492417,0.0489428,2.44098,1,0.0022593,10,0.000119468,-2.61244,0.206225,0.286096,27.2654,0.0489428,
2,1,0,1,0,1151.29,0.0507381,0.0504319,2.47123,1,0.00235203,10,0.000124629,-2.60709,0.214757,0.274729,26.6549,0.0504319,
2,1,0,1,0,1151.32,0.0522345,0.0519496,2.52315,1,0.00244629,10,0.000131076,-2.59806,0.194962,0.302623,29.8977,0.0519496,
2,1,0,1,0,1151.36,0.0537345,0.0534281,2.56873,1,0.00254251,10,0.000137242,-2.59028,0.202313,0.291628,29.2717,0.05342808,
2,1,0,1,0,1151.4,0.0552345,0.0548861,2.61522,1,0.00264049,10,0.000143539,-2.58249,0.221874,0.265917,27.0808,0.0548861,
2,1,0,1,0,1151.44,0.0567309,0.0564155,2.65694,1,0.00273974,10,0.000149892,-2.57562,0.211211,0.279341,28.9538,0.0564155,
2,1,0,1,0,1151.47,0.0582273,0.057944,2.70484,1,0.00284046,10,0.000156729,-2.56786,0.213737,0.27604,29.0455,0.057944,
2,1,0,1,0,1151.51,0.0597309,0.059398,2.74223,1,0.00294346,10,0.000162883,-2.5619,0.206873,0.2852,30.4859,0.05939804,
2,1,0,1,0,1151.55,0.0612264,0.0609105,2.7869,1,0.00304759,10,0.000169752,-2.55488,0.234768,0.251312,27.3243,0.0609105,
2,1,0,1,0,1151.59,0.0627219,0.0624438,2.82783,1,0.00315331,10,0.000176581,-2.54855,0.221984,0.265785,29.3906,0.0624438,
2,1,0,1,0,1151.62,0.0642219,0.0639092,2.86658,1,0.00326079,10,0.000183201,-2.54264,0.231917,0.254401,28.5518,0.0639092,
2,1,0,1,0,1151.66,0.0657218,0.065437,2.91506,1,0.00337003,10,0.000190753,-2.53535,0.219489,0.268806,30.5624,0.065437,
2,1,0,1,0,1151.7,0.0672182,0.0669138,2.96299,1,0.00348065,10,0.000198265,-2.52827,0.25811,0.228584,26.3464,0.0669138,
2,1,0,1,0,1151.74,0.0687146,0.0683803,3.00219,1,0.00359283,10,0.000205291,-2.52256,0.284782,0.207176,24.2052,0.0683803,
2,1,0,1,0,1151.77,0.0702146,0.0699013,3.03722,1,0.0037066,10,0.000212306,-2.51752,0.277971,0.212253,25.1504,0.0699013,
2,1,0,1,0,1151.81,0.0717146,0.0714353,3.07791,1,0.0038218,10,0.000219871,-2.51174,0.256975,0.229594,27.5312,0.0714353,
2,1,0,1,0,1151.85,0.073211,0.0728836,3.1158,1,0.00393829,10,0.000227091,-2.50643,0.277695,0.212464,25.8322,0.0728836,
2,1,0,1,0,1151.89,0.0747074,0.0743732,3.14991,1,0.00405622,10,0.000234269,-2.5017,0.300974,0.19603,24.1271,0.0743732,
2,1,0,1,0,1151.92,0.0762109,0.0758939,3.18455,1,0.0041761,10,0.000241688,-2.49695,0.303873,0.19416,24.1844,0.0758939,
2,1,0,1,0,1151.96,0.0777064,0.0774202,3.22358,1,0.00429669,10,0.00024957,-2.49166,0.27983,0.210842,26.557,0.07742022,
2,1,0,1,0,1152,0.079202,0.078915,3.26966,1,0.00441873,10,0.000258025,-2.4855,0.30477,0.193589,24.6298,0.078915,
2,1,0,1,0,1152.04,0.0807019,0.080416,3.30973,1,0.00454262,10,0.000266155,-2.48021,0.351005,0.168089,21.5911,0.080416,
2,1,0,1,0,1152.07,0.0822019,0.081916,3.33556,1,0.00466783,10,0.000273236,-2.47683,0.360048,0.163867,21.3016,0.081916,
2,1,0,1,0,1152.11,0.0836983,0.0834257,3.36791,1,0.00479375,10,0.00028097,-2.47264,0.373842,0.157821,20.7442,0.0834257,
2,1,0,1,0,1152.15,0.0851947,0.0849098,3.39619,1,0.00492094,10,0.00028837,-2.46901,0.366918,0.160799,21.3592,0.0849098,
2,1,0,1,0,1152.19,0.0866947,0.0863571,3.42966,1,0.00504975,10,0.000296176,-2.46475,0.355502,0.165963,22.2566,0.0863571,
2,1,0,1,0,1152.22,0.0881947,0.0878976,3.4722,1,0.00517991,10,0.000305198,-2.4594,0.347226,0.169918,23.0289,0.0878976,
2,1,0,1,0,1152.26,0.0896911,0.0893735,3.50296,1,0.0053109,10,0.000313072,-2.45556,0.317204,0.186,25.4705,0.0893735,
2,1,0,1,0,1152.3,0.0911875,0.090879,3.5452,1,0.00544328,10,0.000322184,-2.45036,0.304994,0.193446,26.7387,0.090879,
2,1,0,1,0,1152.33,0.0926901,0.0923937,3.58481,1,0.00557791,10,0.000331214,-2.44553,0.291815,0.202183,28.2106,0.0923937,
2,1,0,1,0,1152.37,0.0941856,0.0938881,3.61804,1,0.00571322,10,0.000339691,-2.44153,0.327098,0.180374,25.4433,0.0938881,
2,1,0,1,0,1152.41,0.0956821,0.0953885,3.65554,1,0.00584994,10,0.000348697,-2.43705,0.298946,0.19736,28.1986,0.0953885,
2,1,0,1,0,1152.45,0.097182,0.0968651,3.70006,1,0.00598855,10,0.000358406,-2.43179,0.276784,0.213162,30.8314,0.0968651,
2,1,0,1,0,1152.48,0.098682,0.0984095,3.74452,1,0.00612897,10,0.000368496,-2.4266,0.266367,0.221499,32.4569,0.0984095,
2,1,0,1,0,1152.52,0.100178,0.0999013,3.79511,1,0.00627081,10,0.000379136,-2.42078,0.251891,0.234229,34.7785,0.0999013,
2,1,0,1,0,1152.56,0.101675,0.101354,3.84979,1,0.00641462,10,0.000390191,-2.41456,0.246622,0.239232,36.0007,0.101354,
2,1,0,1,0,1152.6,0.103175,0.102882,3.91488,1,0.00656083,10,0.000402772,-2.40728,0.224568,0.262726,40.1533,0.102882,
2,1,0,1,0,1152.63,0.104675,0.104361,3.98767,1,0.00670941,10,0.000416156,-2.39928,0.199856,0.295213,45.83,0.104361,
2,1,0,1,0,1152.67,0.106171,0.105885,4.05472,1,0.00686024,10,0.000429335,-2.39204,0.20758,0.284228,44.8169,0.105885,
2,1,0,1,0,1152.71,0.107667,0.107377,4.11924,1,0.00701373,10,0.00044231,-2.38518,0.191757,0.307682,49.5394,0.107377,
2,1,0,1,0,1152.75,0.10917,0.108876,4.18971,1,0.00717055,10,0.000456158,-2.37782,0.188859,0.312402,51.2249,0.1088756,
2,1,0,1,0,1152.78,0.110666,0.110346,4.26578,1,0.00732958,10,0.00047071,-2.37,0.182624,0.323067,53.9273,0.110346,
2,1,0,1,0,1152.82,0.112162,0.111902,4.35519,1,0.00749162,10,0.000487355,-2.36099,0.187446,0.314757,53.5195,0.111902,
2,1,0,1,0,1152.86,0.113662,0.113402,4.44088,1,0.00765725,10,0.000503603,-2.35253,0.190476,0.30975,53.5936,0.113402,
2,1,0,1,0,1152.9,0.115162,0.114838,4.51677,1,0.00782576,10,0.000518698,-2.34517,0.189459,0.311413,54.9073,0.114838,
2,1,0,1,0,1152.93,0.116658,0.116387,4.60475,1,0.00799692,10,0.000535932,-2.33679,0.18305,0.322316,57.8359,0.116387,
2,1,0,1,0,1152.97,0.118155,0.117828,4.69149,1,0.0081715,10,0.000552788,-2.32869,0.196009,0.301006,54.9912,0.117828,
2,1,0,1,0,1153.01,0.119655,0.119352,4.76981,1,0.00834958,10,0.000569286,-2.3215,0.221728,0.266092,49.5018,0.119352,
2,1,0,1,0,1153.05,0.121155,0.120858,4.84038,1,0.00853046,10,0.000585001,-2.31512,0.227302,0.259567,49.122,0.120858,
2,1,0,1,0,1153.08,0.122651,0.122368,4.91375,1,0.00871369,10,0.000601283,-2.30859,0.22312,0.264431,50.7807,0.122368,
2,1,0,1,0,1153.12,0.124147,0.123861,4.99336,1,0.00889976,10,0.000618482,-2.30161,0.237363,0.248564,48.455,0.123861,
2,1,0,1,0,1153.16,0.12565,0.125365,5.06918,1,0.00908962,10,0.000635496,-2.29506,0.259554,0.227313,44.8782,0.125365,
2,1,0,1,0,1153.2,0.127146,0.126885,5.12728,1,0.00928097,10,0.000650574,-2.29011,0.274105,0.215246,43.059,0.126885,
2,1,0,1,0,1153.23,0.128642,0.12833,5.19651,1,0.00947463,10,0.00066687,-2.28429,0.275585,0.21409,43.3696,0.12833,
2,1,0,1,0,1153.27,0.130142,0.129835,5.25844,1,0.00967123,10,0.000682729,-2.27914,0.293593,0.200958,41.1959,0.129835,
2,1,0,1,0,1153.31,0.131642,0.131316,5.31855,1,0.00987032,10,0.00069841,-2.27421,0.325136,0.181462,37.623,0.131316,
2,1,0,1,0,1153.35,0.133139,0.132859,5.37226,1,0.010071,10,0.000713753,-2.26984,0.353771,0.166774,34.9822,0.132859,
2,1,0,1,0,1153.38,0.134635,0.134302,5.42085,1,0.0102736,10,0.00072803,-2.26593,0.382147,0.154391,32.7078,0.1343018,
2,1,0,1,0,1153.42,0.136135,0.13588,5.47496,1,0.0104786,10,0.000743939,-2.26162,0.381678,0.15458,33.0317,0.13588,
2,1,0,1,0,1153.46,0.137635,0.137379,5.52128,1,0.0106855,10,0.000758508,-2.25796,0.456419,0.129267,27.8012,0.137379,
2,1,0,1,0,1153.5,0.13913,0.138829,5.56056,1,0.0108934,10,0.000771968,-2.25488,0.597143,0.0988038,21.3779,0.138829,
2,1,0,1,0,1153.53,0.140626,0.14031,5.58258,1,0.0111023,10,0.000783292,-2.25317,0.877797,0.0672137,14.6045,0.1403102,
2,1,0,1,0,1153.57,0.14213,0.14181,5.60038,1,0.0113132,10,0.000794191,-2.25178,1.24968,0.0472121,10.2948,0.14181,
2,1,0,1,0,1153.61,0.143626,0.143311,5.6047,1,0.0115235,10,0.000803216,-2.25145,-5.12835,-0.0115047,-2.51109,0.143311,
2,1,0,1,0,1153.65,0.145122,0.144825,5.58905,1,0.0117337,10,0.000809437,-2.25266,-0.700908,-0.0841765,-18.3279,0.144825,
2,1,0,1,0,1153.68,0.146622,0.146346,5.54604,1,0.0119434,10,0.00081164,-2.25602,-0.407992,-0.144611,-31.2906,0.146346,
2,1,0,1,0,1153.72,0.148122,0.147815,5.4983,1,0.0121514,10,0.000812731,-2.25977,-0.271924,-0.216972,-46.395,0.147815,
2,1,0,1,0,1153.76,0.149619,0.149338,5.42327,1,0.0123563,10,0.000809902,-2.26574,-0.197429,-0.298842,-62.9105,0.149338,
2,1,0,1,0,1153.8,0.151115,0.150808,5.31822,1,0.0125578,10,0.00080203,-2.27423,-0.143558,-0.410985,-84.6927,0.150808,
2,1,0,1,0,1153.83,0.152615,0.152283,5.17811,1,0.0127552,10,0.000788541,-2.28583,-0.120097,-0.491271,-98.6758,0.152283,
2,1,0,1,0,1153.87,0.154115,0.153775,5.01325,1,0.0129468,10,0.000770914,-2.29988,-0.102686,-0.574569,-112.053,0.153775,
2,1,0,1,0,1153.91,0.155611,0.155335,4.82967,1,0.0131316,10,0.000750216,-2.31608,-0.086796,-0.679755,-127.702,0.155335,
2,1,0,1,0,1153.95,0.157106,0.156817,4.62992,1,0.0133095,10,0.000726052,-2.33443,-0.0758181,-0.778179,-140.229,0.1568173,
2,1,0,1,0,1153.98,0.15861,0.158304,4.41822,1,0.0134804,10,0.000699424,-2.35475,-0.0711836,-0.828842,-142.863,0.158304,
2,1,0,1,0,1154.02,0.160106,0.159789,4.20039,1,0.0136421,10,0.000671176,-2.37671,-0.0670898,-0.879419,-144.397,0.159789,
2,1,0,1,0,1154.06,0.161602,0.161296,3.99364,1,0.013796,10,0.000644157,-2.39863,-0.0685757,-0.860362,-134.102,0.161296,
2,1,0,1,0,1154.1,0.163102,0.162841,3.80301,1,0.0139427,10,0.000619288,-2.41987,-0.0693321,-0.850977,-126.219,0.162841,
2,1,0,1,0,1154.13,0.164602,0.164234,3.61664,1,0.0140823,10,0.000593977,-2.44169,-0.0699007,-0.844055,-119.194,0.164234,
2,1,0,1,0,1154.17,0.166099,0.165791,3.44575,1,0.0142147,10,0.000571276,-2.46272,-0.0729393,-0.808891,-109.059,0.165791,
2,1,0,1,0,1154.21,0.167595,0.167287,3.28839,1,0.0143412,10,0.000550104,-2.48302,-0.0817963,-0.721304,-93.0902,0.167287,
2,1,0,1,0,1154.25,0.169095,0.168797,3.16261,1,0.0144629,10,0.00053384,-2.49995,-0.0858503,-0.687243,-85.0696,0.168797,
2,1,0,1,0,1154.28,0.170595,0.170331,3.03369,1,0.0145797,10,0.000516732,-2.51803,-0.0886931,-0.665216,-79.1594,0.170331,
2,1,0,1,0,1154.32,0.172091,0.171749,2.92174,1,0.0146918,10,0.000501806,-2.53436,-0.0954855,-0.617895,-70.7893,0.171749,
2,1,0,1,0,1154.36,0.173586,0.173303,2.83268,1,0.0148001,10,0.000490913,-2.5478,-0.10596,-0.556814,-61.6056,0.173303,
2,1,0,1,0,1154.39,0.17509,0.174763,2.74574,1,0.0149053,10,0.000479856,-2.56134,-0.110632,-0.533302,-57.0425,0.1747635,
2,1,0,1,0,1154.43,0.176586,0.176281,2.66201,1,0.015007,10,0.000469261,-2.57479,-0.114769,-0.514075,-53.2864,0.176281,
2,1,0,1,0,1154.47,0.178083,0.177775,2.58211,1,0.0151056,10,0.000459036,-2.58802,-0.126009,-0.468222,-47.2917,0.1777752,
2,1,0,1,0,1154.51,0.179582,0.179265,2.51707,1,0.0152018,10,0.000451222,-2.59911,-0.135386,-0.435792,-42.9563,0.179265,
2,1,0,1,0,1154.54,0.181082,0.180742,2.45136,1,0.0152956,10,0.000443065,-2.61059,-0.147603,-0.39972,-38.4358,0.180742,
2,1,0,1,0,1154.58,0.182579,0.182326,2.40237,1,0.0153872,10,0.000438015,-2.61936,-0.145405,-0.405764,-38.0768,0.182326,
2,1,0,1,0,1154.62,0.184075,0.183801,2.34934,1,0.0154767,10,0.00043181,-2.62905,-0.161245,-0.365902,-33.6445,0.183801,
2,1,0,1,0,1154.66,0.185579,0.185251,2.30395,1,0.0155647,10,0.000426809,-2.63753,-0.176123,-0.334994,-30.1292,0.185251,
2,1,0,1,0,1154.69,0.187074,0.18679,2.27234,1,0.0156508,10,0.000424449,-2.64353,-0.210741,-0.279964,-24.673,0.18679,
2,1,0,1,0,1154.73,0.18857,0.18828,2.22525,1,0.0157353,10,0.000418971,-2.65262,-0.196224,-0.300677,-26.0611,0.18828,
2,1,0,1,0,1154.77,0.19007,0.189767,2.18984,1,0.0158188,10,0.00041556,-2.65959,-0.217942,-0.270714,-23.1729,0.189767,
2,1,0,1,0,1154.81,0.19157,0.191238,2.14695,1,0.0159007,10,0.000410579,-2.66818,-0.238182,-0.24771,-20.8798,0.191238,
2,1,0,1,0,1154.84,0.193066,0.192718,2.12081,1,0.0159814,10,0.000408718,-2.6735,-0.310582,-0.189966,-15.8033,0.192718,
2,1,0,1,0,1154.88,0.194563,0.19424,2.09694,1,0.0160612,10,0.000407309,-2.67841,-0.282686,-0.208712,-17.1424,0.19424,
2,1,0,1,0,1154.92,0.196063,0.19574,2.07916,1,0.0161402,10,0.000406975,-2.68211,-0.27334,-0.215848,-17.5159,0.19574,
2,1,0,1,0,1154.96,0.197563,0.197223,2.04863,1,0.0162183,10,0.000404037,-2.68854,-0.324874,-0.181609,-14.5641,0.197223,
2,1,0,1,0,1154.99,0.199059,0.198768,2.03805,1,0.0162952,10,0.000405099,-2.69078,-0.334723,-0.176265,-13.9869,0.198768,
2,1,0,1,0,1155.03,0.200555,0.200255,2.01919,1,0.0163716,10,0.000404355,-2.69482,-0.389699,-0.151399,-11.8762,0.200255,
2,1,0,1,0,1155.07,0.202059,0.201755,2.00067,1,0.0164476,10,0.000403644,-2.69882,-0.385814,-0.152924,-11.8946,0.2017545,
2,1,0,1,0,1155.11,0.203554,0.203253,1.97914,1,0.0165227,10,0.000402266,-2.70352,-0.445368,-0.132475,-10.2575,0.203253,
2,1,0,1,0,1155.14,0.20505,0.204756,1.96093,1,0.016597,10,0.000401513,-2.70754,-0.583748,-0.101071,-7.79549,0.2047563,
2,1,0,1,0,1155.18,0.20655,0.206252,1.94876,1,0.0166711,10,0.000401935,-2.71024,-0.609953,-0.0967288,-7.37905,0.206252,
2,1,0,1,0,1155.22,0.20805,0.207741,1.94304,1,0.0167449,10,0.00040365,-2.71152,-0.482266,-0.122339,-9.24025,0.207741,
2,1,0,1,0,1155.26,0.209546,0.209249,1.92959,1,0.016818,10,0.000403764,-2.71454,-0.435965,-0.135332,-10.1695,0.209249,
2,1,0,1,0,1155.29,0.211043,0.210762,1.91847,1,0.0168903,10,0.000404341,-2.71704,-0.586784,-0.100548,-7.50822,0.210762,
2,1,0,1,0,1155.33,0.212543,0.212272,1.9079,1,0.0169626,10,0.000404994,-2.71944,-0.819756,-0.0719726,-5.34202,0.212272,
2,1,0,1,0,1155.37,0.214043,0.213738,1.8978,1,0.0170345,10,0.000405632,-2.72175,-0.695417,-0.0848412,-6.27787,0.213738,
2,1,0,1,0,1155.41,0.215539,0.21526,1.88247,1,0.0171059,10,0.00040522,-2.72527,-0.517039,-0.114111,-8.40843,0.21526,
2,1,0,1,0,1155.44,0.217035,0.216742,1.8689,1,0.0171767,10,0.000405069,-2.72841,-0.638731,-0.0923706,-6.78211,0.216742,
2,1,0,1,0,1155.48,0.218538,0.21824,1.86544,1,0.0172477,10,0.000407112,-2.72922,-2.08357,-0.0283167,-2.06428,0.21824,
2,1,0,1,0,1155.52,0.220034,0.219771,1.86555,1,0.0173181,10,0.000409994,-2.72919,-1.18924,-0.0496116,-3.59909,0.219771,
2,1,0,1,0,1155.56,0.22153,0.221277,1.85784,1,0.0173882,10,0.000411097,-2.73099,-0.63112,-0.0934846,-6.74224,0.221277,
2,1,0,1,0,1155.59,0.22303,0.222762,1.84178,1,0.0174582,10,0.000410278,-2.73476,-0.842815,-0.0700035,-5.02263,0.222762,
2,1,0,1,0,1155.63,0.22453,0.22425,1.83802,1,0.0175277,10,0.000412176,-2.73565,-0.8082,-0.0730017,-5.22924,0.22425,
2,1,0,1,0,1155.67,0.226026,0.22577,1.82594,1,0.0175969,10,0.000412241,-2.73851,-0.888061,-0.0664369,-4.74581,0.22577,
2,1,0,1,0,1155.71,0.227523,0.227244,1.81807,1,0.0176659,10,0.000413145,-2.74039,-0.688032,-0.0857518,-6.09549,0.227244,
2,1,0,1,0,1155.74,0.229023,0.228747,1.81277,1,0.0177348,10,0.000414666,-2.74166,-1.13173,-0.0521325,-3.70687,0.228747,
2,1,0,1,0,1155.78,0.230523,0.230234,1.80846,1,0.0178032,10,0.000416369,-2.74269,-1.00804,-0.0585295,-4.14884,0.230234,
2,1,0,1,0,1155.82,0.232019,0.231736,1.80665,1,0.0178715,10,0.000418665,-2.74313,-1.73167,-0.0340711,-2.39534,0.231736,
2,1,0,1,0,1155.86,0.233515,0.233227,1.80433,1,0.0179397,10,0.000420818,-2.74368,-1.02215,-0.0577214,-4.04073,0.233227,
2,1,0,1,0,1155.89,0.235018,0.234724,1.79797,1,0.0180079,10,0.000422027,-2.74522,-1.1466,-0.0514566,-3.59598,0.234724,
2,1,0,1,0,1155.93,0.236514,0.236205,1.78769,1,0.0180754,10,0.000422262,-2.74771,-1.19521,-0.0493638,-3.43995,0.236205,
2,1,0,1,0,1155.97,0.23801,0.237728,1.78214,1,0.0181428,10,0.000423666,-2.74906,-1.85289,-0.0318421,-2.21343,0.237728,
2,1,0,1,0,1156.01,0.23951,0.239246,1.77752,1,0.0182102,10,0.000425265,-2.75019,-1.84345,-0.0320052,-2.22562,0.239246,
2,1,0,1,0,1156.04,0.24101,0.240751,1.76997,1,0.0182775,10,0.000426124,-2.75203,-0.972962,-0.0606396,-4.20256,0.2407514,
2,1,0,1,0,1156.08,0.242506,0.242221,1.759,1,0.0183443,10,0.000426066,-2.75473,-0.942232,-0.0626172,-4.33429,0.2422208,
2,1,0,1,0,1156.12,0.244003,0.243686,1.7636,1,0.018411,10,0.000429765,-2.7536,-3.61538,-0.0163192,-1.12256,0.243686,
2,1,0,1,0,1156.16,0.245503,0.24526,1.76936,1,0.0184777,10,0.000433955,-2.75218,-1.86434,-0.0316466,-2.16796,0.24526,
2,1,0,1,0,1156.19,0.247003,0.246714,1.76039,1,0.0185444,10,0.000434313,-2.75439,-0.796779,-0.0740481,-5.05762,0.246714,
2,1,0,1,0,1156.23,0.248499,0.248219,1.7483,1,0.0186106,10,0.000433961,-2.75738,-1.24498,-0.0473904,-3.23639,0.248219,
2,1,0,1,0,1156.27,0.249995,0.249722,1.74423,1,0.0186766,10,0.000435573,-2.7584,-2.00922,-0.0293646,-2.00526,0.249722,
2,1,0,1,0,1156.31,0.251498,0.251217,1.73955,1,0.0187428,10,0.000437005,-2.75956,-2.27408,-0.0259445,-1.7688,0.2512174,
2,1,0,1,0,1156.34,0.252994,0.252679,1.72964,1,0.0188086,10,0.000437045,-2.76204,-1.29309,-0.0456272,-3.09532,0.252679,
2,1,0,1,0,1156.38,0.25449,0.254186,1.73272,1,0.0188742,10,0.000440431,-2.76127,-1.74273,-0.033855,-2.29429,0.254186,
2,1,0,1,0,1156.42,0.25599,0.255692,1.72869,1,0.0189397,10,0.000442011,-2.76228,-1.19207,-0.0494939,-3.34071,0.255692,
2,1,0,1,0,1156.45,0.25749,0.257219,1.73042,1,0.0190051,10,0.000445098,-2.76185,-1.64745,-0.0358129,-2.40045,0.257219,
2,1,0,1,0,1156.49,0.258987,0.258713,1.72792,1,0.0190704,10,0.000447034,-2.76248,-1.60399,-0.0367832,-2.46533,0.258713,
2,1,0,1,0,1156.53,0.260483,0.260209,1.7188,1,0.0191354,10,0.000447247,-2.76478,-0.96865,-0.0609095,-4.08308,0.260209,
2,1,0,1,0,1156.57,0.261983,0.261693,1.71398,1,0.0192003,10,0.000448536,-2.766,-0.91695,-0.0643438,-4.30655,0.261693,
2,1,0,1,0,1156.6,0.263483,0.263189,1.70827,1,0.0192651,10,0.000449597,-2.76744,-8.45218,-0.00698045,-0.465838,0.263189,
2,1,0,1,0,1156.64,0.264978,0.264653,1.70157,1,0.0193297,10,0.000450327,-2.76915,-1.9105,-0.030882,-2.05948,0.264653,
2,1,0,1,0,1156.68,0.266474,0.266154,1.70393,1,0.0193941,10,0.000453508,-2.76855,-1.49488,-0.039468,-2.62373,0.266154,
2,1,0,1,0,1156.72,0.267977,0.267699,1.69464,1,0.0194587,10,0.000453654,-2.77092,-2.11334,-0.0279179,-1.8478,0.267699,
2,1,0,1,0,1156.75,0.269474,0.269229,1.701,1,0.0195228,10,0.000457957,-2.7693,-2.36414,-0.0249562,-1.64816,0.269229,
2,1,0,1,0,1156.79,0.27097,0.270661,1.69903,1,0.0195868,10,0.000459863,-2.7698,-1.55247,-0.0380038,-2.50214,0.270661,
2,1,0,1,0,1156.83,0.27247,0.272191,1.68943,1,0.0196509,10,0.000459847,-2.77226,-1.20677,-0.0488907,-3.21137,0.272191,
2,1,0,1,0,1156.87,0.27397,0.273667,1.67712,1,0.0197148,10,0.000458972,-2.77544,-1.10575,-0.0533575,-3.51398,0.273667,
2,1,0,1,0,1156.9,0.275467,0.275182,1.67435,1,0.0197783,10,0.000460751,-2.77615,-1.25598,-0.0469752,-3.0918,0.275182,
2,1,0,1,0,1156.94,0.276963,0.276678,1.67425,1,0.0198417,10,0.000463228,-2.77618,-4.3718,-0.0134956,-0.884942,0.276678,
2,1,0,1,0,1156.98,0.278463,0.278181,1.67427,1,0.0199052,10,0.000465752,-2.77617,-0.804185,-0.0733662,-4.79065,0.2781814,
2,1,0,1,0,1157.02,0.279963,0.279636,1.67142,1,0.0199686,10,0.00046739,-2.77691,-2.12782,-0.0277279,-1.80744,0.279636,
2,1,0,1,0,1157.05,0.281459,0.281145,1.66913,1,0.0200315,10,0.000469266,-2.77751,-0.896421,-0.0658173,-4.26993,0.281145,
2,1,0,1,0,1157.09,0.282954,0.282649,1.6646,1,0.0200945,10,0.000470498,-2.77869,-2.25519,-0.0261618,-1.69321,0.282649,
2,1,0,1,0,1157.13,0.284458,0.284162,1.65992,1,0.0201576,10,0.000471687,-2.77991,-2.38146,-0.0247747,-1.60624,0.284162,
2,1,0,1,0,1157.17,0.285954,0.285653,1.65096,1,0.0202203,10,0.0004716,-2.78226,-1.41798,-0.0416085,-2.69396,0.285653,
2,1,0,1,0,1157.2,0.28745,0.287143,1.64563,1,0.0202827,10,0.000472531,-2.78367,-1.60106,-0.0368506,-2.38204,0.287143,
2,1,0,1,0,1157.24,0.28895,0.288623,1.64108,1,0.0203452,10,0.000473654,-2.78487,-4.78363,-0.0123337,-0.793885,0.288623,
2,1,0,1,0,1157.28,0.29045,0.29018,1.6462,1,0.0204076,10,0.000477696,-2.78352,-1.90643,-0.0309479,-1.98785,0.29018,
2,1,0,1,0,1157.32,0.291947,0.291663,1.6471,1,0.0204697,10,0.000480399,-2.78328,-1.13463,-0.0519992,-3.32214,0.291663,
2,1,0,1,0,1157.35,0.293443,0.29317,1.63632,1,0.0205317,10,0.00047972,-2.78613,-1.70964,-0.0345102,-2.20046,0.29317,
2,1,0,1,0,1157.39,0.294943,0.294632,1.6377,1,0.0205936,10,0.00048252,-2.78577,-2.36308,-0.0249675,-1.58984,0.2946322,
2,1,0,1,0,1157.43,0.296443,0.296181,1.63912,1,0.0206556,10,0.000485478,-2.78539,-2.70312,-0.0218266,-1.38876,0.296181,
2,1,0,1,0,1157.47,0.297939,0.29764,1.62506,1,0.0207172,10,0.000483681,-2.78913,-1.4445,-0.0408447,-2.59844,0.29764,
2,1,0,1,0,1157.5,0.299434,0.299174,1.6166,1,0.0207786,10,0.000483644,-2.7914,-0.00894751,-6.59401,-319.84,0.299174,
2,1,0,1,0,1157.52,0.299962,0.299594,1.5263,1,0.0208028,10,0.000457271,-2.81636,0.000777122,75.9212,2484.75,0.299594,
2,1,0,1,0,1157.55,0.298689,0.298431,-0.0094225,1,0.0208184,10,-2.81197e-06,-5.02583,0.00521837,11.3062,631.271,0.2984314,
2,0,0,1,0,1157.59,0.297189,0.296917,-0.355365,1,0.0208093,10,-0.000105514,-3.44933,-0.0213367,-2.76519,196.95,0.296917,
2,0,0,1,0,1157.63,0.295692,0.295412,-0.461592,1,0.0207932,10,-0.00013636,-3.33574,-0.01497,-3.94122,60.8795,0.295412,
2,0,0,1,0,1157.66,0.294196,0.293885,-0.515651,1,0.0207743,10,-0.000151542,-3.28764,-0.0331971,-1.77727,34.4552,0.293885,
2,0,0,1,0,1157.7,0.292696,0.292378,-0.556901,1,0.0207534,10,-0.000162826,-3.25422,-0.0452462,-1.30398,28.1882,0.292378,
2,0,0,1,0,1157.74,0.291196,0.290875,-0.601402,1,0.0207309,10,-0.000174933,-3.22084,-0.0522316,-1.12958,26.2479,0.290875,
2,0,0,1,0,1157.77,0.2897,0.289397,-0.634983,1,0.020707,10,-0.000183762,-3.19724,-0.0679049,-0.868862,21.467,0.289397,
2,0,0,1,0,1157.81,0.288205,0.28791,-0.664891,1,0.0206819,10,-0.000191428,-3.17725,-0.0807332,-0.730803,18.9342,0.28791,
2,0,0,1,0,1157.85,0.286701,0.286402,-0.685787,1,0.0206557,10,-0.000196411,-3.16381,-0.0879799,-0.670608,18.0253,0.286402,
2,0,0,1,0,1157.89,0.285205,0.28492,-0.721553,1,0.0206286,10,-0.000205585,-3.14173,-0.100429,-0.58748,16.4373,0.28492,
2,0,0,1,0,1157.92,0.283708,0.283426,-0.746886,1,0.0206006,10,-0.000211687,-3.12675,-0.112079,-0.526414,15.1751,0.283426,
2,0,0,1,0,1157.96,0.282208,0.281935,-0.765877,1,0.0205715,10,-0.000215928,-3.11584,-0.148405,-0.39756,11.7915,0.2819351,
2,0,0,1,0,1158,0.280709,0.28042,-0.78447,1,0.0205417,10,-0.000219981,-3.10542,-0.148297,-0.39785,12.1655,0.2804198,
2,0,0,1,0,1158.04,0.279212,0.27895,-0.803098,1,0.0205114,10,-0.000224024,-3.09523,-0.156656,-0.376621,11.8149,0.27895,
2,0,0,1,0,1158.07,0.277716,0.277414,-0.819826,1,0.0204803,10,-0.000227431,-3.08628,-0.145246,-0.406207,13.0394,0.277414,
2,0,0,1,0,1158.11,0.276216,0.275911,-0.84151,1,0.0204484,10,-0.000232182,-3.07494,-0.160079,-0.368568,12.1072,0.275911,
2,0,0,1,0,1158.15,0.274716,0.274437,-0.856049,1,0.0204159,10,-0.000234932,-3.0675,-0.187484,-0.314693,10.5187,0.274437,
2,0,0,1,0,1158.19,0.27322,0.272934,-0.869747,1,0.0203829,10,-0.000237384,-3.06061,-0.174784,-0.33756,11.4554,0.272934,
2,0,0,1,0,1158.22,0.271725,0.271419,-0.887077,1,0.0203494,10,-0.000240769,-3.05204,-0.159349,-0.370256,12.7446,0.2714186,
2,0,0,1,0,1158.26,0.270221,0.269933,-0.905069,1,0.0203149,10,-0.000244308,-3.04332,-0.20095,-0.293605,10.3056,0.269933,
2,0,0,1,0,1158.3,0.268725,0.268376,-0.915069,1,0.0202802,10,-0.000245582,-3.03855,-0.257938,-0.228737,8.17151,0.268376,
2,0,0,1,0,1158.34,0.267228,0.266945,-0.923961,1,0.020245,10,-0.000246647,-3.03435,-0.211259,-0.279278,10.1534,0.266945,
2,0,0,1,0,1158.37,0.265728,0.265433,-0.93963,1,0.0202092,10,-0.000249409,-3.02704,-0.217998,-0.270644,9.95841,0.2654331,
2,0,0,1,0,1158.41,0.264228,0.263886,-0.955172,1,0.0201728,10,-0.000252056,-3.01992,-0.269183,-0.219182,8.20362,0.263886,
2,0,0,1,0,1158.45,0.262732,0.262454,-0.968948,1,0.020136,10,-0.000254304,-3.0137,-0.306957,-0.192209,7.25979,0.262454,
2,0,0,1,0,1158.49,0.261236,0.260922,-0.981455,1,0.0200988,10,-0.000256083,-3.00813,-0.268695,-0.21958,8.38616,0.260922,
2,0,0,1,0,1158.52,0.259736,0.259432,-0.999956,1,0.0200611,10,-0.00025942,-3.00002,-0.280874,-0.210058,8.14881,0.259432,
2,0,0,1,0,1158.56,0.258236,0.257946,-1.01006,1,0.0200229,10,-0.000260542,-2.99565,-0.25039,-0.235632,9.21531,0.257946,
2,0,0,1,0,1158.6,0.256741,0.256398,-1.01959,1,0.0199842,10,-0.000261422,-2.99157,-0.332587,-0.177397,7.02202,0.256398,
2,0,0,1,0,1158.64,0.255241,0.254946,-1.0296,1,0.0199451,10,-0.000262494,-2.98733,-0.366653,-0.160915,6.47559,0.254946,
2,0,0,1,0,1158.67,0.253741,0.253443,-1.03622,1,0.0199057,10,-0.000262623,-2.98455,-0.36769,-0.160461,6.55839,0.253443,
2,0,0,1,0,1158.71,0.252245,0.251943,-1.04663,1,0.0198658,10,-0.00026369,-2.98021,-0.27638,-0.213474,8.73562,0.251943,
2,0,0,1,0,1158.75,0.250748,0.250426,-1.06764,1,0.0198255,10,-0.000267366,-2.97157,-0.341149,-0.172945,7.16641,0.250426,
2,0,0,1,0,1158.79,0.249248,0.248941,-1.08002,1,0.0197847,10,-0.000268862,-2.96657,-0.358424,-0.164609,6.86621,0.248941,
2,0,0,1,0,1158.82,0.247748,0.247452,-1.08091,1,0.0197437,10,-0.000267473,-2.96621,-0.454517,-0.129808,5.4837,0.247452,
2,0,0,1,0,1158.86,0.246252,0.245969,-1.10151,1,0.0197022,10,-0.000270936,-2.95801,-0.27009,-0.218446,9.28811,0.245969,
2,0,0,1,0,1158.9,0.244756,0.244436,-1.10554,1,0.0196603,10,-0.000270235,-2.95642,-0.317719,-0.185698,8.02751,0.244436,
2,0,0,1,0,1158.94,0.243252,0.242956,-1.11537,1,0.0196178,10,-0.000270986,-2.95258,-0.399024,-0.147861,6.44032,0.242956,
2,0,0,1,0,1158.97,0.241756,0.241477,-1.11861,1,0.0195752,10,-0.000270119,-2.95132,-0.384414,-0.15348,6.76526,0.241477,
2,0,0,1,0,1159.01,0.240261,0.240001,-1.13525,1,0.0195322,10,-0.00027246,-2.94491,-0.3628,-0.162624,7.22342,0.240001,
2,0,0,1,0,1159.05,0.238761,0.238424,-1.1459,1,0.0194887,10,-0.00027321,-2.94085,-0.385249,-0.153148,6.84947,0.238424,
2,0,0,1,0,1159.09,0.237261,0.236947,-1.15662,1,0.0194448,10,-0.000274057,-2.93681,-0.502635,-0.117381,5.27393,0.236947,
2,0,0,1,0,1159.12,0.235765,0.235449,-1.16917,1,0.0194006,10,-0.00027528,-2.93212,-0.48403,-0.121893,5.52879,0.235449,
2,0,0,1,0,1159.16,0.234268,0.233972,-1.17574,1,0.0193562,10,-0.00027509,-2.92969,-0.382629,-0.154196,7.08795,0.233972,
2,0,0,1,0,1159.2,0.232768,0.232491,-1.18778,1,0.0193111,10,-0.000276148,-2.92526,-0.359165,-0.16427,7.61747,0.232491,
2,0,0,1,0,1159.24,0.231268,0.230969,-1.19064,1,0.0192656,10,-0.000275002,-2.92422,-0.463216,-0.12737,5.95888,0.2309695,
2,0,0,1,0,1159.27,0.229772,0.229449,-1.20476,1,0.01922,10,-0.000276432,-2.9191,-0.425497,-0.138662,6.54542,0.229449,
2,0,0,1,0,1159.31,0.228275,0.22798,-1.21724,1,0.019174,10,-0.000277507,-2.91462,-0.395813,-0.14906,7.09426,0.22798,
2,0,0,1,0,1159.35,0.226772,0.226497,-1.22924,1,0.0191273,10,-0.000278419,-2.91036,-0.316317,-0.186522,8.90557,0.226497,
2,0,0,1,0,1159.39,0.225276,0.225027,-1.23789,1,0.0190805,10,-0.000278559,-2.90732,-0.407456,-0.144801,6.9887,0.225027,
2,0,0,1,0,1159.42,0.223781,0.223484,-1.25126,1,0.0190333,10,-0.000279636,-2.90265,-0.48597,-0.121407,5.89722,0.223484,
2,0,0,1,0,1159.46,0.222281,0.221972,-1.25316,1,0.0189856,10,-0.000278165,-2.90199,-0.373706,-0.157878,7.75971,0.221972,
2,0,0,1,0,1159.5,0.220781,0.220494,-1.26395,1,0.0189375,10,-0.000278693,-2.89827,-0.32241,-0.182997,9.06937,0.220494,
2,0,0,1,0,1159.54,0.219284,0.218969,-1.28011,1,0.0188891,10,-0.000280303,-2.89275,-0.399364,-0.147735,7.39926,0.218969,
2,0,0,1,0,1159.57,0.217788,0.217489,-1.28502,1,0.0188402,10,-0.000279479,-2.89109,-0.440164,-0.134041,6.76301,0.217489,
2,0,0,1,0,1159.61,0.216288,0.215987,-1.29253,1,0.0187909,10,-0.000279169,-2.88856,-0.446869,-0.13203,6.70857,0.215987,
2,0,0,1,0,1159.65,0.214788,0.21446,-1.31472,1,0.0187413,10,-0.000281955,-2.88117,-0.431438,-0.136752,7.00051,0.21446,
2,0,0,1,0,1159.69,0.213292,0.212986,-1.33008,1,0.0186912,10,-0.000283288,-2.87612,-0.343421,-0.171801,8.85171,0.212986,
2,0,0,1,0,1159.72,0.211796,0.211524,-1.33991,1,0.0186408,10,-0.000283422,-2.87293,-0.450505,-0.130964,6.81549,0.211524,
2,0,0,1,0,1159.76,0.210293,0.209998,-1.3491,1,0.0185896,10,-0.000283309,-2.86995,-0.34294,-0.172042,9.05009,0.209998,
2,0,0,1,0,1159.8,0.208797,0.208476,-1.35284,1,0.0185384,10,-0.000282034,-2.86875,-0.270563,-0.218064,11.6309,0.208476,
2,0,0,1,0,1159.83,0.207301,0.206991,-1.36979,1,0.0184866,10,-0.000283535,-2.86334,-0.292234,-0.201893,10.8359,0.206991,
2,0,0,1,0,1159.87,0.205801,0.205484,-1.38685,1,0.018434,10,-0.000284976,-2.85797,-0.377126,-0.156446,8.45865,0.205484,
2,0,0,1,0,1159.91,0.204301,0.203951,-1.39751,1,0.018381,10,-0.000285024,-2.85464,-0.544459,-0.108364,5.91517,0.2039509,
2,0,0,1,0,1159.95,0.202804,0.202483,-1.40956,1,0.0183279,10,-0.000285411,-2.85092,-0.381658,-0.154589,8.51346,0.202483,
2,0,0,1,0,1159.98,0.201308,0.200999,-1.43183,1,0.0182743,10,-0.000287797,-2.84411,-0.306644,-0.192406,10.6642,0.200999,
2,0,0,1,0,1160.02,0.199808,0.199516,-1.43945,1,0.0182198,10,-0.000287193,-2.8418,-0.343818,-0.171603,9.62304,0.199516,
2,0,0,1,0,1160.06,0.198308,0.198023,-1.45438,1,0.0181649,10,-0.000288002,-2.83732,-0.358386,-0.164627,9.32477,0.1980231,
2,0,0,1,0,1160.1,0.196812,0.196522,-1.46235,1,0.0181096,10,-0.000287383,-2.83495,-0.348631,-0.169234,9.73301,0.196522,
2,0,0,1,0,1160.13,0.195316,0.194991,-1.48541,1,0.0180538,10,-0.000289641,-2.82815,-0.23995,-0.245884,14.2258,0.194991,
2,0,0,1,0,1160.17,0.193813,0.19347,-1.50254,1,0.0179968,10,-0.000290697,-2.82317,-0.300043,-0.196639,11.5484,0.19347,
2,0,0,1,0,1160.21,0.192317,0.191982,-1.52135,1,0.0179396,10,-0.000292071,-2.81777,-0.34289,-0.172067,10.1908,0.191982,
2,0,0,1,0,1160.25,0.190821,0.190507,-1.53626,1,0.0178817,10,-0.000292669,-2.81354,-0.288263,-0.204674,12.2733,0.190507,
2,0,0,1,0,1160.28,0.189321,0.189001,-1.55906,1,0.0178231,10,-0.000294665,-2.80714,-0.261456,-0.225659,13.6908,0.189001,
2,0,0,1,0,1160.32,0.187821,0.187554,-1.57757,1,0.0177636,10,-0.000295879,-2.80201,-0.23113,-0.255268,15.7064,0.187554,
2,0,0,1,0,1160.36,0.186324,0.185995,-1.59616,1,0.0177035,10,-0.000296878,-2.79692,-0.262022,-0.225172,14.0269,0.185995,
2,0,0,1,0,1160.4,0.184828,0.184518,-1.62131,1,0.0176425,10,-0.000299161,-2.79013,-0.238966,-0.246897,15.6625,0.184518,
2,0,0,1,0,1160.43,0.183328,0.182993,-1.6375,1,0.0175806,10,-0.000299651,-2.78582,-0.233695,-0.252466,16.2925,0.182993,
2,0,0,1,0,1160.47,0.181828,0.181584,-1.66593,1,0.0175177,10,-0.000302506,-2.77834,-0.189105,-0.311996,20.3699,0.181584,
2,0,0,1,0,1160.51,0.180332,0.180039,-1.70509,1,0.0174539,10,-0.000306983,-2.76825,-0.208414,-0.28309,18.7788,0.180039,
2,0,0,1,0,1160.55,0.178836,0.178498,-1.73456,1,0.017389,10,-0.000309616,-2.76081,-0.188571,-0.31288,21.1252,0.178498,
2,0,0,1,0,1160.58,0.177333,0.177014,-1.75991,1,0.0173227,10,-0.000311528,-2.75451,-0.176461,-0.334352,22.977,0.177014,
2,0,0,1,0,1160.62,0.175837,0.17553,-1.79828,1,0.0172555,10,-0.000315651,-2.74514,-0.155575,-0.379237,26.5099,0.17553,
2,0,0,1,0,1160.66,0.174341,0.174057,-1.82977,1,0.0171869,10,-0.000318484,-2.7376,-0.164364,-0.358959,25.7276,0.174057,
2,0,0,1,0,1160.7,0.172841,0.172512,-1.87091,1,0.0171167,10,-0.000322754,-2.72795,-0.157369,-0.374915,27.4791,0.172512,
2,0,0,1,0,1160.73,0.171341,0.171014,-1.90357,1,0.0170451,10,-0.000325537,-2.72043,-0.148515,-0.397265,29.7843,0.171014,
2,0,0,1,0,1160.77,0.169844,0.169573,-1.96345,1,0.0169719,10,-0.000332948,-2.70698,-0.135733,-0.434677,33.3855,0.169573,
2,0,0,1,0,1160.81,0.168348,0.168083,-2.02016,1,0.0168969,10,-0.000339554,-2.69462,-0.129087,-0.457057,35.9598,0.168083,
2,0,0,1,0,1160.85,0.166848,0.166535,-2.07645,1,0.0168195,10,-0.000345802,-2.68268,-0.125802,-0.46899,37.8001,0.166535,
2,0,0,1,0,1160.88,0.165348,0.165037,-2.13406,1,0.01674,10,-0.000352199,-2.67079,-0.118514,-0.497832,41.3971,0.165037,
2,0,0,1,0,1160.92,0.163852,0.163522,-2.19832,1,0.0166585,10,-0.000359473,-2.65791,-0.114145,-0.516887,44.4315,0.163522,
2,0,0,1,0,1160.96,0.162357,0.162054,-2.26654,1,0.0165743,10,-0.000367301,-2.64464,-0.096509,-0.611342,54.287,0.162054,
2,0,0,1,0,1161,0.160853,0.160561,-2.34799,1,0.0164867,10,-0.000376997,-2.6293,-0.0993716,-0.593731,54.5938,0.160561,
2,0,0,1,0,1161.03,0.159357,0.159021,-2.4306,1,0.0163965,10,-0.000386515,-2.61429,-0.0933923,-0.631744,60.3309,0.159021,
2,0,0,1,0,1161.07,0.157861,0.15754,-2.52886,1,0.016303,10,-0.000398397,-2.59708,-0.0863762,-0.683059,67.7038,0.15754,
2,0,0,1,0,1161.11,0.156361,0.156046,-2.6362,1,0.0162054,10,-0.000411368,-2.57902,-0.0799416,-0.738038,76.1014,0.156046,
2,0,0,1,0,1161.15,0.154861,0.154563,-2.75931,1,0.0161035,10,-0.000426488,-2.5592,-0.0791603,-0.745323,80.1448,0.154563,
2,0,0,1,0,1161.18,0.153364,0.15305,-2.88204,1,0.0159974,10,-0.000441097,-2.5403,-0.0781158,-0.755289,84.8782,0.1530503,
2,0,0,1,0,1161.22,0.151868,0.151561,-3.00408,1,0.0158866,10,-0.000455301,-2.52229,-0.0762315,-0.773959,91.1617,0.151561,
2,0,0,1,0,1161.26,0.150368,0.150048,-3.15226,1,0.0157704,10,-0.000472991,-2.50138,-0.0730016,-0.808201,99.6311,0.150048,
2,0,0,1,0,1161.3,0.148868,0.148553,-3.30622,1,0.0156485,10,-0.000491148,-2.48067,-0.072092,-0.818399,105.89,0.148553,
2,0,0,1,0,1161.33,0.147372,0.147055,-3.46848,1,0.015521,10,-0.000510057,-2.45986,-0.0751115,-0.785499,106.393,0.147055,
2,0,0,1,0,1161.37,0.145877,0.14555,-3.62579,1,0.0153874,10,-0.000527734,-2.4406,-0.0746672,-0.790173,111.943,0.14555,
2,0,0,1,0,1161.41,0.144373,0.144066,-3.80145,1,0.0152469,10,-0.000547659,-2.42005,-0.0761921,-0.774358,114.948,0.144066,
2,0,0,1,0,1161.45,0.142877,0.14255,-3.98318,1,0.0151006,10,-0.000567802,-2.39977,-0.0771237,-0.765005,118.601,0.14255,
2,0,0,1,0,1161.48,0.14138,0.14108,-4.16282,1,0.0149476,10,-0.000587293,-2.38061,-0.0851544,-0.692859,111.82,0.14108,
2,0,0,1,0,1161.52,0.13988,0.139541,-4.32542,1,0.0147876,10,-0.000603574,-2.36397,-0.0893,-0.660694,111.375,0.139541,
2,0,0,1,0,1161.56,0.13838,0.138053,-4.4881,1,0.0146218,10,-0.000619595,-2.34794,-0.0954982,-0.617812,108.308,0.138053,
2,0,0,1,0,1161.6,0.136884,0.136601,-4.64888,1,0.0144499,10,-0.000635044,-2.33265,-0.0992347,-0.59455,107.772,0.1366013,
2,0,0,1,0,1161.63,0.135388,0.135065,-4.8176,1,0.014272,10,-0.000650687,-2.31717,-0.111712,-0.528143,98.9427,0.135065,
2,0,0,1,0,1161.67,0.133888,0.133632,-4.9602,1,0.014088,10,-0.000662844,-2.3045,-0.125136,-0.471487,90.9678,0.133632,
2,0,0,1,0,1161.71,0.132389,0.132095,-5.08781,1,0.0138989,10,-0.000672073,-2.29347,-0.136928,-0.430883,85.3028,0.132095,
2,0,0,1,0,1161.75,0.130893,0.13061,-5.21136,1,0.0137056,10,-0.000680658,-2.28305,-0.155024,-0.380587,77.0959,0.13061,
2,0,0,1,0,1161.78,0.129393,0.129084,-5.31866,1,0.0135075,10,-0.000686555,-2.2742,-0.178605,-0.330337,68.3607,0.129084,
2,0,0,1,0,1161.82,0.127893,0.127588,-5.41001,1,0.0133055,10,-0.000690252,-2.2668,-0.226585,-0.260387,54.821,0.127588,
2,0,0,1,0,1161.86,0.126397,0.126085,-5.47796,1,0.013101,10,-0.00069069,-2.26138,-0.263617,-0.223809,47.8226,0.126085,
2,0,0,1,0,1161.89,0.1249,0.124585,-5.54344,1,0.012894,10,-0.000690628,-2.25622,-0.31196,-0.189127,40.8968,0.124585,
2,0,0,1,0,1161.93,0.1234,0.123058,-5.60428,1,0.012684,10,-0.00068965,-2.25148,-0.399653,-0.147628,32.2138,0.1230576,
2,0,0,1,0,1161.97,0.1219,0.121557,-5.645,1,0.0124723,10,-0.00068619,-2.24834,-0.728269,-0.0810141,17.7856,0.121557,
2,0,0,1,0,1162.01,0.120404,0.120131,-5.66116,1,0.0122601,10,-0.000680083,-2.24709,-1.37108,-0.0430319,9.48892,0.120131,
2,0,0,1,0,1162.04,0.118908,0.118619,-5.6767,1,0.0120474,10,-0.000673365,-2.2459,-4.09119,-0.0144212,3.18937,0.118619,
2,0,0,1,0,1162.08,0.117404,0.117111,-5.67675,1,0.0118333,10,-0.000664808,-2.2459,4.28195,0.0137788,-3.04514,0.117111,
2,0,0,1,0,1162.12,0.115909,0.115572,-5.66313,1,0.0116205,10,-0.000654501,-2.24694,1.06687,0.055302,-12.1939,0.115572,
2,0,0,1,0,1162.16,0.114413,0.1141,-5.63735,1,0.0114083,10,-0.000643224,-2.24892,0.668815,0.0882157,-19.3922,0.1141004,
2,0,0,1,0,1162.19,0.112913,0.112588,-5.59559,1,0.0111968,10,-0.000629997,-2.25215,0.491163,0.120123,-26.2518,0.112588,
2,0,0,1,0,1162.23,0.111413,0.111114,-5.55482,1,0.0109868,10,-0.000617221,-2.25533,0.420015,0.140471,-30.4445,0.111114,
2,0,0,1,0,1162.27,0.109917,0.109603,-5.50822,1,0.0107791,10,-0.000603716,-2.25899,0.335908,0.175644,-37.7071,0.109603,
2,0,0,1,0,1162.31,0.10842,0.108117,-5.45308,1,0.0105734,10,-0.000589571,-2.26336,0.30445,0.193792,-41.1281,0.108117,
2,0,0,1,0,1162.34,0.10692,0.106599,-5.38556,1,0.0103697,10,-0.000574095,-2.26877,0.263356,0.224031,-46.982,0.106599,
2,0,0,1,0,1162.38,0.10542,0.105096,-5.31515,1,0.0101684,10,-0.000558602,-2.27448,0.259006,0.227794,-47.156,0.105096,
2,0,0,1,0,1162.42,0.103924,0.103607,-5.23961,1,0.00997041,10,-0.000542862,-2.2807,0.234692,0.251393,-51.3464,0.103607,
2,0,0,1,0,1162.46,0.102427,0.102136,-5.15452,1,0.00977525,10,-0.000526464,-2.28781,0.214796,0.274679,-55.2627,0.1021364,
2,0,0,1,0,1162.49,0.100924,0.100639,-5.06228,1,0.00958223,10,-0.000509465,-2.29565,0.209542,0.281567,-55.7536,0.100639,
2,0,0,1,0,1162.53,0.0994284,0.0991271,-4.98383,1,0.00939353,10,-0.000494032,-2.30244,0.205114,0.287645,-56.0069,0.0991271,
2,0,0,1,0,1162.57,0.0979329,0.0976696,-4.90297,1,0.00920796,10,-0.000478871,-2.30954,0.208538,0.282922,-54.1298,0.0976696,
2,0,0,1,0,1162.61,0.0964329,0.096109,-4.82185,1,0.00902496,10,-0.000463423,-2.31679,0.202707,0.291061,-54.6606,0.096109,
2,0,0,1,0,1162.64,0.094933,0.0946293,-4.74132,1,0.00884502,10,-0.000448668,-2.3241,0.201728,0.292472,-54.0418,0.09462931,
2,0,0,1,0,1162.68,0.0934366,0.0931427,-4.6607,1,0.00866876,10,-0.00043411,-2.33155,0.214317,0.275293,-50.0925,0.0931427,
2,0,0,1,0,1162.72,0.0919401,0.0916374,-4.58372,1,0.00849517,10,-0.00042004,-2.33878,0.228035,0.258732,-46.351,0.0916374,
2,0,0,1,0,1162.76,0.0904402,0.0901256,-4.51776,1,0.00832369,10,-0.000407166,-2.34508,0.225612,0.261511,-46.1493,0.09012562,
2,0,0,1,0,1162.79,0.0889402,0.0886137,-4.44958,1,0.00815473,10,-0.000394294,-2.35168,0.253727,0.232533,-40.4945,0.0886137,
2,0,0,1,0,1162.83,0.0874438,0.0871559,-4.38845,1,0.00798877,10,-0.00038248,-2.35769,0.270795,0.217877,-37.3927,0.0871559,
2,0,0,1,0,1162.87,0.0859483,0.0856498,-4.33758,1,0.00782481,10,-0.000371512,-2.36275,0.298558,0.197617,-33.4741,0.0856498,
2,0,0,1,0,1162.91,0.0844447,0.0841354,-4.29425,1,0.0076619,10,-0.000361298,-2.36711,0.320148,0.18429,-30.8377,0.0841354,
2,0,0,1,0,1162.94,0.0829492,0.0826258,-4.2499,1,0.00750159,10,-0.000351151,-2.37162,0.328324,0.1797,-29.7234,0.0826258,
2,0,0,1,0,1162.98,0.0814528,0.0811359,-4.19657,1,0.00734305,10,-0.000340493,-2.37711,0.347713,0.16968,-27.8381,0.0811359,
2,0,0,1,0,1163.02,0.0799528,0.0796489,-4.15817,1,0.00718569,10,-0.000331193,-2.3811,0.406684,0.145076,-23.57,0.0796489,
2,0,0,1,0,1163.06,0.0784529,0.0781418,-4.12219,1,0.00702964,10,-0.000322116,-2.38487,0.390265,0.151179,-24.3523,0.0781418,
2,0,0,1,0,1163.09,0.0769565,0.0766576,-4.08574,1,0.00687532,10,-0.000313203,-2.38873,0.36048,0.163671,-26.1197,0.0766576,
2,0,0,1,0,1163.13,0.0754601,0.0751228,-4.04411,1,0.00672242,10,-0.000303804,-2.39318,0.409414,0.144108,-22.8141,0.0751228,
2,0,0,1,0,1163.17,0.0739601,0.0736553,-4.02093,1,0.00657048,10,-0.000296162,-2.39567,0.417493,0.14132,-22.18,0.0736553,
2,0,0,1,0,1163.21,0.0724601,0.0721535,-3.99237,1,0.00641955,10,-0.000288064,-2.39877,0.471365,0.125168,-19.4888,0.0721535,
2,0,0,1,0,1163.24,0.0709637,0.0706444,-3.96291,1,0.00627022,10,-0.000279958,-2.40199,0.430218,0.13714,-21.1482,0.0706444,
2,0,0,1,0,1163.28,0.0694682,0.0691724,-3.92764,1,0.00612198,10,-0.000271685,-2.40587,0.433035,0.136248,-20.876,0.0691724,
2,0,0,1,0,1163.32,0.0679646,0.0676145,-3.89256,1,0.00597433,10,-0.000263193,-2.40977,0.485602,0.121499,-18.5126,0.0676145,
2,0,0,1,0,1163.36,0.0664691,0.0661291,-3.86448,1,0.00582849,10,-0.000255555,-2.41291,0.461128,0.127947,-19.3332,0.0661291,
2,0,0,1,0,1163.39,0.0649727,0.0646685,-3.83588,1,0.00568355,10,-0.000248061,-2.41613,0.401707,0.146873,-21.9785,0.0646685,
2,0,0,1,0,1163.43,0.0634727,0.0631693,-3.80399,1,0.00553945,10,-0.000240296,-2.41976,0.375025,0.157323,-23.3575,0.0631693,
2,0,0,1,0,1163.47,0.0619728,0.0616732,-3.76557,1,0.00539683,10,-0.000232235,-2.42417,0.356443,0.165525,-24.3492,0.0616732,
2,0,0,1,0,1163.51,0.0604764,0.0601661,-3.7402,1,0.00525575,10,-0.000225033,-2.42711,0.380015,0.155257,-22.6101,0.0601661,
2,0,0,1,0,1163.54,0.05898,0.0586533,-3.70623,1,0.0051159,10,-0.000217382,-2.43107,0.381438,0.154678,-22.3292,0.0586533,
2,0,0,1,0,1163.58,0.05748,0.0571655,-3.6664,1,0.00497692,10,-0.000209592,-2.43576,0.322793,0.18278,-26.1331,0.0571655,
2,0,0,1,0,1163.62,0.05598,0.0556544,-3.62905,1,0.00483946,10,-0.000201972,-2.44021,0.316624,0.186341,-26.4058,0.0556544,
2,0,0,1,0,1163.66,0.0544836,0.0541954,-3.58565,1,0.00470384,10,-0.000194325,-2.44543,0.367105,0.160717,-22.5354,0.0541954,
2,0,0,1,0,1163.69,0.0529881,0.0526466,-3.55397,1,0.00456949,10,-0.000187104,-2.44929,0.331706,0.177868,-24.6717,0.0526466,
2,0,0,1,0,1163.73,0.0514846,0.0511927,-3.51232,1,0.00443579,10,-0.000179805,-2.45441,0.270381,0.218211,-29.8926,0.0511927,
2,0,0,1,0,1163.77,0.049989,0.0496865,-3.46281,1,0.00430453,10,-0.000172055,-2.46057,0.275199,0.21439,-29.0299,0.0496865,
2,0,0,1,0,1163.81,0.0484926,0.0482253,-3.42535,1,0.00417502,10,-0.000165188,-2.4653,0.265857,0.221924,-29.6375,0.0482253,
2,0,0,1,0,1163.84,0.0469927,0.0466747,-3.38846,1,0.00404662,10,-0.000158155,-2.47,0.269201,0.219167,-28.8707,0.0466747,
2,0,0,1,0,1163.88,0.0454927,0.045178,-3.33855,1,0.00391988,10,-0.000150829,-2.47644,0.239574,0.246271,-32.0289,0.045178,
2,0,0,1,0,1163.92,0.0439963,0.04372,-3.29177,1,0.00379513,10,-0.000143916,-2.48257,0.240034,0.245798,-31.5997,0.04372,
2,0,0,1,0,1163.95,0.0424999,0.0421571,-3.24295,1,0.00367225,10,-0.000136713,-2.48906,0.256188,0.2303,-29.264,0.04215708,
2,0,0,1,0,1163.99,0.0409999,0.0406669,-3.20244,1,0.00355061,10,-0.000130233,-2.49452,0.263517,0.223894,-28.0375,0.0406669,
2,0,0,1,0,1164.03,0.0394999,0.0391682,-3.16622,1,0.00343044,10,-0.000124015,-2.49946,0.250157,0.235852,-29.0769,0.0391682,
2,0,0,1,0,1164.07,0.0380044,0.0376501,-3.12441,1,0.00331222,10,-0.000117635,-2.50523,0.245669,0.240161,-29.2258,0.03765009,
2,0,0,1,0,1164.1,0.0365089,0.0362001,-3.07607,1,0.00319574,10,-0.000111354,-2.512,0.28264,0.208746,-25.0638,0.0362001,
2,0,0,1,0,1164.14,0.0350054,0.034697,-3.04217,1,0.00308007,10,-0.000105554,-2.51682,0.306442,0.192533,-22.8143,0.034697,
2,0,0,1,0,1164.18,0.033509,0.0332121,-2.9999,1,0.00296635,10,-9.9633e-05,-2.52289,0.312255,0.188948,-22.1661,0.0332121,
2,0,0,1,0,1164.22,0.0320125,0.0317064,-2.96871,1,0.00285391,10,-9.41272e-05,-2.52743,0.294274,0.200493,-23.2511,0.0317064,
2,0,0,1,0,1164.25,0.0305126,0.0302229,-2.92745,1,0.00274252,10,-8.8476e-05,-2.53351,0.313511,0.188191,-21.6124,0.0302229,
2,0,0,1,0,1164.29,0.0290126,0.028675,-2.90165,1,0.00263236,10,-8.32046e-05,-2.53736,0.376399,0.156749,-17.7991,0.028675,
2,0,0,1,0,1164.33,0.0275162,0.0271993,-2.88153,1,0.00252346,10,-7.83755e-05,-2.54038,0.386685,0.152579,-17.1616,0.0271993,
2,0,0,1,0,1164.37,0.0260198,0.0256977,-2.85904,1,0.00241546,10,-7.34707e-05,-2.54378,0.39528,0.149261,-16.6121,0.0256977,
2,0,0,1,0,1164.4,0.0245198,0.0242133,-2.83354,1,0.00230813,10,-6.86093e-05,-2.54767,0.426097,0.138466,-15.2981,0.0242133,
2,0,0,1,0,1164.44,0.0230198,0.0227086,-2.81484,1,0.00220176,10,-6.39212e-05,-2.55055,0.489353,0.120567,-13.2223,0.02270864,
2,0,0,1,0,1164.48,0.0215243,0.0212403,-2.79278,1,0.00209633,10,-5.93195e-05,-2.55396,0.596304,0.0989428,-10.779,0.0212403,
2,0,0,1,0,1164.52,0.0200288,0.0197187,-2.76984,1,0.00199145,10,-5.46178e-05,-2.55754,0.63485,0.0929353,-10.0688,0.0197187,
2,0,0,1,0,1164.55,0.0185253,0.0182347,-2.75566,1,0.00188663,10,-5.02487e-05,-2.55977,0.738103,0.0799347,-8.6277,0.0182347,
2,0,0,1,0,1164.59,0.0170289,0.0167338,-2.74351,1,0.00178303,10,-4.59094e-05,-2.56169,0.852398,0.0692165,-7.43403,0.0167338,
2,0,0,1,0,1164.63,0.0155325,0.015267,-2.73718,1,0.00167978,10,-4.17884e-05,-2.5627,1.15371,0.0511392,-5.46329,0.01526697,
2,0,0,1,0,1164.67,0.0140325,0.0137095,-2.73302,1,0.00157647,10,-3.74684e-05,-2.56336,1.03324,0.0571021,-6.07823,0.0137095,
2,0,0,1,0,1164.7,0.0125325,0.0122389,-2.72851,1,0.0014734,10,-3.3394e-05,-2.56407,1.0297,0.0572983,-6.08483,0.0122389,
2,0,0,1,0,1164.74,0.0110361,0.0107315,-2.71642,1,0.00137103,10,-2.91513e-05,-2.566,1.30885,0.0450778,-4.78191,0.0107315,
2,0,0,1,0,1164.78,0.0095397,0.00924424,-2.7154,1,0.00126883,10,-2.51019e-05,-2.56617,31.2009,0.00189097,-0.200184,0.00924424,
2,0,0,1,0,1164.82,0.00803616,0.0077055,-2.71109,1,0.00116605,10,-2.08903e-05,-2.56686,-6.2397,-0.00945558,1.00321,0.0077055,
2,0,0,1,0,1164.85,0.00654064,0.00622197,-2.70921,1,0.00106388,10,-1.68566e-05,-2.56716,7.59752,0.00776569,-0.82325,0.00622197,
2,0,0,1,0,1164.89,0.00504513,0.00478309,-2.70155,1,0.000961735,10,-1.29217e-05,-2.56839,-6.56075,-0.00899287,0.95447,0.00478309,
2,0,0,1,0,1164.93,0.00354515,0.00324568,-2.7129,1,0.00085935,10,-8.80519e-06,-2.56657,-0.565023,-0.104421,11.1348,0.00324568,
2,0,0,1,0,1164.97,0.00204518,0.00164902,-2.7792,1,0.000756356,10,-4.58297e-06,-2.55608,-1.22801,-0.0480451,5.09997,0.00164902,
2,0,0,1,0,1165,0.000548773,0.000218324,-2.74488,1,0.000652665,10,-5.99274e-07,-2.56148, , , ,0.000218324,
2,0,0,1,0,1165.01,0.000177222,-0.000239049,-2.73013,1,0.000627,10,6.52634e-07,-2.56382, , , ,-0.000239049,