File: Figure_codes/Fig_3-5/rawdata_trumpetplot_data/after 10th/20221101_1-115_003_TrumpetPlot_ParaChange_from10_every3_10_CV_C01_5.csv
mode,ox/red,error,control changes,counter inc.,time/s,control/V,Ewe/V,<I>/mA,cycle number,(Q-Qo)/C,I Range,P/W,log(|I|),Tafel slope mV/dec,alpha_eff,dI/d(E-IR),E-IR/V,
2,1,0,0,0,11041.2,-2.44065e-05,-0.000287149,5.35458,6,0.0000000E+000,10,-1.53756e-06,-2.27127, , , ,-0.0002871489,
2,1,0,1,0,11041.2,0.00179726,0.00140924,6.36217,6,5.21993e-05,10,8.96581e-06,-2.19639, , , ,0.00140924,
2,1,0,1,0,11041.2,0.00379485,0.00347146,7.16091,6,0.000120264,10,2.48588e-05,-2.14503,0.0476131,1.23915,339.656,0.00347146,
2,1,0,1,0,11041.2,0.00579244,0.00543348,7.72903,6,0.000194852,10,4.19955e-05,-2.11187,0.0687198,0.858559,256.732,0.00543348,
2,1,0,1,0,11041.2,0.00779002,0.00746469,8.1861,6,0.000274591,10,6.11067e-05,-2.08692,0.0874242,0.67487,214.585,0.00746469,
2,1,0,1,0,11041.2,0.00977853,0.0094014,8.58049,6,0.000357692,10,8.06686e-05,-2.06649,0.110953,0.531757,177.133,0.0094014,
2,1,0,1,0,11041.2,0.0117761,0.0114637,8.89446,6,0.000445157,10,0.000101963,-2.05088,0.140547,0.419788,145.328,0.0114637,
2,1,0,1,0,11041.2,0.0137737,0.0134392,9.1673,6,0.000535444,10,0.000123202,-2.03776,0.164706,0.358213,127.872,0.0134392,
2,1,0,1,0,11041.3,0.0157713,0.0154477,9.40391,6,0.000628367,10,0.000145269,-2.02669,0.191773,0.307656,112.799,0.0154477,
2,1,0,1,0,11041.3,0.017778,0.0175014,9.6255,6,0.000723562,10,0.000168459,-2.01658,0.219982,0.268204,100.52,0.0175014,
2,1,0,1,0,11041.3,0.0197755,0.0194439,9.8056,6,0.000820756,10,0.000190659,-2.00853,0.250484,0.235544,90.0994,0.0194439,
2,1,0,1,0,11041.3,0.0217731,0.021429,9.97938,6,0.000919681,10,0.000213848,-2.0009,0.276902,0.213072,82.9072,0.021429,
2,1,0,1,0,11041.3,0.0237707,0.0234358,10.1366,6,0.00102035,10,0.000237558,-1.99411,0.287674,0.205093,81.1726,0.0234358,
2,1,0,1,0,11041.3,0.0257774,0.0254408,10.305,6,0.00112255,10,0.000262168,-1.98695,0.308965,0.19096,76.6865,0.0254408,
2,1,0,1,0,11041.3,0.027775,0.0274563,10.4449,6,0.00122633,10,0.000286777,-1.9811,0.34732,0.169872,69.2338,0.0274563,
2,1,0,1,0,11041.3,0.0297726,0.0294492,10.5825,6,0.00133152,10,0.000311647,-1.97541,0.354265,0.166542,68.7829,0.0294492,
2,1,0,1,0,11041.3,0.0317701,0.0314785,10.7215,6,0.00143814,10,0.000337498,-1.96974,0.334366,0.176453,73.8937,0.03147848,
2,1,0,1,0,11041.3,0.0337587,0.033468,10.8795,6,0.00154504,10,0.000364115,-1.96339,0.338685,0.174203,73.8793,0.033468,
2,1,0,1,0,11041.4,0.0357562,0.0354292,11.0134,6,0.00165454,10,0.000390196,-1.95808,0.367006,0.16076,69.1156,0.0354292,
2,1,0,1,0,11041.4,0.0377538,0.0374413,11.1541,6,0.00176538,10,0.000417625,-1.95256,0.363794,0.16218,70.5877,0.0374413,
2,1,0,1,0,11041.4,0.0397514,0.0393842,11.2926,6,0.00187763,10,0.00044475,-1.94721,0.33378,0.176763,77.9952,0.0393842,
2,1,0,1,0,11041.4,0.0417399,0.0413553,11.4594,6,0.00199017,10,0.000473907,-1.94084,0.357671,0.164956,73.6465,0.0413553,
2,1,0,1,0,11041.4,0.0437375,0.0434011,11.5884,6,0.00210547,10,0.00050295,-1.93598,0.388429,0.151894,68.758,0.0434011,
2,1,0,1,0,11041.4,0.0457351,0.0454313,11.7397,6,0.00222205,10,0.000533348,-1.93034,0.365924,0.161236,73.8384,0.0454313,
2,1,0,1,0,11041.4,0.0477327,0.0473695,11.8814,6,0.00234018,10,0.000562818,-1.92513,0.341833,0.172599,80.1375,0.0473695,
2,1,0,1,0,11041.4,0.0497393,0.0493737,12.0556,6,0.0024598,10,0.000595229,-1.91881,0.358152,0.164734,77.3812,0.0493737,
2,1,0,1,0,11041.4,0.0517369,0.0513857,12.1922,6,0.00258106,10,0.000626505,-1.91392,0.369546,0.159655,76.0683,0.05138569,
2,1,0,1,0,11041.4,0.0537345,0.0534063,12.3623,6,0.00270379,10,0.000660228,-1.9079,0.358096,0.16476,79.4295,0.0534063,
2,1,0,1,0,11041.5,0.0557321,0.055447,12.5148,6,0.00282822,10,0.000693907,-1.90258,0.374226,0.157659,76.9996,0.055447,
2,1,0,1,0,11041.5,0.0577297,0.0573696,12.6675,6,0.00295412,10,0.00072673,-1.89731,0.362001,0.162983,80.6134,0.0573696,
2,1,0,1,0,11041.5,0.0597364,0.0594041,12.8338,6,0.00308179,10,0.00076238,-1.89164,0.363222,0.162435,81.3362,0.0594041,
2,1,0,1,0,11041.5,0.0617339,0.0613918,12.9947,6,0.00321093,10,0.000797766,-1.88623,0.385986,0.152855,77.4742,0.0613918,
2,1,0,1,0,11041.5,0.0637315,0.0633777,13.1416,6,0.00334171,10,0.000832888,-1.88135,0.398147,0.148187,76.0245,0.0633777,
2,1,0,1,0,11041.5,0.0657291,0.0653784,13.2978,6,0.00347393,10,0.000869386,-1.87622,0.375232,0.157236,81.6441,0.0653784,
2,1,0,1,0,11041.5,0.0677176,0.0673917,13.4694,6,0.00360652,10,0.000907723,-1.87065,0.377754,0.156186,82.0576,0.0673917,
2,1,0,1,0,11041.5,0.0697152,0.0693998,13.6277,6,0.00374204,10,0.000945763,-1.86558,0.389075,0.151642,80.6593,0.0693998,
2,1,0,1,0,11041.5,0.0717128,0.0713722,13.7904,6,0.00387917,10,0.000984253,-1.86042,0.382621,0.154199,82.9984,0.0713722,
2,1,0,1,0,11041.5,0.0737104,0.0733708,13.9573,6,0.0040179,10,0.00102406,-1.8552,0.388476,0.151875,82.7094,0.0733708,
2,1,0,1,0,11041.6,0.0756989,0.0753472,14.1192,6,0.00415694,10,0.00106384,-1.85019,0.426879,0.138212,76.1035,0.0753472,
2,1,0,1,0,11041.6,0.0776965,0.0773696,14.2616,6,0.00429881,10,0.00110342,-1.84583,0.453749,0.130028,72.3879,0.0773696,
2,1,0,1,0,11041.6,0.0796941,0.0793842,14.4114,6,0.00444226,10,0.00114404,-1.84129,0.437333,0.134909,75.8875,0.0793842,
2,1,0,1,0,11041.6,0.0816916,0.081384,14.5663,6,0.00458717,10,0.00118546,-1.83665,0.436878,0.135049,76.7555,0.081384,
2,1,0,1,0,11041.6,0.0836983,0.08335,14.7158,6,0.00473366,10,0.00122656,-1.83222,0.460017,0.128256,73.6414,0.08335,
2,1,0,1,0,11041.6,0.0856959,0.0853629,14.8593,6,0.00488153,10,0.00126843,-1.828,0.477489,0.123563,71.658,0.0853629,
2,1,0,1,0,11041.6,0.0876935,0.0873809,15.0047,6,0.00503093,10,0.00131112,-1.82377,0.496312,0.118877,69.5812,0.0873809,
2,1,0,1,0,11041.6,0.0896911,0.0893599,15.1374,6,0.00518165,10,0.00135268,-1.81995,0.488709,0.120726,71.3657,0.0893599,
2,1,0,1,0,11041.6,0.0916978,0.0913797,15.29,6,0.00533383,10,0.0013972,-1.81559,0.483646,0.12199,72.7582,0.0913797,
2,1,0,1,0,11041.6,0.0936953,0.0933604,15.4285,6,0.00548742,10,0.00144041,-1.81168,0.524983,0.112385,67.6521,0.0933604,
2,1,0,1,0,11041.7,0.0956929,0.0953663,15.5598,6,0.0056424,10,0.00148388,-1.808,0.527295,0.111892,67.9643,0.0953663,
2,1,0,1,0,11041.7,0.0976905,0.0973575,15.7001,6,0.00579866,10,0.00152853,-1.8041,0.486938,0.121165,74.2786,0.0973575,
2,1,0,1,0,11041.7,0.099679,0.0993717,15.8573,6,0.00595487,10,0.00157576,-1.79977,0.498763,0.118293,73.1506,0.0993717,
2,1,0,1,0,11041.7,0.101677,0.101334,15.991,6,0.00611411,10,0.00162043,-1.79612,0.513129,0.114981,71.8024,0.101334,
2,1,0,1,0,11041.7,0.103674,0.10339,16.1458,6,0.00627489,10,0.0016693,-1.79194,0.454391,0.129844,81.8722,0.10339,
2,1,0,1,0,11041.7,0.105672,0.105393,16.3233,6,0.00643722,10,0.00172037,-1.78719,0.419968,0.140487,89.4844,0.105393,
2,1,0,1,0,11041.7,0.107656,0.107321,16.4976,6,0.00659971,10,0.00177054,-1.78258,0.40711,0.144924,93.3585,0.107321,
2,1,0,1,0,11041.7,0.109658,0.109327,16.6906,6,0.00676565,10,0.00182474,-1.77753,0.387145,0.152398,99.3081,0.109327,
2,1,0,1,0,11041.7,0.111655,0.111357,16.8984,6,0.00693363,10,0.00188176,-1.77215,0.370796,0.159117,104.957,0.111357,
2,1,0,1,0,11041.7,0.113653,0.113367,17.1147,6,0.00710371,10,0.00194025,-1.76663,0.353673,0.166821,111.443,0.113367,
2,1,0,1,0,11041.7,0.115651,0.115305,17.3383,6,0.00727601,10,0.00199919,-1.76099,0.327703,0.180041,121.968,0.115305,
2,1,0,1,0,11041.8,0.117657,0.117382,17.6043,6,0.00745075,10,0.00206643,-1.75438,0.315357,0.18709,128.478,0.117382,
2,1,0,1,0,11041.8,0.119655,0.119337,17.8564,6,0.0076281,10,0.00213094,-1.74821,0.322096,0.183175,127.643,0.119337,
2,1,0,1,0,11041.8,0.121652,0.121333,18.1087,6,0.00780791,10,0.00219718,-1.74211,0.322719,0.182821,129.254,0.121333,
2,1,0,1,0,11041.8,0.12365,0.123367,18.3773,6,0.00799042,10,0.00226716,-1.73572,0.30623,0.192666,138.223,0.123367,
2,1,0,1,0,11041.8,0.125657,0.12532,18.6598,6,0.00817568,10,0.00233846,-1.72909,0.316173,0.186607,135.798,0.12532,
2,1,0,1,0,11041.8,0.127654,0.127354,18.9187,6,0.00836366,10,0.00240937,-1.72311,0.331256,0.17811,131.528,0.127354,
2,1,0,1,0,11041.8,0.129652,0.129324,19.1865,6,0.00855421,10,0.00248128,-1.71701,0.328936,0.179366,134.285,0.129324,
2,1,0,1,0,11041.8,0.131649,0.131313,19.4503,6,0.00874751,10,0.00255408,-1.71107,0.342196,0.172416,130.847,0.131313,
2,1,0,1,0,11041.8,0.133638,0.133303,19.7071,6,0.0089414,10,0.00262702,-1.70538,0.362707,0.162666,125.061,0.133303,
2,1,0,1,0,11041.8,0.135636,0.135321,19.9516,6,0.00913974,10,0.00269987,-1.70002,0.381136,0.1548,120.5,0.135321,
2,1,0,1,0,11041.9,0.137633,0.137282,20.1865,6,0.00934043,10,0.00277126,-1.69494,0.409633,0.144031,113.417,0.1372823,
2,1,0,1,0,11041.9,0.139631,0.139312,20.4042,6,0.00954347,10,0.00284255,-1.69028,0.434938,0.135651,108.02,0.139312,
2,1,0,1,0,11041.9,0.141619,0.141323,20.623,6,0.00974654,10,0.00291449,-1.68565,0.441928,0.133506,107.416,0.141323,
2,1,0,1,0,11041.9,0.143617,0.143269,20.8293,6,0.00995387,10,0.0029842,-1.68133,0.486129,0.121367,98.6095,0.143269,
2,1,0,1,0,11041.9,0.145614,0.145306,21.0157,6,0.0101631,10,0.00305371,-1.67746,0.557604,0.10581,86.7281,0.145306,
2,1,0,1,0,11041.9,0.147612,0.147273,21.1766,6,0.0103741,10,0.00311875,-1.67414,0.564121,0.104588,86.4788,0.147273,
2,1,0,1,0,11041.9,0.149619,0.149273,21.3589,6,0.0105868,10,0.00318831,-1.67042,0.616883,0.0956421,79.6375,0.149273,
2,1,0,1,0,11041.9,0.151616,0.151277,21.4954,6,0.0108011,10,0.00325177,-1.66765,0.827537,0.0712959,59.7612,0.151277,
2,1,0,1,0,11041.9,0.153614,0.153263,21.5973,6,0.0110166,10,0.00331008,-1.6656,1.10231,0.0535239,45.0898,0.153263,
2,1,0,1,0,11041.9,0.155611,0.155288,21.6763,6,0.011233,10,0.00336607,-1.66402,1.57577,0.037442,31.6521,0.155288,
2,1,0,1,0,11042,0.157618,0.157297,21.725,6,0.01145,10,0.00341727,-1.66304,19.2807,0.00306006,2.5893,0.157297,
2,1,0,1,0,11042,0.159616,0.159285,21.6866,6,0.0116672,10,0.00345437,-1.66381,-1.5052,-0.0391975,-33.133,0.159285,
2,1,0,1,0,11042,0.161613,0.161275,21.5932,6,0.0118836,10,0.00348244,-1.66568,-0.73704,-0.08005,-67.3265,0.161275,
2,1,0,1,0,11042,0.163611,0.163315,21.4153,6,0.0120987,10,0.00349745,-1.66928,-0.439561,-0.134225,-111.931,0.163315,
2,1,0,1,0,11042,0.165618,0.165292,21.1435,6,0.0123115,10,0.00349486,-1.67482,-0.310343,-0.190112,-156.535,0.165292,
2,1,0,1,0,11042,0.167597,0.167351,20.7836,6,0.0125191,10,0.00347816,-1.68228,-0.229597,-0.256973,-207.881,0.1673512,
2,1,0,1,0,11042,0.169595,0.16926,20.3187,6,0.0127246,10,0.00343914,-1.6921,-0.176359,-0.334546,-264.502,0.16926,
2,1,0,1,0,11042,0.171592,0.171287,19.7425,6,0.0129249,10,0.00338164,-1.7046,-0.146735,-0.402084,-309.006,0.171287,
2,1,0,1,0,11042,0.173572,0.173275,19.0781,6,0.013117,10,0.00330575,-1.71947,-0.126541,-0.466252,-346.527,0.173275,
2,1,0,1,0,11042,0.175578,0.175272,18.3617,6,0.0133042,10,0.00321829,-1.73609,-0.112906,-0.522561,-373.654,0.175272,
2,1,0,1,0,11042.1,0.177576,0.177268,17.5858,6,0.0134838,10,0.00311741,-1.75484,-0.101626,-0.580557,-397.794,0.1772683,
2,1,0,1,0,11042.1,0.179573,0.179258,16.7761,6,0.0136555,10,0.00300725,-1.77531,-0.0979652,-0.602255,-394.312,0.179258,
2,1,0,1,0,11042.1,0.181571,0.18131,15.992,6,0.0138192,10,0.00289951,-1.7961,-0.0951222,-0.620255,-387.194,0.18131,
2,1,0,1,0,11042.1,0.183578,0.183227,15.2393,6,0.0139753,10,0.00279225,-1.81704,-0.0949383,-0.621456,-369.777,0.183227,
2,1,0,1,0,11042.1,0.185575,0.18528,14.5242,6,0.014124,10,0.00269104,-1.83791,-0.0980687,-0.601619,-341.431,0.18528,
2,1,0,1,0,11042.1,0.187573,0.187249,13.866,6,0.0142659,10,0.00259639,-1.85805,-0.102378,-0.576298,-312.383,0.187249,
2,1,0,1,0,11042.1,0.18957,0.189285,13.2729,6,0.0144014,10,0.00251237,-1.87703,-0.108764,-0.542459,-281.467,0.189285,
2,1,0,1,0,11042.1,0.191577,0.191248,12.7404,6,0.0145314,10,0.00243658,-1.89482,-0.116914,-0.504645,-251.411,0.191248,
2,1,0,1,0,11042.1,0.193575,0.19327,12.271,6,0.0146564,10,0.00237163,-1.91112,-0.128127,-0.46048,-220.882,0.1932704,
2,1,0,1,0,11042.1,0.195572,0.195269,11.8522,6,0.0147769,10,0.00231437,-1.9262,-0.13515,-0.436553,-202.245,0.195269,
2,1,0,1,0,11042.2,0.19757,0.197186,11.4792,6,0.0148935,10,0.00226353,-1.94009,-0.156471,-0.377067,-169.353,0.1971859,
2,1,0,1,0,11042.2,0.199558,0.199291,11.1712,6,0.0150056,10,0.00222631,-1.9519,-0.172126,-0.342772,-149.491,0.199291,
2,1,0,1,0,11042.2,0.201556,0.201219,10.8762,6,0.0151157,10,0.0021885,-1.96352,-0.178675,-0.330209,-140.378,0.201219,
2,1,0,1,0,11042.2,0.203553,0.203221,10.6194,6,0.0152232,10,0.00215809,-1.9739,-0.201544,-0.29274,-121.435,0.203221,
2,1,0,1,0,11042.2,0.205551,0.205257,10.3859,6,0.0153281,10,0.00213178,-1.98356,-0.233042,-0.253174,-102.873,0.205257,
2,1,0,1,0,11042.2,0.20754,0.207235,10.2065,6,0.01543,10,0.00211515,-1.99112,-0.249952,-0.236045,-93.9522,0.207235,
2,1,0,1,0,11042.2,0.209537,0.209216,10.0139,6,0.0155311,10,0.00209507,-1.9994,-0.255648,-0.230786,-90.2864,0.209216,
2,1,0,1,0,11042.2,0.211535,0.21125,9.84402,6,0.0156303,10,0.00207955,-2.00683,-0.286823,-0.205702,-79.1045,0.21125,
2,1,0,1,0,11042.2,0.213532,0.213245,9.69519,6,0.015728,10,0.00206745,-2.01344,-0.324225,-0.181972,-68.9284,0.213245,
2,1,0,1,0,11042.2,0.215539,0.215243,9.56875,6,0.0158243,10,0.00205961,-2.01914,-0.327214,-0.18031,-67.2834,0.215243,
2,1,0,1,0,11042.3,0.217537,0.217202,9.429,6,0.0159192,10,0.00204799,-2.02553,-0.347388,-0.169839,-62.5987,0.217202,
2,1,0,1,0,11042.3,0.219534,0.219206,9.32071,6,0.0160129,10,0.00204315,-2.03055,-0.398769,-0.147955,-53.8171,0.219206,
2,1,0,1,0,11042.3,0.221532,0.221229,9.21226,6,0.0161056,10,0.00203802,-2.03563,-0.402223,-0.146685,-52.7497,0.221229,
2,1,0,1,0,11042.3,0.223534,0.223218,9.10905,6,0.0161972,10,0.00203331,-2.04053,-0.43858,-0.134525,-47.8597,0.223218,
2,1,0,1,0,11042.3,0.225536,0.225238,9.02038,6,0.0162878,10,0.00203173,-2.04478,-0.49987,-0.118031,-41.5724,0.225238,
2,1,0,1,0,11042.3,0.227534,0.22725,8.94144,6,0.0163776,10,0.00203194,-2.04859,-0.469047,-0.125787,-43.851,0.22725,
2,1,0,1,0,11042.3,0.229531,0.229227,8.84548,6,0.0164665,10,0.00202762,-2.05328,-0.482495,-0.122281,-42.2677,0.229227,
2,1,0,1,0,11042.3,0.231529,0.231233,8.77308,6,0.0165547,10,0.00202863,-2.05685,-0.616773,-0.0956592,-32.7778,0.231233,
2,1,0,1,0,11042.3,0.233517,0.233219,8.71462,6,0.0166413,10,0.00203242,-2.05975,-0.651359,-0.0905798,-30.7966,0.233219,
2,1,0,1,0,11042.3,0.235515,0.235204,8.65079,6,0.0167281,10,0.0020347,-2.06294,-0.605689,-0.0974097,-32.8785,0.235204,
2,1,0,1,0,11042.4,0.237513,0.237225,8.5829,6,0.0168142,10,0.00203608,-2.06637,-0.63664,-0.092674,-31.0622,0.237225,
2,1,0,1,0,11042.4,0.23951,0.239214,8.52623,6,0.0168997,10,0.00203959,-2.06924,-0.690274,-0.0854733,-28.4445,0.239214,
2,1,0,1,0,11042.4,0.241499,0.241136,8.47166,6,0.0169839,10,0.00204282,-2.07203,-0.712693,-0.0827846,-27.371,0.241136,
2,1,0,1,0,11042.4,0.243496,0.243181,8.41765,6,0.0170683,10,0.00204701,-2.07481,-0.792284,-0.0744683,-24.4764,0.243181,
2,1,0,1,0,11042.4,0.245494,0.245189,8.37246,6,0.0171522,10,0.00205283,-2.07715,-0.805187,-0.0732749,-23.9337,0.245189,
2,1,0,1,0,11042.4,0.247491,0.247212,8.32118,6,0.0172357,10,0.00205709,-2.07982,-0.84286,-0.0699998,-22.7475,0.247212,
2,1,0,1,0,11042.4,0.249498,0.249205,8.28111,6,0.0173187,10,0.00206369,-2.08191,-0.877514,-0.0672354,-21.7206,0.2492049,
2,1,0,1,0,11042.4,0.251496,0.251209,8.23436,6,0.0174013,10,0.00206855,-2.08437,-0.889014,-0.0663657,-21.3382,0.251209,
2,1,0,1,0,11042.4,0.253493,0.253189,8.19609,6,0.0174835,10,0.00207516,-2.08639,-0.840171,-0.0702238,-22.444,0.253189,
2,1,0,1,0,11042.4,0.255491,0.255206,8.14465,6,0.0175652,10,0.00207856,-2.08913,-1.03271,-0.057131,-18.1929,0.255206,
2,1,0,1,0,11042.5,0.257497,0.257199,8.12314,6,0.0176466,10,0.00208926,-2.09028,-1.44558,-0.0408142,-12.9317,0.257199,
2,1,0,1,0,11042.5,0.259495,0.259234,8.09257,6,0.0177277,10,0.00209787,-2.09191,-0.945609,-0.0623936,-19.6834,0.259234,
2,1,0,1,0,11042.5,0.261493,0.261226,8.04387,6,0.0178084,10,0.00210127,-2.09454,-0.949791,-0.062119,-19.5265,0.261226,
2,1,0,1,0,11042.5,0.26349,0.263128,8.01652,6,0.0178887,10,0.00210937,-2.09601,-1.47834,-0.0399097,-12.4899,0.263128,
2,1,0,1,0,11042.5,0.265479,0.265214,7.99406,6,0.0179679,10,0.00212014,-2.09723,-1.23201,-0.0478894,-14.9264,0.265214,
2,1,0,1,0,11042.5,0.267476,0.267154,7.95643,6,0.0180476,10,0.00212559,-2.09928,-1.02669,-0.0574662,-17.8493,0.267154,
2,1,0,1,0,11042.5,0.269474,0.269163,7.92358,6,0.018127,10,0.00213273,-2.10108,-1.30678,-0.045149,-13.9697,0.269163,
2,1,0,1,0,11042.5,0.271471,0.271186,7.9001,6,0.0182061,10,0.0021424,-2.10237,-1.5535,-0.0379787,-11.7093,0.2711862,
2,1,0,1,0,11042.5,0.27346,0.273188,7.87645,6,0.0182841,10,0.00215175,-2.10367,-1.2381,-0.0476538,-14.6386,0.273188,
2,1,0,1,0,11042.5,0.275458,0.275132,7.84233,6,0.0183627,10,0.00215768,-2.10555,-1.07244,-0.0550145,-16.8389,0.275132,
2,1,0,1,0,11042.6,0.277455,0.277172,7.80936,6,0.0184409,10,0.00216454,-2.10738,-1.23421,-0.0478039,-14.5766,0.277172,
2,1,0,1,0,11042.6,0.279453,0.279127,7.78411,6,0.0185188,10,0.00217275,-2.10879,-1.17538,-0.0501967,-15.2394,0.279127,
2,1,0,1,0,11042.6,0.281455,0.281138,7.74892,6,0.0185965,10,0.00217852,-2.11076,-1.30942,-0.0450581,-13.64,0.281138,
2,1,0,1,0,11042.6,0.283457,0.283141,7.72935,6,0.0186739,10,0.0021885,-2.11186,-1.43461,-0.0411261,-12.3971,0.283141,
2,1,0,1,0,11042.6,0.285455,0.285162,7.69904,6,0.0187511,10,0.00219547,-2.11356,-1.23624,-0.0477256,-14.3431,0.285162,
2,1,0,1,0,11042.6,0.287452,0.287132,7.67211,6,0.018828,10,0.00220291,-2.11509,-1.26263,-0.046728,-13.9904,0.287132,
2,1,0,1,0,11042.6,0.28945,0.28907,7.64437,6,0.0189045,10,0.00220975,-2.11666,-1.61119,-0.036619,-10.933,0.28907,
2,1,0,1,0,11042.6,0.291456,0.291142,7.62826,6,0.018981,10,0.00222091,-2.11757,-1.30063,-0.0453626,-13.4848,0.291142,
2,1,0,1,0,11042.6,0.293454,0.293129,7.58962,6,0.0190571,10,0.00222474,-2.11978,-1.17727,-0.0501161,-14.8618,0.293129,
2,1,0,1,0,11042.6,0.295452,0.295135,7.56892,6,0.019133,10,0.00223386,-2.12097,-1.80007,-0.0327765,-9.68327,0.295135,
2,1,0,1,0,11042.7,0.297449,0.297179,7.55041,6,0.0192086,10,0.00224382,-2.12203,-1.88941,-0.0312266,-9.20164,0.297179,
2,1,0,1,0,11042.7,0.299438,0.299134,7.53213,6,0.0192833,10,0.00225312,-2.12308,-0.0522293,-1.12963,-316.953,0.299134,
2,1,0,1,0,11042.7,0.299746,0.29942,6.84012,6,0.0193148,10,0.00204807,-2.16494,0.00512596,11.51,2356.18,0.29942,
2,1,0,1,0,11042.7,0.29774,0.297413,3.47602,6,0.0193642,10,0.00103381,-2.45892,0.00603364,9.77851,1342.71,0.297413,
2,1,0,1,0,11042.7,0.295742,0.295442,1.4989,6,0.0193882,10,0.000442837,-2.82423,0.00315689,18.6893,825.81,0.295442,
2,1,0,1,0,11042.7,0.293745,0.293435,0.190983,6,0.0193961,10,5.60411e-05,-3.719,0.0126149,4.67701,548.267,0.293435,
2,0,0,1,0,11042.7,0.291747,0.291401,-0.716822,6,0.0193931,10,-0.000208883,-3.14459,-0.00463933,-12.7174,394.092,0.291401,
2,0,0,1,0,11042.7,0.289745,0.289452,-1.37843,6,0.0193824,10,-0.000398988,-2.86062,-0.00954824,-6.17915,290.41,0.289452,
2,0,0,1,0,11042.7,0.287743,0.287415,-1.87433,6,0.0193659,10,-0.00053871,-2.72715,-0.0188951,-3.1225,216.238,0.287415,
2,0,0,1,0,11042.7,0.285745,0.285468,-2.23993,6,0.0193452,10,-0.000639429,-2.64977,-0.030003,-1.96647,168.231,0.285468,
2,0,0,1,0,11042.8,0.283748,0.283435,-2.54384,6,0.0193212,10,-0.000721014,-2.59451,-0.0427018,-1.38167,134.953,0.283435,
2,0,0,1,0,11042.8,0.28175,0.281427,-2.78531,6,0.0192945,10,-0.000783862,-2.55513,-0.0559562,-1.0544,113.754,0.281427,
2,0,0,1,0,11042.8,0.279761,0.279449,-2.99735,6,0.0192657,10,-0.000837607,-2.52326,-0.0705152,-0.836698,97.0393,0.279449,
2,0,0,1,0,11042.8,0.277764,0.2775,-3.16637,6,0.0192348,10,-0.000878667,-2.49944,-0.0858806,-0.687,84.8067,0.2775,
2,0,0,1,0,11042.8,0.275766,0.27547,-3.3348,6,0.0192023,10,-0.000918635,-2.47693,-0.10668,-0.553055,71.4274,0.27547,
2,0,0,1,0,11042.8,0.273769,0.273439,-3.45642,6,0.0191683,10,-0.000945122,-2.46137,-0.120836,-0.488266,66.0132,0.273439,
2,0,0,1,0,11042.8,0.27178,0.271497,-3.59703,6,0.0191334,10,-0.000976585,-2.44406,-0.130995,-0.4504,62.9273,0.271497,
2,0,0,1,0,11042.8,0.269783,0.269467,-3.70639,6,0.0190968,10,-0.000998749,-2.43105,-0.156539,-0.376902,54.5001,0.269467,
2,0,0,1,0,11042.8,0.267785,0.267491,-3.8154,6,0.0190592,10,-0.00102058,-2.41846,-0.17799,-0.331478,49.2098,0.267491,
2,0,0,1,0,11042.8,0.265787,0.265468,-3.90317,6,0.0190206,10,-0.00103617,-2.40858,-0.187008,-0.315494,48.153,0.265468,
2,0,0,1,0,11042.9,0.263781,0.263494,-4.00782,6,0.018981,10,-0.00105604,-2.39709,-0.199272,-0.296078,46.1651,0.263494,
2,0,0,1,0,11042.9,0.261783,0.261448,-4.08877,6,0.0189405,10,-0.001069,-2.38841,-0.231747,-0.254588,40.6216,0.2614477,
2,0,0,1,0,11042.9,0.259786,0.2595,-4.17009,6,0.0188992,10,-0.00108214,-2.37986,-0.230687,-0.255757,41.6252,0.2595,
2,0,0,1,0,11042.9,0.257788,0.257506,-4.25284,6,0.0188571,10,-0.00109513,-2.37132,-0.236153,-0.249838,41.4697,0.257506,
2,0,0,1,0,11042.9,0.255781,0.255469,-4.33725,6,0.0188141,10,-0.00110803,-2.36279,-0.277665,-0.212487,35.8638,0.255469,
2,0,0,1,0,11042.9,0.253784,0.253474,-4.39747,6,0.0187704,10,-0.00111464,-2.3568,-0.302057,-0.195327,33.5743,0.253474,
2,0,0,1,0,11042.9,0.251786,0.251452,-4.47211,6,0.0187261,10,-0.00112452,-2.34949,-0.296431,-0.199034,34.6977,0.251452,
2,0,0,1,0,11042.9,0.249789,0.249449,-4.53712,6,0.018681,10,-0.00113178,-2.34322,-0.296134,-0.199234,35.3141,0.249449,
2,0,0,1,0,11042.9,0.2478,0.247489,-4.61205,6,0.0186357,10,-0.00114143,-2.33611,-0.315676,-0.1869,33.5739,0.247489,
2,0,0,1,0,11042.9,0.245802,0.245514,-4.66923,6,0.0185893,10,-0.00114636,-2.33075,-0.327811,-0.179982,32.8545,0.245514,
2,0,0,1,0,11043,0.243805,0.243494,-4.74333,6,0.0185423,10,-0.00115497,-2.32392,-0.376602,-0.156664,28.9013,0.243494,
2,0,0,1,0,11043,0.241807,0.241501,-4.78521,6,0.0184946,10,-0.00115563,-2.3201,-0.380133,-0.155209,29.0843,0.241501,
2,0,0,1,0,11043,0.239819,0.239476,-4.86016,6,0.0184469,10,-0.0011639,-2.31335,-0.350433,-0.168363,31.8606,0.239476,
2,0,0,1,0,11043,0.237821,0.237484,-4.91317,6,0.018398,10,-0.0011668,-2.30864,-0.40352,-0.146213,28.0435,0.237484,
2,0,0,1,0,11043,0.235824,0.235585,-4.96929,6,0.0183486,10,-0.00117069,-2.30371,-0.440959,-0.133799,25.9217,0.235585,
2,0,0,1,0,11043,0.233826,0.233537,-5.0155,6,0.0182987,10,-0.0011713,-2.29969,-0.388063,-0.152037,29.8446,0.233537,
2,0,0,1,0,11043,0.231824,0.231512,-5.09086,6,0.0182482,10,-0.00117859,-2.29321,-0.373769,-0.157852,31.2819,0.231512,
2,0,0,1,0,11043,0.229822,0.229534,-5.14073,6,0.0181969,10,-0.00117997,-2.28898,-0.496111,-0.118925,23.8476,0.229534,
2,0,0,1,0,11043,0.227824,0.227531,-5.18579,6,0.0181453,10,-0.00117993,-2.28519,-0.521141,-0.113213,22.9158,0.227531,
2,0,0,1,0,11043,0.225827,0.225526,-5.23256,6,0.0180932,10,-0.00118008,-2.28129,-0.44247,-0.133342,27.2736,0.225526,
2,0,0,1,0,11043.1,0.223829,0.223471,-5.29653,6,0.0180405,10,-0.00118362,-2.27601,-0.425558,-0.138642,28.6209,0.223471,
2,0,0,1,0,11043.1,0.221822,0.221523,-5.34713,6,0.0179872,10,-0.00118451,-2.27188,-0.43841,-0.134577,28.1089,0.221523,
2,0,0,1,0,11043.1,0.219825,0.219517,-5.40766,6,0.0179335,10,-0.00118707,-2.26699,-0.452903,-0.130271,27.4632,0.219517,
2,0,0,1,0,11043.1,0.217827,0.217526,-5.45691,6,0.0178791,10,-0.00118702,-2.26305,-0.523736,-0.112652,23.9848,0.217526,
2,0,0,1,0,11043.1,0.21583,0.215518,-5.50357,6,0.0178243,10,-0.00118612,-2.25936,-0.481619,-0.122503,26.3403,0.215518,
2,0,0,1,0,11043.1,0.213841,0.213523,-5.56234,6,0.0177695,10,-0.00118769,-2.25474,-0.426726,-0.138262,30.0182,0.213523,
2,0,0,1,0,11043.1,0.211843,0.211537,-5.62309,6,0.0177136,10,-0.00118949,-2.25002,-0.542249,-0.108806,23.8208,0.211537,
2,0,0,1,0,11043.1,0.209846,0.209535,-5.65735,6,0.0176571,10,-0.00118541,-2.24739,-0.515434,-0.114467,25.3446,0.209535,
2,0,0,1,0,11043.1,0.207848,0.207555,-5.724,6,0.0176002,10,-0.00118805,-2.2423,-0.391598,-0.150665,33.6566,0.207555,
2,0,0,1,0,11043.1,0.20586,0.205562,-5.79107,6,0.0175432,10,-0.00119042,-2.23724,-0.448067,-0.131677,29.7222,0.205562,
2,0,0,1,0,11043.2,0.203862,0.203521,-5.8439,6,0.017485,10,-0.00118936,-2.2333,-0.562613,-0.104868,23.8986,0.203521,
2,0,0,1,0,11043.2,0.201865,0.201507,-5.88796,6,0.0174264,10,-0.00118647,-2.23003,-0.502265,-0.117468,27.0339,0.201507,
2,0,0,1,0,11043.2,0.199867,0.199586,-5.9503,6,0.0173672,10,-0.00118759,-2.22546,-0.441341,-0.133684,31.0435,0.199586,
2,0,0,1,0,11043.2,0.19786,0.197486,-6.0128,6,0.0173074,10,-0.00118744,-2.22092,-0.50339,-0.117205,27.4732,0.1974861,
2,0,0,1,0,11043.2,0.195863,0.195505,-6.0624,6,0.017247,10,-0.00118523,-2.21736,-0.514613,-0.114649,27.1444,0.195505,
2,0,0,1,0,11043.2,0.193865,0.193511,-6.12071,6,0.0171861,10,-0.00118442,-2.2132,-0.439348,-0.13429,32.1051,0.193511,
2,0,0,1,0,11043.2,0.191868,0.191538,-6.18978,6,0.0171245,10,-0.00118558,-2.20833,-0.424038,-0.139138,33.5939,0.191538,
2,0,0,1,0,11043.2,0.189861,0.189576,-6.25289,6,0.0170623,10,-0.0011854,-2.20392,-0.429668,-0.137315,33.531,0.189576,
2,0,0,1,0,11043.2,0.187863,0.187516,-6.32464,6,0.0169994,10,-0.00118597,-2.19896,-0.424603,-0.138953,34.2805,0.187516,
2,0,0,1,0,11043.2,0.185866,0.185563,-6.39044,6,0.0169358,10,-0.00118583,-2.19447,-0.463678,-0.127243,31.7182,0.185563,
2,0,0,1,0,11043.3,0.183868,0.183559,-6.45013,6,0.0168716,10,-0.00118398,-2.19043,-0.38801,-0.152058,38.3791,0.1835593,
2,0,0,1,0,11043.3,0.18188,0.181543,-6.54473,6,0.0168073,10,-0.00118815,-2.18411,-0.338505,-0.174296,44.475,0.181543,
2,0,0,1,0,11043.3,0.179882,0.179576,-6.62729,6,0.0167415,10,-0.0011901,-2.17866,-0.41131,-0.143444,37.0512,0.179576,
2,0,0,1,0,11043.3,0.177885,0.177549,-6.69271,6,0.0166748,10,-0.00118829,-2.1744,-0.386808,-0.152531,39.9234,0.177549,
2,0,0,1,0,11043.3,0.175887,0.175583,-6.78669,6,0.0166074,10,-0.00119163,-2.16834,-0.339674,-0.173696,45.9828,0.175583,
2,0,0,1,0,11043.3,0.173907,0.173591,-6.87475,6,0.0165398,10,-0.00119339,-2.16274,-0.308868,-0.19102,51.3606,0.173591,
2,0,0,1,0,11043.3,0.171901,0.17156,-6.99331,6,0.0164704,10,-0.00119978,-2.15532,-0.311664,-0.189307,51.5557,0.1715603,
2,0,0,1,0,11043.3,0.169903,0.169555,-7.08279,6,0.0164,10,-0.00120092,-2.1498,-0.293486,-0.201032,55.7275,0.169555,
2,0,0,1,0,11043.3,0.167906,0.167604,-7.21379,6,0.0163286,10,-0.00120906,-2.14184,-0.268374,-0.219842,61.8191,0.167604,
2,0,0,1,0,11043.3,0.165908,0.165571,-7.32908,6,0.0162558,10,-0.00121349,-2.13495,-0.266055,-0.221759,63.5271,0.165571,
2,0,0,1,0,11043.4,0.163901,0.163597,-7.46832,6,0.0161818,10,-0.0012218,-2.12678,-0.244923,-0.240892,70.2087,0.163597,
2,0,0,1,0,11043.4,0.161904,0.161589,-7.60868,6,0.0161064,10,-0.00122948,-2.11869,-0.230175,-0.256327,76.211,0.161589,
2,0,0,1,0,11043.4,0.159906,0.159634,-7.77036,6,0.0160295,10,-0.00124041,-2.10956,-0.214156,-0.2755,83.5692,0.159634,
2,0,0,1,0,11043.4,0.157909,0.15764,-7.93865,6,0.0159509,10,-0.00125145,-2.10025,-0.196565,-0.300155,93.2069,0.15764,
2,0,0,1,0,11043.4,0.155902,0.155602,-8.14622,6,0.0158704,10,-0.00126757,-2.08904,-0.182898,-0.322584,102.53,0.155602,
2,0,0,1,0,11043.4,0.153904,0.153597,-8.35318,6,0.0157879,10,-0.00128303,-2.07815,-0.177262,-0.332841,108.63,0.153597,
2,0,0,1,0,11043.4,0.151907,0.15158,-8.58306,6,0.0157031,10,-0.00130102,-2.06636,-0.166188,-0.35502,119.001,0.15158,
2,0,0,1,0,11043.4,0.149909,0.1496,-8.82883,6,0.015616,10,-0.0013208,-2.0541,-0.148095,-0.398392,137.674,0.1496,
2,0,0,1,0,11043.4,0.147921,0.147592,-9.13216,6,0.0155271,10,-0.00134783,-2.03943,-0.141939,-0.415671,147.98,0.147592,
2,0,0,1,0,11043.4,0.145923,0.145595,-9.42157,6,0.0154342,10,-0.00137173,-2.02588,-0.135189,-0.436425,160.967,0.145595,
2,0,0,1,0,11043.5,0.143926,0.143589,-9.77647,6,0.0153382,10,-0.00140379,-2.00982,-0.122424,-0.481932,184.025,0.143589,
2,0,0,1,0,11043.5,0.141928,0.141603,-10.1561,6,0.0152385,10,-0.00143814,-1.99327,-0.116292,-0.507344,201.375,0.141603,
2,0,0,1,0,11043.5,0.139939,0.139625,-10.5748,6,0.015136,10,-0.0014765,-1.97573,-0.116466,-0.506584,208.962,0.139625,
2,0,0,1,0,11043.5,0.137942,0.137594,-10.9938,6,0.0150281,10,-0.00151269,-1.95885,-0.112741,-0.523323,225.039,0.137594,
2,0,0,1,0,11043.5,0.135944,0.135627,-11.4745,6,0.0149157,10,-0.00155625,-1.94027,-0.108557,-0.543492,243.346,0.135627,
2,0,0,1,0,11043.5,0.133947,0.133602,-11.9654,6,0.0147984,10,-0.0015986,-1.92207,-0.107064,-0.551073,257.574,0.133602,
2,0,0,1,0,11043.5,0.13194,0.131673,-12.4929,6,0.0146762,10,-0.00164497,-1.90334,-0.109315,-0.539727,263.013,0.131673,
2,0,0,1,0,11043.5,0.129942,0.129583,-13.0224,6,0.0145485,10,-0.00168748,-1.88531,-0.110902,-0.531999,270.472,0.129583,
2,0,0,1,0,11043.5,0.127945,0.127667,-13.5763,6,0.0144154,10,-0.00173325,-1.86722,-0.113299,-0.520747,275.601,0.127667,
2,0,0,1,0,11043.5,0.125947,0.125621,-14.1142,6,0.0142769,10,-0.00177305,-1.85034,-0.117924,-0.500321,275.799,0.125621,
2,0,0,1,0,11043.6,0.123941,0.123637,-14.6878,6,0.0141328,10,-0.00181596,-1.83304,-0.123052,-0.479472,274.092,0.123637,
2,0,0,1,0,11043.6,0.121943,0.12168,-15.1945,6,0.0139834,10,-0.00184887,-1.81831,-0.133435,-0.442164,262.346,0.12168,
2,0,0,1,0,11043.6,0.119945,0.119664,-15.73,6,0.0138287,10,-0.00188233,-1.80327,-0.137625,-0.428701,263.007,0.119664,
2,0,0,1,0,11043.6,0.117948,0.117639,-16.2572,6,0.0136686,10,-0.00191249,-1.78895,-0.145504,-0.405486,256.967,0.1176395,
2,0,0,1,0,11043.6,0.115946,0.115667,-16.7571,6,0.0135035,10,-0.00193825,-1.7758,-0.158413,-0.372443,243.217,0.115667,
2,0,0,1,0,11043.6,0.113962,0.11369,-17.2177,6,0.0133351,10,-0.00195749,-1.76402,-0.17456,-0.337992,226.996,0.11369,
2,0,0,1,0,11043.6,0.111964,0.111654,-17.6683,6,0.0131607,10,-0.00197272,-1.75281,-0.189687,-0.311039,214.185,0.111654,
2,0,0,1,0,11043.6,0.109967,0.109673,-18.0783,6,0.0129818,10,-0.00198269,-1.74284,-0.205737,-0.286774,202.224,0.1096725,
2,0,0,1,0,11043.6,0.107969,0.107663,-18.4753,6,0.012799,10,-0.0019891,-1.73341,-0.226638,-0.260327,187.428,0.107663,
2,0,0,1,0,11043.6,0.10598,0.1057,-18.8229,6,0.0126143,10,-0.00198957,-1.72531,-0.249569,-0.236408,173.614,0.1057,
2,0,0,1,0,11043.7,0.103983,0.103698,-19.1636,6,0.0124243,10,-0.00198723,-1.71752,-0.273605,-0.215639,161.099,0.103698,
2,0,0,1,0,11043.7,0.101985,0.101708,-19.466,6,0.0122311,10,-0.00197984,-1.71072,-0.315698,-0.186887,141.829,0.101708,
2,0,0,1,0,11043.7,0.0999877,0.0997018,-19.7304,6,0.0120351,10,-0.00196716,-1.70486,-0.354139,-0.166601,128.243,0.09970177,
2,0,0,1,0,11043.7,0.0979811,0.097669,-19.9839,6,0.0118363,10,-0.00195181,-1.69932,-0.397539,-0.148413,115.621,0.097669,
2,0,0,1,0,11043.7,0.0959835,0.095683,-20.1951,6,0.0116354,10,-0.00193233,-1.69475,-0.491951,-0.119931,94.4067,0.095683,
2,0,0,1,0,11043.7,0.0939859,0.0937118,-20.3575,6,0.0114325,10,-0.00190774,-1.69128,-0.613968,-0.0960961,76.3095,0.0937118,
2,0,0,1,0,11043.7,0.0919883,0.0916808,-20.5005,6,0.0112282,10,-0.0018795,-1.68824,-0.757626,-0.0778748,62.2575,0.0916808,
2,0,0,1,0,11043.7,0.0899816,0.0896158,-20.6125,6,0.0110225,10,-0.00184721,-1.68587,-1.12134,-0.0526156,42.2693,0.0896158,
2,0,0,1,0,11043.7,0.087984,0.0876854,-20.6694,6,0.0108161,10,-0.0018124,-1.68467,-2.53634,-0.0232619,18.7464,0.0876854,
2,0,0,1,0,11043.7,0.0859865,0.0856717,-20.6865,6,0.0106092,10,-0.00177224,-1.68431,-23.6634,-0.00249331,2.01164,0.0856717,
2,0,0,1,0,11043.8,0.0839889,0.0836892,-20.6774,6,0.0104023,10,-0.00173048,-1.6845,3.34252,0.0176513,-14.2309,0.0836892,
2,0,0,1,0,11043.8,0.0820004,0.0816968,-20.6299,6,0.0101978,10,-0.0016854,-1.6855,1.50372,0.0392359,-31.5654,0.0816968,
2,0,0,1,0,11043.8,0.0800028,0.0796816,-20.5509,6,0.00999192,10,-0.00163753,-1.68717,0.914106,0.0645439,-51.7039,0.0796816,
2,0,0,1,0,11043.8,0.0780052,0.0776853,-20.4225,6,0.00978702,10,-0.00158653,-1.68989,0.68671,0.0859169,-68.4469,0.0776853,
2,0,0,1,0,11043.8,0.0760076,0.0756677,-20.2762,6,0.00958354,10,-0.00153425,-1.69301,0.584055,0.101018,-79.8845,0.07566765,
2,0,0,1,0,11043.8,0.0740191,0.0736996,-20.1041,6,0.00938374,10,-0.00148166,-1.69672,0.500158,0.117963,-92.4962,0.0736996,
2,0,0,1,0,11043.8,0.0720215,0.0716903,-19.9083,6,0.0091837,10,-0.00142723,-1.70097,0.463581,0.12727,-98.8695,0.0716903,
2,0,0,1,0,11043.8,0.0700239,0.0696948,-19.7081,6,0.00898562,10,-0.00137355,-1.70535,0.436384,0.135202,-103.952,0.0696948,
2,0,0,1,0,11043.8,0.0680263,0.0677149,-19.495,6,0.00878969,10,-0.0013201,-1.71008,0.431141,0.136846,-104.152,0.0677149,
2,0,0,1,0,11043.8,0.0660197,0.0657437,-19.2966,6,0.00859579,10,-0.00126863,-1.71452,0.447577,0.131821,-99.2708,0.0657437,
2,0,0,1,0,11043.9,0.0640221,0.0637248,-19.0989,6,0.00840384,10,-0.00121707,-1.71899,0.433966,0.135955,-101.306,0.0637248,
2,0,0,1,0,11043.9,0.0620245,0.0617397,-18.891,6,0.00821388,10,-0.00116632,-1.72375,0.4536,0.13007,-95.9647,0.0617397,
2,0,0,1,0,11043.9,0.0600269,0.0596904,-18.7118,6,0.00802592,10,-0.00111691,-1.72789,0.491443,0.120055,-87.6755,0.0596904,
2,0,0,1,0,11043.9,0.0580248,0.0576845,-18.5354,6,0.00783969,10,-0.00106921,-1.732,0.506018,0.116597,-84.3778,0.0576845,
2,0,0,1,0,11043.9,0.0560227,0.0557012,-18.3752,6,0.00765515,10,-0.00102352,-1.73577,0.517437,0.114024,-81.7605,0.0557012,
2,0,0,1,0,11043.9,0.0540251,0.0537274,-18.2119,6,0.0074722,10,-0.000978478,-1.73964,0.561575,0.105062,-74.7265,0.0537274,
2,0,0,1,0,11043.9,0.0520275,0.0516928,-18.0756,6,0.00729081,10,-0.00093438,-1.74291,0.564882,0.104447,-73.6301,0.0516928,
2,0,0,1,0,11043.9,0.0500299,0.0497025,-17.9156,6,0.00711083,10,-0.000890449,-1.74677,0.585343,0.100796,-70.5516,0.0497025,
2,0,0,1,0,11043.9,0.0480414,0.0477175,-17.7952,6,0.00693407,10,-0.000849139,-1.7497,0.631101,0.0934874,-64.89,0.0477175,
2,0,0,1,0,11043.9,0.0460438,0.0456974,-17.6557,6,0.00675679,10,-0.000806818,-1.75312,0.625402,0.0943394,-65.0376,0.04569738,
2,0,0,1,0,11044,0.0440462,0.0437179,-17.535,6,0.00658091,10,-0.000766594,-1.75609,0.601782,0.0980422,-67.0443,0.0437179,
2,0,0,1,0,11044,0.0420486,0.0417216,-17.3891,6,0.00640633,10,-0.000725503,-1.75972,0.633296,0.0931634,-63.2978,0.0417216,
2,0,0,1,0,11044,0.0400601,0.0397528,-17.2841,6,0.00623474,10,-0.00068709,-1.76235,0.669014,0.0881895,-59.4381,0.0397528,
2,0,0,1,0,11044,0.0380625,0.0377122,-17.1508,6,0.00606253,10,-0.000646795,-1.76572,0.589654,0.100059,-66.9707,0.0377122,
2,0,0,1,0,11044,0.036065,0.0357627,-17.0168,6,0.00589175,10,-0.000608568,-1.76912,0.573091,0.102951,-68.3658,0.0357627,
2,0,0,1,0,11044,0.0340674,0.0337664,-16.881,6,0.00572222,10,-0.000570011,-1.7726,0.642629,0.0918104,-60.5293,0.0337664,
2,0,0,1,0,11044,0.0320607,0.031685,-16.77,6,0.00555397,10,-0.000531357,-1.77547,0.590613,0.0998963,-65.3019,0.031685,
2,0,0,1,0,11044,0.0300631,0.0297615,-16.6195,6,0.00538699,10,-0.000494622,-1.77938,0.545862,0.108086,-70.1505,0.0297615,
2,0,0,1,0,11044,0.0280655,0.0277105,-16.4912,6,0.00522145,10,-0.000456979,-1.78275,0.556209,0.106075,-68.2328,0.0277105,
2,0,0,1,0,11044,0.0260679,0.025748,-16.3457,6,0.0050572,10,-0.000420867,-1.7866,0.519559,0.113558,-72.4477,0.025748,
2,0,0,1,0,11044.1,0.0240613,0.0237473,-16.2041,6,0.00489446,10,-0.000384802,-1.79038,0.495766,0.119008,-75.2172,0.0237473,
2,0,0,1,0,11044.1,0.0220637,0.0217518,-16.0451,6,0.00473317,10,-0.000349009,-1.79466,0.464017,0.127151,-79.6183,0.0217518,
2,0,0,1,0,11044.1,0.0200661,0.0197563,-15.8863,6,0.00457352,10,-0.000313854,-1.79898,0.427001,0.138173,-85.5973,0.0197563,
2,0,0,1,0,11044.1,0.0180685,0.0177582,-15.7032,6,0.0044155,10,-0.000278861,-1.80401,0.426071,0.138475,-84.9319,0.0177582,
2,0,0,1,0,11044.1,0.01608,0.0157557,-15.5465,6,0.00426087,10,-0.000244947,-1.80837,0.420375,0.140351,-85.0744,0.0157557,
2,0,0,1,0,11044.1,0.0140824,0.0137412,-15.3615,6,0.00410631,10,-0.000211086,-1.81357,0.382719,0.15416,-92.4131,0.0137412,
2,0,0,1,0,11044.1,0.0120848,0.0117402,-15.1755,6,0.00395367,10,-0.000178164,-1.81886,0.356868,0.165327,-97.8448,0.0117402,
2,0,0,1,0,11044.1,0.0100872,0.0097329,-14.9693,6,0.00380296,10,-0.000145695,-1.8248,0.358177,0.164723,-96.3319,0.0097329,
2,0,0,1,0,11044.1,0.00810328,0.0077998,-14.7959,6,0.00365571,10,-0.000115405,-1.82986,0.359641,0.164053,-94.6283,0.007799801,
2,0,0,1,0,11044.1,0.00610116,0.00574878,-14.5923,6,0.00350876,10,-8.38879e-05,-1.83588,0.340057,0.1735,-98.8457,0.00574878,
2,0,0,1,0,11044.2,0.00410357,0.00381489,-14.402,6,0.00336389,10,-5.49419e-05,-1.84158,0.405743,0.145412,-81.871,0.00381489,
2,0,0,1,0,11044.2,0.00210598,0.00171789,-14.2623,6,0.00322077,10,-2.4501e-05,-1.84581,0.412714,0.142956,-79.4343,0.00171789,
2,0,0,1,0,11044.2,0.00010174,-0.000303633,-14.0748,6,0.00307913,10,4.27359e-06,-1.85156,0.351006,0.168088,-92.334,-0.000303633,
2,0,0,1,0,11044.2,-0.00189827,-0.00231214,-13.8902,6,0.00293929,10,3.2116e-05,-1.85729,0.363709,0.162217,-88.0005,-0.00231214,
2,0,0,1,0,11044.2,-0.00389586,-0.00425384,-13.7272,6,0.00280125,10,5.83934e-05,-1.86242,0.391075,0.150866,-80.8483,-0.00425384,
2,0,0,1,0,11044.2,-0.00589345,-0.00622418,-13.5739,6,0.00266473,10,8.44863e-05,-1.8673,0.411191,0.143486,-76.0269,-0.006224175,
2,0,0,1,0,11044.2,-0.00789103,-0.00819798,-13.4273,6,0.00252975,10,0.000110077,-1.87201,0.47652,0.123814,-64.9535,-0.00819798,
2,0,0,1,0,11044.2,-0.0098977,-0.0102681,-13.3112,6,0.00239598,10,0.000136681,-1.87578,0.558844,0.105575,-54.8665,-0.0102681,
2,0,0,1,0,11044.2,-0.0118953,-0.0122358,-13.2058,6,0.00226344,10,0.000161584,-1.87924,0.550264,0.107221,-55.2401,-0.0122358,
2,0,0,1,0,11044.2,-0.0138929,-0.0142443,-13.0916,6,0.00213189,10,0.000186481,-1.88301,0.639835,0.0922113,-47.1795,-0.0142443,
2,0,0,1,0,11044.3,-0.0158905,-0.0162832,-13.0148,6,0.00200136,10,0.000211923,-1.88556,0.883411,0.0667866,-33.9449,-0.0162832,
2,0,0,1,0,11044.3,-0.017879,-0.0182602,-12.9553,6,0.00187278,10,0.000236566,-1.88755,0.974177,0.060564,-30.6184,-0.01826025,
2,0,0,1,0,11044.3,-0.0198766,-0.0202509,-12.8934,6,0.00174359,10,0.000261102,-1.88963,0.998493,0.0590891,-29.7386,-0.0202509,
2,0,0,1,0,11044.3,-0.0218741,-0.0222503,-12.8366,6,0.00161495,10,0.000285618,-1.89155,1.34684,0.0438063,-21.9681,-0.0222503,
2,0,0,1,0,11044.3,-0.0238717,-0.0242258,-12.806,6,0.0014868,10,0.000310237,-1.89259,2.23517,0.0263962,-13.1967,-0.0242258,
2,0,0,1,0,11044.3,-0.0258602,-0.0262329,-12.784,6,0.00136013,10,0.000335362,-1.89333,2.42048,0.0243753,-12.1593,-0.0262329,
2,0,0,1,0,11044.3,-0.0278578,-0.0281989,-12.7577,6,0.00123251,10,0.000359754,-1.89423,3.21367,0.0183591,-9.14666,-0.0281989,
2,0,0,1,0,11044.3,-0.0298554,-0.0302187,-12.7476,6,0.00110498,10,0.000385215,-1.89457,9.84787,0.00599114,-2.98155,-0.0302187,
2,0,0,1,0,11044.3,-0.031853,-0.0322376,-12.7457,6,0.000977543,10,0.00041089,-1.89464,-23.3619,-0.00252548,1.25667,-0.0322376,
2,0,0,1,0,11044.3,-0.0338597,-0.0342331,-12.7526,6,0.000850021,10,0.000436562,-1.8944,-5.44692,-0.0108318,5.39249,-0.0342331,
2,0,0,1,0,11044.4,-0.0358573,-0.0361809,-12.767,6,0.000722433,10,0.000461919,-1.89391,-2.84673,-0.0207256,10.3316,-0.0361809,
2,0,0,1,0,11044.4,-0.0378548,-0.0382024,-12.7936,6,0.00059455,10,0.000488747,-1.89301,-2.58577,-0.0228172,11.3893,-0.03820239,
2,0,0,1,0,11044.4,-0.0398524,-0.0402335,-12.8131,6,0.000466517,10,0.000515516,-1.89235,-1.91908,-0.030744,15.3876,-0.0402335,
2,0,0,1,0,11044.4,-0.0418591,-0.0422428,-12.8558,6,0.000338157,10,0.000543066,-1.8909,-1.46375,-0.0403075,20.219,-0.0422428,
2,0,0,1,0,11044.4,-0.0438567,-0.0442028,-12.8934,6,0.000209426,10,0.000569922,-1.88963,-1.69445,-0.0348196,17.5171,-0.0442028,
2,0,0,1,0,11044.4,-0.0458543,-0.0462277,-12.9256,6,8.0248e-05,10,0.000597522,-1.88855,-1.41647,-0.0416528,21.0276,-0.0462277,
2,0,0,1,0,11044.4,-0.0478519,-0.0482085,-12.9776,6,-4.9275e-05,10,0.00062563,-1.88681,-1.00237,-0.0588607,29.8284,-0.0482085,
2,0,0,1,0,11044.4,-0.0498585,-0.0502118,-13.0445,6,-0.000179386,10,0.000654985,-1.88457,-0.960408,-0.0614322,31.2625,-0.0502118,
2,0,0,1,0,11044.4,-0.051838,-0.0521808,-13.1018,6,-0.000308795,10,0.000683661,-1.88267,-1.11937,-0.0527083,26.943,-0.0521808,
2,0,0,1,0,11044.4,-0.0538355,-0.0541898,-13.1516,6,-0.000440021,10,0.000712684,-1.88102,-1.01335,-0.0582229,29.9067,-0.0541898,
2,0,0,1,0,11044.5,-0.0558331,-0.0561915,-13.2217,6,-0.000571839,10,0.000742949,-1.87871,-0.892112,-0.0661352,34.1212,-0.0561915,
2,0,0,1,0,11044.5,-0.0578126,-0.0581972,-13.2884,6,-0.000703087,10,0.000773346,-1.87653,-0.879396,-0.0670915,34.8015,-0.0581972,
2,0,0,1,0,11044.5,-0.0598192,-0.0601953,-13.3611,6,-0.000836354,10,0.000804274,-1.87416,-0.824391,-0.071568,37.324,-0.0601953,
2,0,0,1,0,11044.5,-0.0618168,-0.0622064,-13.438,6,-0.000970387,10,0.000835931,-1.87167,-0.769242,-0.0766989,40.2329,-0.06220644,
2,0,0,1,0,11044.5,-0.0638144,-0.0641716,-13.521,6,-0.00110519,10,0.000867666,-1.86899,-0.777065,-0.0759268,40.0563,-0.0641716,
2,0,0,1,0,11044.5,-0.065812,-0.0662078,-13.5983,6,-0.00124081,10,0.000900313,-1.86652,-0.693585,-0.0850653,45.1891,-0.0662078,
2,0,0,1,0,11044.5,-0.0678187,-0.0681999,-13.7031,6,-0.0013773,10,0.000934548,-1.86318,-0.688978,-0.0856341,45.7499,-0.0681999,
2,0,0,1,0,11044.5,-0.0698163,-0.0701927,-13.7806,6,-0.00151477,10,0.000967298,-1.86073,-0.760439,-0.0775868,41.745,-0.0701927,
2,0,0,1,0,11044.5,-0.0718138,-0.0722039,-13.8702,6,-0.0016531,10,0.00100148,-1.85792,-0.637038,-0.0926161,50.1668,-0.07220386,
2,0,0,1,0,11044.5,-0.0738114,-0.0741351,-13.9784,6,-0.00179242,10,0.00103629,-1.85454,-0.569783,-0.103548,56.5087,-0.07413514,
2,0,0,1,0,11044.6,-0.0758181,-0.0762157,-14.0969,6,-0.00193284,10,0.00107441,-1.85088,-0.606919,-0.0972123,53.4423,-0.07621567,
2,0,0,1,0,11044.6,-0.0778157,-0.0781886,-14.195,6,-0.0020744,10,0.00110989,-1.84786,-0.596077,-0.0989804,54.8711,-0.0781886,
2,0,0,1,0,11044.6,-0.0798133,-0.080152,-14.3129,6,-0.00221694,10,0.00114721,-1.84427,-0.561718,-0.105035,58.6636,-0.08015199,
2,0,0,1,0,11044.6,-0.0818109,-0.0821553,-14.4277,6,-0.00236072,10,0.00118531,-1.8408,-0.521723,-0.113087,63.7351,-0.0821553,
2,0,0,1,0,11044.6,-0.0837994,-0.0841887,-14.5702,6,-0.00250426,10,0.00122665,-1.83653,-0.526005,-0.112166,63.714,-0.0841887,
2,0,0,1,0,11044.6,-0.0857969,-0.0861594,-14.6828,6,-0.0026505,10,0.00126506,-1.83319,-0.526634,-0.112032,64.2609,-0.08615943,
2,0,0,1,0,11044.6,-0.0877945,-0.088158,-14.8253,6,-0.002798,10,0.00130697,-1.829,-0.497322,-0.118635,68.6114,-0.088158,
2,0,0,1,0,11044.6,-0.0897921,-0.0901407,-14.956,6,-0.00294694,10,0.00134814,-1.82518,-0.501544,-0.117637,68.6919,-0.0901407,
2,0,0,1,0,11044.6,-0.0917806,-0.0921605,-15.1002,6,-0.00309566,10,0.00139164,-1.82102,-0.494926,-0.11921,70.2326,-0.09216053,
2,0,0,1,0,11044.6,-0.0937782,-0.0941413,-15.237,6,-0.00324738,10,0.00143443,-1.8171,-0.489238,-0.120596,71.7412,-0.09414126,
2,0,0,1,0,11044.7,-0.0957758,-0.0961567,-15.3869,6,-0.00340051,10,0.00147955,-1.81285,-0.496524,-0.118826,71.3222,-0.0961567,
2,0,0,1,0,11044.7,-0.0977734,-0.0981583,-15.5235,6,-0.00355512,10,0.00152376,-1.80901,-0.470507,-0.125397,76.0389,-0.0981583,
2,0,0,1,0,11044.7,-0.0997412,-0.100136,-15.6895,6,-0.00370803,10,0.00157108,-1.80439,0.0970683,0.607819,-360.205,-0.100136,
2,0,0,1,1,11044.7,-0.0996711,-0.100024,-14.8512,6,-0.00375405,10,0.00148549,-1.82824,-0.0131805,-4.47631,2304.5,-0.100024,
2,0,0,1,1,11044.7,-0.0976826,-0.0980898,-10.9738,6,-0.00387995,10,0.00107642,-1.95964,-0.0152693,-3.86396,1684.84,-0.0980898,
2,0,0,1,1,11044.7,-0.095685,-0.0960522,-8.15862,6,-0.00397473,10,0.000783654,-2.08838,-0.0147674,-3.99529,1271.97,-0.0960522,
2,0,0,1,1,11044.7,-0.0936874,-0.0940775,-5.87022,6,-0.00404427,10,0.000552255,-2.23135,-0.0125449,-4.70312,1066.54,-0.0940775,
2,0,0,1,1,11044.7,-0.0916898,-0.0921187,-3.96329,6,-0.00409294,10,0.000365093,-2.40194,-0.00995904,-5.92427,886.567,-0.0921187,
2,0,0,1,1,11044.7,-0.0897013,-0.0900896,-2.33464,6,-0.00412369,10,0.000210327,-2.63178,-0.00633129,-9.31879,757.546,-0.09008956,
2,0,0,1,1,11044.7,-0.0877037,-0.0881001,-0.919066,6,-0.00413961,10,8.09698e-05,-3.03665,-0.00467521,-12.6198,666.737,-0.0881001,
2,1,0,1,1,11044.7,-0.0857062,-0.0860977,0.326877,6,-0.00414231,10,-2.81434e-05,-3.48562,0.0218492,2.70033,580.038,-0.0860977,
2,1,0,1,1,11044.8,-0.0837086,-0.0841005,1.40089,6,-0.00413336,10,-0.000117815,-2.8536,0.00469341,12.5708,507.917,-0.08410047,
2,1,0,1,1,11044.8,-0.0817019,-0.0820477,2.38393,6,-0.00411417,10,-0.000195596,-2.62271,0.0109416,5.39225,461.145,-0.0820477,
2,1,0,1,1,11044.8,-0.0797043,-0.0801242,3.23451,6,-0.00408588,10,-0.000259163,-2.49019,0.0175334,3.36501,409.764,-0.0801242,
2,1,0,1,1,11044.8,-0.0777067,-0.0781175,3.99441,6,-0.00404958,10,-0.000312033,-2.39855,0.0251588,2.3451,358.122,-0.0781175,
2,1,0,1,1,11044.8,-0.0757091,-0.0760873,4.68024,6,-0.00400605,10,-0.000356107,-2.32973,0.0321302,1.83628,331.65,-0.0760873,
2,1,0,1,1,11044.8,-0.0737025,-0.0741056,5.32493,6,-0.00395589,10,-0.000394607,-2.27369,0.0404089,1.46007,299.381,-0.07410565,
2,1,0,1,1,11044.8,-0.0717049,-0.0721041,5.87273,6,-0.00389975,10,-0.000423448,-2.23116,0.0511716,1.15298,262.565,-0.0721041,
2,1,0,1,1,11044.8,-0.0697073,-0.070099,6.37693,6,-0.00383844,10,-0.000447017,-2.19539,0.0616841,0.956486,236.53,-0.070099,
2,1,0,1,1,11044.8,-0.0677097,-0.0680827,6.8239,6,-0.0037723,10,-0.00046459,-2.16597,0.0708041,0.833286,221.405,-0.0680827,
2,1,0,1,1,11044.8,-0.0657212,-0.0661177,7.25841,6,-0.00370257,10,-0.00047991,-2.13916,0.0850676,0.693566,195.027,-0.0661177,
2,1,0,1,1,11044.9,-0.0637236,-0.0641017,7.60032,6,-0.00362821,10,-0.000487193,-2.11917,0.101944,0.578751,171.571,-0.0641017,
2,1,0,1,1,11044.9,-0.061726,-0.0621213,7.94408,6,-0.00355042,10,-0.000493497,-2.09996,0.113419,0.520197,160.676,-0.0621213,
2,1,0,1,1,11044.9,-0.0597284,-0.0601386,8.23708,6,-0.00346943,10,-0.000495367,-2.08423,0.132085,0.446681,143.407,-0.0601386,
2,1,0,1,1,11044.9,-0.0577399,-0.0581382,8.51528,6,-0.00338652,10,-0.000495063,-2.0698,0.152629,0.386557,128.114,-0.0581382,
2,1,0,1,1,11044.9,-0.0557423,-0.056115,8.75257,6,-0.00330014,10,-0.00049115,-2.05786,0.178634,0.330284,112.668,-0.056115,
2,1,0,1,1,11044.9,-0.0537447,-0.0541004,8.97022,6,-0.00321148,10,-0.000485292,-2.0472,0.205066,0.287712,100.502,-0.0541004,
2,1,0,1,1,11044.9,-0.0517472,-0.0521448,9.15157,6,-0.00312077,10,-0.000477207,-2.0385,0.222248,0.265469,94.8729,-0.0521448,
2,1,0,1,1,11044.9,-0.049745,-0.0501302,9.34688,6,-0.00302827,10,-0.000468561,-2.02933,0.247322,0.238555,86.8273,-0.0501302,
2,1,0,1,1,11044.9,-0.0477429,-0.0480974,9.503,6,-0.00293393,10,-0.00045707,-2.02214,0.29081,0.202882,75.1963,-0.0480974,
2,1,0,1,1,11044.9,-0.0457453,-0.0461141,9.64888,6,-0.00283813,10,-0.000444949,-2.01552,0.342261,0.172383,64.8054,-0.0461141,
2,1,0,1,1,11045,-0.0437477,-0.0440726,9.76383,6,-0.00274106,10,-0.000430317,-2.01038,0.389115,0.151626,57.7812,-0.0440726,
2,1,0,1,1,11045,-0.0417501,-0.0420971,9.88099,6,-0.00264284,10,-0.000415961,-2.0052,0.41849,0.140983,54.311,-0.0420971,
2,1,0,1,1,11045,-0.0397435,-0.0401146,9.97879,6,-0.00254345,10,-0.000400295,-2.00092,0.48549,0.121527,47.3092,-0.0401146,
2,1,0,1,1,11045,-0.0377459,-0.038113,10.0695,6,-0.00244323,10,-0.000383778,-1.99699,0.569037,0.103684,40.7071,-0.038113,
2,1,0,1,1,11045,-0.0357483,-0.0361175,10.1415,6,-0.00234218,10,-0.000366286,-1.9939,0.660586,0.0893146,35.3456,-0.0361175,
2,1,0,1,1,11045,-0.0337507,-0.0340977,10.2114,6,-0.00224038,10,-0.000348185,-1.99092,0.754148,0.078234,31.1533,-0.0340977,
2,1,0,1,1,11045,-0.0317622,-0.0321359,10.2655,6,-0.00213896,10,-0.000329893,-1.98862,0.884789,0.0666825,26.7109,-0.0321359,
2,1,0,1,1,11045,-0.0297646,-0.0301596,10.3166,6,-0.00203603,10,-0.000311144,-1.98646,1.10666,0.0533134,21.4481,-0.0301596,
2,1,0,1,1,11045,-0.027767,-0.0281387,10.3513,6,-0.00193266,10,-0.000291272,-1.98501,1.45426,0.0405703,16.3865,-0.0281387,
2,1,0,1,1,11045,-0.0257694,-0.0261505,10.3823,6,-0.00182898,10,-0.000271501,-1.98371,1.46108,0.0403811,16.3642,-0.0261505,
2,1,0,1,1,11045.1,-0.0237809,-0.0241723,10.4162,6,-0.00172598,10,-0.000251783,-1.98229,1.60606,0.0367359,14.9281,-0.0241723,
2,1,0,1,1,11045.1,-0.0217833,-0.0221152,10.4425,6,-0.00162167,10,-0.000230939,-1.98119,3.15767,0.0186847,7.6066,-0.02211524,
2,1,0,1,1,11045.1,-0.0197858,-0.0201779,10.4466,6,-0.00151715,10,-0.000210789,-1.98103,2.92099,0.0201986,8.24455,-0.0201779,
2,1,0,1,1,11045.1,-0.0177882,-0.018165,10.4751,6,-0.00141259,10,-0.00019028,-1.97984,2.46894,0.0238969,9.76109,-0.018165,
2,1,0,1,1,11045.1,-0.0157815,-0.0161305,10.4861,6,-0.00130778,10,-0.000169146,-1.97939,5.67282,0.0104005,4.25528,-0.0161305,
2,1,0,1,1,11045.1,-0.0137839,-0.0141463,10.4922,6,-0.00120288,10,-0.000148425,-1.97913,28.1148,0.00209854,0.858943,-0.0141463,
2,1,0,1,1,11045.1,-0.0117863,-0.0121759,10.4895,6,-0.00109797,10,-0.000127719,-1.97925,7.64668,0.00771577,3.16133,-0.0121759,
2,1,0,1,1,11045.1,-0.00978874,-0.0101501,10.5048,6,-0.000993051,10,-0.000106625,-1.97861,5.57368,0.0105855,4.33699,-0.0101501,
2,1,0,1,1,11045.1,-0.00778208,-0.00815633,10.5069,6,-0.000888005,10,-8.56978e-05,-1.97853,-19.3091,-0.00305555,-1.25239,-0.00815633,
2,1,0,1,1,11045.1,-0.00578449,-0.0061565,10.4998,6,-0.000782999,10,-6.46421e-05,-1.97882,-15.1785,-0.00388709,-1.59342,-0.0061565,
2,1,0,1,1,11045.2,-0.0037869,-0.00416448,10.5005,6,-0.000677976,10,-4.37293e-05,-1.97879,12.3767,0.00476704,1.95414,-0.00416448,
2,1,0,1,1,11045.2,-0.00178931,-0.00213949,10.5077,6,-0.000572959,10,-2.2481e-05,-1.97849,-16.4737,-0.00358146,-1.46731,-0.00213949,
2,1,0,1,1,11045.2,-2.55332e-05,-0.000382585,10.495,6,-0.000481583,10,-4.01523e-06,-1.97902, , , ,-0.000382585,