File: Figure_codes/Fig_3-5/rawdata_trumpetplot_data/after 10th/20221101_1-115_003_TrumpetPlot_ParaChange_from10_every3_02_CV_C01_24.csv
mode,ox/red,error,control changes,counter inc.,time/s,control/V,Ewe/V,<I>/mA,cycle number,(Q-Qo)/C,I Range,P/W,log(|I|),Tafel slope mV/dec,alpha_eff,dI/d(E-IR),E-IR/V,
2,0,0,1,0,47623.2,2.44065e-05,-0.000382585,-0.390061,25,0.0000000E+000,10,1.49232e-07,-3.40887, , , ,-0.000382585,
2,0,0,1,0,47624.4,0.00129791,0.00089415,-0.180248,25,-0.000270495,10,-1.61168e-07,-3.74413, , , ,0.00089415,
2,0,0,1,0,47625.9,0.00279612,0.00245299,-0.147773,25,-0.000495276,10,-3.62485e-07,-3.83041,-0.0172088,-3.42849,20.8394,0.00245299,
2,0,0,1,0,47627.4,0.00429431,0.0039885,-0.123212,25,-0.000681215,10,-4.9143e-07,-3.90935,-0.0245523,-2.40304,11.7942,0.0039885,
2,0,0,1,0,47628.9,0.00579242,0.00544752,-0.10852,25,-0.000839339,10,-5.91166e-07,-3.96449,-0.0267729,-2.20372,9.47361,0.005447519,
2,0,0,1,0,47630.4,0.00729061,0.00695116,-0.0962423,25,-0.000977568,10,-6.68995e-07,-4.01663,-0.0308823,-1.91048,7.23713,0.00695116,
2,0,0,1,0,47631.9,0.00878882,0.00844315,-0.0860984,25,-0.00109937,10,-7.26942e-07,-4.065,-0.0331921,-1.77753,6.04895,0.00844315,
2,0,0,1,0,47633.4,0.010287,0.00999882,-0.077817,25,-0.00120771,10,-7.78078e-07,-4.10893,-0.035601,-1.65726,5.09907,0.009998817,
2,0,0,1,0,47634.9,0.0117852,0.0114632,-0.0716235,25,-0.00130483,10,-8.21036e-07,-4.14494,-0.0382972,-1.54058,4.2992,0.0114632,
2,0,0,1,0,47636.4,0.0132834,0.012933,-0.0652131,25,-0.00139295,10,-8.43398e-07,-4.18567,-0.0395548,-1.4916,3.76478,0.01293295,
2,0,0,1,0,47637.9,0.0147815,0.0144757,-0.0597891,25,-0.00147216,10,-8.65491e-07,-4.22338,-0.0382194,-1.54372,3.60312,0.0144757,
2,0,0,1,0,47639.4,0.0162797,0.0159582,-0.0544766,25,-0.00154353,10,-8.69348e-07,-4.26379,-0.0421982,-1.39816,3.01049,0.0159582,
2,0,0,1,0,47640.9,0.0177779,0.0174471,-0.0502828,25,-0.00160793,10,-8.77289e-07,-4.29858,-0.0413104,-1.42821,2.8017,0.01744708,
2,0,0,1,0,47642.4,0.0192761,0.0189847,-0.0458565,25,-0.00166636,10,-8.7057e-07,-4.3386,-0.038628,-1.52739,2.7558,0.0189847,
2,0,0,1,0,47643.9,0.0207743,0.0204501,-0.042178,25,-0.00171853,10,-8.62545e-07,-4.37491,-0.0442597,-1.33304,2.23708,0.0204501,
2,0,0,1,0,47645.4,0.0222725,0.0219845,-0.0385894,25,-0.00176522,10,-8.4837e-07,-4.41353,-0.0403861,-1.4609,2.22895,0.0219845,
2,0,0,1,0,47646.9,0.0237707,0.023449,-0.0357872,25,-0.00180745,10,-8.39174e-07,-4.44627,-0.0393122,-1.50081,2.08501,0.023449,
2,0,0,1,0,47648.4,0.0252689,0.0249781,-0.0328497,25,-0.00184482,10,-8.20523e-07,-4.48347,-0.0339387,-1.73843,2.20755,0.0249781,
2,0,0,1,0,47649.9,0.0267671,0.0264245,-0.0298628,25,-0.00187747,10,-7.8911e-07,-4.52487,-0.0336102,-1.75542,2.02673,0.0264245,
2,0,0,1,0,47651.4,0.0282653,0.0279684,-0.026773,25,-0.00190519,10,-7.48798e-07,-4.5723,-0.0310786,-1.89842,1.96085,0.0279684,
2,0,0,1,0,47652.9,0.0297635,0.0294509,-0.0238688,25,-0.00192885,10,-7.02958e-07,-4.62217,-0.0274206,-2.15166,1.97125,0.0294509,
2,0,0,1,0,47654.4,0.0312617,0.0309408,-0.0213314,25,-0.00194825,10,-6.6001e-07,-4.67098,-0.0257064,-2.29515,1.8877,0.0309408,
2,0,0,1,0,47655.9,0.0327599,0.0324445,-0.0180152,25,-0.00196308,10,-5.84495e-07,-4.74436,-0.0247213,-2.38661,1.70944,0.0324445,
2,0,0,1,0,47657.4,0.0342581,0.0340012,-0.0155253,25,-0.00197378,10,-5.27877e-07,-4.80896,-0.0215376,-2.7394,1.64775,0.0340012,
2,0,0,1,0,47658.9,0.0357563,0.0354051,-0.0132854,25,-0.00198094,10,-4.70371e-07,-4.87663,-0.0194935,-3.02665,1.53955,0.0354051,
2,0,0,1,0,47660.4,0.0372544,0.0369246,-0.0110503,25,-0.00198439,10,-4.0803e-07,-4.95662,-0.0148467,-3.97394,1.58034,0.0369246,
2,0,0,1,0,47661.9,0.0387526,0.0384357,-0.00855089,25,-0.00198426,10,-3.2866e-07,-5.06799,-0.00941712,-6.26518,1.79441,0.03843572,
2,0,0,1,0,47663.4,0.0402508,0.0398959,-0.00605417,25,-0.00198041,10,-2.41536e-07,-5.21795,-0.00865416,-6.81753,1.43801,0.0398959,
2,0,0,1,0,47664.9,0.041749,0.0414356,-0.00361635,25,-0.00197268,10,-1.49845e-07,-5.44173,-0.00442796,-13.3244,1.44111,0.0414356,
2,0,0,1,0,47666.4,0.0432472,0.0429679,-0.00115843,25,-0.00196185,10,-4.97752e-08,-5.93613,-0.00800008,-7.37493,1.51064,0.0429679,
2,0,0,1,0,47667.9,0.0447454,0.0444175,0.000801388,25,-0.00194799,10,3.55957e-08,-6.09616,0.0204485,2.8853,1.6593,0.0444175,
2,1,0,1,0,47669.4,0.0462435,0.0459455,0.00342674,25,-0.00193033,10,1.57443e-07,-5.46512,0.0017626,33.4733,1.45834,0.0459455,
2,0,0,1,0,47670.9,0.0477417,0.0473918,0.00543165,25,-0.00190916,10,2.57416e-07,-5.26507,0.00656963,8.98072,1.4629,0.0473918,
2,1,0,1,0,47672.4,0.0492399,0.0489273,0.00704305,25,-0.00188534,10,3.44597e-07,-5.15224,0.0127116,4.64142,1.2225,0.0489273,
2,0,0,1,0,47673.9,0.0507381,0.0504437,0.00862672,25,-0.00185907,10,4.35164e-07,-5.06415,0.0163048,3.61857,1.19775,0.0504437,
2,1,0,1,0,47675.4,0.0522363,0.0518668,0.0104241,25,-0.00182977,10,5.40663e-07,-4.98196,0.0161385,3.65586,1.43599,0.0518668,
2,1,0,1,0,47676.9,0.0537345,0.0534606,0.01294,25,-0.00179735,10,6.91782e-07,-4.88806,0.0206982,2.8505,1.38315,0.0534606,
2,1,0,1,0,47678.4,0.0552327,0.0549049,0.0144788,25,-0.00176204,10,7.94958e-07,-4.83927,0.0270639,2.18003,1.18897,0.0549049,
2,1,0,1,0,47679.9,0.0567309,0.0564212,0.0154451,25,-0.00172406,10,8.71432e-07,-4.81121,0.0289153,2.04044,1.28812,0.0564212,
2,0,0,1,0,47681.4,0.0582291,0.0578899,0.0179965,25,-0.00168353,10,1.04182e-06,-4.74481,0.033807,1.7452,1.22937,0.0578899,
2,1,0,1,0,47682.9,0.0597273,0.0594148,0.0201636,25,-0.00163974,10,1.19802e-06,-4.69543,0.0370192,1.59377,1.2142,0.0594148,
2,1,0,1,0,47684.4,0.0612255,0.0608909,0.0219576,25,-0.00159326,10,1.33702e-06,-4.65841,0.0511581,1.15329,0.973382,0.0608909,
2,1,0,1,0,47685.9,0.0627237,0.0623925,0.0234713,25,-0.0015441,10,1.46443e-06,-4.62946,0.0431235,1.36816,1.24768,0.0623925,
2,1,0,1,0,47687.4,0.0642219,0.0639248,0.0255966,25,-0.00149259,10,1.63626e-06,-4.59182,0.0500001,1.18,1.17714,0.0639248,
2,1,0,1,0,47688.9,0.0657201,0.0654051,0.02749,25,-0.00143789,10,1.79799e-06,-4.56083,0.0571417,1.03252,1.08098,0.06540513,
2,1,0,1,0,47690.4,0.0672183,0.0669417,0.0285439,25,-0.00138088,10,1.91077e-06,-4.54449,0.0950016,0.621042,0.683023,0.0669417,
2,1,0,1,0,47691.9,0.0687164,0.0684092,0.0300173,25,-0.00132198,10,2.05346e-06,-4.52263,0.0667104,0.88442,1.02473,0.0684092,
2,1,0,1,0,47693.3,0.0702146,0.0699022,0.0312725,25,-0.00126162,10,2.18601e-06,-4.50484,0.0723348,0.815652,0.991707,0.0699022,
2,1,0,1,0,47694.8,0.0717128,0.0713985,0.0324935,25,-0.00119824,10,2.31998e-06,-4.4882,0.0621234,0.949723,1.20216,0.0713985,
2,1,0,1,0,47696.3,0.073211,0.0729148,0.0340493,25,-0.00113271,10,2.4827e-06,-4.46789,0.0836368,0.705431,0.951824,0.0729148,
2,1,0,1,0,47697.8,0.0747092,0.0743665,0.0352948,25,-0.00106492,10,2.62475e-06,-4.45229,0.0732236,0.805752,1.13618,0.0743665,
2,1,0,1,0,47699.3,0.0762074,0.0758702,0.0365997,25,-0.000995187,10,2.77683e-06,-4.43652,0.0799592,0.737876,1.08364,0.0758702,
2,1,0,1,0,47700.8,0.0777055,0.0773961,0.0393406,25,-0.000922318,10,3.04481e-06,-4.40516,0.080348,0.734305,1.11393,0.07739611,
2,1,0,1,0,47702.3,0.0792037,0.0788774,0.0412939,25,-0.000846951,10,3.25716e-06,-4.38411,0.0875239,0.674101,1.07697,0.0788774,
2,1,0,1,0,47703.8,0.0807019,0.0803334,0.0425702,25,-0.000769347,10,3.41981e-06,-4.37089,0.0939044,0.628298,1.02557,0.0803334,
2,1,0,1,0,47705.3,0.0822001,0.0818795,0.0432701,25,-0.00068947,10,3.54293e-06,-4.36381,0.0872227,0.676429,1.15047,0.0818795,
2,1,0,1,0,47706.8,0.0836983,0.0833863,0.0454232,25,-0.000607684,10,3.78767e-06,-4.34272,0.107573,0.548465,0.970838,0.0833863,
2,1,0,1,0,47708.3,0.0851965,0.0848794,0.0465688,25,-0.000523014,10,3.95273e-06,-4.33191,0.10248,0.575724,1.05204,0.0848794,
2,1,0,1,0,47709.8,0.0866947,0.086381,0.0484597,25,-0.000436067,10,4.18599e-06,-4.31462,0.124584,0.473576,0.893822,0.086381,
2,1,0,1,0,47711.3,0.0881929,0.0878783,0.0503262,25,-0.000346606,10,4.42258e-06,-4.29821,0.094895,0.62174,1.21786,0.0878783,
2,1,0,1,0,47712.8,0.0896911,0.089383,0.0520865,25,-0.000255246,10,4.65564e-06,-4.28327,0.0896842,0.657864,1.34195,0.089383,
2,1,0,1,0,47714.3,0.0911893,0.0908718,0.0538519,25,-0.000160503,10,4.89362e-06,-4.2688,0.0802511,0.735192,1.5458,0.0908718,
2,1,0,1,0,47715.8,0.0926875,0.0923341,0.0567944,25,-6.18531e-05,10,5.24406e-06,-4.24569,0.0838517,0.703623,1.53598,0.0923341,
2,1,0,1,0,47717.3,0.0941857,0.0938727,0.0582249,25,3.9693e-05,10,5.46573e-06,-4.23489,0.104885,0.562522,1.27753,0.0938727,
2,1,0,1,0,47718.8,0.0956839,0.0953457,0.0597124,25,0.000143526,10,5.69332e-06,-4.22394,0.102301,0.576727,1.35617,0.0953457,
2,1,0,1,0,47720.3,0.0971821,0.0968621,0.0624365,25,0.000250964,10,6.04772e-06,-4.20456,0.0877647,0.672252,1.62211,0.0968621,
2,1,0,1,0,47721.8,0.0986803,0.0983296,0.0638352,25,0.000361201,10,6.27689e-06,-4.19494,0.11263,0.52384,1.31819,0.0983296,
2,1,0,1,0,47723.3,0.100178,0.0998545,0.0661617,25,0.000474453,10,6.60654e-06,-4.17939,0.112181,0.525935,1.3577,0.0998545,
2,1,0,1,0,47724.8,0.101677,0.101379,0.0671754,25,0.000590465,10,6.8102e-06,-4.17279,0.123964,0.475944,1.2658,0.101379,
2,1,0,1,0,47726.3,0.103175,0.102871,0.0705165,25,0.000709243,10,7.25412e-06,-4.15171,0.103032,0.572639,1.5645,0.102871,
2,1,0,1,0,47727.8,0.104673,0.104369,0.0730262,25,0.000831667,10,7.62165e-06,-4.13652,0.1092,0.540295,1.5199,0.104369,
2,1,0,1,0,47729.3,0.106171,0.105859,0.0746768,25,0.000957722,10,7.90525e-06,-4.12681,0.130136,0.453374,1.30687,0.1058595,
2,1,0,1,0,47730.8,0.107669,0.107325,0.0756385,25,0.00108623,10,8.11791e-06,-4.12126,0.146285,0.403322,1.19713,0.107325,
2,1,0,1,0,47732.3,0.109167,0.108868,0.0778181,25,0.0012173,10,8.47189e-06,-4.10892,0.139753,0.422172,1.29016,0.108868,
2,1,0,1,0,47733.8,0.110666,0.110338,0.0790303,25,0.00135123,10,8.72001e-06,-4.10221,0.133295,0.442628,1.38121,0.110338,
2,1,0,1,0,47735.3,0.112164,0.111838,0.0814887,25,0.00148801,10,9.11354e-06,-4.0889,0.222076,0.265674,0.842244,0.111838,
2,1,0,1,0,47736.8,0.113662,0.113313,0.0830997,25,0.00162765,10,9.41628e-06,-4.0804,0.18205,0.324087,1.05029,0.113313,
2,1,0,1,0,47738.3,0.11516,0.114796,0.084511,25,0.00176841,10,9.70148e-06,-4.07309,0.234449,0.251653,0.829497,0.114796,
2,1,0,1,0,47739.8,0.116658,0.116371,0.0864095,25,0.00191201,10,1.00556e-05,-4.06344,0.153196,0.385128,1.28973,0.1163713,
2,1,0,1,0,47741.3,0.118157,0.117816,0.0879889,25,0.00205845,10,1.03665e-05,-4.05557,0.168737,0.349658,1.19494,0.117816,
2,1,0,1,0,47742.8,0.119655,0.119317,0.0894539,25,0.0022072,10,1.06734e-05,-4.0484,0.24341,0.242389,0.848175,0.119317,
2,1,0,1,0,47744.3,0.121153,0.120839,0.0904986,25,0.00235771,10,1.09357e-05,-4.04336,0.196989,0.299509,1.06466,0.120839,
2,1,0,1,0,47745.8,0.122651,0.12236,0.0922322,25,0.00251101,10,1.12855e-05,-4.03512,0.184885,0.319118,1.14894,0.12236,
2,1,0,1,0,47747.3,0.124149,0.123814,0.093712,25,0.00266681,10,1.16029e-05,-4.0282,0.278591,0.21178,0.776235,0.123814,
2,1,0,1,0,47748.8,0.125648,0.125312,0.0946681,25,0.0028241,10,1.1863e-05,-4.0238,0.362599,0.162714,0.601661,0.125312,
2,1,0,1,0,47750.3,0.127146,0.126826,0.0949801,25,0.00298291,10,1.20459e-05,-4.02237,0.660846,0.0892795,0.331308,0.126826,
2,1,0,1,0,47751.8,0.128644,0.128315,0.0958147,25,0.00314254,10,1.22944e-05,-4.01857,1.80464,0.0326935,0.122708,0.128315,
2,1,0,1,0,47753.3,0.130142,0.129816,0.0966943,25,0.00330261,10,1.25525e-05,-4.0146,-3.08143,-0.019147,-0.0717779,0.129816,
2,1,0,1,0,47754.8,0.13164,0.131295,0.0958021,25,0.00346272,10,1.25784e-05,-4.01863,-0.392646,-0.150263,-0.559578,0.131295,
2,1,0,1,0,47756.3,0.133139,0.1328,0.0947023,25,0.00362184,10,1.25765e-05,-4.02364,-0.296072,-0.199276,-0.736998,0.1328,
2,1,0,1,0,47757.8,0.134637,0.13431,0.0934316,25,0.00377856,10,1.25488e-05,-4.02951,-0.17613,-0.334979,-1.22707,0.13431,
2,1,0,1,0,47759.3,0.136135,0.135808,0.0914238,25,0.00393334,10,1.2416e-05,-4.03894,-0.149367,-0.394999,-1.40852,0.135808,
2,1,0,1,0,47760.8,0.137633,0.137297,0.0890103,25,0.00408454,10,1.22209e-05,-4.05056,-0.105559,-0.558927,-1.93686,0.137297,
2,1,0,1,0,47762.3,0.139131,0.138765,0.0869155,25,0.00423178,10,1.20608e-05,-4.0609,-0.0958381,-0.615622,-2.05863,0.138765,
2,1,0,1,0,47763.8,0.14063,0.140291,0.0835055,25,0.00437367,10,1.17151e-05,-4.07828,-0.0843006,-0.699876,-2.25794,0.140291,
2,1,0,1,0,47765.3,0.142128,0.141793,0.0790737,25,0.00451065,10,1.12121e-05,-4.10197,-0.077873,-0.757644,-2.33238,0.141793,
2,1,0,1,0,47766.8,0.143626,0.143284,0.0752789,25,0.00464222,10,1.07863e-05,-4.12333,-0.0693154,-0.851181,-2.51223,0.1432844,
2,1,0,1,0,47768.3,0.145124,0.144812,0.0719447,25,0.00476779,10,1.04185e-05,-4.143,-0.0669323,-0.881488,-2.49102,0.144812,
2,1,0,1,0,47769.8,0.146622,0.146277,0.0684316,25,0.00488762,10,1.001e-05,-4.16474,-0.0706007,-0.835686,-2.23651,0.146277,
2,1,0,1,0,47771.3,0.14812,0.147805,0.0655601,25,0.00500269,10,9.69011e-06,-4.18336,-0.0848068,-0.695699,-1.77626,0.147805,
2,1,0,1,0,47772.8,0.149619,0.14927,0.0627671,25,0.00511323,10,9.36928e-06,-4.20227,-0.0838723,-0.70345,-1.72707,0.14927,
2,1,0,1,0,47774.3,0.151117,0.150761,0.0604038,25,0.00522014,10,9.10657e-06,-4.21894,-0.0959583,-0.61485,-1.45414,0.150761,
2,1,0,1,0,47775.8,0.152615,0.152314,0.0578203,25,0.00532331,10,8.80683e-06,-4.23792,-0.107163,-0.550562,-1.26304,0.152314,
2,1,0,1,0,47777.2,0.154113,0.153795,0.0570924,25,0.00542377,10,8.78054e-06,-4.24342,-0.154128,-0.3828,-0.843412,0.153795,
2,1,0,1,0,47778.7,0.155611,0.15528,0.0556902,25,0.00552236,10,8.64757e-06,-4.25422,-0.153223,-0.385059,-0.838491,0.15528,
2,1,0,1,0,47780.2,0.15711,0.156826,0.0544175,25,0.00561926,10,8.53408e-06,-4.26426,-0.164847,-0.357908,-0.757033,0.156826,
2,1,0,1,0,47781.7,0.158608,0.158272,0.053903,25,0.00571481,10,8.53135e-06,-4.26839,-0.22089,-0.267101,-0.560486,0.158272,
2,1,0,1,0,47783.2,0.160106,0.159751,0.0525829,25,0.00580857,10,8.40014e-06,-4.27916,-0.397876,-0.148287,-0.308698,0.159751,
2,1,0,1,0,47784.7,0.161604,0.161312,0.0523004,25,0.00590173,10,8.43671e-06,-4.28149,-0.423695,-0.139251,-0.285387,0.161312,
2,1,0,1,0,47786.2,0.163102,0.162773,0.0518809,25,0.00599422,10,8.44479e-06,-4.28499,-0.48043,-0.122807,-0.250153,0.162773,
2,1,0,1,0,47787.7,0.164601,0.164256,0.0516968,25,0.00608604,10,8.49151e-06,-4.28654,-1.16927,-0.0504589,-0.101541,0.164256,
2,1,0,1,0,47789.2,0.166099,0.165776,0.0515021,25,0.00617734,10,8.53779e-06,-4.28818,-4.72995,-0.0124737,-0.0251404,0.165776,
2,1,0,1,0,47790.7,0.167597,0.167252,0.051576,25,0.00626849,10,8.62618e-06,-4.28755,2.95446,0.0199698,0.0400389,0.1672518,
2,1,0,1,0,47792.2,0.169095,0.168766,0.0518189,25,0.00636019,10,8.74527e-06,-4.28551,0.723251,0.0815761,0.164343,0.168766,
2,1,0,1,0,47793.7,0.170593,0.170291,0.0518125,25,0.00645158,10,8.8232e-06,-4.28557,-0.652446,-0.0904289,-0.183597,0.1702909,
2,1,0,1,0,47795.2,0.172091,0.171778,0.0515753,25,0.0065427,10,8.85947e-06,-4.28756,-2.11132,-0.0279446,-0.0560547,0.171778,
2,1,0,1,0,47796.7,0.17359,0.173282,0.0510951,25,0.00663382,10,8.85387e-06,-4.29162,-2.37169,-0.0248768,-0.04981,0.173282,
2,1,0,1,0,47798.2,0.175088,0.174745,0.0510839,25,0.00672439,10,8.92664e-06,-4.29172,-1.84646,-0.031953,-0.064188,0.174745,
2,1,0,1,0,47799.7,0.176586,0.176282,0.051321,25,0.00681482,10,9.04697e-06,-4.28971,-3.12253,-0.0188949,-0.0376349,0.176282,
2,1,0,1,0,47801.2,0.178084,0.177739,0.0512899,25,0.00690554,10,9.11623e-06,-4.28997,1.03055,0.0572508,0.114514,0.177739,
2,1,0,1,0,47802.7,0.179582,0.179217,0.0515787,25,0.00699652,10,9.24381e-06,-4.28753,-2.24244,-0.0263106,-0.0529537,0.179217,
2,1,0,1,0,47804.2,0.181081,0.180755,0.051298,25,0.00708758,10,9.27236e-06,-4.2899,-8.46964,-0.00696605,-0.0141219,0.180755,
2,1,0,1,0,47805.7,0.182579,0.182263,0.051942,25,0.00717883,10,9.46709e-06,-4.28448,4.43463,0.0133044,0.0268178,0.182263,
2,1,0,1,0,47807.2,0.184077,0.183744,0.0520283,25,0.00727046,10,9.55991e-06,-4.28376,-2.79366,-0.0211192,-0.0429234,0.183744,
2,1,0,1,0,47808.7,0.185575,0.185261,0.0520933,25,0.00736178,10,9.65085e-06,-4.28322,-6.08529,-0.00969551,-0.0197475,0.185261,
2,1,0,1,0,47810.2,0.187073,0.186728,0.0519813,25,0.00745335,10,9.70638e-06,-4.28415,1.14638,0.0514663,0.104227,0.186728,
2,1,0,1,0,47811.7,0.188572,0.188245,0.0518975,25,0.00754522,10,9.76943e-06,-4.28485,1.8397,0.0320704,0.0650067,0.188245,
2,1,0,1,0,47813.2,0.19007,0.189752,0.0522921,25,0.00763694,10,9.92251e-06,-4.28156,-4.21027,-0.0140134,-0.0286631,0.189752,
2,1,0,1,0,47814.7,0.191568,0.191195,0.052302,25,0.00772856,10,9.99987e-06,-4.28148,1.92981,0.0305729,0.0624705,0.191195,
2,1,0,1,0,47816.2,0.193066,0.192761,0.0523737,25,0.00782065,10,1.00956e-05,-4.28089,0.936464,0.0630029,0.128669,0.192761,
2,1,0,1,0,47817.7,0.194564,0.19424,0.0526159,25,0.00791311,10,1.02201e-05,-4.27888,1.25677,0.0469458,0.0967745,0.19424,
2,1,0,1,0,47819.2,0.196063,0.195767,0.0527757,25,0.00800547,10,1.03317e-05,-4.27757,5.87619,0.0100405,0.0207361,0.195767,
2,1,0,1,0,47820.7,0.197561,0.197234,0.0527883,25,0.00809808,10,1.04116e-05,-4.27746,0.636271,0.0927278,0.192162,0.197234,
2,1,0,1,0,47822.2,0.199059,0.198738,0.0532105,25,0.00819087,10,1.0575e-05,-4.274,0.537906,0.109685,0.227192,0.198738,
2,1,0,1,0,47823.7,0.200557,0.200254,0.0536199,25,0.00828414,10,1.07376e-05,-4.27067,1.34445,0.0438843,0.0912342,0.200254,
2,1,0,1,0,47825.2,0.202055,0.201754,0.0535576,25,0.00837757,10,1.08055e-05,-4.27118,0.586741,0.100555,0.209828,0.201754,
2,1,0,1,0,47826.7,0.203554,0.203274,0.0539101,25,0.00847141,10,1.09585e-05,-4.26833,2.49496,0.0236477,0.0493541,0.203274,
2,1,0,1,0,47828.2,0.205052,0.204699,0.0531268,25,0.00856526,10,1.0875e-05,-4.27469,1.0168,0.0580249,0.123083,0.204699,
2,1,0,1,0,47829.7,0.20655,0.206219,0.0535341,25,0.00865886,10,1.10397e-05,-4.27137,1.79633,0.0328447,0.0691823,0.206219,
2,1,0,1,0,47831.2,0.208048,0.20774,0.0542319,25,0.00875342,10,1.12661e-05,-4.26575,4.49704,0.0131198,0.0274939,0.2077402,
2,1,0,1,0,47832.7,0.209546,0.209249,0.0541872,25,0.00884795,10,1.13386e-05,-4.2661,-4.27495,-0.0138013,-0.0291947,0.209249,
2,1,0,1,0,47834.2,0.211044,0.210746,0.0540091,25,0.00894208,10,1.13822e-05,-4.26753,1.9288,0.030589,0.0648463,0.210746,
2,1,0,1,0,47835.7,0.212543,0.212193,0.0545689,25,0.00903679,10,1.15791e-05,-4.26305,0.439869,0.134131,0.285072,0.212193,
2,1,0,1,0,47837.2,0.214041,0.213716,0.0546651,25,0.00913207,10,1.16828e-05,-4.26229,6.01512,0.00980862,0.0208204,0.213716,
2,1,0,1,0,47838.7,0.215539,0.215208,0.054545,25,0.00922766,10,1.17385e-05,-4.26325,1.92689,0.0306193,0.0656061,0.215208,
2,1,0,1,0,47840.2,0.217037,0.216747,0.0549106,25,0.00932286,10,1.19017e-05,-4.26034,2.37005,0.024894,0.0537398,0.216747,
2,1,0,1,0,47841.7,0.218535,0.218214,0.0551291,25,0.00941855,10,1.20299e-05,-4.25862,0.41118,0.143489,0.309327,0.218214,
2,1,0,1,0,47843.2,0.220034,0.219704,0.0557901,25,0.00951479,10,1.22573e-05,-4.25344,0.591178,0.0998007,0.216253,0.219704,
2,1,0,1,0,47844.7,0.221532,0.221237,0.0557195,25,0.00961142,10,1.23272e-05,-4.25399,0.514991,0.114565,0.250333,0.221237,
2,1,0,1,0,47846.2,0.22303,0.22274,0.0559596,25,0.00970829,10,1.24644e-05,-4.25213,1.05098,0.0561382,0.123093,0.2227397,
2,1,0,1,0,47847.7,0.224528,0.224192,0.0562158,25,0.00980567,10,1.26031e-05,-4.25014,1.42402,0.0414319,0.0907866,0.2241925,
2,1,0,1,0,47849.2,0.226026,0.225737,0.056274,25,0.00990323,10,1.27032e-05,-4.24969,-3.13002,-0.0188497,-0.0416736,0.225737,
2,1,0,1,0,47850.7,0.227525,0.227209,0.0566277,25,0.0100008,10,1.28663e-05,-4.24697,-4.10117,-0.0143861,-0.0318407,0.227209,
2,1,0,1,0,47852.2,0.229023,0.22869,0.0568778,25,0.0100986,10,1.30074e-05,-4.24506,1.59652,0.0369554,0.0823296,0.2286896,
2,1,0,1,0,47853.7,0.230521,0.230212,0.056825,25,0.0101969,10,1.30818e-05,-4.24546,0.577574,0.102151,0.227522,0.230212,
2,1,0,1,0,47855.2,0.232019,0.23167,0.0575697,25,0.0102956,10,1.33372e-05,-4.23981,1.02768,0.0574108,0.129563,0.23167,
2,1,0,1,0,47856.7,0.233517,0.233185,0.0577122,25,0.0103949,10,1.34576e-05,-4.23873,4.94583,0.0119292,0.0265897,0.233185,
2,1,0,1,0,47858.2,0.235016,0.234671,0.0578822,25,0.0104943,10,1.35833e-05,-4.23745,-1.64833,-0.0357939,-0.0803876,0.234671,
2,1,0,1,0,47859.6,0.236514,0.236221,0.0577787,25,0.0105931,10,1.36485e-05,-4.23823,0.601153,0.0981447,0.221514,0.236221,
2,1,0,1,0,47861.1,0.238012,0.237673,0.0579859,25,0.0106924,10,1.37817e-05,-4.23668,0.470994,0.125267,0.282074,0.237673,
2,1,0,1,0,47862.6,0.23951,0.23919,0.0583043,25,0.0107921,10,1.39458e-05,-4.2343,1.04205,0.0566189,0.127721,0.2391897,
2,1,0,1,0,47864.1,0.241008,0.240701,0.0582786,25,0.0108922,10,1.40277e-05,-4.23449,1.8397,0.0320705,0.0727684,0.240701,
2,1,0,1,0,47865.6,0.242506,0.242193,0.0586151,25,0.0109921,10,1.41962e-05,-4.23199,0.627657,0.0940004,0.215604,0.242193,
2,1,0,1,0,47867.1,0.244005,0.243703,0.0585247,25,0.0110926,10,1.42626e-05,-4.23266,0.491875,0.119949,0.274886,0.2437028,
2,1,0,1,0,47868.6,0.245503,0.245206,0.0591107,25,0.0111938,10,1.44943e-05,-4.22833,0.60253,0.0979204,0.226118,0.245206,
2,1,0,1,0,47870.1,0.247001,0.246706,0.0593877,25,0.0112952,10,1.46513e-05,-4.2263,0.823445,0.0716502,0.16609,0.2467059,
2,1,0,1,0,47871.6,0.248499,0.248171,0.0593453,25,0.0113968,10,1.47278e-05,-4.22661,2.09857,0.0281144,0.0652395,0.248171,
2,1,0,1,0,47873.1,0.249997,0.249657,0.0599118,25,0.0114987,10,1.49574e-05,-4.22249,1.8997,0.0310576,0.0719216,0.249657,
2,1,0,1,0,47874.6,0.251496,0.251183,0.0595684,25,0.0116008,10,1.49626e-05,-4.22498,2.18206,0.0270386,0.0631833,0.251183,
2,1,0,1,0,47876.1,0.252994,0.25271,0.0598477,25,0.0117029,10,1.51241e-05,-4.22295,1.21737,0.0484651,0.113303,0.25271,
2,1,0,1,0,47877.6,0.254492,0.254209,0.0600744,25,0.0118056,10,1.52715e-05,-4.22131,0.72577,0.081293,0.192108,0.254209,
2,1,0,1,0,47879.1,0.25599,0.255693,0.0606266,25,0.0119084,10,1.55018e-05,-4.21734,0.801315,0.0736289,0.175238,0.2556929,
2,1,0,1,0,47880.6,0.257488,0.257152,0.06087,25,0.0120119,10,1.56528e-05,-4.2156,0.928407,0.0635497,0.151202,0.257152,
2,1,0,1,0,47882.1,0.258987,0.258664,0.0606446,25,0.0121157,10,1.56866e-05,-4.21721,0.885704,0.0666137,0.158682,0.258664,
2,1,0,1,0,47883.6,0.260485,0.260167,0.0615314,25,0.0122198,10,1.60084e-05,-4.2109,2.12904,0.027712,0.0662708,0.260167,
2,1,0,1,0,47885.1,0.261983,0.26171,0.0612639,25,0.0123239,10,1.60334e-05,-4.2128,1.16202,0.0507739,0.121819,0.26171,
2,1,0,1,0,47886.6,0.263481,0.263164,0.0616467,25,0.0124283,10,1.62232e-05,-4.21009,0.739988,0.079731,0.191611,0.263164,
2,1,0,1,0,47888.1,0.264979,0.264673,0.0616061,25,0.0125331,10,1.63055e-05,-4.21038,2.13141,0.0276813,0.0664642,0.264673,
2,1,0,1,0,47889.6,0.266477,0.266169,0.0614099,25,0.0126378,10,1.63454e-05,-4.21176,-3.83436,-0.0153872,-0.0370767,0.266169,
2,1,0,1,0,47891.1,0.267976,0.267632,0.0613186,25,0.0127421,10,1.64108e-05,-4.21241,0.848002,0.0695753,0.167489,0.267632,
2,1,0,1,0,47892.6,0.269474,0.269188,0.0616257,25,0.0128467,10,1.65889e-05,-4.21024,0.83079,0.0710168,0.171423,0.2691876,
2,1,0,1,0,47894.1,0.270972,0.270699,0.0623418,25,0.0129517,10,1.68758e-05,-4.20522,6.81643,0.00865556,0.0209117,0.270699,
2,1,0,1,0,47895.6,0.27247,0.272169,0.061935,25,0.0130569,10,1.68568e-05,-4.20806,0.953232,0.0618947,0.14995,0.272169,
2,1,0,1,0,47897.1,0.273968,0.273674,0.0620375,25,0.0131622,10,1.69781e-05,-4.20735,0.752596,0.0783953,0.191525,0.2736741,
2,1,0,1,0,47898.6,0.275467,0.275146,0.0631787,25,0.0132681,10,1.73834e-05,-4.19943,1.01644,0.0580458,0.141675,0.275146,
2,1,0,1,0,47900.1,0.276965,0.276675,0.0629191,25,0.0133744,10,1.74081e-05,-4.20122,1.76028,0.0335173,0.0825316,0.276675,
2,1,0,1,0,47901.6,0.278463,0.278145,0.0631658,25,0.0134808,10,1.75692e-05,-4.19952,2.65242,0.0222438,0.0549627,0.278145,
2,1,0,1,0,47903.1,0.279961,0.279692,0.0631745,25,0.0135875,10,1.76694e-05,-4.19946,1.03473,0.0570199,0.140843,0.279692,
2,1,0,1,0,47904.6,0.281459,0.281106,0.0634454,25,0.0136944,10,1.78348e-05,-4.1976,0.850693,0.0693552,0.172204,0.281106,
2,1,0,1,0,47906.1,0.282958,0.282625,0.0639636,25,0.0138018,10,1.80777e-05,-4.19407,1.50367,0.0392373,0.097424,0.282625,
2,1,0,1,0,47907.6,0.284456,0.284113,0.0641011,25,0.0139094,10,1.8212e-05,-4.19313,2.60121,0.0226818,0.0564052,0.284113,
2,1,0,1,0,47909.1,0.285954,0.285636,0.0640527,25,0.014017,10,1.82957e-05,-4.19346,1.68052,0.0351082,0.0875627,0.285636,
2,1,0,1,0,47910.6,0.287452,0.287109,0.0640674,25,0.0141246,10,1.83943e-05,-4.19336,1.34549,0.0438502,0.109668,0.287109,
2,1,0,1,0,47912.1,0.28895,0.288626,0.0643855,25,0.0142326,10,1.85833e-05,-4.19121,0.494062,0.119418,0.299392,0.288626,
2,1,0,1,0,47913.6,0.290448,0.290145,0.06451,25,0.014341,10,1.87173e-05,-4.19037,0.783987,0.0752564,0.18976,0.290145,
2,1,0,1,0,47915.1,0.291947,0.291659,0.0649124,25,0.0144497,10,1.89323e-05,-4.18767,0.793559,0.0743486,0.188376,0.291659,
2,1,0,1,0,47916.6,0.293445,0.293103,0.0647759,25,0.0145586,10,1.8986e-05,-4.18859,2.60954,0.0226093,0.0572868,0.293103,
2,1,0,1,0,47918.1,0.294943,0.294609,0.0648825,25,0.0146679,10,1.91149e-05,-4.18787,1.83834,0.0320941,0.0813298,0.294609,
2,1,0,1,0,47919.6,0.296441,0.296143,0.0653273,25,0.014777,10,1.93462e-05,-4.18491,-3.04766,-0.0193591,-0.0494574,0.296143,
2,1,0,1,0,47921.1,0.297939,0.297695,0.065391,25,0.0148863,10,1.94666e-05,-4.18448,0.653105,0.0903377,0.230415,0.297695,
2,1,0,1,0,47922.6,0.299438,0.299127,0.0654776,25,0.0149961,10,1.95861e-05,-4.18391,-0.00441773,-13.3553,-21.888,0.2991271,
2,1,0,1,0,47923.4,0.299737,0.299447,0.0333107,25,0.0150461,10,9.97481e-06,-4.47742,0.00211908,27.8423,39.7508,0.299447,
2,1,0,1,0,47924.9,0.298239,0.297955,0.0197953,25,0.0150712,10,5.89812e-06,-4.70344,0.00538802,10.9502,14.3509,0.297955,
2,1,0,1,0,47926.4,0.296741,0.296443,0.0149107,25,0.0150854,10,4.42017e-06,-4.8265,0.012216,4.82975,2.92692,0.296443,
2,1,0,1,0,47927.9,0.295243,0.294968,0.0114703,25,0.0150934,10,3.38337e-06,-4.94043,0.014574,4.0483,1.91572,0.294968,
2,1,0,1,0,47929.4,0.293745,0.293385,0.00929285,25,0.0150972,10,2.72638e-06,-5.03185,0.0138802,4.25066,1.51853,0.293385,
2,1,0,1,0,47930.9,0.292246,0.291948,0.00673379,25,0.0150978,10,1.96592e-06,-5.17174,0.0119502,4.93714,1.314,0.291948,
2,1,0,1,0,47932.4,0.290748,0.290477,0.0049595,25,0.0150949,10,1.44062e-06,-5.30456,0.00861293,6.85017,1.28158,0.290477,
2,0,0,1,0,47933.9,0.28925,0.288972,0.00350543,25,0.0150895,10,1.01297e-06,-5.45526,0.00714793,8.25414,1.01128,0.288972,
2,1,0,1,0,47935.4,0.287752,0.287461,0.00172503,25,0.0150817,10,4.9588e-07,-5.7632,0.00275421,21.4218,0.916247,0.287461,
2,1,0,1,0,47936.9,0.286254,0.285931,0.000417816,25,0.0150717,10,1.19467e-07,-6.37902,0.0153072,3.8544,0.943669,0.285931,
2,0,0,1,0,47938.4,0.284755,0.284448,-0.000921287,25,0.0150596,10,-2.62058e-07,-6.0356,-0.0103909,-5.67803,0.72696,0.284448,
2,0,0,1,0,47939.9,0.283257,0.282978,-0.00188585,25,0.0150457,10,-5.33654e-07,-5.72449,-0.00375254,-15.7227,0.84187,0.282978,
2,1,0,1,0,47941.4,0.281759,0.281448,-0.0032115,25,0.01503,10,-9.03871e-07,-5.49329,-0.00904855,-6.52038,0.743262,0.281448,
2,1,0,1,0,47942.9,0.280261,0.279954,-0.0040417,25,0.0150127,10,-1.13149e-06,-5.39344,-0.0134043,-4.40156,0.719368,0.279954,
2,0,0,1,0,47944.4,0.278763,0.278486,-0.00556439,25,0.0149937,10,-1.54961e-06,-5.25458,-0.0164751,-3.58116,0.722491,0.278486,
2,0,0,1,0,47945.9,0.277264,0.27693,-0.00621925,25,0.014973,10,-1.7223e-06,-5.20626,-0.0226244,-2.60781,0.654436,0.27693,
2,0,0,1,0,47947.4,0.275766,0.275444,-0.00751533,25,0.0149508,10,-2.07005e-06,-5.12405,-0.0354778,-1.66301,0.477673,0.275444,
2,0,0,1,0,47948.9,0.274268,0.273955,-0.00853173,25,0.0149269,10,-2.33731e-06,-5.06896,-0.0256796,-2.29755,0.752353,0.273955,
2,0,0,1,0,47950.4,0.27277,0.272448,-0.00869442,25,0.014902,10,-2.36878e-06,-5.06076,-0.0294639,-2.00245,0.738802,0.272448,
2,0,0,1,0,47951.9,0.271272,0.270974,-0.0102637,25,0.0148755,10,-2.78119e-06,-4.9887,-0.0414363,-1.42387,0.558192,0.270974,
2,0,0,1,0,47953.4,0.269774,0.269457,-0.0109881,25,0.0148477,10,-2.96082e-06,-4.95908,-0.0535743,-1.10127,0.46749,0.269457,
2,0,0,1,0,47954.9,0.268275,0.267994,-0.0117194,25,0.0148188,10,-3.14073e-06,-4.93109,-0.0447644,-1.31801,0.597548,0.2679936,
2,0,0,1,0,47956.4,0.266777,0.26647,-0.0125077,25,0.014789,10,-3.33292e-06,-4.90282,-0.0533059,-1.10682,0.530453,0.26647,
2,0,0,1,0,47957.9,0.265279,0.264921,-0.0133875,25,0.0147576,10,-3.54662e-06,-4.8733,-0.0512877,-1.15037,0.592141,0.2649205,
2,0,0,1,0,47959.4,0.263781,0.263477,-0.0141012,25,0.0147251,10,-3.71534e-06,-4.85074,-0.0726802,-0.811775,0.446343,0.263477,
2,0,0,1,0,47960.9,0.262283,0.261987,-0.0147954,25,0.0146913,10,-3.8762e-06,-4.82987,-0.0672135,-0.8778,0.510474,0.261987,
2,0,0,1,0,47962.4,0.260784,0.260524,-0.0156821,25,0.0146563,10,-4.08557e-06,-4.80459,-0.0794486,-0.742618,0.452736,0.260524,
2,1,0,1,0,47963.9,0.259286,0.258979,-0.0159242,25,0.0146202,10,-4.12403e-06,-4.79794,-0.0717359,-0.822461,0.520366,0.258979,
2,0,0,1,0,47965.4,0.257788,0.257457,-0.0173978,25,0.014583,10,-4.47919e-06,-4.75951,-0.092129,-0.640407,0.419863,0.257457,
2,0,0,1,0,47966.9,0.25629,0.255996,-0.0176294,25,0.0145447,10,-4.51306e-06,-4.75376,-0.118516,-0.497824,0.343992,0.255996,
2,0,0,1,0,47968.4,0.254792,0.254506,-0.0180024,25,0.0145058,10,-4.58171e-06,-4.74467,-0.0862775,-0.68384,0.491542,0.2545062,
2,0,0,1,0,47969.9,0.253293,0.253012,-0.0194021,25,0.0144659,10,-4.90897e-06,-4.71215,-0.0831769,-0.709331,0.524446,0.253012,
2,0,0,1,0,47971.4,0.251795,0.251463,-0.0193613,25,0.0144247,10,-4.86864e-06,-4.71307,-0.0905008,-0.651928,0.501118,0.251463,
2,0,0,1,0,47972.9,0.250297,0.250001,-0.0203646,25,0.0143823,10,-5.09115e-06,-4.69113,-0.0996611,-0.592006,0.469628,0.250001,
2,0,0,1,0,47974.4,0.248799,0.248477,-0.0210443,25,0.014339,10,-5.22901e-06,-4.67687,-0.106588,-0.553531,0.455748,0.248477,
2,0,0,1,0,47975.9,0.247301,0.246979,-0.0217881,25,0.0142947,10,-5.38121e-06,-4.66178,-0.090467,-0.652172,0.555525,0.246979,
2,0,0,1,0,47977.4,0.245802,0.245468,-0.0227833,25,0.0142493,10,-5.59258e-06,-4.64238,-0.133667,-0.441396,0.384749,0.245468,
2,0,0,1,0,47978.9,0.244304,0.243998,-0.0229322,25,0.0142027,10,-5.59541e-06,-4.63955,-0.149416,-0.39487,0.350658,0.2439976,
2,0,0,1,0,47980.4,0.242806,0.24245,-0.023546,25,0.0141555,10,-5.70871e-06,-4.62808,-0.149626,-0.394317,0.360383,0.24245,
2,0,0,1,0,47981.9,0.241308,0.240998,-0.0239486,25,0.0141079,10,-5.77155e-06,-4.62072,-0.129994,-0.453865,0.426125,0.240998,
2,0,0,1,0,47983.3,0.23981,0.239474,-0.0243371,25,0.0140592,10,-5.82811e-06,-4.61373,-0.147918,-0.398868,0.378308,0.239474,
2,0,0,1,0,47984.8,0.238312,0.238031,-0.0251943,25,0.0140093,10,-5.99702e-06,-4.5987,-0.10935,-0.53955,0.529491,0.238031,
2,0,0,1,0,47986.3,0.236813,0.236513,-0.0256238,25,0.0139587,10,-6.06038e-06,-4.59136,-0.1618,-0.364647,0.36822,0.236513,
2,0,0,1,0,47987.8,0.235315,0.234993,-0.0264096,25,0.0139072,10,-6.20605e-06,-4.57824,-0.158914,-0.37127,0.380898,0.234993,
2,0,0,1,0,47989.3,0.233817,0.233539,-0.0267623,25,0.0138548,10,-6.25003e-06,-4.57248,-0.130217,-0.45309,0.475019,0.233539,
2,0,0,1,0,47990.8,0.232319,0.232014,-0.0274158,25,0.0138015,10,-6.36085e-06,-4.562,-0.178842,-0.329901,0.35337,0.232014,
2,0,0,1,0,47992.3,0.230821,0.230514,-0.0281097,25,0.013747,10,-6.47966e-06,-4.55114,-0.185452,-0.318142,0.345787,0.230514,
2,0,0,1,0,47993.8,0.229322,0.229006,-0.0281799,25,0.0136918,10,-6.45335e-06,-4.55006,-0.213086,-0.276883,0.309464,0.229006,
2,0,0,1,0,47995.3,0.227824,0.227501,-0.0294651,25,0.0136359,10,-6.70333e-06,-4.53069,-0.143103,-0.41229,0.471357,0.227501,
2,0,0,1,0,47996.8,0.226326,0.226029,-0.0296905,25,0.013579,10,-6.71091e-06,-4.52738,-0.173193,-0.340661,0.401673,0.226029,
2,0,0,1,0,47998.3,0.224828,0.224519,-0.0305184,25,0.0135211,10,-6.85195e-06,-4.51544,-0.221834,-0.265965,0.313478,0.224519,
2,0,0,1,0,47999.8,0.22333,0.223013,-0.0311674,25,0.0134622,10,-6.95074e-06,-4.5063,-0.23306,-0.253154,0.304851,0.223013,
2,0,0,1,0,48001.3,0.221831,0.221534,-0.0313998,25,0.0134029,10,-6.95611e-06,-4.50307,-0.192956,-0.30577,0.375774,0.221534,
2,0,0,1,0,48002.8,0.220333,0.220069,-0.0320843,25,0.0133428,10,-7.06075e-06,-4.49371,-0.203177,-0.290387,0.362791,0.220069,
2,0,0,1,0,48004.3,0.218835,0.218561,-0.0325187,25,0.0132815,10,-7.10732e-06,-4.48787,-0.14698,-0.401416,0.511092,0.218561,
2,0,0,1,0,48005.8,0.217337,0.217022,-0.0334285,25,0.0132193,10,-7.25471e-06,-4.47588,-0.215429,-0.273872,0.352237,0.217022,
2,0,0,1,0,48007.3,0.215839,0.215519,-0.033686,25,0.0131561,10,-7.25999e-06,-4.47255,-0.22205,-0.265707,0.351641,0.215519,
2,0,0,1,0,48008.8,0.21434,0.214027,-0.034201,25,0.0130918,10,-7.31995e-06,-4.46596,-0.162219,-0.363706,0.484239,0.214027,
2,0,0,1,0,48010.3,0.212842,0.212536,-0.0348496,25,0.0130269,10,-7.4068e-06,-4.4578,-0.343953,-0.171535,0.23497,0.212536,
2,0,0,1,0,48011.8,0.211344,0.211002,-0.0354299,25,0.0129612,10,-7.47579e-06,-4.45063,-0.360667,-0.163586,0.225703,0.211002,
2,0,0,1,0,48013.3,0.209846,0.209549,-0.035352,25,0.012895,10,-7.40799e-06,-4.45159,-0.275044,-0.214511,0.299693,0.209549,
2,0,0,1,0,48014.8,0.208348,0.208042,-0.0365187,25,0.0128277,10,-7.59743e-06,-4.43749,-0.299387,-0.197069,0.277733,0.208042,
2,0,0,1,0,48016.3,0.20685,0.206518,-0.037004,25,0.0127596,10,-7.64198e-06,-4.43175,-0.223511,-0.263969,0.381256,0.206518,
2,0,0,1,0,48017.8,0.205351,0.205009,-0.0375341,25,0.0126906,10,-7.69482e-06,-4.42557,-0.212272,-0.277946,0.403088,0.205009,
2,0,0,1,0,48019.3,0.203853,0.203575,-0.0381721,25,0.012621,10,-7.77088e-06,-4.41825,-0.232559,-0.253699,0.376888,0.203575,
2,0,0,1,0,48020.8,0.202355,0.202053,-0.0385209,25,0.0125505,10,-7.78328e-06,-4.4143,-0.17309,-0.340864,0.517161,0.202053,
2,0,0,1,0,48022.3,0.200857,0.200555,-0.0391305,25,0.0124789,10,-7.84782e-06,-4.40748,-0.243622,-0.242178,0.371645,0.200555,
2,0,0,1,0,48023.8,0.199359,0.199025,-0.0399236,25,0.0124058,10,-7.94577e-06,-4.39877,-0.257152,-0.229437,0.357161,0.199025,
2,0,0,1,0,48025.3,0.19786,0.197523,-0.0407043,25,0.0123325,10,-8.04005e-06,-4.39036,-0.409636,-0.14403,0.227819,0.197523,
2,0,0,1,0,48026.8,0.196362,0.196033,-0.0409442,25,0.0122582,10,-8.02642e-06,-4.38781,-0.239794,-0.246045,0.391465,0.196033,
2,0,0,1,0,48028.3,0.194864,0.194554,-0.0417221,25,0.012183,10,-8.1172e-06,-4.37963,-0.228048,-0.258718,0.420932,0.194554,
2,0,0,1,0,48029.8,0.193366,0.193059,-0.0421975,25,0.0121066,10,-8.14661e-06,-4.37471,-0.168012,-0.351166,0.582417,0.1930588,
2,0,0,1,0,48031.3,0.191868,0.191543,-0.0431673,25,0.012029,10,-8.26842e-06,-4.36484,-0.196589,-0.300118,0.505502,0.191543,
2,0,0,1,0,48032.8,0.190369,0.190046,-0.0437185,25,0.0119503,10,-8.30853e-06,-4.35934,-0.240091,-0.24574,0.421241,0.190046,
2,0,0,1,0,48034.3,0.188871,0.188547,-0.0448648,25,0.0118705,10,-8.45912e-06,-4.34809,-0.189828,-0.310807,0.539361,0.188547,
2,0,0,1,0,48035.8,0.187373,0.187052,-0.0451576,25,0.0117896,10,-8.4468e-06,-4.34527,-0.210181,-0.28071,0.498898,0.187052,
2,0,0,1,0,48037.3,0.185875,0.1856,-0.0456791,25,0.0117078,10,-8.47803e-06,-4.34028,-0.380631,-0.155006,0.276179,0.1856,
2,0,0,1,0,48038.8,0.184377,0.184016,-0.0460805,25,0.0116248,10,-8.47954e-06,-4.33648,-0.352902,-0.167185,0.302956,0.184016,
2,0,0,1,0,48040.3,0.182878,0.18255,-0.0466114,25,0.0115412,10,-8.50893e-06,-4.33151,-0.232535,-0.253725,0.465786,0.18255,
2,0,0,1,0,48041.8,0.18138,0.181043,-0.0479483,25,0.0114562,10,-8.68071e-06,-4.31923,-0.169345,-0.348401,0.647257,0.181043,
2,0,0,1,0,48043.3,0.179882,0.179565,-0.0485312,25,0.01137,10,-8.71451e-06,-4.31398,-0.223104,-0.264451,0.498087,0.179565,
2,0,0,1,0,48044.8,0.178384,0.178053,-0.0494945,25,0.0112827,10,-8.81264e-06,-4.30544,-0.20109,-0.293401,0.568172,0.178053,
2,0,0,1,0,48046.3,0.176886,0.17659,-0.0501887,25,0.0111945,10,-8.86281e-06,-4.29939,-0.224656,-0.262624,0.513862,0.17659,
2,0,0,1,0,48047.8,0.175388,0.175062,-0.0505558,25,0.0111048,10,-8.85038e-06,-4.29623,-0.216892,-0.272024,0.537128,0.1750617,
2,0,0,1,0,48049.3,0.173889,0.173562,-0.0519772,25,0.011014,10,-9.02128e-06,-4.28419,-0.209298,-0.281895,0.569604,0.173562,
2,0,0,1,0,48050.8,0.172391,0.172031,-0.0527963,25,0.0109218,10,-9.0826e-06,-4.2774,-0.18133,-0.325373,0.668958,0.172031,
2,0,0,1,0,48052.3,0.170893,0.170546,-0.0535905,25,0.0108282,10,-9.13967e-06,-4.27091,-0.200615,-0.294095,0.615545,0.170546,
2,0,0,1,0,48053.8,0.169395,0.16914,-0.0548036,25,0.0107327,10,-9.2695e-06,-4.26119,-0.177485,-0.332422,0.708901,0.16914,
2,0,0,1,0,48055.3,0.167897,0.167591,-0.0554069,25,0.0106359,10,-9.2857e-06,-4.25644,-0.225027,-0.262191,0.569599,0.167591,
2,0,0,1,0,48056.8,0.166398,0.166065,-0.0567084,25,0.0105374,10,-9.41728e-06,-4.24635,-0.194011,-0.304107,0.67517,0.166065,
2,0,0,1,0,48058.3,0.1649,0.164581,-0.0576088,25,0.0104374,10,-9.48128e-06,-4.23951,-0.168692,-0.349749,0.786117,0.164581,
2,0,0,1,0,48059.8,0.163402,0.163096,-0.0586642,25,0.0103356,10,-9.5679e-06,-4.23163,-0.171889,-0.343244,0.791091,0.163096,
2,0,0,1,0,48061.3,0.161904,0.161574,-0.0602238,25,0.0102322,10,-9.73061e-06,-4.22023,-0.171195,-0.344637,0.807843,0.1615743,
2,0,0,1,0,48062.8,0.160406,0.16007,-0.061215,25,0.0101267,10,-9.79866e-06,-4.21314,-0.139155,-0.423988,1.01445,0.16007,
2,0,0,1,0,48064.3,0.158907,0.158537,-0.0625864,25,0.010019,10,-9.92227e-06,-4.20352,-0.138628,-0.425599,1.04472,0.158537,
2,0,0,1,0,48065.8,0.157409,0.157095,-0.064445,25,0.00990886,10,-1.0124e-05,-4.19081,-0.128728,-0.458331,1.15391,0.157095,
2,0,0,1,0,48067.2,0.155911,0.155627,-0.0662137,25,0.00979597,10,-1.03046e-05,-4.17905,-0.130164,-0.453274,1.17703,0.155627,
2,0,0,1,0,48068.7,0.154413,0.154102,-0.068145,25,0.00968006,10,-1.05013e-05,-4.16657,-0.154721,-0.381332,1.00839,0.154102,
2,0,0,1,0,48070.2,0.152915,0.152628,-0.0695078,25,0.00956175,10,-1.06088e-05,-4.15797,-0.130256,-0.452955,1.24183,0.152628,
2,0,0,1,0,48071.7,0.151417,0.151059,-0.0718087,25,0.00944078,10,-1.08474e-05,-4.14382,-0.108961,-0.541476,1.52009,0.151059,
2,0,0,1,0,48073.2,0.149918,0.149579,-0.07421,25,0.00931616,10,-1.11003e-05,-4.12954,-0.093975,-0.627827,1.82616,0.149579,
2,0,0,1,0,48074.7,0.14842,0.148075,-0.077163,25,0.00918747,10,-1.14259e-05,-4.11259,-0.10094,-0.584504,1.75163,0.148075,
2,0,0,1,0,48076.2,0.146922,0.146589,-0.0793531,25,0.00905482,10,-1.16323e-05,-4.10044,-0.107998,-0.546308,1.69732,0.146589,
2,0,0,1,0,48077.7,0.145424,0.145102,-0.0821414,25,0.00891851,10,-1.19189e-05,-4.08544,-0.0902235,-0.653931,2.10907,0.1451021,
2,0,0,1,0,48079.2,0.143926,0.143593,-0.0855212,25,0.0087771,10,-1.22803e-05,-4.06793,-0.0787807,-0.748914,2.49559,0.143593,
2,0,0,1,0,48080.7,0.142427,0.142132,-0.089011,25,0.00863021,10,-1.26513e-05,-4.05056,-0.0823154,-0.716756,2.50242,0.142132,
2,0,0,1,0,48082.2,0.140929,0.140613,-0.0929463,25,0.00847781,10,-1.30695e-05,-4.03177,-0.0832685,-0.708551,2.5849,0.140613,
2,0,0,1,0,48083.7,0.139431,0.139122,-0.097421,25,0.00831916,10,-1.35534e-05,-4.01135,-0.0724098,-0.814807,3.099,0.139122,
2,0,0,1,0,48085.2,0.137933,0.137596,-0.101675,25,0.00815372,10,-1.39901e-05,-3.99279,-0.0776344,-0.759972,3.02368,0.137596,
2,0,0,1,0,48086.7,0.136435,0.136117,-0.106658,25,0.00798132,10,-1.4518e-05,-3.97201,-0.0801125,-0.736464,3.06124,0.136117,
2,0,0,1,0,48088.2,0.134936,0.134642,-0.111272,25,0.00780175,10,-1.49819e-05,-3.95361,-0.0880017,-0.670441,2.90176,0.134642,
2,0,0,1,0,48089.7,0.133438,0.133136,-0.115247,25,0.00761561,10,-1.53436e-05,-3.93837,-0.0922725,-0.63941,2.88109,0.133136,
2,0,0,1,0,48091.2,0.13194,0.131624,-0.12004,25,0.00742306,10,-1.58002e-05,-3.92067,-0.0967136,-0.610049,2.85316,0.131624,
2,0,0,1,0,48092.7,0.130442,0.130135,-0.124314,25,0.00722379,10,-1.61777e-05,-3.90548,-0.113752,-0.518674,2.50274,0.130135,
2,0,0,1,0,48094.2,0.128944,0.1286,-0.127549,25,0.00701839,10,-1.64028e-05,-3.89432,-0.142689,-0.413488,2.05631,0.1286,
2,0,0,1,0,48095.7,0.127445,0.127108,-0.131168,25,0.00680846,10,-1.66725e-05,-3.88217,-0.152004,-0.388149,1.97597,0.1271079,
2,0,0,1,0,48097.2,0.125947,0.125627,-0.13375,25,0.00659437,10,-1.68026e-05,-3.87371,-0.181303,-0.325421,1.68496,0.125627,
2,0,0,1,0,48098.7,0.124449,0.124129,-0.135873,25,0.00637639,10,-1.68659e-05,-3.86687,-0.222895,-0.264699,1.39199,0.124129,
2,0,0,1,0,48100.2,0.122951,0.122651,-0.137494,25,0.00615512,10,-1.68638e-05,-3.86172,-0.277593,-0.212541,1.13562,0.122651,
2,0,0,1,0,48101.7,0.121453,0.12113,-0.13923,25,0.0059319,10,-1.6865e-05,-3.85627,-0.486192,-0.121351,0.655713,0.12113,
2,0,0,1,0,48103.2,0.119955,0.119661,-0.139233,25,0.00570748,10,-1.66608e-05,-3.85626,-0.535512,-0.110175,0.601151,0.1196607,
2,0,0,1,0,48104.7,0.118456,0.118132,-0.14,25,0.00548158,10,-1.65384e-05,-3.85387,-0.612349,-0.0963503,0.526129,0.118132,
2,0,0,1,0,48106.2,0.116958,0.116633,-0.140522,25,0.00525448,10,-1.63895e-05,-3.85226,-1.48125,-0.0398314,0.219048,0.116633,
2,0,0,1,0,48107.7,0.11546,0.115138,-0.140974,25,0.00502704,10,-1.62315e-05,-3.85086,-63.3804,-0.000930887,0.00510925,0.115138,
2,0,0,1,0,48109.2,0.113962,0.113632,-0.140044,25,0.00479971,10,-1.59135e-05,-3.85374,10.7528,0.00548693,-0.0301617,0.113632,
2,0,0,1,0,48110.7,0.112464,0.112134,-0.140942,25,0.00457271,10,-1.58043e-05,-3.85096,3.78921,0.0155705,-0.0855299,0.112134,
2,0,0,1,0,48112.2,0.110965,0.110589,-0.141018,25,0.00434527,10,-1.55951e-05,-3.85072,5.29581,0.0111409,-0.0610984,0.110589,
2,0,0,1,0,48113.7,0.109467,0.10917,-0.141099,25,0.00411759,10,-1.54038e-05,-3.85048,1.78604,0.0330339,-0.18106,0.10917,
2,0,0,1,0,48115.2,0.107969,0.107634,-0.140931,25,0.00389015,10,-1.51689e-05,-3.85099,1.63389,0.0361101,-0.1984,0.107634,
2,0,0,1,0,48116.7,0.106471,0.106152,-0.14072,25,0.00366335,10,-1.49377e-05,-3.85164,-44.1808,-0.00133542,0.00733988,0.1061522,
2,0,0,1,0,48118.2,0.104973,0.104625,-0.140118,25,0.00343652,10,-1.46598e-05,-3.85351,2.43693,0.0242108,-0.132735,0.104625,
2,0,0,1,0,48119.7,0.103474,0.103139,-0.140393,25,0.00320956,10,-1.44799e-05,-3.85265,1.04089,0.056682,-0.30969,0.103139,
2,0,0,1,0,48121.2,0.101976,0.101633,-0.140043,25,0.0029832,10,-1.42329e-05,-3.85374,0.861081,0.0685185,-0.373438,0.101633,
2,0,0,1,0,48122.7,0.100478,0.100166,-0.13972,25,0.00275787,10,-1.39952e-05,-3.85474,0.981273,0.060126,-0.327329,0.100166,
2,0,0,1,0,48124.2,0.0989798,0.0987124,-0.138953,25,0.00253326,10,-1.37163e-05,-3.85713,0.78651,0.0750149,-0.405994,0.0987124,
2,0,0,1,0,48125.7,0.0974816,0.0971493,-0.138082,25,0.00230932,10,-1.34146e-05,-3.85986,0.601648,0.098064,-0.529,0.0971493,
2,0,0,1,0,48127.2,0.0959834,0.0956859,-0.137922,25,0.00208638,10,-1.31972e-05,-3.86037,0.680299,0.0867266,-0.466378,0.0956859,
2,0,0,1,0,48128.7,0.0944852,0.0942268,-0.136482,25,0.00186517,10,-1.28603e-05,-3.86492,0.638714,0.0923731,-0.49405,0.0942268,
2,0,0,1,0,48130.2,0.0929871,0.0926416,-0.135601,25,0.0016446,10,-1.25622e-05,-3.86774,1.15361,0.0511437,-0.270973,0.0926416,
2,0,0,1,0,48131.7,0.0914889,0.0911538,-0.135831,25,0.00142498,10,-1.23815e-05,-3.867,0.670468,0.0879982,-0.465462,0.09115383,
2,0,0,1,0,48133.2,0.0899907,0.0896459,-0.134472,25,0.00120667,10,-1.20549e-05,-3.87137,0.520221,0.113413,-0.593097,0.0896459,
2,0,0,1,0,48134.7,0.0884925,0.0881391,-0.133079,25,0.000990037,10,-1.17295e-05,-3.87589,0.45585,0.129429,-0.673716,0.0881391,
2,0,0,1,0,48136.2,0.0869943,0.086645,-0.132311,25,0.000775105,10,-1.14641e-05,-3.87841,0.49348,0.119559,-0.616548,0.086645,
2,0,0,1,0,48137.7,0.0854961,0.0851318,-0.131506,25,0.000561242,10,-1.11954e-05,-3.88105,0.51636,0.114261,-0.586674,0.0851318,
2,0,0,1,0,48139.2,0.083998,0.083677,-0.130299,25,0.000348945,10,-1.09031e-05,-3.88506,0.362664,0.162685,-0.827633,0.083677,
2,0,0,1,0,48140.7,0.0824998,0.082203,-0.129246,25,0.000138074,10,-1.06244e-05,-3.88858,0.731991,0.080602,-0.408809,0.082203,
2,0,0,1,0,48142.2,0.0810016,0.0806749,-0.128743,25,-7.11121e-05,10,-1.03864e-05,-3.89028,0.700074,0.0842768,-0.424381,0.0806749,
2,0,0,1,0,48143.7,0.0795034,0.0791871,-0.127861,25,-0.000279641,10,-1.01249e-05,-3.89326,0.521875,0.113054,-0.565138,0.0791871,
2,0,0,1,0,48145.2,0.0780052,0.0776602,-0.127772,25,-0.000486899,10,-9.9228e-06,-3.89356,0.678056,0.0870135,-0.432068,0.0776602,
2,0,0,1,0,48146.7,0.076507,0.0761968,-0.126389,25,-0.00069287,10,-9.63044e-06,-3.89829,0.868171,0.067959,-0.335327,0.0761968,
2,0,0,1,0,48148.2,0.0750088,0.074673,-0.125745,25,-0.000897171,10,-9.38974e-06,-3.90051,0.693003,0.0851367,-0.4179,0.07467299,
2,0,0,1,0,48149.6,0.0735106,0.0731863,-0.125624,25,-0.00110113,10,-9.19398e-06,-3.90093,0.819332,0.0720099,-0.350969,0.0731863,
2,0,0,1,0,48151.1,0.0720124,0.0717038,-0.1247,25,-0.0013043,10,-8.94146e-06,-3.90413,0.800047,0.0737456,-0.359006,0.0717038,
2,0,0,1,0,48152.6,0.0705142,0.0702341,-0.123242,25,-0.00150612,10,-8.6558e-06,-3.90924,0.633931,0.09307,-0.451465,0.07023406,
2,0,0,1,0,48154.1,0.069016,0.0687029,-0.123,25,-0.00170668,10,-8.45046e-06,-3.91009,0.7656,0.0770637,-0.370493,0.0687029,
2,0,0,1,0,48155.6,0.0675178,0.0672013,-0.122745,25,-0.00190671,10,-8.24862e-06,-3.911,2.16457,0.0272571,-0.130308,0.0672013,
2,0,0,1,0,48157.1,0.0660196,0.0657146,-0.122833,25,-0.00210581,10,-8.0719e-06,-3.91069,0.773291,0.0762973,-0.362921,0.06571462,
2,0,0,1,0,48158.6,0.0645214,0.0642109,-0.121678,25,-0.00230402,10,-7.81305e-06,-3.91479,0.577348,0.102191,-0.481995,0.0642109,
2,0,0,1,0,48160.1,0.0630233,0.0627084,-0.119448,25,-0.00250094,10,-7.49041e-06,-3.92282,0.778448,0.0757918,-0.355478,0.06270843,
2,0,0,1,0,48161.6,0.0615251,0.0611984,-0.119969,25,-0.00269643,10,-7.34194e-06,-3.92093,0.551829,0.106917,-0.500258,0.0611984,
2,0,0,1,0,48163.1,0.0600269,0.0596598,-0.118962,25,-0.00289131,10,-7.09723e-06,-3.92459,0.665548,0.0886487,-0.412441,0.0596598,
2,0,0,1,0,48164.6,0.0585287,0.0582102,-0.118206,25,-0.00308517,10,-6.88081e-06,-3.92736,0.560797,0.105207,-0.486604,0.0582102,
2,0,0,1,0,48166.1,0.0570305,0.0566843,-0.117984,25,-0.00327801,10,-6.68781e-06,-3.92818,0.62766,0.0939999,-0.433002,0.0566843,
2,0,0,1,0,48167.6,0.0555323,0.0552357,-0.117106,25,-0.00346963,10,-6.46842e-06,-3.93142,0.587519,0.100422,-0.459438,0.0552357,
2,0,0,1,0,48169.1,0.0540342,0.0537353,-0.116536,25,-0.00366038,10,-6.26208e-06,-3.93354,0.829777,0.0711034,-0.324395,0.0537353,
2,0,0,1,0,48170.6,0.052536,0.0522168,-0.116638,25,-0.00385072,10,-6.09046e-06,-3.93316,0.677715,0.0870572,-0.393504,0.0522168,
2,0,0,1,0,48172.1,0.0510378,0.0507142,-0.115389,25,-0.00403995,10,-5.85186e-06,-3.93784,0.650453,0.0907061,-0.409595,0.0507142,
2,0,0,1,0,48173.6,0.0495396,0.0491734,-0.114839,25,-0.00422786,10,-5.64704e-06,-3.93991,0.696349,0.0847276,-0.379021,0.0491734,
2,0,0,1,0,48175.1,0.0480414,0.0477281,-0.114274,25,-0.00441546,10,-5.45408e-06,-3.94205,1.03006,0.057278,-0.255633,0.0477281,
2,0,0,1,0,48176.6,0.0465432,0.0462054,-0.113535,25,-0.00460215,10,-5.24595e-06,-3.94487,0.578441,0.101998,-0.454034,0.04620539,
2,0,0,1,0,48178.1,0.045045,0.044777,-0.112779,25,-0.00478778,10,-5.04992e-06,-3.94777,0.597845,0.0986877,-0.436304,0.044777,
2,0,0,1,0,48179.6,0.0435468,0.0432361,-0.111739,25,-0.00497178,10,-4.83116e-06,-3.9518,0.626591,0.0941603,-0.413585,0.0432361,
2,0,0,1,0,48181.1,0.0420486,0.0417166,-0.11221,25,-0.00515535,10,-4.68101e-06,-3.94997,0.799528,0.0737935,-0.32148,0.0417166,
2,0,0,1,0,48182.6,0.0405504,0.040231,-0.111877,25,-0.00533824,10,-4.50091e-06,-3.95126,1.20982,0.0487677,-0.21214,0.040231,
2,0,0,1,0,48184.1,0.0390522,0.0387644,-0.111216,25,-0.0055203,10,-4.31123e-06,-3.95383,0.508803,0.115958,-0.501275,0.0387644,
2,0,0,1,0,48185.6,0.037554,0.0372268,-0.110587,25,-0.00570187,10,-4.11682e-06,-3.95629,0.859361,0.0686557,-0.295573,0.0372268,
2,0,0,1,0,48187.1,0.0360558,0.0356871,-0.109902,25,-0.00588229,10,-3.92209e-06,-3.95899,0.865741,0.0681497,-0.29365,0.0356871,
2,0,0,1,0,48188.6,0.0345576,0.0342682,-0.109059,25,-0.00606202,10,-3.73727e-06,-3.96234,0.677874,0.0870369,-0.372212,0.0342682,
2,0,0,1,0,48190.1,0.0330594,0.0327561,-0.109029,25,-0.00624136,10,-3.57138e-06,-3.96246,0.49779,0.118524,-0.50406,0.0327561,
2,0,0,1,0,48191.6,0.0315613,0.0312716,-0.108509,25,-0.00641996,10,-3.39324e-06,-3.96454,0.72408,0.0814827,-0.345965,0.0312716,
2,0,0,1,0,48193.1,0.0300631,0.0297383,-0.108253,25,-0.0065976,10,-3.21925e-06,-3.96556,0.600662,0.098225,-0.414933,0.0297383,
2,0,0,1,0,48194.6,0.0285649,0.0282537,-0.108013,25,-0.0067746,10,-3.05176e-06,-3.96653,0.647617,0.0911033,-0.383665,0.0282537,
2,0,0,1,0,48196.1,0.0270667,0.0267458,-0.106997,25,-0.00695091,10,-2.86173e-06,-3.97063,0.744215,0.0792782,-0.330957,0.0267458,
2,0,0,1,0,48197.6,0.0255685,0.0252739,-0.106786,25,-0.00712646,10,-2.6989e-06,-3.97149,1.26136,0.0467749,-0.195023,0.0252739,
2,0,0,1,0,48199.1,0.0240703,0.0237618,-0.106148,25,-0.0073012,10,-2.52227e-06,-3.97409,3.31964,0.017773,-0.0740748,0.0237618,
2,0,0,1,0,48200.6,0.0225722,0.0222508,-0.106326,25,-0.00747565,10,-2.36584e-06,-3.97336,-2.83359,-0.0208216,0.0865241,0.0222508,
2,0,0,1,0,48202.1,0.021074,0.020745,-0.106177,25,-0.00765002,10,-2.20265e-06,-3.97397,2.27232,0.0259646,-0.107717,0.020745,
2,0,0,1,0,48203.6,0.0195758,0.0192657,-0.105937,25,-0.00782421,10,-2.04095e-06,-3.97495,-4.73646,-0.0124566,0.0516453,0.0192657,
2,0,0,1,0,48205.1,0.0180776,0.0177663,-0.105813,25,-0.00799807,10,-1.8799e-06,-3.97546,-3.24767,-0.0181669,0.0751749,0.01776631,
2,0,0,1,0,48206.6,0.0165794,0.0162659,-0.106481,25,-0.008172,10,-1.73201e-06,-3.97273,-3.50727,-0.0168222,0.069543,0.0162659,
2,0,0,1,0,48208.1,0.0150812,0.0147759,-0.106639,25,-0.00834637,10,-1.57569e-06,-3.97209,-7.09675,-0.00831367,0.0343358,0.01477593,
2,0,0,1,0,48209.6,0.013583,0.0132596,-0.105922,25,-0.00852052,10,-1.40448e-06,-3.97501,2.46934,0.023893,-0.0990304,0.0132596,
2,0,0,1,0,48211.1,0.0120848,0.0117919,-0.106389,25,-0.00869456,10,-1.25453e-06,-3.9731,-1.00691,-0.0585949,0.243703,0.0117919,
2,0,0,1,0,48212.6,0.0105866,0.0102522,-0.106834,25,-0.00886868,10,-1.09529e-06,-3.97129,-2.11525,-0.0278926,0.116286,0.0102522,
2,0,0,1,0,48214.1,0.00908843,0.00879414,-0.10706,25,-0.00904352,10,-9.41502e-07,-3.97037,-1.11411,-0.0529569,0.221737,0.00879414,
2,0,0,1,0,48215.6,0.00759024,0.00727462,-0.107763,25,-0.009219,10,-7.83938e-07,-3.96753,-1.46686,-0.040222,0.168292,0.00727462,
2,0,0,1,0,48217.1,0.00609203,0.00573596,-0.107793,25,-0.00939527,10,-6.18294e-07,-3.96741,-0.559637,-0.105426,0.443379,0.00573596,
2,0,0,1,0,48218.6,0.00459384,0.00428107,-0.108905,25,-0.00957185,10,-4.66231e-07,-3.96295,-0.64112,-0.0920265,0.390305,0.00428107,
2,0,0,1,0,48220.1,0.00309563,0.00279858,-0.109872,25,-0.00975001,10,-3.07485e-07,-3.95911,-0.465258,-0.126811,0.540263,0.00279858,
2,0,0,1,0,48221.6,0.00159744,0.0012143,-0.110856,25,-0.00993153,10,-1.34612e-07,-3.95524, , , ,0.0012143,
2,0,0,1,0,48223,0.000199235,-0.000206971,-0.11015,25,-0.0100995,10,2.27979e-08,-3.95802, , , ,-0.000206971,