File: Figure_codes/Fig_3-5/rawdata_trumpetplot_data/after 10th/20221101_1-115_003_TrumpetPlot_ParaChange_from10_every3_04_CV_C01_17.csv
mode,ox/red,error,control changes,counter inc.,time/s,control/V,Ewe/V,<I>/mA,cycle number,(Q-Qo)/C,I Range,P/W,log(|I|),Tafel slope mV/dec,alpha_eff,dI/d(E-IR),E-IR/V,
2,0,0,1,0,34552.2,2.44065e-05,-0.000363498,-0.387516,18,0.0000000E+000,10,1.40862e-07,-3.41171, , , ,-0.000363498,
2,1,0,1,0,34552.4,0.00129787,0.000889902,0.125358,18,-2.77017e-06,10,1.11556e-07,-3.90185, , , ,0.000889902,
2,1,0,1,0,34552.5,0.00279606,0.00246779,0.258712,18,3.03835e-05,10,6.38447e-07,-3.58718,0.00392181,15.0441,68.7104,0.00246779,
2,1,0,1,0,34552.7,0.00429425,0.00398417,0.297487,18,7.46492e-05,10,1.18524e-06,-3.52653,0.0258013,2.28671,25.1299,0.00398417,
2,1,0,1,0,34552.8,0.00579244,0.00544859,0.325634,18,0.000123849,10,1.77425e-06,-3.48727,0.0412733,1.42949,17.7869,0.00544859,
2,1,0,1,0,34553,0.00729063,0.00698406,0.349556,18,0.000176856,10,2.44132e-06,-3.45648,0.057335,1.02904,13.8858,0.00698406,
2,1,0,1,0,34553.1,0.00878882,0.00841985,0.367866,18,0.000232993,10,3.09737e-06,-3.43431,0.0721065,0.818235,11.6395,0.008419849,
2,1,0,1,0,34553.3,0.010287,0.00993517,0.384879,18,0.000291889,10,3.82384e-06,-3.41468,0.092215,0.639809,9.5163,0.00993517,
2,1,0,1,0,34553.4,0.0117852,0.0114738,0.397697,18,0.000352999,10,4.56311e-06,-3.40045,0.0995512,0.59266,9.18451,0.01147382,
2,1,0,1,0,34553.6,0.0132838,0.0129812,0.413195,18,0.00041605,10,5.36377e-06,-3.38385,0.103302,0.571142,9.20019,0.01298122,
2,1,0,1,0,34553.7,0.0147814,0.0144576,0.423072,18,0.000481146,10,6.11661e-06,-3.37359,0.121234,0.486662,8.05741,0.0144576,
2,1,0,1,0,34553.9,0.0162789,0.0159357,0.438263,18,0.000548202,10,6.98403e-06,-3.35827,0.139454,0.423079,7.19411,0.01593571,
2,1,0,1,0,34554,0.017778,0.0174757,0.447741,18,0.000616896,10,7.82459e-06,-3.34897,0.143661,0.410689,7.16371,0.0174757,
2,1,0,1,0,34554.2,0.0192761,0.0189136,0.45863,18,0.000686992,10,8.67435e-06,-3.33854,0.14642,0.402949,7.21559,0.0189136,
2,1,0,1,0,34554.3,0.0207743,0.0204247,0.469887,18,0.000758908,10,9.5973e-06,-3.32801,0.14376,0.410407,7.47714,0.0204247,
2,1,0,1,0,34554.5,0.0222725,0.0219782,0.481762,18,0.00083249,10,1.05883e-05,-3.31717,0.149939,0.393494,7.38804,0.0219782,
2,1,0,1,0,34554.6,0.0237707,0.0235116,0.490935,18,0.000907636,10,1.15426e-05,-3.30898,0.161936,0.364341,6.98497,0.0235116,
2,1,0,1,0,34554.8,0.0252689,0.0249283,0.501509,18,0.000984267,10,1.25017e-05,-3.29972,0.163135,0.361664,7.10117,0.0249283,
2,1,0,1,0,34554.9,0.0267671,0.0264202,0.512789,18,0.0010626,10,1.3548e-05,-3.29006,0.14458,0.408078,8.14587,0.0264202,
2,1,0,1,0,34555.1,0.0282662,0.027897,0.525494,18,0.00114272,10,1.46597e-05,-3.27943,0.158271,0.372778,7.62404,0.027897,
2,1,0,1,0,34555.2,0.0297635,0.0294648,0.53357,18,0.00122433,10,1.57215e-05,-3.27281,0.176918,0.333488,6.94918,0.0294648,
2,1,0,1,0,34555.4,0.031261,0.030922,0.541111,18,0.00130731,10,1.67322e-05,-3.26671,0.192598,0.306338,6.50929,0.030922,
2,1,0,1,0,34555.5,0.0327599,0.0324381,0.554797,18,0.00139182,10,1.79965e-05,-3.25587,0.170401,0.346241,7.49324,0.0324381,
2,1,0,1,0,34555.7,0.034258,0.0339311,0.565118,18,0.001478,10,1.91751e-05,-3.24786,0.179314,0.329033,7.2456,0.0339311,
2,1,0,1,0,34555.8,0.0357562,0.0354507,0.575833,18,0.00156575,10,2.04137e-05,-3.2397,0.235604,0.25042,5.61522,0.0354507,
2,1,0,1,0,34556,0.0372544,0.0369501,0.586504,18,0.00165503,10,2.16714e-05,-3.23173,0.199892,0.295159,6.73456,0.0369501,
2,1,0,1,0,34556.1,0.0387526,0.0384463,0.595123,18,0.00174569,10,2.28803e-05,-3.22539,0.189701,0.311015,7.24613,0.0384463,
2,1,0,1,0,34556.3,0.0402508,0.039933,0.605447,18,0.00183799,10,2.41773e-05,-3.21792,0.207114,0.284868,6.74306,0.039933,
2,1,0,1,0,34556.4,0.041749,0.0414356,0.620155,18,0.00193217,10,2.56965e-05,-3.2075,0.213388,0.276492,6.64788,0.0414356,
2,1,0,1,0,34556.6,0.0432472,0.0429583,0.628746,18,0.00202777,10,2.70099e-05,-3.20152,0.235636,0.250386,6.12733,0.0429583,
2,1,0,1,0,34556.7,0.0447458,0.0444605,0.636835,18,0.00212467,10,2.8314e-05,-3.19597,0.217753,0.270949,6.72882,0.0444605,
2,1,0,1,0,34556.9,0.0462433,0.0459572,0.646315,18,0.0022232,10,2.97029e-05,-3.18956,0.190302,0.310034,7.80324,0.0459572,
2,1,0,1,0,34557,0.0477409,0.047429,0.656505,18,0.00232328,10,3.11373e-05,-3.18276,0.229204,0.257413,6.59962,0.047429,
2,1,0,1,0,34557.2,0.0492399,0.0489136,0.665352,18,0.00242487,10,3.25447e-05,-3.17695,0.266581,0.221321,5.7498,0.0489136,
2,1,0,1,0,34557.3,0.0507381,0.0504183,0.672378,18,0.00252752,10,3.39001e-05,-3.17239,0.309218,0.190804,5.02855,0.0504183,
2,1,0,1,0,34557.5,0.0522363,0.051887,0.684029,18,0.00263151,10,3.54922e-05,-3.16493,0.223352,0.264157,7.03926,0.051887,
2,1,0,1,0,34557.6,0.0537345,0.0533927,0.695325,18,0.0027371,10,3.71253e-05,-3.15781,0.282856,0.208587,5.63973,0.0533927,
2,1,0,1,0,34557.8,0.0552327,0.054889,0.701114,18,0.00284401,10,3.84834e-05,-3.15421,0.356161,0.165655,4.52541,0.054889,
2,1,0,1,0,34557.9,0.0567309,0.0564213,0.706052,18,0.00295202,10,3.98363e-05,-3.15116,0.351651,0.16778,4.63946,0.0564213,
2,1,0,1,0,34558.1,0.0582291,0.0579154,0.716417,18,0.00306101,10,4.14916e-05,-3.14483,0.324523,0.181805,5.09316,0.0579154,
2,1,0,1,0,34558.2,0.0597282,0.0594113,0.725823,18,0.00317155,10,4.31221e-05,-3.13917,0.308555,0.191214,5.42119,0.0594113,
2,1,0,1,0,34558.4,0.0612255,0.060873,0.734953,18,0.00328328,10,4.47388e-05,-3.13374,0.376874,0.156551,4.47446,0.060873,
2,1,0,1,0,34558.5,0.062723,0.0624236,0.742388,18,0.0033962,10,4.63426e-05,-3.12937,0.30261,0.194971,5.6481,0.0624236,
2,1,0,1,0,34558.7,0.0642218,0.0639374,0.747577,18,0.00351009,10,4.77981e-05,-3.12634,0.286812,0.20571,6.01755,0.0639374,
2,1,0,1,0,34558.8,0.06572,0.0654199,0.75571,18,0.00362526,10,4.94384e-05,-3.12165,0.337327,0.174905,5.16212,0.0654199,
2,1,0,1,0,34559,0.0672182,0.0669246,0.765332,18,0.00374176,10,5.12196e-05,-3.11615,0.352356,0.167444,4.98657,0.0669246,
2,1,0,1,0,34559.1,0.0687164,0.068388,0.771442,18,0.00385923,10,5.27574e-05,-3.1127,0.411777,0.143281,4.31091,0.068388,
2,1,0,1,0,34559.3,0.0702146,0.0698693,0.776104,18,0.00397739,10,5.42259e-05,-3.11008,0.421072,0.140119,4.25249,0.0698693,
2,1,0,1,0,34559.4,0.0717128,0.0713475,0.784331,18,0.00409671,10,5.59601e-05,-3.1055,0.375059,0.157309,4.80694,0.0713475,
2,1,0,1,0,34559.6,0.073211,0.0728851,0.790376,18,0.00421698,10,5.76067e-05,-3.10217,0.413972,0.142522,4.39489,0.0728851,
2,1,0,1,0,34559.7,0.0747092,0.0743962,0.797023,18,0.0043382,10,5.92955e-05,-3.09853,0.531604,0.110985,3.44504,0.0743962,
2,1,0,1,0,34559.9,0.0762078,0.0758632,0.798764,18,0.00446019,10,6.05968e-05,-3.09758,0.480074,0.122898,3.84584,0.0758632,
2,1,0,1,0,34560,0.0777053,0.0773672,0.807749,18,0.00458287,10,6.24933e-05,-3.09272,0.444208,0.132821,4.18231,0.0773672,
2,1,0,1,0,34560.2,0.0792029,0.0788683,0.813912,18,0.00470652,10,6.41919e-05,-3.08942,0.443355,0.133076,4.21454,0.0788683,
2,1,0,1,0,34560.3,0.0807019,0.0803907,0.819855,18,0.0048312,10,6.59087e-05,-3.08626,0.60611,0.097342,3.10355,0.0803907,
2,1,0,1,0,34560.5,0.0822001,0.0818763,0.821203,18,0.00495655,10,6.72371e-05,-3.08555,0.500385,0.117909,3.79171,0.08187633,
2,1,0,1,0,34560.6,0.0836983,0.0833588,0.829687,18,0.00508255,10,6.91617e-05,-3.08109,0.477279,0.123617,4.00854,0.0833588,
2,1,0,1,0,34560.7,0.0851965,0.0848656,0.836388,18,0.00520968,10,7.09806e-05,-3.07759,0.453648,0.130057,4.2453,0.0848656,
2,1,0,1,0,34560.9,0.0866947,0.0863544,0.842581,18,0.00533788,10,7.27606e-05,-3.07439,0.544554,0.108345,3.56789,0.08635442,
2,1,0,1,0,34561,0.0881929,0.0878178,0.850169,18,0.00546707,10,7.466e-05,-3.07049,0.380754,0.154956,5.14518,0.0878178,
2,1,0,1,0,34561.2,0.0896911,0.0893776,0.858626,18,0.00559716,10,7.6742e-05,-3.0662,0.297243,0.198491,6.6606,0.0893776,
2,1,0,1,0,34561.3,0.0911902,0.0908863,0.867304,18,0.00572888,10,7.88261e-05,-3.06183,0.263613,0.223813,7.57178,0.09088631,
2,1,0,1,0,34561.5,0.0926875,0.0924023,0.881069,18,0.00586238,10,8.14129e-05,-3.05499,0.247211,0.238663,8.18126,0.0924023,
2,1,0,1,0,34561.6,0.094185,0.0938458,0.888509,18,0.00599728,10,8.33828e-05,-3.05134,0.287198,0.205434,7.14257,0.0938458,
2,1,0,1,0,34561.8,0.0956838,0.0953626,0.899141,18,0.00613376,10,8.57444e-05,-3.04617,0.242119,0.243682,8.59268,0.0953626,
2,1,0,1,0,34561.9,0.097182,0.0968535,0.912945,18,0.00627212,10,8.84219e-05,-3.03956,0.211538,0.278909,9.95027,0.0968535,
2,1,0,1,0,34562.1,0.0986802,0.0983317,0.929655,18,0.00641274,10,9.14146e-05,-3.03168,0.218478,0.270051,9.79332,0.0983317,
2,1,0,1,0,34562.2,0.100178,0.0998863,0.944829,18,0.00655566,10,9.43754e-05,-3.02465,0.215084,0.274312,10.1049,0.0998863,
2,1,0,1,0,34562.4,0.101677,0.101369,0.95742,18,0.00670069,10,9.70524e-05,-3.0189,0.221769,0.266043,9.97712,0.101369,
2,1,0,1,0,34562.5,0.103175,0.10286,0.975597,18,0.00684803,10,0.00010035,-3.01073,0.201504,0.292799,11.1784,0.10286,
2,1,0,1,0,34562.7,0.104673,0.104373,0.997534,18,0.00699809,10,0.000104115,-3.00107,0.188749,0.312584,12.1186,0.104373,
2,1,0,1,0,34562.8,0.106171,0.105852,1.01345,18,0.00715099,10,0.000107276,-2.9942,0.214918,0.274523,10.8087,0.105852,
2,1,0,1,0,34563,0.10767,0.107367,1.02761,18,0.00730627,10,0.000110331,-2.98817,0.234176,0.251948,10.1058,0.107367,
2,1,0,1,0,34563.1,0.109167,0.108819,1.04261,18,0.00746364,10,0.000113455,-2.98188,0.240945,0.244869,9.97274,0.108819,
2,1,0,1,0,34563.3,0.110665,0.110341,1.0585,18,0.00762337,10,0.000116797,-2.97531,0.25765,0.228993,9.45331,0.110341,
2,1,0,1,0,34563.4,0.112164,0.111842,1.07317,18,0.00778551,10,0.000120025,-2.96933,0.291093,0.202685,8.45818,0.111842,
2,1,0,1,0,34563.6,0.113662,0.113359,1.08497,18,0.00794949,10,0.000122991,-2.96458,0.336436,0.175368,7.40972,0.113359,
2,1,0,1,0,34563.7,0.11516,0.114815,1.09498,18,0.00811489,10,0.00012572,-2.96059,0.340658,0.173194,7.39498,0.114815,
2,1,0,1,0,34563.9,0.116658,0.11632,1.10656,18,0.00828212,10,0.000128715,-2.95603,0.340551,0.173248,7.46561,0.11632,
2,1,0,1,0,34564,0.118157,0.117834,1.11785,18,0.0084512,10,0.000131721,-2.95162,0.425847,0.138547,6.02795,0.117834,
2,1,0,1,0,34564.2,0.119655,0.119293,1.12441,18,0.00862154,10,0.000134134,-2.94908,0.559871,0.105381,4.62312,0.119293,
2,1,0,1,0,34564.3,0.121153,0.12084,1.12831,18,0.00879281,10,0.000136345,-2.94757,0.560426,0.105277,4.65441,0.1208399,
2,1,0,1,0,34564.5,0.122652,0.122315,1.13801,18,0.00896531,10,0.000139196,-2.94385,0.464807,0.126934,5.63758,0.122315,
2,1,0,1,0,34564.6,0.124149,0.123793,1.14683,18,0.00913905,10,0.00014197,-2.9405,0.534841,0.110313,4.93711,0.123793,
2,1,0,1,0,34564.8,0.125647,0.125343,1.15379,18,0.00931384,10,0.000144619,-2.93787,0.633257,0.0931691,4.19079,0.125343,
2,1,0,1,0,34564.9,0.127146,0.126827,1.15487,18,0.00948964,10,0.000146469,-2.93747,0.775445,0.0760853,3.43926,0.126827,
2,1,0,1,0,34565.1,0.128644,0.128336,1.16514,18,0.00966597,10,0.00014953,-2.93362,0.660362,0.089345,4.06209,0.128336,
2,1,0,1,0,34565.2,0.130142,0.129863,1.172,18,0.00984338,10,0.0001522,-2.93107,0.775227,0.0761067,3.46946,0.1298629,
2,1,0,1,0,34565.4,0.13164,0.131337,1.1738,18,0.0100215,10,0.000154164,-2.9304,-29.1895,-0.00202127,-0.0922921,0.131337,
2,1,0,1,0,34565.5,0.133139,0.132836,1.17385,18,0.0101999,10,0.00015593,-2.93039,-1.81839,-0.0324463,-1.48338,0.132836,
2,1,0,1,0,34565.7,0.134637,0.134314,1.16928,18,0.0103776,10,0.000157051,-2.93208,-0.721317,-0.0817948,-3.72939,0.134314,
2,1,0,1,0,34565.8,0.136135,0.13582,1.1653,18,0.0105549,10,0.000158271,-2.93356,-0.440955,-0.1338,-6.05765,0.13582,
2,1,0,1,0,34566,0.137633,0.137305,1.15417,18,0.0107308,10,0.000158473,-2.93773,-0.269303,-0.219084,-9.80153,0.137305,
2,1,0,1,0,34566.1,0.139132,0.138802,1.13695,18,0.0109046,10,0.000157812,-2.94426,-0.191219,-0.308547,-13.5773,0.138802,
2,1,0,1,0,34566.3,0.140629,0.140314,1.11004,18,0.011075,10,0.000155755,-2.95466,-0.153544,-0.384254,-16.578,0.140314,
2,1,0,1,0,34566.4,0.142127,0.141803,1.08303,18,0.0112417,10,0.000153578,-2.96536,-0.130243,-0.453,-19.0415,0.141803,
2,1,0,1,0,34566.6,0.143626,0.143344,1.05164,18,0.011404,10,0.000150747,-2.97813,-0.102648,-0.574778,-23.4183,0.143344,
2,1,0,1,0,34566.7,0.145124,0.144792,1.0097,18,0.0115608,10,0.000146197,-2.99581,-0.0864913,-0.68215,-26.8776,0.144792,
2,1,0,1,0,34566.9,0.146622,0.146294,0.966048,18,0.0117112,10,0.000141327,-3.015,-0.0799886,-0.737605,-27.8622,0.146294,
2,1,0,1,0,34567,0.14812,0.147796,0.927594,18,0.0118556,10,0.000137095,-3.03264,-0.078312,-0.753397,-27.2319,0.1477965,
2,1,0,1,0,34567.2,0.149619,0.149288,0.885881,18,0.0119937,10,0.000132252,-3.05262,-0.07325,-0.80546,-27.8512,0.149288,
2,1,0,1,0,34567.3,0.151117,0.150803,0.846371,18,0.0121257,10,0.000127635,-3.07244,-0.0736377,-0.80122,-26.4571,0.150803,
2,1,0,1,0,34567.5,0.152615,0.152284,0.803806,18,0.0122517,10,0.000122407,-3.09485,-0.0762347,-0.773926,-24.4475,0.152284,
2,1,0,1,0,34567.6,0.154114,0.153784,0.774283,18,0.0123723,10,0.000119073,-3.1111,-0.0818862,-0.720513,-21.8356,0.153784,
2,1,0,1,0,34567.8,0.155612,0.155275,0.744055,18,0.0124881,10,0.000115533,-3.12839,-0.0897234,-0.657576,-19.1151,0.155275,
2,1,0,1,0,34567.9,0.157109,0.156799,0.716488,18,0.0125999,10,0.000112345,-3.14479,-0.0996274,-0.592207,-16.5917,0.156799,
2,1,0,1,0,34568.1,0.158608,0.158275,0.691391,18,0.0127079,10,0.00010943,-3.16028,-0.109244,-0.540073,-14.6779,0.158275,
2,1,0,1,0,34568.2,0.160106,0.159753,0.672934,18,0.0128123,10,0.000107503,-3.17203,-0.125631,-0.46963,-12.4196,0.159753,
2,1,0,1,0,34568.4,0.161604,0.1613,0.657758,18,0.0129142,10,0.000106096,-3.18193,-0.151074,-0.390536,-10.0224,0.1613,
2,1,0,1,0,34568.5,0.163102,0.162815,0.643762,18,0.0130139,10,0.000104814,-3.19127,-0.159374,-0.370199,-9.28473,0.162815,
2,1,0,1,0,34568.7,0.164601,0.164336,0.630161,18,0.0131116,10,0.000103558,-3.20055,-0.180875,-0.326191,-8.02213,0.164336,
2,1,0,1,0,34568.8,0.166099,0.165814,0.617455,18,0.0132072,10,0.000102383,-3.20939,-0.191926,-0.307411,-7.43859,0.165814,
2,1,0,1,0,34569,0.167597,0.167301,0.609204,18,0.0133014,10,0.00010192,-3.21524,-0.277537,-0.212584,-5.04762,0.167301,
2,1,0,1,0,34569.1,0.169095,0.168795,0.60229,18,0.0133944,10,0.000101663,-3.22019,-0.263315,-0.224066,-5.26422,0.168795,
2,1,0,1,0,34569.3,0.170594,0.170282,0.593002,18,0.0134862,10,0.000100977,-3.22694,-0.27659,-0.213312,-4.94596,0.170282,
2,1,0,1,0,34569.4,0.172091,0.171756,0.585296,18,0.0135768,10,0.000100528,-3.23262,-0.325941,-0.181014,-4.15395,0.171756,
2,1,0,1,0,34569.6,0.173589,0.173283,0.581055,18,0.0136665,10,0.000100687,-3.23578,-0.398894,-0.147909,-3.35327,0.173283,
2,1,0,1,0,34569.7,0.175088,0.174773,0.576867,18,0.0137555,10,0.000100821,-3.23892,-0.432262,-0.136491,-3.07269,0.174773,
2,1,0,1,0,34569.9,0.176586,0.17625,0.57088,18,0.0138437,10,0.000100618,-3.24345,-0.368449,-0.160131,-3.56319,0.17625,
2,1,0,1,0,34570,0.178084,0.177765,0.56578,18,0.0139312,10,0.000100576,-3.24735,-0.408856,-0.144305,-3.19869,0.177765,
2,1,0,1,0,34570.2,0.179582,0.179241,0.562624,18,0.014018,10,0.000100845,-3.24978,-0.482733,-0.122221,-2.69155,0.179241,
2,1,0,1,0,34570.3,0.181081,0.180801,0.5601,18,0.0141044,10,0.000101266,-3.25173,-0.540764,-0.109105,-2.39213,0.180801,
2,1,0,1,0,34570.5,0.182579,0.182272,0.555978,18,0.0141904,10,0.000101339,-3.25494,-0.480117,-0.122887,-2.66735,0.182272,
2,1,0,1,0,34570.6,0.184077,0.183749,0.555233,18,0.0142759,10,0.000102023,-3.25552,-0.791909,-0.0745035,-1.61204,0.1837485,
2,1,0,1,0,34570.8,0.185576,0.185265,0.551986,18,0.0143608,10,0.000102263,-3.25807,-0.831929,-0.0709195,-1.53002,0.185265,
2,1,0,1,0,34570.9,0.187074,0.186762,0.551319,18,0.0144455,10,0.000102966,-3.2586,-1.31388,-0.0449051,-0.961412,0.186762,
2,1,0,1,0,34571.1,0.188571,0.188234,0.547203,18,0.0145299,10,0.000103003,-3.26185,-0.816888,-0.0722253,-1.54158,0.188234,
2,1,0,1,0,34571.2,0.19007,0.189751,0.545401,18,0.014614,10,0.000103491,-3.26328,-0.961509,-0.0613619,-1.30382,0.189751,
2,1,0,1,0,34571.4,0.191568,0.191222,0.542674,18,0.0146976,10,0.000103771,-3.26546,-0.742428,-0.079469,-1.6841,0.191222,
2,1,0,1,0,34571.5,0.193066,0.192723,0.541912,18,0.0147811,10,0.000104439,-3.26607,-4.90399,-0.012031,-0.253798,0.192723,
2,1,0,1,0,34571.7,0.194564,0.194256,0.539986,18,0.0148644,10,0.000104896,-3.26762,-1.03305,-0.0571124,-1.2035,0.194256,
2,1,0,1,0,34571.8,0.196063,0.195754,0.537898,18,0.0149474,10,0.000105296,-3.2693,-1.13902,-0.0517988,-1.09092,0.195754,
2,1,0,1,0,34572,0.197561,0.19724,0.534132,18,0.0150301,10,0.000105352,-3.27235,-0.925618,-0.0637412,-1.33424,0.19724,
2,1,0,1,0,34572.1,0.199059,0.198709,0.536202,18,0.0151125,10,0.000106548,-3.27067,-1.47226,-0.0400744,-0.836444,0.198709,
2,1,0,1,0,34572.3,0.200557,0.200205,0.535173,18,0.0151947,10,0.000107144,-3.27151,-1.89995,-0.0310535,-0.646466,0.200205,
2,1,0,1,0,34572.4,0.202056,0.201728,0.532305,18,0.0152768,10,0.000107381,-3.27384,-0.915998,-0.0644106,-1.3339,0.201728,
2,1,0,1,0,34572.6,0.203553,0.203225,0.53009,18,0.0153585,10,0.000107727,-3.27565,-1.23867,-0.0476316,-0.98628,0.203225,
2,1,0,1,0,34572.7,0.205051,0.204694,0.528323,18,0.01544,10,0.000108145,-3.2771,2.50023,0.0235978,0.490022,0.204694,
2,1,0,1,0,34572.9,0.20655,0.206234,0.52786,18,0.0155215,10,0.000108863,-3.27748,-2.95098,-0.0199934,-0.412085,0.206234,
2,1,0,1,0,34573,0.208048,0.207725,0.527639,18,0.015603,10,0.000109604,-3.27766,-0.904547,-0.065226,-1.33958,0.207725,
2,1,0,1,0,34573.2,0.209546,0.209245,0.52627,18,0.0156842,10,0.000110119,-3.27879,-1.44792,-0.0407481,-0.836681,0.209245,
2,1,0,1,0,34573.3,0.211044,0.21072,0.525425,18,0.0157649,10,0.000110717,-3.27949,-1.10998,-0.0531539,-1.08931,0.21072,
2,1,0,1,0,34573.5,0.212543,0.212278,0.523846,18,0.0158457,10,0.000111201,-3.2808,-1.60817,-0.0366877,-0.749539,0.212278,
2,1,0,1,0,34573.6,0.214041,0.213708,0.522642,18,0.0159263,10,0.000111693,-3.2818,-1.40232,-0.0420732,-0.858064,0.213708,
2,1,0,1,0,34573.8,0.215539,0.215232,0.521058,18,0.0160067,10,0.000112148,-3.28311,-1.86117,-0.0317005,-0.645476,0.215232,
2,1,0,1,0,34573.9,0.217038,0.216736,0.519484,18,0.0160869,10,0.000112591,-3.28443,-1.76508,-0.0334262,-0.680478,0.216736,
2,1,0,1,0,34574.1,0.218535,0.218224,0.519309,18,0.016167,10,0.000113326,-3.28457,-3.60238,-0.0163781,-0.331917,0.218224,
2,1,0,1,0,34574.2,0.220033,0.219726,0.519055,18,0.0162471,10,0.00011405,-3.28479,-2.82857,-0.0208586,-0.423143,0.219726,
2,1,0,1,0,34574.4,0.221532,0.221236,0.518835,18,0.016327,10,0.000114785,-3.28497,-1.6164,-0.0365008,-0.737282,0.221236,
2,1,0,1,0,34574.5,0.22303,0.222718,0.515351,18,0.0164067,10,0.000114778,-3.2879,-1.37939,-0.0427727,-0.862512,0.222718,
2,1,0,1,0,34574.7,0.224528,0.224195,0.516473,18,0.0164862,10,0.00011579,-3.28695,-2.689,-0.0219412,-0.441896,0.224195,
2,1,0,1,0,34574.8,0.226026,0.225683,0.515098,18,0.0165656,10,0.000116249,-3.28811,-1.69146,-0.0348811,-0.700034,0.225683,
2,1,0,1,0,34575,0.227524,0.227173,0.514415,18,0.0166451,10,0.000116861,-3.28869,-0.960039,-0.0614558,-1.22977,0.227173,
2,1,0,1,0,34575.1,0.229023,0.228764,0.51147,18,0.0167242,10,0.000117006,-3.29118,-2.0233,-0.0291603,-0.584671,0.228764,
2,1,0,1,0,34575.3,0.230521,0.230218,0.512566,18,0.0168031,10,0.000118002,-3.29025,-1.88293,-0.0313341,-0.62798,0.230218,
2,1,0,1,0,34575.4,0.232019,0.231662,0.512617,18,0.0168821,10,0.000118754,-3.29021,-2.40916,-0.0244898,-0.48908,0.231662,
2,1,0,1,0,34575.6,0.233518,0.233229,0.512124,18,0.016961,10,0.000119442,-3.29063,-1.48228,-0.0398035,-0.79287,0.233229,
2,1,0,1,0,34575.7,0.235015,0.23469,0.51095,18,0.0170397,10,0.000119915,-3.29162,-1.28889,-0.0457759,-0.90909,0.23469,
2,1,0,1,0,34575.9,0.236513,0.236203,0.508624,18,0.0171181,10,0.000120138,-3.2936,-1.88579,-0.0312867,-0.622122,0.236203,
2,1,0,1,0,34576,0.238012,0.237722,0.507313,18,0.0171965,10,0.000120599,-3.29472,-66.8558,-0.000882496,-0.0174641,0.237722,
2,1,0,1,0,34576.2,0.23951,0.239164,0.508847,18,0.0172749,10,0.000121698,-3.29341,-3.46649,-0.0170201,-0.337453,0.239164,
2,1,0,1,0,34576.3,0.241008,0.240698,0.505269,18,0.0173531,10,0.000121617,-3.29648,-1.56888,-0.0376064,-0.743216,0.240698,
2,1,0,1,0,34576.5,0.242506,0.242194,0.503405,18,0.017431,10,0.000121922,-3.29808,-5.67469,-0.010397,-0.205356,0.242194,
2,1,0,1,0,34576.6,0.244005,0.243683,0.503611,18,0.0175089,10,0.000122721,-3.2979,-118.523,-0.000497796,-0.00980374,0.243683,
2,1,0,1,0,34576.8,0.245503,0.245202,0.506344,18,0.0175868,10,0.000124157,-3.29555,-2.63105,-0.0224245,-0.441974,0.245202,
2,1,0,1,0,34576.9,0.247001,0.246684,0.503585,18,0.0176646,10,0.000124226,-3.29793,-1.25609,-0.0469712,-0.920884,0.246684,
2,1,0,1,0,34577.1,0.2485,0.248193,0.501925,18,0.0177423,10,0.000124574,-3.29936,-1.14423,-0.0515631,-1.01215,0.2481925,
2,1,0,1,0,34577.2,0.249997,0.249661,0.501932,18,0.0178196,10,0.000125313,-3.29935,-3.01947,-0.0195399,-0.383034,0.2496614,
2,1,0,1,0,34577.4,0.251495,0.251181,0.501918,18,0.017897,10,0.000126072,-3.29937,-6.15646,-0.00958344,-0.187772,0.251181,
2,1,0,1,0,34577.5,0.252994,0.252691,0.49834,18,0.0179744,10,0.000125926,-3.30247,-1.06658,-0.0553173,-1.07762,0.252691,
2,1,0,1,0,34577.7,0.254492,0.254144,0.500325,18,0.0180516,10,0.000127154,-3.30075,-1.84529,-0.0319733,-0.625608,0.2541436,
2,1,0,1,0,34577.8,0.25599,0.255663,0.498249,18,0.0181284,10,0.000127384,-3.30255,-4.08772,-0.0144335,-0.281492,0.255663,
2,1,0,1,0,34578,0.257488,0.25724,0.498753,18,0.0182054,10,0.000128299,-3.30211,-11.9614,-0.00493251,-0.0959813,0.25724,
2,1,0,1,0,34578.1,0.258987,0.258652,0.498396,18,0.0182823,10,0.000128911,-3.30243,-3.01575,-0.019564,-0.379949,0.258652,
2,1,0,1,0,34578.3,0.260485,0.26021,0.498508,18,0.018359,10,0.000129717,-3.30233,-2.15949,-0.0273212,-0.53003,0.26021,
2,1,0,1,0,34578.4,0.261983,0.261651,0.496373,18,0.0184355,10,0.000129877,-3.30419,-2.98643,-0.019756,-0.381763,0.261651,
2,1,0,1,0,34578.6,0.263481,0.26315,0.495793,18,0.018512,10,0.000130468,-3.3047,34.7908,0.00169585,0.0327298,0.26315,
2,1,0,1,0,34578.7,0.26498,0.264656,0.495014,18,0.0185884,10,0.000131009,-3.30538,-22.5498,-0.00261643,-0.0504989,0.264656,
2,1,0,1,0,34578.9,0.266477,0.266112,0.494281,18,0.0186647,10,0.000131534,-3.30603,-4.00131,-0.0147452,-0.284796,0.266112,
2,1,0,1,0,34579,0.267976,0.267686,0.491176,18,0.0187408,10,0.000131481,-3.30876,-2.235,-0.0263982,-0.508182,0.267686,
2,1,0,1,0,34579.2,0.269474,0.269188,0.492684,18,0.0188167,10,0.000132624,-3.30743,-73.7075,-0.000800461,-0.0153809,0.2691876,
2,1,0,1,0,34579.3,0.270972,0.270636,0.493017,18,0.0188927,10,0.000133428,-3.30714,-2.65696,-0.0222058,-0.425994,0.270636,
2,1,0,1,0,34579.5,0.27247,0.272131,0.491547,18,0.0189686,10,0.000133765,-3.30843,-1.35237,-0.0436272,-0.833875,0.272131,
2,1,0,1,0,34579.6,0.273968,0.273644,0.486833,18,0.0190442,10,0.000133219,-3.31262,-1.21482,-0.048567,-0.927328,0.273644,
2,1,0,1,0,34579.8,0.275467,0.275134,0.489504,18,0.0191196,10,0.000134679,-3.31024,-1.90867,-0.0309116,-0.591336,0.275134,
2,1,0,1,0,34579.9,0.276965,0.276655,0.487708,18,0.019195,10,0.000134927,-3.31184,-2.62179,-0.0225037,-0.428709,0.276655,
2,1,0,1,0,34580.1,0.278463,0.278182,0.48789,18,0.0192703,10,0.000135722,-3.31168,-0.996207,-0.0592246,-1.1255,0.278182,
2,1,0,1,0,34580.2,0.279962,0.27965,0.486869,18,0.0193455,10,0.000136153,-3.31259,-1.98886,-0.0296652,-0.56314,0.27965,
2,1,0,1,0,34580.4,0.281459,0.281143,0.485402,18,0.0194203,10,0.000136468,-3.3139,-1.59276,-0.0370427,-0.701874,0.281143,
2,1,0,1,0,34580.5,0.282957,0.282599,0.484877,18,0.0194952,10,0.000137026,-3.31437,-5.61046,-0.0105161,-0.198506,0.282599,
2,1,0,1,0,34580.7,0.284456,0.284166,0.485284,18,0.0195701,10,0.000137901,-3.314,-1.19572,-0.0493425,-0.931932,0.2841658,
2,1,0,1,0,34580.8,0.285954,0.285628,0.482181,18,0.0196447,10,0.000137724,-3.31679,-1.08664,-0.0542958,-1.02337,0.285628,
2,1,0,1,0,34581,0.287452,0.287141,0.481524,18,0.019719,10,0.000138265,-3.31738,-2.25822,-0.0261268,-0.491764,0.287141,
2,1,0,1,0,34581.1,0.28895,0.288601,0.479993,18,0.0197934,10,0.000138527,-3.31877,-3.65966,-0.0161217,-0.302404,0.288601,
2,1,0,1,0,34581.3,0.290449,0.290135,0.479887,18,0.0198676,10,0.000139232,-3.31886,-1.10925,-0.0531891,-0.998745,0.290135,
2,1,0,1,0,34581.4,0.291947,0.291648,0.479404,18,0.0199417,10,0.000139817,-3.3193,-0.825354,-0.0714845,-1.33881,0.291648,
2,1,0,1,0,34581.6,0.293445,0.293104,0.476374,18,0.0200156,10,0.000139627,-3.32205,-1.26021,-0.0468177,-0.873353,0.293104,
2,1,0,1,0,34581.7,0.294943,0.294626,0.477369,18,0.0200894,10,0.000140645,-3.32115,-2.13175,-0.0276767,-0.517026,0.294626,
2,1,0,1,0,34581.9,0.296442,0.296123,0.478547,18,0.0201631,10,0.000141709,-3.32008,-3.88602,-0.0151826,-0.282446,0.296123,
2,1,0,1,0,34582,0.297939,0.297635,0.476809,18,0.0202368,10,0.000141915,-3.32166,-3.78366,-0.0155934,-0.289558,0.297635,
2,1,0,1,0,34582.2,0.299437,0.299147,0.474919,18,0.0203102,10,0.000142071,-3.32338,-0.00264377,-22.3166,-210.519,0.299147,
2,1,0,1,0,34582.3,0.299738,0.299469,0.25072,18,0.0203457,10,7.50828e-05,-3.60081,0.00055388,106.521,391.801,0.299469,
2,1,0,1,0,34582.4,0.29824,0.29793,0.0167084,18,0.0203569,10,4.97793e-06,-4.77707,0.00359702,16.4025,129.713,0.29793,
2,0,0,1,0,34582.6,0.296741,0.296412,-0.0263888,18,0.0203536,10,-7.82196e-06,-4.57858,-0.0377945,-1.56107,25.2157,0.296412,
2,0,0,1,0,34582.7,0.295243,0.294916,-0.0515533,18,0.0203454,10,-1.52039e-05,-4.28774,-0.00580864,-10.1573,14.3904,0.294916,
2,0,0,1,0,34582.9,0.293745,0.293416,-0.0699157,18,0.0203341,10,-2.05144e-05,-4.15543,-0.0136574,-4.32001,10.6599,0.293416,
2,0,0,1,0,34583,0.292246,0.291925,-0.0834579,18,0.0203205,10,-2.43634e-05,-4.07853,-0.0207931,-2.83749,8.95966,0.2919248,
2,0,0,1,0,34583.2,0.290748,0.290421,-0.0950773,18,0.0203048,10,-2.76124e-05,-4.02192,-0.0266417,-2.21457,8.01787,0.290421,
2,0,0,1,0,34583.3,0.28925,0.288974,-0.108369,18,0.0202873,10,-3.13158e-05,-3.96509,-0.0359649,-1.64049,6.80416,0.288974,
2,0,0,1,0,34583.5,0.287752,0.287403,-0.116808,18,0.0202682,10,-3.35711e-05,-3.93253,-0.0433916,-1.35971,6.12899,0.287403,
2,0,0,1,0,34583.6,0.286253,0.285942,-0.125163,18,0.0202479,10,-3.57895e-05,-3.90252,-0.0508519,-1.16023,5.69073,0.285942,
2,0,0,1,0,34583.8,0.284755,0.284441,-0.133907,18,0.0202262,10,-3.80887e-05,-3.8732,-0.0529222,-1.11484,5.77991,0.284441,
2,0,0,1,0,34583.9,0.283258,0.282946,-0.143372,18,0.0202033,10,-4.05664e-05,-3.84354,-0.0676455,-0.872194,4.84535,0.282946,
2,0,0,1,0,34584.1,0.281759,0.281436,-0.149087,18,0.0201792,10,-4.19585e-05,-3.82656,-0.0716561,-0.823377,4.74585,0.281436,
2,0,0,1,0,34584.2,0.280261,0.279927,-0.15328,18,0.0201542,10,-4.29073e-05,-3.81451,-0.0744742,-0.792221,4.81141,0.279927,
2,0,0,1,0,34584.4,0.278763,0.278499,-0.162482,18,0.0201283,10,-4.52511e-05,-3.78919,-0.0928061,-0.635734,4.01024,0.278499,
2,0,0,1,0,34584.5,0.277264,0.276937,-0.169025,18,0.0201013,10,-4.68092e-05,-3.77205,-0.0996044,-0.592343,3.87613,0.276937,
2,0,0,1,0,34584.7,0.275766,0.27543,-0.173362,18,0.0200734,10,-4.77492e-05,-3.76105,-0.12297,-0.479791,3.23513,0.2754302,
2,0,0,1,0,34584.8,0.274268,0.27399,-0.180255,18,0.0200446,10,-4.93882e-05,-3.74411,-0.112553,-0.524196,3.68285,0.27399,
2,0,0,1,0,34585,0.27277,0.272419,-0.185308,18,0.0200151,10,-5.04815e-05,-3.7321,-0.10989,-0.536899,3.89608,0.272419,
2,0,0,1,0,34585.1,0.271272,0.270957,-0.190297,18,0.0199847,10,-5.15623e-05,-3.72057,-0.122583,-0.481307,3.57247,0.270957,
2,0,0,1,0,34585.3,0.269773,0.269474,-0.197801,18,0.0199534,10,-5.33023e-05,-3.70377,-0.137462,-0.429211,3.26475,0.269474,
2,0,0,1,0,34585.4,0.268275,0.267953,-0.201821,18,0.0199214,10,-5.40787e-05,-3.69503,-0.142233,-0.414813,3.24943,0.267953,
2,0,0,1,0,34585.6,0.266778,0.266395,-0.205141,18,0.0198888,10,-5.46487e-05,-3.68795,-0.12263,-0.481123,3.843,0.266395,
2,0,0,1,0,34585.7,0.265279,0.264966,-0.209802,18,0.0198554,10,-5.55903e-05,-3.67819,-0.121979,-0.483692,3.95947,0.2649661,
2,0,0,1,0,34585.9,0.263781,0.263444,-0.214245,18,0.0198213,10,-5.64416e-05,-3.66909,-0.184888,-0.319113,2.68541,0.263444,
2,0,0,1,0,34586,0.262283,0.261955,-0.219772,18,0.0197865,10,-5.75702e-05,-3.65803,-0.188213,-0.313474,2.68253,0.261955,
2,0,0,1,0,34586.2,0.260784,0.260424,-0.222157,18,0.0197512,10,-5.78551e-05,-3.65334,-0.17987,-0.328014,2.85364,0.260424,
2,0,0,1,0,34586.3,0.259286,0.258992,-0.228279,18,0.0197153,10,-5.91223e-05,-3.64153,-0.176024,-0.335182,2.97642,0.258992,
2,0,0,1,0,34586.5,0.257788,0.2575,-0.234889,18,0.0196786,10,-6.0484e-05,-3.62914,-0.185608,-0.317875,2.86447,0.2575,
2,0,0,1,0,34586.6,0.25629,0.255929,-0.236409,18,0.0196413,10,-6.0504e-05,-3.62634,-0.231537,-0.254818,2.33372,0.255929,
2,0,0,1,0,34586.8,0.254791,0.254452,-0.237298,18,0.0196035,10,-6.03811e-05,-3.62471,-0.247084,-0.238785,2.22528,0.254452,
2,0,0,1,0,34586.9,0.253293,0.252919,-0.244294,18,0.0195652,10,-6.17864e-05,-3.61209,-0.22144,-0.266438,2.5311,0.252919,
2,0,0,1,0,34587.1,0.251796,0.251499,-0.248111,18,0.0195264,10,-6.23995e-05,-3.60535,-0.202705,-0.291064,2.80986,0.251499,
2,0,0,1,0,34587.2,0.250297,0.250006,-0.24973,18,0.0194869,10,-6.2434e-05,-3.60253,-0.30922,-0.190803,1.85396,0.250006,
2,0,0,1,0,34587.4,0.248799,0.24847,-0.25332,18,0.0194468,10,-6.29424e-05,-3.59633,-0.242137,-0.243664,2.42014,0.24847,
2,0,0,1,0,34587.5,0.247301,0.246965,-0.256936,18,0.0194065,10,-6.3454e-05,-3.59018,-0.252023,-0.234105,2.3539,0.246965,
2,0,0,1,0,34587.7,0.245802,0.245498,-0.261991,18,0.0193654,10,-6.43184e-05,-3.58171,-0.291179,-0.202624,2.05752,0.245498,
2,0,0,1,0,34587.8,0.244304,0.244038,-0.265307,18,0.0193238,10,-6.4745e-05,-3.57625,-0.336847,-0.175154,1.80158,0.244038,
2,0,0,1,0,34588,0.242806,0.242483,-0.267716,18,0.0192817,10,-6.49166e-05,-3.57233,-0.334626,-0.176316,1.84291,0.242483,
2,0,0,1,0,34588.1,0.241308,0.24101,-0.269568,18,0.0192393,10,-6.49687e-05,-3.56933,-0.32395,-0.182127,1.92054,0.24101,
2,0,0,1,0,34588.3,0.23981,0.239474,-0.274633,18,0.0191963,10,-6.57674e-05,-3.56125,-0.226035,-0.261021,2.77785,0.239474,
2,0,0,1,0,34588.4,0.238311,0.237998,-0.277306,18,0.0191528,10,-6.59982e-05,-3.55704,-0.375998,-0.156916,1.69517,0.237998,
2,0,0,1,0,34588.6,0.236814,0.236497,-0.279603,18,0.0191088,10,-6.61251e-05,-3.55346,-0.310625,-0.18994,2.06865,0.2364967,
2,0,0,1,0,34588.7,0.235316,0.234989,-0.281055,18,0.0190645,10,-6.60448e-05,-3.55121,-0.283406,-0.208182,2.29611,0.234989,
2,0,0,1,0,34588.9,0.233817,0.2335,-0.286261,18,0.0190196,10,-6.68418e-05,-3.54324,-0.267523,-0.220542,2.46223,0.2334996,
2,0,0,1,0,34589,0.232319,0.231992,-0.289397,18,0.0189743,10,-6.71377e-05,-3.53851,-0.298216,-0.197843,2.22371,0.231992,
2,0,0,1,0,34589.2,0.230821,0.230505,-0.29144,18,0.0189284,10,-6.71785e-05,-3.53545,-0.397147,-0.148559,1.68734,0.230505,
2,0,0,1,0,34589.3,0.229322,0.22899,-0.292921,18,0.0188822,10,-6.7076e-05,-3.53325,-0.46377,-0.127218,1.46103,0.22899,
2,0,0,1,0,34589.5,0.227824,0.227526,-0.295951,18,0.0188356,10,-6.73367e-05,-3.52878,-0.293238,-0.201201,2.35234,0.227526,
2,0,0,1,0,34589.6,0.226326,0.226019,-0.300536,18,0.0187884,10,-6.7927e-05,-3.5221,-0.413723,-0.142608,1.68156,0.226019,
2,0,0,1,0,34589.8,0.224828,0.224518,-0.304556,18,0.0187408,10,-6.83782e-05,-3.51633,-0.556439,-0.106031,1.25663,0.224518,
2,0,0,1,0,34589.9,0.223329,0.223021,-0.308024,18,0.0186928,10,-6.86959e-05,-3.51141,-0.279011,-0.211461,2.53331,0.223021,
2,0,0,1,0,34590,0.221831,0.221508,-0.31197,18,0.0186444,10,-6.9104e-05,-3.50589,-0.322422,-0.18299,2.20785,0.221508,
2,0,0,1,0,34590.2,0.220334,0.220049,-0.313033,18,0.0185954,10,-6.88826e-05,-3.50441,-0.282476,-0.208867,2.54196,0.220049,
2,0,0,1,0,34590.3,0.218835,0.218539,-0.316098,18,0.0185459,10,-6.908e-05,-3.50018,-0.345987,-0.170527,2.09854,0.2185394,
2,0,0,1,0,34590.5,0.217337,0.217003,-0.31808,18,0.0184961,10,-6.90243e-05,-3.49746,-0.386368,-0.152704,1.89912,0.217003,
2,0,0,1,0,34590.6,0.215839,0.215503,-0.320156,18,0.018446,10,-6.89947e-05,-3.49464,-0.372076,-0.15857,1.99463,0.215503,
2,0,0,1,0,34590.8,0.21434,0.21399,-0.322158,18,0.0183954,10,-6.89387e-05,-3.49193,-0.273626,-0.215623,2.72971,0.21399,
2,0,0,1,0,34590.9,0.212842,0.212565,-0.32798,18,0.0183442,10,-6.9717e-05,-3.48415,-0.350074,-0.168536,2.15738,0.212565,
2,0,0,1,0,34591.1,0.211344,0.211039,-0.331881,18,0.0182926,10,-7.004e-05,-3.47902,-0.437914,-0.13473,1.73525,0.211039,
2,0,0,1,0,34591.2,0.209846,0.209534,-0.33275,18,0.0182405,10,-6.97226e-05,-3.47788,-0.391526,-0.150693,1.96174,0.209534,
2,0,0,1,0,34591.4,0.208348,0.20804,-0.337388,18,0.018188,10,-7.01903e-05,-3.47187,-0.367953,-0.160347,2.11181,0.2080403,
2,0,0,1,0,34591.5,0.206849,0.206533,-0.343107,18,0.0181349,10,-7.08628e-05,-3.46457,-0.331481,-0.177989,2.36379,0.2065327,
2,0,0,1,0,34591.7,0.205352,0.205027,-0.342824,18,0.0180812,10,-7.02883e-05,-3.46493,-0.424239,-0.139073,1.85271,0.205027,
2,0,0,1,0,34591.8,0.203854,0.203513,-0.345189,18,0.0180273,10,-7.02504e-05,-3.46194,-0.39316,-0.150066,2.03576,0.203513,
2,0,0,1,0,34592,0.202355,0.202021,-0.347597,18,0.0179731,10,-7.0222e-05,-3.45892,-0.341407,-0.172814,2.35294,0.202021,
2,0,0,1,0,34592.1,0.200857,0.200498,-0.351386,18,0.0179182,10,-7.04521e-05,-3.45422,-0.343084,-0.17197,2.36318,0.200498,
2,0,0,1,0,34592.3,0.199359,0.199023,-0.355509,18,0.0178629,10,-7.07543e-05,-3.44915,-0.611923,-0.0964173,1.33204,0.199023,
2,0,0,1,0,34592.4,0.19786,0.197515,-0.358465,18,0.0178071,10,-7.08021e-05,-3.44555,-0.487543,-0.121015,1.69293,0.197515,
2,0,0,1,0,34592.6,0.196362,0.196055,-0.362013,18,0.0177511,10,-7.09744e-05,-3.44128,-0.364812,-0.161727,2.2746,0.196055,
2,0,0,1,0,34592.7,0.194864,0.194565,-0.366324,18,0.0176943,10,-7.12738e-05,-3.43613,-0.319826,-0.184476,2.62652,0.194565,
2,0,0,1,0,34592.9,0.193366,0.193029,-0.369605,18,0.0176369,10,-7.13445e-05,-3.43226,-0.313459,-0.188222,2.71209,0.1930292,
2,0,0,1,0,34593,0.191867,0.191526,-0.373033,18,0.017579,10,-7.14454e-05,-3.42825,-0.569736,-0.103557,1.50966,0.191526,
2,0,0,1,0,34593.2,0.190369,0.190046,-0.374885,18,0.0175209,10,-7.12454e-05,-3.4261,-0.320383,-0.184155,2.70614,0.190046,
2,0,0,1,0,34593.3,0.188872,0.188546,-0.379402,18,0.0174621,10,-7.15346e-05,-3.4209,-0.266021,-0.221787,3.27667,0.188546,
2,0,0,1,0,34593.5,0.187373,0.187062,-0.38156,18,0.0174027,10,-7.13754e-05,-3.41844,-0.297454,-0.19835,2.95859,0.187062,
2,0,0,1,0,34593.6,0.185875,0.185607,-0.386928,18,0.0173428,10,-7.18166e-05,-3.41237,-0.401763,-0.146853,2.21463,0.1856074,
2,0,0,1,0,34593.8,0.184377,0.184084,-0.388423,18,0.0172824,10,-7.15024e-05,-3.41069,-0.331074,-0.178208,2.70934,0.1840836,
2,0,0,1,0,34593.9,0.182878,0.182546,-0.394145,18,0.0172214,10,-7.19496e-05,-3.40434,-0.362269,-0.162863,2.5099,0.182546,
2,0,0,1,0,34594.1,0.18138,0.181074,-0.398391,18,0.0171598,10,-7.21383e-05,-3.39969,-0.330446,-0.178546,2.7776,0.181074,
2,0,0,1,0,34594.2,0.179882,0.179554,-0.40138,18,0.0170975,10,-7.20691e-05,-3.39644,-0.474363,-0.124377,1.95476,0.179554,
2,0,0,1,0,34594.4,0.178384,0.178023,-0.406415,18,0.0170346,10,-7.23513e-05,-3.39103,-0.376471,-0.156719,2.49423,0.178023,
2,0,0,1,0,34594.5,0.176886,0.176528,-0.411836,18,0.0169712,10,-7.27006e-05,-3.38528,-0.311481,-0.189418,3.05018,0.1765282,
2,0,0,1,0,34594.7,0.175387,0.175065,-0.416896,18,0.0169069,10,-7.29839e-05,-3.37997,-0.27553,-0.214133,3.47383,0.175065,
2,0,0,1,0,34594.8,0.17389,0.173547,-0.422391,18,0.0168419,10,-7.33046e-05,-3.37428,-0.260448,-0.226533,3.72235,0.173547,
2,0,0,1,0,34595,0.172392,0.172095,-0.424871,18,0.0167761,10,-7.31182e-05,-3.37174,-0.259543,-0.227323,3.78054,0.172095,
2,0,0,1,0,34595.1,0.170893,0.170573,-0.43183,18,0.0167096,10,-7.36585e-05,-3.36469,-0.234607,-0.251485,4.23931,0.170573,
2,0,0,1,0,34595.3,0.169395,0.169059,-0.436208,18,0.0166422,10,-7.37448e-05,-3.36031,-0.22256,-0.265097,4.51374,0.1690587,
2,0,0,1,0,34595.4,0.167897,0.167515,-0.443749,18,0.0165738,10,-7.43346e-05,-3.35286,-0.23137,-0.255003,4.42114,0.167515,
2,0,0,1,0,34595.6,0.166398,0.16608,-0.449768,18,0.0165044,10,-7.46975e-05,-3.34701,-0.25282,-0.233368,4.11289,0.16608,
2,0,0,1,0,34595.7,0.1649,0.164576,-0.45627,18,0.0164341,10,-7.50912e-05,-3.34078,-0.237522,-0.248398,4.44699,0.164576,
2,0,0,1,0,34595.9,0.163402,0.163088,-0.465548,18,0.0163626,10,-7.59251e-05,-3.33204,-0.203782,-0.289525,5.26531,0.163088,
2,0,0,1,0,34596,0.161904,0.161601,-0.474909,18,0.0162899,10,-7.67457e-05,-3.32339,-0.185411,-0.318212,5.88047,0.161601,
2,0,0,1,0,34596.2,0.160405,0.16007,-0.482657,18,0.0162158,10,-7.72588e-05,-3.31636,-0.182124,-0.323956,6.09926,0.16007,
2,0,0,1,0,34596.3,0.158907,0.158561,-0.491099,18,0.0161405,10,-7.78689e-05,-3.30883,-0.166412,-0.354541,6.82627,0.158561,
2,0,0,1,0,34596.5,0.15741,0.157079,-0.505359,18,0.0160636,10,-7.93812e-05,-3.2964,-0.156435,-0.377153,7.44959,0.157079,
2,0,0,1,0,34596.6,0.155911,0.155571,-0.515359,18,0.015985,10,-8.01751e-05,-3.28789,-0.145566,-0.405315,8.16994,0.155571,
2,0,0,1,0,34596.8,0.154413,0.154104,-0.527661,18,0.0159044,10,-8.13146e-05,-3.27764,-0.142831,-0.413076,8.50305,0.1541038,
2,0,0,1,0,34596.9,0.152915,0.152558,-0.541207,18,0.0158219,10,-8.25652e-05,-3.26664,-0.130031,-0.453736,9.61409,0.152558,
2,0,0,1,0,34597.1,0.151417,0.151067,-0.557464,18,0.0157373,10,-8.42142e-05,-3.25378,-0.111546,-0.52893,11.5533,0.151067,
2,0,0,1,0,34597.2,0.149918,0.149578,-0.575738,18,0.0156502,10,-8.61177e-05,-3.23978,-0.103375,-0.570738,12.8421,0.149578,
2,0,0,1,0,34597.4,0.14842,0.148099,-0.595175,18,0.01556,10,-8.81447e-05,-3.22536,-0.0982602,-0.600447,13.9577,0.148099,
2,0,0,1,0,34597.5,0.146922,0.146629,-0.617869,18,0.0154668,10,-9.05975e-05,-3.2091,-0.0925063,-0.637795,15.4011,0.146629,
2,0,0,1,0,34597.7,0.145424,0.145139,-0.640454,18,0.0153703,10,-9.29549e-05,-3.19351,-0.0869198,-0.678787,17.0299,0.145139,
2,0,0,1,0,34597.8,0.143925,0.143587,-0.668405,18,0.0152699,10,-9.59742e-05,-3.17496,-0.077213,-0.76412,19.9452,0.143587,
2,0,0,1,0,34598,0.142428,0.142124,-0.698235,18,0.0151651,10,-9.92357e-05,-3.156,-0.0772665,-0.763591,20.7997,0.142124,
2,0,0,1,0,34598.1,0.14093,0.140592,-0.728711,18,0.0150558,10,-0.000102451,-3.13744,-0.0789032,-0.747752,21.2772,0.140592,
2,0,0,1,0,34598.3,0.139431,0.139119,-0.759357,18,0.0149417,10,-0.000105641,-3.11955,-0.0776479,-0.75984,22.6213,0.139119,
2,0,0,1,0,34598.4,0.137933,0.137595,-0.796323,18,0.0148228,10,-0.00010957,-3.09891,-0.0783976,-0.752574,23.3919,0.137595,
2,0,0,1,0,34598.6,0.136435,0.136059,-0.834344,18,0.0146983,10,-0.00011352,-3.07866,-0.0785774,-0.750852,24.343,0.136059,
2,0,0,1,0,34598.7,0.134936,0.134602,-0.869349,18,0.0145683,10,-0.000117016,-3.06081,-0.0854136,-0.690756,23.3457,0.134602,
2,0,0,1,0,34598.9,0.133438,0.133124,-0.901881,18,0.014433,10,-0.000120062,-3.04485,-0.0888596,-0.663969,23.4411,0.133124,
2,0,0,1,0,34599,0.13194,0.131626,-0.939227,18,0.0142927,10,-0.000123627,-3.02723,-0.0914288,-0.645311,23.6722,0.131626,
2,0,0,1,0,34599.2,0.130442,0.130095,-0.97498,18,0.0141469,10,-0.00012684,-3.011,-0.0977883,-0.603344,22.8855,0.130095,
2,0,0,1,0,34599.3,0.128943,0.128614,-1.0066,18,0.0139958,10,-0.000129463,-2.99714,-0.110428,-0.534283,20.9145,0.128614,
2,0,0,1,0,34599.5,0.127445,0.127135,-1.03976,18,0.0138401,10,-0.00013219,-2.98307,-0.121846,-0.484219,19.535,0.127135,
2,0,0,1,0,34599.6,0.125948,0.125618,-1.06622,18,0.0136802,10,-0.000133936,-2.97215,-0.133918,-0.440569,18.2727,0.125618,
2,0,0,1,0,34599.8,0.124449,0.124106,-1.09211,18,0.013516,10,-0.000135537,-2.96173,-0.14681,-0.40188,17.0648,0.124106,
2,0,0,1,0,34599.9,0.122951,0.122644,-1.11463,18,0.0133482,10,-0.000136703,-2.95287,-0.169082,-0.348942,15.136,0.122644,
2,0,0,1,0,34600.1,0.121453,0.121123,-1.13477,18,0.013177,10,-0.000137446,-2.94509,-0.231555,-0.254799,11.2475,0.121123,
2,0,0,1,0,34600.2,0.119955,0.119659,-1.14853,18,0.0130036,10,-0.000137431,-2.93986,-0.283221,-0.208318,9.34158,0.119659,
2,0,0,1,0,34600.4,0.118456,0.118155,-1.16245,18,0.0128279,10,-0.000137349,-2.93463,-0.28701,-0.205568,9.31548,0.118155,
2,0,0,1,0,34600.5,0.116958,0.116588,-1.1767,18,0.01265,10,-0.000137189,-2.92933,-0.442056,-0.133467,6.10108,0.116588,
2,0,0,1,0,34600.7,0.11546,0.115134,-1.18261,18,0.0124707,10,-0.000136158,-2.92716,-0.870893,-0.0677466,3.12072,0.115134,
2,0,0,1,0,34600.8,0.113962,0.113609,-1.18309,18,0.0122907,10,-0.000134409,-2.92698,-1.92161,-0.0307033,1.41913,0.113609,
2,0,0,1,0,34601,0.112463,0.112128,-1.19059,18,0.0121103,10,-0.000133499,-2.92424,-2.97053,-0.0198618,0.920548,0.112128,
2,0,0,1,0,34601.1,0.110966,0.110625,-1.19048,18,0.0119297,10,-0.000131697,-2.92428,-36.4697,-0.00161778,0.0748948,0.110625,
2,0,0,1,0,34601.3,0.109468,0.109125,-1.18715,18,0.011749,10,-0.000129547,-2.92549,1.30313,0.0452756,-2.09474,0.109125,
2,0,0,1,0,34601.4,0.107969,0.10766,-1.18313,18,0.0115687,10,-0.000127376,-2.92697,0.958895,0.0615291,-2.84051,0.10766,
2,0,0,1,0,34601.6,0.106471,0.106142,-1.17705,18,0.0113893,10,-0.000124934,-2.92921,0.982629,0.060043,-2.76563,0.1061416,
2,0,0,1,0,34601.7,0.104973,0.104669,-1.17367,18,0.0112106,10,-0.000122847,-2.93045,0.825053,0.0715105,-3.2772,0.1046687,
2,0,0,1,0,34601.9,0.103474,0.103171,-1.17002,18,0.0110324,10,-0.000120713,-2.93181,0.609186,0.0968506,-4.41113,0.1031714,
2,0,0,1,0,34602,0.101976,0.101693,-1.16345,18,0.0108553,10,-0.000118315,-2.93425,0.575301,0.102555,-4.64806,0.101693,
2,0,0,1,0,34602.2,0.100478,0.100161,-1.156,18,0.0106794,10,-0.000115786,-2.93704,0.590072,0.0999878,-4.51101,0.100161,
2,0,0,1,0,34602.3,0.0989798,0.0986244,-1.14861,18,0.0105044,10,-0.000113281,-2.93983,0.687546,0.0858124,-3.84225,0.0986244,
2,0,0,1,0,34602.5,0.0974808,0.0971071,-1.14463,18,0.0103301,10,-0.000111152,-2.94133,0.658303,0.0896244,-3.99402,0.09710712,
2,0,0,1,0,34602.6,0.0959833,0.0956371,-1.13512,18,0.0101571,10,-0.00010856,-2.94496,0.534227,0.11044,-4.89666,0.0956371,
2,0,0,1,0,34602.8,0.0944857,0.0941701,-1.12613,18,0.00998529,10,-0.000106048,-2.94841,0.60983,0.0967483,-4.26513,0.0941701,
2,0,0,1,0,34602.9,0.0929871,0.0926585,-1.12088,18,0.00981435,10,-0.000103859,-2.95044,0.696856,0.084666,-3.70713,0.0926585,
2,0,0,1,0,34603.1,0.0914889,0.0911379,-1.11718,18,0.00964433,10,-0.000101818,-2.95188,0.606712,0.0972455,-4.23115,0.0911379,
2,0,0,1,0,34603.2,0.0899907,0.0896936,-1.10936,18,0.00947526,10,-9.95028e-05,-2.95493,0.493111,0.119648,-5.16587,0.0896936,
2,0,0,1,0,34603.4,0.0884925,0.0881423,-1.09778,18,0.0093074,10,-9.67607e-05,-2.95949,0.509856,0.115719,-4.97223,0.0881423,
2,0,0,1,0,34603.5,0.0869943,0.0866704,-1.0923,18,0.00914086,10,-9.46702e-05,-2.96166,0.502304,0.117459,-5.01086,0.0866704,
2,0,0,1,0,34603.7,0.0854961,0.0852007,-1.08725,18,0.00897504,10,-9.26341e-05,-2.96367,0.59588,0.0990133,-4.20328,0.0852007,
2,0,0,1,0,34603.8,0.083998,0.0836461,-1.0818,18,0.00881027,10,-9.04885e-05,-2.96585,0.393136,0.150075,-6.31924,0.0836461,
2,0,0,1,0,34604,0.0824998,0.0821891,-1.07394,18,0.00864646,10,-8.82659e-05,-2.96902,0.495926,0.118969,-4.98943,0.0821891,
2,0,0,1,0,34604.1,0.0810011,0.0806712,-1.06731,18,0.00848389,10,-8.61011e-05,-2.97171,0.647013,0.0911883,-3.79739,0.0806712,
2,0,0,1,0,34604.3,0.0795036,0.0791797,-1.06103,18,0.00832217,10,-8.40119e-05,-2.97427,0.661208,0.0892306,-3.69016,0.0791797,
2,0,0,1,0,34604.4,0.0780061,0.0776716,-1.05556,18,0.00816127,10,-8.19869e-05,-2.97652,0.568451,0.103791,-4.26111,0.0776716,
2,0,0,1,0,34604.6,0.076507,0.0761851,-1.0487,18,0.00800121,10,-7.98952e-05,-2.97935,0.58706,0.100501,-4.11073,0.0761851,
2,0,0,1,0,34604.7,0.0750088,0.0746847,-1.03923,18,0.00784264,10,-7.76149e-05,-2.98329,0.540354,0.109188,-4.43694,0.07468465,
2,0,0,1,0,34604.9,0.0735106,0.0731927,-1.0335,18,0.00768478,10,-7.56449e-05,-2.98569,0.623494,0.094628,-3.81559,0.0731927,
2,0,0,1,0,34605,0.0720124,0.071671,-1.02812,18,0.00752788,10,-7.36862e-05,-2.98796,0.55852,0.105636,-4.23648,0.071671,
2,0,0,1,0,34605.2,0.0705142,0.0701737,-1.02195,18,0.00737195,10,-7.17142e-05,-2.99057,0.503902,0.117086,-4.67091,0.0701737,
2,0,0,1,0,34605.3,0.069016,0.0687135,-1.01098,18,0.00721713,10,-6.94678e-05,-2.99526,0.544035,0.108449,-4.29742,0.0687135,
2,0,0,1,0,34605.5,0.0675179,0.0671992,-1.00997,18,0.00706321,10,-6.78693e-05,-2.99569,0.69061,0.0854318,-3.36961,0.0671992,
2,0,0,1,0,34605.6,0.0660188,0.0656978,-1.00622,18,0.00690997,10,-6.61063e-05,-2.99731,0.562622,0.104866,-4.10045,0.0656978,
2,0,0,1,0,34605.8,0.0645213,0.0641759,-0.99949,18,0.00675754,10,-6.41432e-05,-3.00022,0.524046,0.112586,-4.37564,0.0641759,
2,0,0,1,0,34605.9,0.0630237,0.0626667,-0.988963,18,0.00660624,10,-6.1975e-05,-3.00482,0.55413,0.106473,-4.11755,0.0626667,
2,0,0,1,0,34606.1,0.0615251,0.0612291,-0.984783,18,0.00645594,10,-6.02974e-05,-3.00666,0.58584,0.10071,-3.87558,0.0612291,
2,0,0,1,0,34606.2,0.0600269,0.0597043,-0.980599,18,0.00630638,10,-5.85459e-05,-3.00851,0.559649,0.105423,-4.0246,0.0597043,
2,0,0,1,0,34606.4,0.0585287,0.0581699,-0.972563,18,0.00615766,10,-5.65739e-05,-3.01208,0.415482,0.142004,-5.38845,0.0581699,
2,0,0,1,0,34606.5,0.0570305,0.0566641,-0.965843,18,0.00600998,10,-5.47286e-05,-3.01509,0.488633,0.120745,-4.55378,0.0566641,
2,0,0,1,0,34606.7,0.0555323,0.0552251,-0.961635,18,0.0058635,10,-5.31064e-05,-3.01699,0.594219,0.09929,-3.72513,0.0552251,
2,0,0,1,0,34606.8,0.0540342,0.0536897,-0.953938,18,0.0057178,10,-5.12166e-05,-3.02048,0.555554,0.1062,-3.949,0.0536897,
2,0,0,1,0,34607,0.052536,0.0522507,-0.948367,18,0.00557279,10,-4.95528e-05,-3.02302,0.50843,0.116043,-4.29027,0.0522507,
2,0,0,1,0,34607.1,0.0510378,0.0507216,-0.941038,18,0.00542891,10,-4.77309e-05,-3.02639,0.44705,0.131976,-4.84801,0.0507216,
2,0,0,1,0,34607.3,0.0495391,0.0492184,-0.934015,18,0.00528614,10,-4.59707e-05,-3.02965,0.488617,0.120749,-4.40197,0.0492184,
2,0,0,1,0,34607.4,0.0480416,0.0477008,-0.925005,18,0.0051444,10,-4.41235e-05,-3.03386,0.62856,0.0938653,-3.39532,0.0477008,
2,0,0,1,0,34607.6,0.0465441,0.0462295,-0.920357,18,0.00500358,10,-4.25477e-05,-3.03604,0.482379,0.12231,-4.39865,0.0462295,
2,0,0,1,0,34607.7,0.045045,0.0447048,-0.9136,18,0.00486362,10,-4.08423e-05,-3.03924,0.43701,0.135008,-4.81396,0.0447048,
2,0,0,1,0,34607.9,0.0435468,0.0432489,-0.903895,18,0.004725,10,-3.90925e-05,-3.04388,0.486297,0.121325,-4.29996,0.0432489,
2,0,0,1,0,34608,0.0420486,0.0417198,-0.900944,18,0.00458735,10,-3.75872e-05,-3.0453,0.510127,0.115657,-4.05943,0.0417198,
2,0,0,1,0,34608.2,0.0405504,0.0402183,-0.895588,18,0.00445054,10,-3.6019e-05,-3.04789,0.44347,0.133042,-4.64304,0.0402183,
2,0,0,1,0,34608.3,0.0390523,0.0386955,-0.886669,18,0.0043147,10,-3.43101e-05,-3.05224,0.379362,0.155524,-5.3802,0.0386955,
2,0,0,1,0,34608.5,0.0375541,0.0372385,-0.879151,18,0.00417999,10,-3.27383e-05,-3.05594,0.45058,0.130942,-4.50566,0.0372385,
2,0,0,1,0,34608.6,0.0360559,0.0356946,-0.874779,18,0.00404647,10,-3.12248e-05,-3.0581,0.437285,0.134924,-4.59967,0.0356946,
2,0,0,1,0,34608.8,0.0345568,0.0342093,-0.866568,18,0.00391373,10,-2.96447e-05,-3.0622,0.490217,0.120355,-4.07259,0.0342093,
2,0,0,1,0,34608.9,0.0330593,0.0327286,-0.860134,18,0.00378202,10,-2.8151e-05,-3.06543,0.436688,0.135108,-4.53308,0.0327286,
2,0,0,1,0,34609.1,0.0315618,0.031214,-0.854152,18,0.00365131,10,-2.66615e-05,-3.06846,0.473345,0.124645,-4.15155,0.031214,
2,0,0,1,0,34609.2,0.0300631,0.0297531,-0.84606,18,0.00352178,10,-2.51729e-05,-3.0726,0.464117,0.127123,-4.20036,0.0297531,
2,0,0,1,0,34609.4,0.0285649,0.0282282,-0.839871,18,0.00339316,10,-2.37081e-05,-3.07579,0.611753,0.0964442,-3.15761,0.02822824,
2,0,0,1,0,34609.5,0.0270667,0.0267596,-0.834414,18,0.00326526,10,-2.23286e-05,-3.07862,0.437619,0.134821,-4.38211,0.0267596,
2,0,0,1,0,34609.7,0.0255685,0.0252527,-0.826929,18,0.00313837,10,-2.08822e-05,-3.08253,0.401197,0.14706,-4.75536,0.0252527,
2,0,0,1,0,34609.8,0.0240704,0.0237565,-0.81935,18,0.00301268,10,-1.94649e-05,-3.08653,0.431618,0.136695,-4.38478,0.0237565,
2,0,0,1,0,34610,0.0225722,0.0222454,-0.814459,18,0.00288784,10,-1.8118e-05,-3.08913,0.629097,0.0937852,-2.98476,0.0222454,
2,0,0,1,0,34610.1,0.021074,0.020763,-0.81064,18,0.00276365,10,-1.68313e-05,-3.09117,0.523147,0.112779,-3.5665,0.020763,
2,0,0,1,0,34610.3,0.0195758,0.0192869,-0.806067,18,0.00264025,10,-1.55465e-05,-3.09363,0.528025,0.111737,-3.50713,0.0192869,
2,0,0,1,0,34610.4,0.0180772,0.0177584,-0.797891,18,0.00251761,10,-1.41693e-05,-3.09806,0.66795,0.08833,-2.75739,0.01775842,
2,0,0,1,0,34610.6,0.0165796,0.0162546,-0.796219,18,0.00239592,10,-1.29422e-05,-3.09897,0.801911,0.0735742,-2.28863,0.0162546,
2,0,0,1,0,34610.7,0.0150821,0.0147876,-0.793309,18,0.00227467,10,-1.17311e-05,-3.10056,0.896308,0.0658256,-2.03128,0.0147876,
2,0,0,1,0,34610.9,0.013583,0.0132373,-0.788611,18,0.0021537,10,-1.04391e-05,-3.10314,0.613855,0.0961139,-2.95071,0.0132373,
2,0,0,1,0,34611,0.0120848,0.0118025,-0.783175,18,0.00203352,10,-9.24346e-06,-3.10614,0.712882,0.0827626,-2.5397,0.0118025,
2,0,0,1,0,34611.2,0.0105866,0.0102692,-0.780572,18,0.00191407,10,-8.01585e-06,-3.10759,1.09262,0.0539984,-1.65117,0.0102692,
2,0,0,1,0,34611.3,0.00908846,0.00874539,-0.777381,18,0.00179476,10,-6.7985e-06,-3.10937,1.57132,0.0375481,-1.14272,0.00874539,
2,0,0,1,0,34611.5,0.00759027,0.00727779,-0.778134,18,0.00167578,10,-5.6631e-06,-3.10895,1.10639,0.0533268,-1.61708,0.00727779,
2,0,0,1,0,34611.6,0.00609207,0.00578792,-0.777899,18,0.00155699,10,-4.50242e-06,-3.10908,2.15465,0.0273826,-0.830121,0.00578792,
2,0,0,1,0,34611.8,0.00459389,0.00427048,-0.776055,18,0.00143863,10,-3.31413e-06,-3.11011,8.22785,0.00717077,-0.217056,0.00427048,
2,0,0,1,0,34611.9,0.0030948,0.0027609,-0.775796,18,0.00132008,10,-2.14189e-06,-3.11025,-1.23189,-0.0478941,1.45249,0.0027609,
2,0,0,1,0,34612.1,0.00159728,0.00121202,-0.784564,18,0.00120031,10,-9.50903e-07,-3.10537, , , ,0.00121202,
2,0,0,1,0,34612.2,0.000199195,-0.000155446,-0.777012,18,0.00108905,10,1.20784e-07,-3.10957, , , ,-0.0001554464,