File: Figure_codes/Fig_3-5/rawdata_trumpetplot_data/after 10th/20221101_1-115_003_TrumpetPlot_ParaChange_from10_every3_14_CV_C01.mpt
EC-Lab ASCII FILE
Nb header lines : 94

Cyclic Voltammetry

Run on channel : 1 (SN 65296)
User :
CE vs. WE compliance from -10 V to 10 V
Electrode connection : standard
Potential control : Ewe
Ewe ctrl range : min = -1.00 V, max = 1.00 V
Safety Limits :
	Do not start on E overload
Acquisition started on : 11/08/2022 20:18:53.442
Loaded Setting File :  NONE
Saved on :
	File : 20221101_1-115_003_TrumpetPlot_ParaChange_from10_every3_14_CV_C01.mpr
	Directory : C:\Users\NakamuraT\Documents\EC-Lab\Data\Yatsuzuka\20221108_1-115_001_TrumpetPlot\
	Host : 192.109.209.100
Device : SP-50e (SN .003219)
Address : 192.109.209.128
EC-Lab for windows v11.43 (software)
Internet server v11.40 (firmware)
Command interpretor v11.40 (firmware)
Electrode material :
Initial state :
Electrolyte :
Comments :
Electrode surface area : 0.000 cm2
Characteristic mass : 0.001 g
Equivalent Weight : 0.000 g/eq.
Density : 0.000 g/cm3
Volume (V) : 0.001 cm3
Cycle Definition : Charge/Discharge alternance
Ei (V)              0.000
vs.                 Ref
dE/dt               1000.000
dE/dt unit          mV/s
E1 (V)              0.300
vs.                 Ref
Step percent        50
N                   10
E range min (V)     -1.000
E range max (V)     1.000
I Range             100 mA
I Range min         Unset
I Range max         Unset
I Range init        Unset
Bandwidth           5
E2 (V)              -0.200
vs.                 Ref
nc cycles           0
Reverse Scan        1
Ef (V)              0.000
vs.                 Ref

Number of loops : 35
Loop 0 from point number 0 to 508
Loop 1 from point number 509 to 1017
Loop 2 from point number 1018 to 1526
Loop 3 from point number 1527 to 2035
Loop 4 from point number 2036 to 2544
Loop 5 from point number 2545 to 3053
Loop 6 from point number 3054 to 3562
Loop 7 from point number 3563 to 4071
Loop 8 from point number 4072 to 4580
Loop 9 from point number 4581 to 5089
Loop 10 from point number 5090 to 5598
Loop 11 from point number 5599 to 6107
Loop 12 from point number 6108 to 6616
Loop 13 from point number 6617 to 7125
Loop 14 from point number 7126 to 7634
Loop 15 from point number 7635 to 8143
Loop 16 from point number 8144 to 8652
Loop 17 from point number 8653 to 9161
Loop 18 from point number 9162 to 9670
Loop 19 from point number 9671 to 10179
Loop 20 from point number 10180 to 10688
Loop 21 from point number 10689 to 11197
Loop 22 from point number 11198 to 11706
Loop 23 from point number 11707 to 12215
Loop 24 from point number 12216 to 12724
Loop 25 from point number 12725 to 13233
Loop 26 from point number 13234 to 13742
Loop 27 from point number 13743 to 14251
Loop 28 from point number 14252 to 14760
Loop 29 from point number 14761 to 15269
Loop 30 from point number 15270 to 15778
Loop 31 from point number 15779 to 16287
Loop 32 from point number 16288 to 16796
Loop 33 from point number 16797 to 17305
Loop 34 from point number 17306 to 17814

mode	ox/red	error	control changes	counter inc.	time/s	control/V	Ewe/V	<I>/mA	cycle number	(Q-Qo)/C	I Range	P/W
2	1	0	0	0	1199.11	2.44065e-05	-0.000248974	48.7097	1	0.0000000E+000	10	-1.21275e-05
2	1	0	1	0	1199.16	0.05331	0.0529315	56.0524	1	0.00284818	10	0.00296694
2	1	0	1	0	1199.21	0.107345	0.107022	62.7195	1	0.00601454	10	0.00671234
2	1	0	1	0	1199.27	0.16133	0.160912	78.2435	1	0.00978702	10	0.0125903
2	1	0	1	0	1199.32	0.215314	0.215045	95.407	1	0.0145328	10	0.0205168
2	1	0	1	0	1199.38	0.26933	0.26913	66.1536	1	0.0191602	10	0.0178039
2	1	0	1	0	1199.42	0.282733	0.28262	9.42497	1	0.0212898	10	0.00266368
2	0	0	1	0	1199.48	0.228748	0.228517	-20.2241	1	0.0207472	10	-0.00462155
2	0	0	1	0	1199.53	0.174713	0.174439	-29.2647	1	0.0194048	10	-0.00510491
2	0	0	1	0	1199.59	0.120729	0.120569	-48.941	1	0.0173936	10	-0.00590079
2	0	0	1	0	1199.64	0.0667438	0.0666245	-79.2099	1	0.013882	10	-0.00527732
2	0	0	1	0	1199.69	0.0127091	0.0124239	-85.9497	1	0.00928799	10	-0.00106783
2	0	0	1	0	1199.75	-0.0412757	-0.041678	-74.3953	1	0.00489953	10	0.00310065
2	0	0	1	0	1199.8	-0.0952605	-0.0955955	-64.4443	1	0.00122617	10	0.00616059
2	0	0	1	0	1199.86	-0.149295	-0.149556	-66.6666	1	-0.00228287	10	0.00997042
2	0	0	0	0	1199.91	-0.200184	-0.20057	-72.6744	1	-0.00582024	10	0.0145763
2	1	0	1	1	1199.96	-0.148696	-0.149101	4.25223	1	-0.00719271	10	-0.000634014
2	1	0	1	1	1200.01	-0.0946612	-0.0950388	37.9467	1	-0.00594133	10	-0.00360641
2	1	0	1	1	1200.07	-0.0406764	-0.0410799	53.9984	1	-0.00340143	10	-0.00221825
2	1	0	1	0	3169.24	0.0073156	0.00696497	49.5375	2	0.000345198	10	0.000345027
2	1	0	1	0	3169.3	0.0613032	0.0609004	55.6776	2	0.00322234	10	0.00339079
2	1	0	1	0	3169.35	0.115335	0.114961	63.7916	2	0.00641453	10	0.00733355
2	1	0	1	0	3169.41	0.16932	0.168976	79.0388	2	0.0102435	10	0.0133557
2	1	0	1	0	3169.46	0.223305	0.222993	90.5652	2	0.0149275	10	0.0201954
2	1	0	1	0	3169.51	0.277339	0.277065	58.3024	2	0.0190821	10	0.0161536
2	1	0	1	0	3169.56	0.274742	0.274546	2.62441	2	0.0207692	10	0.000720521
2	0	0	1	0	3169.62	0.220708	0.220492	-20.2162	2	0.0201292	10	-0.00445751
2	0	0	1	0	3169.67	0.166723	0.166451	-29.111	2	0.0187982	10	-0.00484556
2	0	0	1	0	3169.72	0.112738	0.112549	-49.6861	2	0.0167683	10	-0.0055921
2	0	0	1	0	3169.78	0.0587035	0.0585463	-76.8805	2	0.0132854	10	-0.00450107
2	0	0	1	0	3169.83	0.00471873	0.00446665	-81.4767	2	0.00890316	10	-0.000363928
2	0	0	1	0	3169.89	-0.0492661	-0.049613	-71.2566	2	0.00472862	10	0.00353526
2	0	0	1	0	3169.94	-0.10327	-0.103612	-63.4575	2	0.00115521	10	0.00657497
2	0	0	1	0	3169.99	-0.157286	-0.157623	-65.9016	2	-0.00231108	10	0.0103876
2	0	0	1	1	3170.04	-0.19469	-0.195205	-56.8647	2	-0.0055795	10	0.0111003
2	1	0	1	1	3170.1	-0.140656	-0.14112	7.87602	2	-0.00659861	10	-0.00111146
2	1	0	1	1	3170.15	-0.0866709	-0.0870963	37.1776	2	-0.00529405	10	-0.00323803
2	1	0	1	1	3170.21	-0.0326861	-0.0331014	52.1955	2	-0.00283159	10	-0.00172775
2	1	0	1	0	5139.38	0.0153059	0.0149339	49.6384	3	0.000725552	10	0.000741296
2	1	0	1	0	5139.44	0.0693407	0.0689532	55.4034	3	0.00357968	10	0.00382024
2	1	0	1	0	5139.49	0.123325	0.122977	64.4142	3	0.0067865	10	0.00792144
2	1	0	1	0	5139.55	0.17731	0.176967	79.4196	3	0.0106468	10	0.0140547
2	1	0	1	0	5139.6	0.231345	0.231059	85.0139	3	0.0152412	10	0.0196432
2	1	0	1	0	5139.65	0.28533	0.285053	52.9612	3	0.018981	10	0.0150968
2	0	0	1	0	5139.7	0.266702	0.26647	-1.7971	3	0.0202611	10	-0.000478874
2	0	0	1	0	5139.76	0.212717	0.212422	-20.1111	3	0.0195572	10	-0.00427205
2	0	0	1	0	5139.81	0.158733	0.158425	-29.2711	3	0.0182313	10	-0.00463728
2	0	0	1	0	5139.86	0.104748	0.104502	-51.1442	3	0.0161509	10	-0.00534469
2	0	0	1	0	5139.92	0.0507132	0.0504735	-75.0621	3	0.0126656	10	-0.00378864
2	0	0	1	0	5139.97	-0.00327161	-0.00358395	-77.4616	3	0.00847	10	0.000277619
2	0	0	1	0	5140.03	-0.0572564	-0.0576287	-68.3736	3	0.00449323	10	0.00394028
2	0	0	1	0	5140.08	-0.111291	-0.111635	-62.7967	3	0.0010058	10	0.00701032
2	0	0	1	0	5140.13	-0.165276	-0.16558	-65.7546	3	-0.00244282	10	0.0108877
2	0	0	1	1	5140.18	-0.186686	-0.187191	-41.7031	3	-0.00552844	10	0.00780645
2	1	0	1	1	5140.24	-0.132665	-0.133158	11.508	3	-0.0061285	10	-0.00153238
2	1	0	1	1	5140.29	-0.0786806	-0.0791136	37.4957	3	-0.00472953	10	-0.00296642
2	1	0	1	1	5140.34	-0.0246957	-0.0251092	51.1268	3	-0.00229158	10	-0.00128375
2	1	0	1	0	7109.52	0.0233462	0.0230036	51.4012	4	0.00113705	10	0.00118241
2	1	0	1	0	7109.58	0.077331	0.0769348	57.2443	4	0.00407307	10	0.00440408
2	1	0	1	0	7109.63	0.131316	0.130965	67.0346	4	0.00740454	10	0.00877917
2	1	0	1	0	7109.68	0.185301	0.184943	81.8741	4	0.0114127	10	0.015142
2	1	0	1	0	7109.74	0.239335	0.239095	80.3753	4	0.0159951	10	0.0192174
2	1	0	1	0	7109.79	0.29332	0.293016	49.5984	4	0.0194509	10	0.0145331
2	0	0	1	0	7109.84	0.258712	0.258435	-6.28406	4	0.0203028	10	-0.00162402
2	0	0	1	0	7109.89	0.204727	0.2044	-21.6358	4	0.0194662	10	-0.00442235
2	0	0	1	0	7109.95	0.150742	0.150493	-31.0064	4	0.0180615	10	-0.00466625
2	0	0	1	0	7110	0.0967076	0.096459	-54.5545	4	0.0158323	10	-0.00526227
2	0	0	1	0	7110.06	0.0427228	0.0424748	-75.7886	4	0.0122259	10	-0.00321911
2	0	0	1	0	7110.11	-0.011262	-0.0115921	-76.6524	4	0.00804894	10	0.000888566
2	0	0	1	0	7110.16	-0.0652967	-0.0656517	-67.6423	4	0.00412436	10	0.00444083
2	0	0	1	0	7110.22	-0.119281	-0.119618	-63.3535	4	0.000638071	10	0.00757821
2	0	0	1	0	7110.27	-0.173266	-0.173552	-66.637	4	-0.0028534	10	0.011565
2	0	0	1	1	7110.32	-0.17866	-0.179081	-30.4772	4	-0.00569895	10	0.0054579
2	1	0	1	1	7110.37	-0.124675	-0.125174	15.6697	4	-0.00593304	10	-0.00196145
2	1	0	1	1	7110.43	-0.0706902	-0.0710884	39.4785	4	-0.00437724	10	-0.00280647
2	1	0	1	1	7110.48	-0.0166554	-0.0170204	52.3039	4	-0.00185776	10	-0.000890231
2	1	0	1	0	9079.66	0.0313366	0.0309577	51.5261	5	0.00152279	10	0.00159513
2	1	0	1	0	9079.71	0.0853214	0.0849653	57.6853	5	0.00446465	10	0.00490125
2	1	0	1	0	9079.77	0.139306	0.138955	68.0621	5	0.00783888	10	0.00945755
2	1	0	1	0	9079.82	0.193341	0.192973	82.3356	5	0.0119067	10	0.0158886
2	1	0	1	0	9079.88	0.247326	0.247014	72.7013	5	0.0163106	10	0.0179583
2	1	0	1	0	9079.93	0.299812	0.299556	46.1719	5	0.0193471	10	0.0138311
2	0	0	1	0	9079.98	0.250722	0.250474	-9.56634	5	0.0198129	10	-0.00239611
2	0	0	1	0	9080.03	0.196737	0.196444	-22.3554	5	0.0188921	10	-0.00439158
2	0	0	1	0	9080.09	0.142702	0.142443	-32.5395	5	0.017441	10	-0.00463501
2	0	0	1	0	9080.14	0.0887173	0.0885304	-57.4964	5	0.0150651	10	-0.00509018
2	0	0	1	0	9080.19	0.0347325	0.0344687	-74.5742	5	0.0114004	10	-0.00257048
2	0	0	1	0	9080.25	-0.0192523	-0.0195919	-73.5774	5	0.00735505	10	0.00144152
2	0	0	1	0	9080.3	-0.0732871	-0.0736058	-64.8845	5	0.00360625	10	0.00477588
2	0	0	1	0	9080.36	-0.127272	-0.127606	-62.3853	5	0.000212246	10	0.00796073
2	0	0	1	0	9080.41	-0.181257	-0.181539	-66.0035	5	-0.00324119	10	0.0119822
2	0	0	1	1	9080.46	-0.170669	-0.171081	-20.3508	5	-0.00569004	10	0.00348163
2	1	0	1	1	9080.51	-0.116685	-0.117106	19.0843	5	-0.00559546	10	-0.00223488
2	1	0	1	1	9080.57	-0.0626915	-0.063094	40.3803	5	-0.00393356	10	-0.00254775
2	1	0	1	1	9080.62	-0.0086651	-0.00903763	51.9979	5	-0.00140021	10	-0.000469937
2	1	0	1	0	11049.8	0.0393269	0.0389405	51.7838	6	0.00190469	10	0.00201648
2	1	0	1	0	11049.9	0.0933117	0.0929597	58.2682	6	0.00486776	10	0.0054166
2	1	0	1	0	11049.9	0.147346	0.146985	68.6501	6	0.00827539	10	0.0100905
2	1	0	1	0	11050	0.201331	0.20097	81.4058	6	0.0123431	10	0.0163601
2	1	0	1	0	11050	0.255316	0.255034	70.656	6	0.0166389	10	0.0180197
2	1	0	1	0	11050.1	0.296716	0.296604	40.2528	6	0.0194174	10	0.0119392
2	0	0	1	0	11050.1	0.242731	0.242445	-10.4446	6	0.0198206	10	-0.00253225
2	0	0	1	0	11050.2	0.188746	0.188419	-22.8711	6	0.0188712	10	-0.00430933
2	0	0	1	0	11050.2	0.134712	0.134452	-33.8544	6	0.017376	10	-0.0045518
2	0	0	1	0	11050.3	0.0807269	0.0805307	-58.0783	6	0.0149195	10	-0.00467708
2	0	0	1	0	11050.3	0.0267421	0.0264298	-72.9763	6	0.0112881	10	-0.00192875
2	0	0	1	0	11050.4	-0.0272926	-0.0276361	-72.3284	6	0.00732443	10	0.00199888
2	0	0	1	0	11050.4	-0.0812774	-0.0816246	-64.4969	6	0.00362437	10	0.00526454
2	0	0	1	0	11050.5	-0.135262	-0.135631	-62.367	6	0.000234591	10	0.00845891
2	0	0	1	0	11050.5	-0.189297	-0.189614	-65.5121	6	-0.00320557	10	0.012422
2	0	0	1	1	11050.6	-0.162679	-0.163118	-14.5077	6	-0.00526205	10	0.00236647
2	1	0	1	1	11050.7	-0.108694	-0.109152	19.7236	6	-0.00502268	10	-0.00215287
2	1	0	1	1	11050.7	-0.0546596	-0.0550731	39.651	6	-0.00337241	10	-0.0021837
2	1	0	1	1	11050.8	-0.000974387	-0.00136876	50.9558	6	-0.000905101	10	-6.97464e-05
2	1	0	1	0	13019.9	0.0473173	0.0469306	50.0144	7	0.00219669	10	0.00234721
2	1	0	1	0	13020	0.101302	0.100895	56.6076	7	0.00506471	10	0.00571141
2	1	0	1	0	13020	0.155337	0.154975	66.8491	7	0.00838061	10	0.01036
2	1	0	1	0	13020.1	0.209322	0.209035	78.1511	7	0.0123283	10	0.0163363
2	1	0	1	0	13020.2	0.263306	0.263046	64.8758	7	0.0163478	10	0.0170653
2	1	0	1	0	13020.2	0.288726	0.28855	27.083	7	0.0188359	10	0.00781479
2	0	0	1	0	13020.3	0.234741	0.234475	-10.5403	7	0.0190254	10	-0.00247143
2	0	0	1	0	13020.3	0.180706	0.180436	-22.0457	7	0.0181075	10	-0.00397784
2	0	0	1	0	13020.4	0.126721	0.126439	-33.8833	7	0.0166428	10	-0.00428417
2	0	0	1	0	13020.4	0.0727366	0.072619	-57.0163	7	0.0141881	10	-0.00414047
2	0	0	1	0	13020.5	0.0187018	0.0183612	-69.1989	7	0.0106967	10	-0.00127057
2	0	0	1	0	13020.5	-0.035283	-0.035621	-68.3961	7	0.0069459	10	0.00243633
2	0	0	1	0	13020.6	-0.0892678	-0.0896423	-61.9002	7	0.00343228	10	0.00554888
2	0	0	1	0	13020.6	-0.143253	-0.143553	-60.9293	7	0.000144995	10	0.00874661
2	0	0	1	0	13020.7	-0.197287	-0.197597	-64.358	7	-0.00322848	10	0.012717
2	0	0	1	1	13020.7	-0.154689	-0.155106	-9.40645	7	-0.00485629	10	0.00145899
2	1	0	1	1	13020.8	-0.100654	-0.101082	20.5663	7	-0.00447747	10	-0.00207888
2	1	0	1	1	13020.8	-0.0466692	-0.0470352	38.4666	7	-0.00284357	10	-0.00180928
2	1	0	1	0	14990	0.00132284	0.000903688	43.8036	8	4.81227e-05	10	3.95848e-05
2	1	0	1	0	14990.1	0.0553076	0.0549272	52.8738	8	0.00270812	10	0.00290421
2	1	0	1	0	14990.1	0.109342	0.108939	60.1355	8	0.00574315	10	0.0065511
2	1	0	1	0	14990.2	0.163327	0.162982	71.5252	8	0.00927717	10	0.0116573
2	1	0	1	0	14990.2	0.217312	0.216981	79.4714	8	0.0134356	10	0.0172437
2	1	0	1	0	14990.3	0.271347	0.271065	58.1696	8	0.0172505	10	0.0157677
2	1	0	1	0	14990.3	0.280735	0.28049	13.3384	8	0.0192629	10	0.0037413
2	0	0	1	0	14990.4	0.226701	0.226438	-15.3956	8	0.0190182	10	-0.00348616
2	0	0	1	0	14990.4	0.172716	0.172423	-24.9865	8	0.0179059	10	-0.00430826
2	0	0	1	0	14990.5	0.118731	0.118402	-39.1736	8	0.0162436	10	-0.00463824
2	0	0	1	0	14990.6	0.0647462	0.0645397	-63.0001	8	0.0134515	10	-0.00406601
2	0	0	1	0	14990.6	0.0107115	0.0103615	-71.2916	8	0.00974333	10	-0.000738685
2	0	0	1	0	14990.7	-0.0432733	-0.0436631	-67.7418	8	0.00595074	10	0.00295782
2	0	0	1	0	14990.7	-0.0972581	-0.0976611	-61.3091	8	0.00249136	10	0.00598752
2	0	0	1	0	14990.8	-0.151293	-0.151671	-61.7699	8	-0.00080575	10	0.00936869
2	0	0	0	1	14990.8	-0.199984	-0.200513	-64.8392	8	-0.00392959	10	0.0130011
2	0	0	1	1	14990.9	-0.146698	-0.147156	-1.64806	8	-0.00531605	10	0.000242521
2	1	0	1	1	14990.9	-0.0926637	-0.0930706	26.1607	8	-0.00458448	10	-0.00243479
2	1	0	1	1	14991	-0.0386789	-0.0391012	42.9159	8	-0.00268076	10	-0.00167806
2	1	0	1	0	16960.2	0.00931318	0.00896914	46.9372	9	0.000415863	10	0.000420986
2	1	0	1	0	16960.2	0.0633479	0.0629873	54.9424	9	0.00319435	10	0.00346067
2	1	0	1	0	16960.3	0.117333	0.117008	62.7927	9	0.0063549	10	0.00734723
2	1	0	1	0	16960.3	0.171317	0.170956	74.753	9	0.0100518	10	0.0127795
2	1	0	1	0	16960.4	0.225302	0.224963	79.0626	9	0.0143171	10	0.0177862
2	1	0	1	0	16960.4	0.279337	0.278985	55.3768	9	0.0179989	10	0.0154493
2	1	0	1	0	16960.5	0.272745	0.27251	6.01436	9	0.0196672	10	0.00163897
2	0	0	1	0	16960.5	0.21871	0.218406	-17.599	9	0.0192118	10	-0.00384373
2	0	0	1	0	16960.6	0.164725	0.164445	-26.904	9	0.0179964	10	-0.00442422
2	0	0	1	0	16960.6	0.110741	0.110472	-43.6654	9	0.0161717	10	-0.00482382
2	0	0	1	0	16960.7	0.0567059	0.056521	-66.4024	9	0.0131429	10	-0.00375313
2	0	0	1	0	16960.7	0.00272115	0.00239992	-72.1664	9	0.00933065	10	-0.000173194
2	0	0	1	0	16960.8	-0.0512637	-0.0516554	-67.3951	9	0.00552458	10	0.00348132
2	0	0	1	0	16960.9	-0.105298	-0.105674	-61.8469	9	0.00206746	10	0.00653558
2	0	0	1	0	16960.9	-0.159283	-0.159641	-62.8433	9	-0.00127683	10	0.0100324
2	0	0	1	1	16961	-0.192693	-0.193151	-48.7853	9	-0.00431981	10	0.00942291
2	1	0	1	1	16961	-0.138658	-0.139112	3.42606	9	-0.00530217	10	-0.000476608
2	1	0	1	1	16961.1	-0.0846733	-0.0851102	29.1182	9	-0.00436402	10	-0.00247826
2	1	0	1	1	16961.1	-0.0306885	-0.0310676	45.0464	9	-0.00232481	10	-0.00139948
2	1	0	1	0	18930.3	0.0173035	0.0169413	44.581	10	0.000729985	10	0.000755258
2	1	0	1	0	18930.4	0.0713382	0.0709732	51.9133	10	0.00335345	10	0.00368445
2	1	0	1	0	18930.4	0.125323	0.12499	59.636	10	0.00635084	10	0.00745392
2	1	0	1	0	18930.5	0.179308	0.17895	70.7913	10	0.00986037	10	0.0126681
2	1	0	1	0	18930.5	0.233343	0.233026	74.3862	10	0.0138808	10	0.0173339
2	1	0	1	0	18930.6	0.287327	0.287032	54.8982	10	0.017413	10	0.0157575
2	1	0	1	0	18930.6	0.264705	0.264451	5.75878	10	0.018899	10	0.00152291
2	0	0	1	0	18930.7	0.21072	0.210399	-15.2805	10	0.0185362	10	-0.00321499
2	0	0	1	0	18930.7	0.156735	0.156473	-25.1778	10	0.0174327	10	-0.00393964
2	0	0	1	0	18930.8	0.102703	0.102458	-42.4054	10	0.0156771	10	-0.00434476
2	0	0	1	0	18930.8	0.0487156	0.048482	-61.9163	10	0.0128054	10	-0.00300183
2	0	0	1	0	18930.9	-0.0052692	-0.00565811	-67.4861	10	0.00925739	10	0.000381844
2	0	0	1	0	18930.9	-0.059254	-0.059619	-64.0646	10	0.00567255	10	0.00381947
2	0	0	1	0	18931	-0.113289	-0.113652	-59.977	10	0.00234797	10	0.00681651
2	0	0	1	0	18931	-0.167274	-0.167631	-61.1136	10	-0.000903718	10	0.0102445
2	0	0	1	1	18931.1	-0.184653	-0.185072	-37.5081	10	-0.00369829	10	0.00694169
2	1	0	1	1	18931.2	-0.130668	-0.131107	3.86669	10	-0.00445505	10	-0.000506952
2	1	0	1	1	18931.2	-0.076683	-0.0771359	26.6848	10	-0.00358211	10	-0.00205836
2	1	0	1	1	18931.3	-0.0226982	-0.0231018	41.3661	10	-0.00171176	10	-0.000955632
2	1	0	1	0	20900.4	0.0253438	0.0249654	44.5204	11	0.00105514	10	0.00111147
2	1	0	1	0	20900.5	0.0793286	0.0789528	51.4116	11	0.00365588	10	0.00405909
2	1	0	1	0	20900.5	0.133313	0.132934	59.2944	11	0.00663213	10	0.00788224
2	1	0	1	0	20900.6	0.187348	0.18701	70.1293	11	0.0101224	10	0.0131149
2	1	0	1	0	20900.7	0.241333	0.241008	70.5867	11	0.0140289	10	0.017012
2	1	0	1	0	20900.7	0.295318	0.295032	51.4103	11	0.0173396	10	0.0151677
2	1	0	1	0	20900.8	0.256714	0.256456	1.72294	11	0.0184402	10	0.00044186
2	0	0	1	0	20900.8	0.202729	0.202399	-16.2731	11	0.0179651	10	-0.00329366
2	0	0	1	0	20900.9	0.148745	0.14843	-25.9634	11	0.0168221	10	-0.00385373
2	0	0	1	0	20900.9	0.09471	0.0944474	-44.2674	11	0.0149844	10	-0.00418094
2	0	0	1	0	20901	0.0407252	0.0405014	-61.23	11	0.0120753	10	-0.0024799
2	0	0	1	0	20901	-0.0132596	-0.0136154	-65.2997	11	0.00861332	10	0.000889082
2	0	0	1	0	20901.1	-0.0672943	-0.0676527	-61.4865	11	0.0051653	10	0.00415973
2	0	0	1	0	20901.1	-0.121279	-0.121617	-58.1902	11	0.00195905	10	0.0070769
2	0	0	1	0	20901.2	-0.175264	-0.175622	-59.5397	11	-0.00120685	10	0.0104565
2	0	0	1	1	20901.2	-0.176662	-0.17705	-28.2383	11	-0.00368959	10	0.00499957
2	1	0	1	1	20901.3	-0.122677	-0.123157	6.65509	11	-0.00416228	10	-0.000819617
2	1	0	1	1	20901.3	-0.0686926	-0.069098	27.3964	11	-0.00320179	10	-0.00189303
2	1	0	1	1	20901.4	-0.0146579	-0.0150268	41.0413	11	-0.00132398	10	-0.00061672
2	1	0	1	0	22870.6	0.0333342	0.0329852	48.2633	12	0.0014962	10	0.00159198
2	1	0	1	0	22870.6	0.0873189	0.0868422	55.0347	12	0.00429068	10	0.00477933
2	1	0	1	0	22870.7	0.141304	0.140964	63.9562	12	0.00749236	10	0.00901554
2	1	0	1	0	22870.7	0.195338	0.194994	74.8867	12	0.0112571	10	0.0146025
2	1	0	1	0	22870.8	0.249323	0.248985	68.8683	12	0.0152658	10	0.0171472
2	1	0	0	0	22870.8	0.300012	0.299708	49.623	12	0.0182529	10	0.0148724
2	0	0	1	0	22870.9	0.248724	0.248434	-4.16268	12	0.0190261	10	-0.00103415
2	0	0	1	0	22870.9	0.194739	0.194464	-19.4873	12	0.018323	10	-0.00378957
2	0	0	1	0	22871	0.140704	0.140428	-29.7949	12	0.0170075	10	-0.00418404
2	0	0	1	0	22871.1	0.0867197	0.0864318	-51.0099	12	0.0148674	10	-0.00440888
2	0	0	1	0	22871.1	0.0327349	0.0324402	-65.7291	12	0.0116414	10	-0.00213226
2	0	0	1	0	22871.2	-0.0212915	-0.0216363	-67.3892	12	0.00800732	10	0.00145806
2	0	0	1	0	22871.2	-0.0752846	-0.0756333	-62.1477	12	0.00450007	10	0.00470043
2	0	0	1	0	22871.3	-0.129269	-0.129619	-59.8754	12	0.00123192	10	0.00776096
2	0	0	1	0	22871.3	-0.183254	-0.18354	-61.8436	12	-0.00204557	10	0.0113508
2	0	0	1	1	22871.4	-0.168672	-0.169069	-20.3844	12	-0.0042791	10	0.00344637
2	1	0	1	1	22871.4	-0.114687	-0.115162	12.1666	12	-0.00440747	10	-0.00140113
2	1	0	1	1	22871.5	-0.0606523	-0.0610506	32.2903	12	-0.00316903	10	-0.00197134
2	1	0	1	1	22871.5	-0.00666751	-0.00705361	45.2145	12	-0.00104697	10	-0.000318925
2	1	0	1	0	24840.7	0.0413245	0.0409457	47.4823	13	0.00180843	10	0.00194419
2	1	0	1	0	24840.8	0.0953093	0.0948536	54.1771	13	0.00455463	10	0.00513889
2	1	0	1	0	24840.8	0.149344	0.148981	63.2487	13	0.00771274	10	0.00942285
2	1	0	1	0	24840.9	0.203329	0.202979	72.9032	13	0.0114159	10	0.0147978
2	1	0	1	0	24840.9	0.257314	0.257014	64.8596	13	0.0152475	10	0.0166698
2	1	0	1	0	24841	0.294718	0.294523	38.2322	13	0.0179143	10	0.0112603
2	0	0	1	0	24841	0.240734	0.240468	-5.67591	13	0.0185052	10	-0.00136487
2	0	0	1	0	24841.1	0.186735	0.1864	-19.5112	13	0.0177744	10	-0.00363688
2	0	0	1	0	24841.1	0.132714	0.132425	-30.4409	13	0.016451	10	-0.00403113
2	0	0	1	0	24841.2	0.0787293	0.078447	-51.4671	13	0.0142538	10	-0.00403744
2	0	0	1	0	24841.2	0.0247445	0.0244574	-63.7273	13	0.0110757	10	-0.00155861
2	0	0	1	0	24841.3	-0.0292902	-0.0296604	-64.6933	13	0.00757077	10	0.00191883
2	0	0	1	0	24841.4	-0.083275	-0.0836436	-59.9531	13	0.00420293	10	0.00501469
2	0	0	1	0	24841.4	-0.13726	-0.137672	-58.5382	13	0.00102627	10	0.00805909
2	0	0	1	0	24841.5	-0.191295	-0.19165	-60.6241	13	-0.00218413	10	0.0116186
2	0	0	1	1	24841.5	-0.160681	-0.161165	-14.9071	13	-0.0040354	10	0.00240249
2	1	0	1	1	24841.6	-0.106697	-0.107194	13.7224	13	-0.00399519	10	-0.00147096
2	1	0	1	1	24841.6	-0.052662	-0.0530678	32.216	13	-0.00272031	10	-0.00170963
2	1	0	0	1	24841.7	-0.000175352	-0.000554371	43.928	13	-0.00069512	10	-2.43524e-05
2	1	0	1	0	26810.9	0.0493149	0.0489465	48.8446	14	0.00220357	10	0.00239077
2	1	0	1	0	26810.9	0.103319	0.102958	55.7687	14	0.00502376	10	0.00574185
2	1	0	1	0	26811	0.157334	0.156962	65.0812	14	0.00827215	10	0.0102152
2	1	0	1	0	26811	0.211319	0.210962	73.6265	14	0.0120587	10	0.0155324
2	1	0	1	0	26811.1	0.265304	0.265012	63.2371	14	0.0158528	10	0.0167586
2	1	0	1	0	26811.1	0.286728	0.286509	27.8443	14	0.0183319	10	0.00797764
2	0	0	1	0	26811.2	0.232743	0.232434	-8.18816	14	0.0186548	10	-0.00190321
2	0	0	1	0	26811.2	0.178709	0.178384	-21.1019	14	0.0178223	10	-0.00376424
2	0	0	1	0	26811.3	0.124724	0.124374	-33.0573	14	0.0163979	10	-0.00411148
2	0	0	1	0	26811.3	0.070739	0.0705204	-54.0204	14	0.0140367	10	-0.00380954
2	0	0	1	0	26811.4	0.0167043	0.0163867	-64.699	14	0.0107669	10	-0.0010602
2	0	0	1	0	26811.4	-0.0372805	-0.0376463	-64.749	14	0.00723509	10	0.00243756
2	0	0	1	0	26811.5	-0.0912653	-0.0915924	-60.0301	14	0.00386972	10	0.00549831
2	0	0	1	0	26811.5	-0.145286	-0.145645	-59.0901	14	0.000674906	10	0.00860615
2	0	0	1	0	26811.6	-0.199085	-0.199395	-60.9814	14	-0.00254896	10	0.0121594
2	0	0	1	1	26811.6	-0.152691	-0.15313	-9.96577	14	-0.00403554	10	0.00152606
2	1	0	1	1	26811.7	-0.0986564	-0.0991107	16.4904	14	-0.0038004	10	-0.00163438
2	1	0	1	1	26811.8	-0.0446716	-0.0451021	34.0454	14	-0.00240477	10	-0.00153552
2	1	0	1	0	28780.9	0.00332042	0.00298951	36.4864	15	0.000111657	10	0.000109076
2	1	0	1	0	28781	0.0573052	0.0569366	45.6277	15	0.00236225	10	0.00259789
2	1	0	1	0	28781	0.11134	0.110913	52.2939	15	0.00500272	10	0.00580009
2	1	0	1	0	28781.1	0.165325	0.16499	61.1565	15	0.0080536	10	0.0100902
2	1	0	1	0	28781.2	0.219309	0.218947	68.6192	15	0.0115994	10	0.0150239
2	1	0	1	0	28781.2	0.273344	0.273082	59.5799	15	0.0151427	10	0.0162702
2	1	0	1	0	28781.3	0.278738	0.27847	22.0897	15	0.0173539	10	0.00615134
2	0	0	1	0	28781.3	0.224703	0.224412	-7.3839	15	0.017605	10	-0.00165704
2	0	0	1	0	28781.4	0.170718	0.170449	-19.4818	15	0.0168464	10	-0.00332066
2	0	0	1	0	28781.4	0.116733	0.116403	-31.9362	15	0.0154983	10	-0.00371748
2	0	0	1	0	28781.5	0.0627403	0.0625483	-50.6601	15	0.0132463	10	-0.00316871
2	0	0	1	0	28781.5	0.00871391	0.00841561	-59.8941	15	0.0102098	10	-0.000504045
2	0	0	1	0	28781.6	-0.0452709	-0.0456111	-60.2884	15	0.00693156	10	0.00274982
2	0	0	1	0	28781.6	-0.0992557	-0.0996324	-56.7699	15	0.0037746	10	0.00565612
2	0	0	1	0	28781.7	-0.15329	-0.153655	-56.4557	15	0.000734884	10	0.00867469
2	0	0	1	1	28781.7	-0.198686	-0.199213	-54.9977	15	-0.00203397	10	0.0109563
2	0	0	1	1	28781.8	-0.14467	-0.145083	-7.50789	15	-0.00346878	10	0.00108926
2	1	0	1	1	28781.8	-0.0906661	-0.0911312	15.6873	15	-0.00320207	10	-0.00142961
2	1	0	1	1	28781.9	-0.0366813	-0.0370737	31.5525	15	-0.00189845	10	-0.00116977
2	1	0	1	0	30751.1	0.0113108	0.010932	38.7503	16	0.000415006	10	0.000423617
2	1	0	1	0	30751.1	0.0653455	0.0649639	47.1931	16	0.00275872	10	0.00306585
2	1	0	1	0	30751.2	0.11933	0.118952	54.2214	16	0.00548941	10	0.00644976
2	1	0	1	0	30751.2	0.173315	0.172976	63.46	16	0.00865575	10	0.010977
2	1	0	1	0	30751.3	0.227314	0.226973	68.9272	16	0.0122875	10	0.0156446
2	1	0	1	0	30751.3	0.281335	0.281009	57.7696	16	0.0157731	10	0.0162338
2	1	0	1	0	30751.4	0.270747	0.270493	16.0932	16	0.017704	10	0.0043531
2	0	0	1	0	30751.4	0.216713	0.21641	-9.37779	16	0.0177692	10	-0.00202945
2	0	0	1	0	30751.5	0.162728	0.162458	-20.9786	16	0.016924	10	-0.00340813
2	0	0	1	0	30751.6	0.108743	0.108469	-35.2338	16	0.0154563	10	-0.00382178
2	0	0	1	0	30751.6	0.0547083	0.0544701	-53.3535	16	0.013028	10	-0.00290617
2	0	0	1	0	30751.7	0.000723562	0.00036288	-60.9683	16	0.00989712	10	-2.21242e-05
2	0	0	1	0	30751.7	-0.0532612	-0.0536299	-60.3533	16	0.00659128	10	0.00323674
2	0	0	1	0	30751.8	-0.107296	-0.107632	-57.2242	16	0.00342603	10	0.00615917
2	0	0	1	0	30751.8	-0.161281	-0.161649	-57.3059	16	0.000349153	10	0.00926345
2	0	0	1	1	30751.9	-0.190695	-0.191115	-43.1057	16	-0.00237936	10	0.00823814
2	0	0	1	1	30751.9	-0.136661	-0.137062	-3.55948	16	-0.0034796	10	0.000487868
2	1	0	1	1	30752	-0.0826757	-0.0831389	18.2719	16	-0.00304311	10	-0.0015191
2	1	0	1	1	30752	-0.0286909	-0.0290539	33.4599	16	-0.00161937	10	-0.000972141
2	1	0	1	0	32721.2	0.0193011	0.0189433	43.5902	17	0.000791301	10	0.000825743
2	1	0	1	0	32721.3	0.0733358	0.0729657	51.4407	17	0.0033754	10	0.00375341
2	1	0	1	0	32721.3	0.127321	0.12693	58.9941	17	0.00634825	10	0.00748811
2	1	0	1	0	32721.4	0.181305	0.180965	69.0211	17	0.00980243	10	0.0124904
2	1	0	1	0	32721.4	0.23534	0.234981	69.8765	17	0.0136414	10	0.0164196
2	1	0	1	0	32721.5	0.289325	0.289028	53.6659	17	0.0170101	10	0.0155109
2	1	0	1	0	32721.5	0.262707	0.26242	6.47933	17	0.018441	10	0.00170031
2	0	0	1	0	32721.6	0.208722	0.208408	-14.649	17	0.0181248	10	-0.00305297
2	0	0	1	0	32721.6	0.154737	0.15441	-25.1713	17	0.0170373	10	-0.00388671
2	0	0	1	0	32721.7	0.100703	0.100456	-42.4262	17	0.0152733	10	-0.00426195
2	0	0	1	0	32721.7	0.046718	0.046516	-59.4768	17	0.0124623	10	-0.00276662
2	0	0	1	0	32721.8	-0.00726679	-0.00761774	-64.2422	17	0.00907699	10	0.000489381
2	0	0	1	0	32721.9	-0.0612544	-0.0616115	-61.1232	17	0.00566894	10	0.0037659
2	0	0	1	0	32721.9	-0.115286	-0.115664	-58.1631	17	0.00246621	10	0.00672735
2	0	0	1	0	32722	-0.169271	-0.169618	-59.0618	17	-0.000686141	10	0.010018
2	0	0	1	1	32722	-0.182655	-0.183083	-33.1878	17	-0.00330562	10	0.00607614
2	1	0	1	1	32722.1	-0.12867	-0.129148	2.81254	17	-0.00400126	10	-0.000363233
2	1	0	1	1	32722.1	-0.0746854	-0.0751158	24.1257	17	-0.00323644	10	-0.00181223
2	1	0	1	1	32722.2	-0.0206756	-0.0210998	38.9085	17	-0.0015072	10	-0.00082096
2	1	0	1	0	34691.4	0.0273414	0.0269982	41.3083	18	0.00104714	10	0.00111525
2	1	0	1	0	34691.4	0.0813262	0.0809177	48.4317	18	0.00348195	10	0.00391898
2	1	0	1	0	34691.5	0.135311	0.134963	55.7528	18	0.0062869	10	0.00752459
2	1	0	1	0	34691.5	0.189346	0.18899	65.2068	18	0.00955362	10	0.0123234
2	1	0	1	0	34691.6	0.24333	0.242975	65.4934	18	0.0131624	10	0.0159133
2	1	0	1	0	34691.6	0.297315	0.297048	51.33	18	0.016342	10	0.0152474
2	1	0	1	0	34691.7	0.254717	0.25445	5.08646	18	0.0175027	10	0.00129425
2	0	0	1	0	34691.7	0.200732	0.200453	-13.4577	18	0.0172025	10	-0.00269763
2	0	0	1	0	34691.8	0.146747	0.146473	-23.8178	18	0.0161893	10	-0.00348867
2	0	0	1	0	34691.8	0.0927124	0.0924507	-40.7702	18	0.0144896	10	-0.00376924
2	0	0	1	0	34691.9	0.0387276	0.0384431	-55.5676	18	0.0118348	10	-0.00213619
2	0	0	1	0	34691.9	-0.0152571	-0.0156153	-60.0769	18	0.00867349	10	0.000938121
2	0	0	1	0	34692	-0.0692919	-0.0696505	-57.7923	18	0.00547225	10	0.00402526
2	0	0	1	0	34692	-0.123277	-0.123651	-55.7059	18	0.00242368	10	0.00688807
2	0	0	1	0	34692.1	-0.177261	-0.177582	-56.9198	18	-0.000607262	10	0.0101079
2	0	0	1	1	34692.1	-0.174665	-0.175034	-26.6199	18	-0.00292631	10	0.00465938
2	1	0	1	1	34692.2	-0.12068	-0.121148	3.85171	18	-0.00345218	10	-0.000466627
2	1	0	1	1	34692.3	-0.066695	-0.0671161	23.0749	18	-0.00269256	10	-0.0015487
2	1	0	1	1	34692.3	-0.0126603	-0.0130735	36.4597	18	-0.0010599	10	-0.000476657
2	1	0	1	0	36661.5	0.0353317	0.0349936	41.5563	19	0.00134534	10	0.00145421
2	1	0	1	0	36661.5	0.0893165	0.0889036	48.6206	19	0.00378855	10	0.00432255
2	1	0	1	0	36661.6	0.143301	0.142962	56.0994	19	0.00660826	10	0.00802009
2	1	0	1	0	36661.7	0.197336	0.196941	65.1143	19	0.00988872	10	0.0128237
2	1	0	1	0	36661.7	0.251321	0.250997	64.6555	19	0.0134665	10	0.0162284
2	1	0	1	0	36661.8	0.299812	0.299537	52.3529	19	0.0163548	10	0.0156816
2	1	0	1	0	36661.8	0.246726	0.24644	3.56818	19	0.0175369	10	0.000879341
2	0	0	1	0	36661.9	0.192742	0.19245	-13.8962	19	0.017195	10	-0.00267433
2	0	0	1	0	36661.9	0.138707	0.138413	-24.7764	19	0.0161508	10	-0.00342937
2	0	0	1	0	36662	0.0847221	0.0844923	-42.1434	19	0.0143735	10	-0.00356079
2	0	0	1	0	36662	0.0307373	0.030506	-55.4713	19	0.0116875	10	-0.00169221
2	0	0	1	0	36662.1	-0.0232974	-0.0236532	-59.6627	19	0.0085428	10	0.00141122
2	0	0	1	0	36662.1	-0.0772822	-0.0776173	-57.5154	19	0.00536464	10	0.00446419
2	0	0	1	0	36662.2	-0.131267	-0.131619	-55.7477	19	0.00232041	10	0.00733743
2	0	0	1	0	36662.2	-0.185252	-0.185602	-56.8261	19	-0.000711572	10	0.010547
2	0	0	1	1	36662.3	-0.166674	-0.16709	-21.7452	19	-0.00277226	10	0.0036334
2	1	0	1	1	36662.3	-0.112689	-0.113135	5.47334	19	-0.00314353	10	-0.000619224
2	1	0	1	1	36662.4	-0.0586547	-0.0590644	23.6334	19	-0.00232932	10	-0.00139589
2	1	0	1	1	36662.4	-0.00466992	-0.00508761	36.3871	19	-0.000685589	10	-0.000185123
2	1	0	1	0	38631.6	0.0433221	0.0429626	44.2139	20	0.00174345	10	0.00189954
2	1	0	1	0	38631.7	0.0973069	0.0969542	51.1401	20	0.00432264	10	0.00495825
2	1	0	1	0	38631.7	0.151342	0.150994	59.1509	20	0.00728997	10	0.00893141
2	1	0	1	0	38631.8	0.205326	0.205003	67.4386	20	0.010731	10	0.0138251
2	1	0	1	0	38631.8	0.259311	0.258965	63.057	20	0.0143322	10	0.0163296
2	1	0	1	0	38631.9	0.292721	0.292536	38.6979	20	0.0169989	10	0.0113205
2	0	0	1	0	38631.9	0.238736	0.238411	-1.62626	20	0.0177821	10	-0.000387719
2	0	0	1	0	38632	0.184701	0.184441	-16.9356	20	0.0172303	10	-0.00312362
2	0	0	1	0	38632.1	0.130717	0.13046	-28.0787	20	0.016031	10	-0.00366314
2	0	0	1	0	38632.1	0.0767317	0.0764227	-46.7284	20	0.014021	10	-0.00357111
2	0	0	1	0	38632.2	0.022747	0.0224734	-58.2556	20	0.0111343	10	-0.0013092
2	0	0	1	0	38632.2	-0.0312878	-0.0316434	-60.5387	20	0.00789074	10	0.00191565
2	0	0	1	0	38632.3	-0.0852726	-0.0856828	-57.5332	20	0.00469742	10	0.00492961
2	0	0	1	0	38632.3	-0.139257	-0.139586	-56.3085	20	0.0016392	10	0.0078599
2	0	0	1	0	38632.4	-0.193292	-0.193626	-57.6749	20	-0.00143385	10	0.0111674
2	0	0	1	1	38632.4	-0.158684	-0.159099	-15.7093	20	-0.00317192	10	0.00249934
2	1	0	1	1	38632.5	-0.104699	-0.105191	9.76062	20	-0.00327505	10	-0.00102673
2	1	0	1	1	38632.5	-0.0506644	-0.0510446	27.2616	20	-0.00224681	10	-0.00139156
2	1	0	1	1	38632.6	2.44065e-05	-0.000306236	38.8277	20	-0.000550976	10	-1.18904e-05
2	1	0	1	0	40601.8	0.0513124	0.0509549	42.4601	21	0.00195681	10	0.00216355
2	1	0	1	0	40601.8	0.105347	0.104936	49.2947	21	0.00443583	10	0.00517278
2	1	0	1	0	40601.9	0.159332	0.15895	57.0885	21	0.0072976	10	0.00907421
2	1	0	1	0	40601.9	0.213317	0.212948	64.6998	21	0.0106106	10	0.0137777
2	1	0	1	0	40602	0.267301	0.266985	60.8671	21	0.0140676	10	0.0162506
2	1	0	1	0	40602	0.28473	0.284542	32.0318	21	0.0165633	10	0.00911439
2	0	0	1	0	40602.1	0.230746	0.230509	-1.31432	21	0.0172412	10	-0.000302963
2	0	0	1	0	40602.1	0.176711	0.176401	-15.852	21	0.0167346	10	-0.00279631
2	0	0	1	0	40602.2	0.122726	0.122412	-27.5981	21	0.0155814	10	-0.00337835
2	0	0	1	0	40602.2	0.0687414	0.068459	-45.1375	21	0.0136126	10	-0.00309007
2	0	0	1	0	40602.3	0.0147067	0.0144154	-55.5846	21	0.0108507	10	-0.000801273
2	0	0	1	0	40602.4	-0.0392781	-0.0396643	-58.0128	21	0.00775222	10	0.00230104
2	0	0	1	0	40602.4	-0.0932629	-0.0936369	-55.8742	21	0.00467249	10	0.00523188
2	0	0	1	0	40602.5	-0.147298	-0.147689	-55.2276	21	0.00168633	10	0.00815652
2	0	0	0	0	40602.5	-0.199984	-0.200246	-56.6394	21	-0.00125723	10	0.0113418
2	0	0	1	1	40602.6	-0.150694	-0.151125	-13.0401	21	-0.00276626	10	0.00197068
2	1	0	1	1	40602.6	-0.0966588	-0.0971681	9.97987	21	-0.00280317	10	-0.000969725
2	1	0	1	1	40602.7	-0.042674	-0.0430481	26.1622	21	-0.00180212	10	-0.00112623
2	1	0	1	0	42571.9	0.00531801	0.00495656	35.5537	22	0.000177604	10	0.000176224
2	1	0	1	0	42571.9	0.0593028	0.0589355	44.8684	22	0.00237843	10	0.00264434
2	1	0	1	0	42572	0.113337	0.112875	51.6514	22	0.00498506	10	0.00583017
2	1	0	1	0	42572	0.167322	0.16694	60.1156	22	0.00799343	10	0.0100357
2	1	0	1	0	42572.1	0.221307	0.220971	66.0188	22	0.0114429	10	0.0145882
2	1	0	1	0	42572.1	0.275342	0.275013	58.4505	22	0.0148651	10	0.0160747
2	1	0	1	0	42572.2	0.27674	0.276489	22.8229	22	0.0170454	10	0.0063103
2	0	0	1	0	42572.2	0.222705	0.222432	-5.61156	22	0.017386	10	-0.00124819
2	0	0	1	0	42572.3	0.168721	0.168397	-18.5516	22	0.0167004	10	-0.00312403
2	0	0	1	0	42572.3	0.114736	0.114427	-31.5477	22	0.0153844	10	-0.0036099
2	0	0	1	0	42572.4	0.0607011	0.0604593	-49.2102	22	0.0131786	10	-0.00297521
2	0	0	1	0	42572.4	0.00671632	0.00640826	-57.6535	22	0.0102521	10	-0.000369458
2	0	0	1	0	42572.5	-0.0472685	-0.047628	-58.2978	22	0.0070911	10	0.00277661
2	0	0	1	0	42572.5	-0.101253	-0.101651	-55.8509	22	0.00401204	10	0.00567733
2	0	0	1	0	42572.6	-0.155288	-0.155648	-55.7377	22	0.00101169	10	0.00867548
2	0	0	1	1	42572.6	-0.196688	-0.197146	-50.0477	22	-0.00170356	10	0.00986672
2	0	0	1	1	42572.7	-0.142653	-0.143084	-7.79934	22	-0.00305492	10	0.00111596
2	1	0	1	1	42572.8	-0.0886685	-0.0891546	13.9693	22	-0.00285052	10	-0.00124543
2	1	0	1	1	42572.8	-0.0346837	-0.0350674	29.5592	22	-0.00165027	10	-0.00103657
2	1	0	1	0	44542	0.0133084	0.0129754	38.0802	23	0.000478243	10	0.000494104
2	1	0	1	0	44542	0.0673431	0.0669819	46.5578	23	0.0027849	10	0.00311853
2	1	0	1	0	44542.1	0.121328	0.120977	53.3843	23	0.00547958	10	0.00645825
2	1	0	1	0	44542.2	0.175313	0.174959	62.0872	23	0.00858955	10	0.0108627
2	1	0	1	0	44542.2	0.229347	0.229027	66.1347	23	0.0121075	10	0.0151466
2	1	0	1	0	44542.3	0.283332	0.283027	56.1066	23	0.0154596	10	0.0158797
2	1	0	1	0	44542.3	0.268714	0.268464	15.8182	23	0.0173107	10	0.00424663
2	0	0	1	0	44542.4	0.214715	0.214412	-8.82551	23	0.0173971	10	-0.0018923
2	0	0	1	0	44542.4	0.16073	0.160439	-20.7339	23	0.0165738	10	-0.00332652
2	0	0	1	0	44542.5	0.106745	0.106489	-34.9378	23	0.0151153	10	-0.0037205
2	0	0	1	0	44542.5	0.0527108	0.0524617	-51.7825	23	0.0127349	10	-0.0027166
2	0	0	1	0	44542.6	-0.00127403	-0.00159463	-58.7777	23	0.0097114	10	9.37288e-05
2	0	0	1	0	44542.6	-0.0552588	-0.0556012	-58.177	23	0.00652699	10	0.00323471
2	0	0	1	0	44542.7	-0.109294	-0.109643	-55.7836	23	0.00345804	10	0.00611626
2	0	0	1	0	44542.7	-0.163278	-0.163636	-56.0472	23	0.000451317	10	0.00917136
2	0	0	1	1	44542.8	-0.188698	-0.189117	-39.4166	23	-0.00217543	10	0.00745435
2	0	0	1	1	44542.8	-0.134663	-0.135097	-3.55605	23	-0.00319914	10	0.000480411
2	1	0	1	1	44542.9	-0.0806781	-0.0811199	17.2123	23	-0.00279658	10	-0.00139626
2	1	0	1	1	44542.9	-0.0266933	-0.0271261	32.1245	23	-0.00143994	10	-0.000871411
2	1	0	1	0	46512.1	0.0213403	0.0209719	38.538	24	0.000765335	10	0.000808214
2	1	0	1	0	46512.2	0.0753334	0.07499	46.3263	24	0.00307194	10	0.00347401
2	1	0	1	0	46512.2	0.129318	0.128973	53.242	24	0.00575521	10	0.0068668
2	1	0	1	0	46512.3	0.183303	0.182905	61.8216	24	0.00885921	10	0.0113075
2	1	0	1	0	46512.3	0.237338	0.236984	64.2616	24	0.0123245	10	0.015229
2	1	0	1	0	46512.4	0.291322	0.290977	53.6902	24	0.0155499	10	0.0156226
2	1	0	1	0	46512.4	0.260709	0.260438	11.5278	24	0.0170877	10	0.00300228
2	0	0	1	0	46512.5	0.206725	0.206397	-9.98245	24	0.017047	10	-0.00206034
2	0	0	1	0	46512.6	0.15274	0.152451	-21.3676	24	0.0161828	10	-0.0032575
2	0	0	1	0	46512.6	0.0987052	0.0984399	-36.616	24	0.0146606	10	-0.00360447
2	0	0	1	0	46512.7	0.0447204	0.0445002	-51.8485	24	0.0122277	10	-0.00230727
2	0	0	1	0	46512.7	-0.00926438	-0.00961449	-57.7735	24	0.0092311	10	0.000555462
2	0	0	1	0	46512.8	-0.0632991	-0.063655	-56.8276	24	0.0061163	10	0.00361736
2	0	0	1	0	46512.8	-0.117284	-0.117626	-54.7972	24	0.00311311	10	0.0064456
2	0	0	1	0	46512.9	-0.171269	-0.171562	-55.355	24	0.000148742	10	0.00949681
2	0	0	1	1	46512.9	-0.180657	-0.181092	-31.5184	24	-0.0022754	10	0.00570772
2	0	0	1	1	46513	-0.126673	-0.127057	-0.673201	24	-0.00304903	10	8.55347e-05
2	1	0	1	1	46513	-0.0726878	-0.0730555	18.6552	24	-0.00253403	10	-0.00136286
2	1	0	1	1	46513.1	-0.018653	-0.0190415	32.6617	24	-0.00112624	10	-0.000621928
2	1	0	1	0	48482.3	0.029339	0.0289992	38.8421	25	0.00104718	10	0.00112639
2	1	0	1	0	48482.3	0.0833238	0.0829643	46.2619	25	0.00335722	10	0.00383809
2	1	0	1	0	48482.4	0.137309	0.136934	53.2201	25	0.00603936	10	0.00728763
2	1	0	1	0	48482.4	0.191343	0.190932	61.5011	25	0.00913836	10	0.0117425
2	1	0	1	0	48482.5	0.245328	0.245021	63.134	25	0.0125602	10	0.0154692
2	1	0	1	0	48482.5	0.299013	0.298692	52.9272	25	0.0157129	10	0.0158089
2	1	0	1	0	48482.6	0.252719	0.252436	9.01452	25	0.0170124	10	0.00227559
2	0	0	1	0	48482.6	0.198734	0.198432	-10.7109	25	0.0168973	10	-0.00212538
2	0	0	1	0	48482.7	0.144719	0.14444	-22.0396	25	0.0160012	10	-0.0031834
2	0	0	1	0	48482.7	0.0907148	0.0904412	-37.6578	25	0.0144234	10	-0.00340582
2	0	0	1	0	48482.8	0.0367301	0.0365111	-51.6183	25	0.0119701	10	-0.00188464
2	0	0	1	0	48482.9	-0.0172547	-0.0176651	-57.0837	25	0.00900067	10	0.00100839
2	0	0	1	0	48482.9	-0.0712895	-0.0716345	-56.1857	25	0.00592339	10	0.00402484
2	0	0	1	0	48483	-0.125274	-0.125622	-54.483	25	0.00294405	10	0.00684426
2	0	0	1	0	48483	-0.179259	-0.179612	-55.0728	25	-5.83006e-06	10	0.00989172
2	0	0	1	1	48483.1	-0.172667	-0.173054	-26.0438	25	-0.00220974	10	0.00450698
2	1	0	1	1	48483.1	-0.118682	-0.119129	1.37864	25	-0.00280323	10	-0.000164236
2	1	0	1	1	48483.2	-0.0646974	-0.065095	19.5575	25	-0.00221082	10	-0.00127309
2	1	0	1	1	48483.2	-0.0106627	-0.0110651	32.8319	25	-0.00077444	10	-0.000363289
2	1	0	1	0	50452.4	0.0373293	0.0369427	40.1524	26	0.00136361	10	0.00148334
2	1	0	1	0	50452.5	0.0913141	0.0909205	47.325	26	0.00373454	10	0.00430282
2	1	0	1	0	50452.5	0.145335	0.144939	54.535	26	0.00647838	10	0.00790423
2	1	0	1	0	50452.6	0.199334	0.198958	62.375	26	0.00964718	10	0.01241
2	1	0	1	0	50452.6	0.253318	0.25298	61.4819	26	0.0130498	10	0.0155537
2	1	0	1	0	50452.7	0.298714	0.298516	49.2235	26	0.0157801	10	0.014694
2	1	0	1	0	50452.7	0.244729	0.244438	4.71759	26	0.016985	10	0.00115316
2	0	0	1	0	50452.8	0.190744	0.190429	-12.6713	26	0.016713	10	-0.00241298
2	0	0	1	0	50452.8	0.136709	0.136367	-23.8725	26	0.0157247	10	-0.00325543
2	0	0	1	0	50452.9	0.0827245	0.08245	-40.5356	26	0.0140072	10	-0.00334216
2	0	0	1	0	50452.9	0.0287397	0.0284859	-52.7675	26	0.0114425	10	-0.00150313
2	0	0	1	0	50453	-0.025295	-0.0256447	-56.8889	26	0.00844752	10	0.0014589
2	0	0	1	0	50453	-0.0792798	-0.0796533	-55.3819	26	0.0054053	10	0.00441136
2	0	0	1	0	50453.1	-0.133265	-0.133636	-54.1808	26	0.00245713	10	0.00724053
2	0	0	1	0	50453.2	-0.187299	-0.187663	-55.1357	26	-0.00048817	10	0.0103469
2	0	0	1	1	50453.2	-0.164677	-0.16507	-20.4199	26	-0.00241907	10	0.00337071
2	1	0	1	1	50453.3	-0.110692	-0.111164	4.60784	26	-0.00278785	10	-0.000512228
2	1	0	1	1	50453.3	-0.0566571	-0.0570942	21.9044	26	-0.00204725	10	-0.00125061
2	1	0	1	1	50453.4	-0.00267234	-0.00314707	34.4269	26	-0.000504997	10	-0.000108344
2	1	0	1	0	52422.5	0.0453197	0.0449869	40.3321	27	0.00164486	10	0.00181441
2	1	0	1	0	52422.6	0.0993045	0.0989266	47.2324	27	0.00401549	10	0.00467254
2	1	0	1	0	52422.7	0.153339	0.152939	54.4989	27	0.00675477	10	0.00833504
2	1	0	1	0	52422.7	0.207324	0.206994	61.9456	27	0.00991786	10	0.0128223
2	1	0	1	0	52422.8	0.261309	0.260963	59.8538	27	0.0132628	10	0.0156196
2	1	0	1	0	52422.8	0.290723	0.290482	38.3609	27	0.0158487	10	0.0111431
2	1	0	1	0	52422.9	0.236738	0.236478	2.1887	27	0.0167793	10	0.000517579
2	0	0	1	0	52422.9	0.182704	0.182416	-13.7118	27	0.0164208	10	-0.00250125
2	0	0	1	0	52423	0.128719	0.128378	-25.1682	27	0.0153797	10	-0.00323105
2	0	0	1	0	52423	0.0747342	0.0744376	-41.9273	27	0.0135732	10	-0.00312096
2	0	0	1	0	52423.1	0.0207244	0.0204608	-52.723	27	0.0109761	10	-0.00107875
2	0	0	1	0	52423.1	-0.0332854	-0.0336613	-55.9068	27	0.00801075	10	0.0018819
2	0	0	1	0	52423.2	-0.0872702	-0.0876032	-54.3847	27	0.00502617	10	0.00476427
2	0	0	1	0	52423.2	-0.141255	-0.141603	-53.6491	27	0.0021193	10	0.00759689
2	0	0	1	0	52423.3	-0.19529	-0.195662	-54.8662	27	-0.000807309	10	0.0107352
2	0	0	1	1	52423.3	-0.156686	-0.157114	-16.3115	27	-0.00244595	10	0.00256277
2	1	0	1	1	52423.4	-0.102654	-0.103148	6.6988	27	-0.00265925	10	-0.000690965
2	1	0	1	1	52423.4	-0.0486668	-0.0490447	23.0092	27	-0.00183421	10	-0.00112848
2	1	0	1	0	54392.6	2.44065e-05	-0.00042076	32.101	28	0.0000000E+000	10	-1.35068e-05
2	1	0	1	0	54392.7	0.05331	0.0528891	42.5181	28	0.00202838	10	0.00224874
2	1	0	1	0	54392.7	0.107345	0.106934	49.3583	28	0.00451155	10	0.00527807
2	1	0	1	0	54392.8	0.16133	0.160923	57.1004	28	0.00737555	10	0.00918879
2	1	0	1	0	54392.8	0.215314	0.214936	62.9158	28	0.0106532	10	0.0135229
2	1	0	1	0	54392.9	0.26933	0.268954	57.3453	28	0.0139524	10	0.0154233
2	1	0	1	0	54392.9	0.282733	0.282493	28.1045	28	0.0162587	10	0.00793931
2	0	0	1	0	54393	0.228748	0.228467	-2.46335	28	0.0168184	10	-0.000562794
2	0	0	1	0	54393.1	0.174713	0.174344	-16.405	28	0.0162708	10	-0.0028601
2	0	0	1	0	54393.1	0.120729	0.120373	-28.3859	28	0.0150854	10	-0.00341691
2	0	0	1	0	54393.2	0.0667438	0.0664951	-45.5045	28	0.0130744	10	-0.00302583
2	0	0	1	0	54393.2	0.0127091	0.0123868	-54.6134	28	0.0103319	10	-0.000676487
2	0	0	1	0	54393.3	-0.0412757	-0.041677	-56.0787	28	0.00731331	10	0.00233719
2	0	0	1	0	54393.3	-0.0952605	-0.0956071	-54.154	28	0.00433667	10	0.00517751
2	0	0	1	0	54393.4	-0.149295	-0.149655	-53.87	28	0.00143126	10	0.00806192
2	0	0	1	0	54393.4	-0.200184	-0.200532	-54.8675	28	-0.00133811	10	0.0110027
2	0	0	1	1	54393.5	-0.148696	-0.149139	-10.8078	28	-0.00276351	10	0.00161186
2	1	0	1	1	54393.5	-0.0946612	-0.0951522	10.7758	28	-0.0027243	10	-0.00102534
2	1	0	1	1	54393.6	-0.0406764	-0.0410863	26.3747	28	-0.00169833	10	-0.00108364
2	1	0	1	0	56362.8	0.0073156	0.00693952	31.4226	29	0.000216898	10	0.000218058
2	1	0	1	0	56362.8	0.0613032	0.0609481	40.3122	29	0.00217684	10	0.00245695
2	1	0	1	0	56362.9	0.115335	0.114929	46.9334	29	0.00453487	10	0.00539402
2	1	0	1	0	56362.9	0.16932	0.168909	54.3877	29	0.00726273	10	0.00918659
2	1	0	1	0	56363	0.223305	0.222927	59.7673	29	0.0103786	10	0.0133238
2	1	0	1	0	56363	0.277339	0.276983	55.3542	29	0.0135331	10	0.0153322
2	1	0	1	0	56363.1	0.274742	0.274402	24.3453	29	0.0156422	10	0.00668038
2	0	0	1	0	56363.1	0.220708	0.22043	-2.04922	29	0.0161453	10	-0.00045171
2	0	0	1	0	56363.2	0.166723	0.166344	-15.3412	29	0.0156441	10	-0.00255192
2	0	0	1	0	56363.2	0.112738	0.112444	-27.5966	29	0.0145098	10	-0.00310306
2	0	0	1	0	56363.3	0.0587035	0.0583862	-43.1318	29	0.012579	10	-0.0025183
2	0	0	1	0	56363.4	0.00471873	0.00437334	-51.5273	29	0.0099913	10	-0.000225346
2	0	0	1	0	56363.4	-0.0492661	-0.0496735	-53.3865	29	0.00713179	10	0.00265189
2	0	0	1	0	56363.5	-0.10327	-0.103645	-52.1732	29	0.00428096	10	0.00540749
2	0	0	1	0	56363.5	-0.157286	-0.157661	-52.1474	29	0.00147341	10	0.00822162
2	0	0	1	1	56363.6	-0.19469	-0.195171	-44.4263	29	-0.00104895	10	0.00867072
2	0	0	1	1	56363.6	-0.140656	-0.141082	-8.98868	29	-0.00233416	10	0.00126814
2	1	0	1	1	56363.7	-0.0866709	-0.0871504	10.506	29	-0.00226117	10	-0.000915606
2	1	0	1	1	56363.7	-0.0326861	-0.033128	24.8447	29	-0.00128573	10	-0.000823055
2	1	0	1	0	58332.9	0.0153059	0.0149074	33.9788	30	0.000487788	10	0.000506536
2	1	0	1	0	58333	0.0693407	0.0689712	42.3296	30	0.00256587	10	0.00291952
2	1	0	1	0	58333	0.123325	0.122884	48.9352	30	0.0050309	10	0.00601338
2	1	0	1	0	58333.1	0.17731	0.176888	56.6847	30	0.00787816	10	0.0100268
2	1	0	1	0	58333.1	0.231345	0.230948	60.715	30	0.0110899	10	0.014022
2	1	0	1	0	58333.2	0.28533	0.284977	54.3738	30	0.0142389	10	0.0154953
2	1	0	1	0	58333.2	0.266702	0.266373	18.6639	30	0.0160887	10	0.00497157
2	0	0	1	0	58333.3	0.212717	0.212373	-4.89115	30	0.0163769	10	-0.00103875
2	0	0	1	0	58333.3	0.158733	0.158356	-17.3949	30	0.0157499	10	-0.00275459
2	0	0	1	0	58333.4	0.104748	0.104412	-30.7622	30	0.0144816	10	-0.00321195
2	0	0	1	0	58333.4	0.0507132	0.050448	-45.8696	30	0.0123809	10	-0.00231403
2	0	0	1	0	58333.5	-0.00327161	-0.00363167	-53.2111	30	0.00967486	10	0.000193245
2	0	0	1	0	58333.5	-0.0572564	-0.05767	-54.1108	30	0.00675368	10	0.00312057
2	0	0	1	0	58333.6	-0.111291	-0.111707	-52.8795	30	0.00386734	10	0.00590703
2	0	0	1	0	58333.7	-0.165276	-0.165607	-53.1685	30	0.00101299	10	0.00880506
2	0	0	1	1	58333.7	-0.186686	-0.187127	-36.4908	30	-0.00144888	10	0.0068284
2	0	0	1	1	58333.8	-0.132665	-0.133146	-5.34602	30	-0.00246955	10	0.000711799
2	1	0	1	1	58333.8	-0.0786806	-0.0791454	13.4759	30	-0.00222121	10	-0.00106656
2	1	0	1	1	58333.9	-0.0246957	-0.025142	27.3989	30	-0.00109632	10	-0.000688863
2	1	0	1	0	60303	0.0233462	0.0229633	34.1295	31	0.00073434	10	0.000783726
2	1	0	1	0	60303.1	0.077331	0.07692	41.9431	31	0.00280128	10	0.00322626
2	1	0	1	0	60303.2	0.131316	0.130864	48.5356	31	0.00524536	10	0.00635156
2	1	0	1	0	60303.2	0.185301	0.184946	56.1597	31	0.0080724	10	0.0103865
2	1	0	1	0	60303.3	0.239335	0.23898	59.3264	31	0.0112324	10	0.0141778
2	1	0	1	0	60303.3	0.29332	0.292952	52.9393	31	0.0143008	10	0.0155087
2	1	0	1	0	60303.4	0.258712	0.258482	15.4634	31	0.0159022	10	0.00399701
2	0	0	1	0	60303.4	0.204727	0.204431	-5.72753	31	0.0160967	10	-0.00117088
2	0	0	1	0	60303.5	0.150742	0.150418	-17.82	31	0.0154415	10	-0.00268044
2	0	0	1	0	60303.5	0.0967076	0.0963668	-31.8382	31	0.0141306	10	-0.00306815
2	0	0	1	0	60303.6	0.0427228	0.0424981	-45.6573	31	0.0120046	10	-0.00194035
2	0	0	1	0	60303.6	-0.011262	-0.011642	-52.2961	31	0.00933083	10	0.00060883
2	0	0	1	0	60303.7	-0.0652967	-0.0657058	-53.0508	31	0.00646676	10	0.00348574
2	0	0	1	0	60303.7	-0.119282	-0.119696	-52.0625	31	0.00363183	10	0.0062317
2	0	0	1	0	60303.8	-0.173266	-0.173672	-52.4756	31	0.000816538	10	0.00911355
2	0	0	1	1	60303.8	-0.17866	-0.179084	-30.1407	31	-0.00145382	10	0.00539774
2	0	0	1	1	60303.9	-0.124675	-0.125133	-3.17821	31	-0.00227679	10	0.0003977
2	1	0	1	1	60303.9	-0.0706902	-0.0711329	14.3834	31	-0.00194884	10	-0.00102314
2	1	0	1	1	60304	-0.0166554	-0.0170861	27.5408	31	-0.000797416	10	-0.000470565
2	1	0	1	0	62273.2	0.0313366	0.0309503	34.8197	32	0.000993077	10	0.00107768
2	1	0	1	0	62273.2	0.0853214	0.0849207	42.193	32	0.00308328	10	0.00358306
2	1	0	1	0	62273.3	0.139306	0.138816	48.7539	32	0.00553798	10	0.00676782
2	1	0	1	0	62273.3	0.193341	0.192913	56.1793	32	0.00837632	10	0.0108377
2	1	0	1	0	62273.4	0.247326	0.246943	58.0534	32	0.0115033	10	0.0143359
2	1	0	1	0	62273.4	0.299812	0.299479	51.126	32	0.0143989	10	0.0153112
2	1	0	1	0	62273.5	0.250722	0.250468	11.4028	32	0.0157596	10	0.00285604
2	0	0	1	0	62273.6	0.196737	0.196385	-7.50938	32	0.0158064	10	-0.00147473
2	0	0	1	0	62273.6	0.142702	0.142422	-19.1034	32	0.0150759	10	-0.00272075
2	0	0	1	0	62273.7	0.0887173	0.0884212	-33.6273	32	0.0136768	10	-0.00297336
2	0	0	1	0	62273.7	0.0347325	0.0344602	-46.2126	32	0.0114846	10	-0.0015925
2	0	0	1	0	62273.8	-0.0192523	-0.0196788	-51.84	32	0.00880839	10	0.00102015
2	0	0	1	0	62273.8	-0.0732871	-0.0736885	-52.0679	32	0.00598699	10	0.00383681
2	0	0	1	0	62273.9	-0.127272	-0.127648	-51.276	32	0.00320128	10	0.0065453
2	0	0	1	0	62273.9	-0.181257	-0.181602	-51.9833	32	0.000419261	10	0.00944026
2	0	0	1	1	62274	-0.170669	-0.171101	-24.7117	32	-0.00162678	10	0.00422819
2	0	0	1	1	62274	-0.116685	-0.117141	-0.481543	32	-0.00224783	10	5.64084e-05
2	1	0	1	1	62274.1	-0.0626915	-0.0631481	16.0927	32	-0.00180354	10	-0.00101622
2	1	0	1	1	62274.1	-0.0086651	-0.00904293	28.4937	32	-0.000580728	10	-0.000257667
2	1	0	1	0	64243.3	0.0393269	0.0389659	37.684	33	0.00133788	10	0.00146839
2	1	0	1	0	64243.4	0.0933117	0.0929236	44.7742	33	0.00357313	10	0.00416058
2	1	0	1	0	64243.4	0.147346	0.146985	51.666	33	0.00617173	10	0.00759415
2	1	0	1	0	64243.5	0.201331	0.200928	58.7005	33	0.00916551	10	0.0117946
2	1	0	1	0	64243.5	0.255316	0.254993	58.0631	33	0.0123649	10	0.0148057
2	1	0	1	0	64243.6	0.296716	0.29652	45.0926	33	0.0149678	10	0.0133709
2	1	0	1	0	64243.6	0.242731	0.242448	6.21407	33	0.0161639	10	0.00150659
2	0	0	1	0	64243.7	0.188746	0.188417	-10.8018	33	0.0159894	10	-0.00203525
2	0	0	1	0	64243.7	0.134712	0.13438	-22.2162	33	0.0150961	10	-0.00298541
2	0	0	1	0	64243.8	0.0807269	0.0804702	-37.9599	33	0.0134852	10	-0.00305464
2	0	0	1	0	64243.9	0.0267421	0.026486	-49.206	33	0.0110914	10	-0.00130327
2	0	0	1	0	64243.9	-0.0272926	-0.0276276	-53.3596	33	0.00829143	10	0.0014742
2	0	0	1	0	64244	-0.0812774	-0.0816999	-52.6371	33	0.00542042	10	0.00430044
2	0	0	1	0	64244	-0.135262	-0.135635	-51.9402	33	0.0026032	10	0.00704493
2	0	0	1	0	64244.1	-0.189297	-0.189621	-52.7808	33	-0.000219692	10	0.0100083
2	0	0	1	1	64244.1	-0.162679	-0.163114	-19.3049	33	-0.00201463	10	0.0031489
2	1	0	1	1	64244.2	-0.108694	-0.109168	3.51263	33	-0.00239139	10	-0.000383466
2	1	0	1	1	64244.2	-0.0546596	-0.0550816	19.7182	33	-0.00174195	10	-0.00108611
2	1	0	1	1	64244.3	-0.000974387	-0.00140694	31.6335	33	-0.000344752	10	-4.45064e-05
2	1	0	1	0	66213.5	0.0473173	0.0469635	38.8177	34	0.00163949	10	0.00182302
2	1	0	1	0	66213.5	0.101302	0.100879	45.7385	34	0.00392982	10	0.00461405
2	1	0	1	0	66213.6	0.155337	0.15494	52.6935	34	0.00658217	10	0.00816436
2	1	0	1	0	66213.6	0.209322	0.208983	59.4016	34	0.00962712	10	0.0124139
2	1	0	1	0	66213.7	0.263306	0.26302	57.9854	34	0.0128435	10	0.0152513
2	1	0	1	0	66213.7	0.288726	0.288506	37.2413	34	0.01536	10	0.0107443
2	1	0	1	0	66213.8	0.234741	0.234488	3.761	34	0.016331	10	0.000881909
2	0	0	1	0	66213.8	0.180706	0.180435	-12.2346	34	0.0160585	10	-0.00220755
2	0	0	1	0	66213.9	0.126721	0.126409	-23.8409	34	0.0150899	10	-0.00301371
2	0	0	1	0	66213.9	0.0727366	0.0724642	-39.6973	34	0.0133763	10	-0.00287663
2	0	0	1	0	66214	0.0187018	0.0184842	-50.1654	34	0.0109141	10	-0.000927266
2	0	0	1	0	66214	-0.035283	-0.0355775	-53.7746	34	0.00807792	10	0.00191317
2	0	0	1	0	66214.1	-0.0892678	-0.0896657	-53.0276	34	0.00518704	10	0.00475475
2	0	0	1	0	66214.2	-0.143253	-0.143615	-52.5858	34	0.00234275	10	0.00755211
2	0	0	1	0	66214.2	-0.197287	-0.197641	-53.6941	34	-0.000524015	10	0.0106121
2	0	0	1	1	66214.3	-0.154689	-0.155128	-16.1227	34	-0.0020842	10	0.00250108
2	1	0	1	1	66214.3	-0.100654	-0.101077	5.61503	34	-0.0023264	10	-0.000567549
2	1	0	1	1	66214.4	-0.0466692	-0.047031	21.3249	34	-0.0015781	10	-0.00100293
2	1	0	1	0	68183.5	0.00132284	0.000886721	31.5302	35	3.46254e-05	10	2.79585e-05
2	1	0	1	0	68183.6	0.0553076	0.0549643	41.6383	35	0.0020467	10	0.00228862
2	1	0	1	0	68183.6	0.109342	0.108972	48.4417	35	0.00448298	10	0.00527878
2	1	0	1	0	68183.7	0.163327	0.163012	55.7754	35	0.00728841	10	0.00909207
2	1	0	1	0	68183.8	0.217312	0.216981	61.1597	35	0.0104795	10	0.0132705
2	1	0	1	0	68183.8	0.271347	0.271014	56.604	35	0.0137056	10	0.0153405
2	1	0	1	0	68183.9	0.280735	0.280494	28.0493	35	0.0159767	10	0.00786766
2	0	0	1	0	68183.9	0.226701	0.226461	-1.31867	35	0.0165838	10	-0.000298626
2	0	0	1	0	68184	0.172716	0.172424	-15.5734	35	0.0160919	10	-0.00268524
2	0	0	1	0	68184	0.118731	0.118452	-27.6975	35	0.0149439	10	-0.00328081
2	0	0	1	0	68184.1	0.0647462	0.0645122	-44.0051	35	0.0129902	10	-0.00283887
2	0	0	1	0	68184.1	0.0107115	0.0104124	-53.0522	35	0.0103329	10	-0.000552398
2	0	0	1	0	68184.2	-0.0432733	-0.0436175	-54.8772	35	0.00738979	10	0.00239361
2	0	0	1	0	68184.2	-0.0972581	-0.0975604	-53.4175	35	0.00446465	10	0.00521143
2	0	0	1	0	68184.3	-0.151293	-0.151637	-53.2858	35	0.00159323	10	0.00808009
2	0	0	0	1	68184.3	-0.199984	-0.200532	-53.9557	35	-0.00105848	10	0.0108199
2	0	0	1	1	68184.4	-0.146698	-0.147146	-10.9849	35	-0.0025086	10	0.00161639
2	1	0	1	1	68184.4	-0.0926637	-0.0931396	9.80645	35	-0.0025041	10	-0.000913368
2	1	0	1	1	68184.5	-0.0386789	-0.0390938	25.1099	35	-0.0015397	10	-0.000981642
2	1	0	1	1	68184.5	2.44065e-05	-0.000382585	33.4716	35	-0.000398271	10	-1.28058e-05