File: Figure_codes/Fig_3-5/rawdata_trumpetplot_data/after 10th/20221101_1-115_003_TrumpetPlot_ParaChange_from10_every3_14_CV_C01_31.csv
mode,ox/red,error,control changes,counter inc.,time/s,control/V,Ewe/V,<I>/mA,cycle number,(Q-Qo)/C,I Range,P/W,log(|I|),Tafel slope mV/dec,alpha_eff,dI/d(E-IR),E-IR/V,
2,1,0,1,0,62273.1,2.44065e-05,-0.000363498,28.0743,32,0.0000000E+000,10,-1.02049e-05,-1.55169, , , ,-0.000363498,
2,1,0,1,0,62273.2,0.00332042,0.00294921,29.287,32,8.94599e-05,10,8.63736e-05,-1.53332, , , ,0.00294921,
2,1,0,1,0,62273.2,0.0073156,0.00686953,30.2627,32,0.000208702,10,0.000207891,-1.51909, , , ,0.00686953,
2,1,0,1,0,62273.2,0.0113108,0.0109426,31.1375,32,0.000331621,10,0.000340723,-1.50672,0.333569,0.176875,213.72,0.0109426,
2,1,0,1,0,62273.2,0.0153059,0.0149191,31.9463,32,0.00045787,10,0.00047661,-1.49558,0.367731,0.160443,199.369,0.0149191,
2,1,0,1,0,62273.2,0.0193011,0.0189083,32.6978,32,0.000587258,10,0.000618261,-1.48548,0.398159,0.148182,188.668,0.0189083,
2,1,0,1,0,62273.2,0.0233462,0.0229623,33.4711,32,0.000719724,10,0.000768572,-1.47533,0.428595,0.137659,179.236,0.0229623,
2,1,0,1,0,62273.2,0.0273414,0.0269483,34.1572,32,0.000855045,10,0.000920481,-1.46652,0.456289,0.129304,171.872,0.0269483,
2,1,0,1,0,62273.2,0.0313366,0.0309503,34.8197,32,0.000993077,10,0.00107768,-1.45817,0.492407,0.11982,162.514,0.0309503,
2,1,0,1,0,62273.2,0.0353317,0.0349618,35.4569,32,0.0011337,10,0.00123964,-1.4503,0.51712,0.114093,157.639,0.0349618,
2,1,0,1,0,62273.2,0.0393269,0.0389436,36.0683,32,0.00127682,10,0.00140463,-1.44287,0.541866,0.108883,153.093,0.0389436,
2,1,0,1,0,62273.2,0.0433221,0.0429414,36.6784,32,0.00142238,10,0.00157502,-1.43559,0.569137,0.103666,148.182,0.04294138,
2,1,0,1,0,62273.2,0.0473173,0.0469052,37.2623,32,0.00157031,10,0.00174779,-1.42873,0.59512,0.0991396,143.96,0.0469052,
2,1,0,1,0,62273.2,0.0513124,0.050922,37.822,32,0.00172055,10,0.00192597,-1.42226,0.625643,0.094303,139.032,0.050922,
2,1,0,1,0,62273.2,0.0553076,0.0549367,38.3707,32,0.001873,10,0.00210796,-1.416,0.640992,0.0920448,137.791,0.0549367,
2,1,0,1,0,62273.2,0.0593028,0.0589005,38.8972,32,0.00202759,10,0.00229106,-1.41008,0.666017,0.0885863,134.461,0.0589005,
2,1,0,1,0,62273.2,0.0633479,0.062965,39.4752,32,0.00218437,10,0.00248556,-1.40368,0.688338,0.0857137,131.858,0.062965,
2,1,0,1,0,62273.2,0.0673431,0.0669925,39.9828,32,0.00234334,10,0.00267855,-1.39813,0.70732,0.0834135,129.986,0.0669925,
2,1,0,1,0,62273.2,0.0713382,0.0709616,40.4837,32,0.00250433,10,0.00287278,-1.39272,0.747874,0.0788903,124.573,0.0709616,
2,1,0,1,0,62273.2,0.0753334,0.0749254,40.9802,32,0.0026673,10,0.00307046,-1.38743,0.765848,0.0770388,123.145,0.0749254,
2,1,0,1,0,62273.2,0.0793286,0.078922,41.463,32,0.00283223,10,0.00327234,-1.38234,0.782018,0.0754459,122.053,0.078922,
2,1,0,1,0,62273.2,0.0833238,0.0829675,41.95,32,0.00299911,10,0.00348049,-1.37727,0.800447,0.0737088,120.638,0.0829675,
2,1,0,1,0,62273.2,0.0873189,0.0869588,42.4362,32,0.00316793,10,0.0036902,-1.37226,0.814945,0.0723975,119.835,0.0869588,
2,1,0,1,0,62273.2,0.0913141,0.0909152,42.9092,32,0.00333867,10,0.0039011,-1.36745,0.828188,0.0712398,119.262,0.0909152,
2,1,0,1,0,62273.2,0.0953093,0.094896,43.3772,32,0.0035113,10,0.00411633,-1.36274,0.832656,0.0708576,119.977,0.094896,
2,1,0,1,0,62273.2,0.0993045,0.0989457,43.8556,32,0.00368583,10,0.00433933,-1.35797,0.835136,0.0706472,120.962,0.0989457,
2,1,0,1,0,62273.3,0.103319,0.102906,44.3495,32,0.00386227,10,0.00456384,-1.35311,0.839158,0.0703086,121.674,0.1029063,
2,1,0,1,0,62273.3,0.107345,0.106956,44.8495,32,0.00404077,10,0.00479692,-1.34824,0.845699,0.0697648,122.038,0.106956,
2,1,0,1,0,62273.3,0.11134,0.110889,45.3232,32,0.00422115,10,0.00502584,-1.34368,0.863187,0.0683514,120.872,0.110889,
2,1,0,1,0,62273.3,0.115335,0.114907,45.8035,32,0.00440345,10,0.00526314,-1.3391,0.871946,0.0676648,120.964,0.114907,
2,1,0,1,0,62273.3,0.11933,0.118947,46.2884,32,0.0045877,10,0.00550587,-1.33453,0.879412,0.0670903,121.193,0.118947,
2,1,0,1,0,62273.3,0.123325,0.122893,46.7773,32,0.00477388,10,0.00574859,-1.32997,0.887797,0.0664566,121.299,0.122893,
2,1,0,1,0,62273.3,0.127321,0.126897,47.2632,32,0.00496201,10,0.00599756,-1.32548,0.9052,0.065179,120.149,0.126897,
2,1,0,1,0,62273.3,0.131316,0.13093,47.7471,32,0.00515209,10,0.00625151,-1.32105,0.885863,0.0666017,124.137,0.13093,
2,1,0,1,0,62273.3,0.135311,0.134783,48.1911,32,0.00534402,10,0.00649535,-1.31703,0.868803,0.0679095,127.951,0.134783,
2,1,0,1,0,62273.3,0.139306,0.138816,48.7539,32,0.00553798,10,0.00676782,-1.31199,0.833681,0.0707704,134.832,0.138816,
2,1,0,1,0,62273.3,0.143301,0.142869,49.3068,32,0.00573414,10,0.00704441,-1.30709,0.815091,0.0723846,139.3,0.142869,
2,1,0,1,0,62273.3,0.147346,0.146931,49.9046,32,0.00593267,10,0.00733254,-1.30186,0.825879,0.071439,139.032,0.146931,
2,1,0,1,0,62273.3,0.151342,0.150983,50.4477,32,0.00613343,10,0.00761675,-1.29716,0.825699,0.0714546,140.625,0.150983,
2,1,0,1,0,62273.3,0.155337,0.154954,50.9977,32,0.00633637,10,0.00790231,-1.29245,0.836925,0.0704961,140.363,0.154954,
2,1,0,1,0,62273.3,0.159332,0.158932,51.5657,32,0.00654157,10,0.00819543,-1.28764,0.832139,0.0709017,142.714,0.158932,
2,1,0,1,0,62273.3,0.163327,0.162912,52.1476,32,0.00674905,10,0.00849545,-1.28277,0.836701,0.070515,143.479,0.162912,
2,1,0,1,0,62273.3,0.167322,0.166909,52.7206,32,0.00695884,10,0.00879956,-1.27802,0.851082,0.0693235,142.563,0.166909,
2,1,0,1,0,62273.3,0.171317,0.170949,53.2927,32,0.00717092,10,0.00911035,-1.27333,0.876418,0.0673195,139.925,0.1709494,
2,1,0,1,0,62273.3,0.175313,0.17488,53.8394,32,0.00738523,10,0.00941544,-1.2689,0.900697,0.0655049,137.575,0.17488,
2,1,0,1,0,62273.3,0.179308,0.178902,54.3851,32,0.00760174,10,0.00972964,-1.26452,0.916565,0.0643708,136.607,0.178902,
2,1,0,1,0,62273.3,0.183303,0.182928,54.9244,32,0.00782042,10,0.0100472,-1.26024,0.959724,0.061476,131.694,0.182928,
2,1,0,1,0,62273.3,0.187348,0.186942,55.4774,32,0.00804123,10,0.0103711,-1.25588,1.0104,0.0583926,126.224,0.186942,
2,1,0,1,0,62273.3,0.191343,0.190944,55.9549,32,0.00826417,10,0.0106843,-1.25216,1.08161,0.0545484,118.94,0.190944,
2,1,0,1,0,62273.3,0.195338,0.194903,56.4048,32,0.00848893,10,0.0109935,-1.24868,1.19112,0.0495331,108.919,0.194903,
2,1,0,1,0,62273.3,0.199334,0.198927,56.8273,32,0.00871545,10,0.0113045,-1.24544,1.30298,0.0452808,100.292,0.198927,
2,1,0,1,0,62273.4,0.203329,0.202925,57.2182,32,0.00894358,10,0.011611,-1.24247,1.47019,0.0401308,89.458,0.202925,
2,1,0,1,0,62273.4,0.207324,0.206931,57.5582,32,0.00917317,10,0.0119106,-1.23989,1.69672,0.0347731,77.9628,0.2069311,
2,1,0,1,0,62273.4,0.211319,0.210929,57.8384,32,0.00940401,10,0.0121998,-1.23778,2.06639,0.0285523,64.3319,0.210929,
2,1,0,1,0,62273.4,0.215314,0.214927,58.0747,32,0.00963587,10,0.0124818,-1.23601,2.56933,0.0229632,51.9549,0.214927,
2,1,0,1,0,62273.4,0.219309,0.218969,58.2503,32,0.00986856,10,0.012755,-1.2347,3.33189,0.0177077,40.1928,0.218969,
2,1,0,1,0,62273.4,0.223305,0.222961,58.3911,32,0.0101019,10,0.0130189,-1.23365,4.84612,0.0121747,27.6989,0.222961,
2,1,0,1,0,62273.4,0.227314,0.226944,58.4821,32,0.0103356,10,0.0132722,-1.23298,9.39349,0.00628095,14.3066,0.226944,
2,1,0,1,0,62273.4,0.231345,0.230949,58.5185,32,0.0105697,10,0.0135148,-1.23271,-440.95,-0.000133802,-0.304898,0.230949,
2,1,0,1,0,62273.4,0.23534,0.234946,58.4789,32,0.0108037,10,0.0137394,-1.233,-8.98064,-0.00656969,-14.9638,0.234946,
2,1,0,1,0,62273.4,0.239335,0.238944,58.3862,32,0.0110374,10,0.013951,-1.23369,-4.6147,-0.0127852,-29.0826,0.238944,
2,1,0,1,0,62273.4,0.24333,0.242952,58.2426,32,0.0112707,10,0.0141502,-1.23476,-3.1544,-0.018704,-42.4388,0.242952,
2,1,0,1,0,62273.4,0.247326,0.246943,58.0534,32,0.0115033,10,0.0143359,-1.23617,-2.37901,-0.0248002,-56.0746,0.246943,
2,1,0,1,0,62273.4,0.251321,0.250954,57.7996,32,0.011735,10,0.014505,-1.23808,-1.90491,-0.0309726,-69.7257,0.250954,
2,1,0,1,0,62273.4,0.255316,0.254966,57.4877,32,0.0119655,10,0.0146574,-1.24042,-1.58673,-0.0371835,-83.2745,0.254966,
2,1,0,1,0,62273.4,0.259311,0.25894,57.1278,32,0.0121948,10,0.0147927,-1.24315,-1.36791,-0.0431315,-95.9943,0.25894,
2,1,0,1,0,62273.4,0.263306,0.262932,56.7219,32,0.0124224,10,0.014914,-1.24625,-1.22679,-0.0480929,-106.296,0.262932,
2,1,0,1,0,62273.4,0.267302,0.266959,56.2632,32,0.0126484,10,0.0150199,-1.24978,-1.09308,-0.0539758,-118.324,0.266959,
2,1,0,1,0,62273.4,0.271347,0.270961,55.7876,32,0.0128725,10,0.0151162,-1.25346,-0.982038,-0.0600792,-130.524,0.2709606,
2,1,0,1,0,62273.4,0.275342,0.275027,55.2243,32,0.0130944,10,0.0151882,-1.25787,-0.900061,-0.0655511,-141.025,0.275027,
2,1,0,1,0,62273.4,0.279337,0.278984,54.6268,32,0.0133141,10,0.01524,-1.26259,-0.821542,-0.0718162,-152.908,0.278984,
2,1,0,1,0,62273.4,0.283332,0.282981,54.0036,32,0.0135313,10,0.015282,-1.26758,-0.772982,-0.0763278,-160.652,0.282981,
2,1,0,1,0,62273.4,0.287327,0.286948,53.343,32,0.0137459,10,0.0153067,-1.27292,-0.729165,-0.0809144,-168.226,0.286948,
2,1,0,1,0,62273.4,0.291322,0.291001,52.6581,32,0.0139579,10,0.0153236,-1.27854,-0.69684,-0.084668,-173.896,0.291001,
2,1,0,1,0,62273.4,0.295318,0.294949,51.941,32,0.014167,10,0.0153199,-1.28449,-0.676799,-0.0871751,-177.633,0.294949,
2,1,0,1,0,62273.4,0.299013,0.298682,51.2733,32,0.014358,10,0.0153144,-1.29011,-0.225744,-0.261358,-517.027,0.298682,
2,1,0,0,0,62273.4,0.300012,0.299594,51.0967,32,0.0144091,10,0.0153083,-1.29161,0.00572714,10.3018,19096.2,0.299594,
2,1,0,1,0,62273.5,0.298714,0.298522,48.7698,32,0.0144731,10,0.0145588,-1.31185,0.068832,0.85716,1499.98,0.298522,
2,1,0,1,0,62273.5,0.294718,0.294497,43.3145,32,0.0146563,10,0.012756,-1.36337,0.0809444,0.728896,1212.27,0.294497,
2,1,0,1,0,62273.5,0.290723,0.290478,38.9677,32,0.0148202,10,0.0113193,-1.40929,0.0854699,0.690301,1066.86,0.290478,
2,1,0,1,0,62273.5,0.286728,0.286422,35.1294,32,0.0149679,10,0.0100619,-1.45433,0.0880427,0.67013,925.291,0.286422,
2,1,0,1,0,62273.5,0.282733,0.282484,31.66,32,0.0151011,10,0.00894345,-1.49949,0.0871219,0.677212,839.883,0.282484,
2,1,0,1,0,62273.5,0.278738,0.278464,28.479,32,0.015221,10,0.00793037,-1.54548,0.0849077,0.694872,773.315,0.278464,
2,1,0,1,0,62273.5,0.274742,0.274482,25.5327,32,0.0153286,10,0.00700828,-1.5929,0.0821044,0.718597,714.903,0.274482,
2,1,0,1,0,62273.5,0.270747,0.270465,22.7897,32,0.0154249,10,0.00616381,-1.64226,0.0785934,0.750699,665.428,0.270465,
2,1,0,1,0,62273.5,0.266702,0.266428,20.1818,32,0.0155105,10,0.005377,-1.69504,0.074232,0.794806,624.05,0.266428,
2,1,0,1,0,62273.5,0.262707,0.26239,17.7831,32,0.0155862,10,0.00466611,-1.74999,0.0695793,0.847953,585.191,0.26239,
2,1,0,1,0,62273.5,0.258712,0.258453,15.5297,32,0.0156526,10,0.00401371,-1.80884,0.0643691,0.916588,550.055,0.258453,
2,1,0,1,0,62273.5,0.254717,0.254426,13.4033,32,0.0157102,10,0.00341016,-1.87279,0.0586995,1.00512,518.464,0.254426,
2,1,0,1,0,62273.5,0.250722,0.250468,11.4028,32,0.0157596,10,0.00285604,-1.94299,0.0528323,1.11674,486.747,0.250468,
2,1,0,1,0,62273.5,0.246726,0.246431,9.50889,32,0.0158012,10,0.00234329,-2.02187,0.0458838,1.28586,463.018,0.246431,
2,1,0,1,0,62273.5,0.242731,0.242391,7.71164,32,0.0158354,10,0.00186923,-2.11285,0.038971,1.51395,435.397,0.242391,
2,1,0,1,0,62273.5,0.238736,0.238487,6.02333,32,0.0158627,10,0.00143648,-2.22016,0.0309756,1.90472,413.162,0.238487,
2,1,0,1,0,62273.5,0.234741,0.234434,4.42148,32,0.0158834,10,0.00103655,-2.35443,0.021569,2.73541,395.003,0.234434,
2,1,0,1,0,62273.5,0.230746,0.230413,2.89066,32,0.0158978,10,0.000666046,-2.539,0.00725262,8.13499,373.004,0.230413,
2,1,0,1,0,62273.5,0.226701,0.226415,1.40104,32,0.0159063,10,0.000317217,-2.85355,0.0296376,1.99071,355.783,0.226415,
2,1,0,1,0,62273.5,0.222705,0.222437,0.0368935,32,0.015909,10,8.20649e-06,-4.43305,0.270112,0.218428,337.716,0.222437,
2,0,0,1,0,62273.5,0.21871,0.218424,-1.2746,32,0.0159064,10,-0.000278404,-2.89462,-0.037844,-1.55903,319.278,0.218424,
2,0,0,1,0,62273.5,0.214715,0.214387,-2.52154,32,0.0158987,10,-0.000540586,-2.59833,-0.00755546,-7.80892,306.008,0.214387,
2,0,0,1,0,62273.5,0.21072,0.2104,-3.7123,32,0.0158861,10,-0.000781067,-2.43036,-0.0239172,-2.46684,292.319,0.2104,
2,0,0,1,0,62273.5,0.206725,0.206419,-4.8649,32,0.0158688,10,-0.00100421,-2.31293,-0.0360026,-1.63877,280.775,0.206419,
2,0,0,1,0,62273.5,0.202729,0.20241,-5.95587,32,0.015847,10,-0.00120553,-2.22505,-0.0477933,-1.23448,269.23,0.20241,
2,0,0,1,0,62273.6,0.198734,0.198398,-7.0108,32,0.015821,10,-0.00139093,-2.15423,-0.0601184,-0.981397,257.1,0.198398,
2,0,0,1,0,62273.6,0.194739,0.194438,-8.00955,32,0.0157908,10,-0.00155736,-2.09639,-0.0719886,-0.819574,248.747,0.194438,
2,0,0,1,0,62273.6,0.190744,0.190422,-8.9778,32,0.0157567,10,-0.00170957,-2.04683,-0.0843758,-0.699253,240.032,0.190422,
2,0,0,1,0,62273.6,0.186735,0.186409,-9.93595,32,0.0157188,10,-0.00185215,-2.00279,-0.0967656,-0.609721,232.108,0.186409,
2,0,0,1,0,62273.6,0.182704,0.182359,-10.8606,32,0.0156771,10,-0.00198053,-1.96415,-0.109579,-0.538426,224.369,0.182359,
2,0,0,1,0,62273.6,0.178709,0.178385,-11.7357,32,0.0156318,10,-0.00209347,-1.93049,-0.123453,-0.477916,216.071,0.178385,
2,0,0,1,0,62273.6,0.174713,0.174369,-12.5795,32,0.0155831,10,-0.00219347,-1.90034,-0.13603,-0.433728,211.122,0.1743692,
2,0,0,1,0,62273.6,0.170718,0.170348,-13.4062,32,0.015531,10,-0.00228373,-1.87269,-0.148501,-0.397305,206.521,0.170348,
2,0,0,1,0,62273.6,0.166723,0.16637,-14.2364,32,0.0154757,10,-0.0023685,-1.8466,-0.160147,-0.368412,203.365,0.16637,
2,0,0,1,0,62273.6,0.162728,0.16239,-15.039,32,0.015417,10,-0.00244219,-1.82278,-0.170567,-0.345906,201.928,0.16239,
2,0,0,1,0,62273.6,0.158733,0.158368,-15.8336,32,0.0153552,10,-0.00250753,-1.80042,-0.181698,-0.324715,199.907,0.158368,
2,0,0,1,0,62273.6,0.154737,0.154407,-16.6252,32,0.0152902,10,-0.00256705,-1.77923,-0.190832,-0.309173,200.141,0.154407,
2,0,0,1,0,62273.6,0.150742,0.150444,-17.42,32,0.015222,10,-0.00262073,-1.75895,-0.195576,-0.301673,205.061,0.150444,
2,0,0,1,0,62273.6,0.146747,0.146406,-18.238,32,0.0151506,10,-0.00267016,-1.73902,-0.20241,-0.291487,207.404,0.146406,
2,0,0,1,0,62273.6,0.142702,0.142422,-19.1034,32,0.0150759,10,-0.00272075,-1.71889,-0.20828,-0.283273,210.776,0.142422,
2,0,0,1,0,62273.6,0.138707,0.138429,-19.9391,32,0.0149977,10,-0.00276015,-1.70029,-0.211008,-0.27961,217.464,0.138429,
2,0,0,1,0,62273.6,0.134712,0.134352,-20.8119,32,0.0149161,10,-0.00279611,-1.68169,-0.214784,-0.274695,223.471,0.1343516,
2,0,0,1,0,62273.6,0.130717,0.130394,-21.7201,32,0.014831,10,-0.00283217,-1.66314,-0.213251,-0.27667,235.062,0.130394,
2,0,0,1,0,62273.6,0.126721,0.126373,-22.6899,32,0.014742,10,-0.0028674,-1.64417,-0.211097,-0.279493,247.931,0.1263731,
2,0,0,1,0,62273.6,0.122726,0.122389,-23.7095,32,0.0146492,10,-0.00290178,-1.62508,-0.210655,-0.280078,259.45,0.122389,
2,0,0,1,0,62273.6,0.118731,0.118419,-24.7621,32,0.0145521,10,-0.0029323,-1.60621,-0.211033,-0.279577,270.505,0.118419,
2,0,0,1,0,62273.6,0.114736,0.114386,-25.8733,32,0.0144508,10,-0.00295955,-1.58715,-0.211679,-0.278724,281.638,0.114386,
2,0,0,1,0,62273.6,0.110741,0.110366,-27.0199,32,0.0143449,10,-0.00298208,-1.56832,-0.212433,-0.277735,293.12,0.110366,
2,0,0,1,0,62273.6,0.106745,0.106434,-28.203,32,0.0142343,10,-0.00300176,-1.54971,-0.217147,-0.271706,299.003,0.106434,
2,0,0,1,0,62273.6,0.102703,0.102394,-29.4593,32,0.0141189,10,-0.00301646,-1.53078,-0.223373,-0.264132,302.729,0.102394,
2,0,0,1,0,62273.7,0.0987052,0.0983868,-30.6572,32,0.0139986,10,-0.00301626,-1.51347,-0.233098,-0.253112,301.86,0.0983868,
2,0,0,1,0,62273.7,0.09471,0.0944188,-31.8476,32,0.0138734,10,-0.00300702,-1.49692,-0.244685,-0.241126,299.045,0.0944188,
2,0,0,1,0,62273.7,0.0907148,0.0904062,-33.0412,32,0.0137435,10,-0.00298713,-1.48094,-0.255972,-0.230494,296.566,0.0904062,
2,0,0,1,0,62273.7,0.0867197,0.0864891,-34.2156,32,0.0136089,10,-0.00295928,-1.46578,-0.268329,-0.21988,292.911,0.0864891,
2,0,0,1,0,62273.7,0.0827245,0.0824182,-35.3929,32,0.0134696,10,-0.00291702,-1.45108,-0.284019,-0.207732,286.007,0.0824182,
2,0,0,1,0,62273.7,0.0787293,0.0784427,-36.5272,32,0.0133256,10,-0.00286529,-1.43738,-0.301675,-0.195575,277.861,0.0784427,
2,0,0,1,0,62273.7,0.0747341,0.0744164,-37.6144,32,0.0131772,10,-0.00279913,-1.42465,-0.319893,-0.184437,269.957,0.0744164,
2,0,0,1,0,62273.7,0.070739,0.070408,-38.6839,32,0.0130245,10,-0.00272366,-1.41247,-0.34179,-0.172621,259.854,0.070408,
2,0,0,1,0,62273.7,0.0667438,0.0664697,-39.6984,32,0.0128676,10,-0.00263874,-1.40123,-0.36288,-0.162588,251.242,0.0664697,
2,0,0,1,0,62273.7,0.0627403,0.0624158,-40.6919,32,0.0127067,10,-0.00253981,-1.39049,-0.395174,-0.149301,236.213,0.0624158,
2,0,0,1,0,62273.7,0.0587035,0.0583777,-41.644,32,0.0125419,10,-0.00243108,-1.38045,-0.425706,-0.138593,224.303,0.0583777,
2,0,0,1,0,62273.7,0.0547083,0.0544521,-42.4529,32,0.0123736,10,-0.00231165,-1.37209,-0.455666,-0.129481,214.145,0.0544521,
2,0,0,1,0,62273.7,0.0507132,0.0504459,-43.2925,32,0.012202,10,-0.00218393,-1.36359,-0.495565,-0.119056,200.832,0.0504459,
2,0,0,1,0,62273.7,0.046718,0.0464556,-44.1097,32,0.0120271,10,-0.00204914,-1.35547,-0.523071,-0.112795,193.632,0.0464556,
2,0,0,1,0,62273.7,0.0427228,0.0424536,-44.842,32,0.0118491,10,-0.00190371,-1.34831,-0.56392,-0.104625,182.668,0.0424536,
2,0,0,1,0,62273.7,0.0387276,0.0384209,-45.5571,32,0.0116682,10,-0.00175034,-1.34144,-0.615846,-0.0958032,169.949,0.0384209,
2,0,0,1,0,62273.7,0.0347325,0.0344602,-46.2126,32,0.0114846,10,-0.0015925,-1.33524,-0.65865,-0.0895771,161.229,0.03446025,
2,0,0,1,0,62273.7,0.0307373,0.0304721,-46.826,32,0.0112984,10,-0.00142689,-1.32951,-0.709682,-0.0831358,151.689,0.0304721,
2,0,0,1,0,62273.7,0.0267421,0.0264595,-47.4208,32,0.0111099,10,-0.00125473,-1.32403,-0.748693,-0.078804,145.672,0.0264595,
2,0,0,1,0,62273.7,0.022747,0.0225243,-47.9684,32,0.010919,10,-0.00108046,-1.31904,-0.806051,-0.0731964,136.874,0.0225243,
2,0,0,1,0,62273.7,0.0187018,0.0184958,-48.5382,32,0.0107259,10,-0.000897754,-1.31392,-0.871046,-0.0677347,128.052,0.01849583,
2,0,0,1,0,62273.7,0.0147067,0.0144451,-49.0197,32,0.0105308,10,-0.000708094,-1.30963,-0.930068,-0.0634362,121.156,0.0144451,
2,0,0,1,0,62273.7,0.0107115,0.0104134,-49.4755,32,0.0103337,10,-0.000515209,-1.30561,-1.02668,-0.057467,110.848,0.0104134,
2,0,0,1,0,62273.7,0.00671632,0.0064125,-49.9204,32,0.0101349,10,-0.000320115,-1.30172,-1.10411,-0.0534365,103.965,0.0064125,
2,0,0,1,0,62273.7,0.00272115,0.00239674,-50.3227,32,0.00993435,10,-0.00012061,-1.29824,-1.21933,-0.0483874,94.8607,0.00239674,
2,0,0,1,0,62273.8,-0.00127403,-0.00165826,-50.6939,32,0.00973223,10,8.40634e-05,-1.29504,-1.38137,-0.0427112,84.3341,-0.00165826,
2,0,0,1,0,62273.8,-0.0052692,-0.0056422,-50.9986,32,0.00952881,10,0.000287744,-1.29244,-1.555,-0.0379422,75.4066,-0.0056422,
2,0,0,1,0,62273.8,-0.00926438,-0.00962933,-51.2733,32,0.00932422,10,0.000493728,-1.29011,-1.79619,-0.0328473,65.6563,-0.00962933,
2,0,0,1,0,62273.8,-0.0132596,-0.0136175,-51.5303,32,0.00911856,10,0.000701715,-1.28794,-1.99284,-0.029606,59.4756,-0.0136175,
2,0,0,1,0,62273.8,-0.0172547,-0.0176439,-51.7435,32,0.00891199,10,0.000912956,-1.28614,-2.3107,-0.0255334,51.5035,-0.0176439,
2,0,0,1,0,62273.8,-0.0212915,-0.0217105,-51.9542,32,0.00870459,10,0.00112795,-1.28438,-2.85262,-0.0206828,41.8656,-0.02171055,
2,0,0,1,0,62273.8,-0.025295,-0.0256574,-52.0988,32,0.00849646,10,0.00133672,-1.28317,-3.50017,-0.0168563,34.2195,-0.0256574,
2,0,0,1,0,62273.8,-0.0292902,-0.0297018,-52.2037,32,0.00828784,10,0.00155054,-1.2823,-4.78684,-0.0123255,25.0874,-0.0297018,
2,0,0,1,0,62273.8,-0.0332854,-0.0336719,-52.2919,32,0.00807882,10,0.00176077,-1.28157,-6.96635,-0.00846928,17.2658,-0.0336719,
2,0,0,1,0,62273.8,-0.0372805,-0.0376601,-52.3544,32,0.00786953,10,0.00197167,-1.28105,-10.5918,-0.00557033,11.3683,-0.0376601,
2,0,0,1,0,62273.8,-0.0412757,-0.0416568,-52.3751,32,0.00766006,10,0.00218178,-1.28088,-23.9015,-0.00246846,5.0415,-0.0416568,
2,0,0,1,0,62273.8,-0.0452709,-0.04561,-52.3845,32,0.00745053,10,0.00238926,-1.2808,244.285,0.000241522,-0.493446,-0.04561,
2,0,0,1,0,62273.8,-0.0492661,-0.0496661,-52.3726,32,0.00724103,10,0.00260114,-1.2809,29.2975,0.00201383,-4.11375,-0.0496661,
2,0,0,1,0,62273.8,-0.0532612,-0.0536193,-52.3465,32,0.00703158,10,0.00280678,-1.28111,15.0061,0.00393174,-8.02817,-0.0536193,
2,0,0,1,0,62273.8,-0.0572564,-0.0576064,-52.3094,32,0.00682226,10,0.00301336,-1.28142,12.995,0.00454019,-9.26673,-0.0576064,
2,0,0,1,0,62273.8,-0.0612544,-0.0616624,-52.2557,32,0.00661315,10,0.00322221,-1.28187,9.59548,0.00614873,-12.5372,-0.0616624,
2,0,0,1,0,62273.8,-0.0652967,-0.0656581,-52.2244,32,0.00640413,10,0.00342895,-1.28213,8.00185,0.00737329,-15.0176,-0.0656581,
2,0,0,1,0,62273.8,-0.0692919,-0.0696367,-52.1457,32,0.0061954,10,0.00363125,-1.28278,7.18235,0.00821458,-16.7097,-0.0696367,
2,0,0,1,0,62273.8,-0.0732871,-0.0736885,-52.0679,32,0.00598699,10,0.00383681,-1.28343,5.98324,0.00986088,-20.0362,-0.0736885,
2,0,0,1,0,62273.8,-0.0772822,-0.0776619,-51.9883,32,0.00577887,10,0.00403751,-1.28409,5.6454,0.010451,-21.1993,-0.0776619,
2,0,0,1,0,62273.8,-0.0812774,-0.0816713,-51.9035,32,0.00557109,10,0.00423903,-1.2848,5.77875,0.0102098,-20.6809,-0.08167126,
2,0,0,1,0,62273.8,-0.0852726,-0.0856446,-51.8063,32,0.00536368,10,0.00443693,-1.28562,5.89171,0.0100141,-20.2547,-0.0856446,
2,0,0,1,0,62273.8,-0.0892678,-0.0896826,-51.7372,32,0.00515659,10,0.00463992,-1.2862,6.02954,0.00978515,-19.7608,-0.0896826,
2,0,0,1,0,62273.8,-0.0932629,-0.0936401,-51.6647,32,0.00494982,10,0.00483788,-1.28681,6.61136,0.00892403,-17.9928,-0.0936401,
2,0,0,1,0,62273.8,-0.0972581,-0.0976484,-51.5878,32,0.00474332,10,0.00503747,-1.28745,7.65084,0.00771157,-15.5333,-0.0976484,
2,0,0,1,0,62273.9,-0.101253,-0.101644,-51.5184,32,0.00453712,10,0.00523654,-1.28804,7.94589,0.00742522,-14.9368,-0.101644,
2,0,0,1,0,62273.9,-0.105298,-0.105695,-51.4884,32,0.00433111,10,0.00544206,-1.28829,9.18889,0.0064208,-12.9011,-0.105695,
2,0,0,1,0,62273.9,-0.109294,-0.109679,-51.4251,32,0.0041253,10,0.00564024,-1.28882,10.4324,0.00565548,-11.3508,-0.109679,
2,0,0,1,0,62273.9,-0.113289,-0.113687,-51.3809,32,0.0039197,10,0.00584134,-1.2892,10.309,0.00572315,-11.4798,-0.113687,
2,0,0,1,0,62273.9,-0.117284,-0.117698,-51.3362,32,0.00371426,10,0.00604215,-1.28958,12.8666,0.00458552,-9.18983,-0.117698,
2,0,0,1,0,62273.9,-0.121279,-0.121639,-51.3054,32,0.00350897,10,0.00624074,-1.28984,15.7452,0.00374717,-7.5052,-0.121639,
2,0,0,1,0,62273.9,-0.125274,-0.125643,-51.2784,32,0.00330383,10,0.00644278,-1.29007,30.5751,0.00192968,-3.86377,-0.125643,
2,0,0,1,0,62273.9,-0.129269,-0.129653,-51.2611,32,0.00309874,10,0.00664613,-1.29021,85.5242,0.000689863,-1.38101,-0.129653,
2,0,0,1,0,62273.9,-0.133265,-0.133657,-51.2746,32,0.00289367,10,0.00685319,-1.2901,-71.45,-0.000825752,1.65295,-0.133657,
2,0,0,1,0,62273.9,-0.13726,-0.137628,-51.2833,32,0.00268857,10,0.00705802,-1.29002,-18.3076,-0.0032227,6.45368,-0.1376279,
2,0,0,1,0,62273.9,-0.141255,-0.141652,-51.3049,32,0.00248337,10,0.00726744,-1.28984,-15.3723,-0.00383807,7.68951,-0.141652,
2,0,0,1,0,62273.9,-0.145286,-0.145646,-51.3643,32,0.00227808,10,0.00748098,-1.28934,-11.0103,-0.0053586,10.7429,-0.145646,
2,0,0,1,0,62273.9,-0.149295,-0.149657,-51.3976,32,0.00207253,10,0.00769202,-1.28906,-9.14423,-0.00645215,12.945,-0.149657,
2,0,0,1,0,62273.9,-0.15329,-0.153669,-51.4556,32,0.00186682,10,0.00790712,-1.28857,-8.93673,-0.00660197,13.2616,-0.153669,
2,0,0,1,0,62273.9,-0.157286,-0.15767,-51.5122,32,0.00166089,10,0.00812191,-1.28809,-7.43715,-0.00793315,15.9524,-0.15767,
2,0,0,1,0,62273.9,-0.161281,-0.16171,-51.5773,32,0.0014547,10,0.00834055,-1.28754,-7.22913,-0.00816143,16.4312,-0.16171,
2,0,0,1,0,62273.9,-0.165276,-0.165636,-51.6525,32,0.00124826,10,0.00855553,-1.28691,-6.43584,-0.00916742,18.4826,-0.165636,
2,0,0,1,0,62273.9,-0.169271,-0.169645,-51.7182,32,0.00104152,10,0.00877371,-1.28636,-5.88839,-0.0100197,20.2315,-0.169645,
2,0,0,1,0,62273.9,-0.173266,-0.173645,-51.8075,32,0.000834456,10,0.00899609,-1.28561,-5.75902,-0.0102448,20.7179,-0.1736446,
2,0,0,1,0,62273.9,-0.177261,-0.177603,-51.8989,32,0.000627049,10,0.0092174,-1.28484,-5.39941,-0.0109271,22.1304,-0.177603,
2,0,0,1,0,62273.9,-0.181257,-0.181602,-51.9833,32,0.000419261,10,0.00944026,-1.28414,-4.9775,-0.0118533,24.0549,-0.1816019,
2,0,0,1,0,62273.9,-0.185252,-0.185576,-52.0707,32,0.000211144,10,0.00966309,-1.28341,-5.08166,-0.0116104,23.6019,-0.1855763,
2,0,0,1,0,62273.9,-0.189297,-0.189628,-52.192,32,2.56477e-06,10,0.00989706,-1.2824,-5.08311,-0.0116071,23.6335,-0.189628,
2,0,0,1,0,62273.9,-0.193292,-0.193634,-52.2772,32,-0.000206387,10,0.0101227,-1.28169,-5.13738,-0.0114844,23.4154,-0.193634,
2,0,0,1,0,62273.9,-0.197287,-0.197642,-52.3623,32,-0.000415672,10,0.010349,-1.28098,15.335,0.00384741,-7.8303,-0.1976416,
2,0,0,0,0,62273.9,-0.199984,-0.200303,-52.4156,32,-0.000557126,10,0.010499,-1.28054,0.0706443,0.835169,-1608.95,-0.200303,
2,0,0,0,1,62273.9,-0.199984,-0.200589,-52.1061,32,-0.000588428,10,0.0104519,-1.28311,-0.0459414,-1.28424,2348.52,-0.200589,
2,0,0,1,1,62274,-0.196688,-0.197188,-46.5599,32,-0.000739023,10,0.00918105,-1.33199,-0.0787472,-0.749233,1307.64,-0.197188,
2,0,0,1,1,62274,-0.192693,-0.193124,-41.7533,32,-0.00091485,10,0.00806358,-1.37931,-0.0858003,-0.687643,1143.85,-0.193124,
2,0,0,1,1,62274,-0.188698,-0.18914,-37.8185,32,-0.00107344,10,0.00715301,-1.4223,-0.0933571,-0.631982,947.906,-0.18914,
2,0,0,1,1,62274,-0.184653,-0.185081,-34.3668,32,-0.00121735,10,0.00636064,-1.46386,-0.0968298,-0.609317,825.541,-0.185081,
2,0,0,1,1,62274,-0.180657,-0.1811,-31.3106,32,-0.00134832,10,0.00567036,-1.50431,-0.0980414,-0.601787,739.935,-0.1811,
2,0,0,1,1,62274,-0.176662,-0.177092,-28.518,32,-0.00146766,10,0.00505031,-1.54488,-0.0974038,-0.605726,676.274,-0.177092,
2,0,0,1,1,62274,-0.172667,-0.173084,-25.9376,32,-0.00157626,10,0.00448938,-1.58607,-0.0954541,-0.618098,626.437,-0.173084,
2,0,0,1,1,62274,-0.168672,-0.169058,-23.531,32,-0.0016749,10,0.00397812,-1.62836,-0.0923329,-0.638992,586.371,-0.169058,
2,0,0,1,1,62274,-0.164677,-0.165077,-21.2726,32,-0.00176426,10,0.00351161,-1.67218,-0.0882048,-0.668898,553.534,-0.165077,
2,0,0,1,1,62274,-0.160681,-0.161084,-19.1314,32,-0.00184481,10,0.00308177,-1.71825,-0.0829767,-0.711043,528.106,-0.1610841,
2,0,0,1,1,62274,-0.156686,-0.157091,-17.0849,32,-0.001917,10,0.00268388,-1.76739,-0.0777714,-0.758634,502.174,-0.157091,
2,0,0,1,1,62274,-0.152691,-0.153179,-15.1449,32,-0.00198124,10,0.00231988,-1.81973,-0.0718838,-0.820769,479.596,-0.153179,
2,0,0,1,1,62274,-0.148696,-0.149152,-13.276,32,-0.00203787,10,0.00198014,-1.87693,-0.0658085,-0.896541,457.395,-0.149152,
2,0,0,1,1,62274,-0.14467,-0.145098,-11.4648,32,-0.0020872,10,0.00166352,-1.94063,-0.0588764,-1.0021,439.57,-0.145098,
2,0,0,1,1,62274,-0.140656,-0.14104,-9.74358,32,-0.0021294,10,0.00137424,-2.01128,-0.0513669,-1.1486,424.222,-0.14104,
2,0,0,1,1,62274,-0.136661,-0.137087,-8.07149,32,-0.00216484,10,0.0011065,-2.09305,-0.0434004,-1.35944,409.806,-0.137087,
2,0,0,1,1,62274,-0.132665,-0.13309,-6.46212,32,-0.00219373,10,0.000860046,-2.18963,-0.0347537,-1.69766,398.614,-0.13309,
2,0,0,1,1,62274,-0.12867,-0.129084,-4.90204,32,-0.00221629,10,0.000632775,-2.30962,-0.0256125,-2.30357,385.286,-0.129084,
2,0,0,1,1,62274,-0.124675,-0.125096,-3.38796,32,-0.00223273,10,0.00042382,-2.47006,-0.014143,-4.17168,374.967,-0.125096,
2,0,0,1,1,62274,-0.12068,-0.121127,-1.92226,32,-0.00224319,10,0.000232838,-2.71619,-0.022007,-2.68097,364.048,-0.121127,
2,0,0,1,1,62274,-0.116685,-0.117141,-0.481543,32,-0.00224783,10,5.64084e-05,-3.31736,-0.0925744,-0.637325,356.427,-0.117141,
2,1,0,1,1,62274,-0.112689,-0.113092,0.919812,32,-0.00224681,10,-0.000104023,-3.0363,0.0583098,1.01184,346.544,-0.113092,
2,1,0,1,1,62274,-0.108694,-0.109191,2.28103,32,-0.00224025,10,-0.000249067,-2.64187,0.0158083,3.73221,339.391,-0.109191,
2,1,0,1,1,62274,-0.104699,-0.105159,3.61122,32,-0.00222833,10,-0.000379753,-2.44235,0.0192205,3.06965,332.288,-0.105159,
2,1,0,1,1,62274,-0.100654,-0.101149,4.946,32,-0.00221103,10,-0.000500282,-2.30575,0.0311148,1.8962,323.644,-0.101149,
2,1,0,1,1,62274.1,-0.0966588,-0.0971341,6.22248,32,-0.00218856,10,-0.000604415,-2.20604,0.0420037,1.40464,317.038,-0.0971341,
2,1,0,1,1,62274.1,-0.0926636,-0.093165,7.46772,32,-0.00216106,10,-0.000695731,-2.12681,0.0530057,1.11309,310.12,-0.093165,
2,1,0,1,1,62274.1,-0.0886685,-0.0891418,8.68936,32,-0.0021286,10,-0.000774586,-2.06101,0.063762,0.925316,303.842,-0.0891418,
2,1,0,1,1,62274.1,-0.0846733,-0.0851727,9.90051,32,-0.00209129,10,-0.000843253,-2.00434,0.0747727,0.789058,297.272,-0.0851727,
2,1,0,1,1,62274.1,-0.0806781,-0.0811877,11.0677,32,-0.00204923,10,-0.000898558,-1.95594,0.0854175,0.690725,292.702,-0.08118771,
2,1,0,1,1,62274.1,-0.076683,-0.0771486,12.229,32,-0.00200249,10,-0.000943447,-1.91261,0.0971896,0.607061,285.242,-0.0771486,
2,1,0,1,1,62274.1,-0.0726878,-0.0731816,13.3609,32,-0.00195118,10,-0.000977776,-1.87416,0.108456,0.544,279.871,-0.0731816,
2,1,0,1,1,62274.1,-0.0686926,-0.0691638,14.4669,32,-0.0018954,10,-0.00100059,-1.83962,0.119106,0.495359,277.068,-0.0691638,
2,1,0,1,1,62274.1,-0.0646974,-0.0651692,15.5508,32,-0.00183524,10,-0.00101343,-1.80825,0.131715,0.447938,269.658,-0.0651692,
2,1,0,1,1,62274.1,-0.0606523,-0.061145,16.663,32,-0.00177072,10,-0.00101886,-1.77825,0.143984,0.409768,263.803,-0.06114497,
2,1,0,1,1,62274.1,-0.0566571,-0.0571207,17.6919,32,-0.00170191,10,-0.00101057,-1.75223,0.156665,0.376599,257.831,-0.0571207,
2,1,0,1,1,62274.1,-0.052662,-0.0530933,18.7064,32,-0.001629,10,-0.000993183,-1.72801,0.171899,0.343224,249.02,-0.0530933,
2,1,0,1,1,62274.1,-0.0486668,-0.049086,19.6975,32,-0.0015521,10,-0.000966873,-1.70559,0.184212,0.320284,244.802,-0.049086,
2,1,0,1,1,62274.1,-0.0446716,-0.0450893,20.6612,32,-0.00147129,10,-0.000931601,-1.68484,0.197479,0.298766,239.781,-0.0450893,
2,1,0,1,1,62274.1,-0.0406764,-0.0411245,21.6078,32,-0.00138664,10,-0.00088861,-1.66539,0.210928,0.279717,234.945,-0.0411245,
2,1,0,1,1,62274.1,-0.0366813,-0.0370971,22.542,32,-0.00129825,10,-0.00083624,-1.64701,0.224232,0.26312,230.528,-0.0370971,
2,1,0,1,1,62274.1,-0.0326861,-0.0330887,23.456,32,-0.00120613,10,-0.000776129,-1.62975,0.239484,0.246363,224.597,-0.0330887,
2,1,0,1,1,62274.1,-0.0286909,-0.0291398,24.338,32,-0.00111044,10,-0.000709205,-1.61371,0.252892,0.233301,220.922,-0.0291398,
2,1,0,1,1,62274.1,-0.0246957,-0.0251145,25.2036,32,-0.00101127,10,-0.000632975,-1.59854,0.267551,0.220519,216.402,-0.0251145,
2,1,0,1,1,62274.1,-0.0206756,-0.021122,26.0712,32,-0.000908639,10,-0.000550676,-1.58384,0.285845,0.206406,209.331,-0.021122,
2,1,0,1,1,62274.1,-0.0166554,-0.0171126,26.9133,32,-0.000802565,10,-0.000460557,-1.57003,0.301609,0.195618,204.715,-0.0171126,
2,1,0,1,1,62274.1,-0.0126603,-0.0130428,27.7076,32,-0.000693226,10,-0.000361385,-1.5574,0.320891,0.183863,198.263,-0.0130428,
2,1,0,1,1,62274.1,-0.0086651,-0.00904293,28.4937,32,-0.000580728,10,-0.000257667,-1.54525,0.339747,0.173659,192.479,-0.00904293,
2,1,0,1,1,62274.1,-0.00466992,-0.00508867,29.25,32,-0.000465159,10,-0.000148844,-1.53387, , , ,-0.005088672,
2,1,0,1,1,62274.1,-0.000974387,-0.00138149,29.9412,32,-0.000355622,10,-4.13634e-05,-1.52373, , , ,-0.001381489,
2,1,0,0,1,62274.1,-0.000175352,-0.000554371,30.0822,32,-0.00033163,10,-1.66767e-05,-1.52169, , , ,-0.000554371,