File: Figure_codes/Fig_3-5/rawdata_trumpetplot_data/after 10th/20221101_1-115_003_TrumpetPlot_ParaChange_from10_every3_04_CV_C01_8.csv
mode,ox/red,error,control changes,counter inc.,time/s,control/V,Ewe/V,<I>/mA,cycle number,(Q-Qo)/C,I Range,P/W,log(|I|),Tafel slope mV/dec,alpha_eff,dI/d(E-IR),E-IR/V,
2,0,0,1,0,16821.1,2.44065e-05,-0.00042076,-0.372888,9,0.0000000E+000,10,1.56896e-07,-3.42842, , , ,-0.00042076,
2,1,0,1,0,16821.2,0.00129787,0.000970493,0.208793,9,7.61165e-06,10,2.02632e-07,-3.68028, , , ,0.0009704933,
2,1,0,1,0,16821.3,0.00279606,0.00249324,0.316023,9,5.15925e-05,10,7.87921e-07,-3.50028,0.00864896,6.82163,57.3265,0.00249324,
2,1,0,1,0,16821.5,0.00429425,0.00397462,0.339459,9,0.000103468,10,1.34922e-06,-3.46921,0.0438404,1.34579,17.597,0.00397462,
2,1,0,1,0,16821.6,0.00579244,0.00549313,0.363319,9,0.000159228,10,1.99576e-06,-3.43971,0.0556527,1.06015,14.9093,0.00549313,
2,1,0,1,0,16821.8,0.00729063,0.00697982,0.38414,9,0.000218275,10,2.68123e-06,-3.41551,0.0709593,0.831462,12.3588,0.00697982,
2,1,0,1,0,16821.9,0.00878882,0.00848559,0.40341,9,0.000280239,10,3.42317e-06,-3.39425,0.0826271,0.714052,11.1501,0.00848559,
2,1,0,1,0,16822.1,0.010287,0.00999031,0.418059,9,0.000344738,10,4.17654e-06,-3.37876,0.106409,0.554463,8.9982,0.00999031,
2,1,0,1,0,16822.2,0.0117852,0.0115014,0.431785,9,0.000411247,10,4.96613e-06,-3.36473,0.121321,0.486312,8.19628,0.01150139,
2,1,0,1,0,16822.4,0.0132838,0.0129534,0.445614,9,0.000479683,10,5.77223e-06,-3.35104,0.108429,0.544134,9.45529,0.0129534,
2,1,0,1,0,16822.5,0.0147814,0.0145001,0.458009,9,0.000550094,10,6.64118e-06,-3.33913,0.120328,0.490328,8.72229,0.0145001,
2,1,0,1,0,16822.7,0.0162789,0.0159508,0.468976,9,0.000622588,10,7.48056e-06,-3.32885,0.158247,0.372835,6.80304,0.0159508,
2,1,0,1,0,16822.8,0.017778,0.0174397,0.479345,9,0.000696589,10,8.35962e-06,-3.31935,0.149679,0.394176,7.41712,0.0174397,
2,1,0,1,0,16823,0.0192761,0.0189476,0.492042,9,0.000772016,10,9.323e-06,-3.308,0.143658,0.410699,7.86082,0.0189476,
2,1,0,1,0,16823.1,0.0207743,0.0204438,0.501771,9,0.000849375,10,1.02581e-05,-3.29949,0.142077,0.415268,8.1153,0.0204438,
2,1,0,1,0,16823.3,0.0222725,0.021974,0.513741,9,0.000928494,10,1.12889e-05,-3.28926,0.156534,0.376914,7.55002,0.021974,
2,1,0,1,0,16823.4,0.0237707,0.0234522,0.523994,9,0.0010091,10,1.22888e-05,-3.28067,0.183697,0.32118,6.56441,0.0234522,
2,1,0,1,0,16823.6,0.0252689,0.0249548,0.534792,9,0.00109115,10,1.33456e-05,-3.27182,0.178728,0.330111,6.90368,0.0249548,
2,1,0,1,0,16823.7,0.0267671,0.0264722,0.545324,9,0.00117483,10,1.44359e-05,-3.26335,0.152192,0.387667,8.24196,0.0264722,
2,1,0,1,0,16823.9,0.0282662,0.0279278,0.558689,9,0.00126035,10,1.56029e-05,-3.25283,0.179559,0.328582,7.15706,0.0279278,
2,1,0,1,0,16824,0.0297635,0.0294569,0.566414,9,0.00134748,10,1.66848e-05,-3.24687,0.195555,0.301705,6.67793,0.0294569,
2,1,0,1,0,16824.2,0.031261,0.030968,0.574602,9,0.00143604,10,1.77943e-05,-3.24063,0.182929,0.322529,7.27981,0.030968,
2,1,0,1,0,16824.3,0.0327599,0.0324423,0.586716,9,0.0015261,10,1.90344e-05,-3.23157,0.179983,0.327808,7.51929,0.0324423,
2,1,0,1,0,16824.5,0.034258,0.0339481,0.599296,9,0.00161795,10,2.03449e-05,-3.22236,0.192816,0.305992,7.15783,0.0339481,
2,1,0,1,0,16824.6,0.0357562,0.0354167,0.608227,9,0.00171147,10,2.15414e-05,-3.21593,0.250868,0.235183,5.57808,0.0354167,
2,1,0,1,0,16824.8,0.0372544,0.036931,0.620046,9,0.00180657,10,2.28989e-05,-3.20758,0.22659,0.260382,6.3037,0.036931,
2,1,0,1,0,16824.9,0.0387526,0.0384304,0.630002,9,0.00190302,10,2.42112e-05,-3.20066,0.191964,0.307349,7.59143,0.0384304,
2,1,0,1,0,16825.1,0.0402508,0.039968,0.641412,9,0.00200122,10,2.5636e-05,-3.19286,0.211223,0.279326,7.00095,0.039968,
2,1,0,1,0,16825.2,0.041749,0.0414282,0.65413,9,0.00210123,10,2.70994e-05,-3.18434,0.248931,0.237014,6.01715,0.0414282,
2,1,0,1,0,16825.4,0.0432472,0.0429149,0.664715,9,0.00220266,10,2.85262e-05,-3.17736,0.230295,0.256193,6.61387,0.0429149,
2,1,0,1,0,16825.5,0.0447458,0.0444094,0.672122,9,0.00230538,10,2.98485e-05,-3.17255,0.229459,0.257126,6.72618,0.0444094,
2,1,0,1,0,16825.7,0.0462433,0.0459177,0.682539,9,0.00240979,10,3.13407e-05,-3.16587,0.202668,0.291117,7.74946,0.0459177,
2,1,0,1,0,16825.8,0.0477409,0.0474057,0.690248,9,0.0025156,10,3.27217e-05,-3.16099,0.241943,0.243859,6.60222,0.0474057,
2,1,0,1,0,16826,0.0492399,0.0488553,0.700778,9,0.00262308,10,3.42367e-05,-3.15442,0.254623,0.231715,6.35946,0.0488553,
2,1,0,1,0,16826.1,0.0507381,0.0504289,0.70753,9,0.00273165,10,3.568e-05,-3.15026,0.266391,0.221479,6.13989,0.0504289,
2,1,0,1,0,16826.3,0.0522363,0.0519135,0.720601,9,0.00284179,10,3.74089e-05,-3.14231,0.218411,0.270133,7.59075,0.0519135,
2,1,0,1,0,16826.4,0.0537345,0.0534479,0.732291,9,0.00295349,10,3.91394e-05,-3.13532,0.258625,0.22813,6.49336,0.0534479,
2,1,0,1,0,16826.6,0.0552327,0.0549219,0.740804,9,0.00306674,10,4.06863e-05,-3.1303,0.30191,0.195423,5.62396,0.0549219,
2,1,0,1,0,16826.7,0.0567309,0.0564329,0.743775,9,0.00318107,10,4.19734e-05,-3.12856,0.305899,0.192874,5.63078,0.0564329,
2,1,0,1,0,16826.9,0.0582291,0.0578931,0.756513,9,0.00329647,10,4.37969e-05,-3.12118,0.309837,0.190423,5.63147,0.05789312,
2,1,0,1,0,16827,0.0597282,0.0593436,0.76524,9,0.00341352,10,4.54121e-05,-3.1162,0.293436,0.201066,5.99822,0.0593436,
2,1,0,1,0,16827.2,0.0612255,0.060896,0.774869,9,0.00353178,10,4.71864e-05,-3.11077,0.374136,0.157697,4.75534,0.060896,
2,1,0,1,0,16827.3,0.062723,0.0623863,0.780486,9,0.00365136,10,4.86917e-05,-3.10763,0.324668,0.181724,5.53951,0.0623863,
2,1,0,1,0,16827.5,0.0642218,0.0638908,0.789293,9,0.0037718,10,5.04285e-05,-3.10276,0.329598,0.179006,5.52944,0.06389077,
2,1,0,1,0,16827.6,0.06572,0.0654231,0.797811,9,0.00389363,10,5.21953e-05,-3.0981,0.325981,0.180992,5.63081,0.0654231,
2,1,0,1,0,16827.8,0.0672182,0.0668843,0.807908,9,0.00401685,10,5.40364e-05,-3.09264,0.38821,0.151979,4.77238,0.0668843,
2,1,0,1,0,16827.9,0.0687164,0.068424,0.814463,9,0.00414112,10,5.57288e-05,-3.08913,0.510357,0.115605,3.66301,0.068424,
2,1,0,1,0,16828.1,0.0702146,0.0698736,0.816421,9,0.00426597,10,5.70463e-05,-3.08809,0.41322,0.142781,4.56604,0.0698736,
2,1,0,1,0,16828.2,0.0717128,0.0713889,0.826065,9,0.00439208,10,5.89719e-05,-3.08299,0.369253,0.159782,5.14329,0.0713889,
2,1,0,1,0,16828.4,0.073211,0.0728873,0.833376,9,0.00451927,10,6.07425e-05,-3.07916,0.486607,0.121248,3.94485,0.0728873,
2,1,0,1,0,16828.5,0.0747092,0.0744079,0.838539,9,0.00464744,10,6.23939e-05,-3.07648,0.474922,0.124231,4.06588,0.07440789,
2,1,0,1,0,16828.7,0.0762078,0.0758398,0.841275,9,0.00477638,10,6.38022e-05,-3.07506,0.500151,0.117964,3.89083,0.07583981,
2,1,0,1,0,16828.8,0.0777053,0.0773513,0.851148,9,0.00490623,10,6.58374e-05,-3.07,0.366598,0.160939,5.34061,0.0773513,
2,1,0,1,0,16829,0.0792029,0.0788903,0.859851,9,0.00503722,10,6.78339e-05,-3.06558,0.380949,0.154876,5.17402,0.0788903,
2,1,0,1,0,16829.1,0.0807019,0.0804055,0.864509,9,0.00516939,10,6.95113e-05,-3.06323,0.530151,0.111289,3.74858,0.0804055,
2,1,0,1,0,16829.3,0.0822001,0.0818859,0.866794,9,0.00530229,10,7.09782e-05,-3.06208,0.438158,0.134655,4.57097,0.0818859,
2,1,0,1,0,16829.4,0.0836983,0.083397,0.876803,9,0.00543592,10,7.31227e-05,-3.0571,0.401486,0.146954,5.04611,0.083397,
2,1,0,1,0,16829.6,0.0851965,0.084872,0.882948,9,0.00557085,10,7.49376e-05,-3.05406,0.375439,0.157149,5.42823,0.084872,
2,1,0,1,0,16829.7,0.0866947,0.0863566,0.894485,9,0.00570715,10,7.72447e-05,-3.04843,0.48357,0.122009,4.25148,0.0863566,
2,1,0,1,0,16829.9,0.0881929,0.087874,0.902871,9,0.00584461,10,7.93389e-05,-3.04437,0.352703,0.16728,5.89334,0.087874,
2,1,0,1,0,16830,0.0896911,0.0893448,0.912842,9,0.00598306,10,8.15576e-05,-3.0396,0.311399,0.189467,6.75609,0.0893448,
2,1,0,1,0,16830.2,0.0911902,0.0908748,0.923472,9,0.0061234,10,8.39203e-05,-3.03458,0.250145,0.235863,8.47629,0.0908748,
2,1,0,1,0,16830.3,0.0926875,0.0923719,0.935093,9,0.00626565,10,8.63763e-05,-3.02915,0.246009,0.239828,8.76158,0.0923719,
2,1,0,1,0,16830.5,0.094185,0.0938749,0.948046,9,0.00640964,10,8.89978e-05,-3.02317,0.249322,0.236642,8.76648,0.0938749,
2,1,0,1,0,16830.6,0.0956838,0.0953498,0.961342,9,0.00655541,10,9.16638e-05,-3.01712,0.235837,0.250173,9.40899,0.0953498,
2,1,0,1,0,16830.8,0.097182,0.0968673,0.973677,9,0.00670343,10,9.43175e-05,-3.01159,0.190476,0.30975,11.7949,0.0968673,
2,1,0,1,0,16830.9,0.0986802,0.0983646,0.991757,9,0.00685392,10,9.75538e-05,-3.00359,0.200081,0.294881,11.4536,0.0983646,
2,1,0,1,0,16831.1,0.100178,0.0998789,1.00877,9,0.00700701,10,0.000100755,-2.99621,0.206847,0.285235,11.2375,0.0998789,
2,1,0,1,0,16831.2,0.101677,0.101307,1.02668,9,0.00716277,10,0.00010401,-2.98856,0.192814,0.305994,12.292,0.101307,
2,1,0,1,0,16831.4,0.103175,0.102837,1.04939,9,0.00732108,10,0.000107917,-2.97906,0.196278,0.300593,12.3007,0.102837,
2,1,0,1,0,16831.5,0.104673,0.104386,1.07081,9,0.00748244,10,0.000111777,-2.97029,0.190123,0.310326,12.9184,0.104386,
2,1,0,1,0,16831.7,0.106171,0.105866,1.08786,9,0.00764683,10,0.000115167,-2.96343,0.213457,0.276402,11.6676,0.105866,
2,1,0,1,0,16831.8,0.10767,0.107367,1.10191,9,0.00781387,10,0.000118308,-2.95785,0.223095,0.264461,11.3778,0.107367,
2,1,0,1,0,16832,0.109167,0.108873,1.11688,9,0.00798306,10,0.000121598,-2.95199,0.226114,0.260931,11.4025,0.108873,
2,1,0,1,0,16832.1,0.110665,0.110299,1.13404,9,0.00815495,10,0.000125083,-2.94537,0.241338,0.244471,10.8294,0.110299,
2,1,0,1,0,16832.3,0.112164,0.111797,1.14984,9,0.00832945,10,0.000128549,-2.93936,0.299389,0.197068,8.81946,0.111797,
2,1,0,1,0,16832.4,0.113662,0.113363,1.16526,9,0.00850582,10,0.000132098,-2.93358,0.312564,0.188761,8.56241,0.113363,
2,1,0,1,0,16832.6,0.11516,0.114848,1.17358,9,0.00868366,10,0.000134783,-2.93049,0.365448,0.161446,7.3986,0.114848,
2,1,0,1,0,16832.7,0.116658,0.116337,1.18714,9,0.00886354,10,0.000138109,-2.9255,0.336402,0.175385,8.11719,0.116337,
2,1,0,1,0,16832.9,0.118157,0.117821,1.20083,9,0.00904528,10,0.000141483,-2.92052,0.407969,0.144619,6.75594,0.117821,
2,1,0,1,0,16833,0.119655,0.119354,1.21099,9,0.00922863,10,0.000144537,-2.91686,0.47437,0.124375,5.86951,0.119354,
2,1,0,1,0,16833.2,0.121153,0.120855,1.216,9,0.00941314,10,0.000146959,-2.91507,0.445866,0.132327,6.29156,0.120855,
2,1,0,1,0,16833.3,0.122652,0.122357,1.22917,9,0.00959931,10,0.000150397,-2.91039,0.343502,0.17176,8.22502,0.122357,
2,1,0,1,0,16833.5,0.124149,0.123854,1.23774,9,0.00978715,10,0.000153299,-2.90737,0.412904,0.14289,6.90571,0.123854,
2,1,0,1,0,16833.6,0.125647,0.12534,1.24659,9,0.00997647,10,0.000156247,-2.90428,0.436315,0.135223,6.58854,0.12534,
2,1,0,1,0,16833.8,0.127146,0.126831,1.25473,9,0.0101674,10,0.000159138,-2.90145,0.430085,0.137182,6.73701,0.1268312,
2,1,0,1,0,16833.9,0.128644,0.128332,1.26866,9,0.0103595,10,0.000162809,-2.89665,0.477114,0.12366,6.12104,0.128332,
2,1,0,1,0,16834.1,0.130142,0.129855,1.27907,9,0.0105534,10,0.000166094,-2.89311,0.615304,0.0958876,4.77223,0.129855,
2,1,0,1,0,16834.2,0.13164,0.131368,1.28413,9,0.0107484,10,0.000168693,-2.89139,4.32437,0.0136436,0.679889,0.131368,
2,1,0,1,0,16834.4,0.133139,0.132851,1.28634,9,0.0109439,10,0.000170891,-2.89065,-2.94383,-0.0200419,-1.00409,0.132851,
2,1,0,1,0,16834.5,0.134637,0.134325,1.28312,9,0.0111389,10,0.000172355,-2.89173,-0.890164,-0.0662799,-3.31413,0.134325,
2,1,0,1,0,16834.7,0.136135,0.135815,1.27853,9,0.0113337,10,0.000173643,-2.89329,-0.439666,-0.134193,-6.6545,0.135815,
2,1,0,1,0,16834.8,0.137633,0.137303,1.26631,9,0.0115271,10,0.000173868,-2.89746,-0.251065,-0.234999,-11.5251,0.137303,
2,1,0,1,0,16835,0.139132,0.138804,1.24738,9,0.0117181,10,0.000173142,-2.904,-0.176847,-0.333622,-16.0863,0.138804,
2,1,0,1,0,16835.1,0.140629,0.140291,1.21545,9,0.0119049,10,0.000170517,-2.91526,-0.136061,-0.433628,-20.4608,0.140291,
2,1,0,1,0,16835.3,0.142127,0.14178,1.1831,9,0.0120874,10,0.00016774,-2.92698,-0.118275,-0.498838,-22.8836,0.14178,
2,1,0,1,0,16835.4,0.143626,0.143324,1.14546,9,0.0122649,10,0.000164172,-2.94102,-0.0976485,-0.604208,-26.8601,0.143324,
2,1,0,1,0,16835.6,0.145124,0.144837,1.09953,9,0.0124359,10,0.000159252,-2.95879,-0.079685,-0.740415,-31.7228,0.144837,
2,1,0,1,0,16835.7,0.146622,0.146309,1.04823,9,0.0125998,10,0.000153365,-2.97954,-0.0757872,-0.778496,-31.8739,0.146309,
2,1,0,1,0,16835.9,0.14812,0.147768,1.00465,9,0.0127566,10,0.000148455,-2.99798,-0.0734501,-0.803266,-31.4601,0.147768,
2,1,0,1,0,16836,0.149619,0.149265,0.956525,9,0.0129063,10,0.000142776,-3.0193,-0.0707023,-0.834484,-31.1602,0.149265,
2,1,0,1,0,16836.2,0.151117,0.15079,0.911261,9,0.0130491,10,0.000137409,-3.04036,-0.0709813,-0.831205,-29.5443,0.15079,
2,1,0,1,0,16836.3,0.152615,0.1523,0.863429,9,0.0131851,10,0.0001315,-3.06377,-0.0718986,-0.8206,-27.8413,0.1523,
2,1,0,1,0,16836.5,0.154114,0.153811,0.828983,9,0.0133148,10,0.000127507,-3.08145,-0.0783249,-0.753272,-24.5099,0.153811,
2,1,0,1,0,16836.6,0.155612,0.15527,0.794641,9,0.0134393,10,0.000123384,-3.09983,-0.0878434,-0.67165,-20.8821,0.15527,
2,1,0,1,0,16836.8,0.157109,0.156784,0.762509,9,0.013559,10,0.000119549,-3.11776,-0.0885161,-0.666545,-19.921,0.156784,
2,1,0,1,0,16836.9,0.158608,0.158265,0.735574,9,0.0136743,10,0.000116416,-3.13337,-0.0992932,-0.5942,-17.1516,0.158265,
2,1,0,1,0,16837.1,0.160106,0.159763,0.713411,9,0.0137855,10,0.000113977,-3.14666,-0.118133,-0.499435,-13.9722,0.1597632,
2,1,0,1,0,16837.2,0.161604,0.161255,0.693782,9,0.0138938,10,0.000111876,-3.15878,-0.133661,-0.441414,-11.9586,0.161255,
2,1,0,1,0,16837.4,0.163102,0.162804,0.677843,9,0.0139993,10,0.000110356,-3.16887,-0.141969,-0.415584,-10.9978,0.162804,
2,1,0,1,0,16837.5,0.164601,0.164278,0.662116,9,0.0141024,10,0.000108771,-3.17907,-0.153783,-0.383658,-9.91059,0.164278,
2,1,0,1,0,16837.7,0.166099,0.165759,0.648641,9,0.0142031,10,0.000107518,-3.188,-0.167356,-0.352542,-8.93567,0.165759,
2,1,0,1,0,16837.8,0.167597,0.1673,0.633827,9,0.0143021,10,0.000106039,-3.19803,-0.196352,-0.30048,-7.43554,0.1673,
2,1,0,1,0,16838,0.169095,0.16879,0.627386,9,0.0143995,10,0.000105897,-3.20247,-0.218566,-0.269941,-6.6037,0.16879,
2,1,0,1,0,16838.1,0.170594,0.170278,0.61652,9,0.0144954,10,0.00010498,-3.21005,-0.22181,-0.265993,-6.39784,0.170278,
2,1,0,1,0,16838.3,0.172091,0.171781,0.605491,9,0.0145897,10,0.000104012,-3.21789,-0.272561,-0.216465,-5.13916,0.171781,
2,1,0,1,0,16838.4,0.173589,0.173275,0.5993,9,0.014683,10,0.000103844,-3.22236,-0.335323,-0.17595,-4.11356,0.173275,
2,1,0,1,0,16838.6,0.175088,0.174777,0.59517,9,0.0147752,10,0.000104022,-3.22536,-0.319774,-0.184505,-4.27441,0.174777,
2,1,0,1,0,16838.7,0.176586,0.176275,0.587373,9,0.0148665,10,0.000103539,-3.23109,-0.335863,-0.175667,-4.0165,0.176275,
2,1,0,1,0,16838.9,0.178084,0.17778,0.580624,9,0.0149568,10,0.000103223,-3.2361,-0.397771,-0.148327,-3.36955,0.17778,
2,1,0,1,0,16839,0.179582,0.179289,0.574767,9,0.0150463,10,0.00010305,-3.24051,-0.508156,-0.116106,-2.61867,0.1792895,
2,1,0,1,0,16839.2,0.181081,0.180751,0.572447,9,0.0151352,10,0.00010347,-3.24226,-0.396467,-0.148814,-3.33046,0.180751,
2,1,0,1,0,16839.3,0.182579,0.182308,0.569255,9,0.0152237,10,0.00010378,-3.24469,-0.391357,-0.150758,-3.33789,0.182308,
2,1,0,1,0,16839.5,0.184077,0.183765,0.56424,9,0.0153114,10,0.000103688,-3.24854,-0.439519,-0.134238,-2.96152,0.183765,
2,1,0,1,0,16839.6,0.185576,0.185289,0.560786,9,0.0153983,10,0.000103907,-3.2512,-0.597539,-0.0987384,-2.16446,0.185289,
2,1,0,1,0,16839.8,0.187074,0.186782,0.559112,9,0.0154849,10,0.000104432,-3.2525,-0.589308,-0.100117,-2.17931,0.186782,
2,1,0,1,0,16839.9,0.188571,0.188261,0.556663,9,0.0155711,10,0.000104798,-3.25441,-0.700157,-0.0842669,-1.82354,0.188261,
2,1,0,1,0,16840.1,0.19007,0.189759,0.552518,9,0.0156569,10,0.000104845,-3.25765,-0.85571,-0.0689486,-1.48532,0.1897589,
2,1,0,1,0,16840.2,0.191568,0.191295,0.549282,9,0.0157421,10,0.000105075,-3.2602,-0.773636,-0.0762633,-1.6413,0.191295,
2,1,0,1,0,16840.4,0.193066,0.192752,0.547609,9,0.015827,10,0.000105553,-3.26153,-2.86611,-0.0205854,-0.438514,0.192752,
2,1,0,1,0,16840.5,0.194564,0.194187,0.545672,9,0.0159117,10,0.000105962,-3.26307,-0.810176,-0.0728237,-1.54711,0.194187,
2,1,0,1,0,16840.7,0.196063,0.19575,0.54197,9,0.0159959,10,0.000106091,-3.26602,-0.739297,-0.0798055,-1.69504,0.19575,
2,1,0,1,0,16840.8,0.197561,0.197257,0.538484,9,0.0160797,10,0.00010622,-3.26883,-1.23728,-0.0476854,-1.00757,0.197257,
2,1,0,1,0,16841,0.199059,0.198733,0.53879,9,0.0161632,10,0.000107075,-3.26858,-0.97131,-0.0607427,-1.27618,0.198733,
2,1,0,1,0,16841.1,0.200557,0.200234,0.53753,9,0.0162465,10,0.000107632,-3.2696,-0.971595,-0.0607249,-1.26981,0.200234,
2,1,0,1,0,16841.3,0.202056,0.201739,0.536041,9,0.0163296,10,0.00010814,-3.2708,-0.949721,-0.0621235,-1.2931,0.201739,
2,1,0,1,0,16841.4,0.203553,0.203234,0.53092,9,0.0164124,10,0.000107901,-3.27497,-1.25021,-0.0471922,-0.981596,0.2032343,
2,1,0,1,0,16841.6,0.205051,0.204687,0.53019,9,0.0164948,10,0.000108523,-3.27557,2.49197,0.023676,0.494836,0.204687,
2,1,0,1,0,16841.7,0.20655,0.206228,0.528272,9,0.0165771,10,0.000108945,-3.27714,-0.863335,-0.0683396,-1.41606,0.206228,
2,1,0,1,0,16841.9,0.208048,0.207699,0.527863,9,0.0166595,10,0.000109637,-3.27748,-0.79492,-0.0742214,-1.52619,0.207699,
2,1,0,1,0,16842,0.209546,0.209258,0.527412,9,0.0167413,10,0.000110365,-3.27785,-0.859281,-0.068662,-1.4131,0.209258,
2,1,0,1,0,16842.2,0.211044,0.210745,0.524936,9,0.0168228,10,0.000110628,-3.27989,-1.14642,-0.0514644,-1.05491,0.210745,
2,1,0,1,0,16842.3,0.212543,0.212221,0.525222,9,0.0169042,10,0.000111463,-3.27966,-1.82147,-0.0323913,-0.662592,0.212221,
2,1,0,1,0,16842.5,0.214041,0.213718,0.523387,9,0.0169854,10,0.000111857,-3.28118,-1.01126,-0.0583431,-1.19061,0.213718,
2,1,0,1,0,16842.6,0.215539,0.215233,0.521526,9,0.0170664,10,0.00011225,-3.28272,-1.69658,-0.0347758,-0.709697,0.215233,
2,1,0,1,0,16842.8,0.217038,0.216695,0.519268,9,0.0171471,10,0.000112523,-3.28461,-1.8313,-0.0322176,-0.6539,0.216695,
2,1,0,1,0,16842.9,0.218535,0.21819,0.519899,9,0.0172277,10,0.000113437,-3.28408,11.0358,0.00534625,0.10836,0.21819,
2,1,0,1,0,16843.1,0.220033,0.219734,0.518104,9,0.0173082,10,0.000113845,-3.28558,-3.21294,-0.0183632,-0.371174,0.219734,
2,1,0,1,0,16843.2,0.221532,0.221265,0.517142,9,0.0173886,10,0.000114425,-3.28639,-2.11598,-0.027883,-0.562949,0.221265,
2,1,0,1,0,16843.4,0.22303,0.222713,0.512642,9,0.0174686,10,0.000114172,-3.29019,-1.37631,-0.0428683,-0.861665,0.222713,
2,1,0,1,0,16843.5,0.224528,0.224225,0.51501,9,0.0175484,10,0.000115478,-3.28818,-3.20974,-0.0183816,-0.368965,0.224225,
2,1,0,1,0,16843.7,0.226026,0.225724,0.513747,9,0.0176281,10,0.000115965,-3.28925,-1.17511,-0.050208,-1.00396,0.225724,
2,1,0,1,0,16843.8,0.227525,0.227202,0.512224,9,0.0177076,10,0.000116378,-3.29054,-0.795358,-0.0741804,-1.48103,0.227202,
2,1,0,1,0,16844,0.229023,0.228747,0.511459,9,0.017787,10,0.000116995,-3.29119,-1.62844,-0.036231,-0.722521,0.228747,
2,1,0,1,0,16844.1,0.230521,0.230194,0.508679,9,0.0178661,10,0.000117095,-3.29356,-2.47214,-0.023866,-0.477252,0.230194,
2,1,0,1,0,16844.3,0.232019,0.231701,0.510571,9,0.0179452,10,0.0001183,-3.29194,-2.9218,-0.020193,-0.400049,0.231701,
2,1,0,1,0,16844.4,0.233518,0.233195,0.509001,9,0.0180243,10,0.000118696,-3.29328,-1.14211,-0.0516587,-1.0232,0.233195,
2,1,0,1,0,16844.6,0.235015,0.234709,0.506999,9,0.0181032,10,0.000118997,-3.29499,-2.0796,-0.0283708,-0.560984,0.234709,
2,1,0,1,0,16844.7,0.236513,0.236213,0.506506,9,0.0181816,10,0.000119643,-3.29542,-1.7311,-0.0340824,-0.672721,0.236213,
2,1,0,1,0,16844.9,0.238012,0.23769,0.505463,9,0.0182602,10,0.000120144,-3.29631,2.60125,0.0226814,0.445814,0.23769,
2,1,0,1,0,16845,0.23951,0.239225,0.503514,9,0.0183386,10,0.000120453,-3.29799,-2.25889,-0.0261191,-0.514293,0.239225,
2,1,0,1,0,16845.2,0.241008,0.240676,0.502554,9,0.0184169,10,0.000120953,-3.29882,-0.970976,-0.0607636,-1.19479,0.240676,
2,1,0,1,0,16845.3,0.242506,0.242158,0.50077,9,0.0184948,10,0.000121265,-3.30036,-2.54583,-0.0231752,-0.4547,0.242158,
2,1,0,1,0,16845.5,0.244005,0.243698,0.500384,9,0.0185728,10,0.000121942,-3.3007,-2.97592,-0.0198258,-0.387552,0.243698,
2,1,0,1,0,16845.6,0.245503,0.245192,0.501426,9,0.0186508,10,0.000122946,-3.29979,-1.0022,-0.0588704,-1.15152,0.245192,
2,1,0,1,0,16845.8,0.247001,0.246686,0.501359,9,0.0187287,10,0.000123678,-3.29985,-0.950369,-0.0620812,-1.21159,0.246686,
2,1,0,1,0,16845.9,0.2485,0.248194,0.496896,9,0.0188062,10,0.000123326,-3.30373,-1.75552,-0.0336083,-0.654965,0.2481935,
2,1,0,1,0,16846.1,0.249997,0.249683,0.497346,9,0.0188837,10,0.000124179,-3.30334,-2.95607,-0.0199589,-0.388309,0.249683,
2,1,0,1,0,16846.2,0.251495,0.251185,0.497385,9,0.0189611,10,0.000124936,-3.30331,-1.67167,-0.0352941,-0.686591,0.251185,
2,1,0,1,0,16846.4,0.252994,0.252656,0.496267,9,0.0190384,10,0.000125385,-3.30428,-0.930194,-0.0634276,-1.22831,0.252656,
2,1,0,1,0,16846.5,0.254492,0.254185,0.4941,9,0.0191155,10,0.000125593,-3.30618,-1.77845,-0.033175,-0.642955,0.254185,
2,1,0,1,0,16846.7,0.25599,0.255694,0.496282,9,0.0191924,10,0.000126896,-3.30427,-4.2716,-0.0138122,-0.267347,0.255694,
2,1,0,1,0,16846.8,0.257488,0.257172,0.492728,9,0.0192692,10,0.000126716,-3.30739,-2.58675,-0.0228085,-0.439558,0.257172,
2,1,0,1,0,16847,0.258987,0.258675,0.49385,9,0.0193461,10,0.000127747,-3.3064,-1.8732,-0.0314969,-0.604168,0.258675,
2,1,0,1,0,16847.1,0.260485,0.260212,0.492057,9,0.0194227,10,0.000128039,-3.30798,-0.804191,-0.0733656,-1.41119,0.2602123,
2,1,0,1,0,16847.3,0.261983,0.261676,0.490776,9,0.0194991,10,0.000128424,-3.30912,-2.24783,-0.0262476,-0.504337,0.261676,
2,1,0,1,0,16847.4,0.263481,0.26314,0.490992,9,0.0195755,10,0.0001292,-3.30893,-19.3049,-0.00305622,-0.0584522,0.26314,
2,1,0,1,0,16847.6,0.26498,0.26465,0.490492,9,0.0196518,10,0.000129809,-3.30937,-3.75441,-0.0157149,-0.30028,0.26465,
2,1,0,1,0,16847.7,0.266477,0.266167,0.489099,9,0.0197279,10,0.000130182,-3.3106,-3.31239,-0.0178119,-0.339871,0.266167,
2,1,0,1,0,16847.9,0.267976,0.267666,0.487428,9,0.0198039,10,0.000130468,-3.31209,13.3152,0.00443104,0.0847651,0.267666,
2,1,0,1,0,16848,0.269474,0.269196,0.486294,9,0.0198797,10,0.000130908,-3.3131,50.9091,0.00115893,0.0220143,0.269196,
2,1,0,1,0,16848.2,0.270972,0.270647,0.488435,9,0.0199555,10,0.000132193,-3.31119,-4.73339,-0.0124647,-0.236631,0.270647,
2,1,0,1,0,16848.3,0.27247,0.272206,0.486415,9,0.0200312,10,0.000132405,-3.31299,-1.263,-0.0467142,-0.882867,0.272206,
2,1,0,1,0,16848.5,0.273968,0.273666,0.482451,9,0.0201066,10,0.00013203,-3.31655,-1.48684,-0.0396815,-0.752123,0.273666,
2,1,0,1,0,16848.6,0.275467,0.275129,0.483317,9,0.0201818,10,0.000132975,-3.31577,-0.860303,-0.0685805,-1.29684,0.275129,
2,1,0,1,0,16848.8,0.276965,0.276677,0.48231,9,0.0202571,10,0.000133444,-3.31667,-1.83863,-0.0320891,-0.606829,0.276677,
2,1,0,1,0,16848.9,0.278463,0.278152,0.482593,9,0.0203321,10,0.000134234,-3.31642,-0.773442,-0.0762824,-1.43089,0.278152,
2,1,0,1,0,16849.1,0.279962,0.279642,0.481348,9,0.0204072,10,0.000134605,-3.31754,-2.08706,-0.0282694,-0.531208,0.279642,
2,1,0,1,0,16849.2,0.281459,0.281128,0.48011,9,0.0204818,10,0.000134972,-3.31866,-3.33212,-0.0177065,-0.332082,0.281128,
2,1,0,1,0,16849.4,0.282957,0.282634,0.481122,9,0.0205565,10,0.000135981,-3.31774,-2.34625,-0.0251465,-0.470172,0.282634,
2,1,0,1,0,16849.5,0.284456,0.284121,0.479295,9,0.0206313,10,0.000136178,-3.3194,-1.688,-0.0349526,-0.651779,0.2841213,
2,1,0,1,0,16849.7,0.285954,0.285642,0.476957,9,0.0207057,10,0.000136239,-3.32152,-1.32496,-0.0445297,-0.83052,0.285642,
2,1,0,1,0,16849.8,0.287452,0.287141,0.477148,9,0.0207799,10,0.000137009,-3.32135,8.04195,0.00733653,0.136517,0.287141,
2,1,0,1,0,16850,0.28895,0.288613,0.474878,9,0.020854,10,0.000137056,-3.32342,3.37824,0.0174647,0.324154,0.288613,
2,1,0,1,0,16850.1,0.290449,0.290156,0.474198,9,0.020928,10,0.000137591,-3.32404,-1.84592,-0.0319625,-0.593446,0.2901561,
2,1,0,1,0,16850.3,0.291947,0.291657,0.472949,9,0.0210019,10,0.000137939,-3.32519,-2.20278,-0.0267844,-0.495717,0.291657,
2,1,0,1,0,16850.4,0.293445,0.293141,0.471492,9,0.0210756,10,0.000138214,-3.32653,-1.06856,-0.0552143,-1.01982,0.293141,
2,1,0,1,0,16850.6,0.294943,0.294634,0.474307,9,0.0211492,10,0.000139747,-3.32394,-2.33966,-0.0252173,-0.464916,0.294634,
2,1,0,1,0,16850.7,0.296442,0.296137,0.474621,9,0.0212228,10,0.000140553,-3.32365,-2.5041,-0.0235614,-0.433374,0.296137,
2,1,0,1,0,16850.9,0.297939,0.297662,0.472682,9,0.0212962,10,0.000140699,-3.32543,-2.2123,-0.0266691,-0.489132,0.297662,
2,1,0,1,0,16851,0.299437,0.299113,0.46899,9,0.0213694,10,0.000140281,-3.32884,-0.00169811,-34.7445,-242.32,0.2991133,
2,1,0,1,0,16851.1,0.299738,0.299441,0.186354,9,0.0214031,10,5.58022e-05,-3.72966,0.000986538,59.8051,434.342,0.299441,
2,1,0,1,0,16851.2,0.29824,0.297968,-0.0145018,9,0.0214064,10,-4.32108e-06,-4.83858,0.0040964,14.4029,145.067,0.297968,
2,0,0,1,0,16851.4,0.296741,0.296435,-0.0496245,9,0.0213983,10,-1.47104e-05,-4.3043,-0.00220293,-26.7826,19.7114,0.296435,
2,0,0,1,0,16851.5,0.295243,0.294957,-0.0713056,9,0.0213863,10,-2.1032e-05,-4.14688,-0.0118343,-4.9855,12.3033,0.294957,
2,0,0,1,0,16851.7,0.293745,0.293415,-0.0869208,9,0.0213715,10,-2.55038e-05,-4.06088,-0.0194745,-3.0296,9.73545,0.293415,
2,0,0,1,0,16851.8,0.292246,0.29189,-0.100896,9,0.0213548,10,-2.94505e-05,-3.99613,-0.0255581,-2.30847,8.82973,0.29189,
2,0,0,1,0,16852,0.290748,0.290438,-0.112029,9,0.0213361,10,-3.25376e-05,-3.95067,-0.0328404,-1.79657,7.6518,0.290438,
2,0,0,1,0,16852.1,0.28925,0.28892,-0.12245,9,0.0213156,10,-3.53783e-05,-3.91204,-0.0406198,-1.45249,6.8173,0.28892,
2,0,0,1,0,16852.3,0.287752,0.287417,-0.130577,9,0.0212939,10,-3.75301e-05,-3.88413,-0.0526298,-1.12104,5.73941,0.287417,
2,0,0,1,0,16852.4,0.286253,0.285957,-0.138733,9,0.021271,10,-3.96717e-05,-3.85782,-0.05785,-1.01988,5.56033,0.285957,
2,0,0,1,0,16852.6,0.284755,0.284443,-0.147754,9,0.0212467,10,-4.20274e-05,-3.83046,-0.0627147,-0.940768,5.36067,0.284443,
2,0,0,1,0,16852.7,0.283258,0.282924,-0.155028,9,0.0212212,10,-4.38611e-05,-3.80959,-0.0801723,-0.735915,4.44516,0.282924,
2,0,0,1,0,16852.9,0.281759,0.281434,-0.160715,9,0.0211948,10,-4.52308e-05,-3.79394,-0.0881757,-0.669119,4.19307,0.281434,
2,0,0,1,0,16853,0.280261,0.279954,-0.164434,9,0.0211674,10,-4.6034e-05,-3.78401,-0.0952458,-0.61945,4.05447,0.2799539,
2,0,0,1,0,16853.2,0.278763,0.278482,-0.172305,9,0.0211392,10,-4.79839e-05,-3.7637,-0.103293,-0.57119,3.84415,0.278482,
2,0,0,1,0,16853.3,0.277264,0.276957,-0.178583,9,0.02111,10,-4.94598e-05,-3.74816,-0.116853,-0.504908,3.52512,0.276957,
2,0,0,1,0,16853.5,0.275766,0.275382,-0.184284,9,0.0210799,10,-5.07485e-05,-3.73451,-0.136262,-0.432988,3.12094,0.275382,
2,0,0,1,0,16853.6,0.274268,0.273974,-0.189325,9,0.021049,10,-5.18701e-05,-3.72279,-0.135035,-0.436923,3.27314,0.273974,
2,0,0,1,0,16853.8,0.27277,0.272437,-0.195311,9,0.0210174,10,-5.32099e-05,-3.70927,-0.130233,-0.453034,3.4599,0.272437,
2,0,0,1,0,16853.9,0.271272,0.270947,-0.201062,9,0.020985,10,-5.44771e-05,-3.69667,-0.158142,-0.373082,2.91249,0.270947,
2,0,0,1,0,16854.1,0.269773,0.269448,-0.206488,9,0.0209517,10,-5.56376e-05,-3.68511,-0.163078,-0.361789,2.8672,0.269448,
2,0,0,1,0,16854.2,0.268275,0.268,-0.211251,9,0.0209178,10,-5.66154e-05,-3.6752,-0.170243,-0.346563,2.84862,0.268,
2,0,0,1,0,16854.4,0.266778,0.266494,-0.213605,9,0.0208834,10,-5.69246e-05,-3.67039,-0.143492,-0.411171,3.41735,0.266494,
2,0,0,1,0,16854.5,0.265279,0.26502,-0.218264,9,0.0208481,10,-5.78445e-05,-3.66102,-0.135365,-0.435857,3.69765,0.26502,
2,0,0,1,0,16854.7,0.263781,0.263474,-0.221465,9,0.0208122,10,-5.83503e-05,-3.65469,-0.184893,-0.319103,2.77552,0.263474,
2,0,0,1,0,16854.8,0.262283,0.261947,-0.228302,9,0.0207757,10,-5.98032e-05,-3.64149,-0.18864,-0.312766,2.77536,0.261947,
2,0,0,1,0,16855,0.260784,0.260498,-0.2285,9,0.0207387,10,-5.95236e-05,-3.64111,-0.171458,-0.344107,3.10268,0.260498,
2,0,0,1,0,16855.1,0.259286,0.258973,-0.236056,9,0.020701,10,-6.11319e-05,-3.62699,-0.169114,-0.348878,3.18455,0.258973,
2,0,0,1,0,16855.3,0.257788,0.257482,-0.241108,9,0.0206626,10,-6.2081e-05,-3.61779,-0.245917,-0.239918,2.23393,0.257482,
2,0,0,1,0,16855.4,0.25629,0.25598,-0.24324,9,0.0206237,10,-6.22647e-05,-3.61396,-0.256121,-0.23036,2.17035,0.25598,
2,0,0,1,0,16855.6,0.254791,0.254475,-0.244105,9,0.0205844,10,-6.21186e-05,-3.61242,-0.19927,-0.296081,2.84141,0.254475,
2,0,0,1,0,16855.7,0.253293,0.252992,-0.248197,9,0.0205447,10,-6.2792e-05,-3.6052,-0.203435,-0.290019,2.83447,0.252992,
2,0,0,1,0,16855.9,0.251796,0.251463,-0.25338,9,0.0205042,10,-6.37157e-05,-3.59623,-0.188471,-0.313045,3.0981,0.251463,
2,0,0,1,0,16856,0.250297,0.25,-0.256594,9,0.0204631,10,-6.41484e-05,-3.59075,-0.301365,-0.195776,1.9618,0.25,
2,0,0,1,0,16856.2,0.248799,0.248435,-0.259179,9,0.0204216,10,-6.43894e-05,-3.5864,-0.343388,-0.171817,1.74067,0.248435,
2,0,0,1,0,16856.3,0.247301,0.246984,-0.264041,9,0.0203797,10,-6.52138e-05,-3.57833,-0.2192,-0.269161,2.76936,0.246984,
2,0,0,1,0,16856.5,0.245802,0.24552,-0.266196,9,0.0203373,10,-6.53566e-05,-3.5748,-0.246346,-0.2395,2.48229,0.24552,
2,0,0,1,0,16856.6,0.244304,0.244027,-0.27049,9,0.0202942,10,-6.60069e-05,-3.56785,-0.386412,-0.152687,1.60781,0.244027,
2,0,0,1,0,16856.8,0.242806,0.242482,-0.274191,9,0.0202506,10,-6.64865e-05,-3.56195,-0.373177,-0.158102,1.68928,0.242482,
2,0,0,1,0,16856.9,0.241308,0.241024,-0.276706,9,0.0202068,10,-6.66928e-05,-3.55798,-0.394573,-0.149529,1.61468,0.241024,
2,0,0,1,0,16857.1,0.23981,0.239443,-0.278095,9,0.0201624,10,-6.65881e-05,-3.55581,-0.214776,-0.274705,2.98323,0.239443,
2,0,0,1,0,16857.2,0.238311,0.238041,-0.282885,9,0.0201175,10,-6.73382e-05,-3.54839,-0.290787,-0.202897,2.24225,0.2380407,
2,0,0,1,0,16857.4,0.236814,0.23647,-0.283622,9,0.0200721,10,-6.7068e-05,-3.54726,-0.341129,-0.172955,1.92813,0.23647,
2,0,0,1,0,16857.5,0.235316,0.235026,-0.285962,9,0.0200264,10,-6.72086e-05,-3.54369,-0.309465,-0.190652,2.15036,0.235026,
2,0,0,1,0,16857.7,0.233817,0.233518,-0.290374,9,0.0199802,10,-6.78076e-05,-3.53704,-0.270982,-0.217727,2.47441,0.233518,
2,0,0,1,0,16857.8,0.232319,0.23202,-0.293714,9,0.0199334,10,-6.81475e-05,-3.53208,-0.367344,-0.160612,1.84375,0.23202,
2,0,0,1,0,16858,0.230821,0.230534,-0.297624,9,0.0198862,10,-6.86124e-05,-3.52633,-0.632668,-0.0932558,1.07577,0.230534,
2,0,0,1,0,16858.1,0.229322,0.229028,-0.298734,9,0.0198386,10,-6.84184e-05,-3.52472,-0.350275,-0.168439,1.97593,0.2290279,
2,0,0,1,0,16858.3,0.227824,0.227522,-0.302112,9,0.0197907,10,-6.87371e-05,-3.51983,-0.574039,-0.10278,1.21842,0.2275221,
2,0,0,1,0,16858.4,0.226326,0.226004,-0.306066,9,0.0197422,10,-6.91721e-05,-3.51418,-0.362927,-0.162567,1.93813,0.226004,
2,0,0,1,0,16858.6,0.224828,0.224502,-0.309355,9,0.0196932,10,-6.94509e-05,-3.50954,-0.455418,-0.129551,1.55909,0.224502,
2,0,0,1,0,16858.7,0.223329,0.223011,-0.312472,9,0.0196438,10,-6.96848e-05,-3.50519,-0.397171,-0.14855,1.80964,0.223011,
2,0,0,1,0,16858.9,0.221831,0.221524,-0.315312,9,0.019594,10,-6.98492e-05,-3.50126,-0.313674,-0.188094,2.3038,0.221524,
2,0,0,1,0,16859,0.220334,0.219997,-0.317957,9,0.0195436,10,-6.99494e-05,-3.49763,-0.320489,-0.184094,2.28137,0.219997,
2,0,0,1,0,16859.2,0.218835,0.218512,-0.322144,9,0.0194927,10,-7.03922e-05,-3.49195,-0.336876,-0.175139,2.19685,0.218512,
2,0,0,1,0,16859.3,0.217337,0.216989,-0.324711,9,0.0194415,10,-7.04588e-05,-3.4885,-0.388329,-0.151933,1.92252,0.2169891,
2,0,0,1,0,16859.5,0.215839,0.215542,-0.326896,9,0.01939,10,-7.04597e-05,-3.48559,-0.392192,-0.150437,1.92001,0.215542,
2,0,0,1,0,16859.6,0.21434,0.214033,-0.330562,9,0.0193379,10,-7.07511e-05,-3.48075,-0.325439,-0.181293,2.32138,0.214033,
2,0,0,1,0,16859.8,0.212842,0.212518,-0.333645,9,0.0192852,10,-7.09057e-05,-3.47672,-0.33302,-0.177167,2.3065,0.212518,
2,0,0,1,0,16859.9,0.211344,0.211033,-0.337364,9,0.0192322,10,-7.11949e-05,-3.4719,-0.453021,-0.130237,1.70844,0.211033,
2,0,0,1,0,16860.1,0.209846,0.209517,-0.338118,9,0.0191788,10,-7.08416e-05,-3.47093,-0.464426,-0.127039,1.68387,0.209517,
2,0,0,1,0,16860.2,0.208348,0.208027,-0.343018,9,0.0191249,10,-7.13568e-05,-3.46468,-0.334323,-0.176476,2.35885,0.208027,
2,0,0,1,0,16860.4,0.206849,0.20652,-0.352779,9,0.0190703,10,-7.28559e-05,-3.4525,-0.336555,-0.175306,2.37384,0.20652,
2,0,0,1,0,16860.5,0.205352,0.205019,-0.347149,9,0.0190151,10,-7.11723e-05,-3.45948,-0.518917,-0.113698,1.54163,0.205019,
2,0,0,1,0,16860.7,0.203854,0.203557,-0.352071,9,0.0189597,10,-7.16665e-05,-3.45337,-0.499928,-0.118017,1.6272,0.203557,
2,0,0,1,0,16860.8,0.202355,0.202052,-0.353015,9,0.0189039,10,-7.13274e-05,-3.45221,-0.326522,-0.180692,2.51117,0.202052,
2,0,0,1,0,16861,0.200857,0.200529,-0.35921,9,0.0188475,10,-7.20322e-05,-3.44465,-0.374209,-0.157666,2.21435,0.200529,
2,0,0,1,0,16861.1,0.199359,0.199018,-0.362817,9,0.0187905,10,-7.22073e-05,-3.44031,-0.477277,-0.123618,1.73948,0.199018,
2,0,0,1,0,16861.3,0.19786,0.197554,-0.367867,9,0.0187331,10,-7.26736e-05,-3.43431,-0.356386,-0.165551,2.36341,0.197554,
2,0,0,1,0,16861.4,0.196362,0.196061,-0.365612,9,0.0186754,10,-7.16822e-05,-3.43698,-0.321875,-0.183301,2.63911,0.1960609,
2,0,0,1,0,16861.6,0.194864,0.19455,-0.373536,9,0.0186169,10,-7.26713e-05,-3.42767,-0.273415,-0.215789,3.12781,0.19455,
2,0,0,1,0,16861.7,0.193366,0.193011,-0.377511,9,0.0185577,10,-7.28638e-05,-3.42307,-0.34137,-0.172833,2.54855,0.193011,
2,0,0,1,0,16861.9,0.191867,0.191557,-0.381533,9,0.0184981,10,-7.30852e-05,-3.41847,-0.435022,-0.135625,2.02743,0.191557,
2,0,0,1,0,16862,0.190369,0.19007,-0.382718,9,0.018438,10,-7.27433e-05,-3.41712,-0.301652,-0.19559,2.92854,0.19007,
2,0,0,1,0,16862.2,0.188872,0.188553,-0.388697,9,0.0183773,10,-7.32899e-05,-3.41039,-0.240103,-0.245728,3.72884,0.188553,
2,0,0,1,0,16862.3,0.187373,0.187064,-0.391866,9,0.0183159,10,-7.33041e-05,-3.40686,-0.260844,-0.226189,3.47266,0.187064,
2,0,0,1,0,16862.5,0.185875,0.185543,-0.397949,9,0.0182539,10,-7.38366e-05,-3.40017,-0.297021,-0.198639,3.07119,0.185543,
2,0,0,1,0,16862.6,0.184377,0.184077,-0.398712,9,0.0181913,10,-7.33938e-05,-3.39934,-0.303729,-0.194252,3.04159,0.184077,
2,0,0,1,0,16862.8,0.182878,0.182533,-0.407325,9,0.0181281,10,-7.43503e-05,-3.39006,-0.283945,-0.207787,3.30601,0.182533,
2,0,0,1,0,16862.9,0.18138,0.181055,-0.411506,9,0.0180639,10,-7.45053e-05,-3.38562,-0.263691,-0.223747,3.5889,0.181055,
2,0,0,1,0,16863.1,0.179882,0.179553,-0.415378,9,0.017999,10,-7.45822e-05,-3.38156,-0.558792,-0.105585,1.71523,0.1795525,
2,0,0,1,0,16863.2,0.178384,0.178112,-0.421297,9,0.0179334,10,-7.50382e-05,-3.37541,-0.31695,-0.186149,3.07502,0.178112,
2,0,0,1,0,16863.4,0.176886,0.176597,-0.425357,9,0.0178672,10,-7.51169e-05,-3.37125,-0.256369,-0.230137,3.84788,0.176597,
2,0,0,1,0,16863.5,0.175387,0.17505,-0.435235,9,0.0177999,10,-7.61878e-05,-3.36128,-0.223484,-0.264001,4.46027,0.17505,
2,0,0,1,0,16863.7,0.17389,0.173602,-0.440273,9,0.0177317,10,-7.64322e-05,-3.35628,-0.211812,-0.278549,4.77585,0.173602,
2,0,0,1,0,16863.8,0.172392,0.17206,-0.445571,9,0.0176625,10,-7.66647e-05,-3.35108,-0.232452,-0.253816,4.41695,0.17206,
2,0,0,1,0,16864,0.170893,0.170607,-0.450587,9,0.0175925,10,-7.68732e-05,-3.34622,-0.221736,-0.266082,4.70999,0.1706069,
2,0,0,1,0,16864.1,0.169395,0.169081,-0.460984,9,0.0175213,10,-7.79437e-05,-3.33631,-0.172984,-0.341071,6.11875,0.169081,
2,0,0,1,0,16864.3,0.167897,0.16757,-0.469176,9,0.0174487,10,-7.86198e-05,-3.32866,-0.182277,-0.323683,5.91716,0.16757,
2,0,0,1,0,16864.4,0.166398,0.16606,-0.475095,9,0.0173749,10,-7.88941e-05,-3.32322,-0.210965,-0.279667,5.22143,0.16606,
2,0,0,1,0,16864.6,0.1649,0.164568,-0.484364,9,0.0172999,10,-7.97108e-05,-3.31483,-0.188924,-0.312294,5.9476,0.1645679,
2,0,0,1,0,16864.7,0.163402,0.163055,-0.495618,9,0.0172235,10,-8.08129e-05,-3.30485,-0.147592,-0.39975,7.76776,0.1630547,
2,0,0,1,0,16864.9,0.161904,0.161603,-0.508884,9,0.0171454,10,-8.22371e-05,-3.29338,-0.141664,-0.416479,8.25743,0.161603,
2,0,0,1,0,16865,0.160405,0.160081,-0.520047,9,0.0170653,10,-8.32494e-05,-3.28396,-0.144191,-0.409179,8.30197,0.160081,
2,0,0,1,0,16865.2,0.158907,0.158571,-0.53074,9,0.0169836,10,-8.416e-05,-3.27512,-0.132226,-0.446207,9.30623,0.158571,
2,0,0,1,0,16865.3,0.15741,0.157131,-0.546863,9,0.0168998,10,-8.5929e-05,-3.26212,-0.109273,-0.539932,11.6156,0.157131,
2,0,0,1,0,16865.5,0.155911,0.155615,-0.562537,9,0.0168135,10,-8.75392e-05,-3.24985,-0.109659,-0.538029,11.8934,0.1556149,
2,0,0,1,0,16865.6,0.154413,0.154147,-0.581898,9,0.0167244,10,-8.9698e-05,-3.23515,-0.106091,-0.556125,12.6393,0.154147,
2,0,0,1,0,16865.8,0.152915,0.152573,-0.602984,9,0.0166327,10,-9.19988e-05,-3.21969,-0.101327,-0.582275,13.7391,0.152573,
2,0,0,1,0,16865.9,0.151417,0.151101,-0.626034,9,0.016538,10,-9.45943e-05,-3.2034,-0.0928737,-0.635271,15.5294,0.151101,
2,0,0,1,0,16866.1,0.149918,0.149602,-0.650189,9,0.0164396,10,-9.72698e-05,-3.18696,-0.0852323,-0.692226,17.5431,0.149602,
2,0,0,1,0,16866.2,0.14842,0.148107,-0.677279,9,0.0163372,10,-0.00010031,-3.16923,-0.0796543,-0.740701,19.6522,0.1481072,
2,0,0,1,0,16866.4,0.146922,0.14661,-0.708303,9,0.0162306,10,-0.000103844,-3.14978,-0.0786513,-0.750146,20.7352,0.1466099,
2,0,0,1,0,16866.5,0.145424,0.145068,-0.741951,9,0.0161193,10,-0.000107633,-3.12962,-0.0743816,-0.793207,22.9934,0.145068,
2,0,0,1,0,16866.7,0.143925,0.143645,-0.776395,9,0.0160028,10,-0.000111526,-3.10992,-0.0699682,-0.84324,25.5748,0.143645,
2,0,0,1,0,16866.8,0.142428,0.142147,-0.817662,9,0.0158804,10,-0.000116228,-3.08743,-0.0689755,-0.855376,27.3057,0.142147,
2,0,0,1,0,16867,0.14093,0.140635,-0.856774,9,0.015752,10,-0.000120492,-3.06713,-0.0732195,-0.805796,26.9357,0.140635,
2,0,0,1,0,16867.1,0.139431,0.139133,-0.894569,9,0.0156175,10,-0.000124464,-3.04839,-0.0718994,-0.820591,28.8535,0.139133,
2,0,0,1,0,16867.3,0.137933,0.137626,-0.942204,9,0.0154767,10,-0.000129672,-3.02586,-0.0735167,-0.802539,29.4829,0.137626,
2,0,0,1,0,16867.4,0.136435,0.136069,-0.988773,9,0.0153289,10,-0.000134542,-3.0049,-0.0785817,-0.750811,28.8548,0.136069,
2,0,0,1,0,16867.6,0.134936,0.134616,-1.03075,9,0.0151746,10,-0.000138756,-2.98685,-0.0877381,-0.672456,26.9575,0.134616,
2,0,0,1,0,16867.7,0.133438,0.133095,-1.07152,9,0.015014,10,-0.000142615,-2.97,-0.0904451,-0.652329,27.2698,0.133095,
2,0,0,1,0,16867.9,0.13194,0.131596,-1.11037,9,0.0148476,10,-0.00014612,-2.95453,-0.100197,-0.58884,25.528,0.131596,
2,0,0,1,0,16868,0.130442,0.130104,-1.15104,9,0.014675,10,-0.000149755,-2.93891,-0.109451,-0.539052,24.0925,0.130104,
2,0,0,1,0,16868.2,0.128943,0.128584,-1.1861,9,0.0144969,10,-0.000152514,-2.92588,-0.136243,-0.433051,19.9133,0.128584,
2,0,0,1,0,16868.3,0.127445,0.127146,-1.21438,9,0.0143142,10,-0.000154403,-2.91565,-0.150008,-0.393312,18.5598,0.127146,
2,0,0,1,0,16868.5,0.125948,0.12564,-1.23995,9,0.0141278,10,-0.000155787,-2.9066,-0.179076,-0.329469,15.8677,0.12564,
2,0,0,1,0,16868.6,0.124449,0.12416,-1.26023,9,0.0139375,10,-0.00015647,-2.89955,-0.199566,-0.295641,14.4864,0.12416,
2,0,0,1,0,16868.8,0.122951,0.122652,-1.27744,9,0.0137443,10,-0.000156681,-2.89366,-0.290521,-0.203083,10.0909,0.122652,
2,0,0,1,0,16868.9,0.121453,0.121109,-1.29056,9,0.0135488,10,-0.000156298,-2.88922,-0.419643,-0.140596,7.06019,0.121109,
2,0,0,1,0,16869.1,0.119955,0.119658,-1.29579,9,0.0133519,10,-0.000155051,-2.88747,-0.595851,-0.0990181,5.01558,0.119658,
2,0,0,1,0,16869.2,0.118456,0.118131,-1.30645,9,0.0131538,10,-0.000154332,-2.88391,-0.779079,-0.0757305,3.8509,0.118131,
2,0,0,1,0,16869.4,0.116958,0.116641,-1.31332,9,0.0129547,10,-0.000153187,-2.88163,-3.63301,-0.01624,0.827526,0.116641,
2,0,0,1,0,16869.5,0.11546,0.115168,-1.31087,9,0.0127553,10,-0.00015097,-2.88244,1.61394,0.0365565,-1.86296,0.1151678,
2,0,0,1,0,16869.7,0.113962,0.113666,-1.3042,9,0.0125564,10,-0.000148244,-2.88465,0.85469,0.0690309,-3.51492,0.113666,
2,0,0,1,0,16869.8,0.112463,0.112158,-1.30177,9,0.0123582,10,-0.000146003,-2.88547,0.840519,0.0701947,-3.56409,0.112158,
2,0,0,1,0,16870,0.110966,0.110634,-1.29745,9,0.0121607,10,-0.000143541,-2.88691,0.6914,0.0853341,-4.31079,0.110634,
2,0,0,1,0,16870.1,0.109468,0.109153,-1.28718,9,0.0119641,10,-0.000140499,-2.89036,0.531178,0.111074,-5.56555,0.109153,
2,0,0,1,0,16870.3,0.107969,0.107654,-1.27793,9,0.0117686,10,-0.000137574,-2.89349,0.460379,0.128155,-6.39716,0.107654,
2,0,0,1,0,16870.4,0.106471,0.106164,-1.26715,9,0.0115752,10,-0.000134526,-2.89717,0.48213,0.122374,-6.06754,0.106164,
2,0,0,1,0,16870.6,0.104973,0.104673,-1.25889,9,0.011383,10,-0.000131771,-2.90001,0.427743,0.137933,-6.76898,0.104673,
2,0,0,1,0,16870.7,0.103474,0.103143,-1.24955,9,0.011192,10,-0.000128882,-2.90325,0.374539,0.157527,-7.65841,0.103143,
2,0,0,1,0,16870.9,0.101976,0.101693,-1.2388,9,0.0110028,10,-0.000125978,-2.907,0.328429,0.179643,-8.66916,0.101693,
2,0,0,1,0,16871,0.100478,0.100121,-1.22469,9,0.0108157,10,-0.000122617,-2.91197,0.335769,0.175716,-8.40372,0.100121,
2,0,0,1,0,16871.2,0.0989799,0.0987007,-1.21467,9,0.0106301,10,-0.000119889,-2.91554,0.390471,0.1511,-7.14481,0.0987007,
2,0,0,1,0,16871.3,0.0974808,0.0971295,-1.20422,9,0.0104461,10,-0.000116966,-2.91929,0.36563,0.161365,-7.5646,0.0971295,
2,0,0,1,0,16871.5,0.0959833,0.0956559,-1.19139,9,0.0102639,10,-0.000113963,-2.92395,0.334088,0.1766,-8.21205,0.09565594,
2,0,0,1,0,16871.6,0.0944857,0.0941563,-1.1761,9,0.0100837,10,-0.000110738,-2.92955,0.402833,0.146463,-6.74749,0.0941563,
2,0,0,1,0,16871.8,0.0929871,0.092666,-1.16824,9,0.00990502,10,-0.000108256,-2.93247,0.498169,0.118434,-5.3976,0.092666,
2,0,0,1,0,16871.9,0.0914889,0.0911856,-1.16062,9,0.00972768,10,-0.000105832,-2.93531,0.436817,0.135068,-6.09929,0.0911856,
2,0,0,1,0,16872.1,0.0899907,0.0896852,-1.14722,9,0.00955177,10,-0.000102888,-2.94035,0.344449,0.171288,-7.65999,0.0896852,
2,0,0,1,0,16872.2,0.0884925,0.0881985,-1.13553,9,0.00937764,10,-0.000100152,-2.9448,0.380043,0.155246,-6.8989,0.0881985,
2,0,0,1,0,16872.4,0.0869943,0.0866842,-1.12907,9,0.00920523,10,-9.78724e-05,-2.94728,0.411346,0.143432,-6.32292,0.0866842,
2,0,0,1,0,16872.5,0.0854962,0.0852007,-1.11815,9,0.00903399,10,-9.52674e-05,-2.9515,0.405233,0.145595,-6.36473,0.0852007,
2,0,0,1,0,16872.7,0.083998,0.0837002,-1.11109,9,0.00886404,10,-9.29984e-05,-2.95425,0.354296,0.166527,-7.21051,0.08370024,
2,0,0,1,0,16872.8,0.0824998,0.0822347,-1.10209,9,0.00869552,10,-9.06298e-05,-2.95778,0.424355,0.139034,-5.97865,0.0822347,
2,0,0,1,0,16873,0.0810011,0.0806915,-1.094,9,0.00852845,10,-8.82764e-05,-2.96098,0.513587,0.114878,-4.91004,0.0806915,
2,0,0,1,0,16873.1,0.0795036,0.079175,-1.08506,9,0.00836245,10,-8.59098e-05,-2.96455,0.61018,0.0966928,-4.09,0.079175,
2,0,0,1,0,16873.3,0.0780061,0.0777315,-1.07944,9,0.00819738,10,-8.39069e-05,-2.9668,0.582634,0.101264,-4.25816,0.07773149,
2,0,0,1,0,16873.4,0.076507,0.0761268,-1.07008,9,0.00803346,10,-8.14615e-05,-2.97059,0.486663,0.121234,-5.05862,0.0761268,
2,0,0,1,0,16873.6,0.0750088,0.0746698,-1.06101,9,0.00787102,10,-7.92256e-05,-2.97428,0.486161,0.121359,-5.03201,0.0746698,
2,0,0,1,0,16873.7,0.0735106,0.0731821,-1.05487,9,0.00770967,10,-7.71978e-05,-2.9768,0.73986,0.0797448,-3.28027,0.0731821,
2,0,0,1,0,16873.9,0.0720124,0.0716975,-1.04739,9,0.00754916,10,-7.50951e-05,-2.97989,0.607648,0.0970956,-3.97018,0.0716975,
2,0,0,1,0,16874,0.0705142,0.0702161,-1.04109,9,0.00738965,10,-7.31015e-05,-2.98251,0.401584,0.146918,-5.95715,0.0702161,
2,0,0,1,0,16874.2,0.0690161,0.0687071,-1.03415,9,0.00723138,10,-7.10538e-05,-2.98541,0.462365,0.127605,-5.15621,0.0687071,
2,0,0,1,0,16874.3,0.0675179,0.0672226,-1.02586,9,0.00707429,10,-6.8961e-05,-2.98891,0.621494,0.0949325,-3.80665,0.0672226,
2,0,0,1,0,16874.5,0.0660188,0.0657065,-1.02755,9,0.00691784,10,-6.7517e-05,-2.9882,0.48692,0.12117,-4.8349,0.0657065,
2,0,0,1,0,16874.6,0.0645213,0.0642148,-1.01529,9,0.00676226,10,-6.51966e-05,-2.99341,0.455045,0.129658,-5.12164,0.0642148,
2,0,0,1,0,16874.8,0.0630237,0.0627154,-1.00567,9,0.00660789,10,-6.30708e-05,-2.99755,0.517603,0.113987,-4.48463,0.0627154,
2,0,0,1,0,16874.9,0.0615251,0.0612005,-0.998249,9,0.00645475,10,-6.10933e-05,-3.00076,0.489006,0.120653,-4.71256,0.0612005,
2,0,0,1,0,16875.1,0.0600269,0.0597,-0.993269,9,0.00630246,10,-5.92982e-05,-3.00293,0.586686,0.100565,-3.90166,0.0597,
2,0,0,1,0,16875.2,0.0585287,0.0581762,-0.987695,9,0.00615106,10,-5.74604e-05,-3.00538,0.376764,0.156597,-6.01861,0.0581762,
2,0,0,1,0,16875.4,0.0570305,0.0566588,-0.980734,9,0.0060007,10,-5.55672e-05,-3.00845,0.452476,0.130394,-4.98966,0.0566588,
2,0,0,1,0,16875.5,0.0555323,0.0552241,-0.97289,9,0.00585178,10,-5.37269e-05,-3.01194,0.50003,0.117993,-4.48542,0.0552241,
2,0,0,1,0,16875.7,0.0540342,0.0537236,-0.968694,9,0.00570362,10,-5.20417e-05,-3.01381,0.462404,0.127594,-4.80906,0.0537236,
2,0,0,1,0,16875.8,0.052536,0.0521765,-0.961842,9,0.00555621,10,-5.01855e-05,-3.0169,0.443361,0.133074,-4.9821,0.0521765,
2,0,0,1,0,16876,0.0510378,0.0506771,-0.953258,9,0.00541008,10,-4.83083e-05,-3.02079,0.400645,0.147262,-5.47762,0.05067705,
2,0,0,1,0,16876.1,0.0495391,0.0492226,-0.943506,9,0.00526517,10,-4.64418e-05,-3.02526,0.459428,0.128421,-4.73057,0.0492226,
2,0,0,1,0,16876.3,0.0480416,0.0477081,-0.935183,9,0.00512133,10,-4.46158e-05,-3.0291,0.612236,0.096368,-3.52112,0.0477081,
2,0,0,1,0,16876.4,0.0465441,0.0462208,-0.93083,9,0.00497853,10,-4.30237e-05,-3.03113,0.469511,0.125663,-4.56433,0.0462208,
2,0,0,1,0,16876.6,0.045045,0.0447557,-0.923683,9,0.00483668,10,-4.13401e-05,-3.03448,0.457424,0.128983,-4.64665,0.0447557,
2,0,0,1,0,16876.7,0.0435468,0.0432765,-0.912037,9,0.00469609,10,-3.94697e-05,-3.03999,0.373407,0.158004,-5.64207,0.0432765,
2,0,0,1,0,16876.9,0.0420486,0.0417293,-0.910349,9,0.0045567,10,-3.79883e-05,-3.04079,0.437016,0.135006,-4.79321,0.0417293,
2,0,0,1,0,16877,0.0405504,0.0402246,-0.90487,9,0.00441823,10,-3.6398e-05,-3.04341,0.439922,0.134115,-4.72058,0.0402246,
2,0,0,1,0,16877.2,0.0390523,0.0387464,-0.896457,9,0.00428072,10,-3.47345e-05,-3.04747,0.348379,0.169356,-5.90642,0.0387464,
2,0,0,1,0,16877.3,0.0375541,0.0372025,-0.886024,9,0.00414438,10,-3.29623e-05,-3.05255,0.408239,0.144523,-5.01302,0.0372025,
2,0,0,1,0,16877.5,0.0360559,0.0357221,-0.880273,9,0.00400951,10,-3.14452e-05,-3.05538,0.379396,0.15551,-5.34665,0.0357221,
2,0,0,1,0,16877.6,0.0345568,0.0342431,-0.872448,9,0.00387522,10,-2.98753e-05,-3.05926,0.432209,0.136508,-4.6544,0.0342431,
2,0,0,1,0,16877.8,0.0330593,0.0327593,-0.86783,9,0.00374212,10,-2.84295e-05,-3.06157,0.37841,0.155916,-5.26785,0.0327593,
2,0,0,1,0,16877.9,0.0315618,0.0312477,-0.857237,9,0.0036101,10,-2.67867e-05,-3.0669,0.415624,0.141955,-4.76414,0.0312477,
2,0,0,1,0,16878.1,0.0300631,0.0297234,-0.851272,9,0.00347942,10,-2.53027e-05,-3.06993,0.444941,0.132602,-4.40724,0.0297234,
2,0,0,1,0,16878.2,0.0285649,0.0282304,-0.843537,9,0.00334953,10,-2.38133e-05,-3.0739,0.571274,0.103278,-3.40186,0.0282304,
2,0,0,1,0,16878.4,0.0270667,0.0267447,-0.838175,9,0.00322051,10,-2.24168e-05,-3.07667,0.454555,0.129797,-4.23994,0.0267447,
2,0,0,1,0,16878.5,0.0255685,0.0252824,-0.831358,9,0.00309244,10,-2.10187e-05,-3.08021,0.357595,0.164991,-5.35664,0.0252824,
2,0,0,1,0,16878.7,0.0240704,0.0237788,-0.822978,9,0.00296569,10,-1.95694e-05,-3.08461,0.411358,0.143428,-4.62294,0.0237788,
2,0,0,1,0,16878.8,0.0225722,0.0222825,-0.818926,9,0.00283968,10,-1.82478e-05,-3.08676,0.676167,0.0872566,-2.78773,0.0222825,
2,0,0,1,0,16879,0.021074,0.0207322,-0.812789,9,0.00271444,10,-1.68509e-05,-3.09002,0.503387,0.117206,-3.72248,0.0207322,
2,0,0,1,0,16879.1,0.0195758,0.0192795,-0.808885,9,0.00258998,10,-1.55949e-05,-3.09211,0.416536,0.141644,-4.46939,0.0192795,
2,0,0,1,0,16879.3,0.0180772,0.01772,-0.800132,9,0.00246639,10,-1.41783e-05,-3.09684,0.589345,0.100111,-3.13867,0.01771999,
2,0,0,1,0,16879.4,0.0165796,0.0162791,-0.798334,9,0.00234374,10,-1.29962e-05,-3.09782,0.761533,0.0774753,-2.4169,0.0162791,
2,0,0,1,0,16879.6,0.0150821,0.0147289,-0.795973,9,0.00222147,10,-1.17238e-05,-3.0991,1.01534,0.0581088,-1.8021,0.0147289,
2,0,0,1,0,16879.7,0.013583,0.0132701,-0.789851,9,0.00209952,10,-1.04814e-05,-3.10245,0.622467,0.0947841,-2.92042,0.0132701,
2,0,0,1,0,16879.9,0.0120848,0.0117506,-0.784153,9,0.00197845,10,-9.21426e-06,-3.1056,0.980563,0.0601695,-1.85289,0.0117506,
2,0,0,1,0,16880,0.0105866,0.0102756,-0.785908,9,0.00185796,10,-8.07565e-06,-3.10463,1.12569,0.0524122,-1.60511,0.0102756,
2,0,0,1,0,16880.2,0.00908846,0.00879311,-0.78274,9,0.00173763,10,-6.88272e-06,-3.10638,2.1163,0.0278788,-0.851695,0.00879311,
2,0,0,1,0,16880.3,0.00759027,0.0072884,-0.780101,9,0.00161759,10,-5.68569e-06,-3.10785,1.16795,0.0505156,-1.53992,0.0072884,
2,0,0,1,0,16880.5,0.00609208,0.00575399,-0.782068,9,0.00149784,10,-4.50001e-06,-3.10676,1.21162,0.0486952,-1.48165,0.005753987,
2,0,0,1,0,16880.6,0.00459389,0.00433834,-0.780219,9,0.00137842,10,-3.38486e-06,-3.10778,5.65318,0.0104366,-0.317244,0.00433834,
2,0,0,1,0,16880.8,0.0030948,0.00279878,-0.778627,9,0.00125883,10,-2.1792e-06,-3.10867,-1.00664,-0.0586108,1.78251,0.00279878,
2,0,0,1,0,16880.9,0.00159728,0.00123438,-0.78908,9,0.00113763,10,-9.74027e-07,-3.10288, , , ,0.00123438,
2,0,0,1,0,16881,0.000199195,-0.00016499,-0.779079,9,0.00102538,10,1.2854e-07,-3.10842, , , ,-0.00016499,