File: Figure_codes/Fig_3-5/rawdata_trumpetplot_data/after 10th/20221101_1-115_003_TrumpetPlot_ParaChange_from10_every3_11_CV_C01_4.csv
mode,ox/red,error,control changes,counter inc.,time/s,control/V,Ewe/V,<I>/mA,cycle number,(Q-Qo)/C,I Range,P/W,log(|I|),Tafel slope mV/dec,alpha_eff,dI/d(E-IR),E-IR/V,
2,1,0,1,0,9075.04,2.44065e-05,-0.000287149,10.1662,5,0.0000000E+000,10,-2.9192e-06,-1.99284, , , ,-0.0002871489,
2,1,0,1,0,9075.05,0.00214129,0.00175413,11.6226,5,5.61579e-05,10,2.03877e-05,-1.9347, , , ,0.00175413,
2,1,0,1,0,9075.05,0.00454949,0.00420791,12.8349,5,0.000129856,10,5.40082e-05,-1.89161,0.0642227,0.918678,449.389,0.00420791,
2,1,0,1,0,9075.06,0.0069466,0.00661928,13.7655,5,0.00020981,10,9.11179e-05,-1.86121,0.0847403,0.696245,369.736,0.00661928,
2,1,0,1,0,9075.07,0.0093437,0.00901474,14.5755,5,0.000294993,10,0.000131394,-1.83638,0.105577,0.558835,315.043,0.00901474,
2,1,0,1,0,9075.07,0.0117408,0.011477,15.2627,5,0.000384629,10,0.00017517,-1.81637,0.129181,0.456723,270.439,0.011477,
2,1,0,1,0,9075.08,0.0141462,0.0138247,15.8649,5,0.000478114,10,0.000219328,-1.79956,0.152155,0.387763,239.102,0.0138247,
2,1,0,1,0,9075.08,0.0165433,0.016217,16.4159,5,0.000575052,10,0.000266218,-1.78473,0.17745,0.332488,212.109,0.016217,
2,1,0,1,0,9075.09,0.0189404,0.0186082,16.8823,5,0.00067504,10,0.00031415,-1.77257,0.204554,0.288433,189.612,0.0186082,
2,1,0,1,0,9075.1,0.0213486,0.0210387,17.322,5,0.000777721,10,0.000364432,-1.7614,0.229593,0.256977,173.409,0.0210387,
2,1,0,1,0,9075.1,0.0237457,0.0234129,17.7274,5,0.000882924,10,0.000415051,-1.75135,0.254786,0.231566,159.883,0.0234129,
2,1,0,1,0,9075.11,0.0261429,0.0257787,18.1009,5,0.000990442,10,0.000466619,-1.7423,0.272353,0.216631,152.831,0.0257787,
2,1,0,1,0,9075.11,0.02854,0.0282134,18.4411,5,0.00110009,10,0.000520287,-1.73421,0.299467,0.197017,141.644,0.0282134,
2,1,0,1,0,9075.12,0.0309482,0.0306545,18.7714,5,0.00121181,10,0.000575426,-1.7265,0.31902,0.184942,135.38,0.0306545,
2,1,0,1,0,9075.13,0.0333453,0.0330372,19.0953,5,0.00132543,10,0.000630854,-1.71907,0.33778,0.17467,130.049,0.0330372,
2,1,0,1,0,9075.13,0.0357424,0.0354189,19.3952,5,0.00144093,10,0.000686954,-1.71231,0.358677,0.164493,124.458,0.0354189,
2,1,0,1,0,9075.14,0.0381478,0.0378313,19.697,5,0.00155824,10,0.000745164,-1.7056,0.360755,0.163546,125.72,0.03783128,
2,1,0,1,0,9075.14,0.0405449,0.0402384,19.9954,5,0.00167733,10,0.000804584,-1.69907,0.380305,0.155138,121.027,0.0402384,
2,1,0,1,0,9075.15,0.042942,0.0426084,20.2922,5,0.00179828,10,0.000864619,-1.69267,0.375489,0.157128,124.399,0.04260841,
2,1,0,1,0,9075.16,0.0453391,0.0450283,20.5789,5,0.0019209,10,0.000926631,-1.68658,0.386941,0.152478,122.545,0.0450283,
2,1,0,1,0,9075.16,0.0477473,0.0474089,20.8835,5,0.00204533,10,0.000990062,-1.6802,0.388807,0.151746,123.608,0.0474089,
2,1,0,1,0,9075.17,0.0501444,0.0497937,21.1809,5,0.00217158,10,0.00105468,-1.67406,0.392088,0.150476,124.365,0.0497937,
2,1,0,1,0,9075.17,0.0525415,0.0521796,21.4705,5,0.00229955,10,0.00112032,-1.66816,0.392448,0.150339,126.08,0.0521796,
2,1,0,1,0,9075.18,0.0549469,0.0546249,21.791,5,0.00242937,10,0.00119033,-1.66172,0.389767,0.151372,128.684,0.0546249,
2,1,0,1,0,9075.19,0.057344,0.056961,22.0878,5,0.00256104,10,0.00125814,-1.65585,0.393887,0.149789,129.149,0.056961,
2,1,0,1,0,9075.19,0.0597411,0.0594031,22.4068,5,0.00269457,10,0.00133103,-1.64962,0.396623,0.148756,130.09,0.0594031,
2,1,0,1,0,9075.2,0.0621438,0.0618431,22.7149,5,0.00282995,10,0.00140476,-1.64369,0.392044,0.150493,133.481,0.0618431,
2,1,0,1,0,9075.2,0.0645465,0.0642163,23.0496,5,0.00296729,10,0.00148016,-1.63734,0.385706,0.152966,137.572,0.0642163,
2,1,0,1,0,9075.21,0.0669436,0.0666224,23.3813,5,0.00310662,10,0.00155772,-1.63113,0.40295,0.14642,133.493,0.0666224,
2,1,0,1,0,9075.22,0.0693407,0.0690316,23.6904,5,0.0032479,10,0.00163538,-1.62543,0.403573,0.146194,135.244,0.0690316,
2,1,0,1,0,9075.22,0.0717489,0.0713539,24.0198,5,0.00339106,10,0.00171391,-1.61943,0.404202,0.145967,136.884,0.0713539,
2,1,0,1,0,9075.23,0.074146,0.0738342,24.3647,5,0.00353626,10,0.00179894,-1.61324,0.424126,0.13911,132.131,0.0738342,
2,1,0,1,0,9075.23,0.0765431,0.0761819,24.6505,5,0.00368334,10,0.00187793,-1.60817,0.425101,0.138791,133.661,0.0761819,
2,1,0,1,0,9075.24,0.0789485,0.0785626,24.9832,5,0.00383224,10,0.00196275,-1.60235,0.413454,0.1427,139.251,0.0785626,
2,1,0,1,0,9075.25,0.0813456,0.0809813,25.3427,5,0.00398328,10,0.00205229,-1.59615,0.409585,0.144048,142.329,0.0809813,
2,1,0,1,0,9075.25,0.0837427,0.0834076,25.6749,5,0.00413637,10,0.00214148,-1.59049,0.420451,0.140326,140.646,0.0834076,
2,1,0,1,0,9075.26,0.0861398,0.0858104,26.014,5,0.00429148,10,0.00223227,-1.58479,0.422539,0.139632,141.744,0.08581043,
2,1,0,1,0,9075.26,0.088548,0.0882504,26.3629,5,0.00444868,10,0.00232654,-1.57901,0.440225,0.134022,137.811,0.0882504,
2,1,0,1,0,9075.27,0.0909451,0.0905971,26.6858,5,0.00460785,10,0.00241766,-1.57372,0.45567,0.12948,134.859,0.0905971,
2,1,0,1,0,9075.28,0.0933422,0.0930074,27.0068,5,0.00476898,10,0.00251184,-1.56853,0.455506,0.129526,136.551,0.0930074,
2,1,0,1,0,9075.28,0.0957477,0.0954145,27.3403,5,0.00493203,10,0.00260866,-1.5632,0.46433,0.127065,135.565,0.0954145,
2,1,0,1,0,9075.29,0.0981447,0.0978121,27.6666,5,0.00509709,10,0.00270613,-1.55804,0.47539,0.124109,133.904,0.0978121,
2,1,0,1,0,9075.29,0.100542,0.100223,27.9806,5,0.00526406,10,0.00280431,-1.55314,0.478808,0.123223,134.566,0.100223,
2,1,0,1,0,9075.3,0.102939,0.102605,28.2941,5,0.00543289,10,0.00290312,-1.5483,0.474723,0.124283,137.311,0.102605,
2,1,0,1,0,9075.31,0.105347,0.105031,28.6468,5,0.00560375,10,0.00300882,-1.54292,0.47607,0.123931,138.436,0.105031,
2,1,0,1,0,9075.31,0.107744,0.107394,28.9646,5,0.00577663,10,0.00311063,-1.53813,0.485863,0.121433,137.267,0.107394,
2,1,0,1,0,9075.32,0.110141,0.109769,29.3015,5,0.00595142,10,0.0032164,-1.53311,0.468732,0.125871,144.041,0.109769,
2,1,0,1,0,9075.32,0.11255,0.112253,29.672,5,0.00612831,10,0.00333077,-1.52765,0.454131,0.129919,150.361,0.112253,
2,1,0,1,0,9075.33,0.114947,0.114642,30.0217,5,0.00630741,10,0.00344175,-1.52256,0.444957,0.132597,155.406,0.114642,
2,1,0,1,0,9075.34,0.117344,0.117012,30.3912,5,0.00648868,10,0.00355613,-1.51725,0.429207,0.137463,163.222,0.117012,
2,1,0,1,0,9075.34,0.119744,0.119351,30.8098,5,0.0066723,10,0.00367718,-1.51131,0.409303,0.144148,173.377,0.119351,
2,1,0,1,0,9075.35,0.122146,0.121809,31.2254,5,0.00685847,10,0.00380354,-1.50549,0.398073,0.148214,180.662,0.121809,
2,1,0,1,0,9075.35,0.124543,0.124197,31.6629,5,0.00704718,10,0.00393244,-1.49945,0.394982,0.149374,184.647,0.124197,
2,1,0,1,0,9075.36,0.126941,0.126612,32.1122,5,0.00723856,10,0.00406577,-1.49333,0.373665,0.157895,198.035,0.126612,
2,1,0,1,0,9075.37,0.129349,0.129036,32.6013,5,0.00743273,10,0.00420673,-1.48677,0.372187,0.158522,201.733,0.129036,
2,1,0,1,0,9075.37,0.131746,0.131423,33.0978,5,0.00762989,10,0.0043498,-1.4802,0.370284,0.159337,205.726,0.131423,
2,1,0,1,0,9075.38,0.134143,0.133799,33.5739,5,0.00782996,10,0.00449216,-1.474,0.370776,0.159126,208.641,0.133799,
2,1,0,1,0,9075.38,0.13654,0.13622,34.0923,5,0.00803298,10,0.00464405,-1.46734,0.373482,0.157973,210.122,0.13622,
2,1,0,1,0,9075.39,0.138945,0.13859,34.6009,5,0.00823914,10,0.00479535,-1.46091,0.380487,0.155064,209.247,0.13859,
2,1,0,1,0,9075.4,0.141343,0.141016,35.0844,5,0.00844824,10,0.00494748,-1.45489,0.390632,0.151037,206.853,0.141016,
2,1,0,1,0,9075.4,0.14374,0.143395,35.594,5,0.00866031,10,0.00510399,-1.44862,0.397882,0.148285,205.897,0.143395,
2,1,0,1,0,9075.41,0.146148,0.145839,36.0876,5,0.00887542,10,0.00526298,-1.44264,0.41895,0.140828,198.166,0.145839,
2,1,0,1,0,9075.41,0.148545,0.148287,36.5477,5,0.00909337,10,0.00541957,-1.43714,0.443272,0.133101,189.805,0.148287,
2,1,0,1,0,9075.42,0.150942,0.150639,37.001,5,0.00931406,10,0.00557382,-1.43179,0.456645,0.129203,186.485,0.150639,
2,1,0,1,0,9075.43,0.153345,0.153026,37.4361,5,0.00953742,10,0.00572871,-1.42671,0.488442,0.120792,176.373,0.153026,
2,1,0,1,0,9075.43,0.155747,0.155382,37.855,5,0.00976337,10,0.00588197,-1.42188,0.519767,0.113512,167.555,0.155382,
2,1,0,1,0,9075.44,0.158144,0.157791,38.2419,5,0.00999169,10,0.00603423,-1.41746,0.580224,0.101685,151.635,0.157791,
2,1,0,1,0,9075.44,0.160542,0.160211,38.5982,5,0.0102222,10,0.00618385,-1.41343,0.62945,0.0937326,141.073,0.160211,
2,1,0,1,0,9075.45,0.162947,0.162658,38.9253,5,0.0104549,10,0.00633152,-1.40977,0.731632,0.0806417,122.323,0.162658,
2,1,0,1,0,9075.46,0.165344,0.164998,39.1882,5,0.0106893,10,0.00646599,-1.40684,0.901702,0.0654318,99.9608,0.1649984,
2,1,0,1,0,9075.46,0.167741,0.167424,39.4004,5,0.0109251,10,0.00659656,-1.4045,1.21742,0.0484631,74.4292,0.167424,
2,1,0,1,0,9075.47,0.170149,0.169799,39.5679,5,0.011162,10,0.00671858,-1.40266,2.20281,0.026784,41.257,0.169799,
2,1,0,1,0,9075.47,0.172547,0.172277,39.6002,5,0.0113996,10,0.00682221,-1.4023,-28.0209,-0.00210557,-3.24608,0.172277,
2,1,0,1,0,9075.48,0.174944,0.17466,39.5384,5,0.0116371,10,0.00690577,-1.40298,-1.74016,-0.0339048,-52.1811,0.17466,
2,1,0,1,0,9075.49,0.177341,0.177036,39.3532,5,0.0118738,10,0.00696694,-1.40502,-0.822145,-0.0717635,-109.854,0.177036,
2,1,0,1,0,9075.49,0.179746,0.179438,39.0245,5,0.012109,10,0.00700249,-1.40866,-0.520765,-0.113295,-171.904,0.179438,
2,1,0,1,0,9075.5,0.182143,0.181818,38.5277,5,0.0123417,10,0.007005,-1.41423,-0.366287,-0.161076,-241.247,0.181818,
2,1,0,1,0,9075.5,0.18454,0.184279,37.875,5,0.0125709,10,0.00697955,-1.42165,-0.283271,-0.208281,-306.606,0.184279,
2,1,0,1,0,9075.51,0.186949,0.186657,37.0627,5,0.0127957,10,0.00691802,-1.43106,-0.226738,-0.260212,-374.843,0.186657,
2,1,0,1,0,9075.52,0.189346,0.189052,36.08,5,0.0130151,10,0.00682099,-1.44273,-0.191891,-0.307466,-431.33,0.189052,
2,1,0,1,0,9075.52,0.191743,0.191457,34.9758,5,0.0132282,10,0.00669634,-1.45623,-0.168057,-0.351071,-477.75,0.191457,
2,1,0,1,0,9075.53,0.19414,0.193834,33.7627,5,0.0134343,10,0.00654436,-1.47156,-0.151147,-0.390349,-512.983,0.193834,
2,1,0,1,0,9075.53,0.196548,0.196213,32.4893,5,0.013633,10,0.00637481,-1.48826,-0.138513,-0.425952,-538.99,0.196213,
2,1,0,1,0,9075.54,0.198945,0.198644,31.164,5,0.0138238,10,0.00619055,-1.50635,-0.130756,-0.451223,-548.464,0.198644,
2,1,0,1,0,9075.55,0.201342,0.201078,29.8578,5,0.0140067,10,0.00600374,-1.52494,-0.127359,-0.463256,-539.403,0.201078,
2,1,0,1,0,9075.55,0.203748,0.20345,28.5633,5,0.0141819,10,0.00581119,-1.54419,-0.126575,-0.466126,-520.034,0.20345,
2,1,0,1,0,9075.56,0.206145,0.205836,27.3349,5,0.0143494,10,0.0056265,-1.56328,-0.12692,-0.464861,-496.854,0.205836,
2,1,0,1,0,9075.56,0.208542,0.208231,26.2048,5,0.0145099,10,0.00545666,-1.58162,-0.132533,-0.445174,-455.843,0.208231,
2,1,0,1,0,9075.57,0.210939,0.210643,25.1223,5,0.0146637,10,0.00529183,-1.59994,-0.136749,-0.431447,-424.114,0.210643,
2,1,0,1,0,9075.58,0.213347,0.213055,24.1544,5,0.0148114,10,0.00514622,-1.617,-0.1446,-0.408022,-385.588,0.213055,
2,1,0,1,0,9075.58,0.215744,0.215435,23.2831,5,0.0149536,10,0.00501599,-1.63296,-0.154652,-0.381503,-347.399,0.215435,
2,1,0,1,0,9075.59,0.218141,0.217859,22.4833,5,0.0150907,10,0.00489819,-1.64814,-0.167403,-0.352443,-310.1,0.217859,
2,1,0,1,0,9075.59,0.220547,0.22027,21.7855,5,0.0152234,10,0.0047987,-1.66183,-0.181554,-0.324973,-276.885,0.22027,
2,1,0,1,0,9075.6,0.222944,0.222601,21.1424,5,0.0153521,10,0.00470632,-1.67485,-0.195729,-0.301437,-249.383,0.222601,
2,1,0,1,0,9075.61,0.225341,0.225026,20.5838,5,0.0154772,10,0.00463188,-1.68648,-0.213052,-0.276928,-223,0.225026,
2,1,0,1,0,9075.61,0.227744,0.227431,20.0824,5,0.0155991,10,0.00456736,-1.69718,-0.231007,-0.255403,-200.521,0.227431,
2,1,0,1,0,9075.62,0.230146,0.22984,19.6206,5,0.0157182,10,0.00450959,-1.70729,-0.254836,-0.231522,-177.748,0.22984,
2,1,0,1,0,9075.62,0.232543,0.232271,19.2354,5,0.0158347,10,0.00446781,-1.7159,-0.279931,-0.210767,-158.377,0.232271,
2,1,0,1,0,9075.63,0.234941,0.234622,18.8766,5,0.015949,10,0.00442885,-1.72408,-0.302431,-0.195086,-143.902,0.234622,
2,1,0,1,0,9075.64,0.237349,0.237028,18.55,5,0.0160612,10,0.00439687,-1.73165,-0.331976,-0.177724,-128.886,0.237028,
2,1,0,1,0,9075.64,0.239746,0.239424,18.2671,5,0.0161716,10,0.00437359,-1.73833,-0.360356,-0.163727,-116.761,0.239424,
2,1,0,1,0,9075.65,0.242143,0.24186,17.9862,5,0.0162803,10,0.00435013,-1.74506,-0.394575,-0.149528,-105.076,0.24186,
2,1,0,1,0,9075.65,0.244548,0.244217,17.7464,5,0.0163874,10,0.00433397,-1.75089,-0.418474,-0.140988,-97.7637,0.244217,
2,1,0,1,0,9075.66,0.246946,0.246651,17.5208,5,0.0164932,10,0.00432153,-1.75644,-0.462901,-0.127457,-87.1916,0.246651,
2,1,0,1,0,9075.67,0.249343,0.249013,17.3132,5,0.0165977,10,0.00431121,-1.76162,-0.483479,-0.122032,-82.5406,0.249013,
2,1,0,1,0,9075.67,0.25174,0.251412,17.121,5,0.016701,10,0.00430442,-1.76647,-0.499966,-0.118008,-78.9127,0.251412,
2,1,0,1,0,9075.68,0.254148,0.253832,16.9539,5,0.0168032,10,0.00430345,-1.77073,-0.543146,-0.108626,-71.8853,0.253832,
2,1,0,1,0,9075.68,0.256545,0.256257,16.7842,5,0.0169044,10,0.00430106,-1.7751,-0.568159,-0.103844,-68.0639,0.256257,
2,1,0,1,0,9075.69,0.258942,0.258611,16.6371,5,0.0170046,10,0.00430253,-1.77892,-0.626843,-0.0941225,-61.0906,0.258611,
2,1,0,1,0,9075.7,0.261348,0.261038,16.4904,5,0.0171039,10,0.00430464,-1.78277,-0.645541,-0.0913963,-58.837,0.261038,
2,1,0,1,0,9075.7,0.263745,0.263439,16.3472,5,0.0172024,10,0.00430648,-1.78656,-0.693986,-0.0850161,-54.2525,0.263439,
2,1,0,1,0,9075.71,0.266142,0.265852,16.2243,5,0.0173001,10,0.00431326,-1.78983,-0.720579,-0.0818786,-51.8394,0.265852,
2,1,0,1,0,9075.71,0.268539,0.268239,16.083,5,0.017397,10,0.00431408,-1.79363,-0.746742,-0.0790098,-49.663,0.268239,
2,1,0,1,0,9075.72,0.270947,0.27064,15.9751,5,0.0174932,10,0.00432351,-1.79656,-0.794992,-0.0742145,-46.2779,0.27064,
2,1,0,1,0,9075.73,0.273344,0.273057,15.8782,5,0.0175888,10,0.00433564,-1.7992,-0.777587,-0.0758757,-46.978,0.273057,
2,1,0,1,0,9075.73,0.275741,0.275409,15.7496,5,0.0176836,10,0.00433759,-1.80273,-0.805145,-0.0732787,-45.0978,0.275409,
2,1,0,1,0,9075.74,0.278149,0.27784,15.6633,5,0.0177778,10,0.00435189,-1.80512,-0.859786,-0.0686218,-41.9318,0.2778405,
2,1,0,1,0,9075.74,0.280547,0.280243,15.5637,5,0.0178715,10,0.00436162,-1.80789,-0.862389,-0.0684146,-41.5413,0.280243,
2,1,0,1,0,9075.75,0.282944,0.282657,15.4666,5,0.0179645,10,0.00437173,-1.81061,-0.884688,-0.0666902,-40.2688,0.282657,
2,1,0,1,0,9075.76,0.285344,0.285023,15.3679,5,0.018057,10,0.0043802,-1.81339,-0.967529,-0.0609801,-36.583,0.285023,
2,1,0,1,0,9075.76,0.287746,0.287484,15.2684,5,0.0181489,10,0.00438942,-1.81621,-0.947649,-0.0622593,-37.129,0.287484,
2,1,0,1,0,9075.77,0.290143,0.289837,15.1919,5,0.0182403,10,0.00440319,-1.81839,-0.93113,-0.0633638,-37.5393,0.289837,
2,1,0,1,0,9075.77,0.29254,0.29224,15.0971,5,0.0183312,10,0.00441196,-1.82111,-0.997746,-0.0591333,-34.8634,0.29224,
2,1,0,1,0,9075.78,0.294949,0.29465,15.0213,5,0.0184215,10,0.00442604,-1.82329,-1.05305,-0.0560275,-32.8444,0.29465,
2,1,0,1,0,9075.79,0.297346,0.297036,14.9454,5,0.0185114,10,0.00443931,-1.82549,-1.08405,-0.0544257,-31.755,0.297036,
2,1,0,1,0,9075.79,0.299621,0.299373,14.8624,5,0.0185964,10,0.0044494,-1.82791,-0.0667622,-0.883734,-489.793,0.299373,
2,1,0,1,0,9075.79,0.299962,0.299785,14.7367,5,0.0186142,10,0.00441783,-1.8316,0.00737074,8.00462,3563.74,0.299785,
2,1,0,1,0,9075.8,0.297903,0.297685,9.91924,5,0.0186752,10,0.00295281,-2.00352,0.0114846,5.1373,1835.96,0.297685,
2,1,0,1,0,9075.8,0.295506,0.295265,6.15393,5,0.0187224,10,0.00181704,-2.21085,0.0101912,5.78929,1364.64,0.295265,
2,1,0,1,0,9075.81,0.293101,0.292844,3.40178,5,0.0187504,10,0.000996193,-2.46829,0.00639477,9.22629,1022.92,0.292844,
2,1,0,1,0,9075.82,0.290704,0.290411,1.31659,5,0.0187641,10,0.000382351,-2.88055,0.00872388,6.76304,773.955,0.290411,
2,0,0,1,0,9075.82,0.288307,0.288004,-0.306104,5,0.0187668,10,-8.81594e-05,-3.51413,-1.91551,-0.0308011,612.267,0.288004,
2,0,0,1,0,9075.83,0.28591,0.28561,-1.58312,5,0.0187609,10,-0.000452154,-2.80049,-0.00537646,-10.9738,485.697,0.28561,
2,0,0,1,0,9075.83,0.283501,0.283192,-2.64225,5,0.018748,10,-0.000748265,-2.57803,-0.0130259,-4.52944,392.483,0.283192,
2,0,0,1,0,9075.84,0.281104,0.280808,-3.48648,5,0.0187294,10,-0.000979029,-2.45761,-0.0231028,-2.5538,322.851,0.280808,
2,0,0,1,0,9075.85,0.278707,0.278445,-4.17116,5,0.0187063,10,-0.00116144,-2.37974,-0.0344326,-1.71349,269.548,0.278445,
2,0,0,1,0,9075.85,0.276302,0.276018,-4.78444,5,0.0186794,10,-0.00132059,-2.32017,-0.0466034,-1.266,230.112,0.276018,
2,0,0,1,0,9075.86,0.273905,0.273604,-5.28793,5,0.0186491,10,-0.0014468,-2.27671,-0.060443,-0.976126,197.807,0.273604,
2,0,0,1,0,9075.86,0.271508,0.271221,-5.71948,5,0.018616,10,-0.00155124,-2.24264,-0.0759103,-0.777233,171.753,0.271221,
2,0,0,1,0,9075.87,0.269105,0.268843,-6.10343,5,0.0185805,10,-0.00164086,-2.21443,-0.0924264,-0.638346,150.65,0.268843,
2,0,0,1,0,9075.88,0.266702,0.266411,-6.44533,5,0.0185428,10,-0.00171711,-2.19075,-0.109616,-0.538244,134.368,0.266411,
2,0,0,1,0,9075.88,0.264305,0.26395,-6.74844,5,0.0185031,10,-0.00178125,-2.1708,-0.130858,-0.450871,118.099,0.26395,
2,0,0,1,0,9075.89,0.261908,0.261595,-7.0161,5,0.0184618,10,-0.00183538,-2.1539,-0.146241,-0.403444,110.177,0.261595,
2,0,0,1,0,9075.89,0.2595,0.259243,-7.27306,5,0.0184189,10,-0.00188549,-2.13828,-0.163225,-0.361464,102.248,0.2592431,
2,0,0,1,0,9075.9,0.257103,0.256806,-7.51531,5,0.0183745,10,-0.00192998,-2.12405,-0.192726,-0.306134,89.409,0.256806,
2,0,0,1,0,9075.91,0.254706,0.254365,-7.71319,5,0.0183288,10,-0.00196197,-2.11277,-0.206334,-0.285944,86.069,0.254365,
2,0,0,1,0,9075.91,0.2523,0.251957,-7.92347,5,0.018282,10,-0.00199637,-2.10108,-0.21738,-0.271414,83.8042,0.251957,
2,0,0,1,0,9075.92,0.249903,0.249594,-8.11099,5,0.0182338,10,-0.00202446,-2.09093,-0.246158,-0.239683,75.6537,0.249594,
2,0,0,1,0,9075.92,0.247506,0.247214,-8.27986,5,0.0181846,10,-0.0020469,-2.08198,-0.262412,-0.224837,72.7402,0.247214,
2,0,0,1,0,9075.93,0.245109,0.244807,-8.44717,5,0.0181343,10,-0.00206792,-2.07329,-0.276887,-0.213083,70.2855,0.244807,
2,0,0,1,0,9075.94,0.242701,0.242384,-8.633,5,0.018083,10,-0.0020925,-2.06384,-0.30361,-0.194328,65.2541,0.242384,
2,0,0,1,0,9075.94,0.240304,0.240023,-8.77568,5,0.0180308,10,-0.00210637,-2.05672,-0.331375,-0.178046,60.9841,0.240023,
2,0,0,1,0,9075.95,0.237906,0.237607,-8.92338,5,0.0179777,10,-0.00212025,-2.04947,-0.332609,-0.177386,61.8061,0.237607,
2,0,0,1,0,9075.95,0.235501,0.235196,-9.08751,5,0.0179237,10,-0.00213735,-2.04155,-0.337139,-0.175002,61.9404,0.235196,
2,0,0,1,0,9075.96,0.233104,0.232824,-9.21843,5,0.0178687,10,-0.00214627,-2.03534,-0.376469,-0.156719,56.3423,0.232824,
2,0,0,1,0,9075.97,0.230707,0.230428,-9.3485,5,0.017813,10,-0.00215415,-2.02926,-0.382907,-0.154084,56.2672,0.230428,
2,0,0,1,0,9075.97,0.22831,0.228057,-9.48115,5,0.0177565,10,-0.00216224,-2.02314,-0.380006,-0.155261,57.5007,0.228057,
2,0,0,1,0,9075.98,0.225902,0.225606,-9.62765,5,0.0176992,10,-0.00217205,-2.01648,-0.399764,-0.147587,55.3431,0.225606,
2,0,0,1,0,9075.98,0.223504,0.223206,-9.75567,5,0.017641,10,-0.00217753,-2.01074,-0.434158,-0.135895,51.6737,0.223206,
2,0,0,1,0,9075.99,0.221107,0.220768,-9.8652,5,0.0175821,10,-0.00217793,-2.00589,-0.407811,-0.144675,55.798,0.220768,
2,0,0,1,0,9076,0.218699,0.218453,-10.0227,5,0.0175225,10,-0.00218948,-1.99902,-0.431098,-0.13686,53.3982,0.2184535,
2,0,0,1,0,9076,0.216302,0.215985,-10.1312,5,0.017462,10,-0.0021882,-1.99434,-0.463572,-0.127273,50.3335,0.2159849,
2,0,0,1,0,9076.01,0.213905,0.213577,-10.2506,5,0.0174009,10,-0.00218928,-1.98925,-0.461143,-0.127943,51.2652,0.213577,
2,0,0,1,0,9076.01,0.211505,0.211177,-10.3834,5,0.017339,10,-0.00219273,-1.98366,-0.453779,-0.130019,52.6326,0.211177,
2,0,0,1,0,9076.02,0.209102,0.208769,-10.5101,5,0.0172763,10,-0.00219418,-1.97839,-0.447258,-0.131915,54.0649,0.208769,
2,0,0,1,0,9076.03,0.206705,0.206391,-10.6297,5,0.0172129,10,-0.00219387,-1.97348,-0.482463,-0.122289,50.7283,0.206391,
2,0,0,1,0,9076.03,0.204308,0.203959,-10.755,5,0.0171487,10,-0.00219359,-1.96839,-0.43931,-0.134302,56.3796,0.203959,
2,0,0,1,0,9076.04,0.2019,0.201596,-10.8893,5,0.0170837,10,-0.00219523,-1.963,-0.480467,-0.122797,52.1556,0.201596,
2,0,0,1,0,9076.04,0.199503,0.199169,-11.0116,5,0.017018,10,-0.00219317,-1.95815,-0.494411,-0.119334,51.2757,0.199169,
2,0,0,1,0,9076.05,0.197106,0.196799,-11.1334,5,0.0169515,10,-0.00219104,-1.95337,-0.460063,-0.128243,55.8204,0.196799,
2,0,0,1,0,9076.06,0.194709,0.194354,-11.2736,5,0.0168843,10,-0.00219106,-1.94794,-0.464234,-0.127091,55.945,0.194354,
2,0,0,1,0,9076.06,0.192303,0.192008,-11.418,5,0.0168162,10,-0.00219236,-1.94241,-0.463584,-0.127269,56.6388,0.192008,
2,0,0,1,0,9076.07,0.189906,0.189611,-11.5387,5,0.0167473,10,-0.00218787,-1.93784,-0.471976,-0.125006,56.3991,0.189611,
2,0,0,1,0,9076.07,0.187509,0.187175,-11.6904,5,0.0166776,10,-0.00218815,-1.93217,-0.430536,-0.137039,62.5368,0.187175,
2,0,0,1,0,9076.08,0.185101,0.184812,-11.8552,5,0.016607,10,-0.00219098,-1.92609,-0.427142,-0.138127,63.8502,0.184812,
2,0,0,1,0,9076.09,0.182704,0.182403,-11.992,5,0.0165355,10,-0.00218737,-1.92111,-0.422621,-0.139605,65.4274,0.182403,
2,0,0,1,0,9076.09,0.180307,0.179969,-12.1657,5,0.016463,10,-0.00218944,-1.91486,-0.383441,-0.15387,73.0805,0.179969,
2,0,0,1,0,9076.1,0.177904,0.177617,-12.3386,5,0.0163895,10,-0.00219154,-1.90874,-0.384207,-0.153563,73.9438,0.177617,
2,0,0,1,0,9076.1,0.175501,0.175183,-12.5145,5,0.0163149,10,-0.00219232,-1.90259,-0.378993,-0.155676,76.0907,0.175183,
2,0,0,1,0,9076.11,0.173104,0.172797,-12.701,5,0.0162392,10,-0.00219468,-1.89616,-0.352278,-0.167481,83.1317,0.172797,
2,0,0,1,0,9076.12,0.170707,0.170405,-12.9067,5,0.0161624,10,-0.00219937,-1.88918,-0.33399,-0.176652,89.1023,0.170405,
2,0,0,1,0,9076.12,0.168302,0.167995,-13.1412,5,0.0160842,10,-0.00220766,-1.88137,-0.320875,-0.183872,94.3296,0.167995,
2,0,0,1,0,9076.13,0.165905,0.165592,-13.379,5,0.0160046,10,-0.00221545,-1.87358,-0.3017,-0.195558,102.22,0.165592,
2,0,0,1,0,9076.13,0.163507,0.16324,-13.6323,5,0.0159236,10,-0.00222534,-1.86543,-0.2732,-0.215959,115.088,0.16324,
2,0,0,1,0,9076.14,0.161099,0.160812,-13.935,5,0.0158409,10,-0.00224091,-1.85589,-0.264464,-0.223093,121.246,0.160812,
2,0,0,1,0,9076.15,0.158702,0.158366,-14.2113,5,0.0157565,10,-0.00225058,-1.84737,-0.243241,-0.242558,134.845,0.158366,
2,0,0,1,0,9076.15,0.156305,0.156017,-14.5563,5,0.0156701,10,-0.00227102,-1.83695,-0.22659,-0.260383,148.266,0.156017,
2,0,0,1,0,9076.16,0.153908,0.153615,-14.9331,5,0.0155817,10,-0.00229394,-1.82585,-0.214501,-0.275057,160.405,0.153615,
2,0,0,1,0,9076.16,0.151503,0.151215,-15.3252,5,0.0154908,10,-0.0023174,-1.81459,-0.199747,-0.295373,177.058,0.151215,
2,0,0,1,0,9076.17,0.149105,0.148801,-15.7632,5,0.0153976,10,-0.00234557,-1.80236,-0.188368,-0.313216,193.122,0.1488007,
2,0,0,1,0,9076.18,0.146708,0.146389,-16.2572,5,0.0153014,10,-0.00237988,-1.78895,-0.175206,-0.336746,214.021,0.146389,
2,0,0,1,0,9076.18,0.1443,0.144023,-16.7907,5,0.0152023,10,-0.00241825,-1.77493,-0.166934,-0.353433,232.076,0.144023,
2,0,0,1,0,9076.19,0.141903,0.14166,-17.3729,5,0.0150998,10,-0.00246104,-1.76013,-0.15761,-0.374342,254.224,0.14166,
2,0,0,1,0,9076.19,0.139506,0.139217,-18.0061,5,0.0149936,10,-0.00250675,-1.74458,-0.149436,-0.394818,278.16,0.139217,
2,0,0,1,0,9076.2,0.137109,0.136804,-18.7087,5,0.0148834,10,-0.00255943,-1.72796,-0.143,-0.412588,301.885,0.136804,
2,0,0,1,0,9076.21,0.134701,0.134377,-19.465,5,0.0147688,10,-0.00261565,-1.71075,-0.137704,-0.428454,325.792,0.134377,
2,0,0,1,0,9076.21,0.132303,0.132011,-20.2652,5,0.0146496,10,-0.00267523,-1.69325,-0.135023,-0.436962,346.094,0.132011,
2,0,0,1,0,9076.22,0.129906,0.129622,-21.1259,5,0.0145254,10,-0.00273839,-1.67518,-0.134393,-0.439013,361.983,0.129622,
2,0,0,1,0,9076.22,0.127501,0.127212,-22.0134,5,0.0143959,10,-0.00280037,-1.65731,-0.135478,-0.435496,374.085,0.127212,
2,0,0,1,0,9076.23,0.125104,0.12477,-22.9096,5,0.014261,10,-0.00285842,-1.63998,-0.13706,-0.43047,385.036,0.12477,
2,0,0,1,0,9076.24,0.122707,0.122477,-23.8614,5,0.0141206,10,-0.00292248,-1.6223,-0.139739,-0.422216,392.893,0.122477,
2,0,0,1,0,9076.24,0.12031,0.120005,-24.7967,5,0.0139745,10,-0.00297573,-1.60561,-0.144128,-0.409357,396.021,0.120005,
2,0,0,1,0,9076.25,0.117901,0.117583,-25.7542,5,0.0138228,10,-0.00302826,-1.58915,-0.152845,-0.386011,387.254,0.117583,
2,0,0,1,0,9076.25,0.115504,0.115227,-26.6835,5,0.0136653,10,-0.00307466,-1.57376,-0.161873,-0.364482,378.797,0.115227,
2,0,0,1,0,9076.26,0.113107,0.112869,-27.5545,5,0.0135026,10,-0.00311005,-1.55981,-0.169298,-0.348499,374.914,0.112869,
2,0,0,1,0,9076.27,0.110702,0.110424,-28.4734,5,0.0133345,10,-0.00314413,-1.54556,-0.175245,-0.336671,373.463,0.110424,
2,0,0,1,0,9076.27,0.108305,0.108049,-29.3704,5,0.0131608,10,-0.00317345,-1.53209,-0.185339,-0.318336,364.072,0.108049,
2,0,0,1,0,9076.28,0.105908,0.105663,-30.199,5,0.012982,10,-0.00319092,-1.52001,-0.202033,-0.292031,343.803,0.105663,
2,0,0,1,0,9076.28,0.103505,0.103242,-31.0168,5,0.0127983,10,-0.00320225,-1.5084,-0.216813,-0.272124,328.712,0.103242,
2,0,0,1,0,9076.29,0.101102,0.100852,-31.7634,5,0.0126098,10,-0.00320341,-1.49807,-0.239005,-0.246857,305.598,0.1008523,
2,0,0,1,0,9076.3,0.0987052,0.0984431,-32.4894,5,0.012417,10,-0.00319835,-1.48826,-0.260567,-0.226429,286.64,0.0984431,
2,0,0,1,0,9076.3,0.0963081,0.0960858,-33.1539,5,0.0122199,10,-0.00318562,-1.47947,-0.282236,-0.209045,270.093,0.0960858,
2,0,0,1,0,9076.31,0.0938999,0.0936352,-33.7804,5,0.0120191,10,-0.00316304,-1.47133,-0.309853,-0.190413,250.784,0.0936352,
2,0,0,1,0,9076.31,0.0915028,0.0912577,-34.3704,5,0.0118146,10,-0.00313657,-1.46382,-0.337169,-0.174986,234.364,0.0912577,
2,0,0,1,0,9076.32,0.0891057,0.0888146,-34.9151,5,0.0116066,10,-0.00310097,-1.45699,-0.374353,-0.157605,214.422,0.0888146,
2,0,0,1,0,9076.33,0.0867002,0.0864276,-35.404,5,0.0113957,10,-0.00305988,-1.45095,-0.421294,-0.140045,193.237,0.0864276,
2,0,0,1,0,9076.33,0.0843031,0.0840194,-35.8441,5,0.0111819,10,-0.0030116,-1.44558,-0.492552,-0.119784,167.218,0.0840194,
2,0,0,1,0,9076.34,0.081906,0.0816324,-36.1953,5,0.0109656,10,-0.00295471,-1.44135,-0.59416,-0.0992999,140.069,0.0816324,
2,0,0,1,0,9076.34,0.0795089,0.0792073,-36.4998,5,0.0107475,10,-0.00289105,-1.43771,-0.747558,-0.0789236,112.29,0.0792073,
2,0,0,1,0,9076.35,0.0771007,0.0768129,-36.7485,5,0.0105276,10,-0.00282276,-1.43476,-0.947677,-0.0622575,89.1444,0.0768129,
2,0,0,1,0,9076.36,0.0747036,0.0744323,-36.9218,5,0.0103066,10,-0.00274817,-1.43272,-1.5093,-0.039091,56.236,0.0744323,
2,0,0,1,0,9076.36,0.0723065,0.0719997,-37.0258,5,0.0100847,10,-0.00266585,-1.4315,-2.72828,-0.0216254,31.1979,0.0719997,
2,0,0,1,0,9076.37,0.0699011,0.0696361,-37.0709,5,0.00986238,10,-0.00258147,-1.43097,-17.5335,-0.00336498,4.86158,0.0696361,
2,0,0,1,0,9076.37,0.067504,0.0671908,-37.0518,5,0.00964,10,-0.00248954,-1.43119,4.60826,0.0128031,-18.4858,0.0671908,
2,0,0,1,0,9076.38,0.0651069,0.0648112,-36.9836,5,0.00941789,10,-0.00239695,-1.43199,2.02795,0.0290934,-41.928,0.0648112,
2,0,0,1,0,9076.39,0.0627098,0.062437,-36.833,5,0.00919643,10,-0.00229974,-1.43376,1.37622,0.0428709,-61.5876,0.062437,
2,0,0,1,0,9076.39,0.0603016,0.0600224,-36.6756,5,0.00897587,10,-0.00220136,-1.43562,1.08677,0.0542894,-77.6405,0.06002241,
2,0,0,1,0,9076.4,0.0579045,0.0575877,-36.4694,5,0.00875644,10,-0.00210019,-1.43807,0.877381,0.0672456,-95.6106,0.0575877,
2,0,0,1,0,9076.4,0.0555074,0.0552007,-36.2145,5,0.0085384,10,-0.00199906,-1.44112,0.835406,0.0706243,-99.8286,0.0552007,
2,0,0,1,0,9076.41,0.0530992,0.0528032,-35.9842,5,0.00832184,10,-0.00190008,-1.44389,0.792666,0.0744324,-104.465,0.0528032,
2,0,0,1,0,9076.42,0.0507021,0.0504045,-35.725,5,0.00810673,10,-0.0018007,-1.44703,0.744488,0.0792491,-110.432,0.0504045,
2,0,0,1,0,9076.42,0.048305,0.0480303,-35.4484,5,0.00789325,10,-0.0017026,-1.4504,0.726453,0.0812166,-112.384,0.0480303,
2,0,0,1,0,9076.43,0.0459051,0.0455966,-35.1804,5,0.00768141,10,-0.00160411,-1.4537,0.733358,0.0804519,-110.486,0.0455966,
2,0,0,1,0,9076.43,0.0435024,0.0431959,-34.9212,5,0.00747109,10,-0.00150845,-1.45691,0.752608,0.078394,-106.851,0.0431959,
2,0,0,1,0,9076.44,0.0411053,0.0407675,-34.6643,5,0.00726236,10,-0.00141318,-1.46012,0.738387,0.0799039,-108.113,0.0407675,
2,0,0,1,0,9076.45,0.0387082,0.0384347,-34.4021,5,0.00705517,10,-0.00132223,-1.46341,0.76492,0.0771323,-103.601,0.0384347,
2,0,0,1,0,9076.45,0.0363,0.036001,-34.1607,5,0.00684953,10,-0.00122982,-1.46647,0.774937,0.0761352,-101.512,0.036001,
2,0,0,1,0,9076.46,0.0339029,0.0335737,-33.9206,5,0.00664529,10,-0.00113884,-1.46954,0.760726,0.0775574,-102.608,0.03357375,
2,0,0,1,0,9076.46,0.0315058,0.0311528,-33.6615,5,0.00644255,10,-0.00104865,-1.47287,0.759857,0.0776462,-102.053,0.0311528,
2,0,0,1,0,9076.47,0.0291087,0.028785,-33.4116,5,0.00624137,10,-0.000961751,-1.4761,0.769147,0.0767083,-100.089,0.028785,
2,0,0,1,0,9076.48,0.0267033,0.0263927,-33.1933,5,0.00604153,10,-0.000876061,-1.47895,0.748978,0.078774,-101.969,0.0263927,
2,0,0,1,0,9076.48,0.0243062,0.0240312,-32.9315,5,0.00584312,10,-0.000791383,-1.48239,0.704143,0.0837897,-107.693,0.0240312,
2,0,0,1,0,9076.49,0.0219091,0.021588,-32.6819,5,0.00564633,10,-0.000705536,-1.48569,0.702882,0.0839401,-107.114,0.021588,
2,0,0,1,0,9076.49,0.0195009,0.0191628,-32.4407,5,0.00545099,10,-0.000621656,-1.48891,0.706073,0.0835608,-105.733,0.0191628,
2,0,0,1,0,9076.5,0.0171038,0.0167769,-32.1764,5,0.00525716,10,-0.00053982,-1.49246,0.653001,0.0903521,-113.416,0.0167769,
2,0,0,1,0,9076.51,0.0147067,0.0143507,-31.8974,5,0.00506498,10,-0.00045775,-1.49624,0.641151,0.092022,-114.524,0.0143507,
2,0,0,1,0,9076.51,0.012304,0.011899,-31.6153,5,0.00487449,10,-0.000376192,-1.5001,0.613812,0.0961206,-118.529,0.011899,
2,0,0,1,0,9076.52,0.00990136,0.00961917,-31.3139,5,0.00468572,10,-0.000301213,-1.50426,0.560572,0.10525,-128.528,0.009619168,
2,0,0,1,0,9076.52,0.00750426,0.00722583,-30.9924,5,0.00449879,10,-0.000223946,-1.50875,0.525264,0.112325,-135.784,0.007225832,
2,0,0,1,0,9076.53,0.00510715,0.00479856,-30.6491,5,0.0043139,10,-0.000147072,-1.51358,0.527662,0.111814,-133.909,0.00479856,
2,0,0,1,0,9076.54,0.00270173,0.00242219,-30.3236,5,0.004131,10,-7.34495e-05,-1.51822,0.503871,0.117093,-138.536,0.00242219,
2,0,0,1,0,9076.54,0.000304623,-2.4168e-05,-30.0007,5,0.0039499,10,7.25059e-07,-1.52287,0.455676,0.129478,-151.321,-2.4168e-05,
2,0,0,1,0,9076.55,-0.00209248,-0.00247265,-29.5983,5,0.00377114,10,7.31861e-05,-1.52873,0.416901,0.14152,-163.578,-0.00247265,
2,0,0,1,0,9076.55,-0.00450068,-0.00484796,-29.2233,5,0.00359476,10,0.000141673,-1.53427,0.406839,0.14502,-165.265,-0.00484796,
2,0,0,1,0,9076.56,-0.00689779,-0.00723812,-28.8282,5,0.00342065,10,0.000208662,-1.54018,0.3987,0.147981,-166.345,-0.00723812,
2,0,0,1,0,9076.57,-0.00929489,-0.00963145,-28.4096,5,0.00324901,10,0.000273625,-1.54654,0.404841,0.145736,-161.711,-0.00963145,
2,0,0,1,0,9076.57,-0.011692,-0.0120693,-28.0317,5,0.00307973,10,0.000338323,-1.55235,0.406568,0.145117,-158.804,-0.0120693,
2,0,0,1,0,9076.58,-0.0140974,-0.0144192,-27.662,5,0.00291266,10,0.000398863,-1.55812,0.411693,0.143311,-154.739,-0.0144192,
2,0,0,1,0,9076.58,-0.0164945,-0.016838,-27.2939,5,0.00274783,10,0.000459573,-1.56394,0.421648,0.139927,-149.166,-0.016838,
2,0,0,1,0,9076.59,-0.0188916,-0.0192557,-26.9485,5,0.00258515,10,0.000518912,-1.56947,0.460051,0.128247,-135.023,-0.0192557,
2,0,0,1,0,9076.6,-0.0212998,-0.0216703,-26.6474,5,0.00242441,10,0.000577457,-1.57434,0.485081,0.121629,-126.544,-0.0216703,
2,0,0,1,0,9076.6,-0.0236969,-0.0240625,-26.3562,5,0.00226544,10,0.000634196,-1.57912,0.5162,0.114297,-117.59,-0.0240625,
2,0,0,1,0,9076.61,-0.026094,-0.0264177,-26.0858,5,0.00210817,10,0.000689126,-1.5836,0.585526,0.100764,-102.722,-0.0264177,
2,0,0,1,0,9076.61,-0.0284912,-0.0288163,-25.8461,5,0.00195245,10,0.000744791,-1.5876,0.662465,0.0890614,-89.9566,-0.0288163,
2,0,0,1,0,9076.62,-0.0308994,-0.0312648,-25.6569,5,0.00179794,10,0.000802159,-1.5908,0.739627,0.07977,-79.8865,-0.0312648,
2,0,0,1,0,9076.63,-0.0332965,-0.0336889,-25.4545,5,0.00164462,10,0.000857535,-1.59424,0.833934,0.070749,-70.4032,-0.0336889,
2,0,0,1,0,9076.63,-0.0356936,-0.0360112,-25.3068,5,0.00149236,10,0.000911328,-1.59676,1.01987,0.0578503,-57.2176,-0.0360112,
2,0,0,1,0,9076.64,-0.038099,-0.0384607,-25.1976,5,0.00134086,10,0.000969118,-1.59864,1.19196,0.0494984,-48.6788,-0.0384607,
2,0,0,1,0,9076.64,-0.0404961,-0.0408944,-25.076,5,0.00119004,10,0.00102547,-1.60074,1.42406,0.0414309,-40.5927,-0.0408944,
2,0,0,1,0,9076.65,-0.0428932,-0.0432591,-24.9904,5,0.00103985,10,0.00108106,-1.60223,1.93283,0.0305253,-29.8048,-0.0432591,
2,0,0,1,0,9076.66,-0.0452903,-0.0456641,-24.9408,5,0.000890061,10,0.0011389,-1.60309,2.61079,0.0225985,-22.0026,-0.0456641,
2,0,0,1,0,9076.66,-0.0476985,-0.0480383,-24.8973,5,0.000740551,10,0.00119602,-1.60385,4.48675,0.0131498,-12.7849,-0.04803833,
2,0,0,1,0,9076.67,-0.0500956,-0.0504423,-24.8772,5,0.000591263,10,0.00125486,-1.6042,7.62038,0.0077424,-7.52195,-0.0504423,
2,0,0,1,0,9076.67,-0.0524927,-0.0528441,-24.8612,5,0.000442045,10,0.00131377,-1.60448,-52.4132,-0.00112567,1.0932,-0.0528441,
2,0,0,1,0,9076.68,-0.0548981,-0.0552533,-24.8837,5,0.000292804,10,0.00137491,-1.60408,-9.06183,-0.00651083,6.32476,-0.0552533,
2,0,0,1,0,9076.69,-0.0572953,-0.0576658,-24.9088,5,0.00014346,10,0.00143639,-1.60365,-4.90865,-0.0120196,11.6873,-0.0576658,
2,0,0,1,0,9076.69,-0.0596924,-0.0600135,-24.9271,5,-6.02315e-06,10,0.00149596,-1.60333,-2.63046,-0.0224295,21.8473,-0.0600135,
2,0,0,1,0,9076.7,-0.062095,-0.0624408,-25.0021,5,-0.000155811,10,0.00156115,-1.60202,-2.32265,-0.025402,24.7732,-0.0624408,
2,0,0,1,0,9076.7,-0.0644977,-0.0648755,-25.0603,5,-0.000306022,10,0.0016258,-1.60101,-2.00172,-0.0294746,28.8324,-0.0648755,
2,0,0,1,0,9076.71,-0.0668948,-0.0672094,-25.12,5,-0.000456536,10,0.0016883,-1.59998,-1.80051,-0.0327685,32.1573,-0.06720943,
2,0,0,1,0,9076.72,-0.0692919,-0.0696791,-25.2175,5,-0.000607574,10,0.00175713,-1.5983,-1.49285,-0.0395218,38.8953,-0.0696791,
2,0,0,1,0,9076.72,-0.0717001,-0.0720173,-25.3125,5,-0.000759207,10,0.00182294,-1.59666,-1.38969,-0.0424556,41.9585,-0.07201732,
2,0,0,1,0,9076.73,-0.0740972,-0.0744329,-25.413,5,-0.000911368,10,0.00189156,-1.59494,-1.3125,-0.0449525,44.6345,-0.0744329,
2,0,0,1,0,9076.73,-0.0764943,-0.0768666,-25.5423,5,-0.00106425,10,0.00196335,-1.59274,-1.13231,-0.0521058,51.9366,-0.0768666,
2,0,0,1,0,9076.74,-0.0788997,-0.0792504,-25.6747,5,-0.00121787,10,0.00203473,-1.59049,-1.09842,-0.0537134,53.8162,-0.0792504,
2,0,0,1,0,9076.75,-0.0812968,-0.0816405,-25.7882,5,-0.00137226,10,0.00210536,-1.58858,-1.01595,-0.0580735,58.4691,-0.0816405,
2,0,0,1,0,9076.75,-0.0836939,-0.084072,-25.936,5,-0.00152746,10,0.00218049,-1.5861,-0.932319,-0.063283,64.0909,-0.084072,
2,0,0,1,0,9076.76,-0.086091,-0.0864526,-26.0892,5,-0.00168356,10,0.00225548,-1.58354,-0.874686,-0.0674528,68.7104,-0.0864526,
2,0,0,1,0,9076.76,-0.0884992,-0.0888492,-26.2597,5,-0.00184068,10,0.00233316,-1.58071,-0.847385,-0.0696259,71.3701,-0.0888492,
2,0,0,1,0,9076.77,-0.0908963,-0.0912478,-26.4265,5,-0.00199877,10,0.00241136,-1.57796,-0.865906,-0.0681367,70.3255,-0.0912478,
2,0,0,1,0,9076.78,-0.0932935,-0.093639,-26.6109,5,-0.0021579,10,0.00249182,-1.57494,-0.797868,-0.0739471,76.8269,-0.093639,
2,0,0,1,0,9076.78,-0.0956989,-0.0960557,-26.8133,5,-0.00231818,10,0.00257557,-1.57165,-0.787867,-0.0748857,78.3254,-0.0960557,
2,0,0,1,0,9076.79,-0.098096,-0.0984501,-26.9944,5,-0.00247959,10,0.0026576,-1.56873,-0.836932,-0.0704956,74.1048,-0.09845008,
2,0,0,0,0,9076.79,-0.0999548,-0.100286,-27.1365,5,-0.00260682,10,0.0027214,-1.56645,0.0240433,2.4539,-2407.63,-0.100286,
2,0,0,1,1,9076.79,-0.0994555,-0.0998848,-25.5031,5,-0.00265122,10,0.00254737,-1.59341,-0.0195827,-3.01287,2648.51,-0.0998848,
2,0,0,1,1,9076.8,-0.0970583,-0.0974575,-19.9859,5,-0.00278626,10,0.00194778,-1.69928,-0.0224274,-2.63072,2061.77,-0.0974575,
2,0,0,1,1,9076.81,-0.0946501,-0.0950175,-15.6998,5,-0.00289256,10,0.00149176,-1.80411,-0.0220391,-2.67705,1646.07,-0.0950175,
2,0,0,1,1,9076.81,-0.0922531,-0.0926369,-12.1259,5,-0.00297542,10,0.00112331,-1.91629,-0.0196082,-3.00895,1411.63,-0.0926369,
2,0,0,1,1,9076.82,-0.0898559,-0.090286,-9.03932,5,-0.00303842,10,0.000816124,-2.04386,-0.0165731,-3.55998,1218.29,-0.090286,
2,0,0,1,1,9076.82,-0.0874588,-0.0878333,-6.30304,5,-0.00308402,10,0.000553617,-2.20045,-0.0127097,-4.64213,1070.24,-0.0878333,
2,0,0,1,1,9076.83,-0.0850534,-0.085475,-3.8588,5,-0.00311405,10,0.000329831,-2.41355,-0.00761706,-7.74577,957.216,-0.085475,
2,0,0,1,1,9076.84,-0.0826563,-0.0830731,-1.70449,5,-0.00313042,10,0.000141597,-2.76841,-0.00879715,-6.70672,862.089,-0.0830731,
2,0,0,1,1,9076.84,-0.0802592,-0.0806628,0.251837,5,-0.00313449,10,-2.03139e-05,-3.59888,0.198047,0.297909,777.29,-0.0806628,
2,1,0,1,1,9076.85,-0.077851,-0.0782515,2.04594,5,-0.00312734,10,-0.000160098,-2.68911,0.00613735,9.61327,711.673,-0.0782515,
2,1,0,1,1,9076.85,-0.0754539,-0.0758507,3.63372,5,-0.00311008,10,-0.00027562,-2.43965,0.0110135,5.35705,640.816,-0.0758507,
2,1,0,1,1,9076.86,-0.0730568,-0.0734234,5.08642,5,-0.00308368,10,-0.000373462,-2.29359,0.0187345,3.14927,583.114,-0.0734234,
2,1,0,1,1,9076.87,-0.0706597,-0.071116,6.41799,5,-0.00304894,10,-0.000456422,-2.1926,0.026512,2.22541,536.504,-0.071116,
2,1,0,1,1,9076.87,-0.0682542,-0.0686749,7.65479,5,-0.00300653,10,-0.000525692,-2.11607,0.0351283,1.67956,488.696,-0.0686749,
2,1,0,1,1,9076.88,-0.0658571,-0.0662742,8.78569,5,-0.00295705,10,-0.000582264,-2.05622,0.0438773,1.34466,452.352,-0.0662742,
2,1,0,1,1,9076.88,-0.06346,-0.0638755,9.818,5,-0.00290113,10,-0.00062713,-2.00798,0.0539042,1.09453,413.89,-0.0638755,
2,1,0,1,1,9076.89,-0.0610518,-0.0614185,10.787,5,-0.00283919,10,-0.00066252,-1.9671,0.0645141,0.914528,379.86,-0.0614185,
2,1,0,1,1,9076.9,-0.0586547,-0.0590772,11.6375,5,-0.00277179,10,-0.000687511,-1.93414,0.0770442,0.765794,345.184,-0.05907717,
2,1,0,1,1,9076.9,-0.0562576,-0.0566298,12.435,5,-0.00269948,10,-0.000704189,-1.90536,0.088291,0.668245,322.493,-0.0566298,
2,1,0,1,1,9076.91,-0.053855,-0.0542237,13.1833,5,-0.00262253,10,-0.000714848,-1.87998,0.103678,0.569068,290.579,-0.05422369,
2,1,0,1,1,9076.91,-0.0514523,-0.0518579,13.8322,5,-0.00254133,10,-0.00071731,-1.85911,0.12004,0.491504,264.07,-0.0518579,
2,1,0,1,1,9076.92,-0.0490552,-0.0494253,14.4403,5,-0.00245643,10,-0.000713715,-1.84043,0.137053,0.430491,241.871,-0.0494253,
2,1,0,1,1,9076.93,-0.0466581,-0.0470161,15.0051,5,-0.00236802,10,-0.000705483,-1.82376,0.155817,0.37865,220.854,-0.0470161,
2,1,0,1,1,9076.93,-0.0442527,-0.0446323,15.5165,5,-0.00227637,10,-0.000692539,-1.80921,0.177422,0.332541,200.592,-0.0446323,
2,1,0,1,1,9076.94,-0.0418556,-0.0422379,15.9694,5,-0.00218188,10,-0.000674515,-1.79671,0.199972,0.295041,183.403,-0.0422379,
2,1,0,1,1,9076.94,-0.0394585,-0.0398276,16.3913,5,-0.00208476,10,-0.000652827,-1.78539,0.221702,0.266123,169.802,-0.0398276,
2,1,0,1,1,9076.95,-0.0370558,-0.0374173,16.7748,5,-0.00198522,10,-0.000627668,-1.77534,0.254977,0.231393,151.107,-0.0374173,
2,1,0,1,1,9076.96,-0.0346532,-0.0350038,17.1286,5,-0.00188345,10,-0.000599567,-1.76628,0.287672,0.205095,136.716,-0.0350038,
2,1,0,1,1,9076.96,-0.0322561,-0.0326084,17.4297,5,-0.00177976,10,-0.000568353,-1.75871,0.326929,0.180467,122.567,-0.0326084,
2,1,0,1,1,9076.97,-0.0298589,-0.0302627,17.7128,5,-0.00167428,10,-0.000536037,-1.75171,0.363929,0.16212,111.893,-0.0302627,
2,1,0,1,1,9076.97,-0.0274535,-0.0278249,17.972,5,-0.00156716,10,-0.000500068,-1.7454,0.412246,0.143118,100.234,-0.0278249,
2,1,0,1,1,9076.98,-0.0250564,-0.0253955,18.1803,5,-0.00145866,10,-0.000461697,-1.7404,0.477327,0.123605,87.7261,-0.0253955,
2,1,0,1,1,9076.99,-0.0226593,-0.0230286,18.4135,5,-0.00134884,10,-0.000424039,-1.73486,0.523966,0.112603,80.7541,-0.0230286,
2,1,0,1,1,9076.99,-0.0202511,-0.0206332,18.595,5,-0.00123782,10,-0.000383674,-1.7306,0.605848,0.0973841,70.5391,-0.0206332,
2,1,0,1,1,9077,-0.017854,-0.0182059,18.7411,5,-0.00112581,10,-0.000341198,-1.72721,0.684285,0.0862214,63.0174,-0.0182059,
2,1,0,1,1,9077,-0.0154569,-0.0157829,18.8864,5,-0.00101291,10,-0.000298081,-1.72385,0.796565,0.0740681,54.5371,-0.0157829,
2,1,0,1,1,9077.01,-0.0130598,-0.0134373,18.9977,5,-0.000899209,10,-0.000255277,-1.7213,0.872365,0.0676322,50.1437,-0.0134373,
2,1,0,1,1,9077.02,-0.0106516,-0.0110047,19.1197,5,-0.000784823,10,-0.000210406,-1.71852,1.01275,0.0582572,43.4493,-0.0110047,
2,1,0,1,1,9077.02,-0.00825448,-0.00857953,19.2207,5,-0.000669788,10,-0.000164905,-1.71623,1.19384,0.0494204,37.0394,-0.00857953,
2,1,0,1,1,9077.03,-0.00585738,-0.00622649,19.2944,5,-0.000554232,10,-0.000120136,-1.71457,1.36911,0.0430936,32.443,-0.00622649,
2,1,0,1,1,9077.03,-0.00345195,-0.00381512,19.3794,5,-0.000438203,10,-7.39348e-05,-1.71266,1.65912,0.0355611,26.8603,-0.00381512,
2,1,0,1,1,9077.04,-0.00105485,-0.00142815,19.4319,5,-0.000321759,10,-2.77516e-05,-1.71148, , , ,-0.001428147,
2,1,0,0,1,9077.04,-7.54729e-05,-0.000497109,19.4433,5,-0.000273165,10,-9.66546e-06,-1.71123, , , ,-0.000497109,