File: Figure_codes/Fig_3-5/rawdata_trumpetplot_data/after 10th/20221101_1-115_003_TrumpetPlot_ParaChange_from10_every3_08_CV_C01_5.csv
mode,ox/red,error,control changes,counter inc.,time/s,control/V,Ewe/V,<I>/mA,cycle number,(Q-Qo)/C,I Range,P/W,log(|I|),Tafel slope mV/dec,alpha_eff,dI/d(E-IR),E-IR/V,
2,0,0,0,0,11025.7,2.44065e-05,-0.0002108,-4.0377,6,0.0000000E+000,10,8.51146e-07,-2.39387, , , ,-0.0002108,
2,0,0,1,0,11025.7,0.0012943,0.000901037,-1.92484,6,-4.44654e-05,10,-1.73435e-06,-2.71561, , , ,0.000901037,
2,0,0,1,0,11025.7,0.00279784,0.00249687,-0.384847,6,-6.49691e-05,10,-9.60915e-07,-3.41471,-0.00787764,-7.48955,855.118,0.00249687,
2,1,0,1,0,11025.7,0.00429425,0.00402922,0.566992,6,-6.24931e-05,10,2.28453e-06,-3.24642,0.0176321,3.34616,553.246,0.00402922,
2,1,0,1,0,11025.7,0.00579065,0.00549188,1.22471,6,-4.51824e-05,10,6.72593e-06,-2.91197,0.00492019,11.9914,384.897,0.00549188,
2,1,0,1,0,11025.8,0.0072942,0.00695104,1.70323,6,-1.7237e-05,10,1.18392e-05,-2.76873,0.0121844,4.84228,287.93,0.006951035,
2,1,0,1,0,11025.8,0.00878347,0.00845484,2.05867,6,1.8122e-05,10,1.74057e-05,-2.68641,0.0210224,2.80654,213.933,0.00845484,
2,1,0,1,0,11025.8,0.010287,0.00995081,2.33606,6,5.97598e-05,10,2.32457e-05,-2.63152,0.0309631,1.90549,168.478,0.00995081,
2,1,0,1,0,11025.8,0.0117905,0.011472,2.54394,6,0.000106014,10,2.91841e-05,-2.59449,0.0424111,1.39115,135.986,0.011472,
2,1,0,1,0,11025.8,0.013278,0.0129421,2.71862,6,0.000155303,10,3.51846e-05,-2.56565,0.0557185,1.0589,111.524,0.0129421,
2,1,0,1,0,11025.9,0.0147816,0.0144813,2.86829,6,0.000208171,10,4.15366e-05,-2.54238,0.0696307,0.847328,94.2484,0.0144813,
2,1,0,1,0,11025.9,0.0162851,0.0159647,2.99871,6,0.000263706,10,4.78734e-05,-2.52307,0.085819,0.687493,79.9033,0.0159647,
2,1,0,1,0,11025.9,0.0177744,0.0174549,3.11572,6,0.00032084,10,5.43845e-05,-2.50644,0.104644,0.563819,68.1674,0.0174549,
2,1,0,1,0,11025.9,0.0192779,0.019003,3.20271,6,0.000380464,10,6.08611e-05,-2.49448,0.11943,0.494011,61.6559,0.01900297,
2,1,0,1,0,11025.9,0.0207743,0.0204489,3.30093,6,0.000441614,10,6.75003e-05,-2.48136,0.126409,0.466738,60.0153,0.0204489,
2,1,0,1,0,11025.9,0.0222707,0.0219973,3.39087,6,0.000504401,10,7.459e-05,-2.46969,0.147043,0.401242,53.0016,0.0219973,
2,1,0,1,0,11026,0.0237743,0.0234565,3.472,6,0.00056915,10,8.14409e-05,-2.45942,0.160198,0.368295,49.8444,0.0234565,
2,1,0,1,0,11026,0.0252636,0.0249882,3.54892,6,0.000634601,10,8.86813e-05,-2.4499,0.164953,0.357677,49.551,0.02498821,
2,1,0,1,0,11026,0.0267671,0.0264157,3.62838,6,0.000702191,10,9.5846e-05,-2.44029,0.154456,0.381985,53.9719,0.0264157,
2,1,0,1,0,11026,0.0282706,0.0279628,3.70739,6,0.000771296,10,0.000103669,-2.43093,0.159704,0.369434,53.3481,0.0279628,
2,1,0,1,0,11026,0.0297581,0.0294509,3.77859,6,0.00084109,10,0.000111283,-2.42267,0.173159,0.340727,50.1728,0.0294509,
2,1,0,1,0,11026.1,0.0312617,0.0309322,3.84128,6,0.000912989,10,0.000118819,-2.41552,0.177077,0.333188,50.0276,0.0309322,
2,1,0,1,0,11026.1,0.0327652,0.0324571,3.9188,6,0.000986211,10,0.000127193,-2.40685,0.181747,0.324627,49.6433,0.0324571,
2,1,0,1,0,11026.1,0.0342545,0.0339119,3.9849,6,0.00106002,10,0.000135135,-2.39958,0.182286,0.323668,50.3799,0.0339119,
2,1,0,1,0,11026.1,0.035758,0.0354348,4.05889,6,0.00113594,10,0.000143826,-2.39159,0.199161,0.296243,46.9526,0.0354348,
2,1,0,1,0,11026.1,0.0372544,0.0369502,4.13101,6,0.00121282,10,0.000152642,-2.38394,0.198569,0.297126,47.9263,0.0369502,
2,1,0,1,0,11026.2,0.0387508,0.0384018,4.19534,6,0.00129096,10,0.000161109,-2.37723,0.200709,0.293958,48.2576,0.0384018,
2,1,0,1,0,11026.2,0.0402544,0.0399237,4.2664,6,0.00137088,10,0.00017033,-2.36994,0.210906,0.279746,46.6672,0.0399237,
2,1,0,1,0,11026.2,0.0417437,0.0414582,4.35202,6,0.00145136,10,0.000180427,-2.36131,0.218139,0.270469,45.8319,0.0414582,
2,1,0,1,0,11026.2,0.0432472,0.0429044,4.41614,6,0.00153401,10,0.000189472,-2.35496,0.239414,0.246435,42.4861,0.0429044,
2,1,0,1,0,11026.2,0.0447507,0.0444249,4.48396,6,0.00161789,10,0.0001992,-2.34834,0.236302,0.249681,43.707,0.0444249,
2,1,0,1,0,11026.2,0.0462382,0.045926,4.55881,6,0.00170216,10,0.000209368,-2.34115,0.230769,0.255666,45.432,0.045926,
2,1,0,1,0,11026.3,0.0477418,0.0473831,4.62622,6,0.00178867,10,0.000219205,-2.33477,0.229922,0.256609,46.3129,0.0473831,
2,1,0,1,0,11026.3,0.0492453,0.04895,4.6909,6,0.00187649,10,0.000229619,-2.32874,0.248233,0.23768,43.4833,0.04895,
2,1,0,1,0,11026.3,0.0507346,0.0504067,4.75618,6,0.00196462,10,0.000239744,-2.32274,0.241299,0.24451,45.4159,0.0504067,
2,1,0,1,0,11026.3,0.0522381,0.0519133,4.82662,6,0.00205487,10,0.000250566,-2.31636,0.238165,0.247728,46.6753,0.0519133,
2,1,0,1,0,11026.3,0.0537345,0.0534226,4.89685,6,0.002146,10,0.000261603,-2.31008,0.233669,0.252494,48.1904,0.0534226,
2,1,0,1,0,11026.4,0.0552309,0.0548974,4.95905,6,0.00223839,10,0.000272239,-2.3046,0.257301,0.229304,44.3637,0.0548974,
2,1,0,1,0,11026.4,0.0567345,0.056408,5.01654,6,0.00233247,10,0.000282973,-2.2996,0.265912,0.221878,43.5009,0.056408,
2,1,0,1,0,11026.4,0.0582237,0.0579101,5.08295,6,0.00242668,10,0.000294354,-2.29388,0.266885,0.221069,43.9049,0.0579101,
2,1,0,1,0,11026.4,0.0597273,0.0594231,5.14737,6,0.00252312,10,0.000305873,-2.28841,0.271099,0.217633,43.7375,0.0594231,
2,1,0,1,0,11026.4,0.0612308,0.0609477,5.21317,6,0.00262083,10,0.000317731,-2.2829,0.295095,0.199936,40.6479,0.0609477,
2,1,0,1,0,11026.5,0.0627183,0.0624222,5.27484,6,0.00271864,10,0.000329267,-2.27779,0.298979,0.197338,40.639,0.0624222,
2,1,0,1,0,11026.5,0.0642219,0.0639335,5.3288,6,0.00281858,10,0.000340689,-2.27337,0.305007,0.193438,40.2957,0.0639335,
2,1,0,1,0,11026.5,0.0657254,0.0654138,5.39573,6,0.00291973,10,0.000352955,-2.26795,0.298937,0.197366,41.5699,0.0654138,
2,1,0,1,0,11026.5,0.0672147,0.0669155,5.46132,6,0.00302098,10,0.000365447,-2.2627,0.341166,0.172936,36.8406,0.0669155,
2,1,0,1,0,11026.5,0.0687182,0.0684085,5.51716,6,0.00312441,10,0.000377421,-2.25828,0.37167,0.158743,34.1678,0.0684085,
2,1,0,1,0,11026.5,0.0702146,0.0698828,5.57494,6,0.00322834,10,0.000389592,-2.25376,0.352668,0.167296,36.3823,0.0698828,
2,1,0,1,0,11026.6,0.071711,0.071383,5.63618,6,0.0033333,10,0.000402327,-2.24902,0.346663,0.170194,37.4132,0.071383,
2,1,0,1,0,11026.6,0.0732146,0.0729304,5.6884,6,0.00343994,10,0.000414857,-2.24501,0.342879,0.172072,38.1851,0.07293044,
2,1,0,1,0,11026.6,0.0747038,0.0744141,5.74852,6,0.00354648,10,0.000427771,-2.24044,0.3709,0.159073,35.6554,0.0744141,
2,1,0,1,0,11026.6,0.0762074,0.0758978,5.79482,6,0.00365515,10,0.000439814,-2.23696,0.356985,0.165273,37.3659,0.0758978,
2,1,0,1,0,11026.6,0.0777109,0.0773723,5.8489,6,0.00376479,10,0.000452543,-2.23293,0.35372,0.166798,38.0605,0.0773723,
2,1,0,1,0,11026.7,0.0791984,0.0788884,5.90476,6,0.00387428,10,0.000465817,-2.2288,0.350228,0.168462,38.7549,0.0788884,
2,1,0,1,0,11026.7,0.0807019,0.0804205,5.94959,6,0.00398592,10,0.000478469,-2.22551,0.408275,0.144511,33.535,0.0804205,
2,1,0,1,0,11026.7,0.0822055,0.0819206,5.99028,6,0.00409848,10,0.000490727,-2.22255,0.404023,0.146031,34.1649,0.0819206,
2,1,0,1,0,11026.7,0.0836947,0.0833685,6.03779,6,0.00421065,10,0.000503361,-2.21912,0.431382,0.13677,32.2695,0.0833685,
2,1,0,1,0,11026.7,0.0851983,0.0848433,6.08754,6,0.00432497,10,0.000516487,-2.21556,0.420098,0.140444,33.3804,0.0848433,
2,1,0,1,0,11026.8,0.0866947,0.086413,6.13175,6,0.0044396,10,0.000529863,-2.21242,0.467599,0.126177,30.2328,0.086413,
2,1,0,1,0,11026.8,0.0881911,0.0878911,6.18582,6,0.00455514,10,0.000543679,-2.2086,0.468103,0.126041,30.4488,0.0878911,
2,1,0,1,0,11026.8,0.0896946,0.0893776,6.23691,6,0.00467217,10,0.00055744,-2.20503,0.442382,0.133369,32.4987,0.0893776,
2,1,0,1,0,11026.8,0.0911839,0.0908831,6.29404,6,0.00478895,10,0.000572022,-2.20107,0.384099,0.153606,37.7591,0.0908831,
2,1,0,1,0,11026.8,0.0926857,0.0923913,6.36132,6,0.0049081,10,0.000587731,-2.19645,0.393536,0.149923,37.1961,0.0923913,
2,1,0,1,0,11026.8,0.0941892,0.0939483,6.41576,6,0.00502844,10,0.00060275,-2.19275,0.37983,0.155333,38.88,0.0939483,
2,1,0,1,0,11026.9,0.0956785,0.095389,6.47426,6,0.00514851,10,0.000617574,-2.18881,0.363444,0.162336,41.0757,0.095389,
2,1,0,1,0,11026.9,0.097182,0.0968915,6.54446,6,0.00527106,10,0.000634103,-2.18413,0.314969,0.18732,47.8504,0.0968915,
2,1,0,1,0,11026.9,0.0986856,0.098382,6.61893,6,0.00539498,10,0.000651183,-2.17921,0.296424,0.199039,51.4012,0.098382,
2,1,0,1,0,11026.9,0.100175,0.0998944,6.69865,6,0.00551899,10,0.000669157,-2.17401,0.276255,0.213571,55.828,0.0998944,
2,1,0,1,0,11026.9,0.101678,0.101342,6.78034,6,0.00564582,10,0.000687132,-2.16875,0.256693,0.229847,60.8766,0.1013419,
2,1,0,1,0,11027,0.103175,0.102837,6.87367,6,0.00577367,10,0.00070687,-2.16281,0.23198,0.254332,68.309,0.102837,
2,1,0,1,0,11027,0.104671,0.104358,6.97342,6,0.00590334,10,0.000727732,-2.15655,0.226253,0.26077,70.9945,0.104358,
2,1,0,1,0,11027,0.106175,0.105877,7.07811,6,0.00603574,10,0.00074941,-2.15008,0.22297,0.264609,73.0814,0.105877,
2,1,0,1,0,11027,0.107662,0.107337,7.18543,6,0.00616869,10,0.000771262,-2.14355,0.226331,0.26068,73.1648,0.107337,
2,1,0,1,0,11027,0.109166,0.10887,7.28888,6,0.00630499,10,0.000793541,-2.13734,0.219953,0.268239,76.4391,0.10887,
2,1,0,1,0,11027.1,0.110669,0.110344,7.40709,6,0.00644351,10,0.000817327,-2.13035,0.220093,0.268069,77.5494,0.110344,
2,1,0,1,0,11027.1,0.112159,0.111848,7.52695,6,0.0065827,10,0.000841872,-2.12338,0.228765,0.257907,75.7464,0.111848,
2,1,0,1,0,11027.1,0.113662,0.113386,7.64822,6,0.00672561,10,0.000867199,-2.11644,0.230938,0.25548,76.1975,0.113386,
2,1,0,1,0,11027.1,0.115166,0.114831,7.75341,6,0.00687061,10,0.000890334,-2.11051,0.238302,0.247585,74.9433,0.114831,
2,1,0,1,0,11027.1,0.116655,0.116347,7.87305,6,0.0070162,10,0.000916002,-2.10386,0.241332,0.244477,75.0831,0.116347,
2,1,0,1,0,11027.1,0.118158,0.117843,7.98992,6,0.00716554,10,0.000941558,-2.09746,0.270913,0.217782,67.8159,0.117843,
2,1,0,1,0,11027.2,0.119655,0.119334,8.09424,6,0.00731617,10,0.000965918,-2.09182,0.281451,0.209628,66.1547,0.119334,
2,1,0,1,0,11027.2,0.121151,0.120837,8.18584,6,0.00746856,10,0.000989149,-2.08694,0.29791,0.198047,63.2763,0.120837,
2,1,0,1,0,11027.2,0.122655,0.12233,8.28777,6,0.00762357,10,0.00101385,-2.08156,0.297883,0.198064,63.9653,0.12233,
2,1,0,1,0,11027.2,0.124142,0.123844,8.37025,6,0.00777868,10,0.00103661,-2.07726,0.309583,0.190579,62.2265,0.123844,
2,1,0,1,0,11027.2,0.125646,0.125335,8.46147,6,0.0079371,10,0.00106052,-2.07255,0.355904,0.165775,54.6672,0.125335,
2,1,0,1,0,11027.3,0.127149,0.126808,8.52735,6,0.00809706,10,0.00108134,-2.06919,0.364904,0.161686,53.8146,0.126808,
2,1,0,1,0,11027.3,0.128639,0.128294,8.60716,6,0.00825669,10,0.00110424,-2.06514,0.385226,0.153157,51.4547,0.128294,
2,1,0,1,0,11027.3,0.130142,0.129796,8.68229,6,0.00841945,10,0.00112692,-2.06137,0.405449,0.145518,49.3194,0.129796,
2,1,0,1,0,11027.3,0.131646,0.13135,8.74737,6,0.00858369,10,0.00114897,-2.05812,0.431291,0.136799,46.7025,0.13135,
2,1,0,1,0,11027.3,0.133135,0.132814,8.82007,6,0.00874744,10,0.00117143,-2.05453,0.486425,0.121293,41.7698,0.132814,
2,1,0,1,0,11027.4,0.134639,0.134302,8.87794,6,0.00891408,10,0.00119232,-2.05169,0.508249,0.116085,40.259,0.134302,
2,1,0,1,0,11027.4,0.136135,0.135829,8.94646,6,0.00908108,10,0.00121519,-2.04835,0.536551,0.109962,38.3902,0.135829,
2,1,0,1,0,11027.4,0.137631,0.137331,9.01362,6,0.00924921,10,0.00123785,-2.0451,0.57342,0.102891,36.1435,0.137331,
2,1,0,1,0,11027.4,0.139135,0.138857,9.07086,6,0.00941935,10,0.00125955,-2.04235,0.660393,0.0893408,31.5589,0.138857,
2,1,0,1,0,11027.4,0.140622,0.140292,9.10858,6,0.00958859,10,0.00127786,-2.04055,0.827025,0.0713401,25.3293,0.1402923,
2,1,0,1,0,11027.4,0.142126,0.141828,9.14846,6,0.00976035,10,0.00129751,-2.03865,1.21195,0.0486819,17.3443,0.141828,
2,1,0,1,0,11027.5,0.143629,0.143354,9.17159,6,0.0099327,10,0.00131479,-2.03756,2.99173,0.019721,7.0379,0.143354,
2,1,0,1,0,11027.5,0.145119,0.144862,9.17492,6,0.0101035,10,0.0013291,-2.0374,-2.02853,-0.0290851,-10.3801,0.144862,
2,1,0,1,0,11027.5,0.146622,0.146323,9.13817,6,0.0102758,10,0.00133713,-2.03914,-0.752778,-0.0783764,-27.8775,0.146323,
2,1,0,1,0,11027.5,0.148126,0.147823,9.08798,6,0.0104473,10,0.00134342,-2.04153,-0.471357,-0.12517,-44.2476,0.147823,
2,1,0,1,0,11027.5,0.149615,0.14926,9.00311,6,0.0106158,10,0.0013438,-2.04561,-0.300243,-0.196507,-68.7687,0.1492596,
2,1,0,1,0,11027.6,0.151119,0.15082,8.8739,6,0.0107841,10,0.00133836,-2.05189,-0.211132,-0.279447,-96.3332,0.15082,
2,1,0,1,0,11027.6,0.152615,0.152297,8.70238,6,0.0109487,10,0.00132534,-2.06036,-0.164147,-0.359435,-121.613,0.152297,
2,1,0,1,0,11027.6,0.154111,0.153819,8.498,6,0.0111099,10,0.00130715,-2.07068,-0.132813,-0.444233,-146.911,0.153819,
2,1,0,1,0,11027.6,0.155615,0.155293,8.2567,6,0.0112677,10,0.00128221,-2.08319,-0.112108,-0.526277,-169,0.1552929,
2,1,0,1,0,11027.6,0.157103,0.156775,7.98503,6,0.0114192,10,0.00125185,-2.09772,-0.0948895,-0.621776,-193.078,0.156775,
2,1,0,1,0,11027.7,0.158606,0.158336,7.68934,6,0.0115669,10,0.0012175,-2.11411,-0.084173,-0.700937,-209.853,0.158336,
2,1,0,1,0,11027.7,0.16011,0.159793,7.36304,6,0.0117086,10,0.00117656,-2.13294,-0.0783928,-0.752621,-216.115,0.159793,
2,1,0,1,0,11027.7,0.161599,0.161294,7.04846,6,0.0118429,10,0.00113687,-2.15191,-0.0744286,-0.792706,-217.814,0.1612938,
2,1,0,1,0,11027.7,0.163102,0.162851,6.73169,6,0.0119726,10,0.00109627,-2.17188,-0.0733162,-0.804733,-211.303,0.162851,
2,1,0,1,0,11027.7,0.164606,0.164288,6.41644,6,0.0120963,10,0.00105414,-2.19271,-0.0734506,-0.803261,-201.269,0.164288,
2,1,0,1,0,11027.7,0.166095,0.165815,6.12949,6,0.0122131,10,0.00101636,-2.21258,-0.0751076,-0.78554,-188.223,0.165815,
2,1,0,1,0,11027.8,0.167599,0.167301,5.85798,6,0.0123258,10,0.000980045,-2.23225,-0.0795831,-0.741363,-169.98,0.167301,
2,1,0,1,0,11027.8,0.169095,0.1688,5.62518,6,0.0124333,10,0.000949531,-2.24986,-0.0861506,-0.684848,-150.604,0.1688,
2,1,0,1,0,11027.8,0.170592,0.170288,5.41312,6,0.0125366,10,0.000921788,-2.26655,-0.0894793,-0.65937,-139.416,0.1702877,
2,1,0,1,0,11027.8,0.172095,0.171807,5.2063,6,0.0126365,10,0.000894479,-2.28347,-0.0986909,-0.597826,-121.832,0.171807,
2,1,0,1,0,11027.8,0.173583,0.173267,5.03287,6,0.0127318,10,0.000872031,-2.29818,-0.108931,-0.541627,-106.726,0.173267,
2,1,0,1,0,11027.9,0.175086,0.174768,4.88382,6,0.0128252,10,0.000853534,-2.31124,-0.116924,-0.504603,-96.2311,0.174768,
2,1,0,1,0,11027.9,0.17659,0.176325,4.73688,6,0.0129159,10,0.00083523,-2.32451,-0.128309,-0.459826,-85.2147,0.176325,
2,1,0,1,0,11027.9,0.178079,0.177775,4.61264,6,0.0130031,10,0.000820012,-2.33605,-0.13813,-0.427133,-77.1963,0.177775,
2,1,0,1,0,11027.9,0.179582,0.179274,4.50177,6,0.0130891,10,0.000807052,-2.34662,-0.147914,-0.398881,-70.36,0.179274,
2,1,0,1,0,11027.9,0.181086,0.180816,4.40557,6,0.0131731,10,0.000796597,-2.356,-0.157902,-0.373649,-64.4386,0.1808157,
2,1,0,1,0,11028,0.182575,0.182304,4.32371,6,0.0132546,10,0.000788229,-2.36414,-0.163645,-0.360537,-60.8886,0.182304,
2,1,0,1,0,11028,0.184079,0.183797,4.23994,6,0.0133353,10,0.000779287,-2.37264,-0.169524,-0.348033,-57.6415,0.183797,
2,1,0,1,0,11028,0.185582,0.185271,4.16218,6,0.0134144,10,0.000771129,-2.38068,-0.193224,-0.305345,-49.7063,0.185271,
2,1,0,1,0,11028,0.18707,0.18679,4.10422,6,0.0134914,10,0.000766629,-2.38677,-0.216663,-0.272312,-43.5984,0.18679,
2,1,0,1,0,11028,0.188573,0.188265,4.03712,6,0.0135681,10,0.000760049,-2.39393,-0.225716,-0.26139,-41.2154,0.188265,
2,1,0,1,0,11028,0.19007,0.18977,3.98626,6,0.0136433,10,0.000756472,-2.39943,-0.238398,-0.247485,-38.4483,0.18977,
2,1,0,1,0,11028.1,0.191566,0.191282,3.9264,6,0.0137174,10,0.000751052,-2.40601,-0.256977,-0.229593,-35.2303,0.191282,
2,1,0,1,0,11028.1,0.19307,0.192771,3.87716,6,0.0137909,10,0.000747404,-2.41149,-0.343199,-0.171912,-26.0311,0.192771,
2,1,0,1,0,11028.1,0.194559,0.194271,3.84279,6,0.0138629,10,0.000746542,-2.41535,-0.340422,-0.173314,-25.9779,0.194271,
2,1,0,1,0,11028.1,0.196063,0.19573,3.80117,6,0.0139349,10,0.000744002,-2.42008,-0.33114,-0.178172,-26.4033,0.19573,
2,1,0,1,0,11028.1,0.197566,0.197235,3.75031,6,0.0140061,10,0.000739693,-2.42593,-0.388687,-0.151793,-22.28,0.1972349,
2,1,0,1,0,11028.2,0.199055,0.198746,3.71997,6,0.0140758,10,0.00073933,-2.42946,-0.437293,-0.134921,-19.6,0.198746,
2,1,0,1,0,11028.2,0.200559,0.200258,3.69087,6,0.0141457,10,0.000739126,-2.43287,-0.456749,-0.129174,-18.6011,0.200258,
2,1,0,1,0,11028.2,0.202062,0.201766,3.65816,6,0.014215,10,0.000738091,-2.43674,-0.40452,-0.145852,-20.8206,0.201766,
2,1,0,1,0,11028.2,0.20355,0.203263,3.62468,6,0.014283,10,0.000736764,-2.44073,-0.45879,-0.128599,-18.236,0.203263,
2,1,0,1,0,11028.2,0.205053,0.204756,3.59542,6,0.0143511,10,0.000736182,-2.44425,-0.615025,-0.095931,-13.5351,0.204756,
2,1,0,1,0,11028.3,0.20655,0.206269,3.5776,6,0.0144186,10,0.000737947,-2.44641,-0.553207,-0.106651,-14.9017,0.206269,
2,1,0,1,0,11028.3,0.208046,0.207782,3.56223,6,0.0144857,10,0.000740167,-2.44828,-0.442815,-0.133239,-18.5169,0.207782,
2,1,0,1,0,11028.3,0.20955,0.209313,3.54301,6,0.0145527,10,0.000741598,-2.45063,-0.428092,-0.137821,-19.0435,0.209313,
2,1,0,1,0,11028.3,0.211039,0.210724,3.51779,6,0.0146185,10,0.000741283,-2.45373,-0.51844,-0.113803,-15.6279,0.210724,
2,1,0,1,0,11028.3,0.212543,0.212235,3.50039,6,0.0146847,10,0.000742905,-2.45588,-0.611027,-0.0965587,-13.1822,0.212235,
2,1,0,1,0,11028.3,0.214046,0.21375,3.48345,6,0.0147505,10,0.000744588,-2.45799,-0.699253,-0.0843757,-11.4765,0.21375,
2,1,0,1,0,11028.4,0.215535,0.215234,3.47375,6,0.0148153,10,0.000747667,-2.4592,-0.779953,-0.0756456,-10.2311,0.215234,
2,1,0,1,0,11028.4,0.217039,0.216708,3.4501,6,0.0148805,10,0.000747662,-2.46217,-0.864798,-0.068224,-9.18777,0.216708,
2,1,0,1,0,11028.4,0.218543,0.218247,3.43145,6,0.0149454,10,0.000748903,-2.46452,-1.02459,-0.0575841,-7.71453,0.218247,
2,1,0,1,0,11028.4,0.22003,0.219734,3.42816,6,0.0150094,10,0.000753283,-2.46494,-1.42933,-0.041278,-5.51309,0.219734,
2,1,0,1,0,11028.4,0.221534,0.221248,3.40695,6,0.0150738,10,0.000753782,-2.46763,-1.03262,-0.0571361,-7.59219,0.221248,
2,1,0,1,0,11028.5,0.22303,0.222777,3.38808,6,0.0151377,10,0.000754786,-2.47005,-0.966234,-0.0610618,-8.09791,0.222777,
2,1,0,1,0,11028.5,0.224526,0.224236,3.37539,6,0.0152012,10,0.000756885,-2.47168,-1.38668,-0.0425476,-5.61648,0.224236,
2,1,0,1,0,11028.5,0.22603,0.225742,3.36431,6,0.0152649,10,0.000759467,-2.4731,-1.00154,-0.0589091,-7.75439,0.225742,
2,1,0,1,0,11028.5,0.227519,0.22721,3.35438,6,0.0153278,10,0.00076215,-2.47439,-0.841839,-0.0700846,-9.17896,0.22721,
2,1,0,1,0,11028.5,0.229023,0.228724,3.34912,6,0.0153911,10,0.000766022,-2.47507,-0.758659,-0.0777688,-10.1634,0.228724,
2,1,0,1,0,11028.6,0.230526,0.230228,3.33374,6,0.0154541,10,0.000767518,-2.47707,-0.975003,-0.0605127,-7.89095,0.230228,
2,1,0,1,0,11028.6,0.232016,0.231716,3.33188,6,0.0155163,10,0.000772051,-2.47731,-1.16127,-0.0508066,-6.59731,0.231716,
2,1,0,1,0,11028.6,0.233519,0.233229,3.32429,6,0.0155791,10,0.000775321,-2.4783,-0.775444,-0.0760854,-9.8502,0.233229,
2,1,0,1,0,11028.6,0.235023,0.234744,3.31289,6,0.0156416,10,0.000777679,-2.47979,-0.983988,-0.0599601,-7.74562,0.234744,
2,1,0,1,0,11028.6,0.23651,0.23624,3.30118,6,0.0157033,10,0.000779872,-2.48133,-1.1016,-0.0535585,-6.89763,0.23624,
2,1,0,1,0,11028.6,0.238014,0.237698,3.29503,6,0.0157655,10,0.000783221,-2.48214,-1.59462,-0.0369995,-4.75343,0.237698,
2,1,0,1,0,11028.7,0.23951,0.239205,3.28925,6,0.0158272,10,0.000786804,-2.4829,-1.28985,-0.0457416,-5.86595,0.2392047,
2,1,0,1,0,11028.7,0.241006,0.240695,3.27962,6,0.0158888,10,0.000789388,-2.48418,-1.27461,-0.0462887,-5.92224,0.240695,
2,1,0,1,0,11028.7,0.24251,0.24219,3.26632,6,0.0159506,10,0.00079107,-2.48594,-1.63879,-0.0360021,-4.59417,0.2421903,
2,1,0,1,0,11028.7,0.243999,0.243706,3.26579,6,0.0160115,10,0.000795891,-2.48601,-12.1379,-0.00486081,-0.619435,0.243706,
2,1,0,1,0,11028.7,0.245503,0.245209,3.25945,6,0.0160729,10,0.000799247,-2.48686,-2.7944,-0.0211137,-2.68097,0.245209,
2,1,0,1,0,11028.8,0.247006,0.246709,3.25107,6,0.0161344,10,0.000802068,-2.48797,-1.7632,-0.0334619,-4.24053,0.246709,
2,1,0,1,0,11028.8,0.248496,0.248212,3.23177,6,0.0161949,10,0.000802166,-2.49056,-1.6466,-0.0358315,-4.53418,0.248212,
2,1,0,1,0,11028.8,0.249999,0.249665,3.22827,6,0.0162559,10,0.000805988,-2.49103,-2.05468,-0.0287149,-3.62538,0.249665,
2,1,0,1,0,11028.8,0.251503,0.251204,3.22367,6,0.0163169,10,0.000809797,-2.49165,-3.07683,-0.0191756,-2.41579,0.2512036,
2,1,0,1,0,11028.8,0.25299,0.252689,3.21414,6,0.0163771,10,0.000812179,-2.49294,-1.0378,-0.056851,-7.13481,0.252689,
2,1,0,1,0,11028.9,0.254494,0.254168,3.21232,6,0.0164378,10,0.000816469,-2.49318,-1.04982,-0.0561999,-7.04744,0.254168,
2,1,0,1,0,11028.9,0.25599,0.255657,3.19931,6,0.016498,10,0.000817926,-2.49494,-1.43705,-0.0410562,-5.13849,0.255657,
2,1,0,1,0,11028.9,0.257487,0.257198,3.19937,6,0.0165581,10,0.00082287,-2.49494,-1.32335,-0.0445838,-5.5651,0.257198,
2,1,0,1,0,11028.9,0.25899,0.258723,3.20408,6,0.0166184,10,0.000828971,-2.4943,-1.01316,-0.0582339,-7.25588,0.258723,
2,1,0,1,0,11028.9,0.260479,0.260245,3.19603,6,0.016678,10,0.000831752,-2.49539,-1.06595,-0.0553495,-6.88378,0.260245,
2,1,0,1,0,11028.9,0.261983,0.261724,3.1838,6,0.0167381,10,0.000833278,-2.49705,-1.21662,-0.0484951,-6.01679,0.261724,
2,1,0,1,0,11029,0.263486,0.263188,3.17928,6,0.016798,10,0.000836748,-2.49767,-6.33335,-0.00931577,-1.15381,0.263188,
2,1,0,1,0,11029,0.264974,0.264692,3.17063,6,0.0168572,10,0.000839239,-2.49885,-3.82223,-0.015436,-1.91225,0.264692,
2,1,0,1,0,11029,0.266477,0.266207,3.16533,6,0.016917,10,0.000842634,-2.49958,-2.37604,-0.0248313,-3.06468,0.266207,
2,1,0,1,0,11029,0.267981,0.267689,3.14838,6,0.0169766,10,0.000842787,-2.50191,-4.8566,-0.0121484,-1.49545,0.267689,
2,1,0,1,0,11029,0.26947,0.269174,3.14854,6,0.0170354,10,0.000847506,-2.50189,-10.2838,-0.00573718,-0.705238,0.269174,
2,1,0,1,0,11029.1,0.270974,0.270693,3.14358,6,0.0170947,10,0.000850945,-2.50258,-3.73886,-0.0157802,-1.93632,0.270693,
2,1,0,1,0,11029.1,0.27247,0.272177,3.13346,6,0.0171537,10,0.000852855,-2.50398,-2.71832,-0.0217046,-2.65449,0.272177,
2,1,0,1,0,11029.1,0.273967,0.273638,3.12195,6,0.0172126,10,0.000854285,-2.50557,-1.36661,-0.0431726,-5.27867,0.273638,
2,1,0,1,0,11029.1,0.27547,0.275182,3.12018,6,0.0172716,10,0.000858618,-2.50582,-1.33756,-0.0441103,-5.38396,0.275182,
2,1,0,1,0,11029.1,0.276959,0.276632,3.11366,6,0.0173298,10,0.000861337,-2.50673,-1.55874,-0.037851,-4.60533,0.276632,
2,1,0,1,0,11029.2,0.278463,0.278186,3.10584,6,0.0173886,10,0.000864001,-2.50782,-0.992289,-0.0594585,-7.21364,0.278186,
2,1,0,1,0,11029.2,0.279967,0.279686,3.10585,6,0.0174473,10,0.000868665,-2.50782,-1.04086,-0.0566837,-6.8683,0.2796863,
2,1,0,1,0,11029.2,0.281454,0.281179,3.09388,6,0.0175052,10,0.000869932,-2.5095,-0.992886,-0.0594227,-7.18892,0.281179,
2,1,0,1,0,11029.2,0.282958,0.282617,3.09265,6,0.0175635,10,0.000874034,-2.50967,-1.34032,-0.0440193,-5.31104,0.282617,
2,1,0,1,0,11029.2,0.284461,0.284191,3.09002,6,0.0176218,10,0.000878153,-2.51004,-1.80296,-0.032724,-3.93754,0.284191,
2,1,0,1,0,11029.2,0.28595,0.285696,3.08367,6,0.0176794,10,0.000880993,-2.51093,-1.34654,-0.0438162,-5.26397,0.285696,
2,1,0,1,0,11029.3,0.287454,0.287142,3.07172,6,0.0177374,10,0.000882018,-2.51262,-1.76311,-0.0334636,-4.00979,0.287142,
2,1,0,1,0,11029.3,0.28895,0.288664,3.06608,6,0.017795,10,0.000885067,-2.51342,-4.71017,-0.0125261,-1.49731,0.288664,
2,1,0,1,0,11029.3,0.290447,0.290118,3.06016,6,0.0178525,10,0.000887806,-2.51426,-3.00084,-0.0196611,-2.34745,0.290118,
2,1,0,1,0,11029.3,0.29195,0.291668,3.05107,6,0.0179102,10,0.000889899,-2.51555,-1.9778,-0.0298312,-3.55565,0.291668,
2,1,0,1,0,11029.3,0.29344,0.293181,3.03954,6,0.0179671,10,0.000891134,-2.51719,-2.29279,-0.0257329,-3.05845,0.2931807,
2,1,0,1,0,11029.4,0.294943,0.294651,3.03265,6,0.0180244,10,0.000893572,-2.51818,-3.05207,-0.0193312,-2.29286,0.294651,
2,1,0,1,0,11029.4,0.296447,0.296167,3.0324,6,0.0180817,10,0.000898096,-2.51821,-5.16182,-0.0114301,-1.35199,0.296167,
2,1,0,1,0,11029.4,0.297934,0.297665,3.02482,6,0.0181383,10,0.000900383,-2.5193,-1.86823,-0.0315806,-3.72635,0.297665,
2,1,0,1,0,11029.4,0.299438,0.299169,3.01388,6,0.0181954,10,0.00090166,-2.52087,-0.0228861,-2.57798,-273.31,0.299169,
2,1,0,1,0,11029.4,0.300012,0.299594,3.00699,6,0.0182166,10,0.000900874,-2.52187,0.00108342,54.4573,3227.13,0.299594,
2,1,0,1,0,11029.4,0.298737,0.298416,1.03513,6,0.0182457,10,0.000308901,-2.985,0.00254836,23.1521,1007.8,0.298416,
2,1,0,1,0,11029.5,0.29724,0.296953,0.0230092,6,0.0182543,10,6.83265e-06,-4.6381,0.00891873,6.61529,552.433,0.296953,
2,0,0,1,0,11029.5,0.295744,0.295471,-0.476561,6,0.0182495,10,-0.00014081,-3.32188,-0.00882405,-6.68627,276.137,0.295471,
2,0,0,1,0,11029.5,0.29424,0.293902,-0.75876,6,0.0182375,10,-0.000223001,-3.1199,-0.0087356,-6.75397,159.573,0.293902,
2,0,0,1,0,11029.5,0.292751,0.292455,-0.933067,6,0.0182215,10,-0.00027288,-3.03009,-0.0192457,-3.06563,104.011,0.292455,
2,0,0,1,0,11029.5,0.291248,0.290921,-1.05396,6,0.0182026,10,-0.000306619,-2.97718,-0.030986,-1.90409,75.784,0.290921,
2,0,0,1,0,11029.5,0.289744,0.289456,-1.15263,6,0.0181817,10,-0.000333637,-2.93831,-0.0422607,-1.3961,61.5153,0.289456,
2,0,0,1,0,11029.6,0.288257,0.287946,-1.22514,6,0.0181593,10,-0.000352774,-2.91181,-0.0580758,-1.01591,48.0671,0.287946,
2,0,0,1,0,11029.6,0.286753,0.286435,-1.28642,6,0.0181354,10,-0.000368475,-2.89062,-0.0719106,-0.820464,41.0064,0.286435,
2,0,0,1,0,11029.6,0.285249,0.284915,-1.33896,6,0.0181104,10,-0.000381491,-2.87323,-0.0806232,-0.731799,38.3858,0.284915,
2,0,0,1,0,11029.6,0.28376,0.283451,-1.39606,6,0.0180847,10,-0.000395715,-2.8551,-0.102405,-0.576142,31.3843,0.283451,
2,0,0,1,0,11029.6,0.282257,0.281909,-1.44335,6,0.0180577,10,-0.000406894,-2.84063,-0.120172,-0.490962,27.6009,0.281909,
2,0,0,1,0,11029.7,0.28076,0.280464,-1.48402,6,0.01803,10,-0.000416215,-2.82856,-0.142691,-0.41348,23.9811,0.2804639,
2,0,0,1,0,11029.7,0.279264,0.278959,-1.52762,6,0.0180017,10,-0.000426142,-2.81599,-0.154029,-0.383045,22.8645,0.278959,
2,0,0,1,0,11029.7,0.27776,0.277463,-1.5648,6,0.0179724,10,-0.000434174,-2.80554,-0.155964,-0.378293,23.0982,0.277463,
2,0,0,1,0,11029.7,0.276271,0.275955,-1.60883,6,0.0179427,10,-0.000443964,-2.79349,-0.171712,-0.343599,21.4505,0.275955,
2,0,0,1,0,11029.7,0.274767,0.274447,-1.64166,6,0.0179121,10,-0.000450548,-2.78472,-0.182296,-0.323649,20.599,0.274447,
2,0,0,1,0,11029.8,0.273264,0.272929,-1.66754,6,0.0178809,10,-0.000455119,-2.77792,-0.17619,-0.334866,21.7661,0.272929,
2,0,0,1,0,11029.8,0.271776,0.271468,-1.70155,6,0.0178495,10,-0.000461918,-2.76915,-0.171963,-0.343096,22.7101,0.271468,
2,0,0,1,0,11029.8,0.270273,0.269924,-1.73364,6,0.017817,10,-0.00046795,-2.76104,-0.187411,-0.314816,21.2232,0.269924,
2,0,0,1,0,11029.8,0.268769,0.268471,-1.76172,6,0.0177841,10,-0.000472972,-2.75406,-0.213206,-0.276727,18.9567,0.268471,
2,0,0,1,0,11029.8,0.26728,0.266953,-1.78078,6,0.0177509,10,-0.000475384,-2.74939,-0.225732,-0.261372,18.1676,0.266953,
2,0,0,1,0,11029.8,0.265777,0.26546,-1.80662,6,0.017717,10,-0.000479585,-2.74313,-0.222456,-0.265221,18.7156,0.26546,
2,0,0,1,0,11029.9,0.26428,0.263969,-1.83301,6,0.0176828,10,-0.000483858,-2.73684,-0.226395,-0.260607,18.6354,0.263969,
2,0,0,1,0,11029.9,0.262784,0.262463,-1.85582,6,0.017648,10,-0.000487085,-2.73146,-0.296032,-0.199303,14.4424,0.262463,
2,0,0,1,0,11029.9,0.26128,0.260958,-1.87543,6,0.0176126,10,-0.000489409,-2.7269,-0.295554,-0.199625,14.6786,0.260958,
2,0,0,1,0,11029.9,0.259791,0.259474,-1.896,6,0.0175773,10,-0.000491962,-2.72216,-0.282556,-0.208808,15.5433,0.259474,
2,0,0,1,0,11029.9,0.258287,0.257984,-1.92622,6,0.0175411,10,-0.000496933,-2.71529,-0.306642,-0.192407,14.4642,0.257984,
2,0,0,1,0,11030,0.256786,0.256472,-1.94906,6,0.0175044,10,-0.00049988,-2.71017,-0.331903,-0.177763,13.5082,0.256472,
2,0,0,1,0,11030,0.255296,0.254982,-1.971,6,0.0174677,10,-0.00050257,-2.70531,-0.405162,-0.145621,11.2136,0.254982,
2,0,0,1,0,11030,0.253793,0.253462,-1.99016,6,0.0174303,10,-0.00050443,-2.70111,-0.452397,-0.130416,10.1381,0.2534624,
2,0,0,1,0,11030,0.252289,0.251977,-2.01751,6,0.0173925,10,-0.000508366,-2.69518,-0.353149,-0.167068,13.0917,0.251977,
2,0,0,1,0,11030,0.2508,0.25046,-2.03852,6,0.0173546,10,-0.000510568,-2.69069,-0.385461,-0.153063,12.1403,0.25046,
2,0,0,1,0,11030.1,0.249296,0.248993,-2.05822,6,0.017316,10,-0.000512481,-2.68651,-0.43566,-0.135427,10.8565,0.248993,
2,0,0,1,0,11030.1,0.2478,0.247484,-2.07343,6,0.0172773,10,-0.00051314,-2.68331,-0.347096,-0.169982,13.7583,0.247484,
2,0,0,1,0,11030.1,0.246304,0.246021,-2.0927,6,0.0172382,10,-0.000514849,-2.67929,-0.300364,-0.196429,16.0143,0.246021,
2,0,0,1,0,11030.1,0.2448,0.244465,-2.11547,6,0.0171986,10,-0.000517158,-2.67459,-0.313425,-0.188243,15.5036,0.2444651,
2,0,0,1,0,11030.1,0.243313,0.242992,-2.13413,6,0.0171589,10,-0.000518576,-2.67078,-0.401191,-0.147062,12.2163,0.242992,
2,0,0,1,0,11030.1,0.241809,0.241506,-2.13968,6,0.0171185,10,-0.000516745,-2.66965,-0.402259,-0.146672,12.2839,0.241506,
2,0,0,1,0,11030.2,0.240306,0.239981,-2.15615,6,0.0170778,10,-0.000517433,-2.66632,-0.330346,-0.178601,15.0763,0.239981,
2,0,0,1,0,11030.2,0.238816,0.238537,-2.18068,6,0.0170372,10,-0.000520175,-2.66141,-0.352338,-0.167453,14.2501,0.238537,
2,0,0,1,0,11030.2,0.237313,0.237029,-2.19426,6,0.0169958,10,-0.000520104,-2.65871,-0.571464,-0.103244,8.85161,0.237029,
2,0,0,1,0,11030.2,0.235809,0.235504,-2.21192,6,0.016954,10,-0.000520917,-2.65523,-0.679152,-0.0868731,7.52113,0.235504,
2,0,0,1,0,11030.2,0.23432,0.233987,-2.2328,6,0.0169125,10,-0.000522447,-2.65115,-0.551506,-0.10698,9.33826,0.233987,
2,0,0,1,0,11030.3,0.232816,0.232489,-2.2505,6,0.0168702,10,-0.000523216,-2.64772,-0.497679,-0.11855,10.4049,0.232489,
2,0,0,1,0,11030.3,0.23132,0.231018,-2.27109,6,0.0168277,10,-0.000524661,-2.64377,-0.555153,-0.106277,9.39596,0.231018,
2,0,0,1,0,11030.3,0.229824,0.229512,-2.29133,6,0.0167849,10,-0.000525887,-2.63991,-0.661726,-0.0891607,7.95255,0.229512,
2,0,0,1,0,11030.3,0.22832,0.228009,-2.30281,6,0.0167416,10,-0.000525063,-2.63774,-0.532489,-0.1108,9.94047,0.228009,
2,0,0,1,0,11030.3,0.226833,0.226523,-2.32249,6,0.0166985,10,-0.000526098,-2.63405,-0.455982,-0.129391,11.7136,0.226523,
2,0,0,1,0,11030.4,0.225329,0.224967,-2.34138,6,0.0166545,10,-0.000526735,-2.63053,-0.473685,-0.124555,11.3528,0.224967,
2,0,0,1,0,11030.4,0.223825,0.223509,-2.35526,6,0.0166102,10,-0.000526423,-2.62796,-0.516441,-0.114243,10.4823,0.223509,
2,0,0,1,0,11030.4,0.222336,0.222007,-2.36368,6,0.0165662,10,-0.000524754,-2.62641,-0.416858,-0.141535,13.0867,0.222007,
2,0,0,1,0,11030.4,0.220833,0.220524,-2.38396,6,0.0165213,10,-0.000525722,-2.6227,-0.417984,-0.141154,13.1605,0.220524,
2,0,0,1,0,11030.4,0.219329,0.219043,-2.40409,6,0.0164762,10,-0.000526599,-2.61905,-0.397902,-0.148278,13.9007,0.219043,
2,0,0,1,0,11030.4,0.21784,0.217542,-2.41303,6,0.0164311,10,-0.000524936,-2.61744,-0.42529,-0.138729,13.0624,0.217542,
2,0,0,1,0,11030.5,0.216336,0.215989,-2.42578,6,0.0163853,10,-0.000523943,-2.61515,-0.535639,-0.110149,10.471,0.215989,
2,0,0,1,0,11030.5,0.21484,0.214518,-2.44602,6,0.0163394,10,-0.000524715,-2.61154,-0.42933,-0.137423,13.1536,0.214518,
2,0,0,1,0,11030.5,0.213343,0.213032,-2.46456,6,0.0162933,10,-0.00052503,-2.60826,-0.473633,-0.124569,12.006,0.213032,
2,0,0,1,0,11030.5,0.21184,0.211514,-2.48414,6,0.0162465,10,-0.000525431,-2.60482,-0.774235,-0.0762042,7.38451,0.211514,
2,0,0,1,0,11030.5,0.210352,0.210037,-2.49838,6,0.0161998,10,-0.000524753,-2.60234,-0.59066,-0.0998883,9.75961,0.210037,
2,0,0,1,0,11030.6,0.208849,0.208554,-2.51634,6,0.0161525,10,-0.000524792,-2.59923,-0.514486,-0.114678,11.3034,0.208554,
2,0,0,1,0,11030.6,0.207345,0.207045,-2.53857,6,0.0161048,10,-0.000525597,-2.59541,-0.448433,-0.131569,13.0373,0.207045,
2,0,0,1,0,11030.6,0.205856,0.205559,-2.56669,6,0.0160571,10,-0.000527606,-2.59063,-0.477682,-0.123513,12.3142,0.205559,
2,0,0,1,0,11030.6,0.204353,0.204053,-2.58411,6,0.0160086,10,-0.000527295,-2.58769,-0.808497,-0.0729749,7.33511,0.204053,
2,0,0,1,0,11030.6,0.202849,0.202548,-2.59243,6,0.0159599,10,-0.000525093,-2.58629,-0.502319,-0.117455,11.89,0.2025483,
2,0,0,1,0,11030.7,0.20136,0.201046,-2.61125,6,0.0159114,10,-0.000524982,-2.58315,-0.433413,-0.136129,13.8591,0.201046,
2,0,0,1,0,11030.7,0.199856,0.199535,-2.63143,6,0.0158619,10,-0.000525062,-2.57981,-0.447533,-0.131834,13.5316,0.199535,
2,0,0,1,0,11030.7,0.19836,0.198042,-2.65042,6,0.0158124,10,-0.000524894,-2.57669,-0.445518,-0.13243,13.6918,0.198042,
2,0,0,1,0,11030.7,0.196863,0.196569,-2.66415,6,0.0157625,10,-0.000523689,-2.57444,-0.387045,-0.152437,15.8765,0.196569,
2,0,0,1,0,11030.7,0.19536,0.195072,-2.68606,6,0.015712,10,-0.000523975,-2.57088,-0.346624,-0.170213,17.8476,0.195072,
2,0,0,1,0,11030.7,0.193872,0.193527,-2.71096,6,0.0156616,10,-0.000524646,-2.56688,-0.404009,-0.146036,15.4523,0.1935275,
2,0,0,1,0,11030.8,0.192369,0.191985,-2.72497,6,0.0156102,10,-0.000523153,-2.56464,-0.431507,-0.13673,14.5528,0.1919845,
2,0,0,1,0,11030.8,0.190865,0.190524,-2.74432,6,0.0155585,10,-0.000522858,-2.56157,-0.458989,-0.128543,13.8143,0.190524,
2,0,0,1,0,11030.8,0.189376,0.189029,-2.76747,6,0.015507,10,-0.000523131,-2.55792,-0.462861,-0.127468,13.8131,0.1890287,
2,0,0,1,0,11030.8,0.187872,0.187534,-2.79611,6,0.0154544,10,-0.000524366,-2.55345,-0.401238,-0.147045,16.0563,0.187534,
2,0,0,1,0,11030.8,0.186369,0.186028,-2.8208,6,0.0154014,10,-0.000524747,-2.54963,-0.523987,-0.112598,12.3973,0.186028,
2,0,0,1,0,11030.9,0.18488,0.18462,-2.85132,6,0.0153485,10,-0.00052641,-2.54495,-0.506344,-0.116522,12.9617,0.18462,
2,0,0,1,0,11030.9,0.183376,0.183043,-2.87075,6,0.0152946,10,-0.00052547,-2.542,-0.410762,-0.143636,16.1106,0.183043,
2,0,0,1,0,11030.9,0.18188,0.181567,-2.90117,6,0.0152405,10,-0.000526755,-2.53743,-0.38037,-0.155112,17.5466,0.181567,
2,0,0,1,0,11030.9,0.180383,0.18005,-2.93067,6,0.0151858,10,-0.000527669,-2.53303,-0.343158,-0.171932,19.6619,0.18005,
2,0,0,1,0,11030.9,0.17888,0.178558,-2.9614,6,0.0151302,10,-0.000528783,-2.5285,-0.351341,-0.167928,19.3943,0.178558,
2,0,0,1,0,11031,0.177392,0.177105,-2.99399,6,0.0150748,10,-0.000530252,-2.52375,-0.296618,-0.198909,23.2495,0.177105,
2,0,0,1,0,11031,0.175889,0.175617,-3.02079,6,0.0150181,10,-0.000530503,-2.51988,-0.280665,-0.210215,24.7942,0.175617,
2,0,0,1,0,11031,0.174385,0.174028,-3.06086,6,0.0149607,10,-0.000532677,-2.51416,-0.263553,-0.223863,26.7353,0.174028,
2,0,0,1,0,11031,0.172896,0.172554,-3.10036,6,0.0149033,10,-0.00053498,-2.50859,-0.271586,-0.217242,26.2669,0.172554,
2,0,0,1,0,11031,0.171392,0.171119,-3.12345,6,0.0148446,10,-0.000534481,-2.50537,-0.261688,-0.225459,27.6079,0.171119,
2,0,0,1,0,11031,0.169889,0.169577,-3.17731,6,0.0147851,10,-0.000538798,-2.49794,-0.238465,-0.247416,30.7614,0.169577,
2,0,0,1,0,11031.1,0.1684,0.168091,-3.22341,6,0.0147254,10,-0.000541825,-2.49168,-0.21972,-0.268524,33.7786,0.168091,
2,0,0,1,0,11031.1,0.166896,0.166576,-3.27234,6,0.0146641,10,-0.000545093,-2.48514,-0.229707,-0.256849,32.7953,0.166576,
2,0,0,1,0,11031.1,0.165392,0.165086,-3.32138,6,0.0146018,10,-0.000548312,-2.47868,-0.232935,-0.253289,32.9005,0.165086,
2,0,0,1,0,11031.1,0.163905,0.163593,-3.37244,6,0.0145394,10,-0.000551709,-2.47206,-0.217954,-0.270699,35.7844,0.163593,
2,0,0,1,0,11031.1,0.162401,0.162101,-3.43438,6,0.0144751,10,-0.000556718,-2.46415,-0.199603,-0.295587,39.6934,0.162101,
2,0,0,1,0,11031.2,0.160905,0.16058,-3.50092,6,0.01441,10,-0.000562178,-2.45582,-0.192022,-0.307257,42.0591,0.1605801,
2,0,0,1,0,11031.2,0.159409,0.159087,-3.58028,6,0.0143436,10,-0.000569577,-2.44608,-0.184299,-0.320132,44.6973,0.159087,
2,0,0,1,0,11031.2,0.157905,0.157614,-3.65499,6,0.0142755,10,-0.000576078,-2.43711,-0.161372,-0.365615,52.1971,0.157614,
2,0,0,1,0,11031.2,0.156416,0.156098,-3.73998,6,0.0142067,10,-0.000583803,-2.42713,-0.141422,-0.41719,60.8799,0.156098,
2,0,0,1,0,11031.2,0.154912,0.154562,-3.83943,6,0.0141353,10,-0.000593429,-2.41573,-0.1351,-0.436714,65.4122,0.154562,
2,0,0,1,0,11031.3,0.153409,0.153071,-3.9386,6,0.0140621,10,-0.000602884,-2.40466,-0.13018,-0.453217,69.6556,0.153071,
2,0,0,1,0,11031.3,0.151919,0.151618,-4.03465,6,0.0139879,10,-0.000611727,-2.39419,-0.119134,-0.495242,78.2275,0.151618,
2,0,0,1,0,11031.3,0.150416,0.150106,-4.16243,6,0.0139106,10,-0.000624804,-2.38065,-0.109402,-0.539294,87.7258,0.150106,
2,0,0,1,0,11031.3,0.148912,0.148637,-4.29485,6,0.013831,10,-0.000638374,-2.36705,-0.102295,-0.576766,96.8046,0.148637,
2,0,0,1,0,11031.3,0.147425,0.147072,-4.43317,6,0.0137496,10,-0.000651994,-2.35329,-0.101202,-0.582994,101.107,0.1470717,
2,0,0,1,0,11031.3,0.145921,0.145601,-4.58852,6,0.0136646,10,-0.000668095,-2.33833,-0.0944005,-0.624997,112.229,0.145601,
2,0,0,1,0,11031.4,0.144425,0.144081,-4.75476,6,0.0135769,10,-0.000685069,-2.32287,-0.0912087,-0.646868,120.65,0.144081,
2,0,0,1,0,11031.4,0.142929,0.142601,-4.94129,6,0.0134859,10,-0.000704634,-2.30616,-0.089982,-0.655687,126.821,0.142601,
2,0,0,1,0,11031.4,0.141425,0.14113,-5.149,6,0.0133907,10,-0.000726679,-2.28828,-0.0894902,-0.65929,132.524,0.1411301,
2,0,0,1,0,11031.4,0.139936,0.139628,-5.35637,6,0.0132927,10,-0.0007479,-2.27113,-0.0894766,-0.65939,138.093,0.139628,
2,0,0,1,0,11031.4,0.138432,0.138067,-5.57421,6,0.0131898,10,-0.000769615,-2.25382,-0.0855668,-0.68952,150.289,0.138067,
2,0,0,1,0,11031.5,0.136929,0.136607,-5.81327,6,0.0130826,10,-0.000794133,-2.23558,-0.0853564,-0.69122,156.791,0.1366071,
2,0,0,1,0,11031.5,0.135439,0.135135,-6.05413,6,0.0129721,10,-0.000818125,-2.21795,-0.0885042,-0.666635,157.25,0.135135,
2,0,0,1,0,11031.5,0.133936,0.133639,-6.30339,6,0.0128558,10,-0.00084238,-2.20043,-0.0906239,-0.651042,159.591,0.133639,
2,0,0,1,0,11031.5,0.132432,0.132127,-6.52979,6,0.0127351,10,-0.00086276,-2.1851,-0.0931205,-0.633588,161.548,0.132127,
2,0,0,1,0,11031.5,0.130945,0.130628,-6.77963,6,0.0126112,10,-0.000885607,-2.16879,-0.0930859,-0.633823,167.311,0.130628,
2,0,0,1,0,11031.6,0.129441,0.129087,-7.02275,6,0.0124813,10,-0.000906546,-2.15349,-0.0988212,-0.597038,163.417,0.129087,
2,0,0,1,0,11031.6,0.127945,0.12763,-7.26264,6,0.0123475,10,-0.000926929,-2.13891,-0.105877,-0.55725,157.534,0.12763,
2,0,0,1,0,11031.6,0.126448,0.126167,-7.47626,6,0.0122094,10,-0.000943257,-2.12632,-0.112988,-0.522179,152.315,0.126167,
2,0,0,1,0,11031.6,0.124945,0.124587,-7.69818,6,0.0120664,10,-0.000959092,-2.11361,-0.120516,-0.48956,146.892,0.124587,
2,0,0,1,0,11031.6,0.123456,0.123108,-7.90805,6,0.011921,10,-0.000973541,-2.10193,-0.132941,-0.443805,136.773,0.123108,
2,0,0,1,0,11031.6,0.121952,0.121665,-8.10277,6,0.0117702,10,-0.000985822,-2.09137,-0.153422,-0.384559,121.389,0.121665,
2,0,0,1,0,11031.7,0.120449,0.120147,-8.27709,6,0.0116159,10,-0.000994468,-2.08212,-0.164353,-0.358984,115.837,0.120147,
2,0,0,1,0,11031.7,0.118959,0.118645,-8.44065,6,0.0114601,10,-0.00100144,-2.07362,-0.181709,-0.324695,106.945,0.118645,
2,0,0,1,0,11031.7,0.117456,0.117131,-8.597,6,0.0112997,10,-0.00100698,-2.06565,-0.206821,-0.285271,95.6099,0.117131,
2,0,0,1,0,11031.7,0.115952,0.115628,-8.74027,6,0.0111363,10,-0.00101062,-2.05848,-0.239606,-0.246238,83.8332,0.115628,
2,0,0,1,0,11031.7,0.114465,0.114119,-8.86572,6,0.0109723,10,-0.00101175,-2.05229,-0.27449,-0.214944,74.2602,0.1141195,
2,0,0,1,0,11031.8,0.112961,0.112676,-8.97344,6,0.0108044,10,-0.00101109,-2.04704,-0.306479,-0.192509,67.354,0.112676,
2,0,0,1,0,11031.8,0.111465,0.111165,-9.07262,6,0.0106355,10,-0.00100856,-2.04227,-0.357269,-0.165142,58.3686,0.111165,
2,0,0,1,0,11031.8,0.109968,0.109658,-9.16121,6,0.0104649,10,-0.0010046,-2.03805,-0.44434,-0.132781,47.3516,0.1096575,
2,0,0,1,0,11031.8,0.108465,0.108132,-9.22018,6,0.010292,10,-0.000996993,-2.03526,-0.565308,-0.104368,37.4725,0.108132,
2,0,0,1,0,11031.8,0.106976,0.106694,-9.26498,6,0.0101199,10,-0.000988513,-2.03316,-0.729069,-0.0809251,29.2367,0.106694,
2,0,0,1,0,11031.9,0.105472,0.105139,-9.30748,6,0.00994516,10,-0.000978582,-2.03117,-0.928584,-0.0635376,23.0412,0.105139,
2,0,0,1,0,11031.9,0.103968,0.103636,-9.33583,6,0.00976978,10,-0.000967529,-2.02985,-1.49362,-0.0395014,14.3639,0.103636,
2,0,0,1,0,11031.9,0.102479,0.10216,-9.34184,6,0.0095959,10,-0.000954361,-2.02957,-7.53736,-0.00782768,2.84806,0.10216,
2,0,0,1,0,11031.9,0.100976,0.100634,-9.32909,6,0.00942015,10,-0.00093882,-2.03016,2.88869,0.0204245,-7.43137,0.100634,
2,0,0,1,0,11031.9,0.0994721,0.0991779,-9.30826,6,0.0092447,10,-0.000923174,-2.03113,1.43754,0.0410423,-14.8997,0.0991779,
2,0,0,1,0,11031.9,0.0979846,0.0976847,-9.28268,6,0.00907155,10,-0.000906775,-2.03233,0.936443,0.0630044,-22.7951,0.0976847,
2,0,0,1,0,11032,0.0964811,0.0961672,-9.23724,6,0.00889717,10,-0.000888319,-2.03446,0.594501,0.0992428,-35.7301,0.0961672,
2,0,0,1,0,11032,0.0949847,0.0946611,-9.17746,6,0.00872469,10,-0.000868748,-2.03728,0.471273,0.125193,-44.7989,0.0946611,
2,0,0,1,0,11032,0.0934883,0.0931851,-9.1067,6,0.00855348,10,-0.000848609,-2.04064,0.409531,0.144067,-51.2053,0.0931851,
2,0,0,1,0,11032,0.0919847,0.0916725,-9.03213,6,0.00838273,10,-0.000827998,-2.04421,0.359758,0.163999,-57.773,0.0916725,
2,0,0,1,0,11032,0.0904955,0.0901492,-8.9513,6,0.00821531,10,-0.000806953,-2.04811,0.305845,0.192908,-67.2759,0.0901492,
2,0,0,1,0,11032.1,0.0889919,0.0886942,-8.84682,6,0.00804787,10,-0.000784662,-2.05321,0.292381,0.201792,-69.6104,0.0886942,
2,0,0,1,0,11032.1,0.0874884,0.0871634,-8.74101,6,0.00788245,10,-0.000761896,-2.05844,0.277427,0.212668,-72.5397,0.0871634,
2,0,0,1,0,11032.1,0.0860009,0.0856712,-8.63726,6,0.00772071,10,-0.000739965,-2.06362,0.289207,0.204006,-68.7351,0.0856712,
2,0,0,1,0,11032.1,0.0844973,0.0841787,-8.53609,6,0.00755918,10,-0.000718556,-2.06874,0.278497,0.211851,-70.5195,0.0841787,
2,0,0,1,0,11032.1,0.0829938,0.0826875,-8.42605,6,0.00739965,10,-0.000696728,-2.07438,0.276867,0.213099,-70.0287,0.0826875,
2,0,0,1,0,11032.2,0.0815045,0.0811789,-8.32125,6,0.00724381,10,-0.00067551,-2.07981,0.298436,0.197697,-64.2356,0.0811789,
2,0,0,1,0,11032.2,0.080001,0.0796799,-8.21822,6,0.00708825,10,-0.000654826,-2.08522,0.316745,0.18627,-59.79,0.0796799,
2,0,0,1,0,11032.2,0.0785046,0.078191,-8.1326,6,0.00693516,10,-0.000635896,-2.08977,0.337478,0.174826,-55.5005,0.078191,
2,0,0,1,0,11032.2,0.0770082,0.0766889,-8.04819,6,0.0067837,10,-0.000617207,-2.0943,0.334701,0.176277,-55.3712,0.0766889,
2,0,0,1,0,11032.2,0.0755046,0.0751708,-7.95711,6,0.00663304,10,-0.000598143,-2.09924,0.343334,0.171844,-53.449,0.0751708,
2,0,0,1,0,11032.2,0.0740154,0.0737062,-7.88936,6,0.00648548,10,-0.000581495,-2.10296,0.397019,0.148607,-45.7867,0.0737062,
2,0,0,1,0,11032.3,0.0725118,0.0721608,-7.81632,6,0.00633764,10,-0.000564032,-2.107,0.417479,0.141325,-43.1596,0.07216081,
2,0,0,1,0,11032.3,0.0710083,0.0706737,-7.75977,6,0.00619097,10,-0.000548412,-2.11015,0.428917,0.137556,-41.6694,0.0706737,
2,0,0,1,0,11032.3,0.0695208,0.0692142,-7.69737,6,0.00604696,10,-0.000532768,-2.11366,0.441121,0.13375,-40.2269,0.0692142,
2,0,0,1,0,11032.3,0.0680173,0.0676835,-7.63912,6,0.00590255,10,-0.000517042,-2.11696,0.476302,0.123871,-37.0104,0.0676835,
2,0,0,1,0,11032.3,0.0665137,0.0661797,-7.59955,6,0.00575909,10,-0.000502936,-2.11921,0.529002,0.111531,-33.074,0.0661797,
2,0,0,1,0,11032.4,0.0650244,0.0646891,-7.55392,6,0.00561797,10,-0.000488657,-2.12183,0.520541,0.113344,-33.4079,0.0646891,
2,0,0,1,0,11032.4,0.0635209,0.0632102,-7.51069,6,0.00547624,10,-0.000474753,-2.12432,0.499815,0.118044,-34.5813,0.0632102,
2,0,0,1,0,11032.4,0.0620245,0.0617137,-7.4636,6,0.00533616,10,-0.000460606,-2.12705,0.55192,0.1069,-31.1242,0.0617137,
2,0,0,1,0,11032.4,0.0605281,0.0601869,-7.42452,6,0.00519691,10,-0.000446859,-2.12933,0.632264,0.0933155,-27.0137,0.0601869,
2,0,0,1,0,11032.4,0.0590246,0.0587029,-7.37679,6,0.00505772,10,-0.000433039,-2.13213,0.61913,0.095295,-27.4331,0.05870289,
2,0,0,1,0,11032.5,0.0575353,0.0571875,-7.33697,6,0.00492077,10,-0.000419583,-2.13448,0.656634,0.0898521,-25.6984,0.05718749,
2,0,0,1,0,11032.5,0.0560317,0.0557222,-7.29214,6,0.00478317,10,-0.000406334,-2.13714,0.670087,0.0880483,-25.0507,0.0557222,
2,0,0,1,0,11032.5,0.0545282,0.0542146,-7.24547,6,0.00464637,10,-0.000392811,-2.13993,0.695043,0.0848868,-23.9999,0.0542146,
2,0,0,1,0,11032.5,0.0530407,0.0527037,-7.20585,6,0.00451174,10,-0.000379775,-2.14231,0.64546,0.0914077,-25.7057,0.0527037,
2,0,0,1,0,11032.5,0.0515372,0.0511876,-7.16553,6,0.00437643,10,-0.000366786,-2.14475,0.594131,0.0993048,-27.7623,0.05118759,
2,0,0,1,0,11032.5,0.0500336,0.0497172,-7.10821,6,0.00424196,10,-0.0003534,-2.14824,0.567148,0.104029,-28.8935,0.0497172,
2,0,0,1,0,11032.6,0.0485444,0.0482485,-7.0705,6,0.00410979,10,-0.000341141,-2.15055,0.527101,0.111933,-30.9161,0.0482485,
2,0,0,1,0,11032.6,0.0470408,0.0467304,-7.02804,6,0.003977,10,-0.000328423,-2.15317,0.522556,0.112907,-30.9871,0.0467304,
2,0,0,1,0,11032.6,0.0455444,0.0452269,-6.98558,6,0.00384568,10,-0.000315936,-2.1558,0.462827,0.127478,-34.7459,0.0452269,
2,0,0,1,0,11032.6,0.044048,0.0437558,-6.94522,6,0.00371523,10,-0.000303894,-2.15831,0.461569,0.127825,-34.6505,0.0437558,
2,0,0,1,0,11032.6,0.0425445,0.0422288,-6.89608,6,0.00358504,10,-0.000291213,-2.1614,0.48361,0.121999,-32.8567,0.0422288,
2,0,0,1,0,11032.7,0.0410552,0.0406868,-6.8509,6,0.00345704,10,-0.000278742,-2.16425,0.486133,0.121366,-32.434,0.0406868,
2,0,0,1,0,11032.7,0.0395517,0.0392195,-6.81057,6,0.00332848,10,-0.000267107,-2.16682,0.461825,0.127754,-33.9048,0.03921951,
2,0,0,1,0,11032.7,0.0380481,0.0377048,-6.76393,6,0.00320085,10,-0.000255033,-2.1698,0.463439,0.127309,-33.5392,0.0377048,
2,0,0,1,0,11032.7,0.0365606,0.0362467,-6.70314,6,0.00307558,10,-0.000242966,-2.17372,0.440899,0.133817,-34.9856,0.0362467,
2,0,0,1,0,11032.7,0.0350571,0.0347957,-6.64399,6,0.00294998,10,-0.000231182,-2.17757,0.467379,0.126236,-32.728,0.0347957,
2,0,0,1,0,11032.8,0.0335535,0.033268,-6.59389,6,0.00282537,10,-0.000219366,-2.18086,0.44896,0.131415,-33.8012,0.033268,
2,0,0,1,0,11032.8,0.0320643,0.0317213,-6.53332,6,0.00270312,10,-0.000207245,-2.18487,0.403066,0.146378,-37.3236,0.0317213,
2,0,0,1,0,11032.8,0.0305607,0.0302502,-6.46928,6,0.00258065,10,-0.000195697,-2.18914,0.381187,0.15478,-39.0956,0.0302502,
2,0,0,1,0,11032.8,0.0290643,0.0287371,-6.4072,6,0.00245999,10,-0.000184124,-2.19333,0.39841,0.148089,-37.0626,0.0287371,
2,0,0,1,0,11032.8,0.0275679,0.0272623,-6.35415,6,0.00234044,10,-0.000173229,-2.19694,0.376818,0.156574,-38.8179,0.0272623,
2,0,0,1,0,11032.8,0.0260644,0.0257548,-6.29186,6,0.00222133,10,-0.000162045,-2.20122,0.358569,0.164543,-40.4108,0.02575477,
2,0,0,1,0,11032.9,0.0245751,0.0242598,-6.2259,6,0.00210464,10,-0.000151039,-2.2058,0.333894,0.176703,-42.9617,0.0242598,
2,0,0,1,0,11032.9,0.0230716,0.0227625,-6.15926,6,0.00198793,10,-0.0001402,-2.21047,0.325319,0.181361,-43.6721,0.02276249,
2,0,0,1,0,11032.9,0.021568,0.0212529,-6.10881,6,0.00187238,10,-0.00012983,-2.21404,0.337002,0.175073,-41.7401,0.0212529,
2,0,0,1,0,11032.9,0.0200805,0.0197511,-6.04482,6,0.00175919,10,-0.000119392,-2.21862,0.299344,0.197098,-46.4905,0.0197511,
2,0,0,1,0,11032.9,0.018577,0.0182306,-5.98951,6,0.00164588,10,-0.000109192,-2.22261,0.319339,0.184757,-43.1669,0.0182306,
2,0,0,1,0,11033,0.0170735,0.0167449,-5.92741,6,0.00153381,10,-9.92537e-05,-2.22714,0.326725,0.18058,-41.8014,0.0167449,
2,0,0,1,0,11033,0.0155842,0.0152564,-5.87472,6,0.00142392,10,-8.96271e-05,-2.23101,0.379469,0.15548,-35.6286,0.0152564,
2,0,0,1,0,11033,0.0140806,0.01374,-5.82431,6,0.00131385,10,-8.00259e-05,-2.23476,0.36956,0.159649,-36.2567,0.01374,
2,0,0,1,0,11033,0.0125842,0.0122187,-5.77229,6,0.00120532,10,-7.05296e-05,-2.23865,0.392164,0.150447,-33.8572,0.0122187,
2,0,0,1,0,11033,0.0110878,0.0107726,-5.71346,6,0.00109785,10,-6.15488e-05,-2.2431,0.434529,0.135779,-30.3098,0.01077259,
2,0,0,1,0,11033.1,0.00958429,0.00924799,-5.66854,6,0.000990659,10,-5.24226e-05,-2.24653,0.54456,0.108344,-23.9825,0.00924799,
2,0,0,1,0,11033.1,0.0080968,0.00774657,-5.62847,6,0.000885421,10,-4.36013e-05,-2.24961,0.501176,0.117723,-25.8742,0.00774657,
2,0,0,1,0,11033.1,0.00659326,0.00624071,-5.58063,6,0.000779824,10,-3.48271e-05,-2.25332,0.539182,0.109425,-23.8693,0.00624071,
2,0,0,1,0,11033.1,0.00508972,0.00475429,-5.53751,6,0.000675002,10,-2.63269e-05,-2.25669,0.617171,0.0955975,-20.7221,0.00475429,
2,0,0,1,0,11033.1,0.00360044,0.00330774,-5.51024,6,0.000571948,10,-1.82264e-05,-2.25883,1.25762,0.046914,-10.1377,0.003307743,
2,0,0,1,0,11033.1,0.0020969,0.0017177,-5.54045,6,0.000468179,10,-9.51684e-06,-2.25645,1.04446,0.0564887,-12.1282,0.0017177,
2,0,0,1,0,11033.2,0.000593362,0.000240138,-5.48531,6,0.000364317,10,-1.31723e-06,-2.2608, , , ,0.0002401383,
2,0,0,1,0,11033.2,0.000199195,-0.000145903,-5.47762,6,0.000337414,10,7.99199e-07,-2.26141, , , ,-0.000145903,