File: Figure_codes/Fig_3-5/rawdata_trumpetplot_data/after 10th/20221101_1-115_003_TrumpetPlot_ParaChange_from10_every3_11_CV_C01_11.csv
mode,ox/red,error,control changes,counter inc.,time/s,control/V,Ewe/V,<I>/mA,cycle number,(Q-Qo)/C,I Range,P/W,log(|I|),Tafel slope mV/dec,alpha_eff,dI/d(E-IR),E-IR/V,
2,1,0,1,0,22866,2.44065e-05,-0.000325324,10.1318,12,0.0000000E+000,10,-3.29612e-06,-1.99431, , , ,-0.000325324,
2,1,0,1,0,22866,0.00214129,0.00175519,11.4636,12,5.57188e-05,10,2.01209e-05,-1.94068, , , ,0.001755194,
2,1,0,1,0,22866,0.00454949,0.00420261,12.5273,12,0.000127992,10,5.26472e-05,-1.90214,0.071456,0.825682,394.79,0.00420261,
2,1,0,1,0,22866,0.0069466,0.00659171,13.3156,12,0.000205665,10,8.77729e-05,-1.87564,0.0959182,0.615107,316.669,0.00659171,
2,1,0,1,0,22866,0.0093437,0.0090264,14.0157,12,0.000287767,10,0.000126511,-1.85338,0.116414,0.506814,275.476,0.0090264,
2,1,0,1,0,22866,0.0117408,0.0113932,14.6318,12,0.000373802,10,0.000166704,-1.8347,0.138261,0.426729,242.408,0.0113932,
2,1,0,1,0,22866,0.0141462,0.0138247,15.1825,12,0.00046336,10,0.000209894,-1.81866,0.159413,0.370107,218.377,0.0138247,
2,1,0,1,0,22866,0.0165433,0.0162149,15.6756,12,0.000556003,10,0.000254178,-1.80478,0.18451,0.319766,195.072,0.0162149,
2,1,0,1,0,22866,0.0189404,0.0186146,16.1279,12,0.000651467,10,0.000300215,-1.79242,0.204346,0.288725,181.309,0.0186146,
2,1,0,1,0,22866,0.0213486,0.0210016,16.5543,12,0.00074955,10,0.000347665,-1.78109,0.232291,0.253992,163.607,0.0210016,
2,1,0,1,0,22866,0.0237457,0.0233684,16.9173,12,0.000850024,10,0.00039533,-1.77167,0.252308,0.233841,154.228,0.0233684,
2,1,0,1,0,22866,0.0261429,0.0258338,17.2745,12,0.000952636,10,0.000446265,-1.7626,0.265446,0.222267,149.861,0.0258338,
2,1,0,1,0,22866,0.02854,0.0282187,17.6313,12,0.00105739,10,0.000497532,-1.75372,0.291703,0.20226,138.843,0.0282187,
2,1,0,1,0,22866,0.0309482,0.0306173,17.9487,12,0.00116422,10,0.000549541,-1.74597,0.309305,0.19075,133.473,0.0306173,
2,1,0,1,0,22866,0.0333453,0.0330107,18.2435,12,0.00127281,10,0.00060223,-1.73889,0.330422,0.17856,127.208,0.0330107,
2,1,0,1,0,22866,0.0357424,0.0354146,18.5636,12,0.00138328,10,0.000657422,-1.73134,0.343986,0.171518,124.114,0.0354146,
2,1,0,1,0,22866.1,0.0381478,0.0378207,18.8468,12,0.00149556,10,0.000712797,-1.72476,0.361006,0.163432,120.156,0.0378207,
2,1,0,1,0,22866.1,0.0405449,0.0402098,19.1295,12,0.00160952,10,0.000769195,-1.7183,0.372921,0.158211,118.135,0.0402098,
2,1,0,1,0,22866.1,0.042942,0.0426158,19.4197,12,0.00172519,10,0.000827586,-1.71176,0.376097,0.156875,118.855,0.0426158,
2,1,0,1,0,22866.1,0.0453391,0.0450166,19.6947,12,0.00184256,10,0.00088659,-1.70565,0.388959,0.151687,116.584,0.0450166,
2,1,0,1,0,22866.1,0.0477473,0.0474248,19.9724,12,0.00196162,10,0.000947188,-1.69957,0.395636,0.149127,116.197,0.0474248,
2,1,0,1,0,22866.1,0.0501444,0.0498022,20.2467,12,0.00208231,10,0.00100833,-1.69365,0.405669,0.145439,114.952,0.04980221,
2,1,0,1,0,22866.1,0.0525415,0.0521712,20.5359,12,0.00220467,10,0.00107138,-1.68749,0.406181,0.145255,116.361,0.0521712,
2,1,0,1,0,22866.1,0.0549469,0.0545762,20.8197,12,0.00232875,10,0.00113626,-1.68153,0.411963,0.143217,116.275,0.0545762,
2,1,0,1,0,22866.1,0.057344,0.0569494,21.0822,12,0.00245448,10,0.00120062,-1.67608,0.418994,0.140814,115.949,0.0569494,
2,1,0,1,0,22866.1,0.0597412,0.0594021,21.3728,12,0.00258189,10,0.00126959,-1.67014,0.412623,0.142988,119.276,0.0594021,
2,1,0,1,0,22866.1,0.0621438,0.0617943,21.6629,12,0.00271104,10,0.00133864,-1.66428,0.425619,0.138622,117.14,0.0617943,
2,1,0,1,0,22866.1,0.0645465,0.0642057,21.9402,12,0.00284188,10,0.00140868,-1.65876,0.417782,0.141222,120.996,0.0642057,
2,1,0,1,0,22866.1,0.0669436,0.066598,22.2453,12,0.00297442,10,0.00148149,-1.65276,0.413012,0.142853,123.975,0.066598,
2,1,0,1,0,22866.1,0.0693407,0.0690104,22.5427,12,0.00310882,10,0.00155568,-1.64699,0.410077,0.143875,126.527,0.0690104,
2,1,0,1,0,22866.1,0.0717489,0.0713953,22.8423,12,0.003245,10,0.00163083,-1.64126,0.424334,0.139041,123.927,0.0713953,
2,1,0,1,0,22866.1,0.074146,0.0737695,23.1229,12,0.00338293,10,0.00170577,-1.63596,0.438069,0.134682,121.62,0.0737695,
2,1,0,1,0,22866.1,0.0765431,0.0762127,23.4295,12,0.00352264,10,0.00178563,-1.63024,0.437212,0.134946,123.365,0.0762127,
2,1,0,1,0,22866.2,0.0789485,0.0785965,23.7268,12,0.00366413,10,0.00186484,-1.62476,0.452965,0.130253,120.545,0.0785965,
2,1,0,1,0,22866.2,0.0813456,0.080993,23.9973,12,0.00380737,10,0.00194361,-1.61984,0.456251,0.129315,121.152,0.080993,
2,1,0,1,0,22866.2,0.0837427,0.0833429,24.2929,12,0.00395226,10,0.00202464,-1.61452,0.447769,0.131764,125.012,0.0833429,
2,1,0,1,0,22866.2,0.0861398,0.0857733,24.6117,12,0.00409899,10,0.00211103,-1.60886,0.440574,0.133916,128.541,0.0857733,
2,1,0,1,0,22866.2,0.088548,0.08819,24.9179,12,0.00424763,10,0.00219751,-1.60349,0.450429,0.130986,127.349,0.08819,
2,1,0,1,0,22866.2,0.0909451,0.0906035,25.2198,12,0.00439804,10,0.002285,-1.59826,0.468808,0.125851,123.884,0.0906035,
2,1,0,1,0,22866.2,0.0933422,0.0930021,25.5326,12,0.00455035,10,0.00237458,-1.59291,0.476944,0.123704,123.159,0.0930021,
2,1,0,1,0,22866.2,0.0957477,0.0954039,25.8112,12,0.0047044,10,0.00246249,-1.58819,0.49625,0.118892,119.796,0.0954039,
2,1,0,1,0,22866.2,0.0981447,0.0978036,26.1023,12,0.00486016,10,0.0025529,-1.58332,0.49493,0.119209,121.417,0.09780363,
2,1,0,1,0,22866.2,0.100542,0.100197,26.3942,12,0.00501769,10,0.00264461,-1.57849,0.502109,0.117504,121.02,0.100197,
2,1,0,1,0,22866.2,0.102939,0.102639,26.6645,12,0.00517691,10,0.00273682,-1.57407,0.508996,0.115915,120.693,0.102639,
2,1,0,1,0,22866.2,0.105347,0.105032,26.9691,12,0.00533788,10,0.00283263,-1.56913,0.508461,0.116036,122.119,0.105032,
2,1,0,1,0,22866.2,0.107744,0.107384,27.2677,12,0.00550062,10,0.00292813,-1.56435,0.511548,0.115336,122.705,0.107384,
2,1,0,1,0,22866.2,0.110141,0.109794,27.5625,12,0.00566513,10,0.00302619,-1.55968,0.503523,0.117174,126.054,0.109794,
2,1,0,1,0,22866.2,0.11255,0.112211,27.8711,12,0.00583143,10,0.00312745,-1.55485,0.495853,0.118987,129.446,0.112211,
2,1,0,1,0,22866.2,0.114947,0.1146,28.1773,12,0.00599958,10,0.00322914,-1.5501,0.479173,0.123129,135.496,0.1146,
2,1,0,1,0,22866.2,0.117344,0.117042,28.5169,12,0.00616969,10,0.00333766,-1.5449,0.465515,0.126741,141.067,0.117042,
2,1,0,1,0,22866.3,0.119744,0.119399,28.8522,12,0.00634182,10,0.00344492,-1.53982,0.459078,0.128518,144.759,0.1193988,
2,1,0,1,0,22866.3,0.122146,0.121824,29.1987,12,0.00651602,10,0.0035571,-1.53464,0.445128,0.132546,151.149,0.121824,
2,1,0,1,0,22866.3,0.124543,0.124229,29.5811,12,0.00669242,10,0.00367483,-1.52899,0.438642,0.134506,155.246,0.124229,
2,1,0,1,0,22866.3,0.126941,0.126598,29.9612,12,0.00687108,10,0.00379303,-1.52344,0.428281,0.13776,161.125,0.126598,
2,1,0,1,0,22866.3,0.129349,0.129006,30.3499,12,0.00705201,10,0.00391532,-1.51784,0.417207,0.141417,167.591,0.129006,
2,1,0,1,0,22866.3,0.131746,0.131416,30.7679,12,0.00723541,10,0.00404341,-1.5119,0.413565,0.142662,171.241,0.131416,
2,1,0,1,0,22866.3,0.134143,0.13382,31.1717,12,0.00742127,10,0.00417141,-1.50624,0.418193,0.141083,171.652,0.13382,
2,1,0,1,0,22866.3,0.13654,0.136182,31.5763,12,0.00760956,10,0.00430012,-1.50064,0.420117,0.140437,173.117,0.136182,
2,1,0,1,0,22866.3,0.138945,0.13862,32.0074,12,0.00780038,10,0.00443686,-1.49475,0.425864,0.138542,173.006,0.13862,
2,1,0,1,0,22866.3,0.141343,0.141,32.4178,12,0.00799369,10,0.00457092,-1.48922,0.435781,0.135389,171.241,0.141,
2,1,0,1,0,22866.3,0.14374,0.143419,32.8271,12,0.00818946,10,0.00470803,-1.48377,0.45056,0.130948,167.702,0.143419,
2,1,0,1,0,22866.3,0.146148,0.145781,33.2301,12,0.00838768,10,0.0048443,-1.47847,0.462458,0.127579,165.354,0.145781,
2,1,0,1,0,22866.3,0.148545,0.148226,33.6114,12,0.00858825,10,0.00498208,-1.47351,0.496417,0.118852,155.837,0.148226,
2,1,0,1,0,22866.3,0.150942,0.150547,33.9836,12,0.00879109,10,0.00511614,-1.46873,0.518448,0.113801,150.855,0.150547,
2,1,0,1,0,22866.3,0.153345,0.153034,34.3269,12,0.00899606,10,0.00525318,-1.46437,0.545726,0.108113,144.829,0.153034,
2,1,0,1,0,22866.3,0.155747,0.155402,34.6769,12,0.00920314,10,0.00538885,-1.45996,0.592499,0.0995782,134.628,0.155402,
2,1,0,1,0,22866.4,0.158144,0.157791,34.9956,12,0.00941221,10,0.00552199,-1.45599,0.668887,0.0882062,120.333,0.157791,
2,1,0,1,0,22866.4,0.160542,0.160201,35.2577,12,0.00962298,10,0.00564832,-1.45275,0.725171,0.0813601,111.941,0.160201,
2,1,0,1,0,22866.4,0.162947,0.16262,35.5295,12,0.00983538,10,0.00577781,-1.44941,0.821337,0.0718341,99.481,0.1626199,
2,1,0,1,0,22866.4,0.165344,0.164991,35.7397,12,0.0100493,10,0.00589673,-1.44685,1.06935,0.0551737,76.8585,0.164991,
2,1,0,1,0,22866.4,0.167741,0.167402,35.8965,12,0.0102642,10,0.00600917,-1.44495,1.46113,0.0403798,56.5188,0.167402,
2,1,0,1,0,22866.4,0.170149,0.169826,36.0234,12,0.01048,10,0.00611772,-1.44342,2.58788,0.0227986,31.9878,0.169826,
2,1,0,1,0,22866.4,0.172547,0.172235,36.0569,12,0.0106963,10,0.00621025,-1.44301,-289.162,-0.000204038,-0.286456,0.172235,
2,1,0,1,0,22866.4,0.174944,0.174635,36.0089,12,0.0109125,10,0.00628842,-1.44359,-2.20878,-0.0267116,-37.4577,0.174635,
2,1,0,1,0,22866.4,0.177341,0.176976,35.8771,12,0.0111282,10,0.00634937,-1.44518,-1.1223,-0.0525705,-73.4539,0.1769757,
2,1,0,1,0,22866.4,0.179746,0.179459,35.6664,12,0.0113429,10,0.00640066,-1.44774,-0.745051,-0.0791892,-109.948,0.179459,
2,1,0,1,0,22866.4,0.182143,0.181824,35.3481,12,0.0115559,10,0.00642713,-1.45163,-0.523563,-0.112689,-155.025,0.181824,
2,1,0,1,0,22866.4,0.18454,0.184243,34.9194,12,0.0117668,10,0.00643364,-1.45693,-0.413683,-0.142621,-193.94,0.184243,
2,1,0,1,0,22866.4,0.186949,0.18662,34.4147,12,0.0119747,10,0.00642248,-1.46326,-0.339334,-0.17387,-232.887,0.1866201,
2,1,0,1,0,22866.4,0.189346,0.189048,33.8039,12,0.0121794,10,0.00639058,-1.47103,-0.281968,-0.209243,-275.245,0.189048,
2,1,0,1,0,22866.4,0.191743,0.191414,33.0912,12,0.01238,10,0.00633412,-1.48029,-0.249272,-0.236689,-305.155,0.191414,
2,1,0,1,0,22866.4,0.19414,0.193834,32.3152,12,0.0125762,10,0.00626379,-1.49059,-0.22269,-0.264942,-333.544,0.193834,
2,1,0,1,0,22866.4,0.196548,0.196246,31.4949,12,0.0127676,10,0.00618077,-1.50176,-0.206091,-0.286282,-351.13,0.196246,
2,1,0,1,0,22866.5,0.198945,0.198648,30.6071,12,0.0129539,10,0.00608005,-1.51418,-0.187698,-0.314335,-375.033,0.198648,
2,1,0,1,0,22866.5,0.201342,0.201046,29.6888,12,0.0131347,10,0.00596881,-1.52741,-0.178787,-0.330002,-382.116,0.201046,
2,1,0,1,0,22866.5,0.203748,0.203436,28.779,12,0.01331,10,0.00585469,-1.54092,-0.173524,-0.34001,-381.703,0.203436,
2,1,0,1,0,22866.5,0.206145,0.205829,27.8558,12,0.0134798,10,0.00573353,-1.55508,-0.168696,-0.349742,-380.319,0.205829,
2,1,0,1,0,22866.5,0.208542,0.208233,26.9657,12,0.0136442,10,0.00561516,-1.56919,-0.171189,-0.344648,-362.902,0.2082333,
2,1,0,1,0,22866.5,0.210939,0.210622,26.0942,12,0.0138033,10,0.00549603,-1.58346,-0.169302,-0.34849,-355.273,0.2106224,
2,1,0,1,0,22866.5,0.213347,0.21303,25.2793,12,0.0139574,10,0.00538524,-1.59723,-0.174184,-0.338723,-334.26,0.21303,
2,1,0,1,0,22866.5,0.215744,0.215372,24.4878,12,0.0141065,10,0.00527398,-1.61105,-0.177053,-0.333234,-318.777,0.215372,
2,1,0,1,0,22866.5,0.218141,0.217805,23.7319,12,0.0142511,10,0.00516892,-1.62467,-0.186767,-0.315901,-293.224,0.217805,
2,1,0,1,0,22866.5,0.220547,0.220254,23.0635,12,0.0143914,10,0.00507983,-1.63707,-0.192948,-0.305782,-275.414,0.220254,
2,1,0,1,0,22866.5,0.222944,0.222629,22.4176,12,0.0145278,10,0.00499081,-1.64941,-0.201627,-0.29262,-256.452,0.222629,
2,1,0,1,0,22866.5,0.225341,0.225058,21.8158,12,0.0146604,10,0.00490982,-1.66123,-0.212937,-0.277077,-236.464,0.225058,
2,1,0,1,0,22866.5,0.227744,0.227411,21.2878,12,0.0147897,10,0.00484109,-1.67187,-0.223867,-0.263549,-219.127,0.227411,
2,1,0,1,0,22866.5,0.230146,0.229852,20.7774,12,0.0149158,10,0.00477572,-1.68241,-0.235273,-0.250773,-203.635,0.229852,
2,1,0,1,0,22866.5,0.232543,0.232252,20.3201,12,0.015039,10,0.00471938,-1.69207,-0.248927,-0.237018,-188.148,0.232252,
2,1,0,1,0,22866.5,0.234941,0.234618,19.8857,12,0.0151595,10,0.00466555,-1.70146,-0.269672,-0.218784,-170.032,0.234618,
2,1,0,1,0,22866.5,0.237349,0.237035,19.5006,12,0.0152776,10,0.00462232,-1.70995,-0.289047,-0.204119,-155.503,0.237035,
2,1,0,1,0,22866.6,0.239746,0.239404,19.137,12,0.0153935,10,0.00458147,-1.71813,-0.301814,-0.195484,-146.15,0.239404,
2,1,0,1,0,22866.6,0.242143,0.241825,18.7987,12,0.0155073,10,0.00454599,-1.72587,-0.328765,-0.179459,-131.857,0.241825,
2,1,0,1,0,22866.6,0.244548,0.244243,18.4998,12,0.0156191,10,0.00451845,-1.73283,-0.34752,-0.169774,-122.674,0.244243,
2,1,0,1,0,22866.6,0.246946,0.246661,18.2122,12,0.0157292,10,0.00449224,-1.73964,-0.366766,-0.160865,-114.39,0.246661,
2,1,0,1,0,22866.6,0.249343,0.248997,17.938,12,0.0158376,10,0.00446651,-1.74623,-0.385028,-0.153235,-107.441,0.248997,
2,1,0,1,0,22866.6,0.25174,0.251401,17.6977,12,0.0159445,10,0.00444923,-1.75208,-0.418087,-0.141119,-97.5259,0.251401,
2,1,0,1,0,22866.6,0.254148,0.253866,17.4783,12,0.01605,10,0.00443713,-1.7575,-0.43856,-0.134531,-91.7654,0.253866,
2,1,0,1,0,22866.6,0.256545,0.256215,17.2527,12,0.0161542,10,0.00442039,-1.76314,-0.459558,-0.128384,-86.5787,0.256215,
2,1,0,1,0,22866.6,0.258942,0.258618,17.0662,12,0.0162571,10,0.00441364,-1.76786,-0.492207,-0.119868,-79.8321,0.2586185,
2,1,0,1,0,22866.6,0.261348,0.261036,16.8846,12,0.0163589,10,0.00440748,-1.77251,-0.512778,-0.115059,-75.8219,0.261036,
2,1,0,1,0,22866.6,0.263745,0.263396,16.7017,12,0.0164596,10,0.00439917,-1.77724,-0.540992,-0.109059,-71.1332,0.263396,
2,1,0,1,0,22866.6,0.266142,0.265815,16.5339,12,0.0165593,10,0.00439496,-1.78163,-0.594571,-0.0992312,-64.092,0.265815,
2,1,0,1,0,22866.6,0.268539,0.268236,16.3741,12,0.0166581,10,0.00439212,-1.78584,-0.611434,-0.0964945,-61.7274,0.2682364,
2,1,0,1,0,22866.6,0.270947,0.270627,16.2345,12,0.0167559,10,0.00439348,-1.78956,-0.64274,-0.0917946,-58.1864,0.270627,
2,1,0,1,0,22866.6,0.273344,0.273044,16.0981,12,0.0168529,10,0.0043955,-1.79323,-0.654818,-0.0901013,-56.6329,0.273044,
2,1,0,1,0,22866.6,0.275741,0.275423,15.9633,12,0.0169491,10,0.00439665,-1.79688,-0.69648,-0.0847116,-52.7928,0.275423,
2,1,0,1,0,22866.7,0.278149,0.277873,15.8483,12,0.0170445,10,0.00440382,-1.80002,-0.702394,-0.0839984,-51.9254,0.277873,
2,1,0,1,0,22866.7,0.280547,0.280203,15.7129,12,0.0171392,10,0.00440281,-1.80374,-0.724883,-0.0813925,-49.9696,0.280203,
2,1,0,1,0,22866.7,0.282944,0.282648,15.6076,12,0.0172331,10,0.00441145,-1.80667,-0.796198,-0.0741022,-45.158,0.282648,
2,1,0,1,0,22866.7,0.285344,0.285013,15.5033,12,0.0173264,10,0.00441865,-1.80958,-0.794145,-0.0742937,-44.9193,0.285013,
2,1,0,1,0,22866.7,0.287746,0.287399,15.3873,12,0.0174191,10,0.0044223,-1.81284,-0.814264,-0.0724581,-43.5363,0.287399,
2,1,0,1,0,22866.7,0.290143,0.289798,15.2853,12,0.0175111,10,0.00442963,-1.81573,-0.855739,-0.0689463,-41.1342,0.289798,
2,1,0,1,0,22866.7,0.29254,0.292219,15.1876,12,0.0176025,10,0.00443811,-1.81851,-0.913953,-0.0645548,-38.2651,0.292219,
2,1,0,1,0,22866.7,0.294949,0.294649,15.0984,12,0.0176934,10,0.00444872,-1.82107,-0.877851,-0.0672096,-39.6222,0.294649,
2,1,0,1,0,22866.7,0.297346,0.297035,15.0036,12,0.0177837,10,0.00445659,-1.8238,-1.00931,-0.0584555,-34.2779,0.297035,
2,1,0,1,0,22866.7,0.299621,0.299261,14.9154,12,0.017869,10,0.0044636,-1.82636,-0.0718853,-0.820752,-458.858,0.299261,
2,1,0,1,0,22866.7,0.299962,0.299632,14.7844,12,0.0178868,10,0.00442988,-1.8302,0.00871192,6.77233,3165.25,0.299632,
2,1,0,1,0,22866.7,0.297903,0.297647,10.6129,12,0.0179498,10,0.0031589,-1.97417,0.0146473,4.02804,1594.95,0.297647,
2,1,0,1,0,22866.7,0.295506,0.295268,7.40076,12,0.0180031,10,0.00218521,-2.13072,0.0145011,4.06867,1189.75,0.295268,
2,1,0,1,0,22866.7,0.293101,0.292821,4.98077,12,0.0180397,10,0.00145847,-2.3027,0.0122003,4.83595,916.187,0.292821,
2,1,0,1,0,22866.7,0.290704,0.290377,3.06016,12,0.0180634,10,0.0008886,-2.51426,0.00855857,6.89368,732.243,0.290377,
2,1,0,1,0,22866.7,0.288307,0.28799,1.48146,12,0.0180768,10,0.000426646,-2.82931,0.00515691,11.441,612.694,0.28799,
2,1,0,1,0,22866.7,0.28591,0.285605,0.188446,12,0.0180815,10,5.3821e-05,-3.72481,0.0324238,1.81965,500.986,0.2856048,
2,0,0,1,0,22866.7,0.283501,0.283205,-0.921253,12,0.0180791,10,-0.000260904,-3.03562,-0.0114716,-5.14314,421.8,0.283205,
2,0,0,1,0,22866.8,0.281104,0.280815,-1.85615,12,0.0180706,10,-0.000521234,-2.73139,-0.00903652,-6.52906,364.269,0.280815,
2,0,0,1,0,22866.8,0.278707,0.27841,-2.65681,12,0.0180569,10,-0.000739682,-2.57564,-0.0180374,-3.27098,309.508,0.27841,
2,0,0,1,0,22866.8,0.276302,0.276018,-3.35164,12,0.0180388,10,-0.000925111,-2.47474,-0.0269999,-2.1852,271.946,0.276018,
2,0,0,1,0,22866.8,0.273905,0.273606,-3.95452,12,0.0180168,10,-0.00108198,-2.40291,-0.0368217,-1.60231,240.655,0.273606,
2,0,0,1,0,22866.8,0.271508,0.271183,-4.49402,12,0.0179914,10,-0.0012187,-2.34736,-0.0477394,-1.23588,212.548,0.271183,
2,0,0,1,0,22866.8,0.269105,0.268789,-4.96914,12,0.0179629,10,-0.00133565,-2.30372,-0.0596414,-0.989246,189.064,0.268789,
2,0,0,1,0,22866.8,0.266702,0.266384,-5.38602,12,0.0179317,10,-0.00143475,-2.26873,-0.0732234,-0.805754,167.907,0.266384,
2,0,0,1,0,22866.8,0.264305,0.264026,-5.77926,12,0.0178982,10,-0.00152587,-2.23813,-0.0867147,-0.680393,152.066,0.264026,
2,0,0,1,0,22866.8,0.261908,0.2616,-6.1265,12,0.0178624,10,-0.0016027,-2.21279,-0.100817,-0.585221,139.061,0.2616,
2,0,0,1,0,22866.8,0.2595,0.25921,-6.44925,12,0.0178247,10,-0.00167171,-2.19049,-0.114892,-0.513526,128.657,0.25921,
2,0,0,1,0,22866.8,0.257103,0.256796,-6.74773,12,0.0177851,10,-0.00173279,-2.17084,-0.131881,-0.447373,117.199,0.256796,
2,0,0,1,0,22866.8,0.254706,0.254415,-7.01674,12,0.0177437,10,-0.00178516,-2.15386,-0.150063,-0.393168,107.227,0.254415,
2,0,0,1,0,22866.8,0.2523,0.251963,-7.26118,12,0.0177009,10,-0.00182955,-2.13899,-0.167283,-0.352697,99.7419,0.251963,
2,0,0,1,0,22866.8,0.249903,0.249589,-7.49535,12,0.0176566,10,-0.00187076,-2.12521,-0.179156,-0.329322,96.1023,0.249589,
2,0,0,1,0,22866.8,0.247506,0.247182,-7.71206,12,0.017611,10,-0.00190628,-2.11283,-0.201181,-0.293268,88.1194,0.247182,
2,0,0,1,0,22866.8,0.245109,0.244792,-7.91372,12,0.017564,10,-0.00193721,-2.10162,-0.214181,-0.275468,84.9829,0.244792,
2,0,0,1,0,22866.8,0.242701,0.242395,-8.11555,12,0.0175159,10,-0.00196717,-2.09068,-0.231491,-0.254869,80.6198,0.242395,
2,0,0,1,0,22866.9,0.240304,0.240029,-8.29742,12,0.0174666,10,-0.00199162,-2.08106,-0.256872,-0.229687,74.328,0.240029,
2,0,0,1,0,22866.9,0.237906,0.2376,-8.47873,12,0.0174163,10,-0.00201455,-2.07167,-0.272007,-0.216906,71.6593,0.2376,
2,0,0,1,0,22866.9,0.235501,0.235224,-8.64798,12,0.0173649,10,-0.00203421,-2.06309,-0.293821,-0.200802,67.7595,0.235224,
2,0,0,1,0,22866.9,0.233104,0.232785,-8.8107,12,0.0173125,10,-0.002051,-2.05499,-0.300067,-0.196622,67.5105,0.232785,
2,0,0,1,0,22866.9,0.230707,0.230371,-8.97101,12,0.0172591,10,-0.00206667,-2.04716,-0.31992,-0.184421,64.4744,0.230371,
2,0,0,1,0,22866.9,0.22831,0.227988,-9.10327,12,0.0172049,10,-0.00207543,-2.0408,-0.335541,-0.175836,62.5632,0.2279876,
2,0,0,1,0,22866.9,0.225902,0.225608,-9.26504,12,0.0171498,10,-0.00209027,-2.03315,-0.353371,-0.166963,60.3057,0.225608,
2,0,0,1,0,22866.9,0.223504,0.22322,-9.4068,12,0.0170937,10,-0.00209979,-2.02656,-0.377138,-0.156441,57.3501,0.22322,
2,0,0,1,0,22866.9,0.221107,0.220811,-9.52814,12,0.0170369,10,-0.00210392,-2.02099,-0.390075,-0.151253,56.305,0.220811,
2,0,0,1,0,22866.9,0.218699,0.218356,-9.68033,12,0.0169792,10,-0.00211376,-2.01411,-0.394808,-0.14944,56.3973,0.218356,
2,0,0,1,0,22866.9,0.216302,0.215996,-9.81542,12,0.0169207,10,-0.00212009,-2.00809,-0.430822,-0.136947,52.4171,0.215996,
2,0,0,1,0,22866.9,0.213905,0.213606,-9.94064,12,0.0168615,10,-0.00212339,-2.00259,-0.42298,-0.139486,54.1352,0.213606,
2,0,0,1,0,22866.9,0.211505,0.211198,-10.0648,12,0.0168015,10,-0.00212566,-1.9972,-0.452599,-0.130358,51.2144,0.211198,
2,0,0,1,0,22866.9,0.209102,0.208778,-10.1966,12,0.0167407,10,-0.00212883,-1.99154,-0.42256,-0.139625,55.5537,0.208778,
2,0,0,1,0,22866.9,0.206705,0.206392,-10.3365,12,0.0166791,10,-0.00213337,-1.98563,-0.462097,-0.127679,51.402,0.206392,
2,0,0,1,0,22866.9,0.204308,0.203976,-10.4443,12,0.0166167,10,-0.00213039,-1.98112,-0.453834,-0.130003,52.9966,0.203976,
2,0,0,1,0,22867,0.2019,0.201582,-10.5792,12,0.0165537,10,-0.00213258,-1.97555,-0.471611,-0.125103,51.6251,0.201582,
2,0,0,1,0,22867,0.199503,0.199171,-10.6975,12,0.0164898,10,-0.00213063,-1.97072,-0.479037,-0.123164,51.3751,0.199171,
2,0,0,1,0,22867,0.197106,0.196766,-10.8119,12,0.0164253,10,-0.00212742,-1.9661,-0.484323,-0.12182,51.4881,0.196766,
2,0,0,1,0,22867,0.194709,0.194365,-10.9288,12,0.01636,10,-0.00212418,-1.96143,-0.469747,-0.1256,53.6761,0.194365,
2,0,0,1,0,22867,0.192303,0.191988,-11.0805,12,0.0162939,10,-0.00212732,-1.95544,-0.481077,-0.122641,52.9763,0.191988,
2,0,0,1,0,22867,0.189906,0.189641,-11.1941,12,0.0162271,10,-0.00212287,-1.95101,-0.497775,-0.118527,51.8178,0.189641,
2,0,0,1,0,22867,0.187509,0.187209,-11.3213,12,0.0161595,10,-0.00211944,-1.94611,-0.484127,-0.121869,53.927,0.187209,
2,0,0,1,0,22867,0.185101,0.184795,-11.4687,12,0.0160911,10,-0.00211936,-1.94049,-0.454261,-0.129881,58.0786,0.184795,
2,0,0,1,0,22867,0.182704,0.18239,-11.6041,12,0.0160219,10,-0.00211648,-1.93539,-0.478763,-0.123234,55.7788,0.18239,
2,0,0,1,0,22867,0.180307,0.179987,-11.7388,12,0.0159519,10,-0.00211284,-1.93038,-0.453548,-0.130086,59.6239,0.179987,
2,0,0,1,0,22867,0.177904,0.177585,-11.8804,12,0.015881,10,-0.00210979,-1.92517,-0.425507,-0.138658,64.369,0.177585,
2,0,0,1,0,22867,0.175501,0.17523,-12.0453,12,0.0158093,10,-0.0021107,-1.91918,-0.416189,-0.141763,66.6057,0.17523,
2,0,0,1,0,22867,0.173104,0.172801,-12.1929,12,0.0157365,10,-0.00210694,-1.91389,-0.428504,-0.137688,65.5541,0.172801,
2,0,0,1,0,22867,0.170707,0.170386,-12.352,12,0.0156629,10,-0.00210461,-1.90826,-0.389306,-0.151552,73.1922,0.170386,
2,0,0,1,0,22867,0.168302,0.16795,-12.5521,12,0.0155882,10,-0.00210811,-1.90129,-0.374989,-0.157338,77.0028,0.16795,
2,0,0,1,0,22867,0.165905,0.165584,-12.734,12,0.0155123,10,-0.00210855,-1.89503,-0.370908,-0.159069,79.0735,0.165584,
2,0,0,1,0,22867,0.163507,0.163151,-12.92,12,0.0154353,10,-0.00210791,-1.88874,-0.344646,-0.17119,86.5139,0.163151,
2,0,0,1,0,22867.1,0.161099,0.160802,-13.1653,12,0.0153571,10,-0.002117,-1.88057,-0.309504,-0.190628,97.8389,0.160802,
2,0,0,1,0,22867.1,0.158702,0.15839,-13.3822,12,0.0152775,10,-0.00211961,-1.87347,-0.29625,-0.199156,104.084,0.15839,
2,0,0,1,0,22867.1,0.156305,0.15601,-13.6202,12,0.0151964,10,-0.00212489,-1.86582,-0.284292,-0.207533,110.637,0.15601,
2,0,0,1,0,22867.1,0.153908,0.153583,-13.9084,12,0.0151138,10,-0.0021361,-1.85672,-0.261704,-0.225446,122.565,0.153583,
2,0,0,1,0,22867.1,0.151503,0.151157,-14.2187,12,0.0150294,10,-0.00214926,-1.84714,-0.247469,-0.238414,132.454,0.151157,
2,0,0,1,0,22867.1,0.149105,0.148759,-14.5437,12,0.0149431,10,-0.00216351,-1.83733,-0.23308,-0.253132,143.893,0.148759,
2,0,0,1,0,22867.1,0.146708,0.146396,-14.9084,12,0.0148547,10,-0.00218253,-1.82657,-0.213345,-0.276547,161.255,0.146396,
2,0,0,1,0,22867.1,0.1443,0.144,-15.3241,12,0.014764,10,-0.00220668,-1.81462,-0.198274,-0.297568,178.211,0.144,
2,0,0,1,0,22867.1,0.141903,0.141574,-15.7658,12,0.0146707,10,-0.00223203,-1.80228,-0.187933,-0.313942,193.416,0.141574,
2,0,0,1,0,22867.1,0.139506,0.139191,-16.2395,12,0.0145746,10,-0.00226039,-1.78943,-0.175881,-0.335453,213.259,0.1391913,
2,0,0,1,0,22867.1,0.137109,0.136848,-16.7736,12,0.0144756,10,-0.00229543,-1.77537,-0.164948,-0.357687,234.824,0.136848,
2,0,0,1,0,22867.1,0.134701,0.134387,-17.3749,12,0.0143731,10,-0.00233495,-1.76008,-0.156405,-0.377226,255.992,0.1343866,
2,0,0,1,0,22867.1,0.132303,0.132022,-17.9944,12,0.0142669,10,-0.00237565,-1.74486,-0.151838,-0.388572,273.455,0.132022,
2,0,0,1,0,22867.1,0.129906,0.129571,-18.6889,12,0.0141569,10,-0.00242155,-1.72842,-0.147721,-0.399403,291.536,0.129571,
2,0,0,1,0,22867.1,0.127501,0.127225,-19.4115,12,0.0140425,10,-0.00246963,-1.71194,-0.146758,-0.402023,304.519,0.127225,
2,0,0,1,0,22867.1,0.125104,0.124812,-20.144,12,0.0139238,10,-0.00251422,-1.69585,-0.146988,-0.401392,315.791,0.124812,
2,0,0,1,0,22867.1,0.122707,0.122363,-20.9147,12,0.0138005,10,-0.00255917,-1.67955,-0.148522,-0.397246,324.334,0.122363,
2,0,0,1,0,22867.2,0.12031,0.120017,-21.7071,12,0.0136726,10,-0.00260522,-1.6634,-0.152006,-0.388142,328.646,0.120017,
2,0,0,1,0,22867.2,0.117901,0.117608,-22.5054,12,0.0135398,10,-0.00264681,-1.64771,-0.157358,-0.374941,329.073,0.117608,
2,0,0,1,0,22867.2,0.115504,0.115186,-23.3,12,0.0134024,10,-0.00268383,-1.63264,-0.163865,-0.360052,327.033,0.115186,
2,0,0,1,0,22867.2,0.113107,0.112786,-24.0824,12,0.0132601,10,-0.00271616,-1.6183,-0.175055,-0.337037,316.052,0.112786,
2,0,0,1,0,22867.2,0.110702,0.110456,-24.8324,12,0.0131133,10,-0.0027429,-1.60498,-0.181615,-0.324863,314.469,0.110456,
2,0,0,1,0,22867.2,0.108305,0.108062,-25.5682,12,0.0129621,10,-0.00276295,-1.5923,-0.187583,-0.314528,313.854,0.108062,
2,0,0,1,0,22867.2,0.105908,0.105649,-26.314,12,0.0128064,10,-0.00278004,-1.57981,-0.197595,-0.298591,306.345,0.105649,
2,0,0,1,0,22867.2,0.103505,0.10325,-27.0481,12,0.0126462,10,-0.00279271,-1.56786,-0.214332,-0.275274,289.961,0.10325,
2,0,0,1,0,22867.2,0.101102,0.100858,-27.7229,12,0.0124817,10,-0.00279607,-1.55716,-0.230361,-0.25612,276.794,0.100858,
2,0,0,1,0,22867.2,0.0987052,0.0984335,-28.3725,12,0.0123134,10,-0.00279281,-1.5471,-0.247701,-0.23819,263.461,0.0984335,
2,0,0,1,0,22867.2,0.0963081,0.0960455,-29.0004,12,0.0121412,10,-0.00278535,-1.5376,-0.266253,-0.221594,250.435,0.0960455,
2,0,0,1,0,22867.2,0.0938999,0.0936309,-29.5938,12,0.0119653,10,-0.00277089,-1.5288,-0.292271,-0.201867,232.743,0.0936309,
2,0,0,1,0,22867.2,0.0915028,0.091227,-30.1285,12,0.0117861,10,-0.00274853,-1.52102,-0.316953,-0.186147,218.587,0.091227,
2,0,0,1,0,22867.2,0.0891057,0.0888124,-30.6464,12,0.0116038,10,-0.00272178,-1.51362,-0.343504,-0.171759,205.137,0.0888124,
2,0,0,1,0,22867.2,0.0867002,0.0864488,-31.115,12,0.0114185,10,-0.00268985,-1.50703,-0.38342,-0.153878,186.613,0.0864488,
2,0,0,1,0,22867.2,0.0843031,0.0840109,-31.5436,12,0.0112304,10,-0.00265001,-1.50109,-0.420807,-0.140207,172.368,0.0840109,
2,0,0,1,0,22867.3,0.081906,0.0816409,-31.9343,12,0.0110399,10,-0.00260715,-1.49574,-0.471709,-0.125077,155.727,0.0816409,
2,0,0,1,0,22867.3,0.0795089,0.079185,-32.2888,12,0.0108472,10,-0.00255679,-1.49095,-0.545861,-0.108086,136.014,0.079185,
2,0,0,1,0,22867.3,0.0771007,0.0767949,-32.5992,12,0.0106524,10,-0.00250345,-1.48679,-0.664535,-0.0887839,112.758,0.0767949,
2,0,0,1,0,22867.3,0.0747036,0.0744036,-32.8305,12,0.0104561,10,-0.00244271,-1.48372,-0.82841,-0.0712208,91.1768,0.0744036,
2,0,0,1,0,22867.3,0.0723065,0.0719817,-33.041,12,0.0102585,10,-0.00237835,-1.48095,-1.03222,-0.0571585,73.5817,0.0719817,
2,0,0,1,0,22867.3,0.0699011,0.069583,-33.1898,12,0.0100597,10,-0.00230944,-1.479,-1.47242,-0.0400701,51.8252,0.069583,
2,0,0,1,0,22867.3,0.067504,0.0672024,-33.2793,12,0.00986031,10,-0.00223645,-1.47783,-2.26025,-0.0261033,33.8793,0.0672024,
2,0,0,1,0,22867.3,0.0651069,0.0647656,-33.3548,12,0.00966039,10,-0.00216024,-1.47684,-3.84865,-0.0153301,19.9337,0.0647656,
2,0,0,1,0,22867.3,0.0627098,0.0624157,-33.3709,12,0.00946019,10,-0.00208287,-1.47663,-32.7472,-0.00180168,2.34428,0.0624157,
2,0,0,1,0,22867.3,0.0603016,0.0599726,-33.3607,12,0.00925996,10,-0.00200073,-1.47676,6.74806,0.00874325,-11.3749,0.0599726,
2,0,0,1,0,22867.3,0.0579045,0.0576047,-33.3196,12,0.00905991,10,-0.00191937,-1.4773,3.44952,0.0171038,-22.2259,0.0576047,
2,0,0,1,0,22867.3,0.0555074,0.055152,-33.2464,12,0.00886022,10,-0.00183361,-1.47825,2.48783,0.0237155,-30.7627,0.055152,
2,0,0,1,0,22867.3,0.0530992,0.0527851,-33.1734,12,0.00866097,10,-0.00175106,-1.47921,1.98936,0.0296577,-38.362,0.0527851,
2,0,0,1,0,22867.3,0.0507021,0.0503982,-33.0576,12,0.00846227,10,-0.00166604,-1.48073,1.68534,0.0350077,-45.1535,0.0503982,
2,0,0,1,0,22867.3,0.048305,0.0479709,-32.9531,12,0.00826428,10,-0.00158079,-1.4821,1.56692,0.0376534,-48.4176,0.0479709,
2,0,0,1,0,22867.3,0.0459051,0.045638,-32.8226,12,0.00806696,10,-0.00149796,-1.48383,1.41891,0.0415812,-53.2458,0.045638,
2,0,0,1,0,22867.3,0.0435024,0.0432107,-32.6957,12,0.00787036,10,-0.0014128,-1.48551,1.35749,0.0434625,-55.4601,0.0432107,
2,0,0,1,0,22867.4,0.0411053,0.0407485,-32.5631,12,0.00767463,10,-0.0013269,-1.48727,1.31538,0.044854,-57.0056,0.0407485,
2,0,0,1,0,22867.4,0.0387082,0.0383944,-32.4297,12,0.00747966,10,-0.00124512,-1.48906,1.32437,0.0445494,-56.3706,0.0383944,
2,0,0,1,0,22867.4,0.0363,0.0359597,-32.2861,12,0.00728553,10,-0.001161,-1.49098,1.28974,0.0457458,-57.647,0.0359597,
2,0,0,1,0,22867.4,0.0339029,0.0335769,-32.1532,12,0.00709226,10,-0.00107961,-1.49278,1.25832,0.0468881,-58.8079,0.0335769,
2,0,0,1,0,22867.4,0.0315058,0.031173,-32.0114,12,0.00689979,10,-0.00099789,-1.4947,1.26072,0.0467985,-58.4446,0.031173,
2,0,0,1,0,22867.4,0.0291087,0.0288051,-31.842,12,0.00670825,10,-0.000917211,-1.497,1.17892,0.0500457,-62.2196,0.0288051,
2,0,0,1,0,22867.4,0.0267033,0.0264043,-31.7064,12,0.00651757,10,-0.000837187,-1.49885,1.12487,0.0524505,-64.8896,0.0264043,
2,0,0,1,0,22867.4,0.0243062,0.0239866,-31.5449,12,0.0063278,10,-0.000756657,-1.50107,1.06222,0.0555441,-68.3713,0.0239866,
2,0,0,1,0,22867.4,0.0219091,0.0216028,-31.3811,12,0.00613901,10,-0.00067792,-1.50333,1.03436,0.05704,-69.8701,0.0216028,
2,0,0,1,0,22867.4,0.0195009,0.0191787,-31.2233,12,0.00595122,10,-0.000598823,-1.50552,1.00585,0.0586568,-71.4565,0.0191787,
2,0,0,1,0,22867.4,0.0171038,0.0167684,-31.0452,12,0.00576446,10,-0.00052058,-1.508,0.941853,0.0626425,-75.882,0.0167684,
2,0,0,1,0,22867.4,0.0147067,0.0143698,-30.8673,12,0.00557875,10,-0.000443556,-1.5105,0.927491,0.0636125,-76.5644,0.01436979,
2,0,0,1,0,22867.4,0.012304,0.0119743,-30.6681,12,0.00539419,10,-0.00036723,-1.51331,0.848425,0.0695406,-83.1952,0.0119743,
2,0,0,1,0,22867.4,0.00990136,0.00957675,-30.4574,12,0.00521086,10,-0.000291683,-1.51631,0.785419,0.0751191,-89.254,0.00957675,
2,0,0,1,0,22867.4,0.00750426,0.00717811,-30.2402,12,0.00502879,10,-0.000217068,-1.51941,0.738716,0.0798683,-94.1851,0.00717811,
2,0,0,1,0,22867.4,0.00510715,0.00479644,-29.9892,12,0.00484809,10,-0.000143841,-1.52304,0.769498,0.0766734,-89.8409,0.00479644,
2,0,0,1,0,22867.4,0.00270173,0.00238083,-29.7492,12,0.00466887,10,-7.08278e-05,-1.52653,0.689956,0.0855127,-99.3406,0.002380834,
2,0,0,1,0,22867.5,0.000304623,-5.38594e-05,-29.5471,12,0.00449085,10,1.59139e-06,-1.52949,0.634696,0.0929579,-107,-5.38594e-05,
2,0,0,1,0,22867.5,-0.00209248,-0.00246204,-29.2568,12,0.00431448,10,7.20314e-05,-1.53377,0.573258,0.102921,-117.516,-0.00246204,
2,0,0,1,0,22867.5,-0.00450068,-0.00489568,-28.9765,12,0.00413986,10,0.000141859,-1.53795,0.560479,0.105267,-118.975,-0.00489568,
2,0,0,1,0,22867.5,-0.00689779,-0.00727523,-28.6879,12,0.0039669,10,0.000208711,-1.5423,0.545339,0.10819,-121.034,-0.00727523,
2,0,0,1,0,22867.5,-0.00929489,-0.009641,-28.3759,12,0.00379576,10,0.000273572,-1.54705,0.524199,0.112553,-124.667,-0.009641,
2,0,0,1,0,22867.5,-0.011692,-0.0120502,-28.0803,12,0.00362644,10,0.000338375,-1.5516,0.523183,0.112771,-123.582,-0.0120502,
2,0,0,1,0,22867.5,-0.0140974,-0.0144743,-27.7813,12,0.00345886,10,0.000402116,-1.55625,0.53408,0.11047,-119.791,-0.0144743,
2,0,0,1,0,22867.5,-0.0164945,-0.0168783,-27.5004,12,0.00329307,10,0.000464159,-1.56066,0.521738,0.113084,-121.344,-0.0168783,
2,0,0,1,0,22867.5,-0.0188916,-0.0192716,-27.2046,12,0.00312898,10,0.000524276,-1.56536,0.534424,0.110399,-117.252,-0.0192716,
2,0,0,1,0,22867.5,-0.0212998,-0.0216448,-26.9291,12,0.00296662,10,0.000582876,-1.56978,0.567321,0.103998,-109.39,-0.0216448,
2,0,0,1,0,22867.5,-0.0236969,-0.0240784,-26.687,12,0.00280581,10,0.000642581,-1.5737,0.588189,0.100308,-104.451,-0.0240784,
2,0,0,1,0,22867.5,-0.026094,-0.0264686,-26.442,12,0.00264644,10,0.000699883,-1.57771,0.629313,0.0937531,-96.7968,-0.0264686,
2,0,0,1,0,22867.5,-0.0284912,-0.0288269,-26.1975,12,0.00248859,10,0.000755195,-1.58174,0.675057,0.0874,-89.4916,-0.0288269,
2,0,0,1,0,22867.5,-0.0308994,-0.0312754,-26.0119,12,0.00233197,10,0.000813534,-1.58483,0.756377,0.0780035,-79.1913,-0.0312754,
2,0,0,1,0,22867.5,-0.0332965,-0.0336783,-25.8129,12,0.00217651,10,0.000869334,-1.58816,0.780292,0.0756127,-76.2262,-0.0336783,
2,0,0,1,0,22867.5,-0.0356936,-0.0360441,-25.634,12,0.00202218,10,0.000923953,-1.59118,0.909122,0.0648978,-65.024,-0.0360441,
2,0,0,1,0,22867.6,-0.038099,-0.0384618,-25.5093,12,0.00186878,10,0.000981132,-1.5933,1.01702,0.0580125,-57.754,-0.0384618,
2,0,0,1,0,22867.6,-0.0404961,-0.0408859,-25.3639,12,0.00171616,10,0.00103703,-1.59578,1.08766,0.0542451,-53.734,-0.0408859,
2,0,0,1,0,22867.6,-0.0428932,-0.0432241,-25.2463,12,0.00156433,10,0.00109125,-1.5978,1.31696,0.0448001,-44.1769,-0.0432241,
2,0,0,1,0,22867.6,-0.0452903,-0.0456408,-25.1478,12,0.00141317,10,0.00114776,-1.5995,1.6178,0.0364694,-35.8311,-0.0456408,
2,0,0,1,0,22867.6,-0.0476985,-0.0480436,-25.08,12,0.00126249,10,0.00120493,-1.60067,2.0282,0.0290899,-28.4783,-0.0480436,
2,0,0,1,0,22867.6,-0.0500956,-0.0505038,-25.0256,12,0.00111219,10,0.00126389,-1.60162,2.22021,0.0265741,-25.9496,-0.0505038,
2,0,0,1,0,22867.6,-0.0524927,-0.0528674,-24.9585,12,0.000962296,10,0.00131949,-1.60278,3.56246,0.0165616,-16.1499,-0.0528674,
2,0,0,1,0,22867.6,-0.0548981,-0.0552724,-24.9418,12,0.000812642,10,0.0013786,-1.60307,6.5279,0.00903812,-8.79675,-0.0552724,
2,0,0,1,0,22867.6,-0.0572953,-0.0576764,-24.9258,12,0.000663055,10,0.00143763,-1.60335,9.10543,0.00647965,-6.30157,-0.0576764,
2,0,0,1,0,22867.6,-0.0596924,-0.0600464,-24.8965,12,0.000513615,10,0.00149495,-1.60386,-37.1285,-0.00158908,1.54608,-0.0600464,
2,0,0,1,0,22867.6,-0.062095,-0.0624599,-24.9224,12,0.000364199,10,0.00155665,-1.60341,-8.41987,-0.00700724,6.81526,-0.0624599,
2,0,0,1,0,22867.6,-0.0644977,-0.0648744,-24.9439,12,0.000214585,10,0.00161822,-1.60304,-4.80973,-0.0122668,11.9375,-0.0648744,
2,0,0,1,0,22867.6,-0.0668948,-0.0672094,-24.9558,12,6.48856e-05,10,0.00167727,-1.60283,-4.60793,-0.012804,12.4812,-0.06720943,
2,0,0,1,0,22867.6,-0.0692919,-0.069659,-25.0022,12,-8.49941e-05,10,0.00174163,-1.60202,-2.93188,-0.0201236,19.6465,-0.06965898,
2,0,0,1,0,22867.6,-0.0717001,-0.0720714,-25.0592,12,-0.000235207,10,0.00180605,-1.60103,-2.40541,-0.0245281,23.9897,-0.0720714,
2,0,0,1,0,22867.6,-0.0740972,-0.0744647,-25.1238,12,-0.000385769,10,0.00187084,-1.59991,-2.29253,-0.0257358,25.2481,-0.0744647,
2,0,0,1,0,22867.6,-0.0764943,-0.0768581,-25.1916,12,-0.000536694,10,0.00193618,-1.59874,-1.8643,-0.0316473,31.1361,-0.0768581,
2,0,0,1,0,22867.7,-0.0788997,-0.0792673,-25.2818,12,-0.000688073,10,0.00200402,-1.59719,-1.65132,-0.035729,35.2508,-0.0792673,
2,0,0,1,0,22867.7,-0.0812968,-0.081649,-25.3718,12,-0.00084002,10,0.00207158,-1.59565,-1.53132,-0.0385288,38.1259,-0.081649,
2,0,0,1,0,22867.7,-0.0836939,-0.0840816,-25.4567,12,-0.000992497,10,0.00214044,-1.5942,-1.33191,-0.0442974,44.0347,-0.0840816,
2,0,0,1,0,22867.7,-0.086091,-0.0864484,-25.5601,12,-0.00114553,10,0.00220963,-1.59244,-1.19682,-0.0492975,49.2199,-0.0864484,
2,0,0,1,0,22867.7,-0.0884992,-0.0888873,-25.7012,12,-0.00129936,10,0.00228451,-1.59005,-1.14441,-0.051555,51.684,-0.0888873,
2,0,0,1,0,22867.7,-0.0908963,-0.0912573,-25.8045,12,-0.00145391,10,0.00235485,-1.5883,-1.16871,-0.0504829,50.8861,-0.0912573,
2,0,0,1,0,22867.7,-0.0932934,-0.0936274,-25.9377,12,-0.00160917,10,0.00242848,-1.58607,-1.03491,-0.0570098,57.7655,-0.0936274,
2,0,0,1,0,22867.7,-0.0956989,-0.0960461,-26.1077,12,-0.0017653,10,0.00250755,-1.58323,-0.982472,-0.0600526,61.1558,-0.0960461,
2,0,0,1,0,22867.7,-0.098096,-0.0984151,-26.2405,12,-0.00192234,10,0.00258246,-1.58103,-1.16504,-0.0506421,51.742,-0.0984151,
2,0,0,0,0,22867.7,-0.0999548,-0.100362,-26.3516,12,-0.00204595,10,0.0026447,-1.57919,0.0247854,2.38044,-2278.18,-0.100362,
2,0,0,1,1,22867.7,-0.0994555,-0.099923,-24.7918,12,-0.00208907,10,0.00247728,-1.60569,-0.0223366,-2.6414,2295.02,-0.099923,
2,0,0,1,1,22867.7,-0.0970583,-0.0974416,-19.9249,12,-0.00222181,10,0.00194152,-1.7006,-0.0257916,-2.28756,1804.44,-0.0974416,
2,0,0,1,1,22867.7,-0.0946501,-0.0950388,-16.2759,12,-0.00232974,10,0.00154684,-1.78846,-0.0268686,-2.19588,1405.85,-0.0950388,
2,0,0,1,1,22867.7,-0.0922531,-0.0926274,-13.2159,12,-0.00241771,10,0.00122416,-1.8789,-0.025501,-2.31364,1194.06,-0.0926274,
2,0,0,1,1,22867.7,-0.0898559,-0.09025,-10.5777,12,-0.00248864,10,0.000954637,-1.97561,-0.0229686,-2.56873,1050.02,-0.09025,
2,0,0,1,1,22867.7,-0.0874588,-0.0878248,-8.2165,12,-0.00254468,10,0.000721613,-2.08531,-0.0195625,-3.01598,947.456,-0.0878248,
2,0,0,1,1,22867.7,-0.0850534,-0.0854368,-6.08788,12,-0.00258724,10,0.000520129,-2.21553,-0.0159988,-3.68777,844.146,-0.0854368,
2,0,0,1,1,22867.7,-0.0826563,-0.083107,-4.16887,12,-0.00261772,10,0.000346462,-2.37998,-0.0115123,-5.12497,762.092,-0.083107,
2,0,0,1,1,22867.8,-0.0802592,-0.0806787,-2.42674,12,-0.00263724,10,0.000195786,-2.61498,-0.00528244,-11.1691,706.865,-0.0806787,
2,0,0,1,1,22867.8,-0.077851,-0.0782345,-0.793588,12,-0.0026467,10,6.20859e-05,-3.10041,-0.0154158,-3.82724,648.23,-0.0782345,
2,1,0,1,1,22867.8,-0.0754539,-0.0758507,0.677908,12,-0.00264688,10,-5.14198e-05,-3.16883,0.0237868,2.48037,593.581,-0.0758507,
2,1,0,1,1,22867.8,-0.0730568,-0.0734658,2.04661,12,-0.00263851,10,-0.000150356,-2.68896,0.00496453,11.8843,552.985,-0.0734658,
2,1,0,1,1,22867.8,-0.0706597,-0.0711022,3.29316,12,-0.0026223,10,-0.000234151,-2.48239,0.0131999,4.46971,511.98,-0.0711022,
2,1,0,1,1,22867.8,-0.0682542,-0.0686961,4.48873,12,-0.00259875,10,-0.000308358,-2.34788,0.020484,2.88029,475.769,-0.0686961,
2,1,0,1,1,22867.8,-0.0658571,-0.0663091,5.58016,12,-0.00256838,10,-0.000370016,-2.25335,0.0281995,2.09223,440.013,-0.0663091,
2,1,0,1,1,22867.8,-0.06346,-0.0639094,6.59092,12,-0.00253174,10,-0.000421222,-2.18105,0.0358051,1.64781,416.226,-0.0639094,
2,1,0,1,1,22867.8,-0.0610518,-0.0614716,7.5808,12,-0.0024891,10,-0.000466003,-2.12029,0.0443297,1.33094,385.936,-0.06147157,
2,1,0,1,1,22867.8,-0.0586547,-0.0590432,8.47753,12,-0.0024408,10,-0.000500541,-2.07173,0.0541331,1.08991,355.553,-0.05904324,
2,1,0,1,1,22867.8,-0.0562576,-0.0566807,9.29437,12,-0.00238741,10,-0.000526811,-2.03178,0.0630382,0.935941,336.849,-0.0566807,
2,1,0,1,1,22867.8,-0.053855,-0.0542057,10.0799,12,-0.00232918,10,-0.00054639,-1.99654,0.0730291,0.807898,315.365,-0.0542057,
2,1,0,1,1,22867.8,-0.0514523,-0.0518717,10.8142,12,-0.00226634,10,-0.000560953,-1.966,0.0845899,0.697483,292.423,-0.0518717,
2,1,0,1,1,22867.8,-0.0490552,-0.0494784,11.4924,12,-0.00219933,10,-0.000568625,-1.93959,0.0965651,0.610987,272.789,-0.0494784,
2,1,0,1,1,22867.8,-0.0466581,-0.0469907,12.1227,12,-0.00212837,10,-0.000569652,-1.9164,0.108536,0.5436,256.125,-0.0469907,
2,1,0,1,1,22867.8,-0.0442527,-0.044644,12.7266,12,-0.00205372,10,-0.000568168,-1.89529,0.123666,0.477093,235.846,-0.044644,
2,1,0,1,1,22867.9,-0.0418556,-0.0422506,13.2701,12,-0.00197565,10,-0.000560672,-1.87712,0.140033,0.421329,217.335,-0.0422506,
2,1,0,1,1,22867.9,-0.0394585,-0.0398425,13.7762,12,-0.00189445,10,-0.000548876,-1.86087,0.153333,0.384782,206.423,-0.0398425,
2,1,0,1,1,22867.9,-0.0370558,-0.0374427,14.2538,12,-0.00181033,10,-0.0005337,-1.84607,0.170833,0.345366,191.636,-0.0374427,
2,1,0,1,1,22867.9,-0.0346532,-0.0350165,14.7154,12,-0.00172334,10,-0.000515283,-1.83223,0.189715,0.310993,177.882,-0.0350165,
2,1,0,1,1,22867.9,-0.0322561,-0.0326518,15.1031,12,-0.00163382,10,-0.000493144,-1.82093,0.212865,0.27717,163.212,-0.03265183,
2,1,0,1,1,22867.9,-0.0298589,-0.0302564,15.4889,12,-0.001542,10,-0.000468638,-1.80998,0.230719,0.255722,154.422,-0.03025637,
2,1,0,1,1,22867.9,-0.0274535,-0.0278397,15.8589,12,-0.00144789,10,-0.000441507,-1.79973,0.255106,0.231276,142.765,-0.0278397,
2,1,0,1,1,22867.9,-0.0250564,-0.0254442,16.1725,12,-0.00135175,10,-0.000411497,-1.79122,0.286023,0.206277,130.071,-0.0254442,
2,1,0,1,1,22867.9,-0.0226593,-0.0229915,16.4776,12,-0.00125375,10,-0.000378844,-1.78311,0.308378,0.191323,122.878,-0.0229915,
2,1,0,1,1,22867.9,-0.0202511,-0.0206258,16.7777,12,-0.00115397,10,-0.000346053,-1.77527,0.339177,0.173951,113.609,-0.0206258,
2,1,0,1,1,22867.9,-0.017854,-0.018225,17.0201,12,-0.00105256,10,-0.000310191,-1.76904,0.380895,0.154898,102.74,-0.018225,
2,1,0,1,1,22867.9,-0.0154569,-0.0158168,17.2515,12,-0.000949701,10,-0.000272864,-1.76317,0.415478,0.142005,95.5504,-0.0158168,
2,1,0,1,1,22867.9,-0.0130598,-0.0134744,17.4629,12,-0.000845502,10,-0.000235302,-1.75788,0.451972,0.130539,88.9716,-0.0134744,
2,1,0,1,1,22867.9,-0.0106516,-0.011046,17.6913,12,-0.000740002,10,-0.000195419,-1.75224,0.501379,0.117675,81.0986,-0.011046,
2,1,0,1,1,22867.9,-0.00825448,-0.00858695,17.8647,12,-0.000633324,10,-0.000153403,-1.748,0.563715,0.104663,72.9136,-0.00858695,
2,1,0,1,1,22867.9,-0.00585738,-0.00624558,18.0273,12,-0.000525669,10,-0.000112591,-1.74407,0.596292,0.0989448,69.6006,-0.00624558,
2,1,0,1,1,22867.9,-0.00345195,-0.00379179,18.1965,12,-0.000416981,10,-6.89975e-05,-1.74001,0.65536,0.0900269,63.7928,-0.00379179,
2,1,0,1,1,22868,-0.00105485,-0.0014186,18.3283,12,-0.000307382,10,-2.60006e-05,-1.73688, , , ,-0.0014186,
2,1,0,0,1,22868,-7.54729e-05,-0.000363498,18.3672,12,-0.000261513,10,-6.67643e-06,-1.73596, , , ,-0.000363498,