File: Figure_codes/Fig_3-5/rawdata_trumpetplot_data/after 10th/20221101_1-115_003_TrumpetPlot_ParaChange_from10_every3_05_CV_C01_33.csv
mode,ox/red,error,control changes,counter inc.,time/s,control/V,Ewe/V,<I>/mA,cycle number,(Q-Qo)/C,I Range,P/W,log(|I|),Tafel slope mV/dec,alpha_eff,dI/d(E-IR),E-IR/V,
2,0,0,1,0,66134.3,2.44065e-05,-0.00042076,-0.736062,34,0.0000000E+000,10,3.09706e-07,-3.13309, , , ,-0.00042076,
2,0,0,1,0,66134.4,0.00129787,0.000890944,-0.0404786,34,-1.87109e-05,10,-3.60642e-08,-4.39277, , , ,0.000890944,
2,1,0,1,0,66134.5,0.00279606,0.00247216,0.309511,34,-5.92852e-06,10,7.65161e-07,-3.50932,0.0118777,4.9673,181.579,0.00247216,
2,1,0,1,0,66134.5,0.00429425,0.00396096,0.468371,34,2.48997e-05,10,1.8552e-06,-3.32941,0.00951078,6.20349,91.0963,0.00396096,
2,1,0,1,0,66134.6,0.00579244,0.00547935,0.562078,34,6.49748e-05,10,3.07982e-06,-3.2502,0.021766,2.71065,55.9284,0.00547935,
2,1,0,1,0,66134.7,0.00729063,0.00692566,0.630489,34,0.000110868,10,4.36656e-06,-3.20032,0.0361119,1.63381,38.9531,0.00692566,
2,1,0,1,0,66134.8,0.00878882,0.00844751,0.679168,34,0.000161102,10,5.73728e-06,-3.16802,0.0520362,1.13383,29.523,0.00844751,
2,1,0,1,0,66134.8,0.010287,0.00995624,0.715184,34,0.000214552,10,7.12055e-06,-3.14558,0.0737439,0.800066,22.1193,0.00995624,
2,1,0,1,0,66134.9,0.0117852,0.0114345,0.745819,34,0.000270508,10,8.52807e-06,-3.12737,0.0886838,0.665285,19.3078,0.0114345,
2,1,0,1,0,66135,0.0132847,0.0129759,0.774262,34,0.000328606,10,1.00467e-05,-3.11111,0.0961239,0.613791,18.5087,0.0129759,
2,1,0,1,0,66135.1,0.0147802,0.0144472,0.796286,34,0.000388597,10,1.15041e-05,-3.09893,0.112732,0.523365,16.2812,0.0144472,
2,1,0,1,0,66135.1,0.0162798,0.0159913,0.823092,34,0.000450615,10,1.31623e-05,-3.08455,0.134522,0.438589,14.0084,0.0159913,
2,1,0,1,0,66135.2,0.017778,0.0174695,0.840636,34,0.000514076,10,1.46855e-05,-3.07539,0.160994,0.366473,12.0039,0.0174695,
2,1,0,1,0,66135.3,0.0192761,0.0189546,0.858678,34,0.000578788,10,1.62759e-05,-3.06617,0.157095,0.375569,12.5961,0.0189546,
2,1,0,1,0,66135.4,0.0207743,0.020426,0.877534,34,0.000645009,10,1.79245e-05,-3.05674,0.151618,0.389137,13.3165,0.02042597,
2,1,0,1,0,66135.4,0.0222725,0.0219666,0.897965,34,0.000712731,10,1.97253e-05,-3.04674,0.177586,0.332234,11.6299,0.0219666,
2,1,0,1,0,66135.5,0.0237707,0.0234493,0.91584,34,0.000781765,10,2.14758e-05,-3.03818,0.189872,0.310735,11.1013,0.0234493,
2,1,0,1,0,66135.6,0.0252689,0.0249311,0.929511,34,0.00085195,10,2.31737e-05,-3.03175,0.185322,0.318365,11.5871,0.0249311,
2,1,0,1,0,66135.7,0.0267671,0.0264615,0.948579,34,0.000923467,10,2.51009e-05,-3.02293,0.179884,0.327989,12.139,0.02646153,
2,1,0,1,0,66135.7,0.0282653,0.0279514,0.968889,34,0.000996361,10,2.70818e-05,-3.01373,0.174057,0.338969,12.8135,0.0279514,
2,1,0,1,0,66135.8,0.0297644,0.0294742,0.986276,34,0.00107072,10,2.90697e-05,-3.006,0.203877,0.289391,11.102,0.0294742,
2,1,0,1,0,66135.9,0.0312599,0.0309255,0.997631,34,0.00114615,10,3.08522e-05,-3.00103,0.20004,0.294941,11.5163,0.0309255,
2,1,0,1,0,66136,0.0327599,0.0324477,1.01727,34,0.00122298,10,3.3008e-05,-2.99256,0.203766,0.289548,11.5146,0.0324477,
2,1,0,1,0,66136,0.034258,0.0339595,1.03713,34,0.00130109,10,3.52203e-05,-2.98417,0.201051,0.293458,11.8813,0.0339595,
2,1,0,1,0,66136.1,0.0357562,0.0354699,1.0516,34,0.00138049,10,3.73002e-05,-2.97815,0.240124,0.245706,10.1018,0.0354699,
2,1,0,1,0,66136.2,0.0372544,0.0369172,1.06993,34,0.00146118,10,3.94987e-05,-2.97065,0.22268,0.264954,11.0705,0.0369172,
2,1,0,1,0,66136.3,0.0387526,0.0384463,1.08816,34,0.00154303,10,4.18356e-05,-2.96331,0.210404,0.280413,11.9195,0.0384463,
2,1,0,1,0,66136.3,0.0402508,0.0399036,1.10673,34,0.00162627,10,4.41625e-05,-2.95596,0.216072,0.273058,11.7876,0.0399036,
2,1,0,1,0,66136.4,0.041749,0.0414343,1.12442,34,0.001711,10,4.65895e-05,-2.94907,0.234107,0.252022,11.0438,0.0414343,
2,1,0,1,0,66136.5,0.0432472,0.0429297,1.14094,34,0.00179697,10,4.89801e-05,-2.94274,0.23255,0.253709,11.2926,0.0429297,
2,1,0,1,0,66136.6,0.0447449,0.04442,1.15779,34,0.00188406,10,5.1429e-05,-2.93637,0.236881,0.24907,11.246,0.04442003,
2,1,0,1,0,66136.6,0.0462445,0.0458935,1.17546,34,0.00197262,10,5.3946e-05,-2.92979,0.21349,0.276359,12.658,0.0458935,
2,1,0,1,0,66136.7,0.04774,0.0474068,1.1918,34,0.00206221,10,5.64993e-05,-2.9238,0.240687,0.245132,11.4001,0.04740677,
2,1,0,1,0,66136.8,0.0492399,0.0489246,1.20765,34,0.00215332,10,5.9084e-05,-2.91806,0.274843,0.214668,10.114,0.0489246,
2,1,0,1,0,66136.9,0.0507381,0.0504268,1.2209,34,0.00224548,10,6.15662e-05,-2.91332,0.26753,0.220536,10.5267,0.0504268,
2,1,0,1,0,66136.9,0.0522363,0.0519251,1.23771,34,0.00233877,10,6.4268e-05,-2.90738,0.237638,0.248277,12.0235,0.0519251,
2,1,0,1,0,66137,0.0537345,0.0534447,1.25793,34,0.00243339,10,6.72297e-05,-2.90034,0.256493,0.230026,11.2744,0.0534447,
2,1,0,1,0,66137.1,0.0552327,0.0549296,1.27204,34,0.00252934,10,6.98726e-05,-2.8955,0.309444,0.190665,9.44232,0.0549296,
2,1,0,1,0,66137.2,0.0567309,0.05638,1.28478,34,0.00262632,10,7.24356e-05,-2.89117,0.321122,0.183731,9.22791,0.05637997,
2,1,0,1,0,66137.2,0.0582291,0.057891,1.3032,34,0.00272423,10,7.54435e-05,-2.88499,0.294132,0.20059,10.1866,0.057891,
2,1,0,1,0,66137.3,0.0597291,0.0594034,1.31758,34,0.00282349,10,7.8269e-05,-2.88022,0.311399,0.189468,9.72746,0.0594034,
2,1,0,1,0,66137.4,0.0612246,0.0608804,1.32962,34,0.00292358,10,8.09475e-05,-2.87627,0.37305,0.158156,8.20101,0.0608804,
2,1,0,1,0,66137.5,0.0627241,0.0624222,1.34395,34,0.00302496,10,8.38922e-05,-2.87162,0.335477,0.175869,9.22643,0.06242219,
2,1,0,1,0,66137.5,0.0642218,0.063876,1.35579,34,0.00312706,10,8.66025e-05,-2.86781,0.322832,0.182758,9.68461,0.063876,
2,1,0,1,0,66137.6,0.06572,0.0653861,1.36972,34,0.00323029,10,8.95608e-05,-2.86337,0.326047,0.180955,9.68041,0.0653861,
2,1,0,1,0,66137.7,0.0672182,0.0668865,1.38558,34,0.00333467,10,9.26763e-05,-2.85837,0.360405,0.163705,8.82804,0.0668865,
2,1,0,1,0,66137.8,0.0687164,0.0684016,1.3979,34,0.00344002,10,9.56189e-05,-2.85452,0.400806,0.147204,8.01527,0.0684016,
2,1,0,1,0,66137.8,0.0702146,0.0699191,1.4065,34,0.00354602,10,9.83413e-05,-2.85186,0.437973,0.134711,7.40128,0.0699191,
2,1,0,1,0,66137.9,0.0717128,0.071353,1.4168,34,0.00365289,10,0.000101093,-2.84869,0.391843,0.150571,8.32947,0.071353,
2,1,0,1,0,66138,0.073211,0.0728496,1.42822,34,0.00376064,10,0.000104045,-2.84521,0.476143,0.123912,6.91409,0.0728496,
2,1,0,1,0,66138.1,0.0747092,0.0743612,1.44131,34,0.00386923,10,0.000107178,-2.84124,0.483422,0.122047,6.85243,0.0743612,
2,1,0,1,0,66138.1,0.0762087,0.0758989,1.44653,34,0.00397865,10,0.00010979,-2.83967,0.538763,0.10951,6.19971,0.0758989,
2,1,0,1,0,66138.2,0.0777042,0.0774021,1.45955,34,0.00408849,10,0.000112972,-2.83578,0.465645,0.126706,7.21513,0.0774021,
2,1,0,1,0,66138.3,0.0792037,0.078885,1.47056,34,0.00419946,10,0.000116005,-2.83252,0.506466,0.116493,6.675,0.078885,
2,1,0,1,0,66138.4,0.0807019,0.0803908,1.48055,34,0.00431108,10,0.000119023,-2.82958,0.635899,0.0927821,5.34583,0.0803908,
2,1,0,1,0,66138.4,0.0822001,0.0818847,1.48508,34,0.00442328,10,0.000121605,-2.82825,0.620343,0.0951087,5.52542,0.0818847,
2,1,0,1,0,66138.5,0.0836983,0.0833715,1.49491,34,0.00453602,10,0.000124632,-2.82539,0.497744,0.118535,6.93454,0.08337146,
2,1,0,1,0,66138.6,0.0851965,0.0848965,1.50714,34,0.00464961,10,0.000127951,-2.82185,0.489513,0.120528,7.08869,0.0848965,
2,1,0,1,0,66138.7,0.0866947,0.0863711,1.51765,34,0.00476404,10,0.000131081,-2.81883,0.578379,0.102009,6.04345,0.0863711,
2,1,0,1,0,66138.7,0.0881929,0.0878757,1.52837,34,0.00487924,10,0.000134306,-2.81577,0.512242,0.11518,6.87659,0.0878757,
2,1,0,1,0,66138.8,0.0896911,0.0894021,1.53805,34,0.00499511,10,0.000137505,-2.81303,0.436933,0.135032,8.1205,0.0894021,
2,1,0,1,0,66138.9,0.0911893,0.0908484,1.55284,34,0.00511196,10,0.000141073,-2.80887,0.368706,0.160019,9.6979,0.0908484,
2,1,0,1,0,66139,0.0926884,0.0923842,1.56727,34,0.00523009,10,0.000144791,-2.80486,0.372449,0.158411,9.7085,0.0923842,
2,1,0,1,0,66139,0.0941839,0.0938556,1.58327,34,0.00534905,10,0.000148599,-2.80044,0.364142,0.162025,10.0172,0.09385559,
2,1,0,1,0,66139.1,0.0956838,0.0953618,1.59629,34,0.00546942,10,0.000152225,-2.79689,0.318375,0.185316,11.5836,0.0953618,
2,1,0,1,0,66139.2,0.097182,0.096876,1.61646,34,0.00559105,10,0.000156596,-2.79143,0.251674,0.234431,14.8168,0.096876,
2,1,0,1,0,66139.3,0.0986802,0.0983693,1.64147,34,0.00571433,10,0.00016147,-2.78477,0.240156,0.245674,15.7604,0.0983693,
2,1,0,1,0,66139.3,0.100178,0.0998322,1.66523,34,0.00583932,10,0.000166243,-2.77853,0.242714,0.243085,15.8031,0.09983217,
2,1,0,1,0,66139.4,0.101677,0.101381,1.68614,34,0.00596607,10,0.000170943,-2.77311,0.229796,0.25675,16.9562,0.101381,
2,1,0,1,0,66139.5,0.103175,0.102873,1.71485,34,0.00609473,10,0.000176412,-2.76577,0.209374,0.281793,18.9082,0.102873,
2,1,0,1,0,66139.6,0.104673,0.104321,1.7514,34,0.00622561,10,0.000182707,-2.75662,0.201373,0.292988,19.9897,0.104321,
2,1,0,1,0,66139.6,0.106171,0.105874,1.7778,34,0.00635877,10,0.000188224,-2.75012,0.221452,0.266423,18.444,0.1058744,
2,1,0,1,0,66139.7,0.107669,0.107339,1.80577,34,0.00649409,10,0.00019383,-2.74334,0.21423,0.275404,19.396,0.107339,
2,1,0,1,0,66139.8,0.109168,0.108902,1.8355,34,0.00663158,10,0.000199889,-2.73625,0.210772,0.279924,20.057,0.108902,
2,1,0,1,0,66139.9,0.110664,0.110308,1.86535,34,0.00677105,10,0.000205763,-2.72924,0.21038,0.280445,20.3897,0.110308,
2,1,0,1,0,66139.9,0.112164,0.111817,1.89324,34,0.00691311,10,0.000211696,-2.7228,0.23854,0.247338,18.2409,0.111817,
2,1,0,1,0,66140,0.113662,0.113351,1.91832,34,0.00705706,10,0.000217444,-2.71708,0.26422,0.223299,16.6984,0.113351,
2,1,0,1,0,66140.1,0.11516,0.114825,1.9437,34,0.00720279,10,0.000223184,-2.71137,0.284171,0.207621,15.7396,0.114825,
2,1,0,1,0,66140.2,0.116658,0.116331,1.96645,34,0.00735028,10,0.000228759,-2.70632,0.303447,0.194432,14.9099,0.116331,
2,1,0,1,0,66140.2,0.118157,0.117823,1.98776,34,0.00749959,10,0.000234203,-2.70164,0.352699,0.167282,12.9629,0.117823,
2,1,0,1,0,66140.3,0.119655,0.119365,2.00751,34,0.00765031,10,0.000239626,-2.69734,0.44852,0.131544,10.2782,0.119365,
2,1,0,1,0,66140.4,0.121153,0.120822,2.01827,34,0.00780211,10,0.00024385,-2.69502,0.481053,0.122648,9.66671,0.120822,
2,1,0,1,0,66140.5,0.122653,0.122313,2.03395,34,0.0079551,10,0.000248778,-2.69166,0.511375,0.115375,9.14139,0.1223129,
2,1,0,1,0,66140.5,0.124149,0.123826,2.0448,34,0.00810873,10,0.0002532,-2.68935,0.647884,0.0910657,7.25518,0.123826,
2,1,0,1,0,66140.6,0.125648,0.125287,2.05326,34,0.00826353,10,0.000257247,-2.68756,0.882596,0.0668482,5.3542,0.125287,
2,1,0,1,0,66140.7,0.127146,0.126788,2.05908,34,0.0084188,10,0.000261066,-2.68633,0.86391,0.0682941,5.49296,0.1267876,
2,1,0,1,0,66140.8,0.128644,0.128295,2.0688,34,0.00857454,10,0.000265416,-2.68428,1.12655,0.0523725,4.22802,0.128295,
2,1,0,1,0,66140.8,0.130142,0.129817,2.07627,34,0.0087309,10,0.000269536,-2.68272,1.26432,0.0466654,3.77764,0.129817,
2,1,0,1,0,66140.9,0.13164,0.131332,2.08173,34,0.00888777,10,0.000273398,-2.68158,2.84129,0.0207652,1.68314,0.131332,
2,1,0,1,0,66141,0.133139,0.132804,2.08251,34,0.00904493,10,0.000276566,-2.68141,-11.1299,-0.00530102,-0.430223,0.132804,
2,1,0,1,0,66141.1,0.134637,0.134348,2.08254,34,0.00920193,10,0.000279784,-2.68141,-1.96481,-0.0300284,-2.43812,0.134348,
2,1,0,1,0,66141.1,0.136135,0.135812,2.07893,34,0.0093588,10,0.000282342,-2.68216,-1.11304,-0.0530077,-4.28587,0.135812,
2,1,0,1,0,66141.2,0.137633,0.137288,2.06867,34,0.00951524,10,0.000284004,-2.68431,-0.548711,-0.107525,-8.65207,0.137288,
2,1,0,1,0,66141.3,0.139133,0.138823,2.05463,34,0.0096709,10,0.000285229,-2.68727,-0.35028,-0.168437,-13.4508,0.138823,
2,1,0,1,0,66141.4,0.140628,0.140304,2.02804,34,0.00982449,10,0.000284542,-2.69292,-0.269251,-0.219127,-17.2967,0.140304,
2,1,0,1,0,66141.4,0.142128,0.141808,1.9963,34,0.00997651,10,0.000283092,-2.69977,-0.203261,-0.290267,-22.5259,0.141808,
2,1,0,1,0,66141.5,0.143626,0.143345,1.95803,34,0.0101259,10,0.000280674,-2.70818,-0.156674,-0.376577,-28.6499,0.143345,
2,1,0,1,0,66141.6,0.145124,0.144812,1.91026,34,0.0102719,10,0.000276627,-2.71891,-0.123331,-0.478386,-35.5151,0.144812,
2,1,0,1,0,66141.6,0.146622,0.146279,1.85137,34,0.0104139,10,0.000270817,-2.73251,-0.106571,-0.553621,-39.9306,0.146279,
2,1,0,1,0,66141.7,0.14812,0.147812,1.79043,34,0.0105514,10,0.000264648,-2.74704,-0.0986476,-0.598089,-41.6743,0.147812,
2,1,0,1,0,66141.8,0.149619,0.149273,1.72703,34,0.0106842,10,0.000257798,-2.7627,-0.0890779,-0.662342,-44.5201,0.149273,
2,1,0,1,0,66141.9,0.151117,0.150778,1.65869,34,0.010812,10,0.000250093,-2.78024,-0.082891,-0.711778,-45.9984,0.150778,
2,1,0,1,0,66141.9,0.152615,0.152257,1.58764,34,0.0109347,10,0.000241728,-2.79925,-0.0822728,-0.717126,-44.5272,0.152257,
2,1,0,1,0,66142,0.154113,0.153754,1.52371,34,0.0110522,10,0.000234277,-2.8171,-0.0826993,-0.713428,-42.5024,0.153754,
2,1,0,1,0,66142.1,0.155613,0.155257,1.46302,34,0.0111652,10,0.000227145,-2.83475,-0.0864911,-0.682151,-38.9925,0.155257,
2,1,0,1,0,66142.2,0.157108,0.156813,1.40669,34,0.0112736,10,0.000220587,-2.8518,-0.0862677,-0.683917,-37.5732,0.156813,
2,1,0,1,0,66142.2,0.158608,0.158303,1.35318,34,0.0113781,10,0.000214213,-2.86864,-0.0930454,-0.634099,-33.5911,0.158303,
2,1,0,1,0,66142.3,0.160106,0.159778,1.30507,34,0.0114786,10,0.000208522,-2.88436,-0.100224,-0.588683,-30.0772,0.159778,
2,1,0,1,0,66142.4,0.161604,0.161289,1.26362,34,0.0115759,10,0.000203808,-2.89838,-0.110963,-0.531707,-26.2696,0.161289,
2,1,0,1,0,66142.5,0.163102,0.162788,1.22701,34,0.0116702,10,0.000199744,-2.91115,-0.116379,-0.506965,-24.3247,0.162788,
2,1,0,1,0,66142.5,0.164601,0.16429,1.19286,34,0.0117618,10,0.000195974,-2.92341,-0.131955,-0.447122,-20.8748,0.16429,
2,1,0,1,0,66142.6,0.166099,0.165765,1.162,34,0.0118511,10,0.000192619,-2.93479,-0.14555,-0.405358,-18.4464,0.165765,
2,1,0,1,0,66142.7,0.167597,0.167342,1.13904,34,0.0119384,10,0.000190608,-2.94346,-0.177319,-0.332733,-14.8312,0.1673415,
2,1,0,1,0,66142.8,0.169095,0.168807,1.11888,34,0.012024,10,0.000188875,-2.95122,-0.185592,-0.317902,-13.8789,0.168807,
2,1,0,1,0,66142.8,0.170593,0.170274,1.09753,34,0.012108,10,0.000186881,-2.95958,-0.189909,-0.310675,-13.3295,0.170274,
2,1,0,1,0,66142.9,0.172092,0.171779,1.07757,34,0.0121906,10,0.000185104,-2.96755,-0.235408,-0.250628,-10.5714,0.171779,
2,1,0,1,0,66143,0.173588,0.173263,1.06523,34,0.0122717,10,0.000184565,-2.97256,-0.292036,-0.20203,-8.40527,0.173263,
2,1,0,1,0,66143.1,0.175088,0.174748,1.05343,34,0.0123521,10,0.000184085,-2.97739,-0.301692,-0.195564,-8.03381,0.174748,
2,1,0,1,0,66143.1,0.176586,0.176259,1.04049,34,0.0124315,10,0.000183395,-2.98276,-0.307905,-0.191617,-7.77502,0.1762592,
2,1,0,1,0,66143.2,0.178084,0.17775,1.02664,34,0.0125101,10,0.000182485,-2.98858,-0.327882,-0.179943,-7.23798,0.17775,
2,1,0,1,0,66143.3,0.179582,0.179255,1.01911,34,0.0125878,10,0.000182681,-2.99178,-0.392881,-0.150173,-5.99261,0.179255,
2,1,0,1,0,66143.4,0.181081,0.180741,1.01076,34,0.0126649,10,0.000182686,-2.99535,-0.415707,-0.141927,-5.61549,0.180741,
2,1,0,1,0,66143.4,0.182579,0.182242,1.00509,34,0.0127415,10,0.000183169,-2.9978,-0.47101,-0.125263,-4.90198,0.182242,
2,1,0,1,0,66143.5,0.184077,0.183762,0.998552,34,0.0128176,10,0.000183496,-3.00063,-0.499023,-0.118231,-4.60514,0.183762,
2,1,0,1,0,66143.6,0.185577,0.185296,0.991837,34,0.0128931,10,0.000183783,-3.00356,-0.624651,-0.0944527,-3.65712,0.185296,
2,1,0,1,0,66143.7,0.187073,0.186752,0.986553,34,0.0129681,10,0.000184241,-3.00588,-0.753461,-0.0783053,-3.01247,0.186752,
2,1,0,1,0,66143.7,0.188572,0.188278,0.983876,34,0.013043,10,0.000185242,-3.00706,-0.842774,-0.0700069,-2.6769,0.188278,
2,1,0,1,0,66143.8,0.19007,0.189796,0.976902,34,0.0131174,10,0.000185412,-3.01015,-0.82801,-0.0712552,-2.71398,0.189796,
2,1,0,1,0,66143.9,0.191568,0.191276,0.97175,34,0.0131914,10,0.000185873,-3.01245,-0.814534,-0.0724341,-2.7537,0.191276,
2,1,0,1,0,66144,0.193066,0.19273,0.97021,34,0.0132652,10,0.000186988,-3.01313,-1.63822,-0.0360146,-1.36174,0.19273,
2,1,0,1,0,66144,0.194564,0.194204,0.966949,34,0.0133387,10,0.000187785,-3.0146,-0.841242,-0.0701344,-2.6418,0.194204,
2,1,0,1,0,66144.1,0.196063,0.195739,0.962113,34,0.0134121,10,0.000188323,-3.01677,-0.749577,-0.0787111,-2.9547,0.195739,
2,1,0,1,0,66144.2,0.197561,0.197227,0.956812,34,0.0134851,10,0.000188709,-3.01917,-1.05265,-0.0560489,-2.10162,0.197227,
2,1,0,1,0,66144.3,0.199059,0.198758,0.956747,34,0.0135578,10,0.000190161,-3.0192,-1.36905,-0.0430957,-1.6084,0.198758,
2,1,0,1,0,66144.3,0.200557,0.200262,0.95555,34,0.0136303,10,0.00019136,-3.01975,-1.18989,-0.0495846,-1.84523,0.200262,
2,1,0,1,0,66144.4,0.202057,0.201733,0.951687,34,0.0137028,10,0.000191987,-3.02151,-1.03696,-0.0568973,-2.10525,0.201733,
2,1,0,1,0,66144.5,0.203552,0.203251,0.947054,34,0.0137749,10,0.00019249,-3.02363,-1.13891,-0.0518041,-1.91801,0.203251,
2,1,0,1,0,66144.6,0.205052,0.204734,0.945611,34,0.0138469,10,0.000193599,-3.02429,7.13344,0.00827091,0.306216,0.204734,
2,1,0,1,0,66144.6,0.20655,0.206277,0.945684,34,0.0139187,10,0.000195073,-3.02425,-2.96744,-0.0198825,-0.733214,0.2062768,
2,1,0,1,0,66144.7,0.208048,0.207735,0.94441,34,0.0139907,10,0.000196187,-3.02484,-1.47343,-0.0400425,-1.47342,0.207735,
2,1,0,1,0,66144.8,0.209546,0.209282,0.941199,34,0.0140623,10,0.000196976,-3.02632,-1.05442,-0.0559552,-2.0579,0.209282,
2,1,0,1,0,66144.9,0.211044,0.210728,0.939343,34,0.0141337,10,0.000197946,-3.02718,-1.35188,-0.0436429,-1.60009,0.210728,
2,1,0,1,0,66144.9,0.212543,0.212211,0.936382,34,0.014205,10,0.000198711,-3.02855,-2.27251,-0.0259624,-0.949093,0.2122111,
2,1,0,1,0,66145,0.214041,0.213694,0.939315,34,0.0142763,10,0.000200726,-3.02719,-2.17971,-0.0270678,-0.989093,0.213694,
2,1,0,1,0,66145.1,0.215539,0.21527,0.936418,34,0.0143474,10,0.000201583,-3.02853,-2.91902,-0.0202123,-0.737187,0.21527,
2,1,0,1,0,66145.2,0.217037,0.216716,0.931568,34,0.0144183,10,0.000201885,-3.03079,-1.71724,-0.0343575,-1.25016,0.216716,
2,1,0,1,0,66145.2,0.218536,0.218228,0.931724,34,0.0144892,10,0.000203328,-3.03071,574.493,0.000102699,0.00373269,0.218228,
2,1,0,1,0,66145.3,0.220032,0.219718,0.932174,34,0.0145599,10,0.000204815,-3.0305,-11.0796,-0.00532511,-0.193385,0.219718,
2,1,0,1,0,66145.4,0.221532,0.221258,0.929661,34,0.0146307,10,0.000205695,-3.03168,-1.38668,-0.0425477,-1.54082,0.221258,
2,1,0,1,0,66145.5,0.22303,0.222708,0.925052,34,0.0147013,10,0.000206017,-3.03383,-1.31001,-0.0450379,-1.62996,0.222708,
2,1,0,1,0,66145.5,0.224528,0.224251,0.92626,34,0.0147717,10,0.000207715,-3.03327,-2.4919,-0.0236767,-0.856687,0.224251,
2,1,0,1,0,66145.6,0.226026,0.225721,0.927902,34,0.0148421,10,0.000209447,-3.0325,-2.01415,-0.0292927,-1.05815,0.225721,
2,1,0,1,0,66145.7,0.227525,0.227224,0.926634,34,0.0149124,10,0.000210554,-3.03309,-1.25472,-0.0470226,-1.69385,0.227224,
2,1,0,1,0,66145.8,0.229023,0.228733,0.922258,34,0.0149826,10,0.000210951,-3.03515,-2.73379,-0.0215818,-0.777216,0.228733,
2,1,0,1,0,66145.8,0.230521,0.230183,0.922732,34,0.0150527,10,0.000212397,-3.03492,-2.19868,-0.0268343,-0.96672,0.230183,
2,1,0,1,0,66145.9,0.232019,0.231719,0.921456,34,0.0151227,10,0.000213519,-3.03553,9.53244,0.00618939,0.222503,0.231719,
2,1,0,1,0,66146,0.233517,0.233201,0.921471,34,0.0151927,10,0.000214888,-3.03552,-2.86183,-0.0206162,-0.739357,0.233201,
2,1,0,1,0,66146.1,0.235016,0.234704,0.918719,34,0.0152627,10,0.000215627,-3.03682,-3.03023,-0.0194705,-0.697809,0.234704,
2,1,0,1,0,66146.1,0.236512,0.236201,0.918103,34,0.0153324,10,0.000216857,-3.03711,-2.6816,-0.0220018,-0.788879,0.236201,
2,1,0,1,0,66146.2,0.238012,0.237717,0.91798,34,0.0154023,10,0.00021822,-3.03717,-95.6113,-0.000617082,-0.022075,0.237717,
2,1,0,1,0,66146.3,0.23951,0.239213,0.916765,34,0.015472,10,0.000219302,-3.03774,-2.0057,-0.0294162,-1.05233,0.239213,
2,1,0,1,0,66146.4,0.241008,0.240699,0.915389,34,0.0155416,10,0.000220333,-3.03839,-2.84552,-0.0207344,-0.740859,0.240699,
2,1,0,1,0,66146.4,0.242506,0.242196,0.912548,34,0.0156111,10,0.000221015,-3.03974,-1.99906,-0.0295139,-1.05386,0.242196,
2,1,0,1,0,66146.5,0.244005,0.243703,0.913765,34,0.0156805,10,0.000222687,-3.03917,-6.37933,-0.00924862,-0.329846,0.243703,
2,1,0,1,0,66146.6,0.245503,0.245208,0.913932,34,0.01575,10,0.000224103,-3.03909,-3.71501,-0.0158815,-0.565438,0.245208,
2,1,0,1,0,66146.7,0.247001,0.24668,0.911014,34,0.0158193,10,0.000224729,-3.04047,-2.3339,-0.0252796,-0.897783,0.24668,
2,1,0,1,0,66146.7,0.248501,0.248198,0.910561,34,0.0158887,10,0.000226,-3.04069,-2.27337,-0.0259527,-0.921616,0.248198,
2,1,0,1,0,66146.8,0.249997,0.249639,0.90962,34,0.0159577,10,0.000227077,-3.04114,-2.04482,-0.0288533,-1.02516,0.249639,
2,1,0,1,0,66146.9,0.251496,0.251202,0.906848,34,0.0160269,10,0.000227802,-3.04247,-7.14344,-0.00825933,-0.292879,0.251202,
2,1,0,1,0,66147,0.252994,0.252638,0.906604,34,0.016096,10,0.000229042,-3.04258,-1.59068,-0.037091,-1.31059,0.252638,
2,1,0,1,0,66147,0.254492,0.254186,0.906071,34,0.0161649,10,0.000230311,-3.04284,-1.92261,-0.0306874,-1.08513,0.254186,
2,1,0,1,0,66147.1,0.25599,0.255687,0.90446,34,0.0162337,10,0.000231258,-3.04361,-2.79262,-0.0211271,-0.747944,0.255687,
2,1,0,1,0,66147.2,0.257488,0.257219,0.903158,34,0.0163025,10,0.000232309,-3.04424,18.1942,0.00324279,0.114457,0.257219,
2,1,0,1,0,66147.3,0.258987,0.258704,0.90485,34,0.0163713,10,0.000234088,-3.04342,-2.34218,-0.0251902,-0.88792,0.258704,
2,1,0,1,0,66147.3,0.260485,0.260232,0.904326,34,0.01644,10,0.000235335,-3.04368,-1.88534,-0.0312941,-1.10351,0.260232,
2,1,0,1,0,66147.4,0.261983,0.261704,0.900796,34,0.0165085,10,0.000235742,-3.04537,-2.05657,-0.0286885,-1.01001,0.261704,
2,1,0,1,0,66147.5,0.263481,0.263156,0.899627,34,0.016577,10,0.000236742,-3.04594,-4.51675,-0.0130625,-0.458454,0.263156,
2,1,0,1,0,66147.6,0.264981,0.264708,0.89934,34,0.0166455,10,0.000238062,-3.04608,-3.22214,-0.0183108,-0.643246,0.264708,
2,1,0,1,0,66147.6,0.266476,0.266146,0.897364,34,0.0167138,10,0.00023883,-3.04703,-6.8547,-0.00860724,-0.301581,0.266146,
2,1,0,1,0,66147.7,0.267976,0.267688,0.896904,34,0.0167821,10,0.000240091,-3.04725,-2.62962,-0.0224367,-0.786418,0.2676883,
2,1,0,1,0,66147.8,0.269474,0.269198,0.893888,34,0.0168502,10,0.000240633,-3.04872,-15.5883,-0.00378489,-0.132265,0.269198,
2,1,0,1,0,66147.9,0.270972,0.270673,0.897821,34,0.0169183,10,0.000243016,-3.04681,-4.30206,-0.0137144,-0.478491,0.270673,
2,1,0,1,0,66147.9,0.27247,0.272132,0.892702,34,0.0169864,10,0.000242933,-3.04929,-2.42281,-0.0243518,-0.848449,0.272132,
2,1,0,1,0,66148,0.273968,0.273672,0.89058,34,0.0170543,10,0.000243727,-3.05033,-1.55144,-0.0380292,-1.32446,0.273672,
2,1,0,1,0,66148.1,0.275467,0.275164,0.890612,34,0.017122,10,0.000245065,-3.05031,-1.45108,-0.0406593,-1.41518,0.275164,
2,1,0,1,0,66148.2,0.276965,0.276637,0.8889,34,0.0171897,10,0.000245903,-3.05115,-1.96627,-0.0300061,-1.04109,0.276637,
2,1,0,1,0,66148.2,0.278463,0.278141,0.888153,34,0.0172573,10,0.000247032,-3.05151,-1.42224,-0.0414839,-1.43686,0.2781415,
2,1,0,1,0,66148.3,0.279961,0.279661,0.889285,34,0.0173247,10,0.000248698,-3.05096,-1.85185,-0.0318601,-1.10326,0.279661,
2,1,0,1,0,66148.4,0.28146,0.281114,0.885305,34,0.0173921,10,0.000248872,-3.05291,-2.32695,-0.0253551,-0.876422,0.2811144,
2,1,0,1,0,66148.5,0.282956,0.282664,0.884381,34,0.0174593,10,0.000249982,-3.05336,-6.05309,-0.00974709,-0.336078,0.282664,
2,1,0,1,0,66148.5,0.284456,0.284169,0.883627,34,0.0175266,10,0.0002511,-3.05373,-1.7852,-0.0330496,-1.13889,0.2841692,
2,1,0,1,0,66148.6,0.285954,0.285704,0.881591,34,0.0175937,10,0.000251874,-3.05473,-1.59392,-0.0370156,-1.27228,0.285704,
2,1,0,1,0,66148.7,0.287452,0.287142,0.877825,34,0.0176606,10,0.00025206,-3.05659,-1.99172,-0.0296227,-1.01663,0.287142,
2,1,0,1,0,66148.8,0.28895,0.288585,0.876832,34,0.0177275,10,0.00025304,-3.05708,-3.56189,-0.0165642,-0.567303,0.288585,
2,1,0,1,0,66148.8,0.290449,0.290122,0.876251,34,0.0177942,10,0.00025422,-3.05737,-2.42101,-0.02437,-0.834904,0.290122,
2,1,0,1,0,66148.9,0.291947,0.291637,0.877947,34,0.0178608,10,0.000256042,-3.05653,-1.62526,-0.0363019,-1.23957,0.291637,
2,1,0,1,0,66149,0.293445,0.29313,0.871064,34,0.0179273,10,0.000255335,-3.05995,-2.0202,-0.029205,-0.99606,0.29313,
2,1,0,1,0,66149.1,0.294943,0.294657,0.87098,34,0.0179936,10,0.00025664,-3.05999,-2.13969,-0.0275741,-0.940149,0.294657,
2,1,0,1,0,66149.1,0.296441,0.296129,0.873957,34,0.0180599,10,0.000258804,-3.05851,-3.79463,-0.0155483,-0.527837,0.2961289,
2,1,0,1,0,66149.2,0.29794,0.297658,0.870208,34,0.0181263,10,0.000259024,-3.06038,-3.40109,-0.0173474,-0.588798,0.297658,
2,1,0,1,0,66149.3,0.299436,0.299132,0.866769,34,0.0181923,10,0.000259278,-3.0621,-0.00470352,-12.5438,-285.189,0.299132,
2,1,0,1,0,66149.3,0.299739,0.299454,0.617327,34,0.0182266,10,0.000184861,-3.20949,0.000981814,60.0928,677.937,0.299454,
2,1,0,1,0,66149.4,0.298239,0.297908,0.118756,34,0.0182489,10,3.53784e-05,-3.92534,0.00351434,16.7884,241.935,0.297908,
2,0,0,1,0,66149.5,0.296741,0.296439,-0.0378478,34,0.01825,10,-1.12196e-05,-4.42196,0.0189951,3.10607,86.3684,0.2964386,
2,0,0,1,0,66149.6,0.295243,0.29489,-0.114212,34,0.018243,10,-3.36798e-05,-3.94229,-0.00180324,-32.7189,42.9956,0.29489,
2,0,0,1,0,66149.6,0.293745,0.293449,-0.161957,34,0.0182315,10,-4.75261e-05,-3.7906,-0.0118091,-4.99613,27.4918,0.293449,
2,0,0,1,0,66149.7,0.292246,0.291927,-0.193349,34,0.0182171,10,-5.64437e-05,-3.71366,-0.0205635,-2.86916,20.7793,0.291927,
2,0,0,1,0,66149.8,0.290748,0.290503,-0.219391,34,0.0182005,10,-6.37336e-05,-3.65878,-0.029246,-2.01737,16.9242,0.290503,
2,0,0,1,0,66149.9,0.28925,0.288961,-0.243397,34,0.0181819,10,-7.03323e-05,-3.61368,-0.0396783,-1.48696,14.0138,0.288961,
2,0,0,1,0,66149.9,0.287752,0.287447,-0.262573,34,0.0181618,10,-7.5476e-05,-3.58075,-0.0508564,-1.16013,11.8116,0.287447,
2,0,0,1,0,66150,0.286254,0.28592,-0.280036,34,0.0181405,10,-8.00677e-05,-3.55279,-0.0603004,-0.978434,10.6308,0.28592,
2,0,0,1,0,66150.1,0.284754,0.284474,-0.294827,34,0.0181179,10,-8.38708e-05,-3.53043,-0.0658477,-0.896007,10.2424,0.284474,
2,0,0,1,0,66150.2,0.283259,0.282959,-0.309864,34,0.0180942,10,-8.76787e-05,-3.50883,-0.069444,-0.849605,10.2233,0.282959,
2,0,0,1,0,66150.2,0.281759,0.281427,-0.324664,34,0.0180694,10,-9.13691e-05,-3.48857,-0.0895169,-0.659094,8.24703,0.281427,
2,0,0,1,0,66150.3,0.280261,0.279907,-0.333111,34,0.0180437,10,-9.32404e-05,-3.47741,-0.0929725,-0.634596,8.23858,0.279907,
2,0,0,1,0,66150.4,0.278763,0.278467,-0.344904,34,0.0180172,10,-9.60445e-05,-3.4623,-0.104653,-0.563765,7.61036,0.278467,
2,0,0,1,0,66150.5,0.277264,0.276961,-0.357392,34,0.0179898,10,-9.89838e-05,-3.44685,-0.105796,-0.557678,7.75722,0.276961,
2,0,0,1,0,66150.5,0.275766,0.275452,-0.367508,34,0.0179616,10,-0.000101231,-3.43473,-0.148287,-0.397876,5.69101,0.275452,
2,0,0,1,0,66150.6,0.274268,0.273954,-0.378876,34,0.0179326,10,-0.000103795,-3.4215,-0.14408,-0.409494,6.02393,0.273954,
2,0,0,1,0,66150.7,0.27277,0.272451,-0.386142,34,0.017903,10,-0.000105205,-3.41325,-0.148679,-0.396828,6.00978,0.272451,
2,0,0,1,0,66150.8,0.271272,0.270902,-0.397052,34,0.0178727,10,-0.000107562,-3.40115,-0.145779,-0.404721,6.2387,0.270902,
2,0,0,1,0,66150.8,0.269774,0.269465,-0.40758,34,0.0178417,10,-0.000109829,-3.38979,-0.157014,-0.375763,5.91187,0.269465,
2,0,0,1,0,66150.9,0.268274,0.267941,-0.412605,34,0.01781,10,-0.000110554,-3.38447,-0.17651,-0.334258,5.37498,0.267941,
2,0,0,1,0,66151,0.266779,0.266454,-0.419501,34,0.0177779,10,-0.000111778,-3.37727,-0.18315,-0.32214,5.28357,0.266454,
2,0,0,1,0,66151.1,0.265279,0.264991,-0.428614,34,0.017745,10,-0.000113579,-3.36793,-0.167728,-0.351759,5.85443,0.264991,
2,0,0,1,0,66151.1,0.263781,0.263492,-0.437121,34,0.0177115,10,-0.000115178,-3.3594,-0.200646,-0.294051,5.0067,0.263492,
2,0,0,1,0,66151.2,0.262283,0.261994,-0.44383,34,0.0176775,10,-0.000116281,-3.35278,-0.20585,-0.286616,4.9571,0.261994,
2,0,0,1,0,66151.3,0.260784,0.260497,-0.448751,34,0.017643,10,-0.000116898,-3.34799,-0.222572,-0.265083,4.66408,0.260497,
2,0,0,1,0,66151.4,0.259286,0.258998,-0.457989,34,0.0176079,10,-0.000118618,-3.33915,-0.195289,-0.302117,5.39226,0.258998,
2,0,0,1,0,66151.4,0.257788,0.257462,-0.467668,34,0.0175722,10,-0.000120407,-3.33006,-0.222821,-0.264787,4.8087,0.257462,
2,0,0,1,0,66151.5,0.25629,0.25597,-0.474076,34,0.017536,10,-0.000121349,-3.32415,-0.25259,-0.23358,4.29571,0.25597,
2,0,0,1,0,66151.6,0.25479,0.254489,-0.476891,34,0.0174993,10,-0.000121363,-3.32158,-0.254127,-0.232168,4.33787,0.254489,
2,0,0,1,0,66151.7,0.253294,0.252963,-0.484753,34,0.0174622,10,-0.000122624,-3.31448,-0.253204,-0.233013,4.41905,0.252963,
2,0,0,1,0,66151.7,0.251795,0.251452,-0.490798,34,0.0174246,10,-0.000123412,-3.3091,-0.242775,-0.243024,4.66939,0.251452,
2,0,0,1,0,66151.8,0.250297,0.25001,-0.497149,34,0.0173865,10,-0.000124292,-3.30351,-0.335575,-0.175818,3.39611,0.25001,
2,0,0,1,0,66151.9,0.248799,0.248479,-0.50467,34,0.0173479,10,-0.0001254,-3.29699,-0.319048,-0.184925,3.63759,0.248479,
2,0,0,1,0,66152,0.247301,0.246996,-0.509189,34,0.0173089,10,-0.000125768,-3.29312,-0.263577,-0.223843,4.45451,0.246996,
2,0,0,1,0,66152,0.245802,0.245523,-0.515292,34,0.0172695,10,-0.000126516,-3.28795,-0.255496,-0.230923,4.64922,0.245523,
2,0,0,1,0,66152.1,0.244304,0.243969,-0.522771,34,0.0172295,10,-0.00012754,-3.28169,-0.295084,-0.199943,4.06583,0.243969,
2,0,0,1,0,66152.2,0.242806,0.24249,-0.527515,34,0.0171891,10,-0.000127917,-3.27777,-0.389144,-0.151615,3.12341,0.24249,
2,0,0,1,0,66152.3,0.241308,0.240971,-0.532952,34,0.0171484,10,-0.000128426,-3.27331,-0.310342,-0.190113,3.96663,0.2409713,
2,0,0,1,0,66152.3,0.23981,0.239457,-0.538547,34,0.0171072,10,-0.000128959,-3.26878,-0.287144,-0.205472,4.32571,0.239457,
2,0,0,1,0,66152.4,0.23831,0.237995,-0.542498,34,0.0170655,10,-0.000129112,-3.2656,-0.344922,-0.171053,3.6261,0.237995,
2,0,0,1,0,66152.5,0.236815,0.236479,-0.549438,34,0.0170235,10,-0.000129931,-3.26008,-0.436129,-0.135281,2.89598,0.236479,
2,0,0,1,0,66152.6,0.235315,0.235011,-0.551754,34,0.0169811,10,-0.000129668,-3.25825,-0.344184,-0.17142,3.70955,0.235011,
2,0,0,1,0,66152.6,0.233817,0.233476,-0.558459,34,0.0169384,10,-0.000130387,-3.25301,-0.33622,-0.17548,3.83393,0.233476,
2,0,0,1,0,66152.7,0.232319,0.231998,-0.565881,34,0.0168951,10,-0.000131283,-3.24727,-0.380571,-0.15503,3.42478,0.231998,
2,0,0,1,0,66152.8,0.230821,0.230505,-0.571575,34,0.0168514,10,-0.000131751,-3.24293,-0.528292,-0.111681,2.48213,0.230505,
2,0,0,1,0,66152.9,0.229322,0.228986,-0.574907,34,0.0168074,10,-0.000131646,-3.2404,-0.404892,-0.145718,3.27785,0.228986,
2,0,0,1,0,66152.9,0.227824,0.227493,-0.580654,34,0.0167631,10,-0.000132094,-3.23608,-0.381644,-0.154594,3.50872,0.227493,
2,0,0,1,0,66153,0.226326,0.22601,-0.585741,34,0.0167183,10,-0.000132384,-3.23229,-0.404137,-0.14599,3.33903,0.22601,
2,0,0,1,0,66153.1,0.224828,0.224517,-0.592383,34,0.016673,10,-0.000133,-3.2274,-0.401321,-0.147014,3.39421,0.224517,
2,0,0,1,0,66153.2,0.22333,0.223019,-0.59669,34,0.0166274,10,-0.000133073,-3.22425,-0.38739,-0.152301,3.55332,0.223019,
2,0,0,1,0,66153.2,0.22183,0.221536,-0.600775,34,0.0165815,10,-0.000133093,-3.22129,-0.399052,-0.14785,3.46894,0.221536,
2,0,0,1,0,66153.3,0.220335,0.220075,-0.605834,34,0.0165352,10,-0.000133329,-3.21765,-0.315527,-0.186989,4.42226,0.220075,
2,0,0,1,0,66153.4,0.218835,0.218521,-0.612931,34,0.0164883,10,-0.000133938,-3.21259,-0.403612,-0.14618,3.49357,0.218521,
2,0,0,1,0,66153.5,0.217337,0.217027,-0.617083,34,0.0164411,10,-0.000133924,-3.20966,-0.66574,-0.0886232,2.13667,0.217027,
2,0,0,1,0,66153.5,0.215839,0.215517,-0.620566,34,0.0163937,10,-0.000133743,-3.20721,-0.378506,-0.155876,3.78898,0.2155173,
2,0,0,1,0,66153.6,0.21434,0.214019,-0.627365,34,0.0163459,10,-0.000134268,-3.20248,-0.392048,-0.150492,3.67142,0.214019,
2,0,0,1,0,66153.7,0.212842,0.21253,-0.631237,34,0.0162977,10,-0.000134157,-3.19981,-0.468027,-0.126061,3.11381,0.21253,
2,0,0,1,0,66153.8,0.211344,0.211043,-0.636591,34,0.0162491,10,-0.000134348,-3.19614,-0.524473,-0.112494,2.79569,0.211043,
2,0,0,1,0,66153.8,0.209846,0.209526,-0.639382,34,0.0162002,10,-0.000133967,-3.19424,-0.439956,-0.134104,3.35565,0.209526,
2,0,0,1,0,66153.9,0.208348,0.208058,-0.64685,34,0.0161509,10,-0.000134582,-3.1892,-0.388476,-0.151875,3.84307,0.2080581,
2,0,0,1,0,66154,0.20685,0.206539,-0.655413,34,0.0161012,10,-0.000135368,-3.18349,-0.383028,-0.154036,3.91008,0.206539,
2,0,0,1,0,66154.1,0.20535,0.205053,-0.656145,34,0.0160509,10,-0.000134544,-3.183,-0.490654,-0.120248,3.07629,0.205053,
2,0,0,1,0,66154.1,0.203855,0.203508,-0.660497,34,0.0160005,10,-0.000134417,-3.18013,-0.493801,-0.119481,3.08967,0.203508,
2,0,0,1,0,66154.2,0.202355,0.201987,-0.664949,34,0.0159497,10,-0.000134311,-3.17721,-0.422186,-0.139749,3.634,0.201987,
2,0,0,1,0,66154.3,0.200857,0.200507,-0.6722,34,0.0158984,10,-0.000134781,-3.1725,-0.430557,-0.137032,3.58904,0.200507,
2,0,0,1,0,66154.4,0.199359,0.199029,-0.67549,34,0.0158468,10,-0.000134442,-3.17038,-0.528019,-0.111738,2.95336,0.199029,
2,0,0,1,0,66154.4,0.19786,0.197498,-0.683901,34,0.0157948,10,-0.000135069,-3.16501,-0.475353,-0.124118,3.30079,0.197498,
2,0,0,1,0,66154.5,0.196362,0.196026,-0.6868,34,0.0157425,10,-0.000134631,-3.16317,-0.417266,-0.141397,3.78781,0.196026,
2,0,0,1,0,66154.6,0.194864,0.194559,-0.69423,34,0.0156897,10,-0.000135068,-3.1585,-0.390531,-0.151076,4.07699,0.194559,
2,0,0,1,0,66154.7,0.193366,0.193023,-0.700066,34,0.0156364,10,-0.000135129,-3.15486,-0.433466,-0.136112,3.71185,0.193023,
2,0,0,1,0,66154.7,0.191866,0.191528,-0.704575,34,0.0155826,10,-0.000134946,-3.15207,-0.454008,-0.129954,3.57911,0.191528,
2,0,0,1,0,66154.8,0.19037,0.190044,-0.706834,34,0.0155287,10,-0.00013433,-3.15068,-0.377018,-0.156491,4.34225,0.190044,
2,0,0,1,0,66154.9,0.188871,0.188524,-0.715012,34,0.0154742,10,-0.000134797,-3.14569,-0.325312,-0.181364,5.06305,0.188524,
2,0,0,1,0,66155,0.187373,0.187063,-0.722003,34,0.0154192,10,-0.00013506,-3.14146,-0.40053,-0.147305,4.15268,0.187063,
2,0,0,1,0,66155,0.185875,0.185528,-0.727986,34,0.0153637,10,-0.000135062,-3.13788,-0.48818,-0.120857,3.42891,0.185528,
2,0,0,1,0,66155.1,0.184377,0.184038,-0.732773,34,0.0153079,10,-0.000134858,-3.13503,-0.452922,-0.130265,3.73187,0.184038,
2,0,0,1,0,66155.2,0.182878,0.182546,-0.740931,34,0.0152517,10,-0.000135254,-3.13022,-0.41479,-0.142241,4.10538,0.182546,
2,0,0,1,0,66155.3,0.18138,0.181052,-0.746312,34,0.0151949,10,-0.000135121,-3.12708,-0.344277,-0.171374,4.99632,0.181052,
2,0,0,1,0,66155.3,0.179882,0.179606,-0.751947,34,0.0151376,10,-0.000135054,-3.12381,-0.423524,-0.139307,4.08731,0.179606,
2,0,0,1,0,66155.4,0.178384,0.178037,-0.76007,34,0.0150798,10,-0.000135321,-3.11915,-0.387965,-0.152076,4.51141,0.178037,
2,0,0,1,0,66155.5,0.176886,0.176505,-0.767259,34,0.0150217,10,-0.000135425,-3.11506,-0.384809,-0.153323,4.59276,0.176505,
2,0,0,1,0,66155.6,0.175386,0.175027,-0.773529,34,0.0149629,10,-0.000135388,-3.11152,-0.366405,-0.161024,4.85895,0.175027,
2,0,0,1,0,66155.6,0.173891,0.173581,-0.781659,34,0.0149036,10,-0.000135681,-3.10698,-0.322088,-0.18318,5.58543,0.173581,
2,0,0,1,0,66155.7,0.172391,0.172017,-0.787861,34,0.0148436,10,-0.000135525,-3.10355,-0.321286,-0.183637,5.642,0.172017,
2,0,0,1,0,66155.8,0.170893,0.170566,-0.796702,34,0.0147832,10,-0.000135891,-3.0987,-0.333574,-0.176872,5.50198,0.170566,
2,0,0,1,0,66155.9,0.169395,0.16905,-0.806549,34,0.0147221,10,-0.000136347,-3.09337,-0.289286,-0.20395,6.41021,0.16905,
2,0,0,1,0,66155.9,0.167897,0.167592,-0.814875,34,0.0146602,10,-0.000136567,-3.08891,-0.295757,-0.199488,6.34914,0.167592,
2,0,0,1,0,66156,0.166398,0.166064,-0.825691,34,0.0145976,10,-0.000137117,-3.08318,-0.306383,-0.19257,6.20502,0.166064,
2,0,0,1,0,66156.1,0.1649,0.164579,-0.831693,34,0.0145344,10,-0.000136879,-3.08004,-0.30533,-0.193233,6.30242,0.164579,
2,0,0,1,0,66156.2,0.163402,0.163089,-0.84449,34,0.0144704,10,-0.000137727,-3.07341,-0.255925,-0.230537,7.60933,0.163089,
2,0,0,1,0,66156.2,0.161904,0.161631,-0.858562,34,0.0144056,10,-0.00013877,-3.06623,-0.255262,-0.231135,7.73102,0.161631,
2,0,0,1,0,66156.3,0.160406,0.160123,-0.871816,34,0.0143397,10,-0.000139598,-3.05958,-0.250486,-0.235542,7.99169,0.160123,
2,0,0,1,0,66156.4,0.158906,0.158635,-0.88048,34,0.014273,10,-0.000139675,-3.05528,-0.226176,-0.260858,8.99414,0.158635,
2,0,0,1,0,66156.4,0.157411,0.157101,-0.895559,34,0.0142055,10,-0.000140694,-3.04791,-0.20765,-0.284132,9.94273,0.157101,
2,0,0,1,0,66156.5,0.155911,0.155549,-0.90962,34,0.0141366,10,-0.00014149,-3.04114,-0.185937,-0.317312,11.3044,0.155549,
2,0,0,1,0,66156.6,0.154413,0.154086,-0.927032,34,0.0140666,10,-0.000142842,-3.03291,-0.196825,-0.299758,10.8668,0.154086,
2,0,0,1,0,66156.7,0.152915,0.152559,-0.946355,34,0.0139952,10,-0.000144375,-3.02395,-0.170759,-0.345516,12.7829,0.152559,
2,0,0,1,0,66156.7,0.151417,0.151086,-0.966413,34,0.0139225,10,-0.000146012,-3.01484,-0.162996,-0.361973,13.6737,0.151086,
2,0,0,1,0,66156.8,0.149918,0.149615,-0.990681,34,0.0138481,10,-0.000148221,-3.00407,-0.135084,-0.436766,16.8897,0.149615,
2,0,0,1,0,66156.9,0.14842,0.148052,-1.01629,34,0.0137718,10,-0.000150464,-2.99298,-0.137907,-0.427825,16.9919,0.1480523,
2,0,0,1,0,66157,0.146922,0.1466,-1.04521,34,0.0136936,10,-0.000153228,-2.9808,-0.123519,-0.477659,19.4962,0.1466,
2,0,0,1,0,66157,0.145424,0.145102,-1.07314,34,0.0136133,10,-0.000155714,-2.96935,-0.114337,-0.51602,21.6874,0.145102,
2,0,0,1,0,66157.1,0.143926,0.143627,-1.10908,34,0.0135303,10,-0.000159293,-2.95504,-0.100435,-0.587444,25.467,0.143627,
2,0,0,1,0,66157.2,0.142426,0.14206,-1.14975,34,0.0134445,10,-0.000163333,-2.9394,-0.100212,-0.58875,26.4654,0.1420595,
2,0,0,1,0,66157.3,0.140931,0.140592,-1.18786,34,0.0133559,10,-0.000167003,-2.92524,-0.0948538,-0.62201,28.9292,0.140592,
2,0,0,1,0,66157.3,0.139431,0.139087,-1.2309,34,0.0132639,10,-0.000171202,-2.90978,-0.0942793,-0.6258,30.2024,0.139087,
2,0,0,1,0,66157.4,0.137933,0.137576,-1.28081,34,0.0131685,10,-0.000176209,-2.89252,-0.0894671,-0.65946,33.0079,0.137576,
2,0,0,1,0,66157.5,0.136435,0.136109,-1.33265,34,0.0130695,10,-0.000181385,-2.87528,-0.0917849,-0.642807,33.4124,0.136109,
2,0,0,1,0,66157.6,0.134936,0.134597,-1.38356,34,0.0129665,10,-0.000186223,-2.859,-0.0925943,-0.637188,34.3676,0.134597,
2,0,0,1,0,66157.6,0.133438,0.133107,-1.43595,34,0.0128597,10,-0.000191134,-2.84286,-0.0941886,-0.626403,35.1255,0.133107,
2,0,0,1,0,66157.7,0.13194,0.131602,-1.49,34,0.012749,10,-0.000196087,-2.82681,-0.096622,-0.610627,35.5336,0.131602,
2,0,0,1,0,66157.8,0.130442,0.130073,-1.54615,34,0.0126343,10,-0.000201112,-2.81075,-0.0988374,-0.59694,35.9474,0.130073,
2,0,0,1,0,66157.9,0.128942,0.128619,-1.59977,34,0.0125152,10,-0.000205761,-2.79594,-0.102691,-0.574541,35.7132,0.128619,
2,0,0,1,0,66157.9,0.127446,0.127107,-1.64987,34,0.0123925,10,-0.00020971,-2.78255,-0.111797,-0.527742,33.9513,0.1271068,
2,0,0,1,0,66158,0.125947,0.125667,-1.70091,34,0.0122658,10,-0.000213747,-2.76932,-0.116235,-0.507592,33.6385,0.125667,
2,0,0,1,0,66158.1,0.124449,0.1241,-1.75097,34,0.0121354,10,-0.000217295,-2.75672,-0.119334,-0.494411,33.7159,0.1241,
2,0,0,1,0,66158.2,0.122951,0.12266,-1.79722,34,0.0120013,10,-0.000220446,-2.7454,-0.132938,-0.443817,31.1008,0.12266,
2,0,0,1,0,66158.2,0.121453,0.121172,-1.84339,34,0.0118636,10,-0.000223367,-2.73438,-0.147006,-0.401345,28.7913,0.1211717,
2,0,0,1,0,66158.3,0.119955,0.119655,-1.88329,34,0.0117228,10,-0.000225346,-2.72508,-0.166837,-0.353639,25.9769,0.119655,
2,0,0,1,0,66158.4,0.118456,0.118109,-1.92298,34,0.0115791,10,-0.000227122,-2.71602,-0.176056,-0.33512,25.1353,0.118109,
2,0,0,1,0,66158.5,0.116958,0.116638,-1.9609,34,0.0114325,10,-0.000228715,-2.70754,-0.202002,-0.292077,22.2805,0.116638,
2,0,0,1,0,66158.5,0.11546,0.115179,-1.99092,34,0.0112832,10,-0.000229311,-2.70095,-0.246567,-0.239286,18.5469,0.115179,
2,0,0,1,0,66158.6,0.113962,0.113655,-2.01692,34,0.0111318,10,-0.000229232,-2.69531,-0.291697,-0.202265,15.9147,0.113655,
2,0,0,1,0,66158.7,0.112462,0.112151,-2.04026,34,0.0109785,10,-0.000228819,-2.69031,-0.321738,-0.183379,14.5897,0.112151,
2,0,0,1,0,66158.8,0.110967,0.110642,-2.05998,34,0.0108239,10,-0.000227921,-2.68614,-0.407196,-0.144893,11.6208,0.110642,
2,0,0,1,0,66158.8,0.109467,0.109135,-2.07542,34,0.0106675,10,-0.000226501,-2.68289,-0.611216,-0.0965289,7.7972,0.109135,
2,0,0,1,0,66158.9,0.107969,0.10761,-2.08603,34,0.0105105,10,-0.000224478,-2.68068,-0.964549,-0.0611685,4.97106,0.10761,
2,0,0,1,0,66159,0.106471,0.106138,-2.08803,34,0.0103531,10,-0.00022162,-2.68026,-1.4524,-0.0406224,3.31314,0.1061382,
2,0,0,1,0,66159.1,0.104973,0.10467,-2.09005,34,0.0101953,10,-0.000218764,-2.67984,-8.18062,-0.00721217,0.588209,0.10467,
2,0,0,1,0,66159.1,0.103474,0.103144,-2.09344,34,0.0100373,10,-0.000215925,-2.67914,2.95976,0.019934,-1.62567,0.103144,
2,0,0,1,0,66159.2,0.101976,0.101667,-2.08987,34,0.00987949,10,-0.00021247,-2.67988,1.27484,0.0462805,-3.77108,0.101667,
2,0,0,1,0,66159.3,0.100478,0.10017,-2.08005,34,0.00972227,10,-0.000208358,-2.68193,0.901538,0.0654437,-5.3151,0.10017,
2,0,0,1,0,66159.4,0.0989799,0.0986466,-2.07456,34,0.00956553,10,-0.000204648,-2.68307,1.01984,0.0578524,-4.67615,0.0986466,
2,0,0,1,0,66159.4,0.0974817,0.0971366,-2.06496,34,0.00940938,10,-0.000200583,-2.68509,0.761899,0.077438,-6.23671,0.0971366,
2,0,0,1,0,66159.5,0.0959821,0.0956503,-2.05562,34,0.00925374,10,-0.000196621,-2.68706,0.634719,0.0929545,-7.45311,0.0956503,
2,0,0,1,0,66159.6,0.0944866,0.0941542,-2.03769,34,0.00909944,10,-0.000191857,-2.69086,0.641415,0.0919841,-7.32995,0.0941542,
2,0,0,1,0,66159.7,0.0929871,0.0926938,-2.02777,34,0.0089456,10,-0.000187962,-2.69298,0.677438,0.0870928,-6.90464,0.0926938,
2,0,0,1,0,66159.7,0.0914889,0.0911593,-2.02271,34,0.00879265,10,-0.000184389,-2.69407,0.783629,0.0752908,-5.93987,0.0911593,
2,0,0,1,0,66159.8,0.0899907,0.0896353,-2.01213,34,0.00864042,10,-0.000180358,-2.69634,0.63608,0.0927557,-7.27828,0.0896353,
2,0,0,1,0,66159.9,0.0884925,0.0881877,-1.99847,34,0.00848896,10,-0.000176241,-2.6993,0.649496,0.0908397,-7.09264,0.0881877,
2,0,0,1,0,66160,0.0869943,0.0866408,-1.9914,34,0.00833846,10,-0.000172537,-2.70084,0.650972,0.0906337,-7.04215,0.0866408,
2,0,0,1,0,66160,0.0854962,0.0851619,-1.98186,34,0.00818857,10,-0.000168779,-2.70293,0.865996,0.0681297,-5.27084,0.0851619,
2,0,0,1,0,66160.1,0.083998,0.0836708,-1.97228,34,0.00803931,10,-0.000165022,-2.70503,0.645975,0.0913348,-7.03132,0.0836708,
2,0,0,1,0,66160.2,0.0824998,0.0821877,-1.96549,34,0.00789065,10,-0.000161539,-2.70653,0.728102,0.0810326,-6.21228,0.0821877,
2,0,0,1,0,66160.3,0.081002,0.080691,-1.95521,34,0.00774287,10,-0.000157768,-2.70881,0.756865,0.0779531,-5.95257,0.080691,
2,0,0,1,0,66160.3,0.0795025,0.0791301,-1.94817,34,0.00759542,10,-0.000154159,-2.71037,0.980378,0.0601809,-4.56995,0.0791301,
2,0,0,1,0,66160.4,0.078007,0.07771,-1.94055,34,0.00744891,10,-0.0001508,-2.71208,0.860121,0.068595,-5.19105,0.07771,
2,0,0,1,0,66160.5,0.076507,0.0762192,-1.93108,34,0.00730261,10,-0.000147185,-2.7142,0.728486,0.0809898,-6.09293,0.0762192,
2,0,0,1,0,66160.6,0.0750088,0.0746672,-1.91989,34,0.00715726,10,-0.000143353,-2.71672,0.67783,0.0870425,-6.52895,0.0746672,
2,0,0,1,0,66160.6,0.0735106,0.0731936,-1.91168,34,0.00701258,10,-0.000139923,-2.71858,0.824514,0.0715573,-5.33537,0.0731936,
2,0,0,1,0,66160.7,0.0720124,0.0716942,-1.90379,34,0.0068685,10,-0.00013649,-2.72038,0.695154,0.0848733,-6.30525,0.0716942,
2,0,0,1,0,66160.8,0.0705142,0.0701694,-1.89439,34,0.00672508,10,-0.000132928,-2.72253,0.614064,0.0960812,-7.09679,0.0701694,
2,0,0,1,0,66160.9,0.0690161,0.0687062,-1.88213,34,0.00658247,10,-0.000129314,-2.72535,0.596577,0.0988976,-7.27726,0.0687062,
2,0,0,1,0,66160.9,0.0675179,0.0671812,-1.87585,34,0.00644067,10,-0.000126022,-2.7268,0.74571,0.0791192,-5.79182,0.0671812,
2,0,0,1,0,66161,0.0660179,0.0656888,-1.87065,34,0.00629923,10,-0.00012288,-2.72801,0.698375,0.0844819,-6.14953,0.0656888,
2,0,0,1,0,66161.1,0.0645224,0.0642094,-1.85835,34,0.00615874,10,-0.000119324,-2.73087,0.616239,0.0957421,-6.93026,0.0642094,
2,0,0,1,0,66161.2,0.0630229,0.0626865,-1.84391,34,0.00601875,10,-0.000115588,-2.73426,0.575031,0.102603,-7.3925,0.06268651,
2,0,0,1,0,66161.2,0.0615251,0.0611773,-1.83436,34,0.00587984,10,-0.000112221,-2.73651,0.647001,0.0911899,-6.54145,0.0611773,
2,0,0,1,0,66161.3,0.0600269,0.0597034,-1.82513,34,0.0057416,10,-0.000108967,-2.73871,0.682007,0.0865093,-6.16421,0.0597034,
2,0,0,1,0,66161.4,0.0585287,0.0582205,-1.81631,34,0.00560402,10,-0.000105747,-2.74081,0.542478,0.10876,-7.69663,0.0582205,
2,0,0,1,0,66161.5,0.0570305,0.0567077,-1.80768,34,0.00546723,10,-0.000102509,-2.74288,0.52903,0.111525,-7.85766,0.0567077,
2,0,0,1,0,66161.5,0.0555323,0.0552285,-1.79167,34,0.0053315,10,-9.89512e-05,-2.74674,0.53971,0.109318,-7.65652,0.0552285,
2,0,0,1,0,66161.6,0.0540342,0.0536789,-1.78202,34,0.00519644,10,-9.56569e-05,-2.74909,0.629602,0.09371,-6.51468,0.0536789,
2,0,0,1,0,66161.7,0.052536,0.0521753,-1.77283,34,0.00506207,10,-9.24977e-05,-2.75133,0.600285,0.0982866,-6.79287,0.0521753,
2,0,0,1,0,66161.8,0.0510378,0.0507091,-1.76296,34,0.00492853,10,-8.9398e-05,-2.75376,0.479534,0.123036,-8.45915,0.0507091,
2,0,0,1,0,66161.8,0.0495382,0.0492199,-1.75032,34,0.00479581,10,-8.61506e-05,-2.75688,0.531952,0.110912,-7.57454,0.0492199,
2,0,0,1,0,66161.9,0.0480427,0.0477195,-1.73817,34,0.00466429,10,-8.29447e-05,-2.75991,0.649233,0.0908764,-6.16169,0.0477195,
2,0,0,1,0,66162,0.0465432,0.0462043,-1.72742,34,0.00453317,10,-7.98143e-05,-2.7626,0.582104,0.101356,-6.82829,0.0462043,
2,0,0,1,0,66162.1,0.045045,0.0447388,-1.71577,34,0.00440304,10,-7.67615e-05,-2.76554,0.45548,0.129534,-8.66245,0.0447388,
2,0,0,1,0,66162.1,0.0435468,0.0432286,-1.70086,34,0.00427391,10,-7.3526e-05,-2.76933,0.448881,0.131438,-8.7367,0.0432286,
2,0,0,1,0,66162.2,0.0420486,0.0417221,-1.69086,34,0.00414578,10,-7.05462e-05,-2.77189,0.49319,0.119629,-7.89241,0.0417221,
2,0,0,1,0,66162.3,0.0405504,0.0402552,-1.68023,34,0.00401841,10,-6.76382e-05,-2.77463,0.479822,0.122962,-8.05617,0.0402552,
2,0,0,1,0,66162.4,0.0390523,0.0387222,-1.66751,34,0.00389189,10,-6.45697e-05,-2.77793,0.41826,0.141061,-9.17242,0.03872218,
2,0,0,1,0,66162.4,0.0375541,0.0372206,-1.6537,34,0.0037663,10,-6.15517e-05,-2.78154,0.438821,0.134451,-8.682,0.03722062,
2,0,0,1,0,66162.5,0.0360559,0.035743,-1.63977,34,0.00364186,10,-5.86104e-05,-2.78522,0.40788,0.14465,-9.27438,0.035743,
2,0,0,1,0,66162.6,0.0345577,0.0342715,-1.62833,34,0.00351828,10,-5.58051e-05,-2.78826,0.434257,0.135864,-8.64198,0.0342715,
2,0,0,1,0,66162.7,0.0330582,0.0327327,-1.61775,34,0.00339544,10,-5.29534e-05,-2.79109,0.459044,0.128528,-8.10363,0.0327327,
2,0,0,1,0,66162.7,0.0315626,0.0312316,-1.60479,34,0.00327381,10,-5.01202e-05,-2.79458,0.452968,0.130252,-8.15727,0.0312316,
2,0,0,1,0,66162.8,0.0300631,0.0297348,-1.5917,34,0.00315295,10,-4.73288e-05,-2.79814,0.420358,0.140357,-8.71661,0.0297348,
2,0,0,1,0,66162.9,0.0285649,0.0282524,-1.57881,34,0.00303305,10,-4.4605e-05,-2.80167,0.489405,0.120554,-7.43045,0.0282524,
2,0,0,1,0,66163,0.0270667,0.0267579,-1.57122,34,0.00291395,10,-4.20424e-05,-2.80376,0.488062,0.120886,-7.40087,0.0267579,
2,0,0,1,0,66163,0.0255685,0.0252411,-1.55759,34,0.0027957,10,-3.93154e-05,-2.80755,0.43008,0.137184,-8.34052,0.0252411,
2,0,0,1,0,66163.1,0.0240704,0.0237206,-1.54362,34,0.0026784,10,-3.66156e-05,-2.81146,0.450516,0.130961,-7.90962,0.0237206,
2,0,0,1,0,66163.2,0.0225722,0.022223,-1.53252,34,0.00256194,10,-3.40573e-05,-2.81459,0.555845,0.106145,-6.35479,0.022223,
2,0,0,1,0,66163.3,0.021074,0.0207629,-1.52614,34,0.00244622,10,-3.16872e-05,-2.81641,0.583001,0.1012,-6.02659,0.0207629,
2,0,0,1,0,66163.3,0.0195758,0.0192412,-1.51717,34,0.00233124,10,-2.91922e-05,-2.81897,0.539495,0.109362,-6.46821,0.0192412,
2,0,0,1,0,66163.4,0.018078,0.017751,-1.50308,34,0.00221693,10,-2.66811e-05,-2.82302,0.577274,0.102204,-6.00736,0.017751,
2,0,0,1,0,66163.5,0.0165785,0.0162414,-1.49722,34,0.00210326,10,-2.43168e-05,-2.82472,0.780249,0.0756169,-4.42213,0.0162414,
2,0,0,1,0,66163.6,0.015083,0.014744,-1.49376,34,0.00199042,10,-2.20241e-05,-2.82572,0.799994,0.0737505,-4.28784,0.014744,
2,0,0,1,0,66163.6,0.013583,0.0132519,-1.48203,34,0.00187776,10,-1.96397e-05,-2.82914,0.621154,0.0949845,-5.49356,0.0132519,
2,0,0,1,0,66163.7,0.0120848,0.0117466,-1.47221,34,0.00176583,10,-1.72936e-05,-2.83203,0.665729,0.0886247,-5.10385,0.0117466,
2,0,0,1,0,66163.8,0.0105866,0.0102595,-1.46804,34,0.00165459,10,-1.50614e-05,-2.83326,0.840765,0.0701742,-4.02544,0.0102595,
2,0,0,1,0,66163.9,0.00908846,0.00882248,-1.46344,34,0.00154374,10,-1.29111e-05,-2.83463,0.957096,0.0616448,-3.52212,0.00882248,
2,0,0,1,0,66163.9,0.00759027,0.0072843,-1.45895,34,0.00143316,10,-1.06274e-05,-2.83596,1.04766,0.0563162,-3.20581,0.0072843,
2,0,0,1,0,66164,0.00609207,0.00577645,-1.45637,34,0.00132293,10,-8.41268e-06,-2.83673,1.25334,0.0470742,-2.67031,0.00577645,
2,0,0,1,0,66164.1,0.00459389,0.00429986,-1.45139,34,0.00121306,10,-6.24076e-06,-2.83822,1.95113,0.0302388,-1.71314,0.00429986,
2,0,0,1,0,66164.2,0.00309391,0.0027854,-1.44897,34,0.00110323,10,-4.03597e-06,-2.83894,-1.37522,-0.0429023,2.43444,0.0027854,
2,0,0,1,0,66164.2,0.0015984,0.00124461,-1.46285,34,0.000992941,10,-1.82067e-06,-2.8348, , , ,0.00124461,
2,0,0,1,0,66164.3,0.000199195,-0.000150151,-1.45126,34,0.000889869,10,2.17909e-07,-2.83825, , , ,-0.000150151,