File: Figure_codes/Fig_3-5/rawdata_trumpetplot_data/after 10th/20221101_1-115_003_TrumpetPlot_ParaChange_from10_every3_10_CV_C01_6.csv
mode,ox/red,error,control changes,counter inc.,time/s,control/V,Ewe/V,<I>/mA,cycle number,(Q-Qo)/C,I Range,P/W,log(|I|),Tafel slope mV/dec,alpha_eff,dI/d(E-IR),E-IR/V,
2,1,0,0,0,13011.3,-2.44065e-05,-0.000478022,5.23373,7,0.0000000E+000,10,-2.50184e-06,-2.28119, , , ,-0.000478022,
2,1,0,1,0,13011.3,0.00179726,0.00141401,6.15137,7,5.07027e-05,10,8.69808e-06,-2.21103, , , ,0.00141401,
2,1,0,1,0,13011.3,0.00379485,0.00346271,6.90067,7,0.000116355,10,2.3895e-05,-2.16111,0.0495308,1.19118,314.793,0.00346271,
2,1,0,1,0,13011.3,0.00579244,0.00548199,7.43194,7,0.000188195,10,4.07418e-05,-2.1289,0.0690849,0.854022,245.899,0.00548199,
2,1,0,1,0,13011.3,0.00779002,0.00743049,7.87634,7,0.000264855,10,5.85251e-05,-2.10368,0.0884696,0.666896,203.827,0.00743049,
2,1,0,1,0,13011.4,0.00977853,0.00947081,8.24497,7,0.000344783,10,7.80865e-05,-2.08381,0.112309,0.525337,168.388,0.00947081,
2,1,0,1,0,13011.4,0.0117761,0.0114871,8.55943,7,0.000428856,10,9.83232e-05,-2.06756,0.135916,0.43409,144.448,0.0114871,
2,1,0,1,0,13011.4,0.0137737,0.0134115,8.81419,7,0.000515775,10,0.000118211,-2.05482,0.160198,0.368295,126.6,0.0134115,
2,1,0,1,0,13011.4,0.0157713,0.0154503,9.06117,7,0.0006052,10,0.000139998,-2.04282,0.183383,0.321731,113.549,0.0154503,
2,1,0,1,0,13011.4,0.017778,0.0174823,9.27642,7,0.000696963,10,0.000162173,-2.03262,0.216614,0.272374,98.3898,0.0174823,
2,1,0,1,0,13011.4,0.0197755,0.0194379,9.4535,7,0.000790597,10,0.000183756,-2.02441,0.252702,0.233477,86.0912,0.0194379,
2,1,0,1,0,13011.4,0.0217731,0.0214984,9.62218,7,0.000886035,10,0.000206862,-2.01673,0.268199,0.219986,82.5934,0.0214984,
2,1,0,1,0,13011.4,0.0237707,0.0234991,9.78893,7,0.000983104,10,0.000230031,-2.00926,0.280312,0.21048,80.3353,0.02349912,
2,1,0,1,0,13011.4,0.0257774,0.0254452,9.93924,7,0.00108177,10,0.000252906,-2.00265,0.293725,0.200868,77.9292,0.02544516,
2,1,0,1,0,13011.4,0.027775,0.027419,10.0944,7,0.00118193,10,0.000276778,-1.99592,0.320687,0.18398,72.4024,0.02741896,
2,1,0,1,0,13011.5,0.0297726,0.0294544,10.2295,7,0.00128359,10,0.000301304,-1.99014,0.343913,0.171555,68.5014,0.0294544,
2,1,0,1,0,13011.5,0.0317701,0.0314351,10.3695,7,0.00138661,10,0.000325967,-1.98424,0.328951,0.179358,72.6056,0.0314351,
2,1,0,1,0,13011.5,0.0337586,0.0334131,10.5169,7,0.00148999,10,0.000351404,-1.97811,0.332576,0.177403,72.7897,0.0334131,
2,1,0,1,0,13011.5,0.0357562,0.0354085,10.6587,7,0.00159585,10,0.00037741,-1.97229,0.378798,0.155756,64.7165,0.0354085,
2,1,0,1,0,13011.5,0.0377538,0.0374334,10.7771,7,0.00170309,10,0.000403424,-1.9675,0.365953,0.161223,67.9123,0.0374334,
2,1,0,1,0,13011.5,0.0397514,0.0393906,10.9292,7,0.00181163,10,0.000430507,-1.96141,0.326952,0.180454,76.9679,0.0393906,
2,1,0,1,0,13011.5,0.0417399,0.0413969,11.0822,7,0.00192057,10,0.000458769,-1.95537,0.34738,0.169843,73.4162,0.0413969,
2,1,0,1,0,13011.5,0.0437375,0.0434072,11.2241,7,0.00203208,10,0.000487205,-1.94985,0.383485,0.153852,67.3482,0.0434072,
2,1,0,1,0,13011.5,0.0457351,0.0454027,11.352,7,0.00214495,10,0.00051541,-1.94493,0.372403,0.15843,70.2616,0.04540268,
2,1,0,1,0,13011.5,0.0477327,0.0473956,11.5043,7,0.00225924,10,0.000545252,-1.93914,0.344842,0.171093,76.8192,0.0473956,
2,1,0,1,0,13011.6,0.0497393,0.0493963,11.6588,7,0.00237503,10,0.000575899,-1.93335,0.361326,0.163287,74.259,0.0493963,
2,1,0,1,0,13011.6,0.0517369,0.0514143,11.8027,7,0.00249232,10,0.000606829,-1.92802,0.369654,0.159609,73.5262,0.0514143,
2,1,0,1,0,13011.6,0.0537345,0.0533578,11.95,7,0.00261107,10,0.000637627,-1.92263,0.361821,0.163064,76.072,0.0533578,
2,1,0,1,0,13011.6,0.0557321,0.055401,12.106,7,0.0027314,10,0.000670683,-1.917,0.375474,0.157135,74.2001,0.055401,
2,1,0,1,0,13011.6,0.0577297,0.0574043,12.2503,7,0.00285323,10,0.000703218,-1.91185,0.357003,0.165265,79.0995,0.0574043,
2,1,0,1,0,13011.6,0.0597364,0.0594119,12.4232,7,0.00297667,10,0.000738089,-1.90576,0.368302,0.160195,77.5592,0.0594119,
2,1,0,1,0,13011.6,0.0617339,0.0614291,12.5624,7,0.00310164,10,0.000771699,-1.90093,0.391389,0.150745,73.9423,0.0614291,
2,1,0,1,0,13011.6,0.0637315,0.0633578,12.715,7,0.00322806,10,0.000805595,-1.89568,0.388597,0.151828,75.3141,0.06335777,
2,1,0,1,0,13011.6,0.0657291,0.0653741,12.8596,7,0.00335597,10,0.000840682,-1.89077,0.383958,0.153663,77.1845,0.0653741,
2,1,0,1,0,13011.6,0.0677176,0.0674052,13.0274,7,0.00348419,10,0.000878116,-1.88514,0.39122,0.15081,76.5742,0.0674052,
2,1,0,1,0,13011.7,0.0697152,0.0693275,13.1623,7,0.00361515,10,0.000912508,-1.88067,0.398547,0.148038,76.1371,0.0693275,
2,1,0,1,0,13011.7,0.0717128,0.0713849,13.3304,7,0.00374763,10,0.000951591,-1.87516,0.390806,0.15097,78.4875,0.0713849,
2,1,0,1,0,13011.7,0.0737104,0.0733955,13.4816,7,0.00388169,10,0.000989486,-1.87026,0.394491,0.14956,78.7254,0.0733955,
2,1,0,1,0,13011.7,0.0756989,0.0753949,13.6461,7,0.00401602,10,0.00102885,-1.86499,0.418266,0.141058,75.0285,0.0753949,
2,1,0,1,0,13011.7,0.0776965,0.0773392,13.7775,7,0.00415315,10,0.00106554,-1.86083,0.443968,0.132892,71.5087,0.0773392,
2,1,0,1,0,13011.7,0.0796941,0.0793712,13.9304,7,0.00429172,10,0.00110568,-1.85604,0.44656,0.132121,71.7856,0.0793712,
2,1,0,1,0,13011.7,0.0816916,0.0813797,14.0675,7,0.00443175,10,0.00114481,-1.85178,0.451559,0.130659,71.7627,0.0813797,
2,1,0,1,0,13011.7,0.0836983,0.0833674,14.2172,7,0.00457318,10,0.00118525,-1.84719,0.45294,0.13026,72.2415,0.0833674,
2,1,0,1,0,13011.7,0.0856959,0.0853542,14.3546,7,0.00471603,10,0.00122523,-1.84301,0.482867,0.122187,68.4459,0.0853542,
2,1,0,1,0,13011.7,0.0876935,0.0873635,14.4907,7,0.00486027,10,0.00126596,-1.83891,0.526309,0.112102,63.357,0.0873635,
2,1,0,1,0,13011.8,0.0896911,0.0893773,14.6095,7,0.00500581,10,0.00130576,-1.83536,0.497189,0.118667,67.7381,0.0893773,
2,1,0,1,0,13011.8,0.0916978,0.0913823,14.763,7,0.00515267,10,0.00134907,-1.83083,0.491239,0.120104,69.1263,0.0913823,
2,1,0,1,0,13011.8,0.0936953,0.0933839,14.8865,7,0.00530099,10,0.00139016,-1.82721,0.542219,0.108812,63.2242,0.0933839,
2,1,0,1,0,13011.8,0.0956929,0.0953551,15.0141,7,0.00545053,10,0.00143167,-1.8235,0.538129,0.109639,64.2456,0.0953551,
2,1,0,1,0,13011.8,0.0976905,0.0973844,15.1435,7,0.00560137,10,0.00147474,-1.81977,0.491289,0.120092,71.027,0.0973844,
2,1,0,1,0,13011.8,0.099679,0.0993224,15.2959,7,0.00575201,10,0.00151923,-1.81542,0.50523,0.116779,69.6385,0.0993224,
2,1,0,1,0,13011.8,0.101677,0.101315,15.4173,7,0.0059056,10,0.00156201,-1.81199,0.522043,0.113017,68.0709,0.101315,
2,1,0,1,0,13011.8,0.103674,0.103363,15.571,7,0.00606055,10,0.00160947,-1.80768,0.474195,0.124422,75.6024,0.103363,
2,1,0,1,0,13011.8,0.105672,0.105358,15.7229,7,0.00621704,10,0.00165653,-1.80347,0.442997,0.133184,81.7789,0.105358,
2,1,0,1,0,13011.8,0.107656,0.107352,15.8972,7,0.00637354,10,0.0017066,-1.79868,0.418908,0.140842,87.3803,0.107352,
2,1,0,1,0,13011.9,0.109658,0.109359,16.0725,7,0.00653339,10,0.00175767,-1.79392,0.409826,0.143963,90.3194,0.109359,
2,1,0,1,0,13011.9,0.111655,0.111316,16.2552,7,0.00669503,10,0.00180945,-1.78901,0.384494,0.153448,97.4065,0.111316,
2,1,0,1,0,13011.9,0.113653,0.113334,16.4596,7,0.00685863,10,0.00186543,-1.78358,0.358012,0.164799,105.887,0.113334,
2,1,0,1,0,13011.9,0.115651,0.115268,16.6737,7,0.00702428,10,0.00192195,-1.77797,0.338267,0.174418,113.568,0.115268,
2,1,0,1,0,13011.9,0.117657,0.117302,16.9103,7,0.00719225,10,0.00198362,-1.77185,0.334227,0.176527,116.501,0.117302,
2,1,0,1,0,13011.9,0.119655,0.11935,17.1493,7,0.00736256,10,0.00204677,-1.76575,0.335911,0.175642,117.525,0.11935,
2,1,0,1,0,13011.9,0.121652,0.121315,17.3819,7,0.00753522,10,0.00210868,-1.7599,0.330684,0.178418,121.08,0.121315,
2,1,0,1,0,13011.9,0.12365,0.123325,17.6305,7,0.00771031,10,0.00217428,-1.75373,0.319153,0.184865,127.24,0.123325,
2,1,0,1,0,13011.9,0.125657,0.125332,17.893,7,0.00788803,10,0.00224256,-1.74732,0.321848,0.183316,127.939,0.125332,
2,1,0,1,0,13011.9,0.127654,0.127289,18.1377,7,0.00806821,10,0.00230873,-1.74142,0.338299,0.174402,123.449,0.127289,
2,1,0,1,0,13012,0.129652,0.129307,18.3838,7,0.00825086,10,0.00237715,-1.73556,0.342749,0.172137,123.512,0.129307,
2,1,0,1,0,13012,0.131649,0.131316,18.6351,7,0.008436,10,0.0024471,-1.72967,0.358521,0.164565,119.604,0.131316,
2,1,0,1,0,13012,0.133638,0.133322,18.864,7,0.00862173,10,0.00251497,-1.72437,0.366882,0.160815,118.42,0.133322,
2,1,0,1,0,13012,0.135636,0.135273,19.1037,7,0.00881159,10,0.00258422,-1.71888,0.39033,0.151154,112.598,0.135273,
2,1,0,1,0,13012,0.137633,0.137307,19.3127,7,0.00900368,10,0.00265177,-1.71416,0.421736,0.139898,105.456,0.137307,
2,1,0,1,0,13012,0.139631,0.139298,19.5281,7,0.00919791,10,0.00272021,-1.70934,0.430236,0.137134,104.458,0.1392976,
2,1,0,1,0,13012,0.141619,0.141251,19.7247,7,0.0093922,10,0.00278614,-1.70499,0.457376,0.128997,99.3163,0.141251,
2,1,0,1,0,13012,0.143617,0.143333,19.9288,7,0.00959046,10,0.00285645,-1.70052,0.498495,0.118356,91.9675,0.143333,
2,1,0,1,0,13012,0.145614,0.145301,20.0972,7,0.0097906,10,0.00292015,-1.69686,0.550218,0.10723,84.0926,0.145301,
2,1,0,1,0,13012,0.147612,0.147283,20.261,7,0.00999237,10,0.0029841,-1.69334,0.57685,0.10228,80.8631,0.147283,
2,1,0,1,0,13012.1,0.149619,0.149291,20.4198,7,0.0101958,10,0.00304848,-1.68995,0.62935,0.0937476,74.6761,0.149291,
2,1,0,1,0,13012.1,0.151616,0.151302,20.5611,7,0.0104007,10,0.00311093,-1.68695,0.805403,0.0732552,58.7129,0.151302,
2,1,0,1,0,13012.1,0.153614,0.153282,20.6541,7,0.0106068,10,0.00316589,-1.68499,1.05494,0.0559275,45.0754,0.153282,
2,1,0,1,0,13012.1,0.155611,0.155316,20.7421,7,0.0108139,10,0.00322158,-1.68315,1.36435,0.0432441,34.9756,0.155316,
2,1,0,1,0,13012.1,0.157618,0.157286,20.7941,7,0.0110216,10,0.00327062,-1.68206,4.96683,0.0118788,9.62478,0.157286,
2,1,0,1,0,13012.1,0.159616,0.159314,20.7805,7,0.0112295,10,0.00331063,-1.68234,-2.06905,-0.0285154,-23.0892,0.159314,
2,1,0,1,0,13012.1,0.161613,0.161329,20.7008,7,0.0114369,10,0.00333963,-1.68401,-0.861091,-0.0685177,-55.2746,0.161329,
2,1,0,1,0,13012.1,0.163611,0.163276,20.5616,7,0.0116433,10,0.0033572,-1.68694,-0.509917,-0.115705,-92.6394,0.163276,
2,1,0,1,0,13012.1,0.165618,0.16532,20.3311,7,0.0118478,10,0.00336112,-1.69184,-0.351412,-0.167894,-132.974,0.16532,
2,1,0,1,0,13012.1,0.167597,0.167282,20.0288,7,0.0120476,10,0.00335046,-1.69834,-0.256245,-0.230249,-179.47,0.167282,
2,1,0,1,0,13012.1,0.169595,0.169293,19.618,7,0.0122459,10,0.00332119,-1.70734,-0.199276,-0.296071,-226.166,0.169293,
2,1,0,1,0,13012.2,0.171592,0.171278,19.125,7,0.0124396,10,0.00327569,-1.7184,-0.164234,-0.359243,-267.52,0.1712784,
2,1,0,1,0,13012.2,0.173572,0.173269,18.5541,7,0.012626,10,0.00321486,-1.73156,-0.142046,-0.415359,-300.225,0.173269,
2,1,0,1,0,13012.2,0.175578,0.175261,17.9294,7,0.0128085,10,0.00314232,-1.74643,-0.126326,-0.467046,-326.075,0.175261,
2,1,0,1,0,13012.2,0.177576,0.177298,17.2406,7,0.0129842,10,0.00305672,-1.76345,-0.114923,-0.513387,-345.117,0.177298,
2,1,0,1,0,13012.2,0.179573,0.179289,16.5392,7,0.013153,10,0.00296529,-1.78149,-0.106238,-0.555356,-358.197,0.179289,
2,1,0,1,0,13012.2,0.181571,0.181228,15.8328,7,0.0133148,10,0.00286935,-1.80044,-0.105821,-0.557545,-344.818,0.181228,
2,1,0,1,0,13012.2,0.183578,0.183247,15.1744,7,0.0134697,10,0.00278066,-1.81889,-0.107216,-0.550291,-325.722,0.183247,
2,1,0,1,0,13012.2,0.185575,0.18526,14.5196,7,0.0136181,10,0.00268989,-1.83805,-0.106468,-0.554157,-314.435,0.18526,
2,1,0,1,0,13012.2,0.187573,0.187231,13.9217,7,0.0137601,10,0.00260657,-1.85631,-0.111714,-0.528135,-287.271,0.187231,
2,1,0,1,0,13012.2,0.18957,0.189258,13.3711,7,0.0138965,10,0.00253058,-1.87383,-0.120547,-0.489434,-255.943,0.189258,
2,1,0,1,0,13012.3,0.191577,0.19126,12.8904,7,0.0140277,10,0.00246542,-1.88973,-0.126064,-0.468016,-235.553,0.19126,
2,1,0,1,0,13012.3,0.193575,0.193241,12.4328,7,0.0141542,10,0.00240253,-1.90543,-0.135125,-0.436634,-212.378,0.193241,
2,1,0,1,0,13012.3,0.195572,0.195239,12.0454,7,0.0142766,10,0.00235173,-1.91918,-0.147395,-0.400286,-188.279,0.195239,
2,1,0,1,0,13012.3,0.19757,0.197242,11.6795,7,0.0143951,10,0.00230368,-1.93258,-0.160002,-0.368746,-168.501,0.197242,
2,1,0,1,0,13012.3,0.199558,0.199197,11.3785,7,0.0145092,10,0.00226656,-1.94391,-0.180191,-0.32743,-145.463,0.199197,
2,1,0,1,0,13012.3,0.201556,0.201279,11.0923,7,0.0146215,10,0.00223264,-1.95498,-0.192824,-0.305978,-132.623,0.201279,
2,1,0,1,0,13012.3,0.203554,0.20327,10.8383,7,0.0147311,10,0.0022031,-1.96504,-0.202487,-0.291376,-123.345,0.20327,
2,1,0,1,0,13012.3,0.205551,0.205228,10.6051,7,0.0148382,10,0.00217647,-1.97448,-0.235346,-0.250694,-104.024,0.205228,
2,1,0,1,0,13012.3,0.20754,0.207206,10.4289,7,0.0149422,10,0.00216092,-1.98176,-0.249811,-0.236179,-95.977,0.207206,
2,1,0,1,0,13012.3,0.209537,0.209214,10.2226,7,0.0150454,10,0.00213871,-1.99044,-0.251987,-0.234139,-93.5631,0.209214,
2,1,0,1,0,13012.4,0.211535,0.211235,10.0519,7,0.0151467,10,0.00212331,-1.99775,-0.278252,-0.212038,-83.2179,0.211235,
2,1,0,1,0,13012.4,0.213532,0.213188,9.89189,7,0.0152464,10,0.00210883,-2.00472,-0.3073,-0.191995,-74.2151,0.213188,
2,1,0,1,0,13012.4,0.215539,0.215184,9.75885,7,0.0153446,10,0.00209994,-2.0106,-0.326057,-0.18095,-68.8647,0.215184,
2,1,0,1,0,13012.4,0.217537,0.217244,9.61257,7,0.0154414,10,0.00208827,-2.01716,-0.348605,-0.169246,-63.59,0.217244,
2,1,0,1,0,13012.4,0.219534,0.219301,9.49701,7,0.0155369,10,0.00208271,-2.02241,-0.359135,-0.164284,-60.855,0.219301,
2,1,0,1,0,13012.4,0.221532,0.221204,9.3716,7,0.0156313,10,0.00207303,-2.02819,-0.37802,-0.156076,-57.1631,0.2212038,
2,1,0,1,0,13012.4,0.223534,0.223219,9.27304,7,0.0157245,10,0.00206992,-2.03278,-0.428507,-0.137687,-49.8125,0.223219,
2,1,0,1,0,13012.4,0.225536,0.225268,9.16917,7,0.0158168,10,0.00206552,-2.03767,-0.46958,-0.125644,-45.0239,0.225268,
2,1,0,1,0,13012.4,0.227534,0.22725,9.09156,7,0.015908,10,0.00206606,-2.04136,-0.445712,-0.132372,-46.8918,0.22725,
2,1,0,1,0,13012.4,0.229531,0.229191,8.98519,7,0.0159984,10,0.00205933,-2.04647,-0.465639,-0.126707,-44.5178,0.229191,
2,1,0,1,0,13012.5,0.231529,0.231233,8.91423,7,0.0160879,10,0.00206127,-2.04992,-0.584319,-0.100972,-35.1301,0.231233,
2,1,0,1,0,13012.5,0.233517,0.233186,8.84486,7,0.0161758,10,0.00206249,-2.05331,-0.57646,-0.102349,-35.3255,0.233186,
2,1,0,1,0,13012.5,0.235515,0.235208,8.77382,7,0.0162638,10,0.00206367,-2.05681,-0.514545,-0.114664,-39.2268,0.235208,
2,1,0,1,0,13012.5,0.237512,0.237205,8.68719,7,0.016351,10,0.00206065,-2.06112,-0.587607,-0.100407,-34.1126,0.237205,
2,1,0,1,0,13012.5,0.23951,0.239213,8.63722,7,0.0164376,10,0.00206613,-2.06363,-0.705425,-0.0836375,-28.1726,0.239213,
2,1,0,1,0,13012.5,0.241499,0.241184,8.5751,7,0.0165228,10,0.00206818,-2.06676,-0.622889,-0.0947199,-31.6949,0.241184,
2,1,0,1,0,13012.5,0.243496,0.243191,8.51113,7,0.0166082,10,0.00206983,-2.07001,-0.653038,-0.0903469,-30.0225,0.243191,
2,1,0,1,0,13012.5,0.245494,0.245197,8.45463,7,0.016693,10,0.00207305,-2.07291,-0.772978,-0.0763281,-25.2026,0.245197,
2,1,0,1,0,13012.5,0.247491,0.247198,8.41013,7,0.0167772,10,0.00207897,-2.0752,-0.75107,-0.0785546,-25.7615,0.247198,
2,1,0,1,0,13012.5,0.249498,0.249195,8.35163,7,0.016861,10,0.00208118,-2.07823,-0.736945,-0.0800602,-26.1142,0.249195,
2,1,0,1,0,13012.6,0.251496,0.251191,8.30587,7,0.0169443,10,0.00208636,-2.08061,-0.768566,-0.0767663,-24.872,0.251191,
2,1,0,1,0,13012.6,0.253493,0.253187,8.25233,7,0.0170271,10,0.00208938,-2.08342,-0.761229,-0.0775063,-24.9732,0.253187,
2,1,0,1,0,13012.6,0.255491,0.25517,8.2065,7,0.0171094,10,0.00209405,-2.08584,-0.973875,-0.0605827,-19.4185,0.25517,
2,1,0,1,0,13012.6,0.257497,0.257229,8.17383,7,0.0171913,10,0.00210255,-2.08757,-1.12679,-0.052361,-16.7006,0.257229,
2,1,0,1,0,13012.6,0.259495,0.259225,8.13878,7,0.0172729,10,0.00210977,-2.08944,-0.821226,-0.0718438,-22.7912,0.259225,
2,1,0,1,0,13012.6,0.261493,0.261193,8.08349,7,0.017354,10,0.00211135,-2.0924,-0.85094,-0.0693351,-21.9061,0.261193,
2,1,0,1,0,13012.6,0.26349,0.26316,8.05257,7,0.0174347,10,0.00211912,-2.09407,-1.24531,-0.0473776,-14.8915,0.26316,
2,1,0,1,0,13012.6,0.265479,0.265174,8.02422,7,0.0175143,10,0.00212781,-2.0956,-1.14418,-0.0515654,-16.1396,0.265174,
2,1,0,1,0,13012.6,0.267476,0.267199,7.98738,7,0.0175943,10,0.00213422,-2.0976,-0.895352,-0.0658958,-20.5305,0.267199,
2,1,0,1,0,13012.6,0.269474,0.269163,7.94231,7,0.0176739,10,0.00213778,-2.10005,-1.05154,-0.0561083,-17.415,0.269163,
2,1,0,1,0,13012.7,0.271471,0.271137,7.91881,7,0.0177532,10,0.00214708,-2.10134,-1.50857,-0.0391099,-12.0861,0.271137,
2,1,0,1,0,13012.7,0.27346,0.273124,7.89444,7,0.0178314,10,0.00215616,-2.10268,-1.07731,-0.0547659,-16.8526,0.273124,
2,1,0,1,0,13012.7,0.275458,0.275164,7.85095,7,0.0179101,10,0.0021603,-2.10508,-0.975166,-0.0605025,-18.5523,0.275164,
2,1,0,1,0,13012.7,0.277455,0.277144,7.81985,7,0.0179885,10,0.00216723,-2.1068,-1.25063,-0.0471764,-14.4017,0.2771444,
2,1,0,1,0,13012.7,0.279453,0.279162,7.79336,7,0.0180665,10,0.00217561,-2.10828,-1.21978,-0.0483693,-14.7059,0.279162,
2,1,0,1,0,13012.7,0.281455,0.281152,7.76092,7,0.0181442,10,0.002182,-2.11009,-1.28127,-0.0460482,-13.9555,0.281152,
2,1,0,1,0,13012.7,0.283457,0.283153,7.73766,7,0.0182217,10,0.00219095,-2.11139,-1.27636,-0.0462252,-13.9502,0.283153,
2,1,0,1,0,13012.7,0.285455,0.285178,7.70476,7,0.018299,10,0.00219722,-2.11324,-1.0508,-0.0561475,-16.8809,0.285178,
2,1,0,1,0,13012.7,0.287452,0.287169,7.66988,7,0.0183758,10,0.00220255,-2.11521,-1.03353,-0.0570861,-17.0894,0.287169,
2,1,0,1,0,13012.7,0.28945,0.28916,7.6367,7,0.0184524,10,0.00220823,-2.11709,-1.71747,-0.0343529,-10.2554,0.28916,
2,1,0,1,0,13012.8,0.291456,0.291156,7.62899,7,0.0185288,10,0.00222123,-2.11753,-1.20159,-0.0491016,-14.5781,0.291156,
2,1,0,1,0,13012.8,0.293454,0.293164,7.57833,7,0.0186048,10,0.00222169,-2.12043,-1.15478,-0.0510919,-15.1505,0.293164,
2,1,0,1,0,13012.8,0.295452,0.295213,7.56752,7,0.0186805,10,0.00223403,-2.12105,-1.6252,-0.0363033,-10.7069,0.295213,
2,1,0,1,0,13012.8,0.297449,0.297124,7.53594,7,0.018756,10,0.00223911,-2.12286,-1.53153,-0.0385235,-11.344,0.297124,
2,1,0,1,0,13012.8,0.299438,0.299125,7.52314,7,0.0188306,10,0.00225036,-2.1236,-0.0601462,-0.980943,-275.765,0.299125,
2,1,0,1,0,13012.8,0.299746,0.2995,6.88062,7,0.0188621,10,0.00206075,-2.16237,0.00536715,10.9928,2324,0.2995,
2,1,0,1,0,13012.8,0.29774,0.2975,3.74636,7,0.0189133,10,0.00111454,-2.42639,0.00713102,8.27371,1243.73,0.2975,
2,1,0,1,0,13012.8,0.295742,0.295477,1.87699,7,0.0189406,10,0.000554607,-2.72654,0.00509298,11.5846,774.426,0.295477,
2,1,0,1,0,13012.8,0.293745,0.293431,0.595196,7,0.0189523,10,0.000174649,-3.22534,0.00497321,11.8636,537.256,0.2934311,
2,0,0,1,0,13012.8,0.291747,0.291443,-0.290016,7,0.0189536,10,-8.45232e-05,-3.53758,-0.0188875,-3.12376,390.959,0.291443,
2,0,0,1,0,13012.9,0.289745,0.289429,-0.969529,7,0.018947,10,-0.00028061,-3.01344,-0.00568603,-10.3763,294.166,0.289429,
2,0,0,1,0,13012.9,0.287743,0.287439,-1.46812,7,0.0189347,10,-0.000421994,-2.83324,-0.0140891,-4.18762,223.195,0.287439,
2,0,0,1,0,13012.9,0.285745,0.285451,-1.85739,7,0.0189179,10,-0.000530193,-2.7311,-0.0233811,-2.52341,177.049,0.285451,
2,0,0,1,0,13012.9,0.283748,0.283454,-2.17349,7,0.0188976,10,-0.000616087,-2.66284,-0.0334985,-1.76128,146.988,0.283454,
2,0,0,1,0,13012.9,0.28175,0.281443,-2.44644,7,0.0188744,10,-0.000688534,-2.61147,-0.0454116,-1.29923,122.1,0.281443,
2,0,0,1,0,13012.9,0.279761,0.279479,-2.65892,7,0.0188491,10,-0.000743112,-2.57529,-0.0596372,-0.989315,102.091,0.279479,
2,0,0,1,0,13012.9,0.277764,0.277468,-2.85226,7,0.0188215,10,-0.000791412,-2.54481,-0.0733692,-0.804152,88.9799,0.277468,
2,0,0,1,0,13012.9,0.275766,0.27543,-3.01919,7,0.0187921,10,-0.000831576,-2.52011,-0.0882296,-0.66871,78.4717,0.27543,
2,0,0,1,0,13012.9,0.273769,0.273458,-3.16692,7,0.0187611,10,-0.000866022,-2.49936,-0.100902,-0.584724,72.1115,0.273458,
2,0,0,1,0,13012.9,0.27178,0.271464,-3.30517,7,0.0187291,10,-0.000897235,-2.48081,-0.114759,-0.514119,66.1628,0.271464,
2,0,0,1,0,13013,0.269783,0.269457,-3.43164,7,0.0186954,10,-0.00092468,-2.4645,-0.131546,-0.448513,59.911,0.269457,
2,0,0,1,0,13013,0.267785,0.267495,-3.54297,7,0.0186605,10,-0.000947727,-2.45063,-0.149681,-0.394171,54.4374,0.267495,
2,0,0,1,0,13013,0.265787,0.265482,-3.64805,7,0.0186245,10,-0.000968491,-2.43794,-0.164044,-0.35966,51.1575,0.265482,
2,0,0,1,0,13013,0.263781,0.263483,-3.74821,7,0.0185875,10,-0.000987589,-2.42618,-0.174416,-0.338271,49.4739,0.263483,
2,0,0,1,0,13013,0.261783,0.261423,-3.84885,7,0.0185495,10,-0.00100618,-2.41467,-0.203243,-0.290293,43.4364,0.261423,
2,0,0,1,0,13013,0.259786,0.259503,-3.92111,7,0.0185107,10,-0.00101754,-2.40659,-0.206458,-0.285772,43.8894,0.259503,
2,0,0,1,0,13013,0.257788,0.257455,-4.02302,7,0.018471,10,-0.00103575,-2.39545,-0.206235,-0.286082,44.775,0.257455,
2,0,0,1,0,13013,0.255781,0.255486,-4.10093,7,0.0184304,10,-0.00104773,-2.38712,-0.245552,-0.240275,38.4391,0.255486,
2,0,0,1,0,13013,0.253784,0.253466,-4.17636,7,0.0183889,10,-0.00105856,-2.3792,-0.272633,-0.216408,35.2296,0.253466,
2,0,0,1,0,13013,0.251786,0.251469,-4.24245,7,0.0183468,10,-0.00106685,-2.37238,-0.268779,-0.219511,36.395,0.251469,
2,0,0,1,0,13013.1,0.249789,0.249486,-4.3212,7,0.0183039,10,-0.00107808,-2.3644,-0.261358,-0.225744,38.0367,0.249486,
2,0,0,1,0,13013.1,0.2478,0.247505,-4.39323,7,0.0182608,10,-0.00108735,-2.35722,-0.282371,-0.208945,35.8139,0.247505,
2,0,0,1,0,13013.1,0.245802,0.245515,-4.46343,7,0.0182165,10,-0.00109584,-2.35033,-0.312346,-0.188893,32.8662,0.245515,
2,0,0,1,0,13013.1,0.243805,0.243526,-4.52403,7,0.0181716,10,-0.00110172,-2.34447,-0.34077,-0.173137,30.5675,0.243526,
2,0,0,1,0,13013.1,0.241807,0.241546,-4.58474,7,0.018126,10,-0.00110743,-2.33868,-0.329392,-0.179118,32.0735,0.241546,
2,0,0,1,0,13013.1,0.239819,0.239504,-4.65301,7,0.0180804,10,-0.00111441,-2.33227,-0.331284,-0.178095,32.3197,0.2395042,
2,0,0,1,0,13013.1,0.237821,0.23749,-4.71584,7,0.0180335,10,-0.00111996,-2.32644,-0.382059,-0.154426,28.3846,0.23749,
2,0,0,1,0,13013.1,0.235824,0.235491,-4.76693,7,0.0179861,10,-0.00112257,-2.32176,-0.401293,-0.147025,27.372,0.235491,
2,0,0,1,0,13013.1,0.233826,0.233491,-4.8253,7,0.0179381,10,-0.00112666,-2.31648,-0.378797,-0.155756,29.3303,0.233491,
2,0,0,1,0,13013.1,0.231824,0.231508,-4.88376,7,0.0178896,10,-0.00113063,-2.31125,-0.364438,-0.161893,30.87,0.231508,
2,0,0,1,0,13013.2,0.229822,0.229548,-4.94703,7,0.0178404,10,-0.00113558,-2.30566,-0.439122,-0.134359,25.8785,0.229548,
2,0,0,1,0,13013.2,0.227824,0.227515,-4.98708,7,0.0177908,10,-0.00113463,-2.30215,-0.420098,-0.140443,27.4154,0.227515,
2,0,0,1,0,13013.2,0.225827,0.225534,-5.05706,7,0.0177405,10,-0.00114054,-2.2961,-0.423938,-0.139171,27.3838,0.225534,
2,0,0,1,0,13013.2,0.223829,0.223508,-5.0968,7,0.0176898,10,-0.00113918,-2.2927,-0.465892,-0.126639,25.2417,0.223508,
2,0,0,1,0,13013.2,0.221822,0.221543,-5.1578,7,0.0176384,10,-0.00114267,-2.28754,-0.426747,-0.138255,27.7997,0.221543,
2,0,0,1,0,13013.2,0.219825,0.219506,-5.20806,7,0.0175866,10,-0.0011432,-2.28332,-0.431004,-0.13689,27.8536,0.219506,
2,0,0,1,0,13013.2,0.217827,0.217515,-5.27,7,0.0175341,10,-0.0011463,-2.27819,-0.483385,-0.122056,25.0445,0.217515,
2,0,0,1,0,13013.2,0.21583,0.215535,-5.30751,7,0.0174812,10,-0.00114395,-2.27511,-0.445167,-0.132535,27.5414,0.215535,
2,0,0,1,0,13013.2,0.213841,0.213531,-5.37973,7,0.0174283,10,-0.00114874,-2.26924,-0.430493,-0.137052,28.6935,0.213531,
2,0,0,1,0,13013.2,0.211844,0.211544,-5.42203,7,0.0173743,10,-0.001147,-2.26584,-0.519749,-0.113516,24.0462,0.211544,
2,0,0,1,0,13013.3,0.209846,0.209521,-5.47616,7,0.0173198,10,-0.00114737,-2.26152,-0.483053,-0.12214,26.0926,0.209521,
2,0,0,1,0,13013.3,0.207848,0.207555,-5.5261,7,0.0172648,10,-0.00114697,-2.25758,-0.398238,-0.148153,32.028,0.207555,
2,0,0,1,0,13013.3,0.20586,0.205561,-5.60298,7,0.0172097,10,-0.00115175,-2.25158,-0.447434,-0.131863,28.7332,0.205561,
2,0,0,1,0,13013.3,0.203862,0.203554,-5.64107,7,0.0171535,10,-0.00114826,-2.24864,-0.557887,-0.105756,23.3186,0.203554,
2,0,0,1,0,13013.3,0.201865,0.201535,-5.69685,7,0.0170968,10,-0.00114812,-2.24437,-0.511674,-0.115308,25.6162,0.201535,
2,0,0,1,0,13013.3,0.199867,0.199538,-5.74395,7,0.0170396,10,-0.00114614,-2.24079,-0.452579,-0.130364,29.2819,0.199538,
2,0,0,1,0,13013.3,0.19786,0.197521,-5.8144,7,0.0169818,10,-0.00114847,-2.2355,-0.469065,-0.125782,28.4758,0.197521,
2,0,0,1,0,13013.3,0.195863,0.195526,-5.85819,7,0.0169235,10,-0.00114543,-2.23224,-0.483341,-0.122067,27.967,0.195526,
2,0,0,1,0,13013.3,0.193865,0.193488,-5.92718,7,0.0168645,10,-0.00114684,-2.22715,-0.461147,-0.127942,29.5437,0.193488,
2,0,0,1,0,13013.3,0.191868,0.191544,-5.97584,7,0.0168051,10,-0.00114464,-2.2236,-0.447479,-0.13185,30.8114,0.191544,
2,0,0,1,0,13013.4,0.189861,0.189539,-6.04887,7,0.0167449,10,-0.00114649,-2.21833,-0.42822,-0.13778,32.4812,0.189539,
2,0,0,1,0,13013.4,0.187863,0.187539,-6.10592,7,0.0166841,10,-0.0011451,-2.21425,-0.451095,-0.130793,31.1933,0.187539,
2,0,0,1,0,13013.4,0.185866,0.185539,-6.17363,7,0.0166227,10,-0.00114545,-2.20946,-0.445799,-0.132347,31.8666,0.185539,
2,0,0,1,0,13013.4,0.183868,0.183526,-6.23379,7,0.0165607,10,-0.00114406,-2.20525,-0.375757,-0.157016,38.2939,0.183526,
2,0,0,1,0,13013.4,0.18188,0.181579,-6.32527,7,0.0164986,10,-0.00114854,-2.19892,-0.374006,-0.157751,38.8532,0.181579,
2,0,0,1,0,13013.4,0.179882,0.179542,-6.38861,7,0.016435,10,-0.00114702,-2.19459,-0.427245,-0.138094,34.46,0.179542,
2,0,0,1,0,13013.4,0.177885,0.177573,-6.46332,7,0.0163708,10,-0.00114771,-2.18954,-0.399554,-0.147665,37.2438,0.177573,
2,0,0,1,0,13013.4,0.175887,0.175548,-6.53736,7,0.0163058,10,-0.00114762,-2.1846,-0.360245,-0.163777,41.8455,0.1755476,
2,0,0,1,0,13013.4,0.173908,0.173564,-6.63107,7,0.0162406,10,-0.00115092,-2.17842,-0.322021,-0.183218,47.4101,0.173564,
2,0,0,1,0,13013.4,0.171901,0.171605,-6.7243,7,0.0161738,10,-0.00115392,-2.17235,-0.330347,-0.1786,46.8649,0.171605,
2,0,0,1,0,13013.5,0.169903,0.169597,-6.817,7,0.0161061,10,-0.00115614,-2.16641,-0.323281,-0.182504,48.5812,0.169597,
2,0,0,1,0,13013.5,0.167906,0.167614,-6.91815,7,0.0160375,10,-0.00115958,-2.16001,-0.291171,-0.20263,54.7802,0.167614,
2,0,0,1,0,13013.5,0.165908,0.165553,-7.03853,7,0.0159676,10,-0.00116525,-2.15252,-0.281412,-0.209657,57.5508,0.165553,
2,0,0,1,0,13013.5,0.163901,0.16358,-7.15033,7,0.0158967,10,-0.00116965,-2.14567,-0.262921,-0.224402,62.7222,0.16358,
2,0,0,1,0,13013.5,0.161904,0.161595,-7.28679,7,0.0158244,10,-0.00117751,-2.13746,-0.246246,-0.239598,68.1333,0.161595,
2,0,0,1,0,13013.5,0.159906,0.15956,-7.4242,7,0.0157509,10,-0.00118461,-2.12935,-0.232413,-0.253858,73.6379,0.15956,
2,0,0,1,0,13013.5,0.157909,0.157606,-7.58055,7,0.0156759,10,-0.00119474,-2.1203,-0.212409,-0.277765,82.2318,0.157606,
2,0,0,1,0,13013.5,0.155902,0.155603,-7.7496,7,0.0155992,10,-0.00120586,-2.11072,-0.195039,-0.302503,91.6538,0.155603,
2,0,0,1,0,13013.5,0.153904,0.153582,-7.94936,7,0.0155206,10,-0.00122088,-2.09967,-0.187989,-0.313849,97.2827,0.153582,
2,0,0,1,0,13013.5,0.151907,0.151607,-8.13836,7,0.0154402,10,-0.00123383,-2.08946,-0.178876,-0.329838,105.008,0.151607,
2,0,0,1,0,13013.6,0.149909,0.149582,-8.36936,7,0.0153576,10,-0.00125191,-2.07731,-0.158902,-0.371299,121.389,0.149582,
2,0,0,1,0,13013.6,0.147921,0.147636,-8.62037,7,0.0152735,10,-0.00127268,-2.06447,-0.149757,-0.393973,132.692,0.147636,
2,0,0,1,0,13013.6,0.145923,0.145612,-8.89611,7,0.0151858,10,-0.00129538,-2.0508,-0.144039,-0.40961,142.31,0.145612,
2,0,0,1,0,13013.6,0.143926,0.143632,-9.19022,7,0.0150954,10,-0.00132001,-2.03667,-0.133244,-0.442798,159.215,0.143632,
2,0,0,1,0,13013.6,0.141928,0.141581,-9.53798,7,0.0150018,10,-0.0013504,-2.02054,-0.123456,-0.477905,177.963,0.141581,
2,0,0,1,0,13013.6,0.139939,0.139632,-9.902,7,0.0149056,10,-0.00138264,-2.00428,-0.118208,-0.499122,193.047,0.139632,
2,0,0,1,0,13013.6,0.137942,0.137673,-10.2925,7,0.0148046,10,-0.00141699,-1.98748,-0.116854,-0.504903,202.968,0.1376725,
2,0,0,1,0,13013.6,0.135944,0.135654,-10.7094,7,0.0146995,10,-0.00145278,-1.97023,-0.112267,-0.525532,220.057,0.135654,
2,0,0,1,0,13013.6,0.133947,0.133647,-11.1784,7,0.01459,10,-0.00149395,-1.95162,-0.110027,-0.536232,233.776,0.133647,
2,0,0,1,0,13013.6,0.13194,0.131651,-11.6452,7,0.014476,10,-0.00153311,-1.93385,-0.112176,-0.525961,239.244,0.131651,
2,0,0,1,0,13013.7,0.129942,0.129604,-12.1456,7,0.0143569,10,-0.00157412,-1.91558,-0.112813,-0.522991,247.695,0.129604,
2,0,0,1,0,13013.7,0.127945,0.127638,-12.6394,7,0.0142329,10,-0.00161326,-1.89827,-0.113885,-0.518064,255.559,0.127638,
2,0,0,1,0,13013.7,0.125947,0.125684,-13.1474,7,0.0141039,10,-0.00165242,-1.88116,-0.11738,-0.502641,257.895,0.125684,
2,0,0,1,0,13013.7,0.123941,0.12365,-13.6677,7,0.0139699,10,-0.00169002,-1.8643,-0.123449,-0.477931,254.794,0.12365,
2,0,0,1,0,13013.7,0.121943,0.121606,-14.1864,7,0.0138305,10,-0.00172515,-1.84813,-0.134281,-0.439376,242.567,0.121606,
2,0,0,1,0,13013.7,0.119945,0.119662,-14.6352,7,0.0136862,10,-0.00175127,-1.8346,-0.137157,-0.430165,246.128,0.1196619,
2,0,0,1,0,13013.7,0.117948,0.117707,-15.146,7,0.0135373,10,-0.0017828,-1.8197,-0.141786,-0.41612,245.615,0.117707,
2,0,0,1,0,13013.7,0.115946,0.115636,-15.6239,7,0.0133834,10,-0.00180669,-1.80621,-0.155807,-0.378675,230.649,0.115636,
2,0,0,1,0,13013.7,0.113962,0.113669,-16.0775,7,0.0132263,10,-0.00182751,-1.79378,-0.168094,-0.350993,219.982,0.1136689,
2,0,0,1,0,13013.7,0.111964,0.111642,-16.5025,7,0.0130634,10,-0.00184238,-1.78245,-0.182112,-0.323976,208.507,0.111642,
2,0,0,1,0,13013.8,0.109967,0.109669,-16.9114,7,0.0128962,10,-0.00185466,-1.77182,-0.197747,-0.298361,196.717,0.109669,
2,0,0,1,0,13013.8,0.107969,0.107629,-17.2919,7,0.0127252,10,-0.00186112,-1.76216,-0.21602,-0.273123,184.173,0.107629,
2,0,0,1,0,13013.8,0.10598,0.105654,-17.6508,7,0.0125521,10,-0.00186489,-1.75323,-0.233076,-0.253136,174.165,0.1056544,
2,0,0,1,0,13013.8,0.103983,0.103727,-17.9717,7,0.012374,10,-0.00186414,-1.74541,-0.25679,-0.22976,161.081,0.103727,
2,0,0,1,0,13013.8,0.101985,0.101742,-18.2811,7,0.0121926,10,-0.00185995,-1.738,-0.295822,-0.199444,142.102,0.101742,
2,0,0,1,0,13013.8,0.0999877,0.0996983,-18.5441,7,0.0120085,10,-0.00184882,-1.73179,-0.324078,-0.182055,131.779,0.09969829,
2,0,0,1,0,13013.8,0.0979811,0.0976837,-18.8159,7,0.0118216,10,-0.001838,-1.72548,-0.355046,-0.166175,121.826,0.09768372,
2,0,0,1,0,13013.8,0.0959835,0.0957273,-19.0279,7,0.0116323,10,-0.00182149,-1.72061,-0.429595,-0.137339,101.939,0.0957273,
2,0,0,1,0,13013.8,0.0939859,0.0936893,-19.2231,7,0.011441,10,-0.00180099,-1.71618,-0.500615,-0.117855,88.336,0.0936893,
2,0,0,1,0,13013.8,0.0919883,0.0916929,-19.3843,7,0.0112479,10,-0.0017774,-1.71255,-0.57295,-0.102976,77.8804,0.0916929,
2,0,0,1,0,13013.9,0.0899816,0.0896766,-19.5356,7,0.0110532,10,-0.00175188,-1.70917,-0.827006,-0.0713417,54.2724,0.0896766,
2,0,0,1,0,13013.9,0.087984,0.0876889,-19.6016,7,0.0108575,10,-0.00171884,-1.70771,-1.35715,-0.0434733,33.2578,0.0876889,
2,0,0,1,0,13013.9,0.0859865,0.0856587,-19.6692,7,0.010661,10,-0.00168484,-1.70621,-2.09061,-0.0282214,21.6367,0.0856587,
2,0,0,1,0,13013.9,0.0839889,0.0836884,-19.6881,7,0.0104642,10,-0.00164767,-1.7058,-8.53311,-0.00691425,5.31041,0.0836884,
2,0,0,1,0,13013.9,0.0820004,0.0816801,-19.6903,7,0.0102692,10,-0.00160831,-1.70575,3.45562,0.0170736,-13.1013,0.0816801,
2,0,0,1,0,13013.9,0.0800028,0.0796911,-19.6358,7,0.0100727,10,-0.00156479,-1.70695,1.37447,0.0429257,-32.8764,0.0796911,
2,0,0,1,0,13013.9,0.0780052,0.0776933,-19.5592,7,0.00987667,10,-0.00151962,-1.70865,0.94447,0.0624689,-47.638,0.0776933,
2,0,0,1,0,13013.9,0.0760076,0.0756812,-19.4447,7,0.00968169,10,-0.0014716,-1.7112,0.743891,0.0793127,-60.173,0.0756812,
2,0,0,1,0,13013.9,0.0740191,0.0737369,-19.3212,7,0.00948983,10,-0.00142468,-1.71397,0.635689,0.0928127,-69.9241,0.0737369,
2,0,0,1,0,13013.9,0.0720215,0.0716764,-19.1647,7,0.00929741,10,-0.00137366,-1.7175,0.587325,0.100455,-75.1478,0.0716764,
2,0,0,1,0,13014,0.0700239,0.0696739,-19.0158,7,0.0091065,10,-0.00132491,-1.72088,0.526376,0.112087,-83.1063,0.0696739,
2,0,0,1,0,13014,0.0680263,0.0676837,-18.8329,7,0.00891734,10,-0.00127468,-1.72508,0.523426,0.112719,-82.924,0.0676837,
2,0,0,1,0,13014,0.0660197,0.0656942,-18.6858,7,0.00872982,10,-0.00122755,-1.72849,0.508892,0.115938,-84.4521,0.0656942,
2,0,0,1,0,13014,0.0640221,0.0637118,-18.4974,7,0.00854394,10,-0.0011785,-1.73289,0.47866,0.123261,-89.039,0.0637118,
2,0,0,1,0,13014,0.0620245,0.0617432,-18.334,7,0.00835975,10,-0.001132,-1.73674,0.516919,0.114138,-81.6711,0.06174317,
2,0,0,1,0,13014,0.0600269,0.0597399,-18.1731,7,0.00817725,10,-0.00108566,-1.74057,0.580191,0.101691,-72.1788,0.0597399,
2,0,0,1,0,13014,0.0580248,0.0576845,-18.0411,7,0.00799621,10,-0.00104069,-1.74374,0.579249,0.101856,-71.6643,0.0576845,
2,0,0,1,0,13014,0.0560227,0.0557081,-17.8841,7,0.0078166,10,-0.00099629,-1.74753,0.584394,0.100959,-70.5289,0.0557081,
2,0,0,1,0,13014,0.0540251,0.0536987,-17.76,7,0.00763836,10,-0.000953688,-1.75056,0.648343,0.0910013,-63.0635,0.0536987,
2,0,0,1,0,13014,0.0520275,0.0516833,-17.6303,7,0.00746144,10,-0.000911192,-1.75374,0.640301,0.0921441,-63.4095,0.0516833,
2,0,0,1,0,13014.1,0.0500299,0.0496991,-17.5064,7,0.00728569,10,-0.00087005,-1.7568,0.675141,0.0873891,-59.7244,0.0496991,
2,0,0,1,0,13014.1,0.0480414,0.0477246,-17.3939,7,0.00711293,10,-0.000830116,-1.7596,0.75331,0.078321,-53.1871,0.0477246,
2,0,0,1,0,13014.1,0.0460438,0.0457308,-17.2953,7,0.00693951,10,-0.000790928,-1.76207,0.686159,0.0859859,-57.9802,0.0457308,
2,0,0,1,0,13014.1,0.0440462,0.0437298,-17.1622,7,0.00676726,10,-0.000750502,-1.76543,0.670489,0.0879955,-58.9866,0.0437298,
2,0,0,1,0,13014.1,0.0420486,0.0417041,-17.0578,7,0.00659617,10,-0.00071138,-1.76808,0.769839,0.0766394,-51.0238,0.0417041,
2,0,0,1,0,13014.1,0.0400601,0.0396964,-16.9565,7,0.00642784,10,-0.000673111,-1.77067,0.755114,0.0781339,-51.6997,0.0396964,
2,0,0,1,0,13014.1,0.0380625,0.0377157,-16.8516,7,0.00625879,10,-0.000635569,-1.77336,0.665421,0.0886656,-58.2737,0.0377157,
2,0,0,1,0,13014.1,0.036065,0.0357245,-16.725,7,0.00609097,10,-0.000597493,-1.77663,0.67169,0.0878382,-57.3782,0.0357245,
2,0,0,1,0,13014.1,0.0340674,0.0337612,-16.6247,7,0.00592422,10,-0.000561268,-1.77925,0.72758,0.0810907,-52.5994,0.0337612,
2,0,0,1,0,13014.1,0.0320607,0.0317622,-16.5166,7,0.00575855,10,-0.000524603,-1.78208,0.682878,0.0863991,-55.6767,0.03176219,
2,0,0,1,0,13014.2,0.0300631,0.0297242,-16.3999,7,0.00559397,10,-0.000487474,-1.78516,0.615572,0.0958459,-61.316,0.0297242,
2,0,0,1,0,13014.2,0.0280655,0.0277148,-16.2684,7,0.00543065,10,-0.000450876,-1.78865,0.61455,0.0960053,-60.9944,0.0277148,
2,0,0,1,0,13014.2,0.0260679,0.025774,-16.159,7,0.00526846,10,-0.000416481,-1.79159,0.620582,0.0950721,-59.916,0.025774,
2,0,0,1,0,13014.2,0.0240613,0.0237143,-16.0287,7,0.00510754,10,-0.000380109,-1.7951,0.568673,0.10375,-64.8993,0.0237143,
2,0,0,1,0,13014.2,0.0220637,0.021757,-15.8983,7,0.0049479,10,-0.000345898,-1.79865,0.520777,0.113292,-70.249,0.021757,
2,0,0,1,0,13014.2,0.0200661,0.0197276,-15.7487,7,0.00478969,10,-0.000310684,-1.80276,0.482004,0.122406,-75.2263,0.0197276,
2,0,0,1,0,13014.2,0.0180685,0.0177547,-15.5972,7,0.00463293,10,-0.000276924,-1.80695,0.477126,0.123657,-75.2801,0.0177547,
2,0,0,1,0,13014.2,0.01608,0.0157653,-15.4504,7,0.00447931,10,-0.000243579,-1.81106,0.48913,0.120622,-72.7301,0.0157653,
2,0,0,1,0,13014.2,0.0140824,0.0137142,-15.3033,7,0.00432555,10,-0.000209873,-1.81521,0.41719,0.141422,-84.3494,0.0137142,
2,0,0,1,0,13014.2,0.0120848,0.0118047,-15.1163,7,0.00417353,10,-0.000178443,-1.82055,0.387834,0.152127,-89.7992,0.0118047,
2,0,0,1,0,13014.3,0.0100873,0.00976391,-14.9486,7,0.00402323,10,-0.000145957,-1.8254,0.404952,0.145696,-84.9732,0.00976391,
2,0,0,1,0,13014.3,0.00810328,0.00776683,-14.7732,7,0.00387618,10,-0.000114741,-1.83053,0.398112,0.148199,-85.4714,0.00776683,
2,0,0,1,0,13014.3,0.00610116,0.00578349,-14.6084,7,0.00372925,10,-8.44874e-05,-1.8354,0.371343,0.158883,-90.4883,0.00578349,
2,0,0,1,0,13014.3,0.00410357,0.00380621,-14.4148,7,0.00358422,10,-5.48658e-05,-1.84119,0.438713,0.134484,-75.8561,0.00380621,
2,0,0,1,0,13014.3,0.00210598,0.0016988,-14.2985,7,0.00344083,10,-2.42903e-05,-1.84471,0.436684,0.135109,-75.2038,0.0016988,
2,0,0,1,0,13014.3,0.00010174,-0.000233357,-14.111,7,0.00329884,10,3.29291e-06,-1.85044,0.372007,0.158599,-87.4244,-0.000233357,
2,0,0,1,0,13014.3,-0.00189827,-0.0022705,-13.9515,7,0.00315849,10,3.16769e-05,-1.85538,0.3955,0.149178,-81.2006,-0.0022705,
2,0,0,1,0,13014.3,-0.00389586,-0.00425037,-13.7848,7,0.00301986,10,5.85906e-05,-1.8606,0.407732,0.144703,-77.9018,-0.00425037,
2,0,0,1,0,13014.3,-0.00589345,-0.00628578,-13.6387,7,0.00288272,10,8.57299e-05,-1.86523,0.421566,0.139955,-74.4818,-0.006285775,
2,0,0,1,0,13014.3,-0.00789103,-0.0082214,-13.4891,7,0.00274707,10,0.000110899,-1.87002,0.477831,0.123475,-65.0987,-0.0082214,
2,0,0,1,0,13014.4,-0.0098977,-0.0102507,-13.3806,7,0.00261266,10,0.000137161,-1.87352,0.560251,0.10531,-54.9779,-0.0102507,
2,0,0,1,0,13014.4,-0.0118953,-0.0122905,-13.2653,7,0.00247947,10,0.000163037,-1.87728,0.559161,0.105515,-54.6499,-0.0122905,
2,0,0,1,0,13014.4,-0.0138929,-0.0142435,-13.1624,7,0.00234731,10,0.000187478,-1.88066,0.59577,0.0990314,-50.8794,-0.0142435,
2,0,0,1,0,13014.4,-0.0158905,-0.0162433,-13.0642,7,0.00221623,10,0.000212206,-1.88392,0.753968,0.0782527,-39.953,-0.0162433,
2,0,0,1,0,13014.4,-0.017879,-0.018242,-13.0027,7,0.00208715,10,0.000237194,-1.88597,0.843471,0.069949,-35.4702,-0.018242,
2,0,0,1,0,13014.4,-0.0198766,-0.0202382,-12.9225,7,0.00195757,10,0.000261528,-1.88865,0.856325,0.0688991,-34.7765,-0.0202382,
2,0,0,1,0,13014.4,-0.0218741,-0.0222241,-12.8642,7,0.00182867,10,0.000285894,-1.89062,1.10613,0.0533393,-26.7885,-0.0222241,
2,0,0,1,0,13014.4,-0.0238717,-0.0242457,-12.8152,7,0.00170031,10,0.000310713,-1.89228,1.74517,0.0338076,-16.9277,-0.02424572,
2,0,0,1,0,13014.4,-0.0258602,-0.0262824,-12.7955,7,0.00157352,10,0.000336295,-1.89294,1.81878,0.0324393,-16.1835,-0.0262824,
2,0,0,1,0,13014.4,-0.0278578,-0.0282041,-12.7511,7,0.00144587,10,0.000359634,-1.89445,1.87245,0.0315095,-15.6964,-0.0282041,
2,0,0,1,0,13014.5,-0.0298554,-0.0302534,-12.7331,7,0.00131843,10,0.000385221,-1.89506,3.31016,0.0178239,-8.85757,-0.0302534,
2,0,0,1,0,13014.5,-0.031853,-0.0321812,-12.7159,7,0.00119123,10,0.000409212,-1.89565,13.0899,0.0045073,-2.23905,-0.0321812,
2,0,0,1,0,13014.5,-0.0338597,-0.0342626,-12.7242,7,0.00106402,10,0.000435963,-1.89537,-76.3121,-0.000773141,0.383703,-0.0342626,
2,0,0,1,0,13014.5,-0.0358573,-0.0362121,-12.7174,7,0.000936839,10,0.000460525,-1.8956,-11.6969,-0.00504409,2.50579,-0.0362121,
2,0,0,1,0,13014.5,-0.0378548,-0.0381972,-12.734,7,0.000809527,10,0.000486404,-1.89503,-5.54713,-0.0106361,5.28337,-0.0381972,
2,0,0,1,0,13014.5,-0.0398524,-0.0402586,-12.7388,7,0.000682197,10,0.000512847,-1.89487,-2.81658,-0.0209474,10.4274,-0.0402586,
2,0,0,1,0,13014.5,-0.0418591,-0.0422437,-12.7762,7,0.000554614,10,0.000539715,-1.8936,-2.02632,-0.0291168,14.5083,-0.0422437,
2,0,0,1,0,13014.5,-0.0438567,-0.044227,-12.7964,7,0.00042677,10,0.000565946,-1.89291,-2.39021,-0.0246841,12.3313,-0.044227,
2,0,0,1,0,13014.5,-0.0458543,-0.0462,-12.825,7,0.000298577,10,0.000592515,-1.89194,-1.985,-0.029723,14.8777,-0.0462,
2,0,0,1,0,13014.5,-0.0478519,-0.048166,-12.855,7,0.000170194,10,0.000619173,-1.89093,-1.24949,-0.0472193,23.7216,-0.048166,
2,0,0,1,0,13014.6,-0.0498585,-0.0502066,-12.92,7,4.13055e-05,10,0.000648671,-1.88874,-1.15984,-0.0508693,25.6234,-0.0502066,
2,0,0,1,0,13014.6,-0.051838,-0.0522126,-12.9587,7,-8.68007e-05,10,0.000676606,-1.88744,-1.34421,-0.0438918,22.2075,-0.0522126,
2,0,0,1,0,13014.6,-0.0538355,-0.0542072,-13.0089,7,-0.000216657,10,0.000705176,-1.88576,-1.19606,-0.0493285,25.0431,-0.05420725,
2,0,0,1,0,13014.6,-0.0558331,-0.0561931,-13.0584,7,-0.000346966,10,0.00073379,-1.88411,-1.03853,-0.0568109,28.9701,-0.0561931,
2,0,0,1,0,13014.6,-0.0578126,-0.0581825,-13.1241,7,-0.000476629,10,0.00076359,-1.88193,-0.960619,-0.0614188,31.4506,-0.0581825,
2,0,0,1,0,13014.6,-0.0598192,-0.060178,-13.1837,7,-0.000608168,10,0.000793367,-1.87996,-0.857831,-0.0687781,35.4144,-0.060178,
2,0,0,1,0,13014.6,-0.0618168,-0.0621205,-13.2635,7,-0.000740422,10,0.000823937,-1.87734,-0.862926,-0.068372,35.368,-0.0621205,
2,0,0,1,0,13014.6,-0.0638144,-0.0641985,-13.3259,7,-0.000873352,10,0.000855501,-1.8753,-0.890091,-0.0662853,34.4915,-0.0641985,
2,0,0,1,0,13014.6,-0.065812,-0.0661627,-13.4029,7,-0.00100705,10,0.000886775,-1.8728,-0.764911,-0.0771332,40.3556,-0.0661627,
2,0,0,1,0,13014.6,-0.0678187,-0.0681773,-13.4864,7,-0.00114152,10,0.00091947,-1.8701,-0.739465,-0.0797874,41.999,-0.0681773,
2,0,0,1,0,13014.7,-0.0698163,-0.0702127,-13.573,7,-0.0012769,10,0.000953,-1.86732,-0.795508,-0.0741665,39.2625,-0.0702127,
2,0,0,1,0,13014.7,-0.0718138,-0.0721657,-13.643,7,-0.00141302,10,0.00098456,-1.86509,-0.706199,-0.0835459,44.5426,-0.0721657,
2,0,0,1,0,13014.7,-0.0738114,-0.0741768,-13.7496,7,-0.00155006,10,0.0010199,-1.86171,-0.604632,-0.0975801,52.3533,-0.0741768,
2,0,0,1,0,13014.7,-0.0758181,-0.076161,-13.8522,7,-0.0016881,10,0.001055,-1.85848,-0.625798,-0.0942796,50.9643,-0.076161,
2,0,0,1,0,13014.7,-0.0778157,-0.0781704,-13.9531,7,-0.00182723,10,0.00109072,-1.85533,-0.645625,-0.0913843,49.7621,-0.0781704,
2,0,0,1,0,13014.7,-0.0798133,-0.0802162,-14.054,7,-0.00196724,10,0.00112736,-1.8522,-0.59461,-0.0992246,54.4535,-0.0802162,
2,0,0,1,0,13014.7,-0.0818109,-0.0821735,-14.1711,7,-0.00210839,10,0.00116449,-1.8486,-0.547892,-0.107685,59.5585,-0.0821735,
2,0,0,1,0,13014.7,-0.0837994,-0.0841807,-14.2901,7,-0.00224924,10,0.00120295,-1.84496,-0.556368,-0.106045,59.1365,-0.0841807,
2,0,0,1,0,13014.7,-0.0857969,-0.0861714,-14.4075,7,-0.00239269,10,0.00124152,-1.84141,-0.555037,-0.106299,59.7768,-0.0861714,
2,0,0,1,0,13014.7,-0.0877945,-0.0881748,-14.5289,7,-0.00253732,10,0.00128108,-1.83777,-0.526911,-0.111973,63.5075,-0.0881748,
2,0,0,1,0,13014.8,-0.0897921,-0.0901248,-14.6586,7,-0.0026833,10,0.00132111,-1.83391,-0.520422,-0.113369,64.849,-0.0901248,
2,0,0,1,0,13014.8,-0.0917806,-0.0921362,-14.7858,7,-0.00282899,10,0.00136231,-1.83016,-0.495334,-0.119111,68.7769,-0.0921362,
2,0,0,1,0,13014.8,-0.0937782,-0.0941135,-14.9329,7,-0.00297762,10,0.00140539,-1.82585,-0.50194,-0.117544,68.4598,-0.0941135,
2,0,0,1,0,13014.8,-0.0957758,-0.0961732,-15.0621,7,-0.00312756,10,0.00144857,-1.82211,-0.517081,-0.114102,67.0988,-0.0961732,
2,0,0,1,0,13014.8,-0.0977734,-0.0981531,-15.204,7,-0.00327894,10,0.00149232,-1.81804,-0.47582,-0.123997,73.5843,-0.0981531,
2,0,0,1,0,13014.8,-0.0997412,-0.100093,-15.3506,7,-0.00342859,10,0.00153648,-1.81388,0.10695,0.551659,-320.593,-0.100093,
2,0,0,1,1,13014.8,-0.0996711,-0.100093,-14.5821,7,-0.00347367,10,0.00145956,-1.83618,-0.0140995,-4.18456,2130.99,-0.100093,
2,0,0,1,1,13014.8,-0.0976826,-0.0980461,-10.9893,7,-0.0035985,10,0.00107746,-1.95903,-0.0167663,-3.51897,1536.62,-0.0980461,
2,0,0,1,1,13014.8,-0.095685,-0.0960491,-8.36799,7,-0.00369446,10,0.000803738,-2.07738,-0.0160365,-3.67912,1203.26,-0.0960491,
2,0,0,1,1,13014.8,-0.0936874,-0.0940831,-6.22082,7,-0.00376684,10,0.000585274,-2.20615,-0.0145013,-4.06861,981.338,-0.0940831,
2,0,0,1,1,13014.8,-0.0916898,-0.0920177,-4.41182,7,-0.0038195,10,0.000405966,-2.35538,-0.0119683,-4.92969,832.59,-0.0920177,
2,0,0,1,1,13014.9,-0.0897013,-0.0900514,-2.86407,7,-0.00385517,10,0.000257913,-2.54302,-0.00844756,-6.98427,738.323,-0.0900514,
2,0,0,1,1,13014.9,-0.0877037,-0.0880915,-1.51302,7,-0.00387672,10,0.000133284,-2.82016,-0.00412875,-14.29,642.895,-0.0880915,
2,0,0,1,1,13014.9,-0.0857062,-0.0860838,-0.313347,7,-0.00388558,10,2.69741e-05,-3.50398,-0.0125748,-4.69191,560.605,-0.0860838,
2,1,0,1,1,13014.9,-0.0837086,-0.0840944,0.727751,7,-0.00388322,10,-6.11998e-05,-3.13802,0.00547747,10.7714,499.495,-0.0840944,
2,1,0,1,1,13014.9,-0.0817019,-0.0820798,1.68664,7,-0.00387093,10,-0.000138439,-2.77298,0.00736881,8.00672,450.351,-0.0820798,
2,1,0,1,1,13014.9,-0.0797043,-0.080126,2.51494,7,-0.00384971,10,-0.000201512,-2.59947,0.0140323,4.20458,391.935,-0.080126,
2,1,0,1,1,13014.9,-0.0777067,-0.0780593,3.26241,7,-0.00382066,10,-0.000254662,-2.48646,0.0207579,2.84229,351.756,-0.0780593,
2,1,0,1,1,13014.9,-0.0757091,-0.0760959,3.93253,7,-0.00378452,10,-0.000299249,-2.40533,0.0271481,2.17326,329.196,-0.0760959,
2,1,0,1,1,13014.9,-0.0737025,-0.0740753,4.57394,7,-0.00374188,10,-0.000338816,-2.33971,0.0350649,1.68259,295.664,-0.0740753,
2,1,0,1,1,13014.9,-0.0717049,-0.0720624,5.12509,7,-0.00369326,10,-0.000369326,-2.2903,0.0441704,1.33574,264.937,-0.07206244,
2,1,0,1,1,13015,-0.0697073,-0.0701008,5.62693,7,-0.00363946,10,-0.000394452,-2.24973,0.0534103,1.10465,241.016,-0.0701008,
2,1,0,1,1,13015,-0.0677097,-0.0680862,6.08343,7,-0.0035808,10,-0.000414198,-2.21585,0.0633239,0.931717,220.191,-0.0680862,
2,1,0,1,1,13015,-0.0657212,-0.0661114,6.50536,7,-0.00351845,10,-0.000430078,-2.18673,0.0744523,0.792454,200.178,-0.0661114,
2,1,0,1,1,13015,-0.0637236,-0.0641168,6.87802,7,-0.00345144,10,-0.000440996,-2.16254,0.0886818,0.6653,178.094,-0.0641168,
2,1,0,1,1,13015,-0.061726,-0.062068,7.22545,7,-0.00338092,10,-0.00044847,-2.14113,0.102123,0.577734,162.333,-0.062068,
2,1,0,1,1,13015,-0.0597284,-0.0600925,7.53129,7,-0.00330704,10,-0.000452574,-2.12313,0.11505,0.51282,150.499,-0.0600925,
2,1,0,1,1,13015,-0.0577399,-0.0581044,7.82198,7,-0.00323107,10,-0.000454491,-2.10668,0.134268,0.439419,133.678,-0.0581044,
2,1,0,1,1,13015,-0.0557423,-0.0561011,8.06486,7,-0.00315155,10,-0.000452447,-2.0934,0.15545,0.379544,119.376,-0.0561011,
2,1,0,1,1,13015,-0.0537447,-0.0540909,8.3011,7,-0.00306969,10,-0.000449013,-2.08086,0.173973,0.339134,109.591,-0.05409085,
2,1,0,1,1,13015,-0.0517472,-0.0521361,8.49938,7,-0.00298558,10,-0.000443125,-2.07061,0.193504,0.304903,101.166,-0.0521361,
2,1,0,1,1,13015.1,-0.049745,-0.0500912,8.70573,7,-0.00289957,10,-0.00043608,-2.06019,0.21433,0.275276,93.3251,-0.0500912,
2,1,0,1,1,13015.1,-0.0477429,-0.0480879,8.87718,7,-0.00281158,10,-0.000426885,-2.05172,0.246896,0.238967,82.7176,-0.0480879,
2,1,0,1,1,13015.1,-0.0457453,-0.046108,9.03521,7,-0.00272202,10,-0.000416595,-2.04406,0.287751,0.205039,72.1662,-0.046108,
2,1,0,1,1,13015.1,-0.0437477,-0.0441507,9.16132,7,-0.00263102,10,-0.000404478,-2.03804,0.324822,0.181638,64.966,-0.0441507,
2,1,0,1,1,13015.1,-0.0417501,-0.042104,9.29533,7,-0.00253872,10,-0.000391371,-2.03174,0.350351,0.168402,61.0167,-0.042104,
2,1,0,1,1,13015.1,-0.0397435,-0.0401103,9.40785,7,-0.0024451,10,-0.000377351,-2.02651,0.406931,0.144988,53.1953,-0.0401103,
2,1,0,1,1,13015.1,-0.0377459,-0.0381122,9.50768,7,-0.00235055,10,-0.000362358,-2.02193,0.46197,0.127714,47.36,-0.0381122,
2,1,0,1,1,13015.1,-0.0357483,-0.0361262,9.59654,7,-0.00225499,10,-0.000346686,-2.01789,0.49886,0.11827,44.29,-0.0361262,
2,1,0,1,1,13015.1,-0.0337507,-0.0341333,9.6839,7,-0.00215859,10,-0.000330544,-2.01395,0.585367,0.100791,38.0487,-0.0341333,
2,1,0,1,1,13015.1,-0.0317622,-0.0321065,9.74948,7,-0.00206235,10,-0.000313022,-2.01102,0.670177,0.0880364,33.5012,-0.0321065,
2,1,0,1,1,13015.2,-0.0297646,-0.0301389,9.81772,7,-0.00196456,10,-0.000295896,-2.00799,0.804387,0.0733478,28.069,-0.03013893,
2,1,0,1,1,13015.2,-0.027767,-0.0280958,9.86206,7,-0.00186615,10,-0.000277082,-2.00603,1.06669,0.0553115,21.2842,-0.0280958,
2,1,0,1,1,13015.2,-0.0257694,-0.0261576,9.90246,7,-0.00176734,10,-0.000259025,-2.00426,1.01334,0.0582232,22.5101,-0.0261576,
2,1,0,1,1,13015.2,-0.0237809,-0.024148,9.95092,7,-0.00166903,10,-0.000240295,-2.00214,1.10229,0.053525,20.7726,-0.02414804,
2,1,0,1,1,13015.2,-0.0217833,-0.0221343,9.98603,7,-0.00156935,10,-0.000221034,-2.00061,1.83005,0.0322396,12.5519,-0.02213433,
2,1,0,1,1,13015.2,-0.0197858,-0.0201484,10.0011,7,-0.00146933,10,-0.000201506,-1.99995,2.03342,0.0290151,11.3334,-0.02014838,
2,1,0,1,1,13015.2,-0.0177882,-0.0181485,10.0312,7,-0.00136916,10,-0.000182052,-1.99865,1.60008,0.0368732,14.4342,-0.0181485,
2,1,0,1,1,13015.2,-0.0157815,-0.0160915,10.0597,7,-0.00126862,10,-0.000161875,-1.99742,1.84761,0.0319331,12.5323,-0.0160915,
2,1,0,1,1,13015.2,-0.0137839,-0.0141819,10.0809,7,-0.00116793,10,-0.000142966,-1.9965,3.45463,0.0170785,6.71376,-0.0141819,
2,1,0,1,1,13015.2,-0.0117863,-0.0121664,10.086,7,-0.00106712,10,-0.000122711,-1.99628,4.11518,0.0143371,5.64706,-0.0121664,
2,1,0,1,1,13015.3,-0.00978874,-0.0101015,10.104,7,-0.000966174,10,-0.000102065,-1.99551,2.77517,0.0212599,8.38247,-0.0101015,
2,1,0,1,1,13015.3,-0.00778207,-0.00813811,10.1198,7,-0.00086505,10,-8.23561e-05,-1.99483,5.89065,0.0100159,3.95256,-0.00813811,
2,1,0,1,1,13015.3,-0.00578449,-0.0061591,10.1195,7,-0.000763901,10,-6.23273e-05,-1.99484,8.83228,0.00668004,2.63962,-0.0061591,
2,1,0,1,1,13015.3,-0.0037869,-0.00414019,10.1304,7,-0.000662619,10,-4.19416e-05,-1.99438,5.47728,0.0107718,4.25773,-0.00414019,
2,1,0,1,1,13015.3,-0.00178931,-0.00213949,10.1367,7,-0.000561309,10,-2.16872e-05,-1.99411,-79.2055,-0.000744898,-0.294484,-0.00213949,
2,1,0,1,1,13015.3,-2.55332e-05,-0.000458935,10.1293,7,-0.000473099,10,-4.64867e-06,-1.99442, , , ,-0.000458935,