File: Figure_codes/Fig_3-5/rawdata_trumpetplot_data/after 10th/20221101_1-115_003_TrumpetPlot_ParaChange_from10_every3_12_CV_C01_32.csv
mode,ox/red,error,control changes,counter inc.,time/s,control/V,Ewe/V,<I>/mA,cycle number,(Q-Qo)/C,I Range,P/W,log(|I|),Tafel slope mV/dec,alpha_eff,dI/d(E-IR),E-IR/V,
2,1,0,1,0,64240.7,2.44065e-05,-0.000248974,13.7852,33,0.0000000E+000,10,-3.43216e-06,-1.86059, , , ,-0.000248974,
2,1,0,1,0,64240.7,0.00200257,0.00161734,14.6845,33,4.45476e-05,10,2.37498e-05,-1.83314, , , ,0.00161734,
2,1,0,1,0,64240.7,0.004408,0.00402977,15.4224,33,0.000104905,10,6.21486e-05,-1.81185, , , ,0.00402977,
2,1,0,1,0,64240.7,0.0068051,0.00642841,16.0049,33,0.000167829,10,0.000102886,-1.79575,0.148883,0.396283,244.915,0.00642841,
2,1,0,1,0,64240.7,0.00920221,0.00881856,16.5437,33,0.000233006,10,0.000145892,-1.78137,0.174177,0.338735,217.431,0.00881856,
2,1,0,1,0,64240.7,0.0115993,0.0112607,17.0463,33,0.000300253,10,0.000191952,-1.76837,0.192466,0.306548,202.939,0.0112607,
2,1,0,1,0,64240.7,0.0140075,0.0136625,17.5168,33,0.000369429,10,0.000239324,-1.75654,0.212864,0.277172,188.628,0.0136625,
2,1,0,1,0,64240.7,0.0164046,0.0160558,17.9587,33,0.000440445,10,0.000288342,-1.74573,0.228441,0.258272,180.396,0.0160558,
2,1,0,1,0,64240.7,0.0188017,0.0184672,18.3637,33,0.00051315,10,0.000339127,-1.73604,0.245419,0.240406,171.944,0.0184672,
2,1,0,1,0,64240.7,0.0212099,0.0208499,18.7761,33,0.000587469,10,0.000391481,-1.72639,0.264764,0.22284,162.885,0.0208499,
2,1,0,1,0,64240.7,0.023607,0.0232231,19.1607,33,0.000663382,10,0.000444972,-1.71759,0.279764,0.210892,157.273,0.0232231,
2,1,0,1,0,64240.7,0.0260041,0.0256536,19.522,33,0.000740784,10,0.000500809,-1.70948,0.299417,0.19705,149.858,0.0256536,
2,1,0,1,0,64240.7,0.0284012,0.0280671,19.8735,33,0.000819623,10,0.000557791,-1.70173,0.317082,0.186072,144.09,0.0280671,
2,1,0,1,0,64240.7,0.0308067,0.030453,20.2152,33,0.000899857,10,0.000615614,-1.69432,0.331801,0.177818,140.092,0.030453,
2,1,0,1,0,64240.7,0.0332038,0.0327922,20.5396,33,0.000981412,10,0.000673538,-1.68741,0.343934,0.171544,137.403,0.0327922,
2,1,0,1,0,64240.8,0.0356009,0.0352566,20.8673,33,0.00106427,10,0.000735711,-1.68053,0.35815,0.164735,134.043,0.0352566,
2,1,0,1,0,64240.8,0.0380091,0.0376341,21.1881,33,0.00114842,10,0.000797393,-1.67391,0.375168,0.157263,129.869,0.0376341,
2,1,0,1,0,64240.8,0.0404062,0.0400136,21.4968,33,0.00123381,10,0.000860162,-1.66763,0.390086,0.151249,126.712,0.0400136,
2,1,0,1,0,64240.8,0.0428033,0.0424409,21.7926,33,0.00132042,10,0.000924897,-1.66169,0.406261,0.145227,123.417,0.0424409,
2,1,0,1,0,64240.8,0.0452032,0.0448035,22.077,33,0.00140818,10,0.000989127,-1.65606,0.420299,0.140376,120.922,0.0448035,
2,1,0,1,0,64240.8,0.0476058,0.0472371,22.3732,33,0.00149714,10,0.00105685,-1.65027,0.430303,0.137113,119.654,0.0472371,
2,1,0,1,0,64240.8,0.0500029,0.0496166,22.658,33,0.00158724,10,0.00112421,-1.64478,0.438834,0.134447,118.832,0.0496166,
2,1,0,1,0,64240.8,0.0524,0.0520195,22.9387,33,0.00167847,10,0.00119326,-1.63943,0.457748,0.128892,115.315,0.0520195,
2,1,0,1,0,64240.8,0.0548082,0.054485,23.2275,33,0.00177082,10,0.00126555,-1.634,0.462888,0.127461,115.448,0.054485,
2,1,0,1,0,64240.8,0.0572053,0.0568719,23.4843,33,0.00186427,10,0.0013356,-1.62922,0.468689,0.125883,115.396,0.0568719,
2,1,0,1,0,64240.8,0.0596024,0.0592303,23.7678,33,0.0019588,10,0.00140778,-1.62401,0.484542,0.121765,112.934,0.0592303,
2,1,0,1,0,64240.8,0.0620051,0.0616268,24.0474,33,0.00205446,10,0.00148196,-1.61893,0.482559,0.122265,114.665,0.0616268,
2,1,0,1,0,64240.8,0.0644077,0.0640795,24.311,33,0.00215122,10,0.00155784,-1.6142,0.49731,0.118638,112.53,0.0640795,
2,1,0,1,0,64240.8,0.0668048,0.0664739,24.5853,33,0.00224904,10,0.00163428,-1.60932,0.501333,0.117686,112.918,0.0664739,
2,1,0,1,0,64240.8,0.0692019,0.0688323,24.8484,33,0.00234795,10,0.00171037,-1.6047,0.50171,0.117598,114.06,0.0688323,
2,1,0,1,0,64240.8,0.0716074,0.0712224,25.1309,33,0.00244793,10,0.00178988,-1.59979,0.513827,0.114825,112.571,0.0712224,
2,1,0,1,0,64240.8,0.0740045,0.0736423,25.4018,33,0.00254903,10,0.00187064,-1.59514,0.513907,0.114807,113.768,0.0736423,
2,1,0,1,0,64240.8,0.0764016,0.0760504,25.6633,33,0.00265121,10,0.00195171,-1.59069,0.523935,0.112609,112.819,0.0760504,
2,1,0,1,0,64240.8,0.0788042,0.0784512,25.9427,33,0.00275444,10,0.00203524,-1.58599,0.529284,0.111471,112.856,0.0784512,
2,1,0,1,0,64240.8,0.0812069,0.0808668,26.219,33,0.0028588,10,0.00212024,-1.58138,0.521144,0.113213,115.819,0.0808668,
2,1,0,1,0,64240.8,0.083604,0.0832782,26.4892,33,0.00296425,10,0.00220598,-1.57693,0.528185,0.111703,115.486,0.0832782,
2,1,0,1,0,64240.8,0.0860011,0.0856132,26.7709,33,0.00307079,10,0.00229194,-1.57234,0.535715,0.110133,115.034,0.0856132,
2,1,0,1,0,64240.8,0.0884065,0.0880161,27.0473,33,0.00317848,10,0.0023806,-1.56788,0.535929,0.110089,116.174,0.08801607,
2,1,0,1,0,64240.8,0.0908036,0.090402,27.3158,33,0.00328723,10,0.00246941,-1.56359,0.543181,0.108619,115.82,0.090402,
2,1,0,1,0,64240.8,0.0932007,0.0928186,27.5976,33,0.00339711,10,0.00256157,-1.55913,0.544092,0.108438,116.819,0.0928186,
2,1,0,1,0,64240.9,0.0956034,0.095195,27.8806,33,0.0035081,10,0.0026541,-1.5547,0.549076,0.107453,116.894,0.095195,
2,1,0,1,0,64240.9,0.098006,0.0976106,28.1681,33,0.00362023,10,0.00274951,-1.55024,0.55594,0.106127,116.598,0.0976106,
2,1,0,1,0,64240.9,0.100403,0.100027,28.441,33,0.00373348,10,0.00284487,-1.54606,0.560842,0.105199,116.765,0.1000273,
2,1,0,1,0,64240.9,0.1028,0.102386,28.7131,33,0.00384781,10,0.00293981,-1.54192,0.563916,0.104625,117.3,0.102386,
2,1,0,1,0,64240.9,0.105208,0.10485,29.008,33,0.00396328,10,0.00304149,-1.53748,0.566562,0.104137,117.87,0.10485,
2,1,0,1,0,64240.9,0.107606,0.107208,29.2939,33,0.00407991,10,0.00314056,-1.53322,0.56076,0.105214,120.27,0.107208,
2,1,0,1,0,64240.9,0.110003,0.109615,29.5711,33,0.00419766,10,0.00324145,-1.52913,0.568913,0.103707,119.712,0.109615,
2,1,0,1,0,64240.9,0.112408,0.112043,29.8746,33,0.00431658,10,0.00334723,-1.5247,0.572892,0.102986,120.047,0.112043,
2,1,0,1,0,64240.9,0.114805,0.114433,30.1552,33,0.00443668,10,0.00345075,-1.52064,0.563001,0.104796,123.351,0.114433,
2,1,0,1,0,64240.9,0.117202,0.116839,30.4501,33,0.00455792,10,0.00355775,-1.51641,0.568677,0.10375,123.345,0.116839,
2,1,0,1,0,64240.9,0.119599,0.119233,30.7575,33,0.00468038,10,0.00366732,-1.51205,0.565437,0.104344,125.244,0.119233,
2,1,0,1,0,64240.9,0.122008,0.121644,31.0588,33,0.00480405,10,0.00377811,-1.50782,0.563544,0.104694,126.881,0.121644,
2,1,0,1,0,64240.9,0.124405,0.124087,31.3643,33,0.00492893,10,0.0038919,-1.50356,0.566745,0.104103,127.419,0.124087,
2,1,0,1,0,64240.9,0.126802,0.126411,31.6646,33,0.005055,10,0.00400276,-1.49943,0.567315,0.103999,128.526,0.126411,
2,1,0,1,0,64240.9,0.129207,0.128788,31.9749,33,0.00518232,10,0.00411797,-1.49519,0.544603,0.108336,135.299,0.128788,
2,1,0,1,0,64240.9,0.131604,0.131163,32.2823,33,0.00531087,10,0.00423424,-1.49104,0.53391,0.110505,139.402,0.131163,
2,1,0,1,0,64240.9,0.134001,0.133558,32.6458,33,0.00544077,10,0.00436012,-1.48617,0.526464,0.112068,142.846,0.133558,
2,1,0,1,0,64240.9,0.136399,0.135932,32.9918,33,0.00557209,10,0.00448462,-1.48159,0.518282,0.113838,146.548,0.1359316,
2,1,0,1,0,64240.9,0.138807,0.138452,33.3555,33,0.00570483,10,0.00461814,-1.47683,0.52316,0.112776,146.774,0.1384522,
2,1,0,1,0,64240.9,0.141204,0.140837,33.7,33,0.00583897,10,0.0047462,-1.47237,0.530116,0.111296,146.368,0.140837,
2,1,0,1,0,64240.9,0.143601,0.143193,34.0599,33,0.00597452,10,0.00487715,-1.46776,0.539443,0.109372,145.331,0.143193,
2,1,0,1,0,64240.9,0.146009,0.145649,34.4141,33,0.00611152,10,0.00501238,-1.46326,0.545938,0.108071,145.045,0.145649,
2,1,0,1,0,64240.9,0.148406,0.148045,34.7495,33,0.00624987,10,0.00514448,-1.45905,0.566744,0.104103,141.124,0.148045,
2,1,0,1,0,64240.9,0.150803,0.150414,35.089,33,0.00638958,10,0.00527786,-1.45483,0.573868,0.102811,140.763,0.150414,
2,1,0,1,0,64240.9,0.153206,0.15283,35.4199,33,0.00653063,10,0.00541324,-1.45075,0.587284,0.100462,138.841,0.15283,
2,1,0,1,0,64241,0.155606,0.155199,35.7584,33,0.00667304,10,0.00554967,-1.44662,0.608743,0.096921,135.173,0.155199,
2,1,0,1,0,64241,0.158003,0.157648,36.0828,33,0.00681677,10,0.00568837,-1.4427,0.621515,0.0949294,133.587,0.157648,
2,1,0,1,0,64241,0.1604,0.160048,36.3914,33,0.00696176,10,0.00582438,-1.439,0.651667,0.090537,128.528,0.160048,
2,1,0,1,0,64241,0.162808,0.162438,36.7034,33,0.00710799,10,0.005962,-1.43529,0.672875,0.0876834,125.528,0.162438,
2,1,0,1,0,64241,0.165205,0.164856,36.9996,33,0.00725543,10,0.00609962,-1.4318,0.689085,0.0856208,123.563,0.164856,
2,1,0,1,0,64241,0.167602,0.167254,37.2887,33,0.00740402,10,0.00623668,-1.42842,0.738056,0.0799397,116.247,0.1672539,
2,1,0,1,0,64241,0.170008,0.169595,37.571,33,0.00755378,10,0.00637186,-1.42515,0.778781,0.0757594,110.964,0.169595,
2,1,0,1,0,64241,0.172405,0.172079,37.8241,33,0.00770462,10,0.00650873,-1.42223,0.841164,0.0701409,103.424,0.172079,
2,1,0,1,0,64241,0.174802,0.174467,38.066,33,0.00785642,10,0.00664125,-1.41946,0.915441,0.0644498,95.6579,0.174467,
2,1,0,1,0,64241,0.177199,0.17684,38.2801,33,0.00800914,10,0.00676945,-1.41703,1.00623,0.0586346,87.5128,0.17684,
2,1,0,1,0,64241,0.179607,0.179248,38.4944,33,0.00816274,10,0.00690005,-1.4146,1.14908,0.0513455,77.015,0.179248,
2,1,0,1,0,64241,0.182005,0.181691,38.6653,33,0.00831707,10,0.00702515,-1.41268,1.31607,0.0448304,67.5394,0.1816913,
2,1,0,1,0,64241,0.184402,0.184038,38.8031,33,0.00847203,10,0.00714125,-1.41113,1.67857,0.035149,53.1545,0.184038,
2,1,0,1,0,64241,0.18681,0.186429,38.9278,33,0.0086275,10,0.00725727,-1.40974,2.1667,0.0272304,41.3,0.186429,
2,1,0,1,0,64241,0.189207,0.188859,39.0052,33,0.00878338,10,0.00736647,-1.40888,2.95225,0.0199848,30.3771,0.188859,
2,1,0,1,0,64241,0.191604,0.191263,39.0606,33,0.00893953,10,0.00747084,-1.40826,5.35264,0.0110226,16.7806,0.191263,
2,1,0,1,0,64241,0.194001,0.193578,39.093,33,0.00909585,10,0.00756755,-1.4079,26.3473,0.00223932,3.41024,0.193578,
2,1,0,1,0,64241,0.196407,0.196061,39.0894,33,0.00925224,10,0.0076639,-1.40794,-9.07905,-0.00649848,-9.89434,0.196061,
2,1,0,1,0,64241,0.198804,0.198484,39.038,33,0.00940849,10,0.00774842,-1.40851,-4.06702,-0.0145069,-22.0723,0.198484,
2,1,0,1,0,64241,0.201201,0.200844,38.9658,33,0.0095645,10,0.00782607,-1.40932,-2.47308,-0.0238569,-36.2327,0.200844,
2,1,0,1,0,64241,0.203609,0.203262,38.8792,33,0.00972019,10,0.00790267,-1.41028,-1.85931,-0.0317321,-48.0593,0.203262,
2,1,0,1,0,64241,0.206006,0.20564,38.7423,33,0.00987541,10,0.00796695,-1.41181,-1.44988,-0.0406931,-61.4124,0.20564,
2,1,0,1,0,64241,0.208403,0.208063,38.5777,33,0.0100301,10,0.00802658,-1.41366,-1.1795,-0.0500214,-75.1902,0.208063,
2,1,0,1,0,64241,0.210803,0.210461,38.3752,33,0.0101839,10,0.0080765,-1.41595,-1.01234,-0.0582811,-87.1644,0.2104612,
2,1,0,1,0,64241,0.213206,0.212892,38.1552,33,0.010337,10,0.00812292,-1.41845,-0.870808,-0.0677532,-100.728,0.212892,
2,1,0,1,0,64241.1,0.215603,0.21525,37.9046,33,0.0104891,10,0.00815897,-1.42131,-0.796584,-0.0740662,-109.395,0.21525,
2,1,0,1,0,64241.1,0.218,0.217628,37.6141,33,0.0106401,10,0.00818591,-1.42465,-0.705708,-0.083604,-122.56,0.217628,
2,1,0,1,0,64241.1,0.220408,0.220099,37.3209,33,0.0107899,10,0.0082143,-1.42805,-0.642096,-0.0918866,-133.607,0.220099,
2,1,0,1,0,64241.1,0.222805,0.222508,36.9765,33,0.0109385,10,0.00822759,-1.43207,-0.604518,-0.0975984,-140.677,0.222508,
2,1,0,1,0,64241.1,0.225202,0.224881,36.6179,33,0.0110857,10,0.00823466,-1.43631,-0.551543,-0.106973,-152.739,0.224881,
2,1,0,1,0,64241.1,0.227605,0.227251,36.2605,33,0.0112314,10,0.00824023,-1.44057,-0.524206,-0.112551,-159.056,0.227251,
2,1,0,1,0,64241.1,0.230008,0.229661,35.8604,33,0.0113756,10,0.00823574,-1.44538,-0.497412,-0.118614,-165.807,0.229661,
2,1,0,1,0,64241.1,0.232405,0.232072,35.4554,33,0.0115182,10,0.0082282,-1.45032,-0.475646,-0.124042,-171.496,0.232072,
2,1,0,1,0,64241.1,0.234802,0.234456,35.0302,33,0.0116592,10,0.00821305,-1.45556,-0.457149,-0.129061,-176.332,0.234456,
2,1,0,1,0,64241.1,0.237207,0.236908,34.6044,33,0.0117984,10,0.00819805,-1.46087,-0.441925,-0.133507,-180.192,0.236908,
2,1,0,1,0,64241.1,0.239604,0.239246,34.1703,33,0.0119359,10,0.0081751,-1.46635,-0.433641,-0.136057,-181.337,0.239246,
2,1,0,1,0,64241.1,0.242002,0.24167,33.7259,33,0.0120717,10,0.00815054,-1.47204,-0.424004,-0.13915,-183.096,0.24167,
2,1,0,1,0,64241.1,0.244404,0.244073,33.2863,33,0.0122057,10,0.0081243,-1.47773,-0.414027,-0.142503,-185.035,0.244073,
2,1,0,1,0,64241.1,0.246807,0.24653,32.8426,33,0.0123379,10,0.00809668,-1.48356,-0.411008,-0.14355,-183.939,0.24653,
2,1,0,1,0,64241.1,0.249204,0.24888,32.3877,33,0.0124683,10,0.00806064,-1.48962,-0.405564,-0.145476,-183.932,0.24888,
2,1,0,1,0,64241.1,0.251601,0.251293,31.9558,33,0.0125969,10,0.00803028,-1.49545,-0.401394,-0.146988,-183.322,0.251293,
2,1,0,1,0,64241.1,0.254006,0.253659,31.5232,33,0.0127239,10,0.00799613,-1.50137,-0.402484,-0.14659,-180.309,0.253659,
2,1,0,1,0,64241.1,0.256404,0.2561,31.0882,33,0.012849,10,0.00796168,-1.5074,-0.402057,-0.146745,-178.076,0.2561,
2,1,0,1,0,64241.1,0.258801,0.258445,30.6631,33,0.0129725,10,0.0079247,-1.51338,-0.406532,-0.14513,-173.76,0.258445,
2,1,0,1,0,64241.1,0.261203,0.260884,30.248,33,0.0130943,10,0.00789121,-1.5193,-0.407974,-0.144617,-170.791,0.260884,
2,1,0,1,0,64241.1,0.263606,0.263298,29.8483,33,0.0132144,10,0.00785899,-1.52508,-0.411115,-0.143512,-167.19,0.263298,
2,1,0,1,0,64241.1,0.266003,0.265701,29.4484,33,0.013333,10,0.00782447,-1.53094,-0.417023,-0.141479,-162.665,0.265701,
2,1,0,1,0,64241.1,0.2684,0.268073,29.0533,33,0.01345,10,0.0077884,-1.53681,-0.417541,-0.141303,-160.343,0.268073,
2,1,0,1,0,64241.1,0.270808,0.270482,28.6866,33,0.0135654,10,0.00775923,-1.54232,-0.425202,-0.138758,-155.405,0.270482,
2,1,0,1,0,64241.1,0.273205,0.272848,28.317,33,0.0136794,10,0.00772624,-1.54795,-0.438244,-0.134628,-148.854,0.272848,
2,1,0,1,0,64241.2,0.275603,0.275283,27.9594,33,0.0137919,10,0.00769673,-1.55347,-0.436876,-0.13505,-147.44,0.2752828,
2,1,0,1,0,64241.2,0.278008,0.277696,27.6208,33,0.013903,10,0.0076702,-1.55876,-0.445175,-0.132532,-142.891,0.277696,
2,1,0,1,0,64241.2,0.280405,0.280066,27.2736,33,0.0140127,10,0.00763841,-1.56426,-0.455121,-0.129636,-138.066,0.280066,
2,1,0,1,0,64241.2,0.282802,0.282438,26.9466,33,0.0141212,10,0.00761076,-1.5695,-0.466542,-0.126462,-133.139,0.282438,
2,1,0,1,0,64241.2,0.285199,0.284905,26.6309,33,0.0142283,10,0.00758727,-1.57461,-0.480302,-0.122839,-127.783,0.284905,
2,1,0,1,0,64241.2,0.287608,0.287305,26.3416,33,0.0143342,10,0.00756806,-1.57936,-0.491517,-0.120036,-123.431,0.287305,
2,1,0,1,0,64241.2,0.290005,0.289681,26.045,33,0.0144389,10,0.00754474,-1.58428,-0.49679,-0.118763,-120.736,0.289681,
2,1,0,1,0,64241.2,0.292402,0.292066,25.7583,33,0.0145425,10,0.00752312,-1.58908,-0.501935,-0.117545,-118.227,0.292066,
2,1,0,1,0,64241.2,0.294807,0.29447,25.476,33,0.0146449,10,0.00750193,-1.59387,-0.516293,-0.114276,-113.755,0.29447,
2,1,0,1,0,64241.2,0.297204,0.296872,25.2105,33,0.0147463,10,0.00748428,-1.59842,-0.516184,-0.1143,-112.975,0.296872,
2,1,0,1,0,64241.2,0.299421,0.299085,24.9753,33,0.0148391,10,0.00746972,-1.60249,-0.1273,-0.463473,-442.463,0.299085,
2,1,0,0,0,64241.2,0.300012,0.29967,24.8992,33,0.0148641,10,0.00746155,-1.60381,0.00299653,19.6895,17409.6,0.29967,
2,1,0,1,0,64241.2,0.299243,0.298992,23.4749,33,0.0148949,10,0.00701883,-1.6294,0.0337408,1.74862,1446.76,0.2989924,
2,1,0,1,0,64241.2,0.296846,0.296588,20.281,33,0.0149818,10,0.0060151,-1.69291,0.0398091,1.48207,1154.51,0.296588,
2,1,0,1,0,64241.2,0.294449,0.294143,17.826,33,0.0150576,10,0.00524338,-1.74895,0.0423516,1.3931,992.089,0.294143,
2,1,0,1,0,64241.2,0.292041,0.291721,15.7221,33,0.0151244,10,0.00458646,-1.80349,0.043592,1.35346,839.387,0.291721,
2,1,0,1,0,64241.2,0.289644,0.289301,13.8606,33,0.0151834,10,0.00400989,-1.85822,0.0427743,1.37933,749.951,0.289301,
2,1,0,1,0,64241.2,0.287247,0.286944,12.1856,33,0.0152353,10,0.00349658,-1.91415,0.041448,1.42347,677.322,0.286944,
2,1,0,1,0,64241.2,0.284841,0.284575,10.6504,33,0.0152807,10,0.00303085,-1.97263,0.0395166,1.49304,619.053,0.284575,
2,1,0,1,0,64241.2,0.282444,0.282144,9.23494,33,0.0153203,10,0.00260558,-2.03457,0.0371893,1.58648,568.822,0.282144,
2,1,0,1,0,64241.2,0.280047,0.27973,7.93549,33,0.0153545,10,0.0022198,-2.10043,0.0345116,1.70957,523.866,0.27973,
2,1,0,1,0,64241.2,0.27765,0.277346,6.72618,33,0.0153837,10,0.00186548,-2.17223,0.0311736,1.89263,488.764,0.277346,
2,1,0,1,0,64241.2,0.275242,0.27492,5.59249,33,0.0154082,10,0.00153749,-2.25239,0.0276634,2.13278,454.186,0.27492,
2,1,0,1,0,64241.2,0.272845,0.272554,4.54806,33,0.0154283,10,0.00123959,-2.34217,0.0235646,2.50375,425.88,0.272554,
2,1,0,1,0,64241.2,0.270448,0.27009,3.55708,33,0.0154444,10,0.000960732,-2.44891,0.0190723,3.0935,400.602,0.27009,
2,1,0,1,0,64241.2,0.268039,0.267716,2.62469,33,0.0154567,10,0.000702672,-2.58092,0.0141418,4.17202,373.931,0.267716,
2,1,0,1,0,64241.3,0.265642,0.265364,1.76418,33,0.0154654,10,0.000468149,-2.75346,0.00742636,7.94468,352.728,0.265364,
2,1,0,1,0,64241.3,0.263245,0.262929,0.948857,33,0.0154707,10,0.000249482,-3.0228,0.0141501,4.16958,331.438,0.262929,
2,1,0,1,0,64241.3,0.260843,0.260525,0.183287,33,0.0154729,10,4.77508e-05,-3.73687,0.0636637,0.926745,311.783,0.260525,
2,0,0,1,0,64241.3,0.258443,0.258132,-0.551789,33,0.015472,10,-0.000142434,-3.25823,-0.0320978,-1.83813,295.885,0.258132,
2,0,0,1,0,64241.3,0.256046,0.255714,-1.24443,33,0.0154684,10,-0.000318218,-2.90503,-0.00843768,-6.99244,281.275,0.255714,
2,0,0,1,0,64241.3,0.253649,0.253344,-1.88721,33,0.015462,10,-0.000478113,-2.72418,-0.0128853,-4.57884,263.713,0.253344,
2,0,0,1,0,64241.3,0.25124,0.250925,-2.51692,33,0.0154531,10,-0.000631558,-2.59913,-0.0204648,-2.88301,251.96,0.250925,
2,0,0,1,0,64241.3,0.248843,0.248477,-3.09793,33,0.0154419,10,-0.000769764,-2.50893,-0.0276704,-2.13224,240.578,0.2484768,
2,0,0,1,0,64241.3,0.246446,0.246125,-3.66054,33,0.0154283,10,-0.000900949,-2.43646,-0.0353084,-1.67099,227.957,0.246125,
2,0,0,1,0,64241.3,0.244041,0.24373,-4.20003,33,0.0154125,10,-0.00102368,-2.37675,-0.0426525,-1.38327,218.762,0.24373,
2,0,0,1,0,64241.3,0.241644,0.241349,-4.69995,33,0.0153946,10,-0.00113433,-2.32791,-0.0510725,-1.15522,206.547,0.241349,
2,0,0,1,0,64241.3,0.239246,0.238936,-5.18503,33,0.0153748,10,-0.00123889,-2.28525,-0.0595214,-0.99124,197.019,0.238936,
2,0,0,1,0,64241.3,0.236849,0.236518,-5.64489,33,0.0153531,10,-0.00133511,-2.24834,-0.0675743,-0.873113,189.601,0.236518,
2,0,0,1,0,64241.3,0.234441,0.234066,-6.10414,33,0.0153295,10,-0.00142877,-2.21438,-0.076615,-0.770084,180.78,0.234066,
2,0,0,1,0,64241.3,0.232044,0.231704,-6.52855,33,0.0153042,10,-0.00151269,-2.18518,-0.0845894,-0.697487,175.601,0.231704,
2,0,0,1,0,64241.3,0.229647,0.229287,-6.92949,33,0.0152773,10,-0.00158884,-2.1593,-0.094926,-0.621537,166.678,0.229287,
2,0,0,1,0,64241.3,0.227239,0.226919,-7.33044,33,0.0152487,10,-0.00166341,-2.13487,-0.104079,-0.566878,160.791,0.226919,
2,0,0,1,0,64241.3,0.224842,0.224488,-7.70051,33,0.0152186,10,-0.00172867,-2.11348,-0.113763,-0.518622,154.758,0.224488,
2,0,0,1,0,64241.3,0.222445,0.222173,-8.06103,33,0.0151871,10,-0.00179095,-2.09361,-0.123714,-0.476905,149.335,0.222173,
2,0,0,1,0,64241.3,0.220047,0.219718,-8.41039,33,0.0151541,10,-0.00184791,-2.07518,-0.133963,-0.44042,143.861,0.219718,
2,0,0,1,0,64241.3,0.217642,0.217353,-8.75897,33,0.0151197,10,-0.00190379,-2.05755,-0.145832,-0.404574,137.501,0.217353,
2,0,0,1,0,64241.3,0.215245,0.214922,-9.07667,33,0.015084,10,-0.00195078,-2.04207,-0.154162,-0.382715,135.077,0.214922,
2,0,0,1,0,64241.3,0.212848,0.21251,-9.38977,33,0.015047,10,-0.00199542,-2.02735,-0.167697,-0.351825,128.575,0.2125099,
2,0,0,1,0,64241.3,0.21044,0.210112,-9.70782,33,0.0150088,10,-0.00203973,-2.01288,-0.17656,-0.334164,126.124,0.210112,
2,0,0,1,0,64241.3,0.208043,0.207727,-9.99655,33,0.0149694,10,-0.00207656,-2.00015,-0.188178,-0.313533,121.928,0.207727,
2,0,0,1,0,64241.4,0.205645,0.205295,-10.2909,33,0.0149288,10,-0.00211267,-1.98755,-0.200738,-0.293915,117.709,0.205295,
2,0,0,1,0,64241.4,0.203246,0.202893,-10.5623,33,0.014887,10,-0.00214302,-1.97624,-0.211651,-0.27876,114.68,0.202893,
2,0,0,1,0,64241.4,0.200843,0.200523,-10.8366,33,0.0148442,10,-0.00217298,-1.96511,-0.223815,-0.263611,111.259,0.200523,
2,0,0,1,0,64241.4,0.198446,0.198059,-11.1054,33,0.0148003,10,-0.00219951,-1.95447,-0.23113,-0.255267,110.426,0.198059,
2,0,0,1,0,64241.4,0.196049,0.195726,-11.3556,33,0.0147553,10,-0.00222258,-1.94479,-0.246087,-0.239753,106.092,0.195726,
2,0,0,1,0,64241.4,0.19364,0.193285,-11.6233,33,0.0147094,10,-0.00224661,-1.93467,-0.257675,-0.228971,103.608,0.193285,
2,0,0,1,0,64241.4,0.191243,0.190918,-11.8556,33,0.0146624,10,-0.00226345,-1.92608,-0.263023,-0.224315,103.693,0.190918,
2,0,0,1,0,64241.4,0.188846,0.188481,-12.0977,33,0.0146145,10,-0.00228018,-1.9173,-0.28023,-0.210541,99.3569,0.188481,
2,0,0,1,0,64241.4,0.186444,0.186157,-12.3478,33,0.0145656,10,-0.00229863,-1.90841,-0.286963,-0.205601,98.8831,0.186157,
2,0,0,1,0,64241.4,0.184041,0.183726,-12.573,33,0.0145157,10,-0.00231,-1.90056,-0.298315,-0.197777,96.9161,0.183726,
2,0,0,1,0,64241.4,0.181644,0.181332,-12.8035,33,0.0144649,10,-0.00232168,-1.89267,-0.314164,-0.1878,93.7849,0.181332,
2,0,0,1,0,64241.4,0.179247,0.178902,-13.026,33,0.0144132,10,-0.00233038,-1.88519,-0.316788,-0.186245,94.6582,0.178902,
2,0,0,1,0,64241.4,0.176841,0.176485,-13.2549,33,0.0143606,10,-0.00233929,-1.87762,-0.325336,-0.181351,93.7853,0.176485,
2,0,0,1,0,64241.4,0.174444,0.174107,-13.4836,33,0.0143071,10,-0.00234759,-1.8702,-0.328093,-0.179827,94.568,0.1741073,
2,0,0,1,0,64241.4,0.172047,0.171677,-13.709,33,0.0142527,10,-0.00235352,-1.86299,-0.335999,-0.175596,93.8977,0.171677,
2,0,0,1,0,64241.4,0.169644,0.1693,-13.934,33,0.0141974,10,-0.00235904,-1.85592,-0.344185,-0.171419,93.1546,0.1693,
2,0,0,1,0,64241.4,0.167242,0.16686,-14.1586,33,0.0141412,10,-0.00236251,-1.84898,-0.344391,-0.171317,94.6494,0.16686,
2,0,0,1,0,64241.4,0.164845,0.164537,-14.3751,33,0.0140841,10,-0.00236523,-1.84239,-0.34368,-0.171671,96.4244,0.164537,
2,0,0,1,0,64241.4,0.162448,0.16212,-14.6135,33,0.0140261,10,-0.00236915,-1.83525,-0.344657,-0.171185,97.6698,0.16212,
2,0,0,1,0,64241.4,0.160042,0.159695,-14.8602,33,0.0139671,10,-0.00237311,-1.82798,-0.344345,-0.17134,99.2973,0.159695,
2,0,0,1,0,64241.4,0.157645,0.157322,-15.0902,33,0.0139072,10,-0.00237402,-1.8213,-0.343781,-0.171621,101.088,0.157322,
2,0,0,1,0,64241.4,0.155248,0.154875,-15.3345,33,0.0138463,10,-0.00237493,-1.81433,-0.343901,-0.171561,102.774,0.1548747,
2,0,0,1,0,64241.4,0.152845,0.152539,-15.5821,33,0.0137845,10,-0.00237687,-1.80737,-0.334345,-0.176465,107.446,0.152539,
2,0,0,1,0,64241.4,0.150443,0.150067,-15.8498,33,0.0137216,10,-0.00237852,-1.79998,-0.329371,-0.179129,110.874,0.150067,
2,0,0,1,0,64241.4,0.148046,0.147698,-16.1243,33,0.0136576,10,-0.00238152,-1.79252,-0.318799,-0.185069,116.545,0.147698,
2,0,0,1,0,64241.5,0.145648,0.145292,-16.397,33,0.0135925,10,-0.00238235,-1.78524,-0.307259,-0.19202,123.127,0.145292,
2,0,0,1,0,64241.5,0.14324,0.142922,-16.7029,33,0.0135263,10,-0.00238721,-1.77721,-0.297071,-0.198606,129.74,0.142922,
2,0,0,1,0,64241.5,0.140843,0.140525,-17.0246,33,0.0134588,10,-0.00239238,-1.76892,-0.282648,-0.20874,138.956,0.140525,
2,0,0,1,0,64241.5,0.138446,0.138111,-17.3681,33,0.01339,10,-0.00239872,-1.76025,-0.272637,-0.216405,146.965,0.138111,
2,0,0,1,0,64241.5,0.136041,0.135664,-17.7348,33,0.0133198,10,-0.00240598,-1.75117,-0.262106,-0.225099,156.034,0.135664,
2,0,0,1,0,64241.5,0.133644,0.133287,-18.1189,33,0.013248,10,-0.00241501,-1.74187,-0.251451,-0.234638,166.216,0.133287,
2,0,0,1,0,64241.5,0.131246,0.130945,-18.5195,33,0.0131747,10,-0.00242503,-1.73237,-0.239247,-0.246607,178.756,0.130945,
2,0,0,1,0,64241.5,0.128849,0.128546,-18.958,33,0.0130997,10,-0.00243697,-1.72221,-0.231365,-0.255008,189.209,0.128546,
2,0,0,1,0,64241.5,0.126441,0.126136,-19.4381,33,0.0130229,10,-0.00245184,-1.71135,-0.223237,-0.264293,200.812,0.126136,
2,0,0,1,0,64241.5,0.124044,0.123696,-19.9337,33,0.0129441,10,-0.00246571,-1.70041,-0.216472,-0.272552,212.341,0.123696,
2,0,0,1,0,64241.5,0.121647,0.121331,-20.45,33,0.0128633,10,-0.00248122,-1.68931,-0.212799,-0.277257,221.708,0.121331,
2,0,0,1,0,64241.5,0.119241,0.118917,-21.0025,33,0.0127803,10,-0.00249756,-1.67773,-0.208069,-0.28356,232.744,0.118917,
2,0,0,1,0,64241.5,0.116844,0.116482,-21.5785,33,0.0126951,10,-0.0025135,-1.66598,-0.206195,-0.286136,241.049,0.116482,
2,0,0,1,0,64241.5,0.114447,0.114091,-22.169,33,0.0126076,10,-0.00252929,-1.65425,-0.205169,-0.287568,248.819,0.114091,
2,0,0,1,0,64241.5,0.11205,0.111736,-22.7628,33,0.0125176,10,-0.00254343,-1.64277,-0.208288,-0.283262,251.598,0.111736,
2,0,0,1,0,64241.5,0.109642,0.109357,-23.3813,33,0.0124253,10,-0.00255691,-1.63113,-0.212054,-0.278231,253.665,0.109357,
2,0,0,1,0,64241.5,0.107245,0.106928,-23.982,33,0.0123305,10,-0.00256436,-1.62011,-0.214753,-0.274734,257.054,0.106928,
2,0,0,1,0,64241.5,0.104848,0.104528,-24.595,33,0.0122332,10,-0.00257085,-1.60915,-0.221895,-0.265892,255.129,0.104528,
2,0,0,1,0,64241.5,0.10244,0.102145,-25.2283,33,0.0121335,10,-0.00257694,-1.59811,-0.227385,-0.259472,255.071,0.102145,
2,0,0,1,0,64241.5,0.100042,0.0997527,-25.8316,33,0.0120314,10,-0.00257677,-1.58785,-0.233115,-0.253094,254.789,0.0997527,
2,0,0,1,0,64241.5,0.0976454,0.0973105,-26.4353,33,0.0119268,10,-0.00257243,-1.57782,-0.246124,-0.239716,246.947,0.0973105,
2,0,0,1,0,64241.5,0.0952427,0.0949575,-27.0333,33,0.0118198,10,-0.00256702,-1.5681,-0.256056,-0.230418,242.587,0.0949575,
2,0,0,1,0,64241.5,0.0928428,0.0925419,-27.5998,33,0.0117104,10,-0.00255413,-1.55909,-0.264651,-0.222935,239.777,0.0925419,
2,0,0,1,0,64241.5,0.0904457,0.0901761,-28.1548,33,0.0115989,10,-0.00253889,-1.55045,-0.273922,-0.21539,236.644,0.09017612,
2,0,0,1,0,64241.5,0.0880486,0.0878061,-28.7142,33,0.0114851,10,-0.00252128,-1.5419,-0.283152,-0.208369,233.414,0.0878061,
2,0,0,1,0,64241.6,0.0856404,0.0853757,-29.3008,33,0.011369,10,-0.00250158,-1.53312,-0.297145,-0.198557,226.501,0.0853757,
2,0,0,1,0,64241.6,0.0832433,0.0829622,-29.8358,33,0.0112506,10,-0.00247524,-1.52526,-0.31079,-0.189839,220.533,0.0829622,
2,0,0,1,0,64241.6,0.0808462,0.0805667,-30.3313,33,0.0111302,10,-0.00244369,-1.51811,-0.332004,-0.177709,210.15,0.0805667,
2,0,0,1,0,64241.6,0.0784408,0.078149,-30.8439,33,0.0110078,10,-0.00241042,-1.51083,-0.352783,-0.167242,200.964,0.078149,
2,0,0,1,0,64241.6,0.0760437,0.0757504,-31.3236,33,0.0108834,10,-0.00237277,-1.50413,-0.371437,-0.158843,193.736,0.0757504,
2,0,0,1,0,64241.6,0.0736466,0.0733655,-31.7644,33,0.0107572,10,-0.00233041,-1.49806,-0.399069,-0.147844,182.977,0.0733655,
2,0,0,1,0,64241.6,0.0712495,0.0709658,-32.1913,33,0.0106293,10,-0.00228448,-1.49226,-0.425766,-0.138574,173.855,0.0709658,
2,0,0,1,0,64241.6,0.0688413,0.0685693,-32.5968,33,0.0104996,10,-0.00223514,-1.48682,-0.453653,-0.130055,165.204,0.0685693,
2,0,0,1,0,64241.6,0.0664442,0.066194,-32.985,33,0.0103684,10,-0.00218341,-1.48168,-0.484267,-0.121834,156.605,0.066194,
2,0,0,1,0,64241.6,0.0640471,0.0637975,-33.3451,33,0.0102357,10,-0.00212733,-1.47697,-0.522096,-0.113006,146.851,0.0637975,
2,0,0,1,0,64241.6,0.0616389,0.0613776,-33.6929,33,0.0101016,10,-0.00206799,-1.47246,-0.568379,-0.103804,136.276,0.0613776,
2,0,0,1,0,64241.6,0.0592417,0.0589599,-34.0079,33,0.0099662,10,-0.0020051,-1.46842,-0.605395,-0.097457,129.179,0.0589599,
2,0,0,1,0,64241.6,0.0568446,0.0565326,-34.3016,33,0.00982955,10,-0.00193916,-1.46469,-0.646705,-0.0912316,122.047,0.05653261,
2,0,0,1,0,64241.6,0.0544475,0.0541605,-34.59,33,0.00969174,10,-0.00187341,-1.46105,-0.693584,-0.0850654,114.72,0.0541605,
2,0,0,1,0,64241.6,0.0520421,0.0517311,-34.8702,33,0.00955276,10,-0.00180388,-1.45755,-0.738742,-0.0798655,108.529,0.0517311,
2,0,0,1,0,64241.6,0.049645,0.0493579,-35.1095,33,0.00941275,10,-0.00173293,-1.45458,-0.796609,-0.0740639,101.386,0.0493579,
2,0,0,1,0,64241.6,0.0472479,0.0469412,-35.3426,33,0.00927182,10,-0.00165902,-1.4517,-0.88015,-0.067034,92.3801,0.0469412,
2,0,0,1,0,64241.6,0.0448397,0.0445299,-35.5664,33,0.00912998,10,-0.00158377,-1.44896,-0.94447,-0.0624689,86.6061,0.0445299,
2,0,0,1,0,64241.6,0.0424426,0.0421323,-35.757,33,0.00898731,10,-0.00150652,-1.44664,-1.04422,-0.0565013,78.7703,0.0421323,
2,0,0,1,0,64241.6,0.0400455,0.0397496,-35.9416,33,0.0088439,10,-0.00142866,-1.4444,-1.1643,-0.050674,71.0088,0.0397496,
2,0,0,1,0,64241.6,0.0376456,0.037264,-36.1048,33,0.00869977,10,-0.00134541,-1.44243,-1.27383,-0.0463169,65.1991,0.037264,
2,0,0,1,0,64241.6,0.035243,0.0349438,-36.2471,33,0.00855505,10,-0.00126661,-1.44073,-1.42449,-0.0414184,58.5511,0.0349438,
2,0,0,1,0,64241.6,0.0328459,0.0325218,-36.3836,33,0.00840977,10,-0.00118326,-1.43909,-1.52995,-0.0385635,54.7306,0.0325218,
2,0,0,1,0,64241.6,0.0304488,0.0301317,-36.5048,33,0.00826396,10,-0.00109995,-1.43765,-1.6868,-0.0349774,49.8062,0.0301317,
2,0,0,1,0,64241.6,0.0280406,0.0277139,-36.6275,33,0.0081177,10,-0.00101509,-1.43619,-1.91279,-0.030845,44.0513,0.0277139,
2,0,0,1,0,64241.7,0.0256435,0.0253079,-36.727,33,0.00797097,10,-0.000929482,-1.43501,-2.14442,-0.0275133,39.4001,0.0253079,
2,0,0,1,0,64241.7,0.0232464,0.0229474,-36.8053,33,0.00782391,10,-0.000844587,-1.43409,-2.56058,-0.0230416,33.0798,0.0229474,
2,0,0,1,0,64241.7,0.0208437,0.0205276,-36.8832,33,0.00767654,10,-0.000757122,-1.43317,-2.9828,-0.0197801,28.4566,0.0205276,
2,0,0,1,0,64241.7,0.018441,0.0180992,-36.9456,33,0.00752886,10,-0.000668687,-1.43244,-3.42339,-0.0172344,24.8358,0.0180992,
2,0,0,1,0,64241.7,0.0160439,0.0157282,-36.9996,33,0.00738097,10,-0.000581936,-1.4318,-4.32944,-0.0136276,19.6665,0.01572817,
2,0,0,1,0,64241.7,0.0136468,0.0133041,-37.0448,33,0.00723287,10,-0.000492847,-1.43127,-5.59435,-0.0105464,15.2366,0.0133041,
2,0,0,1,0,64241.7,0.0112414,0.0108811,-37.0729,33,0.00708463,10,-0.000403392,-1.43094,-7.57272,-0.00779112,11.2667,0.0108811,
2,0,0,1,0,64241.7,0.00884431,0.00847499,-37.0922,33,0.0069363,10,-0.000314356,-1.43072,-13.249,-0.00445318,6.44351,0.00847499,
2,0,0,1,0,64241.7,0.0064472,0.00610286,-37.108,33,0.0067879,10,-0.000226465,-1.43053,-11.6879,-0.00504796,7.31047,0.00610286,
2,0,0,1,0,64241.7,0.00404455,0.00373497,-37.1065,33,0.00663948,10,-0.000138592,-1.43055,-80.3044,-0.000734705,1.0637,0.00373497,
2,0,0,1,0,64241.7,0.0016419,0.00131513,-37.1428,33,0.00649102,10,-4.88475e-05,-1.43013,18.428,0.00320165,-4.63387,0.00131513,
2,0,0,1,0,64241.7,-0.000755207,-0.00115562,-37.1025,33,0.00634254,10,4.28764e-05,-1.4306,11.1786,0.00527795,-7.63564,-0.00115562,
2,0,0,1,0,64241.7,-0.00315231,-0.00352033,-37.0634,33,0.00619424,10,0.000130476,-1.43105,4.69217,0.0125741,-18.184,-0.00352033,
2,0,0,1,0,64241.7,-0.00555774,-0.00595078,-37.0325,33,0.00604604,10,0.000220372,-1.43142,4.1277,0.0142937,-20.6419,-0.005950782,
2,0,0,1,0,64241.7,-0.00795485,-0.00832715,-36.9675,33,0.00589802,10,0.000307834,-1.43218,3.58649,0.0164506,-23.722,-0.00832715,
2,0,0,1,0,64241.7,-0.0103519,-0.0107332,-36.9048,33,0.00575028,10,0.000396107,-1.43292,2.87041,0.0205545,-29.5929,-0.0107332,
2,0,0,1,0,64241.7,-0.0127546,-0.0131414,-36.8352,33,0.00560281,10,0.000484066,-1.43374,2.69822,0.0218662,-31.4179,-0.0131414,
2,0,0,1,0,64241.7,-0.0151573,-0.0155294,-36.7491,33,0.00545564,10,0.000570692,-1.43475,2.4162,0.0244185,-35.0092,-0.0155294,
2,0,0,1,0,64241.7,-0.0175544,-0.0179408,-36.6654,33,0.00530882,10,0.000657807,-1.43574,2.17562,0.0271188,-38.7877,-0.0179408,
2,0,0,1,0,64241.7,-0.0199515,-0.0203257,-36.5689,33,0.00516236,10,0.000743288,-1.43689,2.05514,0.0287085,-40.9528,-0.0203257,
2,0,0,1,0,64241.7,-0.0223597,-0.022736,-36.4631,33,0.00501628,10,0.000829023,-1.43815,1.85619,0.0317855,-45.2135,-0.022736,
2,0,0,1,0,64241.7,-0.0247568,-0.0251473,-36.3552,33,0.00487066,10,0.000914236,-1.43943,1.8213,0.0323944,-45.9525,-0.02514733,
2,0,0,1,0,64241.7,-0.0271539,-0.0275332,-36.2317,33,0.0047255,10,0.000997577,-1.44091,1.76669,0.0333957,-47.2269,-0.0275332,
2,0,0,1,0,64241.7,-0.0295593,-0.0299383,-36.1272,33,0.00458079,10,0.00108159,-1.44217,1.66256,0.0354874,-50.0182,-0.0299383,
2,0,0,1,0,64241.7,-0.0319564,-0.0323496,-36.009,33,0.00443653,10,0.00116488,-1.44359,1.67887,0.0351427,-49.3665,-0.0323496,
2,0,0,1,0,64241.8,-0.0343535,-0.0347239,-35.8762,33,0.00429277,10,0.00124576,-1.44519,1.61123,0.036618,-51.2753,-0.0347239,
2,0,0,1,0,64241.8,-0.0367506,-0.0371289,-35.758,33,0.00414953,10,0.00132765,-1.44663,1.59368,0.0370212,-51.6681,-0.0371289,
2,0,0,1,0,64241.8,-0.0391588,-0.0395667,-35.6335,33,0.00400675,10,0.0014099,-1.44814,1.62644,0.0362755,-50.4458,-0.0395667,
2,0,0,1,0,64241.8,-0.0415559,-0.0419336,-35.5139,33,0.00386448,10,0.00148922,-1.4496,1.60716,0.0367107,-50.8805,-0.04193357,
2,0,0,1,0,64241.8,-0.043953,-0.0443566,-35.3903,33,0.0037227,10,0.00156979,-1.45112,1.6,0.036875,-50.9308,-0.0443566,
2,0,0,1,0,64241.8,-0.0463585,-0.046716,-35.2702,33,0.00358137,10,0.00164768,-1.45259,1.64313,0.0359071,-49.4348,-0.046716,
2,0,0,1,0,64241.8,-0.0487556,-0.0490966,-35.1481,33,0.00344054,10,0.00172565,-1.4541,1.69022,0.0349067,-47.8988,-0.0490966,
2,0,0,1,0,64241.8,-0.0511527,-0.0515037,-35.0408,33,0.00330016,10,0.00180473,-1.45543,1.78071,0.0331329,-45.3243,-0.0515037,
2,0,0,1,0,64241.8,-0.0535498,-0.0539416,-34.9311,33,0.00316023,10,0.00188424,-1.45679,1.86723,0.0315976,-43.087,-0.0539416,
2,0,0,1,0,64241.8,-0.055958,-0.0563403,-34.834,33,0.00302069,10,0.00196256,-1.458,1.88679,0.03127,-42.5124,-0.0563403,
2,0,0,1,0,64241.8,-0.0583551,-0.0587219,-34.7334,33,0.00288157,10,0.00203961,-1.45925,2.09017,0.0282273,-38.2782,-0.0587219,
2,0,0,1,0,64241.8,-0.0607522,-0.0611354,-34.6313,33,0.00274285,10,0.0021172,-1.46053,2.15271,0.0274073,-37.0684,-0.0611354,
2,0,0,1,0,64241.8,-0.0631604,-0.0635447,-34.5636,33,0.00260447,10,0.00219633,-1.46138,2.31825,0.0254503,-34.3348,-0.0635447,
2,0,0,1,0,64241.8,-0.0655575,-0.0659518,-34.4777,33,0.0024664,10,0.00227387,-1.46246,2.64491,0.022307,-30.0232,-0.0659518,
2,0,0,1,0,64241.8,-0.0679546,-0.0683207,-34.4038,33,0.00232865,10,0.0023505,-1.46339,2.57004,0.0229569,-30.8341,-0.0683207,
2,0,0,1,0,64241.8,-0.0703573,-0.0707544,-34.3425,33,0.00219118,10,0.00242988,-1.46417,2.91283,0.0202552,-27.1512,-0.0707544,
2,0,0,1,0,64241.8,-0.0727571,-0.0731307,-34.268,33,0.00205398,10,0.00250604,-1.46511,3.20232,0.0184242,-24.6525,-0.0731307,
2,0,0,1,0,64241.8,-0.0751543,-0.0755718,-34.2165,33,0.00191702,10,0.00258581,-1.46576,3.74629,0.0157489,-21.0456,-0.0755718,
2,0,0,1,0,64241.8,-0.0775514,-0.0779153,-34.1673,33,0.00178025,10,0.00266216,-1.46639,4.67162,0.0126294,-16.8503,-0.0779153,
2,0,0,1,0,64241.8,-0.0799595,-0.080385,-34.1398,33,0.00164365,10,0.00274433,-1.46674,4.95374,0.0119102,-15.8692,-0.080385,
2,0,0,1,0,64241.8,-0.0823567,-0.0827433,-34.106,33,0.00150716,10,0.00282204,-1.46717,6.80968,0.00866414,-11.5344,-0.0827433,
2,0,0,1,0,64241.8,-0.0847538,-0.0851218,-34.065,33,0.00137082,10,0.00289967,-1.46769,8.78188,0.00671838,-8.94019,-0.0851218,
2,0,0,1,0,64241.8,-0.0871592,-0.0875162,-34.0566,33,0.00123458,10,0.0029805,-1.4678,11.0881,0.00532102,-7.07549,-0.0875162,
2,0,0,1,0,64241.8,-0.0895563,-0.089918,-34.0546,33,0.00109835,10,0.00306212,-1.46782,28.4257,0.00207559,-2.75831,-0.089918,
2,0,0,1,0,64241.8,-0.0919534,-0.0923368,-34.0381,33,0.000962181,10,0.00314297,-1.46803,56.8142,0.00103847,-1.37999,-0.0923368,
2,0,0,1,0,64241.9,-0.0943505,-0.0947302,-34.0385,33,0.000826027,10,0.00322447,-1.46803,-242.339,-0.000243461,0.323585,-0.0947302,
2,0,0,1,0,64241.9,-0.0967587,-0.0971437,-34.0433,33,0.000689851,10,0.00330709,-1.46797,-17.4771,-0.00337584,4.48685,-0.0971437,
2,0,0,1,0,64241.9,-0.0991558,-0.0995232,-34.0577,33,0.000553663,10,0.00338953,-1.46778,2.6585,0.0221929,-29.4092,-0.0995232,
2,0,0,1,0,64241.9,-0.0999548,-0.1004,-34.0743,33,0.000509384,10,0.00342107,-1.46757,0.0230607,2.55846,-3196.57,-0.1004,
2,0,0,1,1,64241.9,-0.0999548,-0.1004,-33.8717,33,0.000489035,10,0.00340073,-1.47016,-0.0338871,-1.74108,2057.27,-0.1004,
2,0,0,1,1,64241.9,-0.0979573,-0.0983875,-30.0673,33,0.000391546,10,0.00295824,-1.52191,-0.0448941,-1.3142,1475.76,-0.09838751,
2,0,0,1,1,64241.9,-0.0955546,-0.0959889,-26.7866,33,0.000278355,10,0.00257122,-1.57208,-0.0476467,-1.23828,1319.84,-0.0959889,
2,0,0,1,1,64241.9,-0.0931519,-0.0936093,-24.0527,33,0.000177059,10,0.00225156,-1.61884,-0.0510162,-1.15649,1101.57,-0.0936093,
2,0,0,1,1,64241.9,-0.0907548,-0.091146,-21.6577,33,8.59538e-05,10,0.00197402,-1.66439,-0.0520784,-1.13291,964.702,-0.091146,
2,0,0,1,1,64241.9,-0.0883577,-0.0887993,-19.5052,33,3.90201e-06,10,0.00173205,-1.70985,-0.051814,-1.13869,869.786,-0.08879932,
2,0,0,1,1,64241.9,-0.0859523,-0.0863699,-17.5072,33,-6.98863e-05,10,0.0015121,-1.75678,-0.050063,-1.17852,806.007,-0.0863699,
2,0,0,1,1,64241.9,-0.0835552,-0.0839904,-15.6863,33,-0.000136049,10,0.0013175,-1.80448,-0.0483224,-1.22097,745.317,-0.0839904,
2,0,0,1,1,64241.9,-0.0811581,-0.0815875,-13.9535,33,-0.000195121,10,0.00113843,-1.85532,-0.045732,-1.29012,699.269,-0.0815875,
2,0,0,1,1,64241.9,-0.0787555,-0.0791655,-12.325,33,-0.000247499,10,0.000975711,-1.90921,-0.0428237,-1.37774,658.577,-0.0791655,
2,0,0,1,1,64241.9,-0.0763528,-0.076787,-10.8062,33,-0.000293578,10,0.000829774,-1.96633,-0.0395583,-1.49147,622.154,-0.076787,
2,0,0,1,1,64241.9,-0.0739557,-0.0743746,-9.35355,33,-0.000333738,10,0.000695667,-2.02902,-0.0359111,-1.64294,590.126,-0.0743746,
2,0,0,1,1,64241.9,-0.0715586,-0.0719823,-7.9776,33,-0.000368253,10,0.000574246,-2.09813,-0.0319624,-1.84592,561.832,-0.0719823,
2,0,0,1,1,64241.9,-0.0691532,-0.0695657,-6.65982,33,-0.000397396,10,0.000463294,-2.17654,-0.0277654,-2.12494,535.247,-0.0695657,
2,0,0,1,1,64241.9,-0.066756,-0.0671808,-5.40909,33,-0.000421391,10,0.000363387,-2.26688,-0.0232954,-2.53269,508.568,-0.0671808,
2,0,0,1,1,64241.9,-0.0643589,-0.0647959,-4.2266,33,-0.000440513,10,0.000273867,-2.37401,-0.0181937,-3.24287,487.759,-0.0647959,
2,0,0,1,1,64241.9,-0.0619563,-0.0623496,-3.07871,33,-0.000454989,10,0.000191956,-2.51163,-0.0125195,-4.71265,468.01,-0.0623496,
2,0,0,1,1,64241.9,-0.0595536,-0.0599605,-1.9748,33,-0.000464969,10,0.00011841,-2.70448,-0.00572252,-10.3101,446.812,-0.0599605,
2,0,0,1,1,64241.9,-0.0571565,-0.0576117,-0.930652,33,-0.000470659,10,5.36165e-05,-3.03121,-0.0206808,-2.85289,431.806,-0.0576117,
2,0,0,1,1,64241.9,-0.0547594,-0.055142,0.0868926,33,-0.000472226,10,-4.79143e-06,-4.06102,5.15258,0.0114506,414.134,-0.055142,
2,1,0,1,1,64241.9,-0.0523512,-0.0527667,1.05924,33,-0.000469807,10,-5.58928e-05,-2.975,0.0195655,3.01551,396.911,-0.0527667,
2,1,0,1,1,64241.9,-0.0499541,-0.050403,1.98326,33,-0.000463625,10,-9.99622e-05,-2.70262,0.00583478,10.1118,384.127,-0.05040304,
2,1,0,1,1,64241.9,-0.047557,-0.0480002,2.88427,33,-0.000453785,10,-0.000138445,-2.53996,0.0149796,3.93868,370.207,-0.0480002,
2,1,0,1,1,64242,-0.0451544,-0.0456005,3.75206,33,-0.000440424,10,-0.000171096,-2.42573,0.0221099,2.66849,354.87,-0.0456005,
2,1,0,1,1,64242,-0.0427545,-0.0432252,4.59159,33,-0.000423644,10,-0.000198472,-2.33804,0.0291387,2.0248,340.868,-0.0432252,
2,1,0,1,1,64242,-0.0403574,-0.0408021,5.39034,33,-0.000403592,10,-0.000219937,-2.26838,0.0359943,1.63915,331.009,-0.0408021,
2,1,0,1,1,64242,-0.0379603,-0.0384151,6.15149,33,-0.000380424,10,-0.00023631,-2.21102,0.0434471,1.35797,317.575,-0.0384151,
2,1,0,1,1,64242,-0.0355521,-0.0360377,6.91742,33,-0.000354187,10,-0.000249288,-2.16006,0.0505627,1.16687,307.907,-0.03603771,
2,1,0,1,1,64242,-0.033155,-0.0335871,7.65239,33,-0.000324974,10,-0.000257022,-2.1162,0.0578298,1.02024,298.584,-0.0335871,
2,1,0,1,1,64242,-0.0307579,-0.0311991,8.34718,33,-0.000292915,10,-0.000260424,-2.07846,0.0664942,0.887295,284.461,-0.0311991,
2,1,0,1,1,64242,-0.0283524,-0.0287739,9.03021,33,-0.000258096,10,-0.000259834,-2.0443,0.0747228,0.789584,274.504,-0.0287739,
2,1,0,1,1,64242,-0.0259553,-0.0263795,9.66479,33,-0.000220632,10,-0.000254953,-2.01481,0.0827661,0.712853,266.15,-0.0263795,
2,1,0,1,1,64242,-0.0235582,-0.0239629,10.2943,33,-0.000180643,10,-0.00024668,-1.9874,0.0915842,0.644216,256.738,-0.0239629,
2,1,0,1,1,64242,-0.0211611,-0.0216088,10.8996,33,-0.000138183,10,-0.000235528,-1.96259,0.0997323,0.591583,249.76,-0.0216088,
2,1,0,1,1,64242,-0.0187529,-0.0191857,11.4919,33,-9.33213e-05,10,-0.00022048,-1.93961,0.109466,0.538978,239.901,-0.0191857,
2,1,0,1,1,64242,-0.0163558,-0.0167924,12.0593,33,-4.61582e-05,10,-0.000202504,-1.91868,0.119855,0.49226,230.088,-0.0167924,
2,1,0,1,1,64242,-0.0139587,-0.014381,12.593,33,3.20042e-06,10,-0.0001811,-1.89987,0.130097,0.453508,221.774,-0.014381,
2,1,0,1,1,64242,-0.0115505,-0.0119484,13.1224,33,5.46908e-05,10,-0.000156792,-1.88199,0.141646,0.416531,212.271,-0.0119484,
2,1,0,1,1,64242,-0.0091534,-0.00954662,13.6296,33,0.000108249,10,-0.000130116,-1.86552,0.151035,0.390638,206.794,-0.00954662,
2,1,0,1,1,64242,-0.00675629,-0.00712889,14.1105,33,0.000163796,10,-0.000100593,-1.85046,0.162236,0.363667,199.521,-0.00712889,
2,1,0,1,1,64242,-0.00435919,-0.0047504,14.5845,33,0.000221233,10,-6.92824e-05,-1.83611,0.179212,0.329219,185.844,-0.0047504,
2,1,0,1,1,64242,-0.00195376,-0.00235282,15.0369,33,0.000280544,10,-3.53791e-05,-1.82284, , , ,-0.00235282,
2,1,0,0,1,64242,-7.54729e-05,-0.000382585,15.3326,33,0.000327663,10,-5.86605e-06,-1.81438, , , ,-0.000382585,