File: Figure_codes/Fig_3-5/rawdata_trumpetplot_data/after 10th/20221101_1-115_003_TrumpetPlot_ParaChange_from10_every3_08_CV_C01_31.csv
mode,ox/red,error,control changes,counter inc.,time/s,control/V,Ewe/V,<I>/mA,cycle number,(Q-Qo)/C,I Range,P/W,log(|I|),Tafel slope mV/dec,alpha_eff,dI/d(E-IR),E-IR/V,
2,0,0,0,0,62249.1,2.44065e-05,-0.000382585,-3.96265,32,0.0000000E+000,10,1.51605e-06,-2.40201, , , ,-0.000382585,
2,0,0,1,0,62249.1,0.0012943,0.000911944,-2.63011,32,-5.03052e-05,10,-2.39851e-06,-2.58003, , , ,0.000911944,
2,0,0,1,0,62249.1,0.00279784,0.00244234,-1.5974,32,-8.93403e-05,10,-3.9014e-06,-2.79659,-0.00600107,-9.83158,594.848,0.00244234,
2,0,0,1,0,62249.1,0.00429425,0.00394003,-0.85716,32,-0.000111743,10,-3.37724e-06,-3.06694,-0.0031014,-19.0237,454.139,0.00394003,
2,0,0,1,0,62249.1,0.00579065,0.00548199,-0.264603,32,-0.00012181,10,-1.45055e-06,-3.5774,-0.00826856,-7.13547,358.669,0.00548199,
2,1,0,1,0,62249.2,0.00729419,0.00696024,0.220093,32,-0.000121899,10,1.5319e-06,-3.65739,0.0188167,3.13551,298.156,0.00696024,
2,1,0,1,0,62249.2,0.00878347,0.00841701,0.614915,32,-0.00011384,10,5.17575e-06,-3.21118,0.00330016,17.8779,246.159,0.00841701,
2,1,0,1,0,62249.2,0.010287,0.00991741,0.948383,32,-9.88931e-05,10,9.4055e-06,-3.02302,0.00917244,6.43231,208.228,0.00991741,
2,1,0,1,0,62249.2,0.0117905,0.011411,1.22768,32,-7.81427e-05,10,1.4009e-05,-2.91092,0.0146389,4.03035,181.879,0.01141099,
2,1,0,1,0,62249.2,0.013278,0.0129063,1.46396,32,-5.27926e-05,10,1.88943e-05,-2.83447,0.0211422,2.79062,155.044,0.0129063,
2,1,0,1,0,62249.2,0.0147816,0.0144326,1.68001,32,-2.28687e-05,10,2.42468e-05,-2.77469,0.0284071,2.07695,133.413,0.0144326,
2,1,0,1,0,62249.3,0.0162851,0.0159562,1.86701,32,1.08567e-05,10,2.97903e-05,-2.72885,0.0359475,1.64128,117.663,0.0159562,
2,1,0,1,0,62249.3,0.0177744,0.0174242,2.03587,32,4.74555e-05,10,3.54733e-05,-2.69125,0.0456225,1.29322,101.508,0.0174242,
2,1,0,1,0,62249.3,0.0192779,0.0189256,2.17923,32,8.73106e-05,10,4.12432e-05,-2.6617,0.0542808,1.08694,91.836,0.0189256,
2,1,0,1,0,62249.3,0.0207743,0.0203959,2.31021,32,0.000129578,10,4.71189e-05,-2.63635,0.0620813,0.950366,85.189,0.0203959,
2,1,0,1,0,62249.3,0.0222707,0.0219223,2.43559,32,0.000174213,10,5.33938e-05,-2.6134,0.0758544,0.777806,73.535,0.0219223,
2,1,0,1,0,62249.4,0.0237743,0.0233931,2.5457,32,0.000221259,10,5.95516e-05,-2.59419,0.0840835,0.701684,69.4314,0.0233931,
2,1,0,1,0,62249.4,0.0252636,0.0249163,2.6445,32,0.000269726,10,6.58912e-05,-2.57766,0.0926834,0.636576,65.6173,0.0249163,
2,1,0,1,0,62249.4,0.0267671,0.0264225,2.74681,32,0.000320573,10,7.25777e-05,-2.56117,0.10103,0.583987,62.321,0.0264225,
2,1,0,1,0,62249.4,0.0282706,0.0279348,2.8412,32,0.000373216,10,7.93683e-05,-2.5465,0.111158,0.530776,58.5145,0.0279348,
2,1,0,1,0,62249.4,0.0297581,0.0294373,2.91972,32,0.000426937,10,8.59485e-05,-2.53466,0.120422,0.489942,55.6307,0.0294373,
2,1,0,1,0,62249.5,0.0312617,0.0309019,2.9933,32,0.000482749,10,9.24986e-05,-2.52385,0.1283,0.459861,53.7168,0.03090187,
2,1,0,1,0,62249.5,0.0327652,0.0324091,3.07431,32,0.00053999,10,9.96355e-05,-2.51225,0.135398,0.435751,52.2574,0.0324091,
2,1,0,1,0,62249.5,0.0342545,0.0338706,3.15118,32,0.000598085,10,0.000106732,-2.50153,0.139612,0.4226,51.8837,0.0338706,
2,1,0,1,0,62249.5,0.035758,0.0354112,3.22213,32,0.000658194,10,0.0001141,-2.49186,0.156308,0.377461,47.3447,0.0354112,
2,1,0,1,0,62249.5,0.0372544,0.0368943,3.2909,32,0.000719341,10,0.000121415,-2.48268,0.160304,0.368051,47.2414,0.0368943,
2,1,0,1,0,62249.5,0.0387508,0.0384032,3.35454,32,0.000781694,10,0.000128825,-2.47437,0.167759,0.351696,46.1443,0.0384032,
2,1,0,1,0,62249.6,0.0402544,0.0399261,3.42361,32,0.000845681,10,0.000136692,-2.46552,0.178928,0.329741,44.0772,0.0399261,
2,1,0,1,0,62249.6,0.0417436,0.0414115,3.49249,32,0.000910286,10,0.000144629,-2.45686,0.180927,0.326098,44.3908,0.0414115,
2,1,0,1,0,62249.6,0.0432472,0.0429187,3.55609,32,0.000976794,10,0.000152623,-2.44903,0.199456,0.295805,41.0267,0.0429187,
2,1,0,1,0,62249.6,0.0447507,0.0443908,3.61726,32,0.00104445,10,0.000160573,-2.44162,0.202951,0.29071,41.0816,0.0443908,
2,1,0,1,0,62249.6,0.0462382,0.0459099,3.68112,32,0.00111257,10,0.000169,-2.43402,0.20349,0.28994,41.6338,0.0459099,
2,1,0,1,0,62249.7,0.0477418,0.0473698,3.74592,32,0.00118261,10,0.000177443,-2.42644,0.219917,0.268283,39.1987,0.0473698,
2,1,0,1,0,62249.7,0.0492453,0.0488913,3.80893,32,0.00125381,10,0.000186223,-2.4192,0.227698,0.259115,38.4749,0.0488913,
2,1,0,1,0,62249.7,0.0507346,0.0503972,3.86566,32,0.00132537,10,0.000194818,-2.41278,0.23768,0.248233,37.4421,0.0503972,
2,1,0,1,0,62249.7,0.0522381,0.0518683,3.92363,32,0.00139874,10,0.000203512,-2.40631,0.237209,0.248726,38.0517,0.0518683,
2,1,0,1,0,62249.7,0.0537345,0.0534002,3.98822,32,0.00147288,10,0.000212972,-2.39922,0.22179,0.266017,41.3267,0.0534002,
2,1,0,1,0,62249.8,0.0552309,0.0548991,4.04548,32,0.0015481,10,0.000222093,-2.39303,0.242612,0.243187,38.3107,0.0548991,
2,1,0,1,0,62249.8,0.0567345,0.0563657,4.09834,32,0.00162484,10,0.000231006,-2.38739,0.240642,0.245177,39.1992,0.0563657,
2,1,0,1,0,62249.8,0.0582237,0.0578688,4.15004,32,0.00170174,10,0.000240158,-2.38195,0.253367,0.232864,37.7561,0.0578688,
2,1,0,1,0,62249.8,0.0597273,0.0593846,4.20663,32,0.00178053,10,0.000249809,-2.37607,0.256053,0.230421,37.8332,0.0593846,
2,1,0,1,0,62249.8,0.0612308,0.0608563,4.26061,32,0.00186037,10,0.000259285,-2.37053,0.275934,0.213819,35.5449,0.0608563,
2,1,0,1,0,62249.8,0.0627183,0.0623861,4.31493,32,0.00194038,10,0.000269191,-2.36503,0.265075,0.222579,37.4836,0.0623861,
2,1,0,1,0,62249.9,0.0642218,0.0638848,4.36478,32,0.00202221,10,0.000278843,-2.36004,0.273319,0.215865,36.8144,0.06388475,
2,1,0,1,0,62249.9,0.0657254,0.0653838,4.4191,32,0.00210504,10,0.000288938,-2.35467,0.297521,0.198305,34.2031,0.0653838,
2,1,0,1,0,62249.9,0.0672147,0.0668825,4.47187,32,0.00218802,10,0.00029909,-2.34951,0.298653,0.197554,34.4772,0.0668825,
2,1,0,1,0,62249.9,0.0687182,0.0683716,4.522,32,0.00227282,10,0.000309177,-2.34467,0.331922,0.177753,31.3686,0.0683716,
2,1,0,1,0,62249.9,0.0702146,0.069866,4.57686,32,0.00235811,10,0.000319767,-2.33943,0.338547,0.174274,31.0792,0.069866,
2,1,0,1,0,62250,0.071711,0.0713598,4.62373,32,0.00244428,10,0.000329949,-2.33501,0.337874,0.174621,31.5046,0.0713598,
2,1,0,1,0,62250,0.0732146,0.072866,4.67408,32,0.00253183,10,0.000340582,-2.3303,0.333088,0.17713,32.2871,0.072866,
2,1,0,1,0,62250,0.0747038,0.0743565,4.72037,32,0.00261938,10,0.00035099,-2.32602,0.355789,0.165829,30.5181,0.0743565,
2,1,0,1,0,62250,0.0762074,0.0758283,4.76366,32,0.00270872,10,0.00036122,-2.32206,0.382658,0.154185,28.6541,0.0758283,
2,1,0,1,0,62250,0.0777109,0.0773802,4.81139,32,0.00279885,10,0.000372306,-2.31773,0.368262,0.160212,30.0461,0.0773802,
2,1,0,1,0,62250.1,0.0791984,0.0788761,4.85848,32,0.00288887,10,0.000383218,-2.3135,0.360212,0.163792,31.0019,0.07887613,
2,1,0,1,0,62250.1,0.0807019,0.0803694,4.89233,32,0.00298071,10,0.000393194,-2.31048,0.383966,0.153659,29.3079,0.0803694,
2,1,0,1,0,62250.1,0.0822055,0.0818749,4.93216,32,0.00307331,10,0.00040382,-2.30696,0.394623,0.14951,28.7737,0.0818749,
2,1,0,1,0,62250.1,0.0836947,0.0832914,4.9686,32,0.00316561,10,0.000413842,-2.30377,0.430412,0.137078,26.6064,0.0832914,
2,1,0,1,0,62250.1,0.0851983,0.0848283,5.00537,32,0.00325966,10,0.000424597,-2.30056,0.416901,0.141521,27.6864,0.08482831,
2,1,0,1,0,62250.1,0.0866947,0.0863416,5.04517,32,0.00335395,10,0.000435608,-2.29712,0.476108,0.123921,24.4001,0.0863416,
2,1,0,1,0,62250.2,0.0881911,0.087853,5.08721,32,0.00344896,10,0.000446926,-2.29352,0.495495,0.119073,23.6206,0.08785297,
2,1,0,1,0,62250.2,0.0896946,0.0893598,5.12224,32,0.00354512,10,0.000457722,-2.29054,0.48031,0.122837,24.576,0.0893598,
2,1,0,1,0,62250.2,0.0911839,0.0908449,5.16039,32,0.003641,10,0.000468795,-2.28732,0.475414,0.124102,25.0024,0.0908449,
2,1,0,1,0,62250.2,0.0926857,0.0923719,5.19977,32,0.00373869,10,0.000480312,-2.28402,0.486342,0.121314,24.6435,0.0923719,
2,1,0,1,0,62250.2,0.0941892,0.0938068,5.24549,32,0.00383712,10,0.000492063,-2.28021,0.488351,0.120815,24.7329,0.0938068,
2,1,0,1,0,62250.3,0.0956785,0.0953062,5.2851,32,0.00393522,10,0.000503703,-2.27695,0.46831,0.125985,25.9935,0.0953062,
2,1,0,1,0,62250.3,0.097182,0.0968727,5.3305,32,0.00403514,10,0.00051638,-2.27323,0.401621,0.146905,30.5457,0.0968727,
2,1,0,1,0,62250.3,0.0986856,0.0983145,5.3759,32,0.00413594,10,0.000528529,-2.26955,0.373454,0.157985,33.1525,0.0983145,
2,1,0,1,0,62250.3,0.100175,0.0998265,5.4279,32,0.00423658,10,0.000541848,-2.26537,0.375429,0.157154,33.2669,0.0998265,
2,1,0,1,0,62250.3,0.101678,0.101313,5.47178,32,0.00433921,10,0.000554362,-2.26187,0.347436,0.169816,36.319,0.101313,
2,1,0,1,0,62250.4,0.103175,0.102809,5.53234,32,0.00444228,10,0.000568773,-2.25709,0.315893,0.186772,40.3236,0.102809,
2,1,0,1,0,62250.4,0.104671,0.104345,5.59293,32,0.00454647,10,0.000583593,-2.25236,0.284547,0.207347,45.2987,0.104345,
2,1,0,1,0,62250.4,0.106175,0.105849,5.65861,32,0.00465242,10,0.00059896,-2.24729,0.282643,0.208744,46.0802,0.105849,
2,1,0,1,0,62250.4,0.107662,0.107341,5.72189,32,0.00475854,10,0.000614194,-2.24246,0.276151,0.213651,47.7693,0.107341,
2,1,0,1,0,62250.4,0.109166,0.108833,5.79325,32,0.00486702,10,0.000630499,-2.23708,0.270846,0.217836,49.3465,0.108833,
2,1,0,1,0,62250.4,0.110669,0.110334,5.86851,32,0.00497694,10,0.000647495,-2.23147,0.260883,0.226155,51.8559,0.110334,
2,1,0,1,0,62250.5,0.112159,0.111851,5.95029,32,0.00508717,10,0.000665547,-2.22546,0.264601,0.222977,51.8116,0.111851,
2,1,0,1,0,62250.5,0.113662,0.11332,6.0316,32,0.00520005,10,0.000683498,-2.21957,0.273299,0.215881,50.8275,0.11332,
2,1,0,1,0,62250.5,0.115166,0.114803,6.11184,32,0.00531444,10,0.000701657,-2.21383,0.260322,0.226642,54.0594,0.114803,
2,1,0,1,0,62250.5,0.116655,0.116324,6.19373,32,0.00542912,10,0.00072048,-2.20805,0.264947,0.222686,53.8494,0.116324,
2,1,0,1,0,62250.5,0.118158,0.117814,6.27805,32,0.00554662,10,0.000739641,-2.20218,0.279462,0.21112,51.6866,0.117814,
2,1,0,1,0,62250.6,0.119655,0.119303,6.35934,32,0.00566499,10,0.000758692,-2.19659,0.292641,0.201612,49.9849,0.119303,
2,1,0,1,0,62250.6,0.121151,0.120753,6.42928,32,0.00578474,10,0.000776357,-2.19184,0.297877,0.198068,49.72,0.120753,
2,1,0,1,0,62250.6,0.122655,0.122336,6.51517,32,0.00590656,10,0.000797042,-2.18607,0.288197,0.204721,51.9745,0.122336,
2,1,0,1,0,62250.6,0.124142,0.123752,6.58453,32,0.00602855,10,0.000814851,-2.18148,0.303402,0.194461,49.9365,0.123752,
2,1,0,1,0,62250.6,0.125646,0.125272,6.65598,32,0.0061532,10,0.000833805,-2.17679,0.341291,0.172873,44.8496,0.1252716,
2,1,0,1,0,62250.6,0.127149,0.126782,6.71272,32,0.0062791,10,0.000851052,-2.1731,0.361743,0.163099,42.7199,0.1267819,
2,1,0,1,0,62250.7,0.128639,0.128283,6.77391,32,0.00640475,10,0.000868977,-2.16916,0.403284,0.146299,38.6649,0.128283,
2,1,0,1,0,62250.7,0.130142,0.129807,6.8247,32,0.00653283,10,0.000885894,-2.16592,0.432067,0.136553,36.3837,0.129807,
2,1,0,1,0,62250.7,0.131646,0.131276,6.886,32,0.00666197,10,0.000903964,-2.16203,0.474494,0.124343,33.3599,0.131276,
2,1,0,1,0,62250.7,0.133135,0.132777,6.92566,32,0.00679064,10,0.000919566,-2.15954,0.556701,0.105982,28.649,0.132777,
2,1,0,1,0,62250.7,0.134639,0.134284,6.96444,32,0.00692147,10,0.00093521,-2.15711,0.612343,0.0963513,26.2075,0.134284,
2,1,0,1,0,62250.8,0.136135,0.135747,7.00851,32,0.0070524,10,0.000951383,-2.15437,0.692762,0.0851663,23.2891,0.135747,
2,1,0,1,0,62250.8,0.137631,0.137291,7.04654,32,0.00718403,10,0.000967427,-2.15202,0.805566,0.0732404,20.1261,0.137291,
2,1,0,1,0,62250.8,0.139135,0.138806,7.07798,32,0.00731701,10,0.000982462,-2.15009,1.01277,0.0582559,16.0733,0.138806,
2,1,0,1,0,62250.8,0.140622,0.140241,7.09837,32,0.00744906,10,0.000995479,-2.14884,1.25424,0.0470405,13.0231,0.140241,
2,1,0,1,0,62250.8,0.142126,0.141811,7.11856,32,0.00758293,10,0.00100949,-2.14761,1.51613,0.038915,10.8046,0.141811,
2,1,0,1,0,62250.9,0.143629,0.143261,7.13662,32,0.00771714,10,0.0010224,-2.14651,3.28262,0.0179735,4.99921,0.1432607,
2,1,0,1,0,62250.9,0.145119,0.144812,7.14239,32,0.0078501,10,0.00103431,-2.14616,-5.2103,-0.0113237,-3.14928,0.144812,
2,1,0,1,0,62250.9,0.146622,0.146296,7.12688,32,0.00798442,10,0.00104264,-2.1471,-1.45051,-0.0406754,-11.2955,0.146296,
2,1,0,1,0,62250.9,0.148126,0.147785,7.10626,32,0.0081184,10,0.0010502,-2.14836,-0.854344,-0.0690588,-19.1125,0.1477851,
2,1,0,1,0,62250.9,0.149615,0.149253,7.06863,32,0.00825039,10,0.00105502,-2.15066,-0.569301,-0.103636,-28.5285,0.149253,
2,1,0,1,0,62250.9,0.151119,0.150766,7.01774,32,0.00838297,10,0.00105804,-2.1538,-0.395453,-0.149196,-40.7196,0.150766,
2,1,0,1,0,62251,0.152615,0.152266,6.93976,32,0.00851371,10,0.00105669,-2.15866,-0.301981,-0.195377,-52.8075,0.152266,
2,1,0,1,0,62251,0.154111,0.153739,6.85028,32,0.00864287,10,0.00105316,-2.16429,-0.238879,-0.246987,-65.9142,0.153739,
2,1,0,1,0,62251,0.155615,0.155223,6.74354,32,0.00877088,10,0.00104675,-2.17111,-0.20518,-0.287553,-75.5266,0.155223,
2,1,0,1,0,62251,0.157103,0.156746,6.62263,32,0.00889545,10,0.00103807,-2.17897,-0.169576,-0.347926,-89.6982,0.156746,
2,1,0,1,0,62251,0.158606,0.158256,6.47986,32,0.00901886,10,0.00102548,-2.18843,-0.152426,-0.387072,-97.7255,0.158256,
2,1,0,1,0,62251.1,0.16011,0.159773,6.32504,32,0.00913946,10,0.00101057,-2.19894,-0.137076,-0.430418,-106.122,0.159773,
2,1,0,1,0,62251.1,0.161599,0.16126,6.16337,32,0.00925587,10,0.000993904,-2.21018,-0.128325,-0.459769,-110.486,0.16126,
2,1,0,1,0,62251.1,0.163102,0.162762,5.99699,32,0.00937039,10,0.000976081,-2.22207,-0.118116,-0.499509,-116.8,0.162762,
2,1,0,1,0,62251.1,0.164606,0.16422,5.82601,32,0.00948173,10,0.000956747,-2.23463,-0.114942,-0.5133,-116.58,0.16422,
2,1,0,1,0,62251.1,0.166095,0.165745,5.65747,32,0.00958863,10,0.000937699,-2.24738,-0.115159,-0.512333,-113.063,0.165745,
2,1,0,1,0,62251.2,0.167599,0.16726,5.48485,32,0.00969346,10,0.000917393,-2.26084,-0.113152,-0.521425,-111.642,0.16726,
2,1,0,1,0,62251.2,0.169095,0.16875,5.32686,32,0.0097947,10,0.000898907,-2.27353,-0.117226,-0.5033,-104.606,0.16875,
2,1,0,1,0,62251.2,0.170592,0.170267,5.17404,32,0.009893,10,0.000880966,-2.28617,-0.11676,-0.505308,-102.029,0.170267,
2,1,0,1,0,62251.2,0.172095,0.171742,5.0194,32,0.00998895,10,0.00086204,-2.29935,-0.121819,-0.484324,-95.0089,0.171742,
2,1,0,1,0,62251.2,0.173583,0.173234,4.88193,32,0.0100812,10,0.000845715,-2.31141,-0.125463,-0.470257,-89.684,0.173234,
2,1,0,1,0,62251.2,0.175086,0.174757,4.7516,32,0.0101719,10,0.000830373,-2.32316,-0.132892,-0.443971,-82.3705,0.174757,
2,1,0,1,0,62251.3,0.17659,0.176271,4.62826,32,0.0102602,10,0.000815827,-2.33458,-0.136115,-0.433456,-78.3358,0.176271,
2,1,0,1,0,62251.3,0.178079,0.177716,4.51265,32,0.0103455,10,0.000801973,-2.34557,-0.142612,-0.413711,-73.023,0.1777164,
2,1,0,1,0,62251.3,0.179582,0.179212,4.4061,32,0.0104295,10,0.000789626,-2.35595,-0.151757,-0.388779,-67.0885,0.179212,
2,1,0,1,0,62251.3,0.181086,0.18076,4.31008,32,0.0105117,10,0.000779089,-2.36551,-0.160082,-0.368561,-62.1701,0.1807598,
2,1,0,1,0,62251.3,0.182575,0.182249,4.22888,32,0.0105914,10,0.000770708,-2.37377,-0.168139,-0.3509,-57.9293,0.182249,
2,1,0,1,0,62251.4,0.184079,0.183789,4.14173,32,0.0106702,10,0.000761203,-2.38282,-0.175314,-0.336539,-54.4812,0.183789,
2,1,0,1,0,62251.4,0.185582,0.185229,4.06224,32,0.0107475,10,0.000752445,-2.39123,-0.188722,-0.312629,-49.6884,0.185229,
2,1,0,1,0,62251.4,0.18707,0.186748,3.99649,32,0.0108227,10,0.000746339,-2.39832,-0.201491,-0.292817,-45.6896,0.186748,
2,1,0,1,0,62251.4,0.188573,0.188223,3.93219,32,0.0108974,10,0.000740127,-2.40537,-0.213665,-0.276133,-42.398,0.188223,
2,1,0,1,0,62251.4,0.19007,0.189708,3.87136,32,0.0109705,10,0.000734429,-2.41214,-0.219533,-0.268752,-40.5708,0.189708,
2,1,0,1,0,62251.5,0.191566,0.191252,3.81423,32,0.0110425,10,0.00072948,-2.41859,-0.233874,-0.252273,-37.5653,0.191252,
2,1,0,1,0,62251.5,0.19307,0.192721,3.75967,32,0.0111138,10,0.000724568,-2.42485,-0.266264,-0.221585,-32.5464,0.192721,
2,1,0,1,0,62251.5,0.194559,0.194216,3.71837,32,0.0111835,10,0.000722168,-2.42965,-0.279127,-0.211373,-30.659,0.194216,
2,1,0,1,0,62251.5,0.196063,0.195729,3.67006,32,0.0112531,10,0.000718337,-2.43533,-0.291185,-0.20262,-29.0104,0.195729,
2,1,0,1,0,62251.5,0.197566,0.197202,3.61986,32,0.0113219,10,0.000713845,-2.44131,-0.316452,-0.186442,-26.4186,0.197202,
2,1,0,1,0,62251.5,0.199055,0.198697,3.58933,32,0.0113891,10,0.000713188,-2.44499,-0.357834,-0.164881,-23.0882,0.198697,
2,1,0,1,0,62251.6,0.200559,0.200213,3.54861,32,0.0114564,10,0.000710478,-2.44994,-0.365086,-0.161606,-22.4117,0.200213,
2,1,0,1,0,62251.6,0.202062,0.201726,3.51469,32,0.0115231,10,0.000709003,-2.45411,-0.365949,-0.161225,-22.1248,0.201726,
2,1,0,1,0,62251.6,0.20355,0.203163,3.47939,32,0.0115884,10,0.000706883,-2.4585,-0.392038,-0.150496,-20.4857,0.203163,
2,1,0,1,0,62251.6,0.205053,0.204705,3.44983,32,0.0116538,10,0.000706198,-2.4622,-0.461496,-0.127845,-17.2656,0.204705,
2,1,0,1,0,62251.6,0.20655,0.206234,3.42731,32,0.0117184,10,0.000706829,-2.46505,-0.469364,-0.125702,-16.8474,0.206234,
2,1,0,1,0,62251.7,0.208046,0.207699,3.40465,32,0.0117826,10,0.000707141,-2.46793,-0.432785,-0.136326,-18.1082,0.207699,
2,1,0,1,0,62251.7,0.20955,0.209206,3.38092,32,0.0118466,10,0.000707307,-2.47097,-0.427551,-0.137995,-18.2251,0.209206,
2,1,0,1,0,62251.7,0.211039,0.210692,3.35871,32,0.0119095,10,0.000707654,-2.47383,-0.457356,-0.129002,-16.9201,0.210692,
2,1,0,1,0,62251.7,0.212543,0.212216,3.3362,32,0.0119726,10,0.000707995,-2.47675,-0.497672,-0.118552,-15.4375,0.212216,
2,1,0,1,0,62251.7,0.214046,0.213706,3.32193,32,0.0120354,10,0.000709916,-2.47861,-0.556863,-0.105951,-13.7158,0.213706,
2,1,0,1,0,62251.8,0.215535,0.215167,3.3033,32,0.0120971,10,0.000710762,-2.48105,-0.682918,-0.086394,-11.1244,0.215167,
2,1,0,1,0,62251.8,0.217039,0.216689,3.2828,32,0.0121591,10,0.000711347,-2.48376,-0.694621,-0.0849384,-10.874,0.216689,
2,1,0,1,0,62251.8,0.218543,0.218218,3.26223,32,0.0122208,10,0.000711879,-2.48649,-1.00154,-0.0589091,-7.5063,0.218218,
2,1,0,1,0,62251.8,0.22003,0.219706,3.25463,32,0.0122816,10,0.000715063,-2.4875,-1.05925,-0.0556996,-7.06464,0.219706,
2,1,0,1,0,62251.8,0.221534,0.221204,3.23532,32,0.0123427,10,0.000715667,-2.49008,-0.740454,-0.0796809,-10.0581,0.221204,
2,1,0,1,0,62251.8,0.22303,0.222689,3.21816,32,0.0124033,10,0.00071665,-2.49239,-0.858764,-0.0687034,-8.63106,0.222689,
2,1,0,1,0,62251.9,0.224526,0.22419,3.20041,32,0.0124635,10,0.0007175,-2.49479,-0.83526,-0.0706367,-8.84008,0.22419,
2,1,0,1,0,62251.9,0.22603,0.225724,3.18776,32,0.0125238,10,0.000719555,-2.49651,-0.976744,-0.0604048,-7.52274,0.2257244,
2,1,0,1,0,62251.9,0.227519,0.227166,3.17821,32,0.0125833,10,0.000721979,-2.49782,-0.813355,-0.072539,-8.9978,0.227166,
2,1,0,1,0,62251.9,0.229023,0.228657,3.16635,32,0.0126432,10,0.000724007,-2.49944,-0.830204,-0.0710669,-8.78498,0.228657,
2,1,0,1,0,62251.9,0.230526,0.23017,3.15286,32,0.0127028,10,0.000725694,-2.5013,-0.921839,-0.0640025,-7.89258,0.23017,
2,1,0,1,0,62252,0.232016,0.231676,3.14658,32,0.0127616,10,0.000728986,-2.50216,-1.10407,-0.0534385,-6.55869,0.231676,
2,1,0,1,0,62252,0.233519,0.233196,3.13741,32,0.0128209,10,0.000731632,-2.50343,-0.939817,-0.0627782,-7.68238,0.233196,
2,1,0,1,0,62252,0.235023,0.234692,3.13057,32,0.01288,10,0.000734721,-2.50438,-0.965717,-0.0610945,-7.45516,0.234692,
2,1,0,1,0,62252,0.23651,0.236165,3.12153,32,0.0129383,10,0.000737198,-2.50563,-1.02396,-0.0576193,-7.01758,0.236165,
2,1,0,1,0,62252,0.238014,0.237715,3.10887,32,0.012997,10,0.000739025,-2.5074,-1.41051,-0.0418288,-5.07633,0.237715,
2,1,0,1,0,62252.1,0.23951,0.239146,3.10519,32,0.0130553,10,0.000742594,-2.50791,-1.55615,-0.0379141,-4.58629,0.239146,
2,1,0,1,0,62252.1,0.241007,0.240697,3.09653,32,0.0131134,10,0.000745327,-2.50912,-1.22255,-0.0482597,-5.82356,0.2406974,
2,1,0,1,0,62252.1,0.24251,0.242162,3.0832,32,0.0131716,10,0.000746633,-2.511,-2.17766,-0.0270934,-3.2598,0.242162,
2,1,0,1,0,62252.1,0.243999,0.243698,3.0764,32,0.0132291,10,0.000749713,-2.51196,-2.38759,-0.0247111,-2.96946,0.243698,
2,1,0,1,0,62252.1,0.245503,0.245152,3.07362,32,0.0132871,10,0.000753503,-2.51235,-2.15303,-0.0274032,-3.28338,0.245152,
2,1,0,1,0,62252.1,0.247006,0.246633,3.06177,32,0.013345,10,0.000755132,-2.51403,-2.20923,-0.0267061,-3.19223,0.2466325,
2,1,0,1,0,62252.2,0.248496,0.24813,3.04994,32,0.0134021,10,0.00075678,-2.51571,-1.84585,-0.0319636,-3.8133,0.24813,
2,1,0,1,0,62252.2,0.249999,0.249633,3.04319,32,0.0134597,10,0.000759679,-2.51667,-1.27286,-0.0463525,-5.51669,0.249633,
2,1,0,1,0,62252.2,0.251503,0.251161,3.03972,32,0.0135172,10,0.00076346,-2.51717,-2.80957,-0.0209997,-2.49336,0.251161,
2,1,0,1,0,62252.2,0.25299,0.252673,3.03459,32,0.0135739,10,0.000766759,-2.5179,-1.14727,-0.0514266,-6.09158,0.252673,
2,1,0,1,0,62252.2,0.254494,0.254127,3.02826,32,0.0136312,10,0.000769561,-2.51881,-1.40277,-0.0420596,-4.97165,0.254127,
2,1,0,1,0,62252.3,0.25599,0.255663,3.02023,32,0.0136879,10,0.000772161,-2.51996,-1.58707,-0.0371754,-4.38921,0.255663,
2,1,0,1,0,62252.3,0.257487,0.257184,3.0167,32,0.0137446,10,0.000775845,-2.52047,-1.66071,-0.035527,-4.18815,0.2571837,
2,1,0,1,0,62252.3,0.25899,0.258643,3.01546,32,0.0138015,10,0.000779928,-2.52065,-2.40802,-0.0245015,-2.87954,0.258643,
2,1,0,1,0,62252.3,0.260479,0.260157,3.01553,32,0.0138578,10,0.000784512,-2.52064,-1.20457,-0.0489802,-5.75467,0.260157,
2,1,0,1,0,62252.3,0.261983,0.261657,3.00308,32,0.0139145,10,0.000785775,-2.52243,-1.56307,-0.0377461,-4.42637,0.261657,
2,1,0,1,0,62252.4,0.263486,0.263097,2.99896,32,0.0139711,10,0.000789019,-2.52303,-2.43412,-0.0242387,-2.83527,0.263097,
2,1,0,1,0,62252.4,0.264974,0.264632,2.99711,32,0.014027,10,0.000793132,-2.5233,-2.32687,-0.025356,-2.96286,0.2646322,
2,1,0,1,0,62252.4,0.266477,0.266134,2.98709,32,0.0140834,10,0.000794967,-2.52475,-2.47141,-0.023873,-2.78252,0.266134,
2,1,0,1,0,62252.4,0.267981,0.267653,2.9796,32,0.0141397,10,0.000797499,-2.52584,-2.4318,-0.0242618,-2.82556,0.267653,
2,1,0,1,0,62252.4,0.26947,0.269133,2.97579,32,0.0141953,10,0.000800882,-2.5264,-5.79399,-0.010183,-1.18344,0.269133,
2,1,0,1,0,62252.4,0.270974,0.27064,2.97342,32,0.0142514,10,0.000804726,-2.52674,-2.51805,-0.0234308,-2.71785,0.2706396,
2,1,0,1,0,62252.5,0.27247,0.272117,2.96752,32,0.0143072,10,0.000807512,-2.52761,-4.94831,-0.0119233,-1.38109,0.272117,
2,1,0,1,0,62252.5,0.273967,0.27367,2.95733,32,0.0143629,10,0.000809333,-2.5291,-1.54367,-0.0382206,-4.42214,0.27367,
2,1,0,1,0,62252.5,0.27547,0.275142,2.95329,32,0.0144187,10,0.000812573,-2.52969,-1.45994,-0.0404127,-4.66614,0.275142,
2,1,0,1,0,62252.5,0.276959,0.276602,2.95025,32,0.0144739,10,0.000816046,-2.53014,-1.75582,-0.0336026,-3.87435,0.276602,
2,1,0,1,0,62252.5,0.278463,0.278136,2.94631,32,0.0145296,10,0.000819474,-2.53072,-1.08483,-0.0543863,-6.25487,0.278136,
2,1,0,1,0,62252.6,0.279967,0.279611,2.94317,32,0.0145852,10,0.000822943,-2.53119,-1.42711,-0.0413422,-4.7474,0.279611,
2,1,0,1,0,62252.6,0.281454,0.281107,2.93676,32,0.01464,10,0.000825543,-2.53213,-1.49246,-0.0395321,-4.53567,0.281107,
2,1,0,1,0,62252.6,0.282958,0.282606,2.93339,32,0.0146954,10,0.000828993,-2.53263,-1.9094,-0.0308998,-3.53664,0.282606,
2,1,0,1,0,62252.6,0.284461,0.284118,2.93229,32,0.0147507,10,0.000833114,-2.53279,-2.14877,-0.0274575,-3.13692,0.284118,
2,1,0,1,0,62252.6,0.28595,0.285618,2.92909,32,0.0148054,10,0.0008366,-2.53327,-1.09064,-0.0540965,-6.1766,0.285618,
2,1,0,1,0,62252.7,0.287454,0.287142,2.91805,32,0.0148605,10,0.000837895,-2.53491,-1.60187,-0.036832,-4.19439,0.287142,
2,1,0,1,0,62252.7,0.28895,0.288637,2.91083,32,0.0149152,10,0.000840172,-2.53598,-4.03139,-0.0146351,-1.66408,0.288637,
2,1,0,1,0,62252.7,0.290447,0.290098,2.91385,32,0.0149698,10,0.0008453,-2.53553,-3.38128,-0.017449,-1.98141,0.290098,
2,1,0,1,0,62252.7,0.29195,0.291615,2.90403,32,0.0150247,10,0.000846859,-2.537,-2.64678,-0.0222912,-2.52568,0.291615,
2,1,0,1,0,62252.7,0.29344,0.293116,2.89747,32,0.0150788,10,0.000849293,-2.53798,-3.56145,-0.0165663,-1.87454,0.293116,
2,1,0,1,0,62252.7,0.294943,0.294547,2.88907,32,0.0151335,10,0.000850967,-2.53924,-3.53265,-0.0167013,-1.88722,0.294547,
2,1,0,1,0,62252.8,0.296447,0.296099,2.88718,32,0.015188,10,0.000854892,-2.53953,-5.60301,-0.0105301,-1.18714,0.296099,
2,1,0,1,0,62252.8,0.297934,0.297626,2.8829,32,0.0152419,10,0.000858027,-2.54017,-2.60757,-0.0226264,-2.54798,0.297626,
2,1,0,1,0,62252.8,0.299438,0.299084,2.87587,32,0.0152964,10,0.000860127,-2.54123,-0.0386304,-1.52729,-161.108,0.299084,
2,1,0,1,0,62252.8,0.300012,0.299689,2.87978,32,0.0153166,10,0.000863039,-2.54064,0.0021662,27.2366,2198.3,0.2996892,
2,1,0,1,0,62252.8,0.298737,0.298391,1.7072,32,0.0153514,10,0.000509414,-2.76771,0.005594,10.547,656.129,0.298391,
2,1,0,1,0,62252.8,0.29724,0.29691,0.950234,32,0.0153755,10,0.000282134,-3.02217,0.00481949,12.242,438.216,0.29691,
2,1,0,1,0,62252.9,0.295744,0.295366,0.440461,32,0.0153881,10,0.000130097,-3.35609,0.00251997,23.413,300.95,0.2953662,
2,1,0,1,0,62252.9,0.29424,0.293899,0.0689329,32,0.0153925,10,2.02593e-05,-4.16157,0.0125403,4.70485,214.778,0.293899,
2,0,0,1,0,62252.9,0.292751,0.292398,-0.202925,32,0.0153909,10,-5.9335e-05,-3.69266,-0.00922546,-6.39535,167.472,0.2923981,
2,0,0,1,0,62252.9,0.291248,0.290895,-0.4213,32,0.0153848,10,-0.000122554,-3.37541,-0.00531851,-11.0933,132.529,0.290895,
2,0,0,1,0,62252.9,0.289744,0.289396,-0.591052,32,0.0153751,10,-0.000171048,-3.22837,-0.0117323,-5.02884,104.589,0.289396,
2,0,0,1,0,62253,0.288257,0.287901,-0.72647,32,0.0153626,10,-0.000209151,-3.13878,-0.0185906,-3.17364,85.5229,0.287901,
2,0,0,1,0,62253,0.286753,0.286401,-0.840303,32,0.0153476,10,-0.000240664,-3.07556,-0.0255233,-2.31161,73.877,0.286401,
2,0,0,1,0,62253,0.285249,0.284874,-0.940007,32,0.0153306,10,-0.000267783,-3.02687,-0.034108,-1.7298,62.3975,0.284874,
2,0,0,1,0,62253,0.28376,0.283433,-1.02575,32,0.015312,10,-0.000290732,-2.98896,-0.0428886,-1.37566,54.5605,0.283433,
2,0,0,1,0,62253,0.282257,0.281908,-1.09992,32,0.0152918,10,-0.000310077,-2.95864,-0.0554016,-1.06495,45.4481,0.281908,
2,0,0,1,0,62253.1,0.28076,0.280402,-1.17061,32,0.0152703,10,-0.000328242,-2.93159,-0.0628739,-0.938387,42.6285,0.280402,
2,0,0,1,0,62253.1,0.279264,0.278913,-1.2298,32,0.0152476,10,-0.000343008,-2.91016,-0.0773167,-0.763095,36.4412,0.2789129,
2,0,0,1,0,62253.1,0.27776,0.277411,-1.28749,32,0.0152238,10,-0.000357164,-2.89026,-0.0903969,-0.652677,32.5388,0.277411,
2,0,0,1,0,62253.1,0.276271,0.275937,-1.33784,32,0.0151992,10,-0.000369161,-2.87359,-0.102379,-0.57629,29.8865,0.275937,
2,0,0,1,0,62253.1,0.274767,0.274399,-1.38221,32,0.0151735,10,-0.000379279,-2.85942,-0.116204,-0.507728,27.2492,0.274399,
2,0,0,1,0,62253.1,0.273264,0.272909,-1.42188,32,0.015147,10,-0.000388043,-2.84714,-0.124174,-0.475138,26.2955,0.2729086,
2,0,0,1,0,62253.2,0.271776,0.271452,-1.45993,32,0.0151201,10,-0.0003963,-2.83567,-0.117991,-0.500038,28.4095,0.271452,
2,0,0,1,0,62253.2,0.270273,0.269922,-1.50078,32,0.0150921,10,-0.000405093,-2.82368,-0.139777,-0.422101,24.6509,0.269922,
2,0,0,1,0,62253.2,0.268769,0.268461,-1.5349,32,0.0150633,10,-0.00041206,-2.81392,-0.153316,-0.384825,22.9985,0.268461,
2,0,0,1,0,62253.2,0.26728,0.266932,-1.56433,32,0.0150343,10,-0.000417569,-2.80567,-0.158283,-0.37275,22.7288,0.266932,
2,0,0,1,0,62253.2,0.265777,0.265438,-1.59891,32,0.0150044,10,-0.000424411,-2.79618,-0.175569,-0.33605,20.9092,0.265438,
2,0,0,1,0,62253.3,0.26428,0.263892,-1.62696,32,0.0149741,10,-0.000429341,-2.78862,-0.174061,-0.338961,21.4603,0.263892,
2,0,0,1,0,62253.3,0.262784,0.262459,-1.65235,32,0.0149432,10,-0.000433673,-2.7819,-0.207768,-0.283971,18.3091,0.262459,
2,0,0,1,0,62253.3,0.26128,0.260908,-1.67819,32,0.0149116,10,-0.000437853,-2.77516,-0.216655,-0.272322,17.8944,0.260908,
2,0,0,1,0,62253.3,0.259791,0.259475,-1.7049,32,0.0148799,10,-0.000442378,-2.7683,-0.240892,-0.244923,16.3544,0.259475,
2,0,0,1,0,62253.3,0.258287,0.257938,-1.73038,32,0.0148473,10,-0.000446331,-2.76186,-0.251836,-0.23428,15.8548,0.257938,
2,0,0,1,0,62253.4,0.256786,0.256465,-1.75688,32,0.0148143,10,-0.000450576,-2.75526,-0.296535,-0.198965,13.6391,0.256465,
2,0,0,1,0,62253.4,0.255296,0.254929,-1.78383,32,0.0147811,10,-0.000454751,-2.74865,-0.320849,-0.183887,12.7881,0.254929,
2,0,0,1,0,62253.4,0.253793,0.253462,-1.80475,32,0.0147472,10,-0.000457437,-2.74358,-0.312767,-0.188639,13.2799,0.253462,
2,0,0,1,0,62253.4,0.252289,0.251965,-1.83013,32,0.0147129,10,-0.000461129,-2.73752,-0.307653,-0.191774,13.6534,0.251965,
2,0,0,1,0,62253.4,0.2508,0.250452,-1.85247,32,0.0146785,10,-0.000463956,-2.73225,-0.304054,-0.194045,13.9916,0.250452,
2,0,0,1,0,62253.4,0.249296,0.248873,-1.87204,32,0.0146434,10,-0.0004659,-2.72768,-0.328584,-0.179558,13.1089,0.248873,
2,0,0,1,0,62253.5,0.2478,0.247422,-1.88702,32,0.014608,10,-0.00046689,-2.72422,-0.325128,-0.181467,13.3899,0.247422,
2,0,0,1,0,62253.5,0.246304,0.245971,-1.9091,32,0.0145724,10,-0.000469583,-2.71917,-0.267342,-0.220691,16.4298,0.245971,
2,0,0,1,0,62253.5,0.2448,0.244447,-1.93147,32,0.0145361,10,-0.000472141,-2.71411,-0.294065,-0.200636,15.0951,0.244447,
2,0,0,1,0,62253.5,0.243313,0.242903,-1.94863,32,0.0144998,10,-0.000473328,-2.71027,-0.339434,-0.173819,13.2029,0.242903,
2,0,0,1,0,62253.5,0.241809,0.241434,-1.96227,32,0.0144628,10,-0.00047376,-2.70724,-0.35189,-0.167666,12.8654,0.241434,
2,0,0,1,0,62253.6,0.240306,0.23998,-1.98211,32,0.0144256,10,-0.000475666,-2.70287,-0.350196,-0.168477,13.0496,0.23998,
2,0,0,1,0,62253.6,0.238816,0.238445,-1.99828,32,0.0143883,10,-0.00047648,-2.69934,-0.370932,-0.159059,12.4025,0.238445,
2,0,0,1,0,62253.6,0.237313,0.236981,-2.01575,32,0.0143503,10,-0.000477695,-2.69556,-0.435801,-0.135383,10.6416,0.236981,
2,0,0,1,0,62253.6,0.235809,0.235475,-2.03264,32,0.014312,10,-0.000478636,-2.69194,-0.436263,-0.13524,10.7441,0.235475,
2,0,0,1,0,62253.6,0.23432,0.233992,-2.0499,32,0.0142738,10,-0.000479659,-2.68827,-0.501966,-0.117538,9.42784,0.233992,
2,0,0,1,0,62253.7,0.232816,0.232467,-2.07062,32,0.0142349,10,-0.00048135,-2.6839,-0.455191,-0.129616,10.4641,0.232467,
2,0,0,1,0,62253.7,0.23132,0.230995,-2.08529,32,0.0141958,10,-0.000481691,-2.68083,-0.523642,-0.112672,9.16755,0.230995,
2,0,0,1,0,62253.7,0.229824,0.229408,-2.10649,32,0.0141564,10,-0.000483245,-2.67644,-0.515368,-0.114481,9.39152,0.229408,
2,0,0,1,0,62253.7,0.22832,0.227949,-2.11881,32,0.0141166,10,-0.000482981,-2.67391,-0.505803,-0.116646,9.6426,0.227949,
2,0,0,1,0,62253.7,0.226833,0.226517,-2.13526,32,0.0140769,10,-0.000483673,-2.67055,-0.452209,-0.130471,10.8663,0.226517,
2,0,0,1,0,62253.7,0.225329,0.224994,-2.15185,32,0.0140364,10,-0.000484152,-2.66719,-0.396914,-0.148647,12.4664,0.224994,
2,0,0,1,0,62253.8,0.223825,0.223511,-2.16787,32,0.0139957,10,-0.000484544,-2.66397,-0.410983,-0.143558,12.1217,0.223511,
2,0,0,1,0,62253.8,0.222336,0.221984,-2.18023,32,0.0139551,10,-0.000483977,-2.6615,-0.462241,-0.127639,10.8675,0.2219843,
2,0,0,1,0,62253.8,0.220833,0.220458,-2.19443,32,0.0139138,10,-0.000483781,-2.65868,-0.43373,-0.136029,11.6556,0.220458,
2,0,0,1,0,62253.8,0.219329,0.218959,-2.21469,32,0.0138721,10,-0.000484927,-2.65469,-0.407286,-0.144861,12.494,0.218959,
2,0,0,1,0,62253.8,0.21784,0.217461,-2.22509,32,0.0138306,10,-0.00048387,-2.65265,-0.506593,-0.116464,10.1113,0.2174606,
2,0,0,1,0,62253.9,0.216336,0.21598,-2.23554,32,0.0137884,10,-0.000482832,-2.65062,-0.540592,-0.10914,9.5443,0.21598,
2,0,0,1,0,62253.9,0.21484,0.214449,-2.25207,32,0.0137462,10,-0.000482954,-2.64742,-0.506429,-0.116502,10.2671,0.214449,
2,0,0,1,0,62253.9,0.213343,0.212988,-2.26959,32,0.0137037,10,-0.000483395,-2.64405,-0.473575,-0.124584,11.0334,0.212988,
2,0,0,1,0,62253.9,0.21184,0.211445,-2.28129,32,0.0136606,10,-0.000482367,-2.64182,-0.714274,-0.0826013,7.36288,0.211445,
2,0,0,1,0,62253.9,0.210352,0.210008,-2.29889,32,0.0136177,10,-0.000482784,-2.63848,-0.658771,-0.0895607,8.03845,0.2100077,
2,0,0,1,0,62254,0.208849,0.208526,-2.31331,32,0.0135742,10,-0.000482386,-2.63577,-0.582734,-0.101247,9.16382,0.2085264,
2,0,0,1,0,62254,0.207345,0.206992,-2.33204,32,0.0135303,10,-0.000482713,-2.63226,-0.524728,-0.112439,10.2326,0.206992,
2,0,0,1,0,62254,0.205856,0.205485,-2.35418,32,0.0134866,10,-0.000483748,-2.62816,-0.517129,-0.114091,10.4444,0.205485,
2,0,0,1,0,62254,0.204353,0.203999,-2.3666,32,0.0134421,10,-0.000482785,-2.62587,-0.74437,-0.0792616,7.31128,0.203999,
2,0,0,1,0,62254,0.202849,0.202465,-2.37632,32,0.0133973,10,-0.000481123,-2.6241,-0.661624,-0.0891745,8.27812,0.202465,
2,0,0,1,0,62254,0.20136,0.201,-2.39087,32,0.0133528,10,-0.000480566,-2.62144,-0.500487,-0.117885,11.0011,0.201,
2,0,0,1,0,62254.1,0.199856,0.199506,-2.40906,32,0.0133076,10,-0.000480623,-2.61815,-0.504335,-0.116986,10.9838,0.199506,
2,0,0,1,0,62254.1,0.19836,0.198056,-2.42498,32,0.0132622,10,-0.000480282,-2.61529,-0.507094,-0.116349,10.9847,0.198056,
2,0,0,1,0,62254.1,0.196863,0.19648,-2.43653,32,0.0132166,10,-0.000478729,-2.61323,-0.454634,-0.129775,12.3439,0.19648,
2,0,0,1,0,62254.1,0.19536,0.194992,-2.45095,32,0.0131705,10,-0.000477916,-2.61067,-0.431982,-0.13658,13.0687,0.194992,
2,0,0,1,0,62254.1,0.193872,0.193503,-2.4673,32,0.0131246,10,-0.000477428,-2.60778,-0.481128,-0.122629,11.8047,0.193503,
2,0,0,1,0,62254.2,0.192369,0.192034,-2.48138,32,0.0130778,10,-0.00047651,-2.60531,-0.523651,-0.11267,10.9072,0.192034,
2,0,0,1,0,62254.2,0.190865,0.190491,-2.49415,32,0.0130308,10,-0.000475113,-2.60308,-0.539425,-0.109376,10.672,0.190491,
2,0,0,1,0,62254.2,0.189376,0.189006,-2.50725,32,0.012984,10,-0.000473885,-2.6008,-0.624039,-0.0945453,9.28858,0.189006,
2,0,0,1,0,62254.2,0.187872,0.18755,-2.53021,32,0.0129364,10,-0.00047454,-2.59684,-0.516961,-0.114129,11.2684,0.18755,
2,0,0,1,0,62254.2,0.186369,0.186037,-2.54696,32,0.0128884,10,-0.000473828,-2.59398,-0.608833,-0.0969067,9.63476,0.1860368,
2,0,0,1,0,62254.2,0.18488,0.184537,-2.56584,32,0.0128407,10,-0.000473492,-2.59077,-0.596064,-0.0989826,9.91057,0.1845367,
2,0,0,1,0,62254.3,0.183376,0.183037,-2.58347,32,0.0127921,10,-0.000472869,-2.5878,-0.615448,-0.0958651,9.66009,0.183037,
2,0,0,1,0,62254.3,0.18188,0.181552,-2.59995,32,0.0127435,10,-0.000472026,-2.58503,-0.5151,-0.114541,11.6176,0.181552,
2,0,0,1,0,62254.3,0.180383,0.180028,-2.62311,32,0.0126945,10,-0.000472233,-2.58118,-0.479833,-0.122959,12.5653,0.180028,
2,0,0,1,0,62254.3,0.17888,0.178551,-2.64018,32,0.0126449,10,-0.000471407,-2.57837,-0.49824,-0.118417,12.1852,0.178551,
2,0,0,1,0,62254.3,0.177392,0.176997,-2.65623,32,0.0125955,10,-0.000470145,-2.57573,-0.463742,-0.127226,13.204,0.176997,
2,0,0,1,0,62254.4,0.175889,0.175545,-2.67751,32,0.0125452,10,-0.000470023,-2.57227,-0.400218,-0.14742,15.4033,0.175545,
2,0,0,1,0,62254.4,0.174385,0.173989,-2.69757,32,0.0124945,10,-0.000469347,-2.56903,-0.366255,-0.16109,16.9596,0.173989,
2,0,0,1,0,62254.4,0.172896,0.172538,-2.71966,32,0.0124439,10,-0.000469245,-2.56548,-0.398091,-0.148207,15.7386,0.172538,
2,0,0,1,0,62254.4,0.171392,0.171043,-2.73479,32,0.0123924,10,-0.000467768,-2.56308,-0.406045,-0.145304,15.5473,0.171043,
2,0,0,1,0,62254.4,0.169889,0.169537,-2.76457,32,0.0123405,10,-0.000468697,-2.55837,-0.371276,-0.158912,17.1505,0.169537,
2,0,0,1,0,62254.5,0.1684,0.168042,-2.78743,32,0.0122887,10,-0.000468405,-2.5548,-0.374429,-0.157573,17.1352,0.168042,
2,0,0,1,0,62254.5,0.166896,0.166489,-2.80978,32,0.0122358,10,-0.000467796,-2.55133,-0.387698,-0.15218,16.6921,0.1664886,
2,0,0,1,0,62254.5,0.165392,0.165024,-2.83383,32,0.0121825,10,-0.00046765,-2.54763,-0.390449,-0.151108,16.7505,0.165024,
2,0,0,1,0,62254.5,0.163905,0.163531,-2.85863,32,0.0121293,10,-0.000467476,-2.54384,-0.389232,-0.151581,16.9591,0.163531,
2,0,0,1,0,62254.5,0.162401,0.162078,-2.88757,32,0.012075,10,-0.000468011,-2.53947,-0.328044,-0.179854,20.3262,0.162078,
2,0,0,1,0,62254.5,0.160905,0.160505,-2.92508,32,0.0120204,10,-0.00046949,-2.53386,-0.356163,-0.165654,18.9187,0.160505,
2,0,0,1,0,62254.6,0.159409,0.159058,-2.96297,32,0.0119652,10,-0.000471283,-2.52827,-0.311574,-0.189361,21.8647,0.159058,
2,0,0,1,0,62254.6,0.157905,0.157558,-2.99103,32,0.0119091,10,-0.000471262,-2.52418,-0.302394,-0.195109,22.7704,0.157558,
2,0,0,1,0,62254.6,0.156416,0.156038,-3.03424,32,0.0118529,10,-0.000473455,-2.51795,-0.25337,-0.232861,27.5334,0.156038,
2,0,0,1,0,62254.6,0.154912,0.154506,-3.07356,32,0.0117954,10,-0.000474883,-2.51236,-0.26015,-0.226793,27.1985,0.154506,
2,0,0,1,0,62254.6,0.153409,0.153079,-3.11614,32,0.0117371,10,-0.000477017,-2.50638,-0.238832,-0.247035,30.0595,0.153079,
2,0,0,1,0,62254.7,0.151919,0.151567,-3.15997,32,0.0116786,10,-0.000478948,-2.50032,-0.207894,-0.283798,35.0335,0.151567,
2,0,0,1,0,62254.7,0.150416,0.150031,-3.21354,32,0.0116185,10,-0.00048213,-2.49302,-0.198538,-0.297173,37.3013,0.1500306,
2,0,0,1,0,62254.7,0.148912,0.148561,-3.26789,32,0.0115574,10,-0.00048548,-2.48573,-0.182754,-0.322839,41.241,0.148561,
2,0,0,1,0,62254.7,0.147425,0.147072,-3.32431,32,0.0114958,10,-0.000488912,-2.4783,-0.177207,-0.332944,43.2996,0.147072,
2,0,0,1,0,62254.7,0.145921,0.145563,-3.3872,32,0.0114324,10,-0.000493051,-2.47016,-0.166811,-0.353694,46.9035,0.145563,
2,0,0,1,0,62254.8,0.144425,0.144087,-3.46149,32,0.0113681,10,-0.000498754,-2.46074,-0.155621,-0.379126,51.4149,0.144087,
2,0,0,1,0,62254.8,0.142929,0.142581,-3.54373,32,0.0113023,10,-0.000505267,-2.45054,-0.145719,-0.404888,56.1762,0.142581,
2,0,0,1,0,62254.8,0.141425,0.141067,-3.63955,32,0.0112345,10,-0.000513422,-2.43895,-0.135908,-0.434116,61.7074,0.141067,
2,0,0,1,0,62254.8,0.139936,0.139594,-3.73764,32,0.0111657,10,-0.000521752,-2.4274,-0.130609,-0.451729,65.959,0.1395939,
2,0,0,1,0,62254.8,0.138432,0.13808,-3.8412,32,0.0110943,10,-0.000530392,-2.41553,-0.125185,-0.471302,70.7882,0.13808,
2,0,0,1,0,62254.8,0.136929,0.13656,-3.95639,32,0.0110208,10,-0.000540283,-2.4027,-0.115489,-0.510869,78.9546,0.13656,
2,0,0,1,0,62254.9,0.135439,0.135077,-4.08842,32,0.0109459,10,-0.000552251,-2.38844,-0.11417,-0.516773,82.3851,0.135077,
2,0,0,1,0,62254.9,0.133936,0.133594,-4.21717,32,0.0108677,10,-0.000563388,-2.37498,-0.110615,-0.533382,87.6762,0.133594,
2,0,0,1,0,62254.9,0.132432,0.132083,-4.34772,32,0.0107871,10,-0.000574258,-2.36174,-0.112079,-0.526416,89.2912,0.132083,
2,0,0,1,0,62254.9,0.130945,0.130588,-4.48607,32,0.0107048,10,-0.000585828,-2.34813,-0.107136,-0.550704,96.411,0.130588,
2,0,0,1,0,62254.9,0.129441,0.129067,-4.63552,32,0.0106189,10,-0.000598292,-2.3339,-0.107871,-0.546948,98.7811,0.129067,
2,0,0,1,0,62255,0.127945,0.127582,-4.7796,32,0.0105308,10,-0.000609792,-2.32061,-0.110343,-0.534698,99.6341,0.127582,
2,0,0,1,0,62255,0.126448,0.12609,-4.91936,32,0.0104399,10,-0.000620282,-2.30809,-0.112576,-0.524092,100.636,0.12609,
2,0,0,1,0,62255,0.124945,0.124576,-5.06899,32,0.0103458,10,-0.000631472,-2.29508,-0.117301,-0.502979,99.5164,0.124576,
2,0,0,1,0,62255,0.123456,0.123113,-5.21621,32,0.0102499,10,-0.000642184,-2.28264,-0.121377,-0.486088,98.8588,0.123113,
2,0,0,1,0,62255,0.121952,0.121596,-5.35775,32,0.0101503,10,-0.000651479,-2.27102,-0.128807,-0.458051,95.6552,0.121596,
2,0,0,1,0,62255.1,0.120449,0.120125,-5.49483,32,0.010048,10,-0.000660068,-2.26005,-0.136248,-0.433035,92.877,0.120125,
2,0,0,1,0,62255.1,0.118959,0.118615,-5.63265,32,0.00994424,10,-0.000668116,-2.24929,-0.14133,-0.417462,91.8035,0.1186149,
2,0,0,1,0,62255.1,0.117456,0.117103,-5.76876,32,0.00983679,10,-0.000675536,-2.23892,-0.154725,-0.381321,85.8433,0.117103,
2,0,0,1,0,62255.1,0.115952,0.115653,-5.90036,32,0.00972679,10,-0.000682394,-2.22912,-0.162552,-0.36296,83.5184,0.115653,
2,0,0,1,0,62255.1,0.114465,0.114064,-6.02903,32,0.00961558,10,-0.000687695,-2.21975,-0.168771,-0.349587,82.1883,0.114064,
2,0,0,1,0,62255.1,0.112961,0.112624,-6.14826,32,0.00950094,10,-0.000692439,-2.21125,-0.185053,-0.318828,76.4921,0.112624,
2,0,0,1,0,62255.2,0.111465,0.111132,-6.27271,32,0.00938463,10,-0.000697098,-2.20254,-0.192482,-0.306522,74.8936,0.111132,
2,0,0,1,0,62255.2,0.109968,0.109607,-6.38365,32,0.00926621,10,-0.000699691,-2.19493,-0.204356,-0.288711,71.7959,0.109607,
2,0,0,1,0,62255.2,0.108465,0.108121,-6.48758,32,0.0091451,10,-0.000701444,-2.18792,-0.216836,-0.272095,68.7414,0.108121,
2,0,0,1,0,62255.2,0.106976,0.106644,-6.58127,32,0.00902343,10,-0.000701851,-2.18169,-0.232876,-0.253354,65.0174,0.106644,
2,0,0,1,0,62255.2,0.105472,0.105107,-6.67821,32,0.00889864,10,-0.000701925,-2.17534,-0.245938,-0.239898,62.4404,0.105107,
2,0,0,1,0,62255.3,0.103968,0.103641,-6.76475,32,0.00877212,10,-0.000701107,-2.16975,-0.277676,-0.212478,56.0126,0.103641,
2,0,0,1,0,62255.3,0.102479,0.102123,-6.83535,32,0.0086454,10,-0.000698049,-2.16524,-0.320668,-0.183991,49.0288,0.102123,
2,0,0,1,0,62255.3,0.100976,0.100575,-6.90223,32,0.00851601,10,-0.000694189,-2.16101,-0.371403,-0.158857,42.7707,0.100575,
2,0,0,1,0,62255.3,0.0994721,0.0991448,-6.96461,32,0.00838543,10,-0.000690505,-2.1571,-0.417463,-0.14133,38.3754,0.0991448,
2,0,0,1,0,62255.3,0.0979846,0.0976536,-7.00961,32,0.00825519,10,-0.000684514,-2.15431,-0.484746,-0.121713,33.3009,0.0976536,
2,0,0,1,0,62255.4,0.0964811,0.0961151,-7.05801,32,0.00812264,10,-0.000678381,-2.15132,-0.633658,-0.0931101,25.6202,0.0961151,
2,0,0,1,0,62255.4,0.0949847,0.0946236,-7.08932,32,0.00799004,10,-0.000670817,-2.1494,-0.914624,-0.0645074,17.8378,0.0946236,
2,0,0,1,0,62255.4,0.0934883,0.0931552,-7.1151,32,0.00785699,10,-0.000662809,-2.14782,-1.33931,-0.0440525,12.2306,0.0931552,
2,0,0,1,0,62255.4,0.0919847,0.0916074,-7.1307,32,0.00772282,10,-0.000653225,-2.14687,-2.18303,-0.0270267,7.52019,0.0916074,
2,0,0,1,0,62255.4,0.0904955,0.0901284,-7.14963,32,0.00758976,10,-0.000644385,-2.14572,52.1971,0.00113033,-0.314693,0.0901284,
2,0,0,1,0,62255.4,0.0889919,0.0886414,-7.14612,32,0.00745524,10,-0.000633441,-2.14593,2.43823,0.0241978,-6.74233,0.0886414,
2,0,0,1,0,62255.5,0.0874884,0.0871188,-7.13706,32,0.00732087,10,-0.000621772,-2.14648,1.92652,0.0306251,-8.52342,0.08711879,
2,0,0,1,0,62255.5,0.0860009,0.0856562,-7.12383,32,0.0071881,10,-0.000610201,-2.14729,1.54334,0.0382288,-10.6176,0.0856562,
2,0,0,1,0,62255.5,0.0844974,0.0841964,-7.10531,32,0.00705418,10,-0.000598242,-2.14842,1.18952,0.0495998,-13.7417,0.0841964,
2,0,0,1,0,62255.5,0.0829938,0.0826472,-7.08311,32,0.00692067,10,-0.0005854,-2.14978,1.03164,0.0571904,-15.7946,0.0826472,
2,0,0,1,0,62255.5,0.0815045,0.0811711,-7.04949,32,0.00678909,10,-0.000572215,-2.15184,0.998455,0.0590913,-16.2605,0.0811711,
2,0,0,1,0,62255.6,0.080001,0.0796366,-7.0191,32,0.00665664,10,-0.000558977,-2.15372,0.981239,0.060128,-16.4717,0.0796366,
2,0,0,1,0,62255.6,0.0785046,0.0781216,-6.99458,32,0.00652542,10,-0.000546428,-2.15524,0.912829,0.0646342,-17.637,0.0781216,
2,0,0,1,0,62255.6,0.0770082,0.0766255,-6.96229,32,0.00639472,10,-0.000533489,-2.15725,0.798845,0.0738566,-20.06,0.0766255,
2,0,0,1,0,62255.6,0.0755046,0.0751575,-6.9219,32,0.00626395,10,-0.000520233,-2.15977,0.792178,0.0744782,-20.1467,0.0751575,
2,0,0,1,0,62255.6,0.0740154,0.073683,-6.89412,32,0.00613518,10,-0.000507979,-2.16152,0.804511,0.0733364,-19.7502,0.073683,
2,0,0,1,0,62255.7,0.0725118,0.0721772,-6.87008,32,0.00600556,10,-0.000495863,-2.16304,0.831818,0.0709289,-19.0158,0.0721772,
2,0,0,1,0,62255.7,0.0710083,0.0706498,-6.83993,32,0.00587645,10,-0.00048324,-2.16495,0.754389,0.078209,-20.885,0.0706498,
2,0,0,1,0,62255.7,0.0695208,0.0691614,-6.80942,32,0.00574923,10,-0.000470949,-2.16689,0.78714,0.0749549,-19.9451,0.0691614,
2,0,0,1,0,62255.7,0.0680173,0.0676548,-6.78955,32,0.0056212,10,-0.000459346,-2.16816,0.905668,0.0651453,-17.2694,0.0676548,
2,0,0,1,0,62255.7,0.0665137,0.06615,-6.76585,32,0.00549358,10,-0.000447561,-2.16968,0.974043,0.0605723,-15.9945,0.06615,
2,0,0,1,0,62255.7,0.0650244,0.064699,-6.74747,32,0.00536774,10,-0.000436555,-2.17086,0.903985,0.0652666,-17.1744,0.064699,
2,0,0,1,0,62255.8,0.0635209,0.0631332,-6.72439,32,0.00524097,10,-0.000424532,-2.17235,0.846886,0.069667,-18.2683,0.0631332,
2,0,0,1,0,62255.8,0.0620245,0.0616841,-6.69742,32,0.00511535,10,-0.000413125,-2.17409,0.954903,0.0617864,-16.145,0.0616841,
2,0,0,1,0,62255.8,0.0605281,0.0601736,-6.67703,32,0.00499017,10,-0.000401781,-2.17542,1.02766,0.0574121,-14.9491,0.0601736,
2,0,0,1,0,62255.8,0.0590246,0.058632,-6.65463,32,0.00486472,10,-0.000390174,-2.17688,1.074,0.0549346,-14.261,0.058632,
2,0,0,1,0,62255.8,0.0575353,0.0571698,-6.63183,32,0.00474103,10,-0.00037914,-2.17837,1.15654,0.0510143,-13.1957,0.0571698,
2,0,0,1,0,62255.9,0.0560317,0.0556428,-6.60413,32,0.00461648,10,-0.000367472,-2.18018,1.0356,0.0569717,-14.685,0.05564278,
2,0,0,1,0,62255.9,0.0545282,0.0541693,-6.58211,32,0.00449235,10,-0.000356548,-2.18163,1.12117,0.0526235,-13.519,0.0541693,
2,0,0,1,0,62255.9,0.0530407,0.0527125,-6.55387,32,0.00436997,10,-0.000345471,-2.1835,1.05705,0.0558157,-14.279,0.0527125,
2,0,0,1,0,62255.9,0.0515372,0.0511729,-6.52986,32,0.00424671,10,-0.000334152,-2.1851,0.881686,0.0669172,-17.0514,0.0511729,
2,0,0,1,0,62255.9,0.0500336,0.0496221,-6.49647,32,0.00412395,10,-0.000322368,-2.18732,0.851363,0.0693006,-17.5959,0.0496221,
2,0,0,1,0,62256,0.0485444,0.0482032,-6.47827,32,0.00400305,10,-0.000312273,-2.18854,0.786437,0.0750219,-18.9734,0.0482032,
2,0,0,1,0,62256,0.0470408,0.046667,-6.45154,32,0.00388129,10,-0.000301074,-2.19034,0.753533,0.0782979,-19.7133,0.046667,
2,0,0,1,0,62256,0.0455444,0.0451469,-6.42367,32,0.00376067,10,-0.000290009,-2.19222,0.658538,0.0895924,-22.4595,0.0451469,
2,0,0,1,0,62256,0.044048,0.0437009,-6.39404,32,0.00364062,10,-0.000279425,-2.19422,0.648206,0.0910205,-22.7171,0.0437009,
2,0,0,1,0,62256,0.0425445,0.042222,-6.36563,32,0.00352053,10,-0.00026877,-2.19616,0.721679,0.0817538,-20.3099,0.042222,
2,0,0,1,0,62256,0.0410552,0.0407162,-6.33875,32,0.00340224,10,-0.000258089,-2.198,0.675732,0.0873127,-21.5857,0.0407162,
2,0,0,1,0,62256.1,0.0395516,0.0391725,-6.31368,32,0.00328321,10,-0.000247322,-2.19972,0.658492,0.0895987,-22.0401,0.0391725,
2,0,0,1,0,62256.1,0.0380481,0.0376639,-6.27803,32,0.00316474,10,-0.000236455,-2.20218,0.684676,0.0861722,-21.0989,0.0376639,
2,0,0,1,0,62256.1,0.0365606,0.036218,-6.24509,32,0.00304821,10,-0.000226185,-2.20446,0.653174,0.0903281,-21.9989,0.036218,
2,0,0,1,0,62256.1,0.0350571,0.0346996,-6.20859,32,0.00293104,10,-0.000215435,-2.20701,0.669887,0.0880745,-21.3248,0.0346996,
2,0,0,1,0,62256.1,0.0335535,0.0332295,-6.17378,32,0.00281448,10,-0.000205151,-2.20945,0.669817,0.0880838,-21.2055,0.0332295,
2,0,0,1,0,62256.2,0.0320643,0.0317189,-6.13414,32,0.00269985,10,-0.000194568,-2.21225,0.586483,0.1006,-24.0804,0.0317189,
2,0,0,1,0,62256.2,0.0305607,0.0301752,-6.09418,32,0.00258469,10,-0.000183893,-2.21508,0.594371,0.0992645,-23.6135,0.0301752,
2,0,0,1,0,62256.2,0.0290643,0.0286657,-6.05736,32,0.00247086,10,-0.000173638,-2.21772,0.560476,0.105268,-24.887,0.0286657,
2,0,0,1,0,62256.2,0.0275679,0.0272221,-6.02228,32,0.00235774,10,-0.000163939,-2.22024,0.539844,0.109291,-25.6761,0.0272221,
2,0,0,1,0,62256.2,0.0260644,0.0257418,-5.9766,32,0.00224473,10,-0.000153849,-2.22355,0.479597,0.12302,-28.6939,0.0257418,
2,0,0,1,0,62256.3,0.0245751,0.0242438,-5.93373,32,0.00213369,10,-0.000143856,-2.22667,0.470043,0.12552,-29.0872,0.0242438,
2,0,0,1,0,62256.3,0.0230716,0.0226902,-5.89192,32,0.0020223,10,-0.000133689,-2.22974,0.458589,0.128656,-29.5941,0.0226902,
2,0,0,1,0,62256.3,0.021568,0.0212144,-5.85536,32,0.00191166,10,-0.000124218,-2.23245,0.473106,0.124708,-28.4837,0.0212144,
2,0,0,1,0,62256.3,0.0200805,0.0197307,-5.81049,32,0.00180298,10,-0.000114645,-2.23579,0.445114,0.13255,-30.0736,0.0197307,
2,0,0,1,0,62256.3,0.018577,0.0181976,-5.77179,32,0.00169391,10,-0.000105033,-2.23869,0.458921,0.128562,-28.9542,0.0181976,
2,0,0,1,0,62256.3,0.0170735,0.0167333,-5.72932,32,0.00158564,10,-9.58703e-05,-2.2419,0.466313,0.126525,-28.2892,0.0167333,
2,0,0,1,0,62256.4,0.0155842,0.0152411,-5.69462,32,0.00147929,10,-8.6792e-05,-2.24454,0.478324,0.123347,-27.3806,0.0152411,
2,0,0,1,0,62256.4,0.0140806,0.0136834,-5.65441,32,0.00137251,10,-7.73715e-05,-2.24761,0.50092,0.117783,-25.9689,0.0136834,
2,0,0,1,0,62256.4,0.0125842,0.0122315,-5.61577,32,0.00126699,10,-6.86893e-05,-2.25059,0.491347,0.120078,-26.2928,0.0122315,
2,0,0,1,0,62256.4,0.0110878,0.0107,-5.56942,32,0.0011623,10,-5.95927e-05,-2.25419,0.500479,0.117887,-25.6519,0.0107,
2,0,0,1,0,62256.4,0.00958429,0.00919243,-5.53836,32,0.00105776,10,-5.0911e-05,-2.25662,0.583986,0.10103,-21.8176,0.00919243,
2,0,0,1,0,62256.5,0.0080968,0.00776293,-5.49628,32,0.000954968,10,-4.26672e-05,-2.25993,0.621607,0.0949153,-20.3841,0.00776293,
2,0,0,1,0,62256.5,0.00659326,0.0062172,-5.46295,32,0.00085173,10,-3.39642e-05,-2.26257,0.592998,0.0994945,-21.2236,0.0062172,
2,0,0,1,0,62256.5,0.00508972,0.0047761,-5.42291,32,0.000749104,10,-2.59004e-05,-2.26577,0.648746,0.0909447,-19.2836,0.0047761,
2,0,0,1,0,62256.5,0.00360044,0.00325934,-5.39768,32,0.000648182,10,-1.75929e-05,-2.26779,0.918215,0.0642551,-13.584,0.00325934,
2,0,0,1,0,62256.5,0.0020969,0.00166623,-5.40251,32,0.000546624,10,-9.00184e-06,-2.2674,0.789363,0.0747438,-15.6996,0.00166623,
2,0,0,1,0,62256.6,0.000593362,0.000197192,-5.36152,32,0.000445216,10,-1.05725e-06,-2.27071, , , ,0.0001971918,
2,0,0,1,0,62256.6,0.000199195,-0.000220343,-5.35143,32,0.000418907,10,1.17915e-06,-2.27153, , , ,-0.0002203433,