File: Figure_codes/Fig_3-5/rawdata_trumpetplot_data/after 10th/20221101_1-115_003_TrumpetPlot_ParaChange_from10_every3_06_CV_C01_3.csv
mode,ox/red,error,control changes,counter inc.,time/s,control/V,Ewe/V,<I>/mA,cycle number,(Q-Qo)/C,I Range,P/W,log(|I|),Tafel slope mV/dec,alpha_eff,dI/d(E-IR),E-IR/V,
2,0,0,0,0,7060.41,2.44065e-05,-0.000325324,-1.38799,4,0.0000000E+000,10,4.51547e-07,-2.85761, , , ,-0.000325324,
2,0,0,1,0,7060.44,0.00129787,0.000956254,0.093618,4,-1.52331e-05,10,8.95225e-08,-4.02864, , , ,0.000956254,
2,1,0,1,0,7060.48,0.00279427,0.00242564,0.852675,4,5.07189e-06,10,2.06828e-06,-3.06922,0.00691419,8.53318,386.596,0.00242564,
2,1,0,1,0,7060.52,0.00429425,0.00401185,1.17227,4,4.4442e-05,10,4.70298e-06,-2.93097,0.0129583,4.55307,175.902,0.00401185,
2,1,0,1,0,7060.55,0.00579422,0.00549614,1.33376,4,9.26132e-05,10,7.3305e-06,-2.87492,0.0294424,2.00392,99.9097,0.00549614,
2,1,0,1,0,7060.59,0.00729063,0.00694882,1.46065,4,0.000145744,10,1.01498e-05,-2.83545,0.0516036,1.14333,63.4062,0.00694882,
2,1,0,1,0,7060.63,0.00878703,0.00848893,1.53811,4,0.000202481,10,1.30569e-05,-2.81301,0.073811,0.799339,47.0885,0.00848893,
2,1,0,1,0,7060.67,0.010287,0.00996107,1.59814,4,0.000261897,10,1.59192e-05,-2.79638,0.100772,0.585481,36.1334,0.00996107,
2,1,0,1,0,7060.7,0.011787,0.0115114,1.64605,4,0.000323393,10,1.89483e-05,-2.78356,0.115397,0.511277,32.7619,0.01151137,
2,1,0,1,0,7060.74,0.0132825,0.0129499,1.69218,4,0.000386467,10,2.19136e-05,-2.77155,0.123102,0.479276,31.737,0.0129499,
2,1,0,1,0,7060.78,0.014778,0.0144472,1.73224,4,0.000451312,10,2.5026e-05,-2.76139,0.134381,0.439051,29.7706,0.0144472,
2,1,0,1,0,7060.82,0.0162816,0.015981,1.77699,4,0.000518252,10,2.83981e-05,-2.75032,0.156217,0.37768,26.1937,0.015981,
2,1,0,1,0,7060.85,0.017778,0.0174951,1.81928,4,0.000586203,10,3.18285e-05,-2.7401,0.170835,0.345362,24.5196,0.0174951,
2,1,0,1,0,7060.89,0.0192744,0.0189581,1.85417,4,0.000655392,10,3.51516e-05,-2.73185,0.173154,0.340738,24.5637,0.0189581,
2,1,0,1,0,7060.93,0.0207743,0.020469,1.89485,4,0.000726223,10,3.87856e-05,-2.72243,0.179819,0.328108,24.0982,0.020469,
2,1,0,1,0,7060.97,0.0222743,0.0219901,1.92996,4,0.000798423,10,4.244e-05,-2.71445,0.178135,0.33121,24.8312,0.0219901,
2,1,0,1,0,7061,0.0237707,0.0234958,1.96276,4,0.000871749,10,4.61167e-05,-2.70713,0.200803,0.29382,22.4958,0.0234958,
2,1,0,1,0,7061.04,0.0252671,0.0249661,1.99114,4,0.000946309,10,4.97108e-05,-2.7009,0.205567,0.287011,22.379,0.0249661,
2,1,0,1,0,7061.08,0.0267671,0.0264614,2.02659,4,0.0010224,10,5.36265e-05,-2.69323,0.178535,0.330468,26.1957,0.0264614,
2,1,0,1,0,7061.12,0.0282671,0.0279847,2.06651,4,0.00109982,10,5.78309e-05,-2.68476,0.197647,0.298512,24.0873,0.0279847,
2,1,0,1,0,7061.15,0.0297626,0.0294799,2.10564,4,0.00117848,10,6.20739e-05,-2.67662,0.195512,0.301772,24.711,0.0294799,
2,1,0,1,0,7061.19,0.0312581,0.0309726,2.1322,4,0.00125842,10,6.60398e-05,-2.67117,0.205561,0.28702,23.9136,0.0309726,
2,1,0,1,0,7061.23,0.0327616,0.0324488,2.17511,4,0.00134001,10,7.05796e-05,-2.66252,0.202179,0.291821,24.7501,0.0324488,
2,1,0,1,0,7061.27,0.034258,0.033949,2.21429,4,0.00142268,10,7.51729e-05,-2.65477,0.203651,0.289712,24.969,0.033949,
2,1,0,1,0,7061.3,0.0357545,0.0354593,2.25119,4,0.00150681,10,7.98257e-05,-2.64759,0.220505,0.267568,23.4634,0.0354593,
2,1,0,1,0,7061.34,0.0372544,0.036948,2.28352,4,0.00159253,10,8.43715e-05,-2.6414,0.225134,0.262066,23.3919,0.036948,
2,1,0,1,0,7061.38,0.0387544,0.0384347,2.31395,4,0.00167945,10,8.8936e-05,-2.63565,0.203274,0.290248,26.3813,0.03843471,
2,1,0,1,0,7061.42,0.0402508,0.0399562,2.35614,4,0.00176761,10,9.41426e-05,-2.6278,0.205368,0.287289,26.4448,0.0399562,
2,1,0,1,0,7061.45,0.0417472,0.0414151,2.40564,4,0.00185743,10,9.96296e-05,-2.61877,0.21723,0.271602,25.3956,0.0414151,
2,1,0,1,0,7061.49,0.0432472,0.0429473,2.4419,4,0.00194881,10,0.000104873,-2.61227,0.236061,0.249936,23.7506,0.0429473,
2,1,0,1,0,7061.53,0.0447472,0.0444794,2.47786,4,0.00204145,10,0.000110214,-2.60592,0.234658,0.251429,24.2285,0.0444794,
2,1,0,1,0,7061.56,0.0462427,0.0459202,2.51225,4,0.00213527,10,0.000115363,-2.59994,0.211708,0.278686,27.2772,0.0459202,
2,1,0,1,0,7061.6,0.0477382,0.0474405,2.54684,4,0.0022305,10,0.000120824,-2.594,0.232429,0.253841,25.2411,0.0474405,
2,1,0,1,0,7061.64,0.0492417,0.0489588,2.57939,4,0.00232767,10,0.000126284,-2.58848,0.247771,0.238123,24.0171,0.0489588,
2,1,0,1,0,7061.68,0.0507381,0.0504457,2.61231,4,0.00242561,10,0.00013178,-2.58298,0.257195,0.229398,23.4804,0.0504457,
2,1,0,1,0,7061.71,0.0522345,0.0519371,2.65455,4,0.00252485,10,0.00013787,-2.57601,0.237941,0.24796,25.7465,0.0519371,
2,1,0,1,0,7061.75,0.0537345,0.0534642,2.6999,4,0.0026258,10,0.000144348,-2.56865,0.245516,0.240311,25.2525,0.0534642,
2,1,0,1,0,7061.79,0.0552345,0.0549297,2.73511,4,0.00272831,10,0.000150239,-2.56302,0.285033,0.206994,21.9805,0.05492973,
2,1,0,1,0,7061.83,0.0567309,0.0563708,2.7651,4,0.0028318,10,0.000155871,-2.55829,0.281552,0.209553,22.6067,0.0563708,
2,1,0,1,0,7061.86,0.0582273,0.0578968,2.80293,4,0.0029364,10,0.000162281,-2.55239,0.278481,0.211864,23.1397,0.0578968,
2,1,0,1,0,7061.9,0.0597309,0.05944,2.8334,4,0.00304297,10,0.000168417,-2.54769,0.268311,0.219894,24.3176,0.05944,
2,1,0,1,0,7061.94,0.0612264,0.0609625,2.86736,4,0.00315029,10,0.000174801,-2.54252,0.316121,0.186637,20.8881,0.0609625,
2,1,0,1,0,7061.98,0.0627219,0.0624426,2.90212,4,0.0032589,10,0.000181216,-2.53729,0.328494,0.179608,20.355,0.0624426,
2,1,0,1,0,7062.01,0.0642218,0.06394,2.92852,4,0.00336878,10,0.00018725,-2.53335,0.299937,0.196708,22.552,0.06394,
2,1,0,1,0,7062.05,0.0657218,0.065409,2.96356,4,0.00347999,10,0.000193844,-2.52819,0.291732,0.20224,23.3918,0.065409,
2,1,0,1,0,7062.09,0.0672182,0.0669369,3.00293,4,0.00359228,10,0.000201007,-2.52245,0.310648,0.189926,22.1813,0.0669369,
2,1,0,1,0,7062.13,0.0687146,0.0683897,3.03484,4,0.0037057,10,0.000207552,-2.51786,0.364933,0.161673,19.0949,0.0683897,
2,1,0,1,0,7062.16,0.0702146,0.0699399,3.06016,4,0.00382051,10,0.000214028,-2.51426,0.337827,0.174646,20.8631,0.0699399,
2,1,0,1,0,7062.2,0.0717146,0.0713748,3.09021,4,0.00393649,10,0.000220563,-2.51001,0.332251,0.177576,21.4238,0.0713748,
2,1,0,1,0,7062.24,0.073211,0.0728897,3.1183,4,0.00405337,10,0.000227292,-2.50608,0.335217,0.176005,21.4769,0.0728897,
2,1,0,1,0,7062.28,0.0747074,0.0744157,3.1506,4,0.00417141,10,0.000234454,-2.50161,0.419848,0.140527,17.2915,0.0744157,
2,1,0,1,0,7062.31,0.0762109,0.0758791,3.17619,4,0.00429113,10,0.000241007,-2.49809,0.393372,0.149985,18.6268,0.07587909,
2,1,0,1,0,7062.35,0.0777064,0.0773892,3.20441,4,0.00441112,10,0.000247987,-2.49425,0.367405,0.160586,20.085,0.0773892,
2,1,0,1,0,7062.39,0.079202,0.0788438,3.24485,4,0.00453231,10,0.000255836,-2.48881,0.365733,0.16132,20.3363,0.07884375,
2,1,0,1,0,7062.43,0.0807019,0.080376,3.26503,4,0.00465491,10,0.00026243,-2.48611,0.428821,0.137586,17.4854,0.080376,
2,1,0,1,0,7062.46,0.0822019,0.0819185,3.29025,4,0.00477847,10,0.000269532,-2.48277,0.427916,0.137878,17.7037,0.0819185,
2,1,0,1,0,7062.5,0.0836983,0.0833794,3.31494,4,0.00490266,10,0.000276398,-2.47952,0.3865,0.152652,19.7834,0.0833794,
2,1,0,1,0,7062.54,0.0851947,0.0848839,3.34547,4,0.00502802,10,0.000283977,-2.47554,0.395931,0.149016,19.5043,0.0848839,
2,1,0,1,0,7062.58,0.0866947,0.0863636,3.37471,4,0.00515481,10,0.000291452,-2.47176,0.433396,0.136134,17.9585,0.0863636,
2,1,0,1,0,7062.61,0.0881947,0.0879283,3.40774,4,0.00528274,10,0.000299636,-2.46753,0.416632,0.141612,18.839,0.0879283,
2,1,0,1,0,7062.65,0.0896911,0.0894013,3.43764,4,0.00541131,10,0.00030733,-2.46374,0.360717,0.163563,21.9604,0.0894013,
2,1,0,1,0,7062.69,0.0911875,0.0908453,3.47845,4,0.0055411,10,0.000316001,-2.45861,0.326954,0.180454,24.4349,0.09084525,
2,1,0,1,0,7062.73,0.0926901,0.0923671,3.51211,4,0.0056731,10,0.000324404,-2.45443,0.287583,0.205158,28.0696,0.09236712,
2,1,0,1,0,7062.76,0.0941856,0.0939072,3.54959,4,0.00580583,10,0.000333332,-2.44982,0.313797,0.18802,26.0588,0.0939072,
2,1,0,1,0,7062.8,0.0956821,0.0953708,3.58278,4,0.00593992,10,0.000341693,-2.44578,0.290875,0.202836,28.4615,0.0953708,
2,1,0,1,0,7062.84,0.097182,0.0968742,3.63439,4,0.00607606,10,0.000352078,-2.43957,0.235466,0.250567,35.6452,0.0968742,
2,1,0,1,0,7062.88,0.098682,0.0983793,3.68617,4,0.00621413,10,0.000362643,-2.43342,0.241675,0.244129,35.1995,0.0983793,
2,1,0,1,0,7062.91,0.100178,0.0998921,3.74605,4,0.0063539,10,0.0003742,-2.42643,0.227102,0.259795,37.9945,0.0998921,
2,1,0,1,0,7062.95,0.101675,0.101415,3.80078,4,0.00649566,10,0.000385454,-2.42013,0.223184,0.264356,39.2281,0.1014145,
2,1,0,1,0,7062.99,0.103175,0.102882,3.86639,4,0.00664002,10,0.000397783,-2.41269,0.208854,0.282493,42.5859,0.1028823,
2,1,0,1,0,7063.03,0.104675,0.104357,3.93665,4,0.00678682,10,0.000410818,-2.40487,0.205014,0.287786,44.1359,0.104357,
2,1,0,1,0,7063.06,0.106171,0.105899,3.99921,4,0.0069358,10,0.000423513,-2.39803,0.204531,0.288465,44.9788,0.105899,
2,1,0,1,0,7063.1,0.107667,0.107351,4.0673,4,0.00708732,10,0.00043663,-2.39069,0.206445,0.285791,45.3898,0.107351,
2,1,0,1,0,7063.14,0.10917,0.108869,4.12956,4,0.00724212,10,0.000449583,-2.3841,0.200442,0.29435,47.5828,0.108869,
2,1,0,1,0,7063.18,0.110666,0.110355,4.20615,4,0.00739878,10,0.000464171,-2.37612,0.210447,0.280355,45.9982,0.110355,
2,1,0,1,0,7063.21,0.112162,0.111856,4.2762,4,0.00755808,10,0.000478318,-2.36894,0.22496,0.262269,43.7038,0.111856,
2,1,0,1,0,7063.25,0.113662,0.113333,4.34328,4,0.0077203,10,0.000492237,-2.36218,0.234957,0.251109,42.4803,0.113333,
2,1,0,1,0,7063.29,0.115162,0.114839,4.40288,4,0.00788482,10,0.000505623,-2.35626,0.239584,0.24626,42.2576,0.1148392,
2,1,0,1,0,7063.33,0.116658,0.11635,4.46285,4,0.00805124,10,0.000519254,-2.35039,0.25948,0.227378,39.558,0.11635,
2,1,0,1,0,7063.36,0.118155,0.117806,4.52311,4,0.00821997,10,0.00053285,-2.34456,0.281123,0.209873,36.9916,0.117806,
2,1,0,1,0,7063.4,0.119655,0.119343,4.57249,4,0.00839124,10,0.000545694,-2.33985,0.323669,0.182285,32.517,0.119343,
2,1,0,1,0,7063.44,0.121155,0.120831,4.61655,4,0.00856425,10,0.000557823,-2.33568,0.341433,0.172801,31.1914,0.120831,
2,1,0,1,0,7063.48,0.122651,0.122347,4.6621,4,0.00873851,10,0.000570393,-2.33142,0.342989,0.172017,31.3244,0.122347,
2,1,0,1,0,7063.51,0.124147,0.123843,4.71446,4,0.0089146,10,0.000583852,-2.32657,0.35929,0.164213,30.1822,0.123843,
2,1,0,1,0,7063.55,0.12565,0.125374,4.75615,4,0.0090932,10,0.000596299,-2.32274,0.399096,0.147834,27.3898,0.125374,
2,1,0,1,0,7063.59,0.127146,0.126836,4.78879,4,0.0092724,10,0.000607393,-2.31977,0.416287,0.141729,26.4781,0.126836,
2,1,0,1,0,7063.62,0.128642,0.128313,4.83269,4,0.00945301,10,0.0006201,-2.31581,0.41532,0.142059,26.8021,0.1283135,
2,1,0,1,0,7063.66,0.130142,0.129845,4.87389,4,0.00963568,10,0.000632851,-2.31212,0.427845,0.1379,26.234,0.129845,
2,1,0,1,0,7063.7,0.131642,0.131355,4.9121,4,0.00981997,10,0.00064523,-2.30873,0.461113,0.127951,24.5291,0.131355,
2,1,0,1,0,7063.74,0.133139,0.132795,4.9514,4,0.0100052,10,0.000657519,-2.30527,0.52785,0.111774,21.6163,0.132795,
2,1,0,1,0,7063.77,0.134635,0.134324,4.97928,4,0.0101916,10,0.000668839,-2.30283,0.55794,0.105746,20.5859,0.134324,
2,1,0,1,0,7063.81,0.136135,0.135827,5.0182,4,0.0103797,10,0.000681606,-2.29945,0.634696,0.0929579,18.1599,0.135827,
2,1,0,1,0,7063.85,0.137635,0.137333,5.04458,4,0.010569,10,0.000692789,-2.29718,1.01662,0.0580352,11.3825,0.137333,
2,1,0,1,0,7063.89,0.13913,0.138842,5.05553,4,0.0107584,10,0.000701921,-2.29623,2.96698,0.0198855,3.90668,0.138842,
2,1,0,1,0,7063.92,0.140626,0.1403,5.04806,4,0.0109479,10,0.000708245,-2.29688,-1.70835,-0.0345363,-6.78279,0.1403,
2,1,0,1,0,7063.96,0.14213,0.141829,5.03112,4,0.0111381,10,0.00071356,-2.29834,-0.7243,-0.081458,-15.9383,0.141829,
2,1,0,1,0,7064,0.143626,0.143324,4.99156,4,0.0113264,10,0.000715411,-2.30176,-0.350704,-0.168233,-32.6921,0.143324,
2,1,0,1,0,7064.04,0.145122,0.144866,4.93624,4,0.0115129,10,0.000715096,-2.3066,-0.220169,-0.267976,-51.4366,0.144866,
2,1,0,1,0,7064.07,0.146622,0.14632,4.84661,4,0.0116971,10,0.000709156,-2.31456,-0.170201,-0.346648,-65.383,0.14632,
2,1,0,1,0,7064.11,0.148122,0.147796,4.74058,4,0.0118775,10,0.00070064,-2.32417,-0.137505,-0.429075,-79.003,0.147796,
2,1,0,1,0,7064.15,0.149619,0.149317,4.61149,4,0.012053,10,0.000688574,-2.33616,-0.113266,-0.520896,-93.212,0.149317,
2,1,0,1,0,7064.19,0.151115,0.150804,4.4657,4,0.0122233,10,0.000673443,-2.35011,-0.0945472,-0.624027,-107.95,0.150804,
2,1,0,1,0,7064.22,0.152615,0.15234,4.28724,4,0.012388,10,0.000653118,-2.36782,-0.0873789,-0.67522,-112.618,0.15234,
2,1,0,1,0,7064.26,0.154115,0.153814,4.1074,4,0.012546,10,0.000631776,-2.38643,-0.0811766,-0.726811,-116.523,0.153814,
2,1,0,1,0,7064.3,0.155611,0.155343,3.9295,4,0.012697,10,0.000610421,-2.40566,-0.0776278,-0.760037,-116.581,0.155343,
2,1,0,1,0,7064.34,0.157106,0.156796,3.75396,4,0.0128414,10,0.000588607,-2.42551,-0.0753938,-0.782557,-114.672,0.156796,
2,1,0,1,0,7064.37,0.15861,0.158317,3.58266,4,0.01298,10,0.000567196,-2.44579,-0.0747202,-0.789613,-110.679,0.158317,
2,1,0,1,0,7064.41,0.160106,0.159815,3.41901,4,0.0131115,10,0.000546409,-2.4661,-0.0774931,-0.761358,-101.953,0.159815,
2,1,0,1,0,7064.45,0.161602,0.161307,3.27976,4,0.0132374,10,0.000529047,-2.48416,-0.083109,-0.709911,-90.9027,0.1613066,
2,1,0,1,0,7064.49,0.163102,0.162816,3.14965,4,0.0133584,10,0.000512814,-2.50174,-0.0858966,-0.686872,-84.4577,0.162816,
2,1,0,1,0,7064.52,0.164602,0.164269,3.02605,4,0.0134748,10,0.000497088,-2.51912,-0.0923524,-0.638857,-75.6425,0.1642694,
2,1,0,1,0,7064.56,0.166099,0.165763,2.91507,4,0.0135864,10,0.00048321,-2.53535,-0.0981685,-0.601007,-68.6671,0.165763,
2,1,0,1,0,7064.6,0.167595,0.167282,2.81978,4,0.0136943,10,0.000471699,-2.54978,-0.10925,-0.540048,-59.6482,0.167282,
2,1,0,1,0,7064.64,0.169095,0.168795,2.73683,4,0.0137992,10,0.000461963,-2.56275,-0.114983,-0.513118,-54.9015,0.168795,
2,1,0,1,0,7064.67,0.170595,0.170303,2.65568,4,0.0139009,10,0.00045227,-2.57582,-0.118038,-0.499841,-51.9029,0.170303,
2,1,0,1,0,7064.71,0.172091,0.171817,2.57756,4,0.0139994,10,0.000442869,-2.58879,-0.127073,-0.464299,-46.872,0.171817,
2,1,0,1,0,7064.75,0.173586,0.173284,2.51619,4,0.0140953,10,0.000436014,-2.59926,-0.145653,-0.405073,-39.7738,0.173284,
2,1,0,1,0,7064.79,0.17509,0.174795,2.45884,4,0.0141894,10,0.000429793,-2.60927,-0.149539,-0.394547,-37.824,0.174795,
2,1,0,1,0,7064.82,0.176586,0.176301,2.40282,4,0.0142808,10,0.000423619,-2.61928,-0.154496,-0.381886,-35.7512,0.1763007,
2,1,0,1,0,7064.86,0.178083,0.177753,2.34528,4,0.0143703,10,0.000416881,-2.6298,-0.170416,-0.346211,-31.8312,0.177753,
2,1,0,1,0,7064.9,0.179582,0.17925,2.30055,4,0.0144581,10,0.000412373,-2.63817,-0.180972,-0.326017,-29.4712,0.17925,
2,1,0,1,0,7064.94,0.181082,0.180824,2.25907,4,0.0145444,10,0.000408493,-2.64607,-0.197719,-0.298403,-26.4077,0.180824,
2,1,0,1,0,7064.97,0.182579,0.182312,2.22383,4,0.014629,10,0.00040543,-2.6529,-0.196796,-0.299802,-26.0546,0.182312,
2,1,0,1,0,7065.01,0.184075,0.183763,2.1915,4,0.0147122,10,0.000402717,-2.65926,-0.218246,-0.270337,-23.1215,0.183763,
2,1,0,1,0,7065.05,0.185579,0.185239,2.15545,4,0.0147944,10,0.000399273,-2.66646,-0.242845,-0.242953,-20.4442,0.185239,
2,1,0,1,0,7065.09,0.187074,0.186751,2.13021,4,0.0148751,10,0.000397818,-2.67158,-0.276242,-0.213581,-17.6758,0.186751,
2,1,0,1,0,7065.12,0.18857,0.188273,2.10318,4,0.0149548,10,0.000395972,-2.67712,-0.28027,-0.210512,-17.2393,0.188273,
2,1,0,1,0,7065.16,0.19007,0.189753,2.07435,4,0.0150337,10,0.000393612,-2.68312,-0.305083,-0.19339,-15.6778,0.189753,
2,1,0,1,0,7065.2,0.19157,0.191282,2.04586,4,0.0151116,10,0.000391336,-2.68912,-0.328549,-0.179578,-14.4101,0.191282,
2,1,0,1,0,7065.24,0.193066,0.19272,2.0247,4,0.0151885,10,0.000390201,-2.69364,-0.419722,-0.140569,-11.1402,0.19272,
2,1,0,1,0,7065.27,0.194563,0.194279,2.0131,4,0.0152648,10,0.000391104,-2.69613,-0.352891,-0.167191,-13.1481,0.194279,
2,1,0,1,0,7065.31,0.196063,0.195771,1.99294,4,0.0153406,10,0.00039016,-2.70051,-0.36429,-0.161959,-12.5972,0.195771,
2,1,0,1,0,7065.35,0.197563,0.197283,1.97564,4,0.0154156,10,0.00038976,-2.70429,-0.393214,-0.150046,-11.5691,0.1972831,
2,1,0,1,0,7065.39,0.199059,0.198734,1.96602,4,0.0154898,10,0.000390716,-2.70641,-0.433939,-0.135964,-10.3909,0.198734,
2,1,0,1,0,7065.42,0.200555,0.200241,1.94894,4,0.0155636,10,0.000390256,-2.7102,-0.486978,-0.121155,-9.20762,0.200241,
2,1,0,1,0,7065.46,0.202059,0.201774,1.93376,4,0.0156372,10,0.000390181,-2.7136,-0.455175,-0.12962,-9.78498,0.201774,
2,1,0,1,0,7065.5,0.203554,0.203241,1.9168,4,0.01571,10,0.000389572,-2.71742,-0.541664,-0.108924,-8.18998,0.203241,
2,1,0,1,0,7065.54,0.20505,0.204731,1.9042,4,0.0157822,10,0.000389849,-2.72029,-1.0985,-0.0537097,-4.02211,0.2047309,
2,1,0,1,0,7065.57,0.20655,0.206254,1.89877,4,0.0158543,10,0.000391629,-2.72153,-0.736695,-0.0800874,-5.94657,0.206254,
2,1,0,1,0,7065.61,0.20805,0.207758,1.8925,4,0.0159262,10,0.000393181,-2.72296,-0.59179,-0.0996975,-7.34926,0.2077578,
2,1,0,1,0,7065.65,0.209546,0.209222,1.8847,4,0.0159974,10,0.000394321,-2.72476,-0.549502,-0.10737,-7.87922,0.209222,
2,1,0,1,0,7065.68,0.211043,0.21072,1.87308,4,0.0160681,10,0.000394696,-2.72744,-0.61606,-0.0957699,-6.98082,0.21072,
2,1,0,1,0,7065.72,0.212543,0.212283,1.86461,4,0.0161388,10,0.000395825,-2.72941,-1.15646,-0.0510175,-3.70239,0.212283,
2,1,0,1,0,7065.76,0.214043,0.213757,1.85393,4,0.0162091,10,0.00039629,-2.73191,-0.80171,-0.0735927,-5.32793,0.213757,
2,1,0,1,0,7065.8,0.215539,0.215244,1.84451,4,0.016279,10,0.00039702,-2.73412,-0.634736,-0.092952,-6.71511,0.215244,
2,1,0,1,0,7065.83,0.217035,0.21671,1.83207,4,0.0163486,10,0.000397028,-2.73706,-0.807364,-0.0730773,-5.25334,0.21671,
2,1,0,1,0,7065.87,0.218538,0.218262,1.8282,4,0.0164182,10,0.000399027,-2.73798,-1.81244,-0.0325528,-2.3267,0.218262,
2,1,0,1,0,7065.91,0.220034,0.219761,1.83011,4,0.0164873,10,0.000402186,-2.73752,-1.55472,-0.0379489,-2.70383,0.219761,
2,1,0,1,0,7065.95,0.22153,0.22123,1.82375,4,0.0165562,10,0.000403468,-2.73903,-0.932248,-0.0632879,-4.48315,0.2212297,
2,1,0,1,0,7065.98,0.22303,0.222758,1.81149,4,0.016625,10,0.000403525,-2.74196,-1.14427,-0.0515612,-3.64382,0.222758,
2,1,0,1,0,7066.02,0.22453,0.224243,1.81099,4,0.0166935,10,0.000406103,-2.74208,-0.881748,-0.0669126,-4.71991,0.224243,
2,1,0,1,0,7066.06,0.226026,0.225728,1.80103,4,0.0167617,10,0.000406544,-2.74448,-0.9508,-0.062053,-4.36648,0.225728,
2,1,0,1,0,7066.1,0.227523,0.227245,1.79607,4,0.0168297,10,0.000408148,-2.74568,-0.757559,-0.0778817,-5.47053,0.227245,
2,1,0,1,0,7066.13,0.229023,0.228695,1.79144,4,0.0168976,10,0.000409694,-2.7468,-0.985939,-0.0598414,-4.18913,0.2286952,
2,1,0,1,0,7066.17,0.230523,0.23026,1.78852,4,0.0169652,10,0.000411824,-2.74751,-1.46589,-0.0402485,-2.81381,0.23026,
2,1,0,1,0,7066.21,0.232019,0.231737,1.78739,4,0.0170326,10,0.000414206,-2.74778,-2.27309,-0.0259558,-1.80418,0.231737,
2,1,0,1,0,7066.25,0.233515,0.233227,1.78594,4,0.0170999,10,0.000416528,-2.74813,-1.37526,-0.0429008,-2.96268,0.233227,
2,1,0,1,0,7066.28,0.235018,0.23476,1.77356,4,0.0171674,10,0.000416362,-2.75115,-1.52216,-0.0387607,-2.68144,0.23476,
2,1,0,1,0,7066.32,0.236514,0.236219,1.76537,4,0.0172341,10,0.000417014,-2.75316,-1.04584,-0.0564142,-3.89054,0.236219,
2,1,0,1,0,7066.36,0.23801,0.237735,1.7616,4,0.0173008,10,0.000418796,-2.75409,-5.21749,-0.0113081,-0.777428,0.237735,
2,1,0,1,0,7066.4,0.23951,0.239251,1.76066,4,0.0173675,10,0.00042124,-2.75432,-1.4517,-0.0406419,-2.79755,0.239251,
2,1,0,1,0,7066.43,0.24101,0.2407,1.75652,4,0.0174341,10,0.000422793,-2.75535,-1.10703,-0.0532956,-3.65876,0.2407,
2,1,0,1,0,7066.47,0.242506,0.242222,1.74797,4,0.0175003,10,0.000423397,-2.75747,-1.6425,-0.0359209,-2.45779,0.242222,
2,1,0,1,0,7066.51,0.244003,0.243691,1.75073,4,0.0175663,10,0.000426638,-2.75678,-2.51751,-0.0234359,-1.59798,0.243691,
2,1,0,1,0,7066.55,0.245503,0.245249,1.75305,4,0.0176325,10,0.000429934,-2.75621,-1.79717,-0.0328294,-2.22916,0.245249,
2,1,0,1,0,7066.58,0.247003,0.246696,1.74419,4,0.0176986,10,0.000430285,-2.75841,-0.979172,-0.060255,-4.08016,0.246696,
2,1,0,1,0,7066.62,0.248499,0.248201,1.73494,4,0.0177643,10,0.000430613,-2.76072,-1.4554,-0.0405386,-2.74577,0.2482006,
2,1,0,1,0,7066.66,0.249995,0.249698,1.72855,4,0.0178297,10,0.000431615,-2.76232,-2.16384,-0.0272663,-1.84735,0.249698,
2,1,0,1,0,7066.7,0.251498,0.25122,1.72304,4,0.0178954,10,0.000432861,-2.76371,-2.65291,-0.0222397,-1.5044,0.25122,
2,1,0,1,0,7066.73,0.252994,0.252696,1.72044,4,0.0179607,10,0.000434746,-2.76436,-1.00491,-0.0587116,-3.9536,0.2526955,
2,1,0,1,0,7066.77,0.25449,0.254201,1.72238,4,0.0180259,10,0.000437829,-2.76387,-1.17342,-0.0502804,-3.37633,0.254201,
2,1,0,1,0,7066.81,0.25599,0.25569,1.71751,4,0.0180909,10,0.000439151,-2.7651,-1.56722,-0.0376462,-2.52093,0.25569,
2,1,0,1,0,7066.85,0.25749,0.257229,1.7201,4,0.0181558,10,0.000442459,-2.76445,59.7647,0.000987204,0.0657964,0.257229,
2,1,0,1,0,7066.88,0.258987,0.258705,1.71612,4,0.0182206,10,0.000443969,-2.76545,-1.63244,-0.0361422,-2.40686,0.258705,
2,1,0,1,0,7066.92,0.260483,0.260198,1.70712,4,0.0182853,10,0.000444191,-2.76773,-1.15369,-0.0511402,-3.40803,0.260198,
2,1,0,1,0,7066.96,0.261983,0.261674,1.70294,4,0.0183499,10,0.000445614,-2.7688,-1.91861,-0.0307514,-2.04621,0.261674,
2,1,0,1,0,7067,0.263483,0.263164,1.69657,4,0.0184143,10,0.000446476,-2.77043,-5.47591,-0.0107745,-0.71567,0.263164,
2,1,0,1,0,7067.03,0.264978,0.264644,1.69737,4,0.0184785,10,0.000449198,-2.77022,-1.58993,-0.0371086,-2.45851,0.264644,
2,1,0,1,0,7067.07,0.266474,0.266202,1.6963,4,0.0185426,10,0.000451558,-2.7705,-1.43732,-0.0410486,-2.70867,0.266202,
2,1,0,1,0,7067.11,0.267977,0.267692,1.68738,4,0.0186068,10,0.0004517,-2.77279,-2.02918,-0.0290758,-1.91754,0.267692,
2,1,0,1,0,7067.15,0.269474,0.269182,1.68721,4,0.0186705,10,0.000454167,-2.77283,-2.02698,-0.0291074,-1.9122,0.269182,
2,1,0,1,0,7067.18,0.27097,0.270703,1.68813,4,0.0187342,10,0.000456983,-2.77259,-2.36302,-0.024968,-1.6349,0.270703,
2,1,0,1,0,7067.22,0.27247,0.272165,1.68066,4,0.018798,10,0.000457416,-2.77452,-0.951579,-0.0620022,-4.05552,0.272165,
2,1,0,1,0,7067.26,0.27397,0.273707,1.66887,4,0.0188616,10,0.000456782,-2.77758,-1.42902,-0.041287,-2.70643,0.273707,
2,1,0,1,0,7067.3,0.275467,0.275186,1.66862,4,0.0189247,10,0.000459182,-2.77764,-1.46734,-0.0402089,-2.6294,0.275186,
2,1,0,1,0,7067.33,0.276963,0.276672,1.66576,4,0.0189878,10,0.000460871,-2.77839,-1.62077,-0.0364025,-2.3733,0.276672,
2,1,0,1,0,7067.37,0.278463,0.278193,1.67148,4,0.019051,10,0.000464993,-2.7769,-1.19014,-0.0495741,-3.2195,0.278193,
2,1,0,1,0,7067.41,0.279963,0.279694,1.66612,4,0.0191141,10,0.000466003,-2.77829,-1.10488,-0.0533993,-3.45851,0.279694,
2,1,0,1,0,7067.45,0.281459,0.281119,1.66256,4,0.0191768,10,0.000467376,-2.77922,-1.61622,-0.036505,-2.36064,0.281119,
2,1,0,1,0,7067.48,0.282954,0.28263,1.65618,4,0.0192394,10,0.000468088,-2.78089,-3.77767,-0.0156181,-1.00744,0.28263,
2,1,0,1,0,7067.52,0.284458,0.284198,1.64915,4,0.0193022,10,0.000468687,-2.78274,-3.12062,-0.0189065,-1.21915,0.284198,
2,1,0,1,0,7067.56,0.285954,0.285666,1.64692,4,0.0193646,10,0.000470471,-2.78333,-1.56342,-0.0377379,-2.43126,0.285666,
2,1,0,1,0,7067.6,0.28745,0.287148,1.63803,4,0.0194267,10,0.000470355,-2.78568,-1.09042,-0.0541076,-3.47892,0.287148,
2,1,0,1,0,7067.63,0.28895,0.288636,1.63846,4,0.0194889,10,0.00047292,-2.78556,-15.895,-0.00371186,-0.237378,0.288636,
2,1,0,1,0,7067.67,0.29045,0.29013,1.64007,4,0.0195511,10,0.000475835,-2.78514,-1.73194,-0.0340658,-2.17592,0.29013,
2,1,0,1,0,7067.71,0.291947,0.291636,1.63375,4,0.0196129,10,0.000476462,-2.78681,-0.921891,-0.0639989,-4.07601,0.291636,
2,1,0,1,0,7067.74,0.293443,0.293131,1.62561,4,0.0196745,10,0.000476517,-2.78898,-1.06368,-0.055468,-3.51901,0.293131,
2,1,0,1,0,7067.78,0.294943,0.294644,1.62898,4,0.0197361,10,0.000479969,-2.78808,-1.56012,-0.0378175,-2.40262,0.294644,
2,1,0,1,0,7067.82,0.296443,0.296166,1.62391,4,0.0197977,10,0.000480948,-2.78944,-3.06557,-0.019246,-1.21772,0.296166,
2,1,0,1,0,7067.86,0.297939,0.297641,1.62026,4,0.019859,10,0.000482255,-2.79042,-1.20384,-0.0490099,-3.09755,0.297641,
2,1,0,1,0,7067.89,0.299434,0.299089,1.61245,4,0.0199201,10,0.000482266,-2.79251,-0.0102419,-5.76065,-287.392,0.299089,
2,1,0,0,0,7067.91,0.299962,0.299689,1.51549,4,0.0199441,10,0.000454176,-2.81945,0.000592594,99.5623,2187.64,0.2996892,
2,1,0,1,0,7067.94,0.298689,0.298416,0.105394,4,0.0199627,10,3.14513e-05,-3.97718,0.00484916,12.1671,576.861,0.2984156,
2,0,0,1,0,7067.98,0.297189,0.296854,-0.271903,4,0.0199575,10,-8.07153e-05,-3.56559,-0.768831,-0.0767399,212.119,0.296854,
2,0,0,1,0,7068.02,0.295692,0.295406,-0.405925,4,0.0199438,10,-0.000119913,-3.39155,-0.00977141,-6.03802,74.8068,0.295406,
2,0,0,1,0,7068.05,0.294196,0.293906,-0.477247,4,0.0199266,10,-0.000140266,-3.32126,-0.0245438,-2.40387,42.1293,0.293906,
2,0,0,1,0,7068.09,0.292696,0.292383,-0.527546,4,0.019907,10,-0.000154246,-3.27774,-0.035879,-1.64442,33.2227,0.292383,
2,0,0,1,0,7068.13,0.291196,0.290894,-0.5719,4,0.0198857,10,-0.000166363,-3.24268,-0.0428119,-1.37812,30.4896,0.290894,
2,0,0,1,0,7068.17,0.2897,0.28941,-0.610292,4,0.0198628,10,-0.000176625,-3.21446,-0.0605712,-0.974061,23.102,0.28941,
2,0,0,1,0,7068.2,0.288205,0.287899,-0.642668,4,0.0198385,10,-0.000185024,-3.19201,-0.0775149,-0.761144,18.9783,0.287899,
2,0,0,1,0,7068.24,0.286701,0.286373,-0.668922,4,0.019813,10,-0.000191561,-3.17462,-0.0800304,-0.737219,19.2998,0.286373,
2,0,0,1,0,7068.28,0.285205,0.284916,-0.700867,4,0.0197866,10,-0.000199688,-3.15436,-0.0904449,-0.652331,17.7137,0.284916,
2,0,0,1,0,7068.32,0.283708,0.283416,-0.726213,4,0.0197592,10,-0.000205821,-3.13894,-0.0992655,-0.594366,16.7127,0.283416,
2,0,0,1,0,7068.35,0.282208,0.281882,-0.749948,4,0.0197308,10,-0.000211397,-3.12497,-0.122052,-0.4834,13.9907,0.281882,
2,0,0,1,0,7068.39,0.280709,0.280386,-0.767841,4,0.0197016,10,-0.000215292,-3.11473,-0.15068,-0.391559,11.7434,0.280386,
2,0,0,1,0,7068.43,0.279212,0.278962,-0.785784,4,0.0196718,10,-0.000219204,-3.1047,-0.137313,-0.429676,13.2616,0.278962,
2,0,0,1,0,7068.47,0.277716,0.277419,-0.805579,4,0.0196412,10,-0.000223483,-3.09389,-0.154107,-0.382852,12.1201,0.277419,
2,0,0,1,0,7068.5,0.276216,0.275913,-0.830349,4,0.0196098,10,-0.000229104,-3.08074,-0.172735,-0.341564,11.0473,0.275913,
2,0,0,1,0,7068.54,0.274716,0.274407,-0.845345,4,0.0195778,10,-0.000231969,-3.07297,-0.176549,-0.334185,10.9852,0.274407,
2,0,0,1,0,7068.58,0.27322,0.272878,-0.86347,4,0.0195453,10,-0.000235622,-3.06375,-0.151034,-0.390641,13.0574,0.272878,
2,0,0,1,0,7068.62,0.271725,0.271394,-0.877941,4,0.0195121,10,-0.000238268,-3.05653,-0.160458,-0.367698,12.4679,0.271394,
2,0,0,1,0,7068.65,0.270221,0.269897,-0.895573,4,0.0194781,10,-0.000241713,-3.0479,-0.204595,-0.288375,10.0358,0.269897,
2,0,0,1,0,7068.69,0.268725,0.268419,-0.905213,4,0.0194437,10,-0.000242977,-3.04325,-0.262195,-0.225024,7.9751,0.268419,
2,0,0,1,0,7068.73,0.267228,0.266954,-0.910875,4,0.0194089,10,-0.000243162,-3.04054,-0.257394,-0.22922,8.23954,0.266954,
2,0,0,1,0,7068.77,0.265728,0.265414,-0.926616,4,0.0193736,10,-0.000245936,-3.0331,-0.235096,-0.250961,9.14174,0.265414,
2,0,0,1,0,7068.8,0.264228,0.263907,-0.944468,4,0.0193376,10,-0.000249252,-3.02481,-0.244499,-0.241309,8.90693,0.263907,
2,0,0,1,0,7068.84,0.262732,0.26243,-0.963259,4,0.0193013,10,-0.000252788,-3.01626,-0.268157,-0.220021,8.2164,0.26243,
2,0,0,1,0,7068.88,0.261236,0.260921,-0.973308,4,0.0192645,10,-0.000253956,-3.01175,-0.316727,-0.18628,7.05316,0.260921,
2,0,0,1,0,7068.92,0.259736,0.259453,-0.986241,4,0.0192271,10,-0.000255883,-3.00602,-0.244611,-0.2412,9.25033,0.259453,
2,0,0,1,0,7068.95,0.258236,0.257929,-0.999798,4,0.0191893,10,-0.000257877,-3.00009,-0.323292,-0.182498,7.08924,0.257929,
2,0,0,1,0,7068.99,0.256741,0.256441,-1.00567,4,0.019151,10,-0.000257895,-2.99754,-0.315373,-0.18708,7.34387,0.256441,
2,0,0,1,0,7069.03,0.255241,0.254968,-1.01607,4,0.0191122,10,-0.000259065,-2.99308,-0.358417,-0.164613,6.55658,0.2549684,
2,0,0,1,0,7069.07,0.253741,0.253429,-1.02687,4,0.0190732,10,-0.000260238,-2.98849,-0.362677,-0.162679,6.55761,0.253429,
2,0,0,1,0,7069.1,0.252245,0.251945,-1.04248,4,0.0190337,10,-0.000262646,-2.98193,-0.281781,-0.209383,8.50515,0.2519446,
2,0,0,1,0,7069.14,0.250748,0.250433,-1.05422,4,0.0189939,10,-0.000264012,-2.97707,-0.389519,-0.151469,6.2221,0.250433,
2,0,0,1,0,7069.18,0.249248,0.248973,-1.06354,4,0.0189534,10,-0.000264792,-2.97325,-0.364563,-0.161838,6.69442,0.248973,
2,0,0,1,0,7069.21,0.247748,0.247463,-1.07446,4,0.0189128,10,-0.000265889,-2.96881,-0.353727,-0.166795,6.97392,0.247463,
2,0,0,1,0,7069.25,0.246252,0.245936,-1.08516,4,0.0188717,10,-0.00026688,-2.96451,-0.273772,-0.215508,9.06565,0.245936,
2,0,0,1,0,7069.29,0.244756,0.244462,-1.09912,4,0.0188302,10,-0.000268693,-2.95896,-0.328356,-0.179683,7.6727,0.244462,
2,0,0,1,0,7069.33,0.243252,0.242943,-1.10298,4,0.018788,10,-0.000267961,-2.95743,-0.382396,-0.15429,6.66414,0.242943,
2,0,0,1,0,7069.36,0.241756,0.241462,-1.10547,4,0.0187459,10,-0.00026693,-2.95645,-0.358057,-0.164778,7.19781,0.241462,
2,0,0,1,0,7069.4,0.240261,0.239921,-1.11932,4,0.0187034,10,-0.000268548,-2.95105,-0.362405,-0.162801,7.155,0.239921,
2,0,0,1,0,7069.44,0.238761,0.238462,-1.13538,4,0.0186603,10,-0.000270744,-2.94486,-0.437809,-0.134762,5.95094,0.238462,
2,0,0,1,0,7069.48,0.237261,0.236938,-1.14838,4,0.0186168,10,-0.000272094,-2.93992,-0.560135,-0.105332,4.67301,0.236938,
2,0,0,1,0,7069.51,0.235765,0.235448,-1.15361,4,0.0185731,10,-0.000271614,-2.93794,-0.478517,-0.123298,5.5333,0.235448,
2,0,0,1,0,7069.55,0.234268,0.233958,-1.16261,4,0.0185293,10,-0.000272001,-2.93457,-0.357464,-0.165052,7.49071,0.233958,
2,0,0,1,0,7069.59,0.232768,0.232489,-1.17121,4,0.0184847,10,-0.000272293,-2.93137,-0.363111,-0.162485,7.42109,0.232489,
2,0,0,1,0,7069.63,0.231268,0.230988,-1.17943,4,0.0184398,10,-0.000272434,-2.92833,-0.562375,-0.104912,4.84101,0.230988,
2,0,0,1,0,7069.66,0.229772,0.229427,-1.18925,4,0.0183947,10,-0.000272846,-2.92473,-0.498105,-0.118449,5.5222,0.229427,
2,0,0,1,0,7069.7,0.228275,0.227958,-1.20184,4,0.0183493,10,-0.00027397,-2.92015,-0.396058,-0.148968,6.98223,0.227958,
2,0,0,1,0,7069.74,0.226772,0.226472,-1.21231,4,0.0183033,10,-0.000274555,-2.91638,-0.329827,-0.178882,8.41564,0.226472,
2,0,0,1,0,7069.78,0.225276,0.225013,-1.22511,4,0.0182571,10,-0.000275667,-2.91182,-0.427545,-0.137997,6.5633,0.225013,
2,0,0,1,0,7069.81,0.223781,0.223506,-1.23311,4,0.0182106,10,-0.000275607,-2.909,-0.405963,-0.145333,6.95142,0.223506,
2,0,0,1,0,7069.85,0.222281,0.222008,-1.23564,4,0.0181637,10,-0.000274323,-2.90811,-0.363529,-0.162298,7.84938,0.222008,
2,0,0,1,0,7069.89,0.220781,0.220501,-1.24861,4,0.0181164,10,-0.00027532,-2.90357,-0.356952,-0.165288,8.05948,0.220501,
2,0,0,1,0,7069.93,0.219284,0.218979,-1.25868,4,0.0180688,10,-0.000275625,-2.90008,-0.458475,-0.128688,6.32587,0.218979,
2,0,0,1,0,7069.96,0.217788,0.217446,-1.26825,4,0.0180208,10,-0.000275777,-2.89679,-0.538698,-0.109523,5.42006,0.217446,
2,0,0,1,0,7070,0.216288,0.215969,-1.26912,4,0.0179724,10,-0.000274091,-2.8965,-0.443858,-0.132925,6.62191,0.215969,
2,0,0,1,0,7070.04,0.214788,0.214441,-1.28686,4,0.0179237,10,-0.000275955,-2.89047,-0.460795,-0.128039,6.41824,0.214441,
2,0,0,1,0,7070.08,0.213292,0.213021,-1.29851,4,0.0178747,10,-0.000276611,-2.88655,-0.368072,-0.160295,8.10101,0.213021,
2,0,0,1,0,7070.11,0.211796,0.211519,-1.30986,4,0.0178253,10,-0.000277059,-2.88278,-0.5967,-0.0988772,5.02779,0.211519,
2,0,0,1,0,7070.15,0.210293,0.209983,-1.31611,4,0.0177752,10,-0.000276361,-2.88071,-0.383382,-0.153894,7.91561,0.209983,
2,0,0,1,0,7070.19,0.208797,0.20848,-1.3251,4,0.0177252,10,-0.000276256,-2.87775,-0.319765,-0.18451,9.59615,0.20848,
2,0,0,1,0,7070.23,0.207301,0.206979,-1.33147,4,0.0176746,10,-0.000275586,-2.87567,-0.3304,-0.178571,9.34909,0.206979,
2,0,0,1,0,7070.26,0.205801,0.205481,-1.353,4,0.0176234,10,-0.000278015,-2.8687,-0.432786,-0.136326,7.17131,0.205481,
2,0,0,1,0,7070.3,0.204301,0.203992,-1.357,4,0.0175718,10,-0.000276819,-2.86742,-0.611396,-0.0965005,5.12454,0.2039925,
2,0,0,1,0,7070.34,0.202804,0.202493,-1.36876,4,0.0175202,10,-0.000277164,-2.86367,-0.466487,-0.126477,6.75483,0.202493,
2,0,0,1,0,7070.38,0.201308,0.200986,-1.38472,4,0.0174681,10,-0.000278309,-2.85864,-0.332104,-0.177655,9.54512,0.200986,
2,0,0,1,0,7070.41,0.199808,0.199501,-1.39029,4,0.0174154,10,-0.000277364,-2.85689,-0.451829,-0.13058,7.08772,0.199501,
2,0,0,1,0,7070.45,0.198308,0.197993,-1.40205,4,0.0173623,10,-0.000277596,-2.85324,-0.436058,-0.135303,7.41098,0.197993,
2,0,0,1,0,7070.49,0.196812,0.196502,-1.40629,4,0.0173089,10,-0.00027634,-2.85192,-0.396923,-0.148644,8.24408,0.196502,
2,0,0,1,0,7070.53,0.195316,0.195014,-1.42228,4,0.0172551,10,-0.000277366,-2.84701,-0.309828,-0.190428,10.6305,0.195014,
2,0,0,1,0,7070.56,0.193813,0.193477,-1.44188,4,0.0172004,10,-0.000278971,-2.84107,-0.373425,-0.157997,8.89352,0.193477,
2,0,0,1,0,7070.6,0.192317,0.192009,-1.45484,4,0.0171455,10,-0.000279342,-2.83719,-0.400639,-0.147265,8.32274,0.192009,
2,0,0,1,0,7070.64,0.190821,0.190484,-1.46157,4,0.0170902,10,-0.000278404,-2.83518,-0.368534,-0.160094,9.16888,0.1904836,
2,0,0,1,0,7070.68,0.189321,0.189019,-1.48061,4,0.0170343,10,-0.000279863,-2.82956,-0.379732,-0.155373,8.95623,0.189019,
2,0,0,1,0,7070.71,0.187821,0.187524,-1.49827,4,0.0169778,10,-0.000280962,-2.82441,-0.334827,-0.176211,10.2679,0.187524,
2,0,0,1,0,7070.75,0.186324,0.186004,-1.51062,4,0.0169208,10,-0.000280981,-2.82085,-0.448927,-0.131424,7.75329,0.186004,
2,0,0,1,0,7070.79,0.184828,0.184486,-1.52543,4,0.0168633,10,-0.00028142,-2.81661,-0.341771,-0.17263,10.3113,0.184486,
2,0,0,1,0,7070.83,0.183328,0.182984,-1.53686,4,0.0168051,10,-0.00028122,-2.81337,-0.298282,-0.1978,11.9813,0.182984,
2,0,0,1,0,7070.86,0.181828,0.181499,-1.56043,4,0.0167462,10,-0.000283216,-2.80676,-0.257896,-0.228774,13.9554,0.1814986,
2,0,0,1,0,7070.9,0.180332,0.180008,-1.58443,4,0.0166866,10,-0.00028521,-2.80013,-0.285932,-0.206342,12.7207,0.180008,
2,0,0,1,0,7070.94,0.178836,0.178527,-1.60557,4,0.0166264,10,-0.000286638,-2.79437,-0.286441,-0.205976,12.8585,0.178527,
2,0,0,1,0,7070.98,0.177333,0.177018,-1.62107,4,0.0165652,10,-0.000286958,-2.7902,-0.275638,-0.214049,13.5242,0.177018,
2,0,0,1,0,7071.01,0.175837,0.175549,-1.6472,4,0.0165035,10,-0.000289165,-2.78325,-0.224365,-0.262964,16.8353,0.175549,
2,0,0,1,0,7071.05,0.174341,0.174026,-1.66687,4,0.0164408,10,-0.000290078,-2.7781,-0.232119,-0.25418,16.5694,0.174026,
2,0,0,1,0,7071.09,0.172841,0.172567,-1.69477,4,0.016377,10,-0.000292461,-2.77089,-0.237943,-0.247959,16.386,0.172567,
2,0,0,1,0,7071.13,0.171341,0.171053,-1.7127,4,0.0163123,10,-0.000292963,-2.76632,-0.216515,-0.272498,18.3636,0.171053,
2,0,0,1,0,7071.16,0.169844,0.169562,-1.74764,4,0.0162468,10,-0.000296332,-2.75755,-0.196119,-0.300837,20.6065,0.169562,
2,0,0,1,0,7071.2,0.168348,0.16802,-1.78824,4,0.01618,10,-0.000300461,-2.74757,-0.180342,-0.327156,22.7679,0.16802,
2,0,0,1,0,7071.24,0.166848,0.166535,-1.8228,4,0.0161118,10,-0.000303561,-2.73926,-0.182538,-0.32322,22.8414,0.166535,
2,0,0,1,0,7071.27,0.165348,0.165045,-1.8544,4,0.0160422,10,-0.00030606,-2.7318,-0.164419,-0.358839,25.9366,0.165045,
2,0,0,1,0,7071.31,0.163852,0.163515,-1.89058,4,0.0159716,10,-0.000309138,-2.72341,-0.157335,-0.374996,27.7554,0.163515,
2,0,0,1,0,7071.35,0.162357,0.162094,-1.93616,4,0.0158993,10,-0.000313841,-2.71306,-0.146233,-0.403466,30.5451,0.162094,
2,0,0,1,0,7071.39,0.160853,0.160563,-1.98059,4,0.0158249,10,-0.000318008,-2.70321,-0.139063,-0.424267,32.9067,0.160563,
2,0,0,1,0,7071.42,0.159357,0.159049,-2.03205,4,0.015749,10,-0.000323195,-2.69207,-0.129159,-0.456801,36.4091,0.159049,
2,0,0,1,0,7071.46,0.157861,0.157557,-2.09381,4,0.0156711,10,-0.000329896,-2.67906,-0.120446,-0.489847,40.1766,0.157557,
2,0,0,1,0,7071.5,0.156361,0.156049,-2.16006,4,0.0155907,10,-0.000337077,-2.66553,-0.106203,-0.555539,46.7727,0.156049,
2,0,0,1,0,7071.54,0.154861,0.154522,-2.23236,4,0.0155077,10,-0.000344949,-2.65123,-0.103749,-0.568679,49.5284,0.154522,
2,0,0,1,0,7071.57,0.153364,0.153047,-2.30884,4,0.0154221,10,-0.000353359,-2.63661,-0.102282,-0.576838,51.9287,0.153047,
2,0,0,1,0,7071.61,0.151868,0.151529,-2.38472,4,0.0153337,10,-0.000361354,-2.62256,-0.0936636,-0.629914,58.8623,0.151529,
2,0,0,1,0,7071.65,0.150368,0.150025,-2.47962,4,0.0152418,10,-0.000372005,-2.60561,-0.0870208,-0.677999,65.8028,0.150025,
2,0,0,1,0,7071.69,0.148868,0.148577,-2.58422,4,0.0151461,10,-0.000383955,-2.58767,-0.0821889,-0.717859,72.6193,0.148577,
2,0,0,1,0,7071.72,0.147372,0.147075,-2.69167,4,0.0150466,10,-0.000395878,-2.56998,-0.0787856,-0.748868,78.9897,0.147075,
2,0,0,1,0,7071.76,0.145877,0.145558,-2.80753,4,0.0149429,10,-0.00040866,-2.55168,-0.0767589,-0.768641,84.6556,0.145558,
2,0,0,1,0,7071.8,0.144373,0.144081,-2.94521,4,0.014834,10,-0.000424349,-2.53088,-0.0748367,-0.788383,90.8033,0.144081,
2,0,0,1,0,7071.84,0.142877,0.142545,-3.09222,4,0.0147204,10,-0.000440781,-2.50973,-0.0729764,-0.80848,97.3941,0.142545,
2,0,0,1,0,7071.87,0.14138,0.141114,-3.23782,4,0.0146013,10,-0.000456902,-2.48975,-0.0751521,-0.785075,98.882,0.141114,
2,0,0,1,0,7071.91,0.13988,0.139569,-3.3861,4,0.0144764,10,-0.000472594,-2.4703,-0.0758939,-0.777401,102.71,0.139569,
2,0,0,1,0,7071.95,0.13838,0.13806,-3.54142,4,0.0143459,10,-0.000488928,-2.45082,-0.079124,-0.745665,103.141,0.13806,
2,0,0,1,0,7071.99,0.136884,0.136539,-3.69538,4,0.0142097,10,-0.000504563,-2.43234,-0.0797544,-0.739771,106.807,0.136539,
2,0,0,1,0,7072.02,0.135388,0.135081,-3.85765,4,0.0140676,10,-0.000521096,-2.41368,-0.0855693,-0.6895,103.686,0.135081,
2,0,0,1,0,7072.06,0.133888,0.133534,-4.01636,4,0.0139192,10,-0.00053632,-2.39617,-0.0923734,-0.638712,99.8048,0.133534,
2,0,0,1,0,7072.1,0.132389,0.132091,-4.16146,4,0.0137653,10,-0.00054969,-2.38075,-0.0980623,-0.601659,97.4106,0.132091,
2,0,0,1,0,7072.14,0.130893,0.130605,-4.29913,4,0.0136064,10,-0.000561488,-2.36662,-0.102651,-0.574761,96.2607,0.130605,
2,0,0,1,0,7072.17,0.129393,0.129083,-4.44404,4,0.0134416,10,-0.000573652,-2.35222,-0.118135,-0.499427,86.1875,0.1290835,
2,0,0,1,0,7072.21,0.127893,0.127565,-4.56041,4,0.013272,10,-0.000581748,-2.341,-0.134303,-0.439307,78.0732,0.127565,
2,0,0,1,0,7072.25,0.126397,0.126105,-4.66922,4,0.0130985,10,-0.000588811,-2.33076,-0.150226,-0.392743,71.5396,0.126105,
2,0,0,1,0,7072.29,0.1249,0.124608,-4.77348,4,0.012921,10,-0.000594816,-2.32117,-0.170824,-0.345385,64.2964,0.124608,
2,0,0,1,0,7072.32,0.1234,0.123079,-4.87116,4,0.0127393,10,-0.000599537,-2.31237,-0.199088,-0.296352,56.2169,0.123079,
2,0,0,1,0,7072.36,0.1219,0.121581,-4.94484,4,0.0125544,10,-0.000601199,-2.30585,-0.24652,-0.239332,46.081,0.121581,
2,0,0,1,0,7072.4,0.120404,0.120075,-5.01142,4,0.0123674,10,-0.000601748,-2.30004,-0.298214,-0.197845,38.588,0.120075,
2,0,0,1,0,7072.44,0.118908,0.118593,-5.06717,4,0.0121783,10,-0.000600932,-2.29523,-0.379603,-0.155426,30.6653,0.118593,
2,0,0,1,0,7072.47,0.117404,0.11709,-5.11054,4,0.0119863,10,-0.000598395,-2.29153,-0.432206,-0.136509,27.1539,0.11709,
2,0,0,1,0,7072.51,0.115909,0.11558,-5.142,4,0.0117939,10,-0.000594314,-2.28887,-0.709656,-0.0831388,16.6358,0.11558,
2,0,0,1,0,7072.55,0.114413,0.114079,-5.16012,4,0.0116004,10,-0.000588659,-2.28734,-1.17076,-0.0503947,10.1366,0.114079,
2,0,0,1,0,7072.59,0.112913,0.112604,-5.16666,4,0.011406,10,-0.000581785,-2.28679,-2.31167,-0.0255227,5.14791,0.1126036,
2,0,0,1,0,7072.62,0.111413,0.111104,-5.16897,4,0.0112114,10,-0.000574295,-2.2866,27.5248,0.00214353,-0.432092,0.111104,
2,0,0,1,0,7072.66,0.109917,0.109587,-5.16834,4,0.0110172,10,-0.000566386,-2.28665,1.56837,0.0376186,-7.56731,0.109587,
2,0,0,1,0,7072.7,0.10842,0.108107,-5.1572,4,0.0108235,10,-0.00055753,-2.28759,0.792084,0.0744871,-14.935,0.108107,
2,0,0,1,0,7072.74,0.10692,0.106612,-5.1265,4,0.0106303,10,-0.000546548,-2.29018,0.613309,0.0961995,-19.2014,0.106612,
2,0,0,1,0,7072.77,0.10542,0.105149,-5.09679,4,0.010438,10,-0.000535924,-2.2927,0.554768,0.106351,-21.1072,0.105149,
2,0,0,1,0,7072.81,0.103924,0.103622,-5.06105,4,0.0102474,10,-0.000524434,-2.29576,0.432245,0.136497,-26.9049,0.103622,
2,0,0,1,0,7072.85,0.102427,0.102163,-5.00963,4,0.0100583,10,-0.000511797,-2.30019,0.341288,0.172875,-33.7958,0.102163,
2,0,0,1,0,7072.89,0.100924,0.100604,-4.95519,4,0.0098701,10,-0.000498511,-2.30494,0.317359,0.185909,-35.9847,0.1006038,
2,0,0,1,0,7072.92,0.0994284,0.0991324,-4.89902,4,0.00968504,10,-0.000485652,-2.30989,0.285021,0.207002,-39.6305,0.0991324,
2,0,0,1,0,7072.96,0.0979329,0.0976078,-4.84724,4,0.00950204,10,-0.000473129,-2.31451,0.292792,0.201508,-38.0672,0.0976078,
2,0,0,1,0,7073,0.0964329,0.0961165,-4.78712,4,0.00932072,10,-0.000460121,-2.31993,0.249025,0.236924,-44.1242,0.09611652,
2,0,0,1,0,7073.04,0.094933,0.094583,-4.7156,4,0.00914185,10,-0.000446016,-2.32646,0.239549,0.246296,-45.3315,0.09458296,
2,0,0,1,0,7073.07,0.0934366,0.0930986,-4.65397,4,0.00896608,10,-0.000433278,-2.33218,0.251077,0.234988,-42.6812,0.0930986,
2,0,0,1,0,7073.11,0.0919401,0.0916604,-4.5881,4,0.00879254,10,-0.000420547,-2.33837,0.250161,0.235848,-42.2715,0.0916604,
2,0,0,1,0,7073.15,0.0904402,0.0900826,-4.52645,4,0.0086208,10,-0.000407754,-2.34424,0.242411,0.243388,-43.0226,0.0900826,
2,0,0,1,0,7073.19,0.0889402,0.0886112,-4.46883,4,0.00845136,10,-0.000395988,-2.34981,0.258196,0.228509,-39.8849,0.0886112,
2,0,0,1,0,7073.22,0.0874438,0.0871667,-4.4104,4,0.00828482,10,-0.00038444,-2.35552,0.272469,0.216539,-37.308,0.0871667,
2,0,0,1,0,7073.26,0.0859483,0.0856123,-4.35797,4,0.00812026,10,-0.000373095,-2.36072,0.307827,0.191666,-32.5732,0.08561226,
2,0,0,1,0,7073.3,0.0844447,0.0841502,-4.30937,4,0.00795669,10,-0.000362634,-2.36559,0.328927,0.179371,-30.149,0.08415021,
2,0,0,1,0,7073.33,0.0829492,0.0826822,-4.26642,4,0.00779576,10,-0.000352757,-2.36994,0.324782,0.18166,-30.182,0.0826822,
2,0,0,1,0,7073.37,0.0814528,0.081175,-4.2134,4,0.00763659,10,-0.000342023,-2.37537,0.362991,0.162538,-26.7739,0.08117497,
2,0,0,1,0,7073.41,0.0799528,0.0796795,-4.17689,4,0.00747862,10,-0.000332813,-2.37915,0.417479,0.141324,-23.0659,0.0796795,
2,0,0,1,0,7073.45,0.0784529,0.0781501,-4.14115,4,0.00732184,10,-0.000323632,-2.38288,0.436468,0.135176,-21.8735,0.0781501,
2,0,0,1,0,7073.48,0.0769565,0.0766295,-4.10694,4,0.00716673,10,-0.000314713,-2.38648,0.391921,0.150541,-24.1537,0.07662946,
2,0,0,1,0,7073.52,0.0754601,0.0751285,-4.06813,4,0.00701301,10,-0.000305633,-2.3906,0.410659,0.143672,-22.8674,0.0751285,
2,0,0,1,0,7073.56,0.0739601,0.073657,-4.04437,4,0.00686021,10,-0.000297896,-2.39315,0.478801,0.123225,-19.4597,0.073657,
2,0,0,1,0,7073.6,0.0724601,0.072148,-4.02139,4,0.00670843,10,-0.000290135,-2.39562,0.514516,0.114671,-17.9585,0.072148,
2,0,0,1,0,7073.63,0.0709637,0.0706176,-3.99544,4,0.00655796,10,-0.000282149,-2.39844,0.505565,0.116701,-18.1452,0.0706176,
2,0,0,1,0,7073.67,0.0694682,0.0691339,-3.95936,4,0.00640851,10,-0.000273726,-2.40238,0.534067,0.110473,-17.0756,0.0691339,
2,0,0,1,0,7073.71,0.0679646,0.0676695,-3.93292,4,0.00625949,10,-0.000266139,-2.40528,0.557871,0.105759,-16.2738,0.0676695,
2,0,0,1,0,7073.75,0.0664691,0.0661384,-3.9058,4,0.00611211,10,-0.000258324,-2.40829,0.600566,0.0982407,-15.0032,0.0661384,
2,0,0,1,0,7073.78,0.0649727,0.0646685,-3.8854,4,0.0059655,10,-0.000251263,-2.41056,0.516252,0.114285,-17.3366,0.0646685,
2,0,0,1,0,7073.82,0.0634727,0.0631916,-3.85914,4,0.00581947,10,-0.000243865,-2.41351,0.489545,0.12052,-18.1602,0.06319157,
2,0,0,1,0,7073.86,0.0619728,0.0616788,-3.83137,4,0.00567463,10,-0.000236314,-2.41665,0.474844,0.124251,-18.5871,0.0616788,
2,0,0,1,0,7073.9,0.0604764,0.0601247,-3.80917,4,0.00553109,10,-0.000229025,-2.41917,0.542482,0.108759,-16.1323,0.0601247,
2,0,0,1,0,7073.93,0.05898,0.0586591,-3.78746,4,0.00538841,10,-0.000222169,-2.42165,0.523217,0.112764,-16.6291,0.0586591,
2,0,0,1,0,7073.97,0.05748,0.057167,-3.75701,4,0.00524628,10,-0.000214777,-2.42516,0.475591,0.124056,-18.1825,0.05716702,
2,0,0,1,0,7074.01,0.05598,0.0556648,-3.72,4,0.00510532,10,-0.000207073,-2.42946,0.453471,0.130108,-18.9552,0.0556648,
2,0,0,1,0,7074.05,0.0544836,0.0541403,-3.69807,4,0.00496574,10,-0.000200215,-2.43202,0.534381,0.110408,-15.9655,0.0541403,
2,0,0,1,0,7074.08,0.0529881,0.0526727,-3.67632,4,0.00482695,10,-0.000193642,-2.43459,0.48165,0.122496,-17.5759,0.0526727,
2,0,0,1,0,7074.12,0.0514846,0.0511329,-3.64683,4,0.00468851,10,-0.000186473,-2.43808,0.398948,0.147889,-21.0656,0.0511329,
2,0,0,1,0,7074.16,0.049989,0.0497042,-3.6165,4,0.00455192,10,-0.000179755,-2.44171,0.422658,0.139593,-19.7046,0.0497042,
2,0,0,1,0,7074.2,0.0484926,0.0481923,-3.59172,4,0.0044165,10,-0.000173093,-2.4447,0.411593,0.143346,-20.069,0.0481923,
2,0,0,1,0,7074.23,0.0469927,0.0466571,-3.56602,4,0.00428171,10,-0.00016638,-2.44782,0.436579,0.135142,-18.759,0.0466571,
2,0,0,1,0,7074.27,0.0454927,0.0451874,-3.52888,4,0.00414798,10,-0.000159461,-2.45236,0.361173,0.163356,-22.4852,0.0451874,
2,0,0,1,0,7074.31,0.0439963,0.0436669,-3.4989,4,0.00401579,10,-0.000152786,-2.45607,0.359379,0.164172,-22.4348,0.0436669,
2,0,0,1,0,7074.35,0.0424999,0.0422247,-3.46344,4,0.00388492,10,-0.000146243,-2.46049,0.372885,0.158226,-21.449,0.0422247,
2,0,0,1,0,7074.38,0.0409999,0.0406426,-3.43587,4,0.00375484,10,-0.000139643,-2.46396,0.402019,0.146759,-19.6904,0.0406426,
2,0,0,1,0,7074.42,0.0394999,0.0391524,-3.40439,4,0.00362586,10,-0.00013329,-2.46796,0.348251,0.169418,-22.4828,0.0391524,
2,0,0,1,0,7074.46,0.0380044,0.0376862,-3.36992,4,0.00349848,10,-0.000126999,-2.47238,0.334035,0.176628,-23.2017,0.0376862,
2,0,0,1,0,7074.5,0.0365089,0.0362107,-3.33511,4,0.00337252,10,-0.000120767,-2.47689,0.340959,0.173041,-22.4745,0.0362107,
2,0,0,1,0,7074.53,0.0350054,0.0346747,-3.29845,4,0.00324717,10,-0.000114373,-2.48169,0.341988,0.172521,-22.1782,0.0346747,
2,0,0,1,0,7074.57,0.033509,0.0332128,-3.26588,4,0.00312373,10,-0.000108469,-2.486,0.332416,0.177488,-22.599,0.0332128,
2,0,0,1,0,7074.61,0.0320125,0.0316919,-3.22541,4,0.00300161,10,-0.00010222,-2.49142,0.323776,0.182225,-22.9682,0.0316919,
2,0,0,1,0,7074.65,0.0305126,0.0302005,-3.18427,4,0.0028805,10,-9.61666e-05,-2.49699,0.321474,0.18353,-22.9061,0.0302005,
2,0,0,1,0,7074.68,0.0290126,0.0286901,-3.15438,4,0.00276074,10,-9.04996e-05,-2.50109,0.339468,0.173801,-21.4676,0.0286901,
2,0,0,1,0,7074.72,0.0275162,0.027224,-3.12998,4,0.00264248,10,-8.52104e-05,-2.50446,0.332834,0.177265,-21.6504,0.027224,
2,0,0,1,0,7074.76,0.0260198,0.0257192,-3.10099,4,0.00252533,10,-7.97548e-05,-2.5085,0.328978,0.179343,-21.6344,0.0257192,
2,0,0,1,0,7074.8,0.0245198,0.0241799,-3.06643,4,0.00240913,10,-7.41462e-05,-2.51337,0.319445,0.184695,-22.0583,0.0241799,
2,0,0,1,0,7074.83,0.0230198,0.0227032,-3.03734,4,0.00229421,10,-6.89574e-05,-2.51751,0.358884,0.164399,-19.4674,0.0227032,
2,0,0,1,0,7074.87,0.0215243,0.0212406,-3.00506,4,0.00218066,10,-6.38294e-05,-2.52215,0.383783,0.153733,-18.0222,0.02124062,
2,0,0,1,0,7074.91,0.0200288,0.0197187,-2.9745,4,0.00206806,10,-5.86535e-05,-2.52659,0.368508,0.160105,-18.6208,0.0197187,
2,0,0,1,0,7074.95,0.0185253,0.0182005,-2.94815,4,0.00195585,10,-5.36576e-05,-2.53045,0.391028,0.150884,-17.4065,0.0182005,
2,0,0,1,0,7074.98,0.0170289,0.0167048,-2.92088,4,0.00184531,10,-4.87927e-05,-2.53449,0.442007,0.133482,-15.2761,0.0167048,
2,0,0,1,0,7075.02,0.0155325,0.0152162,-2.9053,4,0.00173555,10,-4.42076e-05,-2.53681,0.534463,0.110391,-12.5212,0.0152162,
2,0,0,1,0,7075.06,0.0140325,0.0136804,-2.8938,4,0.00162612,10,-3.95884e-05,-2.53853,0.5071,0.116348,-13.1036,0.0136804,
2,0,0,1,0,7075.1,0.0125325,0.0121857,-2.87487,4,0.00151745,10,-3.50323e-05,-2.54138,0.509412,0.11582,-12.9599,0.0121857,
2,0,0,1,0,7075.13,0.0110361,0.0107627,-2.85301,4,0.0014099,10,-3.07061e-05,-2.5447,0.593821,0.0993565,-11.0651,0.0107627,
2,0,0,1,0,7075.17,0.0095397,0.00923896,-2.83216,4,0.00130292,10,-2.61662e-05,-2.54788,0.892838,0.0660814,-7.31461,0.00923896,
2,0,0,1,0,7075.21,0.00803616,0.00774503,-2.82124,4,0.00119578,10,-2.18506e-05,-2.54956,0.969822,0.0608359,-6.72043,0.00774503,
2,0,0,1,0,7075.25,0.00654064,0.00619453,-2.80904,4,0.00108968,10,-1.74007e-05,-2.55144,0.798958,0.0738462,-8.11421,0.00619453,
2,0,0,1,0,7075.28,0.00504513,0.00473213,-2.79407,4,0.000983999,10,-1.32219e-05,-2.55376,1.25369,0.0470613,-5.1537,0.00473213,
2,0,0,1,0,7075.32,0.00354515,0.00325539,-2.79463,4,0.000878411,10,-9.0976e-06,-2.55368,-1.24067,-0.0475548,5.21517,0.00325539,
2,0,0,1,0,7075.36,0.00204518,0.00165652,-2.84292,4,0.000772599,10,-4.70936e-06,-2.54624,4.76957,0.0123701,-1.34794,0.00165652,
2,0,0,1,0,7075.39,0.000548773,0.000171969,-2.80818,4,0.000666508,10,-4.82921e-07,-2.55158, , , ,0.000171969,
2,0,0,1,0,7075.4,0.000177222,-0.00021958,-2.78948,4,0.000640275,10,6.12513e-07,-2.55448, , , ,-0.00021958,