File: Figure_codes/Fig_3-5/rawdata_trumpetplot_data/after 10th/20221101_1-115_003_TrumpetPlot_ParaChange_from10_every3_11_CV_C01_25.csv
mode,ox/red,error,control changes,counter inc.,time/s,control/V,Ewe/V,<I>/mA,cycle number,(Q-Qo)/C,I Range,P/W,log(|I|),Tafel slope mV/dec,alpha_eff,dI/d(E-IR),E-IR/V,
2,1,0,1,0,50447.8,2.44065e-05,-0.000382585,9.50469,26,0.0000000E+000,10,-3.63636e-06,-2.02206, , , ,-0.000382585,
2,1,0,1,0,50447.8,0.00214129,0.00170005,10.5571,26,5.17411e-05,10,1.79476e-05,-1.97646, , , ,0.001700053,
2,1,0,1,0,50447.8,0.00454949,0.00418458,11.359,26,0.000117713,10,4.75326e-05,-1.94466,0.0862023,0.684436,298.336,0.00418458,
2,1,0,1,0,50447.8,0.0069466,0.00660337,11.9747,26,0.000187792,10,7.90735e-05,-1.92173,0.110701,0.532969,247.348,0.00660337,
2,1,0,1,0,50447.8,0.0093437,0.00894899,12.5239,26,0.000261362,10,0.000112076,-1.90226,0.131626,0.448241,218.034,0.008948992,
2,1,0,1,0,50447.8,0.0117408,0.0113784,13.0251,26,0.000338096,10,0.000148205,-1.88522,0.150077,0.393132,198.989,0.0113784,
2,1,0,1,0,50447.8,0.0141462,0.0137813,13.4735,26,0.000417661,10,0.000185682,-1.87052,0.171801,0.343421,180.077,0.0137813,
2,1,0,1,0,50447.8,0.0165433,0.0161852,13.8905,26,0.000499815,10,0.000224821,-1.85728,0.19179,0.307628,166.381,0.0161852,
2,1,0,1,0,50447.8,0.0189404,0.0185764,14.2733,26,0.00058437,10,0.000265146,-1.84548,0.210803,0.279882,155.638,0.0185764,
2,1,0,1,0,50447.8,0.0213486,0.020974,14.6418,26,0.00067119,10,0.000307098,-1.8344,0.233605,0.252563,144.039,0.020974,
2,1,0,1,0,50447.8,0.0237457,0.0234034,14.9783,26,0.000760106,10,0.000350543,-1.82454,0.252545,0.233621,136.407,0.0234034,
2,1,0,1,0,50447.8,0.0261429,0.0257989,15.3007,26,0.000850965,10,0.000394741,-1.81529,0.266578,0.221324,132.088,0.02579885,
2,1,0,1,0,50447.9,0.02854,0.0281678,15.607,26,0.000943722,10,0.000439614,-1.80668,0.290758,0.202918,123.391,0.0281678,
2,1,0,1,0,50447.9,0.0309482,0.0305983,15.8902,26,0.00103828,10,0.000486211,-1.79887,0.310829,0.189815,117.635,0.0305983,
2,1,0,1,0,50447.9,0.0333453,0.0329566,16.1705,26,0.00113447,10,0.000532926,-1.79128,0.324037,0.182078,114.844,0.0329566,
2,1,0,1,0,50447.9,0.0357424,0.0354263,16.4406,26,0.00123233,10,0.00058243,-1.78408,0.347896,0.169591,108.7,0.0354263,
2,1,0,1,0,50447.9,0.0381478,0.0377316,16.6909,26,0.00133178,10,0.000629774,-1.77752,0.363134,0.162475,105.828,0.0377316,
2,1,0,1,0,50447.9,0.0405449,0.0401833,16.9453,26,0.00143271,10,0.000680916,-1.77095,0.381068,0.154828,102.389,0.0401833,
2,1,0,1,0,50447.9,0.042942,0.0426084,17.1922,26,0.00153518,10,0.000732532,-1.76467,0.381902,0.15449,103.631,0.0426084,
2,1,0,1,0,50447.9,0.0453391,0.0449986,17.431,26,0.0016391,10,0.00078437,-1.75868,0.407909,0.14464,98.3867,0.0449986,
2,1,0,1,0,50447.9,0.0477473,0.0474195,17.6688,26,0.00174445,10,0.000837843,-1.75279,0.409666,0.14402,99.3007,0.0474195,
2,1,0,1,0,50447.9,0.0501444,0.0497842,17.9103,26,0.00185119,10,0.000891648,-1.7469,0.42355,0.139299,97.3214,0.0497842,
2,1,0,1,0,50447.9,0.0525415,0.0521955,18.1439,26,0.00195936,10,0.000947033,-1.74127,0.431551,0.136716,96.7542,0.0521955,
2,1,0,1,0,50447.9,0.0549469,0.0545359,18.3746,26,0.00206892,10,0.00100208,-1.73578,0.439735,0.134172,96.1674,0.0545359,
2,1,0,1,0,50447.9,0.057344,0.056978,18.5955,26,0.00217985,10,0.00105953,-1.73059,0.44325,0.133108,96.6392,0.05697798,
2,1,0,1,0,50447.9,0.0597412,0.0593597,18.8374,26,0.00229217,10,0.00111818,-1.72498,0.445912,0.132313,97.2246,0.0593597,
2,1,0,1,0,50447.9,0.0621438,0.061806,19.062,26,0.0024059,10,0.00117815,-1.71983,0.469892,0.125561,93.3866,0.061806,
2,1,0,1,0,50447.9,0.0645465,0.0642333,19.285,26,0.00252098,10,0.00123874,-1.71478,0.455,0.12967,97.6577,0.0642333,
2,1,0,1,0,50447.9,0.0669436,0.066616,19.5289,26,0.00263744,10,0.00130094,-1.70932,0.465588,0.126721,96.5373,0.066616,
2,1,0,1,0,50448,0.0693407,0.0689892,19.7571,26,0.00275535,10,0.00136302,-1.70428,0.465975,0.126616,97.6084,0.0689892,
2,1,0,1,0,50448,0.0717489,0.0714197,19.9964,26,0.00287462,10,0.00142814,-1.69905,0.476988,0.123693,96.5307,0.0714197,
2,1,0,1,0,50448,0.074146,0.073726,20.2256,26,0.00299526,10,0.00149115,-1.6941,0.477656,0.12352,97.4911,0.073726,
2,1,0,1,0,50448,0.0765431,0.0761682,20.4628,26,0.00311737,10,0.00155861,-1.68904,0.476358,0.123856,98.8983,0.0761682,
2,1,0,1,0,50448,0.0789485,0.0785827,20.7031,26,0.00324086,10,0.0016269,-1.68396,0.48493,0.121667,98.3074,0.0785827,
2,1,0,1,0,50448,0.0813456,0.0809654,20.9388,26,0.00336582,10,0.00169532,-1.67905,0.477673,0.123516,100.946,0.0809654,
2,1,0,1,0,50448,0.0837427,0.0833969,21.1851,26,0.00349221,10,0.00176677,-1.67397,0.485764,0.121458,100.418,0.0833969,
2,1,0,1,0,50448,0.0861398,0.0857956,21.4211,26,0.00362007,10,0.00183784,-1.66916,0.486836,0.121191,101.302,0.0857956,
2,1,0,1,0,50448,0.088548,0.0882059,21.6628,26,0.00374938,10,0.00191079,-1.66429,0.492073,0.119901,101.388,0.0882059,
2,1,0,1,0,50448,0.0909451,0.0905706,21.9074,26,0.00388011,10,0.00198416,-1.65941,0.507107,0.116346,99.4698,0.0905706,
2,1,0,1,0,50448,0.0933422,0.0929661,22.1498,26,0.00401233,10,0.00205918,-1.65463,0.523974,0.112601,97.2859,0.0929661,
2,1,0,1,0,50448,0.0957477,0.0953297,22.3816,26,0.00414594,10,0.00213363,-1.65011,0.541806,0.108895,95.1202,0.0953297,
2,1,0,1,0,50448,0.0981447,0.0977495,22.6123,26,0.00428093,10,0.00221034,-1.64566,0.539764,0.109307,96.4404,0.0977495,
2,1,0,1,0,50448,0.100542,0.100127,22.8352,26,0.00441731,10,0.00228642,-1.6414,0.523902,0.112616,100.436,0.100127,
2,1,0,1,0,50448,0.102939,0.102511,23.0828,26,0.00455509,10,0.00236623,-1.63671,0.519136,0.11365,102.421,0.102511,
2,1,0,1,0,50448,0.105347,0.104984,23.3378,26,0.00469438,10,0.00245008,-1.63194,0.517683,0.113969,103.771,0.104984,
2,1,0,1,0,50448,0.107744,0.107398,23.5815,26,0.00483519,10,0.00253261,-1.62743,0.530723,0.111169,102.282,0.107398,
2,1,0,1,0,50448.1,0.110141,0.109795,23.8279,26,0.00497745,10,0.00261618,-1.62291,0.543203,0.108615,101.014,0.109795,
2,1,0,1,0,50448.1,0.11255,0.112191,24.0765,26,0.00512117,10,0.00270118,-1.61841,0.542595,0.108737,102.175,0.112191,
2,1,0,1,0,50448.1,0.114947,0.114524,24.3237,26,0.00526639,10,0.00278565,-1.61397,0.527969,0.111749,106.11,0.114524,
2,1,0,1,0,50448.1,0.117344,0.116955,24.5802,26,0.00541311,10,0.00287477,-1.60941,0.526303,0.112103,107.559,0.116955,
2,1,0,1,0,50448.1,0.119744,0.11941,24.8437,26,0.0055614,10,0.00296659,-1.60478,0.515684,0.114411,110.941,0.11941,
2,1,0,1,0,50448.1,0.122146,0.121784,25.1156,26,0.0057113,10,0.00305867,-1.60006,0.499706,0.118069,115.737,0.121784,
2,1,0,1,0,50448.1,0.124543,0.124145,25.3976,26,0.00586285,10,0.00315299,-1.59521,0.497877,0.118503,117.436,0.124145,
2,1,0,1,0,50448.1,0.126941,0.126548,25.6727,26,0.00601609,10,0.00324883,-1.59053,0.487623,0.120995,121.297,0.126548,
2,1,0,1,0,50448.1,0.129349,0.128992,25.9781,26,0.00617106,10,0.00335098,-1.58539,0.480113,0.122888,124.599,0.1289923,
2,1,0,1,0,50448.1,0.131746,0.131367,26.2846,26,0.00632785,10,0.00345292,-1.5803,0.478836,0.123215,126.339,0.131367,
2,1,0,1,0,50448.1,0.134143,0.133761,26.576,26,0.00648648,10,0.00355484,-1.57551,0.470081,0.12551,130.231,0.133761,
2,1,0,1,0,50448.1,0.13654,0.136184,26.8881,26,0.0066469,10,0.00366173,-1.57044,0.481303,0.122584,128.679,0.136184,
2,1,0,1,0,50448.1,0.138945,0.138592,27.2135,26,0.00680927,10,0.00377157,-1.56522,0.482487,0.122283,129.803,0.138592,
2,1,0,1,0,50448.1,0.141343,0.140966,27.5188,26,0.00697348,10,0.00387922,-1.56037,0.495014,0.119188,127.988,0.140966,
2,1,0,1,0,50448.1,0.14374,0.143407,27.8314,26,0.00713955,10,0.00399123,-1.55546,0.49439,0.119339,129.599,0.143407,
2,1,0,1,0,50448.1,0.146148,0.145797,28.1379,26,0.0073075,10,0.00410241,-1.55071,0.50372,0.117128,128.589,0.145797,
2,1,0,1,0,50448.2,0.148545,0.148192,28.4427,26,0.00747728,10,0.00421498,-1.54603,0.538207,0.109623,121.65,0.148192,
2,1,0,1,0,50448.2,0.150942,0.15059,28.734,26,0.00764886,10,0.00432704,-1.5416,0.547887,0.107686,120.718,0.1505896,
2,1,0,1,0,50448.2,0.153345,0.152974,29.0181,26,0.00782213,10,0.00443902,-1.53733,0.568527,0.103777,117.529,0.152974,
2,1,0,1,0,50448.2,0.155747,0.155419,29.2965,26,0.0079971,10,0.00455323,-1.53318,0.593668,0.0993822,113.552,0.155419,
2,1,0,1,0,50448.2,0.158144,0.157742,29.5573,26,0.00817372,10,0.00466242,-1.52934,0.64883,0.0909329,104.839,0.157742,
2,1,0,1,0,50448.2,0.160542,0.16016,29.7942,26,0.00835181,10,0.00477184,-1.52587,0.686609,0.0859295,99.9108,0.16016,
2,1,0,1,0,50448.2,0.162947,0.162601,30.0408,26,0.00853136,10,0.00488466,-1.52229,0.762206,0.0774069,90.6535,0.162601,
2,1,0,1,0,50448.2,0.165344,0.164974,30.2432,26,0.00871226,10,0.00498934,-1.51937,0.873491,0.067545,79.6576,0.164974,
2,1,0,1,0,50448.2,0.167741,0.167366,30.4203,26,0.00889427,10,0.00509133,-1.51684,1.01138,0.0583362,69.223,0.167366,
2,1,0,1,0,50448.2,0.170149,0.169745,30.5868,26,0.0090773,10,0.00519196,-1.51447,1.26277,0.0467228,55.6871,0.1697448,
2,1,0,1,0,50448.2,0.172547,0.172192,30.6943,26,0.00926118,10,0.00528532,-1.51294,1.76078,0.0335078,40.0866,0.172192,
2,1,0,1,0,50448.2,0.174944,0.174597,30.7683,26,0.00944558,10,0.00537206,-1.5119,3.19508,0.0184659,22.1492,0.174597,
2,1,0,1,0,50448.2,0.177341,0.177021,30.7977,26,0.00963029,10,0.00545185,-1.51148,13.2564,0.00445069,5.34373,0.177021,
2,1,0,1,0,50448.2,0.179746,0.179363,30.7883,26,0.00981509,10,0.00552226,-1.51161,-5.329,-0.0110715,-13.2843,0.179363,
2,1,0,1,0,50448.2,0.182143,0.181767,30.7341,26,0.00999969,10,0.00558644,-1.51238,-1.96002,-0.0301017,-36.0503,0.181767,
2,1,0,1,0,50448.2,0.18454,0.184211,30.6145,26,0.0101838,10,0.00563952,-1.51407,-1.26763,-0.0465434,-55.5501,0.184211,
2,1,0,1,0,50448.2,0.186949,0.186621,30.4712,26,0.010367,10,0.00568657,-1.51611,-0.926723,-0.0636652,-75.5861,0.186621,
2,1,0,1,0,50448.3,0.189346,0.188957,30.2637,26,0.0105492,10,0.00571855,-1.51908,-0.692473,-0.0852019,-100.443,0.188957,
2,1,0,1,0,50448.3,0.191743,0.191371,29.9967,26,0.01073,10,0.00574049,-1.52293,-0.596965,-0.0988333,-115.583,0.191371,
2,1,0,1,0,50448.3,0.19414,0.193778,29.7005,26,0.0109091,10,0.00575531,-1.52724,-0.513125,-0.114982,-133.087,0.193778,
2,1,0,1,0,50448.3,0.196548,0.196166,29.364,26,0.0110862,10,0.00576022,-1.53218,-0.443261,-0.133104,-152.262,0.196166,
2,1,0,1,0,50448.3,0.198945,0.198551,28.9609,26,0.0112612,10,0.00575021,-1.53819,-0.390515,-0.151083,-170.583,0.198551,
2,1,0,1,0,50448.3,0.201342,0.200957,28.5438,26,0.0114336,10,0.00573606,-1.54449,-0.359088,-0.164305,-182.775,0.200957,
2,1,0,1,0,50448.3,0.203748,0.203396,28.0818,26,0.0116035,10,0.00571171,-1.55158,-0.332361,-0.177518,-194.339,0.203396,
2,1,0,1,0,50448.3,0.206145,0.205843,27.5908,26,0.0117705,10,0.00567937,-1.55924,-0.307962,-0.191582,-206.185,0.205843,
2,1,0,1,0,50448.3,0.208542,0.208174,27.0927,26,0.0119345,10,0.00564,-1.56715,-0.292829,-0.201483,-212.87,0.208174,
2,1,0,1,0,50448.3,0.210939,0.2106,26.5659,26,0.0120955,10,0.00559478,-1.57568,-0.277759,-0.212415,-220.166,0.2106,
2,1,0,1,0,50448.3,0.213347,0.213038,26.0381,26,0.0122532,10,0.0055471,-1.58439,-0.269686,-0.218773,-222.223,0.213038,
2,1,0,1,0,50448.3,0.215744,0.215403,25.5079,26,0.0124078,10,0.00549448,-1.59332,-0.264744,-0.222857,-221.825,0.215403,
2,1,0,1,0,50448.3,0.218141,0.217795,24.9705,26,0.0125592,10,0.00543844,-1.60257,-0.263496,-0.223912,-218.236,0.217795,
2,1,0,1,0,50448.3,0.220547,0.220231,24.4536,26,0.0127074,10,0.00538543,-1.61166,-0.261691,-0.225457,-215.081,0.220231,
2,1,0,1,0,50448.3,0.222944,0.222612,23.9278,26,0.0128525,10,0.00532663,-1.6211,-0.259406,-0.227442,-212.513,0.222612,
2,1,0,1,0,50448.3,0.225341,0.224985,23.4225,26,0.0129945,10,0.00526971,-1.63037,-0.260908,-0.226134,-206.895,0.224985,
2,1,0,1,0,50448.3,0.227744,0.22739,22.9445,26,0.0131336,10,0.00521734,-1.63932,-0.265919,-0.221872,-198.71,0.22739,
2,1,0,1,0,50448.4,0.230146,0.229769,22.4682,26,0.0132698,10,0.00516249,-1.64843,-0.270004,-0.218515,-191.741,0.2297691,
2,1,0,1,0,50448.4,0.232543,0.232207,22.0184,26,0.0134032,10,0.00511283,-1.65721,-0.272558,-0.216468,-186.082,0.232207,
2,1,0,1,0,50448.4,0.234941,0.234602,21.5839,26,0.013534,10,0.00506364,-1.66587,-0.283206,-0.208329,-175.607,0.234602,
2,1,0,1,0,50448.4,0.237349,0.237004,21.171,26,0.0136622,10,0.00501761,-1.67426,-0.291442,-0.202441,-167.393,0.237004,
2,1,0,1,0,50448.4,0.239746,0.23943,20.7855,26,0.013788,10,0.00497668,-1.68224,-0.294992,-0.200005,-162.355,0.23943,
2,1,0,1,0,50448.4,0.242143,0.241778,20.4061,26,0.0139115,10,0.00493376,-1.69024,-0.310702,-0.189892,-151.372,0.241778,
2,1,0,1,0,50448.4,0.244548,0.244202,20.0624,26,0.0140329,10,0.00489927,-1.69762,-0.314573,-0.187556,-146.894,0.244202,
2,1,0,1,0,50448.4,0.246946,0.246622,19.7189,26,0.0141522,10,0.00486313,-1.70512,-0.330226,-0.178665,-137.539,0.246622,
2,1,0,1,0,50448.4,0.249343,0.249003,19.3931,26,0.0142695,10,0.00482894,-1.71235,-0.343076,-0.171973,-130.273,0.249003,
2,1,0,1,0,50448.4,0.25174,0.251395,19.0893,26,0.0143849,10,0.00479896,-1.71921,-0.358994,-0.164348,-122.513,0.251395,
2,1,0,1,0,50448.4,0.254148,0.253781,18.8063,26,0.0144985,10,0.00477267,-1.7257,-0.370414,-0.159281,-116.945,0.253781,
2,1,0,1,0,50448.4,0.256545,0.256206,18.524,26,0.0146105,10,0.00474595,-1.73227,-0.38665,-0.152593,-110.41,0.2562061,
2,1,0,1,0,50448.4,0.258942,0.258611,18.2754,26,0.0147209,10,0.00472621,-1.73813,-0.403479,-0.146228,-104.308,0.258611,
2,1,0,1,0,50448.4,0.261348,0.261045,18.0228,26,0.0148297,10,0.00470475,-1.74418,-0.408165,-0.14455,-101.723,0.261045,
2,1,0,1,0,50448.4,0.263745,0.263416,17.7925,26,0.0149372,10,0.00468683,-1.74976,-0.430659,-0.136999,-95.1989,0.263416,
2,1,0,1,0,50448.4,0.266142,0.265827,17.5744,26,0.0150432,10,0.00467177,-1.75512,-0.455388,-0.12956,-88.8828,0.265827,
2,1,0,1,0,50448.5,0.268539,0.268228,17.3533,26,0.015148,10,0.00465464,-1.76062,-0.461819,-0.127756,-86.5984,0.268228,
2,1,0,1,0,50448.5,0.270947,0.270628,17.1596,26,0.0152515,10,0.00464387,-1.76549,-0.487303,-0.121075,-81.1068,0.270628,
2,1,0,1,0,50448.5,0.273344,0.273,16.9648,26,0.0153539,10,0.0046314,-1.77045,-0.507345,-0.116292,-77.0347,0.273,
2,1,0,1,0,50448.5,0.275741,0.275382,16.786,26,0.0154551,10,0.00462258,-1.77505,-0.524763,-0.112432,-73.703,0.275382,
2,1,0,1,0,50448.5,0.278149,0.277793,16.6159,26,0.0155553,10,0.00461577,-1.77948,-0.549592,-0.107352,-69.6191,0.277793,
2,1,0,1,0,50448.5,0.280547,0.280186,16.4419,26,0.0156545,10,0.0046068,-1.78405,-0.549918,-0.107289,-68.8962,0.280186,
2,1,0,1,0,50448.5,0.282944,0.282614,16.288,26,0.0157526,10,0.00460322,-1.78813,-0.576538,-0.102335,-65.0931,0.282614,
2,1,0,1,0,50448.5,0.285344,0.28501,16.1341,26,0.0158499,10,0.00459837,-1.79226,-0.590393,-0.0999334,-62.947,0.28501,
2,1,0,1,0,50448.5,0.287746,0.287395,15.9842,26,0.0159463,10,0.00459376,-1.79631,-0.617906,-0.0954838,-59.6225,0.287395,
2,1,0,1,0,50448.5,0.290143,0.289808,15.8538,26,0.0160418,10,0.00459456,-1.79987,-0.634836,-0.0929374,-57.4815,0.289808,
2,1,0,1,0,50448.5,0.29254,0.292195,15.718,26,0.0161365,10,0.00459274,-1.8036,-0.668757,-0.0882234,-54.1307,0.292195,
2,1,0,1,0,50448.5,0.294949,0.294577,15.5891,26,0.0162303,10,0.00459219,-1.80718,-0.703449,-0.0838725,-51.0503,0.294577,
2,1,0,1,0,50448.5,0.297346,0.296972,15.4698,26,0.0163235,10,0.0045941,-1.81052,-0.753148,-0.0783379,-47.3572,0.296972,
2,1,0,1,0,50448.5,0.299621,0.299247,15.3469,26,0.0164113,10,0.00459252,-1.81398,-0.0881142,-0.669586,-389.853,0.299247,
2,1,0,1,0,50448.5,0.299962,0.299613,15.2233,26,0.0164297,10,0.00456108,-1.81749,0.0132813,4.44234,2289.04,0.299613,
2,1,0,1,0,50448.5,0.297903,0.29762,12.1231,26,0.0164981,10,0.00360809,-1.91639,0.0228349,2.58377,1199.21,0.29762,
2,1,0,1,0,50448.5,0.295506,0.295188,9.69553,26,0.016563,10,0.002862,-2.01343,0.0246882,2.3898,920.649,0.295188,
2,1,0,1,0,50448.5,0.293101,0.292753,7.77316,26,0.016615,10,0.00227562,-2.1094,0.0240331,2.45495,747.268,0.292753,
2,1,0,1,0,50448.6,0.290704,0.290388,6.1364,26,0.0166565,10,0.00178194,-2.21209,0.0221566,2.66286,635.004,0.290388,
2,1,0,1,0,50448.6,0.288307,0.287991,4.72795,26,0.0166889,10,0.0013616,-2.32533,0.0194485,3.03365,552.574,0.287991,
2,1,0,1,0,50448.6,0.28591,0.285558,3.5092,26,0.0167134,10,0.00100208,-2.45479,0.0162309,3.63505,481.715,0.285558,
2,1,0,1,0,50448.6,0.283501,0.283185,2.41922,26,0.016731,10,0.000685087,-2.61632,0.0121147,4.87011,429.319,0.283185,
2,1,0,1,0,50448.6,0.281104,0.280762,1.4521,26,0.0167424,10,0.000407694,-2.838,0.00691505,8.53211,379.037,0.280762,
2,1,0,1,0,50448.6,0.278707,0.278403,0.588439,26,0.0167484,10,0.000163823,-3.2303,0.0105428,5.59624,341.288,0.278403,
2,0,0,1,0,50448.6,0.276302,0.27596,-0.18964,26,0.0167495,10,-5.23331e-05,-3.72207,-0.0582086,-1.0136,310.117,0.27596,
2,0,0,1,0,50448.6,0.273905,0.273581,-0.896943,26,0.0167462,10,-0.000245386,-3.04724,-0.00436144,-13.5277,282.383,0.273581,
2,0,0,1,0,50448.6,0.271508,0.271192,-1.53774,26,0.0167388,10,-0.000417024,-2.81312,-0.0118422,-4.98218,257.378,0.271192,
2,0,0,1,0,50448.6,0.269105,0.26878,-2.12314,26,0.0167277,10,-0.000570659,-2.67302,-0.0193584,-3.04777,236.029,0.26878,
2,0,0,1,0,50448.6,0.266702,0.266369,-2.65179,26,0.0167133,10,-0.000706355,-2.57646,-0.0272402,-2.16592,216.158,0.266369,
2,0,0,1,0,50448.6,0.264305,0.26396,-3.15104,26,0.0166958,10,-0.000831748,-2.50155,-0.0356705,-1.65403,197.871,0.26396,
2,0,0,1,0,50448.6,0.261908,0.261555,-3.60068,26,0.0166755,10,-0.000941775,-2.44362,-0.0448084,-1.31672,182.073,0.261555,
2,0,0,1,0,50448.6,0.2595,0.259168,-4.02633,26,0.0166526,10,-0.00104349,-2.39509,-0.0534872,-1.10307,171.142,0.259168,
2,0,0,1,0,50448.6,0.257103,0.256777,-4.41996,26,0.0166272,10,-0.00113494,-2.35458,-0.0641424,-0.919829,156.969,0.256777,
2,0,0,1,0,50448.6,0.254706,0.254348,-4.78165,26,0.0165995,10,-0.0012162,-2.32042,-0.0751565,-0.785029,145.405,0.254348,
2,0,0,1,0,50448.6,0.2523,0.251919,-5.12019,26,0.0165698,10,-0.00128987,-2.29071,-0.0858307,-0.6874,136.723,0.251919,
2,0,0,1,0,50448.7,0.249903,0.24958,-5.44235,26,0.0165381,10,-0.0013583,-2.26421,-0.096395,-0.612065,129.145,0.24958,
2,0,0,1,0,50448.7,0.247506,0.247185,-5.73817,26,0.0165045,10,-0.00141839,-2.24123,-0.107855,-0.547029,122.094,0.247185,
2,0,0,1,0,50448.7,0.245109,0.244788,-6.01824,26,0.0164692,10,-0.00147319,-2.22053,-0.119461,-0.493885,115.68,0.244788,
2,0,0,1,0,50448.7,0.242701,0.242331,-6.29159,26,0.0164322,10,-0.00152464,-2.20124,-0.131408,-0.448983,109.84,0.242331,
2,0,0,1,0,50448.7,0.240304,0.239959,-6.54042,26,0.0163937,10,-0.00156943,-2.18439,-0.149357,-0.395026,100.574,0.239959,
2,0,0,1,0,50448.7,0.237906,0.237558,-6.77543,26,0.0163537,10,-0.00160956,-2.16906,-0.161355,-0.365654,96.5191,0.237558,
2,0,0,1,0,50448.7,0.235501,0.23516,-7.00511,26,0.0163123,10,-0.00164732,-2.15459,-0.173577,-0.339907,92.7726,0.23516,
2,0,0,1,0,50448.7,0.233104,0.232746,-7.22256,26,0.0162696,10,-0.00168102,-2.14131,-0.186682,-0.316045,88.8885,0.232746,
2,0,0,1,0,50448.7,0.230707,0.230346,-7.43277,26,0.0162256,10,-0.00171211,-2.12885,-0.203979,-0.289246,83.7306,0.230346,
2,0,0,1,0,50448.7,0.22831,0.227963,-7.61824,26,0.0161805,10,-0.00173668,-2.11815,-0.21732,-0.271489,80.7226,0.227963,
2,0,0,1,0,50448.7,0.225902,0.225572,-7.81393,26,0.0161341,10,-0.0017626,-2.10713,-0.232569,-0.253689,77.2491,0.225572,
2,0,0,1,0,50448.7,0.223504,0.223202,-8.00587,26,0.0160866,10,-0.00178693,-2.09659,-0.248979,-0.236967,73.8529,0.223202,
2,0,0,1,0,50448.7,0.221107,0.220777,-8.16813,26,0.0160381,10,-0.00180333,-2.08788,-0.258649,-0.228108,72.7699,0.220777,
2,0,0,1,0,50448.7,0.218699,0.218368,-8.35095,26,0.0159886,10,-0.00182358,-2.07826,-0.272309,-0.216666,70.4792,0.218368,
2,0,0,1,0,50448.7,0.216302,0.215971,-8.51441,26,0.0159379,10,-0.00183887,-2.06985,-0.292869,-0.201455,66.8247,0.215971,
2,0,0,1,0,50448.7,0.213905,0.213561,-8.6613,26,0.0158864,10,-0.00184971,-2.06242,-0.310754,-0.18986,64.2274,0.213561,
2,0,0,1,0,50448.8,0.211505,0.21121,-8.82126,26,0.0158339,10,-0.00186314,-2.05447,-0.325213,-0.181419,62.4088,0.21121,
2,0,0,1,0,50448.8,0.209102,0.2088,-8.97091,26,0.0157805,10,-0.00187312,-2.04716,-0.327925,-0.179919,62.9803,0.2088,
2,0,0,1,0,50448.8,0.206705,0.206373,-9.12953,26,0.0157262,10,-0.00188409,-2.03955,-0.348918,-0.169094,60.131,0.206373,
2,0,0,1,0,50448.8,0.204308,0.203965,-9.26398,26,0.015671,10,-0.00188953,-2.0332,-0.357214,-0.165167,59.7145,0.203965,
2,0,0,1,0,50448.8,0.2019,0.20154,-9.41055,26,0.015615,10,-0.0018966,-2.02639,-0.364292,-0.161958,59.4383,0.20154,
2,0,0,1,0,50448.8,0.199503,0.199127,-9.55019,26,0.0155581,10,-0.0019017,-2.01999,-0.388612,-0.151822,56.4985,0.199127,
2,0,0,1,0,50448.8,0.197106,0.196745,-9.67213,26,0.0155004,10,-0.00190294,-2.01448,-0.389417,-0.151509,57.2628,0.196745,
2,0,0,1,0,50448.8,0.194709,0.194357,-9.80457,26,0.015442,10,-0.00190558,-2.00857,-0.399578,-0.147656,56.5739,0.194357,
2,0,0,1,0,50448.8,0.192303,0.191943,-9.9539,26,0.0153827,10,-0.00191058,-2.00201,-0.414771,-0.142247,55.1619,0.191943,
2,0,0,1,0,50448.8,0.189906,0.189552,-10.0756,26,0.0153225,10,-0.00190985,-1.99673,-0.43891,-0.134424,52.8738,0.1895521,
2,0,0,1,0,50448.8,0.187509,0.18717,-10.2016,26,0.0152617,10,-0.00190943,-1.99133,-0.433938,-0.135964,54.1936,0.18717,
2,0,0,1,0,50448.8,0.185101,0.184744,-10.3511,26,0.0152,10,-0.0019123,-1.98502,-0.434746,-0.135711,54.7363,0.184744,
2,0,0,1,0,50448.8,0.182704,0.182327,-10.4722,26,0.0151376,10,-0.00190936,-1.97996,-0.458562,-0.128663,52.6029,0.1823265,
2,0,0,1,0,50448.8,0.180307,0.179963,-10.6057,26,0.0150743,10,-0.00190863,-1.97446,-0.434738,-0.135714,56.1784,0.179963,
2,0,0,1,0,50448.8,0.177904,0.177567,-10.7368,26,0.0150103,10,-0.0019065,-1.96913,-0.433279,-0.136171,57.0711,0.177567,
2,0,0,1,0,50448.8,0.175501,0.175146,-10.8771,26,0.0149454,10,-0.00190509,-1.96349,-0.441847,-0.13353,56.6494,0.175146,
2,0,0,1,0,50448.8,0.173104,0.172764,-11.0036,26,0.0148798,10,-0.00190102,-1.95847,-0.443356,-0.133076,57.1971,0.172764,
2,0,0,1,0,50448.9,0.170707,0.170349,-11.1453,26,0.0148133,10,-0.00189858,-1.95291,-0.42688,-0.138212,60.1919,0.1703492,
2,0,0,1,0,50448.9,0.168302,0.167957,-11.3044,26,0.014746,10,-0.00189866,-1.94675,-0.423393,-0.139351,61.4045,0.167957,
2,0,0,1,0,50448.9,0.165905,0.16558,-11.4439,26,0.0146777,10,-0.00189487,-1.94143,-0.417423,-0.141343,63.1561,0.16558,
2,0,0,1,0,50448.9,0.163507,0.163185,-11.5919,26,0.0146086,10,-0.00189162,-1.93585,-0.401401,-0.146985,66.5949,0.1631851,
2,0,0,1,0,50448.9,0.161099,0.16072,-11.7723,26,0.0145385,10,-0.00189205,-1.92914,-0.392441,-0.150341,69.0109,0.16072,
2,0,0,1,0,50448.9,0.158702,0.158317,-11.9335,26,0.0144673,10,-0.00188928,-1.92323,-0.378656,-0.155814,72.5918,0.158317,
2,0,0,1,0,50448.9,0.156305,0.15597,-12.107,26,0.0143952,10,-0.00188834,-1.91696,-0.363195,-0.162447,76.8846,0.1559701,
2,0,0,1,0,50448.9,0.153908,0.15357,-12.3009,26,0.014322,10,-0.00188905,-1.91006,-0.337251,-0.174944,84.0608,0.15357,
2,0,0,1,0,50448.9,0.151503,0.151165,-12.5074,26,0.0142475,10,-0.00189068,-1.90283,-0.323286,-0.182501,89.1343,0.151165,
2,0,0,1,0,50448.9,0.149105,0.148733,-12.7207,26,0.0141718,10,-0.00189199,-1.89549,-0.306193,-0.192689,95.7984,0.148733,
2,0,0,1,0,50448.9,0.146708,0.14638,-12.9604,26,0.0140948,10,-0.00189714,-1.88738,-0.286794,-0.205722,104.229,0.14638,
2,0,0,1,0,50448.9,0.1443,0.143957,-13.2264,26,0.0140162,10,-0.00190403,-1.87856,-0.266102,-0.221719,114.568,0.143957,
2,0,0,1,0,50448.9,0.141903,0.141586,-13.5102,26,0.0139359,10,-0.00191285,-1.86934,-0.252081,-0.234052,123.559,0.141586,
2,0,0,1,0,50448.9,0.139506,0.139161,-13.8131,26,0.0138539,10,-0.00192223,-1.85971,-0.232627,-0.253624,137.132,0.139161,
2,0,0,1,0,50448.9,0.137109,0.136774,-14.1604,26,0.01377,10,-0.00193677,-1.84892,-0.218245,-0.270338,149.696,0.136774,
2,0,0,1,0,50448.9,0.134701,0.134342,-14.538,26,0.0136838,10,-0.00195307,-1.83749,-0.205862,-0.2866,162.852,0.134342,
2,0,0,1,0,50448.9,0.132303,0.131982,-14.9432,26,0.0135954,10,-0.00197223,-1.82556,-0.193436,-0.30501,178.314,0.1319816,
2,0,0,1,0,50449,0.129906,0.129536,-15.3966,26,0.0135043,10,-0.00199442,-1.81258,-0.184002,-0.320649,192.901,0.129536,
2,0,0,1,0,50449,0.127501,0.127185,-15.8801,26,0.0134105,10,-0.00201971,-1.79915,-0.179143,-0.329345,204.207,0.127185,
2,0,0,1,0,50449,0.125104,0.124737,-16.379,26,0.0133136,10,-0.00204307,-1.78571,-0.175685,-0.335828,214.927,0.1247369,
2,0,0,1,0,50449,0.122707,0.122339,-16.9075,26,0.0132138,10,-0.00206845,-1.77192,-0.172083,-0.342858,226.402,0.122339,
2,0,0,1,0,50449,0.12031,0.119958,-17.4543,26,0.0131106,10,-0.00209378,-1.7581,-0.172879,-0.341279,232.55,0.119958,
2,0,0,1,0,50449,0.117901,0.117566,-18.0313,26,0.0130041,10,-0.00211987,-1.74397,-0.175135,-0.336884,236.992,0.117566,
2,0,0,1,0,50449,0.115504,0.115144,-18.6051,26,0.0128941,10,-0.00214227,-1.73037,-0.177921,-0.331608,240.71,0.115144,
2,0,0,1,0,50449,0.113107,0.112754,-19.1871,26,0.0127807,10,-0.00216343,-1.71699,-0.180199,-0.327417,245.104,0.112754,
2,0,0,1,0,50449,0.110702,0.110378,-19.779,26,0.0126637,10,-0.00218316,-1.7038,-0.186759,-0.315914,243.509,0.110378,
2,0,0,1,0,50449,0.108305,0.10795,-20.3545,26,0.0125433,10,-0.00219726,-1.69134,-0.199979,-0.295031,233.977,0.10795,
2,0,0,1,0,50449,0.105908,0.105563,-20.9042,26,0.0124195,10,-0.0022067,-1.67977,-0.205649,-0.286897,233.908,0.105563,
2,0,0,1,0,50449,0.103505,0.103207,-21.4527,26,0.0122924,10,-0.00221408,-1.66852,-0.211099,-0.27949,233.972,0.103207,
2,0,0,1,0,50449,0.101102,0.100808,-22.0101,26,0.0121619,10,-0.00221878,-1.65738,-0.218291,-0.270281,232.002,0.100808,
2,0,0,1,0,50449,0.0987052,0.0983847,-22.5652,26,0.0120281,10,-0.00222007,-1.64656,-0.234531,-0.251566,221.269,0.0983847,
2,0,0,1,0,50449,0.0963081,0.0959808,-23.084,26,0.0118911,10,-0.00221562,-1.63669,-0.247893,-0.238006,214.235,0.0959808,
2,0,0,1,0,50449,0.0938999,0.0935832,-23.5961,26,0.011751,10,-0.0022082,-1.62716,-0.26496,-0.222675,204.876,0.0935832,
2,0,0,1,0,50449.1,0.0915028,0.0911952,-24.086,26,0.0116079,10,-0.00219652,-1.61824,-0.280097,-0.210641,197.801,0.0911952,
2,0,0,1,0,50449.1,0.0891057,0.0887849,-24.5553,26,0.0114619,10,-0.00218014,-1.60986,-0.300807,-0.196139,187.679,0.0887849,
2,0,0,1,0,50449.1,0.0867002,0.086365,-24.99,26,0.0113133,10,-0.00215826,-1.60223,-0.326988,-0.180435,175.76,0.086365,
2,0,0,1,0,50449.1,0.0843031,0.0839961,-25.3994,26,0.0111621,10,-0.00213345,-1.59518,-0.347649,-0.169712,168.039,0.08399608,
2,0,0,1,0,50449.1,0.081906,0.0816059,-25.783,26,0.0110085,10,-0.00210404,-1.58867,-0.375364,-0.157181,158.051,0.0816059,
2,0,0,1,0,50449.1,0.0795089,0.0792243,-26.1439,26,0.0108526,10,-0.00207123,-1.58263,-0.410913,-0.143583,146.382,0.0792243,
2,0,0,1,0,50449.1,0.0771007,0.0768298,-26.4866,26,0.0106947,10,-0.00203496,-1.57697,-0.450279,-0.13103,135.289,0.0768298,
2,0,0,1,0,50449.1,0.0747036,0.0744132,-26.7932,26,0.0105348,10,-0.00199376,-1.57198,-0.504817,-0.116874,122.127,0.0744132,
2,0,0,1,0,50449.1,0.0723065,0.0720326,-27.0801,26,0.0103731,10,-0.00195065,-1.56735,-0.55799,-0.105737,111.615,0.0720326,
2,0,0,1,0,50449.1,0.0699011,0.0695852,-27.346,26,0.0102098,10,-0.00190287,-1.56311,-0.625738,-0.0942887,100.494,0.0695852,
2,0,0,1,0,50449.1,0.067504,0.0671961,-27.5625,26,0.0100451,10,-0.00185209,-1.55968,-0.705418,-0.0836384,89.8919,0.0671961,
2,0,0,1,0,50449.1,0.0651069,0.0647783,-27.7732,26,0.00987908,10,-0.0017991,-1.55637,-0.819306,-0.0720122,77.9527,0.0647783,
2,0,0,1,0,50449.1,0.0627098,0.062367,-27.9323,26,0.00971193,10,-0.00174205,-1.55389,-0.987748,-0.0597319,65.0677,0.062367,
2,0,0,1,0,50449.1,0.0603016,0.0599217,-28.0785,26,0.00954387,10,-0.00168251,-1.55163,-1.16979,-0.0504363,55.2352,0.0599217,
2,0,0,1,0,50449.1,0.0579045,0.0575739,-28.2039,26,0.009375,10,-0.00162381,-1.54969,-1.40902,-0.0418731,46.0445,0.0575739,
2,0,0,1,0,50449.1,0.0555074,0.055222,-28.2914,26,0.0092055,10,-0.0015623,-1.54835,-1.70432,-0.0346178,38.2147,0.055222,
2,0,0,1,0,50449.1,0.0530992,0.0527554,-28.3866,26,0.00903546,10,-0.00149755,-1.54689,-2.05222,-0.0287494,31.8257,0.0527554,
2,0,0,1,0,50449.2,0.0507021,0.0503727,-28.4501,26,0.00886495,10,-0.00143311,-1.54592,-2.69437,-0.0218975,24.2971,0.0503727,
2,0,0,1,0,50449.2,0.048305,0.0479635,-28.4921,26,0.00869411,10,-0.00136658,-1.54528,-3.8421,-0.0153562,17.0711,0.0479635,
2,0,0,1,0,50449.2,0.0459051,0.0455489,-28.5295,26,0.00852304,10,-0.00129949,-1.54471,-6.478,-0.00910776,10.1352,0.0455489,
2,0,0,1,0,50449.2,0.0435024,0.0431874,-28.5446,26,0.00835179,10,-0.00123277,-1.54448,-8.87871,-0.00664511,7.40175,0.0431874,
2,0,0,1,0,50449.2,0.0411053,0.040741,-28.5634,26,0.00818047,10,-0.0011637,-1.54419,-29.86,-0.00197588,2.20175,0.040741,
2,0,0,1,0,50449.2,0.0387082,0.038336,-28.5658,26,0.00800908,10,-0.0010951,-1.54415,31.9024,0.00184939,-2.06059,0.038336,
2,0,0,1,0,50449.2,0.0363,0.0359968,-28.5532,26,0.00783775,10,-0.00102782,-1.54434,15.2505,0.00386872,-4.3104,0.03599678,
2,0,0,1,0,50449.2,0.0339029,0.0335409,-28.5399,26,0.0076665,10,-0.000957255,-1.54455,8.32556,0.00708661,-7.88833,0.0335409,
2,0,0,1,0,50449.2,0.0315058,0.0311656,-28.5113,26,0.00749534,10,-0.00088857,-1.54498,5.62924,0.010481,-11.6586,0.0311656,
2,0,0,1,0,50449.2,0.0291087,0.028786,-28.4654,26,0.00732442,10,-0.000819406,-1.54568,4.55909,0.0129412,-14.3814,0.028786,
2,0,0,1,0,50449.2,0.0267033,0.0263291,-28.4377,26,0.00715368,10,-0.000748736,-1.54611,3.65824,0.016128,-17.8898,0.0263291,
2,0,0,1,0,50449.2,0.0243062,0.0239728,-28.3836,26,0.00698317,10,-0.000680436,-1.54693,2.9388,0.0200762,-22.2387,0.0239728,
2,0,0,1,0,50449.2,0.0219091,0.0215297,-28.3307,26,0.00681304,10,-0.00060995,-1.54774,2.5692,0.0229643,-25.394,0.0215297,
2,0,0,1,0,50449.2,0.0195009,0.0191183,-28.2799,26,0.0066432,10,-0.000540663,-1.54852,2.55474,0.0230943,-25.4767,0.0191183,
2,0,0,1,0,50449.2,0.0171038,0.016743,-28.2115,26,0.00647375,10,-0.000472344,-1.54957,2.06419,0.0285826,-31.4611,0.01674298,
2,0,0,1,0,50449.2,0.0147067,0.0143475,-28.1349,26,0.00630473,10,-0.000403666,-1.55075,1.88449,0.0313082,-34.3578,0.0143475,
2,0,0,1,0,50449.2,0.012304,0.0119669,-28.0497,26,0.0061362,10,-0.000335669,-1.55207,1.77434,0.0332519,-36.3882,0.0119669,
2,0,0,1,0,50449.3,0.00990136,0.00955024,-27.9531,26,0.00596823,10,-0.000266959,-1.55357,1.57876,0.0373711,-40.7503,0.00955024,
2,0,0,1,0,50449.3,0.00750426,0.00712509,-27.8489,26,0.00580084,10,-0.000198426,-1.55519,1.34329,0.0439221,-47.7096,0.00712509,
2,0,0,1,0,50449.3,0.00510715,0.00477947,-27.7178,26,0.00563414,10,-0.000132476,-1.55724,1.48977,0.0396035,-42.8789,0.00477947,
2,0,0,1,0,50449.3,0.00270173,0.00231827,-27.6017,26,0.00546818,10,-6.39882e-05,-1.55906,1.31915,0.0447259,-48.192,0.00231827,
2,0,0,1,0,50449.3,0.000304623,-0.000143994,-27.5067,26,0.00530275,10,3.9608e-06,-1.56056,1.15283,0.0511785,-54.8586,-0.000143994,
2,0,0,1,0,50449.3,-0.00209248,-0.00251825,-27.3395,26,0.00513823,10,6.88477e-05,-1.56321,0.96471,0.0611582,-65.2749,-0.00251825,
2,0,0,1,0,50449.3,-0.00450068,-0.00491476,-27.1908,26,0.00497466,10,0.000133636,-1.56558,0.928925,0.0635143,-67.3709,-0.00491476,
2,0,0,1,0,50449.3,-0.00689779,-0.00729856,-27.0317,26,0.00481199,10,0.000197292,-1.56813,0.888124,0.0664322,-70.0372,-0.00729856,
2,0,0,1,0,50449.3,-0.00929489,-0.00966645,-26.8543,26,0.00465038,10,0.000259585,-1.57099,0.846893,0.0696664,-73.0119,-0.00966645,
2,0,0,1,0,50449.3,-0.011692,-0.0120905,-26.6764,26,0.0044898,10,0.000322532,-1.57387,0.844497,0.0698641,-72.7355,-0.0120905,
2,0,0,1,0,50449.3,-0.0140974,-0.0144807,-26.5003,26,0.00433028,10,0.000383743,-1.57675,0.816045,0.0723,-74.7742,-0.0144807,
2,0,0,1,0,50449.3,-0.0164945,-0.0168624,-26.314,26,0.00417183,10,0.000443716,-1.57981,0.775662,0.076064,-78.1101,-0.01686237,
2,0,0,1,0,50449.3,-0.0188916,-0.0193013,-26.1264,26,0.0040145,10,0.000504274,-1.58292,0.80687,0.073122,-74.5961,-0.0193013,
2,0,0,1,0,50449.3,-0.0212998,-0.0217137,-25.9496,26,0.00385829,10,0.000563462,-1.58587,0.804734,0.0733162,-74.2686,-0.02171373,
2,0,0,1,0,50449.3,-0.0236969,-0.0241007,-25.784,26,0.0037031,10,0.000621413,-1.58865,0.798624,0.0738771,-74.3006,-0.0241007,
2,0,0,1,0,50449.3,-0.026094,-0.0264527,-25.5991,26,0.00354897,10,0.000677164,-1.59178,0.840274,0.0702152,-70.1769,-0.02645269,
2,0,0,1,0,50449.4,-0.0284912,-0.0288513,-25.4233,26,0.00339594,10,0.000733497,-1.59477,0.862953,0.0683699,-67.8994,-0.0288513,
2,0,0,1,0,50449.4,-0.0308994,-0.0312765,-25.2827,26,0.00324381,10,0.000790752,-1.59718,0.895039,0.0659189,-65.0086,-0.0312765,
2,0,0,1,0,50449.4,-0.0332965,-0.0336454,-25.1148,26,0.00309262,10,0.000845,-1.60007,0.900709,0.065504,-64.2526,-0.0336454,
2,0,0,1,0,50449.4,-0.0356936,-0.0360801,-24.9713,26,0.00294241,10,0.000900967,-1.60256,1.00058,0.0589658,-57.5071,-0.0360801,
2,0,0,1,0,50449.4,-0.038099,-0.0385021,-24.8525,26,0.00279296,10,0.000956874,-1.60463,1.10739,0.0532782,-51.6645,-0.0385021,
2,0,0,1,0,50449.4,-0.0404961,-0.040888,-24.7175,26,0.00264427,10,0.00101065,-1.607,1.10854,0.053223,-51.35,-0.040888,
2,0,0,1,0,50449.4,-0.0428932,-0.0432665,-24.5986,26,0.00249632,10,0.0010643,-1.60909,1.25089,0.0471664,-45.3148,-0.0432665,
2,0,0,1,0,50449.4,-0.0452903,-0.0456567,-24.4937,26,0.00234906,10,0.0011183,-1.61095,1.4439,0.0408614,-39.089,-0.0456567,
2,0,0,1,0,50449.4,-0.0476985,-0.0480829,-24.4095,26,0.00220234,10,0.00117368,-1.61244,1.59176,0.0370659,-35.3166,-0.0480829,
2,0,0,1,0,50449.4,-0.0500956,-0.050472,-24.3255,26,0.00205612,10,0.00122776,-1.61394,1.62453,0.0363183,-34.4872,-0.050472,
2,0,0,1,0,50449.4,-0.0524927,-0.0528886,-24.2485,26,0.00191042,10,0.00128247,-1.61531,2.00667,0.0294019,-27.8487,-0.0528886,
2,0,0,1,0,50449.4,-0.0548981,-0.0552767,-24.198,26,0.00176511,10,0.00133758,-1.61622,2.36886,0.0249065,-23.5214,-0.0552767,
2,0,0,1,0,50449.4,-0.0572953,-0.0576912,-24.1461,26,0.00162008,10,0.00139302,-1.61715,2.63922,0.0223551,-21.0636,-0.05769122,
2,0,0,1,0,50449.4,-0.0596924,-0.0600687,-24.0906,26,0.0014754,10,0.00144709,-1.61815,3.87481,0.0152265,-14.3323,-0.0600687,
2,0,0,1,0,50449.4,-0.062095,-0.0624758,-24.0763,26,0.00133094,10,0.00150419,-1.61841,6.02673,0.00978973,-9.19567,-0.0624758,
2,0,0,1,0,50449.4,-0.0644977,-0.0648776,-24.048,26,0.00118654,10,0.00156018,-1.61892,6.03811,0.00977127,-9.16937,-0.0648776,
2,0,0,1,0,50449.4,-0.0668948,-0.0672805,-24.0214,26,0.00104233,10,0.00161617,-1.6194,9.69976,0.00608263,-5.70747,-0.0672805,
2,0,0,1,0,50449.5,-0.0692919,-0.0696961,-24.0214,26,0.000898217,10,0.0016742,-1.6194,-556.274,-0.000106063,0.099476,-0.0696961,
2,0,0,1,0,50449.5,-0.0717001,-0.0720873,-24.0299,26,0.000754044,10,0.00173225,-1.61925,-15.8262,-0.003728,3.49633,-0.0720873,
2,0,0,1,0,50449.5,-0.0740972,-0.0744838,-24.0395,26,0.000609834,10,0.00179056,-1.61907,-13.7135,-0.00430233,4.03796,-0.0744838,
2,0,0,1,0,50449.5,-0.0764943,-0.0768931,-24.0547,26,0.00046556,10,0.00184964,-1.6188,-5.47153,-0.0107831,10.1307,-0.0768931,
2,0,0,1,0,50449.5,-0.0788997,-0.0793278,-24.0941,26,0.000321152,10,0.00191133,-1.61809,-4.37676,-0.0134803,12.6739,-0.07932777,
2,0,0,1,0,50449.5,-0.0812968,-0.0816596,-24.1236,26,0.000176488,10,0.00196992,-1.61756,-3.82172,-0.0154381,14.5302,-0.0816596,
2,0,0,1,0,50449.5,-0.0836939,-0.0840847,-24.1575,26,3.16502e-05,10,0.00203127,-1.61695,-2.93118,-0.0201284,18.9887,-0.0840847,
2,0,0,1,0,50449.5,-0.086091,-0.0864526,-24.2039,26,-0.000113406,10,0.00209249,-1.61611,-2.24747,-0.0262518,24.8164,-0.0864526,
2,0,0,1,0,50449.5,-0.0884992,-0.0888969,-24.2754,26,-0.000258877,10,0.00215801,-1.61483,-2.21448,-0.0266429,25.2269,-0.0888969,
2,0,0,1,0,50449.5,-0.0908963,-0.0913093,-24.3213,26,-0.000404697,10,0.00222076,-1.61401,-2.14564,-0.0274976,26.1229,-0.0913093,
2,0,0,1,0,50449.5,-0.0932934,-0.0936507,-24.3913,26,-0.000550836,10,0.00228426,-1.61277,-1.7731,-0.033275,31.7001,-0.0936507,
2,0,0,1,0,50449.5,-0.0956989,-0.0961013,-24.4828,26,-0.000697475,10,0.00235283,-1.61114,-1.67875,-0.0351452,33.5673,-0.0961013,
2,0,0,1,0,50449.5,-0.098096,-0.0984861,-24.5575,26,-0.000844609,10,0.00241857,-1.60982,-2.4079,-0.0245026,23.4397,-0.0984861,
2,0,0,0,0,50449.5,-0.0999548,-0.100324,-24.6254,26,-0.000960177,10,0.00247052,-1.60862,0.0289034,2.04128,-1848.17,-0.1003238,
2,0,0,1,1,50449.5,-0.0994555,-0.0999431,-23.3399,26,-0.00100064,10,0.00233267,-1.6319,-0.027486,-2.14654,1800.55,-0.0999431,
2,0,0,1,1,50449.5,-0.0970584,-0.0975137,-19.6358,26,-0.00112848,10,0.00191476,-1.70695,-0.0341793,-1.72619,1344.58,-0.0975137,
2,0,0,1,1,50449.5,-0.0946501,-0.0950981,-16.856,26,-0.00123746,10,0.00160298,-1.77324,-0.0362491,-1.62763,1081.09,-0.09509813,
2,0,0,1,1,50449.6,-0.092253,-0.0926603,-14.5058,26,-0.00133117,10,0.00134411,-1.83846,-0.0365509,-1.61419,918.602,-0.0926603,
2,0,0,1,1,50449.6,-0.0898559,-0.0902786,-12.4584,26,-0.00141173,10,0.00112473,-1.90454,-0.0351324,-1.67936,815.878,-0.0902786,
2,0,0,1,1,50449.6,-0.0874588,-0.0878598,-10.6008,26,-0.00148066,10,0.000931385,-1.97466,-0.0325779,-1.81104,745.918,-0.0878598,
2,0,0,1,1,50449.6,-0.0850534,-0.085441,-8.88943,26,-0.00153887,10,0.000759521,-2.05113,-0.0300962,-1.96038,676.419,-0.085441,
2,0,0,1,1,50449.6,-0.0826563,-0.0830933,-7.33238,26,-0.0015873,10,0.000609272,-2.13475,-0.0265594,-2.22144,628.537,-0.0830933,
2,0,0,1,1,50449.6,-0.0802592,-0.0806883,-5.8799,26,-0.00162676,10,0.000474439,-2.23063,-0.0226652,-2.60311,585.58,-0.0806883,
2,0,0,1,1,50449.6,-0.077851,-0.0782567,-4.51805,26,-0.0016578,10,0.000353568,-2.34505,-0.0184779,-3.193,545.087,-0.0782567,
2,0,0,1,1,50449.6,-0.0754539,-0.075891,-3.25644,26,-0.00168098,10,0.000247135,-2.48726,-0.0135904,-4.34129,515.831,-0.075891,
2,0,0,1,1,50449.6,-0.0730568,-0.0734648,-2.07837,26,-0.00169683,10,0.000152687,-2.68228,-0.00813267,-7.25469,478.933,-0.0734648,
2,0,0,1,1,50449.6,-0.0706597,-0.0710576,-0.969662,26,-0.00170581,10,6.89019e-05,-3.01338,-0.00850486,-6.93721,455.302,-0.0710576,
2,0,0,1,1,50449.6,-0.0682542,-0.0686579,0.0986592,26,-0.00170825,10,-6.77374e-06,-4.00586,0.265451,0.222263,423.533,-0.0686579,
2,1,0,1,1,50449.6,-0.0658571,-0.0662678,1.08239,26,-0.00170456,10,-7.17275e-05,-2.96562,0.00648441,9.09875,404.456,-0.0662678,
2,1,0,1,1,50449.6,-0.06346,-0.0639413,2.0169,26,-0.00169514,10,-0.000128963,-2.69532,0.0101461,5.81503,386.705,-0.0639413,
2,1,0,1,1,50449.6,-0.0610518,-0.0614843,2.92808,26,-0.00168019,10,-0.000180031,-2.53342,0.0172091,3.42841,361.73,-0.0614843,
2,1,0,1,1,50449.6,-0.0586547,-0.0590422,3.76881,26,-0.00166,10,-0.000222519,-2.4238,0.0243804,2.41998,341.151,-0.0590422,
2,1,0,1,1,50449.6,-0.0562576,-0.0567209,4.55435,26,-0.00163497,10,-0.000258327,-2.34157,0.031344,1.88234,327.401,-0.05672095,
2,1,0,1,1,50449.6,-0.053855,-0.0542799,5.33225,26,-0.00160524,10,-0.000289434,-2.27309,0.0385262,1.53143,312.604,-0.05427989,
2,1,0,1,1,50449.7,-0.0514523,-0.0518855,6.05545,26,-0.00157095,10,-0.00031419,-2.21785,0.0462228,1.27643,297.405,-0.0518855,
2,1,0,1,1,50449.7,-0.0490552,-0.0495017,6.73989,26,-0.00153246,10,-0.000333636,-2.17135,0.0548909,1.07486,280.339,-0.0495017,
2,1,0,1,1,50449.7,-0.0466581,-0.047067,7.40094,26,-0.00148994,10,-0.00034834,-2.13071,0.062802,0.939461,269.242,-0.047067,
2,1,0,1,1,50449.7,-0.0442527,-0.0446853,8.03192,26,-0.00144355,10,-0.000358909,-2.09518,0.0722282,0.816855,254.162,-0.0446853,
2,1,0,1,1,50449.7,-0.0418556,-0.0422952,8.62781,26,-0.00139348,10,-0.000364915,-2.0641,0.0828345,0.712264,238.292,-0.0422952,
2,1,0,1,1,50449.7,-0.0394585,-0.039957,9.18451,26,-0.00133997,10,-0.000366985,-2.03694,0.0913592,0.645803,230.675,-0.039957,
2,1,0,1,1,50449.7,-0.0370558,-0.0374703,9.73168,26,-0.00128319,10,-0.000364649,-2.01181,0.102077,0.577993,218.575,-0.0374703,
2,1,0,1,1,50449.7,-0.0346532,-0.0350855,10.2447,26,-0.00122317,10,-0.00035944,-1.9895,0.113796,0.518471,206.235,-0.0350855,
2,1,0,1,1,50449.7,-0.0322561,-0.0326667,10.7161,26,-0.00116021,10,-0.000350059,-1.96996,0.126897,0.464943,194.063,-0.0326667,
2,1,0,1,1,50449.7,-0.029859,-0.0302712,11.1769,26,-0.00109448,10,-0.000338338,-1.95168,0.137108,0.430317,187.291,-0.0302712,
2,1,0,1,1,50449.7,-0.0274535,-0.0278312,11.6243,26,-0.00102601,10,-0.000323518,-1.93463,0.150273,0.392618,177.443,-0.0278312,
2,1,0,1,1,50449.7,-0.0250564,-0.0254411,12.0218,26,-0.000955026,10,-0.000305848,-1.92003,0.167559,0.352114,164.962,-0.0254411,
2,1,0,1,1,50449.7,-0.0226593,-0.0230371,12.4138,26,-0.000881655,10,-0.000285978,-1.9061,0.178264,0.330969,160.058,-0.0230371,
2,1,0,1,1,50449.7,-0.0202511,-0.0206618,12.7969,26,-0.000805983,10,-0.000264408,-1.89289,0.193506,0.3049,151.909,-0.0206618,
2,1,0,1,1,50449.7,-0.017854,-0.01826,13.141,26,-0.000728119,10,-0.000239954,-1.88137,0.213508,0.276337,141.45,-0.01826,
2,1,0,1,1,50449.7,-0.0154569,-0.015838,13.4726,26,-0.000648235,10,-0.000213379,-1.87055,0.230158,0.256346,134.642,-0.015838,
2,1,0,1,1,50449.7,-0.0130598,-0.0134765,13.7812,26,-0.000566428,10,-0.000185722,-1.86071,0.246479,0.239372,128.637,-0.0134765,
2,1,0,1,1,50449.8,-0.0106516,-0.0110672,14.0933,26,-0.000482744,10,-0.000155974,-1.85099,0.271605,0.217227,119.256,-0.0110672,
2,1,0,1,1,50449.8,-0.00825448,-0.00864103,14.3707,26,-0.000397328,10,-0.000124178,-1.84252,0.292566,0.201664,112.98,-0.00864103,
2,1,0,1,1,50449.8,-0.00585738,-0.00628481,14.6335,26,-0.00031031,10,-9.19686e-05,-1.83465,0.311595,0.189348,108.053,-0.00628481,
2,1,0,1,1,50449.8,-0.00345195,-0.00381618,14.8933,26,-0.000221704,10,-5.68357e-05,-1.82701,0.336112,0.175537,101.781,-0.00381618,
2,1,0,1,1,50449.8,-0.00105485,-0.00151192,15.1228,26,-0.000131613,10,-2.28644e-05,-1.82037, , , ,-0.001511919,
2,1,0,0,1,50449.8,-7.54729e-05,-0.000439847,15.215,26,-9.3703e-05,10,-6.69227e-06,-1.81773, , , ,-0.000439847,