File: Figure_codes/Fig_3-5/rawdata_trumpetplot_data/after 10th/20221101_1-115_003_TrumpetPlot_ParaChange_from10_every3_12_CV_C01_13.csv
mode,ox/red,error,control changes,counter inc.,time/s,control/V,Ewe/V,<I>/mA,cycle number,(Q-Qo)/C,I Range,P/W,log(|I|),Tafel slope mV/dec,alpha_eff,dI/d(E-IR),E-IR/V,
2,1,0,1,0,26808.2,2.44065e-05,-0.000287149,17.5072,14,0.0000000E+000,10,-5.02718e-06,-1.75678, , , ,-0.0002871489,
2,1,0,1,0,26808.2,0.00200257,0.00157493,18.5302,14,5.63015e-05,10,2.91837e-05,-1.73212, , , ,0.001574925,
2,1,0,1,0,26808.2,0.004408,0.00404461,19.4124,14,0.000132367,10,7.85158e-05,-1.71192, , , ,0.00404461,
2,1,0,1,0,26808.2,0.0068051,0.00646552,20.1016,14,0.000211485,10,0.000129967,-1.69677,0.160667,0.367219,284.872,0.00646552,
2,1,0,1,0,26808.2,0.00920221,0.00884613,20.7208,14,0.000293216,10,0.000183299,-1.68359,0.189532,0.311293,250.15,0.00884613,
2,1,0,1,0,26808.2,0.0115993,0.0112575,21.2885,14,0.000377312,10,0.000239655,-1.67186,0.213145,0.276807,228.84,0.0112575,
2,1,0,1,0,26808.2,0.0140075,0.0136508,21.8154,14,0.000463579,10,0.000297799,-1.66124,0.238891,0.246975,209.286,0.0136508,
2,1,0,1,0,26808.2,0.0164046,0.0160845,22.3028,14,0.000551885,10,0.000358729,-1.65164,0.259571,0.227298,197.112,0.0160845,
2,1,0,1,0,26808.2,0.0188017,0.0184799,22.737,14,0.000642023,10,0.000420178,-1.64327,0.283614,0.208029,184.237,0.0184799,
2,1,0,1,0,26808.3,0.0212099,0.0208499,23.1793,14,0.000733896,10,0.000483286,-1.6349,0.307811,0.191676,172.963,0.0208499,
2,1,0,1,0,26808.3,0.023607,0.0233016,23.5935,14,0.000827493,10,0.000549765,-1.62721,0.325391,0.18132,166.471,0.0233016,
2,1,0,1,0,26808.3,0.0260041,0.0256695,23.9607,14,0.000922644,10,0.000615058,-1.6205,0.351825,0.167697,156.595,0.0256695,
2,1,0,1,0,26808.3,0.0284012,0.0280543,24.3308,14,0.00101927,10,0.000682585,-1.61384,0.375461,0.15714,149.033,0.0280543,
2,1,0,1,0,26808.3,0.0308067,0.0305018,24.6907,14,0.00111738,10,0.000753109,-1.60747,0.3868,0.152533,146.784,0.0305018,
2,1,0,1,0,26808.3,0.0332038,0.0328962,25.0234,14,0.00121685,10,0.000823173,-1.60165,0.403369,0.146268,142.762,0.0328962,
2,1,0,1,0,26808.3,0.0356009,0.0352556,25.3677,14,0.00131767,10,0.000894354,-1.59572,0.421108,0.140106,138.584,0.0352556,
2,1,0,1,0,26808.3,0.0380091,0.0376447,25.7,14,0.00141983,10,0.000967466,-1.59007,0.434866,0.135674,135.917,0.0376447,
2,1,0,1,0,26808.3,0.0404062,0.0400253,26.0105,14,0.00152329,10,0.00104108,-1.58485,0.455541,0.129516,131.385,0.0400253,
2,1,0,1,0,26808.3,0.0428033,0.0424822,26.3263,14,0.00162798,10,0.0011184,-1.57961,0.463736,0.127227,130.697,0.0424822,
2,1,0,1,0,26808.3,0.0452032,0.0448533,26.6287,14,0.00173392,10,0.00119439,-1.57465,0.471179,0.125218,130.146,0.0448533,
2,1,0,1,0,26808.3,0.0476058,0.0472403,26.9541,14,0.00184113,10,0.00127332,-1.56938,0.483402,0.122052,128.293,0.0472403,
2,1,0,1,0,26808.3,0.0500029,0.0496474,27.2628,14,0.0019496,10,0.00135353,-1.56443,0.480779,0.122717,130.512,0.0496474,
2,1,0,1,0,26808.3,0.0524,0.0520227,27.5503,14,0.00205927,10,0.00143324,-1.55987,0.494497,0.119313,128.352,0.0520227,
2,1,0,1,0,26808.3,0.0548082,0.0544606,27.8826,14,0.00217017,10,0.0015185,-1.55467,0.496658,0.118794,129.256,0.0544606,
2,1,0,1,0,26808.3,0.0572053,0.0568242,28.1842,14,0.00228233,10,0.00160155,-1.54999,0.488593,0.120755,132.822,0.0568242,
2,1,0,1,0,26808.3,0.0596024,0.0592674,28.5062,14,0.00239574,10,0.00168949,-1.54506,0.504032,0.117056,130.206,0.0592674,
2,1,0,1,0,26808.3,0.0620051,0.0616374,28.8273,14,0.00251044,10,0.00177684,-1.5402,0.502331,0.117452,132.092,0.0616374,
2,1,0,1,0,26808.3,0.0644077,0.0640424,29.1302,14,0.0026264,10,0.00186557,-1.53566,0.502849,0.117332,133.43,0.0640424,
2,1,0,1,0,26808.3,0.0668048,0.0664782,29.4594,14,0.00274361,10,0.00195841,-1.53078,0.501764,0.117585,135.246,0.0664782,
2,1,0,1,0,26808.3,0.0692019,0.0688217,29.781,14,0.00286213,10,0.00204958,-1.52606,0.49856,0.118341,137.569,0.0688217,
2,1,0,1,0,26808.3,0.0716074,0.0712415,30.1262,14,0.00298197,10,0.00214624,-1.52106,0.503823,0.117105,137.622,0.0712415,
2,1,0,1,0,26808.3,0.0740045,0.0736592,30.4532,14,0.00310316,10,0.00224316,-1.51637,0.502309,0.117457,139.575,0.0736592,
2,1,0,1,0,26808.3,0.0764016,0.076043,30.7757,14,0.00322567,10,0.00234028,-1.51179,0.50731,0.1163,139.766,0.076043,
2,1,0,1,0,26808.3,0.0788042,0.0784555,31.1257,14,0.00334949,10,0.00244198,-1.50688,0.501255,0.117705,143.005,0.0784555,
2,1,0,1,0,26808.4,0.0812069,0.0808594,31.4705,14,0.00347472,10,0.00254468,-1.5021,0.501367,0.117678,144.51,0.0808594,
2,1,0,1,0,26808.4,0.083604,0.0832093,31.8189,14,0.00360133,10,0.00264763,-1.49731,0.502099,0.117507,145.911,0.0832093,
2,1,0,1,0,26808.4,0.0860011,0.085663,32.1659,14,0.00372933,10,0.00275543,-1.4926,0.505494,0.116718,146.531,0.085663,
2,1,0,1,0,26808.4,0.0884065,0.0880044,32.519,14,0.00385874,10,0.00286181,-1.48786,0.506379,0.116514,147.911,0.0880044,
2,1,0,1,0,26808.4,0.0908036,0.090455,32.8765,14,0.00398957,10,0.00297385,-1.48311,0.499457,0.118128,151.607,0.090455,
2,1,0,1,0,26808.4,0.0932007,0.0928706,33.2479,14,0.00412187,10,0.00308776,-1.47824,0.503558,0.117166,152.02,0.0928706,
2,1,0,1,0,26808.4,0.0956034,0.0952247,33.6156,14,0.00425564,10,0.00320103,-1.47346,0.50908,0.115895,151.975,0.0952247,
2,1,0,1,0,26808.4,0.098006,0.0976361,33.9832,14,0.00439088,10,0.00331799,-1.46874,0.518659,0.113755,150.78,0.0976361,
2,1,0,1,0,26808.4,0.100403,0.10005,34.3347,14,0.00452757,10,0.00343517,-1.46427,0.53093,0.111126,148.865,0.10005,
2,1,0,1,0,26808.4,0.1028,0.102428,34.689,14,0.00466564,10,0.00355313,-1.45981,0.541822,0.108892,147.382,0.102428,
2,1,0,1,0,26808.4,0.105208,0.104826,35.0448,14,0.00480515,10,0.00367359,-1.45538,0.534371,0.11041,151.033,0.104826,
2,1,0,1,0,26808.4,0.107606,0.107164,35.3874,14,0.00494604,10,0.00379225,-1.45115,0.527952,0.111753,154.495,0.107164,
2,1,0,1,0,26808.4,0.110003,0.109599,35.7769,14,0.0050884,10,0.00392109,-1.4464,0.528043,0.111733,156.068,0.109599,
2,1,0,1,0,26808.4,0.112408,0.112006,36.1687,14,0.00523234,10,0.0040511,-1.44167,0.51983,0.113499,160.158,0.112006,
2,1,0,1,0,26808.4,0.114805,0.114448,36.5465,14,0.00537781,10,0.00418267,-1.43715,0.520027,0.113456,161.846,0.114448,
2,1,0,1,0,26808.4,0.117202,0.116844,36.9378,14,0.00552482,10,0.00431597,-1.43253,0.52432,0.112527,162.253,0.116844,
2,1,0,1,0,26808.4,0.119599,0.119247,37.3385,14,0.00567342,10,0.00445251,-1.42784,0.520819,0.113283,165.049,0.119247,
2,1,0,1,0,26808.4,0.122008,0.121663,37.7356,14,0.00582362,10,0.00459102,-1.42325,0.523343,0.112737,165.996,0.121663,
2,1,0,1,0,26808.4,0.124405,0.124037,38.1292,14,0.00597538,10,0.00472943,-1.41874,0.521283,0.113182,168.482,0.124037,
2,1,0,1,0,26808.4,0.126802,0.126438,38.5303,14,0.00612874,10,0.00487168,-1.4142,0.507515,0.116253,174.965,0.126438,
2,1,0,1,0,26808.4,0.129207,0.128862,38.9584,14,0.00628375,10,0.00502025,-1.4094,0.504475,0.116953,177.897,0.128862,
2,1,0,1,0,26808.4,0.131604,0.131204,39.405,14,0.00644053,10,0.00517011,-1.40445,0.496603,0.118807,182.689,0.131204,
2,1,0,1,0,26808.4,0.134001,0.133621,39.8341,14,0.00659906,10,0.00532268,-1.39974,0.4926,0.119773,186.265,0.133621,
2,1,0,1,0,26808.4,0.136399,0.13604,40.2845,14,0.00675936,10,0.00548029,-1.39486,0.498202,0.118426,186.255,0.13604,
2,1,0,1,0,26808.4,0.138807,0.138489,40.7516,14,0.00692149,10,0.00564366,-1.38986,0.488095,0.120878,192.262,0.138489,
2,1,0,1,0,26808.5,0.141204,0.140878,41.2069,14,0.00708544,10,0.00580516,-1.38503,0.485816,0.121445,195.366,0.140878,
2,1,0,1,0,26808.5,0.143601,0.143276,41.6904,14,0.00725127,10,0.00597324,-1.37996,0.487252,0.121087,196.986,0.143276,
2,1,0,1,0,26808.5,0.146009,0.145688,42.1695,14,0.00741904,10,0.0061436,-1.375,0.494502,0.119312,196.225,0.145688,
2,1,0,1,0,26808.5,0.148406,0.148032,42.6314,14,0.0075887,10,0.0063108,-1.37027,0.504402,0.11697,194.531,0.148032,
2,1,0,1,0,26808.5,0.150803,0.150473,43.0896,14,0.00776019,10,0.00648382,-1.36563,0.511703,0.115301,193.896,0.150473,
2,1,0,1,0,26808.5,0.153206,0.152839,43.5507,14,0.00793351,10,0.00665623,-1.361,0.526699,0.112018,190.35,0.152839,
2,1,0,1,0,26808.5,0.155606,0.155246,44.0226,14,0.00810872,10,0.00683433,-1.35632,0.540987,0.10906,187.192,0.155246,
2,1,0,1,0,26808.5,0.158003,0.157659,44.464,14,0.00828576,10,0.00701016,-1.35199,0.558182,0.1057,183.267,0.157659,
2,1,0,1,0,26808.5,0.1604,0.160055,44.8832,14,0.00846451,10,0.00718377,-1.34792,0.588101,0.100323,175.639,0.160055,
2,1,0,1,0,26808.5,0.162808,0.162462,45.3143,14,0.00864494,10,0.00736185,-1.34376,0.612061,0.0963957,170.335,0.162462,
2,1,0,1,0,26808.5,0.165205,0.164839,45.7076,14,0.00882702,10,0.00753441,-1.34001,0.636131,0.0927483,165.314,0.164839,
2,1,0,1,0,26808.5,0.167602,0.167271,46.1011,14,0.00901066,10,0.00771138,-1.33629,0.691551,0.0853155,153.317,0.167271,
2,1,0,1,0,26808.5,0.170008,0.16964,46.4677,14,0.00919584,10,0.00788278,-1.33285,0.744005,0.0793005,143.58,0.1696398,
2,1,0,1,0,26808.5,0.172405,0.172068,46.7871,14,0.00938242,10,0.00805057,-1.32987,0.824371,0.0715697,130.508,0.172068,
2,1,0,1,0,26808.5,0.174802,0.174436,47.0855,14,0.0095702,10,0.00821341,-1.32711,0.926813,0.063659,116.835,0.174436,
2,1,0,1,0,26808.5,0.177199,0.176864,47.3532,14,0.00975913,10,0.00837509,-1.32465,1.05789,0.0557716,102.907,0.176864,
2,1,0,1,0,26808.5,0.179607,0.179259,47.5916,14,0.00994906,10,0.00853121,-1.32247,1.31124,0.0449956,83.3863,0.179259,
2,1,0,1,0,26808.5,0.182005,0.18166,47.7741,14,0.0101398,10,0.00867862,-1.32081,1.76379,0.0334507,62.207,0.1816595,
2,1,0,1,0,26808.5,0.184402,0.184056,47.8877,14,0.0103312,10,0.00881402,-1.31978,3.01245,0.0195854,36.5108,0.184056,
2,1,0,1,0,26808.5,0.18681,0.186451,47.9496,14,0.0105229,10,0.00894027,-1.31922,10.3684,0.00569038,10.6208,0.186451,
2,1,0,1,0,26808.5,0.189207,0.188866,47.9424,14,0.0107147,10,0.00905468,-1.31928,-6.85976,-0.00860088,-16.0484,0.188866,
2,1,0,1,0,26808.5,0.191604,0.191221,47.8757,14,0.0109063,10,0.00915484,-1.31989,-2.46905,-0.0238959,-44.5164,0.191221,
2,1,0,1,0,26808.5,0.194001,0.19366,47.7336,14,0.0110976,10,0.00924409,-1.32118,-1.4644,-0.0402896,-74.8176,0.19366,
2,1,0,1,0,26808.5,0.196407,0.196092,47.5204,14,0.0112881,10,0.00931836,-1.32312,-1.03134,-0.0572073,-105.741,0.196092,
2,1,0,1,0,26808.5,0.198804,0.19846,47.2246,14,0.0114776,10,0.00937217,-1.32583,-0.80511,-0.073282,-134.656,0.19846,
2,1,0,1,0,26808.6,0.201201,0.200908,46.8514,14,0.0116657,10,0.00941282,-1.32928,-0.647629,-0.0911016,-166.107,0.200908,
2,1,0,1,0,26808.6,0.203609,0.203278,46.4385,14,0.0118523,10,0.00943992,-1.33312,-0.55148,-0.106985,-193.248,0.203278,
2,1,0,1,0,26808.6,0.206006,0.205682,45.9274,14,0.012037,10,0.00944644,-1.33793,-0.471485,-0.125136,-223.524,0.205682,
2,1,0,1,0,26808.6,0.208403,0.208131,45.3555,14,0.0122195,10,0.00943991,-1.34337,-0.413893,-0.142549,-251.555,0.208131,
2,1,0,1,0,26808.6,0.210803,0.210512,44.7046,14,0.0123996,10,0.00941087,-1.34965,-0.374392,-0.157589,-274.275,0.210512,
2,1,0,1,0,26808.6,0.213206,0.2129,44.018,14,0.012577,10,0.00937143,-1.35637,-0.339336,-0.173869,-297.968,0.2129,
2,1,0,1,0,26808.6,0.215603,0.215295,43.2909,14,0.0127515,10,0.0093203,-1.3636,-0.316983,-0.18613,-313.687,0.215295,
2,1,0,1,0,26808.6,0.218,0.217717,42.4995,14,0.0129231,10,0.00925284,-1.37162,-0.294373,-0.200426,-331.747,0.217717,
2,1,0,1,0,26808.6,0.220408,0.2201,41.6969,14,0.0130914,10,0.00917751,-1.3799,-0.279146,-0.211359,-343.286,0.2201,
2,1,0,1,0,26808.6,0.222805,0.222463,40.8455,14,0.0132564,10,0.00908662,-1.38886,-0.26758,-0.220495,-351.062,0.222463,
2,1,0,1,0,26808.6,0.225202,0.224919,39.987,14,0.0134179,10,0.00899384,-1.39808,-0.256855,-0.229701,-358.21,0.224919,
2,1,0,1,0,26808.6,0.227605,0.227288,39.1394,14,0.0135761,10,0.0088959,-1.40739,-0.252015,-0.234113,-357.237,0.227288,
2,1,0,1,0,26808.6,0.230008,0.229669,38.2692,14,0.0137309,10,0.00878926,-1.41715,-0.24595,-0.239886,-358.073,0.229669,
2,1,0,1,0,26808.6,0.232405,0.232099,37.4032,14,0.0138821,10,0.00868125,-1.42709,-0.243515,-0.242285,-353.732,0.232099,
2,1,0,1,0,26808.6,0.234802,0.234492,36.5591,14,0.01403,10,0.00857282,-1.437,-0.243778,-0.242024,-345.506,0.234492,
2,1,0,1,0,26808.6,0.237207,0.236922,35.7316,14,0.0141745,10,0.00846559,-1.44695,-0.243083,-0.242715,-338.706,0.236922,
2,1,0,1,0,26808.6,0.239604,0.239306,34.9396,14,0.0143157,10,0.00836126,-1.45668,-0.247139,-0.238732,-325.756,0.239306,
2,1,0,1,0,26808.6,0.242002,0.241674,34.16,14,0.0144539,10,0.00825559,-1.46648,-0.249052,-0.236898,-316.132,0.241674,
2,1,0,1,0,26808.6,0.244404,0.244142,33.4156,14,0.0145889,10,0.00815815,-1.47605,-0.250587,-0.235447,-307.339,0.244142,
2,1,0,1,0,26808.6,0.246807,0.246511,32.7001,14,0.0147211,10,0.00806094,-1.48545,-0.258407,-0.228322,-291.715,0.2465108,
2,1,0,1,0,26808.6,0.249204,0.248878,31.998,14,0.0148504,10,0.00796358,-1.49488,-0.263038,-0.224303,-280.647,0.248878,
2,1,0,1,0,26808.6,0.251601,0.251288,31.3555,14,0.014977,10,0.00787926,-1.50369,-0.268728,-0.219553,-269.021,0.251288,
2,1,0,1,0,26808.6,0.254006,0.253671,30.7414,14,0.0151012,10,0.00779819,-1.51228,-0.281032,-0.20994,-252.093,0.253671,
2,1,0,1,0,26808.6,0.256404,0.256071,30.1281,14,0.0152228,10,0.00771495,-1.52103,-0.288653,-0.204397,-240.77,0.256071,
2,1,0,1,0,26808.6,0.258801,0.258508,29.5701,14,0.0153422,10,0.00764413,-1.52915,-0.297202,-0.198518,-229.538,0.258508,
2,1,0,1,0,26808.7,0.261203,0.260905,29.0401,14,0.0154593,10,0.0075767,-1.537,-0.313626,-0.188122,-213.556,0.260905,
2,1,0,1,0,26808.7,0.263606,0.263261,28.5401,14,0.0155744,10,0.00751348,-1.54455,-0.321062,-0.183765,-204.925,0.263261,
2,1,0,1,0,26808.7,0.266003,0.265702,28.0714,14,0.0156876,10,0.00745864,-1.55174,-0.334066,-0.176612,-193.694,0.265702,
2,1,0,1,0,26808.7,0.2684,0.268122,27.6001,14,0.0157989,10,0.00740018,-1.55909,-0.347759,-0.169658,-183.065,0.268122,
2,1,0,1,0,26808.7,0.270808,0.270489,27.1837,14,0.0159084,10,0.00735289,-1.56569,-0.358167,-0.164728,-175.029,0.270489,
2,1,0,1,0,26808.7,0.273205,0.272901,26.7753,14,0.0160163,10,0.007307,-1.57227,-0.380835,-0.154923,-162.133,0.272901,
2,1,0,1,0,26808.7,0.275603,0.275268,26.3971,14,0.0161226,10,0.00726628,-1.57844,-0.390035,-0.151268,-156.024,0.275268,
2,1,0,1,0,26808.7,0.278008,0.277702,26.0469,14,0.0162274,10,0.00723326,-1.58424,-0.406599,-0.145106,-147.577,0.277702,
2,1,0,1,0,26808.7,0.280405,0.280074,25.6882,14,0.0163309,10,0.0071946,-1.59027,-0.42446,-0.139,-139.519,0.280074,
2,1,0,1,0,26808.7,0.282802,0.282512,25.357,14,0.0164329,10,0.00716365,-1.5959,-0.437037,-0.135,-133.841,0.282512,
2,1,0,1,0,26808.7,0.285199,0.284906,25.0525,14,0.0165337,10,0.00713759,-1.60115,-0.465611,-0.126715,-124.067,0.284906,
2,1,0,1,0,26808.7,0.287608,0.287238,24.7705,14,0.0166334,10,0.00711504,-1.60606,-0.480719,-0.122733,-118.724,0.287238,
2,1,0,1,0,26808.7,0.290005,0.289676,24.4969,14,0.0167319,10,0.00709617,-1.61089,-0.500401,-0.117905,-112.77,0.289676,
2,1,0,1,0,26808.7,0.292402,0.292049,24.2247,14,0.0168293,10,0.00707479,-1.61574,-0.520322,-0.113391,-107.31,0.2920489,
2,1,0,1,0,26808.7,0.294807,0.294502,23.9703,14,0.0169257,10,0.00705931,-1.62033,-0.530712,-0.111171,-104.149,0.2945016,
2,1,0,1,0,26808.7,0.297204,0.296885,23.7353,14,0.017021,10,0.00704665,-1.62461,-0.555298,-0.106249,-98.8633,0.2968854,
2,1,0,1,0,26808.7,0.299421,0.299061,23.5195,14,0.0171084,10,0.00703376,-1.62857,-0.102381,-0.576281,-512.418,0.299061,
2,1,0,0,0,26808.7,0.300012,0.299746,23.4637,14,0.0171319,10,0.00703316,-1.6296,0.00149203,39.5435,31385.2,0.299746,
2,1,0,1,0,26808.7,0.299243,0.299055,21.6371,14,0.0171605,10,0.00647068,-1.6648,0.0215789,2.73416,1956.66,0.299055,
2,1,0,1,0,26808.7,0.296846,0.29668,17.2796,14,0.0172375,10,0.00512652,-1.76247,0.0249763,2.36224,1530.61,0.29668,
2,1,0,1,0,26808.7,0.294449,0.294185,13.9782,14,0.0172995,10,0.00411218,-1.85455,0.025149,2.34601,1311.81,0.294185,
2,1,0,1,0,26808.7,0.292041,0.291754,11.2304,14,0.0173495,10,0.00327652,-1.9496,0.0241118,2.44694,1076.24,0.291754,
2,1,0,1,0,26808.7,0.289644,0.289334,8.88533,14,0.0173894,10,0.00257083,-2.05133,0.0216191,2.72907,932.798,0.289334,
2,1,0,1,0,26808.7,0.287247,0.286986,6.84735,14,0.0174206,10,0.0019651,-2.16448,0.0186066,3.17092,812.255,0.286986,
2,1,0,1,0,26808.7,0.284841,0.284596,5.03437,14,0.0174441,10,0.00143276,-2.29805,0.0147488,4.00032,718.918,0.284596,
2,1,0,1,0,26808.7,0.282444,0.28213,3.41309,14,0.0174608,10,0.000962935,-2.46685,0.00966555,6.10415,640.824,0.28213,
2,1,0,1,0,26808.7,0.280047,0.279738,1.98608,14,0.0174714,10,0.000555582,-2.702,0.00947776,6.2251,569.261,0.279738,
2,1,0,1,0,26808.8,0.27765,0.277387,0.69554,14,0.0174766,10,0.000192933,-3.15768,0.0275243,2.14356,514.725,0.277387,
2,0,0,1,0,26808.8,0.275242,0.274912,-0.478752,14,0.0174769,10,-0.000131614,-3.31989,-0.0954521,-0.618111,469.858,0.274912,
2,0,0,1,0,26808.8,0.272845,0.272529,-1.52873,14,0.0174727,10,-0.000416624,-2.81567,-0.0140162,-4.2094,423.773,0.272529,
2,0,0,1,0,26808.8,0.270448,0.270189,-2.50056,14,0.0174646,10,-0.000675622,-2.60196,-0.0101561,-5.80932,388.246,0.270189,
2,0,0,1,0,26808.8,0.268039,0.267743,-3.39104,14,0.0174527,10,-0.000907927,-2.46967,-0.01883,-3.13329,355.16,0.267743,
2,0,0,1,0,26808.8,0.265642,0.265337,-4.19597,14,0.0174374,10,-0.00111335,-2.37717,-0.027469,-2.14788,322.661,0.265337,
2,0,0,1,0,26808.8,0.263245,0.262956,-4.92882,14,0.0174191,10,-0.00129606,-2.30726,-0.0359739,-1.64008,299.531,0.262956,
2,0,0,1,0,26808.8,0.260843,0.260543,-5.61277,14,0.0173979,10,-0.00146237,-2.25082,-0.0449613,-1.31224,277.389,0.260543,
2,0,0,1,0,26808.8,0.258443,0.258167,-6.2595,14,0.0173741,10,-0.001616,-2.20346,-0.0544825,-1.08292,256.735,0.258167,
2,0,0,1,0,26808.8,0.256046,0.255758,-6.85328,14,0.0173478,10,-0.00175278,-2.1641,-0.0646511,-0.912591,238.38,0.255758,
2,0,0,1,0,26808.8,0.253649,0.253385,-7.38581,14,0.0173192,10,-0.00187146,-2.1316,-0.0758468,-0.777884,220.65,0.253385,
2,0,0,1,0,26808.8,0.25124,0.250932,-7.90396,14,0.0172886,10,-0.00198335,-2.10216,-0.0873035,-0.675804,205.733,0.250932,
2,0,0,1,0,26808.8,0.248843,0.248557,-8.37982,14,0.0172559,10,-0.00208287,-2.07677,-0.0979268,-0.602491,194.918,0.248557,
2,0,0,1,0,26808.8,0.246446,0.246144,-8.83112,14,0.0172215,10,-0.00217373,-2.05398,-0.110606,-0.533424,182.121,0.246144,
2,0,0,1,0,26808.8,0.244041,0.243747,-9.26444,14,0.0171853,10,-0.00225818,-2.03318,-0.123653,-0.477142,170.841,0.243747,
2,0,0,1,0,26808.8,0.241644,0.24134,-9.65076,14,0.0171474,10,-0.00232912,-2.01544,-0.137434,-0.429297,160.532,0.24134,
2,0,0,1,0,26808.8,0.239247,0.238969,-10.0179,14,0.017108,10,-0.00239397,-1.99922,-0.152079,-0.387956,151.019,0.238969,
2,0,0,1,0,26808.8,0.236849,0.236536,-10.3736,14,0.0170671,10,-0.00245372,-1.98407,-0.163191,-0.361538,145.812,0.236536,
2,0,0,1,0,26808.8,0.234441,0.234111,-10.7196,14,0.0170249,10,-0.00250959,-1.96982,-0.178158,-0.331166,137.864,0.234111,
2,0,0,1,0,26808.8,0.232044,0.23175,-11.0491,14,0.0169813,10,-0.00256064,-1.95667,-0.191444,-0.308185,132.25,0.23175,
2,0,0,1,0,26808.8,0.229647,0.229353,-11.3436,14,0.0169365,10,-0.00260168,-1.94525,-0.208227,-0.283344,125.057,0.229353,
2,0,0,1,0,26808.8,0.227239,0.226943,-11.6422,14,0.0168905,10,-0.00264211,-1.93397,-0.225853,-0.261232,118.357,0.226943,
2,0,0,1,0,26808.8,0.224842,0.224514,-11.9199,14,0.0168434,10,-0.00267618,-1.92373,-0.238907,-0.246958,114.552,0.224514,
2,0,0,1,0,26808.8,0.222445,0.222128,-12.188,14,0.0167951,10,-0.00270729,-1.91407,-0.251811,-0.234303,111.262,0.2221278,
2,0,0,1,0,26808.8,0.220047,0.219743,-12.4445,14,0.0167458,10,-0.00273458,-1.90502,-0.269136,-0.21922,106.261,0.219743,
2,0,0,1,0,26808.9,0.217642,0.217358,-12.7086,14,0.0166955,10,-0.00276232,-1.8959,-0.286555,-0.205894,101.826,0.217358,
2,0,0,1,0,26808.9,0.215245,0.214966,-12.9345,14,0.0166441,10,-0.00278047,-1.88825,-0.293344,-0.201129,101.457,0.214966,
2,0,0,1,0,26808.9,0.212848,0.212493,-13.1691,14,0.0165919,10,-0.00279833,-1.88044,-0.316772,-0.186254,95.6861,0.212493,
2,0,0,1,0,26808.9,0.21044,0.210142,-13.4185,14,0.0165387,10,-0.0028198,-1.87229,-0.323602,-0.182323,95.2589,0.210142,
2,0,0,1,0,26808.9,0.208043,0.207733,-13.6296,14,0.0164846,10,-0.00283132,-1.86552,-0.338116,-0.174497,92.665,0.207733,
2,0,0,1,0,26808.9,0.205645,0.205344,-13.8511,14,0.0164296,10,-0.00284423,-1.85852,-0.363116,-0.162483,87.7393,0.205344,
2,0,0,1,0,26808.9,0.203246,0.202936,-14.0547,14,0.0163738,10,-0.0028522,-1.85218,-0.368221,-0.16023,87.8413,0.202936,
2,0,0,1,0,26808.9,0.200843,0.200519,-14.2629,14,0.0163172,10,-0.00285997,-1.84579,-0.387167,-0.152389,84.768,0.200519,
2,0,0,1,0,26808.9,0.198446,0.198128,-14.4734,14,0.0162597,10,-0.00286757,-1.83943,-0.389643,-0.151421,85.4637,0.198128,
2,0,0,1,0,26808.9,0.196049,0.195763,-14.6632,14,0.0162014,10,-0.00287051,-1.83377,-0.399429,-0.147711,84.5363,0.195763,
2,0,0,1,0,26808.9,0.19364,0.193309,-14.8774,14,0.0161422,10,-0.00287594,-1.82747,-0.418502,-0.140979,81.7665,0.193309,
2,0,0,1,0,26808.9,0.191243,0.190929,-15.0736,14,0.0160823,10,-0.00287798,-1.82178,-0.412335,-0.143088,84.1321,0.190929,
2,0,0,1,0,26808.9,0.188846,0.188554,-15.2561,14,0.0160217,10,-0.00287661,-1.81656,-0.425693,-0.138597,82.5963,0.188554,
2,0,0,1,0,26808.9,0.186444,0.186103,-15.476,14,0.0159602,10,-0.00288012,-1.81034,-0.430813,-0.13695,82.6667,0.186103,
2,0,0,1,0,26808.9,0.184041,0.183718,-15.6696,14,0.0158979,10,-0.00287879,-1.80494,-0.430732,-0.136976,83.6943,0.183718,
2,0,0,1,0,26808.9,0.181644,0.181331,-15.867,14,0.0158348,10,-0.00287718,-1.7995,-0.441428,-0.133657,82.7789,0.181331,
2,0,0,1,0,26808.9,0.179247,0.178911,-16.0632,14,0.0157709,10,-0.00287389,-1.79417,-0.435098,-0.135602,85.0693,0.178911,
2,0,0,1,0,26808.9,0.176841,0.176514,-16.2697,14,0.0157062,10,-0.00287183,-1.78862,-0.436315,-0.135223,85.894,0.176514,
2,0,0,1,0,26808.9,0.174444,0.174112,-16.4868,14,0.0156407,10,-0.00287055,-1.78286,-0.431411,-0.13676,87.9662,0.174112,
2,0,0,1,0,26808.9,0.172047,0.171727,-16.6919,14,0.0155743,10,-0.00286645,-1.77749,-0.422466,-0.139656,91.0358,0.171727,
2,0,0,1,0,26808.9,0.169644,0.169324,-16.9066,14,0.0155071,10,-0.00286269,-1.77194,-0.421409,-0.140006,92.4768,0.169324,
2,0,0,1,0,26808.9,0.167242,0.166916,-17.1435,14,0.015439,10,-0.00286152,-1.7659,-0.40448,-0.145866,97.6629,0.166916,
2,0,0,1,0,26808.9,0.164845,0.164558,-17.3703,14,0.0153699,10,-0.00285842,-1.76019,-0.389354,-0.151533,102.892,0.164558,
2,0,0,1,0,26808.9,0.162448,0.162141,-17.6282,14,0.0152999,10,-0.00285824,-1.75379,-0.387012,-0.15245,104.982,0.162141,
2,0,0,1,0,26808.9,0.160042,0.159672,-17.8997,14,0.0152288,10,-0.00285808,-1.74716,-0.367461,-0.160561,112.201,0.159672,
2,0,0,1,0,26809,0.157645,0.157269,-18.1562,14,0.0151567,10,-0.00285541,-1.74098,-0.352996,-0.16714,118.655,0.157269,
2,0,0,1,0,26809,0.155248,0.154917,-18.452,14,0.0150834,10,-0.00285853,-1.73396,-0.338389,-0.174355,125.852,0.154917,
2,0,0,1,0,26809,0.152845,0.152564,-18.7645,14,0.015009,10,-0.00286278,-1.72666,-0.314199,-0.187779,137.81,0.152564,
2,0,0,1,0,26809,0.150443,0.150103,-19.104,14,0.0149332,10,-0.00286756,-1.71888,-0.301092,-0.195953,146.377,0.150103,
2,0,0,1,0,26809,0.148046,0.147743,-19.4689,14,0.014856,10,-0.00287641,-1.71066,-0.285709,-0.206504,157.24,0.147743,
2,0,0,1,0,26809,0.145648,0.145393,-19.8462,14,0.0147773,10,-0.00288549,-1.70232,-0.269028,-0.219308,170.361,0.145393,
2,0,0,1,0,26809,0.14324,0.142949,-20.2763,14,0.0146971,10,-0.00289848,-1.69301,-0.256014,-0.230456,182.888,0.142949,
2,0,0,1,0,26809,0.140843,0.140575,-20.7271,14,0.014615,10,-0.00291372,-1.68346,-0.24216,-0.243641,197.658,0.140575,
2,0,0,1,0,26809,0.138446,0.138139,-21.2254,14,0.0145311,10,-0.00293206,-1.67314,-0.23106,-0.255345,212.065,0.138139,
2,0,0,1,0,26809,0.136041,0.135721,-21.7579,14,0.0144451,10,-0.002953,-1.66238,-0.220698,-0.267333,227.488,0.1357206,
2,0,0,1,0,26809,0.133644,0.133326,-22.317,14,0.0143569,10,-0.00297544,-1.65136,-0.208598,-0.282841,247.104,0.133326,
2,0,0,1,0,26809,0.131246,0.130943,-22.9182,14,0.0142664,10,-0.00300099,-1.63982,-0.19909,-0.296349,266.147,0.130943,
2,0,0,1,0,26809,0.128849,0.128579,-23.5879,14,0.0141733,10,-0.0030329,-1.62731,-0.190889,-0.309081,285.389,0.128579,
2,0,0,1,0,26809,0.126441,0.126119,-24.3135,14,0.0140774,10,-0.00306638,-1.61415,-0.184917,-0.319061,303.148,0.126119,
2,0,0,1,0,26809,0.124044,0.123735,-25.0543,14,0.0139786,10,-0.00310009,-1.60112,-0.181916,-0.324325,317.456,0.123735,
2,0,0,1,0,26809,0.121647,0.121336,-25.8306,14,0.0138767,10,-0.00313419,-1.58787,-0.180922,-0.326107,329.067,0.121336,
2,0,0,1,0,26809,0.119241,0.11898,-26.6351,14,0.0137718,10,-0.00316904,-1.57455,-0.180131,-0.32754,340.658,0.11898,
2,0,0,1,0,26809,0.116844,0.11655,-27.4624,14,0.0136635,10,-0.00320073,-1.56126,-0.18172,-0.324676,347.932,0.1165495,
2,0,0,1,0,26809,0.114447,0.114174,-28.3112,14,0.0135518,10,-0.00323241,-1.54804,-0.18445,-0.319869,353.185,0.114174,
2,0,0,1,0,26809,0.11205,0.111785,-29.1538,14,0.0134368,10,-0.00325896,-1.53531,-0.188756,-0.312573,355.355,0.111785,
2,0,0,1,0,26809,0.109642,0.109406,-30.0166,14,0.0133184,10,-0.00328398,-1.52264,-0.19542,-0.301914,353.25,0.109406,
2,0,0,1,0,26809,0.107245,0.106975,-30.8647,14,0.0131965,10,-0.00330175,-1.51054,-0.200999,-0.293534,353.027,0.106975,
2,0,0,1,0,26809,0.104848,0.104543,-31.7136,14,0.0130713,10,-0.00331542,-1.49875,-0.210986,-0.279639,345.298,0.104543,
2,0,0,1,0,26809,0.10244,0.102188,-32.5416,14,0.0129426,10,-0.00332538,-1.48756,-0.217768,-0.270931,343.383,0.1021884,
2,0,0,1,0,26809,0.100042,0.0998375,-33.3204,14,0.0128109,10,-0.00332663,-1.47729,-0.226045,-0.26101,339.343,0.0998375,
2,0,0,1,0,26809.1,0.0976454,0.0974325,-34.1414,14,0.0126759,10,-0.00332649,-1.46672,-0.236256,-0.249729,332.406,0.0974325,
2,0,0,1,0,26809.1,0.0952427,0.0949586,-34.9658,14,0.0125376,10,-0.0033203,-1.45636,-0.244194,-0.241611,328.88,0.0949586,
2,0,0,1,0,26809.1,0.0928428,0.0926246,-35.7207,14,0.0123961,10,-0.00330862,-1.44708,-0.259392,-0.227455,316.44,0.0926246,
2,0,0,1,0,26809.1,0.0904457,0.0902175,-36.4843,14,0.0122516,10,-0.00329152,-1.43789,-0.274911,-0.214615,304.958,0.0902175,
2,0,0,1,0,26809.1,0.0880486,0.0877743,-37.1977,14,0.0121042,10,-0.003265,-1.42948,-0.289446,-0.203838,295.283,0.0877743,
2,0,0,1,0,26809.1,0.0856404,0.0853608,-37.8927,14,0.0119539,10,-0.00323455,-1.42144,-0.31243,-0.188842,278.651,0.0853608,
2,0,0,1,0,26809.1,0.0832433,0.0830353,-38.5523,14,0.011801,10,-0.0032012,-1.41395,-0.328954,-0.179356,269.298,0.08303535,
2,0,0,1,0,26809.1,0.0808462,0.0805943,-39.1658,14,0.0116455,10,-0.00315654,-1.40709,-0.354661,-0.166356,253.827,0.0805943,
2,0,0,1,0,26809.1,0.0784408,0.0781978,-39.7766,14,0.0114875,10,-0.00311044,-1.40037,-0.385014,-0.153241,237.35,0.0781978,
2,0,0,1,0,26809.1,0.0760437,0.0757779,-40.3251,14,0.0113272,10,-0.00305575,-1.39442,-0.408868,-0.144301,226.637,0.0757779,
2,0,0,1,0,26809.1,0.0736466,0.0733793,-40.8441,14,0.0111648,10,-0.00299711,-1.38887,-0.443823,-0.132936,211.603,0.0733793,
2,0,0,1,0,26809.1,0.0712495,0.0709955,-41.3412,14,0.0110004,10,-0.00293504,-1.38362,-0.477463,-0.12357,199.07,0.0709955,
2,0,0,1,0,26809.1,0.0688413,0.0685725,-41.8134,14,0.010834,10,-0.00286725,-1.37868,-0.520516,-0.113349,184.597,0.0685725,
2,0,0,1,0,26809.1,0.0664442,0.0661187,-42.248,14,0.0106659,10,-0.00279338,-1.37419,-0.578333,-0.102017,167.793,0.0661187,
2,0,0,1,0,26809.1,0.0640471,0.063719,-42.6274,14,0.0104961,10,-0.00271617,-1.37031,-0.652648,-0.090401,150.053,0.063719,
2,0,0,1,0,26809.1,0.0616389,0.0613659,-42.957,14,0.0103249,10,-0.0026361,-1.36697,-0.748806,-0.0787921,131.85,0.06136594,
2,0,0,1,0,26809.1,0.0592417,0.0589503,-43.2572,14,0.0101524,10,-0.00255003,-1.36394,-0.853801,-0.0691028,116.452,0.0589503,
2,0,0,1,0,26809.1,0.0568446,0.0565167,-43.514,14,0.00997883,10,-0.00245927,-1.36137,-0.980253,-0.0601885,102.055,0.0565167,
2,0,0,1,0,26809.1,0.0544475,0.0541806,-43.7381,14,0.00980431,10,-0.00236976,-1.35914,-1.17688,-0.0501325,85.4336,0.0541806,
2,0,0,1,0,26809.1,0.0520421,0.0517353,-43.9398,14,0.00962891,10,-0.00227324,-1.35714,-1.39554,-0.0422776,72.366,0.0517353,
2,0,0,1,0,26809.1,0.049645,0.0493441,-44.0779,14,0.00945283,10,-0.00217498,-1.35578,-1.65202,-0.0357138,61.3738,0.0493441,
2,0,0,1,0,26809.1,0.0472479,0.0469508,-44.2063,14,0.00927626,10,-0.00207552,-1.35452,-2.09212,-0.028201,48.6153,0.0469508,
2,0,0,1,0,26809.1,0.0448397,0.0445341,-44.3302,14,0.00909919,10,-0.00197421,-1.3533,-2.52873,-0.0233319,40.3121,0.0445341,
2,0,0,1,0,26809.1,0.0424426,0.042179,-44.4044,14,0.00892171,10,-0.00187293,-1.35257,-3.49819,-0.0168659,29.1901,0.042179,
2,0,0,1,0,26809.1,0.0400455,0.0397347,-44.4653,14,0.00874398,10,-0.00176681,-1.35198,-5.50992,-0.010708,18.5627,0.03973471,
2,0,0,1,0,26809.2,0.0376456,0.0373053,-44.4878,14,0.00856606,10,-0.00165963,-1.35176,-8.85697,-0.00666142,11.5585,0.0373053,
2,0,0,1,0,26809.2,0.035243,0.0349364,-44.5083,14,0.00838807,10,-0.00155496,-1.35156,-28.1006,-0.0020996,3.64496,0.0349364,
2,0,0,1,0,26809.2,0.0328459,0.032525,-44.516,14,0.00821001,10,-0.00144788,-1.35148,-181.8,-0.000324533,0.563495,0.03252501,
2,0,0,1,0,26809.2,0.0304488,0.0301073,-44.5004,14,0.00803196,10,-0.00133978,-1.35164,14.2773,0.00413243,-7.17257,0.0301073,
2,0,0,1,0,26809.2,0.0280406,0.0277097,-44.4932,14,0.007854,10,-0.00123289,-1.35171,6.98662,0.00844471,-14.648,0.0277097,
2,0,0,1,0,26809.2,0.0256435,0.0253344,-44.4395,14,0.00767614,10,-0.00112585,-1.35223,5.6243,0.0104902,-18.1827,0.02533439,
2,0,0,1,0,26809.2,0.0232463,0.0229145,-44.3752,14,0.00749852,10,-0.00101684,-1.35286,4.28281,0.013776,-23.8595,0.0229145,
2,0,0,1,0,26809.2,0.0208437,0.0205148,-44.3259,14,0.00732112,10,-0.00090934,-1.35334,3.75051,0.0157312,-27.2031,0.0205148,
2,0,0,1,0,26809.2,0.018441,0.0181204,-44.2644,14,0.00714392,10,-0.000802091,-1.35395,3.31471,0.0177994,-30.723,0.0181204,
2,0,0,1,0,26809.2,0.0160439,0.0157547,-44.1789,14,0.00696704,10,-0.000696024,-1.35479,2.77886,0.0212317,-36.5837,0.0157547,
2,0,0,1,0,26809.2,0.0136468,0.0133168,-44.0804,14,0.00679052,10,-0.00058701,-1.35575,2.51623,0.0234478,-40.3284,0.0133168,
2,0,0,1,0,26809.2,0.0112414,0.0109489,-43.976,14,0.00661441,10,-0.000481489,-1.35678,2.30554,0.0255906,-43.9112,0.0109489,
2,0,0,1,0,26809.2,0.00884431,0.00850256,-43.8766,14,0.00643873,10,-0.000373063,-1.35777,2.0836,0.0283164,-48.4557,0.00850256,
2,0,0,1,0,26809.2,0.0064472,0.00614422,-43.7569,14,0.00626348,10,-0.000268852,-1.35895,2.14244,0.0275386,-47.0183,0.00614422,
2,0,0,1,0,26809.2,0.00404455,0.00371589,-43.6151,14,0.00608876,10,-0.000162069,-1.36036,1.77227,0.0332906,-56.6501,0.00371589,
2,0,0,1,0,26809.2,0.0016419,0.00127907,-43.5213,14,0.00591455,10,-5.56669e-05,-1.3613,1.58911,0.0371278,-62.96,0.00127907,
2,0,0,1,0,26809.2,-0.000755207,-0.00113866,-43.3304,14,0.00574087,10,4.93384e-05,-1.36321,1.48198,0.0398115,-67.2618,-0.00113866,
2,0,0,1,0,26809.2,-0.00315231,-0.0035426,-43.147,14,0.00556795,10,0.000152852,-1.36505,1.22959,0.0479835,-80.7733,-0.0035426,
2,0,0,1,0,26809.2,-0.00555774,-0.00590306,-42.9682,14,0.00539572,10,0.000253644,-1.36685,1.16002,0.0508611,-85.1974,-0.00590306,
2,0,0,1,0,26809.2,-0.00795485,-0.00830171,-42.7475,14,0.0052243,10,0.000354877,-1.36909,1.10089,0.0535928,-89.3487,-0.00830171,
2,0,0,1,0,26809.2,-0.010352,-0.0107014,-42.5157,14,0.00505378,10,0.000454977,-1.37145,1.00327,0.0588074,-97.5323,-0.0107014,
2,0,0,1,0,26809.2,-0.0127546,-0.0130969,-42.2933,14,0.00488419,10,0.00055391,-1.37373,0.965115,0.0611326,-100.827,-0.0130969,
2,0,0,1,0,26809.2,-0.0151573,-0.01554,-42.0282,14,0.00471558,10,0.000653121,-1.37646,0.914547,0.0645128,-105.758,-0.01554,
2,0,0,1,0,26809.2,-0.0175544,-0.0179101,-41.7787,14,0.004548,10,0.000748258,-1.37905,0.853285,0.0691446,-112.662,-0.01791005,
2,0,0,1,0,26809.2,-0.0199515,-0.0203182,-41.4986,14,0.00438147,10,0.000843178,-1.38197,0.825998,0.0714288,-115.604,-0.0203182,
2,0,0,1,0,26809.3,-0.0223597,-0.022702,-41.2112,14,0.00421607,10,0.000935578,-1.38498,0.783043,0.0753471,-121.128,-0.022702,
2,0,0,1,0,26809.3,-0.0247568,-0.0251526,-40.917,14,0.00405185,10,0.00102917,-1.3881,0.781172,0.0755275,-120.613,-0.0251526,
2,0,0,1,0,26809.3,-0.0271539,-0.0275481,-40.6112,14,0.00388882,10,0.00111876,-1.39135,0.770297,0.0765939,-121.436,-0.02754809,
2,0,0,1,0,26809.3,-0.0295593,-0.0298852,-40.3447,14,0.00372695,10,0.00120571,-1.39421,0.750112,0.0786549,-123.774,-0.0298852,
2,0,0,1,0,26809.3,-0.0319564,-0.0323136,-40.044,14,0.00356619,10,0.00129396,-1.39746,0.764768,0.0771476,-120.523,-0.0323136,
2,0,0,1,0,26809.3,-0.0343535,-0.0347228,-39.7324,14,0.00340666,10,0.00137962,-1.40085,0.763933,0.0772319,-119.853,-0.0347228,
2,0,0,1,0,26809.3,-0.0367506,-0.0371501,-39.454,14,0.00324832,10,0.00146572,-1.40391,0.778224,0.0758137,-116.815,-0.0371501,
2,0,0,1,0,26809.3,-0.0391588,-0.0395317,-39.1885,14,0.00309106,10,0.00154919,-1.40684,0.812336,0.0726301,-111.103,-0.0395317,
2,0,0,1,0,26809.3,-0.0415559,-0.041906,-38.9235,14,0.00293488,10,0.00163113,-1.40979,0.824693,0.0715418,-108.699,-0.041906,
2,0,0,1,0,26809.3,-0.043953,-0.0443269,-38.6654,14,0.00277975,10,0.00171392,-1.41268,0.841754,0.0700917,-105.8,-0.0443269,
2,0,0,1,0,26809.3,-0.0463585,-0.0467203,-38.4137,14,0.00262562,10,0.0017947,-1.41551,0.885232,0.0666492,-99.9929,-0.0467203,
2,0,0,1,0,26809.3,-0.0487556,-0.0491581,-38.1701,14,0.00247248,10,0.00187637,-1.41828,0.927366,0.063621,-94.8725,-0.0491581,
2,0,0,1,0,26809.3,-0.0511527,-0.0514878,-37.9653,14,0.00232023,10,0.00195475,-1.42061,1.02258,0.0576973,-85.5712,-0.0514878,
2,0,0,1,0,26809.3,-0.0535498,-0.0538918,-37.758,14,0.00216881,10,0.00203484,-1.42299,1.0981,0.0537292,-79.2411,-0.0538918,
2,0,0,1,0,26809.3,-0.055958,-0.0563031,-37.5937,14,0.00201812,10,0.00211664,-1.42489,1.1512,0.051251,-75.2132,-0.0563031,
2,0,0,1,0,26809.3,-0.0583551,-0.0587209,-37.4123,14,0.00186814,10,0.00219688,-1.42699,1.32287,0.0446002,-65.1727,-0.0587209,
2,0,0,1,0,26809.3,-0.0607522,-0.0610792,-37.2439,14,0.00171887,10,0.00227483,-1.42894,1.40787,0.0419073,-61.0028,-0.0610792,
2,0,0,1,0,26809.3,-0.0631604,-0.0635436,-37.1289,14,0.00157015,10,0.00235931,-1.43029,1.61235,0.0365925,-53.0621,-0.06354361,
2,0,0,1,0,26809.3,-0.0655575,-0.0659422,-37.0057,14,0.0014219,10,0.00244024,-1.43173,1.88711,0.0312647,-45.1775,-0.0659422,
2,0,0,1,0,26809.3,-0.0679546,-0.06836,-36.9008,14,0.00127411,10,0.00252254,-1.43296,1.97653,0.0298504,-43.0143,-0.06836,
2,0,0,1,0,26809.3,-0.0703573,-0.0707183,-36.8085,14,0.0011267,10,0.00260303,-1.43405,2.36841,0.0249113,-35.8104,-0.0707183,
2,0,0,1,0,26809.3,-0.0727571,-0.0730915,-36.7182,14,0.000979655,10,0.00268379,-1.43512,2.86185,0.020616,-29.5759,-0.0730915,
2,0,0,1,0,26809.3,-0.0751542,-0.0755135,-36.6629,14,0.000832901,10,0.00276855,-1.43577,3.76007,0.0156912,-22.4748,-0.0755135,
2,0,0,1,0,26809.3,-0.0775513,-0.0779047,-36.6185,14,0.00068634,10,0.00285276,-1.4363,5.46653,0.010793,-15.4349,-0.0779047,
2,0,0,1,0,26809.3,-0.0799596,-0.0802853,-36.5935,14,0.000539935,10,0.00293792,-1.4366,7.27094,0.0081145,-11.5929,-0.0802853,
2,0,0,1,0,26809.4,-0.0823567,-0.0827412,-36.5693,14,0.000393619,10,0.00302579,-1.43688,15.6027,0.00378139,-5.40018,-0.0827412,
2,0,0,1,0,26809.4,-0.0847538,-0.0851208,-36.5515,14,0.000247395,10,0.0031113,-1.43709,-315.111,-0.000187236,0.267406,-0.0851208,
2,0,0,1,0,26809.4,-0.0871592,-0.0875236,-36.5666,14,0.000101185,10,0.00320044,-1.43692,-15.995,-0.00368866,5.26801,-0.0875236,
2,0,0,1,0,26809.4,-0.0895563,-0.089935,-36.596,14,-4.51443e-05,10,0.00329126,-1.43657,-7.96701,-0.00740554,10.5785,-0.089935,
2,0,0,1,0,26809.4,-0.0919534,-0.0922934,-36.6196,14,-0.000191571,10,0.00337975,-1.43629,-5.57632,-0.0105805,15.129,-0.0922934,
2,0,0,1,0,26809.4,-0.0943505,-0.0946803,-36.6527,14,-0.000338117,10,0.00347029,-1.43589,-4.53794,-0.0130015,18.6141,-0.0946803,
2,0,0,1,0,26809.4,-0.0967587,-0.0970949,-36.7114,14,-0.000484859,10,0.00356449,-1.4352,-3.52412,-0.0167418,23.9892,-0.0970949,
2,0,0,1,0,26809.4,-0.0991558,-0.0994702,-36.7735,14,-0.000631813,10,0.00365787,-1.43446,8.31106,0.00709898,-10.1467,-0.0994702,
2,0,0,1,0,26809.4,-0.0999548,-0.100305,-36.8118,14,-0.000679631,10,0.0036924,-1.43401,0.0215399,2.7391,-3660.05,-0.100305,
2,0,0,1,1,26809.4,-0.0999548,-0.100343,-36.5952,14,-0.000701615,10,0.00367207,-1.43658,-0.0276564,-2.13332,2660.78,-0.100343,
2,0,0,1,1,26809.4,-0.0979573,-0.0984151,-31.8793,14,-0.000805891,10,0.00313741,-1.49649,-0.0361384,-1.63261,1907.44,-0.0984151,
2,0,0,1,1,26809.4,-0.0955546,-0.0960165,-27.5839,14,-0.000924164,10,0.0026485,-1.55935,-0.0373127,-1.58123,1725.63,-0.0960165,
2,0,0,1,1,26809.4,-0.0931519,-0.0935754,-23.976,14,-0.00102677,10,0.00224357,-1.62022,-0.0386615,-1.52606,1445.29,-0.0935754,
2,0,0,1,1,26809.4,-0.0907548,-0.0911948,-20.8089,14,-0.00111591,10,0.00189767,-1.68175,-0.0377777,-1.56177,1272.75,-0.0911948,
2,0,0,1,1,26809.4,-0.0883578,-0.0887951,-17.9756,14,-0.0011931,10,0.00159614,-1.74532,-0.0359734,-1.6401,1147.25,-0.0887951,
2,0,0,1,1,26809.4,-0.0859523,-0.0864155,-15.3643,14,-0.00125947,10,0.00132771,-1.81349,-0.0335641,-1.75783,1045.32,-0.0864155,
2,0,0,1,1,26809.4,-0.0835552,-0.0839967,-12.9869,14,-0.00131587,10,0.00109086,-1.88649,-0.0304438,-1.938,966.091,-0.0839967,
2,0,0,1,1,26809.4,-0.0811581,-0.0815832,-10.7618,14,-0.00136311,10,0.000877985,-1.96811,-0.0270164,-2.18386,893.175,-0.0815832,
2,0,0,1,1,26809.4,-0.0787555,-0.0791804,-8.68688,14,-0.00140177,10,0.000687831,-2.06114,-0.0230387,-2.56091,832.693,-0.0791804,
2,0,0,1,1,26809.4,-0.0763528,-0.0767817,-6.7596,14,-0.00143243,10,0.000519014,-2.17008,-0.018514,-3.18677,779.635,-0.0767817,
2,0,0,1,1,26809.4,-0.0739557,-0.0743438,-4.94903,14,-0.00145564,10,0.00036793,-2.30548,-0.0131149,-4.4987,738.673,-0.0743438,
2,0,0,1,1,26809.4,-0.0715586,-0.0719399,-3.24355,14,-0.00147184,10,0.00023334,-2.48898,-0.00527893,-11.1765,692.726,-0.0719399,
2,0,0,1,1,26809.4,-0.0691532,-0.0696123,-1.61923,14,-0.00148139,10,0.000112718,-2.79069,-0.0167313,-3.52632,655.868,-0.0696123,
2,0,0,1,1,26809.4,-0.0667561,-0.0671713,-0.102186,14,-0.00148465,10,6.86393e-06,-3.99061,-0.118394,-0.498335,621.405,-0.0671713,
2,1,0,1,1,26809.4,-0.0643589,-0.0647758,1.32634,14,-0.00148201,10,-8.59149e-05,-2.87734,0.0246081,2.39759,581.665,-0.0647758,
2,1,0,1,1,26809.4,-0.0619563,-0.0623856,2.69353,14,-0.00147383,10,-0.000168037,-2.56968,0.00562278,10.493,554.069,-0.0623856,
2,1,0,1,1,26809.5,-0.0595536,-0.0599594,3.99552,14,-0.00146028,10,-0.000239569,-2.39843,0.0140217,4.20775,528.614,-0.0599594,
2,1,0,1,1,26809.5,-0.0571565,-0.0575661,5.21974,14,-0.00144172,10,-0.00030048,-2.28235,0.0214457,2.75114,504.263,-0.0575661,
2,1,0,1,1,26809.5,-0.0547594,-0.0552056,6.38527,14,-0.00141837,10,-0.000352503,-2.19482,0.028771,2.05068,479.491,-0.0552056,
2,1,0,1,1,26809.5,-0.0523512,-0.0528377,7.50818,14,-0.00139042,10,-0.000396715,-2.12447,0.036289,1.62584,455.821,-0.0528377,
2,1,0,1,1,26809.5,-0.0499541,-0.050437,8.56145,14,-0.00135819,10,-0.000431814,-2.06745,0.0439099,1.34366,435.116,-0.050437,
2,1,0,1,1,26809.5,-0.047557,-0.0479832,9.58783,14,-0.00132176,10,-0.000460055,-2.01828,0.0519652,1.13537,414.654,-0.0479832,
2,1,0,1,1,26809.5,-0.0451544,-0.0456153,10.5582,14,-0.00128136,10,-0.000481614,-1.97641,0.0602486,0.979276,395.479,-0.0456153,
2,1,0,1,1,26809.5,-0.0427545,-0.0432368,11.4892,14,-0.00123715,10,-0.000496758,-1.93971,0.0691655,0.853026,375.97,-0.0432368,
2,1,0,1,1,26809.5,-0.0403574,-0.0408138,12.3672,14,-0.00118933,10,-0.000504753,-1.90773,0.0788186,0.748555,356.437,-0.0408138,
2,1,0,1,1,26809.5,-0.0379603,-0.0384014,13.1903,14,-0.00113813,10,-0.000506526,-1.87974,0.088875,0.663854,338.416,-0.0384014,
2,1,0,1,1,26809.5,-0.0355521,-0.0359423,14.006,14,-0.00108365,10,-0.000503407,-1.85369,0.0983791,0.599721,324.705,-0.0359423,
2,1,0,1,1,26809.5,-0.033155,-0.0335351,14.7724,14,-0.00102601,10,-0.000495396,-1.83055,0.108425,0.544154,310.805,-0.0335351,
2,1,0,1,1,26809.5,-0.0307579,-0.0311757,15.4967,14,-0.000965418,10,-0.000483122,-1.80976,0.120266,0.49058,294.267,-0.0311757,
2,1,0,1,1,26809.5,-0.0283524,-0.028775,16.1822,14,-0.000902003,10,-0.000465644,-1.79096,0.133266,0.442723,277.61,-0.028775,
2,1,0,1,1,26809.5,-0.0259553,-0.0263816,16.8194,14,-0.000835911,10,-0.000443723,-1.77419,0.146035,0.404013,263.857,-0.0263816,
2,1,0,1,1,26809.5,-0.0235582,-0.0239427,17.4354,14,-0.000767321,10,-0.000417451,-1.75857,0.159117,0.370797,251.259,-0.0239427,
2,1,0,1,1,26809.5,-0.0211611,-0.0215515,18.0362,14,-0.000696296,10,-0.000388706,-1.74386,0.173168,0.340709,238.651,-0.02155149,
2,1,0,1,1,26809.5,-0.0187529,-0.0191539,18.5996,14,-0.00062296,10,-0.000356256,-1.7305,0.185939,0.317309,229.217,-0.0191539,
2,1,0,1,1,26809.5,-0.0163558,-0.016716,19.1261,14,-0.000547447,10,-0.000319712,-1.71837,0.203031,0.290596,216.109,-0.016716,
2,1,0,1,1,26809.5,-0.0139587,-0.01438,19.6273,14,-0.000469884,10,-0.00028224,-1.70714,0.218829,0.269617,205.962,-0.01438,
2,1,0,1,1,26809.5,-0.0115505,-0.0119442,20.1124,14,-0.000390349,10,-0.000240226,-1.69654,0.234969,0.251097,196.507,-0.0119442,
2,1,0,1,1,26809.5,-0.0091534,-0.00953072,20.5816,14,-0.000308896,10,-0.000196158,-1.68652,0.254644,0.231696,185.455,-0.00953072,
2,1,0,1,1,26809.5,-0.00675629,-0.00713526,21.0088,14,-0.000225657,10,-0.000149903,-1.6776,0.27258,0.216451,176.991,-0.00713526,
2,1,0,1,1,26809.5,-0.00435919,-0.00472495,21.4179,14,-0.000140758,10,-0.000101199,-1.66922,0.303662,0.194295,161.534,-0.00472495,
2,1,0,1,1,26809.5,-0.00195376,-0.00232419,21.815,14,-5.42261e-05,10,-5.07023e-05,-1.66124, , , ,-0.00232419,
2,1,0,0,1,26809.6,-7.54729e-05,-0.000497109,22.0409,14,1.38309e-05,10,-1.09567e-05,-1.65677, , , ,-0.000497109,