File: Figure_codes/Fig_3-5/rawdata_trumpetplot_data/after 10th/20221101_1-115_003_TrumpetPlot_ParaChange_from10_every3_11_CV_C01_30.csv
mode,ox/red,error,control changes,counter inc.,time/s,control/V,Ewe/V,<I>/mA,cycle number,(Q-Qo)/C,I Range,P/W,log(|I|),Tafel slope mV/dec,alpha_eff,dI/d(E-IR),E-IR/V,
2,1,0,1,0,60298.4,2.44065e-05,-0.000268062,9.11544,31,0.0000000E+000,10,-2.4435e-06,-2.04022, , , ,-0.000268062,
2,1,0,1,0,60298.4,0.00214129,0.00174565,10.054,31,4.93952e-05,10,1.75507e-05,-1.99766, , , ,0.00174565,
2,1,0,1,0,60298.4,0.00454949,0.00417928,10.7793,31,0.000112088,10,4.50499e-05,-1.96741,0.0898892,0.656364,271.868,0.004179283,
2,1,0,1,0,60298.4,0.0069466,0.00654611,11.3412,31,0.000178542,10,7.42409e-05,-1.94534,0.114146,0.516883,227.315,0.00654611,
2,1,0,1,0,60298.5,0.0093437,0.00897232,11.8494,31,0.0002482,10,0.000106316,-1.9263,0.134137,0.439849,202.493,0.00897232,
2,1,0,1,0,60298.5,0.0117408,0.0113179,12.3131,31,0.000320757,10,0.000139359,-1.90963,0.15124,0.390108,186.839,0.0113179,
2,1,0,1,0,60298.5,0.0141462,0.0137813,12.7423,31,0.000395986,10,0.000175605,-1.89475,0.17117,0.344686,170.855,0.0137813,
2,1,0,1,0,60298.5,0.0165433,0.0161852,13.1319,31,0.000473664,10,0.000212543,-1.88167,0.19117,0.308625,157.828,0.0161852,
2,1,0,1,0,60298.5,0.0189404,0.0185319,13.496,31,0.000553591,10,0.000250106,-1.86979,0.209677,0.281386,147.978,0.0185319,
2,1,0,1,0,60298.5,0.0213486,0.0210366,13.8529,31,0.000635678,10,0.000291417,-1.85846,0.226606,0.260364,140.41,0.0210366,
2,1,0,1,0,60298.5,0.0237457,0.0233652,14.1697,31,0.000719775,10,0.000331078,-1.84864,0.246006,0.239832,132.446,0.0233652,
2,1,0,1,0,60298.5,0.0261429,0.0258073,14.4705,31,0.000805726,10,0.000373445,-1.83952,0.260305,0.226658,127.983,0.0258073,
2,1,0,1,0,60298.5,0.02854,0.0281932,14.7753,31,0.000893506,10,0.000416564,-1.83046,0.279784,0.210877,121.41,0.0281932,
2,1,0,1,0,60298.5,0.0309482,0.0305982,15.051,31,0.000983067,10,0.000460534,-1.82243,0.304562,0.193721,113.708,0.0305982,
2,1,0,1,0,60298.5,0.0333453,0.0329619,15.3239,31,0.00107421,10,0.000505105,-1.81463,0.320409,0.18414,110.117,0.0329619,
2,1,0,1,0,60298.5,0.0357424,0.0354061,15.5827,31,0.00116696,10,0.000551725,-1.80736,0.339163,0.173958,105.713,0.0354061,
2,1,0,1,0,60298.5,0.0381478,0.0377804,15.8374,31,0.00126128,10,0.000598342,-1.80032,0.354306,0.166523,102.854,0.0377804,
2,1,0,1,0,60298.5,0.0405449,0.0401398,16.0771,31,0.00135705,10,0.000645329,-1.79379,0.374336,0.157612,98.8851,0.0401398,
2,1,0,1,0,60298.5,0.042942,0.0425904,16.3196,31,0.00145427,10,0.000695059,-1.78729,0.381842,0.154514,98.3938,0.0425904,
2,1,0,1,0,60298.5,0.0453391,0.0449689,16.5518,31,0.00155292,10,0.000744315,-1.78116,0.393159,0.150067,96.9098,0.0449689,
2,1,0,1,0,60298.6,0.0477473,0.047393,16.7878,31,0.00165298,10,0.000795623,-1.77501,0.408559,0.14441,94.549,0.047393,
2,1,0,1,0,60298.6,0.0501444,0.0497799,17.0083,31,0.00175437,10,0.000846673,-1.76934,0.419182,0.14075,93.4426,0.04977994,
2,1,0,1,0,60298.6,0.0525415,0.0521118,17.2332,31,0.00185712,10,0.000898051,-1.76363,0.422793,0.139548,93.8473,0.0521118,
2,1,0,1,0,60298.6,0.0549469,0.0545974,17.459,31,0.00196123,10,0.000953214,-1.75798,0.440468,0.133949,91.2164,0.05459737,
2,1,0,1,0,60298.6,0.057344,0.0570066,17.6662,31,0.00206665,10,0.00100709,-1.75286,0.44929,0.131318,90.5868,0.0570066,
2,1,0,1,0,60298.6,0.0597411,0.0593978,17.8966,31,0.00217337,10,0.00106302,-1.74723,0.452757,0.130313,91,0.0593978,
2,1,0,1,0,60298.6,0.0621438,0.0617996,18.1162,31,0.00228143,10,0.00111957,-1.74193,0.461286,0.127903,90.3965,0.0617996,
2,1,0,1,0,60298.6,0.0645465,0.0641919,18.3292,31,0.00239079,10,0.00117658,-1.73686,0.463191,0.127377,91.1298,0.06419193,
2,1,0,1,0,60298.6,0.0669436,0.0665672,18.5516,31,0.00250145,10,0.00123493,-1.73162,0.470161,0.125489,90.8185,0.0665672,
2,1,0,1,0,60298.6,0.0693407,0.0689744,18.7683,31,0.00261344,10,0.00129453,-1.72658,0.475477,0.124086,90.888,0.0689744,
2,1,0,1,0,60298.6,0.0717489,0.0713348,18.9879,31,0.00272672,10,0.0013545,-1.72152,0.480998,0.122662,90.8902,0.0713348,
2,1,0,1,0,60298.6,0.074146,0.0738003,19.2056,31,0.0028413,10,0.00141738,-1.71657,0.490988,0.120166,90.0673,0.0738003,
2,1,0,1,0,60298.6,0.0765431,0.0761915,19.4249,31,0.00295722,10,0.00148001,-1.71164,0.481236,0.122601,92.9211,0.0761915,
2,1,0,1,0,60298.6,0.0789485,0.0785201,19.646,31,0.00307443,10,0.00154261,-1.70673,0.506945,0.116384,89.2128,0.0785201,
2,1,0,1,0,60298.6,0.0813456,0.0809633,19.8604,31,0.00319298,10,0.00160796,-1.70201,0.496952,0.118724,92.0144,0.0809633,
2,1,0,1,0,60298.6,0.0837427,0.0833651,20.0788,31,0.00331282,10,0.00167387,-1.69726,0.494495,0.119314,93.5228,0.0833651,
2,1,0,1,0,60298.6,0.0861398,0.0857118,20.3018,31,0.00343399,10,0.0017401,-1.69247,0.506253,0.116543,92.3324,0.0857118,
2,1,0,1,0,60298.7,0.088548,0.0881518,20.5254,31,0.00355652,10,0.00180935,-1.68771,0.499552,0.118106,94.6206,0.0881518,
2,1,0,1,0,60298.7,0.0909451,0.0905685,20.7518,31,0.00368036,10,0.00187946,-1.68294,0.51048,0.115577,93.6112,0.0905685,
2,1,0,1,0,60298.7,0.0933422,0.0929894,20.9841,31,0.00380559,10,0.0019513,-1.67811,0.51432,0.114715,93.8986,0.0929894,
2,1,0,1,0,60298.7,0.0957477,0.0953573,21.2014,31,0.00393216,10,0.00202171,-1.67364,0.52779,0.111787,92.4945,0.0953573,
2,1,0,1,0,60298.7,0.0981447,0.0977464,21.4228,31,0.00406005,10,0.002094,-1.66912,0.538463,0.109571,91.5892,0.0977464,
2,1,0,1,0,60298.7,0.100542,0.100185,21.6432,31,0.00418928,10,0.00216833,-1.66468,0.545435,0.108171,91.3393,0.1001853,
2,1,0,1,0,60298.7,0.102939,0.102539,21.8555,31,0.00431979,10,0.00224105,-1.66044,0.555772,0.106159,90.5564,0.102539,
2,1,0,1,0,60298.7,0.105347,0.10496,22.0779,31,0.00445162,10,0.0023173,-1.65604,0.562569,0.104876,90.3164,0.10496,
2,1,0,1,0,60298.7,0.107744,0.107346,22.2893,31,0.00458475,10,0.00239268,-1.6519,0.562033,0.104976,91.3381,0.107346,
2,1,0,1,0,60298.7,0.110141,0.109724,22.5003,31,0.00471912,10,0.00246881,-1.64781,0.550142,0.107245,94.2709,0.109724,
2,1,0,1,0,60298.7,0.11255,0.112137,22.749,31,0.00485491,10,0.00255101,-1.64304,0.531378,0.111032,98.5584,0.112137,
2,1,0,1,0,60298.7,0.114947,0.114497,22.9816,31,0.00499212,10,0.00263131,-1.63862,0.52646,0.112069,100.547,0.114497,
2,1,0,1,0,60298.7,0.117344,0.116993,23.2269,31,0.00513078,10,0.00271737,-1.63401,0.530522,0.111211,100.814,0.116993,
2,1,0,1,0,60298.7,0.119744,0.119355,23.4721,31,0.0052709,10,0.00280152,-1.62945,0.529743,0.111375,102.024,0.119355,
2,1,0,1,0,60298.7,0.122146,0.121785,23.716,31,0.00541247,10,0.00288825,-1.62496,0.522242,0.112975,104.583,0.121785,
2,1,0,1,0,60298.7,0.124543,0.12418,23.9706,31,0.00555556,10,0.00297667,-1.62032,0.509436,0.115814,108.32,0.12418,
2,1,0,1,0,60298.7,0.126941,0.126596,24.222,31,0.00570017,10,0.0030664,-1.61579,0.506563,0.116471,110.163,0.126596,
2,1,0,1,0,60298.8,0.129349,0.128962,24.4913,31,0.00584633,10,0.00315844,-1.61099,0.49844,0.118369,113.181,0.128962,
2,1,0,1,0,60298.8,0.131746,0.131395,24.7695,31,0.00599415,10,0.0032546,-1.60608,0.502413,0.117433,113.467,0.131395,
2,1,0,1,0,60298.8,0.134143,0.133777,25.0343,31,0.00614362,10,0.00334901,-1.60146,0.497777,0.118527,115.859,0.133777,
2,1,0,1,0,60298.8,0.13654,0.136146,25.3129,31,0.00629468,10,0.00344625,-1.59666,0.501411,0.117668,116.298,0.1361458,
2,1,0,1,0,60298.8,0.138945,0.138571,25.6104,31,0.0064475,10,0.00354886,-1.59158,0.505393,0.116741,116.603,0.138571,
2,1,0,1,0,60298.8,0.141343,0.140995,25.8848,31,0.00660199,10,0.00364963,-1.58695,0.521215,0.113197,114.334,0.140995,
2,1,0,1,0,60298.8,0.14374,0.143364,26.1613,31,0.00675814,10,0.00375059,-1.58234,0.516457,0.11424,116.622,0.143364,
2,1,0,1,0,60298.8,0.146148,0.145757,26.4441,31,0.00691598,10,0.00385442,-1.57767,0.526861,0.111984,115.525,0.145757,
2,1,0,1,0,60298.8,0.148545,0.148164,26.7126,31,0.00707547,10,0.00395786,-1.57328,0.54528,0.108201,112.783,0.148164,
2,1,0,1,0,60298.8,0.150942,0.150539,26.9779,31,0.0072366,10,0.00406121,-1.56899,0.562525,0.104884,110.426,0.150539,
2,1,0,1,0,60298.8,0.153345,0.152965,27.24,31,0.00739928,10,0.00416677,-1.56479,0.576043,0.102423,108.885,0.1529649,
2,1,0,1,0,60298.8,0.155747,0.155368,27.5099,31,0.00756356,10,0.00427415,-1.56051,0.601794,0.0980402,105.171,0.155368,
2,1,0,1,0,60298.8,0.158144,0.157764,27.7479,31,0.00772936,10,0.00437763,-1.55677,0.648376,0.0909966,98.4938,0.157764,
2,1,0,1,0,60298.8,0.160542,0.160159,27.9787,31,0.00789655,10,0.00448103,-1.55317,0.675742,0.0873115,95.3244,0.160159,
2,1,0,1,0,60298.8,0.162947,0.162588,28.2111,31,0.00806515,10,0.00458679,-1.54958,0.725331,0.0813422,89.4636,0.1625881,
2,1,0,1,0,60298.8,0.165344,0.164947,28.412,31,0.00823505,10,0.00468649,-1.5465,0.811382,0.0727155,80.578,0.164947,
2,1,0,1,0,60298.9,0.167741,0.167379,28.5868,31,0.00840608,10,0.00478483,-1.54383,0.896853,0.0657856,73.3821,0.167379,
2,1,0,1,0,60298.9,0.170149,0.169739,28.7741,31,0.00857818,10,0.0048841,-1.541,1.04846,0.0562731,63.1113,0.169739,
2,1,0,1,0,60298.9,0.172547,0.172164,28.8946,31,0.00875122,10,0.00497461,-1.53918,1.34138,0.0439846,49.5526,0.172164,
2,1,0,1,0,60298.9,0.174944,0.174533,28.998,31,0.00892494,10,0.00506109,-1.53763,1.87593,0.0314511,35.5668,0.174533,
2,1,0,1,0,60298.9,0.177341,0.176986,29.072,31,0.00909918,10,0.00514534,-1.53653,2.84303,0.0207525,23.5227,0.176986,
2,1,0,1,0,60298.9,0.179746,0.179383,29.1148,31,0.00927377,10,0.0052227,-1.53589,8.59925,0.00686106,7.78674,0.179383,
2,1,0,1,0,60298.9,0.182143,0.181797,29.1134,31,0.00944849,10,0.00529274,-1.53591,-6.89081,-0.00856213,-9.71622,0.181797,
2,1,0,1,0,60298.9,0.18454,0.184211,29.0742,31,0.00962306,10,0.00535579,-1.53649,-2.74977,-0.0214563,-24.3213,0.184211,
2,1,0,1,0,60298.9,0.186949,0.186594,29.0056,31,0.00979729,10,0.00541226,-1.53752,-1.73938,-0.0339201,-38.3482,0.186594,
2,1,0,1,0,60298.9,0.189346,0.188955,28.8931,31,0.00997098,10,0.0054595,-1.53921,-1.17075,-0.0503949,-56.7422,0.1889551,
2,1,0,1,0,60298.9,0.191743,0.191383,28.7289,31,0.0101439,10,0.00549824,-1.54168,-0.94667,-0.0623237,-69.8283,0.191383,
2,1,0,1,0,60298.9,0.19414,0.193814,28.5482,31,0.0103157,10,0.00553304,-1.54442,-0.786539,-0.0750121,-83.4803,0.193814,
2,1,0,1,0,60298.9,0.196548,0.196164,28.3282,31,0.0104863,10,0.00555696,-1.54778,-0.645513,-0.0914002,-100.896,0.196164,
2,1,0,1,0,60298.9,0.198945,0.198593,28.0598,31,0.0106555,10,0.00557248,-1.55192,-0.549568,-0.107357,-117.469,0.198593,
2,1,0,1,0,60298.9,0.201342,0.200974,27.7648,31,0.0108229,10,0.00558,-1.55651,-0.501035,-0.117756,-127.472,0.200974,
2,1,0,1,0,60298.9,0.203748,0.203382,27.447,31,0.0109886,10,0.00558222,-1.56151,-0.46011,-0.12823,-137.224,0.203382,
2,1,0,1,0,60298.9,0.206145,0.205764,27.0936,31,0.0111522,10,0.00557488,-1.56713,-0.415636,-0.141951,-150.01,0.205764,
2,1,0,1,0,60299,0.208542,0.208186,26.7269,31,0.0113136,10,0.00556415,-1.57305,-0.392166,-0.150447,-156.808,0.208186,
2,1,0,1,0,60299,0.210939,0.210556,26.3297,31,0.0114728,10,0.00554386,-1.57955,-0.363599,-0.162267,-166.666,0.210556,
2,1,0,1,0,60299,0.213347,0.213012,25.9307,31,0.0116295,10,0.00552354,-1.58619,-0.344827,-0.1711,-173.034,0.213012,
2,1,0,1,0,60299,0.215744,0.215402,25.506,31,0.0117838,10,0.00549404,-1.59336,-0.335222,-0.176003,-175.159,0.215402,
2,1,0,1,0,60299,0.218141,0.21779,25.0811,31,0.0119355,10,0.00546241,-1.60065,-0.325798,-0.181094,-177.234,0.21779,
2,1,0,1,0,60299,0.220547,0.220246,24.6626,31,0.0120847,10,0.00543182,-1.60796,-0.316975,-0.186134,-179.032,0.220246,
2,1,0,1,0,60299,0.222944,0.22259,24.2228,31,0.0122313,10,0.00539176,-1.61578,-0.313122,-0.188425,-178.138,0.22259,
2,1,0,1,0,60299,0.225341,0.224959,23.7955,31,0.0123754,10,0.00535302,-1.6235,-0.313059,-0.188463,-175.101,0.224959,
2,1,0,1,0,60299,0.227744,0.227377,23.3817,31,0.0125168,10,0.00531646,-1.63112,-0.308029,-0.191541,-174.741,0.227377,
2,1,0,1,0,60299,0.230146,0.229777,22.9599,31,0.0126558,10,0.00527564,-1.63903,-0.311605,-0.189343,-169.745,0.229777,
2,1,0,1,0,60299,0.232543,0.232177,22.5609,31,0.0127924,10,0.00523813,-1.64664,-0.311143,-0.189623,-166.986,0.232177,
2,1,0,1,0,60299,0.234941,0.234599,22.1739,31,0.0129265,10,0.00520199,-1.65416,-0.321389,-0.183578,-158.879,0.234599,
2,1,0,1,0,60299,0.237349,0.237006,21.7931,31,0.0130584,10,0.0051651,-1.66168,-0.322289,-0.183066,-155.74,0.237006,
2,1,0,1,0,60299,0.239746,0.239437,21.4245,31,0.013188,10,0.0051298,-1.66909,-0.324888,-0.181601,-151.885,0.239437,
2,1,0,1,0,60299,0.242143,0.241835,21.0692,31,0.0133154,10,0.00509529,-1.67635,-0.337175,-0.174983,-143.956,0.241835,
2,1,0,1,0,60299,0.244548,0.244201,20.733,31,0.0134407,10,0.00506303,-1.68334,-0.343282,-0.17187,-139.1,0.244201,
2,1,0,1,0,60299,0.246946,0.246573,20.3967,31,0.0135641,10,0.00502928,-1.69044,-0.351995,-0.167616,-133.504,0.246573,
2,1,0,1,0,60299.1,0.249343,0.248979,20.0795,31,0.0136855,10,0.00499937,-1.69725,-0.358564,-0.164545,-129.041,0.2489794,
2,1,0,1,0,60299.1,0.25174,0.251391,19.7831,31,0.0138051,10,0.00497329,-1.70371,-0.37003,-0.159447,-123.127,0.251391,
2,1,0,1,0,60299.1,0.254148,0.253813,19.4983,31,0.0139229,10,0.00494893,-1.71,-0.38151,-0.154648,-117.695,0.253813,
2,1,0,1,0,60299.1,0.256545,0.256229,19.2119,31,0.014039,10,0.00492267,-1.71643,-0.389436,-0.151501,-113.695,0.256229,
2,1,0,1,0,60299.1,0.258942,0.258597,18.9554,31,0.0141534,10,0.00490183,-1.72227,-0.41146,-0.143392,-106.089,0.258597,
2,1,0,1,0,60299.1,0.261348,0.260991,18.7006,31,0.0142664,10,0.00488068,-1.72815,-0.414943,-0.142188,-103.811,0.260991,
2,1,0,1,0,60299.1,0.263745,0.263373,18.4511,31,0.0143778,10,0.00485954,-1.73398,-0.429881,-0.137247,-98.8986,0.263373,
2,1,0,1,0,60299.1,0.266142,0.265791,18.225,31,0.0144878,10,0.00484403,-1.73933,-0.450957,-0.130833,-93.0881,0.265791,
2,1,0,1,0,60299.1,0.268539,0.268183,17.9943,31,0.0145964,10,0.00482576,-1.74487,-0.463606,-0.127263,-89.423,0.268183,
2,1,0,1,0,60299.1,0.270947,0.270599,17.7909,31,0.0147038,10,0.00481421,-1.7498,-0.4713,-0.125186,-86.9268,0.270599,
2,1,0,1,0,60299.1,0.273344,0.272984,17.5813,31,0.0148099,10,0.00479941,-1.75495,-0.482533,-0.122271,-83.9479,0.272984,
2,1,0,1,0,60299.1,0.275741,0.275376,17.3872,31,0.0149148,10,0.00478802,-1.75977,-0.509323,-0.11584,-78.6377,0.275376,
2,1,0,1,0,60299.1,0.278149,0.277837,17.2048,31,0.0150185,10,0.00478013,-1.76435,-0.508226,-0.11609,-77.937,0.277837,
2,1,0,1,0,60299.1,0.280547,0.280182,17.0147,31,0.0151212,10,0.00476722,-1.76917,-0.525194,-0.112339,-74.6563,0.280182,
2,1,0,1,0,60299.1,0.282944,0.282586,16.8458,31,0.0152227,10,0.00476038,-1.77351,-0.554156,-0.106468,-70.0193,0.282586,
2,1,0,1,0,60299.1,0.285344,0.285008,16.6835,31,0.0153233,10,0.00475492,-1.77771,-0.569969,-0.103514,-67.3933,0.285008,
2,1,0,1,0,60299.2,0.287746,0.28739,16.5168,31,0.0154229,10,0.00474677,-1.78207,-0.585268,-0.100808,-65.0117,0.2873905,
2,1,0,1,0,60299.2,0.290143,0.289754,16.3593,31,0.0155215,10,0.00474019,-1.78623,-0.604929,-0.0975321,-62.2956,0.289754,
2,1,0,1,0,60299.2,0.29254,0.292184,16.2143,31,0.0156192,10,0.00473755,-1.7901,-0.63213,-0.0933352,-59.0703,0.292184,
2,1,0,1,0,60299.2,0.294949,0.294584,16.0714,31,0.015716,10,0.00473439,-1.79395,-0.623649,-0.0946045,-59.3574,0.294584,
2,1,0,1,0,60299.2,0.297346,0.297016,15.9295,31,0.015812,10,0.00473132,-1.7978,-0.67863,-0.0869398,-54.1483,0.297016,
2,1,0,1,0,60299.2,0.299621,0.299279,15.8023,31,0.0159025,10,0.00472929,-1.80128,-0.0980966,-0.601448,-362.445,0.299279,
2,1,0,1,0,60299.2,0.299962,0.299785,15.6748,31,0.0159214,10,0.00469907,-1.8048,0.0154945,3.80781,2067.05,0.299785,
2,1,0,1,0,60299.2,0.297903,0.297637,12.9328,31,0.0159932,10,0.00384929,-1.88831,0.0268455,2.19776,1092.71,0.297637,
2,1,0,1,0,60299.2,0.295506,0.295165,10.7457,31,0.0160637,10,0.00317176,-1.96877,0.0298926,1.97373,840.586,0.295165,
2,1,0,1,0,60299.2,0.293101,0.292799,8.96664,31,0.0161225,10,0.00262542,-2.04737,0.0297206,1.98515,698.257,0.292799,
2,1,0,1,0,60299.2,0.290704,0.290356,7.44486,31,0.0161715,10,0.00216166,-2.12814,0.0288414,2.04567,594.161,0.290356,
2,1,0,1,0,60299.2,0.288307,0.287982,6.10711,31,0.016212,10,0.00175874,-2.21416,0.0263177,2.24184,532.425,0.287982,
2,1,0,1,0,60299.2,0.28591,0.285572,4.92865,31,0.0162449,10,0.00140748,-2.30727,0.0239366,2.46485,469.345,0.285572,
2,1,0,1,0,60299.2,0.283501,0.283162,3.8622,31,0.0162711,10,0.00109363,-2.41317,0.0207032,2.84981,422.671,0.283162,
2,1,0,1,0,60299.2,0.281104,0.280762,2.90515,31,0.0162912,10,0.000815655,-2.53683,0.0171223,3.44579,378.891,0.280762,
2,1,0,1,0,60299.2,0.278707,0.278378,2.03912,31,0.0163059,10,0.000567647,-2.69056,0.0127019,4.64496,344.625,0.278378,
2,1,0,1,0,60299.2,0.276302,0.275969,1.25369,31,0.0163157,10,0.00034598,-2.90181,0.0072261,8.16485,317.073,0.275969,
2,1,0,1,0,60299.2,0.273905,0.273594,0.533917,31,0.016321,10,0.000146076,-3.27253,0.00989245,5.96415,289.027,0.273594,
2,0,0,1,0,60299.3,0.271508,0.27116,-0.128015,31,0.0163221,10,-3.47127e-05,-3.89274,-0.0755024,-0.781432,264.819,0.27116,
2,0,0,1,0,60299.3,0.269105,0.268754,-0.739984,31,0.0163194,10,-0.000198874,-3.13078,-0.00524144,-11.2564,244.366,0.268754,
2,0,0,1,0,60299.3,0.266702,0.266312,-1.30114,31,0.0163132,10,-0.000346509,-2.88568,-0.0112032,-5.26637,228.332,0.266312,
2,0,0,1,0,60299.3,0.264305,0.264004,-1.82505,31,0.0163038,10,-0.000481822,-2.73872,-0.0188974,-3.12213,207.237,0.264004,
2,0,0,1,0,60299.3,0.261908,0.261553,-2.30872,31,0.0162913,10,-0.000603852,-2.63663,-0.02579,-2.28771,198.341,0.261553,
2,0,0,1,0,60299.3,0.2595,0.259202,-2.76041,31,0.016276,10,-0.000715503,-2.55903,-0.0339549,-1.7376,182.985,0.259202,
2,0,0,1,0,60299.3,0.257103,0.256769,-3.19528,31,0.0162581,10,-0.000820449,-2.49549,-0.0424517,-1.38981,169.693,0.256769,
2,0,0,1,0,60299.3,0.254706,0.254373,-3.58418,31,0.0162378,10,-0.000911717,-2.44561,-0.0508458,-1.16037,160.174,0.254373,
2,0,0,1,0,60299.3,0.2523,0.251945,-3.95541,31,0.0162151,10,-0.000996547,-2.40281,-0.0602877,-0.97864,149.686,0.251945,
2,0,0,1,0,60299.3,0.249903,0.249581,-4.3101,31,0.0161903,10,-0.00107572,-2.36551,-0.0688427,-0.857026,142.86,0.249581,
2,0,0,1,0,60299.3,0.247506,0.247163,-4.6272,31,0.0161634,10,-0.00114367,-2.33468,-0.078503,-0.751564,135.111,0.247163,
2,0,0,1,0,60299.3,0.245109,0.244784,-4.94416,31,0.0161346,10,-0.00121025,-2.30591,-0.0887614,-0.664704,127.687,0.244784,
2,0,0,1,0,60299.3,0.242701,0.24235,-5.24878,31,0.016104,10,-0.00127204,-2.27994,-0.099219,-0.594644,121.121,0.24235,
2,0,0,1,0,60299.3,0.240304,0.239966,-5.52923,31,0.0160717,10,-0.00132683,-2.25734,-0.110664,-0.533147,114.531,0.239966,
2,0,0,1,0,60299.3,0.237906,0.237523,-5.79085,31,0.0160377,10,-0.00137546,-2.23726,-0.123634,-0.477216,107.493,0.237523,
2,0,0,1,0,60299.3,0.235501,0.23512,-6.0423,31,0.0160022,10,-0.00142066,-2.2188,-0.136606,-0.431898,101.67,0.23512,
2,0,0,1,0,60299.3,0.233104,0.232766,-6.29025,31,0.0159651,10,-0.00146415,-2.20133,-0.146213,-0.403521,98.7239,0.232766,
2,0,0,1,0,60299.4,0.230707,0.230335,-6.52363,31,0.0159267,10,-0.00150262,-2.18551,-0.157052,-0.375673,95.3822,0.230335,
2,0,0,1,0,60299.4,0.22831,0.227965,-6.73239,31,0.0158869,10,-0.00153475,-2.17183,-0.169949,-0.347164,91.2155,0.227965,
2,0,0,1,0,60299.4,0.225902,0.225572,-6.95589,31,0.0158458,10,-0.00156905,-2.15765,-0.182115,-0.323971,87.7104,0.225572,
2,0,0,1,0,60299.4,0.223504,0.223165,-7.16376,31,0.0158034,10,-0.0015987,-2.14486,-0.199394,-0.295896,82.5032,0.223165,
2,0,0,1,0,60299.4,0.221107,0.220745,-7.34998,31,0.0157598,10,-0.00162247,-2.13371,-0.210727,-0.279983,80.3228,0.220745,
2,0,0,1,0,60299.4,0.218699,0.21835,-7.54772,31,0.0157152,10,-0.00164804,-2.12218,-0.221655,-0.266179,78.2241,0.21835,
2,0,0,1,0,60299.4,0.216302,0.215931,-7.72976,31,0.0156693,10,-0.00166909,-2.11183,-0.235186,-0.250865,75.5779,0.215931,
2,0,0,1,0,60299.4,0.213905,0.213519,-7.90312,31,0.0156224,10,-0.00168747,-2.1022,-0.255117,-0.231267,71.3398,0.213519,
2,0,0,1,0,60299.4,0.211505,0.211184,-8.07301,31,0.0155744,10,-0.00170489,-2.09296,-0.264389,-0.223156,70.292,0.2111844,
2,0,0,1,0,60299.4,0.209102,0.208743,-8.24248,31,0.0155254,10,-0.00172056,-2.08394,-0.270474,-0.218136,70.1416,0.208743,
2,0,0,1,0,60299.4,0.206705,0.206353,-8.41841,31,0.0154755,10,-0.00173717,-2.07477,-0.292242,-0.201888,66.174,0.2063532,
2,0,0,1,0,60299.4,0.204308,0.203955,-8.56452,31,0.0154245,10,-0.00174677,-2.0673,-0.295867,-0.199414,66.6333,0.203955,
2,0,0,1,0,60299.4,0.2019,0.201527,-8.72296,31,0.0153726,10,-0.00175791,-2.05934,-0.304895,-0.193509,65.8511,0.201527,
2,0,0,1,0,60299.4,0.199503,0.19917,-8.87529,31,0.0153198,10,-0.00176769,-2.05182,-0.330211,-0.178674,61.806,0.19917,
2,0,0,1,0,60299.4,0.197106,0.196757,-9.01395,31,0.0152661,10,-0.00177355,-2.04509,-0.342087,-0.172471,60.7269,0.196757,
2,0,0,1,0,60299.4,0.194709,0.194372,-9.15606,31,0.0152116,10,-0.00177968,-2.03829,-0.347002,-0.170028,60.809,0.194372,
2,0,0,1,0,60299.5,0.192303,0.191951,-9.3132,31,0.0151561,10,-0.00178768,-2.0309,-0.360609,-0.163612,59.3785,0.191951,
2,0,0,1,0,60299.5,0.189906,0.189578,-9.44712,31,0.0150998,10,-0.00179096,-2.0247,-0.390755,-0.15099,55.6696,0.189578,
2,0,0,1,0,60299.5,0.187509,0.187159,-9.58496,31,0.0150427,10,-0.00179391,-2.01841,-0.383219,-0.153959,57.5908,0.187159,
2,0,0,1,0,60299.5,0.185101,0.184741,-9.73174,31,0.0149848,10,-0.00179785,-2.01181,-0.385461,-0.153063,58.0829,0.184741,
2,0,0,1,0,60299.5,0.182704,0.182388,-9.86623,31,0.014926,10,-0.00179948,-2.00585,-0.405857,-0.145372,55.9783,0.182388,
2,0,0,1,0,60299.5,0.180307,0.179922,-9.99941,31,0.0148664,10,-0.00179911,-2.00003,-0.394574,-0.149528,58.3778,0.179922,
2,0,0,1,0,60299.5,0.177904,0.177514,-10.1382,31,0.014806,10,-0.00179967,-1.99404,-0.396139,-0.148938,58.9368,0.177514,
2,0,0,1,0,60299.5,0.175501,0.175162,-10.2811,31,0.0147447,10,-0.00180086,-1.98796,-0.407269,-0.144868,58.0717,0.1751624,
2,0,0,1,0,60299.5,0.173104,0.172789,-10.4131,31,0.0146826,10,-0.00179927,-1.98242,-0.412752,-0.142943,58.1146,0.172789,
2,0,0,1,0,60299.5,0.170707,0.17034,-10.5459,31,0.0146197,10,-0.00179638,-1.97692,-0.405973,-0.14533,59.9035,0.17034,
2,0,0,1,0,60299.5,0.168302,0.167961,-10.7004,31,0.0145559,10,-0.00179726,-1.9706,-0.409555,-0.144059,60.1202,0.167961,
2,0,0,1,0,60299.5,0.165905,0.165566,-10.8431,31,0.0144912,10,-0.00179525,-1.96485,-0.421401,-0.140009,59.2427,0.165566,
2,0,0,1,0,60299.5,0.163507,0.163152,-10.986,31,0.0144258,10,-0.0017924,-1.95916,-0.404825,-0.145742,62.568,0.163152,
2,0,0,1,0,60299.5,0.161099,0.160758,-11.1493,31,0.0143593,10,-0.00179234,-1.95275,-0.394223,-0.149661,65.0707,0.160758,
2,0,0,1,0,60299.5,0.158702,0.158335,-11.2991,31,0.014292,10,-0.00178905,-1.94695,-0.388348,-0.151926,67.0306,0.158335,
2,0,0,1,0,60299.5,0.156305,0.155955,-11.4627,31,0.0142237,10,-0.00178767,-1.94071,-0.374827,-0.157406,70.511,0.155955,
2,0,0,1,0,60299.5,0.153908,0.15354,-11.6363,31,0.0141544,10,-0.00178663,-1.93419,-0.352747,-0.167259,76.0231,0.15354,
2,0,0,1,0,60299.6,0.151503,0.151109,-11.8225,31,0.014084,10,-0.00178648,-1.92729,-0.348738,-0.169181,78.0983,0.1511092,
2,0,0,1,0,60299.6,0.149105,0.148791,-12.0151,31,0.0140124,10,-0.00178775,-1.92027,-0.330362,-0.178592,83.8259,0.148791,
2,0,0,1,0,60299.6,0.146708,0.146368,-12.2198,31,0.0139397,10,-0.00178859,-1.91294,-0.309809,-0.19044,90.95,0.146368,
2,0,0,1,0,60299.6,0.1443,0.143953,-12.4577,31,0.0138657,10,-0.00179332,-1.90456,-0.290852,-0.202852,98.6241,0.143953,
2,0,0,1,0,60299.6,0.141903,0.141565,-12.6898,31,0.0137902,10,-0.00179642,-1.89655,-0.280805,-0.21011,104.171,0.1415645,
2,0,0,1,0,60299.6,0.139506,0.139214,-12.947,31,0.0137133,10,-0.0018024,-1.88783,-0.266059,-0.221755,112.326,0.139214,
2,0,0,1,0,60299.6,0.137109,0.136742,-13.2319,31,0.0136347,10,-0.00180936,-1.87838,-0.243923,-0.24188,125.145,0.136742,
2,0,0,1,0,60299.6,0.134701,0.134355,-13.5574,31,0.0135543,10,-0.0018215,-1.86782,-0.227848,-0.258944,137.084,0.134355,
2,0,0,1,0,60299.6,0.132303,0.13197,-13.882,31,0.013472,10,-0.00183201,-1.85755,-0.215679,-0.273555,148.582,0.13197,
2,0,0,1,0,60299.6,0.129906,0.129528,-14.2631,31,0.0133875,10,-0.00184747,-1.84579,-0.203065,-0.290547,161.943,0.129528,
2,0,0,1,0,60299.6,0.127501,0.127172,-14.6739,31,0.0133007,10,-0.0018661,-1.83346,-0.193625,-0.304712,174.557,0.127172,
2,0,0,1,0,60299.6,0.125104,0.124792,-15.0879,31,0.0132114,10,-0.00188286,-1.82137,-0.19072,-0.309353,182.476,0.124792,
2,0,0,1,0,60299.6,0.122707,0.122348,-15.5375,31,0.0131194,10,-0.00190098,-1.80862,-0.184139,-0.32041,194.551,0.1223478,
2,0,0,1,0,60299.6,0.12031,0.119983,-16.0205,31,0.0130247,10,-0.00192219,-1.79532,-0.18508,-0.318781,199.383,0.1199831,
2,0,0,1,0,60299.6,0.117901,0.117519,-16.5183,31,0.012927,10,-0.00194121,-1.78203,-0.183275,-0.321921,207.531,0.117519,
2,0,0,1,0,60299.6,0.115504,0.115154,-17.0202,31,0.0128264,10,-0.00195995,-1.76904,-0.1856,-0.317889,211.185,0.115154,
2,0,0,1,0,60299.6,0.113107,0.112792,-17.5336,31,0.0127227,10,-0.00197765,-1.75613,-0.188016,-0.313803,214.727,0.112792,
2,0,0,1,0,60299.7,0.110702,0.110391,-18.0608,31,0.0126158,10,-0.00199374,-1.74326,-0.19255,-0.306415,215.735,0.110391,
2,0,0,1,0,60299.7,0.108305,0.107928,-18.5775,31,0.0125059,10,-0.00200504,-1.73101,-0.197053,-0.299412,216.958,0.107928,
2,0,0,1,0,60299.7,0.105908,0.105554,-19.0912,31,0.0123929,10,-0.00201515,-1.71917,-0.205275,-0.28742,214.014,0.105554,
2,0,0,1,0,60299.7,0.103505,0.103165,-19.6135,31,0.0122767,10,-0.00202343,-1.70745,-0.213901,-0.275829,210.741,0.103165,
2,0,0,1,0,60299.7,0.101102,0.100782,-20.0779,31,0.0121576,10,-0.00202349,-1.69728,-0.223061,-0.264502,207.376,0.100782,
2,0,0,1,0,60299.7,0.0987052,0.0984028,-20.5906,31,0.0120355,10,-0.00202617,-1.68633,-0.225499,-0.261642,210.169,0.0984028,
2,0,0,1,0,60299.7,0.0963081,0.0959999,-21.0951,31,0.0119104,10,-0.00202513,-1.67582,-0.236944,-0.249004,204.741,0.0959999,
2,0,0,1,0,60299.7,0.0938999,0.0936076,-21.5804,31,0.0117823,10,-0.00202009,-1.66594,-0.254047,-0.23224,195.305,0.0936076,
2,0,0,1,0,60299.7,0.0915028,0.0911761,-22.0342,31,0.0116514,10,-0.00200899,-1.6569,-0.26961,-0.218835,188.05,0.0911761,
2,0,0,1,0,60299.7,0.0891057,0.0887478,-22.4889,31,0.0115178,10,-0.00199584,-1.64803,-0.284037,-0.207719,182.065,0.0887478,
2,0,0,1,0,60299.7,0.0867002,0.0863958,-22.9216,31,0.0113816,10,-0.00198033,-1.63976,-0.303352,-0.194493,173.761,0.0863958,
2,0,0,1,0,60299.7,0.0843032,0.0839865,-23.3204,31,0.0112428,10,-0.0019586,-1.63226,-0.321506,-0.183511,166.85,0.0839865,
2,0,0,1,0,60299.7,0.081906,0.0815794,-23.7013,31,0.0111017,10,-0.00193354,-1.62523,-0.345309,-0.170861,157.971,0.0815794,
2,0,0,1,0,60299.7,0.0795089,0.0791861,-24.0675,31,0.0109583,10,-0.00190581,-1.61857,-0.375794,-0.157001,147.351,0.0791861,
2,0,0,1,0,60299.7,0.0771007,0.0768235,-24.4137,31,0.0108128,10,-0.00187554,-1.61237,-0.408498,-0.144432,137.479,0.07682348,
2,0,0,1,0,60299.7,0.0747036,0.0743867,-24.7336,31,0.0106653,10,-0.00183985,-1.60671,-0.44904,-0.131392,126.736,0.0743867,
2,0,0,1,0,60299.8,0.0723065,0.0720485,-25.0335,31,0.010516,10,-0.00180363,-1.60148,-0.475804,-0.124001,121.022,0.0720485,
2,0,0,1,0,60299.8,0.0699011,0.0696,-25.3192,31,0.0103649,10,-0.00176222,-1.59655,-0.526627,-0.112034,110.569,0.0696,
2,0,0,1,0,60299.8,0.067504,0.06723,-25.5607,31,0.0102123,10,-0.00171845,-1.59243,-0.575371,-0.102543,102.244,0.06723,
2,0,0,1,0,60299.8,0.0651069,0.0647836,-25.8064,31,0.0100581,10,-0.00167183,-1.58827,-0.631641,-0.0934074,93.9713,0.0647836,
2,0,0,1,0,60299.8,0.0627098,0.0623585,-26.0113,31,0.00990263,10,-0.00162202,-1.58484,-0.736495,-0.0801091,81.2713,0.06235848,
2,0,0,1,0,60299.8,0.0603016,0.0599418,-26.2002,31,0.00974596,10,-0.00157049,-1.5817,-0.817825,-0.0721426,73.7111,0.0599418,
2,0,0,1,0,60299.8,0.0579045,0.0575654,-26.3669,31,0.00958824,10,-0.00151782,-1.57894,-0.952929,-0.0619144,63.6598,0.0575654,
2,0,0,1,0,60299.8,0.0555074,0.0551456,-26.5067,31,0.0094296,10,-0.00146173,-1.57664,-1.06632,-0.0553305,57.2134,0.0551456,
2,0,0,1,0,60299.8,0.0530992,0.0527311,-26.6419,31,0.00927015,10,-0.00140486,-1.57443,-1.21337,-0.0486251,50.5136,0.0527311,
2,0,0,1,0,60299.8,0.0507021,0.0503494,-26.7514,31,0.00910996,10,-0.00134691,-1.57265,-1.42794,-0.0413184,43.1073,0.0503494,
2,0,0,1,0,60299.8,0.048305,0.0480048,-26.8427,31,0.00894918,10,-0.00128858,-1.57117,-1.69235,-0.0348627,36.5109,0.0480048,
2,0,0,1,0,60299.8,0.0459051,0.0456083,-26.9203,31,0.00878788,10,-0.00122779,-1.56992,-2.06827,-0.0285263,29.9585,0.0456083,
2,0,0,1,0,60299.8,0.0435024,0.0431874,-26.9844,31,0.00862612,10,-0.00116538,-1.56889,-2.33435,-0.0252747,26.6137,0.0431874,
2,0,0,1,0,60299.8,0.0411053,0.040793,-27.0499,31,0.008464,10,-0.00110345,-1.56783,-3.09011,-0.0190932,20.1464,0.040793,
2,0,0,1,0,60299.8,0.0387082,0.0383795,-27.0957,31,0.00830155,10,-0.00103992,-1.5671,-3.66591,-0.0160943,17.011,0.0383795,
2,0,0,1,0,60299.8,0.0363,0.0359321,-27.1261,31,0.0081389,10,-0.000974697,-1.56661,-4.95892,-0.0118978,12.5949,0.03593209,
2,0,0,1,0,60299.8,0.0339029,0.033543,-27.1532,31,0.00797605,10,-0.000910799,-1.56618,-7.06002,-0.00835691,8.85136,0.033543,
2,0,0,1,0,60299.9,0.0315058,0.0311868,-27.1701,31,0.00781306,10,-0.000847347,-1.56591,-12.6171,-0.00467618,4.95728,0.0311868,
2,0,0,1,0,60299.9,0.0291087,0.0287351,-27.1672,31,0.00765006,10,-0.000780652,-1.56596,-30.9613,-0.0019056,2.02107,0.0287351,
2,0,0,1,0,60299.9,0.0267033,0.0263418,-27.1808,31,0.00748699,10,-0.00071599,-1.56574,115.264,0.000511869,-0.542706,0.0263418,
2,0,0,1,0,60299.9,0.0243062,0.023976,-27.1719,31,0.00732391,10,-0.000651473,-1.56588,11.75,0.00502127,-5.32288,0.023976,
2,0,0,1,0,60299.9,0.0219091,0.0215519,-27.1513,31,0.00716093,10,-0.000585164,-1.56621,8.63014,0.00683651,-7.24579,0.0215519,
2,0,0,1,0,60299.9,0.0195009,0.0191512,-27.1358,31,0.00699805,10,-0.000519683,-1.56646,6.77204,0.0087123,-9.22558,0.01915116,
2,0,0,1,0,60299.9,0.0171038,0.016743,-27.1152,31,0.00683529,10,-0.00045399,-1.56679,4.38584,0.0134524,-14.2302,0.016743,
2,0,0,1,0,60299.9,0.0147067,0.0143518,-27.0764,31,0.00667272,10,-0.000388595,-1.56741,3.54923,0.0166233,-17.5609,0.0143518,
2,0,0,1,0,60299.9,0.012304,0.0119849,-27.0328,31,0.00651041,10,-0.000323986,-1.56811,3.37309,0.0174914,-18.4495,0.0119849,
2,0,0,1,0,60299.9,0.00990136,0.00951949,-26.9833,31,0.00634839,10,-0.000256867,-1.56891,2.86739,0.0205762,-21.6609,0.00951949,
2,0,0,1,0,60299.9,0.00750426,0.00715054,-26.924,31,0.00618667,10,-0.000192521,-1.56986,2.2583,0.0261259,-27.437,0.00715054,
2,0,0,1,0,60299.9,0.00510715,0.00476993,-26.8416,31,0.00602536,10,-0.000128032,-1.57119,2.54154,0.0232143,-24.3421,0.00476993,
2,0,0,1,0,60299.9,0.00270173,0.00234796,-26.7737,31,0.00586451,10,-6.28636e-05,-1.57229,2.13316,0.0276585,-28.9077,0.00234796,
2,0,0,1,0,60299.9,0.000304623,-0.000129148,-26.7222,31,0.00570392,10,3.45113e-06,-1.57313,1.74666,0.0337788,-35.1775,-0.000129148,
2,0,0,1,0,60299.9,-0.00209248,-0.00251931,-26.61,31,0.00554392,10,6.70387e-05,-1.57496,1.38851,0.0424915,-44.1326,-0.00251931,
2,0,0,1,0,60299.9,-0.00450068,-0.00488507,-26.5105,31,0.0053846,10,0.000129506,-1.57658,1.31771,0.0447747,-46.3115,-0.00488507,
2,0,0,1,0,60299.9,-0.00689779,-0.00730068,-26.3981,31,0.00522589,10,0.000192724,-1.57843,1.3029,0.0452835,-46.6248,-0.007300681,
2,0,0,1,0,60300,-0.00929489,-0.00968872,-26.2754,31,0.00506789,10,0.000254575,-1.58045,1.1849,0.0497932,-51.0555,-0.00968872,
2,0,0,1,0,60300,-0.011692,-0.0121011,-26.1474,31,0.00491065,10,0.000316413,-1.58257,1.12537,0.052427,-53.4923,-0.0121011,
2,0,0,1,0,60300,-0.0140974,-0.0144786,-26.0139,31,0.00475416,10,0.000376644,-1.58479,1.07645,0.0548099,-55.6408,-0.0144786,
2,0,0,1,0,60300,-0.0164945,-0.0169069,-25.8833,31,0.00459847,10,0.000437607,-1.58698,1.03309,0.0571103,-57.6738,-0.0169069,
2,0,0,1,0,60300,-0.0188916,-0.0193098,-25.7346,31,0.00444362,10,0.00049693,-1.58948,1.02814,0.057385,-57.6492,-0.0193098,
2,0,0,1,0,60300,-0.0212998,-0.0216756,-25.5944,31,0.00428965,10,0.000554772,-1.59186,1.0155,0.0580992,-58.044,-0.0216756,
2,0,0,1,0,60300,-0.0236969,-0.0241071,-25.4624,31,0.00413648,10,0.000613823,-1.5941,0.981384,0.0601192,-59.7096,-0.0241071,
2,0,0,1,0,60300,-0.026094,-0.0264919,-25.3115,31,0.00398415,10,0.000670551,-1.59668,1.00096,0.0589435,-58.2429,-0.0264919,
2,0,0,1,0,60300,-0.0284912,-0.0288789,-25.1651,31,0.00383275,10,0.000726739,-1.5992,1.01784,0.0579658,-56.9731,-0.0288789,
2,0,0,1,0,60300,-0.0308994,-0.031338,-25.0544,31,0.0036821,10,0.000785153,-1.60112,1.04515,0.0564514,-55.1619,-0.031338,
2,0,0,1,0,60300,-0.0332965,-0.0337281,-24.9069,31,0.00353223,10,0.000840065,-1.60368,1.03868,0.0568029,-55.2354,-0.0337281,
2,0,0,1,0,60300,-0.0356936,-0.0360876,-24.7765,31,0.00338321,10,0.000894125,-1.60596,1.13241,0.0521011,-50.4206,-0.03608755,
2,0,0,1,0,60300,-0.038099,-0.0385085,-24.6697,31,0.00323489,10,0.000949993,-1.60784,1.21552,0.048539,-46.7249,-0.0385085,
2,0,0,1,0,60300,-0.0404961,-0.0408933,-24.5496,31,0.00308723,10,0.00100392,-1.60996,1.20644,0.0489041,-46.8635,-0.0408933,
2,0,0,1,0,60300,-0.0428932,-0.043292,-24.4345,31,0.00294028,10,0.00105782,-1.612,1.33718,0.0441227,-42.1004,-0.043292,
2,0,0,1,0,60300,-0.0452903,-0.0456726,-24.3341,31,0.00279396,10,0.0011114,-1.61379,1.42051,0.0415343,-39.4667,-0.0456726,
2,0,0,1,0,60300.1,-0.0476985,-0.0480903,-24.2512,31,0.00264819,10,0.00116625,-1.61527,1.54397,0.0382131,-36.1704,-0.0480903,
2,0,0,1,0,60300.1,-0.0500956,-0.050455,-24.1647,31,0.00250293,10,0.00121923,-1.61682,1.54294,0.0382386,-36.072,-0.050455,
2,0,0,1,0,60300.1,-0.0524927,-0.0528695,-24.0798,31,0.00235821,10,0.00127309,-1.61835,1.86481,0.0316386,-29.7638,-0.0528695,
2,0,0,1,0,60300.1,-0.0548981,-0.0552841,-24.0272,31,0.0022139,10,0.00132832,-1.6193,2.16435,0.0272599,-25.5606,-0.0552841,
2,0,0,1,0,60300.1,-0.0572953,-0.0577082,-23.9651,31,0.00206993,10,0.00138299,-1.62042,2.19859,0.0268354,-25.1008,-0.0577082,
2,0,0,1,0,60300.1,-0.0596924,-0.0600814,-23.9007,31,0.00192634,10,0.00143599,-1.62159,2.89447,0.0203837,-19.0301,-0.0600814,
2,0,0,1,0,60300.1,-0.062095,-0.062515,-23.8719,31,0.00178305,10,0.00149235,-1.62211,3.57898,0.0164852,-15.3557,-0.062515,
2,0,0,1,0,60300.1,-0.0644977,-0.0649115,-23.8333,31,0.00163993,10,0.00154706,-1.62282,4.02095,0.0146731,-13.6458,-0.0649115,
2,0,0,1,0,60300.1,-0.0668948,-0.0672858,-23.7978,31,0.00149705,10,0.00160125,-1.62346,4.27199,0.0138109,-12.8326,-0.0672858,
2,0,0,1,0,60300.1,-0.0692919,-0.0697067,-23.7738,31,0.00135436,10,0.0016572,-1.6239,8.06771,0.00731311,-6.78781,-0.0697067,
2,0,0,1,0,60300.1,-0.0717001,-0.0720576,-23.7654,31,0.00121173,10,0.00171248,-1.62405,15.2563,0.00386726,-3.58664,-0.0720576,
2,0,0,1,0,60300.1,-0.0740972,-0.074487,-23.7537,31,0.00106918,10,0.00176934,-1.62427,12.5999,0.00468256,-4.34305,-0.074487,
2,0,0,1,0,60300.1,-0.0764943,-0.0769058,-23.7561,31,0.000926665,10,0.00182698,-1.62422,-49.8359,-0.00118388,1.09793,-0.0769058,
2,0,0,1,0,60300.1,-0.0788997,-0.0792737,-23.766,31,0.000784135,10,0.00188402,-1.62404,-12.3257,-0.00478675,4.43989,-0.0792737,
2,0,0,1,0,60300.1,-0.0812968,-0.0816723,-23.7828,31,0.00064149,10,0.00194239,-1.62374,-10.8915,-0.00541709,5.02605,-0.0816723,
2,0,0,1,0,60300.1,-0.0836939,-0.084089,-23.7937,31,0.000498774,10,0.00200079,-1.62354,-5.59426,-0.0105465,9.79897,-0.084089,
2,0,0,1,0,60300.1,-0.086091,-0.0864304,-23.8149,31,0.000355973,10,0.00205833,-1.62315,-3.78416,-0.0155913,14.501,-0.0864304,
2,0,0,1,0,60300.2,-0.0884992,-0.0888492,-23.8659,31,0.000212904,10,0.00212046,-1.62222,-3.54778,-0.0166301,15.4804,-0.0888492,
2,0,0,1,0,60300.2,-0.0908963,-0.0912372,-23.8908,31,6.96199e-05,10,0.00217973,-1.62177,-3.42268,-0.017238,16.0823,-0.0912372,
2,0,0,1,0,60300.2,-0.0932934,-0.0936804,-23.9382,31,-7.3853e-05,10,0.00224253,-1.62091,-2.7153,-0.0217288,20.3101,-0.0936804,
2,0,0,1,0,60300.2,-0.0956989,-0.0961299,-24.0035,31,-0.000217685,10,0.00230745,-1.61973,-2.40825,-0.0244991,22.9393,-0.0961299,
2,0,0,1,0,60300.2,-0.098096,-0.098448,-24.0451,31,-0.000361836,10,0.00236719,-1.61897,-4.4986,-0.0131152,12.2928,-0.098448,
2,0,0,0,0,60300.2,-0.0999548,-0.100343,-24.081,31,-0.000474964,10,0.00241635,-1.61833,0.0315852,1.86796,-1664.31,-0.100343,
2,0,0,1,1,60300.2,-0.0994555,-0.0999431,-22.9377,31,-0.000514667,10,0.00229247,-1.63945,-0.0306346,-1.92593,1601.1,-0.0999431,
2,0,0,1,1,60300.2,-0.0970583,-0.0974607,-19.6238,31,-0.000641392,10,0.00191255,-1.70722,-0.037266,-1.58321,1231.32,-0.0974607,
2,0,0,1,1,60300.2,-0.0946501,-0.095079,-17.1148,31,-0.000751167,10,0.00162726,-1.76663,-0.0410747,-1.43641,968.4,-0.095079,
2,0,0,1,1,60300.2,-0.092253,-0.0927112,-14.9836,31,-0.000847127,10,0.00138914,-1.82438,-0.0412189,-1.43138,841.145,-0.0927112,
2,0,0,1,1,60300.2,-0.0898559,-0.0902934,-13.111,31,-0.000931126,10,0.00118384,-1.88236,-0.0404895,-1.45717,745.787,-0.0902934,
2,0,0,1,1,60300.2,-0.0874588,-0.0879139,-11.408,31,-0.00100445,10,0.00100293,-1.94279,-0.038192,-1.54483,686.355,-0.0879139,
2,0,0,1,1,60300.2,-0.0850534,-0.0854675,-9.82789,31,-0.00106791,10,0.000839965,-2.00754,-0.0361414,-1.63248,624.911,-0.0854675,
2,0,0,1,1,60300.2,-0.0826563,-0.0830901,-8.38982,31,-0.00112237,10,0.000697111,-2.07625,-0.03303,-1.78626,581.417,-0.0830901,
2,0,0,1,1,60300.2,-0.0802592,-0.0807275,-7.04585,31,-0.0011685,10,0.000568794,-2.15207,-0.0295883,-1.99403,542.32,-0.0807275,
2,0,0,1,1,60300.2,-0.077851,-0.0782758,-5.76916,31,-0.00120681,10,0.000451586,-2.23889,-0.0257922,-2.28751,508.101,-0.0782758,
2,0,0,1,1,60300.2,-0.0754539,-0.0758592,-4.58621,31,-0.00123774,10,0.000347906,-2.33855,-0.0215044,-2.74363,479.807,-0.0758592,
2,0,0,1,1,60300.3,-0.0730568,-0.0734584,-3.47718,31,-0.00126179,10,0.000255428,-2.45877,-0.0168536,-3.50074,453.147,-0.0734584,
2,0,0,1,1,60300.3,-0.0706597,-0.0710545,-2.42565,31,-0.00127936,10,0.000172353,-2.61517,-0.0116034,-5.08471,433.769,-0.0710545,
2,0,0,1,1,60300.3,-0.0682542,-0.0687014,-1.41729,31,-0.00129073,10,9.73697e-05,-2.84854,-0.00530611,-11.1193,405.219,-0.0687014,
2,0,0,1,1,60300.3,-0.0658571,-0.0662646,-0.474087,31,-0.00129627,10,3.14152e-05,-3.32414,-0.0162816,-3.62371,384.172,-0.0662646,
2,1,0,1,1,60300.3,-0.06346,-0.0638649,0.410739,31,-0.00129634,10,-2.62318e-05,-3.38643,0.0210797,2.7989,368.081,-0.0638649,
2,1,0,1,1,60300.3,-0.0610518,-0.0614885,1.28708,31,-0.00129112,10,-7.9141e-05,-2.89039,0.00498863,11.8269,346.642,-0.0614885,
2,1,0,1,1,60300.3,-0.0586547,-0.0591111,2.09661,31,-0.00128086,10,-0.000123933,-2.67848,0.0129991,4.53877,330.492,-0.0591111,
2,1,0,1,1,60300.3,-0.0562576,-0.056687,2.8642,31,-0.00126589,10,-0.000162363,-2.543,0.019751,2.98718,316.954,-0.056687,
2,1,0,1,1,60300.3,-0.053855,-0.0543075,3.60959,31,-0.0012464,10,-0.000196028,-2.44254,0.0265201,2.22473,302.737,-0.0543075,
2,1,0,1,1,60300.3,-0.0514523,-0.0519109,4.31272,31,-0.00122252,10,-0.000223878,-2.36525,0.0337863,1.74627,287.499,-0.0519109,
2,1,0,1,1,60300.3,-0.0490552,-0.0495176,4.9861,31,-0.00119455,10,-0.0002469,-2.30224,0.0408919,1.44283,276.912,-0.0495176,
2,1,0,1,1,60300.3,-0.0466581,-0.0471126,5.6333,31,-0.00116262,10,-0.0002654,-2.24924,0.0487065,1.21134,263.173,-0.0471126,
2,1,0,1,1,60300.3,-0.0442527,-0.0446991,6.25969,31,-0.00112684,10,-0.000279802,-2.20345,0.0563261,1.04747,253.054,-0.04469911,
2,1,0,1,1,60300.3,-0.0418556,-0.0422931,6.84883,31,-0.00108744,10,-0.000289658,-2.16438,0.0656086,0.899272,238.217,-0.0422931,
2,1,0,1,1,60300.3,-0.0394585,-0.0399093,7.40278,31,-0.00104462,10,-0.000295439,-2.13061,0.0735891,0.80175,230.532,-0.0399093,
2,1,0,1,1,60300.3,-0.0370558,-0.037483,7.94669,31,-0.000998519,10,-0.000297866,-2.09981,0.0822193,0.717593,221.431,-0.037483,
2,1,0,1,1,60300.3,-0.0346532,-0.0350844,8.46516,31,-0.00094918,10,-0.000296995,-2.07236,0.0935457,0.630707,207.246,-0.0350844,
2,1,0,1,1,60300.4,-0.0322561,-0.0327165,8.94699,31,-0.000896861,10,-0.000292714,-2.04832,0.103405,0.570573,198.762,-0.0327165,
2,1,0,1,1,60300.4,-0.0298589,-0.030268,9.41886,31,-0.000841703,10,-0.00028509,-2.026,0.112931,0.522443,191.49,-0.030268,
2,1,0,1,1,60300.4,-0.0274535,-0.0278227,9.87885,31,-0.000783745,10,-0.000274857,-2.00529,0.124412,0.474231,182.034,-0.0278227,
2,1,0,1,1,60300.4,-0.0250564,-0.0254665,10.2899,31,-0.000723188,10,-0.000262047,-1.98759,0.138029,0.427446,171.349,-0.0254665,
2,1,0,1,1,60300.4,-0.0226593,-0.0230541,10.6995,31,-0.000660165,10,-0.000246667,-1.97064,0.147369,0.400357,166.855,-0.0230541,
2,1,0,1,1,60300.4,-0.0202511,-0.0206735,11.0955,31,-0.000594734,10,-0.000229383,-1.95485,0.162231,0.363678,157.008,-0.0206735,
2,1,0,1,1,60300.4,-0.017854,-0.0182759,11.4513,31,-0.000527027,10,-0.000209282,-1.94115,0.176368,0.334528,149.303,-0.01827589,
2,1,0,1,1,60300.4,-0.0154569,-0.0158539,11.8019,31,-0.000457196,10,-0.000187106,-1.92805,0.190039,0.310463,142.894,-0.0158539,
2,1,0,1,1,60300.4,-0.0130598,-0.0134754,12.14,31,-0.000385309,10,-0.000163592,-1.91578,0.205069,0.287709,136.154,-0.0134754,
2,1,0,1,1,60300.4,-0.0106516,-0.0110513,12.4706,31,-0.000311419,10,-0.000137817,-1.90411,0.220853,0.267146,129.731,-0.01105134,
2,1,0,1,1,60300.4,-0.00825448,-0.00867497,12.7707,31,-0.000235674,10,-0.000110786,-1.89378,0.23954,0.246306,122.63,-0.008674968,
2,1,0,1,1,60300.4,-0.00585738,-0.00629329,13.0535,31,-0.000158182,10,-8.21493e-05,-1.88427,0.252787,0.233398,118.837,-0.006293294,
2,1,0,1,1,60300.4,-0.00345195,-0.00382785,13.3433,31,-7.89556e-05,10,-5.10762e-05,-1.87474,0.274105,0.215246,111.788,-0.00382785,
2,1,0,1,1,60300.4,-0.00105485,-0.00145042,13.5922,31,1.89269e-06,10,-1.97144e-05,-1.86671, , , ,-0.00145042,
2,1,0,0,1,60300.4,-7.54729e-05,-0.000497109,13.6879,31,3.59955e-05,10,-6.80437e-06,-1.86366, , , ,-0.000497109,