File: Figure_codes/Fig_3-5/rawdata_trumpetplot_data/after 10th/20221101_1-115_003_TrumpetPlot_ParaChange_from10_every3_05_CV_C01_31.csv
mode,ox/red,error,control changes,counter inc.,time/s,control/V,Ewe/V,<I>/mA,cycle number,(Q-Qo)/C,I Range,P/W,log(|I|),Tafel slope mV/dec,alpha_eff,dI/d(E-IR),E-IR/V,
2,0,0,1,0,62194.1,2.44065e-05,-0.000325324,-0.743058,32,0.0000000E+000,10,2.41734e-07,-3.12898, , , ,-0.000325324,
2,0,0,1,0,62194.1,0.00129787,0.000905386,-0.0649887,32,-1.97391e-05,10,-5.88399e-08,-4.18716, , , ,0.000905386,
2,1,0,1,0,62194.2,0.00279606,0.00247932,0.277507,32,-9.1721e-06,10,6.88029e-07,-3.55673,0.0143708,4.10556,177.944,0.00247932,
2,1,0,1,0,62194.3,0.00429425,0.00395657,0.437718,32,1.91635e-05,10,1.73186e-06,-3.35881,0.00860133,6.8594,91.7499,0.00395657,
2,1,0,1,0,62194.3,0.00579244,0.00541493,0.530602,32,5.6818e-05,10,2.87318e-06,-3.27523,0.0203774,2.89537,55.9957,0.00541493,
2,1,0,1,0,62194.4,0.00729063,0.00698613,0.59963,32,0.000100394,10,4.1891e-06,-3.22212,0.0333742,1.76783,40.1136,0.00698613,
2,1,0,1,0,62194.5,0.00878882,0.00843056,0.651425,32,0.00014835,10,5.49187e-06,-3.18614,0.0497981,1.18478,29.5575,0.00843056,
2,1,0,1,0,62194.6,0.010287,0.00990244,0.691048,32,0.000199633,10,6.84306e-06,-3.16049,0.0674977,0.874103,23.2099,0.00990244,
2,1,0,1,0,62194.6,0.0117852,0.0114332,0.720142,32,0.000253608,10,8.23355e-06,-3.14258,0.0819483,0.719966,20.1295,0.0114332,
2,1,0,1,0,62194.7,0.0132847,0.0129621,0.74842,32,0.00030977,10,9.70109e-06,-3.12585,0.0926311,0.636935,18.615,0.0129621,
2,1,0,1,0,62194.8,0.0147802,0.0144218,0.776032,32,0.000367855,10,1.11918e-05,-3.11012,0.105742,0.557963,16.8603,0.0144218,
2,1,0,1,0,62194.9,0.0162798,0.0158863,0.799823,32,0.000428043,10,1.27062e-05,-3.09701,0.12526,0.47102,14.6311,0.0158863,
2,1,0,1,0,62194.9,0.017778,0.0173982,0.820015,32,0.000489799,10,1.42668e-05,-3.08618,0.145469,0.405584,12.9358,0.0173982,
2,1,0,1,0,62195,0.0192761,0.0189512,0.839574,32,0.000552916,10,1.59109e-05,-3.07594,0.150735,0.391414,12.8091,0.0189512,
2,1,0,1,0,62195.1,0.0207743,0.0204204,0.859767,32,0.000617519,10,1.75568e-05,-3.06562,0.145572,0.405299,13.5531,0.0204204,
2,1,0,1,0,62195.2,0.0222725,0.0219317,0.878613,32,0.000683608,10,1.92695e-05,-3.0562,0.155998,0.37821,12.9545,0.02193168,
2,1,0,1,0,62195.2,0.0237707,0.0233984,0.897266,32,0.000751147,10,2.09945e-05,-3.04708,0.164716,0.358191,12.5269,0.0233984,
2,1,0,1,0,62195.3,0.0252689,0.024901,0.912997,32,0.000819953,10,2.27346e-05,-3.03953,0.178927,0.329744,11.7609,0.024901,
2,1,0,1,0,62195.4,0.0267671,0.026451,0.930998,32,0.000890138,10,2.46258e-05,-3.03105,0.168046,0.351094,12.7772,0.026451,
2,1,0,1,0,62195.5,0.0282653,0.0279153,0.95136,32,0.000961649,10,2.65575e-05,-3.02165,0.181846,0.32445,12.0313,0.0279153,
2,1,0,1,0,62195.5,0.0297644,0.0294392,0.968396,32,0.00103472,10,2.85088e-05,-3.01395,0.1975,0.298734,11.2709,0.02943922,
2,1,0,1,0,62195.6,0.0312599,0.0309106,0.984645,32,0.00110887,10,3.0436e-05,-3.00672,0.198249,0.297606,11.4639,0.0309106,
2,1,0,1,0,62195.7,0.0327599,0.0324543,1.00296,32,0.0011844,10,3.25503e-05,-2.99872,0.1907,0.309387,12.1278,0.03245433,
2,1,0,1,0,62195.8,0.034258,0.0339047,1.02114,32,0.0012613,10,3.46213e-05,-2.99092,0.187673,0.314376,12.5251,0.0339047,
2,1,0,1,0,62195.8,0.0357562,0.0353974,1.03794,32,0.00133955,10,3.67404e-05,-2.98383,0.219694,0.268555,10.8698,0.0353974,
2,1,0,1,0,62195.9,0.0372544,0.0368877,1.05677,32,0.00141908,10,3.89816e-05,-2.97602,0.214354,0.275246,11.352,0.0368877,
2,1,0,1,0,62196,0.0387526,0.0383846,1.07358,32,0.00149973,10,4.1209e-05,-2.96917,0.223099,0.264456,11.0924,0.0383846,
2,1,0,1,0,62196.1,0.0402508,0.0399298,1.09028,32,0.00158175,10,4.35346e-05,-2.96246,0.219197,0.269164,11.4507,0.0399298,
2,1,0,1,0,62196.1,0.041749,0.0414176,1.10952,32,0.00166522,10,4.59539e-05,-2.95486,0.220175,0.267969,11.5833,0.0414176,
2,1,0,1,0,62196.2,0.0432472,0.0429097,1.1273,32,0.00174999,10,4.83723e-05,-2.94796,0.240766,0.245051,10.7724,0.04290973,
2,1,0,1,0,62196.3,0.0447449,0.0444147,1.14204,32,0.00183595,10,5.07232e-05,-2.94232,0.219318,0.269016,11.9932,0.0444147,
2,1,0,1,0,62196.4,0.0462445,0.0459196,1.15956,32,0.00192331,10,5.32465e-05,-2.93571,0.22769,0.259124,11.7136,0.0459196,
2,1,0,1,0,62196.4,0.04774,0.0473884,1.17591,32,0.00201174,10,5.57246e-05,-2.92963,0.226233,0.260793,11.9681,0.0473884,
2,1,0,1,0,62196.5,0.0492399,0.0488784,1.19298,32,0.00210167,10,5.83112e-05,-2.92337,0.26248,0.224779,10.4663,0.04887845,
2,1,0,1,0,62196.6,0.0507381,0.0504076,1.20577,32,0.00219261,10,6.07801e-05,-2.91873,0.281249,0.209779,9.90044,0.0504076,
2,1,0,1,0,62196.7,0.0522363,0.0519063,1.2244,32,0.00228474,10,6.35541e-05,-2.91208,0.251303,0.234776,11.2181,0.0519063,
2,1,0,1,0,62196.7,0.0537345,0.0533958,1.24221,32,0.00237818,10,6.6329e-05,-2.9058,0.252425,0.233733,11.3202,0.0533958,
2,1,0,1,0,62196.8,0.0552327,0.0548711,1.25744,32,0.00247288,10,6.89973e-05,-2.90051,0.279824,0.210847,10.3306,0.0548711,
2,1,0,1,0,62196.9,0.0567309,0.056365,1.26979,32,0.00256867,10,7.15715e-05,-2.89627,0.30988,0.190396,9.45524,0.056365,
2,1,0,1,0,62197,0.0582291,0.0578849,1.28766,32,0.00266546,10,7.45358e-05,-2.8902,0.312449,0.188831,9.47507,0.0578849,
2,1,0,1,0,62197,0.0597291,0.0593616,1.30386,32,0.00276358,10,7.73994e-05,-2.88477,0.307633,0.191787,9.7312,0.0593616,
2,1,0,1,0,62197.1,0.0612246,0.0609343,1.31654,32,0.00286248,10,8.02224e-05,-2.88057,0.349903,0.168618,8.64977,0.0609343,
2,1,0,1,0,62197.2,0.0627241,0.0623919,1.32895,32,0.0029627,10,8.29156e-05,-2.87649,0.343493,0.171765,8.91316,0.0623919,
2,1,0,1,0,62197.3,0.0642218,0.0638834,1.3399,32,0.00306366,10,8.55976e-05,-2.87293,0.3507,0.168235,8.81234,0.0638834,
2,1,0,1,0,62197.3,0.06572,0.0654061,1.35498,32,0.00316567,10,8.86238e-05,-2.86807,0.323026,0.182648,9.65812,0.0654061,
2,1,0,1,0,62197.4,0.0672182,0.0669394,1.37096,32,0.00326887,10,9.17713e-05,-2.86297,0.351628,0.167791,8.95164,0.0669394,
2,1,0,1,0,62197.5,0.0687164,0.0683507,1.38205,32,0.00337296,10,9.44641e-05,-2.85948,0.428739,0.137613,7.41788,0.0683507,
2,1,0,1,0,62197.6,0.0702146,0.0698811,1.39197,32,0.00347784,10,9.72727e-05,-2.85637,0.401709,0.146872,7.98338,0.0698811,
2,1,0,1,0,62197.6,0.0717128,0.0713442,1.40388,32,0.00358363,10,0.000100159,-2.85267,0.41397,0.142523,7.80389,0.0713442,
2,1,0,1,0,62197.7,0.073211,0.0728566,1.41661,32,0.00369025,10,0.000103209,-2.84875,0.431142,0.136846,7.56461,0.0728566,
2,1,0,1,0,62197.8,0.0747092,0.0743483,1.42391,32,0.00379767,10,0.000105865,-2.84652,0.528684,0.111598,6.20184,0.0743483,
2,1,0,1,0,62197.9,0.0762087,0.0758464,1.43309,32,0.00390595,10,0.000108695,-2.84373,0.507332,0.116295,6.51628,0.0758464,
2,1,0,1,0,62197.9,0.0777042,0.0773459,1.44496,32,0.00401461,10,0.000111762,-2.84014,0.458601,0.128652,7.25032,0.0773459,
2,1,0,1,0,62198,0.0792037,0.078869,1.45512,32,0.00412439,10,0.000114764,-2.8371,0.470754,0.125331,7.11184,0.078869,
2,1,0,1,0,62198.1,0.0807019,0.0803659,1.46371,32,0.00423477,10,0.000117632,-2.83455,0.550263,0.107221,6.12024,0.0803659,
2,1,0,1,0,62198.2,0.0822001,0.0818674,1.47142,32,0.00434588,10,0.000120461,-2.83226,0.589032,0.100164,5.75769,0.0818674,
2,1,0,1,0,62198.2,0.0836983,0.083378,1.48157,32,0.00445755,10,0.00012353,-2.82928,0.535708,0.110135,6.37774,0.083378,
2,1,0,1,0,62198.3,0.0851965,0.084818,1.49372,32,0.00457003,10,0.000126694,-2.82573,0.463106,0.127401,7.42641,0.084818,
2,1,0,1,0,62198.4,0.0866947,0.0863438,1.50509,32,0.00468328,10,0.000129955,-2.82244,0.556195,0.106078,6.22282,0.0863438,
2,1,0,1,0,62198.5,0.0881929,0.0878424,1.5143,32,0.00479738,10,0.00013302,-2.81979,0.470476,0.125405,7.412,0.0878424,
2,1,0,1,0,62198.5,0.0896911,0.0893457,1.52452,32,0.00491219,10,0.00013621,-2.81687,0.465657,0.126703,7.55549,0.0893457,
2,1,0,1,0,62198.6,0.0911893,0.0908678,1.54104,32,0.00502794,10,0.000140031,-2.81219,0.383871,0.153697,9.23748,0.0908678,
2,1,0,1,0,62198.7,0.0926883,0.0923408,1.55602,32,0.005145,10,0.000143685,-2.80798,0.329409,0.179109,10.8661,0.0923408,
2,1,0,1,0,62198.8,0.0941839,0.0938191,1.57028,32,0.00526286,10,0.000147323,-2.80402,0.33292,0.17722,10.8685,0.0938191,
2,1,0,1,0,62198.8,0.0956838,0.095352,1.58636,32,0.00538224,10,0.000151263,-2.7996,0.279479,0.211107,13.0943,0.095352,
2,1,0,1,0,62198.9,0.097182,0.0968133,1.60607,32,0.00550285,10,0.000155489,-2.79424,0.252983,0.233217,14.6364,0.0968133,
2,1,0,1,0,62199,0.0986802,0.0983033,1.62974,32,0.00562516,10,0.000160209,-2.78788,0.236721,0.249239,15.8654,0.0983033,
2,1,0,1,0,62199.1,0.100178,0.0998556,1.65291,32,0.0057492,10,0.000165052,-2.78175,0.251936,0.234187,15.1131,0.0998556,
2,1,0,1,0,62199.1,0.101677,0.101325,1.67603,32,0.00587503,10,0.000169824,-2.77572,0.221158,0.266778,17.4923,0.101325,
2,1,0,1,0,62199.2,0.103175,0.102804,1.7068,32,0.00600272,10,0.000175467,-2.76782,0.208587,0.282856,18.8489,0.102804,
2,1,0,1,0,62199.3,0.104673,0.104329,1.73648,32,0.0061326,10,0.000181166,-2.76033,0.200846,0.293758,19.8947,0.104329,
2,1,0,1,0,62199.4,0.106171,0.105814,1.76434,32,0.00626477,10,0.000186691,-2.75342,0.208121,0.283489,19.494,0.105814,
2,1,0,1,0,62199.4,0.107669,0.107356,1.79261,32,0.00639913,10,0.000192447,-2.74651,0.222083,0.265666,18.5756,0.107356,
2,1,0,1,0,62199.5,0.109168,0.108826,1.82229,32,0.0065357,10,0.000198313,-2.73938,0.220222,0.267911,19.0699,0.108826,
2,1,0,1,0,62199.6,0.110664,0.110313,1.84961,32,0.00667407,10,0.000204037,-2.73292,0.224633,0.26265,18.9675,0.1103132,
2,1,0,1,0,62199.7,0.112164,0.111817,1.87821,32,0.00681506,10,0.000210015,-2.72626,0.244839,0.240974,17.6361,0.111817,
2,1,0,1,0,62199.7,0.113662,0.11334,1.90691,32,0.00695783,10,0.000216129,-2.71967,0.271689,0.21716,16.1105,0.11334,
2,1,0,1,0,62199.8,0.11516,0.11482,1.92747,32,0.00710229,10,0.000221312,-2.71501,0.290888,0.202827,15.2422,0.11482,
2,1,0,1,0,62199.9,0.116658,0.116327,1.94944,32,0.0072485,10,0.000226772,-2.71009,0.310332,0.190119,14.4442,0.116327,
2,1,0,1,0,62200,0.118157,0.117798,1.97188,32,0.00739643,10,0.000232282,-2.70512,0.348671,0.169214,12.9938,0.117798,
2,1,0,1,0,62200,0.119655,0.119301,1.98887,32,0.00754579,10,0.000237275,-2.70139,0.468461,0.125944,9.75752,0.119301,
2,1,0,1,0,62200.1,0.121153,0.120824,2.00018,32,0.00769623,10,0.00024167,-2.69893,0.494286,0.119364,9.3253,0.120824,
2,1,0,1,0,62200.2,0.122653,0.122324,2.01613,32,0.00784776,10,0.000246622,-2.69548,0.561983,0.104985,8.24819,0.122324,
2,1,0,1,0,62200.3,0.124149,0.123797,2.02604,32,0.00799989,10,0.000250818,-2.69335,0.633575,0.0931224,7.35492,0.123797,
2,1,0,1,0,62200.3,0.125648,0.125296,2.03503,32,0.00815323,10,0.000254981,-2.69143,0.804863,0.0733044,5.81254,0.125296,
2,1,0,1,0,62200.4,0.127146,0.126816,2.0402,32,0.00830697,10,0.000258729,-2.69033,0.967318,0.0609934,4.86117,0.126816,
2,1,0,1,0,62200.5,0.128644,0.128278,2.05014,32,0.00846119,10,0.000262987,-2.68822,1.23777,0.0476664,3.81111,0.1282776,
2,1,0,1,0,62200.6,0.130142,0.129762,2.0568,32,0.008616,10,0.000266895,-2.68681,1.04034,0.0567123,4.54777,0.129762,
2,1,0,1,0,62200.6,0.13164,0.131264,2.06172,32,0.0087713,10,0.000270628,-2.68577,2.65062,0.0222589,1.78728,0.131264,
2,1,0,1,0,62200.7,0.133139,0.132768,2.0635,32,0.00892688,10,0.000273967,-2.6854,-39.6891,-0.00148655,-0.119586,0.132768,
2,1,0,1,0,62200.8,0.134637,0.134303,2.06217,32,0.00908235,10,0.000276956,-2.68568,-2.61451,-0.0225664,-1.81541,0.134303,
2,1,0,1,0,62200.9,0.136135,0.135801,2.06057,32,0.00923775,10,0.000279828,-2.68601,-1.39457,-0.0423068,-3.39163,0.135801,
2,1,0,1,0,62200.9,0.137633,0.137289,2.05029,32,0.00939271,10,0.000281482,-2.68818,-0.586382,-0.100617,-8.02568,0.137289,
2,1,0,1,0,62201,0.139133,0.138802,2.03642,32,0.00954694,10,0.000282659,-2.69113,-0.337233,-0.174953,-13.8331,0.138802,
2,1,0,1,0,62201.1,0.140628,0.14031,2.01071,32,0.00969921,10,0.000282122,-2.69665,-0.252841,-0.233348,-18.2417,0.14031,
2,1,0,1,0,62201.2,0.142128,0.141781,1.97745,32,0.00984984,10,0.000280365,-2.7039,-0.193234,-0.30533,-23.4801,0.141781,
2,1,0,1,0,62201.2,0.143626,0.143273,1.94071,32,0.00999773,10,0.00027805,-2.71204,-0.158496,-0.372249,-28.0782,0.143273,
2,1,0,1,0,62201.3,0.145124,0.144733,1.89256,32,0.0101423,10,0.000273916,-2.72295,-0.127111,-0.464161,-34.1667,0.144733,
2,1,0,1,0,62201.4,0.146622,0.146269,1.83345,32,0.0102829,10,0.000268178,-2.73673,-0.107295,-0.549887,-39.2662,0.146269,
2,1,0,1,0,62201.5,0.14812,0.147764,1.77364,32,0.0104191,10,0.00026208,-2.75113,-0.0978286,-0.603096,-41.6309,0.147764,
2,1,0,1,0,62201.5,0.149619,0.149248,1.709,32,0.0105506,10,0.000255065,-2.76726,-0.0883096,-0.668104,-44.4814,0.149248,
2,1,0,1,0,62201.6,0.151117,0.150803,1.64307,32,0.0106771,10,0.00024778,-2.78435,-0.0830671,-0.710269,-45.47,0.150803,
2,1,0,1,0,62201.7,0.152615,0.152273,1.57369,32,0.0107985,10,0.000239631,-2.80308,-0.0837081,-0.70483,-43.3437,0.152273,
2,1,0,1,0,62201.8,0.154113,0.153761,1.50973,32,0.0109149,10,0.000232137,-2.8211,-0.0855478,-0.689673,-40.7315,0.153761,
2,1,0,1,0,62201.8,0.155613,0.155234,1.45187,32,0.0110269,10,0.000225379,-2.83807,-0.0874465,-0.674699,-38.2338,0.155234,
2,1,0,1,0,62201.9,0.157108,0.156767,1.39302,32,0.0111344,10,0.00021838,-2.85604,-0.0882812,-0.668319,-36.3835,0.156767,
2,1,0,1,0,62202,0.158608,0.15826,1.34278,32,0.011238,10,0.000212508,-2.872,-0.0940422,-0.627378,-32.9816,0.15826,
2,1,0,1,0,62202.1,0.160106,0.15978,1.29454,32,0.0113377,10,0.000206841,-2.88788,-0.101229,-0.582839,-29.5925,0.15978,
2,1,0,1,0,62202.1,0.161604,0.16126,1.2554,32,0.0114342,10,0.000202447,-2.90122,-0.116526,-0.506327,-24.8963,0.16126,
2,1,0,1,0,62202.2,0.163102,0.162762,1.22152,32,0.0115279,10,0.000198817,-2.9131,-0.123727,-0.476858,-22.7734,0.162762,
2,1,0,1,0,62202.3,0.164601,0.16422,1.18732,32,0.0116191,10,0.000194982,-2.92543,-0.134184,-0.439694,-20.4215,0.16422,
2,1,0,1,0,62202.4,0.166099,0.165782,1.15895,32,0.011708,10,0.000192133,-2.93594,-0.151895,-0.388426,-17.6162,0.165782,
2,1,0,1,0,62202.4,0.167597,0.167272,1.13669,32,0.0117949,10,0.000190137,-2.94436,-0.180866,-0.326208,-14.4938,0.167272,
2,1,0,1,0,62202.5,0.169095,0.168707,1.11591,32,0.0118802,10,0.000188263,-2.95237,-0.197386,-0.298906,-13.035,0.168707,
2,1,0,1,0,62202.6,0.170593,0.17024,1.09593,32,0.011964,10,0.000186571,-2.96022,-0.203736,-0.289591,-12.4154,0.17024,
2,1,0,1,0,62202.7,0.172092,0.171767,1.07772,32,0.0120466,10,0.000185116,-2.9675,-0.24004,-0.245792,-10.3625,0.171767,
2,1,0,1,0,62202.7,0.173588,0.173254,1.06593,32,0.0121277,10,0.000184676,-2.97227,-0.274589,-0.214866,-8.94763,0.173254,
2,1,0,1,0,62202.8,0.175088,0.174801,1.05192,32,0.0122081,10,0.000183876,-2.97802,-0.306284,-0.192632,-7.92138,0.174801,
2,1,0,1,0,62202.9,0.176586,0.176189,1.04194,32,0.0122875,10,0.000183579,-2.98216,-0.305085,-0.193389,-7.86007,0.176189,
2,1,0,1,0,62203,0.178084,0.177735,1.02949,32,0.0123661,10,0.000182976,-2.98738,-0.330713,-0.178403,-7.18948,0.177735,
2,1,0,1,0,62203,0.179582,0.179241,1.0204,32,0.0124438,10,0.000182898,-2.99123,-0.388588,-0.151832,-6.06494,0.179241,
2,1,0,1,0,62203.1,0.181081,0.180758,1.01477,32,0.012521,10,0.000183427,-2.99363,-0.409095,-0.144221,-5.70447,0.1807576,
2,1,0,1,0,62203.2,0.182579,0.182259,1.00606,32,0.0125977,10,0.000183364,-2.99737,-0.422266,-0.139722,-5.48246,0.182259,
2,1,0,1,0,62203.3,0.184077,0.183695,1.00158,32,0.0126739,10,0.000183985,-2.99932,-0.468135,-0.126032,-4.9196,0.183695,
2,1,0,1,0,62203.3,0.185577,0.18525,0.994687,32,0.0127495,10,0.000184265,-3.00231,-0.578677,-0.101957,-3.95726,0.18525,
2,1,0,1,0,62203.4,0.187073,0.186712,0.987704,32,0.0128246,10,0.000184417,-3.00537,-0.791343,-0.0745568,-2.87117,0.186712,
2,1,0,1,0,62203.5,0.188572,0.188228,0.982541,32,0.0128995,10,0.000184942,-3.00765,-0.795489,-0.0741682,-2.84343,0.188228,
2,1,0,1,0,62203.6,0.19007,0.189709,0.977559,32,0.0129739,10,0.000185452,-3.00986,-0.828965,-0.0711731,-2.71638,0.189709,
2,1,0,1,0,62203.6,0.191568,0.191197,0.973294,32,0.013048,10,0.000186091,-3.01176,-0.872003,-0.0676603,-2.57136,0.191197,
2,1,0,1,0,62203.7,0.193066,0.192706,0.968539,32,0.0131216,10,0.000186643,-3.01388,-1.60748,-0.0367033,-1.38783,0.192706,
2,1,0,1,0,62203.8,0.194564,0.194213,0.966809,32,0.0131952,10,0.000187767,-3.01466,-1.32156,-0.0446442,-1.68174,0.194213,
2,1,0,1,0,62203.9,0.196063,0.195718,0.96248,32,0.0132685,10,0.000188374,-3.01661,-0.704575,-0.0837384,-3.14731,0.195718,
2,1,0,1,0,62203.9,0.197561,0.197195,0.956428,32,0.0133414,10,0.000188603,-3.01935,-0.816578,-0.0722528,-2.70804,0.197195,
2,1,0,1,0,62204,0.199059,0.198713,0.956378,32,0.013414,10,0.000190045,-3.01937,-0.823839,-0.0716159,-2.67432,0.198713,
2,1,0,1,0,62204.1,0.200557,0.200236,0.954942,32,0.0134865,10,0.000191214,-3.02002,-1.26271,-0.0467249,-1.73664,0.200236,
2,1,0,1,0,62204.2,0.202057,0.201671,0.950296,32,0.0135589,10,0.000191647,-3.02214,-0.952426,-0.0619471,-2.29526,0.201671,
2,1,0,1,0,62204.2,0.203552,0.203222,0.946535,32,0.0136309,10,0.000192357,-3.02386,-2.00494,-0.0294273,-1.08936,0.203222,
2,1,0,1,0,62204.3,0.205052,0.20467,0.944915,32,0.0137028,10,0.000193396,-3.02461,-11.981,-0.00492445,-0.182238,0.20467,
2,1,0,1,0,62204.4,0.20655,0.206219,0.942119,32,0.0137745,10,0.000194283,-3.02589,-2.05079,-0.0287694,-1.06133,0.206219,
2,1,0,1,0,62204.5,0.208048,0.207679,0.941915,32,0.0138463,10,0.000195615,-3.02599,-1.26508,-0.0466372,-1.71301,0.207679,
2,1,0,1,0,62204.5,0.209546,0.209191,0.941079,32,0.0139179,10,0.000196865,-3.02637,-0.912069,-0.0646881,-2.37338,0.209191,
2,1,0,1,0,62204.6,0.211044,0.210712,0.936009,32,0.013989,10,0.000197228,-3.02872,-1.20982,-0.0487675,-1.78616,0.210712,
2,1,0,1,0,62204.7,0.212543,0.212224,0.935036,32,0.0140602,10,0.000198437,-3.02917,-5.23512,-0.01127,-0.411052,0.212224,
2,1,0,1,0,62204.8,0.214041,0.21369,0.933536,32,0.0141312,10,0.000199487,-3.02987,-1.44448,-0.040845,-1.49054,0.21369,
2,1,0,1,0,62204.8,0.215539,0.215187,0.93302,32,0.0142021,10,0.000200774,-3.03011,-1.25955,-0.0468423,-1.70577,0.215187,
2,1,0,1,0,62204.9,0.217037,0.216682,0.929937,32,0.0142727,10,0.0002015,-3.03155,-3.26931,-0.0180466,-0.656233,0.216682,
2,1,0,1,0,62205,0.218536,0.218232,0.928018,32,0.0143434,10,0.000202523,-3.03244,15.216,0.0038775,0.140672,0.218232,
2,1,0,1,0,62205.1,0.220032,0.219716,0.928871,32,0.0144139,10,0.000204088,-3.03204,-6.20468,-0.00950895,-0.344211,0.2197164,
2,1,0,1,0,62205.1,0.221532,0.221195,0.926785,32,0.0144844,10,0.000205,-3.03302,-1.57508,-0.0374583,-1.35477,0.221195,
2,1,0,1,0,62205.2,0.22303,0.222715,0.9225,32,0.0145547,10,0.000205455,-3.03503,-1.43852,-0.0410145,-1.48039,0.222715,
2,1,0,1,0,62205.3,0.224528,0.224159,0.922203,32,0.0146248,10,0.00020672,-3.03517,-2.01387,-0.0292968,-1.05473,0.2241585,
2,1,0,1,0,62205.4,0.226026,0.225702,0.921877,32,0.0146949,10,0.00020807,-3.03533,-1.90634,-0.0309494,-1.11282,0.225702,
2,1,0,1,0,62205.4,0.227525,0.22717,0.921921,32,0.0147649,10,0.000209433,-3.03531,-1.87548,-0.0314586,-1.12986,0.22717,
2,1,0,1,0,62205.5,0.229023,0.228717,0.920442,32,0.0148347,10,0.000210521,-3.036,-2.05121,-0.0287635,-1.03333,0.228717,
2,1,0,1,0,62205.6,0.230521,0.230175,0.916502,32,0.0149044,10,0.000210956,-3.03787,-7.93839,-0.00743224,-0.266461,0.230175,
2,1,0,1,0,62205.7,0.232019,0.231653,0.916177,32,0.0149741,10,0.000212235,-3.03802,-8.18549,-0.00720787,-0.25764,0.231653,
2,1,0,1,0,62205.7,0.233517,0.233158,0.916184,32,0.0150438,10,0.000213615,-3.03802,-3.94235,-0.0149657,-0.534732,0.233158,
2,1,0,1,0,62205.8,0.235016,0.234672,0.915464,32,0.0151134,10,0.000214834,-3.03836,-2.38334,-0.0247552,-0.883741,0.234672,
2,1,0,1,0,62205.9,0.236512,0.236148,0.912079,32,0.0151826,10,0.000215386,-3.03997,-4.72774,-0.0124795,-0.445101,0.236148,
2,1,0,1,0,62206,0.238012,0.237716,0.91283,32,0.0152521,10,0.000216995,-3.03961,-6.84377,-0.00862098,-0.306703,0.2377165,
2,1,0,1,0,62206,0.23951,0.239169,0.911706,32,0.0153214,10,0.000218052,-3.04015,-3.84604,-0.0153404,-0.546038,0.239169,
2,1,0,1,0,62206.1,0.241008,0.240677,0.911098,32,0.0153906,10,0.000219281,-3.04043,-1.57927,-0.037359,-1.32695,0.240677,
2,1,0,1,0,62206.2,0.242506,0.242185,0.908583,32,0.0154597,10,0.000220045,-3.04164,-2.70711,-0.0217945,-0.77367,0.242185,
2,1,0,1,0,62206.3,0.244005,0.243654,0.906679,32,0.0155287,10,0.000220916,-3.04255,-6.68853,-0.00882107,-0.312842,0.243654,
2,1,0,1,0,62206.3,0.245503,0.245187,0.910074,32,0.0155977,10,0.000223139,-3.04092,-3.34077,-0.0176606,-0.62663,0.245187,
2,1,0,1,0,62206.4,0.247001,0.246695,0.906404,32,0.0156667,10,0.000223606,-3.04268,-1.40257,-0.0420655,-1.48651,0.246695,
2,1,0,1,0,62206.5,0.248501,0.248164,0.905803,32,0.0157356,10,0.000224787,-3.04297,-2.77717,-0.0212447,-0.750472,0.248164,
2,1,0,1,0,62206.6,0.249997,0.249635,0.904272,32,0.0158042,10,0.000225738,-3.0437,-3.08994,-0.0190942,-0.6746,0.249635,
2,1,0,1,0,62206.6,0.251496,0.251114,0.903183,32,0.0158729,10,0.000226802,-3.04422,41.4451,0.00142357,0.0501766,0.251114,
2,1,0,1,0,62206.7,0.252994,0.252628,0.901724,32,0.0159415,10,0.000227801,-3.04493,-1.67761,-0.0351691,-1.23697,0.252628,
2,1,0,1,0,62206.8,0.254492,0.254171,0.900475,32,0.0160101,10,0.000228875,-3.04553,-1.47611,-0.03997,-1.40676,0.254171,
2,1,0,1,0,62206.9,0.25599,0.255657,0.899944,32,0.0160784,10,0.000230077,-3.04578,-7.80703,-0.00755729,-0.265522,0.2556566,
2,1,0,1,0,62206.9,0.257488,0.257153,0.899899,32,0.0161467,10,0.000231411,-3.04581,-33.502,-0.00176109,-0.0618425,0.257153,
2,1,0,1,0,62207,0.258987,0.258682,0.900269,32,0.0162151,10,0.000232884,-3.04563,-3.16392,-0.0186478,-0.653132,0.258682,
2,1,0,1,0,62207.1,0.260485,0.26018,0.898179,32,0.0162834,10,0.000233689,-3.04664,-1.37795,-0.0428173,-1.49844,0.2601805,
2,1,0,1,0,62207.2,0.261983,0.261671,0.895176,32,0.0163515,10,0.000234242,-3.04809,-8.55263,-0.00689846,-0.241601,0.261671,
2,1,0,1,0,62207.2,0.263481,0.263119,0.894976,32,0.0164195,10,0.000235485,-3.04819,29.0708,0.00202953,0.0708773,0.263119,
2,1,0,1,0,62207.3,0.264981,0.264619,0.893583,32,0.0164876,10,0.000236459,-3.04887,-3.09966,-0.0190343,-0.664571,0.264619,
2,1,0,1,0,62207.4,0.266476,0.266178,0.891246,32,0.0165554,10,0.00023723,-3.05,-3.49652,-0.0168739,-0.587972,0.2661781,
2,1,0,1,0,62207.5,0.267976,0.267636,0.889495,32,0.0166233,10,0.000238061,-3.05086,-1.81991,-0.0324192,-1.12904,0.2676363,
2,1,0,1,0,62207.5,0.269474,0.26913,0.89248,32,0.016691,10,0.000240193,-3.0494,54.9788,0.00107314,0.0373508,0.26913,
2,1,0,1,0,62207.6,0.270972,0.270651,0.892068,32,0.0167587,10,0.000241439,-3.0496,-10.5355,-0.00560009,-0.19429,0.270651,
2,1,0,1,0,62207.7,0.27247,0.272113,0.889095,32,0.0168264,10,0.000241935,-3.05105,-1.64313,-0.0359071,-1.24351,0.272113,
2,1,0,1,0,62207.8,0.273968,0.273671,0.885686,32,0.0168938,10,0.000242386,-3.05272,-1.66875,-0.0353557,-1.22472,0.273671,
2,1,0,1,0,62207.8,0.275467,0.275151,0.884912,32,0.0169611,10,0.000243484,-3.0531,-1.78592,-0.0330362,-1.14478,0.275151,
2,1,0,1,0,62207.9,0.276965,0.276676,0.884324,32,0.0170283,10,0.000244671,-3.05339,-4.10876,-0.0143596,-0.495908,0.276676,
2,1,0,1,0,62208,0.278463,0.278146,0.884225,32,0.0170956,10,0.000245943,-3.05344,-1.56153,-0.0377834,-1.30214,0.2781457,
2,1,0,1,0,62208.1,0.279961,0.279638,0.881617,32,0.0171627,10,0.000246534,-3.05472,-2.30356,-0.0256125,-0.881901,0.279638,
2,1,0,1,0,62208.1,0.28146,0.281149,0.879737,32,0.0172297,10,0.000247337,-3.05565,-2.08088,-0.0283534,-0.975742,0.281149,
2,1,0,1,0,62208.2,0.282956,0.282617,0.879762,32,0.0172964,10,0.000248636,-3.05563,-7.74636,-0.00761648,-0.260918,0.282617,
2,1,0,1,0,62208.3,0.284456,0.284123,0.878577,32,0.0173634,10,0.000249623,-3.05622,-1.42401,-0.0414322,-1.41947,0.284123,
2,1,0,1,0,62208.4,0.285954,0.285651,0.877676,32,0.0174301,10,0.000250709,-3.05667,-1.56084,-0.0378003,-1.29392,0.285651,
2,1,0,1,0,62208.4,0.287452,0.287061,0.873122,32,0.0174966,10,0.000250639,-3.05893,-1.55284,-0.037995,-1.29805,0.287061,
2,1,0,1,0,62208.5,0.28895,0.288591,0.87303,32,0.017563,10,0.000251949,-3.05897,-2.99143,-0.019723,-0.672161,0.288591,
2,1,0,1,0,62208.6,0.290449,0.290124,0.872007,32,0.0176294,10,0.00025299,-3.05948,-2.59353,-0.0227489,-0.774814,0.290124,
2,1,0,1,0,62208.7,0.291947,0.29162,0.870671,32,0.0176957,10,0.000253905,-3.06015,-2.14376,-0.0275218,-0.935427,0.29162,
2,1,0,1,0,62208.7,0.293445,0.293092,0.867366,32,0.0177617,10,0.000254218,-3.0618,-2.45379,-0.0240444,-0.816429,0.293092,
2,1,0,1,0,62208.8,0.294943,0.294635,0.866996,32,0.0178277,10,0.000255447,-3.06198,-4.02417,-0.0146614,-0.496132,0.294635,
2,1,0,1,0,62208.9,0.296441,0.29612,0.869552,32,0.0178937,10,0.000257492,-3.0607,-5.91664,-0.00997187,-0.337135,0.29612,
2,1,0,1,0,62209,0.29794,0.297623,0.86544,32,0.0179596,10,0.000257575,-3.06276,-1.11828,-0.0527596,-1.7815,0.297623,
2,1,0,1,0,62209,0.299436,0.299071,0.86283,32,0.0180252,10,0.000258047,-3.06407,-0.0048825,-12.084,-277.363,0.299071,
2,1,0,1,0,62209.1,0.299739,0.299382,0.621633,32,0.0180594,10,0.000186106,-3.20647,0.00103445,57.0354,690.414,0.299382,
2,1,0,1,0,62209.1,0.298239,0.297925,0.135188,32,0.0180827,10,4.02759e-05,-3.86906,0.00309431,19.0673,243.958,0.297925,
2,1,0,1,0,62209.2,0.296741,0.296432,-0.0215598,32,0.0180851,10,-6.39102e-06,-4.66636,0.013818,4.26979,84.9806,0.296432,
2,0,0,1,0,62209.3,0.295243,0.294896,-0.096561,32,0.0180794,10,-2.84755e-05,-4.0152,-0.00416569,-14.1633,42.7218,0.294896,
2,0,0,1,0,62209.4,0.293745,0.293389,-0.14675,32,0.0180692,10,-4.30548e-05,-3.83342,-0.00980131,-6.0196,28.9962,0.293389,
2,0,0,1,0,62209.4,0.292246,0.291907,-0.180137,32,0.018056,10,-5.25832e-05,-3.7444,-0.0184011,-3.20633,21.2561,0.291907,
2,0,0,1,0,62209.5,0.290748,0.290373,-0.207747,32,0.0180405,10,-6.0324e-05,-3.68247,-0.027147,-2.17335,17.0408,0.290373,
2,0,0,1,0,62209.6,0.28925,0.288909,-0.231585,32,0.018023,10,-6.69071e-05,-3.63529,-0.0368642,-1.60047,14.1255,0.288909,
2,0,0,1,0,62209.7,0.287752,0.287398,-0.251139,32,0.0180039,10,-7.21769e-05,-3.60009,-0.0473827,-1.24518,12.005,0.287398,
2,0,0,1,0,62209.7,0.286254,0.285927,-0.266787,32,0.0179836,10,-7.62816e-05,-3.57384,-0.0580345,-1.01664,10.5857,0.285927,
2,0,0,1,0,62209.8,0.284754,0.284444,-0.284197,32,0.017962,10,-8.08384e-05,-3.54638,-0.0625953,-0.942563,10.3367,0.284444,
2,0,0,1,0,62209.9,0.283259,0.282883,-0.297963,32,0.0179393,10,-8.42888e-05,-3.52584,-0.0730123,-0.808084,9.32937,0.282883,
2,0,0,1,0,62210,0.281759,0.281412,-0.310535,32,0.0179154,10,-8.73885e-05,-3.50789,-0.0924555,-0.638145,7.70586,0.281412,
2,0,0,1,0,62210,0.280261,0.279953,-0.321074,32,0.0178907,10,-8.98856e-05,-3.49339,-0.090335,-0.653124,8.2274,0.279953,
2,0,0,1,0,62210.1,0.278763,0.278426,-0.333796,32,0.0178651,10,-9.29374e-05,-3.47652,-0.101663,-0.580348,7.56731,0.278426,
2,0,0,1,0,62210.2,0.277264,0.276944,-0.345723,32,0.0178386,10,-9.5746e-05,-3.46127,-0.10005,-0.589703,7.9119,0.276944,
2,0,0,1,0,62210.3,0.275766,0.275437,-0.357144,32,0.0178112,10,-9.83707e-05,-3.44716,-0.121594,-0.485222,6.73296,0.275437,
2,0,0,1,0,62210.3,0.274268,0.273885,-0.368586,32,0.0177831,10,-0.00010095,-3.43346,-0.140147,-0.420987,6.02892,0.273885,
2,0,0,1,0,62210.4,0.27277,0.272436,-0.375504,32,0.0177544,10,-0.000102301,-3.42539,-0.138618,-0.425631,6.26627,0.272436,
2,0,0,1,0,62210.5,0.271272,0.270927,-0.385734,32,0.0177249,10,-0.000104505,-3.41371,-0.135216,-0.43634,6.55074,0.270927,
2,0,0,1,0,62210.6,0.269774,0.269417,-0.394072,32,0.0176946,10,-0.00010617,-3.40442,-0.150963,-0.390825,5.99924,0.269417,
2,0,0,1,0,62210.6,0.268274,0.267875,-0.401666,32,0.0176637,10,-0.000107596,-3.39613,-0.180555,-0.326771,5.15546,0.267875,
2,0,0,1,0,62210.7,0.266779,0.266458,-0.408895,32,0.0176324,10,-0.000108953,-3.38839,-0.158575,-0.372064,5.95601,0.266458,
2,0,0,1,0,62210.8,0.265279,0.264956,-0.418063,32,0.0176003,10,-0.000110769,-3.37876,-0.166281,-0.354822,5.77791,0.264956,
2,0,0,1,0,62210.9,0.263781,0.263453,-0.426427,32,0.0175677,10,-0.000112343,-3.37016,-0.199543,-0.295676,4.91608,0.263453,
2,0,0,1,0,62210.9,0.262283,0.261902,-0.433478,32,0.0175345,10,-0.000113529,-3.36303,-0.19882,-0.296751,5.03233,0.261902,
2,0,0,1,0,62211,0.260784,0.26051,-0.440304,32,0.0175008,10,-0.000114704,-3.35625,-0.205433,-0.287198,4.94359,0.26051,
2,0,0,1,0,62211.1,0.259286,0.258965,-0.447648,32,0.0174665,10,-0.000115925,-3.34906,-0.190348,-0.309959,5.4119,0.258965,
2,0,0,1,0,62211.2,0.257788,0.257433,-0.458198,32,0.0174316,10,-0.000117955,-3.33895,-0.206862,-0.285215,5.05611,0.257433,
2,0,0,1,0,62211.2,0.25629,0.255965,-0.462894,32,0.0173962,10,-0.000118485,-3.33452,-0.28806,-0.204818,3.6914,0.255965,
2,0,0,1,0,62211.3,0.25479,0.254444,-0.46812,32,0.0173602,10,-0.00011911,-3.32964,-0.221754,-0.266061,4.87785,0.254444,
2,0,0,1,0,62211.4,0.253294,0.252971,-0.47401,32,0.017324,10,-0.000119911,-3.32421,-0.247236,-0.238638,4.43504,0.252971,
2,0,0,1,0,62211.5,0.251795,0.251447,-0.48098,32,0.0172871,10,-0.000120941,-3.31787,-0.258403,-0.228326,4.28819,0.251447,
2,0,0,1,0,62211.5,0.250297,0.249932,-0.488765,32,0.0172497,10,-0.000122158,-3.3109,-0.300092,-0.196606,3.74003,0.249932,
2,0,0,1,0,62211.6,0.248799,0.248422,-0.494725,32,0.0172118,10,-0.0001229,-3.30564,-0.304949,-0.193475,3.74338,0.248422,
2,0,0,1,0,62211.7,0.247301,0.246952,-0.499186,32,0.0171736,10,-0.000123275,-3.30174,-0.302501,-0.195041,3.82003,0.246952,
2,0,0,1,0,62211.8,0.245802,0.245457,-0.506847,32,0.0171349,10,-0.000124409,-3.29512,-0.25175,-0.234359,4.61754,0.245457,
2,0,0,1,0,62211.8,0.244304,0.243998,-0.513925,32,0.0170957,10,-0.000125397,-3.2891,-0.324088,-0.182049,3.64123,0.243998,
2,0,0,1,0,62211.9,0.242806,0.242477,-0.519969,32,0.017056,10,-0.000126081,-3.28402,-0.364227,-0.161987,3.2818,0.242477,
2,0,0,1,0,62212,0.241308,0.240958,-0.522013,32,0.0170161,10,-0.000125783,-3.28232,-0.335091,-0.176071,3.60195,0.240958,
2,0,0,1,0,62212.1,0.23981,0.239486,-0.528406,32,0.0169756,10,-0.000126546,-3.27703,-0.279693,-0.210946,4.34929,0.239486,
2,0,0,1,0,62212.1,0.23831,0.237986,-0.53512,32,0.0169347,10,-0.000127351,-3.27155,-0.309879,-0.190397,3.96685,0.237986,
2,0,0,1,0,62212.2,0.236815,0.236466,-0.541333,32,0.0168935,10,-0.000128007,-3.26654,-0.359988,-0.163894,3.4595,0.236466,
2,0,0,1,0,62212.3,0.235315,0.234961,-0.542731,32,0.0168518,10,-0.00012752,-3.26542,-0.321389,-0.183578,3.89713,0.234961,
2,0,0,1,0,62212.4,0.233817,0.233489,-0.549715,32,0.0168098,10,-0.000128352,-3.25986,-0.404263,-0.145945,3.13826,0.233489,
2,0,0,1,0,62212.4,0.232319,0.231953,-0.557469,32,0.0167673,10,-0.000129307,-3.25378,-0.396123,-0.148944,3.22515,0.231953,
2,0,0,1,0,62212.5,0.230821,0.230455,-0.561155,32,0.0167244,10,-0.000129321,-3.25092,-0.504754,-0.116889,2.55795,0.230455,
2,0,0,1,0,62212.6,0.229322,0.228944,-0.564272,32,0.0166811,10,-0.000129187,-3.24851,-0.373444,-0.157989,3.4978,0.228944,
2,0,0,1,0,62212.7,0.227824,0.227479,-0.570483,32,0.0166375,10,-0.000129773,-3.24376,-0.392044,-0.150493,3.36721,0.227479,
2,0,0,1,0,62212.7,0.226326,0.22602,-0.576876,32,0.0165934,10,-0.000130385,-3.23892,-0.333079,-0.177135,3.99046,0.22602,
2,0,0,1,0,62212.8,0.224828,0.224498,-0.582742,32,0.0165489,10,-0.000130824,-3.23452,-0.460023,-0.128254,2.91118,0.224498,
2,0,0,1,0,62212.9,0.22333,0.222995,-0.585563,32,0.0165041,10,-0.000130578,-3.23243,-0.44974,-0.131187,3.0034,0.222995,
2,0,0,1,0,62213,0.22183,0.221496,-0.593153,32,0.0164589,10,-0.000131381,-3.22683,-0.364275,-0.161965,3.74304,0.221496,
2,0,0,1,0,62213,0.220335,0.219989,-0.598328,32,0.0164134,10,-0.000131626,-3.22306,-0.298481,-0.197668,4.61199,0.219989,
2,0,0,1,0,62213.1,0.218835,0.218482,-0.603427,32,0.0163673,10,-0.000131838,-3.21938,-0.393235,-0.150037,3.52628,0.218482,
2,0,0,1,0,62213.2,0.217337,0.216948,-0.608533,32,0.0163209,10,-0.00013202,-3.21572,-0.644957,-0.0914789,2.17159,0.216948,
2,0,0,1,0,62213.3,0.215839,0.215476,-0.611267,32,0.0162741,10,-0.000131713,-3.21377,-0.381887,-0.154496,3.69815,0.215476,
2,0,0,1,0,62213.3,0.21434,0.214025,-0.617019,32,0.0162271,10,-0.000132058,-3.2097,-0.345367,-0.170833,4.1189,0.214025,
2,0,0,1,0,62213.4,0.212842,0.212481,-0.622113,32,0.0161796,10,-0.000132187,-3.20613,-0.456235,-0.129319,3.14077,0.212481,
2,0,0,1,0,62213.5,0.211344,0.210983,-0.62932,32,0.0161317,10,-0.000132776,-3.20113,-0.50868,-0.115986,2.83752,0.210983,
2,0,0,1,0,62213.6,0.209846,0.209524,-0.632228,32,0.0160835,10,-0.000132467,-3.19913,-0.474886,-0.12424,3.06786,0.209524,
2,0,0,1,0,62213.6,0.208348,0.207983,-0.638836,32,0.016035,10,-0.000132867,-3.19461,-0.364029,-0.162075,4.04941,0.207983,
2,0,0,1,0,62213.7,0.20685,0.206478,-0.645489,32,0.015986,10,-0.00013328,-3.19011,-0.422033,-0.139799,3.50275,0.206478,
2,0,0,1,0,62213.8,0.20535,0.205012,-0.649004,32,0.0159364,10,-0.000133054,-3.18775,-0.492209,-0.119868,3.02354,0.205012,
2,0,0,1,0,62213.9,0.203855,0.203508,-0.651407,32,0.0158867,10,-0.000132566,-3.18615,-0.496358,-0.118866,3.03132,0.203508,
2,0,0,1,0,62213.9,0.202355,0.202001,-0.65698,32,0.0158367,10,-0.000132711,-3.18245,-0.407661,-0.144728,3.7143,0.202001,
2,0,0,1,0,62214,0.200857,0.200525,-0.661195,32,0.0157863,10,-0.000132586,-3.17967,-0.433826,-0.135999,3.51052,0.200525,
2,0,0,1,0,62214.1,0.199359,0.199006,-0.666676,32,0.0157354,10,-0.000132672,-3.17609,-0.423575,-0.13929,3.62077,0.199006,
2,0,0,1,0,62214.2,0.19786,0.197465,-0.674688,32,0.0156842,10,-0.000133227,-3.1709,-0.51515,-0.11453,3.00856,0.197465,
2,0,0,1,0,62214.2,0.196362,0.196016,-0.676201,32,0.0156326,10,-0.000132546,-3.16992,-0.499419,-0.118137,3.12248,0.196016,
2,0,0,1,0,62214.3,0.194864,0.194498,-0.681873,32,0.0155807,10,-0.000132623,-3.1663,-0.400344,-0.147373,3.92057,0.194498,
2,0,0,1,0,62214.4,0.193366,0.192999,-0.689538,32,0.0155282,10,-0.00013308,-3.16144,-0.433305,-0.136163,3.65646,0.192999,
2,0,0,1,0,62214.5,0.191866,0.191493,-0.694159,32,0.0154753,10,-0.000132927,-3.15854,-0.475072,-0.124192,3.37063,0.191493,
2,0,0,1,0,62214.5,0.19037,0.190011,-0.697081,32,0.0154222,10,-0.000132453,-3.15672,-0.378931,-0.155701,4.25623,0.190011,
2,0,0,1,0,62214.6,0.188871,0.188479,-0.704038,32,0.0153685,10,-0.000132697,-3.1524,-0.318937,-0.18499,5.09658,0.1884792,
2,0,0,1,0,62214.7,0.187373,0.186956,-0.711632,32,0.0153143,10,-0.000133044,-3.14774,-0.395945,-0.149011,4.1372,0.1869565,
2,0,0,1,0,62214.8,0.185875,0.185499,-0.719607,32,0.0152598,10,-0.000133486,-3.1429,-0.463664,-0.127247,3.56154,0.185499,
2,0,0,1,0,62214.8,0.184377,0.184045,-0.721107,32,0.0152048,10,-0.000132716,-3.142,-0.413929,-0.142536,4.02266,0.184045,
2,0,0,1,0,62214.9,0.182878,0.182534,-0.728108,32,0.0151495,10,-0.000132905,-3.1378,-0.374439,-0.157569,4.47991,0.182534,
2,0,0,1,0,62215,0.18138,0.181012,-0.735694,32,0.0150935,10,-0.000133169,-3.1333,-0.322897,-0.182721,5.24211,0.181012,
2,0,0,1,0,62215.1,0.179882,0.179555,-0.743389,32,0.015037,10,-0.000133479,-3.12878,-0.59544,-0.0990865,2.87375,0.179555,
2,0,0,1,0,62215.1,0.178384,0.178029,-0.74915,32,0.0149801,10,-0.000133371,-3.12543,-0.383434,-0.153873,4.50517,0.178029,
2,0,0,1,0,62215.2,0.176886,0.176528,-0.75511,32,0.0149229,10,-0.000133298,-3.12199,-0.405288,-0.145576,4.29117,0.1765278,
2,0,0,1,0,62215.3,0.175386,0.175045,-0.763014,32,0.014865,10,-0.000133562,-3.11747,-0.362583,-0.162722,4.84,0.175045,
2,0,0,1,0,62215.4,0.173891,0.173502,-0.770258,32,0.0148067,10,-0.000133642,-3.11336,-0.313696,-0.18808,5.65196,0.173502,
2,0,0,1,0,62215.4,0.172391,0.172004,-0.778558,32,0.0147476,10,-0.000133915,-3.10871,-0.331079,-0.178205,5.40952,0.172004,
2,0,0,1,0,62215.5,0.170893,0.170546,-0.781431,32,0.0146881,10,-0.00013327,-3.10711,-0.311346,-0.1895,5.8047,0.170546,
2,0,0,1,0,62215.6,0.169395,0.169038,-0.793101,32,0.014628,10,-0.000134064,-3.10067,-0.292579,-0.201655,6.24228,0.169038,
2,0,0,1,0,62215.7,0.167897,0.167542,-0.803782,32,0.0145671,10,-0.000134667,-3.09486,-0.340292,-0.17338,5.42854,0.167542,
2,0,0,1,0,62215.7,0.166398,0.165998,-0.812193,32,0.0145056,10,-0.000134823,-3.09034,-0.2927,-0.201572,6.38667,0.165998,
2,0,0,1,0,62215.8,0.1649,0.16453,-0.819153,32,0.0144434,10,-0.000134775,-3.08664,-0.337709,-0.174706,5.60271,0.16453,
2,0,0,1,0,62215.9,0.163402,0.163047,-0.831945,32,0.0143805,10,-0.000135646,-3.07991,-0.255998,-0.230471,7.47453,0.163047,
2,0,0,1,0,62216,0.161904,0.161551,-0.845924,32,0.0143167,10,-0.00013666,-3.07267,-0.228352,-0.258373,8.50591,0.161551,
2,0,0,1,0,62216,0.160406,0.160086,-0.855802,32,0.014252,10,-0.000137002,-3.06763,-0.236983,-0.248963,8.30145,0.160086,
2,0,0,1,0,62216.1,0.158906,0.158524,-0.866984,32,0.0141864,10,-0.000137438,-3.06199,-0.2162,-0.272896,9.23707,0.158524,
2,0,0,1,0,62216.2,0.157411,0.157052,-0.881132,32,0.01412,10,-0.000138383,-3.05496,-0.199814,-0.295275,10.1629,0.157052,
2,0,0,1,0,62216.3,0.155911,0.155548,-0.895763,32,0.0140524,10,-0.000139334,-3.04781,-0.204065,-0.289124,10.1256,0.155548,
2,0,0,1,0,62216.3,0.154413,0.154059,-0.912531,32,0.0139835,10,-0.000140584,-3.03975,-0.189735,-0.31096,11.0619,0.154059,
2,0,0,1,0,62216.4,0.152915,0.152531,-0.929247,32,0.0139134,10,-0.000141739,-3.03187,-0.17695,-0.333427,12.1185,0.152531,
2,0,0,1,0,62216.5,0.151417,0.151083,-0.948013,32,0.0138421,10,-0.000143228,-3.02319,-0.164464,-0.358741,13.3292,0.151083,
2,0,0,1,0,62216.6,0.149918,0.149557,-0.970805,32,0.0137691,10,-0.000145191,-3.01287,-0.142509,-0.414009,15.7161,0.149557,
2,0,0,1,0,62216.6,0.14842,0.148074,-0.994477,32,0.0136944,10,-0.000147256,-3.00241,-0.141207,-0.417826,16.2372,0.148074,
2,0,0,1,0,62216.7,0.146922,0.146596,-1.0212,32,0.0136178,10,-0.000149704,-2.99089,-0.128347,-0.459692,18.3848,0.146596,
2,0,0,1,0,62216.8,0.145424,0.145062,-1.05146,32,0.0135391,10,-0.000152527,-2.97821,-0.112135,-0.526153,21.6634,0.145062,
2,0,0,1,0,62216.9,0.143926,0.143533,-1.08652,32,0.0134581,10,-0.000155952,-2.96396,-0.0984094,-0.599536,25.4498,0.143533,
2,0,0,1,0,62216.9,0.142426,0.142104,-1.12356,32,0.0133741,10,-0.000159664,-2.9494,-0.10125,-0.582716,25.5737,0.142104,
2,0,0,1,0,62217,0.140931,0.140588,-1.16167,32,0.0132875,10,-0.000163317,-2.93492,-0.097486,-0.605215,27.5359,0.140588,
2,0,0,1,0,62217.1,0.139431,0.139076,-1.20387,32,0.0131976,10,-0.000167429,-2.91942,-0.0932077,-0.632995,29.8508,0.139076,
2,0,0,1,0,62217.2,0.137933,0.137609,-1.2533,32,0.0131045,10,-0.000172466,-2.90194,-0.0898203,-0.656867,32.1193,0.137609,
2,0,0,1,0,62217.2,0.136435,0.136067,-1.30154,32,0.0130078,10,-0.000177097,-2.88554,-0.0890748,-0.662364,33.6798,0.136067,
2,0,0,1,0,62217.3,0.134936,0.134573,-1.35387,32,0.0129072,10,-0.000182195,-2.86842,-0.0919376,-0.64174,33.8391,0.134573,
2,0,0,1,0,62217.4,0.133438,0.133089,-1.40544,32,0.0128028,10,-0.000187048,-2.85219,-0.0908776,-0.649225,35.6184,0.133089,
2,0,0,1,0,62217.5,0.13194,0.131567,-1.45924,32,0.0126945,10,-0.000191988,-2.83587,-0.0949205,-0.621573,35.3833,0.131567,
2,0,0,1,0,62217.5,0.130442,0.130091,-1.51214,32,0.0125822,10,-0.000196716,-2.82041,-0.0948124,-0.622282,36.6857,0.130091,
2,0,0,1,0,62217.6,0.128942,0.128568,-1.56743,32,0.0124655,10,-0.000201521,-2.80481,-0.101845,-0.579311,35.336,0.128568,
2,0,0,1,0,62217.7,0.127446,0.127094,-1.61938,32,0.0123452,10,-0.000205814,-2.79065,-0.106919,-0.551818,34.8192,0.127094,
2,0,0,1,0,62217.8,0.125947,0.125573,-1.66768,32,0.012221,10,-0.000209417,-2.77789,-0.113643,-0.519169,33.7785,0.125573,
2,0,0,1,0,62217.8,0.124449,0.124128,-1.7174,32,0.0120931,10,-0.000213177,-2.76513,-0.121211,-0.486755,32.5827,0.124128,
2,0,0,1,0,62217.9,0.122951,0.122607,-1.7672,32,0.0119614,10,-0.000216671,-2.75272,-0.130088,-0.453541,31.19,0.122607,
2,0,0,1,0,62218,0.121453,0.121125,-1.8118,32,0.0118262,10,-0.000219454,-2.74189,-0.143747,-0.410444,28.9677,0.121125,
2,0,0,1,0,62218.1,0.119955,0.119586,-1.85082,32,0.0116879,10,-0.000221333,-2.73264,-0.158723,-0.371717,26.8509,0.119586,
2,0,0,1,0,62218.1,0.118456,0.118096,-1.89126,32,0.0115465,10,-0.000223349,-2.72325,-0.16625,-0.354887,26.1934,0.118096,
2,0,0,1,0,62218.2,0.116958,0.116574,-1.93167,32,0.0114022,10,-0.000225183,-2.71407,-0.190737,-0.309326,23.2619,0.116574,
2,0,0,1,0,62218.3,0.11546,0.115065,-1.96677,32,0.0112551,10,-0.000226307,-2.70625,-0.228071,-0.258692,19.7754,0.115065,
2,0,0,1,0,62218.4,0.113962,0.113595,-1.98927,32,0.0111059,10,-0.000225972,-2.70131,-0.272261,-0.216704,16.815,0.113595,
2,0,0,1,0,62218.4,0.112462,0.112094,-2.01666,32,0.0109546,10,-0.000226056,-2.69537,-0.29294,-0.201406,15.8188,0.112094,
2,0,0,1,0,62218.5,0.110967,0.110578,-2.03934,32,0.0108018,10,-0.000225505,-2.69051,-0.359672,-0.164038,13.0235,0.110578,
2,0,0,1,0,62218.6,0.109467,0.109087,-2.05447,32,0.0106472,10,-0.000224116,-2.6873,-0.483182,-0.122107,9.76588,0.109087,
2,0,0,1,0,62218.7,0.107969,0.107618,-2.06556,32,0.0104918,10,-0.000222292,-2.68496,-0.734005,-0.080381,6.47021,0.107618,
2,0,0,1,0,62218.7,0.106471,0.106117,-2.07277,32,0.0103357,10,-0.000219957,-2.68345,-1.15138,-0.0512428,4.14498,0.106117,
2,0,0,1,0,62218.8,0.104973,0.104615,-2.07762,32,0.0101791,10,-0.00021735,-2.68243,-2.45467,-0.0240358,1.94731,0.104615,
2,0,0,1,0,62218.9,0.103474,0.1031,-2.08026,32,0.0100222,10,-0.000214475,-2.68188,6.04413,0.00976154,-0.791014,0.1031,
2,0,0,1,0,62219,0.101976,0.101633,-2.07524,32,0.00986545,10,-0.000210913,-2.68293,1.43323,0.0411658,-3.33123,0.101633,
2,0,0,1,0,62219,0.100478,0.100093,-2.06891,32,0.00970912,10,-0.000207084,-2.68426,0.990854,0.0595446,-4.80771,0.100093,
2,0,0,1,0,62219.1,0.0989798,0.0986336,-2.06192,32,0.00955328,10,-0.000203375,-2.68573,1.13072,0.0521791,-4.19907,0.0986336,
2,0,0,1,0,62219.2,0.0974817,0.0971462,-2.05497,32,0.00939799,10,-0.000199632,-2.6872,0.806472,0.0731581,-5.86555,0.0971462,
2,0,0,1,0,62219.3,0.0959821,0.0956453,-2.04405,32,0.00924315,10,-0.000195503,-2.68951,0.675613,0.087328,-6.96587,0.0956453,
2,0,0,1,0,62219.3,0.0944866,0.0941084,-2.03305,32,0.0090895,10,-0.000191327,-2.69185,0.731285,0.08068,-6.40052,0.09410841,
2,0,0,1,0,62219.4,0.0929871,0.0926239,-2.02375,32,0.0089363,10,-0.000187448,-2.69384,0.739146,0.0798218,-6.30397,0.0926239,
2,0,0,1,0,62219.5,0.0914889,0.0911484,-2.01529,32,0.00878406,10,-0.000183691,-2.69566,0.689785,0.0855339,-6.71859,0.0911484,
2,0,0,1,0,62219.6,0.0899907,0.0896254,-2.00236,32,0.0086325,10,-0.000179462,-2.69846,0.651535,0.0905554,-7.06908,0.0896254,
2,0,0,1,0,62219.6,0.0884925,0.0881391,-1.99109,32,0.0084818,10,-0.000175493,-2.70091,0.661863,0.0891423,-6.93081,0.0881391,
2,0,0,1,0,62219.7,0.0869943,0.086658,-1.98022,32,0.00833199,10,-0.000171602,-2.70329,0.745336,0.0791589,-6.12864,0.086658,
2,0,0,1,0,62219.8,0.0854961,0.0851241,-1.97115,32,0.00818285,10,-0.000167792,-2.70528,0.806033,0.073198,-5.6369,0.0851241,
2,0,0,1,0,62219.9,0.083998,0.0836418,-1.96552,32,0.00803428,10,-0.0001644,-2.70652,0.69242,0.0852084,-6.53152,0.0836418,
2,0,0,1,0,62219.9,0.0824998,0.0821784,-1.95843,32,0.00788632,10,-0.000160941,-2.70809,0.712283,0.0828323,-6.32543,0.0821784,
2,0,0,1,0,62220,0.081002,0.0806835,-1.94799,32,0.00773915,10,-0.000157171,-2.71041,0.837896,0.0704145,-5.35532,0.08068347,
2,0,0,1,0,62220.1,0.0795025,0.0791452,-1.93954,32,0.00759237,10,-0.000153505,-2.7123,0.946801,0.0623151,-4.71579,0.07914523,
2,0,0,1,0,62220.2,0.078007,0.0776548,-1.93157,32,0.0074465,10,-0.000149996,-2.71409,0.936435,0.0630049,-4.74898,0.0776548,
2,0,0,1,0,62220.2,0.076507,0.0761543,-1.92307,32,0.00730083,10,-0.00014645,-2.716,0.810498,0.0727948,-5.46274,0.0761543,
2,0,0,1,0,62220.3,0.0750088,0.0746583,-1.91269,32,0.00715612,10,-0.000142798,-2.71836,0.75285,0.0783689,-5.85737,0.0746583,
2,0,0,1,0,62220.4,0.0735106,0.0730971,-1.90482,32,0.00701205,10,-0.000139237,-2.72014,0.944785,0.0624481,-4.64141,0.07309711,
2,0,0,1,0,62220.5,0.0720124,0.0716561,-1.89833,32,0.00686853,10,-0.000136027,-2.72163,0.712866,0.0827645,-6.1282,0.0716561,
2,0,0,1,0,62220.5,0.0705142,0.0701436,-1.88757,32,0.00672563,10,-0.000132401,-2.7241,0.69534,0.0848506,-6.25323,0.0701436,
2,0,0,1,0,62220.6,0.069016,0.0686893,-1.87633,32,0.00658354,10,-0.000128884,-2.72669,0.668601,0.088244,-6.47596,0.0686893,
2,0,0,1,0,62220.7,0.0675179,0.0671685,-1.86996,32,0.00644219,10,-0.000125602,-2.72817,0.836412,0.0705394,-5.14709,0.0671685,
2,0,0,1,0,62220.8,0.0660179,0.065666,-1.86455,32,0.00630123,10,-0.000122438,-2.72943,0.765584,0.0770654,-5.59527,0.065666,
2,0,0,1,0,62220.8,0.0645224,0.0641967,-1.8524,32,0.00616116,10,-0.000118918,-2.73226,0.671275,0.0878924,-6.34548,0.0641967,
2,0,0,1,0,62220.9,0.0630228,0.0626603,-1.8427,32,0.00602149,10,-0.000115464,-2.73455,0.594744,0.0992023,-7.13342,0.0626603,
2,0,0,1,0,62221,0.0615251,0.0611389,-1.82968,32,0.00588295,10,-0.000111865,-2.73762,0.63523,0.0928797,-6.64392,0.0611389,
2,0,0,1,0,62221.1,0.0600269,0.0596906,-1.82168,32,0.00574508,10,-0.000108737,-2.73953,0.614826,0.0959622,-6.82543,0.0596906,
2,0,0,1,0,62221.1,0.0585287,0.0581774,-1.81341,32,0.00560784,10,-0.0001055,-2.7415,0.535722,0.110132,-7.78349,0.0581774,
2,0,0,1,0,62221.2,0.0570305,0.0566939,-1.80298,32,0.0054714,10,-0.000102218,-2.74401,0.544796,0.108297,-7.61421,0.0566939,
2,0,0,1,0,62221.3,0.0555323,0.0551233,-1.78783,32,0.00533597,10,-9.85511e-05,-2.74767,0.572619,0.103035,-7.20123,0.0551233,
2,0,0,1,0,62221.4,0.0540342,0.0536799,-1.77911,32,0.00520124,10,-9.55023e-05,-2.7498,0.68013,0.0867482,-6.02551,0.0536799,
2,0,0,1,0,62221.4,0.052536,0.0521935,-1.77174,32,0.00506714,10,-9.24734e-05,-2.7516,0.587806,0.100373,-6.93061,0.0521935,
2,0,0,1,0,62221.5,0.0510378,0.0506942,-1.7598,32,0.00493384,10,-8.92117e-05,-2.75454,0.520014,0.113458,-7.78927,0.05069422,
2,0,0,1,0,62221.6,0.0495382,0.0492085,-1.74658,32,0.00480134,10,-8.59464e-05,-2.75781,0.549918,0.107289,-7.31983,0.0492085,
2,0,0,1,0,62221.7,0.0480427,0.0477424,-1.73515,32,0.00467002,10,-8.28401e-05,-2.76066,0.696315,0.0847318,-5.74105,0.0477424,
2,0,0,1,0,62221.7,0.0465432,0.0461966,-1.72587,32,0.0045391,10,-7.97291e-05,-2.76299,0.55791,0.105752,-7.12525,0.0461966,
2,0,0,1,0,62221.8,0.045045,0.0446912,-1.71573,32,0.00440914,10,-7.66779e-05,-2.76555,0.520552,0.113341,-7.58219,0.0446912,
2,0,0,1,0,62221.9,0.0435468,0.043198,-1.70107,32,0.0042801,10,-7.3483e-05,-2.76928,0.479199,0.123122,-8.17794,0.043198,
2,0,0,1,0,62222,0.0420486,0.0417368,-1.69099,32,0.00415198,10,-7.05763e-05,-2.77186,0.526953,0.111965,-7.39023,0.0417368,
2,0,0,1,0,62222,0.0405504,0.0402175,-1.68055,32,0.00402464,10,-6.75877e-05,-2.77455,0.526177,0.11213,-7.34693,0.0402175,
2,0,0,1,0,62222.1,0.0390523,0.0387166,-1.66849,32,0.00389808,10,-6.45984e-05,-2.77768,0.434172,0.135891,-8.83849,0.0387166,
2,0,0,1,0,62222.2,0.0375541,0.0371739,-1.65495,32,0.00377257,10,-6.15209e-05,-2.78122,0.41933,0.140701,-9.09791,0.0371739,
2,0,0,1,0,62222.3,0.0360559,0.0357254,-1.64312,32,0.00364808,10,-5.8701e-05,-2.78433,0.453203,0.130185,-8.34257,0.0357254,
2,0,0,1,0,62222.3,0.0345577,0.0342028,-1.62986,32,0.00352443,10,-5.57459e-05,-2.78785,0.504679,0.116906,-7.4356,0.0342028,
2,0,0,1,0,62222.4,0.0330582,0.0327164,-1.62064,32,0.00340155,10,-5.30214e-05,-2.79031,0.436421,0.135191,-8.53802,0.0327164,
2,0,0,1,0,62222.5,0.0315626,0.0311875,-1.6074,32,0.0032798,10,-5.01307e-05,-2.79388,0.453811,0.13001,-8.14894,0.0311875,
2,0,0,1,0,62222.6,0.0300631,0.0297179,-1.59309,32,0.00315879,10,-4.73435e-05,-2.79776,0.440537,0.133927,-8.33901,0.0297179,
2,0,0,1,0,62222.6,0.0285649,0.0282176,-1.58255,32,0.00303876,10,-4.46556e-05,-2.80064,0.588244,0.100299,-6.19208,0.0282176,
2,0,0,1,0,62222.7,0.0270667,0.0266704,-1.57237,32,0.00291952,10,-4.19356e-05,-2.80345,0.501482,0.117651,-7.21888,0.0266704,
2,0,0,1,0,62222.8,0.0255685,0.0252451,-1.5615,32,0.00280111,10,-3.94202e-05,-2.80646,0.453968,0.129965,-7.9159,0.0252451,
2,0,0,1,0,62222.9,0.0240704,0.0237048,-1.54579,32,0.00268362,10,-3.66426e-05,-2.81085,0.452962,0.130254,-7.87526,0.0237048,
2,0,0,1,0,62222.9,0.0225722,0.0222062,-1.53703,32,0.00256695,10,-3.41316e-05,-2.81332,0.560893,0.105189,-6.3172,0.0222062,
2,0,0,1,0,62223,0.021074,0.0207368,-1.52911,32,0.00245107,10,-3.17088e-05,-2.81556,0.537794,0.109707,-6.54798,0.0207368,
2,0,0,1,0,62223.1,0.0195758,0.0192637,-1.5193,32,0.00233588,10,-2.92673e-05,-2.81836,0.483297,0.122078,-7.23012,0.0192637,
2,0,0,1,0,62223.2,0.018078,0.0176837,-1.50655,32,0.00222143,10,-2.66414e-05,-2.82202,0.545096,0.108238,-6.37161,0.0176837,
2,0,0,1,0,62223.2,0.0165785,0.0162054,-1.50033,32,0.00210764,10,-2.43134e-05,-2.82381,0.646179,0.091306,-5.35303,0.0162054,
2,0,0,1,0,62223.3,0.015083,0.0147812,-1.49348,32,0.00199472,10,-2.20754e-05,-2.8258,0.807995,0.0730202,-4.25512,0.01478118,
2,0,0,1,0,62223.4,0.013583,0.0132501,-1.4851,32,0.00188195,10,-1.96777e-05,-2.82824,0.609559,0.0967913,-5.60214,0.0132501,
2,0,0,1,0,62223.5,0.0120848,0.0117244,-1.47707,32,0.00176991,10,-1.73178e-05,-2.8306,0.653081,0.0903411,-5.2102,0.0117244,
2,0,0,1,0,62223.5,0.0105866,0.0102341,-1.46877,32,0.00165859,10,-1.50314e-05,-2.83305,0.792296,0.0744671,-4.27586,0.0102341,
2,0,0,1,0,62223.6,0.00908846,0.00873186,-1.46401,32,0.00154767,10,-1.27835e-05,-2.83446,1.10257,0.0535113,-3.0601,0.00873186,
2,0,0,1,0,62223.7,0.00759027,0.00721289,-1.45915,32,0.0014371,10,-1.05247e-05,-2.8359,0.929831,0.0634524,-3.61092,0.00721289,
2,0,0,1,0,62223.8,0.00609208,0.00573701,-1.45747,32,0.00132684,10,-8.3615e-06,-2.8364,1.05581,0.0558815,-3.17013,0.00573701,
2,0,0,1,0,62223.8,0.00459389,0.00422496,-1.451,32,0.00121704,10,-6.1304e-06,-2.83833,1.89947,0.0310613,-1.75923,0.00422496,
2,0,0,1,0,62223.9,0.00309391,0.00272336,-1.4494,32,0.00110733,10,-3.94723e-06,-2.83881,-2.69871,-0.0218623,1.23969,0.00272336,
2,0,0,1,0,62224,0.0015984,0.0012026,-1.46051,32,0.000997259,10,-1.75641e-06,-2.83549, , , ,0.0012026,
2,0,0,1,0,62224,0.000199195,-0.000191404,-1.44878,32,0.00089441,10,2.77303e-07,-2.839, , , ,-0.000191404,