File: Figure_codes/Fig_3-5/rawdata_trumpetplot_data/after 10th/20221101_1-115_003_TrumpetPlot_ParaChange_from10_every3_12_CV_C01.mpt
EC-Lab ASCII FILE
Nb header lines : 94

Cyclic Voltammetry

Run on channel : 1 (SN 65296)
User :
CE vs. WE compliance from -10 V to 10 V
Electrode connection : standard
Potential control : Ewe
Ewe ctrl range : min = -1.00 V, max = 1.00 V
Safety Limits :
	Do not start on E overload
Acquisition started on : 11/08/2022 20:18:53.442
Loaded Setting File :  NONE
Saved on :
	File : 20221101_1-115_003_TrumpetPlot_ParaChange_from10_every3_12_CV_C01.mpr
	Directory : C:\Users\NakamuraT\Documents\EC-Lab\Data\Yatsuzuka\20221108_1-115_001_TrumpetPlot\
	Host : 192.109.209.100
Device : SP-50e (SN .003219)
Address : 192.109.209.128
EC-Lab for windows v11.43 (software)
Internet server v11.40 (firmware)
Command interpretor v11.40 (firmware)
Electrode material :
Initial state :
Electrolyte :
Comments :
Electrode surface area : 0.000 cm2
Characteristic mass : 0.001 g
Equivalent Weight : 0.000 g/eq.
Density : 0.000 g/cm3
Volume (V) : 0.001 cm3
Cycle Definition : Charge/Discharge alternance
Ei (V)              0.000
vs.                 Ref
dE/dt               600.000
dE/dt unit          mV/s
E1 (V)              0.300
vs.                 Ref
Step percent        50
N                   10
E range min (V)     -1.000
E range max (V)     1.000
I Range             100 mA
I Range min         Unset
I Range max         Unset
I Range init        Unset
Bandwidth           5
E2 (V)              -0.100
vs.                 Ref
nc cycles           0
Reverse Scan        1
Ef (V)              0.000
vs.                 Ref

Number of loops : 35
Loop 0 from point number 0 to 675
Loop 1 from point number 676 to 1351
Loop 2 from point number 1352 to 2027
Loop 3 from point number 2028 to 2703
Loop 4 from point number 2704 to 3379
Loop 5 from point number 3380 to 4055
Loop 6 from point number 4056 to 4731
Loop 7 from point number 4732 to 5407
Loop 8 from point number 5408 to 6083
Loop 9 from point number 6084 to 6759
Loop 10 from point number 6760 to 7435
Loop 11 from point number 7436 to 8111
Loop 12 from point number 8112 to 8787
Loop 13 from point number 8788 to 9463
Loop 14 from point number 9464 to 10139
Loop 15 from point number 10140 to 10815
Loop 16 from point number 10816 to 11491
Loop 17 from point number 11492 to 12167
Loop 18 from point number 12168 to 12843
Loop 19 from point number 12844 to 13519
Loop 20 from point number 13520 to 14195
Loop 21 from point number 14196 to 14871
Loop 22 from point number 14872 to 15547
Loop 23 from point number 15548 to 16223
Loop 24 from point number 16224 to 16899
Loop 25 from point number 16900 to 17575
Loop 26 from point number 17576 to 18251
Loop 27 from point number 18252 to 18927
Loop 28 from point number 18928 to 19603
Loop 29 from point number 19604 to 20279
Loop 30 from point number 20280 to 20955
Loop 31 from point number 20956 to 21631
Loop 32 from point number 21632 to 22307
Loop 33 from point number 22308 to 22983
Loop 34 from point number 22984 to 23659

mode	ox/red	error	control changes	counter inc.	time/s	control/V	Ewe/V	<I>/mA	cycle number	(Q-Qo)/C	I Range	P/W
2	1	0	0	0	1196.52	2.44065e-05	-0.000287149	20.3897	1	0.0000000E+000	10	-5.85489e-06
2	1	0	1	0	1196.59	0.0416047	0.0412893	29.197	1	0.00180588	10	0.00120552
2	1	0	1	0	1196.66	0.083604	0.0832421	35.181	1	0.00403479	10	0.00292854
2	1	0	1	0	1196.73	0.125603	0.125251	44.6309	1	0.00681651	10	0.00559007
2	1	0	1	0	1196.8	0.167602	0.167268	57.4588	1	0.0103748	10	0.00961099
2	1	0	1	0	1196.87	0.209602	0.209324	57.5308	1	0.0146189	10	0.0120426
2	1	0	1	0	1196.94	0.251601	0.251308	29.3843	1	0.0175657	10	0.00738452
2	1	0	1	0	1197.01	0.293603	0.293295	22.6965	1	0.0193234	10	0.00665677
2	0	0	1	0	1197.08	0.268039	0.26776	-9.2509	1	0.0195805	10	-0.00247702
2	0	0	1	0	1197.15	0.22604	0.225766	-14.688	1	0.0187058	10	-0.00331605
2	0	0	1	0	1197.22	0.184041	0.183767	-18.3784	1	0.017555	10	-0.00337734
2	0	0	1	0	1197.29	0.142042	0.141786	-27.594	1	0.0160111	10	-0.00391244
2	0	0	1	0	1197.36	0.100042	0.0998163	-48.2712	1	0.0133724	10	-0.00481826
2	0	0	1	0	1197.43	0.0580432	0.0577341	-58.5595	1	0.00950911	10	-0.00338088
2	0	0	1	0	1197.5	0.0160439	0.0157197	-51.9661	1	0.00560664	10	-0.000816891
2	0	0	1	0	1197.57	-0.0259553	-0.0262989	-40.6014	1	0.00235678	10	0.00106777
2	0	0	1	0	1197.64	-0.0679546	-0.0682995	-37.2607	1	-0.000306865	10	0.00254489
2	0	0	1	1	1197.7	-0.0943505	-0.0948182	-24.8488	1	-0.00264164	10	0.00235612
2	1	0	1	1	1197.77	-0.0523512	-0.0527837	18.4227	1	-0.00250625	10	-0.000972419
2	1	0	1	1	1197.84	-0.010352	-0.0106919	28.8462	1	-0.000760266	10	-0.00030842
2	1	0	1	0	3166.7	0.0284012	0.0280427	27.0523	2	0.00114481	10	0.00075862
2	1	0	1	0	3166.77	0.070406	0.0700475	32.6251	2	0.00322476	10	0.00228531
2	1	0	1	0	3166.84	0.112408	0.11207	40.88	2	0.00578628	10	0.00458143
2	1	0	1	0	3166.91	0.154407	0.15409	51.7434	2	0.00900369	10	0.00797314
2	1	0	1	0	3166.98	0.196407	0.196149	58.7964	2	0.0129749	10	0.0115329
2	1	0	1	0	3167.05	0.238406	0.23813	34.4648	2	0.0163322	10	0.00820712
2	1	0	1	0	3167.12	0.280405	0.280099	23.8628	2	0.0182702	10	0.00668395
2	0	0	1	0	3167.18	0.281246	0.280975	-2.96253	2	0.0192207	10	-0.000832396
2	0	0	1	0	3167.25	0.239247	0.238963	-12.8637	2	0.0185638	10	-0.00307396
2	0	0	1	0	3167.32	0.197247	0.196955	-16.3859	2	0.0175355	10	-0.00322728
2	0	0	1	0	3167.39	0.155248	0.154929	-21.917	2	0.0162271	10	-0.00339557
2	0	0	1	0	3167.46	0.113249	0.112996	-38.4636	2	0.0141881	10	-0.00434623
2	0	0	1	0	3167.53	0.0712495	0.0709785	-54.2553	2	0.0108654	10	-0.00385096
2	0	0	1	0	3167.6	0.0292502	0.0289472	-52.9415	2	0.00702814	10	-0.00153251
2	0	0	1	0	3167.67	-0.0127546	-0.0131181	-44.5959	2	0.00358126	10	0.000585012
2	0	0	1	0	3167.74	-0.0547594	-0.0551197	-37.3219	2	0.000775584	10	0.00205717
2	0	0	1	0	3167.81	-0.0967587	-0.0970822	-38.3744	2	-0.00184305	10	0.00372547
2	1	0	1	1	3167.88	-0.0655575	-0.0659815	8.6518	2	-0.00260259	10	-0.000570859
2	1	0	1	1	3167.95	-0.0235582	-0.0239109	25.3458	2	-0.00128716	10	-0.00060604
2	1	0	1	0	5136.81	0.0152061	0.0148777	24.198	3	0.000556349	10	0.000360012
2	1	0	1	0	5136.88	0.0572053	0.0568422	30.2746	3	0.00247754	10	0.00172087
2	1	0	1	0	5136.95	0.0992046	0.0988047	37.4689	3	0.00483646	10	0.0037021
2	1	0	1	0	5137.02	0.141204	0.140857	46.6543	3	0.00776288	10	0.0065716
2	1	0	1	0	5137.09	0.183203	0.182864	56.5976	3	0.0114135	10	0.0103497
2	1	0	1	0	5137.16	0.225202	0.224921	41.2318	3	0.0150538	10	0.00927389
2	1	0	1	0	5137.23	0.267202	0.26688	25.985	3	0.0172785	10	0.00693487
2	1	0	1	0	5137.29	0.294449	0.294231	10.9672	3	0.0187486	10	0.00322688
2	0	0	1	0	5137.36	0.252444	0.252155	-10.4344	3	0.0184839	10	-0.00263109
2	0	0	1	0	5137.43	0.21044	0.210143	-14.7503	3	0.0175861	10	-0.00309967
2	0	0	1	0	5137.5	0.16844	0.168143	-18.7143	3	0.0164267	10	-0.00314667
2	0	0	1	0	5137.57	0.126441	0.126138	-29.921	3	0.0148029	10	-0.00377417
2	0	0	1	0	5137.64	0.0844419	0.084241	-47.999	3	0.0120407	10	-0.00404348
2	0	0	1	0	5137.71	0.0424426	0.0421599	-52.4968	3	0.00841361	10	-0.00221326
2	0	0	1	0	5137.78	0.000443345	8.50538e-05	-47.2656	3	0.00490844	10	-4.02012e-06
2	0	0	1	0	5137.85	-0.0415559	-0.0419389	-38.9002	3	0.00190292	10	0.00163143
2	0	0	1	0	5137.92	-0.0835552	-0.0838971	-37.465	3	-0.000727558	10	0.0031432
2	0	0	1	1	5137.98	-0.0787554	-0.0791888	-3.73075	3	-0.00241114	10	0.000295434
2	1	0	1	1	5138.05	-0.0367506	-0.0371161	20.6374	3	-0.00164953	10	-0.000765982
2	1	0	1	0	7106.92	0.00200257	0.00160462	20.4932	4	6.22846e-05	10	3.28837e-05
2	1	0	1	0	7106.99	0.0440018	0.0436635	28.9456	4	0.001853	10	0.00126387
2	1	0	1	0	7107.06	0.0860011	0.0855931	35.5486	4	0.00409875	10	0.00304271
2	1	0	1	0	7107.13	0.128003	0.127656	43.6553	4	0.00686338	10	0.00557287
2	1	0	1	0	7107.2	0.170008	0.169635	54.1248	4	0.01029	10	0.00918143
2	1	0	1	0	7107.27	0.212007	0.211693	48.6853	4	0.0141037	10	0.0103064
2	1	0	1	0	7107.34	0.254006	0.253688	28.533	4	0.0166951	10	0.00723848
2	1	0	1	0	7107.41	0.296006	0.295638	23.0922	4	0.0184615	10	0.00682694
2	0	0	1	0	7107.47	0.265642	0.265367	-7.87729	4	0.0187099	10	-0.00209037
2	0	0	1	0	7107.54	0.223643	0.223348	-13.797	4	0.0179128	10	-0.00308155
2	0	0	1	0	7107.61	0.181644	0.18135	-17.2713	4	0.0168263	10	-0.00313214
2	0	0	1	0	7107.68	0.139645	0.139345	-24.387	4	0.0154171	10	-0.00339821
2	0	0	1	0	7107.75	0.0976454	0.0973784	-42.2006	4	0.0131145	10	-0.00410943
2	0	0	1	0	7107.82	0.0556461	0.0553354	-52.6122	4	0.00969865	10	-0.00291132
2	0	0	1	0	7107.89	0.0136468	0.0133465	-49.3421	4	0.00609886	10	-0.000658544
2	0	0	1	0	7107.96	-0.0283524	-0.028723	-41.9392	4	0.00287604	10	0.00120462
2	0	0	1	0	7108.03	-0.0703573	-0.0707416	-37.5998	4	0.000144037	10	0.00265987
2	0	0	1	1	7108.09	-0.0919534	-0.0923941	-21.2258	4	-0.00212523	10	0.00196114
2	1	0	1	1	7108.16	-0.0499541	-0.0503606	15.5146	4	-0.00204961	10	-0.000781322
2	1	0	1	1	7108.23	-0.00795485	-0.00834412	26.2215	4	-0.000509133	10	-0.000218795
2	1	0	1	0	9077.09	0.0308067	0.030523	26.7516	5	0.0012156	10	0.000816539
2	1	0	1	0	9077.16	0.0728059	0.0724525	32.8783	5	0.00329645	10	0.00238211
2	1	0	1	0	9077.23	0.114805	0.114466	40.3469	5	0.00585516	10	0.00461834
2	1	0	1	0	9077.3	0.156804	0.15649	50.1412	5	0.00900569	10	0.00784658
2	1	0	1	0	9077.37	0.198804	0.198483	52.7245	5	0.0127393	10	0.0104649
2	1	0	1	0	9077.44	0.240803	0.240529	31.6125	5	0.0156812	10	0.00760373
2	1	0	1	0	9077.51	0.282802	0.282465	23.7839	5	0.0175567	10	0.00671812
2	0	0	1	0	9077.58	0.278849	0.278561	-2.83868	5	0.0184401	10	-0.000790743
2	0	0	1	0	9077.65	0.236849	0.236562	-12.2678	5	0.0178242	10	-0.00290209
2	0	0	1	0	9077.72	0.19485	0.19457	-15.8479	5	0.0168334	10	-0.00308352
2	0	0	1	0	9077.79	0.152845	0.152533	-20.6652	5	0.0155802	10	-0.00315213
2	0	0	1	0	9077.86	0.110841	0.11057	-35.4454	5	0.013691	10	-0.00391919
2	0	0	1	0	9077.93	0.0688413	0.0685894	-49.6836	5	0.0106408	10	-0.00340777
2	0	0	1	0	9078	0.026842	0.0265242	-49.2628	5	0.00711316	10	-0.00130666
2	0	0	1	0	9078.07	-0.0151573	-0.0155125	-43.8117	5	0.0038323	10	0.000679629
2	0	0	1	0	9078.14	-0.0571565	-0.0575046	-37.5809	5	0.001021	10	0.00216108
2	0	0	1	0	9078.21	-0.0991558	-0.0994723	-38.0717	5	-0.00159666	10	0.00378708
2	1	0	1	1	9078.27	-0.0631604	-0.0636348	8.00132	5	-0.00223262	10	-0.000509162
2	1	0	1	1	9078.34	-0.0211611	-0.0215451	23.4849	5	-0.00102381	10	-0.000505985
2	1	0	1	0	11047.2	0.0176032	0.0172594	24.3024	6	0.000643967	10	0.000419444
2	1	0	1	0	11047.3	0.0596024	0.0592918	30.5526	6	0.00257449	10	0.00181152
2	1	0	1	0	11047.3	0.101602	0.101241	37.374	6	0.00494546	10	0.0037838
2	1	0	1	0	11047.4	0.143601	0.143236	45.6942	6	0.00783744	10	0.00654504
2	1	0	1	0	11047.5	0.1856	0.185272	53.6254	6	0.0113571	10	0.0099353
2	1	0	1	0	11047.6	0.227605	0.227323	39.6841	6	0.0147853	10	0.00902111
2	1	0	1	0	11047.6	0.26961	0.269333	26.0837	6	0.01699	10	0.0070252
2	1	0	1	0	11047.7	0.292041	0.291815	8.77809	6	0.0184138	10	0.00256157
2	0	0	1	0	11047.8	0.250042	0.249684	-10.3037	6	0.0181418	10	-0.00257266
2	0	0	1	0	11047.8	0.208043	0.207745	-14.7631	6	0.0172454	10	-0.00306697
2	0	0	1	0	11047.9	0.166043	0.165706	-18.4482	6	0.016091	10	-0.00305697
2	0	0	1	0	11048	0.124044	0.123778	-28.2162	6	0.0145273	10	-0.00349255
2	0	0	1	0	11048	0.0820447	0.0818085	-44.5906	6	0.0119505	10	-0.00364789
2	0	0	1	0	11048.1	0.0400455	0.0397294	-49.7939	6	0.00855658	10	-0.00197828
2	0	0	1	0	11048.2	-0.00195376	-0.0023348	-46.4469	6	0.00517334	10	0.000108444
2	0	0	1	0	11048.2	-0.043953	-0.0443152	-39.6259	6	0.00215413	10	0.00175603
2	0	0	1	0	11048.3	-0.0859523	-0.0862936	-37.4916	6	-0.000505879	10	0.00323529
2	0	0	1	1	11048.4	-0.0763528	-0.076768	-3.72396	6	-0.00209178	10	0.000285881
2	1	0	1	1	11048.4	-0.0343535	-0.0347652	18.839	6	-0.00142419	10	-0.000654943
2	1	0	1	0	13017.3	0.004408	0.0040637	19.7848	7	0.000134899	10	8.03996e-05
2	1	0	1	0	13017.4	0.0464073	0.0460282	27.3128	7	0.00182295	10	0.00125716
2	1	0	1	0	13017.5	0.0884065	0.0880437	33.4632	7	0.00394278	10	0.00294622
2	1	0	1	0	13017.5	0.130406	0.130087	40.5692	7	0.0065275	10	0.00527751
2	1	0	1	0	13017.6	0.172405	0.172087	49.354	7	0.00968127	10	0.00849319
2	1	0	1	0	13017.7	0.214404	0.214103	45.4173	7	0.0131599	10	0.00972397
2	1	0	1	0	13017.7	0.256404	0.256112	29.0752	7	0.0157002	10	0.00744649
2	1	0	1	0	13017.8	0.298403	0.298072	23.3017	7	0.0174969	10	0.00694557
2	0	0	1	0	13017.9	0.263245	0.262956	-6.1324	7	0.0177675	10	-0.00161255
2	0	0	1	0	13017.9	0.221246	0.220928	-12.5646	7	0.0170733	10	-0.00277588
2	0	0	1	0	13018	0.179247	0.178912	-16.1324	7	0.0160662	10	-0.00288628
2	0	0	1	0	13018.1	0.137247	0.136908	-22.1984	7	0.0147635	10	-0.00303914
2	0	0	1	0	13018.1	0.0952427	0.0950095	-37.2946	7	0.0127066	10	-0.00354334
2	0	0	1	0	13018.2	0.0532407	0.0528838	-46.9481	7	0.00968498	10	-0.00248279
2	0	0	1	0	13018.3	0.0112414	0.0109807	-45.8839	7	0.00640727	10	-0.000503839
2	0	0	1	0	13018.4	-0.0307579	-0.031145	-40.9982	7	0.00333993	10	0.00127689
2	0	0	1	0	13018.4	-0.0727571	-0.073117	-36.969	7	0.000647061	10	0.00270306
2	0	0	1	1	13018.5	-0.0895563	-0.0899647	-18.9484	7	-0.00150744	10	0.00170469
2	1	0	1	1	13018.6	-0.047557	-0.0480139	12.0182	7	-0.00154634	10	-0.000577042
2	1	0	1	1	13018.6	-0.00555774	-0.00591791	22.9083	7	-0.000257055	10	-0.000135569
2	1	0	1	0	14987.5	0.0332038	0.0328643	26.4365	8	0.00128956	10	0.000868817
2	1	0	1	0	14987.6	0.075203	0.0748469	32.3831	8	0.00334409	10	0.00242378
2	1	0	1	0	14987.6	0.117202	0.116867	39.3957	8	0.0058528	10	0.00460404
2	1	0	1	0	14987.7	0.159202	0.158845	48.3293	8	0.00891316	10	0.00767687
2	1	0	1	0	14987.8	0.201201	0.200896	49.106	8	0.0124549	10	0.00986521
2	1	0	1	0	14987.8	0.2432	0.242883	30.8371	8	0.0152397	10	0.00748982
2	1	0	1	0	14987.9	0.285199	0.28488	23.3992	8	0.0170829	10	0.00666595
2	0	0	1	0	14988	0.27644	0.276194	-3.02973	8	0.0178806	10	-0.000836793
2	0	0	1	0	14988	0.234441	0.23414	-12.0968	8	0.0172744	10	-0.00283235
2	0	0	1	0	14988.1	0.192442	0.192117	-15.6542	8	0.0162958	10	-0.00300743
2	0	0	1	0	14988.2	0.150443	0.15013	-20.1622	8	0.0150647	10	-0.00302696
2	0	0	1	0	14988.3	0.108443	0.108159	-33.8577	8	0.0132405	10	-0.003662
2	0	0	1	0	14988.3	0.0664442	0.0661526	-46.7792	8	0.0103536	10	-0.00309456
2	0	0	1	0	14988.4	0.0244449	0.0241192	-47.0166	8	0.00701735	10	-0.001134
2	0	0	1	0	14988.5	-0.0175544	-0.017945	-42.4924	8	0.00386116	10	0.000762529
2	0	0	1	0	14988.5	-0.0595536	-0.0599276	-37.0999	8	0.00110498	10	0.00222331
2	0	0	1	0	14988.6	-0.0999548	-0.100286	-37.4046	8	-0.00137664	10	0.00375114
2	1	0	1	1	14988.7	-0.0607522	-0.0612287	7.52956	8	-0.00199654	10	-0.000461025
2	1	0	1	1	14988.7	-0.0187529	-0.0191401	22.3162	8	-0.000859811	10	-0.000427135
2	1	0	1	0	16957.6	0.0200003	0.0196644	24.8942	9	0.000747133	10	0.000489529
2	1	0	1	0	16957.7	0.0620051	0.0616194	31.0341	9	0.00271241	10	0.0019123
2	1	0	1	0	16957.7	0.10401	0.10367	37.8288	9	0.00511584	10	0.0039217
2	1	0	1	0	16957.8	0.146009	0.145647	46.1843	9	0.00803785	10	0.00672661
2	1	0	1	0	16957.9	0.188008	0.187647	52.1532	9	0.0115465	10	0.00978636
2	1	0	1	0	16957.9	0.230008	0.229701	36.4746	9	0.0147513	10	0.00837827
2	1	0	1	0	16958	0.272007	0.271648	25.124	9	0.0168261	10	0.00682489
2	1	0	1	0	16958.1	0.289644	0.289397	5.81581	9	0.018147	10	0.00168308
2	0	0	1	0	16958.2	0.247645	0.247326	-10.7735	9	0.0177936	10	-0.00266456
2	0	0	1	0	16958.2	0.205645	0.205315	-15.0634	9	0.0168722	10	-0.00309273
2	0	0	1	0	16958.3	0.163646	0.163314	-18.6887	9	0.0156996	10	-0.00305213
2	0	0	1	0	16958.4	0.121647	0.121352	-28.9226	9	0.0141067	10	-0.00350982
2	0	0	1	0	16958.4	0.0796477	0.0794597	-44.5836	9	0.0114951	10	-0.0035426
2	0	0	1	0	16958.5	0.0376456	0.0373541	-48.4053	9	0.0081579	10	-0.00180814
2	0	0	1	0	16958.6	-0.00435919	-0.00475464	-45.0311	9	0.00487117	10	0.000214107
2	0	0	1	0	16958.6	-0.0463585	-0.04668	-38.7551	9	0.001944	10	0.00180909
2	0	0	1	0	16958.7	-0.0883578	-0.0887113	-37.4017	9	-0.000686559	10	0.00331795
2	0	0	1	1	16958.8	-0.0739557	-0.0743735	-1.427	9	-0.00211272	10	0.000106131
2	1	0	1	1	16958.8	-0.0319564	-0.0323804	19.5174	9	-0.00135317	10	-0.00063198
2	1	0	1	0	18927.7	0.0068051	0.00650369	20.1314	10	0.000211633	10	0.000130928
2	1	0	1	0	18927.8	0.0488044	0.0484756	27.2241	10	0.00190093	10	0.00131971
2	1	0	1	0	18927.8	0.0908036	0.0904741	33.2352	10	0.00401104	10	0.00300692
2	1	0	1	0	18927.9	0.132803	0.132448	40.1567	10	0.0065727	10	0.00531868
2	1	0	1	0	18928	0.174802	0.174434	48.2627	10	0.00968	10	0.00841865
2	1	0	1	0	18928.1	0.216801	0.216491	43.6618	10	0.0130374	10	0.00945238
2	1	0	1	0	18928.1	0.258801	0.258467	29.3235	10	0.015542	10	0.00757916
2	1	0	1	0	18928.2	0.299912	0.299594	23.6246	10	0.0173245	10	0.00707778
2	0	0	1	0	18928.3	0.260843	0.260519	-5.84149	10	0.0175769	10	-0.00152182
2	0	0	1	0	18928.3	0.218841	0.218565	-12.4276	10	0.0168998	10	-0.00271623
2	0	0	1	0	18928.4	0.176841	0.176523	-16.0896	10	0.0158987	10	-0.00284018
2	0	0	1	0	18928.5	0.134842	0.134542	-22.2045	10	0.0145974	10	-0.00298745
2	0	0	1	0	18928.5	0.0928428	0.0926352	-36.6296	10	0.0125553	10	-0.00339319
2	0	0	1	0	18928.6	0.0508436	0.0505424	-45.3247	10	0.00961785	10	-0.00229082
2	0	0	1	0	18928.7	0.00884431	0.00850892	-44.7598	10	0.00643947	10	-0.000380858
2	0	0	1	0	18928.8	-0.033155	-0.0335224	-40.3933	10	0.00343565	10	0.00135408
2	0	0	1	0	18928.8	-0.0751542	-0.0755294	-36.9687	10	0.000758508	10	0.00279223
2	0	0	1	1	18928.9	-0.0871592	-0.0875767	-16.6294	10	-0.00132281	10	0.00145634
2	1	0	1	1	18929	-0.0451544	-0.0456026	11.4256	10	-0.00133368	10	-0.000521036
2	1	0	1	1	18929	-0.00315231	-0.00354684	22.1715	10	-9.77952e-05	10	-7.86389e-05
2	1	0	1	0	20897.9	0.0356009	0.0352513	24.7524	11	0.00128391	10	0.000872554
2	1	0	1	0	20898	0.0776001	0.0772021	30.3612	11	0.00321139	10	0.00234395
2	1	0	1	0	20898	0.119599	0.119254	36.734	11	0.00555664	10	0.00438066
2	1	0	1	0	20898.1	0.161604	0.161234	44.587	11	0.00839588	10	0.00718894
2	1	0	1	0	20898.2	0.203609	0.203289	46.4949	11	0.0116773	10	0.00945189
2	1	0	1	0	20898.2	0.245608	0.245304	32.3458	11	0.0144574	10	0.00793455
2	1	0	1	0	20898.3	0.287608	0.287255	24.2625	11	0.0163902	10	0.00696953
2	0	0	1	0	20898.4	0.274043	0.273718	-1.15295	11	0.0172118	10	-0.000315582
2	0	0	1	0	20898.4	0.232044	0.23172	-10.7126	11	0.0167265	10	-0.00248234
2	0	0	1	0	20898.5	0.190045	0.189724	-14.6477	11	0.0158281	10	-0.00277903
2	0	0	1	0	20898.6	0.148046	0.147693	-18.9349	11	0.0146697	10	-0.00279654
2	0	0	1	0	20898.6	0.106046	0.105779	-30.8109	11	0.0129838	10	-0.00325914
2	0	0	1	0	20898.7	0.0640471	0.063754	-42.3312	11	0.0103737	10	-0.00269879
2	0	0	1	0	20898.8	0.0220478	0.0217396	-43.9777	11	0.00730756	10	-0.000956059
2	0	0	1	0	20898.9	-0.0199515	-0.0202642	-41.1272	11	0.00430587	10	0.000833407
2	0	0	1	0	20898.9	-0.0619563	-0.0623199	-36.6072	11	0.0016026	10	0.00228136
2	0	0	1	1	20899	-0.0999548	-0.100362	-36.046	11	-0.000705953	10	0.00361765
2	1	0	1	1	20899.1	-0.0583551	-0.058793	4.72268	11	-0.00144387	10	-0.000277661
2	1	0	1	1	20899.1	-0.0163558	-0.0167362	18.9169	11	-0.00054247	10	-0.000316597
2	1	0	1	0	22868	0.0224085	0.0220683	24.0471	12	0.000803087	10	0.000530679
2	1	0	1	0	22868.1	0.0644077	0.0640859	29.9107	12	0.00269803	10	0.00191685
2	1	0	1	0	22868.1	0.106407	0.106039	36.2968	12	0.0050109	10	0.00384887
2	1	0	1	0	22868.2	0.148406	0.148097	44.1369	12	0.0078128	10	0.00653653
2	1	0	1	0	22868.3	0.190405	0.19009	49.2764	12	0.0111456	10	0.00936693
2	1	0	1	0	22868.3	0.232405	0.23209	36.5957	12	0.0142333	10	0.0084935
2	1	0	1	0	22868.4	0.274404	0.274051	25.9817	12	0.0163626	10	0.00712031
2	1	0	1	0	22868.5	0.287247	0.286959	5.71719	12	0.0176778	10	0.0016406
2	0	0	1	0	22868.5	0.245248	0.244944	-9.70104	12	0.0173947	10	-0.00237621
2	0	0	1	0	22868.6	0.203246	0.202943	-14.4014	12	0.0165323	10	-0.00292267
2	0	0	1	0	22868.7	0.161241	0.160879	-18.1571	12	0.0153996	10	-0.00292109
2	0	0	1	0	22868.8	0.119241	0.118963	-27.9099	12	0.0138547	10	-0.00332024
2	0	0	1	0	22868.8	0.0772422	0.07699	-41.9707	12	0.0113714	10	-0.00323132
2	0	0	1	0	22868.9	0.035243	0.0349099	-45.7388	12	0.00823653	10	-0.00159674
2	0	0	1	0	22869	-0.00675629	-0.00716707	-43.3996	12	0.00509766	10	0.000311048
2	0	0	1	0	22869	-0.0487556	-0.0491147	-38.2881	12	0.00224212	10	0.00188051
2	0	0	1	0	22869.1	-0.0907548	-0.0910856	-36.9805	12	-0.000363722	10	0.00336839
2	0	0	1	1	22869.2	-0.0715586	-0.0719335	-1.87982	12	-0.00168952	10	0.000135222
2	1	0	1	1	22869.2	-0.0295593	-0.0299626	17.3572	12	-0.00104343	10	-0.000520069
2	1	0	1	0	24838.1	0.00920221	0.00885674	20.5053	13	0.000289879	10	0.00018161
2	1	0	1	0	24838.2	0.0512015	0.0508912	27.1811	13	0.00198546	10	0.00138328
2	1	0	1	0	24838.2	0.0932007	0.0928314	33.0778	13	0.00408925	10	0.00307066
2	1	0	1	0	24838.3	0.1352	0.134812	39.9255	13	0.00663507	10	0.00538243
2	1	0	1	0	24838.4	0.177199	0.17687	47.2182	13	0.00970775	10	0.00835147
2	1	0	1	0	24838.5	0.219198	0.218899	41.3223	13	0.0129281	10	0.0090454
2	1	0	1	0	24838.5	0.261203	0.260891	28.4575	13	0.0153247	10	0.00742431
2	1	0	1	0	24838.6	0.299912	0.299766	23.0763	13	0.0169788	10	0.00691749
2	0	0	1	0	24838.7	0.258443	0.258182	-6.21191	13	0.0172061	10	-0.0016038
2	0	0	1	0	24838.7	0.216443	0.216157	-12.5741	13	0.0165138	10	-0.00271798
2	0	0	1	0	24838.8	0.174444	0.174137	-16.212	13	0.015503	10	-0.00282311
2	0	0	1	0	24838.9	0.132445	0.13215	-22.5004	13	0.0141892	10	-0.00297343
2	0	0	1	0	24838.9	0.0904457	0.0902175	-36.556	13	0.0121274	10	-0.00329799
2	0	0	1	0	24839	0.0484465	0.0481225	-43.937	13	0.00924295	10	-0.00211436
2	0	0	1	0	24839.1	0.0064472	0.0061474	-43.31	13	0.00616666	10	-0.000266244
2	0	0	1	0	24839.1	-0.0355521	-0.0358967	-39.0961	13	0.00326396	10	0.00140342
2	0	0	1	0	24839.2	-0.0775514	-0.0779015	-36.3038	13	0.000651978	10	0.00282812
2	0	0	1	1	24839.3	-0.0847538	-0.0851801	-13.7828	13	-0.00130485	10	0.00117402
2	1	0	1	1	24839.3	-0.0427545	-0.0432061	11.6792	13	-0.00123186	10	-0.000504614
2	1	0	1	1	24839.4	-0.000755208	-0.00114502	21.8884	13	-2.41904e-06	10	-2.50626e-05
2	1	0	1	0	26808.3	0.0380091	0.0376447	25.7	14	0.00141983	10	0.000967466
2	1	0	1	0	26808.3	0.0800083	0.0796071	31.3019	14	0.00341193	10	0.00249185
2	1	0	1	0	26808.4	0.122008	0.121663	37.7356	14	0.00582362	10	0.00459102
2	1	0	1	0	26808.5	0.164007	0.163672	45.5105	14	0.00873578	10	0.00744878
2	1	0	1	0	26808.6	0.206006	0.205682	45.9274	14	0.012037	10	0.00944644
2	1	0	1	0	26808.6	0.248005	0.247691	32.3474	14	0.0147861	10	0.00801216
2	1	0	1	0	26808.7	0.290005	0.289676	24.4969	14	0.0167319	10	0.00709617
2	0	0	1	0	26808.8	0.271646	0.271354	-2.03095	14	0.0174691	10	-0.000551107
2	0	0	1	0	26808.8	0.229647	0.229353	-11.3436	14	0.0169365	10	-0.00260168
2	0	0	1	0	26808.9	0.187648	0.187329	-15.3655	14	0.015991	10	-0.0028784
2	0	0	1	0	26809	0.145648	0.145393	-19.8462	14	0.0147773	10	-0.00288549
2	0	0	1	0	26809	0.103644	0.103365	-32.1469	14	0.0130074	10	-0.00332288
2	0	0	1	0	26809.1	0.0616389	0.0613659	-42.957	14	0.0103249	10	-0.0026361
2	0	0	1	0	26809.2	0.0196396	0.0192742	-44.3095	14	0.00723249	10	-0.000854028
2	0	0	1	0	26809.3	-0.0223597	-0.022702	-41.2112	14	0.00421607	10	0.000935578
2	0	0	1	0	26809.3	-0.0643589	-0.0647207	-37.0669	14	0.00149596	10	0.002399
2	0	0	1	1	26809.4	-0.0979573	-0.0984151	-31.8793	14	-0.000805891	10	0.00313741
2	1	0	1	1	26809.5	-0.055958	-0.0563975	5.81393	14	-0.00143062	10	-0.000327892
2	1	0	1	1	26809.5	-0.0139587	-0.01438	19.6273	14	-0.000469884	10	-0.00028224
2	1	0	1	0	28778.4	0.0248056	0.0244702	21.7122	15	0.000795175	10	0.0005313
2	1	0	1	0	28778.5	0.0668048	0.0664601	27.1723	15	0.00251294	10	0.00180587
2	1	0	1	0	28778.5	0.108804	0.108458	32.8743	15	0.00461125	10	0.00356547
2	1	0	1	0	28778.6	0.150803	0.150449	39.6302	15	0.00713793	10	0.00596231
2	1	0	1	0	28778.7	0.192803	0.192472	44.8424	15	0.0101371	10	0.00863093
2	1	0	1	0	28778.7	0.234802	0.234501	36.5515	15	0.0130664	10	0.00857135
2	1	0	1	0	28778.8	0.276801	0.276498	26.607	15	0.0152353	10	0.00735679
2	1	0	1	0	28778.9	0.284841	0.28458	6.92017	15	0.0165519	10	0.00196935
2	0	0	1	0	28778.9	0.242842	0.242543	-7.66178	15	0.0164113	10	-0.00185831
2	0	0	1	0	28779	0.200843	0.200527	-12.77	15	0.0156758	10	-0.00256073
2	0	0	1	0	28779.1	0.158844	0.158514	-16.4912	15	0.0146542	10	-0.00261408
2	0	0	1	0	28779.2	0.116844	0.116552	-24.7432	15	0.0132647	10	-0.00288386
2	0	0	1	0	28779.2	0.0748451	0.0745733	-36.821	15	0.0110848	10	-0.00274586
2	0	0	1	0	28779.3	0.0328459	0.0325483	-41.4263	15	0.00829577	10	-0.00134836
2	0	0	1	0	28779.4	-0.0091534	-0.00950845	-40.6002	15	0.00540515	10	0.000386045
2	0	0	1	0	28779.4	-0.0511527	-0.0515334	-36.7957	15	0.00269192	10	0.00189621
2	0	0	1	0	28779.5	-0.093152	-0.0935415	-35.3277	15	0.000189731	10	0.0033046
2	0	0	1	1	28779.6	-0.0691532	-0.069572	-3.75032	15	-0.00106042	10	0.000260918
2	1	0	1	1	28779.6	-0.0271539	-0.027546	13.6349	15	-0.000633188	10	-0.000375588
2	1	0	1	0	30748.5	0.0115993	0.0112236	19.5817	16	0.000346559	10	0.000219777
2	1	0	1	0	30748.6	0.0535986	0.0532846	25.9028	16	0.00195981	10	0.00138022
2	1	0	1	0	30748.6	0.0956034	0.0952247	31.4338	16	0.00396312	10	0.00299327
2	1	0	1	0	30748.7	0.137608	0.137262	37.8269	16	0.00637971	10	0.00519221
2	1	0	1	0	30748.8	0.179607	0.179266	44.5013	16	0.00927862	10	0.00797757
2	1	0	1	0	30748.8	0.221607	0.221307	40.9129	16	0.0123636	10	0.00905431
2	1	0	1	0	30748.9	0.263606	0.2633	29.6503	16	0.0148116	10	0.00780692
2	1	0	1	0	30749	0.298045	0.297822	20.5327	16	0.0165028	10	0.00611507
2	0	0	1	0	30749.1	0.256046	0.255717	-4.76833	16	0.0168008	10	-0.00121934
2	0	0	1	0	30749.1	0.214046	0.213717	-11.615	16	0.0161926	10	-0.00248233
2	0	0	1	0	30749.2	0.172047	0.171732	-15.5015	16	0.0152383	10	-0.00266211
2	0	0	1	0	30749.3	0.130048	0.129731	-21.4532	16	0.0139804	10	-0.00278315
2	0	0	1	0	30749.3	0.0880486	0.0877881	-33.973	16	0.0120453	10	-0.00298242
2	0	0	1	0	30749.4	0.0460494	0.0457949	-41.2571	16	0.00935864	10	-0.00188937
2	0	0	1	0	30749.5	0.00404455	0.00372649	-41.6748	16	0.00643232	10	-0.000155301
2	0	0	1	0	30749.5	-0.0379603	-0.0383674	-38.5525	16	0.0036068	10	0.00147916
2	0	0	1	0	30749.6	-0.0799595	-0.0803023	-35.9819	16	0.00101924	10	0.00288943
2	0	0	1	1	30749.7	-0.0823567	-0.0827773	-13.4789	16	-0.00085854	10	0.00111575
2	1	0	1	1	30749.7	-0.0403574	-0.0408074	9.4737	16	-0.00088008	10	-0.000386597
2	1	0	1	1	30749.8	2.44065e-05	-0.000325324	19.3625	16	0.000140882	10	-6.29909e-06
2	1	0	1	0	32718.7	0.0404062	0.0400571	25.8295	17	0.00151239	10	0.00103465
2	1	0	1	0	32718.7	0.0824054	0.0820789	31.3197	17	0.00351029	10	0.00257069
2	1	0	1	0	32718.8	0.124405	0.124056	37.6794	17	0.00591995	10	0.00467436
2	1	0	1	0	32718.9	0.166404	0.166069	45.1681	17	0.00882544	10	0.00750104
2	1	0	1	0	32719	0.208403	0.208048	44.0519	17	0.0120495	10	0.0091649
2	1	0	1	0	32719	0.250402	0.250102	31.2669	17	0.014683	10	0.00781993
2	1	0	1	0	32719.1	0.292402	0.292088	24.1658	17	0.0165854	10	0.00705855
2	0	0	1	0	32719.2	0.269244	0.268919	-2.62009	17	0.0172247	10	-0.000704594
2	0	0	1	0	32719.2	0.227239	0.226939	-11.4328	17	0.016676	10	-0.00259454
2	0	0	1	0	32719.3	0.18524	0.184931	-15.4616	17	0.0157253	10	-0.00285934
2	0	0	1	0	32719.4	0.14324	0.142913	-20.1684	17	0.0145006	10	-0.00288233
2	0	0	1	0	32719.4	0.101241	0.100974	-32.6654	17	0.0126899	10	-0.00329837
2	0	0	1	0	32719.5	0.0592417	0.058927	-42.41	17	0.0100023	10	-0.00249909
2	0	0	1	0	32719.6	0.0172425	0.0169031	-43.2462	17	0.00697214	10	-0.000730996
2	0	0	1	0	32719.6	-0.0247568	-0.0251685	-40.0317	17	0.0040356	10	0.00100754
2	0	0	1	0	32719.7	-0.066756	-0.0671045	-36.5291	17	0.00137646	10	0.00245127
2	0	0	1	1	32719.8	-0.0955546	-0.096008	-27.1304	17	-0.000875126	10	0.00260473
2	1	0	1	1	32719.9	-0.0535498	-0.0540021	6.67742	17	-0.00135438	10	-0.000360594
2	1	0	1	1	32719.9	-0.0115505	-0.0120068	19.7229	17	-0.000366299	10	-0.000236809
2	1	0	1	0	34688.8	0.0272027	0.0268762	22.0509	18	0.000882169	10	0.000592645
2	1	0	1	0	34688.9	0.0692019	0.0688471	27.4075	18	0.00261888	10	0.00188693
2	1	0	1	0	34688.9	0.111201	0.110815	33.0204	18	0.0047313	10	0.00365915
2	1	0	1	0	34689	0.153206	0.152856	39.8505	18	0.00727198	10	0.00609137
2	1	0	1	0	34689.1	0.195208	0.194896	43.987	18	0.0102597	10	0.00857287
2	1	0	1	0	34689.1	0.237207	0.236943	35.1139	18	0.0130879	10	0.00831998
2	1	0	1	0	34689.2	0.279207	0.278879	26.1783	18	0.0151948	10	0.00730058
2	1	0	1	0	34689.3	0.282444	0.282131	5.53617	18	0.0164319	10	0.00156192
2	0	0	1	0	34689.3	0.240445	0.240156	-7.87965	18	0.0162501	10	-0.00189234
2	0	0	1	0	34689.4	0.198446	0.198098	-12.9265	18	0.0155027	10	-0.00256072
2	0	0	1	0	34689.5	0.156447	0.15613	-16.7173	18	0.0144688	10	-0.00261007
2	0	0	1	0	34689.5	0.114447	0.114136	-25.4538	18	0.0130472	10	-0.0029052
2	0	0	1	0	34689.6	0.072448	0.0721821	-37.0191	18	0.0108291	10	-0.00267212
2	0	0	1	0	34689.7	0.0304488	0.0301168	-40.8882	18	0.00805656	10	-0.00123142
2	0	0	1	0	34689.8	-0.0115505	-0.0119081	-39.811	18	0.00521158	10	0.000474076
2	0	0	1	0	34689.8	-0.0535498	-0.0538769	-36.2727	18	0.00255023	10	0.00195426
2	0	0	1	0	34689.9	-0.0955546	-0.0959306	-35.3056	18	6.5227e-05	10	0.00338689
2	0	0	1	1	34690	-0.0667561	-0.0671172	-2.29445	18	-0.00104657	10	0.000153997
2	1	0	1	1	34690	-0.0247568	-0.0251399	14.125	18	-0.000556754	10	-0.000355101
2	1	0	1	0	36658.9	0.0140075	0.0136063	19.4608	19	0.000412231	10	0.000264789
2	1	0	1	0	36659	0.0560068	0.0556461	25.4994	19	0.00200351	10	0.00141894
2	1	0	1	0	36659	0.098006	0.0976234	30.8339	19	0.00397199	10	0.00301011
2	1	0	1	0	36659.1	0.140005	0.139658	36.9784	19	0.00633781	10	0.00516432
2	1	0	1	0	36659.2	0.182005	0.181672	43.2625	19	0.00916466	10	0.0078596
2	1	0	1	0	36659.2	0.224004	0.223697	39.9636	19	0.012162	10	0.00893974
2	1	0	1	0	36659.3	0.266003	0.265712	29.5909	19	0.0145822	10	0.00786264
2	1	0	1	0	36659.4	0.295648	0.295408	17.765	19	0.0162526	10	0.00524794
2	0	0	1	0	36659.4	0.253649	0.253302	-4.54755	19	0.0165181	10	-0.0011519
2	0	0	1	0	36659.5	0.211649	0.211337	-11.4004	19	0.0159265	10	-0.00240934
2	0	0	1	0	36659.6	0.169644	0.169302	-15.3476	19	0.014985	10	-0.00259837
2	0	0	1	0	36659.7	0.12764	0.127366	-21.2821	19	0.0137383	10	-0.00271061
2	0	0	1	0	36659.7	0.0856404	0.0853799	-33.1601	19	0.0118346	10	-0.0028312
2	0	0	1	0	36659.8	0.0436412	0.0433401	-39.9981	19	0.00922599	10	-0.00173352
2	0	0	1	0	36659.9	0.0016419	0.00125574	-40.6952	19	0.00638062	10	-5.11027e-05
2	0	0	1	0	36659.9	-0.0403574	-0.0407565	-37.8513	19	0.00361704	10	0.00154269
2	0	0	1	0	36660	-0.0823567	-0.0826702	-35.5624	19	0.00106589	10	0.00293995
2	0	0	1	1	36660.1	-0.0799595	-0.0803595	-12.1797	19	-0.000712216	10	0.000978754
2	1	0	1	1	36660.1	-0.0379603	-0.0383939	9.07134	19	-0.000718306	10	-0.000348284
2	1	0	1	0	38629	0.00080402	0.000421203	16.5637	20	1.81815e-05	10	6.97666e-06
2	1	0	1	0	38629.1	0.0428033	0.0424589	24.5861	20	0.00151089	10	0.0010439
2	1	0	1	0	38629.1	0.0848025	0.0844277	29.8514	20	0.00341484	10	0.00252028
2	1	0	1	0	38629.2	0.126802	0.126451	35.7538	20	0.00570608	10	0.00452108
2	1	0	1	0	38629.3	0.168801	0.168454	42.6602	20	0.00845567	10	0.00718629
2	1	0	1	0	38629.4	0.210803	0.210491	42.5919	20	0.0115214	10	0.00896522
2	1	0	1	0	38629.4	0.252808	0.252468	31.8285	20	0.0141388	10	0.00803568
2	1	0	1	0	38629.5	0.294807	0.294499	24.6298	20	0.0160816	10	0.00725346
2	0	0	1	0	38629.6	0.266841	0.266546	-1.48025	20	0.0167216	10	-0.000394556
2	0	0	1	0	38629.6	0.224842	0.224542	-10.4516	20	0.016251	10	-0.00234683
2	0	0	1	0	38629.7	0.182842	0.182533	-14.6942	20	0.01536	10	-0.00268218
2	0	0	1	0	38629.8	0.140843	0.140506	-19.2889	20	0.0141891	10	-0.0027102
2	0	0	1	0	38629.8	0.0988439	0.0985374	-30.5838	20	0.0124778	10	-0.00301365
2	0	0	1	0	38629.9	0.0568446	0.0565612	-39.7506	20	0.00996851	10	-0.00224835
2	0	0	1	0	38630	0.0148454	0.0145257	-41.3713	20	0.00709888	10	-0.000600946
2	0	0	1	0	38630	-0.0271539	-0.0274898	-39.0484	20	0.00426321	10	0.00107343
2	0	0	1	0	38630.1	-0.0691532	-0.0695476	-35.9817	20	0.00165175	10	0.00250244
2	0	0	1	1	38630.2	-0.093152	-0.0936136	-24.1853	20	-0.00052397	10	0.00226407
2	1	0	1	1	38630.2	-0.0511527	-0.0515918	5.1555	20	-0.00100982	10	-0.000265981
2	1	0	1	1	38630.3	-0.0091534	-0.00952329	17.7387	20	-0.000152281	10	-0.000168931
2	1	0	1	0	40599.2	0.0296081	0.029259	21.4402	21	0.000923256	10	0.000627318
2	1	0	1	0	40599.2	0.0716074	0.0712097	26.7021	21	0.00261356	10	0.00190145
2	1	0	1	0	40599.3	0.113607	0.113263	32.117	21	0.00466941	10	0.00363767
2	1	0	1	0	40599.4	0.155606	0.15525	38.4691	21	0.0071314	10	0.00597233
2	1	0	1	0	40599.5	0.197605	0.197243	42.6864	21	0.0100139	10	0.00841961
2	1	0	1	0	40599.5	0.239604	0.239266	36.0893	21	0.0128309	10	0.00863495
2	1	0	1	0	40599.6	0.281604	0.281257	27.4721	21	0.0150295	10	0.00772673
2	1	0	1	0	40599.7	0.280047	0.279759	6.44573	21	0.0162965	10	0.00180325
2	0	0	1	0	40599.7	0.238048	0.237765	-6.95303	21	0.0161907	10	-0.00165318
2	0	0	1	0	40599.8	0.196049	0.195749	-12.4403	21	0.0154912	10	-0.00243518
2	0	0	1	0	40599.9	0.154049	0.153727	-16.4479	21	0.014482	10	-0.0025285
2	0	0	1	0	40599.9	0.11205	0.111743	-24.5869	21	0.0130926	10	-0.0027474
2	0	0	1	0	40600	0.0700454	0.0698365	-35.3165	21	0.0109706	10	-0.00246638
2	0	0	1	0	40600.1	0.0280406	0.0277447	-39.6792	21	0.00830669	10	-0.00110089
2	0	0	1	0	40600.2	-0.0139587	-0.0143428	-39.3842	21	0.00551978	10	0.000564882
2	0	0	1	0	40600.2	-0.055958	-0.0562968	-36.4921	21	0.002862	10	0.00205439
2	0	0	1	0	40600.3	-0.0979573	-0.0983271	-35.3907	21	0.000363397	10	0.00347986
2	0	0	1	1	40600.4	-0.0643589	-0.0647609	-3.23768	21	-0.000709485	10	0.000209675
2	1	0	1	1	40600.4	-0.0223597	-0.0227699	12.49	21	-0.000319727	10	-0.000284396
2	1	0	1	0	42569.3	0.0164046	0.0160124	19.921	22	0.000490768	10	0.000318983
2	1	0	1	0	42569.4	0.0584039	0.0580341	25.7469	22	0.00210458	10	0.0014942
2	1	0	1	0	42569.4	0.100403	0.100049	31.0507	22	0.00408994	10	0.00310657
2	1	0	1	0	42569.5	0.142402	0.141995	37.2449	22	0.00647103	10	0.00528859
2	1	0	1	0	42569.6	0.184402	0.184073	42.9623	22	0.00930471	10	0.0079082
2	1	0	1	0	42569.6	0.226401	0.226093	38.6603	22	0.0122374	10	0.00874081
2	1	0	1	0	42569.7	0.2684	0.268061	28.9841	22	0.0145868	10	0.00776952
2	1	0	1	0	42569.8	0.29324	0.292957	15.2475	22	0.0162062	10	0.00446686
2	0	0	1	0	42569.8	0.25124	0.250891	-4.88087	22	0.0164044	10	-0.00122457
2	0	0	1	0	42569.9	0.209241	0.208949	-11.5568	22	0.0157985	10	-0.00241478
2	0	0	1	0	42570	0.167242	0.166913	-15.546	22	0.0148452	10	-0.00259484
2	0	0	1	0	42570.1	0.125243	0.12495	-21.8682	22	0.0135743	10	-0.00273243
2	0	0	1	0	42570.1	0.0832433	0.082994	-33.6209	22	0.0116264	10	-0.00279033
2	0	0	1	0	42570.2	0.041244	0.0409457	-39.7186	22	0.00901299	10	-0.0016263
2	0	0	1	0	42570.3	-0.000755208	-0.00109412	-40.1023	22	0.00619881	10	4.38767e-05
2	0	0	1	0	42570.3	-0.0427545	-0.0431583	-37.3022	22	0.0034795	10	0.0016099
2	0	0	1	0	42570.4	-0.0847538	-0.085178	-35.4678	22	0.00094972	10	0.00302108
2	0	0	1	1	42570.5	-0.0775514	-0.0780129	-10.3359	22	-0.000726103	10	0.000806334
2	1	0	1	1	42570.5	-0.0355521	-0.0360091	9.72507	22	-0.000654193	10	-0.000350191
2	1	0	1	0	44539.4	0.00320112	0.00289089	17.1762	23	8.47863e-05	10	4.96544e-05
2	1	0	1	0	44539.5	0.0452032	0.0448554	24.4515	23	0.00157965	10	0.00109678
2	1	0	1	0	44539.5	0.087208	0.0868571	29.5987	23	0.00346968	10	0.00257086
2	1	0	1	0	44539.6	0.129207	0.128831	35.3725	23	0.00573781	10	0.00455708
2	1	0	1	0	44539.7	0.171206	0.17086	42.0032	23	0.00845416	10	0.00717669
2	1	0	1	0	44539.7	0.213206	0.212864	41.257	23	0.0114458	10	0.00878213
2	1	0	1	0	44539.8	0.255205	0.254889	31.2145	23	0.0139896	10	0.00795625
2	1	0	1	0	44539.9	0.297204	0.296891	24.5133	23	0.0159112	10	0.00727777
2	0	0	1	0	44539.9	0.264444	0.264149	-1.65923	23	0.0164796	10	-0.000438282
2	0	0	1	0	44540	0.222445	0.222131	-10.333	23	0.0160114	10	-0.00229527
2	0	0	1	0	44540.1	0.180445	0.180165	-14.6083	23	0.0151275	10	-0.0026319
2	0	0	1	0	44540.2	0.138446	0.138148	-19.289	23	0.01396	10	-0.00266473
2	0	0	1	0	44540.2	0.0964468	0.0962374	-30.4456	23	0.0122462	10	-0.00293001
2	0	0	1	0	44540.3	0.0544475	0.0541615	-38.964	23	0.00976849	10	-0.00211035
2	0	0	1	0	44540.4	0.0124427	0.0121016	-40.5076	23	0.00695926	10	-0.000490205
2	0	0	1	0	44540.4	-0.0295593	-0.0299223	-38.2614	23	0.00418363	10	0.00114487
2	0	0	1	0	44540.5	-0.0715586	-0.0719007	-35.6014	23	0.00161306	10	0.00255977
2	0	0	1	1	44540.6	-0.0907548	-0.091198	-21.3763	23	-0.000493924	10	0.00194947
2	1	0	1	1	44540.6	-0.0487556	-0.0492037	5.50659	23	-0.00089668	10	-0.000270945
2	1	0	1	1	44540.7	-0.00675629	-0.00715753	17.5391	23	-3.76361e-05	10	-0.000125537
2	1	0	1	0	46509.6	0.0320052	0.0316491	22.1416	24	0.00103063	10	0.000700763
2	1	0	1	0	46509.6	0.0740045	0.0736455	27.3045	24	0.00276521	10	0.00201085
2	1	0	1	0	46509.7	0.116004	0.115586	32.7036	24	0.00486314	10	0.00378006
2	1	0	1	0	46509.8	0.158003	0.15766	39.2153	24	0.00737456	10	0.0061827
2	1	0	1	0	46509.9	0.200002	0.199652	42.2115	24	0.0102798	10	0.00842763
2	1	0	1	0	46509.9	0.242001	0.241683	34.3339	24	0.0130042	10	0.00829791
2	1	0	1	0	46510	0.284001	0.283682	26.2568	24	0.0150966	10	0.0074486
2	1	0	1	0	46510.1	0.27765	0.277354	4.39018	24	0.0162239	10	0.00121763
2	0	0	1	0	46510.1	0.235645	0.235301	-7.85223	24	0.016024	10	-0.00184764
2	0	0	1	0	46510.2	0.19364	0.193301	-13.0105	24	0.0152758	10	-0.00251493
2	0	0	1	0	46510.3	0.151641	0.151355	-16.9838	24	0.0142306	10	-0.00257058
2	0	0	1	0	46510.3	0.109642	0.109357	-25.8389	24	0.0127809	10	-0.00282566
2	0	0	1	0	46510.4	0.0676427	0.0673859	-36.226	24	0.0105757	10	-0.00244112
2	0	0	1	0	46510.5	0.0256435	0.0253418	-39.7466	24	0.00788001	10	-0.00100725
2	0	0	1	0	46510.5	-0.0163558	-0.0167235	-38.7958	24	0.00511004	10	0.0006488
2	0	0	1	0	46510.6	-0.0583551	-0.0587474	-35.8174	24	0.00250276	10	0.00210418
2	0	0	0	0	46510.7	-0.099805	-0.100209	-35.1015	24	6.85282e-05	10	0.0035175
2	0	0	1	1	46510.8	-0.0619563	-0.0623326	-1.06397	24	-0.000848084	10	6.63201e-05
2	1	0	1	1	46510.8	-0.0199515	-0.0203384	13.8949	24	-0.000336197	10	-0.0002826
2	1	0	1	0	48479.7	0.0188017	0.0184205	19.6544	25	0.000551409	10	0.000362044
2	1	0	1	0	48479.8	0.060801	0.0604445	25.2831	25	0.00213815	10	0.00152822
2	1	0	1	0	48479.8	0.1028	0.102442	30.3893	25	0.00408471	10	0.00311313
2	1	0	1	0	48479.9	0.144805	0.144462	36.2913	25	0.00641094	10	0.00524269
2	1	0	1	0	48480	0.18681	0.186448	41.6937	25	0.00916383	10	0.00777371
2	1	0	1	0	48480	0.228809	0.228472	38.1141	25	0.0120243	10	0.00870801
2	1	0	1	0	48480.1	0.270808	0.270484	28.9927	25	0.0143622	10	0.00784208
2	1	0	1	0	48480.2	0.290842	0.290535	13.8254	25	0.015945	10	0.00401677
2	0	0	1	0	48480.2	0.248843	0.248563	-4.71313	25	0.0161266	10	-0.00117151
2	0	0	1	0	48480.3	0.206844	0.206539	-11.3995	25	0.0155333	10	-0.00235444
2	0	0	1	0	48480.4	0.164845	0.164475	-15.3915	25	0.0145906	10	-0.00253151
2	0	0	1	0	48480.4	0.122845	0.122576	-21.4809	25	0.0133351	10	-0.00263304
2	0	0	1	0	48480.5	0.0808462	0.0806187	-32.4998	25	0.0114402	10	-0.00262009
2	0	0	1	0	48480.6	0.0388469	0.0384866	-38.5953	25	0.00891044	10	-0.0014854
2	0	0	1	0	48480.7	-0.00315231	-0.00347367	-39.3242	25	0.00616135	10	0.000136599
2	0	0	1	0	48480.7	-0.0451544	-0.0455294	-36.811	25	0.00348559	10	0.00167598
2	0	0	1	0	48480.8	-0.0871592	-0.0875396	-35.02	25	0.000987274	10	0.00306563
2	0	0	1	1	48480.9	-0.0751543	-0.075557	-9.57401	25	-0.000591576	10	0.000723383
2	1	0	1	1	48480.9	-0.033155	-0.0335818	9.27102	25	-0.000519765	10	-0.000311337
2	1	0	1	0	50449.8	0.00560655	0.00522802	16.9108	26	0.000146576	10	8.84102e-05
2	1	0	1	0	50449.9	0.0476058	0.0472053	23.7276	26	0.00159874	10	0.00112007
2	1	0	1	0	50449.9	0.0896051	0.0892175	28.7586	26	0.0034354	10	0.00256577
2	1	0	1	0	50450	0.131604	0.131222	34.2818	26	0.00563622	10	0.00449854
2	1	0	1	0	50450.1	0.173604	0.173223	40.4006	26	0.0082598	10	0.00699832
2	1	0	1	0	50450.1	0.215603	0.21528	39.8944	26	0.0111366	10	0.00858845
2	1	0	1	0	50450.2	0.257602	0.25725	31.1997	26	0.0136359	10	0.0080261
2	1	0	1	0	50450.3	0.299421	0.299124	24.7823	26	0.0155631	10	0.007413
2	0	0	1	0	50450.3	0.262047	0.261763	-1.04192	26	0.0161158	10	-0.000272736
2	0	0	1	0	50450.4	0.220047	0.219774	-9.68538	26	0.0156955	10	-0.00212859
2	0	0	1	0	50450.5	0.178043	0.177722	-14.1352	26	0.0148504	10	-0.00251213
2	0	0	1	0	50450.6	0.136041	0.135693	-18.8449	26	0.013714	10	-0.00255712
2	0	0	1	0	50450.6	0.0940414	0.0937455	-29.2995	26	0.0120509	10	-0.0027467
2	0	0	1	0	50450.7	0.0520421	0.0516982	-37.3204	26	0.00967733	10	-0.0019294
2	0	0	1	0	50450.8	0.0100429	0.00970718	-39.1896	26	0.00697354	10	-0.000380421
2	0	0	1	0	50450.8	-0.0319564	-0.0323751	-37.4428	26	0.00427343	10	0.00121221
2	0	0	1	0	50450.9	-0.0739557	-0.0743523	-35.1577	26	0.0017438	10	0.00261406
2	0	0	1	1	50451	-0.0883578	-0.088794	-19.478	26	-0.000284933	10	0.00172953
2	1	0	1	1	50451	-0.0463585	-0.0467722	4.84324	26	-0.000670028	10	-0.000226529
2	1	0	1	1	50451.1	-0.00435919	-0.00478327	16.378	26	0.00011942	10	-7.83406e-05
2	1	0	1	0	52420	0.0344023	0.0340372	21.58	27	0.00107045	10	0.000734522
2	1	0	1	0	52420	0.0764016	0.0760218	26.6028	27	0.00276152	10	0.00202239
2	1	0	1	0	52420.1	0.118401	0.118009	31.7606	27	0.00480232	10	0.00374802
2	1	0	1	0	52420.2	0.1604	0.16003	37.9495	27	0.00723787	10	0.00607308
2	1	0	1	0	52420.2	0.202399	0.202055	40.8664	27	0.0100454	10	0.00825727
2	1	0	1	0	52420.3	0.244404	0.244092	34.2095	27	0.0127155	10	0.00835026
2	1	0	1	0	52420.4	0.286409	0.28614	26.5955	27	0.0148216	10	0.00761004
2	1	0	1	0	52420.5	0.275242	0.274939	4.59636	27	0.0159231	10	0.00126372
2	0	0	1	0	52420.5	0.233243	0.232919	-7.28715	27	0.015759	10	-0.00169731
2	0	0	1	0	52420.6	0.191243	0.1909	-12.5975	27	0.0150448	10	-0.00240485
2	0	0	1	0	52420.7	0.149244	0.148914	-16.6752	27	0.0140239	10	-0.00248317
2	0	0	1	0	52420.7	0.107245	0.106935	-25.2221	27	0.0126008	10	-0.00269712
2	0	0	1	0	52420.8	0.0652456	0.065018	-34.9171	27	0.0104655	10	-0.00227024
2	0	0	1	0	52420.9	0.0232463	0.0229411	-38.43	27	0.00786588	10	-0.000881625
2	0	0	1	0	52420.9	-0.0187529	-0.0191624	-37.8819	27	0.00517519	10	0.000725908
2	0	0	1	0	52421	-0.0607522	-0.0611216	-35.4118	27	0.00261236	10	0.00216443
2	0	0	0	0	52421.1	-0.100055	-0.100591	-34.6792	27	0.00032643	10	0.00348841
2	0	0	1	1	52421.1	-0.0595536	-0.0599732	-1.24231	27	-0.000632324	10	7.45052e-05
2	1	0	1	1	52421.2	-0.0175544	-0.0179429	12.9448	27	-0.000166949	10	-0.000232268
2	1	0	1	0	54390.1	0.0212099	0.0208075	20.1069	28	0.000632187	10	0.000418376
2	1	0	1	0	54390.1	0.0632092	0.0628601	25.5529	28	0.00224152	10	0.00160626
2	1	0	1	0	54390.2	0.105208	0.104864	30.6391	28	0.00420579	10	0.00321294
2	1	0	1	0	54390.3	0.147208	0.146832	36.6836	28	0.00655245	10	0.00538631
2	1	0	1	0	54390.4	0.189207	0.188825	41.0848	28	0.00931038	10	0.00775782
2	1	0	1	0	54390.4	0.231206	0.230867	35.9372	28	0.0120617	10	0.0082967
2	1	0	1	0	54390.5	0.273205	0.272866	27.6792	28	0.0142707	10	0.00755271
2	1	0	1	0	54390.6	0.288445	0.288125	11.3746	28	0.0157483	10	0.00327732
2	0	0	1	0	54390.6	0.246446	0.246135	-5.26888	28	0.0158425	10	-0.00129686
2	0	0	1	0	54390.7	0.204447	0.204069	-11.5556	28	0.0152275	10	-0.00235815
2	0	0	1	0	54390.8	0.162448	0.162065	-15.5206	28	0.0142767	10	-0.00251534
2	0	0	1	0	54390.8	0.120446	0.120122	-22.2346	28	0.012996	10	-0.00267087
2	0	0	1	0	54390.9	0.0784408	0.078132	-33.212	28	0.0110404	10	-0.00259492
2	0	0	1	0	54391	0.0364415	0.0361081	-38.248	28	0.00849975	10	-0.00138106
2	0	0	1	0	54391.1	-0.00555774	-0.00592321	-38.3828	28	0.0057979	10	0.000227349
2	0	0	1	0	54391.1	-0.047557	-0.0479164	-35.876	28	0.00319469	10	0.00171905
2	0	0	1	0	54391.2	-0.0895563	-0.0899817	-34.652	28	0.000741533	10	0.00311805
2	0	0	1	1	54391.3	-0.0727571	-0.0732124	-7.21807	28	-0.000688483	10	0.000528453
2	1	0	1	1	54391.3	-0.0307579	-0.03118	10.4365	28	-0.000498944	10	-0.000325409
2	1	0	1	0	56360.2	0.00800365	0.00760334	16.038	29	0.000197096	10	0.000121942
2	1	0	1	0	56360.3	0.0500029	0.0496781	22.3855	29	0.00156574	10	0.00111207
2	1	0	1	0	56360.3	0.0920022	0.0916501	27.2267	29	0.00330254	10	0.00249533
2	1	0	1	0	56360.4	0.134001	0.133589	32.3967	29	0.00538558	10	0.00432785
2	1	0	1	0	56360.5	0.176001	0.17563	38.1027	29	0.00786389	10	0.00669198
2	1	0	1	0	56360.5	0.218	0.217656	37.8738	29	0.0105794	10	0.00824345
2	1	0	1	0	56360.6	0.259999	0.259632	30.5808	29	0.0129888	10	0.00793975
2	1	0	0	0	56360.7	0.300012	0.299727	24.8655	29	0.0148212	10	0.00745287
2	0	0	1	0	56360.7	0.259641	0.25934	-0.233985	29	0.0154277	10	-6.06817e-05
2	0	0	1	0	56360.8	0.217642	0.217286	-8.68102	29	0.0150756	10	-0.00188626
2	0	0	1	0	56360.9	0.175643	0.175289	-13.1886	29	0.014299	10	-0.00231181
2	0	0	1	0	56360.9	0.133644	0.133281	-17.84	29	0.0132289	10	-0.00237773
2	0	0	1	0	56361	0.0916443	0.0912991	-27.544	29	0.0116594	10	-0.00251474
2	0	0	1	0	56361.1	0.049645	0.0493505	-34.9422	29	0.00943677	10	-0.00172441
2	0	0	1	0	56361.2	0.00764575	0.0073043	-37.0838	29	0.00689192	10	-0.000270871
2	0	0	1	0	56361.2	-0.0343535	-0.0347111	-35.9258	29	0.00432015	10	0.00124703
2	0	0	1	0	56361.3	-0.0763528	-0.0767414	-34.0992	29	0.00187727	10	0.00261682
2	0	0	1	1	56361.4	-0.0859523	-0.0863816	-17.7447	29	-4.01782e-05	10	0.00153282
2	1	0	1	1	56361.4	-0.043953	-0.0444064	3.95291	29	-0.000418978	10	-0.000175535
2	1	0	1	1	56361.5	-0.00195376	-0.00238888	14.8185	29	0.000278649	10	-3.53996e-05
2	1	0	1	0	58330.4	0.0367994	0.0364347	21.2492	30	0.00111808	10	0.000774207
2	1	0	1	0	58330.4	0.0788042	0.0784215	26.2358	30	0.00278411	10	0.00205745
2	1	0	1	0	58330.5	0.120809	0.120399	31.2874	30	0.00479518	10	0.00376696
2	1	0	1	0	58330.6	0.162808	0.162379	37.2346	30	0.00719129	10	0.00604613
2	1	0	1	0	58330.6	0.204808	0.204438	39.5055	30	0.00992591	10	0.00807642
2	1	0	1	0	58330.7	0.246807	0.246461	33.2902	30	0.0125072	10	0.00820473
2	1	0	1	0	58330.8	0.288806	0.2884	26.449	30	0.0145791	10	0.0076279
2	1	0	1	0	58330.8	0.272845	0.272529	4.4099	30	0.0156261	10	0.00120182
2	0	0	1	0	58330.9	0.230846	0.230513	-6.88914	30	0.0154771	10	-0.00158804
2	0	0	1	0	58331	0.188846	0.188484	-12.2179	30	0.0147911	10	-0.00230288
2	0	0	1	0	58331.1	0.146847	0.146511	-16.3675	30	0.0137941	10	-0.00239802
2	0	0	1	0	58331.1	0.104848	0.104498	-24.772	30	0.0123936	10	-0.00258863
2	0	0	1	0	58331.2	0.0628485	0.062561	-33.9608	30	0.0103081	10	-0.00212462
2	0	0	1	0	58331.3	0.0208437	0.0205212	-37.4714	30	0.00777806	10	-0.000768959
2	0	0	1	0	58331.3	-0.0211611	-0.0215706	-37.1084	30	0.00514876	10	0.000800449
2	0	0	1	0	58331.4	-0.0631604	-0.0635489	-35.0238	30	0.00262686	10	0.00222573
2	0	0	1	1	58331.5	-0.0991558	-0.0996483	-32.6365	30	0.000448923	10	0.00325217
2	0	0	1	1	58331.5	-0.0571565	-0.0575672	-0.891077	30	-0.00049092	10	5.12968e-05
2	1	0	1	1	58331.6	-0.0151573	-0.0155984	12.5531	30	-3.16302e-05	10	-0.000195808
2	1	0	1	0	60300.5	0.023607	0.0232348	18.7245	31	0.000646537	10	0.000435059
2	1	0	1	0	60300.5	0.0656063	0.0652216	24.0868	31	0.0021554	10	0.00157098
2	1	0	1	0	60300.6	0.107606	0.107199	28.96	31	0.00401167	10	0.00310448
2	1	0	1	0	60300.7	0.149605	0.149221	34.5081	31	0.00622554	10	0.00514931
2	1	0	1	0	60300.8	0.191604	0.191215	38.9473	31	0.0088228	10	0.00744729
2	1	0	1	0	60300.8	0.233603	0.233244	35.8371	31	0.0114898	10	0.0083588
2	1	0	1	0	60300.9	0.275603	0.275262	28.6377	31	0.0137409	10	0.00788284
2	1	0	1	0	60301	0.286045	0.28573	12.1776	31	0.0152507	10	0.00347951
2	0	0	1	0	60301	0.244041	0.243713	-3.6569	31	0.0154511	10	-0.000891235
2	0	0	1	0	60301.1	0.202041	0.201707	-10.335	31	0.0149358	10	-0.00208463
2	0	0	1	0	60301.2	0.160042	0.159684	-14.5532	31	0.0140598	10	-0.00232391
2	0	0	1	0	60301.2	0.118043	0.117719	-20.7267	31	0.0128578	10	-0.00243993
2	0	0	1	0	60301.3	0.0760437	0.075744	-30.6455	31	0.0110505	10	-0.00232121
2	0	0	1	0	60301.4	0.0340444	0.0336936	-36.0581	31	0.008683	10	-0.00121493
2	0	0	1	0	60301.4	-0.00795485	-0.00833139	-37.0964	31	0.00610312	10	0.000309065
2	0	0	1	0	60301.5	-0.0499541	-0.0503627	-35.4107	31	0.0035573	10	0.00178338
2	0	0	1	0	60301.6	-0.0919534	-0.0923443	-34.1999	31	0.00113187	10	0.00315816
2	0	0	1	1	60301.6	-0.0703573	-0.0707777	-8.1405	31	-0.000249498	10	0.000576166
2	1	0	1	1	60301.7	-0.0283524	-0.0288079	8.21863	31	-0.000182279	10	-0.000236761
2	1	0	1	0	62270.6	0.0104008	0.0100338	16.0438	32	0.000254038	10	0.00016098
2	1	0	1	0	62270.7	0.0524	0.0520259	22.1595	32	0.00161204	10	0.00115287
2	1	0	1	0	62270.7	0.0943993	0.0940275	26.9267	32	0.00333123	10	0.00253185
2	1	0	1	0	62270.8	0.136399	0.135916	31.9796	32	0.00538988	10	0.00434653
2	1	0	1	0	62270.9	0.178403	0.177998	37.4332	32	0.0078319	10	0.00666303
2	1	0	1	0	62270.9	0.220408	0.220109	37.2266	32	0.010496	10	0.00819391
2	1	0	1	0	62271	0.262407	0.26208	30.484	32	0.0128787	10	0.00798923
2	1	0	1	0	62271.1	0.299243	0.298974	23.9297	32	0.0146456	10	0.00715438
2	1	0	1	0	62271.1	0.257244	0.2569	-0.103564	32	0.0152762	10	-2.66054e-05
2	0	0	1	0	62271.2	0.215245	0.214874	-8.45251	32	0.0149393	10	-0.00181622
2	0	0	1	0	62271.3	0.173246	0.172936	-13.0569	32	0.0141756	10	-0.002258
2	0	0	1	0	62271.3	0.131246	0.130886	-17.8109	32	0.0131111	10	-0.0023312
2	0	0	1	0	62271.4	0.0892472	0.088981	-27.2182	32	0.0115491	10	-0.0024219
2	0	0	1	0	62271.5	0.0472479	0.0469232	-34.336	32	0.00936057	10	-0.00161116
2	0	0	1	0	62271.6	0.00524865	0.00492581	-36.5144	32	0.0068582	10	-0.000179863
2	0	0	1	0	62271.6	-0.0367506	-0.0371586	-35.5444	32	0.00432053	10	0.00132078
2	0	0	1	0	62271.7	-0.0787555	-0.0791549	-33.9246	32	0.00189631	10	0.0026853
2	0	0	1	1	62271.8	-0.0835552	-0.0840338	-16.363	32	4.70214e-05	10	0.00137505
2	1	0	1	1	62271.8	-0.0415559	-0.0420195	3.92262	32	-0.000296649	10	-0.000164827
2	1	0	0	1	62271.9	-7.54729e-05	-0.000363498	14.2775	32	0.000370387	10	-5.18983e-06
2	1	0	1	0	64240.8	0.0392076	0.0388472	21.3415	33	0.00119096	10	0.000829057
2	1	0	1	0	64240.8	0.0812069	0.0808668	26.219	33	0.0028588	10	0.00212024
2	1	0	1	0	64240.9	0.123206	0.122795	31.2146	33	0.00486634	10	0.003833
2	1	0	1	0	64241	0.165205	0.164856	36.9996	33	0.00725543	10	0.00609962
2	1	0	1	0	64241	0.207205	0.206872	38.669	33	0.00995281	10	0.00799952
2	1	0	1	0	64241.1	0.249204	0.24888	32.3877	33	0.0124683	10	0.00806064
2	1	0	1	0	64241.2	0.291203	0.290867	25.8981	33	0.0144909	10	0.0075329
2	1	0	1	0	64241.2	0.270448	0.27009	3.55708	33	0.0154444	10	0.000960732
2	0	0	1	0	64241.3	0.228448	0.228101	-7.12225	33	0.0152632	10	-0.00162459
2	0	0	1	0	64241.4	0.186444	0.186157	-12.3478	33	0.0145656	10	-0.00229863
2	0	0	1	0	64241.5	0.144439	0.144096	-16.5568	33	0.0135596	10	-0.00238576
2	0	0	1	0	64241.5	0.10244	0.102145	-25.2283	33	0.0121335	10	-0.00257694
2	0	0	1	0	64241.6	0.0604403	0.0601751	-33.8488	33	0.0100341	10	-0.00203685
2	0	0	1	0	64241.7	0.018441	0.0180992	-36.9456	33	0.00752886	10	-0.000668687
2	0	0	1	0	64241.7	-0.0235582	-0.0239332	-36.4084	33	0.00494342	10	0.000871368
2	0	0	1	0	64241.8	-0.0655575	-0.0659518	-34.4777	33	0.0024664	10	0.00227387
2	0	0	1	1	64241.9	-0.0967587	-0.097167	-28.3387	33	0.000333321	10	0.00275358
2	0	0	1	1	64241.9	-0.0547594	-0.055142	0.0868926	33	-0.000472226	10	-4.79143e-06
2	1	0	1	1	64242	-0.0127546	-0.0131626	12.8621	33	2.86809e-05	10	-0.000169299
2	1	0	1	0	66210.9	0.0260041	0.0257002	19.5452	34	0.000740872	10	0.000502315
2	1	0	1	0	66210.9	0.0680034	0.0676764	24.789	34	0.00230239	10	0.00167763
2	1	0	1	0	66211	0.110003	0.109614	29.6028	34	0.00420575	10	0.00324489
2	1	0	1	0	66211.1	0.152002	0.151646	35.1692	34	0.00646583	10	0.00533327
2	1	0	1	0	66211.1	0.194001	0.193616	39.2935	34	0.00910237	10	0.00760783
2	1	0	1	0	66211.2	0.236006	0.235702	35.5131	34	0.0117694	10	0.00837051
2	1	0	1	0	66211.3	0.278008	0.277695	28.2707	34	0.0139925	10	0.00785064
2	1	0	1	0	66211.4	0.283643	0.283338	10.5272	34	0.0154302	10	0.00298277
2	0	0	1	0	66211.4	0.241644	0.241316	-4.46533	34	0.0155524	10	-0.00107755
2	0	0	1	0	66211.5	0.199644	0.199396	-10.9326	34	0.0149887	10	-0.00217992
2	0	0	1	0	66211.6	0.157645	0.157354	-15.1326	34	0.0140722	10	-0.00238117
2	0	0	1	0	66211.6	0.115646	0.115315	-21.7229	34	0.0128184	10	-0.00250498
2	0	0	1	0	66211.7	0.0736466	0.0733803	-31.6031	34	0.0109379	10	-0.00231904
2	0	0	1	0	66211.8	0.0316473	0.0313321	-36.5781	34	0.00851881	10	-0.00114607
2	0	0	1	0	66211.8	-0.010352	-0.0107385	-37.2831	34	0.00591437	10	0.000400366
2	0	0	1	0	66211.9	-0.0523512	-0.0527041	-35.4486	34	0.00336326	10	0.00186829
2	0	0	1	0	66212	-0.0943505	-0.0946962	-34.4604	34	0.000927994	10	0.00326327
2	0	0	1	1	66212	-0.0679546	-0.0683897	-6.66123	34	-0.000347735	10	0.000455559
2	1	0	1	1	66212.1	-0.0259553	-0.0263859	9.30837	34	-0.000192742	10	-0.000245609
2	1	0	1	0	68181	0.0128034	0.0124282	18.1332	35	0.000351839	10	0.000225363
2	1	0	1	0	68181	0.0548082	0.0544797	24.1198	35	0.00184965	10	0.00131404
2	1	0	1	0	68181.1	0.0968075	0.0964845	28.9174	35	0.00370512	10	0.00279008
2	1	0	1	0	68181.2	0.138807	0.138464	34.3345	35	0.00591045	10	0.00475409
2	1	0	1	0	68181.3	0.180806	0.180479	39.5397	35	0.00851548	10	0.0071361
2	1	0	1	0	68181.3	0.222805	0.222497	37.3068	35	0.0112621	10	0.00830065
2	1	0	1	0	68181.4	0.264805	0.264504	29.4711	35	0.013599	10	0.00779521
2	1	0	1	0	68181.5	0.296846	0.296583	19.8786	35	0.0152926	10	0.00589567
2	0	0	1	0	68181.5	0.254847	0.254546	-2.35003	35	0.015728	10	-0.000598189
2	0	0	1	0	68181.6	0.212848	0.212515	-10.11	35	0.0152564	10	-0.00214853
2	0	0	1	0	68181.7	0.170849	0.170522	-14.4769	35	0.0143863	10	-0.00246863
2	0	0	1	0	68181.7	0.128849	0.128537	-19.696	35	0.0132137	10	-0.00253167
2	0	0	1	0	68181.8	0.0868445	0.0865697	-30.1187	35	0.0114764	10	-0.00260737
2	0	0	1	0	68181.9	0.0448397	0.0445405	-36.676	35	0.00909986	10	-0.00163357
2	0	0	1	0	68181.9	0.00284045	0.00253459	-37.9604	35	0.00646567	10	-9.62141e-05
2	0	0	1	0	68182	-0.0391588	-0.0395254	-36.1238	35	0.00386121	10	0.00142781
2	0	0	1	0	68182.1	-0.0811581	-0.0815239	-34.5493	35	0.00139997	10	0.00281659
2	0	0	1	1	68182.2	-0.0811581	-0.0815005	-13.5676	35	-0.000383495	10	0.00110577
2	1	0	1	1	68182.2	-0.0391588	-0.0395975	6.77636	35	-0.000528048	10	-0.000268327
2	1	0	1	1	68182.3	2.44065e-05	-0.000401673	16.439	35	0.000269476	10	-6.60311e-06