File: Figure_codes/Fig_3-5/rawdata_trumpetplot_data/after 10th/20221101_1-115_003_TrumpetPlot_ParaChange_from10_every3_06_CV_C01_1.csv
mode,ox/red,error,control changes,counter inc.,time/s,control/V,Ewe/V,<I>/mA,cycle number,(Q-Qo)/C,I Range,P/W,log(|I|),Tafel slope mV/dec,alpha_eff,dI/d(E-IR),E-IR/V,
2,0,0,0,0,3120.15,2.44065e-05,-0.000401673,-1.38163,2,0.0000000E+000,10,5.54965e-07,-2.85961, , , ,-0.000401673,
2,1,0,1,0,3120.18,0.00129787,0.0009387,0.171299,2,-1.34085e-05,10,1.60798e-07,-3.76625, , , ,0.0009387001,
2,1,0,1,0,3120.22,0.00279427,0.00249926,0.930348,2,9.71365e-06,10,2.32518e-06,-3.03135,0.00590668,9.98869,378.602,0.00249926,
2,1,0,1,0,3120.26,0.00429425,0.00402541,1.21962,2,5.12904e-05,10,4.90948e-06,-2.91377,0.014896,3.96079,160.202,0.00402541,
2,1,0,1,0,3120.29,0.00579422,0.00544978,1.36698,2,0.000100707,10,7.44976e-06,-2.86424,0.0348803,1.6915,86.0407,0.00544978,
2,1,0,1,0,3120.33,0.00729063,0.00699569,1.45884,2,0.000154312,10,1.02056e-05,-2.83599,0.0607166,0.971727,54.3768,0.00699569,
2,1,0,1,0,3120.37,0.00878703,0.00847768,1.52452,2,0.0002109,10,1.29244e-05,-2.81687,0.0897959,0.657045,38.8355,0.00847768,
2,1,0,1,0,3120.41,0.010287,0.00996894,1.575,2,0.00026983,10,1.57011e-05,-2.80272,0.116478,0.506535,31.0916,0.00996894,
2,1,0,1,0,3120.44,0.011787,0.0114841,1.61526,2,0.000330502,10,1.85498e-05,-2.79176,0.13338,0.442344,27.9667,0.0114841,
2,1,0,1,0,3120.48,0.0132825,0.0129787,1.65996,2,0.000392435,10,2.15442e-05,-2.7799,0.142215,0.414865,26.8902,0.0129787,
2,1,0,1,0,3120.52,0.014778,0.0144844,1.70138,2,0.000455907,10,2.46435e-05,-2.7692,0.15944,0.370044,24.42,0.0144844,
2,1,0,1,0,3120.56,0.0162816,0.0159778,1.73742,2,0.000521187,10,2.77602e-05,-2.7601,0.183946,0.320747,21.5809,0.0159778,
2,1,0,1,0,3120.59,0.017778,0.017499,1.76643,2,0.000587303,10,3.09108e-05,-2.7529,0.204441,0.288592,19.8291,0.017499,
2,1,0,1,0,3120.63,0.0192744,0.0189777,1.79289,2,0.000654369,10,3.4025e-05,-2.74645,0.206139,0.286215,20.0517,0.0189777,
2,1,0,1,0,3120.67,0.0207743,0.0204748,1.82134,2,0.000722847,10,3.72916e-05,-2.73961,0.189609,0.311166,22.1317,0.0204748,
2,1,0,1,0,3120.7,0.0222743,0.022013,1.85324,2,0.000792535,10,4.07952e-05,-2.73207,0.215535,0.273737,19.8321,0.022013,
2,1,0,1,0,3120.74,0.0237707,0.0234893,1.88551,2,0.000863212,10,4.42894e-05,-2.72457,0.227328,0.259537,19.087,0.0234893,
2,1,0,1,0,3120.78,0.0252671,0.024943,1.91375,2,0.000934879,10,4.77348e-05,-2.71811,0.216069,0.273062,20.4452,0.024943,
2,1,0,1,0,3120.82,0.0267671,0.0264679,1.94949,2,0.00100793,10,5.15988e-05,-2.71008,0.197207,0.299179,22.7192,0.0264679,
2,1,0,1,0,3120.85,0.0282671,0.0279561,1.98626,2,0.00108226,10,5.55282e-05,-2.70196,0.192862,0.305919,23.5983,0.0279561,
2,1,0,1,0,3120.89,0.0297626,0.0294659,2.01429,2,0.00115762,10,5.93529e-05,-2.69588,0.231146,0.25525,19.9979,0.0294659,
2,1,0,1,0,3120.93,0.0312581,0.0309527,2.03706,2,0.00123412,10,6.30523e-05,-2.691,0.221337,0.266561,21.2871,0.0309527,
2,1,0,1,0,3120.97,0.0327616,0.0324277,2.07305,2,0.0013121,10,6.72242e-05,-2.68339,0.202454,0.291424,23.6872,0.0324277,
2,1,0,1,0,3121,0.034258,0.0339722,2.10665,2,0.00139106,10,7.15676e-05,-2.67641,0.2031,0.290497,23.9626,0.0339722,
2,1,0,1,0,3121.04,0.0357545,0.0354513,2.14639,2,0.00147141,10,7.60924e-05,-2.66829,0.228947,0.257702,21.5428,0.0354513,
2,1,0,1,0,3121.08,0.0372544,0.0369561,2.18452,2,0.0015533,10,8.07312e-05,-2.66064,0.207105,0.284879,24.2898,0.0369561,
2,1,0,1,0,3121.12,0.0387544,0.0384494,2.2208,2,0.00163634,10,8.53882e-05,-2.65349,0.207004,0.285018,24.6865,0.0384494,
2,1,0,1,0,3121.15,0.0402508,0.0399351,2.26065,2,0.00172073,10,9.02793e-05,-2.64577,0.193268,0.305276,26.8297,0.0399351,
2,1,0,1,0,3121.19,0.0417472,0.041452,2.30126,2,0.00180665,10,9.53919e-05,-2.63803,0.221267,0.266646,23.8607,0.041452,
2,1,0,1,0,3121.23,0.0432472,0.0429327,2.33892,2,0.00189421,10,0.000100416,-2.63098,0.212475,0.27768,25.3151,0.0429327,
2,1,0,1,0,3121.27,0.0447472,0.0444343,2.36945,2,0.00198305,10,0.000105285,-2.62535,0.20281,0.290913,26.9956,0.0444343,
2,1,0,1,0,3121.3,0.0462427,0.0459541,2.41037,2,0.00207319,10,0.000110766,-2.61792,0.190569,0.309599,29.1632,0.0459541,
2,1,0,1,0,3121.34,0.0477382,0.0473974,2.45497,2,0.00216487,10,0.000116359,-2.60995,0.199056,0.296398,28.4059,0.0473974,
2,1,0,1,0,3121.38,0.0492417,0.0489532,2.50027,2,0.00225862,10,0.000122396,-2.60201,0.213757,0.276014,26.8147,0.0489532,
2,1,0,1,0,3121.42,0.0507381,0.0504094,2.5323,2,0.00235329,10,0.000127652,-2.59648,0.213887,0.275847,27.2657,0.0504094,
2,1,0,1,0,3121.45,0.0522345,0.0519127,2.57419,2,0.0024494,10,0.000133633,-2.58936,0.206488,0.285731,28.6781,0.0519127,
2,1,0,1,0,3121.49,0.0537345,0.0533795,2.62329,2,0.00254748,10,0.00014003,-2.58115,0.214354,0.275245,28.1224,0.0533795,
2,1,0,1,0,3121.53,0.0552345,0.0549534,2.65856,2,0.00264714,10,0.000146097,-2.57535,0.231931,0.254386,26.3902,0.0549534,
2,1,0,1,0,3121.57,0.0567309,0.0564358,2.68884,2,0.00274802,10,0.000151747,-2.57044,0.232133,0.254165,26.7989,0.0564358,
2,1,0,1,0,3121.6,0.0582273,0.0578924,2.73539,2,0.00285023,10,0.000158358,-2.56298,0.233042,0.253173,27.0829,0.05789236,
2,1,0,1,0,3121.64,0.0597309,0.0594176,2.77941,2,0.00295457,10,0.000165146,-2.55605,0.230607,0.255847,27.7163,0.0594176,
2,1,0,1,0,3121.68,0.0612264,0.060915,2.82221,2,0.00305995,10,0.000171915,-2.54941,0.249349,0.236616,25.9666,0.060915,
2,1,0,1,0,3121.72,0.0627219,0.0624045,2.86108,2,0.00316678,10,0.000178544,-2.54347,0.273135,0.21601,24.048,0.0624045,
2,1,0,1,0,3121.75,0.0642219,0.0639162,2.8954,2,0.0032752,10,0.000185063,-2.53829,0.261462,0.225654,25.4587,0.0639162,
2,1,0,1,0,3121.79,0.0657218,0.0654245,2.93124,2,0.00338505,10,0.000191775,-2.53295,0.254262,0.232045,26.549,0.0654245,
2,1,0,1,0,3121.83,0.0672182,0.0669639,2.97085,2,0.00349621,10,0.00019894,-2.52712,0.284352,0.207489,24.0616,0.0669639,
2,1,0,1,0,3121.87,0.0687146,0.0684354,3.00443,2,0.00360867,10,0.000205609,-2.52224,0.32704,0.180406,21.1652,0.0684354,
2,1,0,1,0,3121.9,0.0702146,0.0699483,3.03347,2,0.00372256,10,0.000212186,-2.51806,0.311391,0.189472,22.5008,0.0699483,
2,1,0,1,0,3121.94,0.0717146,0.0714379,3.07714,2,0.0038378,10,0.000219824,-2.51185,0.280554,0.210299,25.2077,0.0714379,
2,1,0,1,0,3121.98,0.073211,0.0729262,3.11404,2,0.00395423,10,0.000227095,-2.50668,0.308214,0.191426,23.2392,0.0729262,
2,1,0,1,0,3122.02,0.0747074,0.0744443,3.14843,2,0.00407198,10,0.000234383,-2.50191,0.346148,0.170448,20.8891,0.0744443,
2,1,0,1,0,3122.05,0.0762109,0.0758799,3.17738,2,0.00419157,10,0.000241099,-2.49793,0.332316,0.177542,22.03,0.0758799,
2,1,0,1,0,3122.09,0.0777064,0.0774328,3.20598,2,0.00431166,10,0.000248248,-2.49404,0.328225,0.179755,22.5472,0.0774328,
2,1,0,1,0,3122.13,0.079202,0.0789084,3.24475,2,0.00443306,10,0.000256038,-2.48882,0.343602,0.171711,21.7441,0.0789084,
2,1,0,1,0,3122.17,0.0807019,0.080378,3.2713,2,0.00455601,10,0.000262941,-2.48528,0.386185,0.152777,19.5125,0.080378,
2,1,0,1,0,3122.2,0.0822019,0.0819168,3.30092,2,0.00468006,10,0.000270401,-2.48136,0.351906,0.167658,21.6522,0.0819168,
2,1,0,1,0,3122.24,0.0836983,0.0833835,3.33621,2,0.00480486,10,0.000278185,-2.47675,0.331152,0.178166,23.2202,0.0833835,
2,1,0,1,0,3122.28,0.0851947,0.0849057,3.37785,2,0.00493101,10,0.000286799,-2.47136,0.334894,0.176175,23.1556,0.0849057,
2,1,0,1,0,3122.32,0.0866947,0.0863962,3.40472,2,0.00505879,10,0.000294155,-2.46792,0.400125,0.147454,19.5715,0.0863962,
2,1,0,1,0,3122.35,0.0881947,0.0879043,3.43799,2,0.00518773,10,0.000302214,-2.4637,0.385971,0.152861,20.4901,0.0879043,
2,1,0,1,0,3122.39,0.0896911,0.0894045,3.46388,2,0.00531737,10,0.000309686,-2.46044,0.362546,0.162738,22.036,0.0894045,
2,1,0,1,0,3122.43,0.0911875,0.0908971,3.4969,2,0.00544825,10,0.000317858,-2.45632,0.319631,0.184588,25.2667,0.0908971,
2,1,0,1,0,3122.47,0.0926901,0.0924152,3.53569,2,0.00558132,10,0.000326752,-2.45153,0.290335,0.203213,28.0904,0.0924152,
2,1,0,1,0,3122.5,0.0941856,0.0938873,3.5782,2,0.00571513,10,0.000335947,-2.44634,0.301637,0.195599,27.3381,0.0938873,
2,1,0,1,0,3122.54,0.0956821,0.0953775,3.61665,2,0.00585033,10,0.000344947,-2.44169,0.297619,0.19824,27.9952,0.0953775,
2,1,0,1,0,3122.58,0.097182,0.0968614,3.66735,2,0.00598751,10,0.000355225,-2.43565,0.260816,0.226213,32.3441,0.0968614,
2,1,0,1,0,3122.62,0.098682,0.0984192,3.71739,2,0.00612654,10,0.000365863,-2.42976,0.244977,0.240839,34.9071,0.09841916,
2,1,0,1,0,3122.65,0.100178,0.0999247,3.76815,2,0.00626715,10,0.000376531,-2.42387,0.240006,0.245827,36.1603,0.0999247,
2,1,0,1,0,3122.69,0.101675,0.101348,3.81583,2,0.00640976,10,0.000386728,-2.41841,0.235929,0.250075,37.358,0.101348,
2,1,0,1,0,3122.73,0.103175,0.102889,3.88118,2,0.0065548,10,0.00039933,-2.41104,0.208042,0.283597,43.0861,0.102889,
2,1,0,1,0,3122.76,0.104675,0.104394,3.95338,2,0.00670237,10,0.000412709,-2.40303,0.200771,0.293868,45.3531,0.104394,
2,1,0,1,0,3122.8,0.106171,0.105901,4.02477,2,0.00685222,10,0.000426229,-2.39526,0.202942,0.290723,45.5889,0.105901,
2,1,0,1,0,3122.84,0.107667,0.1074,4.09214,2,0.00700461,10,0.000439494,-2.38805,0.194501,0.303341,48.4674,0.1074,
2,1,0,1,0,3122.88,0.10917,0.10884,4.16693,2,0.00716038,10,0.000453528,-2.38018,0.187109,0.315325,51.2376,0.10884,
2,1,0,1,0,3122.91,0.110666,0.110353,4.2388,2,0.00731821,10,0.000467764,-2.37276,0.190055,0.310436,51.3617,0.110353,
2,1,0,1,0,3122.95,0.112162,0.111854,4.31514,2,0.00747891,10,0.000482666,-2.365,0.202204,0.291785,49.1124,0.111854,
2,1,0,1,0,3122.99,0.113662,0.113356,4.39176,2,0.00764288,10,0.000497832,-2.35736,0.207561,0.284254,48.7047,0.113356,
2,1,0,1,0,3123.03,0.115162,0.11483,4.46244,2,0.0078095,10,0.000512421,-2.35043,0.205708,0.286814,49.9728,0.11483,
2,1,0,1,0,3123.06,0.116658,0.116355,4.53365,2,0.00797845,10,0.000527512,-2.34355,0.216299,0.272771,48.279,0.116355,
2,1,0,1,0,3123.1,0.118155,0.117829,4.61688,2,0.00815034,10,0.000544005,-2.33565,0.226506,0.260479,46.8199,0.117829,
2,1,0,1,0,3123.14,0.119655,0.119317,4.67667,2,0.00832526,10,0.000558005,-2.33006,0.257839,0.228825,41.7435,0.119317,
2,1,0,1,0,3123.18,0.121155,0.12085,4.73919,2,0.00850248,10,0.00057273,-2.3243,0.263802,0.223652,41.3602,0.12085,
2,1,0,1,0,3123.21,0.122651,0.122392,4.80576,2,0.00868159,10,0.000588187,-2.31824,0.262472,0.224786,42.0912,0.122392,
2,1,0,1,0,3123.25,0.124147,0.123881,4.85983,2,0.00886303,10,0.000602041,-2.31338,0.27947,0.211114,40.0544,0.1238813,
2,1,0,1,0,3123.29,0.12565,0.125361,4.91911,2,0.00904761,10,0.000616663,-2.30811,0.321898,0.183288,35.174,0.125361,
2,1,0,1,0,3123.33,0.127146,0.126811,4.95932,2,0.00923324,10,0.000628895,-2.30458,0.337542,0.174793,33.9214,0.126811,
2,1,0,1,0,3123.36,0.128642,0.128328,5.01799,2,0.00942065,10,0.00064395,-2.29947,0.348667,0.169216,33.1915,0.128328,
2,1,0,1,0,3123.4,0.130142,0.129807,5.07176,2,0.00961061,10,0.000658351,-2.29484,0.339608,0.17373,34.3718,0.129807,
2,1,0,1,0,3123.44,0.131642,0.131329,5.13263,2,0.00980262,10,0.000674062,-2.28966,0.387983,0.152069,30.3339,0.131329,
2,1,0,1,0,3123.48,0.133139,0.132882,5.1728,2,0.00999591,10,0.000687371,-2.28627,0.413405,0.142717,28.7826,0.132882,
2,1,0,1,0,3123.51,0.134635,0.134345,5.21492,2,0.0101906,10,0.000700599,-2.28275,0.470907,0.12529,25.4872,0.134345,
2,1,0,1,0,3123.55,0.136135,0.135832,5.25547,2,0.0103875,10,0.00071386,-2.27939,0.460559,0.128105,26.2349,0.135832,
2,1,0,1,0,3123.59,0.137635,0.13733,5.29128,2,0.0105859,10,0.00072665,-2.27644,0.589375,0.100106,20.6459,0.1373297,
2,1,0,1,0,3123.63,0.13913,0.138828,5.31717,2,0.010785,10,0.00073817,-2.27432,0.870259,0.0677959,14.0398,0.138828,
2,1,0,1,0,3123.66,0.140626,0.140319,5.32968,2,0.0109848,10,0.000747857,-2.2733,1.90569,0.0309599,6.43159,0.140319,
2,1,0,1,0,3123.7,0.14213,0.14181,5.33404,2,0.0111859,10,0.000756422,-2.27294,-119.482,-0.0004938,-0.102508,0.14181,
2,1,0,1,0,3123.74,0.143626,0.14333,5.33345,2,0.0113861,10,0.000764446,-2.27299,-0.925249,-0.0637666,-13.2041,0.14333,
2,1,0,1,0,3123.78,0.145122,0.144841,5.2975,2,0.0115856,10,0.000767295,-2.27593,-0.376067,-0.156887,-32.2936,0.144841,
2,1,0,1,0,3123.81,0.146622,0.146381,5.23608,2,0.0117839,10,0.000766464,-2.28099,-0.268273,-0.219925,-44.8045,0.146381,
2,1,0,1,0,3123.85,0.148122,0.147887,5.15533,2,0.0119795,10,0.000762404,-2.28774,-0.195202,-0.30225,-60.6129,0.1478865,
2,1,0,1,0,3123.89,0.149619,0.149326,5.05225,2,0.0121713,10,0.000754432,-2.29652,-0.146199,-0.40356,-79.2947,0.149326,
2,1,0,1,0,3123.93,0.151115,0.150833,4.92298,2,0.0123586,10,0.000742547,-2.30777,-0.114373,-0.515856,-98.5921,0.150833,
2,1,0,1,0,3123.96,0.152615,0.152295,4.75522,2,0.0125409,10,0.000724198,-2.32283,-0.0961532,-0.613604,-113.499,0.152295,
2,1,0,1,0,3124,0.154115,0.153775,4.57942,2,0.0127166,10,0.0007042,-2.33919,-0.0841048,-0.701506,-124.994,0.153775,
2,1,0,1,0,3124.04,0.155611,0.155318,4.38952,2,0.012885,10,0.000681774,-2.35758,-0.0774329,-0.76195,-130.013,0.1553183,
2,1,0,1,0,3124.08,0.157106,0.156751,4.19079,2,0.013046,10,0.00065691,-2.3777,-0.0702839,-0.839453,-136.703,0.156751,
2,1,0,1,0,3124.11,0.15861,0.158304,3.98096,2,0.0132001,10,0.000630204,-2.40001,-0.0679798,-0.867905,-134.781,0.158304,
2,1,0,1,0,3124.15,0.160106,0.159803,3.77815,2,0.0133456,10,0.00060376,-2.42272,-0.0683796,-0.86283,-127.516,0.159803,
2,1,0,1,0,3124.19,0.161602,0.161299,3.59147,2,0.0134841,10,0.000579302,-2.44473,-0.072379,-0.815154,-114.653,0.161299,
2,1,0,1,0,3124.23,0.163102,0.162772,3.42257,2,0.0136163,10,0.0005571,-2.46565,-0.0734661,-0.803092,-107.708,0.1627723,
2,1,0,1,0,3124.26,0.164602,0.164302,3.27337,2,0.0137425,10,0.000537821,-2.48501,-0.0756453,-0.779956,-99.828,0.164302,
2,1,0,1,0,3124.3,0.166099,0.165825,3.13515,2,0.0138627,10,0.000519887,-2.50374,-0.0839008,-0.703211,-86.2819,0.165825,
2,1,0,1,0,3124.34,0.167595,0.167304,3.0168,2,0.0139781,10,0.000504724,-2.52045,-0.0943883,-0.625078,-73.6155,0.167304,
2,1,0,1,0,3124.38,0.169095,0.168753,2.91066,2,0.0140898,10,0.000491181,-2.53601,-0.10068,-0.586013,-66.5807,0.168753,
2,1,0,1,0,3124.41,0.170595,0.170307,2.80677,2,0.0141976,10,0.000478012,-2.55179,-0.103538,-0.569841,-62.6159,0.170307,
2,1,0,1,0,3124.45,0.172091,0.171788,2.71075,2,0.0143016,10,0.000465676,-2.56691,-0.110729,-0.532832,-56.7179,0.171788,
2,1,0,1,0,3124.49,0.173586,0.173313,2.64001,2,0.0144023,10,0.000457548,-2.5784,-0.121681,-0.484873,-50.112,0.1733132,
2,1,0,1,0,3124.53,0.17509,0.174803,2.57143,2,0.0145009,10,0.000449495,-2.58982,-0.127433,-0.462989,-46.4841,0.1748032,
2,1,0,1,0,3124.56,0.176586,0.176286,2.50322,2,0.0145964,10,0.000441282,-2.6015,-0.132328,-0.445863,-43.5646,0.176286,
2,1,0,1,0,3124.6,0.178083,0.177782,2.44145,2,0.0146895,10,0.000434045,-2.61235,-0.14995,-0.393464,-37.5474,0.177782,
2,1,0,1,0,3124.64,0.179582,0.179295,2.38961,2,0.0147807,10,0.000428446,-2.62167,-0.16085,-0.366802,-34.2438,0.179295,
2,1,0,1,0,3124.68,0.181082,0.180803,2.34341,2,0.01487,10,0.000423696,-2.63015,-0.175799,-0.33561,-30.6785,0.180803,
2,1,0,1,0,3124.71,0.182579,0.182253,2.29601,2,0.0149574,10,0.000418455,-2.63903,-0.180355,-0.327133,-29.326,0.182253,
2,1,0,1,0,3124.75,0.184075,0.183837,2.25569,2,0.0150432,10,0.000414681,-2.64672,-0.189484,-0.311372,-27.4307,0.183837,
2,1,0,1,0,3124.79,0.185579,0.185258,2.21357,2,0.0151278,10,0.000410081,-2.65491,-0.21337,-0.276515,-23.9947,0.185258,
2,1,0,1,0,3124.82,0.187074,0.186798,2.1814,2,0.0152107,10,0.00040748,-2.66127,-0.247777,-0.238118,-20.3087,0.186798,
2,1,0,1,0,3124.86,0.18857,0.188268,2.15435,2,0.0152925,10,0.000405595,-2.66668,-0.266413,-0.22146,-18.621,0.188268,
2,1,0,1,0,3124.9,0.19007,0.189743,2.12629,2,0.0153733,10,0.000403448,-2.67238,-0.262108,-0.225098,-18.6453,0.189743,
2,1,0,1,0,3124.94,0.19157,0.191269,2.09904,2,0.015453,10,0.000401482,-2.67798,-0.292633,-0.201618,-16.4839,0.191269,
2,1,0,1,0,3124.97,0.193066,0.192705,2.07231,2,0.0155316,10,0.000399343,-2.68355,-0.371687,-0.158736,-12.8407,0.192705,
2,1,0,1,0,3125.01,0.194563,0.194216,2.05213,2,0.0156094,10,0.000398556,-2.68779,-0.332431,-0.17748,-14.2261,0.194216,
2,1,0,1,0,3125.05,0.196063,0.195772,2.03115,2,0.0156867,10,0.000397641,-2.69226,-0.315703,-0.186885,-14.8496,0.195772,
2,1,0,1,0,3125.09,0.197563,0.197219,2.00473,2,0.0157631,10,0.00039537,-2.69794,-0.356071,-0.165697,-13.0453,0.197219,
2,1,0,1,0,3125.12,0.199059,0.198789,1.99443,2,0.0158387,10,0.000396472,-2.70018,-0.413269,-0.142764,-11.1323,0.198789,
2,1,0,1,0,3125.16,0.200555,0.200234,1.98259,2,0.0159137,10,0.000396982,-2.70277,-0.387259,-0.152353,-11.7683,0.200234,
2,1,0,1,0,3125.2,0.202059,0.201745,1.96704,2,0.0159885,10,0.00039684,-2.70619,-0.449389,-0.131289,-10.0379,0.201745,
2,1,0,1,0,3125.24,0.203554,0.20324,1.95421,2,0.0160624,10,0.000397174,-2.70903,-0.484889,-0.121677,-9.26405,0.20324,
2,1,0,1,0,3125.27,0.20505,0.20476,1.93767,2,0.0161357,10,0.000396757,-2.71272,-0.819445,-0.0719999,-5.4689,0.20476,
2,1,0,1,0,3125.31,0.20655,0.20627,1.92496,2,0.0162088,10,0.000397061,-2.71558,-0.56512,-0.104403,-7.8546,0.20627,
2,1,0,1,0,3125.35,0.20805,0.207766,1.91857,2,0.0162817,10,0.000398613,-2.71702,-0.553864,-0.106524,-7.96603,0.207766,
2,1,0,1,0,3125.39,0.209546,0.209292,1.90001,2,0.0163538,10,0.000397659,-2.72124,-0.593142,-0.0994703,-7.41061,0.209292,
2,1,0,1,0,3125.42,0.211043,0.2107,1.89087,2,0.0164254,10,0.000398406,-2.72334,-0.625916,-0.0942618,-6.97661,0.2107,
2,1,0,1,0,3125.46,0.212543,0.212276,1.88198,2,0.0164969,10,0.0003995,-2.72538,-0.732708,-0.0805232,-5.91402,0.212276,
2,1,0,1,0,3125.5,0.214043,0.213763,1.88121,2,0.0165681,10,0.000402133,-2.72556,-0.856241,-0.0689058,-5.03591,0.213763,
2,1,0,1,0,3125.54,0.215539,0.21523,1.86758,2,0.0166387,10,0.00040196,-2.72872,-0.561474,-0.105081,-7.65251,0.21523,
2,1,0,1,0,3125.57,0.217035,0.216738,1.85604,2,0.0167089,10,0.000402274,-2.73141,-0.764967,-0.0771275,-5.5942,0.216738,
2,1,0,1,0,3125.61,0.218538,0.218262,1.84638,2,0.0167792,10,0.000402995,-2.73368,-1.85814,-0.0317522,-2.29577,0.218262,
2,1,0,1,0,3125.65,0.220034,0.219728,1.84337,2,0.016849,10,0.000405041,-2.73439,-1.0937,-0.0539451,-3.88912,0.219728,
2,1,0,1,0,3125.69,0.22153,0.221268,1.83606,2,0.0169186,10,0.000406261,-2.73611,-0.633617,-0.0931162,-6.67122,0.221268,
2,1,0,1,0,3125.72,0.22303,0.222733,1.82271,2,0.0169879,10,0.000405977,-2.73928,-0.857949,-0.0687687,-4.90398,0.222733,
2,1,0,1,0,3125.76,0.22453,0.224192,1.82159,2,0.0170569,10,0.000408385,-2.73955,-0.853428,-0.0691329,-4.91211,0.224192,
2,1,0,1,0,3125.8,0.226026,0.225715,1.81688,2,0.0171256,10,0.000410097,-2.74067,-0.829253,-0.0711484,-5.03119,0.2257147,
2,1,0,1,0,3125.84,0.227523,0.227241,1.81129,2,0.0171941,10,0.000411598,-2.74201,-0.722876,-0.0816184,-5.75047,0.227241,
2,1,0,1,0,3125.87,0.229023,0.228731,1.80508,2,0.0172625,10,0.000412878,-2.7435,-1.07478,-0.0548949,-3.86838,0.228731,
2,1,0,1,0,3125.91,0.230523,0.230205,1.79622,2,0.0173306,10,0.000413499,-2.74564,-1.13736,-0.0518743,-3.65294,0.230205,
2,1,0,1,0,3125.95,0.232019,0.231699,1.79357,2,0.0173983,10,0.000415569,-2.74628,-1.89308,-0.0311662,-2.18611,0.231699,
2,1,0,1,0,3125.99,0.233515,0.233193,1.78602,2,0.017466,10,0.000416488,-2.74811,-1.28355,-0.0459662,-3.2073,0.233193,
2,1,0,1,0,3126.02,0.235018,0.234744,1.78297,2,0.0175338,10,0.000418542,-2.74886,-0.931416,-0.0633444,-4.40088,0.234744,
2,1,0,1,0,3126.06,0.236514,0.236192,1.77611,2,0.0176009,10,0.000419503,-2.75053,-1.3904,-0.0424338,-2.94395,0.236192,
2,1,0,1,0,3126.1,0.23801,0.237697,1.77648,2,0.0176679,10,0.000422263,-2.75044,-1.53102,-0.0385364,-2.657,0.237697,
2,1,0,1,0,3126.14,0.23951,0.239216,1.76912,2,0.017735,10,0.0004232,-2.75224,-2.16459,-0.0272569,-1.87795,0.239216,
2,1,0,1,0,3126.17,0.24101,0.240679,1.76046,2,0.0178018,10,0.000423706,-2.75437,-1.37731,-0.042837,-2.95205,0.240679,
2,1,0,1,0,3126.21,0.242506,0.242143,1.75206,2,0.0178683,10,0.000424248,-2.75645,-1.15646,-0.0510176,-3.50685,0.242143,
2,1,0,1,0,3126.25,0.244003,0.243687,1.7509,2,0.0179346,10,0.000426672,-2.75674,-1.78814,-0.0329952,-2.2619,0.243687,
2,1,0,1,0,3126.29,0.245503,0.245179,1.75411,2,0.0180009,10,0.00043007,-2.75594,-1.66975,-0.0353347,-2.41577,0.245179,
2,1,0,1,0,3126.32,0.247003,0.246702,1.74945,2,0.0180672,10,0.000431591,-2.7571,-1.17764,-0.0501002,-3.4084,0.246702,
2,1,0,1,0,3126.36,0.248499,0.248179,1.73924,2,0.0181331,10,0.000431643,-2.75964,-0.964108,-0.0611965,-4.1581,0.248179,
2,1,0,1,0,3126.4,0.249995,0.249682,1.7416,2,0.0181987,10,0.000434845,-2.75905,-1.30372,-0.045255,-3.0618,0.249682,
2,1,0,1,0,3126.44,0.251498,0.251219,1.73605,2,0.0182646,10,0.000436129,-2.76044,-2.30857,-0.025557,-1.72663,0.251219,
2,1,0,1,0,3126.47,0.252994,0.252674,1.72526,2,0.01833,10,0.000435929,-2.76314,-1.06252,-0.0555285,-3.74305,0.252674,
2,1,0,1,0,3126.51,0.25449,0.254187,1.71948,2,0.0183953,10,0.000437071,-2.7646,-1.39236,-0.0423741,-2.8585,0.254187,
2,1,0,1,0,3126.55,0.25599,0.255703,1.71832,2,0.0184605,10,0.000439378,-2.7649,-1.80175,-0.0327459,-2.20338,0.255703,
2,1,0,1,0,3126.59,0.25749,0.257224,1.71718,2,0.0185257,10,0.0004417,-2.76518,-4.13317,-0.0142748,-0.956968,0.257224,
2,1,0,1,0,3126.62,0.258987,0.258704,1.71428,2,0.0185906,10,0.000443492,-2.76592,-1.04559,-0.0564277,-3.77105,0.258704,
2,1,0,1,0,3126.66,0.260483,0.260207,1.71669,2,0.0186553,10,0.000446693,-2.76531,-0.83581,-0.0705902,-4.70129,0.260207,
2,1,0,1,0,3126.7,0.261983,0.26171,1.71053,2,0.01872,10,0.000447663,-2.76687,-1.00012,-0.058993,-3.92356,0.2617099,
2,1,0,1,0,3126.74,0.263483,0.263155,1.70403,2,0.0187845,10,0.000448426,-2.76852,-35.4131,-0.00166605,-0.110518,0.263155,
2,1,0,1,0,3126.77,0.264978,0.264691,1.69995,2,0.0188488,10,0.000449961,-2.76956,-3.02583,-0.0194988,-1.29315,0.264691,
2,1,0,1,0,3126.81,0.266474,0.266183,1.68796,2,0.018913,10,0.000449306,-2.77264,-2.65877,-0.0221907,-1.47216,0.266183,
2,1,0,1,0,3126.85,0.267977,0.267659,1.68356,2,0.0189773,10,0.00045062,-2.77377,-2.18491,-0.0270035,-1.78379,0.267659,
2,1,0,1,0,3126.88,0.269474,0.269195,1.68747,2,0.0190411,10,0.000454259,-2.77276,-6.63552,-0.00889154,-0.585241,0.269195,
2,1,0,1,0,3126.92,0.27097,0.270679,1.68958,2,0.0191049,10,0.000457335,-2.77222,-1.69981,-0.0347097,-2.27895,0.270679,
2,1,0,1,0,3126.96,0.27247,0.272173,1.68462,2,0.0191688,10,0.000458509,-2.7735,-1.058,-0.0557655,-3.65171,0.272173,
2,1,0,1,0,3127,0.27397,0.273619,1.67872,2,0.0192324,10,0.00045933,-2.77502,-1.42959,-0.0412705,-2.70061,0.273619,
2,1,0,1,0,3127.03,0.275467,0.275159,1.6724,2,0.0192956,10,0.000460176,-2.77666,-2.20348,-0.0267758,-1.74968,0.275159,
2,1,0,1,0,3127.07,0.276963,0.276638,1.66746,2,0.0193588,10,0.000461284,-2.77794,-1.48947,-0.0396115,-2.58725,0.2766383,
2,1,0,1,0,3127.11,0.278463,0.27814,1.66628,2,0.0194221,10,0.000463459,-2.77825,-1.01555,-0.0580966,-3.78178,0.27814,
2,1,0,1,0,3127.15,0.279963,0.279662,1.66016,2,0.0194852,10,0.000464284,-2.77985,-1.16914,-0.0504644,-3.28157,0.279662,
2,1,0,1,0,3127.18,0.281459,0.281206,1.65995,2,0.0195479,10,0.000466788,-2.7799,-3.17431,-0.0185867,-1.20369,0.281206,
2,1,0,1,0,3127.22,0.282954,0.282651,1.66011,2,0.0196106,10,0.000469231,-2.77986,-4.23195,-0.0139416,-0.897931,0.282651,
2,1,0,1,0,3127.26,0.284458,0.284177,1.6604,2,0.0196736,10,0.000471847,-2.77979,-1.30309,-0.045277,-2.91496,0.284177,
2,1,0,1,0,3127.3,0.285954,0.285622,1.651,2,0.0197361,10,0.000471563,-2.78225,-1.10175,-0.0535512,-3.44495,0.2856223,
2,1,0,1,0,3127.33,0.28745,0.287145,1.64369,2,0.0197983,10,0.000471977,-2.78418,-1.22684,-0.048091,-3.09357,0.287145,
2,1,0,1,0,3127.37,0.28895,0.288658,1.63803,2,0.0198606,10,0.000472831,-2.78568,-1.64606,-0.0358433,-2.2999,0.288658,
2,1,0,1,0,3127.41,0.29045,0.290176,1.63584,2,0.0199228,10,0.000474681,-2.78626,-2.10738,-0.0279969,-1.79395,0.290176,
2,1,0,1,0,3127.45,0.291947,0.29168,1.63178,2,0.0199847,10,0.000475959,-2.78734,-1.1509,-0.0512644,-3.27365,0.29168,
2,1,0,1,0,3127.48,0.293443,0.293165,1.63078,2,0.0200465,10,0.000478086,-2.78761,-1.92616,-0.0306309,-1.95279,0.293165,
2,1,0,1,0,3127.52,0.294943,0.294628,1.63447,2,0.0201082,10,0.000481561,-2.78662,-3.43444,-0.0171789,-1.09101,0.294628,
2,1,0,1,0,3127.56,0.296443,0.296121,1.63069,2,0.0201699,10,0.000482882,-2.78763,-2.53252,-0.023297,-1.47177,0.296121,
2,1,0,1,0,3127.6,0.297939,0.297655,1.62405,2,0.0202314,10,0.000483408,-2.7894,-1.08861,-0.0541976,-3.42514,0.297655,
2,1,0,1,0,3127.63,0.299434,0.299157,1.61641,2,0.0202926,10,0.00048356,-2.79145,-0.00970655,-6.07837,-300.068,0.299157,
2,1,0,0,0,3127.65,0.299962,0.29946,1.50722,2,0.0203167,10,0.000451353,-2.82182,0.000684545,86.1887,2300.66,0.29946,
2,1,0,1,0,3127.68,0.298689,0.298422,0.0541305,2,0.0203339,10,1.61537e-05,-4.26656,0.00494506,11.9311,602.891,0.2984215,
2,0,0,1,0,3127.72,0.297189,0.296888,-0.298409,2,0.0203271,10,-8.85941e-05,-3.52519,-0.0471235,-1.25203,204.991,0.296888,
2,0,0,1,0,3127.76,0.295692,0.29538,-0.416613,2,0.0203126,10,-0.000123059,-3.38027,-0.0122083,-4.83276,65.8482,0.2953797,
2,0,0,1,0,3127.79,0.294196,0.293885,-0.481078,2,0.020295,10,-0.000141382,-3.31778,-0.0277191,-2.1285,38.4921,0.293885,
2,0,0,1,0,3127.83,0.292696,0.292354,-0.529742,2,0.0202753,10,-0.000154872,-3.27594,-0.0399763,-1.47587,29.9362,0.292354,
2,0,0,1,0,3127.87,0.291196,0.2909,-0.576889,2,0.020254,10,-0.000167817,-3.23891,-0.0466577,-1.26453,27.6453,0.2909,
2,0,0,1,0,3127.91,0.2897,0.289404,-0.612911,2,0.0202312,10,-0.000177379,-3.2126,-0.0578798,-1.01935,23.8927,0.289404,
2,0,0,1,0,3127.94,0.288205,0.287921,-0.637542,2,0.0202071,10,-0.000183562,-3.19549,-0.0782232,-0.754252,18.6966,0.287921,
2,0,0,1,0,3127.98,0.286701,0.286392,-0.65887,2,0.0201818,10,-0.000188695,-3.1812,-0.0861027,-0.685228,17.8375,0.286392,
2,0,0,1,0,3128.02,0.285205,0.284923,-0.689422,2,0.0201557,10,-0.000196432,-3.16152,-0.0880632,-0.669974,18.1802,0.284923,
2,0,0,1,0,3128.06,0.283708,0.283439,-0.719359,2,0.0201286,10,-0.000203894,-3.14305,-0.105882,-0.557223,15.55,0.283439,
2,0,0,1,0,3128.09,0.282208,0.281865,-0.744423,2,0.0201004,10,-0.000209827,-3.12818,-0.13008,-0.453566,12.9814,0.281865,
2,0,0,1,0,3128.13,0.280709,0.280419,-0.764405,2,0.0200715,10,-0.000214354,-3.11668,-0.136096,-0.433519,12.8043,0.280419,
2,0,0,1,0,3128.17,0.279212,0.27896,-0.781739,2,0.0200421,10,-0.000218074,-3.10694,-0.150979,-0.390783,11.8815,0.27896,
2,0,0,1,0,3128.2,0.277716,0.277422,-0.799596,2,0.0200118,10,-0.000221826,-3.09713,-0.13899,-0.424491,13.2071,0.277422,
2,0,0,1,0,3128.24,0.276216,0.275901,-0.814724,2,0.0199807,10,-0.000224783,-3.08899,-0.15732,-0.375032,11.9665,0.275901,
2,0,0,1,0,3128.28,0.274716,0.274342,-0.833527,2,0.019949,10,-0.000228672,-3.07908,-0.181884,-0.324382,10.5964,0.274342,
2,0,0,1,0,3128.32,0.27322,0.272906,-0.847198,2,0.0199169,10,-0.000231206,-3.07201,-0.185429,-0.318181,10.586,0.272906,
2,0,0,1,0,3128.35,0.271725,0.271405,-0.863033,2,0.0198841,10,-0.000234231,-3.06397,-0.157354,-0.374951,12.6464,0.271405,
2,0,0,1,0,3128.39,0.270221,0.269941,-0.88194,2,0.0198505,10,-0.000238072,-3.05456,-0.189139,-0.311939,10.6822,0.2699407,
2,0,0,1,0,3128.43,0.268725,0.268411,-0.900159,2,0.0198165,10,-0.000241613,-3.04568,-0.215019,-0.274395,9.5554,0.268411,
2,0,0,1,0,3128.47,0.267228,0.26693,-0.904029,2,0.019782,10,-0.000241312,-3.04382,-0.224862,-0.262383,9.30493,0.26693,
2,0,0,1,0,3128.5,0.265728,0.265417,-0.921502,2,0.019747,10,-0.000244582,-3.0355,-0.232489,-0.253776,9.12967,0.265417,
2,0,0,1,0,3128.54,0.264228,0.263907,-0.935385,2,0.0197114,10,-0.000246855,-3.02901,-0.22348,-0.264006,9.64954,0.263907,
2,0,0,1,0,3128.58,0.262732,0.262426,-0.944871,2,0.0196755,10,-0.000247959,-3.02463,-0.369295,-0.159764,5.91427,0.262426,
2,0,0,1,0,3128.62,0.261236,0.260929,-0.958478,2,0.019639,10,-0.000250094,-3.01842,-0.30815,-0.191465,7.21257,0.260929,
2,0,0,1,0,3128.65,0.259736,0.259469,-0.974664,2,0.0196021,10,-0.000252895,-3.01115,-0.245971,-0.239865,9.1374,0.259469,
2,0,0,1,0,3128.69,0.258236,0.257981,-0.987422,2,0.0195647,10,-0.000254736,-3.0055,-0.269167,-0.219195,8.42601,0.257981,
2,0,0,1,0,3128.73,0.256741,0.256434,-1.00359,2,0.0195267,10,-0.000257354,-2.99844,-0.315017,-0.187291,7.2494,0.256434,
2,0,0,1,0,3128.77,0.255241,0.254884,-1.01219,2,0.0194883,10,-0.000257991,-2.99474,-0.386749,-0.152554,5.99579,0.254884,
2,0,0,1,0,3128.8,0.253741,0.25343,-1.01628,2,0.0194497,10,-0.000257554,-2.99299,-0.313326,-0.188302,7.50194,0.25343,
2,0,0,1,0,3128.84,0.252245,0.251929,-1.02597,2,0.0194106,10,-0.000258472,-2.98886,-0.257499,-0.229128,9.22365,0.251929,
2,0,0,1,0,3128.88,0.250748,0.250441,-1.04042,2,0.0193711,10,-0.000260563,-2.98279,-0.311367,-0.189487,7.73851,0.250441,
2,0,0,1,0,3128.92,0.249248,0.248943,-1.05478,2,0.0193311,10,-0.000262579,-2.97684,-0.406711,-0.145066,5.97591,0.248943,
2,0,0,1,0,3128.95,0.247748,0.247452,-1.06086,2,0.0192907,10,-0.000262511,-2.97434,-0.339702,-0.173681,7.1986,0.247452,
2,0,0,1,0,3128.99,0.246252,0.245961,-1.07973,2,0.01925,10,-0.000265572,-2.96668,-0.312619,-0.188728,7.88088,0.245961,
2,0,0,1,0,3129.03,0.244756,0.244474,-1.09385,2,0.0192088,10,-0.000267417,-2.96104,-0.304679,-0.193647,8.18685,0.244474,
2,0,0,1,0,3129.07,0.243252,0.242941,-1.09653,2,0.019167,10,-0.000266393,-2.95998,-0.398418,-0.148086,6.32441,0.2429405,
2,0,0,1,0,3129.1,0.241756,0.24149,-1.0988,2,0.0191251,10,-0.00026535,-2.95908,-0.367542,-0.160526,6.92846,0.24149,
2,0,0,1,0,3129.14,0.240261,0.239959,-1.111,2,0.0190829,10,-0.000266596,-2.95428,-0.404503,-0.145858,6.38281,0.2399593,
2,0,0,1,0,3129.18,0.238761,0.238429,-1.12298,2,0.0190401,10,-0.000267751,-2.94963,-0.358299,-0.164667,7.25343,0.238429,
2,0,0,1,0,3129.22,0.237261,0.236939,-1.13546,2,0.0189969,10,-0.000269036,-2.94483,-0.661685,-0.0891663,3.94964,0.236939,
2,0,0,1,0,3129.25,0.235765,0.235405,-1.14308,2,0.0189535,10,-0.000269086,-2.94192,-0.538455,-0.109573,4.90506,0.235405,
2,0,0,1,0,3129.29,0.234268,0.23398,-1.15764,2,0.0189098,10,-0.000270865,-2.93643,-0.49583,-0.118992,5.36105,0.23398,
2,0,0,1,0,3129.33,0.232768,0.23248,-1.17227,2,0.0188656,10,-0.00027253,-2.93097,-0.399208,-0.147793,6.68514,0.23248,
2,0,0,1,0,3129.37,0.231268,0.230972,-1.17481,2,0.0188209,10,-0.000271349,-2.93003,-0.415759,-0.141909,6.51338,0.230972,
2,0,0,1,0,3129.4,0.229772,0.229447,-1.18897,2,0.018776,10,-0.000272805,-2.92483,-0.501438,-0.117662,5.45544,0.229447,
2,0,0,1,0,3129.44,0.228275,0.227981,-1.19454,2,0.0187308,10,-0.000272333,-2.9228,-0.413589,-0.142654,6.681,0.227981,
2,0,0,1,0,3129.48,0.226772,0.226464,-1.20373,2,0.018685,10,-0.000272602,-2.91947,-0.313922,-0.187945,8.85031,0.226464,
2,0,0,1,0,3129.52,0.225276,0.224966,-1.21391,2,0.018639,10,-0.000273089,-2.91581,-0.474931,-0.124229,5.89791,0.224966,
2,0,0,1,0,3129.55,0.223781,0.22347,-1.22479,2,0.0185926,10,-0.000273703,-2.91194,-0.409577,-0.144051,6.88874,0.22347,
2,0,0,1,0,3129.59,0.222281,0.221981,-1.23458,2,0.0185458,10,-0.000274053,-2.90848,-0.385658,-0.152985,7.37335,0.221981,
2,0,0,1,0,3129.63,0.220781,0.220513,-1.24433,2,0.0184986,10,-0.00027439,-2.90507,-0.300345,-0.19644,9.52732,0.2205129,
2,0,0,1,0,3129.67,0.219284,0.218974,-1.26024,2,0.0184511,10,-0.000275959,-2.89955,-0.488511,-0.120775,5.91433,0.218974,
2,0,0,1,0,3129.7,0.217788,0.217471,-1.26525,2,0.0184031,10,-0.000275156,-2.89782,-0.519797,-0.113506,5.60321,0.217471,
2,0,0,1,0,3129.74,0.216288,0.215969,-1.26869,2,0.0183547,10,-0.000273997,-2.89664,-0.582997,-0.101201,5.05263,0.215969,
2,0,0,1,0,3129.78,0.214788,0.214506,-1.28474,2,0.018306,10,-0.000275585,-2.89118,-0.454575,-0.129792,6.54096,0.214506,
2,0,0,1,0,3129.82,0.213292,0.212986,-1.29773,2,0.018257,10,-0.000276398,-2.88682,-0.395511,-0.149174,7.55367,0.212986,
2,0,0,1,0,3129.85,0.211796,0.21148,-1.31042,2,0.0182075,10,-0.000277129,-2.88259,-0.404512,-0.145855,7.42054,0.2114805,
2,0,0,1,0,3129.89,0.210293,0.20999,-1.31913,2,0.0181574,10,-0.000277005,-2.87971,-0.456523,-0.129238,6.63539,0.20999,
2,0,0,1,0,3129.93,0.208797,0.208485,-1.33088,2,0.0181072,10,-0.000277468,-2.87586,-0.315798,-0.186829,9.72567,0.208485,
2,0,0,1,0,3129.97,0.207301,0.207038,-1.34236,2,0.0180565,10,-0.00027792,-2.87213,-0.305711,-0.192993,10.098,0.2070381,
2,0,0,1,0,3130,0.205801,0.205511,-1.35485,2,0.018005,10,-0.000278436,-2.86811,-0.471595,-0.125107,6.60868,0.205511,
2,0,0,1,0,3130.04,0.204301,0.203959,-1.36243,2,0.0179532,10,-0.00027788,-2.86569,-0.60129,-0.0981223,5.24998,0.203959,
2,0,0,1,0,3130.08,0.202804,0.202493,-1.37566,2,0.0179013,10,-0.000278561,-2.86149,-0.425302,-0.138725,7.4693,0.202493,
2,0,0,1,0,3130.12,0.201308,0.201016,-1.38968,2,0.0178489,10,-0.000279349,-2.85708,-0.298019,-0.197974,10.7373,0.201016,
2,0,0,1,0,3130.15,0.199808,0.199503,-1.40511,2,0.0177958,10,-0.000280325,-2.85229,-0.34568,-0.170678,9.32793,0.199503,
2,0,0,1,0,3130.19,0.198308,0.197993,-1.41813,2,0.0177422,10,-0.000280779,-2.84828,-0.418013,-0.141144,7.78269,0.197993,
2,0,0,1,0,3130.23,0.196812,0.196535,-1.42702,2,0.0176884,10,-0.00028046,-2.84557,-0.347034,-0.170012,9.4804,0.196535,
2,0,0,1,0,3130.26,0.195316,0.195008,-1.44675,2,0.017634,10,-0.000282129,-2.83961,-0.263261,-0.224112,12.6056,0.195008,
2,0,0,1,0,3130.3,0.193813,0.193471,-1.46278,2,0.0175787,10,-0.000283006,-2.83482,-0.269204,-0.219164,12.4922,0.193471,
2,0,0,1,0,3130.34,0.192317,0.192042,-1.47076,2,0.0175231,10,-0.000282449,-2.83246,-0.317653,-0.185737,10.6842,0.192042,
2,0,0,1,0,3130.38,0.190821,0.190518,-1.48657,2,0.0174669,10,-0.00028322,-2.82781,-0.309951,-0.190353,11.0775,0.190518,
2,0,0,1,0,3130.41,0.189321,0.189041,-1.50357,2,0.0174101,10,-0.000284236,-2.82288,-0.354435,-0.166462,9.79203,0.189041,
2,0,0,1,0,3130.45,0.187821,0.187472,-1.52583,2,0.0173525,10,-0.000286051,-2.81649,-0.277404,-0.212686,12.6445,0.187472,
2,0,0,1,0,3130.49,0.186324,0.186025,-1.54313,2,0.0172945,10,-0.000287061,-2.8116,-0.289918,-0.203506,12.2047,0.186025,
2,0,0,1,0,3130.53,0.184828,0.184513,-1.56688,2,0.0172357,10,-0.000289111,-2.80496,-0.31598,-0.186721,11.3925,0.184513,
2,0,0,1,0,3130.56,0.183328,0.183021,-1.57947,2,0.0171761,10,-0.000289075,-2.80149,-0.245536,-0.240291,14.8644,0.183021,
2,0,0,1,0,3130.6,0.181828,0.18151,-1.60346,2,0.0171156,10,-0.000291043,-2.79494,-0.246231,-0.239612,15.0252,0.18151,
2,0,0,1,0,3130.64,0.180332,0.180023,-1.62614,2,0.0170544,10,-0.000292744,-2.78884,-0.242366,-0.243433,15.5091,0.180023,
2,0,0,1,0,3130.68,0.178836,0.178546,-1.65172,2,0.0169924,10,-0.000294908,-2.78206,-0.234951,-0.251117,16.2128,0.178546,
2,0,0,1,0,3130.71,0.177333,0.177015,-1.67875,2,0.0169291,10,-0.000297164,-2.77501,-0.199226,-0.296146,19.4273,0.177015,
2,0,0,1,0,3130.75,0.175837,0.1756,-1.70732,2,0.0168651,10,-0.000299807,-2.76768,-0.179666,-0.328387,21.8321,0.1756,
2,0,0,1,0,3130.79,0.174341,0.174011,-1.74069,2,0.0167999,10,-0.0003029,-2.75928,-0.190723,-0.309349,20.9401,0.1740109,
2,0,0,1,0,3130.83,0.172841,0.172512,-1.77193,2,0.0167334,10,-0.000305678,-2.75155,-0.182312,-0.323622,22.3674,0.172512,
2,0,0,1,0,3130.86,0.171341,0.171035,-1.79683,2,0.0166657,10,-0.000307322,-2.74549,-0.177344,-0.332687,23.4777,0.171035,
2,0,0,1,0,3130.9,0.169844,0.169554,-1.84197,2,0.0165968,10,-0.000312313,-2.73472,-0.155474,-0.379485,27.4106,0.169554,
2,0,0,1,0,3130.94,0.168348,0.167998,-1.88841,2,0.0165264,10,-0.00031725,-2.7239,-0.154363,-0.382215,28.1776,0.167998,
2,0,0,1,0,3130.98,0.166848,0.166525,-1.93441,2,0.016454,10,-0.000322129,-2.71345,-0.148327,-0.397771,29.9605,0.166525,
2,0,0,1,0,3131.01,0.165348,0.165033,-1.98146,2,0.01638,10,-0.000327008,-2.70301,-0.136306,-0.43285,33.4217,0.1650334,
2,0,0,1,0,3131.05,0.163852,0.163567,-2.02836,2,0.0163045,10,-0.000331773,-2.69285,-0.120233,-0.490712,39.0077,0.163567,
2,0,0,1,0,3131.09,0.162357,0.162016,-2.09284,2,0.0162267,10,-0.000339074,-2.67926,-0.110528,-0.5338,43.5854,0.162016,
2,0,0,1,0,3131.13,0.160853,0.160541,-2.15125,2,0.0161461,10,-0.000345364,-2.66731,-0.114099,-0.517096,43.5139,0.160541,
2,0,0,1,0,3131.16,0.159357,0.159069,-2.22002,2,0.0160635,10,-0.000353136,-2.65364,-0.107889,-0.546859,47.6197,0.159069,
2,0,0,1,0,3131.2,0.157861,0.15755,-2.29375,2,0.0159783,10,-0.00036138,-2.63945,-0.10076,-0.585552,52.8188,0.1575498,
2,0,0,1,0,3131.24,0.156361,0.156075,-2.38416,2,0.0158897,10,-0.000372109,-2.62266,-0.0898838,-0.656403,61.2366,0.156075,
2,0,0,1,0,3131.28,0.154861,0.154523,-2.48483,2,0.0157977,10,-0.000383963,-2.6047,-0.0866626,-0.680801,66.0487,0.154523,
2,0,0,1,0,3131.31,0.153364,0.153041,-2.58606,2,0.0157022,10,-0.000395774,-2.58736,-0.0859958,-0.68608,69.2683,0.153041,
2,0,0,1,0,3131.35,0.151868,0.151537,-2.69257,2,0.0156029,10,-0.000408024,-2.56983,-0.0797948,-0.739396,77.8543,0.151537,
2,0,0,1,0,3131.39,0.150368,0.150027,-2.82055,2,0.0154989,10,-0.00042316,-2.54967,-0.0753323,-0.783196,86.0931,0.150027,
2,0,0,1,0,3131.43,0.148868,0.148557,-2.94869,2,0.0153901,10,-0.000438048,-2.53037,-0.0739998,-0.7973,91.8745,0.148557,
2,0,0,1,0,3131.46,0.147372,0.147105,-3.08927,2,0.0152765,10,-0.000454448,-2.51014,-0.0743104,-0.793967,95.7703,0.147105,
2,0,0,1,0,3131.5,0.145877,0.145568,-3.22304,2,0.0151575,10,-0.000469171,-2.49173,-0.0722789,-0.816282,103.276,0.145568,
2,0,0,1,0,3131.54,0.144373,0.144044,-3.38895,2,0.0150323,10,-0.000488159,-2.46993,-0.0735263,-0.802434,106.4,0.144044,
2,0,0,1,0,3131.58,0.142877,0.142516,-3.56377,2,0.0149016,10,-0.000507896,-2.44809,-0.0731734,-0.806304,111.872,0.142516,
2,0,0,1,0,3131.61,0.14138,0.141079,-3.72828,2,0.0147646,10,-0.000525984,-2.42849,-0.0782525,-0.753969,109.275,0.141079,
2,0,0,1,0,3131.65,0.13988,0.139575,-3.89306,2,0.0146209,10,-0.000543373,-2.40971,-0.0825032,-0.715124,108.328,0.139575,
2,0,0,1,0,3131.69,0.13838,0.138081,-4.06032,2,0.0144713,10,-0.000560652,-2.39144,-0.0856035,-0.689224,108.956,0.138081,
2,0,0,1,0,3131.73,0.136884,0.136593,-4.21712,2,0.0143158,10,-0.000576028,-2.37498,-0.0904905,-0.652002,107.14,0.136593,
2,0,0,1,0,3131.76,0.135388,0.13511,-4.37555,2,0.0141543,10,-0.000591183,-2.35897,-0.100065,-0.589616,100.497,0.13511,
2,0,0,1,0,3131.8,0.133888,0.133557,-4.52619,2,0.0139865,10,-0.000604504,-2.34427,-0.106707,-0.552915,97.4663,0.133557,
2,0,0,1,0,3131.84,0.132389,0.13207,-4.66197,2,0.0138137,10,-0.000615706,-2.33143,-0.117775,-0.500955,91.0167,0.13207,
2,0,0,1,0,3131.88,0.130893,0.130597,-4.79796,2,0.013636,10,-0.000626598,-2.31894,-0.128144,-0.460418,85.8427,0.130597,
2,0,0,1,0,3131.91,0.129393,0.129099,-4.91855,2,0.013453,10,-0.000634979,-2.30816,-0.149218,-0.395394,75.6578,0.129099,
2,0,0,1,0,3131.95,0.127893,0.12756,-5.02361,2,0.0132658,10,-0.000640812,-2.29898,-0.174534,-0.338042,66.0668,0.12756,
2,0,0,1,0,3131.99,0.126397,0.126079,-5.1135,2,0.0130754,10,-0.000644704,-2.29128,-0.206953,-0.285089,56.7916,0.1260789,
2,0,0,1,0,3132.03,0.1249,0.124586,-5.19615,2,0.0128818,10,-0.000647369,-2.28432,-0.232413,-0.253858,51.3724,0.124586,
2,0,0,1,0,3132.06,0.1234,0.123097,-5.26522,2,0.0126848,10,-0.00064813,-2.27858,-0.294754,-0.200167,41.0428,0.123097,
2,0,0,1,0,3132.1,0.1219,0.121573,-5.32025,2,0.0124854,10,-0.000646798,-2.27407,-0.437743,-0.134782,27.9249,0.121573,
2,0,0,1,0,3132.14,0.120404,0.120101,-5.35688,2,0.012285,10,-0.000643368,-2.27109,-0.550334,-0.107208,22.3846,0.120101,
2,0,0,1,0,3132.18,0.118908,0.118604,-5.38924,2,0.0120834,10,-0.000639188,-2.26847,-0.743109,-0.0793961,16.6704,0.118604,
2,0,0,1,0,3132.21,0.117404,0.117095,-5.41277,2,0.0118797,10,-0.000633811,-2.26658,-1.0689,-0.0551971,11.6259,0.117095,
2,0,0,1,0,3132.25,0.115909,0.115599,-5.42232,2,0.0116764,10,-0.000626813,-2.26581,-33.8674,-0.00174209,0.367138,0.1155986,
2,0,0,1,0,3132.29,0.114413,0.114082,-5.41637,2,0.0114729,10,-0.000617912,-2.26629,2.21732,0.0266088,-5.61314,0.114082,
2,0,0,1,0,3132.33,0.112913,0.112629,-5.39307,2,0.0112695,10,-0.000607417,-2.26816,1.006,0.0586481,-12.3568,0.112629,
2,0,0,1,0,3132.36,0.111413,0.111126,-5.37342,2,0.0110667,10,-0.000597128,-2.26975,0.73328,0.0804604,-16.8658,0.111126,
2,0,0,1,0,3132.4,0.109917,0.109585,-5.34951,2,0.0108654,10,-0.000586224,-2.27169,0.567992,0.103875,-21.6636,0.109585,
2,0,0,1,0,3132.44,0.10842,0.108122,-5.30909,2,0.0106654,10,-0.000574027,-2.27498,0.387586,0.152224,-31.4745,0.108122,
2,0,0,1,0,3132.47,0.10692,0.106648,-5.25738,2,0.0104665,10,-0.000560686,-2.27923,0.367585,0.160507,-32.9172,0.106648,
2,0,0,1,0,3132.51,0.10542,0.105094,-5.20877,2,0.0102696,10,-0.000547412,-2.28327,0.333154,0.177095,-35.9442,0.105094,
2,0,0,1,0,3132.55,0.103924,0.103624,-5.15746,2,0.0100751,10,-0.000534435,-2.28756,0.300874,0.196095,-39.3707,0.103624,
2,0,0,1,0,3132.59,0.102427,0.102152,-5.08902,2,0.0098828,10,-0.000519854,-2.29337,0.260344,0.226624,-44.9622,0.1021521,
2,0,0,1,0,3132.62,0.100924,0.100583,-5.01605,2,0.00969207,10,-0.000504527,-2.29964,0.247627,0.238262,-46.6656,0.100583,
2,0,0,1,0,3132.66,0.0994284,0.0991164,-4.94316,2,0.00950505,10,-0.000489948,-2.306,0.239389,0.246461,-47.5852,0.0991164,
2,0,0,1,0,3132.7,0.0979329,0.0976112,-4.87596,2,0.00932072,10,-0.000475948,-2.31194,0.238425,0.247457,-47.0978,0.0976112,
2,0,0,1,0,3132.74,0.0964329,0.0961257,-4.80279,2,0.00913859,10,-0.000461671,-2.31851,0.221348,0.266549,-49.8998,0.0961257,
2,0,0,1,0,3132.77,0.094933,0.0946375,-4.73023,2,0.00895912,10,-0.000447657,-2.32512,0.215936,0.273229,-50.3911,0.0946375,
2,0,0,1,0,3132.81,0.0934366,0.0931419,-4.65435,2,0.00878306,10,-0.000433515,-2.33214,0.230837,0.255592,-46.4535,0.0931419,
2,0,0,1,0,3132.85,0.0919401,0.0915833,-4.58964,2,0.0086096,10,-0.000420334,-2.33822,0.235453,0.25058,-44.8354,0.0915833,
2,0,0,1,0,3132.89,0.0904402,0.090094,-4.52395,2,0.00843801,10,-0.00040758,-2.34448,0.240623,0.245197,-43.2526,0.090094,
2,0,0,1,0,3132.92,0.0889402,0.0886328,-4.45989,2,0.00826888,10,-0.000395292,-2.35068,0.242785,0.243013,-42.3559,0.0886328,
2,0,0,1,0,3132.96,0.0874438,0.0871575,-4.39193,2,0.00810275,10,-0.00038279,-2.35734,0.253983,0.232299,-39.9131,0.08715748,
2,0,0,1,0,3133,0.0859483,0.0856402,-4.34089,2,0.00793865,10,-0.000371755,-2.36242,0.302043,0.195336,-33.1138,0.0856402,
2,0,0,1,0,3133.04,0.0844447,0.0841478,-4.29392,2,0.00777567,10,-0.000361324,-2.36715,0.323998,0.1821,-30.5303,0.0841478,
2,0,0,1,0,3133.07,0.0829492,0.0826195,-4.24841,2,0.00761528,10,-0.000351002,-2.37177,0.318447,0.185274,-30.6858,0.0826195,
2,0,0,1,0,3133.11,0.0814528,0.0811591,-4.19837,2,0.00745671,10,-0.000340736,-2.37692,0.333826,0.176739,-28.9585,0.0811591,
2,0,0,1,0,3133.15,0.0799528,0.0796256,-4.16278,2,0.0072993,10,-0.000331464,-2.38062,0.381073,0.154826,-25.1244,0.0796256,
2,0,0,1,0,3133.19,0.0784529,0.0780915,-4.12253,2,0.00714331,10,-0.000321935,-2.38484,0.400227,0.147416,-23.7285,0.07809151,
2,0,0,1,0,3133.22,0.0769565,0.0766637,-4.086,2,0.00698896,10,-0.000313248,-2.3887,0.39001,0.151278,-24.1546,0.0766637,
2,0,0,1,0,3133.26,0.0754601,0.0751287,-4.04298,2,0.00683606,10,-0.000303744,-2.3933,0.38133,0.154721,-24.5131,0.0751287,
2,0,0,1,0,3133.3,0.0739601,0.0736645,-4.021,2,0.00668402,10,-0.000296205,-2.39567,0.439547,0.134229,-21.0781,0.0736645,
2,0,0,1,0,3133.34,0.0724601,0.0721375,-3.99291,2,0.00653308,10,-0.000288039,-2.39871,0.456745,0.129175,-20.1265,0.07213746,
2,0,0,1,0,3133.37,0.0709637,0.0706309,-3.96708,2,0.0063836,10,-0.000280198,-2.40153,0.43723,0.134941,-20.8306,0.0706309,
2,0,0,1,0,3133.41,0.0694682,0.0691476,-3.93376,2,0.00623523,10,-0.00027201,-2.40519,0.458531,0.128672,-19.7482,0.0691476,
2,0,0,1,0,3133.45,0.0679646,0.0676136,-3.89987,2,0.00608732,10,-0.000263684,-2.40895,0.52606,0.112155,-17.1064,0.0676136,
2,0,0,1,0,3133.49,0.0664691,0.0661693,-3.87415,2,0.00594112,10,-0.00025635,-2.41182,0.506788,0.116419,-17.6166,0.0661693,
2,0,0,1,0,3133.52,0.0649727,0.0646723,-3.84809,2,0.00579581,10,-0.000248865,-2.41475,0.440125,0.134053,-20.1474,0.0646723,
2,0,0,1,0,3133.56,0.0634727,0.063169,-3.81906,2,0.00565124,10,-0.000241246,-2.41804,0.422389,0.139682,-20.8566,0.063169,
2,0,0,1,0,3133.6,0.0619728,0.0616706,-3.78936,2,0.0055079,10,-0.000233692,-2.42143,0.443601,0.133002,-19.6791,0.0616706,
2,0,0,1,0,3133.64,0.0604764,0.0601627,-3.76336,2,0.00536598,10,-0.000226414,-2.42442,0.471201,0.125212,-18.3691,0.0601627,
2,0,0,1,0,3133.67,0.05898,0.0587019,-3.7368,2,0.00522511,10,-0.000219357,-2.4275,0.445383,0.13247,-19.2766,0.0587019,
2,0,0,1,0,3133.71,0.05748,0.0571957,-3.70648,2,0.00508493,10,-0.000211995,-2.43104,0.407305,0.144855,-20.8944,0.0571957,
2,0,0,1,0,3133.75,0.05598,0.0556414,-3.66948,2,0.00494598,10,-0.000204175,-2.4354,0.394734,0.149468,-21.4145,0.0556414,
2,0,0,1,0,3133.79,0.0544836,0.0541604,-3.63556,2,0.00480868,10,-0.000196904,-2.43943,0.438997,0.134397,-19.0922,0.05416045,
2,0,0,1,0,3133.82,0.0529881,0.0526619,-3.6081,2,0.00467241,10,-0.000190009,-2.44272,0.407407,0.144818,-20.3909,0.0526619,
2,0,0,1,0,3133.86,0.0514846,0.0511378,-3.57433,2,0.00453654,10,-0.000182783,-2.44681,0.347872,0.169603,-23.6651,0.0511378,
2,0,0,1,0,3133.9,0.049989,0.0496909,-3.53348,2,0.00440277,10,-0.000175582,-2.4518,0.337857,0.17463,-24.1145,0.0496909,
2,0,0,1,0,3133.94,0.0484926,0.0482076,-3.50435,2,0.00427049,10,-0.000168936,-2.45539,0.325254,0.181397,-24.7815,0.0482076,
2,0,0,1,0,3133.97,0.0469927,0.0466928,-3.46871,2,0.00413912,10,-0.000161963,-2.45983,0.339345,0.173864,-23.4856,0.04669277,
2,0,0,1,0,3134.01,0.0454927,0.0451708,-3.43026,2,0.0040091,10,-0.000154948,-2.46467,0.2861,0.206222,-27.5152,0.0451708,
2,0,0,1,0,3134.05,0.0439963,0.0437016,-3.3857,2,0.00388088,10,-0.000147961,-2.47035,0.27684,0.213119,-28.1829,0.0437016,
2,0,0,1,0,3134.09,0.0424999,0.0421803,-3.34547,2,0.00375431,10,-0.000141113,-2.47554,0.312556,0.188766,-24.7199,0.0421803,
2,0,0,1,0,3134.12,0.0409999,0.0406682,-3.30582,2,0.00362883,10,-0.000134442,-2.48072,0.302928,0.194766,-25.1868,0.0406682,
2,0,0,1,0,3134.16,0.0394999,0.0391576,-3.27111,2,0.00350464,10,-0.000128089,-2.4853,0.285261,0.206828,-26.3821,0.0391576,
2,0,0,1,0,3134.2,0.0380044,0.0376966,-3.22939,2,0.00338233,10,-0.000121737,-2.49088,0.275492,0.214162,-26.9866,0.0376966,
2,0,0,1,0,3134.24,0.0365089,0.0361488,-3.18692,2,0.00326173,10,-0.000115203,-2.49663,0.281922,0.209278,-26.0304,0.0361488,
2,0,0,1,0,3134.27,0.0350054,0.0346987,-3.15274,2,0.00314191,10,-0.000109396,-2.50131,0.281244,0.209783,-25.7346,0.03469871,
2,0,0,1,0,3134.31,0.033509,0.0332425,-3.11082,2,0.00302413,10,-0.000103411,-2.50712,0.279696,0.210943,-25.608,0.0332425,
2,0,0,1,0,3134.35,0.0320125,0.0317049,-3.07223,2,0.00290773,10,-9.74048e-05,-2.51255,0.301215,0.195873,-23.4848,0.0317049,
2,0,0,1,0,3134.39,0.0305126,0.0302023,-3.02872,2,0.00279248,10,-9.14743e-05,-2.51874,0.296904,0.198717,-23.6047,0.0302023,
2,0,0,1,0,3134.42,0.0290126,0.0287343,-3.00397,2,0.00267859,10,-8.63169e-05,-2.5223,0.314927,0.187345,-22.0046,0.0287343,
2,0,0,1,0,3134.46,0.0275162,0.0272175,-2.97319,2,0.00256607,10,-8.09228e-05,-2.52678,0.348553,0.169271,-19.6621,0.0272175,
2,0,0,1,0,3134.5,0.0260198,0.025704,-2.94937,2,0.00245467,10,-7.58107e-05,-2.53027,0.335307,0.175958,-20.2272,0.025704,
2,0,0,1,0,3134.53,0.0245198,0.024227,-2.91585,2,0.0023441,10,-7.06422e-05,-2.53524,0.335956,0.175618,-19.9684,0.024227,
2,0,0,1,0,3134.57,0.0230198,0.0227139,-2.89356,2,0.00223466,10,-6.5724e-05,-2.53857,0.389356,0.151532,-17.0684,0.0227139,
2,0,0,1,0,3134.61,0.0215243,0.0212249,-2.87035,2,0.00212634,10,-6.0923e-05,-2.54207,0.505797,0.116648,-13.0436,0.0212249,
2,0,0,1,0,3134.65,0.0200288,0.0197196,-2.84189,2,0.00201886,10,-5.6041e-05,-2.54639,0.470848,0.125306,-13.9051,0.0197196,
2,0,0,1,0,3134.68,0.0185253,0.0182463,-2.82166,2,0.00191157,10,-5.14849e-05,-2.5495,0.492806,0.119723,-13.2165,0.0182463,
2,0,0,1,0,3134.72,0.0170289,0.0167077,-2.79702,2,0.00180575,10,-4.67319e-05,-2.5533,0.55527,0.106255,-11.6697,0.01670772,
2,0,0,1,0,3134.76,0.0155325,0.0151712,-2.78854,2,0.00170047,10,-4.23055e-05,-2.55462,0.724327,0.0814549,-8.87246,0.0151712,
2,0,0,1,0,3134.8,0.0140325,0.0137253,-2.78012,2,0.00159528,10,-3.8158e-05,-2.55594,0.805537,0.0732431,-7.9343,0.0137253,
2,0,0,1,0,3134.83,0.0125325,0.0122275,-2.76889,2,0.00149057,10,-3.38566e-05,-2.55769,0.73431,0.0803475,-8.66456,0.0122275,
2,0,0,1,0,3134.87,0.0110361,0.0106857,-2.754,2,0.00138676,10,-2.94284e-05,-2.56004,0.831685,0.0709404,-7.62046,0.0106857,
2,0,0,1,0,3134.91,0.0095397,0.00921817,-2.74558,2,0.00128326,10,-2.53092e-05,-2.56137,2.08334,0.0283199,-3.03055,0.00921817,
2,0,0,1,0,3134.95,0.00803616,0.007698,-2.7401,2,0.00117943,10,-2.10933e-05,-2.56223,2.02819,0.02909,-3.11418,0.007698,
2,0,0,1,0,3134.98,0.00654064,0.00624736,-2.73076,2,0.00107637,10,-1.706e-05,-2.56372,2.32632,0.025362,-2.71083,0.00624736,
2,0,0,1,0,3135.02,0.00504513,0.0047381,-2.72128,2,0.000973529,10,-1.28937e-05,-2.56523,5.16301,0.0114274,-1.22014,0.0047381,
2,0,0,1,0,3135.06,0.00354515,0.0032358,-2.72524,2,0.000870532,10,-8.81833e-06,-2.5646,-0.726923,-0.0811641,8.70071,0.0032358,
2,0,0,1,0,3135.1,0.00204518,0.00166998,-2.78037,2,0.000767111,10,-4.64316e-06,-2.5559,-1.91416,-0.0308229,3.28587,0.00166998,
2,0,0,1,0,3135.13,0.000548773,0.000199066,-2.75008,2,0.000663135,10,-5.47448e-07,-2.56066, , , ,0.000199066,
2,0,0,1,0,3135.14,0.000177222,-0.000141322,-2.73794,2,0.000637408,10,3.86931e-07,-2.56258, , , ,-0.000141322,