File: Figure_codes/Fig_3-5/rawdata_trumpetplot_data/after 10th/20221101_1-115_003_TrumpetPlot_ParaChange_from10_every3_14_CV_C01_17.csv
mode,ox/red,error,control changes,counter inc.,time/s,control/V,Ewe/V,<I>/mA,cycle number,(Q-Qo)/C,I Range,P/W,log(|I|),Tafel slope mV/dec,alpha_eff,dI/d(E-IR),E-IR/V,
2,1,0,1,0,34691.3,2.44065e-05,-0.000268062,34.9072,18,0.0000000E+000,10,-9.35727e-06,-1.45709, , , ,-0.000268062,
2,1,0,1,0,34691.3,0.00332042,0.00293118,36.2504,18,0.000110886,10,0.000106257,-1.44069, , , ,0.00293118,
2,1,0,1,0,34691.3,0.0073156,0.0069427,37.3129,18,0.000258171,10,0.000259052,-1.42814, , , ,0.006942702,
2,1,0,1,0,34691.3,0.0113108,0.0109489,38.2422,18,0.000409413,10,0.00041871,-1.41746,0.38941,0.151511,224.821,0.0109489,
2,1,0,1,0,34691.3,0.0153059,0.0149541,39.0849,18,0.000564153,10,0.000584478,-1.40799,0.432743,0.13634,207.246,0.0149541,
2,1,0,1,0,34691.3,0.0193011,0.018938,39.8491,18,0.000722112,10,0.000754662,-1.39958,0.479151,0.123134,191.047,0.018938,
2,1,0,1,0,34691.3,0.0233462,0.0229623,40.6329,18,0.000883201,10,0.000933023,-1.39112,0.519784,0.113509,179.425,0.0229623,
2,1,0,1,0,34691.4,0.0273414,0.0269982,41.3083,18,0.00104714,10,0.00111525,-1.38396,0.559689,0.105416,169.471,0.0269982,
2,1,0,1,0,34691.4,0.0313366,0.0309535,41.9556,18,0.00121375,10,0.00129867,-1.37721,0.613472,0.096174,157.18,0.0309535,
2,1,0,1,0,34691.4,0.0353317,0.0349777,42.5673,18,0.00138285,10,0.00148891,-1.37092,0.649986,0.0907711,150.561,0.03497773,
2,1,0,1,0,34691.4,0.0393269,0.0389521,43.1461,18,0.00155434,10,0.00168063,-1.36506,0.689109,0.0856178,144.01,0.0389521,
2,1,0,1,0,34691.4,0.0433221,0.0429944,43.7167,18,0.00172814,10,0.00187958,-1.35935,0.72559,0.0813131,138.568,0.0429944,
2,1,0,1,0,34691.4,0.0473173,0.0469741,44.2627,18,0.00190414,10,0.0020792,-1.35396,0.756438,0.0779972,134.584,0.0469741,
2,1,0,1,0,34691.4,0.0513124,0.0509623,44.7823,18,0.00208231,10,0.00228221,-1.34889,0.793423,0.0743614,129.846,0.0509623,
2,1,0,1,0,34691.4,0.0553076,0.0549378,45.2976,18,0.00226252,10,0.00248855,-1.34393,0.811102,0.0727405,128.56,0.0549378,
2,1,0,1,0,34691.4,0.0593028,0.0589143,45.7839,18,0.00244473,10,0.00269732,-1.33929,0.841859,0.070083,125.214,0.0589143,
2,1,0,1,0,34691.4,0.0633479,0.0630159,46.325,18,0.00262896,10,0.00291922,-1.33418,0.870852,0.0677497,122.34,0.0630159,
2,1,0,1,0,34691.4,0.0673431,0.0670179,46.7927,18,0.00281523,10,0.00313595,-1.32982,0.884594,0.0666973,121.695,0.0670179,
2,1,0,1,0,34691.4,0.0713382,0.0709457,47.256,18,0.00300338,10,0.00335261,-1.32554,0.925415,0.0637552,117.579,0.0709457,
2,1,0,1,0,34691.4,0.0753334,0.074936,47.7336,18,0.0031934,10,0.00357697,-1.32118,0.933737,0.0631869,117.69,0.074936,
2,1,0,1,0,34691.4,0.0793286,0.0789422,48.1976,18,0.00338529,10,0.00380482,-1.31697,0.924464,0.0638208,120.079,0.07894218,
2,1,0,1,0,34691.4,0.0833238,0.0829717,48.6703,18,0.00357907,10,0.00403826,-1.31274,0.930743,0.0633902,120.46,0.0829717,
2,1,0,1,0,34691.4,0.0873189,0.0869525,49.1781,18,0.00377481,10,0.00427615,-1.30823,0.925572,0.0637444,122.323,0.0869525,
2,1,0,1,0,34691.4,0.0913141,0.0909523,49.663,18,0.00397253,10,0.00451696,-1.30397,0.925505,0.063749,123.531,0.0909523,
2,1,0,1,0,34691.4,0.0953093,0.0949543,50.1563,18,0.00417222,10,0.00476255,-1.29967,0.936346,0.0630109,123.348,0.0949543,
2,1,0,1,0,34691.4,0.0993045,0.0989775,50.6475,18,0.00437386,10,0.00501296,-1.29544,0.92802,0.0635762,125.689,0.0989775,
2,1,0,1,0,34691.4,0.103319,0.102969,51.1536,18,0.0045775,10,0.00526723,-1.29112,0.89975,0.0655738,131.021,0.102969,
2,1,0,1,0,34691.4,0.107345,0.106871,51.6638,18,0.00478322,10,0.00552137,-1.28681,0.87883,0.0671347,135.518,0.106871,
2,1,0,1,0,34691.4,0.11134,0.110952,52.2522,18,0.00499112,10,0.00579747,-1.2819,0.857159,0.0688321,140.411,0.110952,
2,1,0,1,0,34691.4,0.115335,0.114968,52.8145,18,0.0052013,10,0.006072,-1.27725,0.85183,0.0692626,142.736,0.114968,
2,1,0,1,0,34691.4,0.11933,0.118975,53.401,18,0.00541379,10,0.00635337,-1.27245,0.859901,0.0686126,142.963,0.118975,
2,1,0,1,0,34691.4,0.123325,0.12297,53.9617,18,0.00562855,10,0.00663568,-1.26791,0.853257,0.0691468,145.643,0.12297,
2,1,0,1,0,34691.5,0.127321,0.126975,54.5431,18,0.00584561,10,0.00692563,-1.26326,0.854229,0.0690682,147.09,0.126975,
2,1,0,1,0,34691.5,0.131316,0.130954,55.1427,18,0.00606504,10,0.00722117,-1.25851,0.837987,0.0704068,151.582,0.130954,
2,1,0,1,0,34691.5,0.135311,0.134963,55.7528,18,0.0062869,10,0.00752459,-1.25373,0.820031,0.0719485,156.641,0.134963,
2,1,0,1,0,34691.5,0.139306,0.138975,56.3877,18,0.00651125,10,0.00783648,-1.24882,0.791753,0.0745182,164.159,0.138975,
2,1,0,1,0,34691.5,0.143301,0.142955,57.0461,18,0.00673817,10,0.008155,-1.24377,0.77325,0.0763013,170.041,0.142955,
2,1,0,1,0,34691.5,0.147346,0.146967,57.7714,18,0.00696791,10,0.00849051,-1.23829,0.758971,0.0777368,175.277,0.146967,
2,1,0,1,0,34691.5,0.151342,0.150971,58.4748,18,0.00720046,10,0.00882802,-1.23303,0.751167,0.0785444,179.23,0.150971,
2,1,0,1,0,34691.5,0.155337,0.154926,59.1835,18,0.00743583,10,0.00916904,-1.2278,0.756301,0.0780112,180.243,0.1549256,
2,1,0,1,0,34691.5,0.159332,0.158972,59.9169,18,0.00767412,10,0.00952511,-1.22245,0.753774,0.0782728,183.053,0.158972,
2,1,0,1,0,34691.5,0.163327,0.162971,60.656,18,0.00791534,10,0.00988516,-1.21713,0.754799,0.0781665,185.021,0.162971,
2,1,0,1,0,34691.5,0.167322,0.166937,61.3974,18,0.00815951,10,0.0102495,-1.21185,0.767165,0.0769065,184.22,0.166937,
2,1,0,1,0,34691.5,0.171317,0.170918,62.1424,18,0.00840668,10,0.0106212,-1.20661,0.792275,0.0744691,180.443,0.170918,
2,1,0,1,0,34691.5,0.175313,0.174958,62.8617,18,0.00865675,10,0.0109981,-1.20161,0.820593,0.0718992,176.209,0.174958,
2,1,0,1,0,34691.5,0.179308,0.178955,63.5403,18,0.00890963,10,0.0113709,-1.19695,0.853111,0.0691586,171.426,0.178955,
2,1,0,1,0,34691.5,0.183303,0.182947,64.2185,18,0.00916522,10,0.0117486,-1.19234,0.900022,0.065554,164.157,0.182947,
2,1,0,1,0,34691.5,0.187348,0.187033,64.9049,18,0.00942347,10,0.0121393,-1.18772,0.955288,0.0617615,156.145,0.187033,
2,1,0,1,0,34691.5,0.191343,0.190944,65.4861,18,0.00968434,10,0.0125042,-1.18385,1.05701,0.0558176,142.362,0.190944,
2,1,0,1,0,34691.5,0.195338,0.194949,66.0375,18,0.00994744,10,0.0128739,-1.18021,1.21307,0.0486369,125.087,0.194949,
2,1,0,1,0,34691.5,0.199334,0.198962,66.4984,18,0.0102126,10,0.0132307,-1.17719,1.40371,0.0420316,108.849,0.198962,
2,1,0,1,0,34691.5,0.203329,0.203015,66.9041,18,0.0104794,10,0.0135825,-1.17455,1.73442,0.0340171,88.6109,0.203015,
2,1,0,1,0,34691.5,0.207324,0.207019,67.2358,18,0.0107477,10,0.0139191,-1.1724,2.2719,0.0259695,67.9457,0.207019,
2,1,0,1,0,34691.5,0.211319,0.210999,67.4598,18,0.0110172,10,0.0142339,-1.17096,3.59967,0.0163904,43.0157,0.210999,
2,1,0,1,0,34691.5,0.215314,0.214952,67.5849,18,0.0112873,10,0.0145275,-1.17015,9.10056,0.00648312,17.0461,0.214952,
2,1,0,1,0,34691.5,0.219309,0.218992,67.5914,18,0.0115577,10,0.014802,-1.17011,-18.4566,-0.00319668,-8.40767,0.218992,
2,1,0,1,0,34691.5,0.223305,0.222978,67.5078,18,0.0118279,10,0.0150528,-1.17065,-4.65226,-0.012682,-33.3178,0.222978,
2,1,0,1,0,34691.6,0.227314,0.226956,67.3256,18,0.0120976,10,0.0152799,-1.17182,-2.60565,-0.0226431,-59.309,0.226956,
2,1,0,1,0,34691.6,0.231345,0.231006,67.05,18,0.0123664,10,0.0154889,-1.1736,-1.78013,-0.0331436,-86.4201,0.231006,
2,1,0,1,0,34691.6,0.23534,0.235014,66.6411,18,0.0126338,10,0.0156616,-1.17626,-1.33686,-0.0441332,-114.375,0.235014,
2,1,0,1,0,34691.6,0.239335,0.239036,66.1201,18,0.0128992,10,0.0158051,-1.17967,-1.07197,-0.0550389,-141.578,0.239036,
2,1,0,1,0,34691.6,0.24333,0.242975,65.4934,18,0.0131624,10,0.0159133,-1.1838,-0.902187,-0.0653966,-166.657,0.2429754,
2,1,0,1,0,34691.6,0.247326,0.246995,64.7862,18,0.013423,10,0.0160019,-1.18852,-0.781878,-0.0754594,-190.215,0.246995,
2,1,0,1,0,34691.6,0.251321,0.251013,63.9747,18,0.0136804,10,0.0160585,-1.19399,-0.696896,-0.0846611,-210.77,0.251013,
2,1,0,1,0,34691.6,0.255316,0.254994,63.0846,18,0.0139345,10,0.0160862,-1.20008,-0.624808,-0.0944289,-231.839,0.254994,
2,1,0,1,0,34691.6,0.259311,0.258985,62.1189,18,0.0141848,10,0.0160879,-1.20678,-0.570709,-0.10338,-249.968,0.2589854,
2,1,0,1,0,34691.6,0.263306,0.263027,61.0696,18,0.0144311,10,0.0160629,-1.21418,-0.537622,-0.109742,-261.123,0.2630266,
2,1,0,1,0,34691.6,0.267302,0.266994,59.9801,18,0.0146731,10,0.0160143,-1.22199,-0.50273,-0.117359,-274.324,0.266994,
2,1,0,1,0,34691.6,0.271347,0.271017,58.9007,18,0.0149107,10,0.0159631,-1.22988,-0.47866,-0.123261,-282.746,0.271017,
2,1,0,1,0,34691.6,0.275342,0.27501,57.7229,18,0.0151439,10,0.0158744,-1.23865,-0.460226,-0.128198,-288.366,0.27501,
2,1,0,1,0,34691.6,0.279337,0.279037,56.5428,18,0.0153723,10,0.0157775,-1.24762,-0.440386,-0.133974,-295.443,0.279037,
2,1,0,1,0,34691.6,0.283332,0.283032,55.3552,18,0.015596,10,0.0156673,-1.25684,-0.4339,-0.135976,-293.666,0.283032,
2,1,0,1,0,34691.6,0.287327,0.287008,54.1763,18,0.0158149,10,0.015549,-1.26619,-0.428081,-0.137824,-291.417,0.287008,
2,1,0,1,0,34691.6,0.291322,0.291022,53.0207,18,0.0160292,10,0.0154302,-1.27555,-0.425618,-0.138622,-287.119,0.291022,
2,1,0,1,0,34691.6,0.295318,0.295034,51.8809,18,0.0162389,10,0.0153066,-1.28499,-0.426741,-0.138257,-282.516,0.295034,
2,1,0,1,0,34691.6,0.299013,0.298714,50.8526,18,0.0164289,10,0.0151904,-1.29369,-0.160916,-0.366652,-719.061,0.2987141,
2,1,0,0,0,34691.6,0.300012,0.299727,50.5828,18,0.0164796,10,0.0151611,-1.296,0.00434526,13.578,24317.4,0.299727,
2,1,0,1,0,34691.6,0.298714,0.298588,47.5803,18,0.0165422,10,0.0142069,-1.32257,0.0491894,1.19945,1979.42,0.298588,
2,1,0,1,0,34691.6,0.294718,0.294561,40.379,18,0.0167168,10,0.0118941,-1.39384,0.0578796,1.01936,1564.98,0.294561,
2,1,0,1,0,34691.6,0.290723,0.290574,34.7396,18,0.0168662,10,0.0100944,-1.45918,0.0598781,0.985336,1364.08,0.290574,
2,1,0,1,0,34691.6,0.286728,0.28651,29.8985,18,0.0169948,10,0.00856624,-1.52435,0.0599287,0.984503,1157.94,0.28651,
2,1,0,1,0,34691.6,0.282733,0.282487,25.6169,18,0.0171053,10,0.00723644,-1.59147,0.0580426,1.01649,1018.42,0.282487,
2,1,0,1,0,34691.6,0.278738,0.278511,21.7938,18,0.0171996,10,0.0060698,-1.66167,0.0545166,1.08224,917.863,0.278511,
2,1,0,1,0,34691.6,0.274742,0.274469,18.3386,18,0.0172795,10,0.0050334,-1.73663,0.0503076,1.17279,831.062,0.274469,
2,1,0,1,0,34691.7,0.270747,0.270505,15.2074,18,0.0173462,10,0.00411368,-1.81794,0.0456405,1.29271,753.746,0.270505,
2,1,0,1,0,34691.7,0.266702,0.266474,12.309,18,0.0174008,10,0.00328002,-1.90978,0.0399248,1.47778,691.118,0.266474,
2,1,0,1,0,34691.7,0.262707,0.262467,9.70073,18,0.0174445,10,0.00254612,-2.0132,0.0337536,1.74796,630.41,0.262467,
2,1,0,1,0,34691.7,0.258712,0.258497,7.29949,18,0.0174782,10,0.00188689,-2.13671,0.0264057,2.23437,578.326,0.258497,
2,1,0,1,0,34691.7,0.254717,0.25445,5.08646,18,0.0175027,10,0.00129425,-2.29358,0.0174661,3.37798,531.403,0.25445,
2,1,0,1,0,34691.7,0.250722,0.250455,3.04501,18,0.0175187,10,0.000762638,-2.51641,0.0148098,3.98384,492.366,0.250455,
2,1,0,1,0,34691.7,0.246726,0.24641,1.16815,18,0.0175269,10,0.000287843,-2.9325,0.0445876,1.32324,457.179,0.24641,
2,0,0,1,0,34691.7,0.242731,0.242448,-0.602107,18,0.0175278,10,-0.00014598,-3.22033,-0.177885,-0.331675,424.136,0.242448,
2,0,0,1,0,34691.7,0.238736,0.238454,-2.22667,18,0.017522,10,-0.000530959,-2.65234,-0.0247112,-2.38758,396.968,0.238454,
2,0,0,1,0,34691.7,0.234741,0.234443,-3.74629,18,0.0175099,10,-0.000878294,-2.4264,-0.0154631,-3.81553,370.618,0.234443,
2,0,0,1,0,34691.7,0.230746,0.230462,-5.16291,18,0.0174919,10,-0.00118985,-2.28711,-0.0294945,-2.00038,346.349,0.230462,
2,0,0,1,0,34691.7,0.226701,0.226432,-6.53805,18,0.0174684,10,-0.00148042,-2.18455,-0.0423931,-1.39173,324.418,0.226432,
2,0,0,1,0,34691.7,0.222705,0.222441,-7.77284,18,0.0174396,10,-0.00172899,-2.10942,-0.0554859,-1.06333,304.295,0.222441,
2,0,0,1,0,34691.7,0.21871,0.218422,-8.94402,18,0.0174061,10,-0.00195357,-2.04847,-0.0700595,-0.842141,282.945,0.2184217,
2,0,0,1,0,34691.7,0.214715,0.214438,-10.0389,18,0.017368,10,-0.00215271,-1.99831,-0.0838883,-0.703316,267.963,0.214438,
2,0,0,1,0,34691.7,0.21072,0.21039,-11.077,18,0.0173256,10,-0.0023305,-1.95558,-0.0984214,-0.599463,253.785,0.21039,
2,0,0,1,0,34691.7,0.206725,0.20642,-12.0658,18,0.0172792,10,-0.00249062,-1.91845,-0.113215,-0.521135,241.341,0.20642,
2,0,0,1,0,34691.7,0.202729,0.202423,-13.0042,18,0.017229,10,-0.00263235,-1.88592,-0.128193,-0.460244,230.42,0.202423,
2,0,0,1,0,34691.7,0.198734,0.198426,-13.9033,18,0.0171751,10,-0.00275876,-1.85688,-0.144302,-0.408865,219.269,0.198426,
2,0,0,1,0,34691.7,0.194739,0.194428,-14.7551,18,0.0171177,10,-0.00286879,-1.83106,-0.159408,-0.370119,211.214,0.194428,
2,0,0,1,0,34691.7,0.190744,0.190459,-15.5656,18,0.017057,10,-0.0029646,-1.80784,-0.174964,-0.337212,203.64,0.190459,
2,0,0,1,0,34691.7,0.186735,0.18649,-16.3696,18,0.016993,10,-0.00305276,-1.78596,-0.190693,-0.309397,196.563,0.18649,
2,0,0,1,0,34691.7,0.182704,0.182441,-17.1584,18,0.0169258,10,-0.00313039,-1.76552,-0.20546,-0.28716,191.134,0.182441,
2,0,0,1,0,34691.7,0.178709,0.178408,-17.9039,18,0.0168556,10,-0.00319421,-1.74705,-0.222135,-0.265605,184.657,0.178408,
2,0,0,1,0,34691.7,0.174713,0.174393,-18.6364,18,0.0167825,10,-0.00325004,-1.72964,-0.236398,-0.249579,180.879,0.174393,
2,0,0,1,0,34691.8,0.170718,0.170396,-19.3414,18,0.0167064,10,-0.0032957,-1.71351,-0.247835,-0.238062,179.34,0.170396,
2,0,0,1,0,34691.8,0.166723,0.166413,-20.0575,18,0.0166275,10,-0.00333783,-1.69772,-0.257337,-0.229271,179.278,0.166413,
2,0,0,1,0,34691.8,0.162728,0.16241,-20.773,18,0.0165458,10,-0.00337375,-1.6825,-0.26186,-0.225311,182.585,0.16241,
2,0,0,1,0,34691.8,0.158733,0.158396,-21.5041,18,0.0164612,10,-0.00340618,-1.66748,-0.26737,-0.220668,185.156,0.158396,
2,0,0,1,0,34691.8,0.154737,0.154436,-22.2555,18,0.0163736,10,-0.00343704,-1.65256,-0.268291,-0.219911,191.051,0.154436,
2,0,0,1,0,34691.8,0.150742,0.150469,-23.0097,18,0.016283,10,-0.00346224,-1.63809,-0.263685,-0.223752,201.502,0.150469,
2,0,0,1,0,34691.8,0.146747,0.146473,-23.8178,18,0.0161893,10,-0.00348867,-1.6231,-0.26141,-0.225699,210.52,0.146473,
2,0,0,1,0,34691.8,0.142702,0.14243,-24.7214,18,0.0160921,10,-0.00352107,-1.60693,-0.255126,-0.231258,223.467,0.14243,
2,0,0,1,0,34691.8,0.138707,0.138435,-25.6239,18,0.0159913,10,-0.00354725,-1.59135,-0.249563,-0.236414,236.887,0.138435,
2,0,0,1,0,34691.8,0.134712,0.134415,-26.5971,18,0.0158868,10,-0.00357506,-1.57517,-0.243765,-0.242036,252.068,0.134415,
2,0,0,1,0,34691.8,0.130717,0.130398,-27.6257,18,0.0157783,10,-0.00360235,-1.55869,-0.235122,-0.250934,271.667,0.130398,
2,0,0,1,0,34691.8,0.126721,0.126445,-28.7506,18,0.0156654,10,-0.00363538,-1.54135,-0.22738,-0.259478,292.364,0.126445,
2,0,0,1,0,34691.8,0.122726,0.122436,-29.9704,18,0.0155479,10,-0.00366945,-1.52331,-0.220209,-0.267927,314.408,0.122436,
2,0,0,1,0,34691.8,0.118731,0.11843,-31.2707,18,0.0154253,10,-0.00370338,-1.50486,-0.21694,-0.271964,332.581,0.11843,
2,0,0,1,0,34691.8,0.114736,0.114414,-32.6514,18,0.0152973,10,-0.00373577,-1.4861,-0.215918,-0.273252,348.4,0.114414,
2,0,0,1,0,34691.8,0.110741,0.110455,-34.0685,18,0.0151638,10,-0.00376305,-1.46765,-0.216388,-0.272658,362.722,0.110455,
2,0,0,1,0,34691.8,0.106745,0.106486,-35.5273,18,0.0150244,10,-0.00378316,-1.44944,-0.221851,-0.265944,368.616,0.106486,
2,0,0,1,0,34691.8,0.102703,0.102447,-37.0679,18,0.0148791,10,-0.0037975,-1.431,-0.228977,-0.257668,371.783,0.102447,
2,0,0,1,0,34691.8,0.0987052,0.0984314,-38.5427,18,0.0147278,10,-0.00379382,-1.41406,-0.237936,-0.247966,372.005,0.0984314,
2,0,0,1,0,34691.8,0.09471,0.0944082,-40.0346,18,0.0145705,10,-0.0037796,-1.39756,-0.250649,-0.235389,366.821,0.0944082,
2,0,0,1,0,34691.8,0.0907148,0.0904052,-41.5095,18,0.0144073,10,-0.00375267,-1.38185,-0.263199,-0.224165,361.918,0.0904052,
2,0,0,1,0,34691.8,0.0867197,0.0864477,-42.9369,18,0.0142382,10,-0.00371179,-1.36717,-0.278666,-0.211723,353.569,0.0864477,
2,0,0,1,0,34691.8,0.0827245,0.0824383,-44.3309,18,0.0140635,10,-0.00365457,-1.35329,-0.296457,-0.199017,343.204,0.0824383,
2,0,0,1,0,34691.8,0.0787293,0.0784724,-45.669,18,0.0138834,10,-0.00358376,-1.34038,-0.319056,-0.18492,328.414,0.0784724,
2,0,0,1,0,34691.8,0.0747341,0.0744715,-46.978,18,0.013698,10,-0.00349852,-1.32811,-0.345729,-0.170654,311.423,0.0744715,
2,0,0,1,0,34691.9,0.070739,0.0704929,-48.1767,18,0.0135075,10,-0.00339611,-1.31716,-0.37063,-0.159188,298.253,0.0704929,
2,0,0,1,0,34691.9,0.0667438,0.0665609,-49.2755,18,0.0133125,10,-0.00327982,-1.30737,-0.399346,-0.147742,283.744,0.0665609,
2,0,0,1,0,34691.9,0.0627403,0.0625271,-50.4247,18,0.013113,10,-0.00315291,-1.29736,-0.432109,-0.13654,268,0.0625271,
2,0,0,1,0,34691.9,0.0587035,0.058488,-51.5132,18,0.0129089,10,-0.0030129,-1.28808,-0.46571,-0.126688,253.582,0.058488,
2,0,0,1,0,34691.9,0.0547083,0.0544669,-52.4716,18,0.0127008,10,-0.00285797,-1.28008,-0.517135,-0.11409,232.726,0.0544669,
2,0,0,1,0,34691.9,0.0507132,0.0504724,-53.3553,18,0.0124891,10,-0.00269297,-1.27282,-0.580379,-0.101658,210.984,0.0504724,
2,0,0,1,0,34691.9,0.046718,0.046498,-54.1551,18,0.0122739,10,-0.0025181,-1.26636,-0.64359,-0.0916732,193.214,0.046498,
2,0,0,1,0,34691.9,0.0427228,0.0425225,-54.8817,18,0.0120558,10,-0.00233371,-1.26057,-0.708747,-0.0832455,177.917,0.04252252,
2,0,0,1,0,34691.9,0.0387276,0.0384431,-55.5676,18,0.0118348,10,-0.00213619,-1.25518,-0.779249,-0.0757139,163.862,0.0384431,
2,0,0,1,0,34691.9,0.0347325,0.0345016,-56.1968,18,0.0116112,10,-0.00193888,-1.25029,-0.850132,-0.069401,151.928,0.0345016,
2,0,0,1,0,34691.9,0.0307373,0.0305102,-56.7749,18,0.0113852,10,-0.00173222,-1.24584,-0.936424,-0.0630057,139.357,0.0305102,
2,0,0,1,0,34691.9,0.0267421,0.0264616,-57.3218,18,0.0111569,10,-0.00151683,-1.24168,-1.01784,-0.0579661,129.473,0.0264616,
2,0,0,1,0,34691.9,0.022747,0.0224543,-57.7958,18,0.0109266,10,-0.00129777,-1.2381,-1.14117,-0.0517011,116.443,0.0224543,
2,0,0,1,0,34691.9,0.0187018,0.0184057,-58.2808,18,0.0106944,10,-0.0010727,-1.23447,-1.30895,-0.0450743,102.273,0.0184057,
2,0,0,1,0,34691.9,0.0147067,0.0143655,-58.6549,18,0.0104605,10,-0.000842609,-1.2317,-1.48949,-0.039611,90.4645,0.0143655,
2,0,0,1,0,34691.9,0.0107115,0.0104039,-58.964,18,0.0102252,10,-0.000613454,-1.22941,-1.78129,-0.033122,76.1196,0.0104039,
2,0,0,1,0,34691.9,0.00671632,0.00639341,-59.2487,18,0.00998876,10,-0.000378801,-1.22732,-2.03446,-0.0290003,66.9893,0.00639341,
2,0,0,1,0,34691.9,0.00272115,0.00243279,-59.4966,18,0.00975126,10,-0.000144743,-1.22551,-2.3736,-0.0248567,57.6459,0.00243279,
2,0,0,1,0,34691.9,-0.00127403,-0.00162432,-59.726,18,0.00951273,10,9.70143e-05,-1.22384,-2.98249,-0.0197821,46.0262,-0.00162432,
2,0,0,1,0,34691.9,-0.0052692,-0.00559343,-59.8862,18,0.00927349,10,0.000334969,-1.22267,-3.9417,-0.0149681,34.9187,-0.00559343,
2,0,0,1,0,34691.9,-0.00926438,-0.00963358,-59.9864,18,0.00903373,10,0.000577884,-1.22195,-5.9588,-0.00990133,23.1506,-0.00963358,
2,0,0,1,0,34691.9,-0.0132596,-0.013591,-60.0561,18,0.00879362,10,0.000816224,-1.22144,-8.83256,-0.00667983,15.6446,-0.013591,
2,0,0,1,0,34691.9,-0.0172547,-0.017611,-60.0961,18,0.00855331,10,0.00105835,-1.22115,-20.4851,-0.00288014,6.74873,-0.017611,
2,0,0,1,0,34691.9,-0.0212915,-0.0216543,-60.1375,18,0.00831288,10,0.00130224,-1.22085,31.0074,0.00190277,-4.45706,-0.0216543,
2,0,0,1,0,34691.9,-0.025295,-0.025686,-60.0947,18,0.00807242,10,0.00154359,-1.22116,9.21692,0.00640127,-14.9832,-0.025686,
2,0,0,1,0,34692,-0.0292902,-0.0296445,-59.9846,18,0.00783228,10,0.00177821,-1.22196,5.05572,0.0116699,-27.2896,-0.0296445,
2,0,0,1,0,34692,-0.0332854,-0.0336783,-59.8554,18,0.00759259,10,0.00201583,-1.2229,3.78241,0.0155985,-36.4059,-0.0336783,
2,0,0,1,0,34692,-0.0372805,-0.0376506,-59.701,18,0.0073535,10,0.00224778,-1.22402,3.20222,0.0184247,-42.8853,-0.0376506,
2,0,0,1,0,34692,-0.0412757,-0.0416706,-59.5128,18,0.00711509,10,0.00247993,-1.22539,2.75627,0.0214058,-49.6713,-0.0416706,
2,0,0,1,0,34692,-0.0452709,-0.0456482,-59.2983,18,0.00687748,10,0.00270686,-1.22696,2.43144,0.0242654,-56.1121,-0.04564818,
2,0,0,1,0,34692,-0.0492661,-0.0496374,-59.0627,18,0.00664079,10,0.00293172,-1.22869,2.25847,0.0261239,-60.1848,-0.0496374,
2,0,0,1,0,34692,-0.0532612,-0.0536065,-58.8056,18,0.00640506,10,0.00315237,-1.23058,2.15265,0.027408,-62.8894,-0.0536065,
2,0,0,1,0,34692,-0.0572564,-0.0576159,-58.5531,18,0.00617037,10,0.00337359,-1.23245,2.17688,0.027103,-61.948,-0.0576159,
2,0,0,1,0,34692,-0.0612544,-0.0616275,-58.2933,18,0.00593672,10,0.00359247,-1.23438,2.12523,0.0277617,-63.1625,-0.0616275,
2,0,0,1,0,34692,-0.0652967,-0.0656262,-58.0722,18,0.00570395,10,0.00381106,-1.23603,2.08493,0.0282983,-64.0958,-0.0656262,
2,0,0,1,0,34692,-0.0692919,-0.0696505,-57.7923,18,0.00547225,10,0.00402526,-1.23813,2.09671,0.0281393,-63.4575,-0.0696505,
2,0,0,1,0,34692,-0.0732871,-0.0736726,-57.524,18,0.00524165,10,0.00423794,-1.24015,2.05466,0.0287153,-64.4992,-0.0736726,
2,0,0,1,0,34692,-0.0772822,-0.0776385,-57.2773,18,0.00501209,10,0.00444693,-1.24202,2.15541,0.027373,-61.2146,-0.0776385,
2,0,0,1,0,34692,-0.0812774,-0.0816363,-57.0395,18,0.0047835,10,0.0046565,-1.24382,2.29516,0.0257063,-57.2506,-0.0816363,
2,0,0,1,0,34692,-0.0852726,-0.0856266,-56.8143,18,0.00455581,10,0.00486481,-1.24554,2.42983,0.0242815,-53.8691,-0.08562658,
2,0,0,1,0,34692,-0.0892678,-0.0896328,-56.6102,18,0.004329,10,0.00507413,-1.24711,2.62964,0.0224365,-49.598,-0.0896328,
2,0,0,1,0,34692,-0.0932629,-0.0936083,-56.417,18,0.00410297,10,0.0052811,-1.24859,2.97166,0.0198542,-43.7512,-0.0936083,
2,0,0,1,0,34692,-0.0972581,-0.0975954,-56.248,18,0.00387765,10,0.00548955,-1.24989,3.681,0.0160283,-35.2343,-0.0975954,
2,0,0,1,0,34692,-0.101253,-0.101595,-56.1156,18,0.00365294,10,0.00570108,-1.25092,4.17898,0.0141183,-30.9484,-0.101595,
2,0,0,1,0,34692,-0.105298,-0.105691,-56.0444,18,0.00342865,10,0.00592337,-1.25147,4.98518,0.0118351,-25.8841,-0.105691,
2,0,0,1,0,34692,-0.109294,-0.109654,-55.9204,18,0.00320474,10,0.00613192,-1.25243,5.90173,0.00999707,-21.8254,-0.109654,
2,0,0,1,0,34692,-0.113289,-0.113648,-55.8325,18,0.00298126,10,0.00634524,-1.25311,6.48175,0.00910247,-19.8531,-0.113648,
2,0,0,1,0,34692,-0.117284,-0.117648,-55.7653,18,0.00275808,10,0.00656066,-1.25364,9.75941,0.00604545,-13.1687,-0.117648,
2,0,0,1,0,34692,-0.121279,-0.121617,-55.7283,18,0.00253511,10,0.00677749,-1.25392,15.162,0.00389132,-8.46878,-0.121617,
2,0,0,1,0,34692,-0.125274,-0.125652,-55.7098,18,0.00231226,10,0.00700003,-1.25407,50.8969,0.00115921,-2.52192,-0.125652,
2,0,0,1,0,34692.1,-0.129269,-0.129621,-55.6972,18,0.00208944,10,0.00721952,-1.25417,-66.9086,-0.0008818,1.91835,-0.129621,
2,0,0,1,0,34692.1,-0.133265,-0.133661,-55.7249,18,0.0018666,10,0.00744824,-1.25395,-18.4149,-0.00320393,6.97286,-0.1336609,
2,0,0,1,0,34692.1,-0.13726,-0.137605,-55.7589,18,0.00164365,10,0.00767268,-1.25369,-8.28235,-0.00712358,15.519,-0.137605,
2,0,0,1,0,34692.1,-0.141255,-0.141604,-55.821,18,0.00142047,10,0.0079045,-1.2532,-6.82596,-0.00864348,18.8484,-0.141604,
2,0,0,1,0,34692.1,-0.145286,-0.145659,-55.9461,18,0.001197,10,0.00814908,-1.25223,-5.69101,-0.0103672,22.6336,-0.1456594,
2,0,0,1,0,34692.1,-0.149295,-0.149654,-56.0263,18,0.000973043,10,0.00838456,-1.25161,-5.01944,-0.0117543,25.7013,-0.149654,
2,0,0,1,0,34692.1,-0.15329,-0.153671,-56.1226,18,0.000748735,10,0.0086244,-1.25086,-5.08533,-0.011602,25.4236,-0.153671,
2,0,0,1,0,34692.1,-0.157286,-0.157629,-56.2329,18,0.000524039,10,0.00886395,-1.25001,-4.43061,-0.0133164,29.238,-0.157629,
2,0,0,1,0,34692.1,-0.161281,-0.161616,-56.3518,18,0.000298846,10,0.00910738,-1.24909,-4.13166,-0.01428,31.4164,-0.161616,
2,0,0,1,0,34692.1,-0.165276,-0.165624,-56.4933,18,7.31558e-05,10,0.00935662,-1.248,-3.88708,-0.0151785,33.4686,-0.165624,
2,0,0,1,0,34692.1,-0.169271,-0.169597,-56.6229,18,-0.000153094,10,0.00960308,-1.24701,-3.66591,-0.0160942,35.5731,-0.169597,
2,0,0,1,0,34692.1,-0.173266,-0.173592,-56.7671,18,-0.000379888,10,0.00985429,-1.2459,-3.58386,-0.0164627,36.4826,-0.1735916,
2,0,0,1,0,34692.1,-0.177261,-0.177582,-56.9198,18,-0.000607262,10,0.0101079,-1.24474,-3.44148,-0.0171438,38.0878,-0.177582,
2,0,0,1,0,34692.1,-0.181257,-0.181555,-57.0745,18,-0.000835272,10,0.0103622,-1.24356,-3.18143,-0.0185451,41.3249,-0.181555,
2,0,0,1,0,34692.1,-0.185252,-0.185576,-57.2315,18,-0.0010639,10,0.0106208,-1.24236,-3.19425,-0.0184707,41.2689,-0.1855763,
2,0,0,1,0,34692.1,-0.189297,-0.18962,-57.4295,18,-0.00129329,10,0.0108898,-1.24087,-3.20711,-0.0183966,41.2147,-0.18962,
2,0,0,1,0,34692.1,-0.193292,-0.193621,-57.5817,18,-0.00152335,10,0.011149,-1.23972,-3.14648,-0.0187511,42.1063,-0.193621,
2,0,0,1,0,34692.1,-0.197287,-0.197624,-57.7367,18,-0.00175399,10,0.0114101,-1.23855,-16.5901,-0.00355633,7.9768,-0.1976236,
2,0,0,0,0,34692.1,-0.199984,-0.20017,-57.846,18,-0.00191003,10,0.011579,-1.23773,0.0648349,0.910004,-1920.86,-0.20017,
2,0,0,0,1,34692.1,-0.199984,-0.200494,-57.5162,18,-0.00194458,10,0.0115317,-1.24021,-0.0403334,-1.46281,2909.61,-0.200494,
2,0,0,1,1,34692.1,-0.196688,-0.197185,-50.7357,18,-0.0021096,10,0.0100043,-1.29469,-0.0681456,-0.865794,1631.22,-0.197185,
2,0,0,1,1,34692.1,-0.192693,-0.193159,-44.7472,18,-0.00229959,10,0.00864334,-1.34923,-0.0734356,-0.803425,1430.65,-0.193159,
2,0,0,1,1,34692.1,-0.188698,-0.189122,-39.8254,18,-0.00246805,10,0.00753187,-1.39984,-0.0788029,-0.748703,1182.85,-0.1891223,
2,0,0,1,1,34692.1,-0.184653,-0.185107,-35.502,18,-0.00261816,10,0.00657165,-1.44975,-0.0803863,-0.733956,1027.44,-0.185107,
2,0,0,1,1,34692.1,-0.180657,-0.181101,-31.7117,18,-0.00275211,10,0.00574304,-1.49878,-0.0795279,-0.741878,922.809,-0.181101,
2,0,0,1,1,34692.1,-0.176662,-0.177104,-28.2511,18,-0.00287161,10,0.00500338,-1.54896,-0.077658,-0.759741,837.896,-0.177104,
2,0,0,1,1,34692.2,-0.172667,-0.173118,-25.0561,18,-0.00297783,10,0.00433765,-1.60109,-0.0743553,-0.793488,774.081,-0.173118,
2,0,0,1,1,34692.2,-0.168672,-0.169083,-22.0757,18,-0.00307174,10,0.00373262,-1.65609,-0.069902,-0.844039,723.442,-0.169083,
2,0,0,1,1,34692.2,-0.164677,-0.165072,-19.3039,18,-0.00315418,10,0.00318654,-1.71435,-0.0650367,-0.90718,676.977,-0.165072,
2,0,0,1,1,34692.2,-0.160682,-0.161115,-16.6841,18,-0.00322585,10,0.00268806,-1.7777,-0.059008,-0.999865,641.416,-0.161115,
2,0,0,1,1,34692.2,-0.156686,-0.157092,-14.2069,18,-0.00328736,10,0.00223179,-1.8475,-0.0525147,-1.12349,608.836,-0.157092,
2,0,0,1,1,34692.2,-0.152691,-0.153144,-11.8522,18,-0.0033392,10,0.00181509,-1.9262,-0.0453845,-1.3,579.554,-0.153144,
2,0,0,1,1,34692.2,-0.148696,-0.149118,-9.59065,18,-0.00338182,10,0.00143014,-2.01815,-0.0377417,-1.56326,553.478,-0.149118,
2,0,0,1,1,34692.2,-0.14467,-0.145104,-7.40486,18,-0.00341561,10,0.00107447,-2.13048,-0.0293943,-2.0072,528.394,-0.145104,
2,0,0,1,1,34692.2,-0.140656,-0.141098,-5.35454,18,-0.00344086,10,0.000755512,-2.27128,-0.0197157,-2.99254,505.967,-0.141098,
2,0,0,1,1,34692.2,-0.136661,-0.137092,-3.37075,18,-0.0034581,10,0.000462105,-2.47227,-0.0122412,-4.8198,486.527,-0.137092,
2,0,0,1,1,34692.2,-0.132665,-0.133073,-1.47241,18,-0.00346758,10,0.000195939,-2.83197,-0.0402339,-1.46642,469.175,-0.133073,
2,0,0,1,1,34692.2,-0.12867,-0.12913,0.366923,18,-0.00346958,10,-4.73807e-05,-3.43542,0.275252,0.214349,452.981,-0.12913,
2,1,0,1,1,34692.2,-0.124675,-0.125113,2.14502,18,-0.00346436,10,-0.00026837,-2.66857,0.0276694,2.13232,440.345,-0.125113,
2,1,0,1,1,34692.2,-0.12068,-0.121148,3.85171,18,-0.00345218,10,-0.000466627,-2.41435,0.012391,4.76153,424.107,-0.121148,
2,1,0,1,1,34692.2,-0.116685,-0.117185,5.52383,18,-0.00343324,10,-0.000647312,-2.25776,0.0261412,2.25698,412.775,-0.117185,
2,1,0,1,1,34692.2,-0.112689,-0.113155,7.14204,18,-0.00340775,10,-0.000808156,-2.14618,0.0375234,1.57235,401.471,-0.113155,
2,1,0,1,1,34692.2,-0.108694,-0.109198,8.71417,18,-0.00337587,10,-0.000951573,-2.05977,0.0487412,1.21047,390.546,-0.109198,
2,1,0,1,1,34692.2,-0.104699,-0.105175,10.2644,18,-0.00333774,10,-0.00107956,-1.98867,0.0596935,0.988382,381.241,-0.105175,
2,1,0,1,1,34692.2,-0.100654,-0.101125,11.796,18,-0.00329341,10,-0.00119287,-1.92827,0.0709431,0.831653,371.167,-0.101125,
2,1,0,1,1,34692.2,-0.0966588,-0.0971331,13.2502,18,-0.00324316,10,-0.00128703,-1.87778,0.0824845,0.715286,361.38,-0.0971331,
2,1,0,1,1,34692.2,-0.0926636,-0.0931459,14.6723,18,-0.00318718,10,-0.00136667,-1.8335,0.0945498,0.62401,351.298,-0.0931459,
2,1,0,1,1,34692.2,-0.0886685,-0.089145,16.0573,18,-0.00312557,10,-0.00143143,-1.79433,0.106484,0.554074,342.349,-0.089145,
2,1,0,1,1,34692.2,-0.0846733,-0.0851197,17.4188,18,-0.00305847,10,-0.00148268,-1.75898,0.119152,0.495165,332.411,-0.0851197,
2,1,0,1,1,34692.2,-0.0806781,-0.0811283,18.7294,18,-0.00298605,10,-0.00151948,-1.72748,0.131884,0.447362,323.656,-0.0811283,
2,1,0,1,1,34692.2,-0.0766829,-0.077102,20.0055,18,-0.00290843,10,-0.00154246,-1.69885,0.144795,0.407473,315.513,-0.077102,
2,1,0,1,1,34692.3,-0.0726878,-0.073065,21.2617,18,-0.00282577,10,-0.00155349,-1.6724,0.157822,0.37384,307.839,-0.073065,
2,1,0,1,1,34692.3,-0.0686926,-0.0690874,22.4772,18,-0.00273818,10,-0.00155289,-1.64826,0.170036,0.346985,302.642,-0.0690874,
2,1,0,1,1,34692.3,-0.0646974,-0.0651056,23.6618,18,-0.00264577,10,-0.00154052,-1.62595,0.184148,0.320394,294.325,-0.06510558,
2,1,0,1,1,34692.3,-0.0606523,-0.0610336,24.8685,18,-0.00254862,10,-0.00151781,-1.60435,0.198657,0.296994,286.285,-0.0610336,
2,1,0,1,1,34692.3,-0.0566571,-0.0570603,25.9723,18,-0.00244682,10,-0.00148199,-1.58549,0.213403,0.276473,278.73,-0.0570603,
2,1,0,1,1,34692.3,-0.052662,-0.0530668,27.0636,18,-0.00234065,10,-0.00143618,-1.56761,0.230276,0.256215,269.569,-0.0530668,
2,1,0,1,1,34692.3,-0.0486668,-0.0490669,28.1323,18,-0.00223014,10,-0.00138036,-1.5508,0.245283,0.240539,263.04,-0.0490669,
2,1,0,1,1,34692.3,-0.0446716,-0.045101,29.1634,18,-0.00211542,10,-0.0013153,-1.53516,0.261701,0.225448,255.687,-0.045101,
2,1,0,1,1,34692.3,-0.0406764,-0.0410895,30.1733,18,-0.00199663,10,-0.0012398,-1.52038,0.277484,0.212625,249.591,-0.0410895,
2,1,0,1,1,34692.3,-0.0366813,-0.0370748,31.1526,18,-0.00187389,10,-0.00115497,-1.50651,0.296218,0.199178,241.419,-0.0370748,
2,1,0,1,1,34692.3,-0.0326861,-0.0331227,32.1118,18,-0.00174726,10,-0.00106363,-1.49334,0.313656,0.188104,235.022,-0.0331227,
2,1,0,1,1,34692.3,-0.0286909,-0.0290772,33.0319,18,-0.00161688,10,-0.000960474,-1.48107,0.331134,0.178176,229.119,-0.0290772,
2,1,0,1,1,34692.3,-0.0246957,-0.0251092,33.929,18,-0.00148286,10,-0.000851929,-1.46943,0.352461,0.167394,221.168,-0.0251092,
2,1,0,1,1,34692.3,-0.0206756,-0.0210934,34.8142,18,-0.00134531,10,-0.000734349,-1.45824,0.373221,0.158083,214.19,-0.0210934,
2,1,0,1,1,34692.3,-0.0166554,-0.0170819,35.6595,18,-0.00120424,10,-0.000609131,-1.44782,0.395633,0.149128,206.986,-0.0170819,
2,1,0,1,1,34692.3,-0.0126603,-0.0130735,36.4597,18,-0.0010599,10,-0.000476657,-1.43819,0.421252,0.140059,198.874,-0.0130735,
2,1,0,1,1,34692.3,-0.0086651,-0.00905565,37.2519,18,-0.000912393,10,-0.00033734,-1.42885,0.447246,0.131918,191.216,-0.00905565,
2,1,0,1,1,34692.3,-0.00466992,-0.00507701,37.9994,18,-0.000761811,10,-0.000192923,-1.42022, , , ,-0.00507701,
2,1,0,1,1,34692.3,-0.000974387,-0.00137354,38.6632,18,-0.000619951,10,-5.31053e-05,-1.4127, , , ,-0.00137354,
2,1,0,0,1,34692.3,-0.000175352,-0.000668895,38.7978,18,-0.000588983,10,-2.59517e-05,-1.41119, , , ,-0.000668895,