File: Figure_codes/Fig_3-5/rawdata_trumpetplot_data/after 10th/20221101_1-115_003_TrumpetPlot_ParaChange_from10_every3_05_CV_C01_15.csv
mode,ox/red,error,control changes,counter inc.,time/s,control/V,Ewe/V,<I>/mA,cycle number,(Q-Qo)/C,I Range,P/W,log(|I|),Tafel slope mV/dec,alpha_eff,dI/d(E-IR),E-IR/V,
2,0,0,1,0,30672,2.44065e-05,-0.000439847,-0.751327,16,0.0000000E+000,10,3.30469e-07,-3.12417, , , ,-0.000439847,
2,0,0,1,0,30672,0.00129787,0.000923882,0.0689124,16,-1.36653e-05,10,6.36669e-08,-4.1617, , , ,0.000923882,
2,1,0,1,0,30672.1,0.00279606,0.00249943,0.413969,16,7.57322e-06,10,1.03469e-06,-3.38303,0.00634953,9.29203,176.346,0.002499429,
2,1,0,1,0,30672.2,0.00429425,0.0039488,0.547943,16,4.53554e-05,10,2.16372e-06,-3.26126,0.0138997,4.2447,78.7378,0.0039488,
2,1,0,1,0,30672.3,0.00579244,0.00548983,0.622517,16,9.07602e-05,10,3.41751e-06,-3.20585,0.0298757,1.97485,46.1807,0.00548983,
2,1,0,1,0,30672.3,0.00729063,0.00699872,0.682274,16,0.000141087,10,4.77505e-06,-3.16604,0.0459499,1.28401,33.4046,0.00699872,
2,1,0,1,0,30672.4,0.00878882,0.00846652,0.725561,16,0.00019502,10,6.14298e-06,-3.13933,0.0625261,0.943606,26.3981,0.00846652,
2,1,0,1,0,30672.5,0.010287,0.00997152,0.759295,16,0.00025182,10,7.57133e-06,-3.11959,0.0843677,0.69932,20.5145,0.00997152,
2,1,0,1,0,30672.6,0.0117852,0.0114429,0.788244,16,0.000311067,10,9.01984e-06,-3.10334,0.0963591,0.612293,18.7381,0.0114429,
2,1,0,1,0,30672.6,0.0132847,0.0129606,0.815163,16,0.000372264,10,1.0565e-05,-3.08876,0.105236,0.560647,17.8071,0.0129606,
2,1,0,1,0,30672.7,0.0147802,0.0144381,0.839918,16,0.000435278,10,1.21268e-05,-3.07576,0.113033,0.521972,17.0997,0.01443812,
2,1,0,1,0,30672.8,0.0162798,0.0160026,0.859456,16,0.000500352,10,1.37535e-05,-3.06578,0.138542,0.425862,14.2748,0.0160026,
2,1,0,1,0,30672.9,0.017778,0.0174468,0.884258,16,0.000567065,10,1.54275e-05,-3.05342,0.146889,0.401663,13.8344,0.0174468,
2,1,0,1,0,30672.9,0.0192761,0.0189539,0.90364,16,0.000635087,10,1.71275e-05,-3.044,0.160096,0.368528,12.9809,0.01895389,
2,1,0,1,0,30673,0.0207743,0.0204054,0.923783,16,0.000704703,10,1.88502e-05,-3.03443,0.147128,0.401011,14.4218,0.0204054,
2,1,0,1,0,30673.1,0.0222725,0.0219241,0.94449,16,0.000775891,10,2.07071e-05,-3.0248,0.173364,0.340324,12.5151,0.0219241,
2,1,0,1,0,30673.2,0.0237707,0.0234737,0.964396,16,0.00084861,10,2.26379e-05,-3.01574,0.178243,0.331009,12.4506,0.0234737,
2,1,0,1,0,30673.2,0.0252689,0.0249557,0.97816,16,0.000922627,10,2.44107e-05,-3.00959,0.181526,0.325023,12.4789,0.0249557,
2,1,0,1,0,30673.3,0.0267671,0.0264565,1.00347,16,0.000998087,10,2.65483e-05,-2.9985,0.171161,0.344704,13.4804,0.0264565,
2,1,0,1,0,30673.4,0.0282653,0.0279452,1.02271,16,0.00107512,10,2.85798e-05,-2.99025,0.169616,0.347844,13.8696,0.0279452,
2,1,0,1,0,30673.5,0.0297644,0.0294423,1.04127,16,0.00115377,10,3.06572e-05,-2.98244,0.201237,0.293186,11.9064,0.0294423,
2,1,0,1,0,30673.5,0.0312599,0.0309456,1.05688,16,0.00123358,10,3.27057e-05,-2.97598,0.200863,0.293733,12.1565,0.0309456,
2,1,0,1,0,30673.6,0.0327599,0.032441,1.07872,16,0.00131483,10,3.49948e-05,-2.96709,0.201849,0.292298,12.3195,0.032441,
2,1,0,1,0,30673.7,0.034258,0.0339689,1.09756,16,0.00139754,10,3.72828e-05,-2.95957,0.194524,0.303304,12.9878,0.0339689,
2,1,0,1,0,30673.8,0.0357562,0.0354541,1.11723,16,0.00148184,10,3.96105e-05,-2.95186,0.23625,0.249735,10.8606,0.0354541,
2,1,0,1,0,30673.8,0.0372544,0.0369372,1.13669,16,0.00156753,10,4.1986e-05,-2.94436,0.202486,0.291378,12.924,0.0369372,
2,1,0,1,0,30673.9,0.0387526,0.0383985,1.15746,16,0.00165447,10,4.44447e-05,-2.93649,0.210608,0.280142,12.6673,0.0383985,
2,1,0,1,0,30674,0.0402508,0.0399014,1.17495,16,0.00174298,10,4.6882e-05,-2.92998,0.200738,0.293915,13.4836,0.0399014,
2,1,0,1,0,30674.1,0.041749,0.0414687,1.19708,16,0.00183311,10,4.96415e-05,-2.92188,0.220658,0.267382,12.4611,0.0414687,
2,1,0,1,0,30674.1,0.0432472,0.0429308,1.21804,16,0.00192465,10,5.22915e-05,-2.91434,0.244582,0.241228,11.4272,0.0429308,
2,1,0,1,0,30674.2,0.0447449,0.0444319,1.23303,16,0.00201737,10,5.47859e-05,-2.90903,0.23342,0.252763,12.1584,0.04443188,
2,1,0,1,0,30674.3,0.0462445,0.0458957,1.25062,16,0.00211162,10,5.73983e-05,-2.90287,0.218192,0.270405,13.1851,0.0458957,
2,1,0,1,0,30674.4,0.04774,0.0474336,1.26928,16,0.00220717,10,6.02068e-05,-2.89644,0.219299,0.26904,13.3345,0.0474336,
2,1,0,1,0,30674.4,0.0492399,0.0489512,1.28916,16,0.00230432,10,6.31061e-05,-2.88969,0.275892,0.213852,10.7437,0.0489512,
2,1,0,1,0,30674.5,0.0507381,0.0504121,1.30012,16,0.00240254,10,6.55415e-05,-2.88602,0.265872,0.221911,11.3167,0.0504121,
2,1,0,1,0,30674.6,0.0522363,0.0518827,1.32025,16,0.002502,10,6.84981e-05,-2.87934,0.246694,0.239163,12.3364,0.0518827,
2,1,0,1,0,30674.7,0.0537345,0.0534331,1.33933,16,0.00260297,10,7.15645e-05,-2.87311,0.276566,0.213331,11.1383,0.05343309,
2,1,0,1,0,30674.7,0.0552327,0.0548881,1.35726,16,0.00270523,10,7.44976e-05,-2.86734,0.303337,0.194503,10.2803,0.0548881,
2,1,0,1,0,30674.8,0.0567309,0.0563982,1.36993,16,0.00280866,10,7.72617e-05,-2.8633,0.294961,0.200027,10.7129,0.0563982,
2,1,0,1,0,30674.9,0.0582291,0.0578652,1.38897,16,0.00291313,10,8.03732e-05,-2.85731,0.288374,0.204596,11.0951,0.0578652,
2,1,0,1,0,30675,0.0597291,0.0593792,1.40434,16,0.00301905,10,8.33884e-05,-2.85253,0.2937,0.200885,10.9996,0.0593792,
2,1,0,1,0,30675,0.0612246,0.0608975,1.41957,16,0.00312589,10,8.64482e-05,-2.84784,0.333132,0.177107,9.79609,0.0608975,
2,1,0,1,0,30675.1,0.0627241,0.0624345,1.43467,16,0.00323411,10,8.95731e-05,-2.84325,0.342486,0.17227,9.64145,0.0624345,
2,1,0,1,0,30675.2,0.0642218,0.0638833,1.44597,16,0.0033431,10,9.23731e-05,-2.83984,0.332828,0.177269,10.025,0.0638833,
2,1,0,1,0,30675.3,0.06572,0.0654052,1.46058,16,0.00345332,10,9.55297e-05,-2.83547,0.325653,0.181175,10.3441,0.0654052,
2,1,0,1,0,30675.3,0.0672182,0.0669033,1.47678,16,0.00356479,10,9.88014e-05,-2.83068,0.390315,0.15116,8.70393,0.0669033,
2,1,0,1,0,30675.4,0.0687164,0.0683889,1.49266,16,0.00367723,10,0.000102081,-2.82604,0.457627,0.128926,7.49891,0.0683889,
2,1,0,1,0,30675.5,0.0702146,0.0698916,1.50095,16,0.00379048,10,0.000104904,-2.82363,0.429975,0.137217,8.05268,0.0698916,
2,1,0,1,0,30675.6,0.0717128,0.0713885,1.51402,16,0.00390474,10,0.000108084,-2.81987,0.394308,0.149629,8.84355,0.0713885,
2,1,0,1,0,30675.6,0.073211,0.0729404,1.52814,16,0.00401997,10,0.000111463,-2.81584,0.447782,0.131761,7.86137,0.0729404,
2,1,0,1,0,30675.7,0.0747092,0.0744121,1.54185,16,0.00413603,10,0.000114732,-2.81196,0.614156,0.0960669,5.76493,0.0744121,
2,1,0,1,0,30675.8,0.0762087,0.07585,1.54358,16,0.00425296,10,0.00011708,-2.81147,0.502672,0.117373,7.09466,0.07585,
2,1,0,1,0,30675.9,0.0777042,0.0774007,1.55956,16,0.00437021,10,0.000120711,-2.807,0.405143,0.145628,8.87063,0.0774007,
2,1,0,1,0,30675.9,0.0792037,0.0789198,1.57364,16,0.00448882,10,0.000124191,-2.8031,0.449366,0.131296,8.04645,0.0789198,
2,1,0,1,0,30676,0.0807019,0.0804362,1.58182,16,0.00460818,10,0.000127236,-2.80084,0.621138,0.0949869,5.85908,0.0804362,
2,1,0,1,0,30676.1,0.0822001,0.0818814,1.58983,16,0.0047283,10,0.000130178,-2.79865,0.538472,0.109569,6.80515,0.0818814,
2,1,0,1,0,30676.2,0.0836983,0.0833541,1.59971,16,0.004849,10,0.000133342,-2.79596,0.562539,0.104882,6.55734,0.0833541,
2,1,0,1,0,30676.2,0.0851965,0.0848614,1.61307,16,0.00497059,10,0.000136887,-2.79235,0.458792,0.128599,8.10071,0.0848614,
2,1,0,1,0,30676.3,0.0866947,0.0863851,1.62334,16,0.00509305,10,0.000140232,-2.78959,0.562512,0.104887,6.64482,0.0863851,
2,1,0,1,0,30676.4,0.0881929,0.0878898,1.63733,16,0.00521651,10,0.000143905,-2.78586,0.441774,0.133552,8.53656,0.0878898,
2,1,0,1,0,30676.5,0.0896911,0.0893731,1.65024,16,0.00534071,10,0.000147487,-2.78245,0.38205,0.15443,9.96419,0.0893731,
2,1,0,1,0,30676.5,0.0911893,0.09084,1.66579,16,0.00546611,10,0.00015132,-2.77838,0.32511,0.181477,11.8055,0.09084,
2,1,0,1,0,30676.6,0.0926884,0.0923766,1.68559,16,0.00559303,10,0.000155709,-2.77325,0.315326,0.187108,12.3133,0.0923766,
2,1,0,1,0,30676.7,0.0941839,0.0939138,1.70353,16,0.00572093,10,0.000159985,-2.76865,0.300446,0.196375,13.0603,0.0939138,
2,1,0,1,0,30676.8,0.0956838,0.0953084,1.71899,16,0.00585052,10,0.000163834,-2.76473,0.273301,0.215879,14.5187,0.0953084,
2,1,0,1,0,30676.8,0.097182,0.0968916,1.74491,16,0.00598158,10,0.000169067,-2.75823,0.232907,0.25332,17.2619,0.0968916,
2,1,0,1,0,30676.9,0.0986802,0.0983594,1.77143,16,0.00611448,10,0.000174236,-2.75168,0.227899,0.258886,17.9231,0.0983594,
2,1,0,1,0,30677,0.100178,0.0998949,1.79759,16,0.00624942,10,0.00017957,-2.74531,0.232795,0.253442,17.7796,0.0998949,
2,1,0,1,0,30677.1,0.101677,0.101302,1.82188,16,0.00638637,10,0.000184559,-2.73948,0.225269,0.261909,18.6874,0.101302,
2,1,0,1,0,30677.1,0.103175,0.102864,1.85894,16,0.00652545,10,0.000191217,-2.73074,0.202016,0.292056,21.2044,0.102864,
2,1,0,1,0,30677.2,0.104673,0.104355,1.89466,16,0.00666709,10,0.000197717,-2.72247,0.19801,0.297965,21.9859,0.1043548,
2,1,0,1,0,30677.3,0.106171,0.105834,1.92462,16,0.00681129,10,0.000203691,-2.71566,0.211732,0.278654,20.8857,0.105834,
2,1,0,1,0,30677.4,0.107669,0.10735,1.95363,16,0.00695794,10,0.000209721,-2.70916,0.210794,0.279894,21.3677,0.10735,
2,1,0,1,0,30677.4,0.109168,0.108833,1.98722,16,0.00710691,10,0.000216274,-2.70176,0.226074,0.260976,20.2643,0.108833,
2,1,0,1,0,30677.5,0.110664,0.110341,2.01859,16,0.00725796,10,0.000222732,-2.69495,0.218575,0.26993,21.2485,0.110341,
2,1,0,1,0,30677.6,0.112164,0.111798,2.04997,16,0.00741171,10,0.000229182,-2.68825,0.253374,0.232858,18.5873,0.111798,
2,1,0,1,0,30677.7,0.113662,0.113365,2.07715,16,0.00756748,10,0.000235476,-2.68253,0.268983,0.219345,17.752,0.113365,
2,1,0,1,0,30677.7,0.11516,0.114841,2.10013,16,0.00772505,10,0.00024118,-2.67775,0.29789,0.19806,16.2238,0.114841,
2,1,0,1,0,30677.8,0.116658,0.116287,2.12693,16,0.00788454,10,0.000247333,-2.67225,0.299766,0.19682,16.3036,0.116287,
2,1,0,1,0,30677.9,0.118157,0.117844,2.14922,16,0.00804591,10,0.000253274,-2.66772,0.332884,0.177239,14.8339,0.117844,
2,1,0,1,0,30678,0.119655,0.119331,2.16845,16,0.00820886,10,0.000258763,-2.66385,0.442527,0.133325,11.267,0.119331,
2,1,0,1,0,30678,0.121153,0.120831,2.17813,16,0.00837292,10,0.000263185,-2.66192,0.517072,0.114104,9.72366,0.120831,
2,1,0,1,0,30678.1,0.122653,0.122337,2.1975,16,0.00853842,10,0.000268837,-2.65807,0.441332,0.133686,11.4634,0.122337,
2,1,0,1,0,30678.2,0.124149,0.123825,2.21404,16,0.00870471,10,0.000274152,-2.65482,0.468051,0.126055,10.8888,0.123825,
2,1,0,1,0,30678.3,0.125648,0.125361,2.2279,16,0.00887258,10,0.000279293,-2.6521,0.577421,0.102178,8.87527,0.1253615,
2,1,0,1,0,30678.3,0.127146,0.126847,2.23833,16,0.00904125,10,0.000283926,-2.65008,0.568408,0.103799,9.08023,0.126847,
2,1,0,1,0,30678.4,0.128644,0.128299,2.25178,16,0.0092107,10,0.0002889,-2.64747,0.594893,0.0991775,8.72936,0.128299,
2,1,0,1,0,30678.5,0.130142,0.129841,2.26803,16,0.00938128,10,0.000294482,-2.64435,0.635755,0.092803,8.20619,0.129841,
2,1,0,1,0,30678.6,0.13164,0.131333,2.2783,16,0.00955281,10,0.000299215,-2.64239,1.06001,0.05566,4.94018,0.131333,
2,1,0,1,0,30678.6,0.133139,0.132823,2.28797,16,0.00972501,10,0.000303894,-2.64055,1.46793,0.0401927,3.58378,0.132823,
2,1,0,1,0,30678.7,0.134637,0.134307,2.28974,16,0.00989747,10,0.000307529,-2.64021,7.47619,0.00789172,0.704522,0.134307,
2,1,0,1,0,30678.8,0.136135,0.135789,2.29112,16,0.0100702,10,0.000311109,-2.63995,-3.29826,-0.0178882,-1.59474,0.135789,
2,1,0,1,0,30678.9,0.137633,0.137311,2.28799,16,0.0102429,10,0.000314168,-2.64055,-0.765126,-0.0771115,-6.84691,0.137311,
2,1,0,1,0,30678.9,0.139133,0.13882,2.27105,16,0.010415,10,0.000315267,-2.64377,-0.382415,-0.154283,-13.6112,0.13882,
2,1,0,1,0,30679,0.140628,0.140297,2.24257,16,0.0105849,10,0.000314626,-2.64925,-0.254011,-0.232274,-20.2554,0.140297,
2,1,0,1,0,30679.1,0.142128,0.141804,2.20567,16,0.0107531,10,0.000312775,-2.65646,-0.207242,-0.284692,-24.4298,0.141804,
2,1,0,1,0,30679.2,0.143626,0.143281,2.16511,16,0.0109183,10,0.000310219,-2.66452,-0.146777,-0.40197,-33.763,0.143281,
2,1,0,1,0,30679.2,0.145124,0.144845,2.10833,16,0.0110796,10,0.000305382,-2.67606,-0.115398,-0.511273,-41.8828,0.1448454,
2,1,0,1,0,30679.3,0.146622,0.146326,2.03821,16,0.0112361,10,0.000298243,-2.69075,-0.0980043,-0.602014,-47.7935,0.146326,
2,1,0,1,0,30679.4,0.14812,0.147775,1.96376,16,0.0113872,10,0.000290195,-2.70691,-0.08808,-0.669845,-51.2088,0.1477752,
2,1,0,1,0,30679.5,0.149619,0.149296,1.88644,16,0.0115326,10,0.000281638,-2.72436,-0.0814745,-0.724153,-53.1795,0.149296,
2,1,0,1,0,30679.5,0.151117,0.150804,1.80372,16,0.0116719,10,0.000272008,-2.74383,-0.0741082,-0.796134,-55.9121,0.150804,
2,1,0,1,0,30679.6,0.152615,0.152288,1.71864,16,0.0118051,10,0.000261728,-2.76481,-0.0728056,-0.810377,-54.4083,0.152288,
2,1,0,1,0,30679.7,0.154113,0.153775,1.63954,16,0.011932,10,0.00025212,-2.78528,-0.0748091,-0.788674,-50.6178,0.153775,
2,1,0,1,0,30679.8,0.155613,0.155301,1.5692,16,0.0120534,10,0.000243698,-2.80432,-0.0776268,-0.760047,-46.6076,0.155301,
2,1,0,1,0,30679.8,0.157108,0.156807,1.50112,16,0.0121693,10,0.000235386,-2.82359,-0.0797933,-0.73941,-43.3798,0.156807,
2,1,0,1,0,30679.9,0.158608,0.158261,1.43697,16,0.0122806,10,0.000227415,-2.84255,-0.08486,-0.695263,-39.1578,0.1582607,
2,1,0,1,0,30680,0.160106,0.159754,1.38131,16,0.0123873,10,0.000220669,-2.85971,-0.0931164,-0.633615,-34.2951,0.159754,
2,1,0,1,0,30680.1,0.161604,0.161283,1.33418,16,0.0124903,10,0.000215181,-2.87478,-0.103468,-0.570224,-29.7882,0.161283,
2,1,0,1,0,30680.1,0.163102,0.162733,1.2946,16,0.0125898,10,0.000210674,-2.88786,-0.111422,-0.529516,-26.783,0.162733,
2,1,0,1,0,30680.2,0.164601,0.164221,1.25734,16,0.0126865,10,0.000206483,-2.90055,-0.122303,-0.482409,-23.6965,0.164221,
2,1,0,1,0,30680.3,0.166099,0.165777,1.22221,16,0.0127804,10,0.000202614,-2.91286,-0.141192,-0.417869,-20.0296,0.165777,
2,1,0,1,0,30680.4,0.167597,0.1673,1.19409,16,0.0128721,10,0.000199771,-2.92296,-0.168883,-0.349354,-16.3596,0.1673,
2,1,0,1,0,30680.4,0.169095,0.168791,1.17525,16,0.0129621,10,0.000198372,-2.92987,-0.184441,-0.319886,-14.6711,0.168791,
2,1,0,1,0,30680.5,0.170593,0.17028,1.1534,16,0.0130503,10,0.000196401,-2.93802,-0.186793,-0.315857,-14.2075,0.17028,
2,1,0,1,0,30680.6,0.172092,0.171771,1.12825,16,0.013137,10,0.000193801,-2.94759,-0.21431,-0.275302,-12.1743,0.1717713,
2,1,0,1,0,30680.7,0.173588,0.173271,1.115,16,0.0132222,10,0.000193198,-2.95272,-0.26394,-0.223535,-9.73379,0.173271,
2,1,0,1,0,30680.7,0.175088,0.17479,1.10139,16,0.0133064,10,0.000192512,-2.95806,-0.274956,-0.21458,-9.219,0.17479,
2,1,0,1,0,30680.8,0.176586,0.176261,1.08917,16,0.0133896,10,0.000191979,-2.9629,-0.294956,-0.20003,-8.4854,0.176261,
2,1,0,1,0,30680.9,0.178084,0.177753,1.07311,16,0.0134717,10,0.000190748,-2.96936,-0.328291,-0.179719,-7.54264,0.1777526,
2,1,0,1,0,30681,0.179582,0.179229,1.0639,16,0.0135529,10,0.000190682,-2.9731,-0.389168,-0.151605,-6.30792,0.179229,
2,1,0,1,0,30681,0.181081,0.18077,1.05644,16,0.0136335,10,0.000190973,-2.97615,-0.452568,-0.130367,-5.38214,0.18077,
2,1,0,1,0,30681.1,0.182579,0.18227,1.04708,16,0.0137134,10,0.000190852,-2.98002,-0.376183,-0.156839,-6.40589,0.18227,
2,1,0,1,0,30681.2,0.184077,0.183748,1.03864,16,0.0137927,10,0.000190849,-2.98353,-0.40374,-0.146134,-5.92682,0.183748,
2,1,0,1,0,30681.3,0.185577,0.18526,1.03226,16,0.0138715,10,0.000191237,-2.98621,-0.585243,-0.100813,-4.06622,0.18526,
2,1,0,1,0,30681.3,0.187073,0.18679,1.0272,16,0.0139496,10,0.000191871,-2.98834,-0.665666,-0.088633,-3.54758,0.1867903,
2,1,0,1,0,30681.4,0.188572,0.188267,1.02172,16,0.0140275,10,0.000192356,-2.99067,-0.6978,-0.0845514,-3.36985,0.188267,
2,1,0,1,0,30681.5,0.19007,0.189768,1.01531,16,0.0141049,10,0.000192673,-2.9934,-0.647059,-0.0911818,-3.61151,0.189768,
2,1,0,1,0,30681.6,0.191568,0.191238,1.00703,16,0.0141818,10,0.000192582,-2.99696,-0.733,-0.0804911,-3.17269,0.191238,
2,1,0,1,0,30681.6,0.193066,0.192711,1.00404,16,0.0142584,10,0.000193489,-2.99825,-1.04017,-0.0567217,-2.22492,0.1927114,
2,1,0,1,0,30681.7,0.194564,0.194259,1.00346,16,0.0143347,10,0.000194931,-2.9985,-0.877368,-0.0672466,-2.62744,0.194259,
2,1,0,1,0,30681.8,0.196063,0.195724,0.995874,16,0.0144108,10,0.000194916,-3.0018,-0.67932,-0.0868516,-3.37915,0.195724,
2,1,0,1,0,30681.8,0.197561,0.197223,0.988364,16,0.0144864,10,0.000194928,-3.00508,-0.723474,-0.081551,-3.15695,0.197223,
2,1,0,1,0,30681.9,0.199059,0.19877,0.987301,16,0.0145616,10,0.000196246,-3.00555,-0.899323,-0.0656049,-2.52734,0.19877,
2,1,0,1,0,30682,0.200557,0.2003,0.986198,16,0.0146367,10,0.000197535,-3.00604,-2.03215,-0.0290333,-1.11556,0.2003,
2,1,0,1,0,30682.1,0.202057,0.20175,0.982212,16,0.0147117,10,0.000198161,-3.00779,-0.750641,-0.0785994,-3.00744,0.20175,
2,1,0,1,0,30682.1,0.203552,0.203247,0.976466,16,0.0147862,10,0.000198464,-3.01034,-1.29917,-0.0454137,-1.73434,0.203247,
2,1,0,1,0,30682.2,0.205052,0.204745,0.973935,16,0.0148606,10,0.000199408,-3.01147,-9.27568,-0.00636072,-0.243029,0.204745,
2,1,0,1,0,30682.3,0.20655,0.206217,0.970919,16,0.0149347,10,0.00020022,-3.01282,-1.52907,-0.0385856,-1.46483,0.206217,
2,1,0,1,0,30682.4,0.208048,0.207716,0.971783,16,0.015009,10,0.000201854,-3.01243,-1.13666,-0.0519067,-1.96406,0.207716,
2,1,0,1,0,30682.4,0.209546,0.209259,0.968902,16,0.0150828,10,0.000202751,-3.01372,-0.88421,-0.0667262,-2.52349,0.209259,
2,1,0,1,0,30682.5,0.211044,0.210701,0.965094,16,0.0151563,10,0.000203346,-3.01543,-1.55217,-0.0380114,-1.43282,0.210701,
2,1,0,1,0,30682.6,0.212543,0.212249,0.965019,16,0.0152297,10,0.000204824,-3.01546,-1.5449,-0.0381901,-1.43334,0.2122491,
2,1,0,1,0,30682.7,0.214041,0.213758,0.961623,16,0.015303,10,0.000205554,-3.017,-1.2097,-0.0487724,-1.83124,0.2137576,
2,1,0,1,0,30682.7,0.215539,0.21523,0.959521,16,0.0153761,10,0.000206518,-3.01795,-1.47282,-0.0400592,-1.49958,0.21523,
2,1,0,1,0,30682.8,0.217037,0.216716,0.954614,16,0.0154489,10,0.00020688,-3.02017,-1.79587,-0.0328532,-1.22874,0.2167163,
2,1,0,1,0,30682.9,0.218536,0.218219,0.954332,16,0.0155217,10,0.000208254,-3.0203,21.1067,0.00279532,0.104069,0.218219,
2,1,0,1,0,30683,0.220032,0.219726,0.952887,16,0.0155943,10,0.000209374,-3.02096,-2.65922,-0.0221869,-0.825422,0.219726,
2,1,0,1,0,30683,0.221532,0.221189,0.951424,16,0.0156669,10,0.000210445,-3.02163,-1.38727,-0.0425295,-1.57833,0.221189,
2,1,0,1,0,30683.1,0.22303,0.22274,0.947126,16,0.0157392,10,0.000210963,-3.02359,-1.9785,-0.0298206,-1.10364,0.22274,
2,1,0,1,0,30683.2,0.224528,0.224241,0.948386,16,0.0158113,10,0.000212667,-3.02301,-2.38274,-0.0247614,-0.914737,0.224241,
2,1,0,1,0,30683.3,0.226026,0.225693,0.946984,16,0.0158834,10,0.000213728,-3.02366,-1.50997,-0.0390736,-1.44288,0.225693,
2,1,0,1,0,30683.3,0.227525,0.227204,0.944018,16,0.0159554,10,0.000214485,-3.02502,-0.91711,-0.0643325,-2.36903,0.227204,
2,1,0,1,0,30683.4,0.229023,0.228751,0.943223,16,0.0160272,10,0.000215764,-3.02539,-1.51351,-0.0389822,-1.43546,0.228751,
2,1,0,1,0,30683.5,0.230521,0.230237,0.940734,16,0.0160988,10,0.000216592,-3.02653,-1.50602,-0.0391761,-1.44068,0.230237,
2,1,0,1,0,30683.6,0.232019,0.231689,0.939592,16,0.0161703,10,0.000217693,-3.02706,-1.99053,-0.0296404,-1.08721,0.231689,
2,1,0,1,0,30683.6,0.233517,0.23318,0.939309,16,0.0162419,10,0.000219028,-3.02719,-1.65836,-0.0355773,-1.30063,0.23318,
2,1,0,1,0,30683.7,0.235016,0.234703,0.938661,16,0.0163133,10,0.000220306,-3.02749,-1.19803,-0.0492476,-1.79754,0.234703,
2,1,0,1,0,30683.8,0.236512,0.236178,0.932842,16,0.0163844,10,0.000220316,-3.03019,-1.79829,-0.032809,-1.1955,0.236178,
2,1,0,1,0,30683.9,0.238012,0.237705,0.933556,16,0.0164556,10,0.000221911,-3.02986,-3.22859,-0.0182742,-0.664034,0.237705,
2,1,0,1,0,30683.9,0.23951,0.239222,0.930196,16,0.0165266,10,0.000222523,-3.03143,-3.70106,-0.0159414,-0.579834,0.239222,
2,1,0,1,0,30684,0.241008,0.240719,0.931579,16,0.0165975,10,0.000224249,-3.03078,-1.35189,-0.0436425,-1.58702,0.240719,
2,1,0,1,0,30684.1,0.242506,0.242208,0.925949,16,0.0166683,10,0.000224272,-3.03341,-1.38797,-0.0425082,-1.54275,0.242208,
2,1,0,1,0,30684.2,0.244005,0.243643,0.927861,16,0.0167389,10,0.000226067,-3.03252,-14.3464,-0.00411253,-0.148777,0.243643,
2,1,0,1,0,30684.2,0.245503,0.245197,0.928085,16,0.0168096,10,0.000227563,-3.03241,-1.5426,-0.0382471,-1.38365,0.245197,
2,1,0,1,0,30684.3,0.247001,0.246678,0.927761,16,0.0168801,10,0.000228858,-3.03256,-1.76098,-0.033504,-1.20931,0.246678,
2,1,0,1,0,30684.4,0.248501,0.2482,0.921399,16,0.0169506,10,0.000228692,-3.03555,-1.30006,-0.0453826,-1.63562,0.2482,
2,1,0,1,0,30684.5,0.249997,0.249706,0.922009,16,0.0170207,10,0.000230231,-3.03526,-1.88184,-0.0313523,-1.12899,0.249706,
2,1,0,1,0,30684.5,0.251496,0.251192,0.922371,16,0.017091,10,0.000231692,-3.03509,-4.12096,-0.0143171,-0.513748,0.251192,
2,1,0,1,0,30684.6,0.252994,0.252666,0.919716,16,0.0171612,10,0.000232381,-3.03635,-1.28984,-0.0457422,-1.64136,0.252666,
2,1,0,1,0,30684.7,0.254492,0.254186,0.915557,16,0.0172311,10,0.000232721,-3.03831,-1.52911,-0.0385844,-1.38257,0.254186,
2,1,0,1,0,30684.8,0.25599,0.255672,0.915522,16,0.0173009,10,0.000234073,-3.03833,-3.00141,-0.0196574,-0.703936,0.255672,
2,1,0,1,0,30684.8,0.257488,0.257159,0.917763,16,0.0173707,10,0.000236011,-3.03727,9.71016,0.00607611,0.216839,0.257159,
2,1,0,1,0,30684.9,0.258987,0.258699,0.915936,16,0.0174404,10,0.000236952,-3.03814,-2.75785,-0.0213935,-0.762985,0.258699,
2,1,0,1,0,30685,0.260485,0.260215,0.913696,16,0.01751,10,0.000237757,-3.0392,-1.51634,-0.0389095,-1.38538,0.260215,
2,1,0,1,0,30685.1,0.261983,0.261669,0.911896,16,0.0175794,10,0.000238615,-3.04005,-2.48985,-0.0236962,-0.841683,0.261669,
2,1,0,1,0,30685.1,0.263481,0.263191,0.911195,16,0.0176487,10,0.000239818,-3.04039,-6.25497,-0.00943251,-0.334627,0.263191,
2,1,0,1,0,30685.2,0.264981,0.264663,0.910333,16,0.0177181,10,0.000240932,-3.0408,-1.97941,-0.0298068,-1.05737,0.264663,
2,1,0,1,0,30685.3,0.266476,0.266172,0.905758,16,0.0177871,10,0.000241087,-3.04299,-1.16603,-0.050599,-1.79113,0.266172,
2,1,0,1,0,30685.4,0.267976,0.26767,0.899943,16,0.0178561,10,0.000240888,-3.04578,-1.80899,-0.0326149,-1.15326,0.26767,
2,1,0,1,0,30685.4,0.269474,0.269165,0.902398,16,0.0179249,10,0.000242894,-3.0446,44.9085,0.00131378,0.0463115,0.269165,
2,1,0,1,0,30685.5,0.270972,0.270676,0.904669,16,0.0179937,10,0.000244872,-3.04351,-2.57342,-0.0229267,-0.806889,0.270676,
2,1,0,1,0,30685.6,0.27247,0.272147,0.900737,16,0.0180625,10,0.000245133,-3.0454,-0.991392,-0.0595123,-2.08777,0.272147,
2,1,0,1,0,30685.7,0.273968,0.273666,0.898063,16,0.0181311,10,0.000245769,-3.04669,-1.85658,-0.0317788,-1.11406,0.273666,
2,1,0,1,0,30685.7,0.275467,0.275164,0.897904,16,0.0181995,10,0.000247071,-3.04677,-2.03599,-0.0289786,-1.01649,0.275164,
2,1,0,1,0,30685.8,0.276965,0.276652,0.895687,16,0.0182678,10,0.000247794,-3.04784,-1.79228,-0.032919,-1.15305,0.276652,
2,1,0,1,0,30685.9,0.278463,0.278197,0.894309,16,0.018336,10,0.000248794,-3.04851,-1.27369,-0.0463223,-1.61428,0.278197,
2,1,0,1,0,30686,0.279961,0.279675,0.892685,16,0.0184041,10,0.000249662,-3.0493,-2.13351,-0.027654,-0.963578,0.279675,
2,1,0,1,0,30686,0.28146,0.281156,0.890845,16,0.0184721,10,0.000250466,-3.0502,-2.74902,-0.0214622,-0.747792,0.281156,
2,1,0,1,0,30686.1,0.282956,0.282636,0.890002,16,0.0185398,10,0.000251547,-3.05061,-10.4307,-0.00565636,-0.196315,0.282636,
2,1,0,1,0,30686.2,0.284456,0.28413,0.888531,16,0.0186077,10,0.000252458,-3.05133,-3.01755,-0.0195523,-0.676304,0.28413,
2,1,0,1,0,30686.3,0.285954,0.285623,0.886571,16,0.0186754,10,0.000253225,-3.05229,-1.31191,-0.0449725,-1.55463,0.285623,
2,1,0,1,0,30686.3,0.287452,0.287113,0.88386,16,0.0187428,10,0.000253768,-3.05362,-1.72225,-0.0342575,-1.18378,0.287113,
2,1,0,1,0,30686.4,0.28895,0.288584,0.883293,16,0.0188101,10,0.000254904,-3.0539,-4.93112,-0.0119648,-0.411527,0.288584,
2,1,0,1,0,30686.5,0.290449,0.290128,0.880336,16,0.0188772,10,0.00025541,-3.05535,-1.35022,-0.0436965,-1.50141,0.290128,
2,1,0,1,0,30686.6,0.291947,0.291627,0.878498,16,0.0189444,10,0.000256194,-3.05626,-1.27309,-0.046344,-1.58686,0.291627,
2,1,0,1,0,30686.6,0.293445,0.293146,0.875525,16,0.0190113,10,0.000256657,-3.05773,-2.27861,-0.025893,-0.886859,0.293146,
2,1,0,1,0,30686.7,0.294943,0.294614,0.878367,16,0.019078,10,0.000258779,-3.05632,-3.94712,-0.0149476,-0.511242,0.294614,
2,1,0,1,0,30686.8,0.296441,0.296178,0.877619,16,0.0191447,10,0.000259931,-3.05669,-4.85254,-0.0121586,-0.414059,0.296178,
2,1,0,1,0,30686.9,0.29794,0.297672,0.873652,16,0.0192115,10,0.000260062,-3.05866,-1.49679,-0.0394177,-1.33955,0.297672,
2,1,0,1,0,30686.9,0.299436,0.299165,0.870414,16,0.0192779,10,0.000260398,-3.06027,-0.00349728,-16.8703,-337.648,0.299165,
2,1,0,1,0,30687,0.299739,0.299435,0.555643,16,0.0193115,10,0.000166379,-3.2552,0.000738394,79.9032,725.732,0.299435,
2,1,0,1,0,30687.1,0.298239,0.297921,0.0375703,16,0.0193271,10,1.1193e-05,-4.42516,0.00428071,13.7828,253.733,0.297921,
2,0,0,1,0,30687.1,0.296741,0.296424,-0.0837596,16,0.0193234,10,-2.48283e-05,-4.07697,-0.0359067,-1.64315,70.2393,0.296424,
2,0,0,1,0,30687.2,0.295243,0.294918,-0.142832,16,0.0193133,10,-4.21238e-05,-3.84517,-0.00746949,-7.8988,33.8056,0.2949183,
2,0,0,1,0,30687.3,0.293745,0.293401,-0.181918,16,0.0192999,10,-5.33749e-05,-3.74012,-0.0172377,-3.42272,22.638,0.293401,
2,0,0,1,0,30687.4,0.292246,0.291929,-0.210607,16,0.019284,10,-6.14823e-05,-3.67653,-0.0256375,-2.30131,18.4141,0.291929,
2,0,0,1,0,30687.4,0.290748,0.290441,-0.23676,16,0.019266,10,-6.87648e-05,-3.62569,-0.0343557,-1.71733,15.3289,0.290441,
2,0,0,1,0,30687.5,0.28925,0.288912,-0.258097,16,0.0192463,10,-7.45674e-05,-3.58822,-0.0430802,-1.36954,13.5835,0.288912,
2,0,0,1,0,30687.6,0.287752,0.287444,-0.27506,16,0.0192252,10,-7.90643e-05,-3.56057,-0.0580907,-1.01565,10.8207,0.287444,
2,0,0,1,0,30687.7,0.286254,0.285962,-0.291099,16,0.0192029,10,-8.32433e-05,-3.53596,-0.0630021,-0.936477,10.5708,0.285962,
2,0,0,1,0,30687.7,0.284754,0.284441,-0.305442,16,0.0191794,10,-8.68804e-05,-3.51507,-0.0672944,-0.876744,10.3727,0.284441,
2,0,0,1,0,30687.8,0.283259,0.282948,-0.321032,16,0.0191547,10,-9.08352e-05,-3.49345,-0.0791373,-0.74554,9.28861,0.282948,
2,0,0,1,0,30687.9,0.281759,0.281484,-0.331442,16,0.019129,10,-9.32956e-05,-3.47959,-0.0957227,-0.616364,7.97184,0.281484,
2,0,0,1,0,30688,0.280261,0.279952,-0.342682,16,0.0191024,10,-9.59344e-05,-3.46511,-0.10223,-0.577129,7.7583,0.279952,
2,0,0,1,0,30688,0.278763,0.2785,-0.356954,16,0.019075,10,-9.94116e-05,-3.44739,-0.108784,-0.54236,7.51177,0.2785,
2,0,0,1,0,30688.1,0.277264,0.276957,-0.368485,16,0.0190467,10,-0.000102054,-3.43358,-0.119272,-0.494666,7.09269,0.276957,
2,0,0,1,0,30688.2,0.275766,0.275456,-0.378111,16,0.0190175,10,-0.000104153,-3.42238,-0.132131,-0.446527,6.55482,0.275456,
2,0,0,1,0,30688.3,0.274268,0.273956,-0.387827,16,0.0189876,10,-0.000106248,-3.41136,-0.155965,-0.378291,5.70585,0.273956,
2,0,0,1,0,30688.3,0.27277,0.272467,-0.397434,16,0.0189571,10,-0.000108288,-3.40073,-0.13219,-0.446326,6.95092,0.272467,
2,0,0,1,0,30688.4,0.271272,0.270968,-0.407335,16,0.018926,10,-0.000110375,-3.39005,-0.143788,-0.410327,6.51148,0.270968,
2,0,0,1,0,30688.5,0.269774,0.269484,-0.415974,16,0.018894,10,-0.000112098,-3.38093,-0.14797,-0.398729,6.43439,0.2694841,
2,0,0,1,0,30688.6,0.268274,0.268003,-0.422964,16,0.0188613,10,-0.000113356,-3.3737,-0.187261,-0.315068,5.1897,0.268003,
2,0,0,1,0,30688.6,0.266779,0.266437,-0.429809,16,0.0188283,10,-0.000114517,-3.36672,-0.168559,-0.350026,5.88386,0.266437,
2,0,0,1,0,30688.7,0.265279,0.264973,-0.439803,16,0.0187945,10,-0.000116536,-3.35674,-0.186442,-0.316452,5.40567,0.264973,
2,0,0,1,0,30688.8,0.263781,0.263452,-0.444998,16,0.0187601,10,-0.000117236,-3.35164,-0.191676,-0.307811,5.36358,0.263452,
2,0,0,1,0,30688.9,0.262283,0.261995,-0.450503,16,0.0187252,10,-0.00011803,-3.3463,-0.215664,-0.273573,4.84039,0.261995,
2,0,0,1,0,30688.9,0.260784,0.260465,-0.458452,16,0.0186898,10,-0.00011941,-3.33871,-0.246876,-0.238987,4.30192,0.260465,
2,0,0,1,0,30689,0.259286,0.258985,-0.469191,16,0.0186538,10,-0.000121514,-3.32865,-0.200035,-0.294948,5.38158,0.258985,
2,0,0,1,0,30689.1,0.257788,0.257469,-0.47758,16,0.0186172,10,-0.000122962,-3.32095,-0.249588,-0.23639,4.39483,0.257469,
2,0,0,1,0,30689.2,0.25629,0.255978,-0.483539,16,0.0185801,10,-0.000123776,-3.31557,-0.246281,-0.239564,4.48872,0.255978,
2,0,0,1,0,30689.2,0.25479,0.254478,-0.488568,16,0.0185425,10,-0.00012433,-3.31107,-0.260313,-0.22665,4.32984,0.254478,
2,0,0,1,0,30689.3,0.253294,0.252991,-0.497311,16,0.0185046,10,-0.000125815,-3.30337,-0.246169,-0.239673,4.64921,0.252991,
2,0,0,1,0,30689.4,0.251795,0.251476,-0.500726,16,0.018466,10,-0.000125921,-3.3004,-0.269594,-0.218848,4.28206,0.251476,
2,0,0,1,0,30689.5,0.250297,0.250014,-0.508333,16,0.018427,10,-0.000127091,-3.29385,-0.338693,-0.174199,3.43765,0.250014,
2,0,0,1,0,30689.5,0.248799,0.248439,-0.515501,16,0.0183874,10,-0.000128071,-3.28777,-0.288561,-0.204463,4.10169,0.248439,
2,0,0,1,0,30689.6,0.247301,0.246964,-0.520851,16,0.0183476,10,-0.000128631,-3.28329,-0.282517,-0.208837,4.24686,0.246964,
2,0,0,1,0,30689.7,0.245802,0.245497,-0.526712,16,0.0183072,10,-0.000129306,-3.27843,-0.2918,-0.202193,4.14405,0.245497,
2,0,0,1,0,30689.8,0.244304,0.244005,-0.530845,16,0.0182663,10,-0.000129529,-3.27503,-0.287134,-0.205479,4.26098,0.2440045,
2,0,0,1,0,30689.8,0.242806,0.242506,-0.537679,16,0.018225,10,-0.00013039,-3.26948,-0.388632,-0.151815,3.18801,0.242506,
2,0,0,1,0,30689.9,0.241308,0.240975,-0.542498,16,0.0181835,10,-0.000130729,-3.2656,-0.335835,-0.175681,3.72872,0.2409752,
2,0,0,1,0,30690,0.23981,0.239532,-0.547444,16,0.0181414,10,-0.000131131,-3.26166,-0.285441,-0.206697,4.409,0.239532,
2,0,0,1,0,30690.1,0.23831,0.238019,-0.554394,16,0.0180988,10,-0.000131956,-3.25618,-0.335227,-0.176,3.80829,0.2380192,
2,0,0,1,0,30690.1,0.236815,0.236463,-0.559458,16,0.0180559,10,-0.000132291,-3.25223,-0.384027,-0.153635,3.34993,0.236463,
2,0,0,1,0,30690.2,0.235315,0.235018,-0.561055,16,0.0180125,10,-0.000131858,-3.25099,-0.363709,-0.162217,3.57604,0.235018,
2,0,0,1,0,30690.3,0.233817,0.233526,-0.570122,16,0.0179689,10,-0.000133139,-3.24403,-0.33681,-0.175173,3.90443,0.2335263,
2,0,0,1,0,30690.4,0.232319,0.232018,-0.575406,16,0.0179247,10,-0.000133505,-3.24003,-0.344255,-0.171384,3.84547,0.232018,
2,0,0,1,0,30690.4,0.230821,0.230501,-0.580856,16,0.01788,10,-0.000133888,-3.23593,-0.436273,-0.135236,3.06304,0.230501,
2,0,0,1,0,30690.5,0.229322,0.229,-0.584484,16,0.0178351,10,-0.000133847,-3.23323,-0.389419,-0.151508,3.4683,0.229,
2,0,0,1,0,30690.6,0.227824,0.227478,-0.590495,16,0.0177898,10,-0.000134324,-3.22878,-0.378265,-0.155975,3.60364,0.2274776,
2,0,0,1,0,30690.7,0.226326,0.226028,-0.598151,16,0.0177441,10,-0.000135199,-3.22319,-0.445222,-0.132518,3.08285,0.226028,
2,0,0,1,0,30690.7,0.224828,0.224524,-0.604267,16,0.0176979,10,-0.000135673,-3.21877,-0.496926,-0.11873,2.78266,0.224524,
2,0,0,1,0,30690.8,0.22333,0.222999,-0.609507,16,0.0176513,10,-0.00013592,-3.21502,-0.41112,-0.14351,3.40671,0.222999,
2,0,0,1,0,30690.9,0.22183,0.221545,-0.613655,16,0.0176044,10,-0.000135952,-3.21208,-0.427782,-0.137921,3.28986,0.221545,
2,0,0,1,0,30691,0.220335,0.220022,-0.618541,16,0.0175572,10,-0.000136093,-3.20863,-0.381256,-0.154752,3.72708,0.220022,
2,0,0,1,0,30691,0.218835,0.218548,-0.625071,16,0.0175093,10,-0.000136608,-3.20407,-0.404977,-0.145687,3.54985,0.218548,
2,0,0,1,0,30691.1,0.217337,0.217059,-0.628956,16,0.0174612,10,-0.00013652,-3.20138,-0.529681,-0.111388,2.74303,0.217059,
2,0,0,1,0,30691.2,0.215839,0.215507,-0.631699,16,0.0174128,10,-0.000136136,-3.19949,-0.509195,-0.115869,2.86398,0.215507,
2,0,0,1,0,30691.3,0.21434,0.214044,-0.637193,16,0.017364,10,-0.000136388,-3.19573,-0.41813,-0.141104,3.50644,0.214044,
2,0,0,1,0,30691.3,0.212842,0.21251,-0.643314,16,0.0173148,10,-0.000136711,-3.19158,-0.396886,-0.148657,3.72959,0.21251,
2,0,0,1,0,30691.4,0.211344,0.210997,-0.649466,16,0.0172652,10,-0.000137035,-3.18744,-0.610319,-0.0966708,2.44546,0.210997,
2,0,0,1,0,30691.5,0.209846,0.209522,-0.649616,16,0.0172153,10,-0.000136109,-3.18734,-0.508583,-0.116009,2.95082,0.209522,
2,0,0,1,0,30691.6,0.208348,0.208023,-0.659918,16,0.017165,10,-0.000137278,-3.18051,-0.335979,-0.175606,4.52464,0.208023,
2,0,0,1,0,30691.6,0.20685,0.206512,-0.668742,16,0.0171142,10,-0.000138103,-3.17474,-0.342983,-0.17202,4.45459,0.206512,
2,0,0,1,0,30691.7,0.20535,0.204982,-0.671043,16,0.0170628,10,-0.000137552,-3.17325,-0.524936,-0.112395,2.93231,0.204982,
2,0,0,1,0,30691.8,0.203855,0.203531,-0.675714,16,0.0170113,10,-0.000137529,-3.17024,-0.50563,-0.116686,3.0747,0.2035307,
2,0,0,1,0,30691.9,0.202355,0.202045,-0.679363,16,0.0169594,10,-0.000137262,-3.1679,-0.496155,-0.118914,3.15664,0.202045,
2,0,0,1,0,30691.9,0.200857,0.200491,-0.686434,16,0.0169071,10,-0.000137624,-3.1634,-0.465414,-0.126769,3.38931,0.200491,
2,0,0,1,0,30692,0.199359,0.199036,-0.691073,16,0.0168543,10,-0.000137549,-3.16048,-0.553159,-0.10666,2.86564,0.199036,
2,0,0,1,0,30692.1,0.19786,0.197498,-0.696813,16,0.0168011,10,-0.000137619,-3.15688,-0.517636,-0.11398,3.09442,0.197498,
2,0,0,1,0,30692.2,0.196362,0.195999,-0.700654,16,0.0167476,10,-0.000137327,-3.1545,-0.430623,-0.137011,3.74956,0.195999,
2,0,0,1,0,30692.2,0.194864,0.194588,-0.707221,16,0.0166936,10,-0.000137617,-3.15044,-0.333946,-0.176675,4.87584,0.194588,
2,0,0,1,0,30692.3,0.193366,0.193029,-0.715199,16,0.016639,10,-0.000138054,-3.14557,-0.374323,-0.157618,4.39862,0.193029,
2,0,0,1,0,30692.4,0.191866,0.191576,-0.720579,16,0.016584,10,-0.000138046,-3.14232,-0.531098,-0.111091,3.1302,0.191576,
2,0,0,1,0,30692.5,0.19037,0.190057,-0.724036,16,0.0165287,10,-0.000137608,-3.14024,-0.349192,-0.168961,4.80428,0.190057,
2,0,0,1,0,30692.5,0.188871,0.18851,-0.732829,16,0.0164728,10,-0.000138145,-3.135,-0.323448,-0.182409,5.2099,0.18851,
2,0,0,1,0,30692.6,0.187373,0.187048,-0.739157,16,0.0164165,10,-0.000138258,-3.13126,-0.412761,-0.14294,4.12448,0.187048,
2,0,0,1,0,30692.7,0.185875,0.185569,-0.747234,16,0.0163596,10,-0.000138664,-3.12654,-0.443612,-0.132999,3.85961,0.185569,
2,0,0,1,0,30692.8,0.184377,0.184077,-0.749116,16,0.0163022,10,-0.000137895,-3.12545,-0.385199,-0.153167,4.49854,0.184077,
2,0,0,1,0,30692.8,0.182878,0.182584,-0.760099,16,0.0162444,10,-0.000138782,-3.11913,-0.411401,-0.143412,4.2646,0.182584,
2,0,0,1,0,30692.9,0.18138,0.181113,-0.767456,16,0.016186,10,-0.000138997,-3.11495,-0.35279,-0.167238,5.00864,0.181113,
2,0,0,1,0,30693,0.179882,0.179545,-0.77536,16,0.016127,10,-0.000139212,-3.1105,-0.45915,-0.128498,3.87689,0.1795451,
2,0,0,1,0,30693.1,0.178384,0.178064,-0.781383,16,0.0160675,10,-0.000139136,-3.10714,-0.374467,-0.157557,4.81722,0.178064,
2,0,0,1,0,30693.1,0.176886,0.176594,-0.789398,16,0.0160074,10,-0.000139403,-3.1027,-0.366651,-0.160916,4.97252,0.176594,
2,0,0,1,0,30693.2,0.175386,0.17509,-0.801719,16,0.0159466,10,-0.000140373,-3.09598,-0.303593,-0.194339,6.06452,0.17509,
2,0,0,1,0,30693.3,0.173891,0.173523,-0.807271,16,0.0158852,10,-0.00014008,-3.09298,-0.293802,-0.200815,6.33229,0.173523,
2,0,0,1,0,30693.4,0.172391,0.172092,-0.818691,16,0.015823,10,-0.00014089,-3.08688,-0.283033,-0.208457,6.65423,0.172092,
2,0,0,1,0,30693.4,0.170893,0.17059,-0.824917,16,0.0157602,10,-0.000140723,-3.08359,-0.251245,-0.23483,7.59564,0.1705901,
2,0,0,1,0,30693.5,0.169395,0.16908,-0.839587,16,0.0156966,10,-0.000141957,-3.07593,-0.226755,-0.260192,8.50693,0.16908,
2,0,0,1,0,30693.6,0.167897,0.167609,-0.852436,16,0.0156319,10,-0.000142876,-3.06934,-0.250948,-0.235108,7.80814,0.167609,
2,0,0,1,0,30693.7,0.166398,0.166061,-0.863524,16,0.0155664,10,-0.000143398,-3.06373,-0.253157,-0.233057,7.86305,0.166061,
2,0,0,1,0,30693.7,0.1649,0.164572,-0.873727,16,0.0155001,10,-0.000143791,-3.05862,-0.244265,-0.241541,8.27657,0.164572,
2,0,0,1,0,30693.8,0.163402,0.163057,-0.890346,16,0.0154329,10,-0.000145177,-3.05044,-0.204178,-0.288964,10.054,0.163057,
2,0,0,1,0,30693.9,0.161904,0.161559,-0.904634,16,0.0153645,10,-0.000146151,-3.04353,-0.200325,-0.294521,10.4074,0.161559,
2,0,0,1,0,30694,0.160406,0.160054,-0.921588,16,0.0152949,10,-0.000147504,-3.03546,-0.204199,-0.288934,10.3656,0.160054,
2,0,0,1,0,30694,0.158906,0.158587,-0.937721,16,0.0152239,10,-0.000148711,-3.02793,-0.166543,-0.354264,13.0061,0.1585875,
2,0,0,1,0,30694.1,0.157411,0.157103,-0.957238,16,0.0151518,10,-0.000150385,-3.01898,-0.150554,-0.391885,14.7108,0.157103,
2,0,0,1,0,30694.2,0.155911,0.155571,-0.978219,16,0.0150779,10,-0.000152183,-3.00956,-0.139706,-0.422317,16.1698,0.155571,
2,0,0,1,0,30694.3,0.154413,0.15406,-1.00266,16,0.0150022,10,-0.000154469,-2.99885,-0.149984,-0.393376,15.4148,0.15406,
2,0,0,1,0,30694.3,0.152915,0.152544,-1.03074,16,0.0149247,10,-0.000157233,-2.98685,-0.131841,-0.44751,18.0626,0.152544,
2,0,0,1,0,30694.4,0.151417,0.15108,-1.05917,16,0.0148453,10,-0.000160018,-2.97504,-0.116603,-0.505991,20.9737,0.15108,
2,0,0,1,0,30694.5,0.149918,0.14958,-1.09253,16,0.0147635,10,-0.000163421,-2.96157,-0.105906,-0.557098,23.7925,0.14958,
2,0,0,1,0,30694.6,0.14842,0.148103,-1.13124,16,0.014679,10,-0.00016754,-2.94645,-0.099505,-0.592935,26.1992,0.148103,
2,0,0,1,0,30694.6,0.146922,0.146575,-1.17245,16,0.0145916,10,-0.000171851,-2.93091,-0.0944702,-0.624535,28.5873,0.146575,
2,0,0,1,0,30694.7,0.145424,0.145079,-1.214,16,0.0145012,10,-0.000176125,-2.91578,-0.0887523,-0.664771,31.6116,0.145079,
2,0,0,1,0,30694.8,0.143926,0.143633,-1.26368,16,0.0144072,10,-0.000181505,-2.89836,-0.0789184,-0.747608,36.9758,0.143633,
2,0,0,1,0,30694.9,0.142426,0.1421,-1.32104,16,0.014309,10,-0.000187719,-2.87908,-0.0784409,-0.752158,38.7678,0.1420998,
2,0,0,1,0,30694.9,0.140931,0.140614,-1.37824,16,0.0142068,10,-0.0001938,-2.86067,-0.0798948,-0.738471,39.7245,0.140614,
2,0,0,1,0,30695,0.139431,0.139143,-1.43339,16,0.0141001,10,-0.000199446,-2.84364,-0.0794824,-0.742303,41.7156,0.139143,
2,0,0,1,0,30695.1,0.137933,0.137623,-1.50141,16,0.0139889,10,-0.00020663,-2.8235,-0.0795827,-0.741367,43.4237,0.137623,
2,0,0,1,0,30695.2,0.136435,0.1361,-1.56963,16,0.0138727,10,-0.000213626,-2.8042,-0.0805629,-0.732347,44.7552,0.1361,
2,0,0,1,0,30695.2,0.134936,0.134589,-1.63765,16,0.0137513,10,-0.00022041,-2.78578,-0.0836968,-0.704925,44.9539,0.134589,
2,0,0,1,0,30695.3,0.133438,0.133116,-1.70381,16,0.0136248,10,-0.000226805,-2.76858,-0.0875962,-0.673545,44.779,0.133116,
2,0,0,1,0,30695.4,0.13194,0.131644,-1.76856,16,0.0134935,10,-0.00023282,-2.75238,-0.0934784,-0.631162,43.6131,0.131644,
2,0,0,1,0,30695.5,0.130442,0.130084,-1.83622,16,0.0133572,10,-0.000238864,-2.73607,-0.0981197,-0.601306,42.9942,0.130084,
2,0,0,1,0,30695.5,0.128942,0.128617,-1.90067,16,0.0132157,10,-0.000244459,-2.72109,-0.107681,-0.547914,40.5079,0.128617,
2,0,0,1,0,30695.6,0.127446,0.12712,-1.95885,16,0.0130702,10,-0.000249009,-2.708,-0.122037,-0.483461,36.8586,0.12712,
2,0,0,1,0,30695.7,0.125947,0.125628,-2.01085,16,0.0129203,10,-0.00025262,-2.69662,-0.127617,-0.462321,36.2163,0.125628,
2,0,0,1,0,30695.8,0.124449,0.124138,-2.06176,16,0.0127664,10,-0.000255942,-2.68576,-0.137948,-0.427697,34.3303,0.124138,
2,0,0,1,0,30695.8,0.122951,0.122639,-2.11144,16,0.0126088,10,-0.000258946,-2.67542,-0.163812,-0.360169,29.5927,0.122639,
2,0,0,1,0,30695.9,0.121453,0.121127,-2.15463,16,0.0124478,10,-0.000260984,-2.66663,-0.18796,-0.313896,26.3144,0.1211272,
2,0,0,1,0,30696,0.119955,0.119672,-2.18779,16,0.0122839,10,-0.000261816,-2.65999,-0.20812,-0.28349,24.1989,0.119672,
2,0,0,1,0,30696.1,0.118456,0.118191,-2.22117,16,0.0121173,10,-0.000262523,-2.65342,-0.236624,-0.249341,21.5988,0.118191,
2,0,0,1,0,30696.1,0.116958,0.116639,-2.25538,16,0.0119483,10,-0.000263065,-2.64678,-0.304987,-0.193451,16.9826,0.116639,
2,0,0,1,0,30696.2,0.11546,0.115138,-2.27789,16,0.0117774,10,-0.000262272,-2.64247,-0.424282,-0.139058,12.3122,0.115138,
2,0,0,1,0,30696.3,0.113962,0.113616,-2.28842,16,0.011605,10,-0.000260001,-2.64046,-0.553276,-0.106638,9.52022,0.113616,
2,0,0,1,0,30696.4,0.112462,0.112054,-2.30427,16,0.0114314,10,-0.000258203,-2.63747,-0.72894,-0.0809394,7.26948,0.112054,
2,0,0,1,0,30696.4,0.110967,0.110634,-2.3123,16,0.0112575,10,-0.000255819,-2.63596,-1.29207,-0.045663,4.11221,0.110634,
2,0,0,1,0,30696.5,0.109467,0.109122,-2.31514,16,0.0110827,10,-0.000252633,-2.63542,10.6541,0.00553777,-0.499386,0.109122,
2,0,0,1,0,30696.6,0.107969,0.1076,-2.31262,16,0.010908,10,-0.000248838,-2.6359,1.87121,0.0315304,-2.8423,0.1076,
2,0,0,1,0,30696.6,0.106471,0.106155,-2.30632,16,0.0107338,10,-0.000244827,-2.63708,1.14545,0.0515083,-4.64263,0.106155,
2,0,0,1,0,30696.7,0.104973,0.104701,-2.30055,16,0.01056,10,-0.000240871,-2.63817,0.998909,0.0590644,-5.29971,0.104701,
2,0,0,1,0,30696.8,0.103474,0.103161,-2.2927,16,0.0103866,10,-0.000236517,-2.63965,0.65242,0.0904326,-8.07054,0.103161,
2,0,0,1,0,30696.9,0.101976,0.101623,-2.27748,16,0.0102143,10,-0.000231446,-2.64254,0.487304,0.121074,-10.7531,0.101623,
2,0,0,1,0,30696.9,0.100478,0.100144,-2.25947,16,0.0100431,10,-0.000226272,-2.64599,0.499587,0.118098,-10.4192,0.100144,
2,0,0,1,0,30697,0.0989798,0.0986636,-2.24717,16,0.00987314,10,-0.000221714,-2.64836,0.538929,0.109476,-9.59141,0.0986636,
2,0,0,1,0,30697.1,0.0974817,0.0971659,-2.22823,16,0.0097044,10,-0.000216507,-2.65204,0.477555,0.123546,-10.7448,0.0971659,
2,0,0,1,0,30697.2,0.0959821,0.0956318,-2.2113,16,0.00953664,10,-0.00021147,-2.65535,0.433713,0.136035,-11.7371,0.0956318,
2,0,0,1,0,30697.2,0.0944866,0.0941987,-2.18795,16,0.00937071,10,-0.000206102,-2.65996,0.412678,0.142969,-12.2379,0.0941987,
2,0,0,1,0,30697.3,0.0929871,0.0926452,-2.17304,16,0.00920581,10,-0.000201322,-2.66293,0.454312,0.129867,-11.0355,0.09264525,
2,0,0,1,0,30697.4,0.0914889,0.0911461,-2.16128,16,0.00904225,10,-0.000196992,-2.66529,0.483147,0.122116,-10.283,0.0911461,
2,0,0,1,0,30697.5,0.0899907,0.0896908,-2.14151,16,0.00887985,10,-0.000192074,-2.66928,0.417431,0.141341,-11.8057,0.0896908,
2,0,0,1,0,30697.5,0.0884925,0.0881719,-2.12111,16,0.00871877,10,-0.000187022,-2.67344,0.439157,0.134348,-11.1407,0.0881719,
2,0,0,1,0,30697.6,0.0869943,0.0866394,-2.10861,16,0.00855902,10,-0.000182688,-2.676,0.470288,0.125455,-10.3446,0.0866394,
2,0,0,1,0,30697.7,0.0854961,0.0851733,-2.09732,16,0.00840032,10,-0.000178636,-2.67834,0.532427,0.110813,-9.07312,0.0851733,
2,0,0,1,0,30697.8,0.083998,0.083678,-2.08234,16,0.00824258,10,-0.000174246,-2.68145,0.467372,0.126238,-10.2541,0.083678,
2,0,0,1,0,30697.8,0.0824998,0.0821795,-2.07179,16,0.00808577,10,-0.000170259,-2.68365,0.520961,0.113252,-9.14985,0.0821795,
2,0,0,1,0,30697.9,0.081002,0.0807091,-2.05741,16,0.00793021,10,-0.000166052,-2.68668,0.583652,0.101088,-8.11885,0.0807091,
2,0,0,1,0,30698,0.0795025,0.0791719,-2.04507,16,0.00777531,10,-0.000161912,-2.68929,0.681362,0.0865912,-6.91004,0.0791719,
2,0,0,1,0,30698.1,0.078007,0.0776817,-2.03454,16,0.00762156,10,-0.000158046,-2.69153,0.698837,0.084426,-6.68935,0.07768172,
2,0,0,1,0,30698.1,0.076507,0.0761551,-2.02044,16,0.00746825,10,-0.000153867,-2.69455,0.521439,0.113148,-8.91554,0.0761551,
2,0,0,1,0,30698.2,0.0750088,0.0746637,-2.00752,16,0.00731621,10,-0.000149889,-2.69734,0.572674,0.103026,-8.0791,0.0746637,
2,0,0,1,0,30698.3,0.0735106,0.0731927,-1.99568,16,0.00716506,10,-0.000146069,-2.69991,0.724046,0.0814865,-6.34777,0.0731927,
2,0,0,1,0,30698.4,0.0720124,0.0717025,-1.98493,16,0.00701466,10,-0.000142325,-2.70225,0.651401,0.090574,-7.02378,0.0717025,
2,0,0,1,0,30698.4,0.0705142,0.0702022,-1.97408,16,0.00686497,10,-0.000138585,-2.70463,0.517387,0.114035,-8.78235,0.0702022,
2,0,0,1,0,30698.5,0.069016,0.0687125,-1.95881,16,0.00671634,10,-0.000134595,-2.70801,0.544919,0.108273,-8.30294,0.0687125,
2,0,0,1,0,30698.6,0.0675179,0.0671835,-1.95395,16,0.0065687,10,-0.000131273,-2.70909,0.665122,0.0887055,-6.75419,0.0671835,
2,0,0,1,0,30698.7,0.0660179,0.0656741,-1.94408,16,0.00642151,10,-0.000127675,-2.71129,0.668929,0.0882007,-6.67361,0.0656741,
2,0,0,1,0,30698.7,0.0645224,0.0641963,-1.92965,16,0.00627543,10,-0.000123876,-2.71452,0.560034,0.105351,-7.917,0.0641963,
2,0,0,1,0,30698.8,0.0630229,0.0626824,-1.91459,16,0.00612994,10,-0.000120011,-2.71792,0.528279,0.111683,-8.35907,0.06268242,
2,0,0,1,0,30698.9,0.0615251,0.0612014,-1.90356,16,0.00598571,10,-0.000116501,-2.72043,0.578728,0.101948,-7.58291,0.0612014,
2,0,0,1,0,30699,0.0600269,0.059713,-1.89378,16,0.00584229,10,-0.000113083,-2.72267,0.608781,0.096915,-7.16336,0.05971298,
2,0,0,1,0,30699,0.0585287,0.0581954,-1.8818,16,0.00569959,10,-0.000109512,-2.72543,0.559506,0.10545,-7.7372,0.0581954,
2,0,0,1,0,30699.1,0.0570305,0.0567044,-1.87278,16,0.00555778,10,-0.000106195,-2.72751,0.522564,0.112905,-8.24834,0.0567044,
2,0,0,1,0,30699.2,0.0555323,0.055202,-1.8589,16,0.00541702,10,-0.000102615,-2.73074,0.538384,0.109587,-7.95682,0.055202,
2,0,0,1,0,30699.3,0.0540342,0.0537,-1.84837,16,0.00527703,10,-9.92573e-05,-2.73321,0.587763,0.100381,-7.23565,0.0537,
2,0,0,1,0,30699.3,0.052536,0.0522157,-1.83803,16,0.00513775,10,-9.59741e-05,-2.73565,0.516753,0.114174,-8.17707,0.0522157,
2,0,0,1,0,30699.4,0.0510378,0.0507023,-1.82552,16,0.0049994,10,-9.25583e-05,-2.73861,0.438158,0.134655,-9.59534,0.0507023,
2,0,0,1,0,30699.5,0.0495382,0.0492265,-1.80971,16,0.00486197,10,-8.9086e-05,-2.74239,0.508003,0.116141,-8.21151,0.0492265,
2,0,0,1,0,30699.6,0.0480427,0.047718,-1.7986,16,0.00472583,10,-8.58257e-05,-2.74506,0.526549,0.11205,-7.85524,0.047718,
2,0,0,1,0,30699.6,0.0465432,0.0462776,-1.78368,16,0.00459013,10,-8.25443e-05,-2.74868,0.517127,0.114092,-7.94247,0.0462776,
2,0,0,1,0,30699.7,0.045045,0.0447788,-1.77315,16,0.0044556,10,-7.93995e-05,-2.75125,0.457114,0.129071,-8.92276,0.0447788,
2,0,0,1,0,30699.8,0.0435468,0.0432466,-1.7537,16,0.00432217,10,-7.58418e-05,-2.75604,0.441144,0.133743,-9.1794,0.04324659,
2,0,0,1,0,30699.9,0.0420486,0.0417625,-1.74542,16,0.00418982,10,-7.28929e-05,-2.7581,0.476634,0.123785,-8.43882,0.0417625,
2,0,0,1,0,30699.9,0.0405504,0.0402316,-1.73375,16,0.00405827,10,-6.97513e-05,-2.76101,0.477256,0.123623,-8.35121,0.0402316,
2,0,0,1,0,30700,0.0390523,0.038724,-1.72104,16,0.00392763,10,-6.66454e-05,-2.76421,0.40438,0.145902,-9.78154,0.038724,
2,0,0,1,0,30700.1,0.0375541,0.0372239,-1.70519,16,0.00379812,10,-6.34739e-05,-2.76823,0.387848,0.152121,-10.132,0.0372239,
2,0,0,1,0,30700.2,0.0360559,0.0357674,-1.69061,16,0.00366984,10,-6.04687e-05,-2.77196,0.416102,0.141792,-9.36309,0.03576744,
2,0,0,1,0,30700.2,0.0345577,0.0341939,-1.67597,16,0.00354248,10,-5.7308e-05,-2.77573,0.467032,0.12633,-8.2687,0.0341939,
2,0,0,1,0,30700.3,0.0330582,0.0327587,-1.66558,16,0.00341595,10,-5.45623e-05,-2.77843,0.396317,0.148871,-9.65845,0.0327587,
2,0,0,1,0,30700.4,0.0315626,0.0312047,-1.64966,16,0.00329082,10,-5.1477e-05,-2.78261,0.407233,0.14488,-9.32252,0.03120471,
2,0,0,1,0,30700.5,0.0300631,0.0297418,-1.63329,16,0.00316658,10,-4.85769e-05,-2.78694,0.409713,0.144003,-9.18365,0.0297418,
2,0,0,1,0,30700.5,0.0285649,0.0282198,-1.62221,16,0.00304344,10,-4.57786e-05,-2.78989,0.489437,0.120547,-7.62915,0.02821984,
2,0,0,1,0,30700.6,0.0270667,0.0267308,-1.61039,16,0.0029212,10,-4.30469e-05,-2.79307,0.43258,0.136391,-8.56615,0.0267308,
2,0,0,1,0,30700.7,0.0255685,0.0252382,-1.59695,16,0.00279992,10,-4.03042e-05,-2.79671,0.404742,0.145772,-9.08349,0.0252382,
2,0,0,1,0,30700.8,0.0240704,0.0237598,-1.57895,16,0.00267976,10,-3.75156e-05,-2.80163,0.446102,0.132257,-8.17772,0.0237598,
2,0,0,1,0,30700.8,0.0225722,0.0222459,-1.57131,16,0.00256048,10,-3.49554e-05,-2.80374,0.484166,0.121859,-7.46765,0.0222459,
2,0,0,1,0,30700.9,0.021074,0.0207429,-1.55863,16,0.00244206,10,-3.23306e-05,-2.80726,0.467324,0.126251,-7.6857,0.0207429,
2,0,0,1,0,30701,0.0195758,0.0192319,-1.54836,16,0.00232446,10,-2.97778e-05,-2.81013,0.443194,0.133125,-8.03755,0.0192319,
2,0,0,1,0,30701.1,0.018078,0.0177535,-1.53594,16,0.00220772,10,-2.72683e-05,-2.81363,0.444231,0.132814,-7.96125,0.0177535,
2,0,0,1,0,30701.1,0.0165785,0.0162852,-1.5259,16,0.00209168,10,-2.48496e-05,-2.81647,0.641285,0.0920027,-5.49183,0.0162852,
2,0,0,1,0,30701.2,0.015083,0.0147399,-1.52081,16,0.00197664,10,-2.24166e-05,-2.81793,0.591584,0.0997323,-5.9093,0.0147399,
2,0,0,1,0,30701.3,0.013583,0.0132734,-1.5087,16,0.0018618,10,-2.00255e-05,-2.8214,0.538252,0.109614,-6.44793,0.0132734,
2,0,0,1,0,30701.4,0.0120848,0.0117885,-1.49875,16,0.00174777,10,-1.7668e-05,-2.82427,0.655122,0.0900595,-5.27632,0.01178845,
2,0,0,1,0,30701.4,0.0105866,0.0102744,-1.49125,16,0.00163453,10,-1.53217e-05,-2.82645,0.68544,0.086076,-5.0208,0.0102744,
2,0,0,1,0,30701.5,0.00908845,0.00876218,-1.48773,16,0.00152167,10,-1.30357e-05,-2.82748,0.983001,0.0600203,-3.48332,0.00876218,
2,0,0,1,0,30701.6,0.00759027,0.0072555,-1.48464,16,0.00140925,10,-1.07718e-05,-2.82838,0.801701,0.0735935,-4.25703,0.0072555,
2,0,0,1,0,30701.7,0.00609208,0.00573786,-1.47878,16,0.00129723,10,-8.48502e-06,-2.8301,0.884013,0.0667411,-3.84411,0.00573786,
2,0,0,1,0,30701.7,0.00459389,0.00428546,-1.47139,16,0.00118563,10,-6.30557e-06,-2.83227,2.11452,0.0279024,-1.60266,0.00428546,
2,0,0,1,0,30701.8,0.00309391,0.00280806,-1.47093,16,0.00107415,10,-4.13047e-06,-2.83241,-1.82749,-0.0322848,1.85768,0.002808064,
2,0,0,1,0,30701.9,0.0015984,0.00119962,-1.48681,16,0.000962173,10,-1.7836e-06,-2.82775, , , ,0.00119962,
2,0,0,1,0,30702,0.000199195,-0.000217111,-1.47191,16,0.000857605,10,3.19567e-07,-2.83212, , , ,-0.000217111,