File: Figure_codes/Fig_3-5/rawdata_trumpetplot_data/after 10th/20221101_1-115_003_TrumpetPlot_ParaChange_from10_every3_06_CV_C01_33.csv
mode,ox/red,error,control changes,counter inc.,time/s,control/V,Ewe/V,<I>/mA,cycle number,(Q-Qo)/C,I Range,P/W,log(|I|),Tafel slope mV/dec,alpha_eff,dI/d(E-IR),E-IR/V,
2,0,0,0,0,66164.3,2.44065e-05,-0.000287149,-1.40326,34,0.0000000E+000,10,4.02944e-07,-2.85286, , , ,-0.0002871489,
2,0,0,1,0,66164.4,0.00129787,0.000910239,-0.473444,34,-2.6762e-05,10,-4.30948e-07,-3.32473, , , ,0.000910239,
2,1,0,1,0,66164.4,0.00279427,0.00251698,0.141082,34,-3.14949e-05,10,3.55101e-07,-3.85053,-0.0401968,-1.46778,337.687,0.00251698,
2,1,0,1,0,66164.4,0.00429425,0.00398171,0.512387,34,-1.82767e-05,10,2.04018e-06,-3.2904,0.00284746,20.7202,212.798,0.00398171,
2,1,0,1,0,66164.5,0.00579422,0.00544876,0.76755,34,6.5055e-06,10,4.18219e-06,-3.11489,0.00995256,5.92813,151.504,0.00544876,
2,1,0,1,0,66164.5,0.00729063,0.00692837,0.954847,34,3.94227e-05,10,6.61553e-06,-3.02007,0.0182944,3.22502,112.493,0.00692837,
2,1,0,1,0,66164.5,0.00878703,0.00848688,1.09543,34,7.84273e-05,10,9.29678e-06,-2.96042,0.0291829,2.02173,83.4444,0.00848688,
2,1,0,1,0,66164.6,0.010287,0.00996944,1.20185,34,0.000122219,10,1.19817e-05,-2.92015,0.0405917,1.4535,66.9609,0.00996944,
2,1,0,1,0,66164.6,0.011787,0.0114844,1.28867,34,0.000169693,10,1.47996e-05,-2.88986,0.0543999,1.08456,54.1156,0.0114844,
2,1,0,1,0,66164.7,0.0132825,0.0129429,1.36748,34,0.000219957,10,1.76992e-05,-2.86408,0.0678771,0.869218,46.1,0.01294292,
2,1,0,1,0,66164.7,0.014778,0.0144281,1.42954,34,0.000272819,10,2.06256e-05,-2.8448,0.0793934,0.743135,41.0997,0.0144281,
2,1,0,1,0,66164.7,0.0162816,0.0159449,1.48693,34,0.000328239,10,2.37089e-05,-2.82771,0.0990516,0.595649,34.281,0.0159449,
2,1,0,1,0,66164.8,0.017778,0.0174789,1.53463,34,0.000385298,10,2.68236e-05,-2.814,0.114741,0.514201,30.6269,0.0174789,
2,1,0,1,0,66164.8,0.0192744,0.0189447,1.57403,34,0.000443917,10,2.98195e-05,-2.80299,0.133037,0.443484,27.2765,0.0189447,
2,1,0,1,0,66164.8,0.0207743,0.0203938,1.61322,34,0.000504297,10,3.28997e-05,-2.79231,0.141879,0.415848,26.1962,0.0203938,
2,1,0,1,0,66164.9,0.0222743,0.0219029,1.65137,34,0.000566199,10,3.61698e-05,-2.78215,0.148095,0.398394,25.7028,0.02190288,
2,1,0,1,0,66164.9,0.0237707,0.0234585,1.68536,34,0.000629319,10,3.95361e-05,-2.77331,0.166116,0.355173,23.4265,0.0234585,
2,1,0,1,0,66165,0.0252671,0.0249378,1.72254,34,0.000693709,10,4.29562e-05,-2.76383,0.174027,0.339028,22.8364,0.0249378,
2,1,0,1,0,66165,0.0267671,0.0264436,1.76269,34,0.000759574,10,4.6612e-05,-2.75382,0.169074,0.348959,23.9196,0.0264436,
2,1,0,1,0,66165,0.0282671,0.0279542,1.79733,34,0.000826745,10,5.02431e-05,-2.74537,0.182318,0.32361,22.5801,0.0279542,
2,1,0,1,0,66165.1,0.0297626,0.0294562,1.8274,34,0.000894971,10,5.38283e-05,-2.73817,0.202165,0.291841,20.774,0.0294562,
2,1,0,1,0,66165.1,0.0312581,0.0309436,1.85264,34,0.000964421,10,5.73273e-05,-2.73221,0.20026,0.294618,21.3434,0.0309436,
2,1,0,1,0,66165.1,0.0327616,0.0324343,1.88812,34,0.00103538,10,6.12398e-05,-2.72397,0.202912,0.290766,21.4624,0.0324343,
2,1,0,1,0,66165.2,0.034258,0.0339177,1.91966,34,0.00110717,10,6.51104e-05,-2.71678,0.222269,0.265444,19.9198,0.0339177,
2,1,0,1,0,66165.2,0.0357545,0.0354528,1.95046,34,0.00118019,10,6.91493e-05,-2.70986,0.218188,0.270409,20.5794,0.0354528,
2,1,0,1,0,66165.3,0.0372544,0.0369668,1.98568,34,0.0012546,10,7.34043e-05,-2.70209,0.231777,0.254555,19.6957,0.0369668,
2,1,0,1,0,66165.3,0.0387544,0.0383901,2.01727,34,0.0013301,10,7.74432e-05,-2.69524,0.211425,0.279058,21.9349,0.0383901,
2,1,0,1,0,66165.3,0.0402508,0.0399179,2.04959,34,0.0014066,10,8.18152e-05,-2.68833,0.211825,0.278531,22.2418,0.0399179,
2,1,0,1,0,66165.4,0.0417472,0.0414505,2.07884,34,0.00148434,10,8.61688e-05,-2.68218,0.217817,0.27087,21.9513,0.0414505,
2,1,0,1,0,66165.4,0.0432472,0.0429645,2.11273,34,0.00156352,10,9.07725e-05,-2.67516,0.246861,0.239001,19.68,0.04296454,
2,1,0,1,0,66165.4,0.0447472,0.0444049,2.14086,34,0.00164376,10,9.50646e-05,-2.66941,0.246605,0.239249,19.9984,0.04440495,
2,1,0,1,0,66165.5,0.0462427,0.0459512,2.17066,34,0.00172495,10,9.97444e-05,-2.66341,0.232067,0.254237,21.5553,0.0459512,
2,1,0,1,0,66165.5,0.0477382,0.0474478,2.20353,34,0.00180732,10,0.000104553,-2.65688,0.229381,0.257214,22.1183,0.0474478,
2,1,0,1,0,66165.6,0.0492417,0.0489385,2.23463,34,0.00189134,10,0.00010936,-2.65079,0.266503,0.221385,19.2813,0.0489385,
2,1,0,1,0,66165.6,0.0507381,0.0504469,2.26305,34,0.00197602,10,0.000114164,-2.64531,0.27932,0.211227,18.6383,0.0504469,
2,1,0,1,0,66165.6,0.0522345,0.0519262,2.295,34,0.00206178,10,0.000119171,-2.63922,0.260103,0.226833,20.2961,0.0519262,
2,1,0,1,0,66165.7,0.0537345,0.0534296,2.32516,34,0.00214895,10,0.000124232,-2.63355,0.255019,0.231355,20.9731,0.0534296,
2,1,0,1,0,66165.7,0.0552345,0.054936,2.35427,34,0.00223729,10,0.000129334,-2.62814,0.283315,0.208249,19.1141,0.054936,
2,1,0,1,0,66165.7,0.0567309,0.0563756,2.3756,34,0.00232644,10,0.000133926,-2.62423,0.302252,0.195202,18.1672,0.0563756,
2,1,0,1,0,66165.8,0.0582273,0.0579126,2.40743,34,0.00241656,10,0.00013942,-2.61845,0.294395,0.200411,18.8715,0.0579126,
2,1,0,1,0,66165.8,0.0597308,0.0594347,2.44083,34,0.00250828,10,0.00014507,-2.61246,0.292511,0.201702,19.181,0.0594347,
2,1,0,1,0,66165.9,0.0612264,0.0609564,2.46882,34,0.0026006,10,0.00015049,-2.60751,0.310841,0.189808,18.2386,0.0609564,
2,1,0,1,0,66165.9,0.0627219,0.0624587,2.49809,34,0.00269395,10,0.000156027,-2.60239,0.349372,0.168875,16.4027,0.0624587,
2,1,0,1,0,66165.9,0.0642218,0.0639256,2.51939,34,0.00278844,10,0.000161053,-2.5987,0.33457,0.176346,17.3308,0.0639256,
2,1,0,1,0,66166,0.0657218,0.0653915,2.54304,34,0.00288389,10,0.000166293,-2.59465,0.327689,0.180049,17.8769,0.0653915,
2,1,0,1,0,66166,0.0672182,0.0668753,2.57015,34,0.00298017,10,0.000171879,-2.59004,0.353257,0.167017,16.7568,0.0668753,
2,1,0,1,0,66166,0.0687146,0.0684325,2.59579,34,0.0030774,10,0.000177636,-2.58573,0.401127,0.147086,14.9208,0.0684325,
2,1,0,1,0,66166.1,0.0702146,0.0698651,2.61473,34,0.00317572,10,0.000182678,-2.58257,0.391922,0.15054,15.399,0.0698651,
2,1,0,1,0,66166.1,0.0717146,0.0713781,2.64331,34,0.00327492,10,0.000188674,-2.57785,0.413646,0.142634,14.701,0.07137806,
2,1,0,1,0,66166.2,0.073211,0.0728964,2.66587,34,0.00337469,10,0.000194333,-2.57416,0.404983,0.145685,15.1383,0.0728964,
2,1,0,1,0,66166.2,0.0747074,0.0743804,2.68825,34,0.00347533,10,0.000199953,-2.57053,0.468792,0.125855,13.1737,0.0743804,
2,1,0,1,0,66166.2,0.0762109,0.075853,2.70087,34,0.00357722,10,0.000204869,-2.5685,0.473307,0.124655,13.166,0.075853,
2,1,0,1,0,66166.3,0.0777064,0.0774001,2.72637,34,0.00367932,10,0.000211021,-2.56441,0.442059,0.133466,14.1942,0.0774001,
2,1,0,1,0,66166.3,0.079202,0.0788756,2.74582,34,0.00378221,10,0.000216578,-2.56133,0.468241,0.126004,13.5103,0.0788756,
2,1,0,1,0,66166.3,0.0807019,0.0803663,2.7626,34,0.00388615,10,0.00022202,-2.55868,0.56944,0.103611,11.1805,0.0803663,
2,1,0,1,0,66166.4,0.0822019,0.0818781,2.77987,34,0.00399074,10,0.000227611,-2.55598,0.571562,0.103226,11.2087,0.0818781,
2,1,0,1,0,66166.4,0.0836983,0.0834015,2.79969,34,0.00409559,10,0.000233498,-2.55289,0.543911,0.108474,11.8498,0.0834015,
2,1,0,1,0,66166.5,0.0851947,0.084884,2.82005,34,0.00420117,10,0.000239377,-2.54974,0.49904,0.118227,12.9933,0.08488404,
2,1,0,1,0,66166.5,0.0866947,0.0863838,2.83985,34,0.0043078,10,0.000245317,-2.54671,0.511471,0.115353,12.7604,0.0863838,
2,1,0,1,0,66166.5,0.0881947,0.0878758,2.85969,34,0.00441515,10,0.000251297,-2.54368,0.548696,0.107528,11.9865,0.0878758,
2,1,0,1,0,66166.6,0.0896911,0.0893252,2.87287,34,0.00452282,10,0.000256619,-2.54168,0.502461,0.117422,13.1862,0.0893252,
2,1,0,1,0,66166.6,0.0911875,0.0908652,2.89314,34,0.00463125,10,0.000262885,-2.53863,0.480242,0.122855,13.8871,0.09086518,
2,1,0,1,0,66166.6,0.0926901,0.0923731,2.91554,34,0.00474113,10,0.000269318,-2.53528,0.433949,0.135961,15.4916,0.0923731,
2,1,0,1,0,66166.7,0.0941857,0.0938914,2.93925,34,0.00485125,10,0.00027597,-2.53176,0.411343,0.143433,16.4637,0.0938914,
2,1,0,1,0,66166.7,0.0956821,0.0953669,2.96123,34,0.00496218,10,0.000282403,-2.52853,0.387313,0.152332,17.6417,0.0953669,
2,1,0,1,0,66166.7,0.097182,0.096868,2.99233,34,0.00507441,10,0.000289861,-2.52399,0.322423,0.18299,21.3738,0.096868,
2,1,0,1,0,66166.8,0.098682,0.0983653,3.02947,34,0.00518784,10,0.000297994,-2.51863,0.304588,0.193704,22.8825,0.0983653,
2,1,0,1,0,66166.8,0.100178,0.0998604,3.06159,34,0.00530224,10,0.000305731,-2.51405,0.289979,0.203463,24.3372,0.09986043,
2,1,0,1,0,66166.9,0.101675,0.101354,3.0966,34,0.00541801,10,0.000313852,-2.50912,0.273505,0.215718,26.117,0.101354,
2,1,0,1,0,66166.9,0.103175,0.102884,3.14069,34,0.00553551,10,0.000323126,-2.50297,0.245778,0.240054,29.4825,0.1028838,
2,1,0,1,0,66166.9,0.104675,0.104347,3.18728,34,0.00565468,10,0.000332585,-2.49658,0.228928,0.257723,32.0851,0.104347,
2,1,0,1,0,66167,0.106171,0.105867,3.23799,34,0.00577536,10,0.000342797,-2.48972,0.225777,0.26132,32.9482,0.105867,
2,1,0,1,0,66167,0.107667,0.107333,3.28218,34,0.00589784,10,0.000352287,-2.48384,0.232057,0.254248,32.578,0.107333,
2,1,0,1,0,66167,0.10917,0.108828,3.33463,34,0.00602275,10,0.0003629,-2.47695,0.22206,0.265694,34.5498,0.108828,
2,1,0,1,0,66167.1,0.110666,0.110372,3.38455,34,0.00614897,10,0.000373559,-2.4705,0.223232,0.264299,34.9117,0.110372,
2,1,0,1,0,66167.1,0.112162,0.111814,3.4384,34,0.00627716,10,0.000384461,-2.46364,0.232335,0.253943,34.0525,0.111814,
2,1,0,1,0,66167.2,0.113662,0.113346,3.48877,34,0.00640762,10,0.000395437,-2.45733,0.245758,0.240074,32.6657,0.113346,
2,1,0,1,0,66167.2,0.115162,0.114809,3.5319,34,0.00653984,10,0.000405492,-2.45199,0.260146,0.226796,31.3011,0.114809,
2,1,0,1,0,66167.2,0.116658,0.116332,3.58519,34,0.00667356,10,0.000417073,-2.44549,0.259095,0.227715,31.8216,0.116332,
2,1,0,1,0,66167.3,0.118155,0.11782,3.63354,34,0.00680914,10,0.000428105,-2.43967,0.284172,0.207621,29.3889,0.11782,
2,1,0,1,0,66167.3,0.119655,0.119316,3.67767,34,0.00694674,10,0.000438805,-2.43443,0.32445,0.181846,26.0345,0.119316,
2,1,0,1,0,66167.3,0.121155,0.120798,3.70816,34,0.00708573,10,0.000447938,-2.43084,0.351795,0.167711,24.2695,0.120798,
2,1,0,1,0,66167.4,0.122651,0.122318,3.74792,34,0.00722572,10,0.000458439,-2.42621,0.376113,0.156868,22.8831,0.122318,
2,1,0,1,0,66167.4,0.124147,0.123808,3.77756,34,0.00736695,10,0.000467692,-2.42279,0.44028,0.134006,19.7345,0.123808,
2,1,0,1,0,66167.5,0.12565,0.125349,3.80299,34,0.00751005,10,0.000476701,-2.41987,0.497984,0.118478,17.5849,0.125349,
2,1,0,1,0,66167.5,0.127146,0.126813,3.82409,34,0.00765336,10,0.000484944,-2.41747,0.592425,0.0995906,14.8827,0.126813,
2,1,0,1,0,66167.5,0.128642,0.128345,3.85009,34,0.00779743,10,0.000494141,-2.41453,0.677998,0.087021,13.0701,0.128345,
2,1,0,1,0,66167.6,0.130142,0.129797,3.86871,34,0.00794271,10,0.000502148,-2.41243,0.74056,0.0796694,12.019,0.129797,
2,1,0,1,0,66167.6,0.131642,0.131332,3.88986,34,0.00808871,10,0.000510863,-2.41007,1.00993,0.0584198,8.84395,0.131332,
2,1,0,1,0,66167.6,0.133139,0.132856,3.90157,34,0.00823485,10,0.000518349,-2.40876,1.20616,0.0489154,7.43527,0.132856,
2,1,0,1,0,66167.7,0.134635,0.13427,3.90766,34,0.00838133,10,0.000524681,-2.40808,1.32961,0.0443741,6.76807,0.13427,
2,1,0,1,0,66167.7,0.136135,0.135804,3.91723,34,0.00852861,10,0.000531974,-2.40702,1.96121,0.0300834,4.59669,0.135804,
2,1,0,1,0,66167.8,0.137635,0.137318,3.91907,34,0.00867618,10,0.00053816,-2.40682,8.98625,0.00656559,1.00403,0.137318,
2,1,0,1,0,66167.8,0.13913,0.138826,3.91662,34,0.00882341,10,0.000543727,-2.40709,-2.03736,-0.0289591,-4.42306,0.138826,
2,1,0,1,0,66167.8,0.140626,0.140324,3.91028,34,0.0089703,10,0.000548706,-2.40779,-0.828467,-0.0712159,-10.8459,0.140324,
2,1,0,1,0,66167.9,0.14213,0.141807,3.88889,34,0.00911746,10,0.000551471,-2.41017,-0.639134,-0.0923124,-13.9777,0.141807,
2,1,0,1,0,66167.9,0.143626,0.143321,3.86345,34,0.00926304,10,0.000553713,-2.41302,-0.386554,-0.152631,-22.9215,0.143321,
2,1,0,1,0,66167.9,0.145122,0.144822,3.82485,34,0.00940733,10,0.000553922,-2.41739,-0.258626,-0.228128,-33.8807,0.144822,
2,1,0,1,0,66168,0.146622,0.146291,3.76178,34,0.00955007,10,0.000550315,-2.42461,-0.205677,-0.286857,-42.0141,0.146291,
2,1,0,1,0,66168,0.148122,0.147798,3.69352,34,0.00969044,10,0.000545894,-2.43256,-0.168603,-0.349934,-50.2857,0.147798,
2,1,0,1,0,66168.1,0.149619,0.149313,3.61138,34,0.00982766,10,0.000539228,-2.44233,-0.14125,-0.4177,-58.7737,0.149313,
2,1,0,1,0,66168.1,0.151115,0.150798,3.51834,34,0.00996159,10,0.00053056,-2.45366,-0.119764,-0.492634,-67.4831,0.150798,
2,1,0,1,0,66168.1,0.152615,0.152318,3.41452,34,0.0100922,10,0.000520093,-2.46667,-0.111369,-0.529769,-70.4421,0.152318,
2,1,0,1,0,66168.2,0.154115,0.153748,3.30635,34,0.0102188,10,0.000508344,-2.48065,-0.101288,-0.5825,-75.0477,0.153748,
2,1,0,1,0,66168.2,0.155611,0.155297,3.19319,34,0.0103409,10,0.000495893,-2.49578,-0.099339,-0.593926,-73.9513,0.155297,
2,1,0,1,0,66168.2,0.157106,0.156767,3.08167,34,0.0104587,10,0.000483103,-2.51121,-0.0945527,-0.623991,-74.8892,0.156767,
2,1,0,1,0,66168.3,0.15861,0.158293,2.96979,34,0.010573,10,0.000470098,-2.52727,-0.0944555,-0.624633,-72.3685,0.158293,
2,1,0,1,0,66168.3,0.160106,0.159786,2.85646,34,0.0106824,10,0.000456423,-2.54417,-0.0957497,-0.61619,-68.9414,0.159786,
2,1,0,1,0,66168.4,0.161602,0.161271,2.75778,34,0.0107881,10,0.000444751,-2.55944,-0.0977184,-0.603776,-65.2225,0.161271,
2,1,0,1,0,66168.4,0.163102,0.162789,2.6674,34,0.0108904,10,0.000434222,-2.57391,-0.101886,-0.579078,-60.414,0.162789,
2,1,0,1,0,66168.4,0.164602,0.164288,2.58098,34,0.0109893,10,0.000424023,-2.58822,-0.106769,-0.552593,-55.7565,0.164288,
2,1,0,1,0,66168.5,0.166099,0.16577,2.50209,34,0.0110848,10,0.000414772,-2.6017,-0.115679,-0.51003,-49.8801,0.16577,
2,1,0,1,0,66168.5,0.167595,0.167265,2.42798,34,0.0111775,10,0.000406115,-2.61476,-0.129366,-0.456072,-43.2884,0.167265,
2,1,0,1,0,66168.5,0.169095,0.168759,2.36593,34,0.0112679,10,0.000399273,-2.626,-0.131687,-0.448033,-41.3617,0.168759,
2,1,0,1,0,66168.6,0.170595,0.170284,2.30495,34,0.011356,10,0.000392494,-2.63734,-0.138191,-0.426946,-38.4488,0.170284,
2,1,0,1,0,66168.6,0.172091,0.171787,2.24355,34,0.0114416,10,0.000385413,-2.64907,-0.145235,-0.406238,-35.7431,0.171787,
2,1,0,1,0,66168.7,0.173586,0.17325,2.19783,34,0.0115253,10,0.000380775,-2.65801,-0.168436,-0.350282,-30.1344,0.17325,
2,1,0,1,0,66168.7,0.17509,0.174793,2.1518,34,0.0116076,10,0.000376121,-2.6672,-0.180202,-0.327411,-27.5491,0.174793,
2,1,0,1,0,66168.7,0.176586,0.176266,2.11471,34,0.0116879,10,0.000372751,-2.67475,-0.184858,-0.319163,-26.3221,0.176266,
2,1,0,1,0,66168.8,0.178082,0.177758,2.0725,34,0.0117668,10,0.000368403,-2.68351,-0.189829,-0.310807,-25.1915,0.1777578,
2,1,0,1,0,66168.8,0.179582,0.179228,2.04372,34,0.0118444,10,0.000366291,-2.68958,-0.222514,-0.265152,-21.1436,0.179228,
2,1,0,1,0,66168.8,0.181082,0.180759,2.0131,34,0.0119209,10,0.000363885,-2.69613,-0.236384,-0.249594,-19.6051,0.180759,
2,1,0,1,0,66168.9,0.182579,0.182258,1.98331,34,0.0119961,10,0.000361475,-2.70261,-0.244855,-0.240959,-18.6749,0.182258,
2,1,0,1,0,66168.9,0.184075,0.18377,1.95825,34,0.0120704,10,0.000359869,-2.70813,-0.285831,-0.206416,-15.8145,0.18377,
2,1,0,1,0,66169,0.185579,0.185248,1.9336,34,0.0121441,10,0.000358195,-2.71363,-0.30879,-0.191068,-14.4583,0.185248,
2,1,0,1,0,66169,0.187074,0.186781,1.91564,34,0.0122167,10,0.000357805,-2.71769,-0.372316,-0.158468,-11.8627,0.186781,
2,1,0,1,0,66169,0.18857,0.188267,1.8969,34,0.0122885,10,0.000357123,-2.72196,-0.374164,-0.157685,-11.67,0.188267,
2,1,0,1,0,66169.1,0.19007,0.189718,1.88121,34,0.0123598,10,0.000356899,-2.72556,-0.358195,-0.164715,-12.0751,0.189718,
2,1,0,1,0,66169.1,0.19157,0.191209,1.86172,34,0.0124305,10,0.000355978,-2.73009,-0.421625,-0.139935,-10.1759,0.191209,
2,1,0,1,0,66169.1,0.193066,0.192743,1.84769,34,0.0125004,10,0.000356128,-2.73337,-0.545,-0.108257,-7.81646,0.192743,
2,1,0,1,0,66169.2,0.194563,0.19425,1.83701,34,0.0125699,10,0.000356838,-2.73589,-0.48631,-0.121322,-8.70046,0.19425,
2,1,0,1,0,66169.2,0.196063,0.195776,1.8226,34,0.0126391,10,0.000356821,-2.73931,-0.49469,-0.119267,-8.50106,0.195776,
2,1,0,1,0,66169.3,0.197563,0.19725,1.80673,34,0.0127078,10,0.000356377,-2.74311,-0.517415,-0.114028,-8.08287,0.19725,
2,1,0,1,0,66169.3,0.199059,0.198764,1.79892,34,0.0127759,10,0.000357561,-2.74499,-0.533399,-0.110611,-7.7801,0.198764,
2,1,0,1,0,66169.3,0.200555,0.200184,1.79443,34,0.0128436,10,0.000359215,-2.74607,-0.67823,-0.0869912,-6.078,0.200184,
2,1,0,1,0,66169.4,0.202059,0.201729,1.78604,34,0.0129114,10,0.000360296,-2.74811,-0.732814,-0.0805115,-5.59878,0.201729,
2,1,0,1,0,66169.4,0.203554,0.20319,1.77514,34,0.0129785,10,0.000360691,-2.75077,-0.702123,-0.0840309,-5.82216,0.20319,
2,1,0,1,0,66169.4,0.20505,0.204726,1.76651,34,0.0130453,10,0.000361651,-2.75288,-1.0839,-0.0544333,-3.76687,0.204726,
2,1,0,1,0,66169.5,0.20655,0.206256,1.76027,34,0.013112,10,0.000363067,-2.75442,-1.16979,-0.0504364,-3.47303,0.206256,
2,1,0,1,0,66169.5,0.20805,0.207718,1.7543,34,0.0131786,10,0.0003644,-2.7559,-1.02244,-0.0577051,-3.9565,0.2077184,
2,1,0,1,0,66169.6,0.209546,0.209245,1.75083,34,0.0132447,10,0.000366352,-2.75676,-0.731442,-0.0806625,-5.51549,0.209245,
2,1,0,1,0,66169.6,0.211043,0.210732,1.74549,34,0.0133105,10,0.000367832,-2.75808,-0.904708,-0.0652144,-4.43882,0.210732,
2,1,0,1,0,66169.6,0.212543,0.212247,1.74035,34,0.0133763,10,0.000369385,-2.75936,-1.23314,-0.0478452,-3.24136,0.212247,
2,1,0,1,0,66169.7,0.214043,0.213735,1.73742,34,0.0134419,10,0.000371348,-2.76009,-1.27501,-0.046274,-3.1245,0.213735,
2,1,0,1,0,66169.7,0.215539,0.215233,1.73121,34,0.0135072,10,0.000372615,-2.76165,-1.01813,-0.0579494,-3.90384,0.215233,
2,1,0,1,0,66169.7,0.217035,0.216738,1.72209,34,0.0135722,10,0.000373242,-2.76394,-1.27775,-0.0461749,-3.10332,0.216738,
2,1,0,1,0,66169.8,0.218538,0.218218,1.71822,34,0.0136374,10,0.000374946,-2.76492,-1.50926,-0.039092,-2.62048,0.218218,
2,1,0,1,0,66169.8,0.220034,0.219734,1.7147,34,0.0137022,10,0.000376778,-2.76581,-2.59101,-0.022771,-1.52687,0.219734,
2,1,0,1,0,66169.9,0.22153,0.221211,1.71192,34,0.0137668,10,0.000378695,-2.76652,-1.04569,-0.056422,-3.76946,0.221211,
2,1,0,1,0,66169.9,0.22303,0.222789,1.70359,34,0.0138314,10,0.000379542,-2.76863,-1.38582,-0.042574,-2.83316,0.2227888,
2,1,0,1,0,66169.9,0.22453,0.224233,1.70356,34,0.0138958,10,0.000381995,-2.76864,-1.88354,-0.0313241,-2.08082,0.2242334,
2,1,0,1,0,66170,0.226026,0.225741,1.69889,34,0.01396,10,0.000383509,-2.76983,-2.79064,-0.0211421,-1.39973,0.225741,
2,1,0,1,0,66170,0.227523,0.227251,1.69856,34,0.014024,10,0.000385998,-2.76992,-1.34124,-0.043989,-2.91023,0.227251,
2,1,0,1,0,66170,0.229023,0.228707,1.69411,34,0.0140881,10,0.000387455,-2.77106,-1.50301,-0.0392546,-2.59556,0.228707,
2,1,0,1,0,66170.1,0.230523,0.230167,1.68807,34,0.014152,10,0.000388538,-2.77261,-2.19162,-0.0269207,-1.77998,0.230167,
2,1,0,1,0,66170.1,0.232019,0.23171,1.68408,34,0.0142157,10,0.000390218,-2.77364,-2.19253,-0.0269095,-1.77309,0.23171,
2,1,0,1,0,66170.2,0.233515,0.233227,1.68454,34,0.0142793,10,0.000392879,-2.77352,-2.60947,-0.02261,-1.48555,0.233227,
2,1,0,1,0,66170.2,0.235018,0.234711,1.68645,34,0.0143431,10,0.00039583,-2.77303,-2.56928,-0.0229636,-1.50535,0.234711,
2,1,0,1,0,66170.2,0.236514,0.236209,1.67754,34,0.0144064,10,0.00039625,-2.77533,-3.35536,-0.0175838,-1.15219,0.2362088,
2,1,0,1,0,66170.3,0.23801,0.23771,1.67773,34,0.0144696,10,0.000398813,-2.77528,-3.04821,-0.0193556,-1.26388,0.23771,
2,1,0,1,0,66170.3,0.23951,0.239178,1.67692,34,0.014533,10,0.000401083,-2.77549,-2.28234,-0.0258507,-1.68692,0.239178,
2,1,0,1,0,66170.3,0.24101,0.240749,1.67013,34,0.0145962,10,0.00040208,-2.77725,-1.79085,-0.0329453,-2.152,0.240749,
2,1,0,1,0,66170.4,0.242506,0.242129,1.66453,34,0.0146592,10,0.000403031,-2.77871,-3.24289,-0.0181936,-1.18647,0.242129,
2,1,0,1,0,66170.4,0.244003,0.243701,1.66528,34,0.0147221,10,0.00040583,-2.77851,-3.88423,-0.0151896,-0.98941,0.243701,
2,1,0,1,0,66170.5,0.245503,0.245196,1.66693,34,0.0147852,10,0.000408726,-2.77808,-2.53707,-0.0232552,-1.51254,0.245196,
2,1,0,1,0,66170.5,0.247003,0.246697,1.66431,34,0.0148481,10,0.000410581,-2.77877,-2.04976,-0.0287839,-1.86755,0.246697,
2,1,0,1,0,66170.5,0.248499,0.248192,1.66208,34,0.0149108,10,0.000412515,-2.77935,-1.77394,-0.0332592,-2.15265,0.248192,
2,1,0,1,0,66170.6,0.249995,0.249694,1.66138,34,0.0149734,10,0.000414836,-2.77953,-3.2416,-0.0182009,-1.17709,0.249694,
2,1,0,1,0,66170.6,0.251498,0.251204,1.65604,34,0.0150362,10,0.000416003,-2.78093,-6.2061,-0.00950677,-0.613768,0.2512036,
2,1,0,1,0,66170.6,0.252994,0.252646,1.65432,34,0.0150987,10,0.000417958,-2.78138,-1.91326,-0.0308374,-1.99092,0.252646,
2,1,0,1,0,66170.7,0.25449,0.254196,1.65075,34,0.0151611,10,0.000419613,-2.78232,-2.44085,-0.0241719,-1.55976,0.2541959,
2,1,0,1,0,66170.7,0.25599,0.255688,1.64722,34,0.0152234,10,0.000421175,-2.78325,-2.33592,-0.0252577,-1.62899,0.255688,
2,1,0,1,0,66170.8,0.25749,0.257238,1.64596,34,0.0152858,10,0.000423402,-2.78358,-6.73597,-0.00875895,-0.563318,0.257238,
2,1,0,1,0,66170.8,0.258987,0.258692,1.65005,34,0.015348,10,0.000426854,-2.7825,-3.31248,-0.0178114,-1.14437,0.258692,
2,1,0,1,0,66170.8,0.260483,0.260156,1.64757,34,0.01541,10,0.000428626,-2.78316,-3.3971,-0.0173678,-1.11189,0.260156,
2,1,0,1,0,66170.9,0.261983,0.261628,1.64332,34,0.0154722,10,0.000429939,-2.78428,-4.08276,-0.014451,-0.92576,0.261628,
2,1,0,1,0,66170.9,0.263483,0.263169,1.63815,34,0.0155342,10,0.000431111,-2.78565,-6.56711,-0.00898416,-0.574721,0.263169,
2,1,0,1,0,66170.9,0.264978,0.264736,1.63818,34,0.0155961,10,0.000433685,-2.78564,-4.69267,-0.0125728,-0.804345,0.264736,
2,1,0,1,0,66171,0.266474,0.266131,1.63169,34,0.0156578,10,0.000434244,-2.78736,-2.11988,-0.0278317,-1.77849,0.266131,
2,1,0,1,0,66171,0.267977,0.267698,1.62995,34,0.0157198,10,0.000436335,-2.78782,-15.5798,-0.00378696,-0.241356,0.2676976,
2,1,0,1,0,66171.1,0.269474,0.269151,1.63097,34,0.0157814,10,0.000438977,-2.78755,-12.3288,-0.00478556,-0.304955,0.269151,
2,1,0,1,0,66171.1,0.27097,0.270674,1.63217,34,0.0158429,10,0.000441786,-2.78724,-3.03996,-0.0194082,-1.23325,0.270674,
2,1,0,1,0,66171.1,0.27247,0.27219,1.62854,34,0.0159046,10,0.000443273,-2.7882,-2.05699,-0.0286828,-1.81845,0.27219,
2,1,0,1,0,66171.2,0.27397,0.273635,1.62668,34,0.0159661,10,0.000445115,-2.7887,-1.96533,-0.0300203,-1.90037,0.273635,
2,1,0,1,0,66171.2,0.275467,0.275117,1.62171,34,0.0160273,10,0.000446161,-2.79003,-2.20231,-0.0267901,-1.69714,0.275117,
2,1,0,1,0,66171.2,0.276963,0.276696,1.62025,34,0.0160885,10,0.000448316,-2.79042,-2.23562,-0.0263909,-1.6702,0.276696,
2,1,0,1,0,66171.3,0.278463,0.278154,1.6177,34,0.0161498,10,0.000449969,-2.7911,-2.43011,-0.0242788,-1.53382,0.278154,
2,1,0,1,0,66171.3,0.279963,0.279715,1.61394,34,0.016211,10,0.000451444,-2.79211,-2.36126,-0.0249867,-1.5789,0.279715,
2,1,0,1,0,66171.4,0.281459,0.281144,1.61401,34,0.0162718,10,0.000453768,-2.79209,-2.19104,-0.0269278,-1.69729,0.281144,
2,1,0,1,0,66171.4,0.282954,0.282652,1.61334,34,0.0163326,10,0.000456015,-2.79227,-5.53389,-0.0106616,-0.6703,0.282652,
2,1,0,1,0,66171.4,0.284458,0.28413,1.61452,34,0.0163937,10,0.000458734,-2.79196,-3.92269,-0.0150407,-0.943384,0.28413,
2,1,0,1,0,66171.5,0.285954,0.285635,1.60416,34,0.0164544,10,0.000458203,-2.79475,-3.18279,-0.0185372,-1.16095,0.285635,
2,1,0,1,0,66171.5,0.28745,0.287162,1.60249,34,0.0165149,10,0.000460174,-2.79521,-1.85988,-0.0317225,-1.98342,0.287162,
2,1,0,1,0,66171.5,0.28895,0.288643,1.59802,34,0.0165755,10,0.000461258,-2.79642,-5.04212,-0.0117014,-0.731793,0.288643,
2,1,0,1,0,66171.6,0.29045,0.290156,1.59648,34,0.016636,10,0.00046323,-2.79684,-3.31224,-0.0178127,-1.11249,0.290156,
2,1,0,1,0,66171.6,0.291947,0.291607,1.59556,34,0.0166963,10,0.000465277,-2.79709,-1.51978,-0.0388213,-2.41776,0.291607,
2,1,0,1,0,66171.7,0.293443,0.293118,1.59143,34,0.0167565,10,0.000466478,-2.79821,-1.59614,-0.0369643,-2.30106,0.2931183,
2,1,0,1,0,66171.7,0.294943,0.294614,1.59181,34,0.0168167,10,0.00046897,-2.79811,-3.58428,-0.0164608,-1.02228,0.294614,
2,1,0,1,0,66171.7,0.296443,0.296141,1.59279,34,0.0168769,10,0.000471691,-2.79784,-2.9777,-0.019814,-1.22759,0.2961413,
2,1,0,1,0,66171.8,0.297939,0.297665,1.58889,34,0.0169368,10,0.000472959,-2.79891,-1.9782,-0.0298251,-1.84773,0.297665,
2,1,0,1,0,66171.8,0.299434,0.299159,1.58119,34,0.0169966,10,0.000473028,-2.80102,-0.0206388,-2.8587,-157.321,0.299159,
2,1,0,0,0,66171.8,0.299962,0.299651,1.52885,34,0.0170202,10,0.000458121,-2.81564,0.00154292,38.2393,1357.3,0.299651,
2,1,0,1,0,66171.9,0.298689,0.298425,0.650361,34,0.0170514,10,0.000194084,-3.18685,0.00264611,22.2969,455.396,0.2984252,
2,1,0,1,0,66171.9,0.297189,0.296866,0.191636,34,0.0170655,10,5.68902e-05,-3.71752,0.00458097,12.8794,255.773,0.296866,
2,0,0,1,0,66171.9,0.295692,0.295417,-0.0620158,34,0.0170669,10,-1.83205e-05,-4.2075,0.0482571,1.22262,140.517,0.295417,
2,0,0,1,0,66172,0.294196,0.29388,-0.216432,34,0.0170609,10,-6.36053e-05,-3.66468,-0.00238072,-24.7825,86.8895,0.29388,
2,0,0,1,0,66172,0.292696,0.292388,-0.319426,34,0.0170501,10,-9.33964e-05,-3.49563,-0.010376,-5.68622,61.2321,0.292388,
2,0,0,1,0,66172,0.291196,0.29084,-0.398992,34,0.017036,10,-0.000116043,-3.39904,-0.0184414,-3.19932,46.4259,0.29084,
2,0,0,1,0,66172.1,0.2897,0.289407,-0.461341,34,0.0170194,10,-0.000133515,-3.33598,-0.0278083,-2.12167,36.7509,0.289407,
2,0,0,1,0,66172.1,0.288205,0.287888,-0.503953,34,0.0170007,10,-0.000145082,-3.29761,-0.0368181,-1.60247,30.9617,0.287888,
2,0,0,1,0,66172.2,0.286701,0.286409,-0.542162,34,0.0169803,10,-0.00015528,-3.26587,-0.0496504,-1.18831,25.1656,0.286409,
2,0,0,1,0,66172.2,0.285205,0.284893,-0.578532,34,0.0169586,10,-0.00016482,-3.23767,-0.0583326,-1.01144,22.8663,0.284893,
2,0,0,1,0,66172.2,0.283708,0.283406,-0.616373,34,0.0169356,10,-0.000174684,-3.21016,-0.0701071,-0.841569,20.0237,0.283406,
2,0,0,1,0,66172.3,0.282208,0.281896,-0.64298,34,0.0169114,10,-0.000181254,-3.1918,-0.0837116,-0.7048,17.5052,0.281896,
2,0,0,1,0,66172.3,0.280708,0.280373,-0.670343,34,0.0168862,10,-0.000187946,-3.1737,-0.0981881,-0.600888,15.6254,0.280373,
2,0,0,1,0,66172.3,0.279212,0.278898,-0.693283,34,0.0168602,10,-0.000193355,-3.15909,-0.10741,-0.549297,14.7651,0.278898,
2,0,0,1,0,66172.4,0.277716,0.277436,-0.714531,34,0.0168334,10,-0.000198236,-3.14598,-0.106761,-0.552636,15.3566,0.277436,
2,0,0,1,0,66172.4,0.276216,0.275907,-0.735013,34,0.0168056,10,-0.000202795,-3.1337,-0.132233,-0.446182,12.7936,0.275907,
2,0,0,1,0,66172.5,0.274716,0.274428,-0.754342,34,0.0167771,10,-0.000207012,-3.12243,-0.144439,-0.408477,12.0087,0.274428,
2,0,0,1,0,66172.5,0.27322,0.272931,-0.76843,34,0.016748,10,-0.000209728,-3.1144,-0.154476,-0.381937,11.4973,0.272931,
2,0,0,1,0,66172.5,0.271725,0.271428,-0.788006,34,0.0167183,10,-0.000213887,-3.10347,-0.134642,-0.438199,13.4837,0.271428,
2,0,0,1,0,66172.6,0.270221,0.269935,-0.808325,34,0.0166876,10,-0.000218196,-3.09241,-0.168553,-0.350038,10.9726,0.2699354,
2,0,0,1,0,66172.6,0.268725,0.268417,-0.823018,34,0.0166566,10,-0.000220912,-3.08459,-0.189819,-0.310822,9.94433,0.268417,
2,0,0,1,0,66172.6,0.267228,0.266891,-0.835763,34,0.016625,10,-0.000223058,-3.07792,-0.201916,-0.292201,9.51492,0.266891,
2,0,0,1,0,66172.7,0.265728,0.265424,-0.845458,34,0.0165928,10,-0.000224405,-3.07291,-0.187898,-0.314,10.4041,0.265424,
2,0,0,1,0,66172.7,0.264228,0.263949,-0.86415,34,0.01656,10,-0.000228092,-3.06341,-0.219117,-0.269262,9.09161,0.263949,
2,0,0,1,0,66172.8,0.262732,0.262434,-0.876812,34,0.0165268,10,-0.000230105,-3.05709,-0.252376,-0.233778,8.00538,0.262434,
2,0,0,1,0,66172.8,0.261236,0.260941,-0.891366,34,0.0164931,10,-0.000232594,-3.04994,-0.252954,-0.233244,8.11395,0.260941,
2,0,0,1,0,66172.8,0.259736,0.259417,-0.904248,34,0.0164589,10,-0.000234577,-3.04371,-0.222935,-0.264651,9.35247,0.259417,
2,0,0,1,0,66172.9,0.258236,0.257936,-0.917757,34,0.0164242,10,-0.000236723,-3.03727,-0.237491,-0.248431,8.85996,0.257936,
2,0,0,1,0,66172.9,0.256741,0.256446,-0.929394,34,0.0163891,10,-0.00023834,-3.0318,-0.269706,-0.218757,7.92132,0.2564463,
2,0,0,1,0,66172.9,0.255241,0.254923,-0.938951,34,0.0163535,10,-0.00023936,-3.02736,-0.312247,-0.188953,6.91481,0.254923,
2,0,0,1,0,66173,0.253741,0.253421,-0.948561,34,0.0163175,10,-0.000240385,-3.02293,-0.285665,-0.206536,7.65765,0.253421,
2,0,0,1,0,66173,0.252245,0.251936,-0.96147,34,0.0162811,10,-0.000242229,-3.01706,-0.259743,-0.227148,8.51515,0.251936,
2,0,0,1,0,66173.1,0.250748,0.250418,-0.97134,34,0.0162443,10,-0.000243241,-3.01263,-0.277675,-0.212478,8.07968,0.250418,
2,0,0,1,0,66173.1,0.249248,0.248967,-0.984429,34,0.016207,10,-0.00024509,-3.00682,-0.307444,-0.191905,7.37952,0.248967,
2,0,0,1,0,66173.1,0.247748,0.24741,-0.99512,34,0.0161693,10,-0.000246203,-3.00212,-0.385383,-0.153095,5.941,0.24741,
2,0,0,1,0,66173.2,0.246252,0.245944,-1.00675,34,0.0161313,10,-0.000247605,-2.99708,-0.272411,-0.216585,8.47205,0.245944,
2,0,0,1,0,66173.2,0.244756,0.24438,-1.01999,34,0.016093,10,-0.000249265,-2.99141,-0.334811,-0.176219,6.98117,0.24438,
2,0,0,1,0,66173.2,0.243252,0.242912,-1.02617,34,0.0160539,10,-0.000249268,-2.98878,-0.371427,-0.158847,6.34704,0.242912,
2,0,0,1,0,66173.3,0.241756,0.241463,-1.02912,34,0.0160148,10,-0.000248494,-2.98753,-0.40045,-0.147334,5.96334,0.241463,
2,0,0,1,0,66173.3,0.240261,0.23991,-1.04284,34,0.0159754,10,-0.000250187,-2.98178,-0.370549,-0.159223,6.50702,0.23991,
2,0,0,1,0,66173.4,0.238761,0.238484,-1.05254,34,0.0159354,10,-0.000251015,-2.97776,-0.343214,-0.171904,7.07498,0.238484,
2,0,0,1,0,66173.4,0.237261,0.236913,-1.0656,34,0.0158951,10,-0.000252455,-2.9724,-0.500678,-0.11784,4.88518,0.2369128,
2,0,0,1,0,66173.4,0.235765,0.235394,-1.07269,34,0.0158545,10,-0.000252505,-2.96953,-0.482544,-0.122269,5.11063,0.235394,
2,0,0,1,0,66173.5,0.234268,0.233945,-1.08118,34,0.0158137,10,-0.000252938,-2.9661,-0.460088,-0.128236,5.4281,0.233945,
2,0,0,1,0,66173.5,0.232768,0.232427,-1.0927,34,0.0157723,10,-0.000253974,-2.9615,-0.334882,-0.176182,7.48325,0.232427,
2,0,0,1,0,66173.5,0.231268,0.230985,-1.10153,34,0.0157306,10,-0.000254438,-2.958,-0.426098,-0.138466,5.9395,0.230985,
2,0,0,1,0,66173.6,0.229772,0.229443,-1.10861,34,0.0156886,10,-0.000254364,-2.95522,-0.519935,-0.113476,4.91209,0.229443,
2,0,0,1,0,66173.6,0.228275,0.227958,-1.11684,34,0.0156463,10,-0.000254594,-2.95201,-0.453079,-0.13022,5.69952,0.227958,
2,0,0,1,0,66173.7,0.226772,0.226486,-1.12521,34,0.0156035,10,-0.000254845,-2.94877,-0.393239,-0.150036,6.61175,0.226486,
2,0,0,1,0,66173.7,0.225276,0.22497,-1.13774,34,0.0155606,10,-0.000255958,-2.94396,-0.403736,-0.146135,6.48209,0.2249696,
2,0,0,1,0,66173.7,0.223781,0.223458,-1.14685,34,0.0155174,10,-0.000256272,-2.94049,-0.444372,-0.132772,5.91927,0.223458,
2,0,0,1,0,66173.8,0.222281,0.221987,-1.1538,34,0.0154737,10,-0.000256129,-2.93787,-0.412122,-0.143162,6.43156,0.221987,
2,0,0,1,0,66173.8,0.220781,0.220485,-1.16261,34,0.0154297,10,-0.000256338,-2.93457,-0.40877,-0.144336,6.54707,0.220485,
2,0,0,1,0,66173.8,0.219285,0.218975,-1.17335,34,0.0153854,10,-0.000256933,-2.93057,-0.507525,-0.11625,5.31,0.218975,
2,0,0,1,0,66173.9,0.217788,0.217429,-1.17896,34,0.0153408,10,-0.00025634,-2.9285,-0.529588,-0.111407,5.13166,0.217429,
2,0,0,1,0,66173.9,0.216288,0.21591,-1.18261,34,0.0152957,10,-0.000255336,-2.92716,-0.503696,-0.117134,5.43759,0.21591,
2,0,0,1,0,66174,0.214788,0.214453,-1.19539,34,0.0152505,10,-0.000256355,-2.92249,-0.54631,-0.107997,5.05697,0.214453,
2,0,0,1,0,66174,0.213292,0.212991,-1.20281,34,0.0152049,10,-0.000256187,-2.9198,-0.424868,-0.138867,6.53818,0.212991,
2,0,0,1,0,66174,0.211796,0.211505,-1.21632,34,0.0151591,10,-0.000257258,-2.91495,-0.560285,-0.105303,4.97589,0.211505,
2,0,0,1,0,66174.1,0.210293,0.209964,-1.22486,34,0.0151126,10,-0.000257176,-2.91191,-0.449023,-0.131396,6.26677,0.209964,
2,0,0,1,0,66174.1,0.208797,0.208484,-1.23245,34,0.0150662,10,-0.000256947,-2.90923,-0.441612,-0.133602,6.42406,0.208484,
2,0,0,1,0,66174.1,0.207301,0.206979,-1.23915,34,0.0150194,10,-0.000256479,-2.90687,-0.372891,-0.158223,7.6561,0.2069788,
2,0,0,1,0,66174.2,0.205801,0.20546,-1.25125,34,0.014972,10,-0.000257082,-2.90266,-0.534635,-0.110356,5.38306,0.20546,
2,0,0,1,0,66174.2,0.204301,0.203979,-1.25901,34,0.0149243,10,-0.000256812,-2.89997,-0.713845,-0.082651,4.06746,0.203979,
2,0,0,1,0,66174.3,0.202804,0.202474,-1.26519,34,0.0148765,10,-0.000256167,-2.89785,-0.590013,-0.0999978,4.94787,0.202474,
2,0,0,1,0,66174.3,0.201308,0.200988,-1.27671,34,0.0148284,10,-0.000256603,-2.89391,-0.418043,-0.141134,7.02586,0.200988,
2,0,0,1,0,66174.3,0.199808,0.199442,-1.28801,34,0.0147798,10,-0.000256883,-2.89008,-0.51181,-0.115277,5.76988,0.199442,
2,0,0,1,0,66174.4,0.198308,0.197964,-1.2962,34,0.0147308,10,-0.0002566,-2.88733,-0.436527,-0.135158,6.81919,0.197964,
2,0,0,1,0,66174.4,0.196812,0.196474,-1.30143,34,0.0146816,10,-0.000255697,-2.88558,-0.516712,-0.114184,5.79752,0.196474,
2,0,0,1,0,66174.4,0.195316,0.194989,-1.30821,34,0.0146322,10,-0.000255087,-2.88332,-0.399315,-0.147753,7.57241,0.1949892,
2,0,0,1,0,66174.5,0.193813,0.193502,-1.32085,34,0.0145821,10,-0.000255588,-2.87915,-0.411055,-0.143533,7.40451,0.193502,
2,0,0,1,0,66174.5,0.192317,0.191984,-1.32781,34,0.0145318,10,-0.000254918,-2.87686,-0.422612,-0.139608,7.25109,0.191984,
2,0,0,1,0,66174.5,0.190821,0.190511,-1.33556,34,0.0144813,10,-0.00025444,-2.87434,-0.506934,-0.116386,6.08238,0.190511,
2,0,0,1,0,66174.6,0.189321,0.188984,-1.34814,34,0.0144303,10,-0.000254777,-2.87026,-0.464784,-0.126941,6.68539,0.188984,
2,0,0,1,0,66174.6,0.187821,0.18749,-1.36285,34,0.0143789,10,-0.000255521,-2.86555,-0.480319,-0.122835,6.49232,0.1874903,
2,0,0,1,0,66174.7,0.186324,0.18597,-1.37301,34,0.0143273,10,-0.00025534,-2.86233,-0.545048,-0.108247,5.76627,0.18597,
2,0,0,1,0,66174.7,0.184828,0.184551,-1.38062,34,0.0142753,10,-0.000254796,-2.85993,-0.613226,-0.0962125,5.1826,0.184551,
2,0,0,1,0,66174.7,0.183328,0.182976,-1.38768,34,0.0142229,10,-0.000253912,-2.85771,-0.464364,-0.127056,6.89176,0.182976,
2,0,0,1,0,66174.8,0.181828,0.181515,-1.39904,34,0.01417,10,-0.000253946,-2.85417,-0.415149,-0.142118,7.76971,0.181515,
2,0,0,1,0,66174.8,0.180332,0.179995,-1.41281,34,0.0141168,10,-0.000254299,-2.84992,-0.40662,-0.145099,8.00425,0.179995,
2,0,0,1,0,66174.8,0.178836,0.178506,-1.42316,34,0.0140631,10,-0.000254041,-2.84675,-0.506982,-0.116375,6.46682,0.178506,
2,0,0,1,0,66174.9,0.177333,0.176987,-1.43393,34,0.0140088,10,-0.000253788,-2.84347,-0.411899,-0.143239,8.03074,0.1769875,
2,0,0,1,0,66174.9,0.175837,0.175516,-1.44899,34,0.0139543,10,-0.00025432,-2.83894,-0.365422,-0.161457,9.09326,0.175516,
2,0,0,1,0,66175,0.174341,0.174013,-1.4616,34,0.0138994,10,-0.000254338,-2.83517,-0.365222,-0.161545,9.19692,0.174013,
2,0,0,1,0,66175,0.172841,0.17255,-1.47177,34,0.0138438,10,-0.000253954,-2.83216,-0.429243,-0.137451,7.89039,0.17255,
2,0,0,1,0,66175,0.171341,0.171015,-1.48342,34,0.0137878,10,-0.000253687,-2.82874,-0.416827,-0.141546,8.2176,0.1710147,
2,0,0,1,0,66175.1,0.169844,0.169561,-1.49739,34,0.0137314,10,-0.000253899,-2.82466,-0.36567,-0.161348,9.47497,0.169561,
2,0,0,1,0,66175.1,0.168348,0.167982,-1.51759,34,0.0136744,10,-0.000254927,-2.81885,-0.331732,-0.177854,10.5311,0.167982,
2,0,0,1,0,66175.1,0.166848,0.166512,-1.53242,34,0.0136166,10,-0.000255166,-2.81462,-0.341566,-0.172734,10.3222,0.166512,
2,0,0,1,0,66175.2,0.165348,0.164996,-1.54846,34,0.0135582,10,-0.000255489,-2.8101,-0.319085,-0.184904,11.1595,0.164996,
2,0,0,1,0,66175.2,0.163852,0.163552,-1.56495,34,0.0134994,10,-0.000255952,-2.8055,-0.301097,-0.19595,11.9838,0.163552,
2,0,0,1,0,66175.3,0.162357,0.162033,-1.58412,34,0.0134399,10,-0.00025668,-2.80021,-0.281028,-0.209943,12.9899,0.162033,
2,0,0,1,0,66175.3,0.160853,0.160534,-1.60259,34,0.0133794,10,-0.000257271,-2.79518,-0.269125,-0.219229,13.7311,0.1605344,
2,0,0,1,0,66175.3,0.159357,0.159044,-1.62312,34,0.0133183,10,-0.000258147,-2.78965,-0.268954,-0.219369,13.9294,0.159044,
2,0,0,1,0,66175.4,0.15786,0.157522,-1.64373,34,0.0132566,10,-0.000258923,-2.78417,-0.240591,-0.245229,15.8368,0.157522,
2,0,0,1,0,66175.4,0.156361,0.156018,-1.67406,34,0.0131937,10,-0.000261184,-2.77623,-0.213954,-0.27576,18.0433,0.156018,
2,0,0,1,0,66175.4,0.154861,0.154519,-1.70555,34,0.0131297,10,-0.000263541,-2.76813,-0.205924,-0.286513,19.0283,0.154519,
2,0,0,1,0,66175.5,0.153364,0.153009,-1.73539,34,0.0130648,10,-0.00026553,-2.7606,-0.204534,-0.28846,19.5271,0.153009,
2,0,0,1,0,66175.5,0.151868,0.15155,-1.76543,34,0.0129989,10,-0.000267551,-2.75315,-0.184937,-0.319028,21.989,0.15155,
2,0,0,1,0,66175.6,0.150368,0.150057,-1.80093,34,0.0129315,10,-0.000270242,-2.7445,-0.161621,-0.365053,25.6763,0.150057,
2,0,0,1,0,66175.6,0.148868,0.148544,-1.84215,34,0.0128626,10,-0.000273641,-2.73467,-0.146291,-0.403306,28.9951,0.148544,
2,0,0,1,0,66175.6,0.147372,0.147041,-1.88151,34,0.0127923,10,-0.00027666,-2.72549,-0.141276,-0.417623,30.7681,0.147041,
2,0,0,1,0,66175.7,0.145877,0.145574,-1.92422,34,0.0127204,10,-0.000280115,-2.71575,-0.129812,-0.454503,34.3652,0.145574,
2,0,0,1,0,66175.7,0.144373,0.144104,-1.98375,34,0.0126462,10,-0.000285866,-2.70251,-0.120192,-0.490883,38.1233,0.144104,
2,0,0,1,0,66175.7,0.142877,0.142529,-2.04671,34,0.0125703,10,-0.000291716,-2.68894,-0.112203,-0.525831,42.0257,0.1425291,
2,0,0,1,0,66175.8,0.14138,0.141041,-2.11015,34,0.0124919,10,-0.000297618,-2.67569,-0.110027,-0.536231,44.1337,0.141041,
2,0,0,1,0,66175.8,0.13988,0.139565,-2.18198,34,0.0124107,10,-0.000304527,-2.66115,-0.104762,-0.563182,47.9959,0.139565,
2,0,0,1,0,66175.9,0.13838,0.138066,-2.25421,34,0.0123269,10,-0.000311228,-2.64701,-0.0995469,-0.592685,52.3134,0.138066,
2,0,0,1,0,66175.9,0.136884,0.136526,-2.33961,34,0.0122404,10,-0.000319418,-2.63086,-0.0960101,-0.614518,56.1492,0.136526,
2,0,0,1,0,66175.9,0.135388,0.135055,-2.42309,34,0.0121506,10,-0.000327251,-2.61563,-0.0974188,-0.605633,57.3449,0.135055,
2,0,0,1,0,66176,0.133888,0.133598,-2.51431,34,0.0120574,10,-0.000335906,-2.59958,-0.0997686,-0.591368,58.016,0.133598,
2,0,0,1,0,66176,0.132389,0.132035,-2.59956,34,0.0119609,10,-0.000343233,-2.5851,-0.0973196,-0.60625,61.6104,0.132035,
2,0,0,1,0,66176,0.130893,0.130591,-2.69533,34,0.0118613,10,-0.000351984,-2.56939,-0.0960587,-0.614208,64.5351,0.130591,
2,0,0,1,0,66176.1,0.129393,0.129069,-2.79173,34,0.0117577,10,-0.000360325,-2.55413,-0.102582,-0.575149,62.4503,0.129069,
2,0,0,1,0,66176.1,0.127893,0.127547,-2.88462,34,0.0116507,10,-0.000367923,-2.53991,-0.110037,-0.536186,60.1711,0.127547,
2,0,0,1,0,66176.2,0.126397,0.126049,-2.9708,34,0.0115405,10,-0.000374467,-2.52713,-0.113084,-0.521737,60.4476,0.126049,
2,0,0,1,0,66176.2,0.1249,0.124601,-3.06048,34,0.011427,10,-0.000381338,-2.51421,-0.118051,-0.499784,59.7036,0.124601,
2,0,0,1,0,66176.2,0.1234,0.123061,-3.14859,34,0.0113099,10,-0.000387469,-2.50188,-0.125202,-0.471239,57.9009,0.123061,
2,0,0,1,0,66176.3,0.1219,0.121553,-3.23137,34,0.0111895,10,-0.000392784,-2.49061,-0.138538,-0.425876,53.6838,0.121553,
2,0,0,1,0,66176.3,0.120404,0.120098,-3.31123,34,0.0110664,10,-0.000397672,-2.48001,-0.147349,-0.40041,51.7285,0.120098,
2,0,0,1,0,66176.3,0.118908,0.118595,-3.39365,34,0.0109404,10,-0.00040247,-2.46933,-0.156112,-0.377933,49.969,0.118595,
2,0,0,1,0,66176.4,0.117404,0.117093,-3.47013,34,0.0108109,10,-0.000406329,-2.45965,-0.165511,-0.356471,48.1241,0.117093,
2,0,0,1,0,66176.4,0.115908,0.11558,-3.53955,34,0.0106792,10,-0.0004091,-2.45105,-0.184712,-0.319416,43.9578,0.11558,
2,0,0,1,0,66176.5,0.114413,0.1141,-3.59877,34,0.0105451,10,-0.000410619,-2.44385,-0.200524,-0.29423,41.2944,0.1140999,
2,0,0,1,0,66176.5,0.112913,0.112591,-3.65857,34,0.0104084,10,-0.000411922,-2.43669,-0.217571,-0.271175,38.7009,0.112591,
2,0,0,1,0,66176.5,0.111413,0.111112,-3.71083,34,0.0102695,10,-0.000412316,-2.43053,-0.238354,-0.247531,35.8394,0.111112,
2,0,0,1,0,66176.6,0.109917,0.109574,-3.76089,34,0.010129,10,-0.000412096,-2.42471,-0.277328,-0.212744,31.2065,0.109574,
2,0,0,1,0,66176.6,0.10842,0.10812,-3.8064,34,0.00998683,10,-0.000411549,-2.41949,-0.336723,-0.175218,25.9664,0.10812,
2,0,0,1,0,66176.6,0.10692,0.106562,-3.83998,34,0.00984285,10,-0.000409198,-2.41567,-0.428827,-0.137584,20.58,0.106562,
2,0,0,1,0,66176.7,0.10542,0.10516,-3.87198,34,0.00969765,10,-0.000407177,-2.41207,-0.465166,-0.126836,19.1139,0.10516,
2,0,0,1,0,66176.7,0.103924,0.103603,-3.89753,34,0.00955175,10,-0.000403795,-2.40921,-0.671743,-0.0878313,13.3208,0.103603,
2,0,0,1,0,66176.8,0.102427,0.102135,-3.91173,34,0.00940508,10,-0.000399525,-2.40763,-1.21422,-0.0485909,7.40558,0.102135,
2,0,0,1,0,66176.8,0.100924,0.100648,-3.91433,34,0.00925726,10,-0.000393969,-2.40734,-4.54863,-0.0129709,1.98188,0.100648,
2,0,0,1,0,66176.8,0.0994284,0.0990683,-3.91822,34,0.0091101,10,-0.000388171,-2.40691,-36.2194,-0.00162896,0.249179,0.0990683,
2,0,0,1,0,66176.9,0.0979329,0.097631,-3.91586,34,0.00896289,10,-0.000382309,-2.40717,4.56633,0.0129207,-1.974,0.097631,
2,0,0,1,0,66176.9,0.0964329,0.096111,-3.91166,34,0.00881546,10,-0.000375953,-2.40764,1.25122,0.0471539,-7.18496,0.096111,
2,0,0,1,0,66176.9,0.094933,0.0946492,-3.89754,34,0.00866841,10,-0.0003689,-2.40921,0.911145,0.0647537,-9.83602,0.09464924,
2,0,0,1,0,66177,0.0934365,0.0930844,-3.88625,34,0.00852236,10,-0.00036175,-2.41047,0.845743,0.0697611,-10.5603,0.0930844,
2,0,0,1,0,66177,0.0919401,0.0916277,-3.86886,34,0.00837685,10,-0.000354495,-2.41242,0.727565,0.0810924,-12.2193,0.09162765,
2,0,0,1,0,66177.1,0.0904402,0.0901198,-3.84461,34,0.00823157,10,-0.000346475,-2.41515,0.63107,0.0934921,-14.0191,0.0901198,
2,0,0,1,0,66177.1,0.0889402,0.0886231,-3.82451,34,0.00808709,10,-0.00033894,-2.41742,0.551889,0.106906,-15.9658,0.0886231,
2,0,0,1,0,66177.1,0.0874438,0.0871147,-3.8001,34,0.00794391,10,-0.000331045,-2.4202,0.62546,0.0943306,-14.0114,0.0871147,
2,0,0,1,0,66177.2,0.0859483,0.0855911,-3.77951,34,0.00780149,10,-0.000323492,-2.42256,0.6963,0.0847336,-12.5089,0.0855911,
2,0,0,1,0,66177.2,0.0844447,0.0840892,-3.7618,34,0.00765905,10,-0.000316327,-2.4246,0.680098,0.0867522,-12.7325,0.08408919,
2,0,0,1,0,66177.2,0.0829492,0.0826312,-3.74183,34,0.00751812,10,-0.000309192,-2.42692,0.650176,0.0907446,-13.2436,0.08263123,
2,0,0,1,0,66177.3,0.0814528,0.0811334,-3.7221,34,0.00737801,10,-0.000301986,-2.42921,0.707645,0.0833751,-12.1014,0.0811334,
2,0,0,1,0,66177.3,0.0799528,0.0796458,-3.70415,34,0.00723821,10,-0.00029502,-2.43131,0.888037,0.0664386,-9.60004,0.0796458,
2,0,0,1,0,66177.4,0.0784529,0.0781634,-3.68607,34,0.007099,10,-0.000288116,-2.43344,0.873161,0.0675706,-9.72947,0.0781634,
2,0,0,1,0,66177.4,0.0769565,0.0766567,-3.66918,34,0.00696072,10,-0.000281267,-2.43543,0.736334,0.0801267,-11.4906,0.0766567,
2,0,0,1,0,66177.4,0.0754601,0.0751134,-3.65325,34,0.00682303,10,-0.000274408,-2.43732,0.718824,0.0820785,-11.7255,0.0751134,
2,0,0,1,0,66177.5,0.0739601,0.0736323,-3.64235,34,0.00668559,10,-0.000268195,-2.43862,0.838053,0.0704012,-10.0085,0.0736323,
2,0,0,1,0,66177.5,0.0724601,0.0721242,-3.62878,34,0.00654865,10,-0.000261723,-2.44024,0.900947,0.0654866,-9.26722,0.0721242,
2,0,0,1,0,66177.5,0.0709637,0.0706108,-3.61722,34,0.00641259,10,-0.000255415,-2.44163,0.844249,0.0698846,-9.85383,0.0706108,
2,0,0,1,0,66177.6,0.0694682,0.0691188,-3.60137,34,0.00627706,10,-0.000248922,-2.44353,0.820345,0.071921,-10.0927,0.0691188,
2,0,0,1,0,66177.6,0.0679646,0.0676456,-3.58525,34,0.00614144,10,-0.000242527,-2.44548,0.939685,0.062787,-8.79116,0.0676456,
2,0,0,1,0,66177.7,0.0664691,0.0661706,-3.56799,34,0.00600706,10,-0.000236096,-2.44758,0.915118,0.0644725,-8.98637,0.0661706,
2,0,0,1,0,66177.7,0.0649727,0.0646619,-3.55561,34,0.00587309,10,-0.000229913,-2.44909,0.793867,0.0743197,-10.3135,0.0646619,
2,0,0,1,0,66177.7,0.0634727,0.0631231,-3.54008,34,0.00573934,10,-0.000223461,-2.45099,0.742706,0.0794392,-10.9746,0.0631231,
2,0,0,1,0,66177.8,0.0619728,0.0616509,-3.52139,34,0.00560629,10,-0.000217096,-2.45329,0.713984,0.0826349,-11.373,0.06165085,
2,0,0,1,0,66177.8,0.0604764,0.0601372,-3.50889,34,0.00547419,10,-0.000211015,-2.45483,0.728193,0.0810225,-11.0802,0.0601372,
2,0,0,1,0,66177.8,0.05898,0.0586737,-3.4946,34,0.00534268,10,-0.000205041,-2.4566,0.709637,0.0831411,-11.3238,0.0586737,
2,0,0,1,0,66177.9,0.05748,0.0571457,-3.47458,34,0.00521146,10,-0.000198558,-2.4591,0.688094,0.0857442,-11.6096,0.0571457,
2,0,0,1,0,66177.9,0.05598,0.0556729,-3.4551,34,0.00508095,10,-0.000192355,-2.46154,0.669198,0.0881652,-11.894,0.0556729,
2,0,0,1,0,66178,0.0544836,0.0541504,-3.4363,34,0.00495149,10,-0.000186077,-2.46391,0.742261,0.0794869,-10.6631,0.0541504,
2,0,0,1,0,66178,0.0529881,0.0526742,-3.42226,34,0.00482257,10,-0.000180265,-2.46569,0.687936,0.0857638,-11.4512,0.0526742,
2,0,0,1,0,66178,0.0514846,0.051166,-3.39688,34,0.00469367,10,-0.000173805,-2.46892,0.592868,0.0995162,-13.2155,0.05116595,
2,0,0,1,0,66178.1,0.049989,0.0496777,-3.37951,34,0.00456622,10,-0.000167886,-2.47115,0.592966,0.0994997,-13.1318,0.0496777,
2,0,0,1,0,66178.1,0.0484926,0.0481706,-3.36231,34,0.00443956,10,-0.000161964,-2.47336,0.59328,0.0994471,-13.0398,0.0481706,
2,0,0,1,0,66178.1,0.0469927,0.0466598,-3.34313,34,0.00431326,10,-0.00015599,-2.47585,0.578937,0.101911,-13.2806,0.0466598,
2,0,0,1,0,66178.2,0.0454927,0.0451506,-3.32621,34,0.00418766,10,-0.00015018,-2.47805,0.531646,0.110976,-14.3778,0.0451506,
2,0,0,1,0,66178.2,0.0439963,0.043689,-3.30061,34,0.00406314,10,-0.0001442,-2.48141,0.528998,0.111532,-14.3712,0.043689,
2,0,0,1,0,66178.3,0.0424999,0.0421676,-3.27587,34,0.0039395,10,-0.000138136,-2.48467,0.552521,0.106783,-13.6829,0.0421676,
2,0,0,1,0,66178.3,0.0409999,0.0406767,-3.25707,34,0.0038163,10,-0.000132487,-2.48717,0.508008,0.11614,-14.7787,0.0406767,
2,0,0,1,0,66178.3,0.0394999,0.0391997,-3.23465,34,0.00369383,10,-0.000126797,-2.49017,0.490078,0.120389,-15.2062,0.03919974,
2,0,0,1,0,66178.4,0.0380044,0.0376634,-3.21689,34,0.00357257,10,-0.000121159,-2.49256,0.453401,0.130127,-16.3183,0.0376634,
2,0,0,1,0,66178.4,0.0365089,0.0361676,-3.19085,34,0.0034522,10,-0.000115405,-2.49609,0.462526,0.12756,-15.8736,0.0361676,
2,0,0,1,0,66178.4,0.0350054,0.0346553,-3.1692,34,0.00333206,10,-0.000109829,-2.49905,0.490746,0.120225,-14.8464,0.0346553,
2,0,0,1,0,66178.5,0.033509,0.0332179,-3.14745,34,0.00321336,10,-0.000104552,-2.50204,0.485974,0.121406,-14.8867,0.0332179,
2,0,0,1,0,66178.5,0.0320125,0.0316826,-3.1191,34,0.00309557,10,-9.8821e-05,-2.50597,0.396697,0.148728,-18.1129,0.03168257,
2,0,0,1,0,66178.6,0.0305126,0.0302152,-3.09146,34,0.0029784,10,-9.34091e-05,-2.50984,0.424245,0.13907,-16.8066,0.0302152,
2,0,0,1,0,66178.6,0.0290126,0.0287043,-3.07159,34,0.0028622,10,-8.81679e-05,-2.51264,0.497381,0.118621,-14.2328,0.0287043,
2,0,0,1,0,66178.6,0.0275162,0.0272022,-3.04547,34,0.00274714,10,-8.28433e-05,-2.51635,0.446214,0.132224,-15.7453,0.0272022,
2,0,0,1,0,66178.7,0.0260198,0.0256716,-3.0255,34,0.00263285,10,-7.76695e-05,-2.5192,0.42949,0.137372,-16.2023,0.0256716,
2,0,0,1,0,66178.7,0.0245198,0.0242081,-3.00224,34,0.00251921,10,-7.26783e-05,-2.52256,0.423195,0.139416,-16.3356,0.0242081,
2,0,0,1,0,66178.7,0.0230198,0.0227393,-2.98135,34,0.00240654,10,-6.77939e-05,-2.52559,0.451533,0.130666,-15.1772,0.0227393,
2,0,0,1,0,66178.8,0.0215243,0.0212215,-2.95861,34,0.00229493,10,-6.27861e-05,-2.52891,0.480142,0.12288,-14.1725,0.0212215,
2,0,0,1,0,66178.8,0.0200288,0.0197102,-2.93772,34,0.00218412,10,-5.79031e-05,-2.53199,0.474172,0.124427,-14.2501,0.0197102,
2,0,0,1,0,66178.9,0.0185253,0.0181989,-2.91205,34,0.0020735,10,-5.29962e-05,-2.5358,0.52596,0.112176,-12.7701,0.0181989,
2,0,0,1,0,66178.9,0.0170289,0.0167386,-2.88904,34,0.00196431,10,-4.83584e-05,-2.53925,0.534901,0.110301,-12.4781,0.0167386,
2,0,0,1,0,66178.9,0.0155325,0.0151881,-2.87628,34,0.00185583,10,-4.36851e-05,-2.54117,0.566805,0.104092,-11.6939,0.0151881,
2,0,0,1,0,66179,0.0140325,0.0136858,-2.85975,34,0.00174762,10,-3.91379e-05,-2.54367,0.605389,0.0974581,-10.8731,0.01368577,
2,0,0,1,0,66179,0.0125325,0.012183,-2.84368,34,0.00164009,10,-3.46445e-05,-2.54612,0.529814,0.11136,-12.3434,0.012183,
2,0,0,1,0,66179,0.0110361,0.0107117,-2.82893,34,0.00153354,10,-3.03028e-05,-2.54838,0.565634,0.104308,-11.501,0.0107117,
2,0,0,1,0,66179.1,0.0095397,0.00917863,-2.81325,34,0.00142753,10,-2.58218e-05,-2.55079,0.763684,0.0772571,-8.47023,0.00917863,
2,0,0,1,0,66179.1,0.00803616,0.00771078,-2.79731,34,0.00132149,10,-2.15695e-05,-2.55326,0.725046,0.0813741,-8.88584,0.00771078,
2,0,0,1,0,66179.2,0.00654064,0.00621174,-2.78484,34,0.00121646,10,-1.72987e-05,-2.5552,0.715902,0.0824135,-8.95852,0.00621174,
2,0,0,1,0,66179.2,0.00504513,0.00470827,-2.76567,34,0.00111195,10,-1.30215e-05,-2.5582,0.981277,0.0601257,-6.51362,0.00470827,
2,0,0,1,0,66179.2,0.00354515,0.00318758,-2.76442,34,0.00100758,10,-8.8118e-06,-2.5584,12.4062,0.0047557,-0.515037,0.00318758,
2,0,0,1,0,66179.3,0.00204518,0.00170168,-2.78591,34,0.000903256,10,-4.74074e-06,-2.55503,2.06604,0.028557,-3.07248,0.00170168,
2,0,0,1,0,66179.3,0.000548773,0.000190204,-2.76152,34,0.000799007,10,-5.25253e-07,-2.55885, , , ,0.000190204,
2,0,0,1,0,66179.3,0.000177222,-0.000211945,-2.75077,34,0.000773191,10,5.83012e-07,-2.56055, , , ,-0.000211945,