File: Figure_codes/Fig_3-5/rawdata_trumpetplot_data/after 10th/20221101_1-115_003_TrumpetPlot_ParaChange_from10_every3_02_CV_C01_29.csv
mode,ox/red,error,control changes,counter inc.,time/s,control/V,Ewe/V,<I>/mA,cycle number,(Q-Qo)/C,I Range,P/W,log(|I|),Tafel slope mV/dec,alpha_eff,dI/d(E-IR),E-IR/V,
2,0,0,1,0,57473.8,2.44065e-05,-0.000363498,-0.389425,30,0.0000000E+000,10,1.41555e-07,-3.40958, , , ,-0.000363498,
2,0,0,1,0,57475.1,0.00129791,0.000889941,-0.17892,30,-0.000270226,10,-1.59228e-07,-3.74734, , , ,0.000889941,
2,0,0,1,0,57476.6,0.00279612,0.00244026,-0.143506,30,-0.000492949,10,-3.50191e-07,-3.84313,-0.0173747,-3.39574,20.5782,0.00244026,
2,0,0,1,0,57478.1,0.00429431,0.00397364,-0.123122,30,-0.000677257,10,-4.89242e-07,-3.90966,-0.0247678,-2.38213,11.6455,0.00397364,
2,0,0,1,0,57479.6,0.00579242,0.00545068,-0.108082,30,-0.000835037,10,-5.8912e-07,-3.96625,-0.0273205,-2.15955,9.22414,0.00545068,
2,0,0,1,0,57481.1,0.00729061,0.0069607,-0.0954747,30,-0.000972551,10,-6.6457e-07,-4.02011,-0.0300252,-1.96502,7.44004,0.0069607,
2,0,0,1,0,57482.6,0.00878882,0.00844105,-0.0855993,30,-0.00109376,10,-7.22549e-07,-4.06753,-0.0328796,-1.79442,6.069,0.00844105,
2,0,0,1,0,57484.1,0.010287,0.00992987,-0.0774292,30,-0.00120177,10,-7.68861e-07,-4.1111,-0.0356603,-1.6545,5.05882,0.00992987,
2,0,0,1,0,57485.6,0.0117852,0.0114208,-0.0711073,30,-0.00129862,10,-8.12104e-07,-4.14809,-0.0379552,-1.55446,4.31374,0.0114208,
2,0,0,1,0,57487.1,0.0132834,0.0128937,-0.0644965,30,-0.00138589,10,-8.316e-07,-4.19046,-0.0380393,-1.55103,3.89611,0.0128937,
2,0,0,1,0,57488.6,0.0147815,0.0144588,-0.0594362,30,-0.00146454,10,-8.59377e-07,-4.22595,-0.0394696,-1.49482,3.43901,0.0144588,
2,0,0,1,0,57490.1,0.0162797,0.0159339,-0.0540225,30,-0.0015349,10,-8.60787e-07,-4.26742,-0.0405384,-1.45541,3.09506,0.0159339,
2,0,0,1,0,57491.6,0.0177779,0.0174364,-0.0493228,30,-0.00159849,10,-8.60015e-07,-4.30695,-0.0396291,-1.4888,2.86475,0.0174364,
2,0,0,1,0,57493.1,0.0192761,0.0189221,-0.045504,30,-0.00165631,10,-8.61032e-07,-4.34195,-0.0410871,-1.43597,2.55695,0.0189221,
2,0,0,1,0,57494.6,0.0207743,0.0204416,-0.0413273,30,-0.00170758,10,-8.44796e-07,-4.38376,-0.039469,-1.49484,2.44714,0.0204416,
2,0,0,1,0,57496.1,0.0222725,0.0219209,-0.0379444,30,-0.00175359,10,-8.31776e-07,-4.42085,-0.0387993,-1.52065,2.277,0.0219209,
2,0,0,1,0,57497.6,0.0237707,0.0234002,-0.0346874,30,-0.00179435,10,-8.11691e-07,-4.45983,-0.0353314,-1.6699,2.26885,0.0234002,
2,0,0,1,0,57499.1,0.0252689,0.0249124,-0.0320841,30,-0.00183074,10,-7.9929e-07,-4.49371,-0.035168,-1.67766,2.06141,0.0249124,
2,0,0,1,0,57500.6,0.0267671,0.0264033,-0.0292243,30,-0.00186235,10,-7.71619e-07,-4.53426,-0.0321778,-1.83356,2.08109,0.0264033,
2,0,0,1,0,57502.1,0.0282653,0.0278497,-0.0262824,30,-0.00188946,10,-7.31958e-07,-4.58033,-0.0309606,-1.90565,1.92334,0.0278497,
2,0,0,1,0,57503.6,0.0297635,0.0293852,-0.0230923,30,-0.00191239,10,-6.7857e-07,-4.63653,-0.02745,-2.14936,1.90434,0.0293852,
2,0,0,1,0,57505,0.0312617,0.0308899,-0.0205189,30,-0.00193076,10,-6.33826e-07,-4.68785,-0.0264326,-2.23209,1.77167,0.0308899,
2,0,0,1,0,57506.5,0.0327599,0.0323703,-0.0174681,30,-0.00194519,10,-5.65446e-07,-4.75776,-0.0220336,-2.67772,1.81379,0.0323703,
2,0,0,1,0,57508,0.0342581,0.0338559,-0.0145104,30,-0.00195531,10,-4.91263e-07,-4.83832,-0.0197157,-2.99253,1.7693,0.0338559,
2,0,0,1,0,57509.5,0.0357563,0.0354179,-0.0126551,30,-0.00196156,10,-4.48217e-07,-4.89773,-0.0212767,-2.77298,1.35785,0.0354179,
2,0,0,1,0,57511,0.0372544,0.0368875,-0.01026,30,-0.00196435,10,-3.78465e-07,-4.98885,-0.0144975,-4.06966,1.53601,0.0368875,
2,0,0,1,0,57512.5,0.0387526,0.0383975,-0.00778049,30,-0.00196381,10,-2.98752e-07,-5.10899,-0.00962537,-6.12963,1.65058,0.0383975,
2,0,0,1,0,57514,0.0402508,0.0399097,-0.00480813,30,-0.00195911,10,-1.91891e-07,-5.31802,-0.00761781,-7.745,1.46945,0.0399097,
2,0,0,1,0,57515.5,0.041749,0.0413359,-0.00307322,30,-0.00195062,10,-1.27034e-07,-5.51241,-0.00489104,-12.0629,1.30952,0.0413359,
2,0,0,1,0,57517,0.0432472,0.0428608,-0.000897751,30,-0.00193937,10,-3.84783e-08,-6.04684,-0.0158085,-3.73216,1.48028,0.0428608,
2,1,0,1,0,57518.5,0.0447454,0.0443783,0.00173141,30,-0.00192521,10,7.6837e-08,-5.7616,0.0115463,5.10985,1.61758,0.0443783,
2,1,0,1,0,57520,0.0462435,0.045868,0.00352734,30,-0.00190681,10,1.61792e-07,-5.45255,0.00137036,43.0545,1.57732,0.045868,
2,1,0,1,0,57521.5,0.0477417,0.0473643,0.0056612,30,-0.0018851,10,2.68139e-07,-5.24709,0.00873242,6.75643,1.39147,0.0473643,
2,1,0,1,0,57523,0.0492399,0.0488881,0.00806066,30,-0.00186044,10,3.94071e-07,-5.09363,0.0130053,4.53662,1.33079,0.0488881,
2,0,0,1,0,57524.5,0.0507381,0.0503981,0.00935876,30,-0.0018332,10,4.71664e-07,-5.02878,0.0176243,3.34764,1.23564,0.0503981,
2,1,0,1,0,57526,0.0522363,0.0518763,0.0116097,30,-0.00180284,10,6.02268e-07,-4.93518,0.0178367,3.30779,1.46236,0.0518763,
2,1,0,1,0,57527.5,0.0537345,0.0533758,0.0138408,30,-0.0017693,10,7.38763e-07,-4.85884,0.0252718,2.33462,1.21333,0.0533758,
2,1,0,1,0,57529,0.0552327,0.054854,0.0154352,30,-0.00173287,10,8.46682e-07,-4.81149,0.0324082,1.82053,1.07626,0.054854,
2,1,0,1,0,57530.5,0.0567309,0.056311,0.01642,30,-0.00169405,10,9.24624e-07,-4.78463,0.0351167,1.68011,1.11893,0.056311,
2,1,0,1,0,57532,0.0582291,0.0578337,0.0191211,30,-0.00165264,10,1.10585e-06,-4.71849,0.040862,1.44388,1.06319,0.0578337,
2,1,0,1,0,57533.5,0.0597273,0.0593735,0.0208422,30,-0.00160847,10,1.23747e-06,-4.68106,0.0498175,1.18432,0.94806,0.0593735,
2,1,0,1,0,57535,0.0612255,0.0608665,0.0219234,30,-0.0015617,10,1.3344e-06,-4.65909,0.0527921,1.11759,0.966276,0.0608665,
2,1,0,1,0,57536.5,0.0627237,0.062367,0.02365,30,-0.00151268,10,1.47498e-06,-4.62617,0.0546859,1.07889,1.00946,0.062367,
2,1,0,1,0,57538,0.0642219,0.0638834,0.0252101,30,-0.00146143,10,1.6105e-06,-4.59843,0.054471,1.08315,1.08103,0.0638834,
2,1,0,1,0,57539.5,0.0657201,0.0653213,0.0268027,30,-0.00140754,10,1.75079e-06,-4.57182,0.0741771,0.795394,0.83512,0.0653213,
2,1,0,1,0,57541,0.0672183,0.0668398,0.0289909,30,-0.00135121,10,1.93774e-06,-4.53774,0.0670589,0.879823,0.969489,0.0668398,
2,1,0,1,0,57542.5,0.0687164,0.0683614,0.0302252,30,-0.00129263,10,2.06624e-06,-4.51963,0.0675574,0.873331,1.01109,0.0683614,
2,1,0,1,0,57544,0.0702146,0.0698841,0.0314816,30,-0.00123242,10,2.20006e-06,-4.50194,0.0877219,0.67258,0.826813,0.0698841,
2,1,0,1,0,57545.5,0.0717128,0.0713083,0.0333165,30,-0.00116964,10,2.37574e-06,-4.47734,0.0674794,0.874341,1.11405,0.0713083,
2,1,0,1,0,57547,0.073211,0.072882,0.0340552,30,-0.00110454,10,2.48201e-06,-4.46782,0.0775183,0.761111,1.02173,0.072882,
2,1,0,1,0,57548.5,0.0747092,0.0743284,0.0357439,30,-0.00103733,10,2.65678e-06,-4.4468,0.0871025,0.677363,0.946209,0.07432837,
2,1,0,1,0,57550,0.0762074,0.0758479,0.0367473,30,-0.00096817,10,2.78721e-06,-4.43477,0.109372,0.539443,0.786444,0.0758479,
2,1,0,1,0,57551.5,0.0777055,0.0773293,0.0384759,30,-0.000896672,10,2.97531e-06,-4.41481,0.102393,0.576211,0.862691,0.0773293,
2,1,0,1,0,57553,0.0792037,0.0788806,0.0404567,30,-0.00082315,10,3.19125e-06,-4.39301,0.0974843,0.605226,0.946858,0.0788806,
2,1,0,1,0,57554.5,0.0807019,0.0803514,0.0411162,30,-0.000747393,10,3.30374e-06,-4.38599,0.110505,0.533912,0.852196,0.08035142,
2,1,0,1,0,57556,0.0822001,0.0818179,0.0421298,30,-0.000670123,10,3.44697e-06,-4.37541,0.120443,0.489859,0.818598,0.0818179,
2,1,0,1,0,57557.5,0.0836983,0.0833386,0.0438531,30,-0.000590937,10,3.65466e-06,-4.358,0.087803,0.671959,1.16195,0.0833386,
2,1,0,1,0,57559,0.0851965,0.0848359,0.0457621,30,-0.000508786,10,3.88227e-06,-4.33949,0.0896537,0.658087,1.18227,0.0848359,
2,1,0,1,0,57560.5,0.0866947,0.0863502,0.0474909,30,-0.000423763,10,4.10085e-06,-4.32339,0.097277,0.606516,1.12732,0.0863502,
2,1,0,1,0,57562,0.0881929,0.0878475,0.0494899,30,-0.000336053,10,4.34756e-06,-4.30548,0.0872532,0.676193,1.30985,0.0878475,
2,1,0,1,0,57563.5,0.0896911,0.089365,0.0511712,30,-0.000245904,10,4.57291e-06,-4.29097,0.0872511,0.676209,1.36352,0.089365,
2,1,0,1,0,57565,0.0911893,0.0908453,0.0534266,30,-0.000152936,10,4.85355e-06,-4.27224,0.0905481,0.651587,1.35022,0.0908453,
2,1,0,1,0,57566.5,0.0926875,0.0923278,0.0555568,30,-5.64252e-05,10,5.12944e-06,-4.25526,0.0977655,0.603485,1.28436,0.0923278,
2,1,0,1,0,57568,0.0941857,0.0938314,0.0570647,30,4.26564e-05,10,5.35446e-06,-4.24363,0.11824,0.498983,1.10616,0.0938314,
2,1,0,1,0,57569.5,0.0956839,0.0953276,0.058718,30,0.00014372,10,5.59744e-06,-4.23123,0.121102,0.487191,1.12144,0.0953276,
2,1,0,1,0,57571,0.0971821,0.0968249,0.0604558,30,0.00024792,10,5.85363e-06,-4.21856,0.096234,0.613089,1.43748,0.0968249,
2,1,0,1,0,57572.5,0.0986803,0.0983509,0.0625066,30,0.000355241,10,6.14758e-06,-4.20407,0.104012,0.567242,1.37991,0.0983509,
2,1,0,1,0,57574,0.100178,0.0998226,0.064415,30,0.000465395,10,6.43007e-06,-4.19101,0.120848,0.488217,1.2274,0.0998226,
2,1,0,1,0,57575.5,0.101677,0.101312,0.0660273,30,0.00057807,10,6.68939e-06,-4.18028,0.108488,0.543838,1.4131,0.1013125,
2,1,0,1,0,57577,0.103175,0.102823,0.0690876,30,0.000694054,10,7.10377e-06,-4.1606,0.10515,0.561106,1.50081,0.102823,
2,1,0,1,0,57578.5,0.104673,0.104313,0.0711436,30,0.000813832,10,7.42123e-06,-4.14786,0.120317,0.490371,1.34905,0.104313,
2,1,0,1,0,57580,0.106171,0.105825,0.0727736,30,0.000936776,10,7.70123e-06,-4.13803,0.146098,0.403839,1.14383,0.105825,
2,1,0,1,0,57581.5,0.107669,0.107331,0.0737474,30,0.00106229,10,7.91541e-06,-4.13225,0.157272,0.375145,1.09102,0.107331,
2,1,0,1,0,57583,0.109167,0.108852,0.0758861,30,0.00119008,10,8.26035e-06,-4.11984,0.175799,0.335611,0.999532,0.108852,
2,1,0,1,0,57584.5,0.110666,0.110289,0.077455,30,0.00132054,10,8.54243e-06,-4.11095,0.175535,0.336115,1.02099,0.110289,
2,1,0,1,0,57586,0.112164,0.111824,0.0793628,30,0.00145359,10,8.87468e-06,-4.10038,0.207059,0.284943,0.879934,0.111824,
2,1,0,1,0,57587.4,0.113662,0.113335,0.0812091,30,0.00158904,10,9.20387e-06,-4.0904,0.165513,0.356468,1.1265,0.113335,
2,1,0,1,0,57588.9,0.11516,0.114807,0.0828143,30,0.00172619,10,9.50769e-06,-4.08189,0.192135,0.307076,0.988607,0.114807,
2,1,0,1,0,57590.4,0.116658,0.116264,0.0843805,30,0.00186646,10,9.81043e-06,-4.07376,0.156971,0.375865,1.22909,0.116264,
2,1,0,1,0,57591.9,0.118157,0.117797,0.0861403,30,0.00200926,10,1.0147e-05,-4.06479,0.186903,0.315672,1.052,0.117797,
2,1,0,1,0,57593.4,0.119655,0.119339,0.0871976,30,0.00215423,10,1.04061e-05,-4.0595,0.247287,0.238589,0.812351,0.119339,
2,1,0,1,0,57594.9,0.121153,0.120821,0.0878813,30,0.00230054,10,1.06179e-05,-4.0561,0.226128,0.260914,0.901695,0.120821,
2,1,0,1,0,57596.4,0.122651,0.122296,0.0898376,30,0.00244917,10,1.09868e-05,-4.04654,0.219775,0.268457,0.934756,0.122296,
2,1,0,1,0,57597.9,0.124149,0.123815,0.0909915,30,0.00259982,10,1.12662e-05,-4.041,0.337593,0.174767,0.61848,0.123815,
2,1,0,1,0,57599.4,0.125648,0.125268,0.0918694,30,0.00275169,10,1.15083e-05,-4.03683,0.587504,0.100425,0.357688,0.125268,
2,1,0,1,0,57600.9,0.127146,0.126808,0.0918345,30,0.00290422,10,1.16453e-05,-4.03699,0.53209,0.110883,0.397548,0.126808,
2,1,0,1,0,57602.4,0.128644,0.128255,0.0928658,30,0.00305749,10,1.19105e-05,-4.03214,1.0075,0.0585611,0.210562,0.128255,
2,1,0,1,0,57603.9,0.130142,0.129803,0.0924619,30,0.00321135,10,1.20018e-05,-4.03404,-2.30215,-0.0256282,-0.0919125,0.129803,
2,1,0,1,0,57605.4,0.13164,0.13131,0.0920768,30,0.00336511,10,1.20906e-05,-4.03585,-0.3556,-0.165917,-0.591562,0.13131,
2,1,0,1,0,57606.9,0.133139,0.132833,0.0913848,30,0.00351758,10,1.21389e-05,-4.03913,-0.226159,-0.260879,-0.924668,0.132833,
2,1,0,1,0,57608.4,0.134637,0.1343,0.0894952,30,0.00366787,10,1.20192e-05,-4.0482,-0.183735,-0.321114,-1.12247,0.1343,
2,1,0,1,0,57609.9,0.136135,0.135808,0.0872811,30,0.00381546,10,1.18534e-05,-4.05908,-0.11602,-0.508534,-1.72912,0.135808,
2,1,0,1,0,57611.4,0.137633,0.137304,0.0850193,30,0.0039596,10,1.16735e-05,-4.07048,-0.0952485,-0.619433,-2.03376,0.137304,
2,1,0,1,0,57612.9,0.139131,0.138785,0.0818681,30,0.00409893,10,1.13621e-05,-4.08689,-0.0839744,-0.702595,-2.22218,0.138785,
2,1,0,1,0,57614.4,0.14063,0.140276,0.078168,30,0.00423287,10,1.09651e-05,-4.10697,-0.0805066,-0.732859,-2.22535,0.140276,
2,1,0,1,0,57615.9,0.142128,0.141768,0.0748618,30,0.00436165,10,1.0613e-05,-4.12574,-0.0715688,-0.824382,-2.38382,0.141768,
2,1,0,1,0,57617.4,0.143626,0.143289,0.0712962,30,0.00448554,10,1.02159e-05,-4.14693,-0.0714127,-0.826184,-2.28248,0.143289,
2,1,0,1,0,57618.9,0.145124,0.144777,0.0671674,30,0.00460347,10,9.72433e-06,-4.17284,-0.0694497,-0.849535,-2.24907,0.144777,
2,1,0,1,0,57620.4,0.146622,0.146276,0.0640008,30,0.00471592,10,9.36177e-06,-4.19381,-0.0734855,-0.80288,-2.03447,0.146276,
2,1,0,1,0,57621.9,0.14812,0.14781,0.0613912,30,0.00482411,10,9.07425e-06,-4.21189,-0.0887581,-0.664728,-1.59386,0.14781,
2,1,0,1,0,57623.4,0.149619,0.149245,0.0591303,30,0.00492888,10,8.82491e-06,-4.22819,-0.0920964,-0.640633,-1.48802,0.149245,
2,1,0,1,0,57624.9,0.151117,0.150784,0.0566719,30,0.00502979,10,8.5452e-06,-4.24663,-0.0974638,-0.605353,-1.34593,0.150784,
2,1,0,1,0,57626.4,0.152615,0.15224,0.0551917,30,0.00512787,10,8.40236e-06,-4.25813,-0.107716,-0.547736,-1.18716,0.15224,
2,1,0,1,0,57627.9,0.154113,0.153767,0.0541152,30,0.00522342,10,8.32111e-06,-4.26668,-0.144519,-0.408252,-0.864724,0.153767,
2,1,0,1,0,57629.4,0.155611,0.15523,0.0532159,30,0.00531735,10,8.2607e-06,-4.27396,-0.180913,-0.326124,-0.677354,0.15523,
2,1,0,1,0,57630.9,0.15711,0.156813,0.052242,30,0.00541,10,8.19223e-06,-4.28198,-0.214015,-0.275681,-0.560726,0.1568132,
2,1,0,1,0,57632.4,0.158608,0.15826,0.0515241,30,0.00550149,10,8.15418e-06,-4.28799,-0.251545,-0.234551,-0.472986,0.15826,
2,1,0,1,0,57633.9,0.160106,0.159755,0.0508674,30,0.00559147,10,8.12632e-06,-4.29356,-0.403998,-0.14604,-0.291471,0.1597548,
2,1,0,1,0,57635.4,0.161604,0.161294,0.0502504,30,0.00568075,10,8.10512e-06,-4.29886,-0.489765,-0.120466,-0.238375,0.161294,
2,1,0,1,0,57636.9,0.163102,0.162743,0.0506772,30,0.00576994,10,8.24735e-06,-4.29519,-1.04586,-0.0564127,-0.11026,0.1627429,
2,1,0,1,0,57638.4,0.164601,0.164257,0.0502591,30,0.00585858,10,8.25542e-06,-4.29879,-0.54111,-0.109035,-0.213538,0.164257,
2,1,0,1,0,57639.9,0.166099,0.165731,0.0498423,30,0.00594642,10,8.26043e-06,-4.3024,-1.16536,-0.0506283,-0.0986616,0.165731,
2,1,0,1,0,57641.4,0.167597,0.167246,0.0500657,30,0.00603452,10,8.37332e-06,-4.30046,-1.0039,-0.058771,-0.113274,0.167246,
2,1,0,1,0,57642.9,0.169095,0.168733,0.0494273,30,0.00612233,10,8.34003e-06,-4.30603,-0.70071,-0.0842003,-0.163617,0.168733,
2,1,0,1,0,57644.4,0.170593,0.170271,0.0494446,30,0.00620961,10,8.41897e-06,-4.30588,-1.92994,-0.0305709,-0.059236,0.170271,
2,1,0,1,0,57645.9,0.172091,0.171746,0.0492784,30,0.00629679,10,8.46335e-06,-4.30734,-4.358,-0.0135383,-0.0261936,0.171746,
2,1,0,1,0,57647.4,0.17359,0.173242,0.049254,30,0.00638441,10,8.53286e-06,-4.30756,0.61949,0.0952397,0.184291,0.173242,
2,1,0,1,0,57648.9,0.175088,0.174758,0.0497249,30,0.00647164,10,8.68985e-06,-4.30343,-0.946502,-0.0623348,-0.120848,0.174758,
2,1,0,1,0,57650.4,0.176586,0.17621,0.049496,30,0.00655899,10,8.72169e-06,-4.30543,4.45603,0.0132405,0.0256671,0.17621,
2,1,0,1,0,57651.9,0.178084,0.177722,0.0497765,30,0.00664654,10,8.8464e-06,-4.30298,0.718652,0.0820981,0.159342,0.177722,
2,1,0,1,0,57653.4,0.179582,0.179247,0.0497405,30,0.00673406,10,8.91584e-06,-4.30329,-13.9375,-0.00423318,-0.00825441,0.179247,
2,1,0,1,0,57654.9,0.181081,0.180734,0.050214,30,0.00682201,10,9.07536e-06,-4.29918,1.59379,0.0370186,0.0721546,0.180734,
2,1,0,1,0,57656.4,0.182579,0.182236,0.0497251,30,0.00691004,10,9.06171e-06,-4.30342,-4.91188,-0.0120117,-0.0232993,0.182236,
2,1,0,1,0,57657.9,0.184077,0.183753,0.0500247,30,0.00699809,10,9.19218e-06,-4.30082,1.12626,0.0523859,0.102725,0.183753,
2,1,0,1,0,57659.4,0.185575,0.185254,0.0497015,30,0.00708588,10,9.20742e-06,-4.30363,-6.90326,-0.00854669,-0.0167591,0.185254,
2,1,0,1,0,57660.9,0.187073,0.186724,0.0506765,30,0.00717435,10,9.46252e-06,-4.29519,0.911879,0.0647015,0.126915,0.186724,
2,1,0,1,0,57662.4,0.188572,0.188223,0.0506284,30,0.00726292,10,9.52945e-06,-4.29561,0.623218,0.0946699,0.18711,0.188223,
2,1,0,1,0,57663.9,0.19007,0.18969,0.0506468,30,0.00735151,10,9.6072e-06,-4.29545,2.09443,0.02817,0.0558616,0.18969,
2,1,0,1,0,57665.4,0.191568,0.191217,0.0507744,30,0.00744035,10,9.70893e-06,-4.29435,1.01705,0.0580107,0.115099,0.191217,
2,1,0,1,0,57666.9,0.193066,0.192728,0.0513221,30,0.00752966,10,9.89121e-06,-4.2897,0.434295,0.135852,0.26993,0.192728,
2,1,0,1,0,57668.4,0.194564,0.194215,0.0510154,30,0.00761924,10,9.90794e-06,-4.2923,0.428876,0.137569,0.27664,0.194215,
2,1,0,1,0,57669.8,0.196063,0.195711,0.0514037,30,0.00770896,10,1.00603e-05,-4.28901,95.7638,0.000616099,0.001242,0.195711,
2,1,0,1,0,57671.3,0.197561,0.197233,0.0516503,30,0.00779904,10,1.01871e-05,-4.28693,0.822448,0.0717371,0.145564,0.197233,
2,1,0,1,0,57672.8,0.199059,0.198697,0.0518516,30,0.00788936,10,1.03028e-05,-4.28524,3.8131,0.015473,0.0312481,0.198697,
2,1,0,1,0,57674.3,0.200557,0.200199,0.0519408,30,0.00797991,10,1.03985e-05,-4.28449,-61.6951,-0.000956315,-0.00192757,0.200199,
2,1,0,1,0,57675.8,0.202055,0.201711,0.0520387,30,0.00807047,10,1.04968e-05,-4.28367,1.0618,0.0555663,0.112241,0.201711,
2,1,0,1,0,57677.3,0.203554,0.203221,0.0516825,30,0.008161,10,1.0503e-05,-4.28666,0.737964,0.0799497,0.163354,0.2032208,
2,1,0,1,0,57678.8,0.205052,0.204677,0.0519979,30,0.00825191,10,1.06428e-05,-4.28401,0.255082,0.231298,0.475953,0.204677,
2,1,0,1,0,57680.3,0.20655,0.206181,0.0528997,30,0.00834318,10,1.09069e-05,-4.27655,0.684837,0.0861518,0.177926,0.206181,
2,1,0,1,0,57681.8,0.208048,0.207702,0.0533864,30,0.00843578,10,1.10885e-05,-4.27257,0.505849,0.116635,0.241092,0.207702,
2,1,0,1,0,57683.3,0.209546,0.209212,0.0532038,30,0.00852816,10,1.11309e-05,-4.27406,1.39252,0.0423691,0.0882314,0.209212,
2,1,0,1,0,57684.8,0.211044,0.210698,0.0536608,30,0.00862059,10,1.13062e-05,-4.27034,0.905498,0.0651575,0.135999,0.210698,
2,1,0,1,0,57686.3,0.212543,0.21218,0.0538655,30,0.00871358,10,1.14292e-05,-4.26869,2.03717,0.0289617,0.0604439,0.21218,
2,1,0,1,0,57687.8,0.214041,0.213686,0.0536231,30,0.00880686,10,1.14585e-05,-4.27065,1.10067,0.0536039,0.11249,0.213686,
2,1,0,1,0,57689.3,0.215539,0.215167,0.0537587,30,0.00890004,10,1.15671e-05,-4.26955,2.10311,0.0280536,0.0591501,0.215167,
2,1,0,1,0,57690.8,0.217037,0.216716,0.054344,30,0.00899331,10,1.17772e-05,-4.26485,0.857323,0.0688188,0.146092,0.216716,
2,1,0,1,0,57692.3,0.218535,0.218196,0.0546981,30,0.00908731,10,1.19349e-05,-4.26203,0.39762,0.148383,0.315235,0.218196,
2,1,0,1,0,57693.8,0.220034,0.219721,0.0546811,30,0.00918172,10,1.20146e-05,-4.26216,0.532331,0.110833,0.23746,0.219721,
2,1,0,1,0,57695.3,0.221532,0.221189,0.0551206,30,0.00927658,10,1.21921e-05,-4.25869,0.738796,0.0798597,0.171162,0.221189,
2,1,0,1,0,57696.8,0.22303,0.222668,0.0552232,30,0.0093718,10,1.22964e-05,-4.25788,0.511072,0.115444,0.248441,0.222668,
2,1,0,1,0,57698.3,0.224528,0.224181,0.0555897,30,0.00946725,10,1.24621e-05,-4.25501,1.14969,0.0513181,0.111227,0.224181,
2,1,0,1,0,57699.8,0.226026,0.225693,0.0558308,30,0.00956306,10,1.26006e-05,-4.25313,27.0766,0.00217901,0.00473021,0.225693,
2,1,0,1,0,57701.3,0.227525,0.227206,0.0557686,30,0.00965888,10,1.2671e-05,-4.25361,1.30523,0.0452028,0.0983624,0.2272061,
2,1,0,1,0,57702.8,0.229023,0.22871,0.0558956,30,0.00975464,10,1.27839e-05,-4.25262,0.539094,0.109443,0.238405,0.22871,
2,1,0,1,0,57704.3,0.230521,0.230198,0.0561875,30,0.00985091,10,1.29342e-05,-4.25036,0.413417,0.142713,0.313531,0.230198,
2,1,0,1,0,57705.8,0.232019,0.231664,0.0561898,30,0.00994764,10,1.30171e-05,-4.25034,0.902357,0.0653844,0.144289,0.231664,
2,1,0,1,0,57707.3,0.233517,0.233197,0.056842,30,0.0100449,10,1.32554e-05,-4.24533,0.905633,0.0651478,0.144807,0.233197,
2,1,0,1,0,57708.8,0.235016,0.234643,0.0567042,30,0.0101424,10,1.33052e-05,-4.24638,0.986822,0.0597879,0.133373,0.234643,
2,1,0,1,0,57710.3,0.236514,0.236187,0.0573029,30,0.01024,10,1.35342e-05,-4.24182,0.742964,0.0794117,0.177568,0.236187,
2,1,0,1,0,57711.8,0.238012,0.23764,0.0574058,30,0.0103383,10,1.36419e-05,-4.24104,0.661047,0.0892524,0.199612,0.23764,
2,1,0,1,0,57713.3,0.23951,0.23919,0.0580677,30,0.0104367,10,1.38892e-05,-4.23607,-2.21804,-0.0266001,-0.059898,0.2391897,
2,1,0,1,0,57714.8,0.241008,0.240674,0.0580261,30,0.0105357,10,1.39654e-05,-4.23638,3.32231,0.0177587,0.0397243,0.240674,
2,1,0,1,0,57716.3,0.242506,0.242161,0.0576961,30,0.0106342,10,1.39718e-05,-4.23885,-3.2628,-0.0180826,-0.0408763,0.242161,
2,1,0,1,0,57717.8,0.244005,0.243667,0.0580761,30,0.0107329,10,1.41512e-05,-4.236,0.49803,0.118467,0.267598,0.243667,
2,1,0,1,0,57719.3,0.245503,0.245179,0.0582806,30,0.0108321,10,1.42892e-05,-4.23448,1.10623,0.0533345,0.120958,0.245179,
2,1,0,1,0,57720.8,0.247001,0.246638,0.0581592,30,0.0109317,10,1.43443e-05,-4.23538,-167.896,-0.000351407,-0.000796998,0.246638,
2,1,0,1,0,57722.3,0.248499,0.248183,0.0581889,30,0.0110309,10,1.44415e-05,-4.23516,2.29207,0.025741,0.058793,0.248183,
2,1,0,1,0,57723.8,0.249997,0.249652,0.0583615,30,0.0111304,10,1.45701e-05,-4.23387,0.823985,0.0716032,0.16385,0.249652,
2,1,0,1,0,57725.3,0.251496,0.251136,0.0587991,30,0.0112302,10,1.47666e-05,-4.23063,0.606107,0.0973425,0.224379,0.251136,
2,1,0,1,0,57726.8,0.252994,0.252655,0.0586306,30,0.0113307,10,1.48133e-05,-4.23188,13.4994,0.00437057,0.0100376,0.252655,
2,1,0,1,0,57728.3,0.254492,0.254185,0.0594443,30,0.0114314,10,1.51099e-05,-4.22589,1.17553,0.0501903,0.116674,0.254185,
2,1,0,1,0,57729.8,0.25599,0.255628,0.059717,30,0.0115321,10,1.52653e-05,-4.2239,0.902133,0.0654005,0.152019,0.255628,
2,1,0,1,0,57731.3,0.257488,0.257172,0.0592161,30,0.0116332,10,1.52287e-05,-4.22756,1.29364,0.0456077,0.106318,0.257172,
2,1,0,1,0,57732.8,0.258987,0.258681,0.0600772,30,0.0117346,10,1.55408e-05,-4.22129,2.11764,0.0278612,0.0649807,0.258681,
2,1,0,1,0,57734.3,0.260485,0.260186,0.0598925,30,0.0118362,10,1.55832e-05,-4.22263,2.92827,0.0201484,0.0471489,0.2601859,
2,1,0,1,0,57735.8,0.261983,0.261616,0.0602873,30,0.0119378,10,1.57721e-05,-4.21977,0.817035,0.0722123,0.170152,0.261616,
2,1,0,1,0,57737.3,0.263481,0.263149,0.0603508,30,0.0120399,10,1.58812e-05,-4.21932,0.720724,0.0818622,0.192878,0.263149,
2,1,0,1,0,57738.8,0.264979,0.264662,0.0603029,30,0.0121424,10,1.59599e-05,-4.21966,0.728347,0.0810053,0.191808,0.264662,
2,1,0,1,0,57740.3,0.266477,0.266154,0.0609278,30,0.0122453,10,1.62162e-05,-4.21518,0.894822,0.0659349,0.157,0.266154,
2,1,0,1,0,57741.8,0.267976,0.26761,0.061059,30,0.0123485,10,1.634e-05,-4.21425,2.05465,0.0287154,0.0686645,0.26761,
2,1,0,1,0,57743.3,0.269474,0.269131,0.0614399,30,0.0124519,10,1.65354e-05,-4.21155,0.803929,0.0733896,0.175877,0.269131,
2,1,0,1,0,57744.8,0.270972,0.270642,0.0620729,30,0.0125559,10,1.67996e-05,-4.2071,1.60486,0.0367634,0.0878287,0.270642,
2,1,0,1,0,57746.3,0.27247,0.27211,0.0617683,30,0.0126601,10,1.68078e-05,-4.20923,1.81541,0.0324995,0.0783802,0.27211,
2,1,0,1,0,57747.8,0.273968,0.273594,0.0617508,30,0.0127641,10,1.68946e-05,-4.20936,1.4937,0.0394993,0.0954767,0.273594,
2,1,0,1,0,57749.3,0.275467,0.275118,0.0618779,30,0.0128685,10,1.70237e-05,-4.20846,16.5138,0.00357277,0.00863495,0.275118,
2,1,0,1,0,57750.8,0.276965,0.276626,0.0622548,30,0.0129733,10,1.72213e-05,-4.20583,19.6055,0.00300936,0.0073061,0.276626,
2,1,0,1,0,57752.3,0.278463,0.278198,0.0619755,30,0.013078,10,1.72415e-05,-4.20778,149.357,0.000395027,0.000958389,0.278198,
2,1,0,1,0,57753.7,0.279961,0.279655,0.0624852,30,0.0131832,10,1.74743e-05,-4.20422,1.26121,0.0467806,0.114526,0.279655,
2,1,0,1,0,57755.2,0.281459,0.281166,0.0627621,30,0.0132881,10,1.76466e-05,-4.2023,1.86238,0.0316799,0.0781436,0.281166,
2,1,0,1,0,57756.7,0.282958,0.282617,0.0627269,30,0.0133936,10,1.77277e-05,-4.20255,1.0724,0.055017,0.134968,0.282617,
2,1,0,1,0,57758.2,0.284456,0.284161,0.0631581,30,0.0134993,10,1.7947e-05,-4.19957,26.7622,0.0022046,0.00540697,0.284161,
2,1,0,1,0,57759.7,0.285954,0.285625,0.0628699,30,0.0136052,10,1.79572e-05,-4.20156,1.52494,0.0386901,0.0949061,0.285625,
2,1,0,1,0,57761.2,0.287452,0.287088,0.0632849,30,0.0137109,10,1.81683e-05,-4.1987,1.19372,0.0494252,0.121963,0.287088,
2,1,0,1,0,57762.7,0.28895,0.288629,0.0631103,30,0.0138168,10,1.82155e-05,-4.1999,2.14725,0.027477,0.0679157,0.288629,
2,1,0,1,0,57764.2,0.290448,0.290078,0.0637286,30,0.0139231,10,1.84862e-05,-4.19567,4.26326,0.0138392,0.0343068,0.290078,
2,1,0,1,0,57765.7,0.291947,0.291584,0.0637847,30,0.0140294,10,1.85986e-05,-4.19528,13.3092,0.00443303,0.0109977,0.291584,
2,1,0,1,0,57767.2,0.293445,0.293119,0.0639289,30,0.0141359,10,1.87388e-05,-4.1943,0.621658,0.0949075,0.236769,0.2931188,
2,1,0,1,0,57768.7,0.294943,0.294616,0.0640671,30,0.0142427,10,1.88752e-05,-4.19337,0.444119,0.132847,0.333084,0.294616,
2,1,0,1,0,57770.2,0.296441,0.296129,0.0647355,30,0.0143501,10,1.91701e-05,-4.18886,0.721749,0.0817459,0.204525,0.296129,
2,1,0,1,0,57771.7,0.297939,0.297611,0.0643716,30,0.0144581,10,1.91577e-05,-4.19131,0.677686,0.087061,0.218945,0.297611,
2,1,0,1,0,57773.2,0.299438,0.2991,0.0646749,30,0.014566,10,1.93442e-05,-4.18926,-0.00413117,-14.2817,-22.7565,0.2990995,
2,1,0,1,0,57774.1,0.299737,0.299424,0.0318367,30,0.0146149,10,9.53267e-06,-4.49707,0.00197392,29.8898,40.8759,0.299424,
2,1,0,1,0,57775.6,0.298239,0.297902,0.0184805,30,0.0146379,10,5.50539e-06,-4.73329,0.00496354,11.8867,14.6635,0.297902,
2,1,0,1,0,57777.1,0.296741,0.296403,0.0136047,30,0.0146503,10,4.03246e-06,-4.86631,0.011853,4.97766,2.70119,0.296403,
2,1,0,1,0,57778.6,0.295243,0.294896,0.00979223,30,0.0146566,10,2.88769e-06,-5.00912,0.0117577,5.018,2.02503,0.2948961,
2,1,0,1,0,57780.1,0.293745,0.293426,0.00711656,30,0.0146584,10,2.08819e-06,-5.14773,0.0103743,5.68712,1.6292,0.293426,
2,1,0,1,0,57781.6,0.292246,0.291885,0.00519221,30,0.014657,10,1.51553e-06,-5.28465,0.00803007,7.34739,1.39901,0.291885,
2,1,0,1,0,57783.1,0.290748,0.290443,0.00347233,30,0.0146524,10,1.00852e-06,-5.45938,0.00616833,9.56499,1.16498,0.290443,
2,1,0,1,0,57784.6,0.28925,0.288891,0.00148622,30,0.0146452,10,4.29356e-07,-5.82792,0.00410242,14.3818,1.12358,0.288891,
2,1,0,1,0,57786.1,0.287752,0.287358,0.000418801,30,0.0146356,10,1.20346e-07,-6.37799,0.0208971,2.82336,0.939227,0.287358,
2,1,0,1,0,57787.6,0.286254,0.285924,-0.000775671,30,0.014624,10,-2.21783e-07,-6.11032,-0.00730664,-8.07485,0.829429,0.285924,
2,0,0,1,0,57789.1,0.284755,0.284456,-0.00203397,30,0.0146104,10,-5.78576e-07,-5.69166,-0.0032722,-18.0307,0.941314,0.284456,
2,0,0,1,0,57790.6,0.283257,0.282957,-0.00324505,30,0.0145949,10,-9.18209e-07,-5.48878,-0.00943345,-6.25434,0.706777,0.282957,
2,0,0,1,0,57792.1,0.281759,0.281406,-0.00438686,30,0.0145778,10,-1.23449e-06,-5.35785,-0.0158803,-3.7153,0.605674,0.2814056,
2,0,0,1,0,57793.6,0.280261,0.279942,-0.0052418,30,0.0145595,10,-1.4674e-06,-5.28052,-0.0175886,-3.35445,0.695153,0.279942,
2,1,0,1,0,57795,0.278763,0.278421,-0.00659979,30,0.0145394,10,-1.83752e-06,-5.18047,-0.0185858,-3.17446,0.752038,0.2784206,
2,0,0,1,0,57796.5,0.277264,0.276945,-0.0073833,30,0.0145175,10,-2.04477e-06,-5.13175,-0.0265138,-2.22526,0.638835,0.276945,
2,0,0,1,0,57798,0.275766,0.27538,-0.00857277,30,0.0144945,10,-2.36077e-06,-5.06688,-0.0328051,-1.7985,0.595578,0.27538,
2,1,0,1,0,57799.5,0.274268,0.273935,-0.00946208,30,0.0144698,10,-2.592e-06,-5.02401,-0.0274674,-2.148,0.759308,0.273935,
2,0,0,1,0,57801,0.27277,0.272467,-0.0102288,30,0.0144436,10,-2.78701e-06,-4.99018,-0.0303386,-1.94472,0.790955,0.272467,
2,0,0,1,0,57802.5,0.271272,0.271005,-0.0112973,30,0.0144159,10,-3.06163e-06,-4.94702,-0.0474633,-1.24307,0.544022,0.271005,
2,0,0,1,0,57804,0.269774,0.269444,-0.0122348,30,0.0143865,10,-3.29659e-06,-4.9124,-0.0612949,-0.962559,0.454541,0.269444,
2,0,0,1,0,57805.5,0.268275,0.26793,-0.0128785,30,0.0143563,10,-3.45053e-06,-4.89014,-0.0870824,-0.677519,0.338912,0.26793,
2,0,0,1,0,57807,0.266777,0.266429,-0.0137676,30,0.0143253,10,-3.66808e-06,-4.86114,-0.0719603,-0.819897,0.442721,0.266429,
2,0,0,1,0,57808.5,0.265279,0.264968,-0.0146548,30,0.0142929,10,-3.88307e-06,-4.83402,-0.0624319,-0.945029,0.527875,0.264968,
2,0,0,1,0,57810,0.263781,0.263422,-0.0151252,30,0.0142593,10,-3.98432e-06,-4.8203,-0.0765095,-0.771146,0.460567,0.2634221,
2,0,0,1,0,57811.5,0.262283,0.261926,-0.0154282,30,0.0142249,10,-4.04104e-06,-4.81169,-0.0592463,-0.995843,0.617742,0.261926,
2,0,0,1,0,57813,0.260784,0.260435,-0.0165945,30,0.0141891,10,-4.32178e-06,-4.78004,-0.0703351,-0.838842,0.543923,0.260435,
2,0,0,1,0,57814.5,0.259286,0.258942,-0.0171395,30,0.0141522,10,-4.43812e-06,-4.766,-0.0574062,-1.02776,0.687369,0.258942,
2,0,0,1,0,57816,0.257788,0.257481,-0.0180982,30,0.014114,10,-4.65994e-06,-4.74236,-0.0834356,-0.707132,0.496164,0.257481,
2,0,0,1,0,57817.5,0.25629,0.255903,-0.0187738,30,0.0140746,10,-4.80427e-06,-4.72645,-0.111982,-0.52687,0.377593,0.255903,
2,0,0,1,0,57819,0.254792,0.254451,-0.0190779,30,0.0140344,10,-4.85438e-06,-4.71947,-0.104242,-0.565993,0.430071,0.254451,
2,0,0,1,0,57820.5,0.253293,0.252937,-0.0200245,30,0.0139934,10,-5.06493e-06,-4.69844,-0.100769,-0.5855,0.454413,0.252937,
2,0,0,1,0,57822,0.251795,0.251442,-0.0206609,30,0.0139514,10,-5.195e-06,-4.68485,-0.156756,-0.37638,0.301627,0.251442,
2,0,0,1,0,57823.5,0.250297,0.249953,-0.021344,30,0.0139084,10,-5.335e-06,-4.67072,-0.161204,-0.365996,0.298158,0.249953,
2,0,0,1,0,57825,0.248799,0.24847,-0.0214312,30,0.0138647,10,-5.32502e-06,-4.66895,-0.11758,-0.501787,0.428095,0.24847,
2,0,0,1,0,57826.5,0.247301,0.246958,-0.0216863,30,0.0138203,10,-5.35562e-06,-4.66381,-0.092131,-0.640392,0.561964,0.246958,
2,0,0,1,0,57828,0.245802,0.245469,-0.022967,30,0.0137748,10,-5.63769e-06,-4.6389,-0.130171,-0.453249,0.403308,0.245469,
2,0,0,1,0,57829.5,0.244304,0.243969,-0.023601,30,0.0137282,10,-5.75792e-06,-4.62707,-0.138436,-0.426188,0.388532,0.243969,
2,0,0,1,0,57831,0.242806,0.242454,-0.0241091,30,0.0136808,10,-5.84534e-06,-4.61782,-0.132261,-0.446089,0.418474,0.242454,
2,0,0,1,0,57832.5,0.241308,0.240946,-0.0243385,30,0.0136327,10,-5.86426e-06,-4.61371,-0.145835,-0.404566,0.387841,0.240946,
2,0,0,1,0,57834,0.23981,0.239489,-0.0250903,30,0.0135835,10,-6.00885e-06,-4.60049,-0.125719,-0.469299,0.458336,0.239489,
2,0,0,1,0,57835.5,0.238312,0.237948,-0.0257593,30,0.0135334,10,-6.12937e-06,-4.58907,-0.186804,-0.315839,0.320401,0.237948,
2,0,0,1,0,57837,0.236813,0.236466,-0.0262254,30,0.0134826,10,-6.2014e-06,-4.58128,-0.213346,-0.276547,0.284715,0.236466,
2,0,0,1,0,57838.5,0.235315,0.235001,-0.026449,30,0.013431,10,-6.21555e-06,-4.57759,-0.156656,-0.376622,0.393178,0.235001,
2,0,0,1,0,57840,0.233817,0.233483,-0.02731,30,0.0133785,10,-6.37641e-06,-4.56368,-0.175233,-0.336694,0.358561,0.233483,
2,0,0,1,0,57841.5,0.232319,0.231975,-0.0276886,30,0.0133252,10,-6.42305e-06,-4.5577,-0.156977,-0.375852,0.409073,0.231975,
2,0,0,1,0,57843,0.230821,0.230483,-0.0285657,30,0.0132709,10,-6.58391e-06,-4.54415,-0.141572,-0.41675,0.459497,0.230483,
2,0,0,1,0,57844.5,0.229322,0.228973,-0.0290157,30,0.0132153,10,-6.6438e-06,-4.53737,-0.167881,-0.351439,0.396899,0.228973,
2,0,0,1,0,57846,0.227824,0.227483,-0.0295337,30,0.0131591,10,-6.71841e-06,-4.52968,-0.258628,-0.228127,0.26634,0.227483,
2,0,0,1,0,57847.5,0.226326,0.22603,-0.0304572,30,0.0131019,10,-6.88424e-06,-4.51631,-0.220219,-0.267915,0.315291,0.2260301,
2,0,0,1,0,57849,0.224828,0.224475,-0.030415,30,0.013044,10,-6.82743e-06,-4.51691,-0.284082,-0.207686,0.248763,0.2244755,
2,0,0,1,0,57850.5,0.22333,0.223018,-0.0314514,30,0.0129854,10,-7.01425e-06,-4.50236,-0.296377,-0.199071,0.243458,0.223018,
2,0,0,1,0,57852,0.221831,0.221474,-0.0314843,30,0.0129263,10,-6.97293e-06,-4.50191,-0.184202,-0.320301,0.394293,0.221474,
2,0,0,1,0,57853.5,0.220333,0.219985,-0.0320976,30,0.0128661,10,-7.06097e-06,-4.49353,-0.16852,-0.350107,0.437293,0.219985,
2,0,0,1,0,57855,0.218835,0.218483,-0.0329834,30,0.0128049,10,-7.20632e-06,-4.4817,-0.232061,-0.254243,0.323822,0.218483,
2,0,0,1,0,57856.5,0.217337,0.216994,-0.0335267,30,0.0127429,10,-7.2751e-06,-4.47461,-0.197984,-0.298004,0.391129,0.216994,
2,0,0,1,0,57858,0.215839,0.215461,-0.0340468,30,0.0126801,10,-7.33575e-06,-4.46792,-0.176958,-0.333412,0.441582,0.215461,
2,0,0,1,0,57859.5,0.21434,0.21402,-0.034368,30,0.0126163,10,-7.35544e-06,-4.46385,-0.175334,-0.336501,0.450632,0.21402,
2,0,0,1,0,57861,0.212842,0.212498,-0.0348059,30,0.0125517,10,-7.39619e-06,-4.45835,-0.198696,-0.296937,0.404496,0.212498,
2,0,0,1,0,57862.5,0.211344,0.211013,-0.0354758,30,0.0124863,10,-7.48583e-06,-4.45007,-0.367041,-0.160745,0.223337,0.211013,
2,0,0,1,0,57864,0.209846,0.209544,-0.0356874,30,0.0124204,10,-7.47808e-06,-4.44749,-0.241564,-0.244241,0.342665,0.209544,
2,0,0,1,0,57865.5,0.208348,0.208004,-0.0366016,30,0.0123536,10,-7.61329e-06,-4.4365,-0.213899,-0.275831,0.392727,0.208004,
2,0,0,1,0,57867,0.20685,0.206503,-0.0373906,30,0.0122858,10,-7.72126e-06,-4.42724,-0.286807,-0.205713,0.297713,0.206503,
2,0,0,1,0,57868.5,0.205351,0.205004,-0.037352,30,0.0122171,10,-7.65733e-06,-4.42769,-0.297792,-0.198125,0.288223,0.205004,
2,0,0,1,0,57870,0.203853,0.203513,-0.0378763,30,0.012148,10,-7.70834e-06,-4.42163,-0.236831,-0.249123,0.370691,0.203513,
2,0,0,1,0,57871.5,0.202355,0.201974,-0.0382815,30,0.012078,10,-7.73186e-06,-4.41701,-0.275767,-0.213949,0.322238,0.201974,
2,0,0,1,0,57873,0.200857,0.200529,-0.0392122,30,0.012007,10,-7.86319e-06,-4.40658,-0.222139,-0.2656,0.405631,0.200529,
2,0,0,1,0,57874.5,0.199359,0.198991,-0.0396503,30,0.0119351,10,-7.89005e-06,-4.40175,-0.2206,-0.267453,0.413635,0.198991,
2,0,0,1,0,57876,0.19786,0.197531,-0.0405431,30,0.0118623,10,-8.0085e-06,-4.39208,-0.196,-0.301021,0.47426,0.1975306,
2,0,0,1,0,57877.4,0.196362,0.195998,-0.0409895,30,0.0117884,10,-8.03387e-06,-4.38733,-0.189422,-0.311474,0.496929,0.1959983,
2,0,0,1,0,57878.9,0.194864,0.19454,-0.0420833,30,0.0117133,10,-8.1869e-06,-4.37589,-0.270765,-0.217901,0.354646,0.19454,
2,0,0,1,0,57880.4,0.193366,0.193029,-0.0424446,30,0.0116372,10,-8.19304e-06,-4.37218,-0.374836,-0.157402,0.259169,0.193029,
2,0,0,1,0,57881.9,0.191868,0.191519,-0.0429388,30,0.0115603,10,-8.22361e-06,-4.36715,-0.262556,-0.224714,0.379532,0.191519,
2,0,0,1,0,57883.4,0.190369,0.190043,-0.0433734,30,0.0114828,10,-8.24281e-06,-4.36278,-0.289606,-0.203725,0.348233,0.190043,
2,0,0,1,0,57884.9,0.188871,0.18854,-0.0442734,30,0.0114039,10,-8.34733e-06,-4.35386,-0.205376,-0.287278,0.495394,0.18854,
2,0,0,1,0,57886.4,0.187373,0.18703,-0.0449611,30,0.0113239,10,-8.40909e-06,-4.34716,-0.254623,-0.231715,0.405142,0.18703,
2,0,0,1,0,57887.9,0.185875,0.185533,-0.0456937,30,0.011243,10,-8.47769e-06,-4.34014,-0.21544,-0.273858,0.48672,0.185533,
2,0,0,1,0,57889.4,0.184377,0.184005,-0.0455352,30,0.0111613,10,-8.37871e-06,-4.34165,-0.223863,-0.263554,0.476428,0.184005,
2,0,0,1,0,57890.9,0.182878,0.182533,-0.0470051,30,0.0110783,10,-8.58e-06,-4.32785,-0.178476,-0.330576,0.604985,0.182533,
2,0,0,1,0,57892.4,0.18138,0.181076,-0.0477776,30,0.010994,10,-8.6514e-06,-4.32078,-0.306864,-0.192267,0.358618,0.181076,
2,0,0,1,0,57893.9,0.179882,0.179558,-0.0481014,30,0.0109086,10,-8.63699e-06,-4.31784,-0.378221,-0.155993,0.294115,0.179558,
2,0,0,1,0,57895.4,0.178384,0.178082,-0.048534,30,0.0108222,10,-8.64302e-06,-4.31395,-0.430042,-0.137196,0.262224,0.178082,
2,0,0,1,0,57896.9,0.176886,0.176552,-0.0495475,30,0.010735,10,-8.7477e-06,-4.30498,-0.249184,-0.236773,0.459358,0.176552,
2,0,0,1,0,57898.4,0.175388,0.175082,-0.0505811,30,0.0106466,10,-8.85584e-06,-4.29601,-0.24989,-0.236104,0.465786,0.175082,
2,0,0,1,0,57899.9,0.173889,0.173569,-0.0513828,30,0.010557,10,-8.91845e-06,-4.28918,-0.187907,-0.313985,0.631838,0.173569,
2,0,0,1,0,57901.4,0.172391,0.172083,-0.0521856,30,0.0104657,10,-8.98025e-06,-4.28245,-0.187541,-0.314598,0.638806,0.172083,
2,0,0,1,0,57902.9,0.170893,0.170544,-0.0530547,30,0.0103731,10,-9.04817e-06,-4.27528,-0.228729,-0.257948,0.53557,0.1705443,
2,0,0,1,0,57904.4,0.169395,0.169093,-0.0539706,30,0.0102794,10,-9.12602e-06,-4.26784,-0.197695,-0.29844,0.629521,0.169093,
2,0,0,1,0,57905.9,0.167897,0.167573,-0.0550286,30,0.0101841,10,-9.22132e-06,-4.25941,-0.176451,-0.33437,0.72298,0.167573,
2,0,0,1,0,57907.4,0.166398,0.166048,-0.0560555,30,0.010087,10,-9.30792e-06,-4.25138,-0.179676,-0.32837,0.718776,0.1660482,
2,0,0,1,0,57908.9,0.1649,0.164555,-0.0569583,30,0.00998848,10,-9.37278e-06,-4.24444,-0.182945,-0.322501,0.723813,0.164555,
2,0,0,1,0,57910.4,0.163402,0.163101,-0.0583349,30,0.00988816,10,-9.5145e-06,-4.23407,-0.17246,-0.342108,0.773762,0.163101,
2,0,0,1,0,57911.9,0.161904,0.161575,-0.0597435,30,0.00978623,10,-9.65307e-06,-4.22371,-0.196402,-0.300404,0.699615,0.161575,
2,0,0,1,0,57913.4,0.160406,0.160043,-0.0605504,30,0.00968231,10,-9.69068e-06,-4.21788,-0.154447,-0.382008,0.908121,0.160043,
2,0,0,1,0,57914.9,0.158907,0.158584,-0.0615658,30,0.00957649,10,-9.76334e-06,-4.21066,-0.161125,-0.366174,0.886696,0.158584,
2,0,0,1,0,57916.4,0.157409,0.157092,-0.0634477,30,0.00946855,10,-9.96713e-06,-4.19758,-0.137928,-0.427759,1.06123,0.157092,
2,0,0,1,0,57917.9,0.155911,0.155548,-0.0652442,30,0.0093583,10,-1.01486e-05,-4.18546,-0.14761,-0.399703,1.01481,0.155548,
2,0,0,1,0,57919.4,0.154413,0.154068,-0.0663207,30,0.00924524,10,-1.02179e-05,-4.17835,-0.145833,-0.404573,1.04691,0.154068,
2,0,0,1,0,57920.9,0.152915,0.152559,-0.0684936,30,0.00912992,10,-1.04493e-05,-4.16435,-0.141452,-0.417101,1.11395,0.152559,
2,0,0,1,0,57922.4,0.151417,0.151024,-0.0701892,30,0.00901191,10,-1.06003e-05,-4.15373,-0.11473,-0.514252,1.4084,0.151024,
2,0,0,1,0,57923.9,0.149918,0.149583,-0.0723513,30,0.00889076,10,-1.08225e-05,-4.14055,-0.133802,-0.440952,1.24523,0.149583,
2,0,0,1,0,57925.4,0.14842,0.148093,-0.0744074,30,0.00876634,10,-1.10192e-05,-4.12838,-0.115603,-0.510369,1.48405,0.148093,
2,0,0,1,0,57926.9,0.146922,0.146559,-0.0765176,30,0.00863877,10,-1.12144e-05,-4.11624,-0.114151,-0.516861,1.55101,0.146559,
2,0,0,1,0,57928.4,0.145424,0.145079,-0.0792246,30,0.00850768,10,-1.14938e-05,-4.10114,-0.0941386,-0.626735,1.93943,0.145079,
2,0,0,1,0,57929.9,0.143926,0.143593,-0.0821552,30,0.00837173,10,-1.17969e-05,-4.08537,-0.0793943,-0.743126,2.37415,0.143593,
2,0,0,1,0,57931.4,0.142427,0.142118,-0.0853156,30,0.00823105,10,-1.21249e-05,-4.06897,-0.0881636,-0.66921,2.24672,0.142118,
2,0,0,1,0,57932.9,0.140929,0.140627,-0.0889239,30,0.00808524,10,-1.25051e-05,-4.05098,-0.0928031,-0.635755,2.21242,0.140627,
2,0,0,1,0,57934.4,0.139431,0.139075,-0.0922058,30,0.00793402,10,-1.28235e-05,-4.03524,-0.0783027,-0.753486,2.73225,0.139075,
2,0,0,1,0,57935.9,0.137933,0.137604,-0.0970142,30,0.00777677,10,-1.33495e-05,-4.01316,-0.0820624,-0.718965,2.71495,0.137604,
2,0,0,1,0,57937.4,0.136435,0.136117,-0.101346,30,0.00761306,10,-1.37949e-05,-3.9942,-0.0836327,-0.705465,2.78397,0.136117,
2,0,0,1,0,57938.9,0.134936,0.134592,-0.105423,30,0.0074428,10,-1.41891e-05,-3.97707,-0.0834663,-0.706872,2.89918,0.134592,
2,0,0,1,0,57940.4,0.133438,0.133098,-0.109874,30,0.00726577,10,-1.46241e-05,-3.9591,-0.0931124,-0.633642,2.70978,0.133098,
2,0,0,1,0,57941.9,0.13194,0.131592,-0.113978,30,0.00708277,10,-1.49987e-05,-3.94318,-0.0949468,-0.6214,2.77403,0.131592,
2,0,0,1,0,57943.4,0.130442,0.130113,-0.117837,30,0.0068932,10,-1.53322e-05,-3.92872,-0.100914,-0.584656,2.69148,0.1301131,
2,0,0,1,0,57944.9,0.128944,0.128605,-0.121605,30,0.00669763,10,-1.5639e-05,-3.91505,-0.129114,-0.456959,2.16718,0.128605,
2,0,0,1,0,57946.4,0.127445,0.127069,-0.125118,30,0.00649672,10,-1.58986e-05,-3.90268,-0.150897,-0.390996,1.90016,0.127069,
2,0,0,1,0,57947.9,0.125947,0.125584,-0.12818,30,0.00629174,10,-1.60973e-05,-3.89218,-0.180729,-0.326456,1.62474,0.125584,
2,0,0,1,0,57949.4,0.124449,0.124124,-0.130738,30,0.00608259,10,-1.62277e-05,-3.8836,-0.187873,-0.314042,1.59126,0.124124,
2,0,0,1,0,57950.9,0.122951,0.122623,-0.132367,30,0.00587004,10,-1.62313e-05,-3.87822,-0.257744,-0.22891,1.1769,0.1226235,
2,0,0,1,0,57952.4,0.121453,0.121194,-0.133935,30,0.00565479,10,-1.62321e-05,-3.87311,-0.378686,-0.155802,0.81167,0.121194,
2,0,0,1,0,57953.9,0.119955,0.11963,-0.134459,30,0.00543828,10,-1.60854e-05,-3.87141,-0.47223,-0.124939,0.657127,0.11963,
2,0,0,1,0,57955.4,0.118456,0.118112,-0.135397,30,0.00522026,10,-1.59921e-05,-3.86839,-0.435817,-0.135378,0.713557,0.1181125,
2,0,0,1,0,57956.9,0.116958,0.116621,-0.136527,30,0.00500045,10,-1.59219e-05,-3.86478,-0.830851,-0.0710115,0.3772,0.116621,
2,0,0,1,0,57958.4,0.11546,0.115086,-0.136848,30,0.00477995,10,-1.57493e-05,-3.86376,-2.27184,-0.0259701,0.138766,0.115086,
2,0,0,1,0,57959.8,0.113962,0.11361,-0.136746,30,0.00455898,10,-1.55358e-05,-3.86408,-3.70112,-0.0159411,0.0851513,0.1136101,
2,0,0,1,0,57961.3,0.112464,0.112121,-0.137137,30,0.0043379,10,-1.5376e-05,-3.86285,-36.0139,-0.00163826,0.00877335,0.112121,
2,0,0,1,0,57962.8,0.110965,0.110601,-0.137623,30,0.0041166,10,-1.52212e-05,-3.86131,-6.27961,-0.00939549,0.050341,0.110601,
2,0,0,1,0,57964.3,0.109467,0.109099,-0.137159,30,0.00389518,10,-1.4964e-05,-3.86277,1.25597,0.0469757,-0.250871,0.109099,
2,0,0,1,0,57965.8,0.107969,0.107657,-0.136999,30,0.00367379,10,-1.47489e-05,-3.86328,-2.7407,-0.0215274,0.115542,0.107657,
2,0,0,1,0,57967.3,0.106471,0.106108,-0.136931,30,0.00345297,10,-1.45294e-05,-3.8635,21.1669,0.00278737,-0.0149519,0.106108,
2,0,0,1,0,57968.8,0.104973,0.10467,-0.136958,30,0.00323187,10,-1.43353e-05,-3.86341,16.9143,0.00348818,-0.0187134,0.10467,
2,0,0,1,0,57970.3,0.103474,0.103144,-0.136906,30,0.00301058,10,-1.4121e-05,-3.86358,1.40256,0.0420658,-0.224401,0.103144,
2,0,0,1,0,57971.8,0.101976,0.10165,-0.136603,30,0.00279011,10,-1.38857e-05,-3.86454,1.04077,0.0566887,-0.302662,0.10165,
2,0,0,1,0,57973.3,0.100478,0.100116,-0.136442,30,0.00257043,10,-1.36601e-05,-3.86505,1.09406,0.0539277,-0.286213,0.100116,
2,0,0,1,0,57974.8,0.0989798,0.0986169,-0.136026,30,0.00235097,10,-1.34145e-05,-3.86638,1.08285,0.054486,-0.287595,0.09861692,
2,0,0,1,0,57976.3,0.0974816,0.0971217,-0.135472,30,0.0021322,10,-1.31572e-05,-3.86815,0.87478,0.0674455,-0.35583,0.0971217,
2,0,0,1,0,57977.8,0.0959834,0.0956435,-0.134681,30,0.00191433,10,-1.28814e-05,-3.87069,0.700898,0.0841777,-0.442741,0.0956435,
2,0,0,1,0,57979.3,0.0944852,0.0941451,-0.133344,30,0.00169796,10,-1.25537e-05,-3.87503,0.675697,0.0873173,-0.456932,0.0941451,
2,0,0,1,0,57980.8,0.0929871,0.0926458,-0.133429,30,0.0014823,10,-1.23616e-05,-3.87475,1.31912,0.0447266,-0.232308,0.0926458,
2,0,0,1,0,57982.3,0.0914889,0.091123,-0.133196,30,0.0012672,10,-1.21372e-05,-3.87551,1.22284,0.0482482,-0.250305,0.09112303,
2,0,0,1,0,57983.8,0.0899907,0.0896215,-0.13172,30,0.00105335,10,-1.18049e-05,-3.88035,0.453635,0.130061,-0.669407,0.0896215,
2,0,0,1,0,57985.3,0.0884925,0.08819,-0.130096,30,0.000840684,10,-1.14732e-05,-3.88573,0.587735,0.100385,-0.513049,0.08819,
2,0,0,1,0,57986.8,0.0869943,0.0866736,-0.130066,30,0.000629771,10,-1.12733e-05,-3.88584,0.538211,0.109622,-0.55693,0.08667358,
2,0,0,1,0,57988.3,0.0854961,0.0851084,-0.128865,30,0.000419883,10,-1.09675e-05,-3.88987,0.544629,0.108331,-0.5478,0.0851084,
2,0,0,1,0,57989.8,0.083998,0.0836515,-0.128617,30,0.000211269,10,-1.0759e-05,-3.8907,0.412173,0.143144,-0.718524,0.0836515,
2,0,0,1,0,57991.3,0.0824998,0.0821617,-0.128007,30,3.52703e-06,10,-1.05172e-05,-3.89277,0.644,0.091615,-0.456987,0.08216165,
2,0,0,1,0,57992.8,0.0810016,0.0806781,-0.127038,30,-0.000202549,10,-1.02492e-05,-3.89606,0.48726,0.121085,-0.60157,0.0806781,
2,0,0,1,0,57994.3,0.0795034,0.0791659,-0.126716,30,-0.000407751,10,-1.00316e-05,-3.89717,0.645705,0.091373,-0.451146,0.0791659,
2,0,0,1,0,57995.8,0.0780052,0.077657,-0.125817,30,-0.00061196,10,-9.77058e-06,-3.90026,0.48944,0.120546,-0.588615,0.077657,
2,0,0,1,0,57997.3,0.076507,0.0761491,-0.124506,30,-0.000814876,10,-9.48103e-06,-3.90481,0.451023,0.130814,-0.635434,0.0761491,
2,0,0,1,0,57998.8,0.0750088,0.0746613,-0.123737,30,-0.0010157,10,-9.23837e-06,-3.9075,0.669505,0.0881249,-0.426084,0.0746613,
2,0,0,1,0,58000.3,0.0735106,0.0731428,-0.123365,30,-0.00121588,10,-9.02326e-06,-3.90881,1.2725,0.0463654,-0.222317,0.0731428,
2,0,0,1,0,58001.8,0.0720124,0.0716762,-0.122438,30,-0.00141536,10,-8.77592e-06,-3.91208,0.763951,0.0772301,-0.369423,0.0716762,
2,0,0,1,0,58003.3,0.0705142,0.0701662,-0.12173,30,-0.00161361,10,-8.54131e-06,-3.9146,0.600168,0.0983059,-0.466601,0.0701662,
2,0,0,1,0,58004.8,0.069016,0.068689,-0.120645,30,-0.00181043,10,-8.28702e-06,-3.91849,0.504037,0.117055,-0.553184,0.068689,
2,0,0,1,0,58006.3,0.0675178,0.0671526,-0.120092,30,-0.00200633,10,-8.06446e-06,-3.92049,0.976885,0.0603961,-0.283226,0.0671526,
2,0,0,1,0,58007.8,0.0660196,0.0656562,-0.120231,30,-0.00220132,10,-7.89392e-06,-3.91998,0.553765,0.106543,-0.497022,0.0656562,
2,0,0,1,0,58009.3,0.0645214,0.0641961,-0.119129,30,-0.00239544,10,-7.6476e-06,-3.92398,0.544928,0.108271,-0.501119,0.0641961,
2,0,0,1,0,58010.8,0.0630233,0.0626766,-0.117973,30,-0.00258836,10,-7.39415e-06,-3.92822,0.470964,0.125275,-0.579126,0.0626766,
2,0,0,1,0,58012.3,0.0615251,0.0611984,-0.118083,30,-0.00278011,10,-7.22648e-06,-3.92781,0.578289,0.102025,-0.47033,0.0611984,
2,0,0,1,0,58013.8,0.0600269,0.0596449,-0.117222,30,-0.00297133,10,-6.99168e-06,-3.93099,0.663366,0.0889403,-0.408705,0.0596449,
2,0,0,1,0,58015.3,0.0585287,0.0581826,-0.116892,30,-0.00316188,10,-6.8011e-06,-3.93221,0.485545,0.121513,-0.551005,0.0581826,
2,0,0,1,0,58016.8,0.0570305,0.0566439,-0.116273,30,-0.00335175,10,-6.58614e-06,-3.93452,0.564394,0.104537,-0.474008,0.0566439,
2,0,0,1,0,58018.3,0.0555323,0.0551381,-0.115676,30,-0.00354014,10,-6.37815e-06,-3.93676,0.570956,0.103335,-0.468336,0.0551381,
2,0,0,1,0,58019.8,0.0540342,0.0536611,-0.115035,30,-0.00372789,10,-6.17293e-06,-3.93917,0.848232,0.0695564,-0.312624,0.0536611,
2,0,0,1,0,58021.3,0.052536,0.0521722,-0.114864,30,-0.00391521,10,-5.99273e-06,-3.93981,0.561434,0.105088,-0.469324,0.0521722,
2,0,0,1,0,58022.8,0.0510378,0.0506634,-0.114122,30,-0.00410134,10,-5.78178e-06,-3.94263,0.630576,0.0935652,-0.414784,0.0506634,
2,0,0,1,0,58024.3,0.0495396,0.0491766,-0.113038,30,-0.00428592,10,-5.55884e-06,-3.94677,0.747637,0.0789153,-0.349067,0.0491766,
2,0,0,1,0,58025.8,0.0480414,0.0476984,-0.113061,30,-0.00447027,10,-5.39284e-06,-3.94669,4.60047,0.0128248,-0.0562943,0.0476984,
2,0,0,1,0,58027.3,0.0465432,0.0461841,-0.112209,30,-0.00465393,10,-5.18228e-06,-3.94997,1.00536,0.0586856,-0.257231,0.0461841,
2,0,0,1,0,58028.8,0.045045,0.0447208,-0.111894,30,-0.0048367,10,-5.00398e-06,-3.95119,0.696598,0.0846974,-0.370107,0.0447208,
2,0,0,1,0,58030.3,0.0435468,0.0432775,-0.110946,30,-0.00501846,10,-4.80149e-06,-3.95489,0.563547,0.104694,-0.454068,0.0432775,
2,0,0,1,0,58031.8,0.0420486,0.0416711,-0.110851,30,-0.00519946,10,-4.61929e-06,-3.95526,0.573816,0.10282,-0.444595,0.04167106,
2,0,0,1,0,58033.3,0.0405504,0.0401885,-0.110669,30,-0.00537979,10,-4.44763e-06,-3.95597,0.667473,0.0883931,-0.37973,0.0401885,
2,0,0,1,0,58034.8,0.0390522,0.038669,-0.109378,30,-0.00555932,10,-4.22952e-06,-3.96107,0.671784,0.0878259,-0.3761,0.038669,
2,0,0,1,0,58036.3,0.037554,0.0372014,-0.1088,30,-0.00573792,10,-4.04751e-06,-3.96337,1.02608,0.0575004,-0.245464,0.03720136,
2,0,0,1,0,58037.8,0.0360558,0.0357125,-0.108641,30,-0.00591576,10,-3.87984e-06,-3.96401,1.06797,0.0552448,-0.235147,0.0357125,
2,0,0,1,0,58039.3,0.0345576,0.0341941,-0.10781,30,-0.00609305,10,-3.68647e-06,-3.96734,0.870473,0.0677792,-0.28696,0.0341941,
2,0,0,1,0,58040.8,0.0330594,0.0327137,-0.107772,30,-0.00626987,10,-3.52563e-06,-3.96749,0.519675,0.113532,-0.475624,0.0327137,
2,0,0,1,0,58042.3,0.0315613,0.0312069,-0.106857,30,-0.00644562,10,-3.33467e-06,-3.9712,0.670104,0.088046,-0.370026,0.0312069,
2,0,0,1,0,58043.7,0.0300631,0.0297404,-0.107303,30,-0.00662037,10,-3.19122e-06,-3.96939,0.967183,0.0610019,-0.254148,0.0297404,
2,0,0,1,0,58045.2,0.0285649,0.0282219,-0.106491,30,-0.00679505,10,-3.00537e-06,-3.97269,1.05151,0.0561097,-0.233018,0.0282219,
2,0,0,1,0,58046.7,0.0270667,0.0267299,-0.106257,30,-0.00696902,10,-2.84024e-06,-3.97364,1.00636,0.0586274,-0.243091,0.0267299,
2,0,0,1,0,58048.2,0.0255685,0.0252199,-0.105995,30,-0.00714243,10,-2.67318e-06,-3.97471,1.55842,0.0378589,-0.15659,0.02521986,
2,0,0,1,0,58049.7,0.0240703,0.0237395,-0.105437,30,-0.00731497,10,-2.50301e-06,-3.97701,0.991056,0.0595325,-0.245657,0.0237395,
2,0,0,1,0,58051.2,0.0225722,0.0222126,-0.10519,30,-0.00748741,10,-2.33654e-06,-3.97803,-7.16187,-0.00823807,0.0338772,0.0222126,
2,0,0,1,0,58052.7,0.021074,0.0206984,-0.105024,30,-0.00765964,10,-2.17383e-06,-3.97871,9.79612,0.00602279,-0.0247675,0.0206984,
2,0,0,1,0,58054.2,0.0195758,0.019252,-0.105264,30,-0.00783187,10,-2.02654e-06,-3.97772,-245.739,-0.000240092,0.000988231,0.019252,
2,0,0,1,0,58055.7,0.0180776,0.0177197,-0.104856,30,-0.00800429,10,-1.85801e-06,-3.97941,-1.95592,-0.0301649,0.123867,0.0177197,
2,0,0,1,0,58057.2,0.0165794,0.0162552,-0.105552,30,-0.00817646,10,-1.71577e-06,-3.97653,2.44631,0.0241179,-0.0992681,0.0162552,
2,0,0,1,0,58058.7,0.0150812,0.0147378,-0.105775,30,-0.00834891,10,-1.55889e-06,-3.97562,-1.3462,-0.043827,0.180279,0.0147378,
2,0,0,1,0,58060.2,0.013583,0.0132214,-0.105829,30,-0.00852141,10,-1.39921e-06,-3.9754,-1.57659,-0.0374224,0.154326,0.0132214,
2,0,0,1,0,58061.7,0.0120848,0.0117167,-0.105749,30,-0.00869391,10,-1.23903e-06,-3.97572,-0.810359,-0.0728073,0.300935,0.0117167,
2,0,0,1,0,58063.2,0.0105866,0.0102406,-0.105926,30,-0.00886654,10,-1.08474e-06,-3.975,-0.820926,-0.0718701,0.297975,0.0102406,
2,0,0,1,0,58064.7,0.00908843,0.00873159,-0.106407,30,-0.0090402,10,-9.29101e-07,-3.97303,-1.0124,-0.0582775,0.24178,0.00873159,
2,0,0,1,0,58066.2,0.00759024,0.00722157,-0.106997,30,-0.00921429,10,-7.72688e-07,-3.97063,-3.29076,-0.017929,0.0749465,0.007221574,
2,0,0,1,0,58067.7,0.00609203,0.00572744,-0.107757,30,-0.00938909,10,-6.17172e-07,-3.96755,-0.716519,-0.0823425,0.345275,0.00572744,
2,0,0,1,0,58069.2,0.00459384,0.00426726,-0.108466,30,-0.00956443,10,-4.6285e-07,-3.96471,-0.681114,-0.0866228,0.365136,0.00426726,
2,0,0,1,0,58070.7,0.00309563,0.00274237,-0.109129,30,-0.00974103,10,-2.99271e-07,-3.96206,-0.437568,-0.134836,0.571074,0.00274237,
2,0,0,1,0,58072.2,0.00159744,0.00119312,-0.109715,30,-0.00992036,10,-1.30904e-07,-3.95973, , , ,0.00119312,
2,0,0,1,0,58073.6,0.000199235,-0.000212695,-0.109784,30,-0.0100867,10,2.33505e-08,-3.95946, , , ,-0.000212695,