File: Figure_codes/Fig_3-5/rawdata_trumpetplot_data/after 10th/20221101_1-115_003_TrumpetPlot_ParaChange_from10_every3_13_CV_C01_4.csv
mode,ox/red,error,control changes,counter inc.,time/s,control/V,Ewe/V,<I>/mA,cycle number,(Q-Qo)/C,I Range,P/W,log(|I|),Tafel slope mV/dec,alpha_eff,dI/d(E-IR),E-IR/V,
2,1,0,1,0,9078.38,2.44065e-05,-0.000191712,25.5868,5,0.0000000E+000,10,-4.9053e-06,-1.59198, , , ,-0.000191712,
2,1,0,1,0,9078.38,0.00266289,0.00231085,26.9526,5,8.19321e-05,10,6.22832e-05,-1.5694, , , ,0.00231085,
2,1,0,1,0,9078.38,0.00586735,0.00552176,28.1443,5,0.00019235,10,0.000155406,-1.55061, , , ,0.00552176,
2,1,0,1,0,9078.39,0.00906349,0.00872312,29.1266,5,0.000307016,10,0.000254075,-1.53571,0.222965,0.264616,297.563,0.00872312,
2,1,0,1,0,9078.39,0.0122624,0.0118694,29.9798,5,0.00042536,10,0.000355841,-1.52317,0.264929,0.222702,258.733,0.01186935,
2,1,0,1,0,9078.4,0.0154641,0.0151015,30.7586,5,0.000546942,10,0.0004645,-1.51203,0.301102,0.195947,234.019,0.01510147,
2,1,0,1,0,9078.4,0.0186602,0.0183187,31.4553,5,0.000671477,10,0.000576221,-1.50231,0.338465,0.174317,213.159,0.0183187,
2,1,0,1,0,9078.4,0.0218675,0.0215413,32.1263,5,0.000798726,10,0.000692043,-1.49314,0.3728,0.158262,197.707,0.0215413,
2,1,0,1,0,9078.41,0.0250636,0.0247544,32.7263,5,0.000928517,10,0.00081012,-1.4851,0.405212,0.145603,185.432,0.0247544,
2,1,0,1,0,9078.41,0.0282597,0.0279281,33.2945,5,0.00106064,10,0.000929854,-1.47763,0.440813,0.133844,173.56,0.0279281,
2,1,0,1,0,9078.42,0.031467,0.0311719,33.8387,5,0.00119497,10,0.00105482,-1.47059,0.462809,0.127482,168.103,0.0311719,
2,1,0,1,0,9078.42,0.0346631,0.0343659,34.3521,5,0.00133141,10,0.00118054,-1.46405,0.486962,0.121159,162.292,0.0343659,
2,1,0,1,0,9078.42,0.0378703,0.0375195,34.8722,5,0.00146989,10,0.00130839,-1.45752,0.507257,0.116312,158.134,0.0375195,
2,1,0,1,0,9078.43,0.0410665,0.0407219,35.3708,5,0.00161042,10,0.00144037,-1.45135,0.51811,0.113876,157.085,0.0407219,
2,1,0,1,0,9078.43,0.0442626,0.0439191,35.8544,5,0.00175293,10,0.00157469,-1.44546,0.539745,0.109311,152.908,0.0439191,
2,1,0,1,0,9078.44,0.0474671,0.0471406,36.3588,5,0.0018974,10,0.00171398,-1.43939,0.538265,0.109612,155.518,0.0471406,
2,1,0,1,0,9078.44,0.0506632,0.0503324,36.8314,5,0.00204383,10,0.00185381,-1.43378,0.538044,0.109657,157.721,0.0503324,
2,1,0,1,0,9078.44,0.0538621,0.0534924,37.3569,5,0.00219224,10,0.00199831,-1.42763,0.539256,0.10941,159.568,0.0534924,
2,1,0,1,0,9078.45,0.0570638,0.0567171,37.8729,5,0.00234278,10,0.00214804,-1.42167,0.531396,0.111028,164.094,0.05671712,
2,1,0,1,0,9078.45,0.06026,0.0599344,38.4003,5,0.00249538,10,0.0023015,-1.41567,0.535135,0.110253,165.27,0.0599344,
2,1,0,1,0,9078.46,0.0634672,0.0631093,38.928,5,0.0026501,10,0.00245672,-1.40974,0.524856,0.112412,170.896,0.0631093,
2,1,0,1,0,9078.46,0.0666633,0.066352,39.4822,5,0.00280698,10,0.00261972,-1.4036,0.518949,0.113691,175.306,0.06635198,
2,1,0,1,0,9078.46,0.0698595,0.0694918,40.0561,5,0.00296614,10,0.00278357,-1.39733,0.515356,0.114484,179.004,0.0694918,
2,1,0,1,0,9078.47,0.0730667,0.0727144,40.6407,5,0.00312759,10,0.00295517,-1.39104,0.506713,0.116437,184.71,0.0727144,
2,1,0,1,0,9078.47,0.0762629,0.0759232,41.2218,5,0.00329138,10,0.00312969,-1.38487,0.511342,0.115383,185.675,0.0759232,
2,1,0,1,0,9078.48,0.0794701,0.079097,41.8363,5,0.00345753,10,0.00330913,-1.37845,0.506845,0.116406,190.089,0.079097,
2,1,0,1,0,9078.48,0.0826662,0.0822973,42.4337,5,0.00362615,10,0.00349218,-1.37229,0.500747,0.117824,195.231,0.0822973,
2,1,0,1,0,9078.48,0.0858624,0.0854817,43.0677,5,0.00379721,10,0.0036815,-1.36585,0.498621,0.118326,199.039,0.0854817,
2,1,0,1,0,9078.49,0.0890668,0.0887043,43.717,5,0.00397085,10,0.00387789,-1.35935,0.492466,0.119805,204.488,0.0887043,
2,1,0,1,0,9078.49,0.092263,0.0919364,44.3918,5,0.00414711,10,0.00408123,-1.3527,0.49174,0.119982,207.833,0.0919364,
2,1,0,1,0,9078.5,0.0954674,0.0951526,45.0625,5,0.00432608,10,0.00428781,-1.34618,0.493787,0.119485,210.058,0.0951526,
2,1,0,1,0,9078.5,0.0986636,0.098284,45.7284,5,0.00450773,10,0.00449437,-1.33981,0.499389,0.118144,210.83,0.098284,
2,1,0,1,0,9078.5,0.10186,0.101492,46.4031,5,0.00469206,10,0.00470953,-1.33345,0.507349,0.116291,210.507,0.101492,
2,1,0,1,0,9078.51,0.105067,0.10471,47.0849,5,0.00487911,10,0.00493026,-1.32712,0.512203,0.115189,211.569,0.10471,
2,1,0,1,0,9078.51,0.108263,0.107818,47.7287,5,0.00506884,10,0.00514602,-1.32122,0.507716,0.116207,216.655,0.107818,
2,1,0,1,0,9078.52,0.111465,0.111021,48.4231,5,0.00526116,10,0.00537595,-1.31495,0.499683,0.118075,223.477,0.111021,
2,1,0,1,0,9078.52,0.114666,0.114253,49.1678,5,0.00545646,10,0.00561756,-1.30832,0.495273,0.119126,228.681,0.114253,
2,1,0,1,0,9078.52,0.117863,0.11747,49.9365,5,0.00565472,10,0.00586603,-1.30158,0.494631,0.119281,232.322,0.11747,
2,1,0,1,0,9078.53,0.12107,0.120709,50.6767,5,0.00585602,10,0.00611716,-1.29519,0.501281,0.117698,232.633,0.120709,
2,1,0,1,0,9078.53,0.124266,0.123918,51.4195,5,0.00606028,10,0.00637181,-1.28887,0.504662,0.11691,234.655,0.123918,
2,1,0,1,0,9078.54,0.127462,0.127079,52.1518,5,0.0062675,10,0.00662741,-1.28273,0.499294,0.118167,240.723,0.127079,
2,1,0,1,0,9078.54,0.130667,0.130323,52.9525,5,0.00647779,10,0.00690094,-1.27611,0.491288,0.120092,248.374,0.130323,
2,1,0,1,0,9078.54,0.133863,0.133478,53.7503,5,0.00669128,10,0.00717448,-1.26962,0.483874,0.121933,255.924,0.133478,
2,1,0,1,0,9078.55,0.137067,0.136726,54.6005,5,0.00690804,10,0.00746531,-1.2628,0.477484,0.123564,263.414,0.136726,
2,1,0,1,0,9078.55,0.140263,0.139941,55.4434,5,0.00712823,10,0.0077588,-1.25615,0.470426,0.125418,271.537,0.139941,
2,1,0,1,0,9078.56,0.143459,0.143144,56.3298,5,0.00735185,10,0.00806331,-1.24926,0.464277,0.127079,279.527,0.143144,
2,1,0,1,0,9078.56,0.146667,0.146323,57.2381,5,0.00757911,10,0.00837523,-1.24231,0.461095,0.127956,285.887,0.146323,
2,1,0,1,0,9078.56,0.149863,0.149461,58.1605,5,0.00780999,10,0.00869274,-1.23537,0.461922,0.127727,289.927,0.149461,
2,1,0,1,0,9078.57,0.153064,0.15271,59.094,5,0.0080446,10,0.00902426,-1.22846,0.470113,0.125502,289.339,0.15271,
2,1,0,1,0,9078.57,0.156266,0.155921,60.0342,5,0.00828295,10,0.00936061,-1.2216,0.480552,0.122775,287.481,0.155921,
2,1,0,1,0,9078.58,0.159462,0.159144,60.9479,5,0.00852502,10,0.00969948,-1.21504,0.49025,0.120347,286.084,0.159144,
2,1,0,1,0,9078.58,0.16267,0.162376,61.8732,5,0.00877074,10,0.0100467,-1.2085,0.506207,0.116553,281.186,0.162376,
2,1,0,1,0,9078.58,0.165866,0.165541,62.7647,5,0.0090201,10,0.0103902,-1.20228,0.527046,0.111945,273.869,0.165541,
2,1,0,1,0,9078.59,0.169062,0.168725,63.6343,5,0.00927297,10,0.0107367,-1.19631,0.555058,0.106295,263.583,0.168725,
2,1,0,1,0,9078.59,0.172266,0.171962,64.4584,5,0.00952927,10,0.0110844,-1.19072,0.591719,0.0997095,250.418,0.171962,
2,1,0,1,0,9078.6,0.175462,0.175127,65.2342,5,0.00978873,10,0.0114243,-1.18552,0.637365,0.0925687,235.281,0.175127,
2,1,0,1,0,9078.6,0.178667,0.178329,65.9669,5,0.0100512,10,0.0117638,-1.18067,0.699755,0.0843152,216.623,0.178329,
2,1,0,1,0,9078.6,0.181863,0.181509,66.6422,5,0.0103165,10,0.0120962,-1.17625,0.782725,0.0753777,195.558,0.181509,
2,1,0,1,0,9078.61,0.185059,0.184729,67.224,5,0.0105844,10,0.0124183,-1.17248,0.931602,0.0633318,165.648,0.184729,
2,1,0,1,0,9078.61,0.188266,0.187915,67.7349,5,0.0108544,10,0.0127284,-1.16919,1.18185,0.0499217,131.477,0.187915,
2,1,0,1,0,9078.62,0.191463,0.191107,68.0835,5,0.0111261,10,0.0130112,-1.16696,1.72569,0.0341893,90.4696,0.191107,
2,1,0,1,0,9078.62,0.194664,0.194362,68.3321,5,0.011399,10,0.0132812,-1.16538,3.89278,0.0151563,40.2174,0.194362,
2,1,0,1,0,9078.62,0.197866,0.197566,68.3853,5,0.0116725,10,0.0135106,-1.16504,-10.1894,-0.00579035,-15.3632,0.1975656,
2,1,0,1,0,9078.63,0.201062,0.200716,68.2497,5,0.0119458,10,0.0136988,-1.1659,-1.94781,-0.0302904,-80.1701,0.200716,
2,1,0,1,0,9078.63,0.204269,0.203955,67.8861,5,0.0122182,10,0.0138457,-1.16822,-1.02796,-0.057395,-151.01,0.203955,
2,1,0,1,0,9078.64,0.207465,0.207158,67.3063,5,0.0124885,10,0.013943,-1.17194,-0.692863,-0.085154,-222.032,0.207158,
2,1,0,1,0,9078.64,0.210662,0.210331,66.4577,5,0.012756,10,0.0139781,-1.17745,-0.509583,-0.115781,-298.033,0.210331,
2,1,0,1,0,9078.64,0.213866,0.213584,65.3926,5,0.0130197,10,0.0139668,-1.18447,-0.404579,-0.145831,-369.394,0.213584,
2,1,0,1,0,9078.65,0.217062,0.216774,64.0656,5,0.0132786,10,0.0138877,-1.19338,-0.336639,-0.175262,-435.117,0.216774,
2,1,0,1,0,9078.65,0.220267,0.220004,62.5611,5,0.0135317,10,0.0137637,-1.2037,-0.28695,-0.205611,-498.698,0.2200038,
2,1,0,1,0,9078.66,0.223463,0.22321,60.8535,5,0.0137784,10,0.0135831,-1.21571,-0.256378,-0.230129,-543.468,0.22321,
2,1,0,1,0,9078.66,0.226659,0.226377,59.0129,5,0.014018,10,0.0133592,-1.22905,-0.231998,-0.254313,-583.123,0.226377,
2,1,0,1,0,9078.66,0.229866,0.229606,57.0918,5,0.0142501,10,0.0131086,-1.24343,-0.216429,-0.272606,-605.284,0.229606,
2,1,0,1,0,9078.67,0.233062,0.232796,55.102,5,0.0144743,10,0.0128275,-1.25883,-0.206342,-0.285933,-613.567,0.232796,
2,1,0,1,0,9078.67,0.236264,0.236006,53.1083,5,0.0146905,10,0.0125339,-1.27484,-0.198085,-0.297852,-616.824,0.236006,
2,1,0,1,0,9078.68,0.239466,0.239205,51.1422,5,0.0148988,10,0.0122335,-1.29122,-0.197099,-0.299342,-597.873,0.2392046,
2,1,0,1,0,9078.68,0.242662,0.242352,49.2297,5,0.0150993,10,0.0119309,-1.30777,-0.195412,-0.301926,-581.106,0.2423519,
2,1,0,1,0,9078.68,0.245869,0.245605,47.4434,5,0.0152925,10,0.0116524,-1.32382,-0.19888,-0.296661,-550.356,0.2456052,
2,1,0,1,0,9078.69,0.249065,0.248739,45.7095,5,0.0154786,10,0.0113697,-1.33999,-0.204214,-0.288912,-516.846,0.248739,
2,1,0,1,0,9078.69,0.252261,0.251995,44.1028,5,0.015658,10,0.0111137,-1.35553,-0.210105,-0.280812,-485.149,0.251995,
2,1,0,1,0,9078.7,0.255466,0.255166,42.6069,5,0.0158313,10,0.0108718,-1.37052,-0.221135,-0.266805,-445.492,0.255166,
2,1,0,1,0,9078.7,0.258662,0.258395,41.2386,5,0.0159988,10,0.0106558,-1.3847,-0.231794,-0.254537,-411.413,0.258395,
2,1,0,1,0,9078.7,0.261866,0.261586,39.9863,5,0.0161611,10,0.0104598,-1.39809,-0.244841,-0.240972,-377.466,0.261586,
2,1,0,1,0,9078.71,0.265063,0.264788,38.8397,5,0.0163186,10,0.0102843,-1.41072,-0.26132,-0.225777,-343.566,0.264788,
2,1,0,1,0,9078.71,0.268259,0.267994,37.7649,5,0.0164717,10,0.0101207,-1.42291,-0.275187,-0.2144,-317.331,0.267994,
2,1,0,1,0,9078.72,0.271466,0.271235,36.827,5,0.0166208,10,0.00998879,-1.43383,-0.296738,-0.198829,-286.903,0.271235,
2,1,0,1,0,9078.72,0.274662,0.274351,35.9356,5,0.0167662,10,0.00985894,-1.44448,-0.318495,-0.185246,-260.774,0.2743507,
2,1,0,1,0,9078.72,0.277869,0.277585,35.1683,5,0.0169083,10,0.00976218,-1.45385,-0.33852,-0.174288,-239.959,0.277585,
2,1,0,1,0,9078.73,0.281065,0.280792,34.4275,5,0.0170474,10,0.00966694,-1.4631,-0.367384,-0.160595,-216.419,0.280792,
2,1,0,1,0,9078.73,0.284262,0.283961,33.7733,5,0.0171837,10,0.00959031,-1.47143,-0.390379,-0.151135,-199.784,0.283961,
2,1,0,1,0,9078.74,0.287469,0.287166,33.1621,5,0.0173175,10,0.00952303,-1.47936,-0.418258,-0.141061,-183.04,0.287166,
2,1,0,1,0,9078.74,0.290665,0.290407,32.6065,5,0.017449,10,0.00946918,-1.4867,-0.454444,-0.129829,-165.694,0.290407,
2,1,0,1,0,9078.74,0.293861,0.293523,32.0971,5,0.0175783,10,0.00942124,-1.49353,-0.488749,-0.120716,-151.815,0.293523,
2,1,0,1,0,9078.75,0.297066,0.296756,31.6533,5,0.0177058,10,0.00939331,-1.49958,-0.502652,-0.117377,-146.197,0.296756,
2,1,0,1,0,9078.75,0.299638,0.299403,31.3044,5,0.0178065,10,0.00937262,-1.5044,-0.0986078,-0.59833,-704.882,0.299403,
2,1,0,1,0,9078.75,0.300012,0.299804,31.2328,5,0.0178221,10,0.00936371,-1.50539,0.00645409,9.14148,9252.31,0.299804,
2,1,0,1,0,9078.75,0.298983,0.298834,28.3531,5,0.0178597,10,0.00847288,-1.5474,0.0225651,2.61466,2283.6,0.298834,
2,1,0,1,0,9078.76,0.295787,0.295599,20.949,5,0.0179569,10,0.00619251,-1.67884,0.0230136,2.5637,1925.23,0.2955991,
2,1,0,1,0,9078.76,0.292579,0.29241,15.3366,5,0.0180286,10,0.00448458,-1.81427,0.0212729,2.77349,1656.5,0.29241,
2,1,0,1,0,9078.77,0.289383,0.289191,10.801,5,0.0180802,10,0.00312356,-1.96654,0.0174766,3.37594,1330.91,0.2891911,
2,1,0,1,0,9078.77,0.286187,0.285972,7.04607,5,0.0181153,10,0.00201498,-2.15205,0.0115849,5.09283,1098.91,0.2859717,
2,1,0,1,0,9078.77,0.282983,0.282758,3.85817,5,0.0181366,10,0.00109093,-2.41362,0.0131775,4.47733,923.9,0.282758,
2,1,0,1,0,9078.78,0.279786,0.279534,1.18641,5,0.0181464,10,0.000331643,-2.92576,0.0359216,1.64247,790.167,0.279534,
2,0,0,1,0,9078.78,0.276582,0.276276,-1.13086,5,0.0181461,10,-0.00031243,-2.94659,-0.133011,-0.443573,676.616,0.276276,
2,0,0,1,0,9078.79,0.273386,0.273138,-3.09503,5,0.0181374,10,-0.00084537,-2.50933,-0.0176368,-3.34527,586.072,0.273138,
2,0,0,1,0,9078.79,0.27019,0.269936,-4.81698,5,0.0181213,10,-0.00130028,-2.31722,-0.0154168,-3.827,509.755,0.269936,
2,0,0,1,0,9078.79,0.266982,0.266709,-6.32968,5,0.0180988,10,-0.00168819,-2.19862,-0.0281835,-2.09343,446.847,0.266709,
2,0,0,1,0,9078.8,0.263786,0.263468,-7.66015,5,0.0180707,10,-0.0020182,-2.11576,-0.0411848,-1.43257,393.873,0.263468,
2,0,0,1,0,9078.8,0.260585,0.26031,-8.82706,5,0.0180375,10,-0.00229777,-2.05418,-0.0551749,-1.06933,349.152,0.26031,
2,0,0,1,0,9078.81,0.257383,0.257101,-9.87241,5,0.018,10,-0.00253821,-2.00558,-0.0698937,-0.844139,313.634,0.257101,
2,0,0,1,0,9078.81,0.254187,0.253908,-10.7993,5,0.0179585,10,-0.00274202,-1.96661,-0.0863678,-0.683125,280.437,0.253908,
2,0,0,1,0,9078.81,0.25098,0.250716,-11.6594,5,0.0179135,10,-0.00292321,-1.93332,-0.103492,-0.57009,254.069,0.250716,
2,0,0,1,0,9078.82,0.247783,0.247518,-12.4143,5,0.0178652,10,-0.00307277,-1.90608,-0.122294,-0.482446,229.98,0.2475182,
2,0,0,1,0,9078.82,0.244587,0.244318,-13.1202,5,0.0178141,10,-0.00320551,-1.88206,-0.142982,-0.412639,208.55,0.244318,
2,0,0,1,0,9078.83,0.241383,0.241085,-13.7484,5,0.0177603,10,-0.00331453,-1.86175,-0.162529,-0.363012,192.883,0.241085,
2,0,0,1,0,9078.83,0.238187,0.237897,-14.3329,5,0.017704,10,-0.00340975,-1.84367,-0.184052,-0.320561,178.027,0.237897,
2,0,0,1,0,9078.83,0.234982,0.234682,-14.8902,5,0.0176455,10,-0.00349446,-1.8271,-0.204658,-0.288286,166.359,0.234682,
2,0,0,1,0,9078.84,0.231786,0.231506,-15.4011,5,0.0175849,10,-0.00356544,-1.81245,-0.226535,-0.260445,155.6,0.231506,
2,0,0,1,0,9078.84,0.22859,0.2283,-15.8752,5,0.0175223,10,-0.00362431,-1.79928,-0.250668,-0.235371,145.109,0.2283,
2,0,0,1,0,9078.85,0.225383,0.22508,-16.3272,5,0.0174578,10,-0.00367493,-1.78709,-0.271082,-0.217646,138.211,0.22508,
2,0,0,1,0,9078.85,0.222187,0.221933,-16.7402,5,0.0173916,10,-0.00371521,-1.77624,-0.292837,-0.201478,131.323,0.221933,
2,0,0,1,0,9078.85,0.218979,0.218677,-17.1742,5,0.0173238,10,-0.0037556,-1.76512,-0.313209,-0.188373,125.859,0.218677,
2,0,0,1,0,9078.86,0.215783,0.215505,-17.5556,5,0.0172542,10,-0.0037833,-1.75559,-0.331818,-0.177808,121.501,0.215505,
2,0,0,1,0,9078.86,0.212587,0.212283,-17.9378,5,0.0171832,10,-0.0038079,-1.74623,-0.352322,-0.16746,117.054,0.212283,
2,0,0,1,0,9078.87,0.20938,0.209085,-18.3013,5,0.0171107,10,-0.00382652,-1.73752,-0.371953,-0.158622,113.111,0.209085,
2,0,0,1,0,9078.87,0.206184,0.205916,-18.6679,5,0.0170368,10,-0.00384402,-1.7289,-0.381839,-0.154516,112.449,0.2059163,
2,0,0,1,0,9078.87,0.202988,0.202674,-19.0069,5,0.0169614,10,-0.00385219,-1.72109,-0.397689,-0.148357,109.976,0.202674,
2,0,0,1,0,9078.88,0.199783,0.199497,-19.3756,5,0.0168846,10,-0.00386538,-1.71274,-0.412832,-0.142915,107.936,0.1994966,
2,0,0,1,0,9078.88,0.196587,0.196323,-19.7048,5,0.0168064,10,-0.0038685,-1.70543,-0.422187,-0.139749,107.366,0.196323,
2,0,0,1,0,9078.89,0.193382,0.193089,-20.0525,5,0.0167269,10,-0.0038719,-1.69783,-0.437343,-0.134905,105.536,0.193089,
2,0,0,1,0,9078.89,0.190186,0.189876,-20.381,5,0.016646,10,-0.00386985,-1.69078,-0.432331,-0.136469,108.612,0.189876,
2,0,0,1,0,9078.89,0.18699,0.186667,-20.7297,5,0.0165637,10,-0.00386954,-1.68341,-0.43085,-0.136938,110.92,0.186667,
2,0,0,1,0,9078.9,0.183783,0.183506,-21.0969,5,0.01648,10,-0.0038714,-1.67578,-0.425162,-0.138771,114.299,0.183506,
2,0,0,1,0,9078.9,0.180587,0.180276,-21.4737,5,0.0163948,10,-0.00387118,-1.66809,-0.423432,-0.139337,116.74,0.180276,
2,0,0,1,0,9078.91,0.17738,0.177061,-21.8457,5,0.0163082,10,-0.00386801,-1.66063,-0.42003,-0.140466,119.813,0.177061,
2,0,0,1,0,9078.91,0.174183,0.173873,-22.2232,5,0.01622,10,-0.00386401,-1.65319,-0.403524,-0.146212,127.117,0.173873,
2,0,0,1,0,9078.91,0.170987,0.170686,-22.6328,5,0.0161302,10,-0.00386311,-1.64526,-0.391501,-0.150702,133.446,0.170686,
2,0,0,1,0,9078.92,0.16778,0.167481,-23.1001,5,0.0160388,10,-0.00386883,-1.63639,-0.36964,-0.159615,144.075,0.167481,
2,0,0,1,0,9078.92,0.164584,0.164255,-23.5546,5,0.0159454,10,-0.00386895,-1.62793,-0.355182,-0.166112,152.978,0.164255,
2,0,0,1,0,9078.93,0.161382,0.161133,-24.0587,5,0.0158502,10,-0.00387665,-1.61873,-0.339447,-0.173812,163.689,0.161133,
2,0,0,1,0,9078.93,0.158183,0.157898,-24.5892,5,0.0157528,10,-0.00388258,-1.60926,-0.316482,-0.186424,179.585,0.157898,
2,0,0,1,0,9078.93,0.154987,0.1547,-25.1922,5,0.0156532,10,-0.00389723,-1.59873,-0.299801,-0.196797,194.206,0.1547,
2,0,0,1,0,9078.94,0.151783,0.151487,-25.8476,5,0.0155511,10,-0.00391556,-1.58758,-0.279591,-0.211022,213.563,0.151487,
2,0,0,1,0,9078.94,0.148587,0.148283,-26.5542,5,0.0154462,10,-0.00393755,-1.57587,-0.262852,-0.224461,233.545,0.148283,
2,0,0,1,0,9078.95,0.145385,0.145099,-27.3226,5,0.0153384,10,-0.00396447,-1.56348,-0.24653,-0.239322,256.379,0.145099,
2,0,0,1,0,9078.95,0.142183,0.141888,-28.1844,5,0.0152273,10,-0.00399902,-1.54999,-0.231499,-0.254861,281.665,0.1418879,
2,0,0,1,0,9078.95,0.138987,0.138736,-29.1165,5,0.0151127,10,-0.00403951,-1.53586,-0.218347,-0.270212,308.485,0.138736,
2,0,0,1,0,9078.96,0.13578,0.135486,-30.1587,5,0.014994,10,-0.00408609,-1.52059,-0.207733,-0.284018,335.579,0.135486,
2,0,0,1,0,9078.96,0.132584,0.132298,-31.2716,5,0.0148711,10,-0.00413715,-1.50485,-0.198984,-0.296506,363.189,0.132298,
2,0,0,1,0,9078.97,0.129388,0.129127,-32.4667,5,0.0147435,10,-0.00419232,-1.48856,-0.190177,-0.310237,394.813,0.129127,
2,0,0,1,0,9078.97,0.12618,0.125922,-33.7704,5,0.0146109,10,-0.00425244,-1.47146,-0.184686,-0.319462,422.608,0.125922,
2,0,0,1,0,9078.97,0.122984,0.122748,-35.1881,5,0.0144729,10,-0.00431925,-1.4536,-0.18066,-0.326581,449.488,0.122748,
2,0,0,1,0,9078.98,0.119782,0.119537,-36.6644,5,0.014329,10,-0.00438274,-1.43575,-0.179729,-0.328272,470.027,0.119537,
2,0,0,1,0,9078.98,0.116584,0.11632,-38.223,5,0.0141791,10,-0.00444612,-1.41767,-0.182517,-0.323258,481.862,0.11632,
2,0,0,1,0,9078.99,0.113387,0.113159,-39.7693,5,0.014023,10,-0.00450027,-1.40045,-0.186035,-0.317144,491.761,0.113159,
2,0,0,1,0,9078.99,0.110183,0.10992,-41.3693,5,0.0138606,10,-0.0045473,-1.38332,-0.191153,-0.308653,497.759,0.10992,
2,0,0,1,0,9078.99,0.106987,0.106725,-42.9648,5,0.0136917,10,-0.00458541,-1.36689,-0.199121,-0.296303,495.457,0.106725,
2,0,0,1,0,9079,0.103785,0.103539,-44.5849,5,0.0135165,10,-0.0046163,-1.35081,-0.208524,-0.282941,490.469,0.103539,
2,0,0,1,0,9079,0.100583,0.100429,-46.0766,5,0.0133349,10,-0.00462743,-1.33652,-0.217979,-0.270668,485.949,0.1004292,
2,0,0,1,0,9079.01,0.0973873,0.0971928,-47.6115,5,0.0131474,10,-0.00462749,-1.32229,-0.230739,-0.2557,474.443,0.0971928,
2,0,0,1,0,9079.01,0.0941801,0.093931,-49.1819,5,0.0129536,10,-0.00461971,-1.30819,-0.2431,-0.242698,464.15,0.093931,
2,0,0,1,0,9079.01,0.0909839,0.0907986,-50.6297,5,0.0127539,10,-0.00459711,-1.29559,-0.256443,-0.230071,453.071,0.0907986,
2,0,0,1,0,9079.02,0.0877878,0.0875548,-52.0522,5,0.0125483,10,-0.00455742,-1.28356,-0.277269,-0.21279,430.829,0.08755479,
2,0,0,1,0,9079.02,0.0845806,0.0843757,-53.4185,5,0.0123372,10,-0.00450723,-1.27231,-0.299348,-0.197095,409.299,0.0843757,
2,0,0,1,0,9079.03,0.0813844,0.081186,-54.6729,5,0.0121209,10,-0.00443867,-1.26223,-0.324397,-0.181876,386.751,0.081186,
2,0,0,1,0,9079.03,0.0781828,0.0779751,-55.8784,5,0.0118997,10,-0.00435712,-1.25276,-0.353547,-0.16688,362.862,0.0779751,
2,0,0,1,0,9079.03,0.0749839,0.0747716,-56.9962,5,0.0116738,10,-0.00426169,-1.24415,-0.381383,-0.1547,343.23,0.0747716,
2,0,0,1,0,9079.04,0.0717877,0.0715395,-58.0763,5,0.0114435,10,-0.00415475,-1.236,-0.414672,-0.142281,321.572,0.0715395,
2,0,0,1,0,9079.04,0.0685832,0.0683339,-59.0841,5,0.0112091,10,-0.00403745,-1.22853,-0.458842,-0.128585,295.426,0.0683339,
2,0,0,1,0,9079.05,0.0653871,0.065176,-59.9942,5,0.0109708,10,-0.00391018,-1.22189,-0.518619,-0.113764,265.332,0.065176,
2,0,0,1,0,9079.05,0.0621854,0.061947,-60.7849,5,0.0107291,10,-0.00376544,-1.2162,-0.604163,-0.0976557,230.786,0.061947,
2,0,0,1,0,9079.05,0.0589837,0.0587139,-61.4794,5,0.0104845,10,-0.00360969,-1.21127,-0.709101,-0.0832039,198.953,0.0587139,
2,0,0,1,0,9079.06,0.0557876,0.0554849,-62.0495,5,0.0102373,10,-0.00344281,-1.20726,-0.863611,-0.0683178,164.884,0.0554849,
2,0,0,1,0,9079.06,0.0525804,0.0522666,-62.5626,5,0.00998802,10,-0.00326993,-1.20369,-1.07607,-0.0548289,133.377,0.0522666,
2,0,0,1,0,9079.07,0.0493842,0.0490536,-62.9108,5,0.009737,10,-0.003086,-1.20127,-1.3825,-0.0426764,104.451,0.0490536,
2,0,0,1,0,9079.07,0.0461881,0.0458808,-63.191,5,0.00948474,10,-0.00289926,-1.19934,-1.99376,-0.0295923,72.7885,0.0458808,
2,0,0,1,0,9079.07,0.0429808,0.0427272,-63.382,5,0.00923153,10,-0.00270813,-1.19803,-3.02055,-0.0195329,48.1919,0.04272718,
2,0,0,1,0,9079.08,0.0397847,0.0394993,-63.4919,5,0.00897776,10,-0.00250788,-1.19728,-6.23355,-0.00946492,23.3972,0.0394993,
2,0,0,1,0,9079.08,0.036583,0.036264,-63.5271,5,0.00872372,10,-0.00230375,-1.19704,-120.139,-0.000491097,1.21493,0.036264,
2,0,0,1,0,9079.09,0.0333841,0.0330679,-63.4908,5,0.00846966,10,-0.00209951,-1.19729,9.25465,0.00637517,-15.7717,0.0330679,
2,0,0,1,0,9079.09,0.030188,0.029874,-63.3976,5,0.00821589,10,-0.00189394,-1.19793,4.50813,0.0130875,-32.3416,0.029874,
2,0,0,1,0,9079.09,0.0269835,0.0266079,-63.2886,5,0.00796252,10,-0.00168398,-1.19867,3.37873,0.0174622,-43.0804,0.0266079,
2,0,0,1,0,9079.1,0.0237874,0.0234755,-63.1135,5,0.00770971,10,-0.00148162,-1.19988,2.71267,0.0217498,-53.5224,0.0234755,
2,0,0,1,0,9079.1,0.0205857,0.0202635,-62.9392,5,0.00745761,10,-0.00127537,-1.20108,2.30284,0.0256205,-62.8819,0.0202635,
2,0,0,1,0,9079.11,0.017384,0.0170802,-62.7129,5,0.00720629,10,-0.00107115,-1.20264,2.11377,0.0279122,-68.2745,0.01708019,
2,0,0,1,0,9079.11,0.0141879,0.0139202,-62.4907,5,0.0069559,10,-0.000869882,-1.20418,1.90354,0.0309949,-75.5477,0.0139202,
2,0,0,1,0,9079.11,0.0109806,0.0106891,-62.2406,5,0.00670644,10,-0.000665297,-1.20593,1.7719,0.0332976,-80.8217,0.0106891,
2,0,0,1,0,9079.12,0.00778448,0.00748033,-61.9734,5,0.00645803,10,-0.000463582,-1.20779,1.76313,0.0334632,-80.9278,0.00748033,
2,0,0,1,0,9079.12,0.00458834,0.00428426,-61.6787,5,0.00621073,10,-0.000264248,-1.20986,1.57013,0.0375765,-90.4212,0.00428426,
2,0,0,1,0,9079.13,0.0013811,0.00103412,-61.4479,5,0.00596455,10,-6.35443e-05,-1.21149,1.45906,0.0404369,-96.8146,0.00103412,
2,0,0,1,0,9079.13,-0.00181504,-0.0021524,-61.0794,5,0.00571953,10,0.000131468,-1.21411,1.33383,0.0442335,-105.305,-0.0021524,
2,0,0,1,0,9079.13,-0.0050195,-0.00540043,-60.7264,5,0.00547596,10,0.000327949,-1.21662,1.157,0.0509939,-120.744,-0.00540043,
2,0,0,1,0,9079.14,-0.00821564,-0.00854242,-60.328,5,0.00523389,10,0.000515347,-1.21948,1.07297,0.0549875,-129.296,-0.00854242,
2,0,0,1,0,9079.14,-0.0114118,-0.0117735,-59.9014,5,0.00499349,10,0.000705248,-1.22256,0.973675,0.0605951,-141.467,-0.0117735,
2,0,0,1,0,9079.15,-0.0146162,-0.0149229,-59.4282,5,0.00475485,10,0.000886841,-1.22601,0.904535,0.0652269,-151.082,-0.0149229,
2,0,0,1,0,9079.15,-0.0178124,-0.018138,-58.9244,5,0.00451818,10,0.00106877,-1.2297,0.828126,0.0712452,-163.622,-0.018138,
2,0,0,1,0,9079.15,-0.0210196,-0.0214147,-58.3832,5,0.00428361,10,0.00125026,-1.23371,0.770801,0.0765437,-174.167,-0.0214147,
2,0,0,1,0,9079.16,-0.0242158,-0.0245885,-57.8046,5,0.00405127,10,0.00142133,-1.23804,0.720058,0.0819379,-184.617,-0.0245885,
2,0,0,1,0,9079.16,-0.0274119,-0.0277602,-57.1924,5,0.00382131,10,0.00158767,-1.24266,0.673643,0.0875834,-195.28,-0.0277602,
2,0,0,1,0,9079.17,-0.0306191,-0.0309584,-56.5576,5,0.00359386,10,0.00175093,-1.24751,0.65441,0.0901576,-198.874,-0.0309584,
2,0,0,1,0,9079.17,-0.0338153,-0.0341481,-55.8966,5,0.003369,10,0.00190876,-1.25261,0.635876,0.0927853,-202.373,-0.0341481,
2,0,0,1,0,9079.17,-0.037017,-0.0373982,-55.2571,5,0.00314679,10,0.00206652,-1.25761,0.629252,0.0937622,-202.181,-0.0373982,
2,0,0,1,0,9079.18,-0.0402187,-0.0405646,-54.6011,5,0.00292714,10,0.00221487,-1.2628,0.631894,0.0933701,-198.999,-0.0405646,
2,0,0,1,0,9079.18,-0.0434148,-0.0437723,-53.9668,5,0.00271008,10,0.00236225,-1.26787,0.638832,0.0923561,-194.646,-0.0437723,
2,0,0,1,0,9079.19,-0.0466193,-0.0469694,-53.3452,5,0.00249554,10,0.00250559,-1.2729,0.66013,0.0893763,-186.268,-0.0469694,
2,0,0,1,0,9079.19,-0.0498154,-0.0501888,-52.7675,5,0.00228339,10,0.00264834,-1.27763,0.698346,0.0844853,-174.238,-0.0501888,
2,0,0,1,0,9079.19,-0.0530115,-0.0533531,-52.2191,5,0.00207349,10,0.00278605,-1.28217,0.745728,0.0791173,-161.5,-0.05335309,
2,0,0,1,0,9079.2,-0.056216,-0.0565693,-51.7371,5,0.00186563,10,0.00292673,-1.2862,0.815653,0.0723347,-146.308,-0.0565693,
2,0,0,1,0,9079.2,-0.0594121,-0.0597739,-51.2773,5,0.00165964,10,0.00306504,-1.29008,0.897648,0.0657273,-131.77,-0.0597739,
2,0,0,1,0,9079.21,-0.0626194,-0.0629636,-50.8984,5,0.00145536,10,0.00320475,-1.2933,0.993278,0.0593993,-118.175,-0.0629636,
2,0,0,1,0,9079.21,-0.0658155,-0.0661745,-50.5296,5,0.00125254,10,0.00334377,-1.29645,1.15423,0.0511165,-100.998,-0.0661745,
2,0,0,1,0,9079.21,-0.0690117,-0.0693578,-50.2258,5,0.00105107,10,0.00348355,-1.29907,1.33355,0.044243,-86.9179,-0.06935782,
2,0,0,1,0,9079.22,-0.0722189,-0.0725783,-49.984,5,0.000850655,10,0.00362776,-1.30117,1.59806,0.0369198,-72.1395,-0.0725783,
2,0,0,1,0,9079.22,-0.075415,-0.0757966,-49.783,5,0.000651159,10,0.00377338,-1.30292,1.99582,0.0295618,-57.5202,-0.0757966,
2,0,0,1,0,9079.23,-0.0786167,-0.078964,-49.607,5,0.000452407,10,0.00391717,-1.30446,2.48336,0.0237582,-46.0719,-0.078964,
2,0,0,1,0,9079.23,-0.0818184,-0.0821495,-49.4901,5,0.000254237,10,0.00406558,-1.30548,3.64939,0.0161671,-31.2842,-0.0821495,
2,0,0,1,0,9079.23,-0.0850146,-0.0853657,-49.3949,5,5.64854e-05,10,0.00421663,-1.30632,6.04482,0.00976042,-18.8503,-0.0853657,
2,0,0,1,0,9079.24,-0.088219,-0.0885915,-49.3827,5,-0.000141034,10,0.00437489,-1.30643,13.3183,0.00442999,-8.54682,-0.0885915,
2,0,0,1,0,9079.24,-0.0914152,-0.0917483,-49.366,5,-0.000338519,10,0.00452924,-1.30657,-32.6993,-0.00180432,3.4798,-0.0917483,
2,0,0,1,0,9079.25,-0.0946141,-0.0949369,-49.3808,5,-0.000536007,10,0.00468806,-1.30644,-9.12341,-0.00646688,12.4834,-0.0949369,
2,0,0,1,0,9079.25,-0.0978158,-0.0981394,-49.4394,5,-0.000733679,10,0.00485195,-1.30593,-4.8168,-0.0122488,23.671,-0.09813939,
2,0,0,1,0,9079.25,-0.101012,-0.101321,-49.5416,5,-0.000931635,10,0.00501959,-1.30503,-3.36316,-0.0175431,33.9572,-0.101321,
2,0,0,1,0,9079.26,-0.104219,-0.104577,-49.6696,5,-0.00113007,10,0.00519431,-1.30391,-2.72015,-0.02169,42.0768,-0.104577,
2,0,0,1,0,9079.26,-0.107415,-0.107739,-49.8155,5,-0.00132905,10,0.00536708,-1.30264,-2.23766,-0.0263669,51.3186,-0.107739,
2,0,0,1,0,9079.27,-0.110611,-0.110898,-49.9762,5,-0.00152867,10,0.00554227,-1.30124,-1.97461,-0.0298794,58.3539,-0.110898,
2,0,0,1,0,9079.27,-0.113819,-0.114207,-50.2029,5,-0.00172907,10,0.00573351,-1.29927,-1.70214,-0.0346623,67.9751,-0.114207,
2,0,0,1,0,9079.27,-0.117015,-0.117372,-50.4163,5,-0.00193032,10,0.00591746,-1.29743,-1.52697,-0.0386386,76.0971,-0.117372,
2,0,0,1,0,9079.28,-0.120216,-0.120537,-50.6854,5,-0.00213254,10,0.00610949,-1.29512,-1.41851,-0.0415931,82.3419,-0.1205373,
2,0,0,1,0,9079.28,-0.123418,-0.123764,-50.9553,5,-0.00233584,10,0.00630643,-1.29281,-1.30956,-0.0450533,89.6498,-0.123764,
2,0,0,1,0,9079.29,-0.126614,-0.126972,-51.254,5,-0.00254028,10,0.00650782,-1.29027,-1.25207,-0.0471219,94.3197,-0.126972,
2,0,0,1,0,9079.29,-0.129819,-0.130151,-51.5619,5,-0.00274593,10,0.00671083,-1.28767,-1.18362,-0.049847,100.368,-0.130151,
2,0,0,1,0,9079.29,-0.133015,-0.133365,-51.8954,5,-0.00295286,10,0.00692103,-1.28487,-1.12403,-0.0524898,106.38,-0.133365,
2,0,0,1,0,9079.3,-0.136214,-0.136532,-52.2368,5,-0.00316116,10,0.00713202,-1.28202,-1.09844,-0.0537127,109.548,-0.136532,
2,0,0,1,0,9079.3,-0.139416,-0.139743,-52.6127,5,-0.0033709,10,0.00735227,-1.27891,-1.05833,-0.0557484,114.489,-0.139743,
2,0,0,1,0,9079.31,-0.142612,-0.142944,-52.9633,5,-0.0035821,10,0.00757077,-1.27602,-1.04239,-0.0566009,117.038,-0.1429437,
2,0,0,1,0,9079.31,-0.145819,-0.14612,-53.3556,5,-0.00379477,10,0.0077963,-1.27282,-1.02902,-0.0573362,119.43,-0.14612,
2,0,0,1,0,9079.31,-0.149015,-0.149353,-53.7373,5,-0.004009,10,0.00802581,-1.26972,-1.00489,-0.0587129,123.153,-0.149353,
2,0,0,1,0,9079.32,-0.152211,-0.152532,-54.14,5,-0.00422479,10,0.00825807,-1.26648,-1.0118,-0.0583121,123.213,-0.152532,
2,0,0,1,0,9079.32,-0.155418,-0.155716,-54.5363,5,-0.00444221,10,0.00849219,-1.26331,-1.00856,-0.0584991,124.495,-0.1557163,
2,0,0,1,0,9079.33,-0.158615,-0.158948,-54.9363,5,-0.00466119,10,0.00873204,-1.26014,-1.00491,-0.0587118,125.888,-0.158948,
2,0,0,1,0,9079.33,-0.161816,-0.162154,-55.331,5,-0.00488177,10,0.00897214,-1.25703,-1.01723,-0.0580005,125.256,-0.162154,
2,0,0,1,0,9079.33,-0.165018,-0.165318,-55.7496,5,-0.00510395,10,0.00921644,-1.25376,-1.01152,-0.0583282,126.889,-0.1653183,
2,0,0,1,0,9079.34,-0.168214,-0.168539,-56.1424,5,-0.00532777,10,0.00946217,-1.25071,-1.03024,-0.057268,125.45,-0.168539,
2,0,0,1,0,9079.34,-0.171419,-0.171708,-56.5554,5,-0.00555319,10,0.00971103,-1.24753,-1.05187,-0.0560906,123.767,-0.171708,
2,0,0,1,0,9079.35,-0.174615,-0.174957,-56.9371,5,-0.00578022,10,0.00996158,-1.2446,-1.04697,-0.0563531,125.224,-0.174957,
2,0,0,1,0,9079.35,-0.177814,-0.17814,-57.3365,5,-0.00600881,10,0.0102139,-1.24157,-1.06027,-0.0556461,124.544,-0.17814,
2,0,0,1,0,9079.35,-0.181015,-0.181316,-57.7424,5,-0.00623904,10,0.0104696,-1.23851,-1.05791,-0.0557703,125.665,-0.1813156,
2,0,0,1,0,9079.36,-0.184211,-0.18451,-58.1497,5,-0.00647086,10,0.0107292,-1.23545,-1.06173,-0.0555698,126.082,-0.18451,
2,0,0,1,0,9079.36,-0.187419,-0.187735,-58.5429,5,-0.00670429,10,0.0109906,-1.23253,-1.08527,-0.0543642,124.188,-0.187735,
2,0,0,1,0,9079.37,-0.190615,-0.190892,-58.9444,5,-0.00693931,10,0.011252,-1.22956,-1.08694,-0.0542807,124.875,-0.1908921,
2,0,0,1,0,9079.37,-0.193811,-0.194108,-59.3311,5,-0.00717592,10,0.0115167,-1.22672,-1.0971,-0.0537783,124.451,-0.194108,
2,0,0,1,0,9079.37,-0.197018,-0.197348,-59.7529,5,-0.00741414,10,0.0117921,-1.22364,-1.22842,-0.0480293,111.504,-0.197348,
2,0,0,1,0,9079.38,-0.199647,-0.199893,-60.0559,5,-0.00761185,10,0.0120047,-1.22144,0.289605,0.203725,-461.853,-0.199893,
2,0,0,1,0,9079.38,-0.200134,-0.200647,-60.032,5,-0.0076479,10,0.0120452,-1.22162,-0.0139541,-4.22816,8975.16,-0.200647,
2,0,0,1,1,9079.38,-0.198935,-0.199449,-56.8647,5,-0.00773462,10,0.0113416,-1.24516,-0.0487724,-1.2097,2417.04,-0.199449,
2,0,0,1,1,9079.38,-0.195739,-0.19619,-49.3599,5,-0.00794575,10,0.00968392,-1.30663,-0.0545767,-1.08105,2032.32,-0.19619,
2,0,0,1,1,9079.39,-0.192535,-0.192942,-43.2551,5,-0.00813008,10,0.00834572,-1.36396,-0.0554052,-1.06488,1829.47,-0.192942,
2,0,0,1,1,9079.39,-0.189339,-0.189799,-37.9855,5,-0.00829187,10,0.00720961,-1.42038,-0.0556559,-1.06009,1583.79,-0.189799,
2,0,0,1,1,9079.4,-0.186137,-0.186554,-33.2744,5,-0.00843377,10,0.00620748,-1.47789,-0.0542862,-1.08683,1414.77,-0.186554,
2,0,0,1,1,9079.4,-0.182935,-0.183335,-28.9999,5,-0.00855779,10,0.00531668,-1.5376,-0.0517938,-1.13913,1286.35,-0.1833346,
2,0,0,1,1,9079.4,-0.179739,-0.180106,-25.0947,5,-0.0086655,10,0.0045197,-1.60042,-0.0485483,-1.21528,1181.63,-0.180106,
2,0,0,1,1,9079.41,-0.176532,-0.176945,-21.4505,5,-0.00875816,10,0.00379555,-1.66856,-0.0446621,-1.32103,1093.3,-0.1769446,
2,0,0,1,1,9079.41,-0.173336,-0.173701,-18.0867,5,-0.00883683,10,0.00314168,-1.74264,-0.0398145,-1.48187,1025.7,-0.173701,
2,0,0,1,1,9079.42,-0.17014,-0.170486,-14.9522,5,-0.00890254,10,0.00254913,-1.8253,-0.0347934,-1.69573,957.081,-0.170486,
2,0,0,1,1,9079.42,-0.166932,-0.167318,-11.9786,5,-0.00895605,10,0.00200424,-1.92159,-0.028808,-2.04804,906.628,-0.167318,
2,0,0,1,1,9079.42,-0.163736,-0.164131,-9.18649,5,-0.00899809,10,0.00150778,-2.03685,-0.0222433,-2.65248,862.212,-0.164131,
2,0,0,1,1,9079.43,-0.160532,-0.160953,-6.52886,5,-0.00902922,10,0.00105084,-2.18516,-0.0148671,-3.96849,809.356,-0.1609526,
2,0,0,1,1,9079.43,-0.157336,-0.157816,-4.02816,5,-0.00905006,10,0.000635708,-2.39489,-0.0108,-5.46297,766.093,-0.157816,
2,0,0,1,1,9079.44,-0.154139,-0.154574,-1.66424,5,-0.00906117,10,0.000257249,-2.77878,-0.0341333,-1.72852,727.266,-0.154574,
2,1,0,1,1,9079.44,-0.150935,-0.151353,0.602573,5,-0.00906304,10,-9.12011e-05,-3.21999,0.161099,0.366234,689.127,-0.151353,
2,1,0,1,1,9079.44,-0.147739,-0.148182,2.75869,5,-0.00905608,10,-0.000408788,-2.5593,0.0209277,2.81923,661.719,-0.148182,
2,1,0,1,1,9079.45,-0.144532,-0.144945,4.84176,5,-0.00904065,10,-0.000701787,-2.315,0.01099,5.36853,634.448,-0.144945,
2,1,0,1,1,9079.45,-0.141335,-0.141769,6.8094,5,-0.0090171,10,-0.00096536,-2.16689,0.0220178,2.67965,605.525,-0.141769,
2,1,0,1,1,9079.46,-0.138139,-0.13862,8.68057,5,-0.00898591,10,-0.0012033,-2.06145,0.0316294,1.86535,580.962,-0.13862,
2,1,0,1,1,9079.46,-0.134932,-0.135405,10.4954,5,-0.00894734,10,-0.00142113,-1.979,0.041117,1.43493,557.242,-0.135405,
2,1,0,1,1,9079.46,-0.131736,-0.132195,12.2486,5,-0.00890167,10,-0.00161921,-1.91191,0.0505117,1.16805,537.547,-0.132195,
2,1,0,1,1,9079.47,-0.12854,-0.128981,13.9351,5,-0.0088491,10,-0.00179737,-1.85589,0.0603843,0.977075,516.189,-0.128981,
2,1,0,1,1,9079.47,-0.125333,-0.125802,15.5709,5,-0.00878989,10,-0.00195886,-1.80768,0.0705688,0.836064,496.299,-0.125802,
2,1,0,1,1,9079.48,-0.122136,-0.12258,17.1158,5,-0.00872433,10,-0.00209805,-1.7666,0.0810819,0.727659,477.363,-0.12258,
2,1,0,1,1,9079.48,-0.118932,-0.119368,18.615,5,-0.00865272,10,-0.00222203,-1.73014,0.09275,0.636119,455.561,-0.119368,
2,1,0,1,1,9079.48,-0.115736,-0.116162,20.0545,5,-0.00857523,10,-0.00232958,-1.69779,0.10367,0.569115,439.946,-0.116162,
2,1,0,1,1,9079.49,-0.11254,-0.112914,21.4423,5,-0.00849209,10,-0.00242114,-1.66873,0.115419,0.51118,423.078,-0.112914,
2,1,0,1,1,9079.49,-0.109335,-0.109732,22.7682,5,-0.0084035,10,-0.0024984,-1.64267,0.128081,0.460646,405.472,-0.109732,
2,1,0,1,1,9079.5,-0.106139,-0.10657,24.0296,5,-0.00830977,10,-0.00256082,-1.61925,0.140629,0.419544,390.433,-0.10657,
2,1,0,1,1,9079.5,-0.102932,-0.10334,25.2537,5,-0.00821107,10,-0.00260971,-1.59768,0.15427,0.382448,374.382,-0.10334,
2,1,0,1,1,9079.5,-0.0997357,-0.100161,26.4217,5,-0.0081076,10,-0.00264641,-1.57804,0.167717,0.351784,360.768,-0.100161,
2,1,0,1,1,9079.51,-0.0965395,-0.0969602,27.5497,5,-0.0079995,10,-0.00267122,-1.55988,0.181729,0.324659,347.334,-0.0969602,
2,1,0,1,1,9079.51,-0.0933323,-0.0937292,28.662,5,-0.00788695,10,-0.00268647,-1.54269,0.195993,0.301032,334.998,-0.0937292,
2,1,0,1,1,9079.52,-0.0901362,-0.0905617,29.6919,5,-0.00777012,10,-0.00268895,-1.52736,0.211363,0.27914,322.096,-0.0905617,
2,1,0,1,1,9079.52,-0.0869345,-0.0873444,30.715,5,-0.0076492,10,-0.00268279,-1.51265,0.22812,0.258636,308.835,-0.0873444,
2,1,0,1,1,9079.52,-0.0837328,-0.0841388,31.6794,5,-0.0075243,10,-0.00266547,-1.49922,0.243513,0.242287,298.51,-0.0841388,
2,1,0,1,1,9079.53,-0.0805366,-0.0809247,32.6165,5,-0.00739563,10,-0.00263948,-1.48656,0.262935,0.22439,284.683,-0.0809247,
2,1,0,1,1,9079.53,-0.0773322,-0.0777234,33.5243,5,-0.00726325,10,-0.00260562,-1.47464,0.280477,0.210356,274.246,-0.0777234,
2,1,0,1,1,9079.54,-0.074136,-0.074505,34.3702,5,-0.00712737,10,-0.00256075,-1.46382,0.298399,0.197722,264.509,-0.074505,
2,1,0,1,1,9079.54,-0.0709371,-0.0713238,35.1938,5,-0.00698814,10,-0.00251016,-1.45353,0.319556,0.184631,253.022,-0.0713238,
2,1,0,1,1,9079.54,-0.0677354,-0.0681468,35.9963,5,-0.00684566,10,-0.00245304,-1.44374,0.337772,0.174674,244.822,-0.0681468,
2,1,0,1,1,9079.55,-0.0645393,-0.0649561,36.7547,5,-0.00670006,10,-0.00238744,-1.43469,0.361542,0.16319,233.529,-0.0649561,
2,1,0,1,1,9079.55,-0.0613321,-0.0617112,37.5024,5,-0.00655149,10,-0.00231432,-1.42594,0.387643,0.152202,222.165,-0.0617112,
2,1,0,1,1,9079.56,-0.0581359,-0.0585279,38.1821,5,-0.00640001,10,-0.00223471,-1.41814,0.412755,0.142942,212.556,-0.0585279,
2,1,0,1,1,9079.56,-0.0549398,-0.0553318,38.8434,5,-0.00624589,10,-0.00214927,-1.41068,0.441346,0.133682,202.34,-0.0553318,
2,1,0,1,1,9079.56,-0.0517325,-0.0521241,39.4822,5,-0.00608913,10,-0.00205797,-1.4036,0.466285,0.126532,194.64,-0.0521241,
2,1,0,1,1,9079.57,-0.0485364,-0.0489079,40.093,5,-0.0059299,10,-0.00196087,-1.39693,0.495988,0.118954,185.805,-0.0489079,
2,1,0,1,1,9079.57,-0.0453347,-0.0457171,40.6755,5,-0.00576831,10,-0.00185957,-1.39067,0.534218,0.110442,174.956,-0.0457171,
2,1,0,1,1,9079.58,-0.042133,-0.0425041,41.2268,5,-0.00560442,10,-0.00175231,-1.38482,0.567918,0.103888,166.846,-0.0425041,
2,1,0,1,1,9079.58,-0.0389369,-0.0393281,41.7209,5,-0.00543847,10,-0.00164081,-1.37965,0.612357,0.0963491,156.695,-0.0393281,
2,1,0,1,1,9079.58,-0.0357324,-0.0361098,42.2283,5,-0.00527053,10,-0.00152486,-1.3744,0.656779,0.0898323,147.822,-0.03610982,
2,1,0,1,1,9079.59,-0.0325363,-0.0328957,42.6846,5,-0.00510065,10,-0.00140414,-1.36973,0.701556,0.0840988,139.859,-0.0328957,
2,1,0,1,1,9079.59,-0.0293374,-0.0297294,43.1152,5,-0.00492901,10,-0.00128179,-1.36537,0.765223,0.0771017,129.545,-0.0297294,
2,1,0,1,1,9079.6,-0.0261357,-0.0264898,43.5165,5,-0.00475567,10,-0.00115274,-1.36135,0.823454,0.0716494,121.515,-0.0264898,
2,1,0,1,1,9079.6,-0.0229395,-0.0233118,43.8863,5,-0.00458084,10,-0.00102307,-1.35767,0.898651,0.065654,112.31,-0.0233118,
2,1,0,1,1,9079.6,-0.0197323,-0.0201168,44.2374,5,-0.00440456,10,-0.000889914,-1.35421,0.979849,0.0602134,103.813,-0.0201168,
2,1,0,1,1,9079.61,-0.0165361,-0.0168878,44.5575,5,-0.00422693,10,-0.000752478,-1.35108,1.06024,0.0556476,96.6465,-0.0168878,
2,1,0,1,1,9079.61,-0.01334,-0.0137013,44.8441,5,-0.00404807,10,-0.000614422,-1.3483,1.18054,0.049977,87.3673,-0.0137013,
2,1,0,1,1,9079.62,-0.0101328,-0.010519,45.1226,5,-0.00386808,10,-0.000474646,-1.34561,1.32167,0.0446406,78.4982,-0.010519,
2,1,0,1,1,9079.62,-0.00693663,-0.00733355,45.3543,5,-0.0036871,10,-0.000332608,-1.34338,1.45627,0.0405145,71.6127,-0.00733355,
2,1,0,1,1,9079.62,-0.00373494,-0.00410249,45.5611,5,-0.00350526,10,-0.000186914,-1.34141, , , ,-0.00410249,
2,1,0,1,1,9079.63,-0.000774628,-0.00116676,45.7417,5,-0.00333632,10,-5.33694e-05,-1.33969, , , ,-0.00116676,
2,1,0,0,1,9079.63,-0.000125413,-0.000611633,45.7909,5,-0.00329971,10,-2.80073e-05,-1.33922, , , ,-0.000611633,