File: Figure_codes/Fig_3-5/rawdata_trumpetplot_data/after 10th/20221101_1-115_003_TrumpetPlot_ParaChange_from10_every3_06_CV_C01_32.csv
mode,ox/red,error,control changes,counter inc.,time/s,control/V,Ewe/V,<I>/mA,cycle number,(Q-Qo)/C,I Range,P/W,log(|I|),Tafel slope mV/dec,alpha_eff,dI/d(E-IR),E-IR/V,
2,0,0,0,0,64194.2,2.44065e-05,-0.00042076,-1.41662,33,0.0000000E+000,10,5.96056e-07,-2.84875, , , ,-0.00042076,
2,0,0,1,0,64194.2,0.00129787,0.000963582,-0.460137,33,-2.62035e-05,10,-4.43379e-07,-3.33711, , , ,0.000963582,
2,1,0,1,0,64194.3,0.00279427,0.00247779,0.154076,33,-3.03721e-05,10,3.81767e-07,-3.81226,-0.0465122,-1.26848,329.957,0.00247779,
2,1,0,1,0,64194.3,0.00429425,0.00395476,0.518416,33,-1.68344e-05,10,2.05021e-06,-3.28532,0.00234661,25.1427,207.945,0.00395476,
2,1,0,1,0,64194.3,0.00579422,0.00542899,0.760615,33,7.8993e-06,10,4.12937e-06,-3.11884,0.0102083,5.7796,147.69,0.00542899,
2,1,0,1,0,64194.4,0.00729063,0.00695973,0.941984,33,4.05105e-05,10,6.55595e-06,-3.02596,0.0187057,3.15411,108.932,0.00695973,
2,1,0,1,0,64194.4,0.00878703,0.00844325,1.0799,33,7.90908e-05,10,9.11783e-06,-2.96662,0.0288641,2.04406,83.2333,0.00844325,
2,1,0,1,0,64194.4,0.010287,0.00996559,1.18793,33,0.000122298,10,1.18384e-05,-2.92521,0.0421395,1.40011,63.6645,0.00996559,
2,1,0,1,0,64194.5,0.011787,0.0114618,1.27202,33,0.000169118,10,1.45796e-05,-2.89551,0.0549597,1.07351,52.7138,0.0114618,
2,1,0,1,0,64194.5,0.0132825,0.0129584,1.34165,33,0.000218629,10,1.73856e-05,-2.87236,0.0675626,0.873264,45.5009,0.0129584,
2,1,0,1,0,64194.6,0.014778,0.0144489,1.40675,33,0.000270693,10,2.03261e-05,-2.85178,0.0817872,0.721384,39.3768,0.0144489,
2,1,0,1,0,64194.6,0.0162816,0.0159512,1.46391,33,0.000325241,10,2.33512e-05,-2.83449,0.0970869,0.607703,34.408,0.0159512,
2,1,0,1,0,64194.6,0.017778,0.0174779,1.51062,33,0.000381421,10,2.64024e-05,-2.82084,0.116287,0.507366,29.7571,0.0174779,
2,1,0,1,0,64194.7,0.0192744,0.018944,1.55122,33,0.000439156,10,2.93864e-05,-2.80933,0.132319,0.445891,26.9108,0.018944,
2,1,0,1,0,64194.7,0.0207743,0.020406,1.59237,33,0.000498636,10,3.24939e-05,-2.79796,0.136517,0.432179,26.8032,0.020406,
2,1,0,1,0,64194.7,0.0222743,0.0219034,1.6264,33,0.000559612,10,3.56236e-05,-2.78877,0.148469,0.397389,25.2762,0.02190339,
2,1,0,1,0,64194.8,0.0237707,0.0234108,1.6636,33,0.000621838,10,3.89462e-05,-2.77895,0.167718,0.35178,22.8443,0.0234108,
2,1,0,1,0,64194.8,0.0252671,0.0249649,1.70002,33,0.000685334,10,4.24407e-05,-2.76955,0.178283,0.330935,21.9521,0.02496486,
2,1,0,1,0,64194.9,0.0267671,0.0264195,1.73812,33,0.0007503,10,4.59202e-05,-2.75992,0.170124,0.346807,23.436,0.0264195,
2,1,0,1,0,64194.9,0.0282671,0.0279367,1.77047,33,0.000816595,10,4.94612e-05,-2.75191,0.181968,0.324232,22.3342,0.0279367,
2,1,0,1,0,64194.9,0.0297626,0.0293846,1.80486,33,0.000883958,10,5.3035e-05,-2.74356,0.187892,0.314009,22.0336,0.0293846,
2,1,0,1,0,64195,0.0312581,0.0309034,1.83079,33,0.000952516,10,5.65777e-05,-2.73736,0.192361,0.306715,21.9589,0.0309034,
2,1,0,1,0,64195,0.0327616,0.032406,1.8621,33,0.0010226,10,6.03434e-05,-2.73,0.20162,0.292629,21.3139,0.032406,
2,1,0,1,0,64195,0.034258,0.0339315,1.89625,33,0.00109358,10,6.43427e-05,-2.7221,0.195642,0.301571,22.3795,0.0339315,
2,1,0,1,0,64195.1,0.0357545,0.0354482,1.92918,33,0.00116579,10,6.83859e-05,-2.71463,0.217107,0.271755,20.4573,0.0354482,
2,1,0,1,0,64195.1,0.0372544,0.0369455,1.96331,33,0.00123942,10,7.25355e-05,-2.70701,0.216572,0.272427,20.861,0.0369455,
2,1,0,1,0,64195.2,0.0387544,0.0384226,1.99382,33,0.00131413,10,7.66077e-05,-2.70031,0.216881,0.272039,21.1791,0.0384226,
2,1,0,1,0,64195.2,0.0402508,0.0399438,2.02805,33,0.00138988,10,8.10078e-05,-2.69292,0.208553,0.282902,22.3406,0.0399438,
2,1,0,1,0,64195.2,0.0417472,0.0414079,2.05964,33,0.00146689,10,8.52852e-05,-2.68621,0.236155,0.249836,20.0433,0.0414079,
2,1,0,1,0,64195.3,0.0432472,0.0429332,2.08976,33,0.00154523,10,8.972e-05,-2.6799,0.24845,0.237472,19.3603,0.0429332,
2,1,0,1,0,64195.3,0.0447472,0.0443981,2.11681,33,0.00162468,10,9.39824e-05,-2.67432,0.234564,0.251531,20.8306,0.0443981,
2,1,0,1,0,64195.3,0.0462427,0.0458953,2.14801,33,0.00170509,10,9.85837e-05,-2.66796,0.223457,0.264033,22.1797,0.0458953,
2,1,0,1,0,64195.4,0.0477382,0.047403,2.18073,33,0.00178671,10,0.000103373,-2.6614,0.234869,0.251204,21.401,0.047403,
2,1,0,1,0,64195.4,0.0492417,0.0489242,2.21536,33,0.00186999,10,0.000108385,-2.65455,0.258122,0.228574,19.7175,0.0489242,
2,1,0,1,0,64195.5,0.0507381,0.0504195,2.24317,33,0.00195393,10,0.000113099,-2.64914,0.255439,0.230975,20.1923,0.0504195,
2,1,0,1,0,64195.5,0.0522345,0.0519097,2.2761,33,0.00203895,10,0.000118152,-2.64281,0.248632,0.237298,21.0387,0.0519097,
2,1,0,1,0,64195.5,0.0537345,0.0534005,2.30608,33,0.00212537,10,0.000123146,-2.63713,0.253052,0.233153,20.955,0.0534005,
2,1,0,1,0,64195.6,0.0552345,0.0548996,2.33551,33,0.00221292,10,0.000128219,-2.63162,0.285631,0.20656,18.7904,0.0548996,
2,1,0,1,0,64195.6,0.0567309,0.0563938,2.35852,33,0.00230135,10,0.000133006,-2.62736,0.299881,0.196744,18.1433,0.0563938,
2,1,0,1,0,64195.6,0.0582273,0.0578835,2.38738,33,0.00239074,10,0.00013819,-2.62208,0.327866,0.179952,16.8064,0.0578835,
2,1,0,1,0,64195.7,0.0597308,0.0594193,2.41674,33,0.00248171,10,0.000143601,-2.61677,0.285765,0.206463,19.4901,0.0594193,
2,1,0,1,0,64195.7,0.0612264,0.060946,2.44526,33,0.00257325,10,0.000149029,-2.61167,0.311149,0.18962,18.0749,0.060946,
2,1,0,1,0,64195.8,0.0627219,0.0623879,2.47657,33,0.00266585,10,0.000154508,-2.60615,0.312952,0.188527,18.1649,0.0623879,
2,1,0,1,0,64195.8,0.0642218,0.0639161,2.50047,33,0.00275962,10,0.00015982,-2.60198,0.322528,0.18293,17.8374,0.0639161,
2,1,0,1,0,64195.8,0.0657218,0.0654131,2.52568,33,0.0028544,10,0.000165213,-2.59762,0.312072,0.189059,18.6233,0.0654131,
2,1,0,1,0,64195.9,0.0672182,0.066867,2.55055,33,0.00294993,10,0.000170547,-2.59337,0.327599,0.180098,17.9342,0.066867,
2,1,0,1,0,64195.9,0.0687146,0.0684395,2.57396,33,0.00304641,10,0.000176161,-2.5894,0.397102,0.148577,14.9462,0.0684395,
2,1,0,1,0,64195.9,0.0702146,0.0698931,2.5926,33,0.00314396,10,0.000181205,-2.58626,0.382869,0.1541,15.6385,0.0698931,
2,1,0,1,0,64196,0.0717146,0.071368,2.62282,33,0.00324242,10,0.000187186,-2.58123,0.380979,0.154864,15.8363,0.071368,
2,1,0,1,0,64196,0.073211,0.0728732,2.6478,33,0.00334152,10,0.000192953,-2.57712,0.409922,0.14393,14.8441,0.0728732,
2,1,0,1,0,64196.1,0.0747074,0.0743611,2.66887,33,0.00344143,10,0.00019846,-2.57367,0.47627,0.123879,12.8746,0.0743611,
2,1,0,1,0,64196.1,0.0762109,0.0758174,2.68594,33,0.00354263,10,0.000203641,-2.5709,0.438734,0.134478,14.0897,0.0758174,
2,1,0,1,0,64196.1,0.0777064,0.0773633,2.70629,33,0.00364405,10,0.000209367,-2.56763,0.412916,0.142886,15.099,0.07736329,
2,1,0,1,0,64196.2,0.079202,0.0788557,2.72771,33,0.0037463,10,0.000215095,-2.5642,0.506036,0.116593,12.4157,0.0788557,
2,1,0,1,0,64196.2,0.0807019,0.080364,2.74604,33,0.00384959,10,0.000220683,-2.56129,0.591705,0.0997118,10.6839,0.080364,
2,1,0,1,0,64196.2,0.0822019,0.0818575,2.76027,33,0.00395351,10,0.000225949,-2.55905,0.539968,0.109266,11.7872,0.0818575,
2,1,0,1,0,64196.3,0.0836983,0.0833957,2.78095,33,0.00405773,10,0.000231919,-2.55581,0.561212,0.10513,11.4144,0.0833957,
2,1,0,1,0,64196.3,0.0851947,0.0848593,2.79817,33,0.00416265,10,0.000237451,-2.55313,0.580591,0.101621,11.0944,0.0848593,
2,1,0,1,0,64196.4,0.0866947,0.0863622,2.8213,33,0.00426862,10,0.000243654,-2.54955,0.567924,0.103887,11.4074,0.0863622,
2,1,0,1,0,64196.4,0.0881947,0.0878555,2.83826,33,0.00437527,10,0.000249357,-2.54695,0.508731,0.115975,12.8392,0.0878555,
2,1,0,1,0,64196.4,0.0896911,0.0893767,2.85743,33,0.00448222,10,0.000255388,-2.54402,0.49687,0.118743,13.2621,0.0893767,
2,1,0,1,0,64196.5,0.0911875,0.0908466,2.87674,33,0.00458998,10,0.000261342,-2.5411,0.407558,0.144765,16.2707,0.0908466,
2,1,0,1,0,64196.5,0.0926901,0.0923714,2.9023,33,0.00469927,10,0.000268089,-2.53726,0.396642,0.148749,16.8432,0.0923714,
2,1,0,1,0,64196.5,0.0941856,0.0938622,2.92655,33,0.00480885,10,0.000274692,-2.53364,0.401294,0.147025,16.8105,0.09386225,
2,1,0,1,0,64196.6,0.095682,0.0953103,2.95021,33,0.00491929,10,0.000281186,-2.53015,0.370101,0.159416,18.3772,0.0953103,
2,1,0,1,0,64196.6,0.097182,0.0968248,2.98192,33,0.00503106,10,0.000288724,-2.5255,0.333627,0.176844,20.5517,0.0968248,
2,1,0,1,0,64196.7,0.098682,0.0983379,3.01466,33,0.00514404,10,0.000296455,-2.52076,0.297152,0.198551,23.333,0.0983379,
2,1,0,1,0,64196.7,0.100178,0.0998253,3.0488,33,0.00525795,10,0.000304348,-2.51587,0.292605,0.201637,23.999,0.09982533,
2,1,0,1,0,64196.7,0.101675,0.101346,3.07994,33,0.00537319,10,0.000312139,-2.51146,0.270214,0.218345,26.3239,0.101346,
2,1,0,1,0,64196.8,0.103175,0.102819,3.12975,33,0.00549028,10,0.000321797,-2.50449,0.226352,0.260656,31.9024,0.102819,
2,1,0,1,0,64196.8,0.104675,0.104327,3.17836,33,0.0056091,10,0.000331589,-2.4978,0.223226,0.264306,32.7978,0.104327,
2,1,0,1,0,64196.8,0.106171,0.10587,3.22623,33,0.00572947,10,0.000341562,-2.4913,0.227967,0.25881,32.5643,0.10587,
2,1,0,1,0,64196.9,0.107667,0.107396,3.27846,33,0.00585165,10,0.000352092,-2.48433,0.224945,0.262286,33.5179,0.107396,
2,1,0,1,0,64196.9,0.10917,0.108862,3.32706,33,0.00597624,10,0.000362192,-2.47794,0.224786,0.262472,34.0435,0.108862,
2,1,0,1,0,64197,0.110666,0.110345,3.37732,33,0.00610218,10,0.000372671,-2.47143,0.217206,0.271631,35.7775,0.110345,
2,1,0,1,0,64197,0.112162,0.111814,3.42798,33,0.0062301,10,0.000383294,-2.46496,0.233402,0.252783,33.8125,0.111814,
2,1,0,1,0,64197,0.113662,0.113327,3.47925,33,0.00636026,10,0.000394292,-2.45851,0.253867,0.232405,31.5663,0.113327,
2,1,0,1,0,64197.1,0.115162,0.114802,3.52639,33,0.00649224,10,0.000404837,-2.45267,0.254511,0.231817,31.9423,0.114802,
2,1,0,1,0,64197.1,0.116658,0.116299,3.57236,33,0.00662567,10,0.000415461,-2.44704,0.265691,0.222063,30.9733,0.116299,
2,1,0,1,0,64197.1,0.118155,0.117785,3.62557,33,0.00676091,10,0.000427037,-2.44062,0.294387,0.200416,28.3003,0.117785,
2,1,0,1,0,64197.2,0.119655,0.119314,3.66632,33,0.00689818,10,0.000437442,-2.43577,0.333252,0.177043,25.2687,0.119314,
2,1,0,1,0,64197.2,0.121155,0.1208,3.70155,33,0.00703681,10,0.000447149,-2.43162,0.362855,0.162599,23.4645,0.1208004,
2,1,0,1,0,64197.3,0.122651,0.122293,3.73281,33,0.00717636,10,0.000456497,-2.42796,0.385164,0.153182,22.2871,0.122293,
2,1,0,1,0,64197.3,0.124147,0.123854,3.76168,33,0.00731712,10,0.0004659,-2.42462,0.454933,0.12969,19.0293,0.123854,
2,1,0,1,0,64197.3,0.12565,0.125295,3.78329,33,0.00745969,10,0.000474027,-2.42213,0.542158,0.108824,16.0818,0.125295,
2,1,0,1,0,64197.4,0.127146,0.12678,3.805,33,0.00760241,10,0.000482397,-2.41964,0.58537,0.100791,14.9886,0.12678,
2,1,0,1,0,64197.4,0.128642,0.128292,3.82993,33,0.00774585,10,0.000491348,-2.41681,0.696604,0.0846967,12.6623,0.128292,
2,1,0,1,0,64197.4,0.130142,0.129813,3.84861,33,0.00789042,10,0.000499602,-2.4147,0.74871,0.0788022,11.8243,0.129813,
2,1,0,1,0,64197.5,0.131642,0.131311,3.86618,33,0.00803566,10,0.000507672,-2.41272,1.01431,0.0581677,8.75783,0.131311,
2,1,0,1,0,64197.5,0.133139,0.13279,3.87759,33,0.00818101,10,0.000514906,-2.41144,1.34092,0.0439997,6.65045,0.13279,
2,1,0,1,0,64197.6,0.134635,0.134317,3.88569,33,0.00832667,10,0.000521915,-2.41053,1.93824,0.0304401,4.61271,0.134317,
2,1,0,1,0,64197.6,0.136135,0.135798,3.89145,33,0.00847305,10,0.00052845,-2.40989,2.09604,0.0281483,4.27105,0.135798,
2,1,0,1,0,64197.6,0.137635,0.137292,3.89189,33,0.00861962,10,0.000534327,-2.40984,-12.4116,-0.00475363,-0.721652,0.137292,
2,1,0,1,0,64197.7,0.13913,0.13879,3.89134,33,0.00876579,10,0.000540081,-2.4099,-1.50799,-0.039125,-5.92802,0.13879,
2,1,0,1,0,64197.7,0.140626,0.140282,3.87756,33,0.00891159,10,0.000543953,-2.41144,-0.782172,-0.075431,-11.3886,0.140282,
2,1,0,1,0,64197.7,0.14213,0.141819,3.85876,33,0.0090576,10,0.000547247,-2.41355,-0.524652,-0.112456,-16.8738,0.141819,
2,1,0,1,0,64197.8,0.143626,0.143291,3.83037,33,0.00920189,10,0.000548859,-2.41676,-0.34188,-0.172575,-25.6863,0.143291,
2,1,0,1,0,64197.8,0.145122,0.144787,3.78352,33,0.00934479,10,0.000547804,-2.4221,-0.240781,-0.245036,-36.0064,0.144787,
2,1,0,1,0,64197.9,0.146622,0.146309,3.71991,33,0.00948605,10,0.000544259,-2.42947,-0.196239,-0.300653,-43.5488,0.146309,
2,1,0,1,0,64197.9,0.148122,0.147751,3.64642,33,0.00962483,10,0.000538762,-2.43813,-0.160423,-0.367777,-52.2488,0.147751,
2,1,0,1,0,64197.9,0.149619,0.149265,3.56459,33,0.00976035,10,0.000532067,-2.44799,-0.13949,-0.42297,-58.722,0.149265,
2,1,0,1,0,64198,0.151115,0.150775,3.47147,33,0.00989254,10,0.00052341,-2.45949,-0.11615,-0.507963,-68.5815,0.150775,
2,1,0,1,0,64198,0.152615,0.152281,3.36197,33,0.0100213,10,0.000511966,-2.47341,-0.10676,-0.552642,-72.4088,0.152281,
2,1,0,1,0,64198,0.154115,0.153764,3.25612,33,0.0101459,10,0.000500673,-2.4873,-0.100285,-0.588324,-74.6139,0.1537637,
2,1,0,1,0,64198.1,0.155611,0.155253,3.14252,33,0.0102659,10,0.000487887,-2.50272,-0.0982631,-0.600429,-73.4721,0.155253,
2,1,0,1,0,64198.1,0.157106,0.15677,3.02666,33,0.0103818,10,0.00047449,-2.51904,-0.0932979,-0.632383,-74.6621,0.15677,
2,1,0,1,0,64198.2,0.15861,0.158284,2.91935,33,0.0104942,10,0.000462087,-2.53471,-0.094701,-0.623014,-70.9987,0.158284,
2,1,0,1,0,64198.2,0.160106,0.159768,2.80869,33,0.0106018,10,0.000448739,-2.5515,-0.0967876,-0.609582,-67.0499,0.159768,
2,1,0,1,0,64198.2,0.161602,0.161251,2.70952,33,0.0107057,10,0.000436912,-2.56711,-0.0992086,-0.594707,-63.1274,0.161251,
2,1,0,1,0,64198.3,0.163102,0.162774,2.62311,33,0.0108063,10,0.000426973,-2.58118,-0.104159,-0.566441,-58.079,0.162774,
2,1,0,1,0,64198.3,0.164602,0.164246,2.54168,33,0.0109036,10,0.000417461,-2.59488,-0.10615,-0.555817,-55.0943,0.164246,
2,1,0,1,0,64198.3,0.166099,0.165747,2.46089,33,0.0109975,10,0.000407884,-2.60891,-0.114357,-0.51593,-49.6133,0.165747,
2,1,0,1,0,64198.4,0.167595,0.16724,2.39166,33,0.0110887,10,0.000399982,-2.6213,-0.124498,-0.473903,-44.2163,0.16724,
2,1,0,1,0,64198.4,0.169095,0.168778,2.326,33,0.0111777,10,0.000392577,-2.63339,-0.132257,-0.4461,-40.5575,0.168778,
2,1,0,1,0,64198.5,0.170595,0.170255,2.26681,33,0.0112644,10,0.000385935,-2.64459,-0.13982,-0.421971,-37.4301,0.1702548,
2,1,0,1,0,64198.5,0.172091,0.171737,2.20944,33,0.0113487,10,0.000379442,-2.65572,-0.148022,-0.39859,-34.5672,0.171737,
2,1,0,1,0,64198.5,0.173586,0.17327,2.16215,33,0.0114311,10,0.000374637,-2.66511,-0.160109,-0.3685,-31.2202,0.17327,
2,1,0,1,0,64198.6,0.17509,0.174728,2.12129,33,0.0115123,10,0.000370648,-2.6734,-0.175633,-0.335929,-27.8756,0.1747282,
2,1,0,1,0,64198.6,0.176586,0.176271,2.08435,33,0.0115915,10,0.00036741,-2.68103,-0.18476,-0.319334,-25.9587,0.176271,
2,1,0,1,0,64198.6,0.178083,0.17776,2.0473,33,0.0116693,10,0.000363928,-2.68882,-0.19437,-0.303544,-24.2576,0.1777602,
2,1,0,1,0,64198.7,0.179582,0.179291,2.01702,33,0.0117459,10,0.000361635,-2.69529,-0.230593,-0.255862,-20.1598,0.179291,
2,1,0,1,0,64198.7,0.181082,0.180752,1.98722,33,0.0118216,10,0.000359194,-2.70175,-0.248663,-0.237269,-18.4298,0.1807518,
2,1,0,1,0,64198.8,0.182579,0.182262,1.96169,33,0.011896,10,0.00035754,-2.70737,-0.252607,-0.233564,-17.8975,0.182262,
2,1,0,1,0,64198.8,0.184075,0.183793,1.93726,33,0.0119695,10,0.000356053,-2.71281,-0.277056,-0.212953,-16.1392,0.183793,
2,1,0,1,0,64198.8,0.185579,0.185259,1.91348,33,0.0120424,10,0.000354489,-2.71818,-0.352353,-0.167446,-12.5374,0.185259,
2,1,0,1,0,64198.9,0.187074,0.186775,1.89588,33,0.0121142,10,0.000354103,-2.72219,-0.370982,-0.159037,-11.7725,0.186775,
2,1,0,1,0,64198.9,0.18857,0.188223,1.87986,33,0.0121853,10,0.000353834,-2.72587,-0.402504,-0.146582,-10.7481,0.188223,
2,1,0,1,0,64198.9,0.19007,0.189735,1.86642,33,0.0122561,10,0.000354126,-2.72899,-0.400484,-0.147322,-10.6977,0.189735,
2,1,0,1,0,64199,0.19157,0.191186,1.8487,33,0.0123262,10,0.000353445,-2.73313,-0.499677,-0.118076,-8.51135,0.191186,
2,1,0,1,0,64199,0.193066,0.192745,1.83061,33,0.0123956,10,0.00035284,-2.7374,-0.587741,-0.100384,-7.18158,0.192745,
2,1,0,1,0,64199.1,0.194563,0.194199,1.82088,33,0.0124645,10,0.000353614,-2.73972,-0.537861,-0.109694,-7.80832,0.194199,
2,1,0,1,0,64199.1,0.196063,0.19574,1.81271,33,0.0125333,10,0.00035482,-2.74167,-0.483867,-0.121934,-8.63272,0.19574,
2,1,0,1,0,64199.1,0.197563,0.197222,1.79718,33,0.0126015,10,0.000354444,-2.74541,-0.575163,-0.10258,-7.2153,0.197222,
2,1,0,1,0,64199.2,0.199059,0.198745,1.79209,33,0.0126691,10,0.000356168,-2.74664,-0.61808,-0.0954568,-6.66884,0.198745,
2,1,0,1,0,64199.2,0.200555,0.200235,1.78407,33,0.0127365,10,0.000357234,-2.74859,-0.654221,-0.0901836,-6.26457,0.200235,
2,1,0,1,0,64199.2,0.202059,0.201767,1.77782,33,0.0128039,10,0.000358706,-2.75011,-0.660118,-0.0893779,-6.17199,0.201767,
2,1,0,1,0,64199.3,0.203554,0.203244,1.76276,33,0.0128706,10,0.000358269,-2.75381,-0.871764,-0.0676789,-4.66747,0.203244,
2,1,0,1,0,64199.3,0.20505,0.204723,1.755,33,0.0129369,10,0.000359289,-2.75572,-1.02904,-0.0573349,-3.94285,0.204723,
2,1,0,1,0,64199.4,0.20655,0.206238,1.7493,33,0.0130033,10,0.000360772,-2.75714,-1.13106,-0.0521636,-3.57382,0.206238,
2,1,0,1,0,64199.4,0.20805,0.207749,1.74667,33,0.0130695,10,0.000362869,-2.75779,-0.975744,-0.0604667,-4.12379,0.207749,
2,1,0,1,0,64199.4,0.209546,0.209239,1.73869,33,0.0131353,10,0.000363802,-2.75978,-0.674825,-0.0874301,-5.93783,0.2092386,
2,1,0,1,0,64199.5,0.211043,0.210757,1.73226,33,0.0132008,10,0.000365087,-2.76139,-0.877783,-0.0672148,-4.54466,0.210757,
2,1,0,1,0,64199.5,0.212543,0.212213,1.73152,33,0.0132662,10,0.000367451,-2.76157,-1.71535,-0.0343953,-2.31372,0.212213,
2,1,0,1,0,64199.5,0.214043,0.213703,1.72562,33,0.0133315,10,0.000368771,-2.76305,-1.4924,-0.0395336,-2.65439,0.213703,
2,1,0,1,0,64199.6,0.215539,0.215217,1.71955,33,0.0133964,10,0.000370077,-2.76458,-1.89332,-0.0311622,-2.08937,0.215217,
2,1,0,1,0,64199.6,0.217035,0.216721,1.71003,33,0.0134611,10,0.0003706,-2.767,-1.23274,-0.0478608,-3.20262,0.216721,
2,1,0,1,0,64199.7,0.218538,0.218185,1.7065,33,0.0135259,10,0.000372331,-2.76789,-2.47715,-0.0238177,-1.58765,0.218185,
2,1,0,1,0,64199.7,0.220034,0.219766,1.70581,33,0.0135903,10,0.000374878,-2.76807,-2.25843,-0.0261243,-1.73938,0.219766,
2,1,0,1,0,64199.7,0.22153,0.22124,1.70101,33,0.0136546,10,0.000376331,-2.76929,-1.121,-0.0526317,-3.49215,0.22124,
2,1,0,1,0,64199.8,0.22303,0.222693,1.69384,33,0.0137189,10,0.000377207,-2.77113,-1.46901,-0.0401631,-2.65633,0.222693,
2,1,0,1,0,64199.8,0.22453,0.224216,1.69436,33,0.0137829,10,0.000379904,-2.77099,-3.20517,-0.0184077,-1.21666,0.224216,
2,1,0,1,0,64199.8,0.226026,0.225705,1.69087,33,0.0138467,10,0.000381638,-2.77189,-1.89683,-0.0311045,-2.0463,0.225705,
2,1,0,1,0,64199.9,0.227523,0.227233,1.68662,33,0.0139105,10,0.000383255,-2.77298,-1.16946,-0.0504505,-3.31884,0.227233,
2,1,0,1,0,64199.9,0.229023,0.228711,1.68342,33,0.0139743,10,0.000385017,-2.77381,-2.11878,-0.0278462,-1.83151,0.228711,
2,1,0,1,0,64200,0.230523,0.230158,1.67846,33,0.0140378,10,0.000386311,-2.77509,-1.68597,-0.0349947,-2.30002,0.230158,
2,1,0,1,0,64200,0.232019,0.231679,1.68,33,0.0141012,10,0.000389219,-2.77469,-2.7982,-0.021085,-1.38061,0.231679,
2,1,0,1,0,64200,0.233515,0.23321,1.67549,33,0.0141645,10,0.000390742,-2.77586,-2.10404,-0.0280412,-1.83227,0.23321,
2,1,0,1,0,64200.1,0.235018,0.234724,1.67376,33,0.014228,10,0.000392872,-2.77631,-1.76325,-0.033461,-2.18123,0.234724,
2,1,0,1,0,64200.1,0.236514,0.236125,1.67087,33,0.014291,10,0.000394533,-2.77706,-2.25326,-0.0261843,-1.70545,0.236125,
2,1,0,1,0,64200.1,0.23801,0.237646,1.66631,33,0.014354,10,0.000395992,-2.77824,-4.86816,-0.0121196,-0.787761,0.237646,
2,1,0,1,0,64200.2,0.23951,0.239172,1.66597,33,0.014417,10,0.000398454,-2.77833,-2.62704,-0.0224587,-1.46072,0.239172,
2,1,0,1,0,64200.2,0.24101,0.2407,1.66212,33,0.01448,10,0.000400071,-2.77934,-1.91249,-0.0308499,-2.00357,0.2407,
2,1,0,1,0,64200.3,0.242506,0.242209,1.65341,33,0.0145426,10,0.000400471,-2.78162,-1.69324,-0.0348444,-2.25898,0.242209,
2,1,0,1,0,64200.3,0.244003,0.243654,1.65549,33,0.0146052,10,0.000403366,-2.78107,-3.19269,-0.0184797,-1.19655,0.243654,
2,1,0,1,0,64200.3,0.245503,0.245164,1.65886,33,0.0146678,10,0.000406693,-2.78019,-20.0616,-0.00294094,-0.189916,0.245164,
2,1,0,1,0,64200.4,0.247003,0.246642,1.65597,33,0.0147305,10,0.000408432,-2.78095,-2.29416,-0.0257174,-1.6562,0.2466419,
2,1,0,1,0,64200.4,0.248499,0.248199,1.65297,33,0.0147929,10,0.000410264,-2.78174,-1.6269,-0.0362652,-2.3345,0.248199,
2,1,0,1,0,64200.4,0.249995,0.249688,1.64777,33,0.0148551,10,0.000411429,-2.7831,-1.85947,-0.0317295,-2.04438,0.249688,
2,1,0,1,0,64200.5,0.251498,0.251167,1.64643,33,0.0149176,10,0.00041353,-2.78346,-3.88358,-0.0151922,-0.977118,0.251167,
2,1,0,1,0,64200.5,0.252994,0.252659,1.64177,33,0.0149798,10,0.000414809,-2.78469,-2.15846,-0.0273343,-1.75607,0.252659,
2,1,0,1,0,64200.6,0.25449,0.254178,1.64059,33,0.0150418,10,0.000417001,-2.785,-2.07639,-0.0284147,-1.823,0.254178,
2,1,0,1,0,64200.6,0.25599,0.255688,1.6421,33,0.0151039,10,0.000419864,-2.7846,-2.53069,-0.0233138,-1.49413,0.255688,
2,1,0,1,0,64200.6,0.25749,0.257191,1.64097,33,0.0151659,10,0.000422041,-2.7849,-3.11573,-0.0189362,-1.21214,0.2571907,
2,1,0,1,0,64200.7,0.258987,0.258708,1.64019,33,0.0152278,10,0.000424329,-2.78511,-3.08157,-0.0191461,-1.22239,0.258708,
2,1,0,1,0,64200.7,0.260483,0.260189,1.63786,33,0.0152896,10,0.000426154,-2.78572,-1.84391,-0.0319973,-2.04202,0.260189,
2,1,0,1,0,64200.7,0.261983,0.261689,1.63043,33,0.0153514,10,0.000426666,-2.7877,-2.71158,-0.0217585,-1.38793,0.261689,
2,1,0,1,0,64200.8,0.263483,0.263202,1.6293,33,0.0154131,10,0.000428835,-2.788,-12.1234,-0.00486661,-0.310038,0.263202,
2,1,0,1,0,64200.8,0.264978,0.264633,1.62765,33,0.0154746,10,0.000430732,-2.78844,-4.19295,-0.0140713,-0.896272,0.264633,
2,1,0,1,0,64200.9,0.266474,0.266179,1.62864,33,0.0155361,10,0.000433511,-2.78817,-1.59323,-0.0370317,-2.35349,0.266179,
2,1,0,1,0,64200.9,0.267977,0.267659,1.61955,33,0.0155978,10,0.000433489,-2.7906,-3.80745,-0.0154959,-0.982968,0.267659,
2,1,0,1,0,64200.9,0.269474,0.269175,1.62193,33,0.015659,10,0.000436581,-2.78997,-21.2966,-0.0027704,-0.175033,0.269175,
2,1,0,1,0,64201,0.27097,0.270661,1.62688,33,0.0157202,10,0.000440333,-2.78865,-1.39847,-0.042189,-2.66364,0.270661,
2,1,0,1,0,64201,0.27247,0.272195,1.62141,33,0.0157815,10,0.00044134,-2.79011,-1.50824,-0.0391183,-2.46827,0.272195,
2,1,0,1,0,64201,0.27397,0.273627,1.61388,33,0.0158427,10,0.000441601,-2.79213,-2.22831,-0.0264774,-1.66928,0.273627,
2,1,0,1,0,64201.1,0.275467,0.27512,1.60997,33,0.0159036,10,0.000442935,-2.79318,-7.97677,-0.00739648,-0.466838,0.27512,
2,1,0,1,0,64201.1,0.276963,0.276604,1.60878,33,0.0159645,10,0.000444994,-2.7935,-1.59159,-0.0370699,-2.33252,0.276604,
2,1,0,1,0,64201.2,0.278463,0.278147,1.61065,33,0.0160254,10,0.000447999,-2.793,-1.74208,-0.0338675,-2.1259,0.2781474,
2,1,0,1,0,64201.2,0.279963,0.279628,1.60896,33,0.0160863,10,0.000449911,-2.79345,-1.98107,-0.029782,-1.86502,0.279628,
2,1,0,1,0,64201.2,0.281459,0.28109,1.60312,33,0.0161468,10,0.000450622,-2.79503,-1.94217,-0.0303784,-1.89972,0.28109,
2,1,0,1,0,64201.3,0.282954,0.282625,1.60277,33,0.0162072,10,0.000452984,-2.79513,-6.54022,-0.00902111,-0.563261,0.282625,
2,1,0,1,0,64201.3,0.284458,0.284135,1.59917,33,0.016268,10,0.000454382,-2.7961,-4.98383,-0.0118383,-0.738764,0.284135,
2,1,0,1,0,64201.3,0.285954,0.285629,1.59634,33,0.0163284,10,0.00045596,-2.79688,-1.87015,-0.0315482,-1.96682,0.285629,
2,1,0,1,0,64201.4,0.28745,0.287096,1.59016,33,0.0163886,10,0.000456528,-2.79856,-1.93705,-0.0304587,-1.89781,0.287096,
2,1,0,1,0,64201.4,0.28895,0.288612,1.59001,33,0.0164488,10,0.000458896,-2.7986,-2.0704,-0.0284969,-1.77037,0.288612,
2,1,0,1,0,64201.5,0.29045,0.290163,1.59116,33,0.016509,10,0.000461696,-2.79829,-2.89722,-0.0203643,-1.26353,0.290163,
2,1,0,1,0,64201.5,0.291947,0.291585,1.58943,33,0.016569,10,0.000463454,-2.79876,-1.27099,-0.0464205,-2.87443,0.291585,
2,1,0,1,0,64201.5,0.293443,0.293105,1.58624,33,0.0166288,10,0.000464935,-2.79963,-2.30233,-0.0256262,-1.58358,0.293105,
2,1,0,1,0,64201.6,0.294943,0.294603,1.58466,33,0.0166887,10,0.000466845,-2.80006,-2.99541,-0.0196968,-1.21619,0.294603,
2,1,0,1,0,64201.6,0.296443,0.296112,1.58171,33,0.0167485,10,0.000468363,-2.80087,-1.8222,-0.0323784,-1.99592,0.296112,
2,1,0,1,0,64201.6,0.297939,0.297654,1.57582,33,0.0168081,10,0.000469051,-2.80249,-2.85477,-0.0206672,-1.27344,0.297654,
2,1,0,1,0,64201.7,0.299434,0.299111,1.5727,33,0.0168676,10,0.000470411,-2.80335,-0.019994,-2.95089,-160.349,0.299111,
2,1,0,0,0,64201.7,0.299962,0.299613,1.51167,33,0.016891,10,0.000452917,-2.82054,0.00140302,42.052,1467.09,0.299613,
2,1,0,1,0,64201.7,0.298689,0.298376,0.633489,33,0.0169217,10,0.000189018,-3.19826,0.00261029,22.6029,462.247,0.298376,
2,1,0,1,0,64201.8,0.297189,0.296895,0.183986,33,0.0169354,10,5.46244e-05,-3.73522,0.00457705,12.8904,248.562,0.296895,
2,0,0,1,0,64201.8,0.295692,0.295339,-0.0611299,33,0.0169367,10,-1.80541e-05,-4.21375,0.0433299,1.36165,138.972,0.295339,
2,0,0,1,0,64201.8,0.294196,0.293853,-0.211245,33,0.0169309,10,-6.20749e-05,-3.67521,-0.00246097,-23.9743,85.1171,0.293853,
2,0,0,1,0,64201.9,0.292696,0.292351,-0.308433,33,0.0169204,10,-9.01707e-05,-3.51084,-0.0103058,-5.72491,59.7303,0.292351,
2,0,0,1,0,64201.9,0.291196,0.290859,-0.385488,33,0.0169067,10,-0.000112123,-3.41399,-0.018403,-3.206,45.4646,0.290859,
2,0,0,1,0,64201.9,0.2897,0.289363,-0.444279,33,0.0168906,10,-0.000128558,-3.35234,-0.0277437,-2.12661,35.8192,0.289363,
2,0,0,1,0,64202,0.288205,0.287896,-0.489997,33,0.0168724,10,-0.000141068,-3.30981,-0.0377637,-1.56234,29.4283,0.287896,
2,0,0,1,0,64202,0.286701,0.286398,-0.528498,33,0.0168525,10,-0.000151361,-3.27696,-0.0493596,-1.19531,24.5007,0.2863977,
2,0,0,1,0,64202.1,0.285205,0.284893,-0.568408,33,0.0168314,10,-0.000161936,-3.24534,-0.0572162,-1.03118,22.6304,0.284893,
2,0,0,1,0,64202.1,0.283708,0.283402,-0.60315,33,0.0168089,10,-0.000170934,-3.21957,-0.0648172,-0.910252,21.0799,0.283402,
2,0,0,1,0,64202.1,0.282208,0.281903,-0.629993,33,0.0167852,10,-0.000177597,-3.20066,-0.0832596,-0.708627,17.2555,0.281903,
2,0,0,1,0,64202.2,0.280708,0.28036,-0.651659,33,0.0167605,10,-0.000182699,-3.18598,-0.0927365,-0.636211,16.174,0.28036,
2,0,0,1,0,64202.2,0.279212,0.278865,-0.672998,33,0.016735,10,-0.000187675,-3.17199,-0.101537,-0.581067,15.3655,0.278865,
2,0,0,1,0,64202.2,0.277716,0.277386,-0.696799,33,0.0167087,10,-0.000193283,-3.15689,-0.107723,-0.547699,14.9186,0.277386,
2,0,0,1,0,64202.3,0.276216,0.275892,-0.719131,33,0.0166815,10,-0.000198403,-3.14319,-0.127521,-0.46267,12.9856,0.275892,
2,0,0,1,0,64202.3,0.274716,0.274374,-0.74197,33,0.0166535,10,-0.000203578,-3.12961,-0.138743,-0.425245,12.2398,0.2743744,
2,0,0,1,0,64202.4,0.27322,0.272898,-0.758795,33,0.0166249,10,-0.000207073,-3.11988,-0.144444,-0.408463,12.0421,0.272898,
2,0,0,1,0,64202.4,0.271725,0.271438,-0.774136,33,0.0165957,10,-0.00021013,-3.11118,-0.142058,-0.415324,12.4592,0.271438,
2,0,0,1,0,64202.4,0.270221,0.269865,-0.791497,33,0.0165656,10,-0.000213597,-3.10155,-0.156853,-0.376148,11.5825,0.269865,
2,0,0,1,0,64202.5,0.268725,0.268403,-0.808634,33,0.0165351,10,-0.000217039,-3.09225,-0.182637,-0.323045,10.1381,0.268403,
2,0,0,1,0,64202.5,0.267228,0.266876,-0.816739,33,0.016504,10,-0.000217968,-3.08792,-0.202625,-0.291178,9.35758,0.266876,
2,0,0,1,0,64202.5,0.265728,0.265387,-0.834773,33,0.0164723,10,-0.000221538,-3.07843,-0.189085,-0.312029,10.2041,0.265387,
2,0,0,1,0,64202.6,0.264228,0.263856,-0.850619,33,0.0164401,10,-0.00022444,-3.07027,-0.212403,-0.277775,9.22154,0.263856,
2,0,0,1,0,64202.6,0.262732,0.262405,-0.863398,33,0.0164074,10,-0.00022656,-3.06379,-0.246228,-0.239616,8.03532,0.262405,
2,0,0,1,0,64202.7,0.261236,0.260919,-0.877331,33,0.0163742,10,-0.000228912,-3.05684,-0.255921,-0.23054,7.86793,0.260919,
2,0,0,1,0,64202.7,0.259736,0.259425,-0.889512,33,0.0163406,10,-0.000230762,-3.05085,-0.246769,-0.23909,8.30139,0.2594251,
2,0,0,1,0,64202.7,0.258236,0.257909,-0.903241,33,0.0163064,10,-0.000232954,-3.0442,-0.245726,-0.240105,8.44824,0.257909,
2,0,0,1,0,64202.8,0.256741,0.25641,-0.913501,33,0.0162718,10,-0.00023423,-3.03929,-0.290289,-0.203245,7.26671,0.25641,
2,0,0,1,0,64202.8,0.255241,0.25489,-0.922265,33,0.0162367,10,-0.000235076,-3.03514,-0.283508,-0.208107,7.53286,0.25489,
2,0,0,1,0,64202.8,0.253741,0.25339,-0.935136,33,0.0162012,10,-0.000236954,-3.02913,-0.302518,-0.19503,7.14128,0.25339,
2,0,0,1,0,64202.9,0.252245,0.251909,-0.944006,33,0.0161653,10,-0.000237804,-3.02503,-0.25259,-0.23358,8.63106,0.251909,
2,0,0,1,0,64202.9,0.250748,0.250439,-0.960749,33,0.016129,10,-0.000240609,-3.01739,-0.283521,-0.208097,7.78753,0.250439,
2,0,0,1,0,64203,0.249248,0.248951,-0.974402,33,0.0160922,10,-0.000242579,-3.01126,-0.372097,-0.158561,5.98427,0.248951,
2,0,0,1,0,64203,0.247748,0.247392,-0.979266,33,0.0160551,10,-0.000242263,-3.0091,-0.34015,-0.173453,6.63144,0.247392,
2,0,0,1,0,64203,0.246252,0.245932,-0.988753,33,0.0160176,10,-0.000243166,-3.00491,-0.309653,-0.190536,7.35239,0.2459321,
2,0,0,1,0,64203.1,0.244756,0.244433,-1.00085,33,0.0159798,10,-0.000244641,-2.99963,-0.327527,-0.180138,7.04758,0.244433,
2,0,0,1,0,64203.1,0.243252,0.242887,-1.00897,33,0.0159413,10,-0.000245066,-2.99612,-0.349307,-0.168906,6.67065,0.242887,
2,0,0,1,0,64203.1,0.241756,0.241438,-1.01646,33,0.0159027,10,-0.000245411,-2.99291,-0.381197,-0.154776,6.17476,0.2414377,
2,0,0,1,0,64203.2,0.240261,0.239967,-1.02828,33,0.0158637,10,-0.000246755,-2.98789,-0.360464,-0.163678,6.58446,0.239967,
2,0,0,1,0,64203.2,0.238761,0.23841,-1.04244,33,0.0158243,10,-0.000248527,-2.98195,-0.385837,-0.152914,6.18497,0.23841,
2,0,0,1,0,64203.3,0.237261,0.236889,-1.05258,33,0.0157845,10,-0.000249343,-2.97775,-0.505583,-0.116697,4.75931,0.236889,
2,0,0,1,0,64203.3,0.235765,0.235451,-1.05898,33,0.0157444,10,-0.000249339,-2.97511,-0.486725,-0.121218,4.99998,0.235451,
2,0,0,1,0,64203.3,0.234268,0.233928,-1.06903,33,0.0157041,10,-0.000250075,-2.97101,-0.366328,-0.161058,6.72504,0.233928,
2,0,0,1,0,64203.4,0.232768,0.232427,-1.07684,33,0.0156632,10,-0.000250286,-2.96785,-0.344588,-0.171219,7.20506,0.232427,
2,0,0,1,0,64203.4,0.231268,0.230941,-1.08398,33,0.015622,10,-0.000250336,-2.96498,-0.462702,-0.127512,5.41342,0.230941,
2,0,0,1,0,64203.4,0.229772,0.229436,-1.09569,33,0.0155805,10,-0.00025139,-2.96031,-0.479881,-0.122947,5.25474,0.229436,
2,0,0,1,0,64203.5,0.228275,0.227975,-1.10747,33,0.0155388,10,-0.000252476,-2.95567,-0.503621,-0.117152,5.04477,0.227975,
2,0,0,1,0,64203.5,0.226772,0.226483,-1.116,33,0.0154965,10,-0.000252755,-2.95234,-0.351326,-0.167935,7.27722,0.226483,
2,0,0,1,0,64203.6,0.225276,0.224939,-1.12544,33,0.015454,10,-0.000253155,-2.94868,-0.395605,-0.149139,6.51589,0.224939,
2,0,0,1,0,64203.6,0.223781,0.223475,-1.13138,33,0.0154113,10,-0.000252836,-2.94639,-0.414615,-0.142301,6.28911,0.223475,
2,0,0,1,0,64203.6,0.222281,0.221917,-1.13588,33,0.0153681,10,-0.000252072,-2.94467,-0.405077,-0.145651,6.48373,0.221917,
2,0,0,1,0,64203.7,0.220781,0.220461,-1.14572,33,0.0153247,10,-0.000252586,-2.94092,-0.41664,-0.141609,6.35311,0.220461,
2,0,0,1,0,64203.7,0.219284,0.218967,-1.1576,33,0.0152809,10,-0.000253477,-2.93644,-0.425404,-0.138692,6.2719,0.218967,
2,0,0,1,0,64203.7,0.217788,0.217448,-1.16793,33,0.0152368,10,-0.000253965,-2.93258,-0.677248,-0.0871173,3.96167,0.217448,
2,0,0,1,0,64203.8,0.216288,0.215962,-1.17137,33,0.0151923,10,-0.000252971,-2.93131,-0.518399,-0.113812,5.21435,0.215962,
2,0,0,1,0,64203.8,0.214788,0.214443,-1.18419,33,0.0151475,10,-0.00025394,-2.92658,-0.512002,-0.115234,5.31155,0.2144431,
2,0,0,1,0,64203.9,0.213292,0.212933,-1.1932,33,0.0151025,10,-0.000254071,-2.92329,-0.360766,-0.163541,7.58916,0.212933,
2,0,0,1,0,64203.9,0.211796,0.211435,-1.19876,33,0.0150571,10,-0.00025346,-2.92127,-0.520289,-0.113398,5.30842,0.211435,
2,0,0,1,0,64203.9,0.210293,0.209984,-1.20949,33,0.0150112,10,-0.000253973,-2.9174,-0.506378,-0.116514,5.501,0.209984,
2,0,0,1,0,64204,0.208797,0.208437,-1.21512,33,0.0149652,10,-0.000253276,-2.91538,-0.432174,-0.136519,6.50636,0.208437,
2,0,0,1,0,64204,0.207301,0.206965,-1.22371,33,0.0149189,10,-0.000253265,-2.91232,-0.440643,-0.133895,6.4175,0.206965,
2,0,0,1,0,64204,0.205801,0.205467,-1.23609,33,0.014872,10,-0.000253975,-2.90795,-0.427492,-0.138014,6.63821,0.2054674,
2,0,0,1,0,64204.1,0.204301,0.203955,-1.24589,33,0.0148248,10,-0.000254107,-2.90452,-0.680558,-0.0866935,4.20818,0.203955,
2,0,0,1,0,64204.1,0.202804,0.202474,-1.25417,33,0.0147776,10,-0.000253937,-2.90164,-0.49011,-0.120381,5.87526,0.202474,
2,0,0,1,0,64204.2,0.201308,0.200947,-1.26155,33,0.01473,10,-0.000253505,-2.8991,-0.425787,-0.138567,6.80469,0.200947,
2,0,0,1,0,64204.2,0.199808,0.199473,-1.26853,33,0.0146819,10,-0.000253037,-2.8967,-0.503813,-0.117107,5.80689,0.199473,
2,0,0,1,0,64204.2,0.198308,0.197952,-1.27559,33,0.0146334,10,-0.000252505,-2.89429,-0.510598,-0.115551,5.76974,0.197952,
2,0,0,1,0,64204.3,0.196812,0.196497,-1.2847,33,0.0145849,10,-0.00025244,-2.8912,-0.521711,-0.11309,5.6914,0.196497,
2,0,0,1,0,64204.3,0.195316,0.194976,-1.29377,33,0.014536,10,-0.000252253,-2.88814,-0.392555,-0.150297,7.60763,0.1949756,
2,0,0,1,0,64204.3,0.193813,0.193454,-1.30895,33,0.0144864,10,-0.000253222,-2.88308,-0.41767,-0.14126,7.18962,0.193454,
2,0,0,1,0,64204.4,0.192317,0.19198,-1.31747,33,0.0144367,10,-0.000252928,-2.88026,-0.556615,-0.105998,5.42687,0.19198,
2,0,0,1,0,64204.4,0.190821,0.190461,-1.32378,33,0.0143867,10,-0.000252129,-2.87818,-0.485698,-0.121475,6.27613,0.190461,
2,0,0,1,0,64204.5,0.189321,0.189,-1.3355,33,0.0143362,10,-0.00025241,-2.87436,-0.54513,-0.108231,5.63563,0.189,
2,0,0,1,0,64204.5,0.187821,0.187469,-1.34396,33,0.0142854,10,-0.000251951,-2.87161,-0.453893,-0.129987,6.81676,0.187469,
2,0,0,1,0,64204.5,0.186324,0.185992,-1.35433,33,0.0142343,10,-0.000251895,-2.86828,-0.549359,-0.107398,5.67924,0.185992,
2,0,0,1,0,64204.6,0.184828,0.184447,-1.36401,33,0.0141828,10,-0.000251587,-2.86518,-0.449611,-0.131225,6.99829,0.1844469,
2,0,0,1,0,64204.6,0.183328,0.182967,-1.37415,33,0.0141309,10,-0.000251423,-2.86197,-0.509433,-0.115815,6.21989,0.182967,
2,0,0,1,0,64204.6,0.181828,0.181521,-1.38698,33,0.0140785,10,-0.000251767,-2.85793,-0.441149,-0.133742,7.22373,0.181521,
2,0,0,1,0,64204.7,0.180332,0.179992,-1.39956,33,0.0140259,10,-0.00025191,-2.85401,-0.395869,-0.149039,8.10665,0.179992,
2,0,0,1,0,64204.7,0.178836,0.178461,-1.40823,33,0.0139728,10,-0.000251314,-2.85133,-0.494208,-0.119383,6.54687,0.178461,
2,0,0,1,0,64204.8,0.177333,0.176998,-1.41953,33,0.0139191,10,-0.000251253,-2.84786,-0.451763,-0.1306,7.23598,0.176998,
2,0,0,1,0,64204.8,0.175837,0.175496,-1.42884,33,0.0138652,10,-0.000250756,-2.84502,-0.309173,-0.190832,10.6577,0.175496,
2,0,0,1,0,64204.8,0.174341,0.173954,-1.44318,33,0.0138108,10,-0.000251047,-2.84068,-0.360351,-0.163729,9.24483,0.173954,
2,0,0,1,0,64204.9,0.172841,0.172534,-1.45398,33,0.0137558,10,-0.000250862,-2.83744,-0.407344,-0.144841,8.24314,0.172534,
2,0,0,1,0,64204.9,0.171341,0.171002,-1.46522,33,0.0137003,10,-0.000250557,-2.8341,-0.425973,-0.138507,7.94471,0.171002,
2,0,0,1,0,64204.9,0.169844,0.169517,-1.48566,33,0.0136444,10,-0.000251845,-2.82808,-0.361756,-0.163094,9.44852,0.169517,
2,0,0,1,0,64205,0.168348,0.168013,-1.50635,33,0.013588,10,-0.000253087,-2.82207,-0.331666,-0.17789,10.4,0.168013,
2,0,0,1,0,64205,0.166848,0.166536,-1.51646,33,0.0135308,10,-0.000252546,-2.81917,-0.306256,-0.192649,11.3671,0.166536,
2,0,0,1,0,64205.1,0.165348,0.165003,-1.53052,33,0.013473,10,-0.000252541,-2.81516,-0.318232,-0.185399,11.0929,0.165003,
2,0,0,1,0,64205.1,0.163852,0.163532,-1.54322,33,0.0134148,10,-0.000252365,-2.81157,-0.279629,-0.210994,12.7781,0.163532,
2,0,0,1,0,64205.1,0.162357,0.162021,-1.56094,33,0.0133559,10,-0.000252905,-2.80661,-0.265928,-0.221864,13.6114,0.162021,
2,0,0,1,0,64205.2,0.160853,0.16049,-1.58628,33,0.013296,10,-0.000254582,-2.79962,-0.26833,-0.219879,13.6292,0.16049,
2,0,0,1,0,64205.2,0.159357,0.159016,-1.6086,33,0.0132355,10,-0.000255793,-2.79355,-0.250719,-0.235323,14.7732,0.159016,
2,0,0,1,0,64205.2,0.157861,0.157512,-1.63093,33,0.0131743,10,-0.000256891,-2.78757,-0.238715,-0.247157,15.7499,0.157512,
2,0,0,1,0,64205.3,0.156361,0.156053,-1.65738,33,0.0131121,10,-0.000258639,-2.78058,-0.206635,-0.285527,18.4533,0.156053,
2,0,0,1,0,64205.3,0.154861,0.154548,-1.68699,33,0.0130487,10,-0.000260721,-2.77289,-0.203725,-0.289607,19.0203,0.154548,
2,0,0,1,0,64205.4,0.153364,0.153036,-1.71502,33,0.0129845,10,-0.000262459,-2.76573,-0.210394,-0.280427,18.7661,0.153036,
2,0,0,1,0,64205.4,0.151868,0.151504,-1.74232,33,0.0129193,10,-0.000263968,-2.75887,-0.174912,-0.337313,23.0451,0.151504,
2,0,0,1,0,64205.4,0.150368,0.150005,-1.77786,33,0.0128525,10,-0.000266687,-2.7501,-0.15514,-0.380302,26.4842,0.1500047,
2,0,0,1,0,64205.5,0.148868,0.148542,-1.82136,33,0.0127843,10,-0.000270549,-2.7396,-0.153809,-0.383593,27.3112,0.148542,
2,0,0,1,0,64205.5,0.147372,0.147058,-1.86473,33,0.0127148,10,-0.000274224,-2.72938,-0.143532,-0.411057,29.917,0.147058,
2,0,0,1,0,64205.5,0.145877,0.145509,-1.90881,33,0.0126436,10,-0.00027775,-2.71924,-0.129721,-0.454822,33.9815,0.145509,
2,0,0,1,0,64205.6,0.144373,0.144089,-1.96646,33,0.0125701,10,-0.000283346,-2.70631,-0.120154,-0.491036,37.68,0.144089,
2,0,0,1,0,64205.6,0.142877,0.142558,-2.02426,33,0.0124949,10,-0.000288575,-2.69373,-0.111831,-0.527581,41.7378,0.1425584,
2,0,0,1,0,64205.7,0.14138,0.141028,-2.08916,33,0.0124172,10,-0.00029463,-2.68003,-0.109344,-0.539583,44.0383,0.141028,
2,0,0,1,0,64205.7,0.13988,0.139556,-2.155,33,0.0123368,10,-0.000300744,-2.66655,-0.103875,-0.56799,48.0284,0.1395559,
2,0,0,1,0,64205.7,0.13838,0.13805,-2.23265,33,0.0122538,10,-0.000308217,-2.65118,-0.0992848,-0.59425,52.0082,0.13805,
2,0,0,1,0,64205.8,0.136884,0.136574,-2.31686,33,0.0121681,10,-0.000316422,-2.6351,-0.0961957,-0.613333,55.5634,0.1365737,
2,0,0,1,0,64205.8,0.135388,0.135037,-2.40734,33,0.0120791,10,-0.000325079,-2.61846,-0.0948391,-0.622106,58.3262,0.135037,
2,0,0,1,0,64205.8,0.133888,0.13357,-2.4985,33,0.0119866,10,-0.000333725,-2.60232,-0.0961194,-0.61382,59.6705,0.13357,
2,0,0,1,0,64205.9,0.132389,0.132031,-2.58615,33,0.0118908,10,-0.00034145,-2.58735,-0.0958634,-0.615459,62.0458,0.132031,
2,0,0,1,0,64205.9,0.130893,0.130533,-2.67471,33,0.0117917,10,-0.000349139,-2.57272,-0.0960929,-0.613989,64.0995,0.1305334,
2,0,0,1,0,64206,0.129393,0.129062,-2.76815,33,0.0116889,10,-0.000357263,-2.55781,-0.102782,-0.57403,62.0075,0.129062,
2,0,0,1,0,64206,0.127893,0.127543,-2.85976,33,0.0115825,10,-0.000364741,-2.54367,-0.111758,-0.527927,59.0122,0.127543,
2,0,0,1,0,64206,0.126397,0.126064,-2.94926,33,0.0114731,10,-0.000371795,-2.53029,-0.111842,-0.527528,60.8576,0.126064,
2,0,0,1,0,64206.1,0.1249,0.124582,-3.04108,33,0.0113603,10,-0.000378864,-2.51697,-0.116702,-0.50556,59.9737,0.124582,
2,0,0,1,0,64206.1,0.1234,0.123058,-3.13253,33,0.0112438,10,-0.000385482,-2.5041,-0.123784,-0.476637,58.1063,0.1230576,
2,0,0,1,0,64206.1,0.1219,0.121519,-3.21858,33,0.0111241,10,-0.000391119,-2.49234,-0.13872,-0.425318,53.2181,0.121519,
2,0,0,1,0,64206.2,0.120404,0.120098,-3.2944,33,0.0110017,10,-0.000395652,-2.48222,-0.143703,-0.410569,52.7018,0.120098,
2,0,0,1,0,64206.2,0.118908,0.118576,-3.37131,33,0.0108764,10,-0.000399757,-2.4722,-0.15491,-0.380865,50.0718,0.118576,
2,0,0,1,0,64206.3,0.117404,0.117097,-3.44178,33,0.0107476,10,-0.000403023,-2.46322,-0.162324,-0.36347,48.8454,0.117097,
2,0,0,1,0,64206.3,0.115909,0.115562,-3.51683,33,0.0106167,10,-0.000406412,-2.45385,-0.185919,-0.317342,43.4782,0.115562,
2,0,0,1,0,64206.3,0.114413,0.114088,-3.57943,33,0.0104833,10,-0.00040837,-2.44619,-0.199251,-0.29611,41.3136,0.114088,
2,0,0,1,0,64206.4,0.112913,0.112585,-3.63853,33,0.0103474,10,-0.000409643,-2.43907,-0.217228,-0.271604,38.5148,0.112585,
2,0,0,1,0,64206.4,0.111413,0.111074,-3.69548,33,0.0102092,10,-0.000410471,-2.43233,-0.239434,-0.246414,35.4463,0.111074,
2,0,0,1,0,64206.4,0.109917,0.10961,-3.74575,33,0.0100695,10,-0.000410573,-2.42646,-0.279546,-0.211056,30.744,0.10961,
2,0,0,1,0,64206.5,0.10842,0.108075,-3.78762,33,0.009928,10,-0.000409346,-2.42163,-0.338225,-0.17444,25.7161,0.1080748,
2,0,0,1,0,64206.5,0.10692,0.106555,-3.81682,33,0.0097848,10,-0.000406703,-2.4183,-0.394928,-0.149394,22.2439,0.106555,
2,0,0,1,0,64206.6,0.10542,0.105108,-3.84526,33,0.00964035,10,-0.000404169,-2.41507,-0.4739,-0.124499,18.6784,0.105108,
2,0,0,1,0,64206.6,0.103924,0.10358,-3.87175,33,0.00949527,10,-0.000401034,-2.41209,-0.689735,-0.08554,12.9153,0.10358,
2,0,0,1,0,64206.6,0.102427,0.102097,-3.88717,33,0.00934946,10,-0.000396867,-2.41037,-1.20721,-0.0488732,7.40185,0.102097,
2,0,0,1,0,64206.7,0.100924,0.100553,-3.89534,33,0.00920245,10,-0.000391687,-2.40946,-2.53424,-0.0232812,3.53497,0.100553,
2,0,0,1,0,64206.7,0.0994284,0.0990686,-3.89958,33,0.00905608,10,-0.000386326,-2.40898,-11.8903,-0.00496202,0.753636,0.0990686,
2,0,0,1,0,64206.7,0.0979329,0.0976173,-3.89874,33,0.00890969,10,-0.000380585,-2.40908,2.7494,0.0214592,-3.25746,0.0976173,
2,0,0,1,0,64206.8,0.0964329,0.0960951,-3.88775,33,0.00876308,10,-0.000373594,-2.4103,1.43871,0.041009,-6.21366,0.0960951,
2,0,0,1,0,64206.8,0.094933,0.0945705,-3.87284,33,0.00861686,10,-0.000366256,-2.41197,0.917148,0.0643299,-9.72268,0.0945705,
2,0,0,1,0,64206.9,0.0934366,0.093132,-3.8575,33,0.00847165,10,-0.000359256,-2.41369,0.757848,0.077852,-11.734,0.093132,
2,0,0,1,0,64206.9,0.0919402,0.0916345,-3.84092,33,0.00832702,10,-0.000351961,-2.41556,0.697393,0.0846008,-12.6864,0.0916345,
2,0,0,1,0,64206.9,0.0904402,0.0901146,-3.82381,33,0.0081826,10,-0.000344581,-2.4175,0.641776,0.0919324,-13.6999,0.0901146,
2,0,0,1,0,64207,0.0889402,0.0886236,-3.80306,33,0.00803897,10,-0.000337041,-2.41987,0.599181,0.0984678,-14.6029,0.0886236,
2,0,0,1,0,64207,0.0874438,0.0870804,-3.781,33,0.00789668,10,-0.000329251,-2.42239,0.559198,0.105508,-15.5481,0.0870804,
2,0,0,1,0,64207,0.0859483,0.0856204,-3.75909,33,0.00775515,10,-0.000321855,-2.42492,0.672154,0.0877775,-12.8575,0.0856204,
2,0,0,1,0,64207.1,0.0844447,0.0841383,-3.73556,33,0.00761362,10,-0.000314303,-2.42764,0.66674,0.0884903,-12.9038,0.0841383,
2,0,0,1,0,64207.1,0.0829492,0.0826336,-3.71338,33,0.0074736,10,-0.00030685,-2.43023,0.617097,0.095609,-13.8701,0.0826336,
2,0,0,1,0,64207.2,0.0814528,0.0811199,-3.69358,33,0.00733441,10,-0.000299623,-2.43255,0.742314,0.0794812,-11.4825,0.0811199,
2,0,0,1,0,64207.2,0.0799528,0.0795655,-3.67496,33,0.00719552,10,-0.0002924,-2.43475,0.870515,0.067776,-9.73171,0.07956548,
2,0,0,1,0,64207.2,0.0784529,0.0781007,-3.66456,33,0.0070572,10,-0.000286205,-2.43598,0.768766,0.0767463,-10.9677,0.0781007,
2,0,0,1,0,64207.3,0.0769565,0.0766249,-3.64912,33,0.00691984,10,-0.000279613,-2.43781,0.765762,0.0770474,-10.9618,0.0766249,
2,0,0,1,0,64207.3,0.0754601,0.0751141,-3.62748,33,0.00678313,10,-0.000272475,-2.44039,0.794555,0.0742554,-10.5173,0.0751141,
2,0,0,1,0,64207.3,0.0739601,0.0736211,-3.61783,33,0.00664665,10,-0.000266348,-2.44155,0.829571,0.0711211,-10.0397,0.0736211,
2,0,0,1,0,64207.4,0.0724601,0.0721339,-3.60272,33,0.00651066,10,-0.000259878,-2.44337,0.996164,0.0592272,-8.32442,0.0721339,
2,0,0,1,0,64207.4,0.0709637,0.0705883,-3.588,33,0.00637551,10,-0.000253271,-2.44515,0.867597,0.0680039,-9.52464,0.0705883,
2,0,0,1,0,64207.5,0.0694682,0.0691367,-3.56797,33,0.00624092,10,-0.000246677,-2.44758,0.856358,0.0688964,-9.6205,0.0691367,
2,0,0,1,0,64207.5,0.0679646,0.0676163,-3.5568,33,0.00610624,10,-0.000240498,-2.44894,1.00556,0.0586737,-8.15768,0.0676163,
2,0,0,1,0,64207.5,0.0664691,0.0661328,-3.54352,33,0.00597276,10,-0.000234343,-2.45057,0.955111,0.0617729,-8.54603,0.0661328,
2,0,0,1,0,64207.6,0.0649727,0.0646029,-3.53645,33,0.00583967,10,-0.000228465,-2.45143,0.773563,0.0762704,-10.4988,0.0646029,
2,0,0,1,0,64207.6,0.0634727,0.0631239,-3.51716,33,0.00570684,10,-0.000222017,-2.45381,0.739027,0.0798347,-10.9411,0.0631239,
2,0,0,1,0,64207.6,0.0619728,0.0616372,-3.5,33,0.00557467,10,-0.00021573,-2.45593,0.677801,0.0870462,-11.8847,0.0616372,
2,0,0,1,0,64207.7,0.0604764,0.0601585,-3.48132,33,0.00544346,10,-0.000209431,-2.45826,0.692824,0.0851587,-11.5673,0.0601585,
2,0,0,1,0,64207.7,0.05898,0.0586538,-3.46444,33,0.00531284,10,-0.000203203,-2.46037,0.790114,0.0746728,-10.1058,0.0586538,
2,0,0,1,0,64207.8,0.05748,0.057136,-3.44984,33,0.00518251,10,-0.00019711,-2.4622,0.664025,0.0888521,-11.9684,0.05713604,
2,0,0,1,0,64207.8,0.05598,0.055667,-3.42831,33,0.00505285,10,-0.000190844,-2.46492,0.700837,0.0841851,-11.2857,0.055667,
2,0,0,1,0,64207.8,0.0544836,0.0541262,-3.41575,33,0.00492422,10,-0.000184881,-2.46651,0.676272,0.087243,-11.6165,0.0541262,
2,0,0,1,0,64207.9,0.0529881,0.0526754,-3.40274,33,0.00479615,10,-0.00017924,-2.46817,0.694196,0.0849904,-11.2572,0.0526754,
2,0,0,1,0,64207.9,0.0514846,0.0511102,-3.38201,33,0.00466805,10,-0.000172855,-2.47082,0.579768,0.101765,-13.406,0.0511102,
2,0,0,1,0,64207.9,0.049989,0.0496337,-3.35648,33,0.00454137,10,-0.000166594,-2.47412,0.593509,0.0994088,-13.0378,0.0496337,
2,0,0,1,0,64208,0.0484926,0.0481752,-3.33964,33,0.00441549,10,-0.000160888,-2.4763,0.60972,0.0967657,-12.6196,0.0481752,
2,0,0,1,0,64208,0.0469927,0.0466792,-3.31749,33,0.00428995,10,-0.000154858,-2.47919,0.614235,0.0960545,-12.453,0.0466792,
2,0,0,1,0,64208.1,0.0454927,0.0451657,-3.29976,33,0.00416509,10,-0.000149036,-2.48152,0.495078,0.119173,-15.3581,0.0451657,
2,0,0,1,0,64208.1,0.0439963,0.0436709,-3.28092,33,0.00404131,10,-0.000143281,-2.484,0.549827,0.107306,-13.7432,0.0436709,
2,0,0,1,0,64208.1,0.0424999,0.0421337,-3.26085,33,0.0039184,10,-0.000137392,-2.48667,0.553415,0.106611,-13.5618,0.04213373,
2,0,0,1,0,64208.2,0.0409999,0.0406684,-3.24068,33,0.00379589,10,-0.000131793,-2.48936,0.586809,0.100544,-12.7045,0.0406684,
2,0,0,1,0,64208.2,0.0394999,0.0391333,-3.22043,33,0.00367414,10,-0.000126026,-2.49209,0.524435,0.112502,-14.1178,0.0391333,
2,0,0,1,0,64208.2,0.0380044,0.0376559,-3.1961,33,0.0035535,10,-0.000120352,-2.49538,0.481893,0.122434,-15.2646,0.0376559,
2,0,0,1,0,64208.3,0.0365089,0.0361795,-3.17048,33,0.0034338,10,-0.000114706,-2.49888,0.493359,0.119588,-14.8088,0.0361795,
2,0,0,1,0,64208.3,0.0350054,0.0346842,-3.14599,33,0.0033143,10,-0.000109116,-2.50224,0.47962,0.123014,-15.1224,0.0346842,
2,0,0,1,0,64208.4,0.033509,0.0331526,-3.12522,33,0.00319624,10,-0.000103609,-2.50512,0.477972,0.123438,-15.0631,0.03315264,
2,0,0,1,0,64208.4,0.0320125,0.0316478,-3.10303,33,0.00307906,10,-9.82042e-05,-2.50821,0.479137,0.123138,-14.9083,0.0316478,
2,0,0,1,0,64208.4,0.0305126,0.0301802,-3.08173,33,0.0029625,10,-9.30072e-05,-2.51121,0.427876,0.137891,-16.5598,0.0301802,
2,0,0,1,0,64208.5,0.0290126,0.0287004,-3.05647,33,0.00284686,10,-8.77217e-05,-2.51478,0.440896,0.133818,-15.9533,0.0287004,
2,0,0,1,0,64208.5,0.0275162,0.0271737,-3.03671,33,0.00273235,10,-8.25187e-05,-2.5176,0.451281,0.130739,-15.4624,0.0271737,
2,0,0,1,0,64208.5,0.0260198,0.025706,-3.01117,33,0.00261865,10,-7.74053e-05,-2.52126,0.442248,0.133409,-15.6618,0.025706,
2,0,0,1,0,64208.6,0.0245198,0.024158,-2.9832,33,0.00250555,10,-7.20683e-05,-2.52532,0.434288,0.135855,-15.8524,0.024158,
2,0,0,1,0,64208.6,0.0230198,0.0227374,-2.96117,33,0.00239341,10,-6.73293e-05,-2.52854,0.456405,0.129271,-14.9689,0.02273744,
2,0,0,1,0,64208.7,0.0215243,0.0211808,-2.94302,33,0.00228232,10,-6.23355e-05,-2.53121,0.487625,0.120995,-13.8938,0.0211808,
2,0,0,1,0,64208.7,0.0200288,0.0197126,-2.92137,33,0.00217198,10,-5.75879e-05,-2.53441,0.460538,0.128111,-14.6012,0.0197126,
2,0,0,1,0,64208.7,0.0185253,0.0181982,-2.90153,33,0.00206188,10,-5.28028e-05,-2.53737,0.484885,0.121678,-13.7795,0.0181982,
2,0,0,1,0,64208.8,0.0170289,0.0166701,-2.88026,33,0.00195319,10,-4.80142e-05,-2.54057,0.526727,0.112013,-12.5953,0.0166701,
2,0,0,1,0,64208.8,0.0155325,0.0152061,-2.86242,33,0.00184512,10,-4.35264e-05,-2.54327,0.608402,0.0969754,-10.8387,0.0152061,
2,0,0,1,0,64208.8,0.0140325,0.0136762,-2.84689,33,0.00173739,10,-3.89347e-05,-2.54563,0.60136,0.098111,-10.8964,0.0136762,
2,0,0,1,0,64208.9,0.0125325,0.0121551,-2.8307,33,0.00163029,10,-3.44073e-05,-2.54811,0.542303,0.108795,-12.0312,0.0121551,
2,0,0,1,0,64208.9,0.0110361,0.0106884,-2.81317,33,0.00152417,10,-3.00683e-05,-2.5508,0.547013,0.107859,-11.8586,0.0106884,
2,0,0,1,0,64209,0.0095397,0.00920964,-2.79877,33,0.00141861,10,-2.57757e-05,-2.55303,0.666731,0.0884914,-9.66368,0.009209644,
2,0,0,1,0,64209,0.00803616,0.00767226,-2.78724,33,0.00131298,10,-2.13845e-05,-2.55483,0.813832,0.0724965,-7.87469,0.00767226,
2,0,0,1,0,64209,0.00654064,0.00620101,-2.7736,33,0.0012084,10,-1.71991e-05,-2.55696,0.665225,0.0886917,-9.59839,0.00620101,
2,0,0,1,0,64209.1,0.00504513,0.00469396,-2.75638,33,0.0011043,10,-1.29383e-05,-2.55966,0.961461,0.0613649,-6.61172,0.00469396,
2,0,0,1,0,64209.1,0.00354515,0.00323915,-2.75021,33,0.00100036,10,-8.90833e-06,-2.56063,9.15559,0.00644415,-0.694386,0.00323915,
2,0,0,1,0,64209.1,0.00204518,0.00166282,-2.7705,33,0.0008965,10,-4.60685e-06,-2.55744,3.48369,0.0169361,-1.81867,0.001662825,
2,0,0,1,0,64209.2,0.000548773,0.000173333,-2.74655,33,0.000792713,10,-4.76067e-07,-2.56121, , , ,0.000173333,
2,0,0,1,0,64209.2,0.000177222,-0.00023065,-2.74797,33,0.000766994,10,6.3382e-07,-2.56099, , , ,-0.00023065,