File: Figure_codes/Fig_3-5/rawdata_trumpetplot_data/after 10th/20221101_1-115_003_TrumpetPlot_ParaChange_from10_every3_12_CV_C01_14.csv
mode,ox/red,error,control changes,counter inc.,time/s,control/V,Ewe/V,<I>/mA,cycle number,(Q-Qo)/C,I Range,P/W,log(|I|),Tafel slope mV/dec,alpha_eff,dI/d(E-IR),E-IR/V,
2,1,0,1,0,28778.3,2.44065e-05,-0.000344411,15.8765,15,0.0000000E+000,10,-5.46802e-06,-1.79925, , , ,-0.000344411,
2,1,0,1,0,28778.4,0.00200257,0.00162052,16.7784,15,5.10005e-05,10,2.71898e-05,-1.77525, , , ,0.00162052,
2,1,0,1,0,28778.4,0.004408,0.00408385,17.5878,15,0.000119889,10,7.18257e-05,-1.75479, , , ,0.00408385,
2,1,0,1,0,28778.4,0.0068051,0.00644431,18.22,15,0.000191598,10,0.000117415,-1.73945,0.156973,0.375861,264.413,0.00644431,
2,1,0,1,0,28778.4,0.00920221,0.00885992,18.7984,15,0.000265703,10,0.000166552,-1.72588,0.183875,0.320871,234.004,0.00885992,
2,1,0,1,0,28778.4,0.0115993,0.0112829,19.3333,15,0.000342034,10,0.000218136,-1.71369,0.205039,0.28775,216.069,0.0112829,
2,1,0,1,0,28778.4,0.0140075,0.0136667,19.8302,15,0.000420413,10,0.000271014,-1.70267,0.22796,0.258818,199.404,0.0136667,
2,1,0,1,0,28778.4,0.0164046,0.0160622,20.2981,15,0.00050073,10,0.000326032,-1.69254,0.24658,0.239273,188.847,0.0160622,
2,1,0,1,0,28778.4,0.0188017,0.0184725,20.7152,15,0.000582811,10,0.000382662,-1.68371,0.269218,0.219153,176.766,0.0184725,
2,1,0,1,0,28778.4,0.0212099,0.020851,21.1402,15,0.000666544,10,0.000440794,-1.67489,0.290291,0.203245,167.269,0.020851,
2,1,0,1,0,28778.4,0.023607,0.0232708,21.5279,15,0.000751915,10,0.000500972,-1.667,0.306788,0.192315,161.214,0.0232708,
2,1,0,1,0,28778.4,0.0260041,0.025626,21.8978,15,0.000838804,10,0.000561154,-1.6596,0.33129,0.178092,151.959,0.025626,
2,1,0,1,0,28778.4,0.0284012,0.0280702,22.2625,15,0.000927166,10,0.000624914,-1.65243,0.350084,0.168531,146.165,0.0280702,
2,1,0,1,0,28778.4,0.0308067,0.0304784,22.6032,15,0.00101695,10,0.000688909,-1.64583,0.368515,0.160102,141.025,0.0304784,
2,1,0,1,0,28778.4,0.0332038,0.0328813,22.9326,15,0.00110806,10,0.000754054,-1.63955,0.380527,0.155048,138.673,0.0328813,
2,1,0,1,0,28778.4,0.0356009,0.0352587,23.2563,15,0.00120047,10,0.000819988,-1.63346,0.395367,0.149228,135.366,0.0352587,
2,1,0,1,0,28778.4,0.0380091,0.0376054,23.5848,15,0.00129419,10,0.000886915,-1.62737,0.413094,0.142825,131.31,0.0376054,
2,1,0,1,0,28778.4,0.0404062,0.0400221,23.895,15,0.00138918,10,0.00095633,-1.62169,0.428713,0.137621,128.185,0.0400221,
2,1,0,1,0,28778.4,0.0428033,0.0424854,24.1937,15,0.00148538,10,0.00102788,-1.6163,0.446834,0.13204,124.614,0.0424854,
2,1,0,1,0,28778.4,0.0452032,0.0448607,24.4871,15,0.00158277,10,0.00109851,-1.61106,0.453171,0.130194,124.443,0.0448607,
2,1,0,1,0,28778.4,0.0476058,0.0472753,24.7898,15,0.00168136,10,0.00117194,-1.60573,0.459457,0.128412,124.206,0.04727526,
2,1,0,1,0,28778.4,0.0500029,0.0496887,25.098,15,0.00178116,10,0.00124709,-1.60036,0.461597,0.127817,125.132,0.0496887,
2,1,0,1,0,28778.4,0.0524,0.0520672,25.3838,15,0.00188214,10,0.00132167,-1.59544,0.474125,0.12444,123.238,0.0520672,
2,1,0,1,0,28778.4,0.0548082,0.0544945,25.6926,15,0.00198431,10,0.00140011,-1.59019,0.484464,0.121784,122.046,0.0544945,
2,1,0,1,0,28778.4,0.0572053,0.0568624,25.9713,15,0.00208766,10,0.00147679,-1.58551,0.481342,0.122574,124.255,0.0568624,
2,1,0,1,0,28778.4,0.0596024,0.0592748,26.2679,15,0.00219215,10,0.00155703,-1.58057,0.489465,0.12054,123.634,0.0592748,
2,1,0,1,0,28778.5,0.0620051,0.0616544,26.5751,15,0.00229787,10,0.00163847,-1.57553,0.488862,0.120688,125.134,0.0616544,
2,1,0,1,0,28778.5,0.0644077,0.0640869,26.8786,15,0.00240482,10,0.00172257,-1.57059,0.490761,0.120222,126.049,0.0640869,
2,1,0,1,0,28778.5,0.0668048,0.0664601,27.1723,15,0.00251294,10,0.00180587,-1.56587,0.495282,0.119124,126.35,0.06646014,
2,1,0,1,0,28778.5,0.0692019,0.0688259,27.4718,15,0.00262226,10,0.00189077,-1.56111,0.495375,0.119102,127.767,0.0688259,
2,1,0,1,0,28778.5,0.0716074,0.0712638,27.7892,15,0.00273281,10,0.00198036,-1.55612,0.496402,0.118855,128.884,0.0712638,
2,1,0,1,0,28778.5,0.0740045,0.0736921,28.1058,15,0.00284464,10,0.00207118,-1.5512,0.493909,0.119455,130.978,0.0736921,
2,1,0,1,0,28778.5,0.0764016,0.0760462,28.4078,15,0.0029577,10,0.0021603,-1.54656,0.499148,0.118201,131.073,0.0760462,
2,1,0,1,0,28778.5,0.0788042,0.078412,28.7274,15,0.00307199,10,0.00225257,-1.5417,0.500128,0.11797,132.275,0.078412,
2,1,0,1,0,28778.5,0.0812069,0.0808636,29.0475,15,0.00318757,10,0.00234889,-1.53689,0.498245,0.118416,134.23,0.0808636,
2,1,0,1,0,28778.5,0.083604,0.0832082,29.3645,15,0.00330441,10,0.00244337,-1.53218,0.502867,0.117327,134.49,0.0832082,
2,1,0,1,0,28778.5,0.0860011,0.0856174,29.6925,15,0.00342256,10,0.0025422,-1.52735,0.505461,0.116725,135.245,0.0856174,
2,1,0,1,0,28778.5,0.0884065,0.0880627,30.0253,15,0.00354204,10,0.00264411,-1.52251,0.509249,0.115857,135.71,0.0880627,
2,1,0,1,0,28778.5,0.0908036,0.0904179,30.3397,15,0.00366279,10,0.00274325,-1.51799,0.511106,0.115436,136.695,0.0904179,
2,1,0,1,0,28778.5,0.0932007,0.0928536,30.6735,15,0.00378486,10,0.00284815,-1.51324,0.507262,0.116311,139.296,0.09285365,
2,1,0,1,0,28778.5,0.0956034,0.0951929,31.0014,15,0.00390824,10,0.00295112,-1.50862,0.507611,0.116231,140.681,0.0951929,
2,1,0,1,0,28778.5,0.098006,0.0976329,31.3584,15,0.004033,10,0.00306161,-1.50365,0.512646,0.115089,140.786,0.0976329,
2,1,0,1,0,28778.5,0.100403,0.100069,31.6974,15,0.00415916,10,0.00317191,-1.49898,0.513118,0.114983,142.175,0.100069,
2,1,0,1,0,28778.5,0.1028,0.102455,32.0252,15,0.00428664,10,0.00328113,-1.49451,0.52756,0.111836,139.781,0.102455,
2,1,0,1,0,28778.5,0.105208,0.104848,32.3741,15,0.00441548,10,0.00339436,-1.4898,0.52894,0.111544,140.894,0.104848,
2,1,0,1,0,28778.5,0.107606,0.107255,32.7034,15,0.00454566,10,0.00350761,-1.48541,0.532286,0.110843,141.448,0.107255,
2,1,0,1,0,28778.5,0.110003,0.109621,33.0432,15,0.00467719,10,0.00362222,-1.48092,0.553,0.106691,137.517,0.1096208,
2,1,0,1,0,28778.5,0.112408,0.112039,33.3808,15,0.00481006,10,0.00373994,-1.4765,0.555626,0.106186,138.251,0.112039,
2,1,0,1,0,28778.5,0.114805,0.114401,33.6879,15,0.00494426,10,0.00385393,-1.47253,0.547196,0.107822,141.897,0.114401,
2,1,0,1,0,28778.5,0.117202,0.116826,34.0266,15,0.0050797,10,0.00397521,-1.46818,0.535517,0.110174,146.532,0.116826,
2,1,0,1,0,28778.5,0.119599,0.119239,34.4079,15,0.00521662,10,0.00410276,-1.46334,0.518512,0.113787,152.851,0.1192387,
2,1,0,1,0,28778.6,0.122008,0.121636,34.7872,15,0.00535505,10,0.00423138,-1.45858,0.513166,0.114973,156.012,0.121636,
2,1,0,1,0,28778.6,0.124405,0.124049,35.1625,15,0.00549498,10,0.00436186,-1.45392,0.519868,0.11349,155.686,0.124049,
2,1,0,1,0,28778.6,0.126802,0.126421,35.5235,15,0.00563638,10,0.00449091,-1.44948,0.524202,0.112552,156.08,0.126421,
2,1,0,1,0,28778.6,0.129207,0.128842,35.903,15,0.00577926,10,0.00462581,-1.44487,0.52244,0.112932,158.306,0.128842,
2,1,0,1,0,28778.6,0.131604,0.131259,36.2892,15,0.00592368,10,0.0047633,-1.44022,0.513681,0.114857,162.726,0.131259,
2,1,0,1,0,28778.6,0.134001,0.133669,36.6854,15,0.00606968,10,0.00490369,-1.43551,0.510192,0.115643,165.625,0.133669,
2,1,0,1,0,28778.6,0.136399,0.136062,37.0924,15,0.00621726,10,0.00504687,-1.43072,0.503282,0.117231,169.716,0.136062,
2,1,0,1,0,28778.6,0.138807,0.138513,37.5048,15,0.0063665,10,0.00519488,-1.42591,0.502038,0.117521,172.018,0.138513,
2,1,0,1,0,28778.6,0.141204,0.140829,37.9132,15,0.00651736,10,0.00533927,-1.42121,0.496399,0.118856,175.951,0.140829,
2,1,0,1,0,28778.6,0.143601,0.143275,38.3378,15,0.0066699,10,0.00549285,-1.41637,0.497503,0.118592,177.48,0.143275,
2,1,0,1,0,28778.6,0.146009,0.145679,38.7845,15,0.0068242,10,0.00565008,-1.41134,0.500108,0.117974,178.483,0.145679,
2,1,0,1,0,28778.6,0.148406,0.148071,39.2012,15,0.00698022,10,0.00580456,-1.4067,0.505264,0.116771,178.595,0.148071,
2,1,0,1,0,28778.6,0.150803,0.150449,39.6302,15,0.00713793,10,0.00596231,-1.40197,0.511654,0.115312,178.354,0.150449,
2,1,0,1,0,28778.6,0.153206,0.152884,40.054,15,0.00729734,10,0.00612363,-1.39735,0.516496,0.114231,178.551,0.152884,
2,1,0,1,0,28778.6,0.155606,0.15525,40.4916,15,0.00745849,10,0.00628632,-1.39264,0.529482,0.11143,175.993,0.1552501,
2,1,0,1,0,28778.6,0.158003,0.157659,40.9132,15,0.00762134,10,0.00645034,-1.38814,0.536593,0.109953,175.449,0.157659,
2,1,0,1,0,28778.6,0.1604,0.160057,41.3212,15,0.00778585,10,0.00661375,-1.38383,0.565223,0.104384,168.223,0.1600569,
2,1,0,1,0,28778.6,0.162808,0.16244,41.7305,15,0.007952,10,0.00677869,-1.37955,0.587461,0.100432,163.419,0.16244,
2,1,0,1,0,28778.6,0.165205,0.164855,42.1074,15,0.00811971,10,0.00694162,-1.37564,0.600907,0.098185,161.281,0.164855,
2,1,0,1,0,28778.6,0.167603,0.167267,42.4832,15,0.00828892,10,0.00710602,-1.37178,0.63584,0.0927906,153.775,0.167267,
2,1,0,1,0,28778.6,0.170008,0.169643,42.8673,15,0.00845966,10,0.00727213,-1.36787,0.665153,0.0887014,148.21,0.169643,
2,1,0,1,0,28778.6,0.172405,0.172033,43.2058,15,0.00863187,10,0.00743282,-1.36446,0.709833,0.0831182,139.969,0.172033,
2,1,0,1,0,28778.6,0.174802,0.174439,43.5278,15,0.00880538,10,0.00759295,-1.36123,0.783917,0.0752631,127.712,0.174439,
2,1,0,1,0,28778.6,0.177199,0.17683,43.8218,15,0.00898011,10,0.00774903,-1.35831,0.853353,0.069139,118.109,0.17683,
2,1,0,1,0,28778.6,0.179607,0.17928,44.098,15,0.00915598,10,0.00790589,-1.35558,0.966514,0.0610441,104.896,0.17928,
2,1,0,1,0,28778.7,0.182005,0.181661,44.3428,15,0.00933289,10,0.00805535,-1.35318,1.13099,0.0521667,90.1017,0.181661,
2,1,0,1,0,28778.7,0.184402,0.184059,44.5369,15,0.00951067,10,0.00819743,-1.35128,1.41753,0.0416218,72.1923,0.184059,
2,1,0,1,0,28778.7,0.18681,0.186509,44.6939,15,0.00968914,10,0.00833579,-1.34975,2.04122,0.0289043,50.2942,0.186509,
2,1,0,1,0,28778.7,0.189207,0.188871,44.7905,15,0.00986812,10,0.00845963,-1.34881,3.35822,0.0175688,30.6378,0.188871,
2,1,0,1,0,28778.7,0.191604,0.191319,44.8286,15,0.0100474,10,0.00857655,-1.34844,11.7496,0.00502146,8.76694,0.191319,
2,1,0,1,0,28778.7,0.194001,0.19367,44.8313,15,0.0102267,10,0.00868247,-1.34842,-6.57535,-0.0089729,-15.6585,0.19367,
2,1,0,1,0,28778.7,0.196407,0.196065,44.7776,15,0.010406,10,0.00877933,-1.34894,-2.61188,-0.0225891,-39.3538,0.196065,
2,1,0,1,0,28778.7,0.198804,0.198509,44.6395,15,0.0105848,10,0.00886137,-1.35028,-1.58045,-0.0373311,-64.8613,0.1985094,
2,1,0,1,0,28778.7,0.201201,0.200891,44.4519,15,0.010763,10,0.00892998,-1.35211,-1.1112,-0.0530956,-91.8675,0.200891,
2,1,0,1,0,28778.7,0.203609,0.203262,44.2092,15,0.0109403,10,0.00898605,-1.35449,-0.888063,-0.0664367,-114.316,0.203262,
2,1,0,1,0,28778.7,0.206006,0.205685,43.8939,15,0.0111165,10,0.00902832,-1.3576,-0.712137,-0.0828492,-141.52,0.205685,
2,1,0,1,0,28778.7,0.208403,0.208091,43.5442,15,0.0112913,10,0.00906116,-1.36107,-0.601323,-0.0981169,-166.204,0.208091,
2,1,0,1,0,28778.7,0.210803,0.210494,43.0929,15,0.0114646,10,0.00907079,-1.36559,-0.520906,-0.113264,-189.958,0.210494,
2,1,0,1,0,28778.7,0.213206,0.212887,42.6094,15,0.011636,10,0.00907101,-1.37049,-0.453114,-0.13021,-215.975,0.212887,
2,1,0,1,0,28778.7,0.215603,0.215306,42.0663,15,0.0118053,10,0.00905713,-1.37607,-0.416975,-0.141495,-231.754,0.215306,
2,1,0,1,0,28778.7,0.218,0.217677,41.4738,15,0.0119723,10,0.00902791,-1.38223,-0.377023,-0.156489,-252.747,0.217677,
2,1,0,1,0,28778.7,0.220408,0.220114,40.8634,15,0.0121369,10,0.00899461,-1.38867,-0.348887,-0.169109,-269.009,0.2201141,
2,1,0,1,0,28778.7,0.222805,0.222486,40.1833,15,0.0122989,10,0.00894024,-1.39595,-0.328371,-0.179675,-281.232,0.222486,
2,1,0,1,0,28778.7,0.225202,0.224916,39.4813,15,0.0124582,10,0.00887995,-1.40361,-0.308624,-0.191171,-294.234,0.224916,
2,1,0,1,0,28778.7,0.227605,0.227293,38.7696,15,0.0126146,10,0.00881205,-1.41151,-0.29688,-0.198733,-300.335,0.227293,
2,1,0,1,0,28778.7,0.230008,0.229694,38.0447,15,0.0127682,10,0.00873863,-1.41971,-0.286243,-0.206118,-305.658,0.2296938,
2,1,0,1,0,28778.7,0.232405,0.23209,37.2989,15,0.0129188,10,0.00865671,-1.4283,-0.279404,-0.211164,-307.167,0.23209,
2,1,0,1,0,28778.7,0.234802,0.234501,36.5515,15,0.0130664,10,0.00857135,-1.43709,-0.273373,-0.215822,-307.831,0.234501,
2,1,0,1,0,28778.7,0.237207,0.236912,35.815,15,0.0132111,10,0.00848499,-1.44594,-0.270686,-0.217965,-304.687,0.236912,
2,1,0,1,0,28778.7,0.239604,0.239295,35.0892,15,0.0133528,10,0.00839667,-1.45483,-0.270574,-0.218055,-298.705,0.239295,
2,1,0,1,0,28778.8,0.242002,0.24168,34.3772,15,0.0134917,10,0.00830826,-1.46373,-0.271163,-0.217582,-292.085,0.24168,
2,1,0,1,0,28778.8,0.244404,0.244086,33.6884,15,0.0136277,10,0.00822286,-1.47252,-0.271435,-0.217364,-285.902,0.244086,
2,1,0,1,0,28778.8,0.246807,0.24649,33.0175,15,0.0137611,10,0.00813846,-1.48126,-0.275421,-0.214217,-276.167,0.24649,
2,1,0,1,0,28778.8,0.249204,0.248864,32.3534,15,0.0138917,10,0.0080516,-1.49008,-0.279814,-0.210854,-266.575,0.248864,
2,1,0,1,0,28778.8,0.251601,0.251283,31.7251,15,0.0140198,10,0.00797197,-1.4986,-0.284769,-0.207185,-256.86,0.2512826,
2,1,0,1,0,28778.8,0.254006,0.253666,31.1344,15,0.0141455,10,0.00789776,-1.50676,-0.292486,-0.201719,-245.294,0.2536664,
2,1,0,1,0,28778.8,0.256404,0.256103,30.5481,15,0.0142688,10,0.00782347,-1.51502,-0.298528,-0.197636,-235.877,0.256103,
2,1,0,1,0,28778.8,0.258801,0.258485,29.9934,15,0.0143898,10,0.00775285,-1.52297,-0.306005,-0.192807,-225.998,0.258485,
2,1,0,1,0,28778.8,0.261203,0.260863,29.4652,15,0.0145086,10,0.0076864,-1.53069,-0.317469,-0.185845,-214.005,0.260863,
2,1,0,1,0,28778.8,0.263606,0.263286,28.9603,15,0.0146254,10,0.00762486,-1.5382,-0.325315,-0.181362,-205.257,0.263286,
2,1,0,1,0,28778.8,0.266003,0.265731,28.4878,15,0.0147403,10,0.00757008,-1.54534,-0.337762,-0.174679,-194.426,0.265731,
2,1,0,1,0,28778.8,0.2684,0.268064,28.0273,15,0.0148533,10,0.00751311,-1.55242,-0.349063,-0.169024,-185.122,0.268064,
2,1,0,1,0,28778.8,0.270808,0.270481,27.5953,15,0.0149645,10,0.007464,-1.55917,-0.357141,-0.165201,-178.128,0.270481,
2,1,0,1,0,28778.8,0.273205,0.27287,27.1861,15,0.015074,10,0.00741829,-1.56565,-0.378438,-0.155904,-165.622,0.27287,
2,1,0,1,0,28778.8,0.275603,0.275282,26.7865,15,0.0151819,10,0.00737383,-1.57208,-0.390708,-0.151008,-158.095,0.275282,
2,1,0,1,0,28778.8,0.278008,0.277711,26.4295,15,0.0152883,10,0.00733976,-1.57791,-0.401254,-0.147039,-151.786,0.277711,
2,1,0,1,0,28778.8,0.280405,0.280124,26.0709,15,0.0153933,10,0.00730307,-1.58384,-0.418781,-0.140885,-143.458,0.280124,
2,1,0,1,0,28778.8,0.282802,0.282473,25.7285,15,0.0154968,10,0.00726762,-1.58959,-0.427381,-0.13805,-138.774,0.282473,
2,1,0,1,0,28778.8,0.285199,0.284889,25.4082,15,0.015599,10,0.00723853,-1.59503,-0.448827,-0.131454,-130.512,0.284889,
2,1,0,1,0,28778.8,0.287608,0.28731,25.0974,15,0.0157,10,0.00721074,-1.60037,-0.469423,-0.125686,-123.274,0.28731,
2,1,0,1,0,28778.8,0.290005,0.289717,24.8188,15,0.0157998,10,0.00719043,-1.60522,-0.484619,-0.121745,-118.005,0.289717,
2,1,0,1,0,28778.8,0.292402,0.292084,24.5438,15,0.0158985,10,0.00716885,-1.61006,-0.50293,-0.117313,-112.43,0.292084,
2,1,0,1,0,28778.8,0.294807,0.294509,24.273,15,0.0159961,10,0.00714863,-1.61488,-0.511801,-0.115279,-109.325,0.294509,
2,1,0,1,0,28778.8,0.297204,0.296856,24.0242,15,0.0160927,10,0.00713172,-1.61935,-0.532581,-0.110781,-104.388,0.296856,
2,1,0,1,0,28778.8,0.299421,0.299144,23.7883,15,0.0161811,10,0.00711611,-1.62364,-0.113679,-0.519005,-469.638,0.299144,
2,1,0,0,0,28778.8,0.300012,0.299689,23.7499,15,0.0162049,10,0.00711759,-1.62434,0.00180126,32.7548,26864.1,0.2996892,
2,1,0,1,0,28778.8,0.299243,0.299068,22.1321,15,0.0162341,10,0.006619,-1.65498,0.0258499,2.2824,1711.97,0.299068,
2,1,0,1,0,28778.9,0.296846,0.296641,18.2686,15,0.0163141,10,0.00541922,-1.7383,0.0292439,2.01752,1392.56,0.296641,
2,1,0,1,0,28778.9,0.294449,0.294172,15.2767,15,0.0163807,10,0.00449399,-1.81597,0.0301864,1.95452,1193.18,0.294172,
2,1,0,1,0,28778.9,0.292041,0.291793,12.7544,15,0.0164364,10,0.00372164,-1.89434,0.0297585,1.98263,995.046,0.291793,
2,1,0,1,0,28778.9,0.289644,0.289373,10.5652,15,0.0164828,10,0.00305729,-1.97612,0.0278888,2.11555,871.263,0.289373,
2,1,0,1,0,28778.9,0.287247,0.286966,8.64138,15,0.016521,10,0.00247979,-2.06342,0.0256719,2.29823,765.94,0.286966,
2,1,0,1,0,28778.9,0.284841,0.28458,6.92017,15,0.0165519,10,0.00196935,-2.15988,0.0226338,2.60672,686.229,0.28458,
2,1,0,1,0,28778.9,0.282444,0.282158,5.37468,15,0.0165763,10,0.00151651,-2.26965,0.0190162,3.10263,619.453,0.282158,
2,1,0,1,0,28778.9,0.280047,0.279778,3.9804,15,0.0165948,10,0.00111363,-2.40007,0.0148905,3.96227,555.279,0.279778,
2,1,0,1,0,28778.9,0.27765,0.277393,2.71112,15,0.016608,10,0.000752047,-2.56685,0.00942082,6.26273,505.777,0.277393,
2,1,0,1,0,28778.9,0.275242,0.274913,1.55189,15,0.0166164,10,0.000426633,-2.80914,0.0101954,5.78691,464.762,0.274913,
2,1,0,1,0,28778.9,0.272845,0.272546,0.512857,15,0.0166204,10,0.000139777,-3.29,0.0324929,1.81578,420.816,0.272546,
2,0,0,1,0,28778.9,0.270448,0.270224,-0.460059,15,0.0166204,10,-0.000124319,-3.33719,-0.0647989,-0.910509,389.827,0.270224,
2,0,0,1,0,28778.9,0.268039,0.267707,-1.36478,15,0.0166166,10,-0.000365361,-2.86494,-0.0126641,-4.65885,359.399,0.267707,
2,0,0,1,0,28778.9,0.265642,0.265337,-2.18088,15,0.0166094,10,-0.000578668,-2.66137,-0.0107902,-5.46793,328.049,0.265337,
2,0,0,1,0,28778.9,0.263245,0.262949,-2.93617,15,0.0165991,10,-0.000772063,-2.53222,-0.0191818,-3.07584,306.773,0.262949,
2,0,0,1,0,28778.9,0.260843,0.260531,-3.63955,15,0.0165859,10,-0.000948217,-2.43895,-0.0271398,-2.17393,285.375,0.260531,
2,0,0,1,0,28778.9,0.258443,0.258158,-4.29413,15,0.0165699,10,-0.00110857,-2.36712,-0.0354399,-1.66479,264.836,0.258158,
2,0,0,1,0,28778.9,0.256046,0.255767,-4.91196,15,0.0165514,10,-0.00125632,-2.30874,-0.0438498,-1.3455,248.422,0.255767,
2,0,0,1,0,28778.9,0.253649,0.253348,-5.47885,15,0.0165306,10,-0.00138806,-2.26131,-0.0531824,-1.10939,230.679,0.253348,
2,0,0,1,0,28778.9,0.25124,0.250944,-6.0212,15,0.0165075,10,-0.00151099,-2.22032,-0.0629429,-0.937358,215.484,0.250944,
2,0,0,1,0,28778.9,0.248843,0.248528,-6.51572,15,0.0164824,10,-0.00161934,-2.18604,-0.0719656,-0.819836,205.173,0.248528,
2,0,0,1,0,28778.9,0.246446,0.246119,-6.99087,15,0.0164553,10,-0.00172059,-2.15547,-0.0830473,-0.710438,191.343,0.246119,
2,0,0,1,0,28778.9,0.244041,0.243757,-7.44673,15,0.0164264,10,-0.00181519,-2.12803,-0.0931697,-0.633253,181.676,0.243757,
2,0,0,1,0,28778.9,0.241644,0.241319,-7.86294,15,0.0163957,10,-0.00189748,-2.10442,-0.104955,-0.562143,170.746,0.241319,
2,0,0,1,0,28778.9,0.239247,0.238953,-8.25516,15,0.0163634,10,-0.0019726,-2.08327,-0.117124,-0.503738,161.15,0.238953,
2,0,0,1,0,28779,0.236849,0.236505,-8.63254,15,0.0163296,10,-0.00204164,-2.06386,-0.127877,-0.461382,154.533,0.236505,
2,0,0,1,0,28779,0.234441,0.234141,-8.99631,15,0.0162943,10,-0.00210641,-2.04594,-0.139755,-0.422168,147.364,0.234141,
2,0,0,1,0,28779,0.232044,0.231735,-9.34398,15,0.0162576,10,-0.00216533,-2.02947,-0.151101,-0.390468,141.603,0.231735,
2,0,0,1,0,28779,0.229647,0.229348,-9.67061,15,0.0162195,10,-0.00221794,-2.01455,-0.166013,-0.355393,133.487,0.229348,
2,0,0,1,0,28779,0.227239,0.226955,-9.98485,15,0.0161802,10,-0.00226611,-2.00066,-0.180818,-0.326295,126.57,0.226955,
2,0,0,1,0,28779,0.224842,0.224519,-10.2807,15,0.0161397,10,-0.00230822,-1.98798,-0.193176,-0.305422,122.098,0.224519,
2,0,0,1,0,28779,0.222445,0.222132,-10.5594,15,0.0160979,10,-0.00234559,-1.97636,-0.20561,-0.286952,118.064,0.222132,
2,0,0,1,0,28779,0.220047,0.219783,-10.8385,15,0.0160551,10,-0.00238211,-1.96503,-0.219662,-0.268594,113.365,0.219783,
2,0,0,1,0,28779,0.217642,0.217335,-11.1206,15,0.0160112,10,-0.0024169,-1.95387,-0.229777,-0.256771,111.052,0.217335,
2,0,0,1,0,28779,0.215245,0.214937,-11.367,15,0.0159661,10,-0.00244319,-1.94435,-0.24547,-0.240355,106.432,0.214937,
2,0,0,1,0,28779,0.212848,0.212569,-11.6214,15,0.0159201,10,-0.00247035,-1.93474,-0.260567,-0.226429,102.549,0.212569,
2,0,0,1,0,28779,0.21044,0.210093,-11.8698,15,0.0158731,10,-0.00249376,-1.92556,-0.268261,-0.219935,101.702,0.210093,
2,0,0,1,0,28779,0.208043,0.207757,-12.1028,15,0.0158252,10,-0.00251444,-1.91711,-0.287535,-0.205193,96.7605,0.207757,
2,0,0,1,0,28779,0.205645,0.205331,-12.344,15,0.0157763,10,-0.0025346,-1.90855,-0.301325,-0.195802,94.101,0.205331,
2,0,0,1,0,28779,0.203246,0.202905,-12.5565,15,0.0157265,10,-0.00254778,-1.90113,-0.316154,-0.186618,91.3085,0.202905,
2,0,0,1,0,28779,0.200843,0.200527,-12.77,15,0.0156758,10,-0.00256073,-1.89381,-0.33263,-0.177374,88.3558,0.200527,
2,0,0,1,0,28779,0.198446,0.198134,-12.9815,15,0.0156242,10,-0.00257207,-1.88668,-0.331001,-0.178247,90.3249,0.198134,
2,0,0,1,0,28779,0.196049,0.195721,-13.1931,15,0.0155719,10,-0.00258216,-1.87965,-0.345222,-0.170904,87.9564,0.195721,
2,0,0,1,0,28779,0.19364,0.193325,-13.4218,15,0.0155186,10,-0.00259477,-1.87219,-0.357888,-0.164856,86.1556,0.193325,
2,0,0,1,0,28779,0.191243,0.190939,-13.6133,15,0.0154645,10,-0.00259931,-1.86604,-0.364331,-0.161941,85.9617,0.190939,
2,0,0,1,0,28779,0.188846,0.188527,-13.8092,15,0.0154097,10,-0.0026034,-1.85983,-0.381002,-0.154855,83.5033,0.188527,
2,0,0,1,0,28779,0.186444,0.186123,-14.0181,15,0.015354,10,-0.00260909,-1.85331,-0.382462,-0.154264,84.3612,0.186123,
2,0,0,1,0,28779,0.184041,0.183768,-14.2199,15,0.0152975,10,-0.00261316,-1.8471,-0.387528,-0.152247,84.4333,0.1837676,
2,0,0,1,0,28779,0.181644,0.181384,-14.4194,15,0.0152402,10,-0.00261545,-1.84105,-0.397417,-0.148459,83.5242,0.181384,
2,0,0,1,0,28779,0.179247,0.178936,-14.6189,15,0.0151821,10,-0.00261586,-1.83508,-0.403224,-0.146321,83.4814,0.178936,
2,0,0,1,0,28779.1,0.176841,0.176508,-14.8212,15,0.0151232,10,-0.00261606,-1.82912,-0.401902,-0.146802,84.9374,0.176508,
2,0,0,1,0,28779.1,0.174444,0.174116,-15.0256,15,0.0150635,10,-0.0026162,-1.82317,-0.394846,-0.149425,87.6722,0.174116,
2,0,0,1,0,28779.1,0.172047,0.171737,-15.2388,15,0.015003,10,-0.00261706,-1.81705,-0.394652,-0.149499,88.9367,0.171737,
2,0,0,1,0,28779.1,0.169644,0.16938,-15.4568,15,0.0149416,10,-0.00261807,-1.81088,-0.396996,-0.148616,89.6201,0.16938,
2,0,0,1,0,28779.1,0.167242,0.166926,-15.6734,15,0.0148793,10,-0.0026163,-1.80484,-0.390911,-0.15093,92.3511,0.166926,
2,0,0,1,0,28779.1,0.164845,0.164519,-15.8857,15,0.0148162,10,-0.0026135,-1.79899,-0.384845,-0.153309,95.1963,0.1645191,
2,0,0,1,0,28779.1,0.162448,0.162124,-16.1266,15,0.0147521,10,-0.0026145,-1.79246,-0.377011,-0.156494,98.5864,0.162124,
2,0,0,1,0,28779.1,0.160042,0.15975,-16.3735,15,0.0146871,10,-0.00261567,-1.78586,-0.363486,-0.162317,103.744,0.15975,
2,0,0,1,0,28779.1,0.157645,0.157327,-16.6197,15,0.0146211,10,-0.00261473,-1.77938,-0.353204,-0.167042,108.493,0.157327,
2,0,0,1,0,28779.1,0.155248,0.15495,-16.8784,15,0.0145541,10,-0.00261531,-1.77267,-0.344171,-0.171426,113.139,0.15495,
2,0,0,1,0,28779.1,0.152845,0.152517,-17.1688,15,0.014486,10,-0.00261854,-1.76526,-0.323873,-0.18217,122.259,0.152517,
2,0,0,1,0,28779.1,0.150443,0.150144,-17.4603,15,0.0144167,10,-0.00262156,-1.75795,-0.313175,-0.188393,128.589,0.150144,
2,0,0,1,0,28779.1,0.148046,0.147784,-17.7865,15,0.0143462,10,-0.00262855,-1.74991,-0.296803,-0.198785,138.265,0.147784,
2,0,0,1,0,28779.1,0.145648,0.145334,-18.1149,15,0.0142743,10,-0.00263272,-1.74196,-0.282399,-0.208924,148.112,0.145334,
2,0,0,1,0,28779.1,0.14324,0.142945,-18.4923,15,0.0142011,10,-0.00264338,-1.73301,-0.271611,-0.217222,157.134,0.142945,
2,0,0,1,0,28779.1,0.140843,0.1405,-18.8888,15,0.0141263,10,-0.00265387,-1.7238,-0.249644,-0.236337,174.68,0.1405,
2,0,0,1,0,28779.1,0.138446,0.138119,-19.3051,15,0.0140499,10,-0.00266641,-1.71433,-0.240764,-0.245053,185.271,0.138119,
2,0,0,1,0,28779.1,0.136041,0.135762,-19.787,15,0.0139717,10,-0.00268632,-1.70362,-0.229225,-0.257389,199.182,0.135762,
2,0,0,1,0,28779.1,0.133644,0.133295,-20.2801,15,0.0138915,10,-0.00270325,-1.69293,-0.216671,-0.272302,215.931,0.133295,
2,0,0,1,0,28779.1,0.131246,0.130906,-20.7996,15,0.0138093,10,-0.0027228,-1.68194,-0.211286,-0.279242,227.338,0.130906,
2,0,0,1,0,28779.1,0.128849,0.128568,-21.3675,15,0.0137249,10,-0.00274718,-1.67025,-0.201038,-0.293477,245.435,0.128568,
2,0,0,1,0,28779.1,0.126441,0.126149,-21.9723,15,0.0136382,10,-0.00277179,-1.65812,-0.193192,-0.305395,262.589,0.126149,
2,0,0,1,0,28779.1,0.124044,0.123761,-22.6201,15,0.0135489,10,-0.0027995,-1.64551,-0.189232,-0.311787,275.781,0.123761,
2,0,0,1,0,28779.1,0.121647,0.121339,-23.3118,15,0.013457,10,-0.00282864,-1.63242,-0.186073,-0.31708,288.704,0.121339,
2,0,0,1,0,28779.1,0.119241,0.118977,-24.0126,15,0.0133623,10,-0.00285694,-1.61956,-0.185796,-0.317552,297.696,0.118977,
2,0,0,1,0,28779.2,0.116844,0.116552,-24.7432,15,0.0132647,10,-0.00288386,-1.60654,-0.1864,-0.316524,305.698,0.116552,
2,0,0,1,0,28779.2,0.114447,0.114158,-25.4789,15,0.0131642,10,-0.00290863,-1.59382,-0.188261,-0.313394,311.702,0.114158,
2,0,0,1,0,28779.2,0.11205,0.111761,-26.24,15,0.0130607,10,-0.0029326,-1.58104,-0.191641,-0.307868,315.09,0.111761,
2,0,0,1,0,28779.2,0.109642,0.10934,-27.0165,15,0.0129541,10,-0.00295398,-1.56837,-0.195534,-0.301738,317.623,0.1093398,
2,0,0,1,0,28779.2,0.107245,0.106966,-27.7637,15,0.0128445,10,-0.00296976,-1.55652,-0.201478,-0.292836,317.014,0.106966,
2,0,0,1,0,28779.2,0.104848,0.104574,-28.523,15,0.0127318,10,-0.00298277,-1.5448,-0.207315,-0.284591,316.601,0.104574,
2,0,0,1,0,28779.2,0.10244,0.102127,-29.294,15,0.0126161,10,-0.00299171,-1.53322,-0.214991,-0.27443,313.181,0.1021269,
2,0,0,1,0,28779.2,0.100042,0.0997643,-30.0481,15,0.0124974,10,-0.00299773,-1.52218,-0.226701,-0.260255,304.251,0.09976431,
2,0,0,1,0,28779.2,0.0976454,0.0973636,-30.7709,15,0.0123756,10,-0.00299596,-1.51186,-0.235275,-0.250771,300.461,0.0973636,
2,0,0,1,0,28779.2,0.0952427,0.0950063,-31.4341,15,0.0122512,10,-0.00298643,-1.5026,-0.245504,-0.240322,294.881,0.09500628,
2,0,0,1,0,28779.2,0.0928428,0.0926161,-32.1517,15,0.0121239,10,-0.00297776,-1.4928,-0.25619,-0.230298,288.918,0.0926161,
2,0,0,1,0,28779.2,0.0904457,0.0901761,-32.8755,15,0.0119938,10,-0.00296458,-1.48313,-0.261539,-0.225588,288.779,0.0901761,
2,0,0,1,0,28779.2,0.0880486,0.0877075,-33.5607,15,0.0118608,10,-0.00294352,-1.47417,-0.276523,-0.213364,278.764,0.0877075,
2,0,0,1,0,28779.2,0.0856404,0.0854043,-34.2069,15,0.0117252,10,-0.00292142,-1.46589,-0.295291,-0.199803,266.191,0.0854043,
2,0,0,1,0,28779.2,0.0832433,0.0829749,-34.8393,15,0.011587,10,-0.00289079,-1.45793,-0.310048,-0.190293,258.276,0.0829749,
2,0,0,1,0,28779.2,0.0808462,0.0805763,-35.4309,15,0.0114464,10,-0.00285489,-1.45062,-0.332807,-0.17728,244.752,0.0805763,
2,0,0,1,0,28779.2,0.0784408,0.0781734,-36.0231,15,0.0113035,10,-0.00281605,-1.44342,-0.356123,-0.165673,232.419,0.0781734,
2,0,0,1,0,28779.2,0.0760437,0.0757472,-36.5705,15,0.0111582,10,-0.00277011,-1.43687,-0.379336,-0.155535,221.449,0.0757472,
2,0,0,1,0,28779.2,0.0736466,0.0733475,-37.0769,15,0.0110109,10,-0.0027195,-1.4309,-0.408189,-0.144541,208.779,0.0733475,
2,0,0,1,0,28779.2,0.0712495,0.070987,-37.5544,15,0.0108616,10,-0.00266587,-1.42534,-0.438244,-0.134628,197.046,0.070987,
2,0,0,1,0,28779.2,0.0688413,0.0686223,-38.0172,15,0.0107104,10,-0.00260883,-1.42002,-0.469723,-0.125606,186.077,0.0686223,
2,0,0,1,0,28779.2,0.0664442,0.0662003,-38.4517,15,0.0105574,10,-0.00254552,-1.41508,-0.506165,-0.116563,174.629,0.0662003,
2,0,0,1,0,28779.2,0.0640471,0.0637869,-38.8559,15,0.0104027,10,-0.0024785,-1.41054,-0.55472,-0.10636,161.008,0.0637869,
2,0,0,1,0,28779.2,0.0616389,0.0613712,-39.2336,15,0.0102465,10,-0.00240781,-1.40634,-0.612758,-0.096286,147.145,0.0613712,
2,0,0,1,0,28779.2,0.0592417,0.0589737,-39.5707,15,0.0100889,10,-0.00233363,-1.40263,-0.683032,-0.0863796,133.142,0.05897367,
2,0,0,1,0,28779.3,0.0568446,0.0565432,-39.8727,15,0.00992996,10,-0.00225453,-1.39932,-0.756018,-0.0780404,121.261,0.0565432,
2,0,0,1,0,28779.3,0.0544475,0.054135,-40.141,15,0.00976991,10,-0.00217303,-1.39641,-0.858706,-0.068708,107.487,0.054135,
2,0,0,1,0,28779.3,0.0520421,0.051747,-40.4006,15,0.00960877,10,-0.00209061,-1.39361,-0.976919,-0.060394,95.049,0.051747,
2,0,0,1,0,28779.3,0.049645,0.0493558,-40.6045,15,0.00944673,10,-0.00200407,-1.39143,-1.10102,-0.0535868,84.7949,0.0493558,
2,0,0,1,0,28779.3,0.0472479,0.0469582,-40.7837,15,0.00928393,10,-0.00191513,-1.38951,-1.31624,-0.0448245,71.272,0.0469582,
2,0,0,1,0,28779.3,0.0448397,0.044549,-40.9538,15,0.00912045,10,-0.00182445,-1.38771,-1.49484,-0.0394691,63.0098,0.044549,
2,0,0,1,0,28779.3,0.0424426,0.0421482,-41.0848,15,0.00895637,10,-0.00173165,-1.38632,-1.76317,-0.0334624,53.5978,0.0421482,
2,0,0,1,0,28779.3,0.0400455,0.0397602,-41.2091,15,0.00879179,10,-0.00163848,-1.38501,-2.15762,-0.0273449,43.9307,0.0397602,
2,0,0,1,0,28779.3,0.0376456,0.0373085,-41.3009,15,0.00862677,10,-0.00154088,-1.38404,-2.66972,-0.0220997,35.582,0.0373085,
2,0,0,1,0,28779.3,0.035243,0.0349162,-41.377,15,0.00846139,10,-0.00144473,-1.38324,-3.55518,-0.0165955,26.7735,0.0349162,
2,0,0,1,0,28779.3,0.0328459,0.0325483,-41.4263,15,0.00829577,10,-0.00134836,-1.38272,-4.23039,-0.0139467,22.5386,0.0325483,
2,0,0,1,0,28779.3,0.0304488,0.0301073,-41.4675,15,0.00812997,10,-0.00124848,-1.38229,-5.88499,-0.0100255,16.2197,0.0301073,
2,0,0,1,0,28779.3,0.0280406,0.0277405,-41.5166,15,0.007964,10,-0.00115169,-1.38178,-9.05132,-0.00651839,10.5514,0.0277405,
2,0,0,1,0,28779.3,0.0256435,0.0253461,-41.5322,15,0.00779789,10,-0.00105268,-1.38161,-13.8534,-0.00425889,6.89787,0.0253461,
2,0,0,1,0,28779.3,0.0232463,0.0229739,-41.5274,15,0.00763177,10,-0.000954047,-1.38167,298.268,0.000197809,-0.320491,0.0229739,
2,0,0,1,0,28779.3,0.0208437,0.0205021,-41.5338,15,0.00746565,10,-0.000851531,-1.3816,22.0094,0.00268068,-4.34284,0.0205021,
2,0,0,1,0,28779.3,0.018441,0.0181427,-41.5135,15,0.00729956,10,-0.000753168,-1.38181,13.8935,0.00424659,-6.87688,0.0181427,
2,0,0,1,0,28779.3,0.0160439,0.0156974,-41.4903,15,0.00713356,10,-0.000651291,-1.38205,7.2895,0.00809384,-13.0998,0.0156974,
2,0,0,1,0,28779.3,0.0136468,0.0133401,-41.4611,15,0.00696766,10,-0.000553097,-1.38236,5.58895,0.0105565,-17.0693,0.0133401,
2,0,0,1,0,28779.3,0.0112414,0.0109479,-41.4086,15,0.00680191,10,-0.000453336,-1.38291,4.45327,0.0132487,-21.3997,0.0109479,
2,0,0,1,0,28779.3,0.00884431,0.00853331,-41.3495,15,0.0066364,10,-0.000352848,-1.38353,3.66527,0.0160971,-25.9683,0.008533312,
2,0,0,1,0,28779.3,0.0064472,0.0061071,-41.2851,15,0.00647113,10,-0.000252132,-1.38421,4.14759,0.0142251,-22.927,0.0061071,
2,0,0,1,0,28779.3,0.00404455,0.00374982,-41.2121,15,0.00630615,10,-0.000154538,-1.38498,3.23486,0.0182388,-29.3318,0.00374982,
2,0,0,1,0,28779.3,0.0016419,0.00129074,-41.1872,15,0.0061414,10,-5.31618e-05,-1.38524,2.63669,0.0223765,-35.9025,0.00129074,
2,0,0,1,0,28779.3,-0.000755208,-0.00112699,-41.0661,15,0.00597689,10,4.62812e-05,-1.38652,2.30187,0.0256313,-41.0265,-0.00112699,
2,0,0,1,0,28779.4,-0.00315231,-0.00352033,-40.9394,15,0.00581291,10,0.00014412,-1.38786,1.76316,0.0334626,-53.4515,-0.00352033,
2,0,0,1,0,28779.4,-0.00555774,-0.00589988,-40.8162,15,0.0056494,10,0.000240811,-1.38917,1.66752,0.035382,-56.3318,-0.00589988,
2,0,0,1,0,28779.4,-0.00795485,-0.00833246,-40.6729,15,0.00548641,10,0.000338905,-1.3907,1.56649,0.0376639,-59.754,-0.00833246,
2,0,0,1,0,28779.4,-0.010352,-0.0107279,-40.5253,15,0.00532403,10,0.000434752,-1.39227,1.39069,0.0424251,-67.046,-0.0107279,
2,0,0,1,0,28779.4,-0.0127546,-0.0131308,-40.3652,15,0.00516226,10,0.000530027,-1.39399,1.2672,0.0465595,-73.27,-0.0131308,
2,0,0,1,0,28779.4,-0.0151573,-0.0154966,-40.1728,15,0.00500121,10,0.00062254,-1.39607,1.1799,0.0500041,-78.3496,-0.0154966,
2,0,0,1,0,28779.4,-0.0175544,-0.0178517,-39.9754,15,0.00484095,10,0.00071363,-1.39821,1.09645,0.05381,-83.9227,-0.0178517,
2,0,0,1,0,28779.4,-0.0199515,-0.0203214,-39.7737,15,0.00468145,10,0.000808257,-1.4004,1.04625,0.0563921,-87.483,-0.0203214,
2,0,0,1,0,28779.4,-0.0223597,-0.0226957,-39.5625,15,0.00452279,10,0.000897896,-1.40272,0.993359,0.0593944,-91.6305,-0.02269567,
2,0,0,1,0,28779.4,-0.0247568,-0.0251176,-39.3311,15,0.00436502,10,0.000987904,-1.40526,0.951111,0.0620327,-95.1806,-0.0251176,
2,0,0,1,0,28779.4,-0.0271539,-0.027529,-39.0886,15,0.0042082,10,0.00107607,-1.40795,0.919524,0.0641636,-97.8833,-0.027529,
2,0,0,1,0,28779.4,-0.0295593,-0.0299117,-38.8608,15,0.00405234,10,0.0011624,-1.41049,0.895714,0.0658692,-99.8708,-0.02991174,
2,0,0,1,0,28779.4,-0.0319564,-0.0323284,-38.6196,15,0.0038974,10,0.00124851,-1.41319,0.893484,0.0660336,-99.4995,-0.0323284,
2,0,0,1,0,28779.4,-0.0343535,-0.0347101,-38.3731,15,0.00374344,10,0.00133193,-1.41597,0.88067,0.0669945,-100.338,-0.0347101,
2,0,0,1,0,28779.4,-0.0367506,-0.0371246,-38.1339,15,0.00359045,10,0.00141571,-1.41869,0.878653,0.0671482,-99.9408,-0.0371246,
2,0,0,1,0,28779.4,-0.0391588,-0.0395307,-37.8957,15,0.00343841,10,0.00149804,-1.42141,0.895382,0.0658937,-97.4688,-0.0395307,
2,0,0,1,0,28779.4,-0.0415559,-0.0419484,-37.6581,15,0.00328734,10,0.0015797,-1.42414,0.903796,0.0652802,-95.9767,-0.0419484,
2,0,0,1,0,28779.4,-0.043953,-0.0443439,-37.4341,15,0.00313719,10,0.00165997,-1.42673,0.92288,0.0639303,-93.4269,-0.0443439,
2,0,0,1,0,28779.4,-0.0463585,-0.0467075,-37.2142,15,0.00298791,10,0.00173818,-1.42929,0.952592,0.0619363,-89.98,-0.0467075,
2,0,0,1,0,28779.4,-0.0487556,-0.0491263,-36.9992,15,0.0028395,10,0.00181763,-1.43181,0.974012,0.0605742,-87.5063,-0.0491263,
2,0,0,1,0,28779.4,-0.0511527,-0.0515334,-36.7957,15,0.00269192,10,0.00189621,-1.4342,1.06189,0.0555613,-79.8576,-0.0515334,
2,0,0,1,0,28779.4,-0.0535498,-0.0538663,-36.6008,15,0.00254515,10,0.00197155,-1.43651,1.12292,0.0525414,-75.1254,-0.0538663,
2,0,0,1,0,28779.4,-0.055958,-0.0563403,-36.4449,15,0.00239906,10,0.00205332,-1.43836,1.17559,0.0501877,-71.4021,-0.0563403,
2,0,0,1,0,28779.4,-0.0583551,-0.0587336,-36.2775,15,0.00225365,10,0.00213071,-1.44036,1.33349,0.0442449,-62.6751,-0.0587336,
2,0,0,1,0,28779.4,-0.0607522,-0.0610622,-36.1153,15,0.00210889,10,0.00220528,-1.44231,1.34785,0.0437735,-61.7536,-0.06106225,
2,0,0,1,0,28779.5,-0.0631604,-0.0635425,-35.9943,15,0.00196468,10,0.00228717,-1.44377,1.51333,0.0389868,-54.797,-0.0635425,
2,0,0,1,0,28779.5,-0.0655575,-0.065921,-35.8533,15,0.001821,10,0.00236348,-1.44547,1.78339,0.033083,-46.3392,-0.065921,
2,0,0,1,0,28779.5,-0.0679546,-0.0683133,-35.7525,15,0.00167781,10,0.00244237,-1.44669,1.82991,0.032242,-45.0202,-0.0683133,
2,0,0,1,0,28779.5,-0.0703573,-0.0707448,-35.6666,15,0.00153501,10,0.00252323,-1.44774,2.20014,0.0268165,-37.3345,-0.0707448,
2,0,0,1,0,28779.5,-0.0727571,-0.0731148,-35.5634,15,0.00139257,10,0.00260021,-1.449,2.43144,0.0242655,-33.704,-0.0731148,
2,0,0,1,0,28779.5,-0.0751542,-0.0755379,-35.4942,15,0.00125047,10,0.00268116,-1.44984,2.85466,0.020668,-28.6579,-0.07553786,
2,0,0,1,0,28779.5,-0.0775514,-0.0779386,-35.4281,15,0.00110864,10,0.00276122,-1.45065,3.73608,0.0157919,-21.8533,-0.0779386,
2,0,0,1,0,28779.5,-0.0799595,-0.0803351,-35.3918,15,0.00096701,10,0.0028432,-1.4511,4.55963,0.0129396,-17.881,-0.08033514,
2,0,0,1,0,28779.5,-0.0823567,-0.0827306,-35.3533,15,0.000825521,10,0.0029248,-1.45157,7.06678,0.00834892,-11.5256,-0.0827306,
2,0,0,1,0,28779.5,-0.0847538,-0.0851261,-35.3228,15,0.000684169,10,0.00300689,-1.45195,10.3097,0.00572277,-7.896,-0.0851261,
2,0,0,1,0,28779.5,-0.0871592,-0.0875194,-35.3177,15,0.000542909,10,0.00309098,-1.45201,22.2083,0.00265667,-3.66366,-0.0875194,
2,0,0,1,0,28779.5,-0.0895563,-0.0899297,-35.316,15,0.000401643,10,0.00317596,-1.45203,-32.8774,-0.00179455,2.47468,-0.0899297,
2,0,0,1,0,28779.5,-0.0919534,-0.0923177,-35.3181,15,0.000260379,10,0.00326049,-1.452,-13.6034,-0.00433716,5.98294,-0.0923177,
2,0,0,1,0,28779.5,-0.0943505,-0.0947355,-35.3465,15,0.000119053,10,0.00334857,-1.45165,-8.09185,-0.00729129,10.0631,-0.0947355,
2,0,0,1,0,28779.5,-0.0967587,-0.0971288,-35.3752,15,-2.23921e-05,10,0.00343595,-1.4513,-5.95164,-0.00991324,13.6848,-0.0971288,
2,0,0,1,0,28779.5,-0.0991558,-0.0994946,-35.4123,15,-0.00016396,10,0.00352333,-1.45085,4.58409,0.0128706,-17.7296,-0.0994946,
2,0,0,1,0,28779.5,-0.0999548,-0.10019,-35.4259,15,-0.00021,10,0.00354932,-1.45068,0.0232101,2.542,-3295.1,-0.10019,
2,0,0,1,1,28779.5,-0.0999548,-0.100324,-35.2475,15,-0.000231174,10,0.00353616,-1.45287,-0.0310127,-1.90245,2318.05,-0.1003238,
2,0,0,1,1,28779.5,-0.0979573,-0.098413,-31.1438,15,-0.000332447,10,0.00306495,-1.50663,-0.0396049,-1.48971,1711.4,-0.098413,
2,0,0,1,1,28779.5,-0.0955546,-0.0960271,-27.3743,15,-0.000448906,10,0.00262868,-1.56266,-0.0418087,-1.41119,1525.97,-0.0960271,
2,0,0,1,1,28779.5,-0.0931519,-0.0936093,-24.1634,15,-0.000551533,10,0.00226192,-1.61684,-0.043858,-1.34525,1283.04,-0.0936093,
2,0,0,1,1,28779.5,-0.0907548,-0.0912022,-21.3282,15,-0.000642155,10,0.00194518,-1.67105,-0.0434193,-1.35884,1136.27,-0.0912022,
2,0,0,1,1,28779.5,-0.0883577,-0.0887707,-18.7724,15,-0.000722046,10,0.00166644,-1.72648,-0.0420206,-1.40407,1028.4,-0.0887707,
2,0,0,1,1,28779.5,-0.0859523,-0.0863774,-16.4097,15,-0.000792117,10,0.00141742,-1.7849,-0.0397668,-1.48365,946.877,-0.0863774,
2,0,0,1,1,28779.5,-0.0835552,-0.0839617,-14.2418,15,-0.000853146,10,0.00119577,-1.84643,-0.0370445,-1.59268,877.52,-0.08396174,
2,0,0,1,1,28779.5,-0.0811581,-0.0815822,-12.2192,15,-0.000905823,10,0.000996869,-1.91296,-0.0338243,-1.74431,819.359,-0.0815822,
2,0,0,1,1,28779.5,-0.0787555,-0.079121,-10.3046,15,-0.000950633,10,0.000815307,-1.98697,-0.0302477,-1.95056,768.108,-0.079121,
2,0,0,1,1,28779.6,-0.0763528,-0.0767467,-8.51872,15,-0.000988068,10,0.000653784,-2.06963,-0.0262416,-2.24834,724.025,-0.0767467,
2,0,0,1,1,28779.6,-0.0739557,-0.0743205,-6.83635,15,-0.00101858,10,0.000508081,-2.16518,-0.0217536,-2.7122,686.382,-0.0743205,
2,0,0,1,1,28779.6,-0.0715586,-0.0719601,-5.25252,15,-0.00104259,10,0.000377972,-2.27963,-0.0169302,-3.48489,647.928,-0.0719601,
2,0,0,1,1,28779.6,-0.0691532,-0.069572,-3.75032,15,-0.00106042,10,0.000260918,-2.42593,-0.0112802,-5.2304,614.493,-0.069572,
2,0,0,1,1,28779.6,-0.066756,-0.0671766,-2.31794,15,-0.00107239,10,0.000155712,-2.6349,-0.00790062,-7.46777,580.118,-0.0671766,
2,0,0,1,1,28779.6,-0.0643589,-0.0647832,-0.97574,15,-0.00107881,10,6.32116e-05,-3.01067,-0.0248764,-2.37172,554.094,-0.0647832,
2,1,0,1,1,28779.6,-0.0619563,-0.0623549,0.31961,15,-0.00107997,10,-1.99292e-05,-3.49538,0.141768,0.416172,524.396,-0.0623549,
2,1,0,1,1,28779.6,-0.0595536,-0.0600103,1.54775,15,-0.0010761,10,-9.28811e-05,-2.8103,0.0161647,3.64993,500.574,-0.0600103,
2,1,0,1,1,28779.6,-0.0571565,-0.0575915,2.7084,15,-0.00106746,10,-0.000155981,-2.56729,0.00809254,7.29067,476.72,-0.0575915,
2,1,0,1,1,28779.6,-0.0547594,-0.0551929,3.82492,15,-0.00105427,10,-0.000211109,-2.41738,0.0165587,3.56309,451.87,-0.0551929,
2,1,0,1,1,28779.6,-0.0523512,-0.0527678,4.88999,15,-0.00103671,10,-0.000258034,-2.31069,0.0238185,2.47707,431.836,-0.05276775,
2,1,0,1,1,28779.6,-0.0499541,-0.0503977,5.89139,15,-0.00101504,10,-0.000296913,-2.22978,0.0309249,1.90785,415.257,-0.0503977,
2,1,0,1,1,28779.6,-0.047557,-0.047979,6.85947,15,-0.000989427,10,-0.00032911,-2.16371,0.0382276,1.54339,398.397,-0.047979,
2,1,0,1,1,28779.6,-0.0451544,-0.045628,7.7968,15,-0.000960001,10,-0.000355753,-2.10808,0.0458292,1.28739,380.575,-0.045628,
2,1,0,1,1,28779.6,-0.0427545,-0.0431976,8.70272,15,-0.000926897,10,-0.000375936,-2.06034,0.0533941,1.10499,366.067,-0.04319758,
2,1,0,1,1,28779.6,-0.0403574,-0.0407798,9.55172,15,-0.000890286,10,-0.000389518,-2.01992,0.0621879,0.948738,347.114,-0.0407798,
2,1,0,1,1,28779.6,-0.0379603,-0.0384236,10.3574,15,-0.000850369,10,-0.000397967,-1.98475,0.0709228,0.83189,331.552,-0.0384236,
2,1,0,1,1,28779.6,-0.0355521,-0.0359603,11.1526,15,-0.000807262,10,-0.000401051,-1.95262,0.0794332,0.742762,319.136,-0.0359603,
2,1,0,1,1,28779.6,-0.033155,-0.0335935,11.887,15,-0.000761099,10,-0.000399325,-1.92493,0.0889032,0.663643,304.775,-0.0335935,
2,1,0,1,1,28779.6,-0.0307579,-0.0312023,12.6083,15,-0.000712031,10,-0.000393407,-1.89934,0.0994258,0.593407,289.347,-0.0312023,
2,1,0,1,1,28779.6,-0.0283524,-0.0287686,13.3,15,-0.000660158,10,-0.000382621,-1.87615,0.109105,0.540763,278.137,-0.02876862,
2,1,0,1,1,28779.6,-0.0259553,-0.0263307,13.9389,15,-0.00060558,10,-0.000367021,-1.85577,0.120166,0.490988,265.272,-0.0263307,
2,1,0,1,1,28779.6,-0.0235582,-0.0239766,14.5618,15,-0.000548506,10,-0.000349142,-1.83679,0.13204,0.446833,252.521,-0.0239766,
2,1,0,1,1,28779.6,-0.0211611,-0.0215918,15.1577,15,-0.000488995,10,-0.000327281,-1.81937,0.142765,0.413267,243.145,-0.0215918,
2,1,0,1,1,28779.6,-0.0187529,-0.0191486,15.7292,15,-0.000427157,10,-0.000301193,-1.80329,0.15634,0.377383,230.41,-0.0191486,
2,1,0,1,1,28779.7,-0.0163558,-0.0167341,16.2723,15,-0.000363102,10,-0.000272301,-1.78855,0.16977,0.347528,219.623,-0.0167341,
2,1,0,1,1,28779.7,-0.0139587,-0.0143534,16.7791,15,-0.00029693,10,-0.000240837,-1.77523,0.183489,0.321545,209.775,-0.0143534,
2,1,0,1,1,28779.7,-0.0115505,-0.0119548,17.2742,15,-0.000228763,10,-0.000206509,-1.7626,0.198056,0.297895,200.128,-0.0119548,
2,1,0,1,1,28779.7,-0.0091534,-0.00954132,17.7446,15,-0.00015866,10,-0.000169307,-1.75093,0.211953,0.278363,192.128,-0.00954132,
2,1,0,1,1,28779.7,-0.00675629,-0.0071448,18.1914,15,-8.67267e-05,10,-0.000129974,-1.74013,0.22686,0.260073,184.134,-0.0071448,
2,1,0,1,1,28779.7,-0.00435919,-0.00475146,18.6239,15,-1.3041e-05,10,-8.84906e-05,-1.72993,0.252954,0.233244,168.405,-0.00475146,
2,1,0,1,1,28779.7,-0.00195376,-0.00237827,19.0375,15,6.23555e-05,10,-4.52764e-05,-1.72039, , , ,-0.00237827,
2,1,0,0,1,28779.7,-7.54729e-05,-0.000439847,19.2773,15,0.00012181,10,-8.47908e-06,-1.71495, , , ,-0.000439847,