File: Figure_codes/Fig_3-5/rawdata_trumpetplot_data/after 10th/20221101_1-115_003_TrumpetPlot_ParaChange_from10_every3_04_CV_C01_26.csv
mode,ox/red,error,control changes,counter inc.,time/s,control/V,Ewe/V,<I>/mA,cycle number,(Q-Qo)/C,I Range,P/W,log(|I|),Tafel slope mV/dec,alpha_eff,dI/d(E-IR),E-IR/V,
2,0,0,1,0,52283.4,2.44065e-05,-0.000382585,-0.401509,27,0.0000000E+000,10,1.53612e-07,-3.3963, , , ,-0.000382585,
2,1,0,1,0,52283.5,0.00129787,0.00093656,0.0971634,27,-6.62853e-06,10,9.09993e-08,-4.0125, , , ,0.00093656,
2,1,0,1,0,52283.7,0.00279606,0.00249642,0.244517,27,2.3227e-05,10,6.10416e-07,-3.61169,0.00226577,26.0397,77.082,0.00249642,
2,1,0,1,0,52283.8,0.00429425,0.00397568,0.290028,27,6.58002e-05,10,1.15306e-06,-3.53756,0.0223072,2.64488,27.5937,0.00397568,
2,1,0,1,0,52284,0.00579244,0.00544965,0.319825,27,0.000113935,10,1.74293e-06,-3.49509,0.0400508,1.47313,18.0007,0.00544965,
2,1,0,1,0,52284.1,0.00729063,0.00692998,0.343844,27,0.000165888,10,2.38283e-06,-3.46364,0.0549701,1.07331,14.206,0.00692998,
2,1,0,1,0,52284.3,0.00878882,0.00840818,0.364791,27,0.000221086,10,3.06723e-06,-3.43796,0.0726291,0.812347,11.41,0.00840818,
2,1,0,1,0,52284.4,0.010287,0.00997971,0.37892,27,0.000278872,10,3.78151e-06,-3.42145,0.0916296,0.643897,9.44249,0.00997971,
2,1,0,1,0,52284.6,0.0117852,0.0114484,0.392585,27,0.000338896,10,4.49446e-06,-3.40607,0.104463,0.564795,8.6426,0.0114484,
2,1,0,1,0,52284.7,0.0132838,0.0129545,0.404187,27,0.000400761,10,5.23606e-06,-3.39342,0.108636,0.543098,8.58787,0.0129545,
2,1,0,1,0,52284.9,0.0147814,0.0144601,0.416861,27,0.000464551,10,6.02785e-06,-3.38001,0.114496,0.5153,8.38337,0.0144601,
2,1,0,1,0,52285,0.0162789,0.0159562,0.427996,27,0.000530209,10,6.8292e-06,-3.36856,0.13718,0.430093,7.16222,0.0159562,
2,1,0,1,0,52285.2,0.017778,0.0174375,0.440232,27,0.000597552,10,7.67656e-06,-3.35632,0.14951,0.394621,6.76908,0.0174375,
2,1,0,1,0,52285.3,0.0192761,0.0189189,0.448035,27,0.000666179,10,8.47634e-06,-3.34869,0.155167,0.380235,6.66602,0.0189189,
2,1,0,1,0,52285.5,0.0207743,0.0204523,0.461168,27,0.000736411,10,9.43193e-06,-3.33614,0.152013,0.388126,6.94977,0.02045228,
2,1,0,1,0,52285.6,0.0222725,0.021975,0.469881,27,0.000808289,10,1.03256e-05,-3.32801,0.154748,0.381264,6.97306,0.021975,
2,1,0,1,0,52285.8,0.0237707,0.0234511,0.480069,27,0.000881671,10,1.12582e-05,-3.3187,0.178947,0.329707,6.18331,0.0234511,
2,1,0,1,0,52285.9,0.0252689,0.0249664,0.488773,27,0.000956395,10,1.22029e-05,-3.31089,0.174244,0.338605,6.48133,0.02496643,
2,1,0,1,0,52286.1,0.0267671,0.0264457,0.501338,27,0.00103269,10,1.32582e-05,-3.29987,0.162186,0.36378,7.09501,0.0264457,
2,1,0,1,0,52286.2,0.0282662,0.0279215,0.511926,27,0.00111062,10,1.42937e-05,-3.29079,0.153187,0.385151,7.66989,0.0279215,
2,1,0,1,0,52286.4,0.0297635,0.0294519,0.520413,27,0.00119001,10,1.53271e-05,-3.28365,0.186837,0.315783,6.40863,0.0294519,
2,1,0,1,0,52286.5,0.031261,0.0309455,0.529016,27,0.0012709,10,1.63707e-05,-3.27653,0.180606,0.326678,6.75766,0.0309455,
2,1,0,1,0,52286.7,0.0327599,0.0324444,0.539883,27,0.00135308,10,1.75162e-05,-3.2677,0.176975,0.333381,7.03921,0.0324444,
2,1,0,1,0,52286.8,0.034258,0.0339332,0.549827,27,0.00143689,10,1.86574e-05,-3.25977,0.180347,0.327147,7.02591,0.0339332,
2,1,0,1,0,52287,0.0357562,0.0354369,0.560356,27,0.0015222,10,1.98573e-05,-3.25154,0.211188,0.279373,6.09821,0.0354369,
2,1,0,1,0,52287.1,0.0372544,0.0368918,0.568198,27,0.00160898,10,2.09618e-05,-3.2455,0.214626,0.274897,6.11201,0.0368918,
2,1,0,1,0,52287.3,0.0387526,0.0384347,0.579561,27,0.00169701,10,2.22752e-05,-3.2369,0.190983,0.308928,7.00395,0.0384347,
2,1,0,1,0,52287.4,0.0402508,0.0398779,0.589811,27,0.00178668,10,2.35204e-05,-3.22929,0.197675,0.29847,6.86035,0.0398779,
2,1,0,1,0,52287.6,0.041749,0.0414006,0.601819,27,0.00187808,10,2.49157e-05,-3.22053,0.214791,0.274685,6.42671,0.0414006,
2,1,0,1,0,52287.7,0.0432472,0.0429043,0.610358,27,0.00197087,10,2.6187e-05,-3.21442,0.218005,0.270636,6.43879,0.0429043,
2,1,0,1,0,52287.9,0.0447458,0.0444199,0.618623,27,0.0020649,10,2.74792e-05,-3.20857,0.228124,0.258632,6.2444,0.0444199,
2,1,0,1,0,52288,0.0462433,0.0459161,0.627881,27,0.0021605,10,2.88299e-05,-3.20212,0.203464,0.289978,7.09926,0.0459161,
2,1,0,1,0,52288.2,0.0477409,0.047388,0.637725,27,0.00225751,10,3.02205e-05,-3.19537,0.226678,0.260281,6.47594,0.047388,
2,1,0,1,0,52288.3,0.0492399,0.0489306,0.646742,27,0.00235609,10,3.16454e-05,-3.18927,0.245518,0.240309,6.06409,0.0489306,
2,1,0,1,0,52288.5,0.0507381,0.0504162,0.652931,27,0.00245575,10,3.29183e-05,-3.18513,0.2488,0.237138,6.07406,0.0504162,
2,1,0,1,0,52288.6,0.0522363,0.0519273,0.663859,27,0.00255671,10,3.44724e-05,-3.17792,0.235508,0.250522,6.48939,0.0519273,
2,1,0,1,0,52288.8,0.0537345,0.0534023,0.674928,27,0.0026592,10,3.60427e-05,-3.17074,0.27814,0.212123,5.57133,0.0534023,
2,1,0,1,0,52288.9,0.0552327,0.0548879,0.682021,27,0.0027629,10,3.74347e-05,-3.1662,0.319172,0.184854,4.90963,0.0548879,
2,1,0,1,0,52289.1,0.0567309,0.0563672,0.68779,27,0.00286776,10,3.87688e-05,-3.16254,0.309762,0.190469,5.13164,0.0563672,
2,1,0,1,0,52289.2,0.0582291,0.057873,0.697554,27,0.0029737,10,4.03695e-05,-3.15642,0.302363,0.195129,5.31422,0.05787297,
2,1,0,1,0,52289.4,0.0597282,0.0594147,0.705992,27,0.00308111,10,4.19463e-05,-3.1512,0.305248,0.193285,5.32193,0.0594147,
2,1,0,1,0,52289.5,0.0612255,0.0608945,0.711991,27,0.00318956,10,4.33563e-05,-3.14753,0.384659,0.153382,4.26116,0.0608945,
2,1,0,1,0,52289.7,0.062723,0.0624383,0.719601,27,0.00329902,10,4.49307e-05,-3.14291,0.355257,0.166077,4.66581,0.0624383,
2,1,0,1,0,52289.8,0.0642218,0.0638547,0.726449,27,0.00340956,10,4.63872e-05,-3.13879,0.321219,0.183675,5.22245,0.0638547,
2,1,0,1,0,52290,0.06572,0.0653976,0.735127,27,0.00352126,10,4.80755e-05,-3.13364,0.326435,0.180741,5.18133,0.0653976,
2,1,0,1,0,52290.1,0.0672182,0.0668875,0.742744,27,0.00363432,10,4.96803e-05,-3.12916,0.386878,0.152503,4.40733,0.0668875,
2,1,0,1,0,52290.3,0.0687164,0.0683943,0.748269,27,0.00374829,10,5.11773e-05,-3.12594,0.476429,0.123838,3.61572,0.0683943,
2,1,0,1,0,52290.4,0.0702146,0.0698852,0.75396,27,0.003863,10,5.26907e-05,-3.12265,0.444249,0.132808,3.91442,0.0698852,
2,1,0,1,0,52290.6,0.0717128,0.0713624,0.759708,27,0.0039786,10,5.42146e-05,-3.11935,0.390552,0.151068,4.48301,0.0713624,
2,1,0,1,0,52290.7,0.073211,0.0728735,0.765715,27,0.00409528,10,5.58003e-05,-3.11593,0.416652,0.141605,4.23449,0.0728735,
2,1,0,1,0,52290.9,0.0747092,0.0744153,0.774,27,0.00421286,10,5.75974e-05,-3.11126,0.467146,0.126299,3.8062,0.0744153,
2,1,0,1,0,52291,0.0762078,0.0758833,0.776138,27,0.00433128,10,5.88959e-05,-3.11006,0.470564,0.125382,3.80793,0.0758833,
2,1,0,1,0,52291.2,0.0777053,0.0773853,0.78366,27,0.00445032,10,6.06438e-05,-3.10587,0.441364,0.133676,4.08629,0.0773853,
2,1,0,1,0,52291.3,0.0792029,0.0788778,0.78963,27,0.00457028,10,6.22843e-05,-3.10258,0.46301,0.127427,3.91738,0.0788778,
2,1,0,1,0,52291.5,0.0807019,0.0803727,0.793612,27,0.00469125,10,6.37847e-05,-3.10039,0.540967,0.109064,3.37395,0.0803727,
2,1,0,1,0,52291.6,0.0822001,0.081888,0.79734,27,0.0048128,10,6.52926e-05,-3.09836,0.602817,0.0978738,3.05654,0.081888,
2,1,0,1,0,52291.8,0.0836983,0.0834012,0.803992,27,0.00493488,10,6.70539e-05,-3.09475,0.5302,0.111279,3.49976,0.0834012,
2,1,0,1,0,52291.9,0.0851965,0.0848274,0.811825,27,0.00505805,10,6.8865e-05,-3.09054,0.435642,0.135432,4.28273,0.0848274,
2,1,0,1,0,52292.1,0.0866947,0.0863608,0.81709,27,0.0051822,10,7.05645e-05,-3.08773,0.540553,0.109148,3.474,0.0863608,
2,1,0,1,0,52292.2,0.0881929,0.08784,0.82393,27,0.00530728,10,7.2374e-05,-3.08411,0.466361,0.126512,4.07007,0.08784,
2,1,0,1,0,52292.4,0.0896911,0.089331,0.832292,27,0.00543314,10,7.43495e-05,-3.07972,0.337854,0.174632,5.67059,0.089331,
2,1,0,1,0,52292.5,0.0911902,0.0908586,0.840027,27,0.00556049,10,7.63237e-05,-3.07571,0.285156,0.206904,6.78075,0.0908586,
2,1,0,1,0,52292.7,0.0926875,0.092319,0.850045,27,0.0056893,10,7.84753e-05,-3.07056,0.288501,0.204505,6.7826,0.092319,
2,1,0,1,0,52292.8,0.094185,0.0938371,0.86099,27,0.00581965,10,8.07928e-05,-3.065,0.255281,0.231118,7.7728,0.0938371,
2,1,0,1,0,52293,0.0956838,0.0953499,0.869412,27,0.00595151,10,8.28983e-05,-3.06077,0.247336,0.238542,8.12469,0.0953499,
2,1,0,1,0,52293.1,0.097182,0.0968556,0.884191,27,0.00608527,10,8.56389e-05,-3.05345,0.218774,0.269684,9.30186,0.0968556,
2,1,0,1,0,52293.3,0.0986802,0.0983275,0.897545,27,0.00622102,10,8.82533e-05,-3.04694,0.218519,0.27,9.468,0.0983275,
2,1,0,1,0,52293.4,0.100178,0.0998375,0.913805,27,0.00635885,10,9.1232e-05,-3.03915,0.223036,0.264531,9.42424,0.0998375,
2,1,0,1,0,52293.6,0.101677,0.101289,0.924941,27,0.00649878,10,9.36865e-05,-3.03389,0.207808,0.283916,10.2805,0.101289,
2,1,0,1,0,52293.7,0.103175,0.102855,0.943215,27,0.00664095,10,9.70148e-05,-3.02539,0.203708,0.289631,10.6701,0.102855,
2,1,0,1,0,52293.9,0.104673,0.10433,0.961183,27,0.00678567,10,0.000100281,-3.01719,0.204276,0.288825,10.8101,0.10433,
2,1,0,1,0,52294,0.106171,0.105855,0.975747,27,0.00693298,10,0.000103288,-3.01066,0.211571,0.278866,10.6048,0.105855,
2,1,0,1,0,52294.2,0.10767,0.107308,0.991004,27,0.00708257,10,0.000106343,-3.00392,0.212251,0.277973,10.759,0.107308,
2,1,0,1,0,52294.3,0.109167,0.108873,1.00677,27,0.00723438,10,0.00010961,-2.99707,0.214549,0.274996,10.812,0.108873,
2,1,0,1,0,52294.5,0.110665,0.110312,1.02218,27,0.00738858,10,0.000112759,-2.99047,0.22117,0.266763,10.6411,0.110312,
2,1,0,1,0,52294.6,0.112164,0.111836,1.03624,27,0.00754515,10,0.000115889,-2.98454,0.268954,0.219368,8.86168,0.111836,
2,1,0,1,0,52294.8,0.113662,0.113335,1.04838,27,0.00770368,10,0.000118818,-2.97948,0.317303,0.185942,7.60197,0.1133354,
2,1,0,1,0,52294.9,0.11516,0.114831,1.05941,27,0.00786371,10,0.000121653,-2.97494,0.338149,0.174479,7.21666,0.114831,
2,1,0,1,0,52295.1,0.116658,0.116302,1.07057,27,0.00802546,10,0.00012451,-2.97039,0.346774,0.17014,7.09649,0.116302,
2,1,0,1,0,52295.2,0.118157,0.117806,1.08281,27,0.00818894,10,0.000127562,-2.96545,0.387485,0.152264,6.4163,0.117806,
2,1,0,1,0,52295.4,0.119655,0.119293,1.08966,27,0.00835368,10,0.000129988,-2.96271,0.526195,0.112126,4.76246,0.119293,
2,1,0,1,0,52295.5,0.121153,0.120839,1.09464,27,0.00851947,10,0.000132275,-2.96073,0.582926,0.101214,4.32831,0.120839,
2,1,0,1,0,52295.7,0.122652,0.122308,1.10152,27,0.00868625,10,0.000134725,-2.95801,0.583111,0.101181,4.34848,0.122308,
2,1,0,1,0,52295.8,0.124149,0.12381,1.1094,27,0.00885409,10,0.000137354,-2.95491,0.552374,0.106812,4.61988,0.12381,
2,1,0,1,0,52296,0.125647,0.125342,1.11194,27,0.00902283,10,0.000139372,-2.95392,0.827336,0.0713132,3.09447,0.125342,
2,1,0,1,0,52296.1,0.127146,0.126792,1.11497,27,0.00919238,10,0.00014137,-2.95274,1.0118,0.0583117,2.54436,0.126792,
2,1,0,1,0,52296.3,0.128644,0.128282,1.12265,27,0.00936221,10,0.000144015,-2.94976,1.14551,0.0515053,2.25291,0.128282,
2,1,0,1,0,52296.4,0.130142,0.129809,1.12696,27,0.00953281,10,0.000146289,-2.94809,1.55476,0.037948,1.66336,0.129809,
2,1,0,1,0,52296.6,0.13164,0.131309,1.12671,27,0.00970383,10,0.000147948,-2.94819,-3.59136,-0.0164283,-0.720067,0.131309,
2,1,0,1,0,52296.7,0.133139,0.132761,1.12447,27,0.00987489,10,0.000149285,-2.94905,-1.26598,-0.0466043,-2.04291,0.132761,
2,1,0,1,0,52296.9,0.134637,0.134293,1.12043,27,0.0100452,10,0.000150467,-2.95061,-0.586179,-0.100652,-4.39537,0.134293,
2,1,0,1,0,52297,0.136135,0.135833,1.11398,27,0.0102149,10,0.000151315,-2.95312,-0.434975,-0.13564,-5.87586,0.135833,
2,1,0,1,0,52297.2,0.137633,0.137321,1.10266,27,0.0103831,10,0.000151418,-2.95756,-0.250208,-0.235804,-10.0879,0.137321,
2,1,0,1,0,52297.3,0.139132,0.138851,1.08665,27,0.0105494,10,0.000150883,-2.96391,-0.191344,-0.308345,-12.9958,0.138851,
2,1,0,1,0,52297.5,0.140629,0.140307,1.06152,27,0.0107122,10,0.000148939,-2.97407,-0.147683,-0.399505,-16.5063,0.1403067,
2,1,0,1,0,52297.6,0.142127,0.141805,1.03359,27,0.0108715,10,0.000146569,-2.98565,-0.128083,-0.460639,-18.5025,0.141805,
2,1,0,1,0,52297.8,0.143626,0.143289,1.00191,27,0.0110266,10,0.000143562,-2.99917,-0.101807,-0.579531,-22.5899,0.1432887,
2,1,0,1,0,52297.9,0.145124,0.144833,0.96749,27,0.0111763,10,0.000140124,-3.01435,-0.086226,-0.684248,-25.7583,0.144833,
2,1,0,1,0,52298.1,0.146622,0.146281,0.924532,27,0.0113203,10,0.000135242,-3.03408,-0.0797982,-0.739365,-26.6807,0.146281,
2,1,0,1,0,52298.2,0.14812,0.14781,0.886968,27,0.0114582,10,0.000131103,-3.05209,-0.075991,-0.776408,-26.8674,0.14781,
2,1,0,1,0,52298.4,0.149619,0.14929,0.846459,27,0.0115902,10,0.000126367,-3.07239,-0.0749712,-0.786969,-25.9994,0.14929,
2,1,0,1,0,52298.5,0.151117,0.150785,0.810099,27,0.0117163,10,0.000122151,-3.09146,-0.0736105,-0.801516,-25.289,0.150785,
2,1,0,1,0,52298.7,0.152615,0.152269,0.769028,27,0.0118367,10,0.000117099,-3.11406,-0.0779789,-0.756615,-22.8445,0.152269,
2,1,0,1,0,52298.8,0.154114,0.153709,0.739722,27,0.0119519,10,0.000113702,-3.13093,-0.0852044,-0.692453,-20.0872,0.153709,
2,1,0,1,0,52299,0.155612,0.155281,0.711334,27,0.0120626,10,0.000110457,-3.14793,-0.0964991,-0.611405,-17.0334,0.155281,
2,1,0,1,0,52299.1,0.157109,0.156779,0.687339,27,0.0121694,10,0.000107761,-3.16283,-0.099802,-0.591171,-15.9027,0.156779,
2,1,0,1,0,52299.3,0.158608,0.158262,0.664878,27,0.0122729,10,0.000105225,-3.17726,-0.121325,-0.486296,-12.6705,0.158262,
2,1,0,1,0,52299.4,0.160106,0.159739,0.647531,27,0.0123732,10,0.000103436,-3.18874,-0.134166,-0.439755,-11.1566,0.159739,
2,1,0,1,0,52299.6,0.161604,0.16129,0.631171,27,0.0124711,10,0.000101802,-3.19985,-0.156126,-0.377901,-9.33067,0.16129,
2,1,0,1,0,52299.7,0.163102,0.162759,0.619678,27,0.0125668,10,0.000100858,-3.20783,-0.165459,-0.356583,-8.63193,0.162759,
2,1,0,1,0,52299.9,0.164601,0.16427,0.608244,27,0.0126608,10,9.99162e-05,-3.21592,-0.204599,-0.288369,-6.83695,0.16427,
2,1,0,1,0,52300,0.166099,0.165767,0.597429,27,0.0127529,10,9.90341e-05,-3.22371,-0.209737,-0.281305,-6.57862,0.165767,
2,1,0,1,0,52300.2,0.167597,0.167226,0.590223,27,0.0128439,10,9.87009e-05,-3.22898,-0.29955,-0.196962,-4.52747,0.167226,
2,1,0,1,0,52300.3,0.169095,0.168775,0.582322,27,0.0129337,10,9.82812e-05,-3.23484,-0.280474,-0.210358,-4.78965,0.168775,
2,1,0,1,0,52300.5,0.170594,0.170317,0.574648,27,0.0130225,10,9.78721e-05,-3.2406,-0.275946,-0.21381,-4.80766,0.170317,
2,1,0,1,0,52300.6,0.172091,0.171747,0.568266,27,0.0131102,10,9.75977e-05,-3.24545,-0.357525,-0.165023,-3.67246,0.1717466,
2,1,0,1,0,52300.8,0.173589,0.173222,0.565147,27,0.0131971,10,9.78956e-05,-3.24784,-0.465751,-0.126677,-2.79253,0.173222,
2,1,0,1,0,52300.9,0.175088,0.174746,0.560672,27,0.0132834,10,9.79749e-05,-3.25129,-0.482488,-0.122283,-2.66918,0.174746,
2,1,0,1,0,52301.1,0.176586,0.1763,0.556072,27,0.0133691,10,9.80356e-05,-3.25487,-0.432943,-0.136276,-2.95348,0.1763,
2,1,0,1,0,52301.2,0.178084,0.177736,0.551308,27,0.013454,10,9.79872e-05,-3.25861,-0.520307,-0.113395,-2.45298,0.177736,
2,1,0,1,0,52301.4,0.179582,0.179234,0.548714,27,0.0135385,10,9.83483e-05,-3.26065,-0.795503,-0.0741669,-1.59077,0.179234,
2,1,0,1,0,52301.5,0.181081,0.18077,0.547433,27,0.0136226,10,9.89593e-05,-3.26167,-0.746651,-0.0790195,-1.68696,0.18077,
2,1,0,1,0,52301.7,0.182579,0.182253,0.543787,27,0.0137064,10,9.9107e-05,-3.26457,-0.531683,-0.110968,-2.35499,0.182253,
2,1,0,1,0,52301.8,0.184077,0.183752,0.541614,27,0.0137897,10,9.95225e-05,-3.26631,-0.785246,-0.0751357,-1.59258,0.183752,
2,1,0,1,0,52302,0.185576,0.185242,0.540163,27,0.0138726,10,0.000100061,-3.26748,-0.908513,-0.0649413,-1.36759,0.185242,
2,1,0,1,0,52302.1,0.187074,0.186744,0.539004,27,0.0139553,10,0.000100656,-3.26841,-1.49906,-0.0393579,-0.825487,0.186744,
2,1,0,1,0,52302.3,0.188571,0.188248,0.534942,27,0.0140377,10,0.000100702,-3.27169,-1.20357,-0.0490206,-1.02513,0.188248,
2,1,0,1,0,52302.4,0.19007,0.189738,0.533558,27,0.0141199,10,0.000101236,-3.27282,-1.22656,-0.0481019,-1.00255,0.189738,
2,1,0,1,0,52302.6,0.191568,0.191235,0.531732,27,0.0142017,10,0.000101686,-3.27431,-1.47039,-0.0401255,-0.834388,0.191235,
2,1,0,1,0,52302.7,0.193066,0.192707,0.531229,27,0.0142833,10,0.000102371,-3.27472,-3.19616,-0.0184596,-0.382301,0.192707,
2,1,0,1,0,52302.9,0.194564,0.194241,0.530239,27,0.0143649,10,0.000102994,-3.27553,-3.35103,-0.0176065,-0.364171,0.194241,
2,1,0,1,0,52303,0.196063,0.195763,0.527171,27,0.0144462,10,0.000103201,-3.27805,-0.698019,-0.084525,-1.74288,0.195763,
2,1,0,1,0,52303.2,0.197561,0.197201,0.52516,27,0.0145272,10,0.000103562,-3.27971,-1.10571,-0.0533595,-1.09779,0.197201,
2,1,0,1,0,52303.3,0.199059,0.198744,0.52634,27,0.014608,10,0.000104607,-3.27873,-0.909107,-0.0648989,-1.33112,0.198744,
2,1,0,1,0,52303.5,0.200557,0.200226,0.524833,27,0.0146887,10,0.000105085,-3.27998,-1.31497,-0.0448678,-0.918313,0.200226,
2,1,0,1,0,52303.6,0.202056,0.20173,0.5245,27,0.0147692,10,0.000105807,-3.28025,-1.20179,-0.0490935,-1.00189,0.20173,
2,1,0,1,0,52303.8,0.203553,0.203251,0.521002,27,0.0148495,10,0.000105894,-3.28316,-1.88328,-0.0313283,-0.639077,0.203251,
2,1,0,1,0,52303.9,0.205051,0.204715,0.520161,27,0.0149295,10,0.000106485,-3.28386,1.47409,0.0400248,0.817914,0.2047151,
2,1,0,1,0,52304.1,0.20655,0.206199,0.519677,27,0.0150096,10,0.000107157,-3.28427,-2.26236,-0.0260789,-0.529333,0.206199,
2,1,0,1,0,52304.2,0.208048,0.207726,0.519924,27,0.0150898,10,0.000108002,-3.28406,-1.15207,-0.051212,-1.03673,0.207726,
2,1,0,1,0,52304.4,0.209546,0.209228,0.517925,27,0.0151697,10,0.000108364,-3.28573,-0.78396,-0.075259,-1.52451,0.209228,
2,1,0,1,0,52304.5,0.211044,0.210709,0.517233,27,0.0152491,10,0.000108986,-3.28631,-1.47238,-0.0400711,-0.810156,0.210709,
2,1,0,1,0,52304.7,0.212543,0.212212,0.517907,27,0.0153286,10,0.000109906,-3.28575,-3.31387,-0.017804,-0.358578,0.212212,
2,1,0,1,0,52304.8,0.214041,0.213697,0.516173,27,0.015408,10,0.000110304,-3.2872,-1.30018,-0.0453784,-0.915526,0.213697,
2,1,0,1,0,52305,0.215539,0.215249,0.515501,27,0.0154873,10,0.000110961,-3.28777,-1.20324,-0.0490344,-0.989302,0.215249,
2,1,0,1,0,52305.1,0.217038,0.216684,0.513199,27,0.0155664,10,0.000111202,-3.28971,-2.24257,-0.0263091,-0.528855,0.216684,
2,1,0,1,0,52305.3,0.218535,0.218213,0.514529,27,0.0156454,10,0.000112277,-3.28859,3.587,0.0164483,0.329518,0.218213,
2,1,0,1,0,52305.4,0.220033,0.219728,0.514036,27,0.0157244,10,0.000112948,-3.28901,-15.2109,-0.00387881,-0.0777329,0.219728,
2,1,0,1,0,52305.6,0.221532,0.221205,0.512354,27,0.0158033,10,0.000113335,-3.29043,-1.48754,-0.0396628,-0.7926,0.221205,
2,1,0,1,0,52305.7,0.22303,0.222707,0.510852,27,0.015882,10,0.00011377,-3.2917,-2.53307,-0.0232919,-0.465178,0.222707,
2,1,0,1,0,52305.9,0.224528,0.224183,0.5114,27,0.0159605,10,0.000114647,-3.29124,-3.82362,-0.0154304,-0.307385,0.224183,
2,1,0,1,0,52306,0.226026,0.225716,0.510319,27,0.016039,10,0.000115187,-3.29216,7.33202,0.00804689,0.160086,0.225716,
2,1,0,1,0,52306.2,0.227524,0.227171,0.509801,27,0.0161175,10,0.000115812,-3.2926,-1.0954,-0.0538617,-1.07217,0.227171,
2,1,0,1,0,52306.3,0.229023,0.228686,0.509565,27,0.0161958,10,0.000116531,-3.2928,-1.35267,-0.0436174,-0.866765,0.228686,
2,1,0,1,0,52306.5,0.230521,0.230175,0.508093,27,0.016274,10,0.00011695,-3.29406,-5.06652,-0.0116451,-0.231537,0.2301752,
2,1,0,1,0,52306.6,0.232019,0.2317,0.507217,27,0.0163521,10,0.000117522,-3.29481,-4.08089,-0.0144576,-0.286246,0.2317,
2,1,0,1,0,52306.8,0.233518,0.233195,0.508103,27,0.0164303,10,0.000118487,-3.29405,-1.42255,-0.0414749,-0.82153,0.233195,
2,1,0,1,0,52306.9,0.235015,0.23467,0.506329,27,0.0165083,10,0.00011882,-3.29557,-1.28534,-0.0459021,-0.907339,0.23467,
2,1,0,1,0,52307.1,0.236513,0.236144,0.50657,27,0.0165861,10,0.000119624,-3.29536,-3.39426,-0.0173823,-0.343946,0.236144,
2,1,0,1,0,52307.2,0.238012,0.237704,0.505331,27,0.0166639,10,0.000120119,-3.29642,35.645,0.00165521,0.0325903,0.237704,
2,1,0,1,0,52307.4,0.23951,0.239157,0.503806,27,0.0167416,10,0.000120489,-3.29774,-3.32719,-0.0177327,-0.349455,0.239157,
2,1,0,1,0,52307.5,0.241008,0.240664,0.503034,27,0.0168191,10,0.000121062,-3.2984,-1.62356,-0.0363399,-0.714769,0.240664,
2,1,0,1,0,52307.7,0.242506,0.242229,0.502124,27,0.0168965,10,0.000121629,-3.29919,-7.09078,-0.00832066,-0.163473,0.242229,
2,1,0,1,0,52307.8,0.244005,0.243675,0.50117,27,0.0169739,10,0.000122123,-3.30001,4.80818,0.0122708,0.24059,0.243675,
2,1,0,1,0,52308,0.245503,0.24517,0.504589,27,0.0170513,10,0.00012371,-3.29706,-5.07954,-0.0116152,-0.228288,0.24517,
2,1,0,1,0,52308.1,0.247001,0.246696,0.502896,27,0.0171286,10,0.000124063,-3.29852,-1.69625,-0.0347827,-0.680758,0.246696,
2,1,0,1,0,52308.3,0.2485,0.248134,0.500684,27,0.0172058,10,0.000124237,-3.30044,-1.85858,-0.0317447,-0.62149,0.248134,
2,1,0,1,0,52308.4,0.249997,0.249686,0.500442,27,0.0172828,10,0.000124953,-3.30065,-6.70413,-0.00880055,-0.172159,0.249686,
2,1,0,1,0,52308.6,0.251495,0.251129,0.499951,27,0.0173597,10,0.000125552,-3.30107,3.02758,0.0194875,0.380826,0.251129,
2,1,0,1,0,52308.7,0.252994,0.252676,0.498982,27,0.0174367,10,0.000126081,-3.30191,-1.24408,-0.0474245,-0.922841,0.252676,
2,1,0,1,0,52308.9,0.254492,0.254178,0.49948,27,0.0175135,10,0.000126957,-3.30148,-2.3143,-0.0254936,-0.497404,0.254178,
2,1,0,1,0,52309,0.25599,0.255647,0.497339,27,0.01759,10,0.000127143,-3.30335,-2.52438,-0.023372,-0.45462,0.255647,
2,1,0,1,0,52309.2,0.257488,0.257157,0.497663,27,0.0176665,10,0.000127978,-3.30306,-3.9364,-0.0149883,-0.2909,0.257157,
2,1,0,1,0,52309.3,0.258987,0.258657,0.496306,27,0.0177431,10,0.000128373,-3.30425,-2.82389,-0.0208931,-0.404671,0.258657,
2,1,0,1,0,52309.5,0.260485,0.260154,0.49716,27,0.0178195,10,0.000129338,-3.3035,-1.04092,-0.0566806,-1.09937,0.260154,
2,1,0,1,0,52309.6,0.261983,0.261657,0.49574,27,0.0178956,10,0.000129714,-3.30475,-2.39776,-0.0246063,-0.476094,0.261657,
2,1,0,1,0,52309.8,0.263481,0.263145,0.494919,27,0.0179717,10,0.000130236,-3.30547,9.05862,0.00651313,0.125845,0.263145,
2,1,0,1,0,52309.9,0.26498,0.264649,0.494292,27,0.0180479,10,0.000130814,-3.30602,-16.9133,-0.00348838,-0.0673175,0.264649,
2,1,0,1,0,52310.1,0.266477,0.266158,0.49288,27,0.0181239,10,0.000131184,-3.30726,-2.55343,-0.0231062,-0.4453,0.266158,
2,1,0,1,0,52310.2,0.267976,0.267646,0.490269,27,0.0181997,10,0.000131219,-3.30957,-4.95236,-0.0119135,-0.229247,0.267646,
2,1,0,1,0,52310.4,0.269474,0.269147,0.492139,27,0.0182754,10,0.000132458,-3.30791,3.80592,0.0155022,0.297207,0.269147,
2,1,0,1,0,52310.5,0.270972,0.270621,0.493455,27,0.0183511,10,0.00013354,-3.30675,-2.30972,-0.0255442,-0.489875,0.270621,
2,1,0,1,0,52310.7,0.27247,0.272181,0.491412,27,0.0184267,10,0.000133753,-3.30855,-0.972338,-0.0606785,-1.16051,0.272181,
2,1,0,1,0,52310.8,0.273968,0.273621,0.487819,27,0.0185022,10,0.000133478,-3.31174,-1.47605,-0.0399716,-0.763926,0.273621,
2,1,0,1,0,52311,0.275467,0.275151,0.489162,27,0.0185773,10,0.000134594,-3.31055,-2.76858,-0.0213106,-0.406931,0.275151,
2,1,0,1,0,52311.1,0.276965,0.276619,0.487961,27,0.0186525,10,0.000134979,-3.31162,-18.1394,-0.00325258,-0.0620026,0.2766189,
2,1,0,1,0,52311.3,0.278463,0.278143,0.487263,27,0.0187275,10,0.000135529,-3.31224,-0.872822,-0.0675968,-1.28519,0.278143,
2,1,0,1,0,52311.4,0.279962,0.279652,0.487216,27,0.0188026,10,0.000136251,-3.31228,-2.07262,-0.0284664,-0.540807,0.279652,
2,1,0,1,0,52311.5,0.281459,0.281166,0.486998,27,0.0188773,10,0.000136927,-3.31247,-2.96781,-0.01988,-0.377322,0.281166,
2,1,0,1,0,52311.7,0.282957,0.282645,0.486374,27,0.018952,10,0.000137471,-3.31303,-5.3516,-0.0110247,-0.208495,0.282645,
2,1,0,1,0,52311.8,0.284456,0.284137,0.484383,27,0.0190267,10,0.000137631,-3.31481,-1.50309,-0.0392525,-0.742353,0.284137,
2,1,0,1,0,52312,0.285954,0.285627,0.483715,27,0.0191012,10,0.000138162,-3.31541,-1.16932,-0.0504568,-0.953771,0.285627,
2,1,0,1,0,52312.1,0.287452,0.287106,0.480741,27,0.0191754,10,0.000138024,-3.31809,-2.43011,-0.0242787,-0.457802,0.287106,
2,1,0,1,0,52312.3,0.28895,0.288614,0.482434,27,0.0192496,10,0.000139237,-3.31656,30.8794,0.00191066,0.0359444,0.288614,
2,1,0,1,0,52312.4,0.290449,0.290117,0.480205,27,0.0193237,10,0.000139315,-3.31857,-2.17319,-0.0271491,-0.509396,0.290117,
2,1,0,1,0,52312.6,0.291947,0.29161,0.480747,27,0.0193977,10,0.00014019,-3.31808,-1.23089,-0.0479326,-0.89941,0.29161,
2,1,0,1,0,52312.7,0.293445,0.293143,0.477828,27,0.0194714,10,0.000140072,-3.32073,-1.96019,-0.0300992,-0.563554,0.293143,
2,1,0,1,0,52312.9,0.294943,0.294561,0.479799,27,0.0195451,10,0.00014133,-3.31894,96.9364,0.000608647,0.0113778,0.294561,
2,1,0,1,0,52313,0.296442,0.296113,0.480467,27,0.0196188,10,0.000142272,-3.31834,-15.1546,-0.00389321,-0.072588,0.296113,
2,1,0,1,0,52313.2,0.297939,0.297619,0.477288,27,0.0196924,10,0.00014205,-3.32122,-2.15818,-0.0273378,-0.509457,0.297619,
2,1,0,1,0,52313.3,0.299437,0.299129,0.475684,27,0.0197658,10,0.000142291,-3.32268,-0.00306978,-19.2196,-196.61,0.2991285,
2,1,0,1,0,52313.4,0.299738,0.299419,0.275824,27,0.0198019,10,8.25868e-05,-3.55937,0.000544537,108.349,390.796,0.299419,
2,1,0,1,0,52313.6,0.29824,0.297952,0.0257083,27,0.0198162,10,7.65985e-06,-4.58993,0.00340328,17.3362,133.841,0.297952,
2,0,0,1,0,52313.7,0.296741,0.296481,-0.0245719,27,0.0198137,10,-7.28513e-06,-4.60956,0.60862,0.0969406,29.1188,0.296481,
2,0,0,1,0,52313.9,0.295243,0.294917,-0.0497276,27,0.0198059,10,-1.46655e-05,-4.3034,-0.00555509,-10.6209,14.8299,0.294917,
2,0,0,1,0,52314,0.293745,0.293417,-0.0696713,27,0.0197949,10,-2.04427e-05,-4.15695,-0.0129605,-4.5523,11.1552,0.2934168,
2,0,0,1,0,52314.2,0.292246,0.291899,-0.0823596,27,0.0197816,10,-2.40407e-05,-4.08429,-0.0197642,-2.98519,9.26297,0.291899,
2,0,0,1,0,52314.3,0.290748,0.290435,-0.0963611,27,0.0197661,10,-2.79866e-05,-4.0161,-0.0250705,-2.35337,8.58604,0.290435,
2,0,0,1,0,52314.5,0.28925,0.288895,-0.106717,27,0.0197489,10,-3.08301e-05,-3.97177,-0.0356383,-1.65552,6.84502,0.288895,
2,0,0,1,0,52314.6,0.287752,0.287401,-0.117462,27,0.01973,10,-3.37587e-05,-3.9301,-0.0437977,-1.3471,6.13099,0.287401,
2,0,0,1,0,52314.8,0.286253,0.285969,-0.124187,27,0.0197099,10,-3.55136e-05,-3.90592,-0.0491638,-1.20007,5.85948,0.2859689,
2,0,0,1,0,52314.9,0.284755,0.284456,-0.133888,27,0.0196885,10,-3.80853e-05,-3.87326,-0.0532841,-1.10727,5.75451,0.284456,
2,0,0,1,0,52315.1,0.283258,0.282979,-0.144104,27,0.0196658,10,-4.07782e-05,-3.84133,-0.0623029,-0.946986,5.22323,0.2829788,
2,0,0,1,0,52315.2,0.281759,0.281417,-0.149535,27,0.019642,10,-4.20816e-05,-3.82526,-0.0764993,-0.771249,4.46797,0.281417,
2,0,0,1,0,52315.4,0.280261,0.279958,-0.154587,27,0.0196172,10,-4.3278e-05,-3.81083,-0.0826684,-0.713695,4.3343,0.2799581,
2,0,0,1,0,52315.5,0.278763,0.278435,-0.161481,27,0.0195915,10,-4.4962e-05,-3.79188,-0.0881844,-0.669053,4.22692,0.278435,
2,0,0,1,0,52315.7,0.277264,0.276942,-0.168565,27,0.0195648,10,-4.66829e-05,-3.77323,-0.109166,-0.540462,3.54126,0.276942,
2,0,0,1,0,52315.8,0.275766,0.275447,-0.173565,27,0.0195372,10,-4.78081e-05,-3.76054,-0.119008,-0.495765,3.34599,0.275447,
2,0,0,1,0,52316,0.274268,0.273929,-0.179328,27,0.0195086,10,-4.91231e-05,-3.74635,-0.12068,-0.488895,3.41517,0.273929,
2,0,0,1,0,52316.1,0.27277,0.272453,-0.18535,27,0.0194794,10,-5.0499e-05,-3.73201,-0.127443,-0.462954,3.35648,0.272453,
2,0,0,1,0,52316.3,0.271272,0.270903,-0.191592,27,0.0194493,10,-5.1903e-05,-3.71762,-0.11863,-0.497346,3.68419,0.270903,
2,0,0,1,0,52316.4,0.269773,0.269424,-0.196664,27,0.0194182,10,-5.2986e-05,-3.70627,-0.131927,-0.447216,3.39861,0.269424,
2,0,0,1,0,52316.6,0.268275,0.267936,-0.201444,27,0.0193865,10,-5.39742e-05,-3.69585,-0.147693,-0.399478,3.12978,0.267936,
2,0,0,1,0,52316.7,0.266778,0.266457,-0.204832,27,0.0193542,10,-5.45788e-05,-3.6886,-0.135533,-0.435319,3.48331,0.266457,
2,0,0,1,0,52316.9,0.265279,0.264923,-0.209445,27,0.0193212,10,-5.54868e-05,-3.67893,-0.134293,-0.439338,3.57879,0.264923,
2,0,0,1,0,52317,0.263781,0.263466,-0.21345,27,0.0192874,10,-5.62367e-05,-3.6707,-0.146197,-0.403565,3.37429,0.263466,
2,0,0,1,0,52317.2,0.262283,0.261969,-0.219904,27,0.0192528,10,-5.76082e-05,-3.65777,-0.173856,-0.339361,2.89598,0.261969,
2,0,0,1,0,52317.3,0.260784,0.260455,-0.222937,27,0.0192177,10,-5.80652e-05,-3.65182,-0.187509,-0.314651,2.73188,0.2604551,
2,0,0,1,0,52317.5,0.259286,0.259,-0.226347,27,0.019182,10,-5.8624e-05,-3.64522,-0.161671,-0.364938,3.22881,0.259,
2,0,0,1,0,52317.6,0.257788,0.257479,-0.233832,27,0.0191455,10,-6.02068e-05,-3.6311,-0.206887,-0.28518,2.57671,0.257479,
2,0,0,1,0,52317.8,0.25629,0.255919,-0.236279,27,0.0191084,10,-6.04683e-05,-3.62657,-0.23016,-0.256344,2.34881,0.255919,
2,0,0,1,0,52317.9,0.254791,0.254435,-0.239877,27,0.0190708,10,-6.10329e-05,-3.62001,-0.207654,-0.284126,2.6577,0.2544345,
2,0,0,1,0,52318.1,0.253293,0.252948,-0.243504,27,0.0190328,10,-6.15939e-05,-3.61349,-0.220581,-0.267476,2.53578,0.252948,
2,0,0,1,0,52318.2,0.251796,0.251513,-0.246893,27,0.0189941,10,-6.20967e-05,-3.60749,-0.237476,-0.248446,2.40005,0.251513,
2,0,0,1,0,52318.4,0.250297,0.249979,-0.250552,27,0.0189548,10,-6.26328e-05,-3.6011,-0.352722,-0.167271,1.62992,0.249979,
2,0,0,1,0,52318.5,0.248799,0.248471,-0.254721,27,0.018915,10,-6.3291e-05,-3.59393,-0.247124,-0.238747,2.37052,0.248471,
2,0,0,1,0,52318.7,0.247301,0.246971,-0.256671,27,0.0188749,10,-6.33902e-05,-3.59062,-0.228176,-0.258573,2.59563,0.246971,
2,0,0,1,0,52318.8,0.245802,0.245476,-0.261529,27,0.0188341,10,-6.41991e-05,-3.58248,-0.270981,-0.217728,2.2103,0.245476,
2,0,0,1,0,52319,0.244304,0.243974,-0.26486,27,0.0187926,10,-6.46189e-05,-3.57698,-0.295581,-0.199607,2.04662,0.2439743,
2,0,0,1,0,52319.1,0.242806,0.242457,-0.2693,27,0.0187507,10,-6.52936e-05,-3.56976,-0.562464,-0.104896,1.10051,0.242457,
2,0,0,1,0,52319.3,0.241308,0.241008,-0.268788,27,0.0187086,10,-6.478e-05,-3.57059,-0.321187,-0.183694,1.94455,0.241008,
2,0,0,1,0,52319.4,0.23981,0.239495,-0.273216,27,0.0186659,10,-6.5434e-05,-3.56349,-0.213566,-0.276261,2.9497,0.239495,
2,0,0,1,0,52319.6,0.238311,0.238006,-0.276409,27,0.0186226,10,-6.57868e-05,-3.55845,-0.282788,-0.208637,2.262,0.2380055,
2,0,0,1,0,52319.7,0.236814,0.236477,-0.28023,27,0.0185789,10,-6.6268e-05,-3.55249,-0.308855,-0.191028,2.08445,0.236477,
2,0,0,1,0,52319.9,0.235316,0.234976,-0.279506,27,0.0185347,10,-6.56771e-05,-3.55361,-0.289012,-0.204144,2.24903,0.234976,
2,0,0,1,0,52320,0.233817,0.233381,-0.285987,27,0.0184901,10,-6.67439e-05,-3.54365,-0.340529,-0.17326,1.93618,0.233381,
2,0,0,1,0,52320.2,0.232319,0.231952,-0.28955,27,0.018445,10,-6.71618e-05,-3.53828,-0.3894,-0.151515,1.70964,0.231952,
2,0,0,1,0,52320.3,0.230821,0.230509,-0.291399,27,0.0183994,10,-6.71702e-05,-3.53551,-0.394005,-0.149744,1.69949,0.230509,
2,0,0,1,0,52320.5,0.229322,0.228975,-0.294079,27,0.0183534,10,-6.73366e-05,-3.53154,-0.356825,-0.165347,1.90192,0.228975,
2,0,0,1,0,52320.6,0.227824,0.227509,-0.298133,27,0.0183071,10,-6.78281e-05,-3.52559,-0.378252,-0.155981,1.81595,0.227509,
2,0,0,1,0,52320.8,0.226326,0.226015,-0.299935,27,0.0182601,10,-6.779e-05,-3.52297,-0.421173,-0.140085,1.64016,0.226015,
2,0,0,1,0,52320.9,0.224828,0.22448,-0.303681,27,0.0182128,10,-6.81703e-05,-3.51758,-0.475832,-0.123993,1.46864,0.22448,
2,0,0,1,0,52321.1,0.223329,0.222993,-0.307439,27,0.018165,10,-6.85566e-05,-3.51224,-0.324932,-0.181576,2.16899,0.222993,
2,0,0,1,0,52321.2,0.221831,0.221537,-0.309389,27,0.018117,10,-6.85411e-05,-3.50949,-0.316503,-0.186412,2.24708,0.221537,
2,0,0,1,0,52321.4,0.220334,0.220026,-0.312311,27,0.0180683,10,-6.87167e-05,-3.50541,-0.304812,-0.193562,2.35178,0.220026,
2,0,0,1,0,52321.5,0.218835,0.21845,-0.314323,27,0.0180191,10,-6.86639e-05,-3.50262,-0.463728,-0.12723,1.56432,0.21845,
2,0,0,1,0,52321.7,0.217337,0.216974,-0.317865,27,0.0179695,10,-6.89685e-05,-3.49776,-0.502552,-0.117401,1.46166,0.216974,
2,0,0,1,0,52321.8,0.215839,0.215482,-0.320121,27,0.0179196,10,-6.89803e-05,-3.49469,-0.416863,-0.141533,1.77567,0.215482,
2,0,0,1,0,52322,0.21434,0.214009,-0.323274,27,0.0178692,10,-6.91837e-05,-3.49043,-0.267896,-0.220234,2.78057,0.214009,
2,0,0,1,0,52322.1,0.212842,0.212507,-0.32682,27,0.0178184,10,-6.94514e-05,-3.48569,-0.381361,-0.154709,1.97636,0.212507,
2,0,0,1,0,52322.3,0.211344,0.211014,-0.329464,27,0.017767,10,-6.95214e-05,-3.48219,-0.46275,-0.127499,1.6378,0.211014,
2,0,0,1,0,52322.4,0.209846,0.209507,-0.330494,27,0.0177153,10,-6.92408e-05,-3.48084,-0.516373,-0.114259,1.48687,0.209507,
2,0,0,1,0,52322.6,0.208348,0.208021,-0.334876,27,0.0176632,10,-6.96613e-05,-3.47512,-0.33194,-0.177743,2.33872,0.208021,
2,0,0,1,0,52322.7,0.206849,0.206468,-0.341295,27,0.0176104,10,-7.04665e-05,-3.46687,-0.303878,-0.194157,2.56858,0.206468,
2,0,0,1,0,52322.9,0.205352,0.205007,-0.341479,27,0.0175571,10,-7.00055e-05,-3.46664,-0.573625,-0.102855,1.37064,0.205007,
2,0,0,1,0,52323,0.203854,0.203517,-0.343833,27,0.0175035,10,-6.99761e-05,-3.46365,-0.369638,-0.159616,2.14845,0.203517,
2,0,0,1,0,52323.2,0.202355,0.201981,-0.34684,27,0.0174495,10,-7.00551e-05,-3.45987,-0.411781,-0.14328,1.94723,0.201981,
2,0,0,1,0,52323.3,0.200857,0.200526,-0.350671,27,0.017395,10,-7.03187e-05,-3.4551,-0.43426,-0.135863,1.86141,0.200526,
2,0,0,1,0,52323.5,0.199359,0.199039,-0.353748,27,0.0173401,10,-7.04095e-05,-3.45131,-0.521636,-0.113106,1.56221,0.199039,
2,0,0,1,0,52323.6,0.19786,0.197541,-0.357446,27,0.0172847,10,-7.06104e-05,-3.44679,-0.469891,-0.125561,1.75166,0.197541,
2,0,0,1,0,52323.8,0.196362,0.196053,-0.360909,27,0.017229,10,-7.07575e-05,-3.4426,-0.320565,-0.18405,2.5892,0.196053,
2,0,0,1,0,52323.9,0.194864,0.194505,-0.363038,27,0.0171727,10,-7.06128e-05,-3.44005,-0.300707,-0.196204,2.78446,0.194505,
2,0,0,1,0,52324.1,0.193366,0.193014,-0.367573,27,0.0171158,10,-7.09468e-05,-3.43466,-0.31127,-0.189546,2.71439,0.193014,
2,0,0,1,0,52324.2,0.191867,0.191545,-0.3702,27,0.0170584,10,-7.09099e-05,-3.43156,-0.446571,-0.132118,1.90966,0.191545,
2,0,0,1,0,52324.4,0.190369,0.190054,-0.37285,27,0.0170007,10,-7.08618e-05,-3.42847,-0.341318,-0.172859,2.52394,0.190054,
2,0,0,1,0,52324.5,0.188872,0.188513,-0.376271,27,0.0169425,10,-7.09322e-05,-3.4245,-0.264144,-0.223363,3.27553,0.188513,
2,0,0,1,0,52324.7,0.187373,0.187037,-0.381727,27,0.0168836,10,-7.13971e-05,-3.41825,-0.352352,-0.167446,2.48415,0.187037,
2,0,0,1,0,52324.8,0.185875,0.185543,-0.383989,27,0.0168243,10,-7.12463e-05,-3.41568,-0.391556,-0.150681,2.25436,0.1855427,
2,0,0,1,0,52325,0.184377,0.184089,-0.386383,27,0.0167644,10,-7.11288e-05,-3.41298,-0.360279,-0.163762,2.47858,0.184089,
2,0,0,1,0,52325.1,0.182878,0.182552,-0.391486,27,0.0167042,10,-7.14667e-05,-3.40728,-0.349822,-0.168657,2.5751,0.182552,
2,0,0,1,0,52325.3,0.18138,0.181061,-0.39441,27,0.0166432,10,-7.14124e-05,-3.40405,-0.330018,-0.178778,2.75845,0.181061,
2,0,0,1,0,52325.4,0.179882,0.179516,-0.39923,27,0.0165816,10,-7.16684e-05,-3.39878,-0.574568,-0.102686,1.59821,0.179516,
2,0,0,1,0,52325.6,0.178384,0.178052,-0.403176,27,0.0165195,10,-7.17863e-05,-3.39451,-0.391307,-0.150777,2.3729,0.178052,
2,0,0,1,0,52325.7,0.176886,0.176565,-0.407275,27,0.0164569,10,-7.19106e-05,-3.39011,-0.363519,-0.162302,2.57145,0.176565,
2,0,0,1,0,52325.9,0.175387,0.175039,-0.412817,27,0.0163935,10,-7.22591e-05,-3.38424,-0.297269,-0.198473,3.18169,0.175039,
2,0,0,1,0,52326,0.17389,0.173528,-0.417224,27,0.0163295,10,-7.23999e-05,-3.37963,-0.315821,-0.186814,3.03016,0.1735276,
2,0,0,1,0,52326.2,0.172392,0.172046,-0.42108,27,0.0162648,10,-7.2445e-05,-3.37564,-0.266349,-0.221514,3.63812,0.172046,
2,0,0,1,0,52326.3,0.170893,0.170539,-0.42317,27,0.0161994,10,-7.21669e-05,-3.37349,-0.275777,-0.213941,3.54995,0.170539,
2,0,0,1,0,52326.5,0.169395,0.169017,-0.430802,27,0.0161332,10,-7.2813e-05,-3.36572,-0.245514,-0.240312,4.03271,0.169017,
2,0,0,1,0,52326.6,0.167897,0.167553,-0.434898,27,0.016066,10,-7.28684e-05,-3.36161,-0.262116,-0.225091,3.83277,0.167553,
2,0,0,1,0,52326.8,0.166398,0.166046,-0.442015,27,0.015998,10,-7.33949e-05,-3.35456,-0.330438,-0.178551,3.08846,0.166046,
2,0,0,1,0,52326.9,0.1649,0.16454,-0.44607,27,0.0159293,10,-7.33964e-05,-3.3506,-0.256232,-0.23026,4.03028,0.16454,
2,0,0,1,0,52327.1,0.163402,0.163079,-0.455301,27,0.0158596,10,-7.42501e-05,-3.3417,-0.226066,-0.260986,4.64122,0.163079,
2,0,0,1,0,52327.2,0.161904,0.16154,-0.46387,27,0.0157886,10,-7.49337e-05,-3.3336,-0.221008,-0.266959,4.81298,0.16154,
2,0,0,1,0,52327.4,0.160405,0.160023,-0.472234,27,0.0157165,10,-7.55684e-05,-3.32584,-0.225199,-0.261991,4.80847,0.160023,
2,0,0,1,0,52327.5,0.158907,0.158521,-0.477078,27,0.0156433,10,-7.56272e-05,-3.32141,-0.185769,-0.317599,5.93463,0.158521,
2,0,0,1,0,52327.7,0.15741,0.157065,-0.48737,27,0.015569,10,-7.65486e-05,-3.31214,-0.153427,-0.384547,7.34586,0.157065,
2,0,0,1,0,52327.8,0.155911,0.155537,-0.496938,27,0.0154929,10,-7.72924e-05,-3.3037,-0.163011,-0.361939,7.04258,0.155537,
2,0,0,1,0,52328,0.154413,0.154038,-0.508,27,0.0154153,10,-7.82514e-05,-3.29414,-0.170271,-0.346506,6.87681,0.154038,
2,0,0,1,0,52328.1,0.152915,0.15256,-0.52022,27,0.015336,10,-7.93647e-05,-3.28381,-0.148361,-0.397679,8.09987,0.15256,
2,0,0,1,0,52328.3,0.151417,0.15108,-0.533883,27,0.0152551,10,-8.06588e-05,-3.27255,-0.131985,-0.447022,9.32607,0.15108,
2,0,0,1,0,52328.4,0.149918,0.14953,-0.549051,27,0.0151719,10,-8.20997e-05,-3.26039,-0.122854,-0.480244,10.2846,0.14953,
2,0,0,1,0,52328.6,0.14842,0.148093,-0.566509,27,0.0150863,10,-8.38963e-05,-3.24679,-0.11128,-0.530195,11.7208,0.1480934,
2,0,0,1,0,52328.7,0.146922,0.1466,-0.583918,27,0.014998,10,-8.56026e-05,-3.23365,-0.105878,-0.557244,12.7181,0.1466,
2,0,0,1,0,52328.9,0.145424,0.145082,-0.605502,27,0.0149069,10,-8.78473e-05,-3.21788,-0.0960544,-0.614235,14.5158,0.145082,
2,0,0,1,0,52329,0.143925,0.143595,-0.627814,27,0.0148125,10,-9.01512e-05,-3.20217,-0.0877135,-0.672644,16.4751,0.143595,
2,0,0,1,0,52329.2,0.142428,0.142073,-0.652953,27,0.0147145,10,-9.27669e-05,-3.18512,-0.0873977,-0.675075,17.1823,0.142073,
2,0,0,1,0,52329.3,0.14093,0.140581,-0.676211,27,0.0146126,10,-9.50626e-05,-3.16992,-0.0842928,-0.699941,18.5799,0.140581,
2,0,0,1,0,52329.5,0.139431,0.139079,-0.70434,27,0.0145067,10,-9.79588e-05,-3.15222,-0.0819995,-0.719517,19.8678,0.1390789,
2,0,0,1,0,52329.6,0.137933,0.137582,-0.736236,27,0.0143964,10,-0.000101292,-3.13298,-0.0794448,-0.742654,21.3523,0.137582,
2,0,0,1,0,52329.8,0.136435,0.136108,-0.768897,27,0.0142815,10,-0.000104653,-3.11413,-0.085034,-0.69384,20.7866,0.136108,
2,0,0,1,0,52329.9,0.134936,0.134552,-0.802036,27,0.0141616,10,-0.000107915,-3.09581,-0.0883619,-0.667709,20.8208,0.134552,
2,0,0,1,0,52330.1,0.133438,0.133096,-0.832173,27,0.014037,10,-0.000110759,-3.07979,-0.0892214,-0.661276,21.4956,0.133096,
2,0,0,1,0,52330.2,0.13194,0.131592,-0.865176,27,0.0139077,10,-0.000113851,-3.0629,-0.0928022,-0.635761,21.4715,0.131592,
2,0,0,1,0,52330.4,0.130442,0.130159,-0.89646,27,0.0137735,10,-0.000116682,-3.04747,-0.097067,-0.607827,21.2379,0.130159,
2,0,0,1,0,52330.5,0.128943,0.128601,-0.927983,27,0.0136343,10,-0.00011934,-3.03246,-0.105568,-0.558879,20.2005,0.128601,
2,0,0,1,0,52330.7,0.127445,0.127098,-0.958564,27,0.0134907,10,-0.000121832,-3.01838,-0.112269,-0.525521,19.6143,0.127098,
2,0,0,1,0,52330.8,0.125948,0.125571,-0.985277,27,0.013343,10,-0.000123722,-3.00644,-0.123451,-0.477924,18.3704,0.125571,
2,0,0,1,0,52331,0.124449,0.12413,-1.01177,27,0.013191,10,-0.000125591,-2.99492,-0.130185,-0.453202,17.853,0.12413,
2,0,0,1,0,52331.1,0.122951,0.122593,-1.03829,27,0.0130352,10,-0.000127287,-2.98368,-0.149521,-0.394593,15.9284,0.122593,
2,0,0,1,0,52331.3,0.121453,0.121127,-1.05806,27,0.0128758,10,-0.00012816,-2.97549,-0.178638,-0.330276,13.6027,0.121127,
2,0,0,1,0,52331.4,0.119955,0.119634,-1.07569,27,0.0127136,10,-0.000128689,-2.96831,-0.208863,-0.282482,11.8624,0.119634,
2,0,0,1,0,52331.6,0.118456,0.118123,-1.09371,27,0.0125486,10,-0.000129192,-2.9611,-0.234304,-0.25181,10.7218,0.118123,
2,0,0,1,0,52331.7,0.116958,0.116667,-1.11173,27,0.0123812,10,-0.000129702,-2.954,-0.307332,-0.191975,8.29236,0.1166672,
2,0,0,1,0,52331.9,0.11546,0.115122,-1.11963,27,0.0122119,10,-0.000128894,-2.95093,-0.467923,-0.126089,5.49124,0.115122,
2,0,0,1,0,52332,0.113962,0.11364,-1.12312,27,0.0120415,10,-0.000127631,-2.94957,-0.58716,-0.100484,4.41373,0.11364,
2,0,0,1,0,52332.2,0.112463,0.112102,-1.13303,27,0.0118702,10,-0.000127015,-2.94576,-0.876275,-0.0673305,2.96743,0.1121017,
2,0,0,1,0,52332.3,0.110966,0.110632,-1.136,27,0.011698,10,-0.000125678,-2.94462,-2.00933,-0.029363,1.29862,0.110632,
2,0,0,1,0,52332.5,0.109468,0.109151,-1.13524,27,0.0115257,10,-0.000123913,-2.94491,2.9705,0.019862,-0.877538,0.109151,
2,0,0,1,0,52332.6,0.107969,0.107633,-1.13322,27,0.0113532,10,-0.000121971,-2.94569,3.10786,0.0189841,-0.840703,0.107633,
2,0,0,1,0,52332.8,0.106471,0.106159,-1.13061,27,0.0111813,10,-0.000120023,-2.94669,1.8199,0.0324193,-1.43423,0.106159,
2,0,0,1,0,52332.9,0.104973,0.10461,-1.12984,27,0.0110097,10,-0.000118193,-2.94698,1.11957,0.0526988,-2.32255,0.10461,
2,0,0,1,0,52333.1,0.103474,0.103087,-1.12538,27,0.0108384,10,-0.000116012,-2.9487,0.870079,0.0678099,-2.97191,0.103087,
2,0,0,1,0,52333.2,0.101976,0.101645,-1.12122,27,0.0106678,10,-0.000113967,-2.95031,0.711814,0.0828868,-3.62377,0.101645,
2,0,0,1,0,52333.4,0.100478,0.100129,-1.11387,27,0.0104983,10,-0.000111531,-2.95317,0.641173,0.0920188,-4.00497,0.1001291,
2,0,0,1,0,52333.5,0.0989798,0.0986456,-1.11117,27,0.0103294,10,-0.000109612,-2.95422,0.980583,0.0601683,-2.6035,0.0986456,
2,0,0,1,0,52333.7,0.0974808,0.0971469,-1.1053,27,0.0101611,10,-0.000107376,-2.95652,0.746396,0.0790465,-3.41001,0.0971469,
2,0,0,1,0,52333.8,0.0959833,0.0956296,-1.0993,27,0.00999374,10,-0.000105125,-2.95888,0.619669,0.0952121,-4.08446,0.0956296,
2,0,0,1,0,52334,0.0944857,0.0941479,-1.0932,27,0.00982731,10,-0.000102923,-2.9613,0.828939,0.0711753,-3.03864,0.0941479,
2,0,0,1,0,52334.1,0.0929871,0.0926066,-1.0889,27,0.00966159,10,-0.000100839,-2.96301,0.920472,0.0640976,-2.72362,0.0926066,
2,0,0,1,0,52334.3,0.0914889,0.0911517,-1.08552,27,0.00949652,10,-9.89468e-05,-2.96436,0.728408,0.0809985,-3.42108,0.0911517,
2,0,0,1,0,52334.4,0.0899907,0.0896523,-1.07974,27,0.00933222,10,-9.68012e-05,-2.96668,0.648133,0.0910307,-3.82564,0.0896523,
2,0,0,1,0,52334.6,0.0884925,0.0881677,-1.0696,27,0.00916882,10,-9.43043e-05,-2.97078,0.590339,0.0999426,-4.17891,0.0881677,
2,0,0,1,0,52334.7,0.0869943,0.0866736,-1.0665,27,0.00900647,10,-9.24375e-05,-2.97204,0.642451,0.0918358,-3.82749,0.0866736,
2,0,0,1,0,52334.9,0.0854961,0.0851657,-1.06145,27,0.00884472,10,-9.03987e-05,-2.9741,0.579985,0.101727,-4.21832,0.0851657,
2,0,0,1,0,52335,0.083998,0.0836493,-1.05722,27,0.0086838,10,-8.84357e-05,-2.97583,0.480455,0.1228,-5.0589,0.0836493,
2,0,0,1,0,52335.2,0.0824998,0.082169,-1.05092,27,0.00852369,10,-8.63527e-05,-2.97843,0.551822,0.106919,-4.38277,0.082169,
2,0,0,1,0,52335.3,0.0810011,0.0806573,-1.04508,27,0.0083647,10,-8.42936e-05,-2.98085,0.690626,0.0854298,-3.48652,0.0806573,
2,0,0,1,0,52335.5,0.0795036,0.0791488,-1.04101,27,0.00820645,10,-8.23948e-05,-2.98254,0.753629,0.0782879,-3.17468,0.0791488,
2,0,0,1,0,52335.6,0.0780061,0.077652,-1.03442,27,0.00804892,10,-8.03248e-05,-2.9853,0.703384,0.0838802,-3.38452,0.077652,
2,0,0,1,0,52335.8,0.076507,0.0761173,-1.02804,27,0.00789211,10,-7.8252e-05,-2.98799,0.547277,0.107807,-4.32808,0.0761173,
2,0,0,1,0,52335.9,0.0750088,0.0746391,-1.0212,27,0.00773654,10,-7.62215e-05,-2.99089,0.570926,0.103341,-4.12229,0.07463906,
2,0,0,1,0,52336.1,0.0735106,0.0731767,-1.01489,27,0.00758185,10,-7.42664e-05,-2.99358,0.773664,0.0762605,-3.02238,0.0731767,
2,0,0,1,0,52336.2,0.0720124,0.0716795,-1.01031,27,0.0074279,10,-7.24186e-05,-2.99554,0.622652,0.094756,-3.73368,0.0716795,
2,0,0,1,0,52336.4,0.0705142,0.0701684,-1.00387,27,0.00727473,10,-7.04397e-05,-2.99832,0.52529,0.112319,-4.40329,0.0701684,
2,0,0,1,0,52336.5,0.069016,0.0687146,-0.995604,27,0.0071227,10,-6.84125e-05,-3.00191,0.521495,0.113136,-4.41313,0.0687146,
2,0,0,1,0,52336.7,0.0675179,0.067212,-0.992191,27,0.00697155,10,-6.66871e-05,-3.0034,0.678372,0.0869729,-3.36963,0.067212,
2,0,0,1,0,52336.8,0.0660188,0.0656605,-0.989782,27,0.00682103,10,-6.49896e-05,-3.00446,0.604426,0.0976132,-3.75414,0.0656605,
2,0,0,1,0,52337,0.0645213,0.064163,-0.981482,27,0.00667127,10,-6.29748e-05,-3.00812,0.524717,0.112442,-4.29882,0.064163,
2,0,0,1,0,52337.1,0.0630237,0.0626746,-0.973782,27,0.00652265,10,-6.10314e-05,-3.01154,0.555346,0.10624,-4.04372,0.0626746,
2,0,0,1,0,52337.3,0.0615251,0.0611761,-0.968125,27,0.00637499,10,-5.92262e-05,-3.01407,0.559917,0.105373,-3.98653,0.0611761,
2,0,0,1,0,52337.4,0.0600269,0.0596958,-0.962051,27,0.00622817,10,-5.74304e-05,-3.0168,0.706043,0.0835643,-3.13957,0.0596958,
2,0,0,1,0,52337.6,0.0585287,0.0581656,-0.956562,27,0.00608208,10,-5.5639e-05,-3.01929,0.466519,0.126469,-4.7123,0.0581656,
2,0,0,1,0,52337.7,0.0570305,0.0567129,-0.949477,27,0.00593698,10,-5.38476e-05,-3.02252,0.476661,0.123778,-4.5878,0.0567129,
2,0,0,1,0,52337.9,0.0555323,0.0552188,-0.944089,27,0.00579301,10,-5.21314e-05,-3.02499,0.550881,0.107101,-3.95045,0.0552188,
2,0,0,1,0,52338,0.0540342,0.0536822,-0.937955,27,0.00564989,10,-5.03515e-05,-3.02782,0.546658,0.107928,-3.95115,0.0536822,
2,0,0,1,0,52338.2,0.052536,0.0522083,-0.934292,27,0.00550745,10,-4.87778e-05,-3.02952,0.485418,0.121545,-4.41757,0.0522083,
2,0,0,1,0,52338.3,0.0510378,0.0507301,-0.927867,27,0.00536592,10,-4.70707e-05,-3.03251,0.446251,0.132213,-4.77506,0.0507301,
2,0,0,1,0,52338.5,0.0495391,0.0491963,-0.918741,27,0.00522557,10,-4.51986e-05,-3.03681,0.489284,0.120584,-4.33231,0.0491963,
2,0,0,1,0,52338.6,0.0480416,0.0477325,-0.911586,27,0.00508628,10,-4.35122e-05,-3.0402,0.650601,0.0906854,-3.22365,0.0477325,
2,0,0,1,0,52338.8,0.0465441,0.0462422,-0.907077,27,0.00494785,10,-4.19453e-05,-3.04236,0.532051,0.110892,-3.92768,0.0462422,
2,0,0,1,0,52338.9,0.045045,0.0447048,-0.899195,27,0.00481032,10,-4.01984e-05,-3.04615,0.468114,0.126038,-4.42225,0.04470484,
2,0,0,1,0,52339.1,0.0435468,0.0432022,-0.892264,27,0.00467386,10,-3.85478e-05,-3.04951,0.464446,0.127033,-4.43096,0.04320224,
2,0,0,1,0,52339.2,0.0420486,0.0416689,-0.886651,27,0.00453853,10,-3.69458e-05,-3.05225,0.504888,0.116858,-4.04664,0.0416689,
2,0,0,1,0,52339.4,0.0405504,0.0402214,-0.883813,27,0.00440395,10,-3.55482e-05,-3.05364,0.434782,0.1357,-4.65826,0.0402214,
2,0,0,1,0,52339.5,0.0390523,0.038686,-0.875067,27,0.00427027,10,-3.38528e-05,-3.05796,0.406823,0.145026,-4.9388,0.038686,
2,0,0,1,0,52339.7,0.0375541,0.0372258,-0.867294,27,0.00413773,10,-3.22857e-05,-3.06183,0.404505,0.145857,-4.93775,0.03722579,
2,0,0,1,0,52339.8,0.0360559,0.0357083,-0.861148,27,0.00400636,10,-3.07502e-05,-3.06492,0.471908,0.125024,-4.20375,0.0357083,
2,0,0,1,0,52340,0.0345568,0.0342355,-0.854432,27,0.00387571,10,-2.92519e-05,-3.06832,0.460435,0.12814,-4.27329,0.0342355,
2,0,0,1,0,52340.1,0.0330593,0.0326893,-0.8466,27,0.00374611,10,-2.76748e-05,-3.07232,0.443979,0.132889,-4.38963,0.0326893,
2,0,0,1,0,52340.3,0.0315618,0.0311999,-0.842598,27,0.00361744,10,-2.6289e-05,-3.07438,0.473622,0.124572,-4.08677,0.0311999,
2,0,0,1,0,52340.4,0.0300631,0.0297372,-0.834323,27,0.00348988,10,-2.48104e-05,-3.07867,0.44419,0.132826,-4.324,0.0297372,
2,0,0,1,0,52340.6,0.0285649,0.0282155,-0.82793,27,0.0033632,10,-2.33605e-05,-3.08201,0.587643,0.100401,-3.23857,0.0282155,
2,0,0,1,0,52340.7,0.0270667,0.0267384,-0.821467,27,0.00323732,10,-2.19647e-05,-3.08541,0.498158,0.118436,-3.79525,0.0267384,
2,0,0,1,0,52340.8,0.0255685,0.0252474,-0.815357,27,0.00311243,10,-2.05857e-05,-3.08865,0.474288,0.124397,-3.96405,0.0252474,
2,0,0,1,0,52341,0.0240704,0.0237427,-0.807027,27,0.0029886,10,-1.9161e-05,-3.09311,0.512226,0.115184,-3.64223,0.0237427,
2,0,0,1,0,52341.1,0.0225722,0.0222253,-0.804303,27,0.00286546,10,-1.78759e-05,-3.09458,0.666983,0.088458,-2.77606,0.0222253,
2,0,0,1,0,52341.3,0.021074,0.0207619,-0.800431,27,0.00274308,10,-1.66185e-05,-3.09668,0.562082,0.104967,-3.27548,0.02076192,
2,0,0,1,0,52341.4,0.0195758,0.0192222,-0.796953,27,0.00262138,10,-1.53192e-05,-3.09857,0.507169,0.116332,-3.60814,0.0192222,
2,0,0,1,0,52341.6,0.0180772,0.0177157,-0.787944,27,0.00250036,10,-1.3959e-05,-3.1035,0.607899,0.0970555,-2.99181,0.0177157,
2,0,0,1,0,52341.7,0.0165796,0.016252,-0.787309,27,0.00238024,10,-1.27953e-05,-3.10385,0.729688,0.0808564,-2.48614,0.016252,
2,0,0,1,0,52341.9,0.0150821,0.0147318,-0.784622,27,0.00226048,10,-1.15589e-05,-3.10534,0.863917,0.0682936,-2.08594,0.0147318,
2,0,0,1,0,52342,0.013583,0.0132341,-0.780104,27,0.00214099,10,-1.0324e-05,-3.10785,0.784983,0.0751609,-2.28503,0.0132341,
2,0,0,1,0,52342.2,0.0120848,0.011776,-0.77663,27,0.00202215,10,-9.14562e-06,-3.10979,0.91593,0.0644154,-1.95677,0.011776,
2,0,0,1,0,52342.3,0.0105866,0.010266,-0.774168,27,0.0019039,10,-7.94762e-06,-3.11116,1.06876,0.0552039,-1.67039,0.010266,
2,0,0,1,0,52342.5,0.00908846,0.00873691,-0.772478,27,0.00178579,10,-6.74907e-06,-3.11211,1.58428,0.0372408,-1.12352,0.00873691,
2,0,0,1,0,52342.6,0.00759027,0.00724174,-0.771008,27,0.00166794,10,-5.58344e-06,-3.11294,1.38886,0.0424808,-1.27909,0.00724174,
2,0,0,1,0,52342.8,0.00609207,0.00576353,-0.770593,27,0.00155028,10,-4.44134e-06,-3.11317,2.4288,0.0242919,-0.730806,0.00576353,
2,0,0,1,0,52342.9,0.00459389,0.00427578,-0.769174,27,0.00143302,10,-3.28882e-06,-3.11398,4.9145,0.0120053,-0.360747,0.00427578,
2,0,0,1,0,52343.1,0.0030948,0.00274786,-0.770926,27,0.00131558,10,-2.1184e-06,-3.11299,-0.82352,-0.0716437,2.15876,0.00274786,
2,0,0,1,0,52343.2,0.00159728,0.00124802,-0.778425,27,0.00119692,10,-9.71488e-07,-3.10878, , , ,0.00124802,
2,0,0,1,0,52343.4,0.000199195,-0.000218435,-0.772035,27,0.00108648,10,1.68639e-07,-3.11236, , , ,-0.000218435,