File: Figure_codes/Fig_3-5/rawdata_trumpetplot_data/after 10th/20221101_1-115_003_TrumpetPlot_ParaChange_from10_every3_10_CV_C01_34.csv
mode,ox/red,error,control changes,counter inc.,time/s,control/V,Ewe/V,<I>/mA,cycle number,(Q-Qo)/C,I Range,P/W,log(|I|),Tafel slope mV/dec,alpha_eff,dI/d(E-IR),E-IR/V,
2,1,0,0,0,68175,-2.44065e-05,-0.000306236,5.15741,35,0.0000000E+000,10,-1.57939e-06,-2.28757, , , ,-0.000306236,
2,1,0,1,0,68175,0.00179726,0.00141162,5.85239,35,4.89823e-05,10,8.26137e-06,-2.23267, , , ,0.00141162,
2,1,0,1,0,68175,0.00379485,0.00344681,6.39029,35,0.000110518,10,2.20261e-05,-2.19448,0.0640218,0.921561,226.599,0.00344681,
2,1,0,1,0,68175,0.00579244,0.0054645,6.77077,35,0.000176383,10,3.69989e-05,-2.16936,0.0870251,0.677965,178.415,0.0054645,
2,1,0,1,0,68175,0.00779002,0.00747344,7.1087,35,0.00024586,10,5.31264e-05,-2.14821,0.103499,0.570054,157.532,0.00747344,
2,1,0,1,0,68175,0.00977853,0.00946127,7.40039,35,0.000317745,10,7.0017e-05,-2.13075,0.122054,0.483394,139.26,0.00946127,
2,1,0,1,0,68175,0.0117761,0.0114446,7.66173,35,0.000393121,10,8.76855e-05,-2.11567,0.145515,0.405455,120.874,0.0114446,
2,1,0,1,0,68175,0.0137737,0.0134479,7.88227,35,0.000470851,10,0.000106,-2.10335,0.165095,0.35737,109.895,0.0134479,
2,1,0,1,0,68175,0.0157713,0.0154443,8.10127,35,0.000550821,10,0.000125118,-2.09145,0.18158,0.324925,102.51,0.01544427,
2,1,0,1,0,68175,0.017778,0.0174146,8.2889,35,0.000632833,10,0.000144348,-2.0815,0.21317,0.276774,89.4149,0.0174146,
2,1,0,1,0,68175.1,0.0197755,0.019424,8.45711,35,0.000716633,10,0.000164271,-2.07278,0.23586,0.250148,82.529,0.019424,
2,1,0,1,0,68175.1,0.0217731,0.0214342,8.62063,35,0.000802054,10,0.000184776,-2.06446,0.253549,0.232696,78.2262,0.0214342,
2,1,0,1,0,68175.1,0.0237707,0.0234566,8.77257,35,0.00088908,10,0.000205775,-2.05687,0.280675,0.210207,71.8993,0.0234566,
2,1,0,1,0,68175.1,0.0257774,0.0254504,8.90939,35,0.000977512,10,0.000226747,-2.05015,0.296268,0.199144,69.257,0.0254504,
2,1,0,1,0,68175.1,0.027775,0.0274788,9.05114,35,0.00106736,10,0.000248715,-2.0433,0.321895,0.18329,64.6557,0.0274788,
2,1,0,1,0,68175.1,0.0297726,0.0294691,9.16922,35,0.00115847,10,0.000270209,-2.03767,0.351784,0.167717,60.0196,0.0294691,
2,1,0,1,0,68175.1,0.0317701,0.0314455,9.28922,35,0.00125081,10,0.000292104,-2.03202,0.356932,0.165298,59.9152,0.0314455,
2,1,0,1,0,68175.1,0.0337587,0.0334401,9.40715,35,0.00134337,10,0.000314576,-2.02654,0.360949,0.163458,60.0211,0.0334401,
2,1,0,1,0,68175.1,0.0357562,0.0354467,9.52937,35,0.00143808,10,0.000337785,-2.02094,0.395254,0.149271,55.4333,0.0354467,
2,1,0,1,0,68175.1,0.0377538,0.0373642,9.62467,35,0.00153386,10,0.000359618,-2.01661,0.408092,0.144575,54.3767,0.0373642,
2,1,0,1,0,68175.2,0.0397514,0.0394312,9.74604,35,0.00163076,10,0.000384298,-2.01117,0.387551,0.152238,57.8806,0.0394312,
2,1,0,1,0,68175.2,0.0417399,0.0414334,9.8602,35,0.00172777,10,0.000408542,-2.00611,0.40493,0.145704,56.0508,0.04143339,
2,1,0,1,0,68175.2,0.0437375,0.0434063,9.96885,35,0.00182696,10,0.000432711,-2.00136,0.429513,0.137365,53.4281,0.0434063,
2,1,0,1,0,68175.2,0.0457351,0.0454157,10.073,35,0.00192711,10,0.000457471,-1.99684,0.426837,0.138226,54.3644,0.0454157,
2,1,0,1,0,68175.2,0.0477327,0.0474251,10.1873,35,0.00202844,10,0.000483135,-1.99194,0.402374,0.14663,58.3084,0.0474251,
2,1,0,1,0,68175.2,0.0497393,0.0494214,10.3065,35,0.00213085,10,0.000509364,-1.98689,0.429725,0.137297,55.1661,0.04942143,
2,1,0,1,0,68175.2,0.0517369,0.0513605,10.4044,35,0.00223439,10,0.000534377,-1.98278,0.454516,0.129808,52.7442,0.0513605,
2,1,0,1,0,68175.2,0.0537345,0.0534107,10.5169,35,0.00233899,10,0.000561717,-1.97811,0.432214,0.136506,56.0348,0.0534107,
2,1,0,1,0,68175.2,0.0557321,0.0554357,10.6328,35,0.00244477,10,0.000589435,-1.97335,0.452447,0.130402,54.0724,0.0554357,
2,1,0,1,0,68175.2,0.0577297,0.0574199,10.7337,35,0.00255159,10,0.00061633,-1.96925,0.430357,0.137095,57.4925,0.0574199,
2,1,0,1,0,68175.3,0.0597364,0.0593685,10.8589,35,0.00265964,10,0.000644676,-1.96421,0.428986,0.137534,58.2318,0.0593685,
2,1,0,1,0,68175.3,0.0617339,0.0613909,10.965,35,0.00276877,10,0.00067315,-1.95999,0.453049,0.130229,55.7575,0.06139091,
2,1,0,1,0,68175.3,0.0637315,0.0633916,11.0832,35,0.00287907,10,0.000702582,-1.95533,0.439757,0.134165,58.0176,0.0633916,
2,1,0,1,0,68175.3,0.0657291,0.0653854,11.1967,35,0.00299048,10,0.000732102,-1.95091,0.426144,0.138451,60.5376,0.0653854,
2,1,0,1,0,68175.3,0.0677176,0.0673901,11.3253,35,0.00310204,10,0.000763211,-1.94595,0.459248,0.128471,56.7071,0.0673901,
2,1,0,1,0,68175.3,0.0697152,0.0694006,11.4244,35,0.00321582,10,0.000792862,-1.94217,0.455535,0.129518,57.8294,0.0694006,
2,1,0,1,0,68175.3,0.0717128,0.0713976,11.557,35,0.00333079,10,0.000825144,-1.93715,0.43257,0.136394,61.4565,0.0713976,
2,1,0,1,0,68175.3,0.0737104,0.0733517,11.6672,35,0.0034469,10,0.000855812,-1.93303,0.441061,0.133768,60.9654,0.0733517,
2,1,0,1,0,68175.3,0.0756989,0.0753784,11.7997,35,0.00356309,10,0.000889444,-1.92813,0.45561,0.129497,59.5694,0.0753784,
2,1,0,1,0,68175.3,0.0776965,0.0773844,11.9075,35,0.00368158,10,0.000921451,-1.92418,0.469419,0.125687,58.4455,0.07738436,
2,1,0,1,0,68175.4,0.0796941,0.0793382,12.0311,35,0.0038013,10,0.000954529,-1.91969,0.491522,0.120035,56.3054,0.0793382,
2,1,0,1,0,68175.4,0.0816917,0.0813675,12.1317,35,0.00392211,10,0.000987129,-1.91608,0.492493,0.119799,56.7849,0.0813675,
2,1,0,1,0,68175.4,0.0836983,0.0833804,12.2607,35,0.00404412,10,0.0010223,-1.91149,0.4968,0.11876,56.755,0.0833804,
2,1,0,1,0,68175.4,0.0856959,0.0853828,12.3596,35,0.00416722,10,0.0010553,-1.90799,0.519287,0.113617,54.8439,0.0853828,
2,1,0,1,0,68175.4,0.0876935,0.0873271,12.4771,35,0.00429145,10,0.00108959,-1.90389,0.548203,0.107624,52.3499,0.0873271,
2,1,0,1,0,68175.4,0.0896911,0.0893651,12.5681,35,0.00441665,10,0.00112315,-1.90073,0.539619,0.109336,53.7,0.0893651,
2,1,0,1,0,68175.4,0.0916977,0.0913485,12.6931,35,0.00454298,10,0.00115949,-1.89643,0.516673,0.114192,56.5184,0.0913485,
2,1,0,1,0,68175.4,0.0936953,0.0934108,12.7967,35,0.00467046,10,0.00119535,-1.8929,0.554331,0.106435,53.1666,0.0934108,
2,1,0,1,0,68175.4,0.0956929,0.0953629,12.9065,35,0.00479901,10,0.0012308,-1.88919,0.556349,0.106049,53.3969,0.0953629,
2,1,0,1,0,68175.4,0.0976905,0.0973532,13.0073,35,0.00492861,10,0.0012663,-1.88581,0.534523,0.110379,56.0813,0.09735316,
2,1,0,1,0,68175.5,0.099679,0.0993765,13.1316,35,0.00505799,10,0.00130497,-1.88168,0.563081,0.104781,53.6296,0.0993765,
2,1,0,1,0,68175.5,0.101677,0.101373,13.2228,35,0.00518975,10,0.00134043,-1.87868,0.589579,0.100071,51.6849,0.1013727,
2,1,0,1,0,68175.5,0.103674,0.103348,13.3369,35,0.00532257,10,0.00137834,-1.87495,0.554042,0.10649,55.4122,0.103348,
2,1,0,1,0,68175.5,0.105672,0.105366,13.4441,35,0.00545649,10,0.00141655,-1.87147,0.524235,0.112545,59.0956,0.105366,
2,1,0,1,0,68175.5,0.107656,0.107338,13.5727,35,0.00559024,10,0.00145687,-1.86733,0.505134,0.116801,61.8395,0.107338,
2,1,0,1,0,68175.5,0.109658,0.109325,13.6889,35,0.00572654,10,0.00149655,-1.86363,0.488571,0.12076,64.5657,0.109325,
2,1,0,1,0,68175.5,0.111655,0.111289,13.8277,35,0.00586415,10,0.00153887,-1.85925,0.468844,0.125841,67.8929,0.111289,
2,1,0,1,0,68175.5,0.113653,0.11332,13.9601,35,0.00600306,10,0.00158196,-1.85511,0.464942,0.126898,69.165,0.1133197,
2,1,0,1,0,68175.5,0.115651,0.115298,14.105,35,0.00614339,10,0.00162628,-1.85063,0.428918,0.137555,75.7509,0.115298,
2,1,0,1,0,68175.5,0.117657,0.117307,14.2622,35,0.00628528,10,0.00167306,-1.84581,0.411063,0.14353,79.9081,0.1173072,
2,1,0,1,0,68175.6,0.119655,0.119327,14.427,35,0.00642878,10,0.00172153,-1.84082,0.413279,0.142761,80.3542,0.119327,
2,1,0,1,0,68175.6,0.121652,0.121309,14.5837,35,0.00657383,10,0.00176913,-1.83613,0.401769,0.146851,83.6269,0.121309,
2,1,0,1,0,68175.6,0.12365,0.123282,14.7577,35,0.00672059,10,0.00181935,-1.83098,0.390119,0.151236,87.1085,0.123282,
2,1,0,1,0,68175.6,0.125657,0.125338,14.9347,35,0.00686911,10,0.00187188,-1.8258,0.394623,0.14951,87.1412,0.125338,
2,1,0,1,0,68175.6,0.127654,0.127356,15.1127,35,0.00701939,10,0.00192469,-1.82066,0.404678,0.145795,85.9544,0.127356,
2,1,0,1,0,68175.6,0.129652,0.129349,15.2795,35,0.00717135,10,0.00197638,-1.81589,0.401319,0.147015,87.6981,0.129349,
2,1,0,1,0,68175.6,0.131649,0.131298,15.4585,35,0.00732511,10,0.00202967,-1.81083,0.404284,0.145937,88.0071,0.1312982,
2,1,0,1,0,68175.6,0.133638,0.133288,15.6262,35,0.00747901,10,0.00208278,-1.80615,0.419363,0.140689,85.8085,0.133288,
2,1,0,1,0,68175.6,0.135636,0.135265,15.7989,35,0.00763615,10,0.00213704,-1.80137,0.44984,0.131158,80.8125,0.135265,
2,1,0,1,0,68175.6,0.137633,0.137301,15.9505,35,0.0077949,10,0.00219002,-1.79723,0.484223,0.121845,75.8544,0.137301,
2,1,0,1,0,68175.7,0.139631,0.139311,16.1058,35,0.00795524,10,0.00224371,-1.79302,0.503016,0.117293,73.6924,0.139311,
2,1,0,1,0,68175.7,0.141619,0.141335,16.2477,35,0.00811538,10,0.00229636,-1.78921,0.510462,0.115581,73.3053,0.141335,
2,1,0,1,0,68175.7,0.143617,0.143289,16.3973,35,0.00827862,10,0.00234955,-1.78523,0.559881,0.10538,67.3644,0.143289,
2,1,0,1,0,68175.7,0.145614,0.145269,16.5127,35,0.00844317,10,0.00239879,-1.78218,0.64304,0.0917517,59.141,0.145269,
2,1,0,1,0,68175.7,0.147612,0.147319,16.6357,35,0.00860893,10,0.00245074,-1.77896,0.677521,0.0870822,56.5009,0.147319,
2,1,0,1,0,68175.7,0.149619,0.149252,16.7378,35,0.00877579,10,0.00249816,-1.7763,0.784264,0.0752298,49.1297,0.149252,
2,1,0,1,0,68175.7,0.151616,0.151315,16.832,35,0.00894369,10,0.00254693,-1.77386,1.00196,0.0588845,38.644,0.151315,
2,1,0,1,0,68175.7,0.153614,0.153295,16.894,35,0.00911234,10,0.00258976,-1.77227,1.25376,0.0470583,31.0248,0.153295,
2,1,0,1,0,68175.7,0.155611,0.155255,16.9542,35,0.00928158,10,0.00263222,-1.77072,1.88115,0.0313639,20.7298,0.155255,
2,1,0,1,0,68175.7,0.157618,0.157312,16.9773,35,0.00945124,10,0.00267074,-1.77013,9.3976,0.0062782,4.15615,0.157312,
2,1,0,1,0,68175.8,0.159616,0.159279,16.971,35,0.00962102,10,0.00270312,-1.77029,-3.25313,-0.0181364,-11.9996,0.159279,
2,1,0,1,0,68175.8,0.161613,0.161313,16.9293,35,0.00979053,10,0.00273091,-1.77136,-1.47683,-0.0399504,-26.3771,0.161313,
2,1,0,1,0,68175.8,0.163611,0.163313,16.8646,35,0.00995955,10,0.0027542,-1.77302,-0.871281,-0.0677164,-44.5066,0.163313,
2,1,0,1,0,68175.8,0.165618,0.165275,16.7529,35,0.0101276,10,0.00276885,-1.77591,-0.628061,-0.0939399,-61.3848,0.165275,
2,1,0,1,0,68175.8,0.167597,0.167247,16.6231,35,0.0102929,10,0.00278016,-1.77929,-0.499853,-0.118035,-76.4646,0.167247,
2,1,0,1,0,68175.8,0.169595,0.169285,16.4464,35,0.0104582,10,0.00278412,-1.78393,-0.389421,-0.151507,-97.1319,0.169285,
2,1,0,1,0,68175.8,0.171592,0.171262,16.233,35,0.0106216,10,0.00278011,-1.7896,-0.31337,-0.188276,-119.111,0.171262,
2,1,0,1,0,68175.8,0.173572,0.173227,15.9768,35,0.010781,10,0.00276761,-1.79651,-0.279772,-0.210886,-131.454,0.173227,
2,1,0,1,0,68175.8,0.175578,0.175212,15.7139,35,0.0109394,10,0.00275326,-1.80372,-0.253806,-0.232461,-142.333,0.175212,
2,1,0,1,0,68175.8,0.177576,0.177248,15.4044,35,0.011095,10,0.00273041,-1.81235,-0.227572,-0.259259,-155.767,0.177248,
2,1,0,1,0,68175.9,0.179573,0.179279,15.0803,35,0.0112474,10,0.00270359,-1.82159,-0.21127,-0.279263,-164.255,0.1792794,
2,1,0,1,0,68175.9,0.181571,0.181278,14.7425,35,0.0113965,10,0.00267249,-1.83143,-0.200228,-0.294665,-169.507,0.181278,
2,1,0,1,0,68175.9,0.183578,0.183265,14.4047,35,0.0115422,10,0.00263988,-1.8415,-0.188056,-0.313737,-176.19,0.183265,
2,1,0,1,0,68175.9,0.185575,0.18525,14.0427,35,0.0116844,10,0.00260141,-1.85255,-0.181533,-0.32501,-178.172,0.18525,
2,1,0,1,0,68175.9,0.187573,0.187248,13.695,35,0.0118231,10,0.00256437,-1.86344,-0.182821,-0.32272,-172.409,0.187248,
2,1,0,1,0,68175.9,0.18957,0.189318,13.3413,35,0.0119582,10,0.00252575,-1.8748,-0.180646,-0.326605,-170.202,0.189318,
2,1,0,1,0,68175.9,0.191577,0.191234,13.0166,35,0.01209,10,0.00248922,-1.8855,-0.181345,-0.325347,-165.196,0.191234,
2,1,0,1,0,68175.9,0.193575,0.193291,12.685,35,0.0122185,10,0.00245189,-1.89671,-0.186725,-0.315973,-156.626,0.193291,
2,1,0,1,0,68175.9,0.195572,0.195227,12.3912,35,0.0123439,10,0.0024191,-1.90689,-0.185822,-0.317509,-153.37,0.195227,
2,1,0,1,0,68175.9,0.19757,0.197273,12.0743,35,0.0124661,10,0.00238194,-1.91814,-0.197408,-0.298874,-141.171,0.197273,
2,1,0,1,0,68176,0.199558,0.199278,11.8194,35,0.0125844,10,0.00235534,-1.92741,-0.204361,-0.288705,-133.041,0.199278,
2,1,0,1,0,68176,0.201556,0.20125,11.5452,35,0.0127011,10,0.00232347,-1.9376,-0.204474,-0.288545,-130.154,0.20125,
2,1,0,1,0,68176,0.203553,0.203265,11.3004,35,0.0128153,10,0.00229698,-1.9469,-0.215107,-0.274282,-120.967,0.203265,
2,1,0,1,0,68176,0.205551,0.205263,11.0598,35,0.012927,10,0.00227016,-1.95625,-0.231871,-0.254452,-110.034,0.205263,
2,1,0,1,0,68176,0.20754,0.207237,10.8634,35,0.0130355,10,0.00225129,-1.96404,-0.239325,-0.246526,-104.41,0.207237,
2,1,0,1,0,68176,0.209537,0.209215,10.6471,35,0.013143,10,0.00222754,-1.97277,-0.235894,-0.250113,-104.018,0.209215,
2,1,0,1,0,68176,0.211535,0.211192,10.452,35,0.0132484,10,0.00220738,-1.9808,-0.253752,-0.232511,-94.8698,0.211192,
2,1,0,1,0,68176,0.213532,0.213242,10.2651,35,0.013352,10,0.00218895,-1.98864,-0.281831,-0.209345,-83.9971,0.213242,
2,1,0,1,0,68176,0.215539,0.21524,10.112,35,0.0134539,10,0.0021765,-1.99516,-0.279857,-0.210822,-83.0964,0.21524,
2,1,0,1,0,68176,0.217537,0.217204,9.93584,35,0.013554,10,0.00215811,-2.0028,-0.289296,-0.203943,-79.2328,0.217204,
2,1,0,1,0,68176.1,0.219534,0.219187,9.79926,35,0.0136527,10,0.00214787,-2.00881,-0.3144,-0.187659,-71.7046,0.219187,
2,1,0,1,0,68176.1,0.221532,0.221232,9.647,35,0.0137499,10,0.00213423,-2.01561,-0.326908,-0.180479,-68.0514,0.221232,
2,1,0,1,0,68176.1,0.223534,0.223215,9.52513,35,0.0138458,10,0.00212615,-2.02113,-0.343911,-0.171556,-63.7321,0.223215,
2,1,0,1,0,68176.1,0.225536,0.225233,9.39204,35,0.0139404,10,0.0021154,-2.02724,-0.362828,-0.162611,-59.6817,0.225233,
2,1,0,1,0,68176.1,0.227534,0.227247,9.2845,35,0.0140337,10,0.00210987,-2.03224,-0.369273,-0.159773,-57.8378,0.227247,
2,1,0,1,0,68176.1,0.229531,0.229241,9.1602,35,0.014126,10,0.0020999,-2.03809,-0.38381,-0.153722,-55.0398,0.229241,
2,1,0,1,0,68176.1,0.231529,0.231232,9.06518,35,0.0142171,10,0.00209616,-2.04262,-0.434863,-0.135675,-47.9979,0.2312316,
2,1,0,1,0,68176.1,0.233517,0.233202,8.97008,35,0.0143063,10,0.00209184,-2.0472,-0.431828,-0.136628,-47.8318,0.233202,
2,1,0,1,0,68176.1,0.235515,0.23518,8.8763,35,0.0143955,10,0.00208753,-2.05177,-0.428598,-0.137658,-47.6779,0.23518,
2,1,0,1,0,68176.1,0.237512,0.237191,8.77992,35,0.0144838,10,0.00208252,-2.05651,-0.459116,-0.128508,-44.0729,0.237191,
2,1,0,1,0,68176.1,0.23951,0.239185,8.69982,35,0.0145711,10,0.00208086,-2.06049,-0.499162,-0.118198,-40.1284,0.239185,
2,1,0,1,0,68176.2,0.241499,0.241204,8.61888,35,0.0146569,10,0.00207891,-2.06455,-0.503481,-0.117184,-39.4267,0.241204,
2,1,0,1,0,68176.2,0.243496,0.243171,8.54266,35,0.0147426,10,0.00207732,-2.06841,-0.509444,-0.115812,-38.6066,0.243171,
2,1,0,1,0,68176.2,0.245494,0.245192,8.46491,35,0.0148277,10,0.00207553,-2.07238,-0.556346,-0.106049,-35.063,0.245192,
2,1,0,1,0,68176.2,0.247491,0.247199,8.40142,35,0.014912,10,0.00207682,-2.07565,-0.608185,-0.09701,-31.8034,0.247199,
2,1,0,1,0,68176.2,0.249498,0.249247,8.33596,35,0.0149957,10,0.00207771,-2.07904,-0.611243,-0.0965246,-31.4112,0.249247,
2,1,0,1,0,68176.2,0.251496,0.251201,8.2757,35,0.0150787,10,0.00207887,-2.0822,-0.605405,-0.0974554,-31.4665,0.2512013,
2,1,0,1,0,68176.2,0.253493,0.253219,8.21096,35,0.0151612,10,0.00207917,-2.08561,-0.622812,-0.0947317,-30.3736,0.253219,
2,1,0,1,0,68176.2,0.255491,0.255151,8.15572,35,0.015243,10,0.00208094,-2.08854,-0.688083,-0.0857454,-27.2943,0.255151,
2,1,0,1,0,68176.2,0.257497,0.257209,8.10205,35,0.0153243,10,0.00208392,-2.09141,-0.757788,-0.0778582,-24.6285,0.257209,
2,1,0,1,0,68176.2,0.259495,0.259235,8.05514,35,0.0154051,10,0.00208818,-2.09393,-0.660874,-0.0892757,-28.0345,0.259235,
2,1,0,1,0,68176.3,0.261493,0.261179,7.99077,35,0.0154853,10,0.00208702,-2.09741,-0.707754,-0.0833623,-26.038,0.261179,
2,1,0,1,0,68176.3,0.26349,0.2632,7.9519,35,0.015565,10,0.00209294,-2.09953,-0.914754,-0.0644982,-20.0129,0.2632,
2,1,0,1,0,68176.3,0.265479,0.26519,7.91049,35,0.0156435,10,0.00209778,-2.1018,-0.868614,-0.0679243,-20.968,0.26519,
2,1,0,1,0,68176.3,0.267476,0.267203,7.86796,35,0.0157224,10,0.00210235,-2.10414,-0.758138,-0.0778222,-23.8801,0.2672033,
2,1,0,1,0,68176.3,0.269474,0.26919,7.81498,35,0.0158008,10,0.00210371,-2.10707,-0.86188,-0.068455,-20.9095,0.26919,
2,1,0,1,0,68176.3,0.271471,0.271149,7.78547,35,0.0158788,10,0.00211102,-2.10872,-1.0189,-0.0579059,-17.5822,0.2711488,
2,1,0,1,0,68176.3,0.27346,0.27315,7.74535,35,0.0159556,10,0.00211564,-2.11096,-0.864053,-0.0682828,-20.6367,0.27315,
2,1,0,1,0,68176.3,0.275458,0.275162,7.70265,35,0.0160328,10,0.00211948,-2.11336,-0.841167,-0.0701407,-21.086,0.275162,
2,1,0,1,0,68176.3,0.277455,0.277158,7.66083,35,0.0161096,10,0.00212326,-2.11572,-0.975,-0.0605128,-18.105,0.277158,
2,1,0,1,0,68176.3,0.279453,0.279166,7.63016,35,0.016186,10,0.00213008,-2.11747,-0.945792,-0.0623816,-18.5608,0.279166,
2,1,0,1,0,68176.4,0.281455,0.28113,7.58711,35,0.0162621,10,0.00213297,-2.11992,-0.974998,-0.060513,-17.9349,0.28113,
2,1,0,1,0,68176.4,0.283457,0.28316,7.55852,35,0.0163378,10,0.00214027,-2.12156,-1.06483,-0.0554081,-16.3358,0.28316,
2,1,0,1,0,68176.4,0.285455,0.285124,7.52187,35,0.0164132,10,0.00214466,-2.12367,-0.961636,-0.0613537,-18.0133,0.285124,
2,1,0,1,0,68176.4,0.287452,0.287105,7.48747,35,0.0164883,10,0.00214969,-2.12566,-1.01665,-0.0580338,-16.9586,0.287105,
2,1,0,1,0,68176.4,0.28945,0.289153,7.45354,35,0.016563,10,0.00215521,-2.12764,-1.23064,-0.0479424,-13.9566,0.289153,
2,1,0,1,0,68176.4,0.291456,0.29114,7.43115,35,0.0166374,10,0.0021635,-2.12894,-0.990892,-0.0595423,-17.2406,0.29114,
2,1,0,1,0,68176.4,0.293454,0.293119,7.38517,35,0.0167116,10,0.00216473,-2.13164,-1.01049,-0.0583878,-16.8564,0.293119,
2,1,0,1,0,68176.4,0.295452,0.295138,7.36376,35,0.0167854,10,0.00217332,-2.1329,-1.27648,-0.0462207,-13.2736,0.295138,
2,1,0,1,0,68176.4,0.297449,0.297134,7.33187,35,0.0168588,10,0.00217855,-2.13479,-1.44604,-0.0408012,-11.6882,0.297134,
2,1,0,1,0,68176.4,0.299438,0.299159,7.31676,35,0.0169314,10,0.00218887,-2.13568,-0.0723792,-0.815151,-224.826,0.2991586,
2,1,0,1,0,68176.5,0.299746,0.29946,6.80891,35,0.0169621,10,0.002039,-2.16692,0.00888703,6.63889,1531.41,0.29946,
2,1,0,1,0,68176.5,0.29774,0.297448,4.69733,35,0.0170183,10,0.00139721,-2.32815,0.0129406,4.5593,864.696,0.297448,
2,1,0,1,0,68176.5,0.295742,0.295429,3.32343,35,0.017058,10,0.000981837,-2.47841,0.012818,4.60289,599.556,0.2954292,
2,1,0,1,0,68176.5,0.293745,0.293399,2.26964,35,0.0170856,10,0.000665909,-2.64404,0.0108024,5.46177,476.831,0.293399,
2,1,0,1,0,68176.5,0.291747,0.291433,1.4179,35,0.0171038,10,0.000413224,-2.84835,0.00793138,7.43881,389.455,0.291433,
2,1,0,1,0,68176.5,0.289745,0.289392,0.709248,35,0.0171142,10,0.000205251,-3.1492,0.00368416,16.0145,323.87,0.289392,
2,1,0,1,0,68176.5,0.287743,0.287409,0.11466,35,0.0171182,10,3.29542e-05,-3.94059,0.0142631,4.13655,271.74,0.287409,
2,0,0,1,0,68176.5,0.285745,0.28541,-0.372902,35,0.0171168,10,-0.00010643,-3.42841,-0.00465144,-12.6842,234.34,0.28541,
2,0,0,1,0,68176.5,0.283748,0.283455,-0.812039,35,0.0171108,10,-0.000230176,-3.09042,-0.00795329,-7.41831,203.021,0.283455,
2,0,0,1,0,68176.5,0.28175,0.281426,-1.18175,35,0.0171007,10,-0.000332574,-2.92748,-0.0147744,-3.9934,175.516,0.281426,
2,0,0,1,0,68176.6,0.279761,0.279464,-1.51248,35,0.0170872,10,-0.000422685,-2.82031,-0.0214274,-2.75349,158.072,0.279464,
2,0,0,1,0,68176.6,0.277764,0.27749,-1.80396,35,0.0170706,10,-0.00050058,-2.74377,-0.0297898,-1.98054,136.957,0.27749,
2,0,0,1,0,68176.6,0.275766,0.27547,-2.05939,35,0.0170512,10,-0.000567302,-2.68626,-0.0396324,-1.48868,118.192,0.27547,
2,0,0,1,0,68176.6,0.273769,0.273432,-2.28354,35,0.0170295,10,-0.000624393,-2.64139,-0.0477213,-1.23635,109.652,0.273432,
2,0,0,1,0,68176.6,0.27178,0.271453,-2.49992,35,0.0170057,10,-0.000678612,-2.60207,-0.0557034,-1.05918,102.633,0.271453,
2,0,0,1,0,68176.6,0.269783,0.269438,-2.69344,35,0.0169797,10,-0.000725715,-2.56969,-0.0680161,-0.867442,90.679,0.269438,
2,0,0,1,0,68176.6,0.267785,0.267421,-2.86553,35,0.0169519,10,-0.000766302,-2.5428,-0.0796796,-0.740465,82.4884,0.2674211,
2,0,0,1,0,68176.6,0.265787,0.265458,-3.02179,35,0.0169225,10,-0.000802157,-2.51974,-0.089948,-0.655934,77.2197,0.265458,
2,0,0,1,0,68176.6,0.263781,0.263443,-3.1727,35,0.0168915,10,-0.000835826,-2.49857,-0.101023,-0.584023,72.0882,0.263443,
2,0,0,1,0,68176.6,0.261783,0.261486,-3.30812,35,0.0168591,10,-0.000865026,-2.48042,-0.117561,-0.501867,64.632,0.261486,
2,0,0,1,0,68176.7,0.259786,0.259457,-3.43037,35,0.0168254,10,-0.000890031,-2.46466,-0.129586,-0.455296,60.918,0.259457,
2,0,0,1,0,68176.7,0.257788,0.257491,-3.5515,35,0.0167905,10,-0.000914478,-2.44959,-0.136933,-0.430867,59.6612,0.257491,
2,0,0,1,0,68176.7,0.255781,0.255468,-3.66831,35,0.0167544,10,-0.000937137,-2.43553,-0.15989,-0.369004,52.6796,0.255468,
2,0,0,1,0,68176.7,0.253784,0.253406,-3.76668,35,0.0167172,10,-0.000954499,-2.42404,-0.173318,-0.340414,50.0413,0.253406,
2,0,0,1,0,68176.7,0.251786,0.251502,-3.86677,35,0.016679,10,-0.000972502,-2.41265,-0.181923,-0.324313,48.8806,0.251502,
2,0,0,1,0,68176.7,0.249789,0.249475,-3.95884,35,0.0166399,10,-0.00098763,-2.40243,-0.196991,-0.299506,46.2755,0.249475,
2,0,0,1,0,68176.7,0.2478,0.247486,-4.05262,35,0.0166002,10,-0.00100297,-2.39226,-0.209886,-0.281105,44.3933,0.2474861,
2,0,0,1,0,68176.7,0.245802,0.245494,-4.13556,35,0.0165592,10,-0.00101525,-2.38347,-0.232197,-0.254095,41.0029,0.245494,
2,0,0,1,0,68176.7,0.243805,0.243451,-4.21808,35,0.0165175,10,-0.0010269,-2.37488,-0.24977,-0.236217,38.8429,0.243451,
2,0,0,1,0,68176.7,0.241807,0.241459,-4.29228,35,0.0164749,10,-0.00103641,-2.36731,-0.245293,-0.240528,40.341,0.241459,
2,0,0,1,0,68176.8,0.239819,0.239489,-4.37792,35,0.016432,10,-0.00104846,-2.35873,-0.266461,-0.221421,37.7274,0.239489,
2,0,0,1,0,68176.8,0.237821,0.237534,-4.44037,35,0.0163879,10,-0.00105474,-2.35258,-0.303487,-0.194407,33.7242,0.2375339,
2,0,0,1,0,68176.8,0.235824,0.235494,-4.51263,35,0.0163431,10,-0.0010627,-2.34557,-0.317206,-0.185999,32.7085,0.235494,
2,0,0,1,0,68176.8,0.233826,0.233504,-4.57219,35,0.0162977,10,-0.00106762,-2.33988,-0.3035,-0.194399,34.7629,0.233504,
2,0,0,1,0,68176.8,0.231824,0.231481,-4.65215,35,0.0162516,10,-0.00107688,-2.33235,-0.306269,-0.192641,34.8971,0.231481,
2,0,0,1,0,68176.8,0.229822,0.229501,-4.71188,35,0.0162047,10,-0.00108138,-2.32681,-0.36425,-0.161977,29.7784,0.229501,
2,0,0,1,0,68176.8,0.227824,0.227532,-4.76973,35,0.0161573,10,-0.00108527,-2.32151,-0.373093,-0.158138,29.4401,0.227532,
2,0,0,1,0,68176.8,0.225827,0.22552,-4.82907,35,0.0161093,10,-0.00108905,-2.31614,-0.385418,-0.15308,28.8404,0.22552,
2,0,0,1,0,68176.8,0.223829,0.223513,-4.88564,35,0.0160607,10,-0.001092,-2.31108,-0.391022,-0.150886,28.7754,0.223513,
2,0,0,1,0,68176.8,0.221822,0.221505,-4.94461,35,0.0160115,10,-0.00109526,-2.30587,-0.395347,-0.149236,28.7863,0.221505,
2,0,0,1,0,68176.9,0.219825,0.219546,-4.99985,35,0.0159618,10,-0.0010977,-2.30104,-0.426247,-0.138418,27.0005,0.219546,
2,0,0,1,0,68176.9,0.217827,0.217519,-5.05223,35,0.0159115,10,-0.00109896,-2.29652,-0.424773,-0.138898,27.4,0.217519,
2,0,0,1,0,68176.9,0.21583,0.215531,-5.10987,35,0.0158607,10,-0.00110133,-2.29159,-0.414291,-0.142412,28.3953,0.215531,
2,0,0,1,0,68176.9,0.213841,0.213505,-5.16621,35,0.0158098,10,-0.00110301,-2.28683,-0.422865,-0.139524,28.1271,0.2135051,
2,0,0,1,0,68176.9,0.211843,0.211561,-5.22151,35,0.0157578,10,-0.00110467,-2.2822,-0.481811,-0.122455,24.925,0.211561,
2,0,0,1,0,68176.9,0.209846,0.209538,-5.26509,35,0.0157054,10,-0.00110324,-2.27859,-0.489796,-0.120458,24.7818,0.209538,
2,0,0,1,0,68176.9,0.207848,0.207516,-5.32175,35,0.0156525,10,-0.00110435,-2.27395,-0.420627,-0.140267,29.1417,0.207516,
2,0,0,1,0,68176.9,0.20586,0.205516,-5.3823,35,0.0155995,10,-0.00110615,-2.26903,-0.472327,-0.124913,26.1995,0.205516,
2,0,0,1,0,68176.9,0.203862,0.203492,-5.42717,35,0.0155455,10,-0.00110439,-2.26543,-0.598683,-0.0985497,20.8607,0.203492,
2,0,0,1,0,68176.9,0.201865,0.20152,-5.46567,35,0.015491,10,-0.00110144,-2.26236,-0.518113,-0.113875,24.3316,0.20152,
2,0,0,1,0,68177,0.199867,0.199554,-5.52301,35,0.015436,10,-0.00110214,-2.25782,-0.447812,-0.131752,28.392,0.199554,
2,0,0,1,0,68177,0.19786,0.197555,-5.57822,35,0.0153805,10,-0.00110201,-2.2535,-0.518023,-0.113895,24.7709,0.1975555,
2,0,0,1,0,68177,0.195863,0.19552,-5.62293,35,0.0153245,10,-0.00109939,-2.25004,-0.565158,-0.104396,22.915,0.19552,
2,0,0,1,0,68177,0.193865,0.193515,-5.6708,35,0.015268,10,-0.00109739,-2.24636,-0.509168,-0.115875,25.6594,0.193515,
2,0,0,1,0,68177,0.191868,0.191525,-5.72544,35,0.015211,10,-0.00109656,-2.24219,-0.490282,-0.120339,26.8817,0.191525,
2,0,0,1,0,68177,0.189861,0.189558,-5.77718,35,0.0151535,10,-0.00109511,-2.23828,-0.518358,-0.113821,25.6592,0.1895579,
2,0,0,1,0,68177,0.187863,0.187541,-5.82767,35,0.0150955,10,-0.00109293,-2.2345,-0.553262,-0.10664,24.2452,0.187541,
2,0,0,1,0,68177,0.185866,0.185551,-5.87432,35,0.015037,10,-0.00108999,-2.23104,-0.576286,-0.10238,23.4713,0.185551,
2,0,0,1,0,68177,0.183868,0.183552,-5.92128,35,0.014978,10,-0.00108687,-2.22758,-0.469244,-0.125734,29.1091,0.183552,
2,0,0,1,0,68177,0.18188,0.181565,-5.99036,35,0.014919,10,-0.00108764,-2.22255,-0.46231,-0.12762,29.7864,0.181565,
2,0,0,1,0,68177.1,0.179882,0.179565,-6.04004,35,0.0148588,10,-0.00108458,-2.21896,-0.554227,-0.106455,25.0948,0.179565,
2,0,0,1,0,68177.1,0.177885,0.177577,-6.09043,35,0.0147981,10,-0.00108152,-2.21535,-0.501689,-0.117603,27.9769,0.177577,
2,0,0,1,0,68177.1,0.175887,0.175579,-6.15156,35,0.014737,10,-0.00108009,-2.21102,-0.498882,-0.118265,28.3736,0.175579,
2,0,0,1,0,68177.1,0.173907,0.173545,-6.20485,35,0.0146758,10,-0.00107682,-2.20727,-0.460323,-0.128171,31.0821,0.173545,
2,0,0,1,0,68177.1,0.171901,0.17156,-6.27648,35,0.0146133,10,-0.00107679,-2.20228,-0.464304,-0.127072,31.0785,0.1715603,
2,0,0,1,0,68177.1,0.169903,0.169544,-6.32918,35,0.0145503,10,-0.00107307,-2.19865,-0.483254,-0.122089,30.1923,0.169544,
2,0,0,1,0,68177.1,0.167906,0.167565,-6.39711,35,0.0144867,10,-0.00107193,-2.19402,-0.419623,-0.140602,35.1102,0.167565,
2,0,0,1,0,68177.1,0.165908,0.165583,-6.46827,35,0.0144223,10,-0.00107103,-2.18921,-0.415017,-0.142163,35.887,0.165583,
2,0,0,1,0,68177.1,0.163901,0.163585,-6.53993,35,0.0143573,10,-0.00106984,-2.18443,-0.414646,-0.14229,36.322,0.163585,
2,0,0,1,0,68177.1,0.161904,0.161573,-6.61389,35,0.0142915,10,-0.00106863,-2.17954,-0.38673,-0.152561,39.4053,0.161573,
2,0,0,1,0,68177.2,0.159906,0.159591,-6.69733,35,0.014225,10,-0.00106883,-2.1741,-0.390998,-0.150896,39.4123,0.159591,
2,0,0,1,0,68177.2,0.157909,0.157567,-6.7718,35,0.0141576,10,-0.00106701,-2.1693,-0.343571,-0.171726,45.4921,0.1575667,
2,0,0,1,0,68177.2,0.155902,0.15559,-6.87932,35,0.0140893,10,-0.00107036,-2.16245,-0.308184,-0.191444,51.3606,0.1555903,
2,0,0,1,0,68177.2,0.153904,0.153558,-6.97767,35,0.01402,10,-0.00107148,-2.15629,-0.315972,-0.186725,50.8657,0.153558,
2,0,0,1,0,68177.2,0.151907,0.151611,-7.08175,35,0.0139497,10,-0.00107367,-2.14986,-0.297427,-0.198368,54.8696,0.151611,
2,0,0,1,0,68177.2,0.149909,0.149532,-7.19861,35,0.0138782,10,-0.00107642,-2.14275,-0.257847,-0.228818,64.3964,0.149532,
2,0,0,1,0,68177.2,0.147921,0.147566,-7.34223,35,0.0138063,10,-0.00108346,-2.13417,-0.245203,-0.240617,68.8584,0.1475656,
2,0,0,1,0,68177.2,0.145923,0.145612,-7.46855,35,0.0137322,10,-0.00108751,-2.12676,-0.232305,-0.253976,74.2347,0.145612,
2,0,0,1,0,68177.2,0.143926,0.143573,-7.63861,35,0.0136566,10,-0.0010967,-2.11699,-0.205232,-0.287479,85.7039,0.143573,
2,0,0,1,0,68177.2,0.141928,0.141606,-7.81181,35,0.0135794,10,-0.0011062,-2.10725,-0.189872,-0.310736,94.882,0.141606,
2,0,0,1,0,68177.3,0.139939,0.139634,-8.01235,35,0.0135011,10,-0.0011188,-2.09624,-0.179369,-0.32893,102.87,0.139634,
2,0,0,1,0,68177.3,0.137942,0.137652,-8.21863,35,0.0134199,10,-0.00113131,-2.0852,-0.170392,-0.346261,111.245,0.137652,
2,0,0,1,0,68177.3,0.135944,0.135647,-8.45594,35,0.0133365,10,-0.00114702,-2.07284,-0.157046,-0.375685,124.112,0.135647,
2,0,0,1,0,68177.3,0.133947,0.133642,-8.71622,35,0.0132506,10,-0.00116486,-2.05967,-0.147915,-0.398877,135.841,0.133642,
2,0,0,1,0,68177.3,0.13194,0.131624,-9.00232,35,0.0131621,10,-0.00118493,-2.04565,-0.143823,-0.410225,144.126,0.131624,
2,0,0,1,0,68177.3,0.129942,0.129629,-9.29468,35,0.0130706,10,-0.00120486,-2.03177,-0.140809,-0.419007,152.143,0.129629,
2,0,0,1,0,68177.3,0.127945,0.127616,-9.61216,35,0.012976,10,-0.00122667,-2.01718,-0.142216,-0.414861,155.447,0.127616,
2,0,0,1,0,68177.3,0.125947,0.125645,-9.91399,35,0.0128784,10,-0.00124564,-2.00375,-0.136127,-0.433418,168.109,0.125645,
2,0,0,1,0,68177.3,0.123941,0.12369,-10.2721,35,0.0127775,10,-0.00127056,-1.98834,-0.134636,-0.438219,175.499,0.12369,
2,0,0,1,0,68177.3,0.121943,0.121637,-10.6174,35,0.0126729,10,-0.00129147,-1.97398,-0.144245,-0.409026,169.431,0.121637,
2,0,0,1,0,68177.4,0.119945,0.119611,-10.9633,35,0.012565,10,-0.00131133,-1.96006,-0.147482,-0.400048,171.009,0.119611,
2,0,0,1,0,68177.4,0.117948,0.117668,-11.2961,35,0.0124537,10,-0.00132919,-1.94707,-0.152198,-0.387652,171.015,0.117668,
2,0,0,1,0,68177.4,0.115946,0.115587,-11.6515,35,0.0123389,10,-0.00134676,-1.93362,-0.158175,-0.373005,169.325,0.115587,
2,0,0,1,0,68177.4,0.113962,0.113665,-11.9739,35,0.0122218,10,-0.00136102,-1.92176,-0.164989,-0.3576,167.103,0.113665,
2,0,0,1,0,68177.4,0.111964,0.111697,-12.3016,35,0.0121005,10,-0.00137404,-1.91004,-0.175958,-0.335308,160.896,0.111697,
2,0,0,1,0,68177.4,0.109967,0.109635,-12.6223,35,0.0119758,10,-0.00138385,-1.89886,-0.186681,-0.316048,155.555,0.109635,
2,0,0,1,0,68177.4,0.107969,0.107678,-12.9267,35,0.011848,10,-0.00139192,-1.88851,-0.197589,-0.2986,150.582,0.107678,
2,0,0,1,0,68177.4,0.10598,0.105628,-13.2258,35,0.0117185,10,-0.00139701,-1.87858,-0.207573,-0.284238,146.616,0.105628,
2,0,0,1,0,68177.4,0.103983,0.103687,-13.5119,35,0.0115847,10,-0.001401,-1.86928,-0.219917,-0.268283,141.372,0.103687,
2,0,0,1,0,68177.4,0.101985,0.101689,-13.7826,35,0.0114482,10,-0.00140154,-1.86067,-0.23875,-0.24712,132.855,0.101689,
2,0,0,1,0,68177.5,0.0999877,0.0996922,-14.0425,35,0.011309,10,-0.00139993,-1.85255,-0.253831,-0.232438,127.336,0.0996922,
2,0,0,1,0,68177.5,0.0979811,0.0976655,-14.2949,35,0.0111672,10,-0.00139612,-1.84482,-0.271051,-0.217671,121.356,0.0976655,
2,0,0,1,0,68177.5,0.0959835,0.0956639,-14.5314,35,0.0110231,10,-0.00139013,-1.83769,-0.303556,-0.194363,110.082,0.09566392,
2,0,0,1,0,68177.5,0.0939859,0.0936945,-14.7321,35,0.0108767,10,-0.00138031,-1.83174,-0.336361,-0.175407,100.843,0.0936945,
2,0,0,1,0,68177.5,0.0919883,0.0916851,-14.9326,35,0.0107283,10,-0.0013691,-1.82586,-0.355985,-0.165737,96.548,0.0916851,
2,0,0,1,0,68177.5,0.0899816,0.0896479,-15.1227,35,0.0105779,10,-0.00135572,-1.82037,-0.413252,-0.14277,84.1403,0.0896479,
2,0,0,1,0,68177.5,0.087984,0.0876707,-15.2704,35,0.0104259,10,-0.00133877,-1.81615,-0.489172,-0.120612,71.8572,0.0876707,
2,0,0,1,0,68177.5,0.0859865,0.085657,-15.4095,35,0.0102724,10,-0.00131993,-1.81221,-0.5643,-0.104554,62.821,0.085657,
2,0,0,1,0,68177.5,0.0839889,0.083671,-15.5217,35,0.0101178,10,-0.00129871,-1.80906,-0.672921,-0.0876775,53.0875,0.083671,
2,0,0,1,0,68177.5,0.0820004,0.0816897,-15.6201,35,0.00996358,10,-0.001276,-1.80632,-0.860556,-0.0685603,41.7555,0.0816897,
2,0,0,1,0,68177.6,0.0800028,0.0796505,-15.6896,35,0.00980706,10,-0.00124968,-1.80439,-1.14084,-0.0517164,31.6545,0.0796505,
2,0,0,1,0,68177.6,0.0780052,0.0776782,-15.7471,35,0.00964983,10,-0.00122321,-1.8028,-1.52627,-0.0386564,23.7411,0.0776782,
2,0,0,1,0,68177.6,0.0760076,0.0756716,-15.784,35,0.0094922,10,-0.0011944,-1.80178,-2.45921,-0.0239914,14.7719,0.0756716,
2,0,0,1,0,68177.6,0.0740191,0.0736745,-15.8063,35,0.00933585,10,-0.00116452,-1.80117,-4.99795,-0.0118049,7.27845,0.0736745,
2,0,0,1,0,68177.6,0.0720215,0.0717024,-15.8129,35,0.00917777,10,-0.00113382,-1.80099,-36.0159,-0.00163817,1.01066,0.0717024,
2,0,0,1,0,68177.6,0.0700239,0.0696843,-15.8103,35,0.00901964,10,-0.00110173,-1.80106,5.65524,0.0104328,-6.43311,0.0696843,
2,0,0,1,0,68177.6,0.0680263,0.0676845,-15.7871,35,0.00886172,10,-0.00106854,-1.8017,4.9417,0.0119392,-7.35997,0.0676845,
2,0,0,1,0,68177.6,0.0660197,0.0657012,-15.781,35,0.00870391,10,-0.00103683,-1.80187,2.80039,0.0210685,-12.9594,0.0657012,
2,0,0,1,0,68177.6,0.0640221,0.063697,-15.7354,35,0.00854633,10,-0.0010023,-1.80312,1.86298,0.0316696,-19.4566,0.06369701,
2,0,0,1,0,68177.6,0.0620245,0.0616989,-15.7031,35,0.00838907,10,-0.000968865,-1.80401,2.07582,0.0284225,-17.4158,0.0616989,
2,0,0,1,0,68177.7,0.0600269,0.059713,-15.666,35,0.00823226,10,-0.000935463,-1.80504,1.92274,0.0306854,-18.7604,0.059713,
2,0,0,1,0,68177.7,0.0580248,0.0576984,-15.6281,35,0.00807578,10,-0.000901714,-1.8061,1.71819,0.0343385,-20.9379,0.0576984,
2,0,0,1,0,68177.7,0.0560227,0.0556942,-15.5819,35,0.00791969,10,-0.000867819,-1.80738,1.74828,0.0337474,-20.529,0.0556942,
2,0,0,1,0,68177.7,0.0540251,0.0537109,-15.5462,35,0.00776402,10,-0.000835,-1.80838,1.98227,0.0297638,-18.0576,0.0537109,
2,0,0,1,0,68177.7,0.0520275,0.0516772,-15.5093,35,0.00760878,10,-0.000801478,-1.80941,1.48986,0.039601,-23.9527,0.0516772,
2,0,0,1,0,68177.7,0.0500299,0.0497164,-15.4505,35,0.00745394,10,-0.000768144,-1.81106,1.54499,0.038188,-23.0462,0.04971642,
2,0,0,1,0,68177.7,0.0480414,0.0477095,-15.4179,35,0.00730114,10,-0.000735579,-1.81198,1.82593,0.0323122,-19.4349,0.0477095,
2,0,0,1,0,68177.7,0.0460438,0.0457292,-15.373,35,0.00714718,10,-0.000702996,-1.81324,1.44988,0.0406931,-24.4089,0.0457292,
2,0,0,1,0,68177.7,0.0440462,0.043764,-15.3216,35,0.00699378,10,-0.000670533,-1.8147,1.3571,0.0434751,-25.9958,0.043764,
2,0,0,1,0,68177.7,0.0420486,0.041763,-15.2699,35,0.00684084,10,-0.000637718,-1.81616,1.56416,0.0377199,-22.4878,0.041763,
2,0,0,1,0,68177.8,0.0400601,0.0397259,-15.2308,35,0.00668991,10,-0.000605056,-1.81728,1.44433,0.0408495,-24.2656,0.0397259,
2,0,0,1,0,68177.8,0.0380625,0.0377296,-15.172,35,0.00653791,10,-0.000572435,-1.81896,1.17406,0.0502531,-29.7545,0.03772958,
2,0,0,1,0,68177.8,0.036065,0.0357428,-15.1122,35,0.00638657,10,-0.000540153,-1.82067,1.1044,0.0534226,-31.5016,0.0357428,
2,0,0,1,0,68177.8,0.0340674,0.0337507,-15.0467,35,0.00623575,10,-0.000507838,-1.82256,1.12695,0.0523536,-30.7517,0.0337507,
2,0,0,1,0,68177.8,0.0320607,0.03175,-14.9895,35,0.00608555,10,-0.000475916,-1.82421,1.08741,0.0542571,-31.7268,0.03175,
2,0,0,1,0,68177.8,0.0300631,0.0297554,-14.9199,35,0.00593594,10,-0.000443949,-1.82623,0.963361,0.0612439,-35.6584,0.0297554,
2,0,0,1,0,68177.8,0.0280655,0.0277964,-14.8485,35,0.0057871,10,-0.000412734,-1.82832,0.961943,0.0613342,-35.5428,0.0277964,
2,0,0,1,0,68177.8,0.0260679,0.0257453,-14.7774,35,0.00563891,10,-0.00038045,-1.8304,0.910363,0.0648093,-37.3674,0.0257453,
2,0,0,1,0,68177.8,0.0240613,0.0238045,-14.6993,35,0.00549153,10,-0.00034991,-1.8327,0.86097,0.0685273,-39.311,0.0238045,
2,0,0,1,0,68177.8,0.0220637,0.0217604,-14.6208,35,0.0053449,10,-0.000318154,-1.83503,0.850509,0.0693702,-39.5783,0.0217604,
2,0,0,1,0,68177.9,0.0200661,0.0197589,-14.5392,35,0.00519912,10,-0.000287278,-1.83746,0.723986,0.0814933,-46.2051,0.0197589,
2,0,0,1,0,68177.9,0.0180685,0.0177512,-14.4355,35,0.00505419,10,-0.000256248,-1.84057,0.736138,0.0801481,-45.1925,0.0177512,
2,0,0,1,0,68177.9,0.01608,0.0157335,-14.3573,35,0.00491172,10,-0.00022589,-1.84293,0.75283,0.078371,-43.8819,0.0157335,
2,0,0,1,0,68177.9,0.0140824,0.0137325,-14.2592,35,0.00476864,10,-0.000195814,-1.84591,0.633612,0.0931169,-51.8021,0.0137325,
2,0,0,1,0,68177.9,0.0120848,0.0117784,-14.1524,35,0.00462662,10,-0.000166693,-1.84917,0.607731,0.0970824,-53.622,0.0117784,
2,0,0,1,0,68177.9,0.0100872,0.00977028,-14.0467,35,0.00448567,10,-0.00013724,-1.85243,0.629274,0.0937589,-51.4103,0.00977028,
2,0,0,1,0,68177.9,0.00810328,0.00780154,-13.9479,35,0.00434718,10,-0.000108815,-1.85549,0.605441,0.0974496,-53.0185,0.00780154,
2,0,0,1,0,68177.9,0.00610116,0.00578002,-13.8352,35,0.00420825,10,-7.99674e-05,-1.85902,0.563946,0.10462,-56.484,0.00578002,
2,0,0,1,0,68177.9,0.00410357,0.00377671,-13.7206,35,0.00407053,10,-5.18188e-05,-1.86263,0.707628,0.0833772,-44.7256,0.00377671,
2,0,0,1,0,68177.9,0.00210598,0.0017578,-13.6553,35,0.00393381,10,-2.40032e-05,-1.8647,0.671376,0.0878792,-46.7306,0.0017578,
2,0,0,1,0,68178,0.00010174,-0.000285414,-13.5308,35,0.00379791,10,3.86187e-06,-1.86868,0.540595,0.109139,-57.6632,-0.000285414,
2,0,0,1,0,68178,-0.00189827,-0.00229652,-13.4215,35,0.00366309,10,3.08227e-05,-1.8722,0.575814,0.102464,-53.6798,-0.00229652,
2,0,0,1,0,68178,-0.00389586,-0.00425905,-13.3175,35,0.00352943,10,5.67198e-05,-1.87558,0.580592,0.10162,-52.8091,-0.004259048,
2,0,0,1,0,68178,-0.00589345,-0.00629185,-13.2105,35,0.00339674,10,8.31184e-05,-1.87908,0.594453,0.099251,-51.1892,-0.00629185,
2,0,0,1,0,68178,-0.00789103,-0.00823789,-13.1138,35,0.00326511,10,0.00010803,-1.88227,0.676868,0.0871662,-44.6365,-0.00823789,
2,0,0,1,0,68178,-0.0098977,-0.0102768,-13.0326,35,0.00313431,10,0.000133933,-1.88497,0.773619,0.0762649,-38.7985,-0.0102768,
2,0,0,1,0,68178,-0.0118953,-0.0122688,-12.9574,35,0.0030044,10,0.000158972,-1.88748,0.706173,0.083549,-42.2196,-0.0122688,
2,0,0,1,0,68178,-0.0138929,-0.0142669,-12.8641,35,0.00287525,10,0.000183531,-1.89062,0.733351,0.0804526,-40.4287,-0.01426688,
2,0,0,1,0,68178,-0.0158905,-0.0162797,-12.7953,35,0.00274698,10,0.000208303,-1.89295,0.949206,0.0621572,-31.0555,-0.0162797,
2,0,0,1,0,68178,-0.017879,-0.0182531,-12.7404,35,0.00262055,10,0.000232551,-1.89482,0.968881,0.060895,-30.2658,-0.0182531,
2,0,0,1,0,68178.1,-0.0198766,-0.020239,-12.6754,35,0.00249353,10,0.000256538,-1.89704,0.901316,0.0654598,-32.3819,-0.020239,
2,0,0,1,0,68178.1,-0.0218741,-0.0222551,-12.6108,35,0.0023671,10,0.000280653,-1.89926,1.09975,0.0536484,-26.4287,-0.0222551,
2,0,0,1,0,68178.1,-0.0238717,-0.0242179,-12.5703,35,0.00224122,10,0.000304425,-1.90066,1.49366,0.0395003,-19.3805,-0.0242179,
2,0,0,1,0,68178.1,-0.0258602,-0.0262589,-12.5332,35,0.00211693,10,0.000329108,-1.90194,1.51154,0.0390331,-19.0899,-0.0262589,
2,0,0,1,0,68178.1,-0.0278578,-0.0282596,-12.4931,35,0.00199184,10,0.000353051,-1.90333,1.63716,0.036038,-17.5782,-0.0282596,
2,0,0,1,0,68178.1,-0.0298554,-0.03023,-12.4634,35,0.00186706,10,0.000376767,-1.90436,1.97655,0.02985,-14.5202,-0.03022996,
2,0,0,1,0,68178.1,-0.031853,-0.0322428,-12.4353,35,0.00174259,10,0.000400948,-1.90534,3.02282,0.0195182,-9.4793,-0.0322428,
2,0,0,1,0,68178.1,-0.0338597,-0.0342331,-12.4254,35,0.00161828,10,0.00042536,-1.90569,3.47213,0.0169925,-8.23574,-0.0342331,
2,0,0,1,0,68178.1,-0.0358573,-0.0362216,-12.4025,35,0.00149417,10,0.000449239,-1.90649,4.50728,0.0130899,-6.34115,-0.0362216,
2,0,0,1,0,68178.1,-0.0378548,-0.0382406,-12.4,35,0.0013701,10,0.000474183,-1.90658,7.01449,0.00841115,-4.06862,-0.0382406,
2,0,0,1,0,68178.2,-0.0398524,-0.0401692,-12.3864,35,0.00124617,10,0.000497554,-1.90705,-114.699,-0.000514388,0.248939,-0.04016925,
2,0,0,1,0,68178.2,-0.0418591,-0.0421908,-12.401,35,0.00112219,10,0.000523207,-1.90654,-5.64388,-0.0104538,5.05762,-0.0421908,
2,0,0,1,0,68178.2,-0.0438567,-0.0442479,-12.4071,35,0.00099815,10,0.000548987,-1.90633,-17.9547,-0.00328605,1.59077,-0.0442479,
2,0,0,1,0,68178.2,-0.0458543,-0.0462069,-12.4074,35,0.000873995,10,0.000573307,-1.90632,-5.69593,-0.0103583,5.01957,-0.0462069,
2,0,0,1,0,68178.2,-0.0478519,-0.0481903,-12.4269,35,0.000749812,10,0.000598854,-1.90564,-2.01467,-0.0292851,14.2132,-0.0481903,
2,0,0,1,0,68178.2,-0.0498585,-0.0502396,-12.4647,35,0.000625373,10,0.000626221,-1.90432,-2.21975,-0.0265796,12.9173,-0.0502396,
2,0,0,1,0,68178.2,-0.051838,-0.0521792,-12.4784,35,0.00050193,10,0.000651113,-1.90384,-2.76211,-0.0213604,10.4081,-0.0521792,
2,0,0,1,0,68178.2,-0.0538356,-0.0541985,-12.5059,35,0.000377035,10,0.000677801,-1.90289,-1.97324,-0.0299001,14.5951,-0.0541985,
2,0,0,1,0,68178.2,-0.0558331,-0.0561756,-12.5367,35,0.000251881,10,0.000704258,-1.90182,-1.85611,-0.031787,15.5527,-0.0561756,
2,0,0,1,0,68178.2,-0.0578126,-0.0581955,-12.5681,35,0.00012761,10,0.000731405,-1.90073,-1.72898,-0.0341241,16.7408,-0.0581955,
2,0,0,1,0,68178.3,-0.0598192,-0.0602118,-12.6043,35,1.7296e-06,10,0.000758927,-1.89948,-1.39058,-0.0424283,20.879,-0.0602118,
2,0,0,1,0,68178.3,-0.0618168,-0.06215,-12.6506,35,-0.000124557,10,0.000786237,-1.89789,-1.27686,-0.046207,22.8107,-0.06215,
2,0,0,1,0,68178.3,-0.0638144,-0.0641655,-12.6945,35,-0.000251267,10,0.000814547,-1.89639,-1.31144,-0.0449888,22.2892,-0.06416548,
2,0,0,1,0,68178.3,-0.065812,-0.0661185,-12.7391,35,-0.000378423,10,0.000842289,-1.89486,-1.1455,-0.0515061,25.6206,-0.0661185,
2,0,0,1,0,68178.3,-0.0678187,-0.0681764,-12.7972,35,-0.000506109,10,0.00087247,-1.89288,-1.08795,-0.0542305,27.078,-0.0681764,
2,0,0,1,0,68178.3,-0.0698163,-0.0701858,-12.8492,35,-0.000634369,10,0.000901833,-1.89112,-1.10788,-0.0532546,26.7085,-0.07018581,
2,0,0,1,0,68178.3,-0.0718138,-0.0721891,-12.9044,35,-0.000763116,10,0.000931558,-1.88926,-1.01281,-0.058254,29.3463,-0.0721891,
2,0,0,1,0,68178.3,-0.0738114,-0.0742072,-12.9672,35,-0.000892505,10,0.000962261,-1.88715,-0.877534,-0.0672339,34.039,-0.0742072,
2,0,0,1,0,68178.3,-0.0758181,-0.0762001,-13.0409,35,-0.00102259,10,0.00099372,-1.88469,-0.926627,-0.0636718,32.3832,-0.0762001,
2,0,0,1,0,68178.3,-0.0778157,-0.0782094,-13.0968,35,-0.00115336,10,0.0010243,-1.88283,-0.908382,-0.0649507,33.2255,-0.0782094,
2,0,0,1,0,68178.4,-0.0798133,-0.0802214,-13.1745,35,-0.00128471,10,0.00105688,-1.88026,-0.769646,-0.0766586,39.4163,-0.0802214,
2,0,0,1,0,68178.4,-0.0818108,-0.0821848,-13.2535,35,-0.0014169,10,0.00108924,-1.87767,-0.734479,-0.0803291,41.5587,-0.0821848,
2,0,0,1,0,68178.4,-0.0837994,-0.0841688,-13.3386,35,-0.00154852,10,0.00112269,-1.87489,-0.751821,-0.0784761,40.8397,-0.0841688,
2,0,0,1,0,68178.4,-0.0857969,-0.0861658,-13.4161,35,-0.0016823,10,0.00115601,-1.87237,-0.739859,-0.0797449,41.7708,-0.0861658,
2,0,0,1,0,68178.4,-0.0877945,-0.0881541,-13.5051,35,-0.00181687,10,0.00119053,-1.8695,-0.711115,-0.0829683,43.7261,-0.0881541,
2,0,0,1,0,68178.4,-0.0897921,-0.090198,-13.5924,35,-0.00195242,10,0.00122601,-1.8667,-0.689502,-0.085569,45.4025,-0.090198,
2,0,0,1,0,68178.4,-0.0917806,-0.0921536,-13.6867,35,-0.00208741,10,0.00126127,-1.8637,-0.634225,-0.0930269,49.7048,-0.0921536,
2,0,0,1,0,68178.4,-0.0937782,-0.0941621,-13.7895,35,-0.0022248,10,0.00129844,-1.86045,-0.646316,-0.0912866,49.1097,-0.0941621,
2,0,0,1,0,68178.4,-0.0957758,-0.0961558,-13.8832,35,-0.00236313,10,0.00133495,-1.85751,-0.653602,-0.090269,48.9223,-0.0961558,
2,0,0,1,0,68178.4,-0.0977734,-0.0981539,-13.9848,35,-0.0025025,10,0.00137266,-1.85435,-0.6007,-0.0982188,53.6209,-0.0981539,
2,0,0,1,0,68178.5,-0.0997412,-0.100099,-14.0946,35,-0.00264007,10,0.00141086,-1.85095,0.105882,0.557224,-297.788,-0.100099,
2,0,0,1,1,68178.5,-0.0996711,-0.100097,-13.4063,35,-0.00268148,10,0.00134192,-1.87269,-0.0174691,-3.37739,1627.25,-0.100097,
2,0,0,1,1,68178.5,-0.0976826,-0.0980421,-10.7475,35,-0.00279951,10,0.00105371,-1.96869,-0.0227672,-2.59145,1112.43,-0.0980421,
2,0,0,1,1,68178.5,-0.095685,-0.0960451,-8.89935,35,-0.00289718,10,0.000854738,-2.05064,-0.0241021,-2.44792,854.824,-0.0960451,
2,0,0,1,1,68178.5,-0.0936874,-0.0940807,-7.36118,35,-0.00297812,10,0.000692545,-2.13305,-0.0236743,-2.49216,717.665,-0.0940807,
2,0,0,1,1,68178.5,-0.0916898,-0.0920638,-6.04211,35,-0.00304481,10,0.000556259,-2.21881,-0.0219523,-2.68764,632.187,-0.0920638,
2,0,0,1,1,68178.5,-0.0897013,-0.090132,-4.86491,35,-0.00309854,10,0.000438484,-2.31293,-0.0200104,-2.94847,556.73,-0.090132,
2,0,0,1,1,68178.5,-0.0877037,-0.0880472,-3.80596,35,-0.00314166,10,0.000335104,-2.41954,-0.0171939,-3.43145,503.292,-0.0880472,
2,0,0,1,1,68178.5,-0.0857062,-0.086096,-2.83358,35,-0.00317465,10,0.00024396,-2.54766,-0.0137346,-4.29571,465.837,-0.086096,
2,0,0,1,1,68178.5,-0.0837086,-0.0840744,-1.95529,35,-0.00319841,10,0.00016439,-2.70879,-0.0100253,-5.88512,426.096,-0.08407443,
2,0,0,1,1,68178.5,-0.0817019,-0.082105,-1.13303,35,-0.00321368,10,9.30276e-05,-2.94576,-0.00558571,-10.5627,396.9,-0.082105,
2,0,0,1,1,68178.6,-0.0797043,-0.0801086,-0.381257,35,-0.00322108,10,3.0542e-05,-3.41878,-0.00730891,-8.07234,361.426,-0.0801086,
2,1,0,1,1,68178.6,-0.0777067,-0.0780862,0.319447,35,-0.00322125,10,-2.49444e-05,-3.4956,0.00997735,5.91339,334.949,-0.07808622,
2,1,0,1,1,68178.6,-0.0757091,-0.0760985,0.961912,35,-0.00321471,10,-7.32001e-05,-3.01686,0.00577862,10.2101,314.545,-0.0760985,
2,1,0,1,1,68178.6,-0.0737025,-0.0740701,1.58271,35,-0.00320186,10,-0.000117231,-2.8006,0.0115581,5.10466,294.011,-0.0740701,
2,1,0,1,1,68178.6,-0.0717049,-0.0720694,2.14654,35,-0.00318308,10,-0.000154699,-2.66826,0.0173198,3.4065,276.751,-0.0720694,
2,1,0,1,1,68178.6,-0.0697073,-0.0701199,2.67593,35,-0.0031589,10,-0.000187636,-2.57253,0.0233511,2.52665,258.78,-0.0701199,
2,1,0,1,1,68178.6,-0.0677097,-0.0681209,3.16832,35,-0.00312958,10,-0.000215829,-2.49917,0.0297743,1.98157,242.606,-0.0681209,
2,1,0,1,1,68178.6,-0.0657212,-0.0661114,3.64841,35,-0.00309577,10,-0.000241201,-2.4379,0.0362345,1.62828,228.956,-0.0661114,
2,1,0,1,1,68178.6,-0.0637236,-0.0641581,4.07562,35,-0.00305706,10,-0.000261484,-2.38981,0.0439877,1.34128,212.407,-0.0641581,
2,1,0,1,1,68178.6,-0.061726,-0.0621182,4.4966,35,-0.00301415,10,-0.00027932,-2.34712,0.0523319,1.12742,196.501,-0.0621182,
2,1,0,1,1,68178.7,-0.0597284,-0.0600623,4.88046,35,-0.00296717,10,-0.000293131,-2.31154,0.0590728,0.998767,189.618,-0.0600623,
2,1,0,1,1,68178.7,-0.0577399,-0.058133,5.25225,35,-0.00291701,10,-0.000305329,-2.27965,0.0671453,0.878692,179.223,-0.058133,
2,1,0,1,1,68178.7,-0.0557423,-0.0561141,5.58806,35,-0.00286275,10,-0.000313569,-2.25274,0.0778928,0.757451,164.841,-0.0561141,
2,1,0,1,1,68178.7,-0.0537447,-0.0541221,5.91342,35,-0.0028052,10,-0.000320047,-2.22816,0.0881812,0.669077,153.809,-0.0541221,
2,1,0,1,1,68178.7,-0.0517472,-0.0521136,6.20338,35,-0.0027445,10,-0.00032328,-2.20737,0.0962563,0.612947,148.387,-0.0521136,
2,1,0,1,1,68178.7,-0.049745,-0.0501545,6.50215,35,-0.00268096,10,-0.000326112,-2.18694,0.105458,0.559466,141.524,-0.0501545,
2,1,0,1,1,68178.7,-0.0477429,-0.0481217,6.76832,35,-0.00261454,10,-0.000325703,-2.16952,0.121327,0.48629,128.239,-0.0481217,
2,1,0,1,1,68178.7,-0.0457453,-0.0461271,7.01863,35,-0.00254559,10,-0.000323749,-2.15375,0.136184,0.433238,118.35,-0.0461271,
2,1,0,1,1,68178.7,-0.0437477,-0.044168,7.23624,35,-0.00247425,10,-0.00031961,-2.14049,0.149047,0.395847,111.826,-0.044168,
2,1,0,1,1,68178.7,-0.0417501,-0.0421535,7.46298,35,-0.00240069,10,-0.000314591,-2.12709,0.158398,0.372479,108.348,-0.0421535,
2,1,0,1,1,68178.8,-0.0397435,-0.0401189,7.67495,35,-0.00232492,10,-0.000307911,-2.11492,0.179378,0.328915,98.3205,-0.0401189,
2,1,0,1,1,68178.8,-0.0377459,-0.0381226,7.8593,35,-0.00224724,10,-0.000299617,-2.10462,0.198974,0.296521,90.8992,-0.0381226,
2,1,0,1,1,68178.8,-0.0357483,-0.0361288,8.03765,35,-0.00216771,10,-0.000290391,-2.09487,0.212703,0.277382,86.9644,-0.0361288,
2,1,0,1,1,68178.8,-0.0337507,-0.0340891,8.21007,35,-0.00208646,10,-0.000279874,-2.08565,0.236469,0.249504,79.8105,-0.0340891,
2,1,0,1,1,68178.8,-0.0317622,-0.0321264,8.35709,35,-0.00200441,10,-0.000268483,-2.07795,0.257409,0.229207,74.7602,-0.0321264,
2,1,0,1,1,68178.8,-0.0297646,-0.0301206,8.50675,35,-0.00192009,10,-0.000256229,-2.07024,0.284101,0.207673,68.8364,-0.0301206,
2,1,0,1,1,68178.8,-0.027767,-0.0281483,8.63093,35,-0.00183435,10,-0.000242946,-2.06394,0.319185,0.184846,62.2578,-0.02814828,
2,1,0,1,1,68178.8,-0.0257694,-0.0261362,8.75482,35,-0.00174741,10,-0.000228817,-2.05775,0.337745,0.174688,59.6477,-0.02613616,
2,1,0,1,1,68178.8,-0.0237809,-0.0241654,8.8685,35,-0.00166012,10,-0.000214311,-2.05215,0.368023,0.160316,55.4625,-0.0241654,
2,1,0,1,1,68178.8,-0.0217833,-0.0221612,8.97528,35,-0.00157088,10,-0.000198903,-2.04695,0.429122,0.13749,48.097,-0.0221612,
2,1,0,1,1,68178.9,-0.0197858,-0.0201961,9.05941,35,-0.00148063,10,-0.000182965,-2.0429,0.453185,0.13019,46.0714,-0.0201961,
2,1,0,1,1,68178.9,-0.0177882,-0.0181407,9.16051,35,-0.0013895,10,-0.000166178,-2.03808,0.475785,0.124006,44.2803,-0.0181407,
2,1,0,1,1,68178.9,-0.0157815,-0.0161053,9.24055,35,-0.00129747,10,-0.000148822,-2.0343,0.541699,0.108917,39.2739,-0.0161053,
2,1,0,1,1,68178.9,-0.0137839,-0.014109,9.31885,35,-0.00120465,10,-0.000131479,-2.03064,0.629713,0.0936935,34.037,-0.014109,
2,1,0,1,1,68178.9,-0.0117863,-0.0121039,9.37674,35,-0.00111118,10,-0.000113496,-2.02795,0.691573,0.0853128,31.2331,-0.0121039,
2,1,0,1,1,68178.9,-0.00978874,-0.0101371,9.4429,35,-0.0010171,10,-9.57234e-05,-2.02489,0.668226,0.0882935,32.5311,-0.0101371,
2,1,0,1,1,68178.9,-0.00778208,-0.0081598,9.50505,35,-0.00092235,10,-7.75593e-05,-2.02205,0.836704,0.0705148,26.13,-0.0081598,
2,1,0,1,1,68178.9,-0.00578449,-0.00614175,9.5473,35,-0.00082714,10,-5.86372e-05,-2.02012,1.08562,0.0543471,20.2463,-0.006141752,
2,1,0,1,1,68178.9,-0.0037869,-0.00414452,9.58634,35,-0.000731448,10,-3.97308e-05,-2.01835,1.0696,0.0551607,20.6416,-0.00414452,
2,1,0,1,1,68178.9,-0.00178931,-0.0021473,9.62975,35,-0.000635355,10,-2.06779e-05,-2.01638,1.39184,0.04239,15.9084,-0.0021473,
2,1,0,1,1,68179,-2.55332e-05,-0.000401673,9.64589,35,-0.000551476,10,-3.87449e-06,-2.01566, , , ,-0.000401673,