File: Figure_codes/Fig_3-5/rawdata_trumpetplot_data/after 10th/20221101_1-115_003_TrumpetPlot_ParaChange_from10_every3_11_CV_C01_18.csv
mode,ox/red,error,control changes,counter inc.,time/s,control/V,Ewe/V,<I>/mA,cycle number,(Q-Qo)/C,I Range,P/W,log(|I|),Tafel slope mV/dec,alpha_eff,dI/d(E-IR),E-IR/V,
2,1,0,1,0,36656.9,2.44065e-05,-0.000248974,9.59246,19,0.0000000E+000,10,-2.38828e-06,-2.01807, , , ,-0.000248974,
2,1,0,1,0,36656.9,0.00214129,0.00174247,10.6584,19,5.21697e-05,10,1.8572e-05,-1.97231, , , ,0.00174247,
2,1,0,1,0,36656.9,0.0045495,0.00420685,11.4967,19,0.000118862,10,4.83649e-05,-1.93943,0.0821095,0.718553,316.899,0.00420685,
2,1,0,1,0,36656.9,0.0069466,0.00660443,12.1484,19,0.000189882,10,8.02334e-05,-1.91548,0.107089,0.550941,259.317,0.00660443,
2,1,0,1,0,36656.9,0.0093437,0.00900837,12.7247,19,0.000264587,10,0.000114629,-1.89535,0.125194,0.471269,232.816,0.00900837,
2,1,0,1,0,36656.9,0.0117408,0.0114091,13.2512,19,0.000342615,10,0.000151184,-1.87775,0.145271,0.406138,209.112,0.0114091,
2,1,0,1,0,36656.9,0.0141462,0.013759,13.7228,19,0.0004236,10,0.000188812,-1.86256,0.165442,0.35662,190.41,0.013759,
2,1,0,1,0,36656.9,0.0165433,0.0161884,14.1542,19,0.0005073,10,0.000229133,-1.84912,0.18495,0.319005,175.773,0.0161884,
2,1,0,1,0,36656.9,0.0189404,0.0186188,14.5607,19,0.000593516,10,0.000271104,-1.83682,0.206697,0.285442,161.864,0.0186188,
2,1,0,1,0,36656.9,0.0213486,0.0210143,14.9438,19,0.000682073,10,0.000314034,-1.82554,0.229213,0.257403,149.763,0.0210143,
2,1,0,1,0,36656.9,0.0237457,0.0233726,15.2824,19,0.00077279,10,0.00035719,-1.81581,0.250214,0.235798,140.489,0.0233726,
2,1,0,1,0,36656.9,0.0261429,0.0257914,15.6123,19,0.000865514,10,0.000402662,-1.80653,0.263653,0.223779,136.257,0.0257914,
2,1,0,1,0,36656.9,0.02854,0.0281911,15.9355,19,0.000960194,10,0.000449241,-1.79763,0.285543,0.206624,128.285,0.0281911,
2,1,0,1,0,36656.9,0.0309482,0.0305707,16.2301,19,0.00105675,10,0.000496166,-1.78968,0.305288,0.19326,122.3,0.03057068,
2,1,0,1,0,36657,0.0333453,0.0329884,16.5157,19,0.001155,10,0.000544825,-1.7821,0.327014,0.18042,116.251,0.0329884,
2,1,0,1,0,36657,0.0357424,0.0353923,16.7944,19,0.00125496,10,0.000594392,-1.77484,0.340905,0.173069,113.333,0.0353923,
2,1,0,1,0,36657,0.0381478,0.0377952,17.0577,19,0.00135657,10,0.0006447,-1.76808,0.356651,0.165428,110.105,0.0377952,
2,1,0,1,0,36657,0.0405449,0.040231,17.3181,19,0.00145973,10,0.000696725,-1.7615,0.374219,0.157662,106.577,0.040231,
2,1,0,1,0,36657,0.042942,0.0426434,17.5858,19,0.00156447,10,0.000749919,-1.75484,0.377344,0.156356,107.228,0.0426434,
2,1,0,1,0,36657,0.0453391,0.0449583,17.8209,19,0.00167073,10,0.000801199,-1.74907,0.395685,0.149109,103.732,0.0449583,
2,1,0,1,0,36657,0.0477473,0.0474152,18.08,19,0.0017785,10,0.000857268,-1.7428,0.403404,0.146255,103.153,0.0474152,
2,1,0,1,0,36657,0.0501444,0.0498118,18.3286,19,0.00188774,10,0.00091298,-1.73687,0.417484,0.141323,101.069,0.0498118,
2,1,0,1,0,36657,0.0525415,0.0522146,18.5731,19,0.00199846,10,0.000969787,-1.73112,0.422162,0.139757,101.285,0.0522146,
2,1,0,1,0,36657,0.0549469,0.0546069,18.8194,19,0.00211065,10,0.00102767,-1.72539,0.422027,0.139802,102.661,0.0546069,
2,1,0,1,0,36657,0.057344,0.0569886,19.0583,19,0.0022243,10,0.00108611,-1.71991,0.429671,0.137314,102.147,0.0569886,
2,1,0,1,0,36657,0.0597411,0.0593745,19.3084,19,0.00233944,10,0.00114642,-1.71425,0.431245,0.136813,103.074,0.0593745,
2,1,0,1,0,36657,0.0621438,0.0617954,19.5536,19,0.00245605,10,0.00120832,-1.70877,0.443559,0.133015,101.503,0.0617954,
2,1,0,1,0,36657,0.0645465,0.0641633,19.7879,19,0.00257411,10,0.00126966,-1.7036,0.437388,0.134892,104.233,0.0641633,
2,1,0,1,0,36657,0.0669436,0.0665959,20.049,19,0.00269367,10,0.00133518,-1.69791,0.444174,0.132831,103.883,0.0665959,
2,1,0,1,0,36657,0.0693407,0.0690062,20.2963,19,0.00281476,10,0.00140057,-1.69258,0.448513,0.131546,104.198,0.0690062,
2,1,0,1,0,36657,0.0717489,0.0713868,20.5521,19,0.00293731,10,0.00146715,-1.68714,0.444912,0.13261,106.386,0.0713868,
2,1,0,1,0,36657.1,0.074146,0.0737886,20.8085,19,0.00306139,10,0.00153543,-1.68176,0.45728,0.129024,104.745,0.0737886,
2,1,0,1,0,36657.1,0.0765431,0.0761873,21.0606,19,0.00318702,10,0.00160455,-1.67653,0.451458,0.130688,107.421,0.0761873,
2,1,0,1,0,36657.1,0.0789485,0.0785933,21.3177,19,0.00331414,10,0.00167543,-1.67126,0.451496,0.130677,108.725,0.0785933,
2,1,0,1,0,36657.1,0.0813456,0.0810004,21.5838,19,0.00344288,10,0.0017483,-1.66587,0.453387,0.130132,109.568,0.0810004,
2,1,0,1,0,36657.1,0.0837427,0.0833821,21.8408,19,0.00357318,10,0.00182113,-1.66073,0.467363,0.12624,107.569,0.0833821,
2,1,0,1,0,36657.1,0.0861398,0.0858115,22.0913,19,0.00370502,10,0.00189568,-1.65578,0.472786,0.124792,107.599,0.0858115,
2,1,0,1,0,36657.1,0.088548,0.0882144,22.3521,19,0.00383839,10,0.00197178,-1.65068,0.47655,0.123807,108,0.0882144,
2,1,0,1,0,36657.1,0.0909451,0.0905907,22.6128,19,0.00397331,10,0.00204851,-1.64565,0.496513,0.118829,104.837,0.0905907,
2,1,0,1,0,36657.1,0.0933422,0.0929947,22.8605,19,0.00410978,10,0.00212591,-1.64091,0.514556,0.114662,102.268,0.0929947,
2,1,0,1,0,36657.1,0.0957476,0.0953498,23.1074,19,0.0042477,10,0.00220329,-1.63625,0.503983,0.117067,105.635,0.0953498,
2,1,0,1,0,36657.1,0.0981448,0.0977729,23.3728,19,0.00438713,10,0.00228523,-1.63129,0.496136,0.118919,108.439,0.0977729,
2,1,0,1,0,36657.1,0.100542,0.100132,23.6345,19,0.00452817,10,0.00236658,-1.62645,0.49713,0.118681,109.434,0.100132,
2,1,0,1,0,36657.1,0.102939,0.102588,23.8848,19,0.00467074,10,0.0024503,-1.62188,0.503851,0.117098,109.198,0.102588,
2,1,0,1,0,36657.1,0.105347,0.105002,24.1605,19,0.00481491,10,0.00253689,-1.61689,0.507892,0.116166,109.462,0.105002,
2,1,0,1,0,36657.1,0.107744,0.107374,24.4046,19,0.00496065,10,0.00262042,-1.61253,0.531672,0.110971,105.675,0.1073738,
2,1,0,1,0,36657.1,0.110141,0.10981,24.6543,19,0.00510787,10,0.00270728,-1.60811,0.53241,0.110817,106.679,0.10981,
2,1,0,1,0,36657.1,0.11255,0.11225,24.9205,19,0.00525662,10,0.00279731,-1.60344,0.523242,0.112759,109.666,0.11225,
2,1,0,1,0,36657.2,0.114947,0.114588,25.1881,19,0.00540697,10,0.00288625,-1.5988,0.528012,0.11174,109.849,0.114588,
2,1,0,1,0,36657.2,0.117344,0.116984,25.455,19,0.00555891,10,0.00297783,-1.59423,0.517822,0.113939,113.204,0.116984,
2,1,0,1,0,36657.2,0.119744,0.119364,25.7293,19,0.00571247,10,0.00307115,-1.58957,0.509654,0.115765,116.287,0.119364,
2,1,0,1,0,36657.2,0.122146,0.121819,26.0154,19,0.00586773,10,0.00316917,-1.58477,0.492341,0.119836,121.695,0.121819,
2,1,0,1,0,36657.2,0.124543,0.124208,26.3157,19,0.00602476,10,0.00326861,-1.57979,0.494773,0.119247,122.419,0.124208,
2,1,0,1,0,36657.2,0.126941,0.126595,26.6032,19,0.00618355,10,0.00336782,-1.57507,0.478686,0.123254,128.064,0.126595,
2,1,0,1,0,36657.2,0.129349,0.129007,26.9248,19,0.00634415,10,0.00347349,-1.56985,0.465752,0.126677,133.162,0.129007,
2,1,0,1,0,36657.2,0.131746,0.131413,27.2577,19,0.00650673,10,0.00358202,-1.56451,0.46386,0.127194,135.24,0.131413,
2,1,0,1,0,36657.2,0.134143,0.133761,27.5705,19,0.00667125,10,0.00368786,-1.55955,0.461745,0.127776,137.557,0.133761,
2,1,0,1,0,36657.2,0.13654,0.136213,27.9005,19,0.00683768,10,0.0038004,-1.55439,0.456432,0.129263,140.812,0.136213,
2,1,0,1,0,36657.2,0.138945,0.138575,28.2484,19,0.00700621,10,0.00391453,-1.54901,0.460971,0.127991,141.059,0.138575,
2,1,0,1,0,36657.2,0.141343,0.141001,28.5853,19,0.00717676,10,0.00403057,-1.54386,0.471788,0.125056,139.502,0.1410014,
2,1,0,1,0,36657.2,0.14374,0.143385,28.9224,19,0.0073493,10,0.00414705,-1.53877,0.474112,0.124443,140.478,0.1433852,
2,1,0,1,0,36657.2,0.146148,0.145754,29.2671,19,0.0075239,10,0.0042658,-1.53362,0.481601,0.122508,139.857,0.145754,
2,1,0,1,0,36657.2,0.148545,0.148232,29.6015,19,0.00770053,10,0.0043879,-1.52869,0.508109,0.116117,134.075,0.148232,
2,1,0,1,0,36657.2,0.150942,0.150586,29.9096,19,0.0078791,10,0.00450398,-1.52419,0.514644,0.114642,133.831,0.150586,
2,1,0,1,0,36657.3,0.153345,0.15296,30.2267,19,0.00805954,10,0.00462347,-1.51961,0.527725,0.111801,131.896,0.1529596,
2,1,0,1,0,36657.3,0.155747,0.155384,30.5452,19,0.00824192,10,0.00474622,-1.51506,0.558603,0.105621,125.804,0.155384,
2,1,0,1,0,36657.3,0.158144,0.157796,30.8396,19,0.00842613,10,0.00486636,-1.51089,0.602389,0.0979433,117.822,0.157796,
2,1,0,1,0,36657.3,0.160542,0.160227,31.1055,19,0.00861198,10,0.00498393,-1.50716,0.633319,0.09316,113.105,0.160227,
2,1,0,1,0,36657.3,0.162947,0.162612,31.386,19,0.00879951,10,0.00510375,-1.50326,0.689256,0.0855995,104.743,0.162612,
2,1,0,1,0,36657.3,0.165344,0.164961,31.6212,19,0.0089886,10,0.00521628,-1.50002,0.785519,0.0751095,92.6185,0.164961,
2,1,0,1,0,36657.3,0.167741,0.167396,31.8322,19,0.00917899,10,0.00532858,-1.49713,0.863905,0.0682945,84.8048,0.167396,
2,1,0,1,0,36657.3,0.170149,0.16982,32.0347,19,0.00937059,10,0.00544014,-1.49438,1.05616,0.055863,69.7405,0.16982,
2,1,0,1,0,36657.3,0.172547,0.172202,32.1722,19,0.00956324,10,0.00554011,-1.49252,1.4003,0.0421339,52.8262,0.172202,
2,1,0,1,0,36657.3,0.174944,0.174578,32.2684,19,0.0097566,10,0.00563336,-1.49122,2.29215,0.0257401,32.3819,0.174578,
2,1,0,1,0,36657.3,0.177341,0.176986,32.3235,19,0.00995041,10,0.00572081,-1.49048,5.6996,0.0103516,13.0418,0.176986,
2,1,0,1,0,36657.3,0.179746,0.179433,32.3345,19,0.0101444,10,0.00580186,-1.49033,-7.10774,-0.00830081,-10.4559,0.179433,
2,1,0,1,0,36657.3,0.182143,0.181872,32.2791,19,0.0103383,10,0.00587065,-1.49108,-1.98735,-0.0296877,-37.3313,0.181872,
2,1,0,1,0,36657.3,0.18454,0.1842,32.1492,19,0.0105316,10,0.00592189,-1.49283,-1.24785,-0.0472813,-59.2499,0.1842,
2,1,0,1,0,36657.3,0.186949,0.186629,31.9886,19,0.010724,10,0.00596998,-1.495,-0.867627,-0.0680016,-84.7309,0.186629,
2,1,0,1,0,36657.3,0.189346,0.188986,31.7507,19,0.0109153,10,0.00600044,-1.49825,-0.640101,-0.0921729,-113.983,0.188986,
2,1,0,1,0,36657.3,0.191743,0.191383,31.4349,19,0.0111048,10,0.00601612,-1.50259,-0.528134,-0.111714,-136.92,0.191383,
2,1,0,1,0,36657.4,0.19414,0.193795,31.0909,19,0.0112924,10,0.00602526,-1.50737,-0.443433,-0.133053,-161.135,0.193795,
2,1,0,1,0,36657.4,0.196548,0.196257,30.684,19,0.0114777,10,0.00602195,-1.51309,-0.381166,-0.154788,-184.951,0.196257,
2,1,0,1,0,36657.4,0.198945,0.19865,30.1987,19,0.0116603,10,0.00599898,-1.52001,-0.33663,-0.175267,-206.297,0.1986504,
2,1,0,1,0,36657.4,0.201342,0.201005,29.6817,19,0.0118399,10,0.00596616,-1.52751,-0.307049,-0.192152,-222.301,0.201005,
2,1,0,1,0,36657.4,0.203748,0.203434,29.1318,19,0.0120163,10,0.00592639,-1.53563,-0.284643,-0.207277,-235.347,0.203434,
2,1,0,1,0,36657.4,0.206145,0.205776,28.5389,19,0.0121893,10,0.00587264,-1.54456,-0.265854,-0.221926,-247.04,0.205776,
2,1,0,1,0,36657.4,0.208542,0.208199,27.9314,19,0.0123587,10,0.00581531,-1.55391,-0.252708,-0.233471,-254.384,0.208199,
2,1,0,1,0,36657.4,0.210939,0.210601,27.3089,19,0.0125244,10,0.00575129,-1.5637,-0.240867,-0.244949,-260.973,0.210601,
2,1,0,1,0,36657.4,0.213347,0.213058,26.6862,19,0.0126863,10,0.00568572,-1.57371,-0.233871,-0.252275,-262.542,0.213058,
2,1,0,1,0,36657.4,0.215744,0.21544,26.0451,19,0.0128445,10,0.00561116,-1.58427,-0.22884,-0.257822,-262.118,0.21544,
2,1,0,1,0,36657.4,0.218141,0.217783,25.4219,19,0.0129988,10,0.00553648,-1.59479,-0.229188,-0.25743,-255.516,0.217783,
2,1,0,1,0,36657.4,0.220547,0.220236,24.8263,19,0.0131494,10,0.00546766,-1.60509,-0.228518,-0.258186,-250.041,0.220236,
2,1,0,1,0,36657.4,0.222944,0.22262,24.2186,19,0.0132965,10,0.00539154,-1.61585,-0.2288,-0.257868,-243.891,0.22262,
2,1,0,1,0,36657.4,0.225341,0.225027,23.641,19,0.01344,10,0.00531986,-1.62633,-0.233387,-0.252799,-233.511,0.225027,
2,1,0,1,0,36657.4,0.227744,0.227464,23.1047,19,0.0135802,10,0.00525548,-1.6363,-0.239337,-0.246515,-222.307,0.227464,
2,1,0,1,0,36657.4,0.230146,0.229842,22.5708,19,0.0137172,10,0.00518772,-1.64645,-0.241177,-0.244634,-215.681,0.229842,
2,1,0,1,0,36657.4,0.232543,0.232175,22.0675,19,0.0138511,10,0.00512353,-1.65625,-0.25015,-0.235859,-203.35,0.232175,
2,1,0,1,0,36657.5,0.234941,0.234616,21.605,19,0.013982,10,0.00506888,-1.66545,-0.258714,-0.228051,-192.389,0.234616,
2,1,0,1,0,36657.5,0.237349,0.237031,21.1567,19,0.0141103,10,0.00501478,-1.67455,-0.268579,-0.219675,-181.463,0.237031,
2,1,0,1,0,36657.5,0.239746,0.239388,20.7295,19,0.0142358,10,0.0049624,-1.68341,-0.274743,-0.214747,-173.921,0.239388,
2,1,0,1,0,36657.5,0.242143,0.241807,20.3251,19,0.014359,10,0.00491474,-1.69197,-0.289165,-0.204036,-162.048,0.241807,
2,1,0,1,0,36657.5,0.244548,0.244201,19.9655,19,0.0144798,10,0.0048756,-1.69972,-0.300227,-0.196518,-153.183,0.244201,
2,1,0,1,0,36657.5,0.246946,0.24669,19.6042,19,0.0145984,10,0.00483616,-1.70765,-0.311508,-0.189401,-144.983,0.24669,
2,1,0,1,0,36657.5,0.249343,0.249031,19.2639,19,0.014715,10,0.00479731,-1.71526,-0.330424,-0.178558,-134.395,0.249031,
2,1,0,1,0,36657.5,0.25174,0.251404,18.9518,19,0.0148296,10,0.00476456,-1.72235,-0.350413,-0.168373,-124.603,0.251404,
2,1,0,1,0,36657.5,0.254148,0.253853,18.6606,19,0.0149424,10,0.00473704,-1.72907,-0.357169,-0.165188,-120.352,0.253853,
2,1,0,1,0,36657.5,0.256545,0.256204,18.377,19,0.0150535,10,0.00470826,-1.73573,-0.374527,-0.157532,-113.114,0.256204,
2,1,0,1,0,36657.5,0.258942,0.258628,18.1257,19,0.015163,10,0.00468782,-1.7417,-0.396259,-0.148893,-105.343,0.258628,
2,1,0,1,0,36657.5,0.261348,0.261008,17.8777,19,0.0152709,10,0.00466621,-1.74769,-0.405198,-0.145608,-101.617,0.261008,
2,1,0,1,0,36657.5,0.263745,0.263429,17.6357,19,0.0153774,10,0.00464574,-1.75361,-0.425818,-0.138557,-95.4606,0.263429,
2,1,0,1,0,36657.5,0.266142,0.265827,17.4204,19,0.0154826,10,0.00463082,-1.75894,-0.457358,-0.129002,-87.7434,0.265827,
2,1,0,1,0,36657.5,0.268539,0.268207,17.205,19,0.0155864,10,0.00461449,-1.76435,-0.46551,-0.126743,-85.164,0.268207,
2,1,0,1,0,36657.5,0.270947,0.270623,17.0171,19,0.0156891,10,0.00460522,-1.76912,-0.489699,-0.120482,-80.0289,0.270623,
2,1,0,1,0,36657.6,0.273344,0.273015,16.8289,19,0.0157906,10,0.00459454,-1.77394,-0.509043,-0.115904,-76.1569,0.273015,
2,1,0,1,0,36657.6,0.275741,0.275391,16.6448,19,0.015891,10,0.00458383,-1.77872,-0.538812,-0.1095,-71.175,0.275391,
2,1,0,1,0,36657.6,0.278149,0.27781,16.4822,19,0.0159904,10,0.00457893,-1.78298,-0.549934,-0.107286,-69.0002,0.27781,
2,1,0,1,0,36657.6,0.280547,0.280212,16.3121,19,0.0160887,10,0.00457084,-1.78749,-0.569908,-0.103526,-65.9715,0.2802116,
2,1,0,1,0,36657.6,0.282944,0.282596,16.1692,19,0.0161862,10,0.00456937,-1.79131,-0.595827,-0.0990221,-62.5018,0.282596,
2,1,0,1,0,36657.6,0.285344,0.285018,16.0229,19,0.0162827,10,0.00456683,-1.79526,-0.603816,-0.0977118,-61.0907,0.285018,
2,1,0,1,0,36657.6,0.287746,0.287411,15.8754,19,0.0163784,10,0.00456277,-1.79927,-0.635044,-0.092907,-57.6092,0.287411,
2,1,0,1,0,36657.6,0.290143,0.289828,15.744,19,0.0164732,10,0.00456306,-1.80288,-0.653818,-0.0902391,-55.4591,0.289828,
2,1,0,1,0,36657.6,0.29254,0.292262,15.6227,19,0.0165673,10,0.00456594,-1.80624,-0.702849,-0.0839441,-51.1679,0.292262,
2,1,0,1,0,36657.6,0.294949,0.294613,15.4948,19,0.0166606,10,0.00456497,-1.80981,-0.720251,-0.0819159,-49.5516,0.294613,
2,1,0,1,0,36657.6,0.297346,0.297064,15.3768,19,0.0167532,10,0.00456788,-1.81313,-0.764857,-0.0771387,-46.3468,0.297064,
2,1,0,1,0,36657.6,0.299621,0.299284,15.2667,19,0.0168406,10,0.00456906,-1.81626,-0.0889206,-0.663513,-383.732,0.299284,
2,1,0,1,0,36657.6,0.299962,0.29967,15.1406,19,0.0168588,10,0.00453718,-1.81986,0.0122836,4.80315,2435,0.29967,
2,1,0,1,0,36657.6,0.297903,0.297606,11.866,19,0.0169263,10,0.00353139,-1.9257,0.0208251,2.83312,1279.08,0.2976065,
2,1,0,1,0,36657.6,0.295506,0.295232,9.26727,19,0.0169892,10,0.002736,-2.03305,0.0219159,2.69211,990.22,0.295232,
2,1,0,1,0,36657.6,0.293101,0.29279,7.21469,19,0.0170382,10,0.00211239,-2.14178,0.0210308,2.80541,791.335,0.29279,
2,1,0,1,0,36657.6,0.290704,0.290399,5.50037,19,0.017076,10,0.0015973,-2.25961,0.0190858,3.0913,657.278,0.2903989,
2,1,0,1,0,36657.6,0.288307,0.288003,4.03764,19,0.0171044,10,0.00116285,-2.39387,0.0159001,3.71067,570.322,0.288003,
2,1,0,1,0,36657.7,0.28591,0.285598,2.78773,19,0.0171246,10,0.000796172,-2.55475,0.0121137,4.8705,495.194,0.285598,
2,1,0,1,0,36657.7,0.283501,0.2832,1.67418,19,0.0171378,10,0.000474128,-2.7762,0.00715804,8.24248,433.71,0.2832,
2,1,0,1,0,36657.7,0.281104,0.280834,0.6966,19,0.0171448,10,0.000195629,-3.15702,0.00918848,6.42108,382.8,0.280834,
2,0,0,1,0,36657.7,0.278707,0.278371,-0.150771,19,0.0171463,10,-4.19703e-05,-3.82168,-0.108156,-0.54551,338.768,0.278371,
2,0,0,1,0,36657.7,0.276302,0.275984,-0.92514,19,0.017143,10,-0.000255324,-3.03379,-0.00537463,-10.9775,306.038,0.275984,
2,0,0,1,0,36657.7,0.273905,0.27358,-1.6064,19,0.0171353,10,-0.000439479,-2.79415,-0.0114959,-5.13227,274.389,0.27358,
2,0,0,1,0,36657.7,0.271507,0.27119,-2.22911,19,0.0171237,10,-0.000604512,-2.65187,-0.0192643,-3.06265,248.819,0.27119,
2,0,0,1,0,36657.7,0.269105,0.268779,-2.79772,19,0.0171085,10,-0.00075197,-2.5532,-0.0271838,-2.17041,227.239,0.268779,
2,0,0,1,0,36657.7,0.266702,0.266382,-3.30291,19,0.0170902,10,-0.000879835,-2.4811,-0.0362833,-1.62609,204.283,0.266382,
2,0,0,1,0,36657.7,0.264305,0.264009,-3.77364,19,0.0170689,10,-0.000996274,-2.42324,-0.0455259,-1.29596,187.195,0.264009,
2,0,0,1,0,36657.7,0.261908,0.261575,-4.20162,19,0.0170449,10,-0.00109904,-2.37658,-0.0549523,-1.07366,173.964,0.261575,
2,0,0,1,0,36657.7,0.2595,0.259196,-4.59596,19,0.0170185,10,-0.00119126,-2.33762,-0.0657144,-0.897825,159.633,0.259196,
2,0,0,1,0,36657.7,0.257103,0.256768,-4.96963,19,0.0169897,10,-0.00127604,-2.30368,-0.0776498,-0.759822,145.97,0.256768,
2,0,0,1,0,36657.7,0.254706,0.254374,-5.30567,19,0.0169588,10,-0.00134962,-2.27526,-0.0888704,-0.663888,136.659,0.2543737,
2,0,0,1,0,36657.7,0.2523,0.251982,-5.6234,19,0.016926,10,-0.001417,-2.25,-0.102149,-0.577586,126.204,0.251982,
2,0,0,1,0,36657.7,0.249903,0.24959,-5.91919,19,0.0168914,10,-0.00147737,-2.22774,-0.112754,-0.523262,120.23,0.2495902,
2,0,0,1,0,36657.7,0.247506,0.247183,-6.19608,19,0.016855,10,-0.00153157,-2.20788,-0.126155,-0.467679,112.685,0.247183,
2,0,0,1,0,36657.8,0.245109,0.244804,-6.4489,19,0.016817,10,-0.00157871,-2.19051,-0.140271,-0.420616,105.686,0.244804,
2,0,0,1,0,36657.8,0.242701,0.242405,-6.70444,19,0.0167775,10,-0.00162519,-2.17364,-0.151774,-0.388737,101.414,0.242405,
2,0,0,1,0,36657.8,0.240304,0.239994,-6.9349,19,0.0167366,10,-0.00166433,-2.15896,-0.170311,-0.346425,93.5497,0.239994,
2,0,0,1,0,36657.8,0.237906,0.237626,-7.14931,19,0.0166943,10,-0.00169886,-2.14574,-0.184252,-0.320213,89.2129,0.237626,
2,0,0,1,0,36657.8,0.235501,0.235181,-7.36203,19,0.0166507,10,-0.00173141,-2.133,-0.199027,-0.296442,85.0977,0.235181,
2,0,0,1,0,36657.8,0.233104,0.232785,-7.56715,19,0.0166059,10,-0.00176152,-2.12107,-0.21168,-0.278723,82.1453,0.232785,
2,0,0,1,0,36657.8,0.230707,0.230387,-7.76135,19,0.0165599,10,-0.00178812,-2.11006,-0.22848,-0.258229,78.0989,0.230387,
2,0,0,1,0,36657.8,0.22831,0.228009,-7.93513,19,0.0165128,10,-0.00180928,-2.10045,-0.24468,-0.241131,74.7082,0.228009,
2,0,0,1,0,36657.8,0.225902,0.225613,-8.11555,19,0.0164646,10,-0.00183098,-2.09068,-0.255201,-0.23119,73.1288,0.225613,
2,0,0,1,0,36657.8,0.223504,0.223228,-8.28838,19,0.0164153,10,-0.0018502,-2.08153,-0.27917,-0.211341,68.2722,0.2232285,
2,0,0,1,0,36657.8,0.221107,0.220805,-8.44099,19,0.0163651,10,-0.00186382,-2.07361,-0.285259,-0.20683,68.195,0.220805,
2,0,0,1,0,36657.8,0.218699,0.218356,-8.61957,19,0.016314,10,-0.00188213,-2.06451,-0.296192,-0.199195,66.8496,0.218356,
2,0,0,1,0,36657.8,0.216302,0.215977,-8.76462,19,0.0162618,10,-0.00189296,-2.05727,-0.326437,-0.180739,61.752,0.215977,
2,0,0,1,0,36657.8,0.213905,0.213582,-8.91119,19,0.0162087,10,-0.00190327,-2.05006,-0.337886,-0.174615,60.7481,0.213582,
2,0,0,1,0,36657.8,0.211505,0.211223,-9.05381,19,0.0161549,10,-0.00191237,-2.04317,-0.346745,-0.170154,60.1162,0.211223,
2,0,0,1,0,36657.8,0.209102,0.208786,-9.19871,19,0.0161001,10,-0.00192056,-2.03627,-0.349512,-0.168807,60.582,0.208786,
2,0,0,1,0,36657.9,0.206705,0.206357,-9.34405,19,0.0160444,10,-0.00192821,-2.02946,-0.378694,-0.155799,56.7505,0.206357,
2,0,0,1,0,36657.9,0.204308,0.203991,-9.47139,19,0.0159879,10,-0.00193208,-2.02359,-0.373735,-0.157866,58.394,0.203991,
2,0,0,1,0,36657.9,0.2019,0.201599,-9.62213,19,0.0159307,10,-0.00193982,-2.01673,-0.389721,-0.15139,56.7907,0.2015994,
2,0,0,1,0,36657.9,0.199503,0.1992,-9.75238,19,0.0158725,10,-0.00194267,-2.01089,-0.410332,-0.143786,54.6505,0.1992,
2,0,0,1,0,36657.9,0.197106,0.196749,-9.86641,19,0.0158137,10,-0.00194121,-2.00584,-0.41037,-0.143773,55.4485,0.196749,
2,0,0,1,0,36657.9,0.194709,0.194366,-10.0001,19,0.015754,10,-0.00194368,-2,-0.417493,-0.14132,55.1908,0.194366,
2,0,0,1,0,36657.9,0.192303,0.191951,-10.1395,19,0.0156936,10,-0.00194629,-1.99398,-0.426232,-0.138422,54.7042,0.191951,
2,0,0,1,0,36657.9,0.189906,0.189581,-10.2584,19,0.0156323,10,-0.00194479,-1.98892,-0.449905,-0.131139,52.5394,0.189581,
2,0,0,1,0,36657.9,0.187509,0.187187,-10.3863,19,0.0155704,10,-0.00194419,-1.98354,-0.45193,-0.130551,52.9647,0.187187,
2,0,0,1,0,36657.9,0.185101,0.184728,-10.5346,19,0.0155076,10,-0.00194604,-1.97738,-0.436814,-0.135069,55.4522,0.184728,
2,0,0,1,0,36657.9,0.182704,0.18237,-10.6557,19,0.015444,10,-0.00194328,-1.97242,-0.472063,-0.124983,51.9929,0.18237,
2,0,0,1,0,36657.9,0.180307,0.17996,-10.786,19,0.0153797,10,-0.00194104,-1.96714,-0.439814,-0.134148,56.5157,0.17996,
2,0,0,1,0,36657.9,0.177904,0.177555,-10.9234,19,0.0153146,10,-0.0019395,-1.96164,-0.438646,-0.134505,57.3471,0.177555,
2,0,0,1,0,36657.9,0.175501,0.175175,-11.066,19,0.0152486,10,-0.00193849,-1.95601,-0.442183,-0.133429,57.6042,0.175175,
2,0,0,1,0,36657.9,0.173104,0.172808,-11.1951,19,0.0151818,10,-0.00193461,-1.95097,-0.448898,-0.131433,57.4509,0.1728083,
2,0,0,1,0,36657.9,0.170707,0.170392,-11.3328,19,0.0151142,10,-0.00193102,-1.94566,-0.41587,-0.141871,62.8521,0.170392,
2,0,0,1,0,36657.9,0.168302,0.167997,-11.4971,19,0.0150457,10,-0.00193148,-1.93941,-0.405765,-0.145405,65.1955,0.167997,
2,0,0,1,0,36658,0.165905,0.165567,-11.6568,19,0.0149762,10,-0.00192998,-1.93342,-0.416731,-0.141578,64.3832,0.1655668,
2,0,0,1,0,36658,0.163507,0.163182,-11.8009,19,0.0149058,10,-0.0019257,-1.92808,-0.388075,-0.152032,70.1794,0.163182,
2,0,0,1,0,36658,0.161099,0.160762,-12.0013,19,0.0148344,10,-0.00192936,-1.92077,-0.370937,-0.159057,74.4012,0.160762,
2,0,0,1,0,36658,0.158702,0.158357,-12.1645,19,0.0147619,10,-0.00192633,-1.91491,-0.357697,-0.164944,78.3736,0.158357,
2,0,0,1,0,36658,0.156305,0.156011,-12.3565,19,0.0146883,10,-0.00192775,-1.90811,-0.343793,-0.171615,82.9199,0.156011,
2,0,0,1,0,36658,0.153908,0.153581,-12.5716,19,0.0146136,10,-0.00193075,-1.90061,-0.316533,-0.186394,91.5117,0.153581,
2,0,0,1,0,36658,0.151503,0.15117,-12.7957,19,0.0145374,10,-0.00193432,-1.89294,-0.300174,-0.196553,98.2126,0.15117,
2,0,0,1,0,36658,0.149105,0.148788,-13.0385,19,0.0144599,10,-0.00193997,-1.88477,-0.288511,-0.204499,104.148,0.148788,
2,0,0,1,0,36658,0.146708,0.14638,-13.2974,19,0.0143809,10,-0.00194647,-1.87623,-0.264861,-0.222759,115.791,0.14638,
2,0,0,1,0,36658,0.1443,0.144019,-13.5988,19,0.0143002,10,-0.00195849,-1.8665,-0.247667,-0.238223,126.534,0.144019,
2,0,0,1,0,36658,0.141903,0.141583,-13.9146,19,0.0142177,10,-0.00197007,-1.85653,-0.231535,-0.254821,138.514,0.1415825,
2,0,0,1,0,36658,0.139506,0.139212,-14.2503,19,0.0141332,10,-0.00198382,-1.84618,-0.216147,-0.272963,152.251,0.1392125,
2,0,0,1,0,36658,0.137109,0.136784,-14.6365,19,0.0140465,10,-0.00200204,-1.83456,-0.199625,-0.295554,169.191,0.136784,
2,0,0,1,0,36658,0.134701,0.134379,-15.0694,19,0.0139573,10,-0.00202501,-1.82191,-0.19195,-0.307371,180.885,0.134379,
2,0,0,1,0,36658,0.132303,0.131989,-15.5117,19,0.0138656,10,-0.00204738,-1.80934,-0.180615,-0.326662,198.257,0.131989,
2,0,0,1,0,36658,0.129906,0.12955,-16.016,19,0.013771,10,-0.00207488,-1.79545,-0.172297,-0.342432,214.251,0.12955,
2,0,0,1,0,36658,0.127501,0.127156,-16.5571,19,0.0136732,10,-0.00210533,-1.78102,-0.168222,-0.350728,226.604,0.127156,
2,0,0,1,0,36658.1,0.125104,0.124756,-17.103,19,0.0135722,10,-0.0021337,-1.76693,-0.16585,-0.355744,237.787,0.124756,
2,0,0,1,0,36658.1,0.122707,0.122402,-17.6845,19,0.0134678,10,-0.00216462,-1.75241,-0.162166,-0.363824,251.319,0.122402,
2,0,0,1,0,36658.1,0.12031,0.12001,-18.2945,19,0.0133598,10,-0.00219552,-1.73768,-0.164106,-0.359525,256.758,0.12001,
2,0,0,1,0,36658.1,0.117901,0.117575,-18.924,19,0.013248,10,-0.00222499,-1.72299,-0.168805,-0.349517,257.998,0.117575,
2,0,0,1,0,36658.1,0.115504,0.115187,-19.5488,19,0.0131325,10,-0.00225177,-1.70888,-0.174596,-0.337922,257.738,0.115187,
2,0,0,1,0,36658.1,0.113107,0.112776,-20.171,19,0.0130133,10,-0.00227479,-1.69527,-0.176118,-0.335002,263.704,0.112776,
2,0,0,1,0,36658.1,0.110702,0.110356,-20.8173,19,0.0128903,10,-0.00229731,-1.68158,-0.182675,-0.322978,261.998,0.110356,
2,0,0,1,0,36658.1,0.108305,0.107999,-21.4371,19,0.0127635,10,-0.00231519,-1.66883,-0.194012,-0.304105,254.006,0.107999,
2,0,0,1,0,36658.1,0.105908,0.105614,-22.0336,19,0.012633,10,-0.00232704,-1.65691,-0.202279,-0.291676,250.708,0.105614,
2,0,0,1,0,36658.1,0.103505,0.103179,-22.6211,19,0.012499,10,-0.00233402,-1.64549,-0.210545,-0.280225,247.302,0.103179,
2,0,0,1,0,36658.1,0.101102,0.10086,-23.2064,19,0.0123614,10,-0.00234059,-1.63439,-0.21622,-0.27287,246.962,0.10086,
2,0,0,1,0,36658.1,0.0987052,0.0984314,-23.8008,19,0.0122203,10,-0.00234275,-1.62341,-0.231511,-0.254848,236.42,0.0984314,
2,0,0,1,0,36658.1,0.0963081,0.0960423,-24.3565,19,0.0120758,10,-0.00233925,-1.61339,-0.246102,-0.239738,227.593,0.0960423,
2,0,0,1,0,36658.1,0.0938999,0.0936182,-24.8925,19,0.011928,10,-0.00233039,-1.60393,-0.261773,-0.225386,218.749,0.0936182,
2,0,0,1,0,36658.1,0.0915028,0.0912015,-25.4026,19,0.011777,10,-0.00231675,-1.59512,-0.281687,-0.209452,207.46,0.0912015,
2,0,0,1,0,36658.1,0.0891057,0.0887817,-25.8941,19,0.0116231,10,-0.00229892,-1.5868,-0.301583,-0.195634,197.467,0.0887817,
2,0,0,1,0,36658.2,0.0867002,0.086399,-26.364,19,0.0114663,10,-0.00227782,-1.57899,-0.327642,-0.180075,185.002,0.086399,
2,0,0,1,0,36658.2,0.0843031,0.0840046,-26.787,19,0.0113068,10,-0.00225023,-1.57208,-0.361727,-0.163106,170.294,0.0840046,
2,0,0,1,0,36658.2,0.081906,0.0816494,-27.1815,19,0.0111448,10,-0.00221935,-1.56573,-0.378334,-0.155947,165.334,0.0816494,
2,0,0,1,0,36658.2,0.0795089,0.0792688,-27.5658,19,0.0109806,10,-0.00218511,-1.55963,-0.42262,-0.139605,150.024,0.0792688,
2,0,0,1,0,36658.2,0.0771007,0.0767959,-27.9152,19,0.010814,10,-0.00214377,-1.55416,-0.46148,-0.12785,139.103,0.0767959,
2,0,0,1,0,36658.2,0.0747036,0.0744726,-28.2187,19,0.0106456,10,-0.00210152,-1.54946,-0.518694,-0.113747,125.222,0.0744726,
2,0,0,1,0,36658.2,0.0723065,0.0720029,-28.5122,19,0.0104753,10,-0.00205296,-1.54497,-0.575924,-0.102444,113.877,0.07200288,
2,0,0,1,0,36658.2,0.0699011,0.0696032,-28.7828,19,0.0103034,10,-0.00200338,-1.54087,-0.676224,-0.0872492,97.8566,0.0696032,
2,0,0,1,0,36658.2,0.067504,0.0671759,-28.985,19,0.0101301,10,-0.0019471,-1.53783,-0.790951,-0.0745937,84.3216,0.06717591,
2,0,0,1,0,36658.2,0.0651069,0.0647826,-29.1866,19,0.0099555,10,-0.00189078,-1.53482,-0.908387,-0.0649503,73.8978,0.0647826,
2,0,0,1,0,36658.2,0.0627098,0.0624062,-29.3326,19,0.00977991,10,-0.00183054,-1.53265,-1.18018,-0.0499923,57.1898,0.0624062,
2,0,0,1,0,36658.2,0.0603016,0.0599598,-29.4662,19,0.00960347,10,-0.00176679,-1.53068,-1.44308,-0.0408847,46.9816,0.0599598,
2,0,0,1,0,36658.2,0.0579045,0.0575697,-29.5634,19,0.00942637,10,-0.00170196,-1.52925,-1.8235,-0.0323554,37.3071,0.0575697,
2,0,0,1,0,36658.2,0.0555074,0.0552018,-29.6428,19,0.00924874,10,-0.00163633,-1.52808,-2.30598,-0.0255856,29.582,0.0552018,
2,0,0,1,0,36658.2,0.0530992,0.0527448,-29.7148,19,0.00907067,10,-0.0015673,-1.52703,-3.48086,-0.0169498,19.6321,0.0527448,
2,0,0,1,0,36658.2,0.0507021,0.0503706,-29.7441,19,0.00889232,10,-0.00149823,-1.5266,-5.45079,-0.0108241,12.5569,0.0503706,
2,0,0,1,0,36658.2,0.048305,0.0479815,-29.7622,19,0.00871383,10,-0.00142803,-1.52634,-9.33203,-0.00632231,7.34064,0.0479815,
2,0,0,1,0,36658.3,0.0459051,0.0455521,-29.7703,19,0.00853523,10,-0.0013561,-1.52622,59.2428,0.000995902,-1.15636,0.0455521,
2,0,0,1,0,36658.3,0.0435024,0.0432171,-29.7502,19,0.00835663,10,-0.00128572,-1.52651,15.8307,0.00372692,-4.32787,0.0432171,
2,0,0,1,0,36658.3,0.0411053,0.0408004,-29.7421,19,0.00817814,10,-0.00121349,-1.52663,7.71115,0.00765126,-8.87943,0.0408004,
2,0,0,1,0,36658.3,0.0387082,0.038336,-29.7209,19,0.00799973,10,-0.00113938,-1.52694,5.54795,0.0106346,-12.3313,0.038336,
2,0,0,1,0,36658.3,0.0363,0.0360074,-29.6857,19,0.00782152,10,-0.0010689,-1.52745,4.42981,0.0133189,-15.4278,0.0360074,
2,0,0,1,0,36658.3,0.0339029,0.0335706,-29.6479,19,0.00764354,10,-0.000995296,-1.52801,3.63905,0.016213,-18.7513,0.0335706,
2,0,0,1,0,36658.3,0.0315058,0.0311931,-29.5966,19,0.0074658,10,-0.000923211,-1.52876,3.19089,0.0184902,-21.3511,0.0311931,
2,0,0,1,0,36658.3,0.0291087,0.0288083,-29.5336,19,0.00728842,10,-0.000850811,-1.52968,2.75716,0.0213988,-24.6698,0.0288083,
2,0,0,1,0,36658.3,0.0267033,0.0264086,-29.4798,19,0.00711137,10,-0.000778519,-1.53048,2.58925,0.0227866,-26.2083,0.0264086,
2,0,0,1,0,36658.3,0.0243062,0.0239845,-29.4101,19,0.00693469,10,-0.000705387,-1.5315,2.19467,0.0268833,-30.8478,0.0239845,
2,0,0,1,0,36658.3,0.0219091,0.0215668,-29.3351,19,0.00675844,10,-0.000632664,-1.53261,2.08829,0.0282528,-32.3448,0.0215668,
2,0,0,1,0,36658.3,0.0195009,0.0191703,-29.2535,19,0.00658267,10,-0.000560796,-1.53382,1.82086,0.0324022,-36.9853,0.0191703,
2,0,0,1,0,36658.3,0.0171038,0.0167536,-29.1668,19,0.00640741,10,-0.000488648,-1.53511,1.73868,0.0339338,-38.6259,0.0167536,
2,0,0,1,0,36658.3,0.0147067,0.0143984,-29.0789,19,0.0062327,10,-0.00041869,-1.53642,1.60322,0.036801,-41.738,0.0143984,
2,0,0,1,0,36658.3,0.012304,0.0119669,-28.9691,19,0.00605858,10,-0.000346671,-1.53806,1.43398,0.0411441,-46.4981,0.0119669,
2,0,0,1,0,36658.3,0.00990136,0.00959372,-28.8476,19,0.00588514,10,-0.000276756,-1.53989,1.37778,0.0428225,-48.2061,0.00959372,
2,0,0,1,0,36658.3,0.00750426,0.00716115,-28.7363,19,0.00571239,10,-0.000205785,-1.54157,1.19095,0.0495404,-55.5189,0.00716115,
2,0,0,1,0,36658.4,0.00510715,0.00475826,-28.584,19,0.00554043,10,-0.00013601,-1.54388,1.27777,0.0461741,-51.5613,0.00475826,
2,0,0,1,0,36658.4,0.00270173,0.00240628,-28.4425,19,0.00536935,10,-6.84408e-05,-1.54603,1.13347,0.0520526,-57.8026,0.00240628,
2,0,0,1,0,36658.4,0.000304623,-7.50676e-05,-28.3264,19,0.00519894,10,2.12639e-06,-1.54781,1.01527,0.0581124,-64.1531,-7.50676e-05,
2,0,0,1,0,36658.4,-0.00209248,-0.00244508,-28.1375,19,0.00502953,10,6.87984e-05,-1.55071,0.847354,0.0696285,-76.4655,-0.00244508,
2,0,0,1,0,36658.4,-0.00450068,-0.00483417,-27.9695,19,0.00486124,10,0.000135209,-1.55332,0.812648,0.0726022,-79.2042,-0.00483417,
2,0,0,1,0,36658.4,-0.00689779,-0.00727311,-27.7749,19,0.00469405,10,0.00020201,-1.55635,0.791491,0.0745429,-80.7526,-0.00727311,
2,0,0,1,0,36658.4,-0.00929489,-0.00967917,-27.5686,19,0.00452806,10,0.000266841,-1.55958,0.741209,0.0795997,-85.6285,-0.00967917,
2,0,0,1,0,36658.4,-0.011692,-0.0120799,-27.357,19,0.0043633,10,0.00033047,-1.56293,0.733324,0.0804556,-85.9042,-0.0120799,
2,0,0,1,0,36658.4,-0.0140974,-0.0144648,-27.1446,19,0.00419979,10,0.000392641,-1.56632,0.712575,0.0827983,-87.7351,-0.01446479,
2,0,0,1,0,36658.4,-0.0164945,-0.0168475,-26.9404,19,0.00403753,10,0.000453879,-1.5696,0.686832,0.0859016,-90.3043,-0.0168475,
2,0,0,1,0,36658.4,-0.0188916,-0.0192504,-26.7194,19,0.00387657,10,0.00051436,-1.57317,0.679986,0.0867665,-90.4887,-0.0192504,
2,0,0,1,0,36658.4,-0.0212998,-0.021665,-26.5034,19,0.00371693,10,0.000574194,-1.5767,0.70798,0.0833357,-86.2321,-0.021665,
2,0,0,1,0,36658.4,-0.0236969,-0.024105,-26.3079,19,0.00355851,10,0.00063415,-1.57991,0.712192,0.0828428,-85.0059,-0.024105,
2,0,0,1,0,36658.4,-0.026094,-0.0264962,-26.0949,19,0.00340134,10,0.000691414,-1.58344,0.709169,0.0831959,-84.7615,-0.0264962,
2,0,0,1,0,36658.4,-0.0284912,-0.0288672,-25.8886,19,0.00324543,10,0.000747334,-1.58689,0.760136,0.0776177,-78.4773,-0.0288672,
2,0,0,1,0,36658.4,-0.0308994,-0.0313051,-25.7169,19,0.00309061,10,0.00080507,-1.58978,0.784081,0.0752474,-75.5045,-0.0313051,
2,0,0,1,0,36658.5,-0.0332965,-0.0336582,-25.5343,19,0.00293689,10,0.000859439,-1.59288,0.796573,0.0740673,-73.8434,-0.0336582,
2,0,0,1,0,36658.5,-0.0356936,-0.0360504,-25.3592,19,0.00278426,10,0.000914211,-1.59586,0.888948,0.0663706,-65.7422,-0.0360504,
2,0,0,1,0,36658.5,-0.038099,-0.0385,-25.2167,19,0.00263255,10,0.000970843,-1.59831,0.969002,0.0608874,-59.9223,-0.0385,
2,0,0,1,0,36658.5,-0.0404961,-0.0408626,-25.0635,19,0.00248172,10,0.00102416,-1.60096,0.983054,0.060017,-58.7355,-0.04086256,
2,0,0,1,0,36658.5,-0.0428932,-0.04324,-24.9283,19,0.00233174,10,0.0010779,-1.60331,1.13906,0.051797,-50.4285,-0.04324,
2,0,0,1,0,36658.5,-0.0452903,-0.0456577,-24.8144,19,0.00218253,10,0.00113297,-1.6053,1.23701,0.0476955,-46.2083,-0.04565772,
2,0,0,1,0,36658.5,-0.0476985,-0.0480786,-24.7168,19,0.00203394,10,0.00118835,-1.60701,1.38638,0.0425567,-41.0527,-0.0480786,
2,0,0,1,0,36658.5,-0.0500956,-0.0504804,-24.6162,19,0.00188596,10,0.00124263,-1.60878,1.45543,0.0405378,-38.9591,-0.0504804,
2,0,0,1,0,36658.5,-0.0524927,-0.0528664,-24.526,19,0.00173853,10,0.0012966,-1.61037,1.7726,0.0332845,-31.8926,-0.0528664,
2,0,0,1,0,36658.5,-0.0548981,-0.0552703,-24.4686,19,0.00159158,10,0.00135239,-1.61139,2.10574,0.0280186,-26.7648,-0.0552703,
2,0,0,1,0,36658.5,-0.0572953,-0.0576371,-24.4096,19,0.00144495,10,0.0014069,-1.61244,2.5126,0.0234816,-22.3706,-0.0576371,
2,0,0,1,0,36658.5,-0.0596924,-0.0600517,-24.3533,19,0.00129868,10,0.00146246,-1.61344,3.45816,0.0170611,-16.2307,-0.06005168,
2,0,0,1,0,36658.5,-0.062095,-0.0624355,-24.3226,19,0.00115268,10,0.00151859,-1.61399,4.8383,0.0121944,-11.5786,-0.0624355,
2,0,0,1,0,36658.5,-0.0644977,-0.0648702,-24.3095,19,0.00100677,10,0.00157696,-1.61422,6.95978,0.00847728,-8.03962,-0.0648702,
2,0,0,1,0,36658.5,-0.0668948,-0.06729,-24.2789,19,0.000861041,10,0.00163373,-1.61477,9.80425,0.0060178,-5.70563,-0.06729,
2,0,0,1,0,36658.5,-0.0692919,-0.0697077,-24.2691,19,0.000715389,10,0.00169174,-1.61495,-32.4844,-0.00181625,1.72136,-0.0697077,
2,0,0,1,0,36658.5,-0.0717001,-0.0720767,-24.2842,19,0.00056971,10,0.00175032,-1.61468,-15.5291,-0.00379932,3.60147,-0.0720767,
2,0,0,1,0,36658.6,-0.0740972,-0.0744541,-24.2933,19,0.000423978,10,0.00180874,-1.61451,-10.0149,-0.00589124,5.58858,-0.0744541,
2,0,0,1,0,36658.6,-0.0764943,-0.0768941,-24.3106,19,0.000278151,10,0.00186934,-1.6142,-5.27052,-0.0111943,10.6272,-0.0768941,
2,0,0,1,0,36658.6,-0.0788997,-0.0792737,-24.3518,19,0.000132182,10,0.00193046,-1.61347,-4.1203,-0.0143193,13.6113,-0.0792737,
2,0,0,1,0,36658.6,-0.0812968,-0.0816384,-24.3897,19,-1.40431e-05,10,0.00199114,-1.61279,-3.26021,-0.018097,17.2228,-0.0816384,
2,0,0,1,0,36658.6,-0.0836939,-0.0840975,-24.4327,19,-0.000160498,10,0.00205473,-1.61203,-2.64967,-0.0222669,21.2424,-0.0840975,
2,0,0,1,0,36658.6,-0.086091,-0.0864452,-24.4827,19,-0.000307221,10,0.00211642,-1.61114,-2.04441,-0.0288592,27.5925,-0.08644522,
2,0,0,1,0,36658.6,-0.0884992,-0.0889138,-24.5666,19,-0.000454387,10,0.00218431,-1.60966,-1.95513,-0.030177,28.915,-0.0889138,
2,0,0,1,0,36658.6,-0.0908963,-0.0912319,-24.6164,19,-0.000601963,10,0.0022458,-1.60878,-1.96251,-0.0300635,28.9054,-0.0912319,
2,0,0,1,0,36658.6,-0.0932935,-0.0936443,-24.7014,19,-0.000749919,10,0.00231315,-1.60728,-1.64341,-0.0359011,34.6347,-0.0936443,
2,0,0,1,0,36658.6,-0.0956989,-0.096026,-24.8041,19,-0.000898425,10,0.00238184,-1.60548,-1.4895,-0.0396106,38.3303,-0.096026,
2,0,0,1,0,36658.6,-0.098096,-0.0984586,-24.8784,19,-0.00104748,10,0.00244949,-1.60418,-1.79063,-0.0329493,31.954,-0.0984586,
2,0,0,0,0,36658.6,-0.0999548,-0.100209,-24.9403,19,-0.00116462,10,0.00249924,-1.6031,0.0286764,2.05744,-1887.85,-0.100209,
2,0,0,1,1,36658.6,-0.0994554,-0.099888,-23.6831,19,-0.00120568,10,0.00236565,-1.62556,-0.0267828,-2.20291,1868.71,-0.099888,
2,0,0,1,1,36658.6,-0.0970583,-0.0974745,-19.8402,19,-0.00133517,10,0.00193391,-1.70245,-0.0326972,-1.80444,1417.52,-0.0974745,
2,0,0,1,1,36658.6,-0.0946501,-0.0950642,-16.9251,19,-0.00144494,10,0.00160897,-1.77147,-0.0350066,-1.6854,1123.26,-0.0950642,
2,0,0,1,1,36658.6,-0.092253,-0.0926274,-14.4476,19,-0.00153866,10,0.00133824,-1.8402,-0.0342541,-1.72242,974.851,-0.0926274,
2,0,0,1,1,36658.6,-0.0898559,-0.0902606,-12.2802,19,-0.00161851,10,0.00110842,-1.91079,-0.0325385,-1.81324,867.495,-0.0902606,
2,0,0,1,1,36658.6,-0.0874588,-0.0878778,-10.3196,19,-0.00168604,10,0.000906868,-1.98634,-0.0300698,-1.9621,785.499,-0.0878778,
2,0,0,1,1,36658.7,-0.0850534,-0.0854559,-8.5141,19,-0.00174226,10,0.000727579,-2.06986,-0.0271449,-2.17352,717.039,-0.0854559,
2,0,0,1,1,36658.7,-0.0826563,-0.0830763,-6.88154,19,-0.0017882,10,0.000571693,-2.16231,-0.0235936,-2.50068,660.438,-0.0830763,
2,0,0,1,1,36658.7,-0.0802592,-0.0806586,-5.35955,19,-0.00182473,10,0.000432294,-2.27087,-0.0195375,-3.01983,613.575,-0.0806586,
2,0,0,1,1,36658.7,-0.077851,-0.0782249,-3.93039,19,-0.00185243,10,0.000307455,-2.40556,-0.0149648,-3.94257,575.113,-0.0782249,
2,0,0,1,1,36658.7,-0.0754539,-0.0758252,-2.62108,19,-0.00187193,10,0.000198744,-2.58152,-0.00996481,-5.92083,528.848,-0.0758252,
2,0,0,1,1,36658.7,-0.0730568,-0.0734648,-1.39216,19,-0.0018838,10,0.000102275,-2.85631,-0.00481541,-12.2523,501.025,-0.0734648,
2,0,0,1,1,36658.7,-0.0706597,-0.0710237,-0.239462,19,-0.00188852,10,1.70075e-05,-3.62076,-0.0375663,-1.57056,468.453,-0.0710237,
2,1,0,1,1,36658.7,-0.0682542,-0.0686166,0.865572,19,-0.00188648,10,-5.93926e-05,-3.0627,0.0114547,5.15073,441.026,-0.0686166,
2,1,0,1,1,36658.7,-0.0658571,-0.0661978,1.8798,19,-0.00187811,10,-0.000124438,-2.72589,0.00805026,7.32895,413.634,-0.0661978,
2,1,0,1,1,36658.7,-0.06346,-0.063867,2.83423,19,-0.00186385,10,-0.000181014,-2.54756,0.0152674,3.86444,392.875,-0.063867,
2,1,0,1,1,36658.7,-0.0610518,-0.0614588,3.76602,19,-0.00184394,10,-0.000231455,-2.42412,0.022203,2.6573,370.531,-0.0614588,
2,1,0,1,1,36658.7,-0.0586547,-0.0590772,4.61904,19,-0.00181867,10,-0.00027288,-2.33545,0.0297741,1.98159,346.81,-0.0590772,
2,1,0,1,1,36658.7,-0.0562576,-0.0566902,5.4232,19,-0.00178846,10,-0.000307442,-2.26574,0.0372876,1.5823,329.432,-0.0566902,
2,1,0,1,1,36658.7,-0.053855,-0.0542608,6.22008,19,-0.00175345,10,-0.000337506,-2.2062,0.044914,1.31362,313.497,-0.0542608,
2,1,0,1,1,36658.7,-0.0514523,-0.051895,6.94773,19,-0.00171385,10,-0.000360553,-2.15816,0.0532058,1.1089,297.099,-0.051895,
2,1,0,1,1,36658.7,-0.0490552,-0.0494709,7.64143,19,-0.00167,10,-0.000378029,-2.11683,0.0624671,0.944498,279.476,-0.0494709,
2,1,0,1,1,36658.8,-0.0466581,-0.0470723,8.29937,19,-0.0016221,10,-0.000390671,-2.08095,0.07056,0.836168,268.99,-0.0470723,
2,1,0,1,1,36658.8,-0.0442527,-0.0446567,8.93498,19,-0.0015703,10,-0.000399007,-2.04891,0.0797546,0.73977,256.099,-0.0446567,
2,1,0,1,1,36658.8,-0.0418556,-0.0422496,9.51511,19,-0.00151487,10,-0.000402009,-2.02159,0.0922931,0.639268,236.154,-0.0422496,
2,1,0,1,1,36658.8,-0.0394585,-0.0398658,10.0744,19,-0.00145602,10,-0.000401624,-1.99678,0.101592,0.580753,227.579,-0.0398658,
2,1,0,1,1,36658.8,-0.0370558,-0.0374438,10.6143,19,-0.00139391,10,-0.00039744,-1.97411,0.113086,0.521729,215.201,-0.0374438,
2,1,0,1,1,36658.8,-0.0346532,-0.0350123,11.1159,19,-0.00132864,10,-0.000389194,-1.95405,0.126295,0.467162,201.745,-0.0350123,
2,1,0,1,1,36658.8,-0.032256,-0.0326508,11.5791,19,-0.0012605,10,-0.000378065,-1.93633,0.14057,0.41972,189.282,-0.0326508,
2,1,0,1,1,36658.8,-0.0298589,-0.0302341,12.0241,19,-0.00118965,10,-0.000363537,-1.91995,0.152253,0.387514,181.448,-0.0302341,
2,1,0,1,1,36658.8,-0.0274535,-0.0278673,12.4578,19,-0.00111612,10,-0.000347165,-1.90456,0.167176,0.352921,170.986,-0.0278673,
2,1,0,1,1,36658.8,-0.0250564,-0.0254252,12.8412,19,-0.00104017,10,-0.000326489,-1.8914,0.185176,0.318616,159.485,-0.0254252,
2,1,0,1,1,36658.8,-0.0226593,-0.0230223,13.2212,19,-0.000961933,10,-0.000304383,-1.87873,0.198713,0.296911,152.95,-0.0230223,
2,1,0,1,1,36658.8,-0.0202511,-0.0206395,13.5905,19,-0.000881464,10,-0.000280501,-1.86677,0.216287,0.272785,144.278,-0.0206395,
2,1,0,1,1,36658.8,-0.017854,-0.0182345,13.9071,19,-0.000798923,10,-0.00025359,-1.85676,0.239227,0.246628,133.681,-0.0182345,
2,1,0,1,1,36658.8,-0.0154569,-0.0158317,14.2219,19,-0.000714487,10,-0.000225155,-1.84704,0.257231,0.229366,127.239,-0.0158317,
2,1,0,1,1,36658.8,-0.0130598,-0.013468,14.5141,19,-0.000628227,10,-0.000195476,-1.83821,0.273578,0.215661,122.091,-0.013468,
2,1,0,1,1,36658.8,-0.0106516,-0.0110227,14.8108,19,-0.000540183,10,-0.000163255,-1.82942,0.299047,0.197293,113.823,-0.0110227,
2,1,0,1,1,36658.8,-0.00825448,-0.00861983,15.0625,19,-0.000450523,10,-0.000129836,-1.8221,0.332289,0.177556,104.296,-0.00861983,
2,1,0,1,1,36658.9,-0.00585738,-0.00622649,15.3079,19,-0.000359397,10,-9.53145e-05,-1.81508,0.351304,0.167946,100.297,-0.00622649,
2,1,0,1,1,36658.9,-0.00345195,-0.00381936,15.5552,19,-0.00026679,10,-5.94109e-05,-1.80812,0.374347,0.157608,95.4463,-0.00381936,
2,1,0,1,1,36658.9,-0.00105485,-0.00145148,15.7535,19,-0.000172816,10,-2.28658e-05,-1.80262, , , ,-0.00145148,
2,1,0,0,1,36658.9,-7.54729e-05,-0.00042076,15.83,19,-0.000133324,10,-6.66064e-06,-1.80052, , , ,-0.00042076,