File: Figure_codes/Fig_3-5/rawdata_trumpetplot_data/after 10th/20221101_1-115_003_TrumpetPlot_ParaChange_from10_every3_14_CV_C01_2.csv
mode,ox/red,error,control changes,counter inc.,time/s,control/V,Ewe/V,<I>/mA,cycle number,(Q-Qo)/C,I Range,P/W,log(|I|),Tafel slope mV/dec,alpha_eff,dI/d(E-IR),E-IR/V,
2,1,0,1,0,5139.37,2.44065e-05,-0.000268062,45.6828,3,0.0000000E+000,10,-1.22458e-05,-1.34025, , , ,-0.000268062,
2,1,0,1,0,5139.37,0.00332042,0.0029227,46.9992,3,0.000144165,10,0.000137365,-1.32791, , , ,0.0029227,
2,1,0,1,0,5139.38,0.0073156,0.00694482,48.0292,3,0.000334385,10,0.000333555,-1.31849, , , ,0.006944824,
2,1,0,1,0,5139.38,0.0113108,0.0108948,48.9028,3,0.00052838,10,0.000532788,-1.31067,0.545403,0.108177,205.285,0.0108948,
2,1,0,1,0,5139.38,0.0153059,0.0149339,49.6384,3,0.000725552,10,0.000741296,-1.30418,0.626854,0.0941208,181.717,0.0149339,
2,1,0,1,0,5139.39,0.0193011,0.0189412,50.2876,3,0.000925502,10,0.000952507,-1.29854,0.728783,0.0809569,158.494,0.0189412,
2,1,0,1,0,5139.39,0.0233462,0.0229654,50.9405,3,0.0011281,10,0.00116987,-1.29294,0.824518,0.0715569,141.772,0.0229654,
2,1,0,1,0,5139.4,0.0273414,0.0269483,51.4472,3,0.00133293,10,0.00138642,-1.28864,0.929378,0.0634833,127.092,0.0269483,
2,1,0,1,0,5139.4,0.0313366,0.030963,51.9108,3,0.00153971,10,0.00160732,-1.28474,1.08289,0.0544837,110.174,0.030963,
2,1,0,1,0,5139.4,0.0353317,0.0349343,52.3202,3,0.0017482,10,0.00182777,-1.28133,1.18097,0.0499588,101.889,0.0349343,
2,1,0,1,0,5139.41,0.0393269,0.0389171,52.6979,3,0.00195829,10,0.00205085,-1.27821,1.26864,0.0465065,95.5984,0.0389171,
2,1,0,1,0,5139.41,0.0433221,0.0429424,53.0768,3,0.00216986,10,0.00227925,-1.2751,1.33548,0.0441788,91.4637,0.0429424,
2,1,0,1,0,5139.42,0.0473173,0.0469465,53.4388,3,0.00238293,10,0.00250877,-1.27214,1.3865,0.0425531,88.6909,0.0469465,
2,1,0,1,0,5139.42,0.0513124,0.0509294,53.7831,3,0.00259742,10,0.00273914,-1.26935,1.44066,0.0409534,85.9248,0.0509294,
2,1,0,1,0,5139.42,0.0553076,0.0549399,54.119,3,0.00281326,10,0.00297329,-1.26665,1.41617,0.0416618,88.0292,0.0549399,
2,1,0,1,0,5139.43,0.0593028,0.0589291,54.4504,3,0.00303042,10,0.00320872,-1.264,1.42661,0.0413567,87.9343,0.0589291,
2,1,0,1,0,5139.43,0.0633479,0.0629661,54.849,3,0.003249,10,0.00345363,-1.26083,1.33421,0.0442209,94.7018,0.0629661,
2,1,0,1,0,5139.44,0.0673431,0.0668811,55.1858,3,0.00346907,10,0.00369089,-1.25817,1.23327,0.0478403,103.2,0.06688112,
2,1,0,1,0,5139.44,0.0713383,0.0709594,55.6361,3,0.00369075,10,0.0039479,-1.25464,1.17375,0.0502663,109.306,0.0709594,
2,1,0,1,0,5139.44,0.0753334,0.074972,56.1061,3,0.00391426,10,0.00420638,-1.25099,1.08351,0.0544526,119.306,0.074972,
2,1,0,1,0,5139.45,0.0793286,0.0789666,56.598,3,0.00413969,10,0.00446935,-1.2472,1.02541,0.0575382,127.207,0.0789666,
2,1,0,1,0,5139.45,0.0833238,0.0829834,57.1069,3,0.00436716,10,0.00473893,-1.24331,0.976115,0.0604437,134.877,0.0829834,
2,1,0,1,0,5139.46,0.0873189,0.0869779,57.6737,3,0.00459678,10,0.00501634,-1.23902,0.924728,0.0638025,143.767,0.0869779,
2,1,0,1,0,5139.46,0.0913141,0.0909534,58.2616,3,0.00482869,10,0.00529909,-1.23462,0.873126,0.0675733,153.821,0.0909534,
2,1,0,1,0,5139.46,0.0953093,0.0949267,58.8925,3,0.00506306,10,0.00559048,-1.22994,0.825833,0.071443,164.447,0.0949267,
2,1,0,1,0,5139.47,0.0993045,0.0989743,59.5667,3,0.00530004,10,0.00589557,-1.225,0.776483,0.0759837,176.948,0.09897431,
2,1,0,1,0,5139.47,0.103319,0.102981,60.3053,3,0.00553981,10,0.00621028,-1.21964,0.744745,0.0792217,186.666,0.102981,
2,1,0,1,0,5139.48,0.107345,0.107007,61.1022,3,0.00578276,10,0.00653836,-1.21394,0.722131,0.0817027,194.86,0.107007,
2,1,0,1,0,5139.48,0.11134,0.110944,61.8824,3,0.00602879,10,0.0068655,-1.20843,0.706656,0.0834918,201.725,0.110944,
2,1,0,1,0,5139.48,0.115335,0.114964,62.6825,3,0.006278,10,0.00720624,-1.20285,0.696623,0.0846943,207.39,0.114964,
2,1,0,1,0,5139.49,0.11933,0.119017,63.5403,3,0.00653052,10,0.00756238,-1.19695,0.683839,0.0862776,214.101,0.119017,
2,1,0,1,0,5139.49,0.123325,0.122977,64.4142,3,0.0067865,10,0.00792144,-1.19102,0.663046,0.0889832,223.841,0.122977,
2,1,0,1,0,5139.5,0.127321,0.126996,65.3191,3,0.00704606,10,0.00829523,-1.18496,0.653669,0.0902597,230.223,0.126996,
2,1,0,1,0,5139.5,0.131316,0.130966,66.2643,3,0.00730932,10,0.00867835,-1.17872,0.642306,0.0918565,237.649,0.130966,
2,1,0,1,0,5139.5,0.135311,0.134948,67.2079,3,0.00757634,10,0.00906954,-1.17258,0.627801,0.0939788,246.71,0.134948,
2,1,0,1,0,5139.51,0.139306,0.138934,68.2063,3,0.00784727,10,0.00947615,-1.16618,0.61263,0.096306,256.727,0.138934,
2,1,0,1,0,5139.51,0.143301,0.14293,69.2503,3,0.00812225,10,0.00989797,-1.15958,0.594468,0.0992483,268.563,0.14293,
2,1,0,1,0,5139.52,0.147346,0.147028,70.3878,3,0.00840167,10,0.010349,-1.1525,0.586756,0.100553,276.27,0.1470277,
2,1,0,1,0,5139.52,0.151342,0.150963,71.509,3,0.00868554,10,0.0107952,-1.14564,0.577383,0.102185,285.205,0.150963,
2,1,0,1,0,5139.52,0.155337,0.154986,72.6411,3,0.00897393,10,0.0112584,-1.13882,0.57133,0.103268,292.995,0.154986,
2,1,0,1,0,5139.53,0.159332,0.158993,73.8316,3,0.00926701,10,0.0117387,-1.13176,0.568024,0.103869,299.478,0.158993,
2,1,0,1,0,5139.53,0.163327,0.162978,75.0613,3,0.00956489,10,0.0122334,-1.12458,0.560141,0.105331,308.62,0.162978,
2,1,0,1,0,5139.54,0.167322,0.166958,76.2992,3,0.00986775,10,0.0127388,-1.11748,0.563381,0.104725,311.801,0.166958,
2,1,0,1,0,5139.54,0.171317,0.170944,77.5661,3,0.0101756,10,0.0132595,-1.11033,0.574482,0.102701,310.693,0.170944,
2,1,0,1,0,5139.54,0.175313,0.174931,78.801,3,0.0104885,10,0.0137848,-1.10347,0.588001,0.10034,308.348,0.174931,
2,1,0,1,0,5139.55,0.179308,0.178951,80.0239,3,0.0108063,10,0.0143204,-1.09678,0.602677,0.0978966,305.621,0.178951,
2,1,0,1,0,5139.55,0.183303,0.182966,81.2352,3,0.0111289,10,0.0148633,-1.09026,0.630737,0.0935413,296.283,0.182966,
2,1,0,1,0,5139.56,0.187348,0.18699,82.4701,3,0.0114564,10,0.0154211,-1.0837,0.667876,0.0883398,283.667,0.18699,
2,1,0,1,0,5139.56,0.191343,0.191009,83.5646,3,0.0117886,10,0.0159616,-1.07798,0.724021,0.0814893,265.05,0.1910091,
2,1,0,1,0,5139.56,0.195338,0.194997,84.5757,3,0.0121249,10,0.016492,-1.07275,0.813164,0.0725561,238.88,0.1949973,
2,1,0,1,0,5139.57,0.199334,0.198999,85.4848,3,0.0124652,10,0.0170114,-1.06811,0.932598,0.0632641,210.45,0.198999,
2,1,0,1,0,5139.57,0.203329,0.202942,86.2807,3,0.0128088,10,0.01751,-1.06409,1.13886,0.0518061,173.8,0.202942,
2,1,0,1,0,5139.58,0.207324,0.207006,86.9312,3,0.0131554,10,0.0179953,-1.06082,1.56141,0.0377863,127.559,0.207006,
2,1,0,1,0,5139.58,0.211319,0.211032,87.3624,3,0.013504,10,0.0184362,-1.05868,2.86305,0.0206074,69.8407,0.211032,
2,1,0,1,0,5139.58,0.215314,0.214971,87.5222,3,0.0138539,10,0.0188147,-1.05788,127.149,0.000464023,1.5745,0.214971,
2,1,0,1,0,5139.59,0.219309,0.219005,87.4025,3,0.0142038,10,0.0191416,-1.05848,-2.65063,-0.0222589,-75.3679,0.2190049,
2,1,0,1,0,5139.59,0.223305,0.22296,86.9564,3,0.0145526,10,0.0193878,-1.0607,-1.27392,-0.0463137,-155.917,0.22296,
2,1,0,1,0,5139.6,0.227314,0.226983,86.1602,3,0.0148988,10,0.0195569,-1.06469,-0.796734,-0.0740523,-246.825,0.226983,
2,1,0,1,0,5139.6,0.231345,0.231059,85.0139,3,0.0152412,10,0.0196432,-1.07051,-0.573526,-0.102872,-338.076,0.231059,
2,1,0,1,0,5139.6,0.23534,0.235062,83.4393,3,0.0155781,10,0.0196134,-1.07863,-0.446105,-0.132256,-426.754,0.235062,
2,1,0,1,0,5139.61,0.239335,0.239048,81.5176,3,0.0159079,10,0.0194866,-1.08875,-0.364654,-0.161797,-510.604,0.239048,
2,1,0,1,0,5139.61,0.24333,0.243072,79.2944,3,0.0162294,10,0.0192742,-1.10076,-0.312985,-0.188508,-579.199,0.2430719,
2,1,0,1,0,5139.62,0.247326,0.247048,76.8494,3,0.0165415,10,0.0189855,-1.11436,-0.279453,-0.211127,-629.227,0.247048,
2,1,0,1,0,5139.62,0.251321,0.251014,74.1995,3,0.0168433,10,0.0186251,-1.1296,-0.255704,-0.230735,-665.002,0.251014,
2,1,0,1,0,5139.62,0.255316,0.255069,71.4363,3,0.0171344,10,0.0182212,-1.14608,-0.23901,-0.246852,-686.209,0.255069,
2,1,0,1,0,5139.63,0.259311,0.259065,68.659,3,0.0174143,10,0.0177871,-1.1633,-0.230388,-0.25609,-685.171,0.259065,
2,1,0,1,0,5139.63,0.263306,0.26302,65.8894,3,0.017683,10,0.0173302,-1.18118,-0.226286,-0.260732,-670.881,0.26302,
2,1,0,1,0,5139.64,0.267302,0.26706,63.2052,3,0.017941,10,0.0168796,-1.19925,-0.224219,-0.263135,-650.273,0.2670604,
2,1,0,1,0,5139.64,0.271347,0.27105,60.7154,3,0.0181885,10,0.0164569,-1.2167,-0.227832,-0.258963,-614.704,0.27105,
2,1,0,1,0,5139.64,0.275342,0.275043,58.2688,3,0.0184262,10,0.0160264,-1.23456,-0.232104,-0.254196,-579.841,0.275043,
2,1,0,1,0,5139.65,0.279337,0.279072,56.0225,3,0.0186545,10,0.0156343,-1.25164,-0.238762,-0.247108,-542.543,0.279072,
2,1,0,1,0,5139.65,0.283332,0.283044,53.9373,3,0.0188742,10,0.0152666,-1.26811,-0.250179,-0.235832,-498.689,0.283044,
2,1,0,1,0,5139.66,0.287327,0.287069,52.0241,3,0.0190859,10,0.0149345,-1.2838,-0.262616,-0.224663,-458.325,0.2870692,
2,1,0,1,0,5139.66,0.291322,0.291036,50.2932,3,0.0192903,10,0.0146371,-1.29849,-0.277813,-0.212373,-419.227,0.291036,
2,1,0,1,0,5139.66,0.295318,0.295059,48.695,3,0.019488,10,0.0143679,-1.31252,-0.288433,-0.204554,-394.959,0.295059,
2,1,0,1,0,5139.67,0.299013,0.298717,47.3666,3,0.0196657,10,0.0141492,-1.32453,-0.115433,-0.511119,-930.482,0.298717,
2,1,0,0,0,5139.67,0.300012,0.299766,47.0096,3,0.0197129,10,0.0140919,-1.32781,0.00286508,20.5928,32414.3,0.299766,
2,1,0,1,0,5139.67,0.298714,0.29868,43.1811,3,0.01977,10,0.0128973,-1.36471,0.029309,2.01304,2752.4,0.29868,
2,1,0,1,0,5139.67,0.294718,0.294575,32.9876,3,0.0199205,10,0.00971732,-1.48165,0.0326642,1.80626,2156.63,0.2945748,
2,1,0,1,0,5139.68,0.290723,0.290611,25.0548,3,0.0200354,10,0.00728119,-1.60111,0.0311886,1.89172,1859.94,0.290611,
2,1,0,1,0,5139.68,0.286728,0.286561,18.5329,3,0.0201216,10,0.00531083,-1.73206,0.0270879,2.17809,1532.03,0.286561,
2,1,0,1,0,5139.69,0.282733,0.282488,13.0662,3,0.020184,10,0.00369105,-1.88385,0.0216774,2.72173,1275.5,0.282488,
2,1,0,1,0,5139.69,0.278738,0.278564,8.4581,3,0.0202264,10,0.00235612,-2.07273,0.013403,4.40198,1081.4,0.278564,
2,1,0,1,0,5139.69,0.274742,0.274526,4.53795,3,0.0202518,10,0.00124578,-2.34314,0.0185921,3.1734,927.886,0.274526,
2,1,0,1,0,5139.7,0.270747,0.270511,1.17606,3,0.0202628,10,0.000318138,-2.92957,0.055081,1.07115,793.603,0.270511,
2,0,0,1,0,5139.7,0.266702,0.26647,-1.7971,3,0.0202611,10,-0.000478874,-2.74543,-0.102348,-0.576463,689.358,0.26647,
2,0,0,1,0,5139.71,0.262707,0.262468,-4.31568,3,0.0202485,10,-0.00113273,-2.36495,-0.0187534,-3.14609,598.883,0.262468,
2,0,0,1,0,5139.71,0.258712,0.258503,-6.50745,3,0.0202266,10,-0.0016822,-2.18659,-0.0212887,-2.77142,521.492,0.258503,
2,0,0,1,0,5139.71,0.254717,0.254467,-8.4324,3,0.0201965,10,-0.00214577,-2.07405,-0.037084,-1.59098,458.752,0.254467,
2,0,0,1,0,5139.72,0.250722,0.250472,-10.1396,3,0.0201591,10,-0.00253969,-1.99398,-0.0532962,-1.10702,405.961,0.250472,
2,0,0,1,0,5139.72,0.246726,0.246464,-11.6574,3,0.0201153,10,-0.00287312,-1.9334,-0.0701713,-0.840799,363.917,0.246464,
2,0,0,1,0,5139.73,0.242731,0.242423,-13.0353,3,0.0200657,10,-0.00316005,-1.88488,-0.0890804,-0.662323,324.761,0.242423,
2,0,0,1,0,5139.73,0.238736,0.238465,-14.2556,3,0.020011,10,-0.00339947,-1.84601,-0.108415,-0.544203,294.863,0.238465,
2,0,0,1,0,5139.73,0.234741,0.234437,-15.3473,3,0.0199517,10,-0.00359797,-1.81397,-0.12828,-0.459932,270.995,0.234437,
2,0,0,1,0,5139.74,0.230746,0.23046,-16.3763,3,0.0198881,10,-0.00377408,-1.78579,-0.150811,-0.391218,246.651,0.23046,
2,0,0,1,0,5139.74,0.226701,0.22644,-17.3665,3,0.0198206,10,-0.00393247,-1.76029,-0.171213,-0.3446,230.22,0.22644,
2,0,0,1,0,5139.75,0.222705,0.222411,-18.2155,3,0.0197493,10,-0.00405132,-1.73956,-0.197338,-0.29898,210.162,0.222411,
2,0,0,1,0,5139.75,0.21871,0.21848,-19.0209,3,0.0196747,10,-0.00415568,-1.72077,-0.224675,-0.262601,193.421,0.21848,
2,0,0,1,0,5139.75,0.214715,0.214397,-19.7521,3,0.0195971,10,-0.0042348,-1.70439,-0.246263,-0.239581,183.701,0.214397,
2,0,0,1,0,5139.76,0.21072,0.210424,-20.4644,3,0.0195166,10,-0.00430619,-1.689,-0.270675,-0.217974,173.374,0.2104241,
2,0,0,1,0,5139.76,0.206725,0.206428,-21.1515,3,0.0194333,10,-0.00436627,-1.67466,-0.287438,-0.205262,168.79,0.2064285,
2,0,0,1,0,5139.77,0.202729,0.20243,-21.8036,3,0.0193473,10,-0.0044137,-1.66147,-0.308862,-0.191024,162.019,0.20243,
2,0,0,1,0,5139.77,0.198734,0.198436,-22.4462,3,0.0192588,10,-0.00445414,-1.64886,-0.327104,-0.180371,157.583,0.198436,
2,0,0,1,0,5139.77,0.194739,0.19445,-23.0524,3,0.0191677,10,-0.00448255,-1.63728,-0.338058,-0.174526,156.888,0.19445,
2,0,0,1,0,5139.78,0.190744,0.19046,-23.6679,3,0.0190742,10,-0.00450778,-1.62584,-0.346791,-0.170131,157.26,0.19046,
2,0,0,1,0,5139.78,0.186735,0.186458,-24.3094,3,0.0189782,10,-0.00453268,-1.61423,-0.352057,-0.167587,158.965,0.186458,
2,0,0,1,0,5139.79,0.182704,0.1824,-24.9681,3,0.0188795,10,-0.00455417,-1.60261,-0.358719,-0.164474,160.024,0.1824,
2,0,0,1,0,5139.79,0.178709,0.178408,-25.6025,3,0.0187783,10,-0.00456771,-1.59172,-0.361674,-0.16313,162.928,0.178408,
2,0,0,1,0,5139.79,0.174713,0.174409,-26.2363,3,0.0186746,10,-0.00457586,-1.5811,-0.359843,-0.16396,168.215,0.174409,
2,0,0,1,0,5139.8,0.170718,0.170447,-26.918,3,0.0185682,10,-0.00458809,-1.56996,-0.350366,-0.168395,177.401,0.170447,
2,0,0,1,0,5139.8,0.166723,0.166431,-27.6543,3,0.018459,10,-0.00460253,-1.55824,-0.336256,-0.175461,189.86,0.166431,
2,0,0,1,0,5139.81,0.162728,0.162446,-28.4343,3,0.0183468,10,-0.00461903,-1.54616,-0.321696,-0.183403,204.12,0.162446,
2,0,0,1,0,5139.81,0.158733,0.158425,-29.2711,3,0.0182313,10,-0.00463728,-1.53356,-0.306578,-0.192447,220.651,0.158425,
2,0,0,1,0,5139.81,0.154737,0.154469,-30.1795,3,0.0181124,10,-0.00466178,-1.52029,-0.289533,-0.203777,241.095,0.154469,
2,0,0,1,0,5139.82,0.150742,0.150483,-31.1733,3,0.0179896,10,-0.00469104,-1.50622,-0.268864,-0.219442,268.655,0.150483,
2,0,0,1,0,5139.82,0.146747,0.1465,-32.2789,3,0.0178626,10,-0.00472884,-1.49108,-0.25481,-0.231545,293.528,0.1465,
2,0,0,1,0,5139.83,0.142702,0.142436,-33.5666,3,0.0177308,10,-0.0047811,-1.47409,-0.239766,-0.246073,323.641,0.142436,
2,0,0,1,0,5139.83,0.138707,0.138386,-34.9001,3,0.0175938,10,-0.0048297,-1.45717,-0.228159,-0.258592,353.625,0.138386,
2,0,0,1,0,5139.83,0.134712,0.134454,-36.3607,3,0.0174512,10,-0.00488885,-1.43937,-0.218923,-0.269501,384.429,0.134454,
2,0,0,1,0,5139.84,0.130717,0.13045,-37.9543,3,0.0173024,10,-0.00495115,-1.42074,-0.209054,-0.282224,420.149,0.13045,
2,0,0,1,0,5139.84,0.126721,0.126466,-39.7058,3,0.017147,10,-0.00502145,-1.40115,-0.203253,-0.290278,451.57,0.126466,
2,0,0,1,0,5139.85,0.122726,0.122472,-41.5866,3,0.0169842,10,-0.00509318,-1.38105,-0.199224,-0.296149,481.785,0.122472,
2,0,0,1,0,5139.85,0.118731,0.11847,-43.5788,3,0.0168137,10,-0.00516278,-1.36072,-0.198229,-0.297636,506.704,0.11847,
2,0,0,1,0,5139.85,0.114736,0.114472,-45.6524,3,0.0166351,10,-0.00522592,-1.34054,-0.198914,-0.296611,528.667,0.114472,
2,0,0,1,0,5139.86,0.110741,0.110517,-47.7875,3,0.016448,10,-0.00528133,-1.32069,-0.200996,-0.293538,547.854,0.110517,
2,0,0,1,0,5139.86,0.106745,0.106534,-50.0124,3,0.0162522,10,-0.00532802,-1.30092,-0.20712,-0.284859,555.51,0.106534,
2,0,0,1,0,5139.87,0.102703,0.102488,-52.3343,3,0.0160474,10,-0.00536366,-1.28121,-0.215763,-0.273448,556.216,0.1024885,
2,0,0,1,0,5139.87,0.0987052,0.0984568,-54.549,3,0.0158334,10,-0.00537072,-1.26321,-0.227665,-0.259153,549.247,0.0984568,
2,0,0,1,0,5139.87,0.09471,0.0944814,-56.7067,3,0.0156106,10,-0.00535773,-1.24637,-0.243788,-0.242014,533.545,0.0944814,
2,0,0,1,0,5139.88,0.0907148,0.0904646,-58.8385,3,0.0153793,10,-0.00532279,-1.23034,-0.260678,-0.226333,517.274,0.0904646,
2,0,0,1,0,5139.88,0.0867197,0.0865114,-60.8588,3,0.0151397,10,-0.00526498,-1.21568,-0.276255,-0.213571,505.412,0.0865114,
2,0,0,1,0,5139.89,0.0827245,0.082573,-62.7653,3,0.0148923,10,-0.00518272,-1.20228,-0.297237,-0.198495,485.029,0.082573,
2,0,0,1,0,5139.89,0.0787293,0.0785763,-64.7453,3,0.0146371,10,-0.00508745,-1.18879,-0.320159,-0.184284,463.798,0.0785763,
2,0,0,1,0,5139.89,0.0747341,0.0745807,-66.5426,3,0.0143743,10,-0.00496279,-1.1769,-0.344943,-0.171043,442.18,0.0745807,
2,0,0,1,0,5139.9,0.070739,0.0705565,-68.2587,3,0.0141045,10,-0.00481609,-1.16584,-0.381055,-0.154833,410.734,0.0705565,
2,0,0,1,0,5139.9,0.0667438,0.0665651,-69.8437,3,0.0138281,10,-0.00464915,-1.15587,-0.415982,-0.141833,385.208,0.0665651,
2,0,0,1,0,5139.91,0.0627403,0.0626056,-71.3051,3,0.0135456,10,-0.00446409,-1.14688,-0.461219,-0.127922,354.788,0.0626056,
2,0,0,1,0,5139.91,0.0587035,0.0585145,-72.7314,3,0.0132573,10,-0.00425584,-1.13828,-0.514215,-0.114738,324.294,0.0585145,
2,0,0,1,0,5139.91,0.0547083,0.0545189,-73.9486,3,0.0129638,10,-0.0040316,-1.13107,-0.58558,-0.100755,289.487,0.0545189,
2,0,0,1,0,5139.92,0.0507132,0.0504735,-75.0621,3,0.0126656,10,-0.00378864,-1.12458,-0.688556,-0.0856866,249.857,0.0504735,
2,0,0,1,0,5139.92,0.046718,0.0464365,-75.9858,3,0.0123634,10,-0.00352851,-1.11927,-0.824204,-0.0715842,211.305,0.0464365,
2,0,0,1,0,5139.93,0.0427228,0.0424833,-76.7369,3,0.0120578,10,-0.00326004,-1.115,-1.03801,-0.0568398,169.504,0.0424833,
2,0,0,1,0,5139.93,0.0387276,0.0384262,-77.3491,3,0.0117495,10,-0.00297223,-1.11154,-1.34508,-0.0438635,131.87,0.0384262,
2,0,0,1,0,5139.93,0.0347325,0.0344475,-77.7786,3,0.0114392,10,-0.00267928,-1.10914,-1.83554,-0.0321431,97.2355,0.0344475,
2,0,0,1,0,5139.94,0.0307373,0.0304784,-78.0902,3,0.0111274,10,-0.00238007,-1.1074,-2.75678,-0.0214018,65.0384,0.0304784,
2,0,0,1,0,5139.94,0.0267421,0.026468,-78.2942,3,0.0108146,10,-0.00207229,-1.10627,-4.15348,-0.014205,43.3112,0.026468,
2,0,0,1,0,5139.95,0.022747,0.0224533,-78.3879,3,0.0105012,10,-0.00176007,-1.10575,-9.95655,-0.00592575,18.093,0.0224533,
2,0,0,1,0,5139.95,0.0187018,0.0183696,-78.4749,3,0.0101874,10,-0.00144156,-1.10527,51.9953,0.00113472,-3.46599,0.0183696,
2,0,0,1,0,5139.95,0.0147067,0.0144228,-78.3807,3,0.00987372,10,-0.00113047,-1.10579,9.00771,0.00654995,-19.9968,0.0144228,
2,0,0,1,0,5139.96,0.0107115,0.0103911,-78.2385,3,0.00956048,10,-0.000812987,-1.10658,4.61749,0.0127775,-38.9774,0.0103911,
2,0,0,1,0,5139.96,0.00671632,0.00642098,-78.0673,3,0.00924788,10,-0.000501269,-1.10753,3.83006,0.0154045,-46.8954,0.00642098,
2,0,0,1,0,5139.97,0.00272115,0.00240416,-77.8526,3,0.00893607,10,-0.00018717,-1.10873,3.04012,0.0194071,-58.8999,0.00240416,
2,0,0,1,0,5139.97,-0.00127403,-0.00159039,-77.6297,3,0.00862507,10,0.000123461,-1.10997,2.48868,0.0237073,-71.6969,-0.00159039,
2,0,0,1,0,5139.97,-0.0052692,-0.00561887,-77.2955,3,0.00831525,10,0.000434314,-1.11185,2.11081,0.0279514,-84.1903,-0.00561887,
2,0,0,1,0,5139.98,-0.00926438,-0.00960176,-76.9185,3,0.00800686,10,0.000738554,-1.11397,1.78151,0.0331179,-99.3059,-0.00960176,
2,0,0,1,0,5139.98,-0.0132596,-0.0135677,-76.508,3,0.00770003,10,0.00103804,-1.11629,1.63895,0.0359988,-107.379,-0.0135677,
2,0,0,1,0,5139.99,-0.0172547,-0.0175792,-76.042,3,0.00739495,10,0.00133676,-1.11895,1.43675,0.041065,-121.702,-0.0175792,
2,0,0,1,0,5139.99,-0.0212915,-0.021665,-75.5725,3,0.00709181,10,0.00163727,-1.12164,1.25593,0.0469771,-138.218,-0.021665,
2,0,0,1,0,5139.99,-0.025295,-0.0256394,-74.9667,3,0.00679077,10,0.0019221,-1.12513,1.10659,0.053317,-155.613,-0.0256394,
2,0,0,1,0,5140,-0.0292902,-0.0296604,-74.2836,3,0.00649233,10,0.00220328,-1.12911,0.970984,0.0607631,-175.854,-0.02966042,
2,0,0,1,0,5140,-0.0332854,-0.0336401,-73.5427,3,0.00619673,10,0.00247398,-1.13346,0.882575,0.0668498,-191.564,-0.0336401,
2,0,0,1,0,5140.01,-0.0372805,-0.0376676,-72.7583,3,0.00590421,10,0.00274063,-1.13812,0.820462,0.0719107,-203.862,-0.0376676,
2,0,0,1,0,5140.01,-0.0412757,-0.0416123,-71.9069,3,0.00561495,10,0.00299221,-1.14323,0.77255,0.0763705,-214.063,-0.0416123,
2,0,0,1,0,5140.01,-0.0452709,-0.0456598,-71.022,3,0.00532919,10,0.00324285,-1.14861,0.739856,0.0797452,-220.914,-0.0456598,
2,0,0,1,0,5140.02,-0.0492661,-0.0495971,-70.1269,3,0.00504698,10,0.00347809,-1.15412,0.731933,0.0806085,-220.607,-0.0495971,
2,0,0,1,0,5140.02,-0.0532612,-0.0536087,-69.2367,3,0.00476836,10,0.00371169,-1.15966,0.731065,0.0807042,-218.175,-0.0536087,
2,0,0,1,0,5140.03,-0.0572564,-0.0576287,-68.3736,3,0.00449323,10,0.00394028,-1.16511,0.7676,0.076863,-205.372,-0.0576287,
2,0,0,1,0,5140.03,-0.0612544,-0.0615861,-67.5473,3,0.0042215,10,0.00415997,-1.17039,0.797363,0.0739939,-195.387,-0.0615861,
2,0,0,1,0,5140.03,-0.0652967,-0.0656644,-66.8271,3,0.00395273,10,0.00438816,-1.17505,0.844537,0.0698608,-182.406,-0.0656644,
2,0,0,1,0,5140.04,-0.0692919,-0.0696197,-66.1084,3,0.00368695,10,0.00460245,-1.17974,0.91996,0.0641333,-165.72,-0.0696197,
2,0,0,1,0,5140.04,-0.0732871,-0.0736419,-65.4527,3,0.00342392,10,0.00482006,-1.18407,0.991394,0.0595122,-152.374,-0.0736419,
2,0,0,1,0,5140.05,-0.0772822,-0.0776088,-64.892,3,0.00316329,10,0.00503619,-1.18781,1.11155,0.0530792,-134.701,-0.0776088,
2,0,0,1,0,5140.05,-0.0812774,-0.0815981,-64.3992,3,0.00290479,10,0.00525485,-1.19112,1.2894,0.0457578,-115.232,-0.0815981,
2,0,0,1,0,5140.05,-0.0852726,-0.0856149,-63.9538,3,0.00264814,10,0.0054754,-1.19413,1.50069,0.0393152,-98.3536,-0.08561492,
2,0,0,1,0,5140.06,-0.0892678,-0.0896254,-63.6109,3,0.00239306,10,0.00570115,-1.19647,1.79971,0.032783,-81.5568,-0.0896254,
2,0,0,1,0,5140.06,-0.0932629,-0.0936231,-63.3169,3,0.00213927,10,0.00592792,-1.19848,2.31485,0.0254876,-63.1115,-0.0936231,
2,0,0,1,0,5140.07,-0.0972581,-0.0975805,-63.0957,3,0.00188649,10,0.00615692,-1.2,3.26129,0.018091,-44.658,-0.0975805,
2,0,0,1,0,5140.07,-0.101253,-0.101607,-62.9445,3,0.00163446,10,0.0063956,-1.20104,4.67772,0.012613,-31.045,-0.101607,
2,0,0,1,0,5140.07,-0.105298,-0.105669,-62.8944,3,0.00138282,10,0.006646,-1.20139,8.1059,0.00727865,-17.8824,-0.105669,
2,0,0,1,0,5140.08,-0.109294,-0.109619,-62.8203,3,0.00113141,10,0.00688632,-1.2019,22.4818,0.00262435,-6.4415,-0.109619,
2,0,0,1,0,5140.08,-0.113289,-0.113623,-62.8088,3,0.000880196,10,0.00713656,-1.20198,-79.8753,-0.000738652,1.81349,-0.113623,
2,0,0,1,0,5140.09,-0.117284,-0.117608,-62.8415,3,0.000628898,10,0.00739069,-1.20175,-11.3832,-0.00518307,12.7278,-0.117608,
2,0,0,1,0,5140.09,-0.121279,-0.121646,-62.9233,3,0.00037738,10,0.0076544,-1.20119,-6.45059,-0.00914645,22.4841,-0.121646,
2,0,0,1,0,5140.09,-0.125274,-0.125613,-63.0239,3,0.000125499,10,0.00791665,-1.20049,-4.51626,-0.0130639,32.1702,-0.125613,
2,0,0,1,0,5140.1,-0.129269,-0.129589,-63.1678,3,-0.0001269,10,0.00818585,-1.1995,-3.60838,-0.0163508,40.3582,-0.129589,
2,0,0,1,0,5140.1,-0.133265,-0.133587,-63.3555,3,-0.000379942,10,0.00846345,-1.19822,-2.92212,-0.0201908,49.9764,-0.133587,
2,0,0,1,0,5140.11,-0.13726,-0.137627,-63.5683,3,-0.000633806,10,0.0087487,-1.19676,-2.44371,-0.0241436,59.9723,-0.137627,
2,0,0,1,0,5140.11,-0.141255,-0.141624,-63.824,3,-0.000888624,10,0.00903898,-1.19502,-2.21315,-0.0266588,66.4683,-0.1416235,
2,0,0,1,0,5140.11,-0.145286,-0.145646,-64.1308,3,-0.00114449,10,0.00934037,-1.19293,-2.02804,-0.0290921,72.8299,-0.145646,
2,0,0,1,0,5140.12,-0.149295,-0.149614,-64.4208,3,-0.00140165,10,0.00963823,-1.19097,-1.93113,-0.030552,76.83,-0.149614,
2,0,0,1,0,5140.12,-0.15329,-0.153548,-64.7278,3,-0.00165998,10,0.00993881,-1.18891,-1.88332,-0.0313277,79.1781,-0.153548,
2,0,0,1,0,5140.13,-0.157286,-0.157603,-65.0517,3,-0.00191956,10,0.0102523,-1.18674,-1.79396,-0.0328882,83.5386,-0.157603,
2,0,0,1,0,5140.13,-0.161281,-0.161616,-65.3953,3,-0.00218049,10,0.010569,-1.18445,-1.74924,-0.0337289,86.1076,-0.1616164,
2,0,0,1,0,5140.13,-0.165276,-0.16558,-65.7546,3,-0.00244282,10,0.0108877,-1.18207,-1.68271,-0.0350625,89.9959,-0.16558,
2,0,0,1,0,5140.14,-0.169271,-0.169559,-66.1065,3,-0.00270657,10,0.0112089,-1.17976,-1.62369,-0.0363369,93.7958,-0.169559,
2,0,0,1,0,5140.14,-0.173266,-0.173585,-66.49,3,-0.0029718,10,0.0115417,-1.17724,-1.58332,-0.0372634,96.745,-0.173585,
2,0,0,1,0,5140.15,-0.177261,-0.177581,-66.8927,3,-0.00323859,10,0.0118789,-1.17462,-1.53123,-0.0385311,100.615,-0.177581,
2,0,0,1,0,5140.15,-0.181257,-0.181559,-67.3005,3,-0.00350702,10,0.012219,-1.17198,-1.4394,-0.0409892,107.737,-0.181559,
2,0,0,1,0,5140.15,-0.185252,-0.185583,-67.7187,3,-0.00377711,10,0.0125674,-1.16929,-1.413,-0.0417552,110.443,-0.185583,
2,0,0,1,0,5140.16,-0.189297,-0.189602,-68.2156,3,-0.00404909,10,0.0129338,-1.16612,-1.37946,-0.0427704,113.856,-0.1896016,
2,0,0,1,0,5140.16,-0.193292,-0.193606,-68.6625,3,-0.00432288,10,0.0132935,-1.16328,-1.3455,-0.0438498,117.359,-0.193606,
2,0,0,1,0,5140.17,-0.197287,-0.19761,-69.1279,3,-0.00459851,10,0.0136604,-1.16035,-1.87256,-0.0315077,84.4403,-0.19761,
2,0,0,0,0,5140.17,-0.199984,-0.200284,-69.444,3,-0.00478558,10,0.0139085,-1.15837,0.0654536,0.901402,-2268.86,-0.200284,
2,0,0,0,1,5140.17,-0.199984,-0.200399,-69.1273,3,-0.0048271,10,0.013853,-1.16035,-0.0360731,-1.63557,3844.58,-0.200399,
2,0,0,1,1,5140.17,-0.196688,-0.197204,-60.4993,3,-0.00502487,10,0.0119307,-1.21825,-0.0587687,-1.00394,2206.73,-0.197204,
2,0,0,1,1,5140.18,-0.192693,-0.193189,-52.1317,3,-0.00524888,10,0.0100713,-1.2829,-0.0604148,-0.976583,1996.21,-0.193189,
2,0,0,1,1,5140.18,-0.188698,-0.189192,-44.9675,3,-0.00544211,10,0.0085075,-1.3471,-0.060822,-0.970044,1714.49,-0.1891923,
2,0,0,1,1,5140.18,-0.184653,-0.185095,-38.5778,3,-0.0056084,10,0.00714056,-1.41366,-0.0583487,-1.01116,1523.34,-0.185095,
2,0,0,1,1,5140.19,-0.180657,-0.181088,-32.8684,3,-0.00575058,10,0.00595206,-1.48322,-0.0547004,-1.0786,1375.04,-0.1810876,
2,0,0,1,1,5140.19,-0.176662,-0.177114,-27.6445,3,-0.00587099,10,0.00489623,-1.55839,-0.0496574,-1.18814,1263.09,-0.177114,
2,0,0,1,1,5140.2,-0.172667,-0.173102,-22.8423,3,-0.00597136,10,0.00395403,-1.64126,-0.0439257,-1.34318,1166.92,-0.173102,
2,0,0,1,1,5140.2,-0.168672,-0.169101,-18.3759,3,-0.00605326,10,0.00310738,-1.73575,-0.0372561,-1.58363,1086.56,-0.169101,
2,0,0,1,1,5140.2,-0.164677,-0.165112,-14.2256,3,-0.00611798,10,0.00234881,-1.84693,-0.0298089,-1.97928,1013.8,-0.165112,
2,0,0,1,1,5140.21,-0.160682,-0.161168,-10.3178,3,-0.00616661,10,0.00166289,-1.98641,-0.0210522,-2.80256,951.168,-0.161168,
2,0,0,1,1,5140.21,-0.156686,-0.157133,-6.65331,3,-0.00620014,10,0.00104546,-2.17696,-0.00635879,-9.27849,896.317,-0.157133,
2,0,0,1,1,5140.22,-0.152691,-0.153161,-3.21425,3,-0.00621947,10,0.000492297,-2.49292,-0.0311271,-1.89545,841.561,-0.153161,
2,0,0,1,1,5140.22,-0.148696,-0.149191,0.0445965,3,-0.00622542,10,-6.65338e-06,-4.3507,-0.4245,-0.138987,797.016,-0.149191,
2,1,0,1,1,5140.22,-0.14467,-0.145157,3.15652,3,-0.00621873,10,-0.000458191,-2.50079,0.0362857,1.62598,755.224,-0.145157,
2,1,0,1,1,5140.23,-0.140656,-0.141131,6.10019,3,-0.00619983,10,-0.000860928,-2.21466,0.00664773,8.87521,715.017,-0.141131,
2,1,0,1,1,5140.23,-0.136661,-0.137146,8.8801,3,-0.00616957,10,-0.00121787,-2.05158,0.0246778,2.39081,680.136,-0.137146,
2,1,0,1,1,5140.24,-0.132665,-0.133158,11.508,3,-0.0061285,10,-0.00153238,-1.939,0.0370517,1.59237,648.365,-0.133158,
2,1,0,1,1,5140.24,-0.12867,-0.129169,14.0304,3,-0.00607716,10,-0.00181229,-1.85293,0.0492615,1.19769,617.333,-0.129169,
2,1,0,1,1,5140.24,-0.124675,-0.125169,16.4496,3,-0.00601594,10,-0.00205898,-1.78384,0.0615312,0.958863,590.233,-0.125169,
2,1,0,1,1,5140.25,-0.12068,-0.121153,18.7532,3,-0.00594527,10,-0.00227201,-1.72693,0.0741103,0.796111,564.965,-0.1211534,
2,1,0,1,1,5140.25,-0.116685,-0.117111,20.9795,3,-0.00586556,10,-0.00245693,-1.6782,0.0875499,0.673902,538.292,-0.117111,
2,1,0,1,1,5140.26,-0.112689,-0.113141,23.0857,3,-0.00577722,10,-0.00261193,-1.63666,0.1014,0.581855,513.752,-0.113141,
2,1,0,1,1,5140.26,-0.108694,-0.109116,25.0911,3,-0.00568061,10,-0.00273783,-1.60048,0.115442,0.51108,492.947,-0.109116,
2,1,0,1,1,5140.26,-0.104699,-0.105112,26.9947,3,-0.00557622,10,-0.00283745,-1.56872,0.131361,0.449144,467.439,-0.105112,
2,1,0,1,1,5140.27,-0.100654,-0.101109,28.8679,3,-0.00546424,10,-0.00291879,-1.53958,0.147103,0.401078,446.536,-0.101109,
2,1,0,1,1,5140.27,-0.0966588,-0.0970631,30.6011,3,-0.00534511,10,-0.00297024,-1.51426,0.163704,0.360407,425.981,-0.0970631,
2,1,0,1,1,5140.28,-0.0926637,-0.0930516,32.2643,3,-0.0052192,10,-0.00300224,-1.49128,0.181972,0.324225,404.88,-0.09305156,
2,1,0,1,1,5140.28,-0.0886685,-0.0890581,33.8331,3,-0.00508683,10,-0.00301311,-1.47066,0.199851,0.295219,387.122,-0.0890581,
2,1,0,1,1,5140.28,-0.0846733,-0.0851102,35.3454,3,-0.0049483,10,-0.00300825,-1.45167,0.218706,0.269768,369.888,-0.0851102,
2,1,0,1,1,5140.29,-0.0806781,-0.0810796,36.7886,3,-0.00480389,10,-0.00298281,-1.43429,0.236541,0.249429,356.257,-0.0810796,
2,1,0,1,1,5140.29,-0.076683,-0.0770935,38.167,3,-0.0046538,10,-0.00294242,-1.41831,0.258019,0.228666,339.014,-0.0770935,
2,1,0,1,1,5140.3,-0.0726878,-0.0731265,39.5089,3,-0.00449829,10,-0.00288915,-1.40331,0.28049,0.210346,322.734,-0.0731265,
2,1,0,1,1,5140.3,-0.0686926,-0.0691373,40.7604,3,-0.00433762,10,-0.00281806,-1.38976,0.299361,0.197086,312.42,-0.06913726,
2,1,0,1,1,5140.3,-0.0646974,-0.0650801,41.9522,3,-0.00417205,10,-0.00273026,-1.37725,0.32663,0.180633,294.915,-0.0650801,
2,1,0,1,1,5140.31,-0.0606523,-0.0610739,43.1718,3,-0.00400172,10,-0.00263667,-1.3648,0.351488,0.167858,281.589,-0.0610739,
2,1,0,1,1,5140.31,-0.0566571,-0.0570497,44.2502,3,-0.00382676,10,-0.00252446,-1.35408,0.377198,0.156417,269.063,-0.0570497,
2,1,0,1,1,5140.32,-0.052662,-0.0530583,45.288,3,-0.00364756,10,-0.00240291,-1.34402,0.413352,0.142736,251.527,-0.0530583,
2,1,0,1,1,5140.32,-0.0486668,-0.0490277,46.2713,3,-0.00346434,10,-0.00226858,-1.33469,0.444426,0.132755,239.031,-0.0490277,
2,1,0,1,1,5140.32,-0.0446716,-0.0450809,47.1945,3,-0.0032773,10,-0.00212757,-1.32611,0.479007,0.123171,226.29,-0.0450809,
2,1,0,1,1,5140.33,-0.0406764,-0.0410513,48.0743,3,-0.00308666,10,-0.00197351,-1.31809,0.514912,0.114583,214.504,-0.0410513,
2,1,0,1,1,5140.33,-0.0366813,-0.0370589,48.9086,3,-0.0028926,10,-0.0018125,-1.31062,0.551972,0.106889,203.597,-0.0370589,
2,1,0,1,1,5140.34,-0.0326861,-0.0330155,49.706,3,-0.00269524,10,-0.00164107,-1.30359,0.596283,0.0989463,191.475,-0.0330155,
2,1,0,1,1,5140.34,-0.0286909,-0.0290719,50.4539,3,-0.00249483,10,-0.00146679,-1.29711,0.637426,0.0925598,181.887,-0.0290719,
2,1,0,1,1,5140.34,-0.0246957,-0.0251092,51.1268,3,-0.00229158,10,-0.00128375,-1.29135,0.687943,0.085763,170.903,-0.0251092,
2,1,0,1,1,5140.35,-0.0206756,-0.0210351,51.8231,3,-0.00208564,10,-0.0010901,-1.28548,0.751294,0.0785312,158.493,-0.0210351,
2,1,0,1,1,5140.35,-0.0166554,-0.0170193,52.4398,3,-0.00187703,10,-0.000892489,-1.28034,0.813338,0.0725406,148.086,-0.0170193,
2,1,0,1,1,5140.36,-0.0126603,-0.0130449,52.994,3,-0.00166607,10,-0.000691302,-1.27577,0.913755,0.0645688,133.258,-0.0130449,
2,1,0,1,1,5140.36,-0.0086651,-0.00903126,53.5077,3,-0.00145301,10,-0.000483243,-1.27158,1.0073,0.0585722,122.041,-0.00903126,
2,1,0,1,1,5140.36,-0.00466992,-0.00503671,53.955,3,-0.00123803,10,-0.000271756,-1.26797, , , ,-0.00503671,
2,1,0,1,1,5140.37,-0.000974387,-0.00137354,54.3492,3,-0.00103765,10,-7.46506e-05,-1.26481, , , ,-0.00137354,
2,1,0,0,1,5140.37,-0.000175352,-0.000592546,54.4346,3,-0.000994144,10,-3.2255e-05,-1.26412, , , ,-0.000592546,