File: Figure_codes/Fig_3-5/rawdata_trumpetplot_data/after 10th/20221101_1-115_003_TrumpetPlot_ParaChange_from10_every3_13_CV_C01_23.csv
mode,ox/red,error,control changes,counter inc.,time/s,control/V,Ewe/V,<I>/mA,cycle number,(Q-Qo)/C,I Range,P/W,log(|I|),Tafel slope mV/dec,alpha_eff,dI/d(E-IR),E-IR/V,
2,1,0,1,0,46510.9,2.44065e-05,-0.000287149,17.4322,24,0.0000000E+000,10,-5.00563e-06,-1.75865, , , ,-0.0002871489,
2,1,0,1,0,46510.9,0.00266289,0.00228328,18.7235,24,5.66036e-05,10,4.27509e-05,-1.72761, , , ,0.00228328,
2,1,0,1,0,46510.9,0.00586735,0.00554827,19.7865,24,0.000133815,10,0.000109781,-1.70363, , , ,0.00554827,
2,1,0,1,0,46510.9,0.00906349,0.00869131,20.6823,24,0.000214855,10,0.000179757,-1.6844,0.169499,0.348085,277.817,0.00869131,
2,1,0,1,0,46510.9,0.0122624,0.0119542,21.5034,24,0.000299332,10,0.000257055,-1.66749,0.195755,0.301397,251.129,0.0119542,
2,1,0,1,0,46510.9,0.0154641,0.0150887,22.2811,24,0.000386995,10,0.000336194,-1.65206,0.217991,0.270654,233.963,0.0150887,
2,1,0,1,0,46510.9,0.0186602,0.0183177,22.9933,24,0.000477631,10,0.000421184,-1.6384,0.239764,0.246075,219.726,0.0183177,
2,1,0,1,0,46510.9,0.0218675,0.0215254,23.6851,24,0.000571072,10,0.00050983,-1.62553,0.262391,0.224855,206.962,0.0215254,
2,1,0,1,0,46510.9,0.0250636,0.0247437,24.3136,24,0.000667148,10,0.000601609,-1.61415,0.279878,0.210806,199.46,0.0247437,
2,1,0,1,0,46510.9,0.0282597,0.0279239,24.9375,24,0.000765721,10,0.000696351,-1.60315,0.301847,0.195463,189.774,0.0279239,
2,1,0,1,0,46510.9,0.031467,0.031085,25.5399,24,0.000866761,10,0.000793906,-1.59278,0.316437,0.186451,185.384,0.031085,
2,1,0,1,0,46510.9,0.0346631,0.0343001,26.1094,24,0.000970127,10,0.000895554,-1.5832,0.33874,0.174175,177.118,0.03430013,
2,1,0,1,0,46510.9,0.0378703,0.0374888,26.6763,24,0.00107575,10,0.00100006,-1.57387,0.361127,0.163378,169.712,0.0374888,
2,1,0,1,0,46510.9,0.0410665,0.0407442,27.2082,24,0.00118355,10,0.00110858,-1.5653,0.373472,0.157977,167.492,0.0407442,
2,1,0,1,0,46510.9,0.0442626,0.0439519,27.7235,24,0.00129348,10,0.0012185,-1.55715,0.393871,0.149795,161.949,0.0439519,
2,1,0,1,0,46510.9,0.0474671,0.0470939,28.2522,24,0.00140547,10,0.00133051,-1.54895,0.404118,0.145997,160.798,0.0470939,
2,1,0,1,0,46510.9,0.0506632,0.0503218,28.7546,24,0.00151954,10,0.00144698,-1.54129,0.418495,0.140981,158.019,0.0503218,
2,1,0,1,0,46510.9,0.0538621,0.0534967,29.2587,24,0.0016356,10,0.00156525,-1.53374,0.435683,0.13542,154.484,0.0534967,
2,1,0,1,0,46510.9,0.0570638,0.0567129,29.74,24,0.00175367,10,0.00168664,-1.52666,0.445121,0.132548,153.792,0.0567129,
2,1,0,1,0,46510.9,0.06026,0.0599058,30.2314,24,0.00187366,10,0.00181104,-1.51954,0.456151,0.129343,152.577,0.0599058,
2,1,0,1,0,46510.9,0.0634672,0.0631506,30.7276,24,0.00199563,10,0.00194046,-1.51247,0.463429,0.127312,152.567,0.0631506,
2,1,0,1,0,46510.9,0.0666633,0.0663149,31.2145,24,0.00211957,10,0.00206999,-1.50564,0.47204,0.12499,152.173,0.0663149,
2,1,0,1,0,46510.9,0.0698595,0.0695173,31.6935,24,0.00224544,10,0.00220325,-1.49903,0.481735,0.122474,151.443,0.0695173,
2,1,0,1,0,46510.9,0.0730667,0.0727176,32.1811,24,0.00237324,10,0.00234013,-1.4924,0.486898,0.121175,152.178,0.0727176,
2,1,0,1,0,46511,0.0762628,0.0759147,32.6606,24,0.00250298,10,0.00247942,-1.48598,0.494592,0.11929,152.049,0.0759147,
2,1,0,1,0,46511,0.0794701,0.0791214,33.1634,24,0.00263465,10,0.00262393,-1.47934,0.498673,0.118314,153.072,0.0791214,
2,1,0,1,0,46511,0.0826662,0.0823556,33.6456,24,0.00276832,10,0.0027709,-1.47307,0.504128,0.117034,153.624,0.0823556,
2,1,0,1,0,46511,0.0858624,0.0855167,34.1402,24,0.00290395,10,0.00291956,-1.46673,0.510971,0.115466,153.837,0.0855167,
2,1,0,1,0,46511,0.0890668,0.0887191,34.6277,24,0.00304155,10,0.00307214,-1.46058,0.512196,0.11519,155.689,0.0887191,
2,1,0,1,0,46511,0.092263,0.0919173,35.1319,24,0.0031811,10,0.00322923,-1.4543,0.516876,0.114147,156.502,0.0919173,
2,1,0,1,0,46511,0.0954674,0.0951516,35.6378,24,0.00332269,10,0.00339099,-1.44809,0.523242,0.112759,156.768,0.0951516,
2,1,0,1,0,46511,0.0986636,0.0982988,36.1407,24,0.00346631,10,0.00355259,-1.442,0.525812,0.112207,158.237,0.0982988,
2,1,0,1,0,46511,0.10186,0.101553,36.6396,24,0.00361194,10,0.00372087,-1.43605,0.533377,0.110616,158.164,0.101553,
2,1,0,1,0,46511,0.105067,0.104711,37.1563,24,0.00375959,10,0.00389068,-1.42997,0.538621,0.109539,158.807,0.104711,
2,1,0,1,0,46511,0.108263,0.107909,37.6556,24,0.00390927,10,0.00406339,-1.42417,0.540037,0.109252,160.544,0.1079093,
2,1,0,1,0,46511,0.111465,0.111104,38.1743,24,0.00406097,10,0.00424133,-1.41823,0.547041,0.107853,160.671,0.111104,
2,1,0,1,0,46511,0.114666,0.114296,38.6854,24,0.00421476,10,0.0044216,-1.41245,0.549209,0.107427,162.179,0.114296,
2,1,0,1,0,46511,0.117863,0.117465,39.2054,24,0.00437059,10,0.00460525,-1.40665,0.550913,0.107095,163.891,0.117465,
2,1,0,1,0,46511,0.12107,0.12069,39.7284,24,0.0045285,10,0.00479484,-1.4009,0.549478,0.107375,166.55,0.12069,
2,1,0,1,0,46511,0.124266,0.123885,40.269,24,0.00468854,10,0.00498874,-1.39503,0.547636,0.107736,169.374,0.123885,
2,1,0,1,0,46511,0.127462,0.127131,40.8231,24,0.00485078,10,0.0051899,-1.38909,0.547181,0.107825,171.777,0.1271313,
2,1,0,1,0,46511,0.130667,0.130305,41.3803,24,0.00501522,10,0.00539206,-1.38321,0.544454,0.108365,174.978,0.1303051,
2,1,0,1,0,46511,0.133863,0.133523,41.9328,24,0.00518193,10,0.00559902,-1.37745,0.5503,0.107214,175.442,0.1335234,
2,1,0,1,0,46511,0.137067,0.136631,42.4993,24,0.00535082,10,0.00580674,-1.37162,0.555607,0.10619,176.083,0.136631,
2,1,0,1,0,46511,0.140263,0.139855,43.0554,24,0.00552201,10,0.00602152,-1.36597,0.539367,0.109388,183.971,0.139855,
2,1,0,1,0,46511,0.143459,0.143001,43.6159,24,0.0056954,10,0.00623712,-1.36036,0.535637,0.110149,187.812,0.143001,
2,1,0,1,0,46511,0.146667,0.146263,44.2766,24,0.00587127,10,0.00647603,-1.35383,0.531619,0.110982,191.771,0.146263,
2,1,0,1,0,46511,0.149863,0.149426,44.9023,24,0.00604969,10,0.00670959,-1.34773,0.528207,0.111699,195.571,0.149426,
2,1,0,1,0,46511,0.153064,0.152703,45.5193,24,0.0062306,10,0.00695093,-1.3418,0.551045,0.107069,190.065,0.152703,
2,1,0,1,0,46511.1,0.156266,0.15588,46.1345,24,0.00641397,10,0.00719145,-1.33597,0.56748,0.103968,187.047,0.15588,
2,1,0,1,0,46511.1,0.159462,0.159099,46.7163,24,0.00659972,10,0.00743253,-1.33053,0.582781,0.101239,184.472,0.159099,
2,1,0,1,0,46511.1,0.16267,0.162328,47.3156,24,0.00678783,10,0.00768066,-1.325,0.610895,0.0965796,178.156,0.162328,
2,1,0,1,0,46511.1,0.165866,0.165499,47.8798,24,0.00697828,10,0.00792405,-1.31985,0.633418,0.0931454,173.842,0.165499,
2,1,0,1,0,46511.1,0.169062,0.168689,48.4165,24,0.0071709,10,0.00816731,-1.31501,0.663673,0.0888992,167.843,0.168689,
2,1,0,1,0,46511.1,0.172266,0.171922,48.9454,24,0.0073657,10,0.00841478,-1.31029,0.702936,0.0839336,160.178,0.171922,
2,1,0,1,0,46511.1,0.175462,0.175072,49.4546,24,0.00756254,10,0.00865812,-1.30579,0.743186,0.0793879,153.031,0.175072,
2,1,0,1,0,46511.1,0.178667,0.178319,49.9333,24,0.00776138,10,0.00890407,-1.30161,0.804858,0.0733049,142.62,0.178319,
2,1,0,1,0,46511.1,0.181863,0.181529,50.3815,24,0.00796208,10,0.0091457,-1.29773,0.886808,0.0665307,130.572,0.181529,
2,1,0,1,0,46511.1,0.185059,0.184715,50.7699,24,0.00816445,10,0.00937793,-1.29439,0.994252,0.0593411,117.367,0.184715,
2,1,0,1,0,46511.1,0.188266,0.187907,51.1305,24,0.00836832,10,0.00960779,-1.29132,1.14295,0.0516209,102.816,0.187907,
2,1,0,1,0,46511.1,0.191463,0.191087,51.4318,24,0.0085735,10,0.00982792,-1.28877,1.37202,0.0430022,86.126,0.191087,
2,1,0,1,0,46511.1,0.194664,0.194304,51.6949,24,0.00877979,10,0.0100445,-1.28655,1.78522,0.0330492,66.4952,0.1943038,
2,1,0,1,0,46511.1,0.197866,0.197518,51.8726,24,0.00898697,10,0.0102458,-1.28506,2.57704,0.0228945,46.2193,0.1975179,
2,1,0,1,0,46511.1,0.201062,0.200692,51.9806,24,0.0091947,10,0.0104321,-1.28416,4.64048,0.0127142,25.7326,0.200692,
2,1,0,1,0,46511.1,0.204269,0.203942,52.0259,24,0.00940275,10,0.0106103,-1.28378,23.5793,0.00250219,5.06866,0.203942,
2,1,0,1,0,46511.1,0.207465,0.20713,52.025,24,0.00961086,10,0.010776,-1.28379,-8.26272,-0.00714051,-14.4596,0.20713,
2,1,0,1,0,46511.1,0.210662,0.210303,51.9374,24,0.0098188,10,0.0109226,-1.28452,-3.22292,-0.0183064,-37.0006,0.210303,
2,1,0,1,0,46511.1,0.213866,0.213541,51.7948,24,0.0100263,10,0.0110603,-1.28571,-2.06656,-0.0285498,-57.5544,0.213541,
2,1,0,1,0,46511.1,0.217062,0.216699,51.5539,24,0.010233,10,0.0111717,-1.28774,-1.51315,-0.0389915,-78.2655,0.216699,
2,1,0,1,0,46511.1,0.220267,0.219958,51.2867,24,0.0104386,10,0.0112809,-1.29,-1.18402,-0.0498303,-99.4794,0.2199582,
2,1,0,1,0,46511.1,0.223463,0.223165,50.9308,24,0.010643,10,0.011366,-1.29302,-0.997703,-0.0591358,-117.233,0.223165,
2,1,0,1,0,46511.1,0.226659,0.226378,50.5177,24,0.0108459,10,0.0114361,-1.29656,-0.834346,-0.0707141,-139.079,0.2263779,
2,1,0,1,0,46511.1,0.229866,0.229551,50.0472,24,0.011047,10,0.0114884,-1.30062,-0.735337,-0.0802353,-156.331,0.229551,
2,1,0,1,0,46511.1,0.233062,0.232701,49.5144,24,0.0112461,10,0.0115221,-1.30527,-0.659383,-0.0894776,-172.531,0.232701,
2,1,0,1,0,46511.2,0.236264,0.23595,48.932,24,0.011443,10,0.0115455,-1.31041,-0.595689,-0.099045,-188.751,0.23595,
2,1,0,1,0,46511.2,0.239466,0.239157,48.3129,24,0.0116374,10,0.0115544,-1.31594,-0.557026,-0.10592,-199.329,0.239157,
2,1,0,1,0,46511.2,0.242662,0.242336,47.634,24,0.0118292,10,0.0115434,-1.32208,-0.513053,-0.114998,-213.421,0.242336,
2,1,0,1,0,46511.2,0.245869,0.24557,46.9492,24,0.0120183,10,0.0115293,-1.32837,-0.481077,-0.122641,-224.306,0.24557,
2,1,0,1,0,46511.2,0.249065,0.248745,46.2013,24,0.0122046,10,0.0114924,-1.33535,-0.459908,-0.128287,-231.01,0.248745,
2,1,0,1,0,46511.2,0.252261,0.251945,45.4444,24,0.0123878,10,0.0114495,-1.34252,-0.439346,-0.13429,-238.004,0.251945,
2,1,0,1,0,46511.2,0.255466,0.255127,44.6792,24,0.012568,10,0.0113989,-1.34989,-0.430207,-0.137143,-238.97,0.2551266,
2,1,0,1,0,46511.2,0.258662,0.258341,43.9098,24,0.0127451,10,0.0113437,-1.35744,-0.418382,-0.14102,-241.476,0.258341,
2,1,0,1,0,46511.2,0.261866,0.261595,43.1306,24,0.0129191,10,0.0112827,-1.36521,-0.41003,-0.143892,-242.082,0.261595,
2,1,0,1,0,46511.2,0.265063,0.264781,42.345,24,0.0130899,10,0.0112121,-1.3732,-0.405144,-0.145627,-240.695,0.264781,
2,1,0,1,0,46511.2,0.268259,0.267949,41.5751,24,0.0132577,10,0.01114,-1.38117,-0.402021,-0.146759,-238.199,0.267949,
2,1,0,1,0,46511.2,0.271466,0.271141,40.8289,24,0.0134224,10,0.0110704,-1.38903,-0.403199,-0.14633,-233.227,0.271141,
2,1,0,1,0,46511.2,0.274662,0.274387,40.0836,24,0.0135842,10,0.0109984,-1.39703,-0.405493,-0.145502,-227.694,0.274387,
2,1,0,1,0,46511.2,0.277869,0.277534,39.3706,24,0.013743,10,0.0109267,-1.40483,-0.406274,-0.145222,-223.209,0.277534,
2,1,0,1,0,46511.2,0.281065,0.280771,38.6555,24,0.013899,10,0.0108534,-1.41279,-0.41169,-0.143312,-216.378,0.280771,
2,1,0,1,0,46511.2,0.284262,0.283937,37.9727,24,0.0140522,10,0.0107818,-1.42053,-0.418493,-0.140982,-209.164,0.2839368,
2,1,0,1,0,46511.2,0.287469,0.287141,37.3238,24,0.0142027,10,0.0107172,-1.42801,-0.42482,-0.138882,-202.438,0.287141,
2,1,0,1,0,46511.2,0.290665,0.290342,36.6917,24,0.0143506,10,0.0106531,-1.43543,-0.435395,-0.135509,-194.18,0.290342,
2,1,0,1,0,46511.2,0.293861,0.293531,36.0725,24,0.0144961,10,0.0105884,-1.44282,-0.445148,-0.13254,-187.094,0.293531,
2,1,0,1,0,46511.2,0.297066,0.296722,35.4901,24,0.0146392,10,0.0105307,-1.44989,-0.445028,-0.132576,-185.326,0.296722,
2,1,0,1,0,46511.2,0.299638,0.299346,35.0404,24,0.014752,10,0.0104892,-1.45543,-0.127402,-0.463101,-621.631,0.299346,
2,1,0,1,0,46511.2,0.300012,0.299689,34.9593,24,0.0147695,10,0.0104769,-1.45644,0.0107354,5.49586,6744.89,0.2996892,
2,1,0,1,0,46511.2,0.298983,0.298844,32.77,24,0.0148126,10,0.00979311,-1.48452,0.0416521,1.4165,1607.27,0.298844,
2,1,0,1,0,46511.2,0.295787,0.295571,27.7229,24,0.0149326,10,0.00819407,-1.55716,0.0452824,1.30294,1377.58,0.295571,
2,1,0,1,0,46511.2,0.292579,0.292369,23.8273,24,0.0150351,10,0.00696636,-1.62293,0.0477766,1.23491,1175.33,0.292369,
2,1,0,1,0,46511.2,0.289383,0.289195,20.5031,24,0.0151234,10,0.00592941,-1.68818,0.0477029,1.23682,997.678,0.289195,
2,1,0,1,0,46511.2,0.286187,0.285913,17.5723,24,0.0151991,10,0.00502416,-1.75517,0.0461348,1.27886,878.209,0.285913,
2,1,0,1,0,46511.3,0.282983,0.282745,14.927,24,0.0152638,10,0.00422054,-1.82603,0.0436888,1.35046,784.049,0.282745,
2,1,0,1,0,46511.3,0.279786,0.279538,12.559,24,0.0153184,10,0.00351072,-1.90104,0.0400121,1.47455,715.742,0.279538,
2,1,0,1,0,46511.3,0.276582,0.276293,10.3874,24,0.0153641,10,0.00286996,-1.98349,0.0360682,1.63579,650.399,0.276293,
2,1,0,1,0,46511.3,0.273386,0.273121,8.41605,24,0.0154014,10,0.0022986,-2.07489,0.0313718,1.88067,597.264,0.273121,
2,1,0,1,0,46511.3,0.27019,0.269907,6.577,24,0.0154312,10,0.00177517,-2.18197,0.0259484,2.27375,551.67,0.269907,
2,1,0,1,0,46511.3,0.266982,0.266715,4.90003,24,0.0154539,10,0.00130691,-2.3098,0.0198221,2.97648,508.996,0.266715,
2,1,0,1,0,46511.3,0.263786,0.263532,3.34751,24,0.0154702,10,0.000882177,-2.47528,0.0118853,4.96411,470.936,0.2635324,
2,1,0,1,0,46511.3,0.260585,0.260327,1.90404,24,0.0154806,10,0.000495671,-2.72032,0.0150381,3.92338,437.276,0.2603268,
2,1,0,1,0,46511.3,0.257383,0.257112,0.551443,24,0.0154853,10,0.000141782,-3.2585,0.050904,1.15904,407.36,0.2571117,
2,0,0,1,0,46511.3,0.254187,0.253927,-0.69161,24,0.0154849,10,-0.000175619,-3.16014,-0.067338,-0.876177,378.519,0.253927,
2,0,0,1,0,46511.3,0.25098,0.250713,-1.87452,24,0.0154796,10,-0.000469968,-2.72711,-0.0149685,-3.9416,352.809,0.2507132,
2,0,0,1,0,46511.3,0.247783,0.247496,-2.9527,24,0.0154699,10,-0.000730782,-2.52978,-0.0150712,-3.91474,330.351,0.2474959,
2,0,0,1,0,46511.3,0.244587,0.244256,-3.98403,24,0.0154559,10,-0.000973125,-2.39968,-0.0258926,-2.27864,310.884,0.244256,
2,0,0,1,0,46511.3,0.241383,0.241052,-4.94504,24,0.0154379,10,-0.00119201,-2.30583,-0.0360069,-1.63858,292.734,0.241052,
2,0,0,1,0,46511.3,0.238187,0.2379,-5.85785,24,0.0154162,10,-0.00139358,-2.23226,-0.0463974,-1.27162,276.201,0.2379003,
2,0,0,1,0,46511.3,0.234982,0.234656,-6.71123,24,0.0153909,10,-0.00157483,-2.1732,-0.0571666,-1.03207,260.468,0.2346565,
2,0,0,1,0,46511.3,0.231786,0.231459,-7.51856,24,0.0153624,10,-0.00174024,-2.12387,-0.068598,-0.860084,245.665,0.231459,
2,0,0,1,0,46511.3,0.22859,0.228277,-8.27244,24,0.0153307,10,-0.00188841,-2.08237,-0.0799484,-0.737976,233.58,0.228277,
2,0,0,1,0,46511.3,0.225383,0.225092,-9.00448,24,0.0152961,10,-0.00202683,-2.04554,-0.0914105,-0.64544,223.325,0.225092,
2,0,0,1,0,46511.3,0.222187,0.221899,-9.69118,24,0.0152586,10,-0.00215046,-2.01362,-0.104548,-0.564332,210.496,0.221899,
2,0,0,1,0,46511.3,0.218979,0.218713,-10.3651,24,0.0152184,10,-0.00226698,-1.98443,-0.117455,-0.502319,200.548,0.2187133,
2,0,0,1,0,46511.3,0.215783,0.215465,-10.9693,24,0.0151757,10,-0.0023635,-1.95982,-0.130924,-0.450645,191.139,0.215465,
2,0,0,1,0,46511.3,0.212587,0.212339,-11.562,24,0.0151305,10,-0.00245506,-1.93697,-0.146072,-0.403912,181.131,0.212339,
2,0,0,1,0,46511.3,0.20938,0.209105,-12.1366,24,0.0150831,10,-0.00253782,-1.9159,-0.157781,-0.373937,175.966,0.209105,
2,0,0,1,0,46511.3,0.206184,0.205852,-12.6947,24,0.0150334,10,-0.00261323,-1.89638,-0.173439,-0.340178,167.414,0.205852,
2,0,0,1,0,46511.4,0.202988,0.202698,-13.2159,24,0.0149815,10,-0.00267883,-1.8789,-0.188627,-0.312787,160.396,0.202698,
2,0,0,1,0,46511.4,0.199783,0.199449,-13.72,24,0.0149276,10,-0.00273644,-1.86265,-0.202203,-0.291786,155.615,0.1994489,
2,0,0,1,0,46511.4,0.196587,0.196263,-14.1963,24,0.0148717,10,-0.00278621,-1.84782,-0.217668,-0.271055,149.722,0.196263,
2,0,0,1,0,46511.4,0.193382,0.193066,-14.6843,24,0.0148139,10,-0.00283505,-1.83315,-0.229951,-0.256577,146.525,0.193066,
2,0,0,1,0,46511.4,0.190186,0.189883,-15.1346,24,0.0147542,10,-0.0028738,-1.82003,-0.244165,-0.24164,142.262,0.189883,
2,0,0,1,0,46511.4,0.18699,0.186718,-15.5854,24,0.0146927,10,-0.00291007,-1.80728,-0.259599,-0.227274,137.903,0.186718,
2,0,0,1,0,46511.4,0.183783,0.183509,-16.0108,24,0.0146294,10,-0.00293812,-1.79559,-0.272098,-0.216833,135.273,0.183509,
2,0,0,1,0,46511.4,0.180587,0.180307,-16.4438,24,0.0145645,10,-0.00296494,-1.784,-0.285604,-0.20658,132.377,0.180307,
2,0,0,1,0,46511.4,0.17738,0.177074,-16.8672,24,0.0144978,10,-0.00298676,-1.77296,-0.295844,-0.19943,131.03,0.177074,
2,0,0,1,0,46511.4,0.174183,0.173895,-17.2828,24,0.0144295,10,-0.0030054,-1.76239,-0.30659,-0.192439,129.654,0.173895,
2,0,0,1,0,46511.4,0.170987,0.170713,-17.6874,24,0.0143595,10,-0.00301948,-1.75233,-0.316379,-0.186485,128.662,0.170713,
2,0,0,1,0,46511.4,0.16778,0.167456,-18.11,24,0.0142878,10,-0.00303263,-1.74208,-0.318982,-0.184963,130.683,0.167456,
2,0,0,1,0,46511.4,0.164584,0.164266,-18.5152,24,0.0142146,10,-0.00304142,-1.73247,-0.322836,-0.182756,132.094,0.164266,
2,0,0,1,0,46511.4,0.161382,0.161134,-18.9505,24,0.0141396,10,-0.00305357,-1.72238,-0.325795,-0.181095,133.963,0.161134,
2,0,0,1,0,46511.4,0.158183,0.157907,-19.379,24,0.0140629,10,-0.00306008,-1.71267,-0.325205,-0.181424,137.227,0.157907,
2,0,0,1,0,46511.4,0.154987,0.154655,-19.8249,24,0.0139845,10,-0.00306602,-1.70279,-0.32594,-0.181015,140.155,0.1546552,
2,0,0,1,0,46511.4,0.151783,0.151452,-20.2737,24,0.0139042,10,-0.00307048,-1.69307,-0.3179,-0.185593,147.076,0.151452,
2,0,0,1,0,46511.4,0.148587,0.148252,-20.7559,24,0.0138221,10,-0.00307711,-1.68286,-0.307241,-0.192031,155.918,0.148252,
2,0,0,1,0,46511.4,0.145385,0.145108,-21.2614,24,0.013738,10,-0.00308521,-1.67241,-0.296192,-0.199195,165.677,0.145108,
2,0,0,1,0,46511.4,0.142183,0.141884,-21.8162,24,0.0136518,10,-0.00309536,-1.66122,-0.285578,-0.206599,176.288,0.141884,
2,0,0,1,0,46511.4,0.138987,0.13871,-22.3847,24,0.0135634,10,-0.00310498,-1.65005,-0.275882,-0.21386,187.304,0.13871,
2,0,0,1,0,46511.4,0.13578,0.135461,-23.0109,24,0.0134725,10,-0.00311708,-1.63807,-0.264178,-0.223335,201.162,0.135461,
2,0,0,1,0,46511.4,0.132584,0.132277,-23.6647,24,0.0133791,10,-0.00313031,-1.6259,-0.252334,-0.233817,216.733,0.132277,
2,0,0,1,0,46511.4,0.129388,0.129086,-24.3907,24,0.013283,10,-0.00314848,-1.61278,-0.240172,-0.245658,234.666,0.129086,
2,0,0,1,0,46511.4,0.12618,0.125848,-25.1722,24,0.0131838,10,-0.00316788,-1.59908,-0.230889,-0.255535,251.665,0.1258482,
2,0,0,1,0,46511.5,0.122984,0.122707,-26.0037,24,0.0130813,10,-0.00319085,-1.58496,-0.223275,-0.264248,268.852,0.122707,
2,0,0,1,0,46511.5,0.119783,0.119525,-26.874,24,0.0129755,10,-0.00321212,-1.57067,-0.21813,-0.270481,284.441,0.119525,
2,0,0,1,0,46511.5,0.116584,0.116314,-27.8243,24,0.0128661,10,-0.00323636,-1.55558,-0.215511,-0.273768,297.746,0.116314,
2,0,0,1,0,46511.5,0.113387,0.113091,-28.8008,24,0.0127527,10,-0.00325712,-1.5406,-0.214712,-0.274787,308.945,0.1130915,
2,0,0,1,0,46511.5,0.110183,0.109895,-29.8184,24,0.0126354,10,-0.00327691,-1.52552,-0.217485,-0.271283,315.489,0.109895,
2,0,0,1,0,46511.5,0.106987,0.106708,-30.8338,24,0.012514,10,-0.00329021,-1.51097,-0.222021,-0.26574,319.386,0.106708,
2,0,0,1,0,46511.5,0.103785,0.103508,-31.8646,24,0.0123885,10,-0.00329823,-1.49669,-0.228348,-0.258378,320.893,0.103508,
2,0,0,1,0,46511.5,0.100583,0.100315,-32.8815,24,0.0122589,10,-0.0032985,-1.48305,-0.235455,-0.250579,321.209,0.100315,
2,0,0,1,0,46511.5,0.0973873,0.0971282,-33.9153,24,0.0121252,10,-0.00329413,-1.4696,-0.244953,-0.240863,318.272,0.0971282,
2,0,0,1,0,46511.5,0.0941801,0.0939141,-34.9433,24,0.0119874,10,-0.00328167,-1.45664,-0.259722,-0.227166,308.656,0.0939141,
2,0,0,1,0,46511.5,0.0909839,0.0907233,-35.9335,24,0.0118455,10,-0.00326001,-1.4445,-0.270727,-0.217932,304.674,0.0907233,
2,0,0,1,0,46511.5,0.0877878,0.0875453,-36.8229,24,0.0116999,10,-0.00322367,-1.43388,-0.284072,-0.207694,298.426,0.0875453,
2,0,0,1,0,46511.5,0.0845806,0.084381,-37.7991,24,0.0115505,10,-0.00318952,-1.42252,-0.299393,-0.197065,290.397,0.084381,
2,0,0,1,0,46511.5,0.0813844,0.0811362,-38.7566,24,0.0113973,10,-0.00314456,-1.41165,-0.310066,-0.190282,286.891,0.08113616,
2,0,0,1,0,46511.5,0.0781828,0.0779433,-39.6448,24,0.0112404,10,-0.00309004,-1.40181,-0.334108,-0.17659,272.381,0.0779433,
2,0,0,1,0,46511.5,0.0749839,0.0747249,-40.5009,24,0.01108,10,-0.00302643,-1.39254,-0.360255,-0.163773,258.135,0.0747249,
2,0,0,1,0,46511.5,0.0717877,0.0715342,-41.2983,24,0.0109163,10,-0.00295424,-1.38407,-0.386698,-0.152574,245.296,0.0715342,
2,0,0,1,0,46511.5,0.0685832,0.0683296,-42.0624,24,0.0107495,10,-0.00287411,-1.37611,-0.417296,-0.141386,231.526,0.06832964,
2,0,0,1,0,46511.5,0.0653871,0.0651389,-42.7857,24,0.0105797,10,-0.00278701,-1.3687,-0.45073,-0.130899,218.009,0.0651389,
2,0,0,1,0,46511.5,0.0621854,0.0619767,-43.4524,24,0.0104072,10,-0.00269304,-1.36199,-0.491502,-0.12004,203.068,0.0619767,
2,0,0,1,0,46511.5,0.0589837,0.0587648,-44.0821,24,0.010232,10,-0.00259048,-1.35574,-0.534284,-0.110428,189.584,0.0587648,
2,0,0,1,0,46511.5,0.0557876,0.0555581,-44.6559,24,0.0100545,10,-0.00248099,-1.35012,-0.578877,-0.101922,177.326,0.0555581,
2,0,0,1,0,46511.5,0.0525804,0.0523111,-45.2176,24,0.00987467,10,-0.00236538,-1.34469,-0.625386,-0.0943418,166.204,0.0523111,
2,0,0,1,0,46511.5,0.0493842,0.0491479,-45.7273,24,0.00969272,10,-0.0022474,-1.33982,-0.67418,-0.0875137,155.908,0.0491479,
2,0,0,1,0,46511.5,0.0461881,0.045919,-46.2171,24,0.00950877,10,-0.00212225,-1.3352,-0.741297,-0.0795902,143.285,0.045919,
2,0,0,1,0,46511.6,0.0429808,0.0427293,-46.656,24,0.00932295,10,-0.00199358,-1.33109,-0.82409,-0.0715941,130.095,0.0427293,
2,0,0,1,0,46511.6,0.0397847,0.0395004,-47.0532,24,0.00913548,10,-0.00185862,-1.32741,-0.911989,-0.0646938,118.606,0.0395004,
2,0,0,1,0,46511.6,0.036583,0.0362608,-47.4038,24,0.00894653,10,-0.0017189,-1.32419,-1.015,-0.0581279,107.4,0.0362608,
2,0,0,1,0,46511.6,0.0333841,0.0330467,-47.7439,24,0.0087562,10,-0.00157778,-1.32108,-1.11611,-0.052862,98.3662,0.0330467,
2,0,0,1,0,46511.6,0.030188,0.0298751,-48.0365,24,0.0085646,10,-0.00143509,-1.31843,-1.24386,-0.0474331,88.7968,0.0298751,
2,0,0,1,0,46511.6,0.0269835,0.0266949,-48.3128,24,0.00837184,10,-0.00128971,-1.31594,-1.40882,-0.0418792,78.853,0.0266949,
2,0,0,1,0,46511.6,0.0237874,0.0235031,-48.5367,24,0.0081781,10,-0.00114076,-1.31393,-1.58872,-0.0371367,70.269,0.0235031,
2,0,0,1,0,46511.6,0.0205857,0.0202805,-48.7505,24,0.0079835,10,-0.000988685,-1.31202,-1.81598,-0.0324894,61.7597,0.0202805,
2,0,0,1,0,46511.6,0.017384,0.0171056,-48.9338,24,0.0077881,10,-0.000837044,-1.31039,-2.04013,-0.0289198,55.1797,0.0171056,
2,0,0,1,0,46511.6,0.0141879,0.0138629,-49.1053,24,0.00759199,10,-0.000680743,-1.30887,-2.46586,-0.0239267,45.7958,0.0138629,
2,0,0,1,0,46511.6,0.0109806,0.0106626,-49.2452,24,0.00739526,10,-0.000525082,-1.30764,-3.07128,-0.0192102,36.8634,0.0106626,
2,0,0,1,0,46511.6,0.00778448,0.00747291,-49.3371,24,0.00719809,10,-0.000368691,-1.30683,-3.39275,-0.01739,33.4716,0.00747291,
2,0,0,1,0,46511.6,0.00458834,0.00428214,-49.4065,24,0.00700058,10,-0.000211566,-1.30622,-4.725,-0.0124868,24.0735,0.004282143,
2,0,0,1,0,46511.6,0.0013811,0.0010882,-49.5329,24,0.00680272,10,-5.39016e-05,-1.30511,-6.20081,-0.00951488,18.3645,0.0010882,
2,0,0,1,0,46511.6,-0.00181504,-0.00219694,-49.5548,24,0.00660454,10,0.000108869,-1.30491,-11.5954,-0.00508824,9.82361,-0.00219694,
2,0,0,1,0,46511.6,-0.0050195,-0.00539725,-49.5734,24,0.00640629,10,0.00026756,-1.30475,38.1498,0.00154653,-2.98847,-0.00539725,
2,0,0,1,0,46511.6,-0.00821564,-0.00859862,-49.5331,24,0.00620808,10,0.000425916,-1.3051,11.4386,0.005158,-9.9626,-0.00859862,
2,0,0,1,0,46511.6,-0.0114118,-0.0117777,-49.4944,24,0.00601004,10,0.000582932,-1.30544,6.29462,0.00937308,-18.0917,-0.0117777,
2,0,0,1,0,46511.6,-0.0146162,-0.0149547,-49.4277,24,0.00581219,10,0.000739176,-1.30603,4.87266,0.0121084,-23.3365,-0.0149547,
2,0,0,1,0,46511.6,-0.0178124,-0.0181805,-49.3421,24,0.00561464,10,0.000897063,-1.30678,3.58688,0.0164489,-31.6427,-0.0181805,
2,0,0,1,0,46511.6,-0.0210196,-0.0213691,-49.235,24,0.0054175,10,0.00105211,-1.30773,2.8638,0.020602,-39.5382,-0.0213691,
2,0,0,1,0,46511.6,-0.0242158,-0.0245705,-49.0896,24,0.00522085,10,0.00120616,-1.30901,2.53106,0.0233104,-44.6282,-0.0245705,
2,0,0,1,0,46511.6,-0.0274119,-0.0277167,-48.9231,24,0.00502483,10,0.00135599,-1.31049,2.22138,0.0265601,-50.6975,-0.0277167,
2,0,0,1,0,46511.6,-0.0306191,-0.0309626,-48.7717,24,0.00482944,10,0.0015101,-1.31183,2.10136,0.0280771,-53.4148,-0.0309626,
2,0,0,1,0,46511.6,-0.0338153,-0.0341831,-48.5854,24,0.00463474,10,0.0016608,-1.31349,1.95831,0.030128,-57.0909,-0.0341831,
2,0,0,1,0,46511.7,-0.037017,-0.0373802,-48.4054,24,0.00444078,10,0.0018094,-1.31511,1.7954,0.0328617,-62.0366,-0.0373802,
2,0,0,1,0,46511.7,-0.0402187,-0.0405847,-48.1885,24,0.0042476,10,0.00195572,-1.31706,1.73308,0.0340435,-64.0061,-0.0405847,
2,0,0,1,0,46511.7,-0.0434148,-0.0438147,-47.9744,24,0.0040553,10,0.00210199,-1.31899,1.66886,0.0353535,-66.2001,-0.0438147,
2,0,0,1,0,46511.7,-0.0466193,-0.046962,-47.7675,24,0.00386385,10,0.00224326,-1.32087,1.64639,0.035836,-66.797,-0.046962,
2,0,0,1,0,46511.7,-0.0498154,-0.0501867,-47.5576,24,0.00367322,10,0.00238676,-1.32278,1.65339,0.0356842,-66.2193,-0.05018672,
2,0,0,1,0,46511.7,-0.0530115,-0.0533457,-47.3361,24,0.00348345,10,0.00252517,-1.32481,1.63721,0.036037,-66.5783,-0.0533457,
2,0,0,1,0,46511.7,-0.056216,-0.0566117,-47.127,24,0.00329452,10,0.00266794,-1.32673,1.70139,0.0346775,-63.8073,-0.0566117,
2,0,0,1,0,46511.7,-0.0594121,-0.0597908,-46.9134,24,0.00310645,10,0.00280499,-1.3287,1.75011,0.0337122,-61.7575,-0.0597908,
2,0,0,1,0,46511.7,-0.0626194,-0.0630017,-46.7399,24,0.00291919,10,0.0029447,-1.33031,1.81393,0.032526,-59.342,-0.0630017,
2,0,0,1,0,46511.7,-0.0658155,-0.0661512,-46.5452,24,0.00273263,10,0.00307902,-1.33212,1.91782,0.0307641,-55.8953,-0.06615115,
2,0,0,1,0,46511.7,-0.0690117,-0.0693334,-46.3721,24,0.00254682,10,0.00321513,-1.33374,1.96217,0.0300687,-54.4396,-0.0693334,
2,0,0,1,0,46511.7,-0.0722189,-0.0725751,-46.1988,24,0.00236169,10,0.00335288,-1.33537,2.1291,0.0277112,-49.9902,-0.0725751,
2,0,0,1,0,46511.7,-0.075415,-0.0757754,-46.0445,24,0.00217722,10,0.00348904,-1.33682,2.37167,0.024877,-44.7421,-0.0757754,
2,0,0,1,0,46511.7,-0.0786167,-0.0789789,-45.904,24,0.00199333,10,0.00362544,-1.33815,2.63725,0.0223718,-40.1119,-0.0789789,
2,0,0,1,0,46511.7,-0.0818184,-0.0821591,-45.7982,24,0.00180994,10,0.00376274,-1.33915,3.02706,0.0194909,-34.8543,-0.0821591,
2,0,0,1,0,46511.7,-0.0850146,-0.0853625,-45.6859,24,0.00162699,10,0.00389986,-1.34022,3.31659,0.0177894,-31.7284,-0.0853625,
2,0,0,1,0,46511.7,-0.088219,-0.0885978,-45.5976,24,0.00144445,10,0.00403985,-1.34106,3.85308,0.0153124,-27.2644,-0.0885978,
2,0,0,1,0,46511.7,-0.0914152,-0.0917706,-45.4981,24,0.00126228,10,0.00417539,-1.34201,4.60436,0.012814,-22.774,-0.0917706,
2,0,0,1,0,46511.7,-0.0946141,-0.0949571,-45.4493,24,0.00108042,10,0.00431573,-1.34247,6.06294,0.00973125,-17.2751,-0.0949571,
2,0,0,1,0,46511.7,-0.0978158,-0.0981691,-45.3942,24,0.000898727,10,0.00445631,-1.343,9.31885,0.00633126,-11.2243,-0.0981691,
2,0,0,1,0,46511.7,-0.101012,-0.10138,-45.3768,24,0.000717186,10,0.0046003,-1.34317,13.5304,0.00436055,-7.72608,-0.10138,
2,0,0,1,0,46511.7,-0.104219,-0.104564,-45.3545,24,0.000535727,10,0.00474247,-1.34338,36.707,0.00160732,-2.84638,-0.104564,
2,0,0,1,0,46511.7,-0.107415,-0.107772,-45.3503,24,0.000354311,10,0.0048875,-1.34342,-33.0975,-0.00178261,3.15826,-0.107772,
2,0,0,1,0,46511.7,-0.110611,-0.11098,-45.3577,24,0.000172887,10,0.00503379,-1.34335,-13.2211,-0.00446257,7.90776,-0.11098,
2,0,0,1,0,46511.7,-0.113819,-0.114157,-45.4172,24,-8.67854e-06,10,0.00518468,-1.34278,-8.23471,-0.00716479,12.7036,-0.114157,
2,0,0,1,0,46511.8,-0.117015,-0.117375,-45.4558,24,-0.000190412,10,0.00533538,-1.34241,-5.88745,-0.0100213,17.7838,-0.117375,
2,0,0,1,0,46511.8,-0.120216,-0.120603,-45.5133,24,-0.000372337,10,0.00548904,-1.34186,-5.16903,-0.0114141,20.2892,-0.120603,
2,0,0,1,0,46511.8,-0.123418,-0.123758,-45.585,24,-0.000554543,10,0.00564149,-1.34118,-4.06453,-0.0145158,25.8446,-0.123758,
2,0,0,1,0,46511.8,-0.126614,-0.126959,-45.6769,24,-0.000737053,10,0.0057991,-1.3403,-3.47123,-0.0169968,30.3183,-0.126959,
2,0,0,1,0,46511.8,-0.129819,-0.130176,-45.7867,24,-0.000919998,10,0.00596034,-1.33926,-3.17171,-0.0186019,33.247,-0.130176,
2,0,0,1,0,46511.8,-0.133015,-0.133329,-45.8991,24,-0.00110338,10,0.00611968,-1.3382,-2.79736,-0.0210913,37.7971,-0.133329,
2,0,0,1,0,46511.8,-0.136214,-0.136496,-46.0085,24,-0.00128721,10,0.00627999,-1.33716,-2.62322,-0.0224915,40.4166,-0.136496,
2,0,0,1,0,46511.8,-0.139416,-0.139783,-46.1616,24,-0.00147159,10,0.00645259,-1.33572,-2.41343,-0.0244466,44.0608,-0.139783,
2,0,0,1,0,46511.8,-0.142612,-0.142962,-46.3034,24,-0.00165653,10,0.00661961,-1.33439,-2.23172,-0.0264371,47.7866,-0.142962,
2,0,0,1,0,46511.8,-0.145819,-0.146184,-46.4655,24,-0.00184207,10,0.00679253,-1.33287,-2.20827,-0.0267177,48.4547,-0.1461843,
2,0,0,1,0,46511.8,-0.149015,-0.149388,-46.6245,24,-0.00202827,10,0.00696514,-1.33139,-2.15249,-0.0274101,49.8731,-0.149388,
2,0,0,1,0,46511.8,-0.152211,-0.152541,-46.7798,24,-0.00221508,10,0.00713586,-1.32994,-2.13665,-0.0276133,50.4209,-0.152541,
2,0,0,1,0,46511.8,-0.155418,-0.155776,-46.9425,24,-0.00240256,10,0.0073125,-1.32843,-2.11619,-0.0278803,51.0855,-0.155776,
2,0,0,1,0,46511.8,-0.158615,-0.158982,-47.1108,24,-0.00259067,10,0.00748979,-1.32688,-2.07231,-0.0284706,52.3489,-0.158982,
2,0,0,1,0,46511.8,-0.161816,-0.162162,-47.2771,24,-0.00277945,10,0.00766658,-1.32535,-2.11521,-0.0278933,51.4568,-0.1621625,
2,0,0,1,0,46511.8,-0.165018,-0.165328,-47.4492,24,-0.00296892,10,0.00784467,-1.32377,-2.13716,-0.0276067,51.1068,-0.165328,
2,0,0,1,0,46511.8,-0.168214,-0.168509,-47.5977,24,-0.00315903,10,0.00802064,-1.32241,-2.24916,-0.026232,48.7181,-0.168509,
2,0,0,1,0,46511.8,-0.171419,-0.171708,-47.7612,24,-0.00334976,10,0.00820099,-1.32092,-2.32837,-0.0253396,47.2225,-0.171708,
2,0,0,1,0,46511.8,-0.174615,-0.174939,-47.8996,24,-0.00354109,10,0.00837952,-1.31967,-2.37776,-0.0248133,46.3804,-0.174939,
2,0,0,1,0,46511.8,-0.177814,-0.178152,-48.0548,24,-0.00373302,10,0.00856108,-1.31826,-2.51751,-0.0234359,43.9408,-0.178152,
2,0,0,1,0,46511.8,-0.181015,-0.181341,-48.1928,24,-0.00392556,10,0.00873934,-1.31702,-2.57922,-0.0228752,43.0079,-0.181341,
2,0,0,1,0,46511.8,-0.184211,-0.184527,-48.3244,24,-0.00411863,10,0.00891714,-1.31583,-2.68532,-0.0219713,41.4327,-0.1845265,
2,0,0,1,0,46511.8,-0.187419,-0.187763,-48.4511,24,-0.00431221,10,0.00909732,-1.3147,-2.87133,-0.020548,38.8462,-0.187763,
2,0,0,1,0,46511.8,-0.190615,-0.190961,-48.5855,24,-0.00450629,10,0.00927793,-1.31349,-2.89201,-0.0204011,38.6723,-0.190961,
2,0,0,1,0,46511.8,-0.193811,-0.194159,-48.6908,24,-0.00470088,10,0.00945377,-1.31255,-3.1888,-0.0185022,35.1403,-0.194159,
2,0,0,1,0,46511.9,-0.197018,-0.197339,-48.8199,24,-0.00489594,10,0.0096341,-1.3114,-5.01414,-0.0117667,22.3606,-0.1973394,
2,0,0,1,0,46511.9,-0.199647,-0.19996,-48.8797,24,-0.00505717,10,0.00977397,-1.31087,0.237463,0.24846,-460.317,-0.19996,
2,0,0,1,0,46511.9,-0.200134,-0.20057,-48.8004,24,-0.0050865,10,0.00978791,-1.31158,-0.015077,-3.91324,6839.16,-0.2005704,
2,0,0,1,1,46511.9,-0.198935,-0.19941,-46.2736,24,-0.00515703,10,0.00922744,-1.33467,-0.0573728,-1.02836,1710.09,-0.19941,
2,0,0,1,1,46511.9,-0.195739,-0.196192,-40.9729,24,-0.00533047,10,0.00803855,-1.3875,-0.0659939,-0.894022,1418.2,-0.196192,
2,0,0,1,1,46511.9,-0.192535,-0.192955,-36.9004,24,-0.00548556,10,0.00712011,-1.43297,-0.0707862,-0.833496,1229.42,-0.1929546,
2,0,0,1,1,46511.9,-0.189339,-0.189751,-33.4564,24,-0.00562582,10,0.00634839,-1.47552,-0.0755129,-0.781324,1033.42,-0.189751,
2,0,0,1,1,46511.9,-0.186137,-0.186516,-30.4209,24,-0.00575318,10,0.00567397,-1.51683,-0.0772218,-0.764033,914.108,-0.186516,
2,0,0,1,1,46511.9,-0.182935,-0.183325,-27.6759,24,-0.005869,10,0.00507369,-1.5579,-0.0770706,-0.765532,830.691,-0.183325,
2,0,0,1,1,46511.9,-0.179739,-0.180111,-25.16,24,-0.00597435,10,0.00453159,-1.59929,-0.0761262,-0.775029,763.009,-0.180111,
2,0,0,1,1,46511.9,-0.176532,-0.176956,-22.8278,24,-0.00607006,10,0.00403953,-1.64154,-0.0742792,-0.7943,708.304,-0.176956,
2,0,0,1,1,46511.9,-0.173336,-0.173722,-20.6591,24,-0.00615677,10,0.00358894,-1.68489,-0.0716621,-0.823309,662.718,-0.173722,
2,0,0,1,1,46511.9,-0.17014,-0.170539,-18.6193,24,-0.0062351,10,0.0031753,-1.73004,-0.0686167,-0.859849,622.283,-0.170539,
2,0,0,1,1,46511.9,-0.166932,-0.167302,-16.6715,24,-0.00630544,10,0.00278917,-1.77803,-0.0643242,-0.917229,593.336,-0.167302,
2,0,0,1,1,46511.9,-0.163736,-0.164108,-14.8328,24,-0.00636825,10,0.00243418,-1.82878,-0.0601481,-0.980912,563.407,-0.164108,
2,0,0,1,1,46511.9,-0.160532,-0.160929,-13.0687,24,-0.00642387,10,0.00210313,-1.88377,-0.0552187,-1.06848,539.106,-0.160929,
2,0,0,1,1,46511.9,-0.157336,-0.15773,-11.4028,24,-0.00647263,10,0.00179856,-1.94299,-0.0498428,-1.18372,517.846,-0.15773,
2,0,0,1,1,46511.9,-0.154139,-0.154542,-9.79252,24,-0.00651484,10,0.00151336,-2.00911,-0.0445496,-1.32437,493.832,-0.154542,
2,0,0,1,1,46511.9,-0.150935,-0.151359,-8.23064,24,-0.00655071,10,0.00124578,-2.08457,-0.0383446,-1.53868,477.713,-0.1513591,
2,0,0,1,1,46511.9,-0.147739,-0.148104,-6.73497,24,-0.00658046,10,0.000997474,-2.17166,-0.0319199,-1.84837,461.802,-0.148104,
2,0,0,1,1,46511.9,-0.144532,-0.144922,-5.28443,24,-0.00660435,10,0.000765833,-2.277,-0.025146,-2.34629,443.666,-0.144922,
2,0,0,1,1,46511.9,-0.141335,-0.141787,-3.90195,24,-0.00662257,10,0.000553244,-2.40872,-0.0171826,-3.4337,432.351,-0.1417868,
2,0,0,1,1,46511.9,-0.138139,-0.138547,-2.54646,24,-0.00663532,10,0.000352805,-2.59406,-0.00636291,-9.27248,417.908,-0.138547,
2,0,0,1,1,46511.9,-0.134932,-0.135344,-1.21824,24,-0.00664269,10,0.000164882,-2.91427,-0.0266699,-2.21223,404.165,-0.135344,
2,0,0,1,1,46511.9,-0.131736,-0.132153,0.0520169,24,-0.0066449,10,-6.87419e-06,-4.28386,-2.02084,-0.0291958,395.625,-0.132153,
2,1,0,1,1,46511.9,-0.12854,-0.128946,1.28772,24,-0.00664207,10,-0.000166047,-2.89018,0.0265698,2.22056,383.936,-0.128946,
2,1,0,1,1,46511.9,-0.125333,-0.125767,2.50964,24,-0.00663435,10,-0.000315631,-2.60039,0.00648999,9.09092,375.071,-0.125767,
2,1,0,1,1,46512,-0.122136,-0.122579,3.68277,24,-0.00662185,10,-0.000451429,-2.43383,0.0191873,3.07496,366.11,-0.122579,
2,1,0,1,1,46512,-0.118932,-0.119373,4.84544,24,-0.00660469,10,-0.000578414,-2.31467,0.0284114,2.07663,356.511,-0.119373,
2,1,0,1,1,46512,-0.115736,-0.116173,5.96429,24,-0.00658296,10,-0.000692887,-2.22444,0.0371951,1.58623,347.963,-0.116173,
2,1,0,1,1,46512,-0.11254,-0.113007,7.05869,24,-0.00655682,10,-0.000797683,-2.15128,0.0458173,1.28772,341.427,-0.113007,
2,1,0,1,1,46512,-0.109335,-0.109761,8.14266,24,-0.00652628,10,-0.00089375,-2.08923,0.0544121,1.08432,335.005,-0.109761,
2,1,0,1,1,46512,-0.106139,-0.106604,9.20526,24,-0.00649147,10,-0.000981313,-2.03596,0.0630935,0.935119,328.505,-0.106604,
2,1,0,1,1,46512,-0.102932,-0.103367,10.2542,24,-0.00645243,10,-0.00105995,-1.9891,0.0722121,0.817038,320.688,-0.103367,
2,1,0,1,1,46512,-0.0997357,-0.100183,11.2716,24,-0.00640928,10,-0.00112922,-1.94801,0.0814848,0.724061,313.633,-0.100183,
2,1,0,1,1,46512,-0.0965395,-0.0969517,12.2506,24,-0.00636213,10,-0.00118771,-1.91184,0.0907652,0.650029,307.281,-0.0969517,
2,1,0,1,1,46512,-0.0933323,-0.0937514,13.2361,24,-0.00631106,10,-0.0012409,-1.87824,0.100068,0.589599,301.744,-0.0937514,
2,1,0,1,1,46512,-0.0901362,-0.0905808,14.1832,24,-0.00625611,10,-0.00128473,-1.84823,0.109042,0.541075,297.053,-0.0905808,
2,1,0,1,1,46512,-0.0869345,-0.0873434,15.1458,24,-0.00619737,10,-0.00132289,-1.81971,0.119711,0.492853,288.789,-0.08734338,
2,1,0,1,1,46512,-0.0837328,-0.0841431,16.0554,24,-0.00613486,10,-0.00135095,-1.79438,0.129575,0.455335,283.187,-0.0841431,
2,1,0,1,1,46512,-0.0805366,-0.0809099,16.9446,24,-0.00606877,10,-0.00137099,-1.77097,0.140605,0.419616,275.997,-0.0809099,
2,1,0,1,1,46512,-0.0773322,-0.0777117,17.8276,24,-0.00599914,10,-0.00138541,-1.74891,0.151062,0.390567,270.325,-0.0777117,
2,1,0,1,1,46512,-0.074136,-0.0745209,18.6848,24,-0.00592604,10,-0.00139241,-1.72851,0.16031,0.368036,267.112,-0.0745209,
2,1,0,1,1,46512,-0.0709371,-0.0712994,19.5274,24,-0.00584952,10,-0.00139229,-1.70936,0.172613,0.341805,259.327,-0.0712994,
2,1,0,1,1,46512,-0.0677354,-0.068149,20.3532,24,-0.00576965,10,-0.00138705,-1.69137,0.182924,0.322539,255.22,-0.068149,
2,1,0,1,1,46512,-0.0645393,-0.0649083,21.1478,24,-0.00568653,10,-0.00137267,-1.67473,0.194333,0.303602,249.8,-0.0649083,
2,1,0,1,1,46512,-0.0613321,-0.0617123,21.9538,24,-0.00560025,10,-0.00135482,-1.65849,0.206575,0.285611,243.864,-0.0617123,
2,1,0,1,1,46512,-0.0581359,-0.0585258,22.7182,24,-0.00551082,10,-0.0013296,-1.64363,0.217097,0.271768,240.222,-0.0585258,
2,1,0,1,1,46512,-0.0549398,-0.0553382,23.4773,24,-0.00541834,10,-0.00129919,-1.62935,0.231409,0.254959,232.96,-0.0553382,
2,1,0,1,1,46512,-0.0517325,-0.0521209,24.2196,24,-0.00532285,10,-0.00126235,-1.61583,0.242987,0.242811,228.867,-0.0521209,
2,1,0,1,1,46512,-0.0485364,-0.0489185,24.9343,24,-0.00522446,10,-0.00121975,-1.6032,0.257214,0.229381,222.704,-0.0489185,
2,1,0,1,1,46512,-0.0453347,-0.0457394,25.6446,24,-0.00512323,10,-0.00117297,-1.591,0.270455,0.218151,217.817,-0.0457394,
2,1,0,1,1,46512.1,-0.042133,-0.0425189,26.3322,24,-0.00501921,10,-0.00111962,-1.57951,0.284664,0.207262,212.536,-0.0425189,
2,1,0,1,1,46512.1,-0.0389369,-0.039361,26.999,24,-0.00491247,10,-0.00106271,-1.56865,0.300954,0.196043,206.143,-0.039361,
2,1,0,1,1,46512.1,-0.0357324,-0.0360748,27.664,24,-0.00480307,10,-0.000997974,-1.55809,0.315726,0.186871,201.272,-0.0360748,
2,1,0,1,1,46512.1,-0.0325363,-0.0329297,28.2853,24,-0.0046911,10,-0.000931424,-1.54844,0.3346,0.17633,194.272,-0.0329297,
2,1,0,1,1,46512.1,-0.0293374,-0.0297421,28.9038,24,-0.00457666,10,-0.000859659,-1.53905,0.347139,0.169961,191.44,-0.02974207,
2,1,0,1,1,46512.1,-0.0261357,-0.0264909,29.4993,24,-0.00445976,10,-0.000781461,-1.53019,0.364822,0.161723,185.934,-0.0264909,
2,1,0,1,1,46512.1,-0.0229395,-0.0233849,30.0934,24,-0.0043405,10,-0.000703731,-1.52153,0.385004,0.153245,179.67,-0.0233849,
2,1,0,1,1,46512.1,-0.0197323,-0.0201274,30.6656,24,-0.00421893,10,-0.000617219,-1.51335,0.405193,0.14561,173.875,-0.0201274,
2,1,0,1,1,46512.1,-0.0165361,-0.0169111,31.2091,24,-0.00409512,10,-0.000527782,-1.50572,0.429465,0.13738,167.057,-0.0169111,
2,1,0,1,1,46512.1,-0.01334,-0.0137066,31.7221,24,-0.0039692,10,-0.000434802,-1.49864,0.449099,0.131374,162.501,-0.0137066,
2,1,0,1,1,46512.1,-0.0101328,-0.010483,32.2487,24,-0.00384119,10,-0.000338062,-1.49149,0.470192,0.125481,157.736,-0.010483,
2,1,0,1,1,46512.1,-0.00693663,-0.00732507,32.746,24,-0.00371113,10,-0.000239867,-1.48484,0.487405,0.121049,154.378,-0.00732507,
2,1,0,1,1,46512.1,-0.00373494,-0.00408765,33.2319,24,-0.00357913,10,-0.00013584,-1.47845, , , ,-0.00408765,
2,1,0,1,1,46512.1,-0.000774629,-0.00119698,33.6533,24,-0.00345537,10,-4.02823e-05,-1.47297, , , ,-0.00119698,
2,1,0,0,1,46512.1,-0.000125413,-0.000592546,33.7623,24,-0.00342841,10,-2.00057e-05,-1.47157, , , ,-0.000592546,