File: Figure_codes/Fig_3-5/rawdata_trumpetplot_data/after 10th/20221101_1-115_003_TrumpetPlot_ParaChange_from10_every3_05_CV_C01_2.csv
mode,ox/red,error,control changes,counter inc.,time/s,control/V,Ewe/V,<I>/mA,cycle number,(Q-Qo)/C,I Range,P/W,log(|I|),Tafel slope mV/dec,alpha_eff,dI/d(E-IR),E-IR/V,
2,0,0,1,0,5060.28,2.44065e-05,-0.000478022,-0.725885,3,0.0000000E+000,10,3.46989e-07,-3.13913, , , ,-0.000478022,
2,1,0,1,0,5060.34,0.00129787,0.000942041,0.298995,3,-2.16138e-06,10,2.81665e-07,-3.52434, , , ,0.000942041,
2,1,0,1,0,5060.42,0.00279606,0.00246142,0.596621,3,3.49829e-05,10,1.46854e-06,-3.2243,0.00433524,13.6094,148.439,0.00246142,
2,1,0,1,0,5060.49,0.00429425,0.00402658,0.667063,3,8.3964e-05,10,2.68598e-06,-3.17583,0.0304355,1.93853,47.6099,0.00402658,
2,1,0,1,0,5060.57,0.00579244,0.00546785,0.713614,3,0.000137325,10,3.90193e-06,-3.14654,0.0535612,1.10154,30.3365,0.00546785,
2,1,0,1,0,5060.64,0.00729063,0.00699036,0.757957,3,0.000193893,10,5.29839e-06,-3.12036,0.072656,0.812046,23.7895,0.00699036,
2,1,0,1,0,5060.72,0.00878882,0.0084822,0.790632,3,0.000253342,10,6.7063e-06,-3.10203,0.0913216,0.646068,19.7395,0.0084822,
2,1,0,1,0,5060.79,0.010287,0.00998504,0.817683,3,0.000314989,10,8.16459e-06,-3.08742,0.121702,0.484791,15.3579,0.00998504,
2,1,0,1,0,5060.87,0.0117852,0.0114602,0.840438,3,0.000378519,10,9.63163e-06,-3.07549,0.120652,0.489009,16.0282,0.0114602,
2,1,0,1,0,5060.94,0.0132847,0.0129652,0.861152,3,0.000443673,10,1.1165e-05,-3.06492,0.125015,0.471944,15.943,0.0129652,
2,1,0,1,0,5061.02,0.0147802,0.0144792,0.884904,3,0.00051044,10,1.28127e-05,-3.0531,0.14057,0.41972,14.4836,0.0144792,
2,1,0,1,0,5061.09,0.0162798,0.016,0.904283,3,0.000579175,10,1.44685e-05,-3.0437,0.158732,0.371695,13.0434,0.016,
2,1,0,1,0,5061.17,0.017778,0.0174564,0.923092,3,0.0006491,10,1.61138e-05,-3.03476,0.181079,0.325825,11.7506,0.0174564,
2,1,0,1,0,5061.24,0.0192761,0.0189495,0.93976,3,0.000720133,10,1.7808e-05,-3.02698,0.18571,0.3177,11.671,0.0189495,
2,1,0,1,0,5061.32,0.0207743,0.0204913,0.960071,3,0.000792747,10,1.96731e-05,-3.0177,0.174001,0.339078,12.6622,0.0204913,
2,1,0,1,0,5061.39,0.0222725,0.0219858,0.977791,3,0.000866799,10,2.14975e-05,-3.00975,0.186341,0.316623,12.0731,0.02198579,
2,1,0,1,0,5061.47,0.0237707,0.0234572,0.997427,3,0.000942187,10,2.33969e-05,-3.00112,0.19887,0.296677,11.5396,0.02345722,
2,1,0,1,0,5061.54,0.0252689,0.0249931,1.00872,3,0.00101872,10,2.5211e-05,-2.99623,0.200346,0.29449,11.6903,0.0249931,
2,1,0,1,0,5061.62,0.0267671,0.0265197,1.03011,3,0.00109668,10,2.73182e-05,-2.98712,0.179388,0.328896,13.2345,0.0265197,
2,1,0,1,0,5061.69,0.0282653,0.0279238,1.05622,3,0.00117619,10,2.94938e-05,-2.97624,0.178251,0.330994,13.5733,0.0279238,
2,1,0,1,0,5061.77,0.0297644,0.0294853,1.0699,3,0.0012572,10,3.15462e-05,-2.97066,0.20397,0.289258,12.0884,0.0294853,
2,1,0,1,0,5061.84,0.0312599,0.0309694,1.08276,3,0.00133928,10,3.35324e-05,-2.96547,0.211337,0.279175,11.8734,0.0309694,
2,1,0,1,0,5061.91,0.0327599,0.0325066,1.10513,3,0.00142294,10,3.5924e-05,-2.95659,0.197202,0.299185,12.9217,0.03250657,
2,1,0,1,0,5061.99,0.034258,0.0339253,1.12806,3,0.00150815,10,3.82698e-05,-2.94767,0.188863,0.312396,13.7386,0.0339253,
2,1,0,1,0,5062.06,0.0357562,0.0354156,1.14899,3,0.00159487,10,4.06921e-05,-2.93968,0.222913,0.264677,11.8478,0.0354156,
2,1,0,1,0,5062.14,0.0372544,0.036952,1.16675,3,0.00168308,10,4.31136e-05,-2.93302,0.204341,0.288734,13.1574,0.036952,
2,1,0,1,0,5062.21,0.0387526,0.0384259,1.1881,3,0.00177258,10,4.56538e-05,-2.92515,0.202003,0.292075,13.5783,0.0384259,
2,1,0,1,0,5062.29,0.0402508,0.0399067,1.20957,3,0.00186379,10,4.82699e-05,-2.91737,0.197257,0.299102,14.0954,0.0399067,
2,1,0,1,0,5062.36,0.041749,0.0414876,1.23429,3,0.00195674,10,5.12078e-05,-2.90858,0.214385,0.275205,13.1985,0.0414876,
2,1,0,1,0,5062.44,0.0432472,0.042988,1.25347,3,0.00205113,10,5.38841e-05,-2.90189,0.222238,0.265481,12.9455,0.042988,
2,1,0,1,0,5062.51,0.0447449,0.0444416,1.27261,3,0.0021469,10,5.6557e-05,-2.8953,0.209463,0.281673,13.9914,0.0444416,
2,1,0,1,0,5062.59,0.0462445,0.0459307,1.29241,3,0.00224442,10,5.93611e-05,-2.8886,0.192608,0.306322,15.4366,0.0459307,
2,1,0,1,0,5062.66,0.04774,0.0474098,1.31335,3,0.00234333,10,6.22655e-05,-2.88162,0.215362,0.273957,14.0352,0.04740984,
2,1,0,1,0,5062.74,0.0492399,0.0489265,1.3315,3,0.00244405,10,6.51457e-05,-2.87566,0.24401,0.241793,12.5868,0.0489265,
2,1,0,1,0,5062.81,0.0507381,0.0504419,1.34759,3,0.002546,10,6.79747e-05,-2.87044,0.234006,0.252131,13.3286,0.0504419,
2,1,0,1,0,5062.89,0.0522363,0.0518782,1.37372,3,0.00264953,10,7.12663e-05,-2.8621,0.210757,0.279944,15.0303,0.0518782,
2,1,0,1,0,5062.96,0.0537345,0.0534131,1.39864,3,0.00275479,10,7.47058e-05,-2.85429,0.229929,0.256601,13.9552,0.0534131,
2,1,0,1,0,5063.04,0.0552327,0.0549492,1.41395,3,0.00286157,10,7.76953e-05,-2.84957,0.278959,0.211501,11.6503,0.0549492,
2,1,0,1,0,5063.11,0.0567309,0.0564108,1.42999,3,0.00296968,10,8.06667e-05,-2.84467,0.277685,0.212471,11.8839,0.0564108,
2,1,0,1,0,5063.19,0.0582291,0.0578896,1.45128,3,0.00307897,10,8.40143e-05,-2.83825,0.255612,0.230819,13.0913,0.0578896,
2,1,0,1,0,5063.26,0.0597291,0.0593746,1.47289,3,0.00318999,10,8.74525e-05,-2.83183,0.251156,0.234914,13.4782,0.0593746,
2,1,0,1,0,5063.34,0.0612246,0.0609018,1.48924,3,0.00330224,10,9.06977e-05,-2.82703,0.298074,0.197937,11.5009,0.0609018,
2,1,0,1,0,5063.41,0.0627241,0.0624257,1.51261,3,0.00341625,10,9.44257e-05,-2.82027,0.280403,0.210412,12.3936,0.0624257,
2,1,0,1,0,5063.49,0.0642219,0.0638929,1.52668,3,0.00353135,10,9.75439e-05,-2.81625,0.261146,0.225927,13.4901,0.0638929,
2,1,0,1,0,5063.56,0.06572,0.0654411,1.54628,3,0.00364783,10,0.00010119,-2.81071,0.289497,0.203802,12.2966,0.06544105,
2,1,0,1,0,5063.64,0.0672182,0.0669537,1.56501,3,0.00376592,10,0.000104783,-2.80548,0.30639,0.192565,11.7482,0.0669537,
2,1,0,1,0,5063.71,0.0687164,0.0684467,1.58309,3,0.00388521,10,0.000108357,-2.80049,0.34488,0.171074,10.5614,0.0684467,
2,1,0,1,0,5063.79,0.0702146,0.0699035,1.59857,3,0.00400565,10,0.000111746,-2.79627,0.331005,0.178245,11.1261,0.0699035,
2,1,0,1,0,5063.86,0.0717128,0.0713937,1.61931,3,0.00412749,10,0.000115609,-2.79067,0.30405,0.194047,12.2359,0.0713937,
2,1,0,1,0,5063.94,0.073211,0.0728706,1.63346,3,0.00425063,10,0.000119031,-2.78689,0.34,0.173529,11.0594,0.0728706,
2,1,0,1,0,5064.01,0.0747092,0.0743737,1.65019,3,0.00437502,10,0.00012273,-2.78247,0.355144,0.16613,10.6763,0.0743737,
2,1,0,1,0,5064.09,0.0762087,0.0758797,1.66306,3,0.00450066,10,0.000126192,-2.77909,0.367224,0.160665,10.4357,0.0758797,
2,1,0,1,0,5064.16,0.0777042,0.0774009,1.67781,3,0.00462697,10,0.000129864,-2.77526,0.32471,0.181701,11.9112,0.0774009,
2,1,0,1,0,5064.24,0.0792037,0.0789255,1.69908,3,0.00475497,10,0.000134101,-2.76979,0.347684,0.169694,11.2079,0.07892555,
2,1,0,1,0,5064.31,0.0807019,0.0804123,1.70709,3,0.00488408,10,0.000137271,-2.76774,0.406151,0.145266,9.67191,0.0804123,
2,1,0,1,0,5064.39,0.0822001,0.0819032,1.7227,3,0.00501419,10,0.000141095,-2.76379,0.399887,0.147542,9.92968,0.0819032,
2,1,0,1,0,5064.46,0.0836983,0.0833748,1.73807,3,0.00514524,10,0.000144911,-2.75993,0.375362,0.157182,10.6873,0.0833748,
2,1,0,1,0,5064.54,0.0851965,0.0848654,1.75538,3,0.00527768,10,0.000148971,-2.75563,0.337383,0.174876,11.9915,0.0848654,
2,1,0,1,0,5064.61,0.0866947,0.0863974,1.77183,3,0.0054114,10,0.000153081,-2.75158,0.436778,0.13508,9.3441,0.0863974,
2,1,0,1,0,5064.69,0.0881929,0.0878917,1.7926,3,0.00554636,10,0.000157555,-2.74652,0.348305,0.169392,11.8466,0.0878917,
2,1,0,1,0,5064.76,0.0896911,0.0894134,1.80889,3,0.00568239,10,0.000161739,-2.74259,0.330056,0.178758,12.6374,0.0894134,
2,1,0,1,0,5064.84,0.0911893,0.0909051,1.82845,3,0.00581997,10,0.000166216,-2.73792,0.273912,0.215398,15.3808,0.09090507,
2,1,0,1,0,5064.91,0.0926884,0.0923759,1.85659,3,0.00595962,10,0.000171504,-2.73128,0.271034,0.217685,15.7255,0.0923759,
2,1,0,1,0,5064.99,0.0941839,0.0938786,1.87804,3,0.00610055,10,0.000176308,-2.72629,0.264651,0.222935,16.3366,0.0938786,
2,1,0,1,0,5065.06,0.0956838,0.0953825,1.89715,3,0.00624337,10,0.000180955,-2.7219,0.241592,0.244213,18.1357,0.0953825,
2,1,0,1,0,5065.14,0.097182,0.0968643,1.92403,3,0.00638804,10,0.00018637,-2.71579,0.216614,0.272373,20.4743,0.0968643,
2,1,0,1,0,5065.21,0.0986802,0.0983574,1.95865,3,0.00653499,10,0.000192648,-2.70804,0.209802,0.281218,21.5032,0.0983574,
2,1,0,1,0,5065.29,0.100178,0.099882,1.99081,3,0.00668425,10,0.000198846,-2.70097,0.227916,0.258867,20.0988,0.099882,
2,1,0,1,0,5065.36,0.101677,0.101356,2.01603,3,0.00683582,10,0.000204336,-2.6955,0.210613,0.280134,22.1225,0.101356,
2,1,0,1,0,5065.44,0.103175,0.102877,2.05573,3,0.00698975,10,0.000211489,-2.68703,0.199555,0.295658,23.7527,0.102877,
2,1,0,1,0,5065.51,0.104673,0.104369,2.0975,3,0.00714665,10,0.000218915,-2.6783,0.189003,0.312165,25.5106,0.104369,
2,1,0,1,0,5065.59,0.106171,0.105871,2.13645,3,0.00730655,10,0.000226188,-2.67031,0.196677,0.299984,24.9252,0.105871,
2,1,0,1,0,5065.66,0.107669,0.107375,2.17087,3,0.00746921,10,0.000233098,-2.66337,0.197598,0.298585,25.319,0.107375,
2,1,0,1,0,5065.74,0.109168,0.10887,2.20653,3,0.00763475,10,0.000240224,-2.65629,0.195343,0.302033,26.0538,0.10887,
2,1,0,1,0,5065.81,0.110664,0.110336,2.24715,3,0.00780292,10,0.000247942,-2.64837,0.197757,0.298346,26.1694,0.110336,
2,1,0,1,0,5065.89,0.112164,0.111845,2.28193,3,0.00797436,10,0.000255221,-2.6417,0.228536,0.258165,22.989,0.111845,
2,1,0,1,0,5065.96,0.113662,0.113372,2.3207,3,0.00814828,10,0.000263103,-2.63438,0.239049,0.246811,22.3167,0.113372,
2,1,0,1,0,5066.03,0.11516,0.114816,2.35133,3,0.00832453,10,0.00026997,-2.62869,0.247825,0.238071,21.8229,0.114816,
2,1,0,1,0,5066.11,0.116658,0.116321,2.3876,3,0.0085034,10,0.000277729,-2.62204,0.252109,0.234026,21.7528,0.1163215,
2,1,0,1,0,5066.18,0.118157,0.117849,2.42021,3,0.0086848,10,0.000285219,-2.61615,0.274681,0.214795,20.2398,0.117849,
2,1,0,1,0,5066.26,0.119655,0.119347,2.44472,3,0.00886842,10,0.000291771,-2.61177,0.326109,0.180921,17.26,0.119347,
2,1,0,1,0,5066.33,0.121153,0.120803,2.46436,3,0.00905387,10,0.0002977,-2.6083,0.317259,0.185968,17.9429,0.120803,
2,1,0,1,0,5066.41,0.122653,0.122376,2.49699,3,0.00924145,10,0.000305572,-2.60258,0.30055,0.196307,19.1149,0.122376,
2,1,0,1,0,5066.48,0.124149,0.123831,2.52248,3,0.00943069,10,0.000312361,-2.59817,0.314617,0.18753,18.454,0.123831,
2,1,0,1,0,5066.56,0.125648,0.125333,2.54747,3,0.00962233,10,0.000319281,-2.59389,0.375814,0.156992,15.5973,0.125333,
2,1,0,1,0,5066.63,0.127146,0.126825,2.56648,3,0.00981549,10,0.000325494,-2.59066,0.393852,0.149803,15.0344,0.126825,
2,1,0,1,0,5066.71,0.128644,0.128343,2.59451,3,0.0100103,10,0.000332988,-2.58595,0.374238,0.157654,15.9837,0.128343,
2,1,0,1,0,5066.78,0.130142,0.129828,2.62295,3,0.0102071,10,0.000340532,-2.58121,0.378828,0.155743,15.9284,0.129828,
2,1,0,1,0,5066.86,0.13164,0.131327,2.64444,3,0.0104059,10,0.000347287,-2.57767,0.501029,0.117758,12.1285,0.131327,
2,1,0,1,0,5066.93,0.133139,0.132835,2.66249,3,0.0106063,10,0.000353672,-2.57471,0.544918,0.108273,11.2525,0.132835,
2,1,0,1,0,5067.01,0.134637,0.134306,2.67965,3,0.0108076,10,0.000359892,-2.57192,0.748704,0.0788028,8.2317,0.134306,
2,1,0,1,0,5067.08,0.136135,0.135804,2.6915,3,0.0110102,10,0.000365515,-2.57001,1.03003,0.0572799,6.00411,0.135804,
2,1,0,1,0,5067.16,0.137633,0.137311,2.69866,3,0.0112134,10,0.000370557,-2.56885,-488.966,-0.000120663,-0.0126459,0.137311,
2,1,0,1,0,5067.23,0.139133,0.13884,2.69407,3,0.011417,10,0.000374044,-2.56959,-0.911631,-0.0647191,-6.77065,0.1388398,
2,1,0,1,0,5067.31,0.140628,0.140315,2.67425,3,0.011619,10,0.000375239,-2.5728,-0.46595,-0.126623,-13.1741,0.140315,
2,1,0,1,0,5067.38,0.142128,0.141825,2.64845,3,0.01182,10,0.000375618,-2.57701,-0.310438,-0.190054,-19.56,0.141825,
2,1,0,1,0,5067.46,0.143626,0.143347,2.61265,3,0.0120187,10,0.000374516,-2.58292,-0.202506,-0.29135,-29.5142,0.143347,
2,1,0,1,0,5067.53,0.145124,0.144805,2.55737,3,0.012214,10,0.00037032,-2.59221,-0.141924,-0.415717,-41.3613,0.144805,
2,1,0,1,0,5067.61,0.146622,0.146326,2.48619,3,0.0124045,10,0.000363794,-2.60447,-0.117178,-0.503507,-48.7536,0.146326,
2,1,0,1,0,5067.68,0.14812,0.147843,2.4147,3,0.0125896,10,0.000356995,-2.61714,-0.100321,-0.588111,-55.1925,0.147843,
2,1,0,1,0,5067.76,0.149619,0.149308,2.32762,3,0.0127685,10,0.000347532,-2.63309,-0.0879273,-0.671009,-60.7538,0.149308,
2,1,0,1,0,5067.83,0.151117,0.150759,2.23507,3,0.0129408,10,0.000336957,-2.65071,-0.0789847,-0.74698,-64.8913,0.150759,
2,1,0,1,0,5067.91,0.152615,0.152326,2.1303,3,0.0131058,10,0.000324499,-2.67156,-0.0755425,-0.781018,-65.0887,0.1523255,
2,1,0,1,0,5067.98,0.154113,0.15384,2.03777,3,0.0132632,10,0.000313491,-2.69084,-0.0761113,-0.77518,-61.8024,0.15384,
2,1,0,1,0,5068.06,0.155613,0.155308,1.94848,3,0.013414,10,0.000302614,-2.7103,-0.0756353,-0.780059,-59.1908,0.155308,
2,1,0,1,0,5068.13,0.157108,0.156796,1.85692,3,0.0135578,10,0.000291157,-2.73121,-0.0736736,-0.800829,-58.0773,0.156796,
2,1,0,1,0,5068.21,0.158608,0.158298,1.77377,3,0.0136954,10,0.000280784,-2.7511,-0.0764663,-0.771581,-53.6304,0.1582976,
2,1,0,1,0,5068.28,0.160106,0.15977,1.69612,3,0.0138266,10,0.000270988,-2.77054,-0.0800173,-0.73734,-49.0386,0.15977,
2,1,0,1,0,5068.36,0.161604,0.161287,1.63224,3,0.0139525,10,0.000263259,-2.78722,-0.0863851,-0.682988,-43.4992,0.161287,
2,1,0,1,0,5068.43,0.163102,0.162788,1.57196,3,0.0140738,10,0.000255895,-2.80356,-0.0940177,-0.627542,-38.5005,0.162788,
2,1,0,1,0,5068.51,0.164601,0.164318,1.51443,3,0.0141906,10,0.000248847,-2.81975,-0.0995457,-0.592693,-35.1129,0.1643177,
2,1,0,1,0,5068.58,0.166099,0.165803,1.46768,3,0.0143034,10,0.000243347,-2.83337,-0.10638,-0.554618,-31.7598,0.165803,
2,1,0,1,0,5068.66,0.167597,0.16731,1.4185,3,0.0144127,10,0.000237328,-2.84817,-0.120919,-0.48793,-27.0356,0.16731,
2,1,0,1,0,5068.73,0.169095,0.168779,1.38108,3,0.0145191,10,0.000233096,-2.85978,-0.125097,-0.471635,-25.4849,0.168779,
2,1,0,1,0,5068.81,0.170593,0.17029,1.34241,3,0.0146224,10,0.000228598,-2.87212,-0.12528,-0.470944,-24.7632,0.17029,
2,1,0,1,0,5068.88,0.172092,0.171781,1.3056,3,0.0147231,10,0.000224277,-2.88419,-0.14434,-0.408756,-20.9032,0.171781,
2,1,0,1,0,5068.96,0.173588,0.173285,1.27595,3,0.0148212,10,0.000221102,-2.89417,-0.16423,-0.359253,-17.9535,0.173285,
2,1,0,1,0,5069.03,0.175088,0.174762,1.25167,3,0.0149176,10,0.000218744,-2.90251,-0.170459,-0.346124,-16.9347,0.174762,
2,1,0,1,0,5069.11,0.176586,0.176246,1.2295,3,0.0150118,10,0.000216694,-2.91027,-0.170294,-0.346459,-16.589,0.176246,
2,1,0,1,0,5069.18,0.178084,0.177817,1.19979,3,0.0151043,10,0.000213344,-2.92089,-0.196095,-0.300875,-14.1594,0.177817,
2,1,0,1,0,5069.26,0.179582,0.179251,1.18369,3,0.015195,10,0.000212178,-2.92676,-0.226229,-0.260797,-12.1017,0.179251,
2,1,0,1,0,5069.33,0.181081,0.180763,1.16685,3,0.0152845,10,0.000210924,-2.93299,-0.241433,-0.244374,-11.1463,0.180763,
2,1,0,1,0,5069.41,0.182579,0.182258,1.14952,3,0.0153727,10,0.00020951,-2.93948,-0.215389,-0.273923,-12.303,0.1822582,
2,1,0,1,0,5069.48,0.184077,0.183752,1.13875,3,0.0154597,10,0.000209247,-2.94357,-0.264444,-0.22311,-9.89463,0.183752,
2,1,0,1,0,5069.56,0.185577,0.185269,1.12234,3,0.0155457,10,0.000207935,-2.94988,-0.324239,-0.181964,-7.97566,0.185269,
2,1,0,1,0,5069.63,0.187073,0.18674,1.11221,3,0.0156306,10,0.000207695,-2.95381,-0.374173,-0.157681,-6.82969,0.1867401,
2,1,0,1,0,5069.71,0.188572,0.188232,1.10025,3,0.0157149,10,0.000207102,-2.95851,-0.390864,-0.150948,-6.47675,0.188232,
2,1,0,1,0,5069.78,0.19007,0.189766,1.08566,3,0.0157983,10,0.000206021,-2.96431,-0.407541,-0.144771,-6.15069,0.189766,
2,1,0,1,0,5069.86,0.191568,0.191286,1.08047,3,0.0158808,10,0.000206679,-2.96639,-0.440895,-0.133819,-5.64218,0.191286,
2,1,0,1,0,5069.93,0.193066,0.192759,1.06972,3,0.0159627,10,0.000206198,-2.97073,-0.596087,-0.0989788,-4.13305,0.192759,
2,1,0,1,0,5070.01,0.194564,0.194248,1.06546,3,0.0160441,10,0.000206963,-2.97246,-0.434433,-0.135809,-5.64483,0.194248,
2,1,0,1,0,5070.08,0.196063,0.195784,1.05681,3,0.0161249,10,0.000206907,-2.976,-0.398809,-0.14794,-6.10057,0.195784,
2,1,0,1,0,5070.15,0.197561,0.197258,1.04603,3,0.0162051,10,0.000206337,-2.98046,-0.505682,-0.116674,-4.78012,0.197258,
2,1,0,1,0,5070.23,0.199059,0.198774,1.04459,3,0.0162847,10,0.000207638,-2.98105,-0.476899,-0.123716,-5.04315,0.198774,
2,1,0,1,0,5070.3,0.200557,0.200236,1.03996,3,0.016364,10,0.000208238,-2.98298,-0.562511,-0.104887,-4.23961,0.200236,
2,1,0,1,0,5070.38,0.202057,0.201752,1.03333,3,0.016443,10,0.000208476,-2.98576,-0.536403,-0.109992,-4.41815,0.201752,
2,1,0,1,0,5070.45,0.203552,0.20327,1.02507,3,0.0165213,10,0.000208366,-2.98925,-0.592387,-0.099597,-3.9896,0.20327,
2,1,0,1,0,5070.53,0.205052,0.204725,1.01936,3,0.0165993,10,0.000208689,-2.99167,-2.53767,-0.0232496,-0.931766,0.204725,
2,1,0,1,0,5070.6,0.20655,0.206271,1.01604,3,0.016677,10,0.000209579,-2.99309,-0.95776,-0.0616021,-2.44394,0.206271,
2,1,0,1,0,5070.68,0.208048,0.207771,1.0133,3,0.0167546,10,0.000210535,-2.99426,-0.631417,-0.0934407,-3.67618,0.207771,
2,1,0,1,0,5070.75,0.209546,0.209245,1.00788,3,0.0168317,10,0.000210894,-2.99659,-0.554371,-0.106427,-4.18318,0.209245,
2,1,0,1,0,5070.83,0.211044,0.210729,1.00574,3,0.0169082,10,0.000211938,-2.99752,-0.776569,-0.0759752,-2.97464,0.210729,
2,1,0,1,0,5070.9,0.212543,0.212257,0.998468,3,0.0169846,10,0.000211931,-3.00067,-0.941803,-0.0626458,-2.44081,0.212257,
2,1,0,1,0,5070.98,0.214041,0.213747,0.995674,3,0.0170608,10,0.000212823,-3.00188,-0.960083,-0.061453,-2.38584,0.213747,
2,1,0,1,0,5071.05,0.215539,0.215249,0.99417,3,0.0171367,10,0.000213994,-3.00254,-0.879007,-0.0671212,-2.59967,0.215249,
2,1,0,1,0,5071.13,0.217037,0.216728,0.989371,3,0.0172121,10,0.000214424,-3.00464,-1.24578,-0.04736,-1.82751,0.216728,
2,1,0,1,0,5071.2,0.218536,0.218276,0.984826,3,0.0172875,10,0.000214964,-3.00664,-4.60511,-0.0128119,-0.492183,0.218276,
2,1,0,1,0,5071.28,0.220032,0.219731,0.983564,3,0.0173625,10,0.00021612,-3.0072,-1.29602,-0.0455241,-1.74471,0.219731,
2,1,0,1,0,5071.35,0.221532,0.221211,0.977672,3,0.0174376,10,0.000216272,-3.00981,-0.923791,-0.0638673,-2.44066,0.221211,
2,1,0,1,0,5071.43,0.22303,0.22274,0.971871,3,0.0175121,10,0.000216474,-3.01239,-0.975637,-0.0604733,-2.30186,0.2227398,
2,1,0,1,0,5071.5,0.224528,0.22426,0.971772,3,0.0175864,10,0.000217929,-3.01244,-1.04045,-0.0567061,-2.151,0.22426,
2,1,0,1,0,5071.58,0.226026,0.225736,0.970185,3,0.0176606,10,0.000219005,-3.01315,-0.966482,-0.0610461,-2.30989,0.225736,
2,1,0,1,0,5071.65,0.227525,0.227237,0.964145,3,0.0177346,10,0.00021909,-3.01586,-0.853727,-0.0691087,-2.60011,0.227237,
2,1,0,1,0,5071.73,0.229023,0.228734,0.963489,3,0.0178083,10,0.000220383,-3.01615,-0.825588,-0.0714642,-2.69614,0.228734,
2,1,0,1,0,5071.8,0.230521,0.230242,0.961159,3,0.0178816,10,0.000221299,-3.0172,-1.40211,-0.0420795,-1.58107,0.230242,
2,1,0,1,0,5071.88,0.232019,0.231716,0.959339,3,0.017955,10,0.000222294,-3.01803,-1.87388,-0.0314855,-1.17923,0.231716,
2,1,0,1,0,5071.95,0.233517,0.233174,0.956861,3,0.0180283,10,0.000223115,-3.01915,-1.05148,-0.0561114,-2.0933,0.233174,
2,1,0,1,0,5072.03,0.235016,0.234692,0.957964,3,0.0181014,10,0.000224827,-3.01865,-1.29745,-0.0454737,-1.69518,0.234692,
2,1,0,1,0,5072.1,0.236512,0.236221,0.948401,3,0.0181739,10,0.000224032,-3.02301,-2.13751,-0.0276022,-1.02564,0.236221,
2,1,0,1,0,5072.18,0.238012,0.237687,0.946755,3,0.0182466,10,0.000225031,-3.02376,-4.74554,-0.0124327,-0.459847,0.237687,
2,1,0,1,0,5072.25,0.23951,0.239228,0.945365,3,0.0183191,10,0.000226158,-3.0244,-1.59806,-0.0369197,-1.36531,0.239228,
2,1,0,1,0,5072.33,0.241008,0.240704,0.944804,3,0.0183913,10,0.000227418,-3.02466,-1.22344,-0.0482245,-1.78363,0.240704,
2,1,0,1,0,5072.4,0.242506,0.242164,0.939516,3,0.0184633,10,0.000227517,-3.0271,-2.05238,-0.0287471,-1.05717,0.242164,
2,1,0,1,0,5072.48,0.244005,0.243698,0.937802,3,0.0185352,10,0.000228541,-3.02789,-14.656,-0.00402566,-0.147665,0.243698,
2,1,0,1,0,5072.55,0.245503,0.2452,0.941454,3,0.018607,10,0.000230844,-3.0262,-1.27243,-0.0463681,-1.69762,0.2452,
2,1,0,1,0,5072.63,0.247001,0.246688,0.93594,3,0.0186787,10,0.000230885,-3.02875,-1.41108,-0.0418119,-1.52902,0.246688,
2,1,0,1,0,5072.7,0.248501,0.248164,0.932211,3,0.0187502,10,0.000231341,-3.03049,-1.63534,-0.036078,-1.31283,0.2481636,
2,1,0,1,0,5072.78,0.249997,0.249686,0.930499,3,0.0188213,10,0.000232333,-3.03128,-1.29252,-0.0456472,-1.65761,0.249686,
2,1,0,1,0,5072.85,0.251496,0.251187,0.931414,3,0.0188925,10,0.000233959,-3.03086,-8.71948,-0.00676646,-0.245714,0.251187,
2,1,0,1,0,5072.93,0.252994,0.252691,0.92565,3,0.0189635,10,0.000233903,-3.03355,-0.838807,-0.070338,-2.54258,0.252691,
2,1,0,1,0,5073,0.254492,0.254203,0.924775,3,0.0190344,10,0.000235081,-3.03396,-1.43351,-0.0411576,-1.48469,0.254203,
2,1,0,1,0,5073.08,0.25599,0.255675,0.923699,3,0.0191049,10,0.000236167,-3.03447,-3.83884,-0.0153692,-0.555405,0.255675,
2,1,0,1,0,5073.15,0.257488,0.257185,0.923125,3,0.0191754,10,0.000237414,-3.03474,-1.51535,-0.038935,-1.39927,0.257185,
2,1,0,1,0,5073.23,0.258987,0.258682,0.925549,3,0.0192459,10,0.000239423,-3.0336,-1.33862,-0.0440753,-1.57746,0.258682,
2,1,0,1,0,5073.3,0.260485,0.260182,0.920616,3,0.0193162,10,0.000239528,-3.03592,-0.807165,-0.0730954,-2.61866,0.260182,
2,1,0,1,0,5073.38,0.261983,0.261681,0.914785,3,0.0193862,10,0.000239382,-3.03868,-1.74012,-0.0339057,-1.21179,0.261681,
2,1,0,1,0,5073.45,0.263481,0.263179,0.916441,3,0.0194561,10,0.000241188,-3.0379,-108.478,-0.000543888,-0.0193865,0.263179,
2,1,0,1,0,5073.53,0.264981,0.264682,0.911896,3,0.019526,10,0.000241363,-3.04005,-2.06242,-0.0286072,-1.01987,0.264682,
2,1,0,1,0,5073.6,0.266476,0.266212,0.909482,3,0.0195956,10,0.000242115,-3.04121,-1.54372,-0.0382193,-1.35832,0.266212,
2,1,0,1,0,5073.68,0.267976,0.267693,0.903359,3,0.0196651,10,0.000241823,-3.04414,-4.93837,-0.0119473,-0.424693,0.267693,
2,1,0,1,0,5073.75,0.269474,0.269176,0.905495,3,0.0197344,10,0.000243738,-3.04311,7.57232,0.00779154,0.275131,0.269176,
2,1,0,1,0,5073.83,0.270972,0.270686,0.908876,3,0.0198037,10,0.00024602,-3.0415,-1.20627,-0.0489112,-1.72432,0.2706857,
2,1,0,1,0,5073.9,0.27247,0.272188,0.901766,3,0.0198729,10,0.00024545,-3.04491,-1.07128,-0.0550745,-1.93809,0.272188,
2,1,0,1,0,5073.98,0.273968,0.273661,0.897945,3,0.0199418,10,0.000245733,-3.04675,-1.05806,-0.0557625,-1.9604,0.273661,
2,1,0,1,0,5074.05,0.275467,0.275179,0.898578,3,0.0200105,10,0.00024727,-3.04644,-2.19071,-0.0269319,-0.946028,0.275179,
2,1,0,1,0,5074.13,0.276965,0.276657,0.898156,3,0.0200791,10,0.000248481,-3.04665,-1.30167,-0.0453262,-1.58876,0.276657,
2,1,0,1,0,5074.2,0.278463,0.278117,0.896572,3,0.0201477,10,0.000249352,-3.04741,-0.793422,-0.0743614,-2.59214,0.278117,
2,1,0,1,0,5074.27,0.279961,0.279633,0.894065,3,0.0202161,10,0.00025001,-3.04863,-1.81903,-0.0324349,-1.12923,0.279633,
2,1,0,1,0,5074.35,0.28146,0.281191,0.891855,3,0.0202842,10,0.000250782,-3.04971,-1.83019,-0.0322372,-1.12104,0.281191,
2,1,0,1,0,5074.42,0.282956,0.282637,0.891297,3,0.0203522,10,0.000251914,-3.04998,-2.9792,-0.019804,-0.68542,0.282637,
2,1,0,1,0,5074.5,0.284456,0.284161,0.886841,3,0.0204203,10,0.000252006,-3.05215,-3.01065,-0.0195971,-0.677456,0.284161,
2,1,0,1,0,5074.57,0.285954,0.285647,0.884189,3,0.020488,10,0.000252566,-3.05345,-0.877647,-0.0672252,-2.31622,0.285647,
2,1,0,1,0,5074.65,0.287452,0.287123,0.88201,3,0.0205556,10,0.000253246,-3.05453,-2.46205,-0.0239638,-0.82607,0.287123,
2,1,0,1,0,5074.72,0.28895,0.288633,0.880015,3,0.020623,10,0.000254002,-3.05551,-3.49507,-0.0168809,-0.579701,0.288633,
2,1,0,1,0,5074.8,0.290449,0.290149,0.877148,3,0.0206904,10,0.000254503,-3.05693,-3.70969,-0.0159043,-0.546828,0.290149,
2,1,0,1,0,5074.87,0.291947,0.291613,0.87702,3,0.0207576,10,0.000255751,-3.05699,-1.1099,-0.0531581,-1.82097,0.291613,
2,1,0,1,0,5074.95,0.293445,0.293114,0.870448,3,0.0208246,10,0.000255141,-3.06026,-0.987336,-0.0597568,-2.04078,0.2931143,
2,1,0,1,0,5075.02,0.294943,0.294645,0.874616,3,0.0208914,10,0.000257701,-3.05818,-1.73152,-0.0340742,-1.16203,0.294645,
2,1,0,1,0,5075.1,0.296441,0.296175,0.874394,3,0.0209582,10,0.000258973,-3.05829,-1.48177,-0.0398171,-1.35255,0.296175,
2,1,0,1,0,5075.17,0.29794,0.297678,0.870651,3,0.021025,10,0.000259174,-3.06016,-0.974954,-0.0605157,-2.04633,0.297678,
2,1,0,1,0,5075.25,0.299436,0.299123,0.866799,3,0.0210913,10,0.00025928,-3.06208,-0.00181436,-32.5183,-442.025,0.299123,
2,1,0,1,0,5075.29,0.299739,0.299446,0.421615,3,0.0211232,10,0.000126251,-3.37508,0.00133396,44.2292,820.052,0.299446,
2,0,0,1,0,5075.37,0.298239,0.297917,-0.077079,3,0.0211273,10,-2.29631e-05,-4.11306,0.00530592,11.1197,277.643,0.2979168,
2,0,0,1,0,5075.44,0.296741,0.296448,-0.151912,3,0.0211169,10,-4.50338e-05,-3.81841,-0.00443674,-13.2981,44.792,0.296448,
2,0,0,1,0,5075.52,0.295243,0.294942,-0.192408,3,0.0211023,10,-5.67491e-05,-3.71578,-0.0164178,-3.59365,24.8696,0.294942,
2,0,0,1,0,5075.59,0.293745,0.293449,-0.225051,3,0.0210851,10,-6.60409e-05,-3.64772,-0.0258728,-2.28039,19.1277,0.293449,
2,0,0,1,0,5075.67,0.292246,0.291931,-0.249835,3,0.021066,10,-7.29346e-05,-3.60235,-0.0366539,-1.60965,15.3476,0.291931,
2,0,0,1,0,5075.74,0.290748,0.290453,-0.271991,3,0.021045,10,-7.90006e-05,-3.56545,-0.0441018,-1.33781,13.954,0.290453,
2,0,0,1,0,5075.82,0.28925,0.288942,-0.290065,3,0.0210226,10,-8.38118e-05,-3.5375,-0.0539736,-1.09313,12.3035,0.288942,
2,0,0,1,0,5075.89,0.287752,0.287464,-0.303733,3,0.0209988,10,-8.73123e-05,-3.51751,-0.065767,-0.897107,10.649,0.287464,
2,0,0,1,0,5075.97,0.286254,0.285953,-0.317157,3,0.0209739,10,-9.06919e-05,-3.49873,-0.0779148,-0.757238,9.44738,0.285953,
2,0,0,1,0,5076.04,0.284754,0.28448,-0.338237,3,0.0209479,10,-9.62217e-05,-3.47078,-0.0733871,-0.803956,10.4987,0.28448,
2,0,0,1,0,5076.12,0.283259,0.282972,-0.347759,3,0.0209208,10,-9.84064e-05,-3.45872,-0.0957428,-0.616234,8.39279,0.282972,
2,0,0,1,0,5076.19,0.281759,0.281482,-0.362278,3,0.0208927,10,-0.000101975,-3.44096,-0.110588,-0.533511,7.4638,0.281482,
2,0,0,1,0,5076.27,0.280261,0.279941,-0.36842,3,0.0208638,10,-0.000103136,-3.43366,-0.123909,-0.476154,6.88807,0.279941,
2,0,0,1,0,5076.34,0.278763,0.278484,-0.383123,3,0.0208343,10,-0.000106694,-3.41666,-0.127877,-0.461382,6.91321,0.278484,
2,0,0,1,0,5076.42,0.277264,0.276944,-0.393718,3,0.0208038,10,-0.000109038,-3.40481,-0.14134,-0.417433,6.40702,0.276944,
2,0,0,1,0,5076.49,0.275766,0.275452,-0.403222,3,0.0207725,10,-0.000111068,-3.39446,-0.17667,-0.333956,5.20583,0.275452,
2,0,0,1,0,5076.56,0.274268,0.273952,-0.413091,3,0.0207406,10,-0.000113167,-3.38395,-0.204847,-0.28802,4.6382,0.273952,
2,0,0,1,0,5076.64,0.27277,0.272446,-0.41876,3,0.0207082,10,-0.000114089,-3.37804,-0.150859,-0.391093,6.44297,0.272446,
2,0,0,1,0,5076.71,0.271272,0.270983,-0.426871,3,0.020675,10,-0.000115675,-3.3697,-0.154349,-0.38225,6.3681,0.270983,
2,0,0,1,0,5076.79,0.269774,0.269462,-0.440278,3,0.020641,10,-0.000118638,-3.35627,-0.186036,-0.317144,5.38454,0.269462,
2,0,0,1,0,5076.86,0.268274,0.26795,-0.447682,3,0.0206064,10,-0.000119956,-3.34903,-0.204906,-0.287937,4.99434,0.26795,
2,0,0,1,0,5076.94,0.266779,0.266421,-0.451988,3,0.0205715,10,-0.000120419,-3.34487,-0.165874,-0.355691,6.28816,0.266421,
2,0,0,1,0,5077.01,0.265279,0.264956,-0.460696,3,0.0205358,10,-0.000122064,-3.33659,-0.175684,-0.335829,5.99962,0.264956,
2,0,0,1,0,5077.09,0.263781,0.263443,-0.466872,3,0.0204996,10,-0.000122994,-3.3308,-0.209776,-0.281252,5.12653,0.263443,
2,0,0,1,0,5077.16,0.262283,0.262004,-0.475786,3,0.0204628,10,-0.000124658,-3.32259,-0.266774,-0.221161,4.09346,0.262004,
2,0,0,1,0,5077.24,0.260784,0.260513,-0.479216,3,0.0204256,10,-0.000124842,-3.31947,-0.234136,-0.25199,4.73339,0.260513,
2,0,0,1,0,5077.31,0.259286,0.259017,-0.490981,3,0.0203879,10,-0.000127172,-3.30894,-0.182808,-0.322743,6.12349,0.259017,
2,0,0,1,0,5077.39,0.257788,0.257483,-0.501066,3,0.0203495,10,-0.000129016,-3.3001,-0.300657,-0.196237,3.78704,0.257483,
2,0,0,1,0,5077.46,0.25629,0.255975,-0.50387,3,0.0203105,10,-0.000128978,-3.29768,-0.432138,-0.13653,2.67023,0.255975,
2,0,0,1,0,5077.54,0.25479,0.254478,-0.507151,3,0.0202712,10,-0.000129059,-3.29486,-0.272737,-0.216326,4.30783,0.254478,
2,0,0,1,0,5077.61,0.253294,0.252981,-0.514812,3,0.0202316,10,-0.000130238,-3.28835,-0.30551,-0.193119,3.8883,0.252981,
2,0,0,1,0,5077.69,0.251795,0.251521,-0.519663,3,0.0201913,10,-0.000130706,-3.28428,-0.280071,-0.210661,4.29186,0.251521,
2,0,0,1,0,5077.76,0.250297,0.250001,-0.528748,3,0.0201505,10,-0.000132187,-3.27675,-0.305333,-0.193232,3.96754,0.2500008,
2,0,0,1,0,5077.84,0.248799,0.248521,-0.532087,3,0.0201094,10,-0.000132234,-3.27402,-0.377122,-0.156448,3.24559,0.248521,
2,0,0,1,0,5077.91,0.247301,0.246957,-0.538544,3,0.0200679,10,-0.000132997,-3.26878,-0.248997,-0.236951,4.98015,0.246957,
2,0,0,1,0,5077.99,0.245802,0.245497,-0.544534,3,0.0200259,10,-0.000133681,-3.26398,-0.347587,-0.169742,3.59911,0.2454965,
2,0,0,1,0,5078.06,0.244304,0.243957,-0.552611,3,0.0199833,10,-0.000134813,-3.25758,-0.387725,-0.15217,3.26656,0.243957,
2,0,0,1,0,5078.14,0.242806,0.242461,-0.557803,3,0.0199403,10,-0.000135246,-3.25352,-0.470598,-0.125372,2.72632,0.242461,
2,0,0,1,0,5078.21,0.241308,0.241044,-0.559392,3,0.0198971,10,-0.000134838,-3.25228,-0.418672,-0.140922,3.08765,0.2410436,
2,0,0,1,0,5078.29,0.23981,0.239488,-0.567813,3,0.0198534,10,-0.000135985,-3.24579,-0.273971,-0.215351,4.77945,0.239488,
2,0,0,1,0,5078.36,0.23831,0.237972,-0.574656,3,0.0198091,10,-0.000136752,-3.24059,-0.326912,-0.180477,4.05347,0.237972,
2,0,0,1,0,5078.44,0.236815,0.236527,-0.579181,3,0.0197645,10,-0.000136992,-3.23719,-0.358044,-0.164784,3.72114,0.236527,
2,0,0,1,0,5078.51,0.235315,0.235035,-0.580666,3,0.0197195,10,-0.000136477,-3.23607,-0.370629,-0.159189,3.62744,0.235035,
2,0,0,1,0,5078.59,0.233817,0.233544,-0.589931,3,0.0196741,10,-0.000137775,-3.2292,-0.322758,-0.182799,4.20051,0.233544,
2,0,0,1,0,5078.66,0.232319,0.231995,-0.598924,3,0.0196282,10,-0.000138947,-3.22263,-0.310275,-0.190154,4.41594,0.231995,
2,0,0,1,0,5078.74,0.230821,0.230512,-0.600168,3,0.0195819,10,-0.000138346,-3.22173,-0.58074,-0.101594,2.36765,0.230512,
2,0,0,1,0,5078.81,0.229322,0.228993,-0.603296,3,0.0195351,10,-0.00013815,-3.21947,-0.440641,-0.133896,3.1717,0.228993,
2,0,0,1,0,5078.89,0.227824,0.227509,-0.612849,3,0.0194882,10,-0.000139429,-3.21265,-0.365206,-0.161553,3.86747,0.227509,
2,0,0,1,0,5078.96,0.226326,0.226053,-0.616562,3,0.0194407,10,-0.000139375,-3.21002,-0.380886,-0.154902,3.73878,0.226053,
2,0,0,1,0,5079.04,0.224828,0.22455,-0.625235,3,0.0193928,10,-0.000140397,-3.20396,-0.648671,-0.0909552,2.20677,0.22455,
2,0,0,1,0,5079.11,0.22333,0.223032,-0.630297,3,0.0193445,10,-0.000140577,-3.20045,-0.419601,-0.14061,3.4416,0.223032,
2,0,0,1,0,5079.19,0.22183,0.221511,-0.635747,3,0.0192958,10,-0.000140825,-3.19672,-0.327044,-0.180404,4.47166,0.221511,
2,0,0,1,0,5079.26,0.220335,0.220067,-0.640569,3,0.0192468,10,-0.000140968,-3.19343,-0.274043,-0.215295,5.36992,0.220067,
2,0,0,1,0,5079.34,0.218835,0.218511,-0.647167,3,0.0191971,10,-0.000141413,-3.18898,-0.350055,-0.168545,4.23616,0.218511,
2,0,0,1,0,5079.41,0.217337,0.217018,-0.650437,3,0.019147,10,-0.000141156,-3.18679,-0.593127,-0.0994728,2.53143,0.217018,
2,0,0,1,0,5079.49,0.215839,0.215513,-0.65303,3,0.0190968,10,-0.000140737,-3.18507,-0.349025,-0.169042,4.34249,0.215513,
2,0,0,1,0,5079.56,0.21434,0.214012,-0.661865,3,0.019046,10,-0.000141647,-3.17923,-0.357651,-0.164965,4.25382,0.2140125,
2,0,0,1,0,5079.64,0.212842,0.212535,-0.6659,3,0.0189947,10,-0.000141527,-3.17659,-0.494288,-0.119364,3.10728,0.212535,
2,0,0,1,0,5079.71,0.211344,0.211037,-0.672536,3,0.018943,10,-0.00014193,-3.17228,-0.547509,-0.107761,2.83777,0.211037,
2,0,0,1,0,5079.79,0.209846,0.209551,-0.676381,3,0.018891,10,-0.000141736,-3.16981,-0.372168,-0.158531,4.20794,0.209551,
2,0,0,1,0,5079.86,0.208348,0.208019,-0.689258,3,0.0188385,10,-0.000143379,-3.16162,-0.292441,-0.20175,5.40813,0.208019,
2,0,0,1,0,5079.94,0.20685,0.20654,-0.697243,3,0.0187854,10,-0.000144008,-3.15662,-0.393593,-0.149901,4.0328,0.20654,
2,0,0,1,0,5080.01,0.20535,0.205047,-0.698456,3,0.0187316,10,-0.000143216,-3.15586,-0.450606,-0.130935,3.55207,0.205047,
2,0,0,1,0,5080.09,0.203855,0.203531,-0.701557,3,0.0186777,10,-0.000142789,-3.15394,-0.396194,-0.148917,4.10427,0.203531,
2,0,0,1,0,5080.16,0.202355,0.202012,-0.710124,3,0.0186233,10,-0.000143453,-3.14867,-0.318524,-0.185229,5.15746,0.202012,
2,0,0,1,0,5080.24,0.200857,0.200519,-0.717869,3,0.0185683,10,-0.000143946,-3.14395,-0.323911,-0.182149,5.09328,0.200519,
2,0,0,1,0,5080.31,0.199359,0.199078,-0.724038,3,0.0185127,10,-0.00014414,-3.14024,-0.34621,-0.170417,4.81517,0.199078,
2,0,0,1,0,5080.39,0.19786,0.197535,-0.734174,3,0.0184567,10,-0.000145025,-3.1342,-0.333998,-0.176648,5.04965,0.197535,
2,0,0,1,0,5080.46,0.196362,0.196058,-0.74055,3,0.0184003,10,-0.000145191,-3.13045,-0.319227,-0.184822,5.32284,0.196058,
2,0,0,1,0,5080.54,0.194864,0.19454,-0.7447,3,0.0183431,10,-0.000144874,-3.12802,-0.260319,-0.226645,6.60166,0.19454,
2,0,0,1,0,5080.61,0.193366,0.193034,-0.756533,3,0.0182854,10,-0.000146037,-3.12117,-0.32328,-0.182504,5.38428,0.193034,
2,0,0,1,0,5080.69,0.191866,0.191582,-0.764262,3,0.0182269,10,-0.000146419,-3.11676,-0.393162,-0.150065,4.48186,0.191582,
2,0,0,1,0,5080.76,0.19037,0.19005,-0.767747,3,0.0181683,10,-0.000145911,-3.11478,-0.335326,-0.175948,5.29588,0.19005,
2,0,0,1,0,5080.83,0.188871,0.18855,-0.778586,3,0.0181087,10,-0.000146802,-3.10869,-0.279198,-0.21132,6.41841,0.18855,
2,0,0,1,0,5080.91,0.187373,0.187049,-0.789463,3,0.0180485,10,-0.000147668,-3.10267,-0.244641,-0.241169,7.42944,0.187049,
2,0,0,1,0,5080.98,0.185875,0.185562,-0.797822,3,0.0179876,10,-0.000148045,-3.09809,-0.319218,-0.184827,5.74112,0.1855619,
2,0,0,1,0,5081.06,0.184377,0.184016,-0.804546,3,0.017926,10,-0.000148049,-3.09445,-0.273691,-0.215572,6.79271,0.184016,
2,0,0,1,0,5081.13,0.182878,0.182543,-0.817091,3,0.0178637,10,-0.000149154,-3.08773,-0.266956,-0.22101,7.06809,0.182543,
2,0,0,1,0,5081.21,0.18138,0.181101,-0.828297,3,0.0178004,10,-0.000150005,-3.08181,-0.247734,-0.238159,7.71566,0.181101,
2,0,0,1,0,5081.28,0.179882,0.179614,-0.841426,3,0.0177362,10,-0.000151132,-3.07498,-0.289981,-0.203461,6.68249,0.179614,
2,0,0,1,0,5081.36,0.178384,0.178069,-0.8568,3,0.0176712,10,-0.000152569,-3.06712,-0.24497,-0.240846,8.07023,0.1780688,
2,0,0,1,0,5081.43,0.176886,0.176557,-0.86632,3,0.0176054,10,-0.000152955,-3.06232,-0.213954,-0.27576,9.34986,0.176557,
2,0,0,1,0,5081.51,0.175386,0.175054,-0.882771,3,0.0175383,10,-0.000154533,-3.05415,-0.194477,-0.303378,10.4445,0.175054,
2,0,0,1,0,5081.58,0.173891,0.173587,-0.898012,3,0.0174704,10,-0.000155883,-3.04672,-0.183821,-0.320965,11.2562,0.173587,
2,0,0,1,0,5081.66,0.172391,0.172096,-0.912723,3,0.017401,10,-0.000157076,-3.03966,-0.191682,-0.307802,10.9748,0.172096,
2,0,0,1,0,5081.73,0.170893,0.170557,-0.928218,3,0.0173306,10,-0.000158314,-3.03235,-0.179308,-0.329043,11.9785,0.170557,
2,0,0,1,0,5081.81,0.169395,0.169087,-0.95239,3,0.0172586,10,-0.000161037,-3.02119,-0.144485,-0.408346,15.1309,0.169087,
2,0,0,1,0,5081.88,0.167897,0.167611,-0.973505,3,0.0171851,10,-0.000163171,-3.01166,-0.151654,-0.389043,14.7581,0.167611,
2,0,0,1,0,5081.96,0.166398,0.166086,-0.991156,3,0.01711,10,-0.000164617,-3.00386,-0.159472,-0.369972,14.3939,0.166086,
2,0,0,1,0,5082.03,0.1649,0.164567,-1.01719,3,0.0170332,10,-0.000167396,-2.9926,-0.136179,-0.433253,17.2686,0.164567,
2,0,0,1,0,5082.11,0.163402,0.163116,-1.045,3,0.0169546,10,-0.000170456,-2.98088,-0.125067,-0.471749,19.2953,0.163116,
2,0,0,1,0,5082.18,0.161904,0.161601,-1.08004,3,0.0168737,10,-0.000174535,-2.96656,-0.114626,-0.514717,21.6485,0.161601,
2,0,0,1,0,5082.26,0.160406,0.16007,-1.10891,3,0.0167904,10,-0.000177503,-2.9551,-0.113645,-0.519162,22.4597,0.16007,
2,0,0,1,0,5082.33,0.158906,0.158597,-1.14311,3,0.0167044,10,-0.000181293,-2.94191,-0.106619,-0.553373,24.7714,0.158597,
2,0,0,1,0,5082.41,0.157411,0.157093,-1.18381,3,0.016616,10,-0.000185968,-2.92672,-0.0912848,-0.646329,29.942,0.157093,
2,0,0,1,0,5082.48,0.155911,0.155597,-1.22837,3,0.0165241,10,-0.000191131,-2.91067,-0.0892242,-0.661256,31.7963,0.155597,
2,0,0,1,0,5082.56,0.154413,0.154117,-1.27606,3,0.0164287,10,-0.000196662,-2.89413,-0.0892741,-0.660886,32.9594,0.154117,
2,0,0,1,0,5082.63,0.152915,0.152651,-1.32783,3,0.0163295,10,-0.000202695,-2.87686,-0.0856907,-0.688523,35.7968,0.152651,
2,0,0,1,0,5082.71,0.151417,0.151144,-1.38554,3,0.0162265,10,-0.000209417,-2.85838,-0.077849,-0.757877,41.188,0.151144,
2,0,0,1,0,5082.78,0.149918,0.149605,-1.45085,3,0.0161189,10,-0.000217054,-2.83838,-0.0744111,-0.792893,45.0106,0.149605,
2,0,0,1,0,5082.86,0.14842,0.148089,-1.52218,3,0.0160061,10,-0.000225418,-2.81753,-0.072753,-0.810963,48.2298,0.1480893,
2,0,0,1,0,5082.93,0.146922,0.146555,-1.59792,3,0.0158878,10,-0.000234182,-2.79645,-0.0703434,-0.838743,52.273,0.146555,
2,0,0,1,0,5083.01,0.145424,0.145112,-1.67653,3,0.0157638,10,-0.000243284,-2.77559,-0.0701521,-0.84103,55.1339,0.1451115,
2,0,0,1,0,5083.08,0.143926,0.14362,-1.76348,3,0.0156336,10,-0.000253271,-2.75363,-0.0668424,-0.882673,60.7444,0.14362,
2,0,0,1,0,5083.16,0.142426,0.142146,-1.8559,3,0.0154964,10,-0.000263808,-2.73145,-0.0701321,-0.841269,60.775,0.142146,
2,0,0,1,0,5083.23,0.140931,0.140629,-1.94625,3,0.0153527,10,-0.000273699,-2.7108,-0.074868,-0.788053,59.6938,0.1406288,
2,0,0,1,0,5083.31,0.139431,0.139119,-2.03158,3,0.015202,10,-0.000282631,-2.69217,-0.0763692,-0.772562,61.2849,0.139119,
2,0,0,1,0,5083.38,0.137933,0.137643,-2.12739,3,0.0150449,10,-0.00029282,-2.67215,-0.0828672,-0.711983,58.9641,0.137643,
2,0,0,1,0,5083.46,0.136435,0.136146,-2.21513,3,0.0148807,10,-0.000301581,-2.6546,-0.0866084,-0.681227,58.6884,0.136146,
2,0,0,1,0,5083.53,0.134936,0.134596,-2.30035,3,0.0147101,10,-0.000309617,-2.63821,-0.0997399,-0.591539,52.8614,0.134596,
2,0,0,1,0,5083.61,0.133438,0.133131,-2.37479,3,0.0145333,10,-0.000316158,-2.62437,-0.111922,-0.527153,48.7645,0.133131,
2,0,0,1,0,5083.68,0.13194,0.131576,-2.44826,3,0.0143513,10,-0.000322132,-2.61114,-0.12201,-0.483567,46.1719,0.131576,
2,0,0,1,0,5083.76,0.130442,0.13012,-2.5136,3,0.0141638,10,-0.000327069,-2.5997,-0.140664,-0.41944,41.0105,0.13012,
2,0,0,1,0,5083.83,0.128942,0.128643,-2.57369,3,0.0139713,10,-0.000331086,-2.58944,-0.173391,-0.340271,34.0213,0.128643,
2,0,0,1,0,5083.91,0.127446,0.127111,-2.62398,3,0.0137755,10,-0.000333537,-2.58104,-0.208066,-0.283563,28.9233,0.127111,
2,0,0,1,0,5083.98,0.125947,0.125638,-2.65686,3,0.0135762,10,-0.000333804,-2.57563,-0.246839,-0.239023,24.7658,0.125638,
2,0,0,1,0,5084.06,0.124449,0.124132,-2.69487,3,0.0133742,10,-0.000334518,-2.56946,-0.292054,-0.202018,21.1683,0.124132,
2,0,0,1,0,5084.13,0.122951,0.122643,-2.71916,3,0.0131698,10,-0.000333486,-2.56557,-0.405187,-0.145612,15.4242,0.122643,
2,0,0,1,0,5084.21,0.121453,0.121174,-2.74024,3,0.0129639,10,-0.000332045,-2.56221,-0.757808,-0.0778561,8.29562,0.1211739,
2,0,0,1,0,5084.28,0.119955,0.119664,-2.74392,3,0.012757,10,-0.000328348,-2.56163,-1.46467,-0.0402821,4.3102,0.119664,
2,0,0,1,0,5084.36,0.118456,0.118122,-2.7488,3,0.0125497,10,-0.000324693,-2.56086,-1.9632,-0.0300529,3.2236,0.118122,
2,0,0,1,0,5084.43,0.116958,0.116675,-2.75683,3,0.012342,10,-0.000321653,-2.55959,3.33187,0.0177078,-1.89781,0.1166749,
2,0,0,1,0,5084.51,0.11546,0.115128,-2.75044,3,0.0121345,10,-0.000316651,-2.5606,0.900696,0.0655049,-7.0005,0.115128,
2,0,0,1,0,5084.58,0.113962,0.113636,-2.73059,3,0.0119277,10,-0.000310295,-2.56374,0.655879,0.0899556,-9.58336,0.113636,
2,0,0,1,0,5084.66,0.112462,0.11215,-2.71628,3,0.011722,10,-0.00030463,-2.56602,0.541616,0.108933,-11.5481,0.11215,
2,0,0,1,0,5084.73,0.110967,0.110629,-2.70404,3,0.0115178,10,-0.000299146,-2.56799,0.507163,0.116334,-12.2431,0.110629,
2,0,0,1,0,5084.81,0.109467,0.109153,-2.67884,3,0.0113146,10,-0.000292404,-2.57205,0.362022,0.162973,-17.0016,0.109153,
2,0,0,1,0,5084.88,0.107969,0.107666,-2.6546,3,0.0111134,10,-0.000285812,-2.576,0.34615,0.170446,-17.6418,0.107666,
2,0,0,1,0,5084.95,0.106471,0.106168,-2.62379,3,0.0109144,10,-0.000278561,-2.58107,0.339515,0.173777,-17.826,0.106168,
2,0,0,1,0,5085.03,0.104973,0.104661,-2.59796,3,0.0107173,10,-0.000271906,-2.58537,0.31898,0.184965,-18.7408,0.104661,
2,0,0,1,0,5085.1,0.103474,0.103178,-2.57357,3,0.0105222,10,-0.000265537,-2.58946,0.277127,0.212899,-21.314,0.103178,
2,0,0,1,0,5085.18,0.101976,0.101687,-2.53714,3,0.0103295,10,-0.000257994,-2.59566,0.260891,0.226148,-22.3817,0.101687,
2,0,0,1,0,5085.25,0.100478,0.100167,-2.49901,3,0.0101395,10,-0.000250319,-2.60223,0.257011,0.229562,-22.435,0.100167,
2,0,0,1,0,5085.33,0.0989799,0.0987116,-2.46921,3,0.00995184,10,-0.00024374,-2.60744,0.266426,0.22145,-21.3289,0.0987116,
2,0,0,1,0,5085.4,0.0974817,0.0971762,-2.43914,3,0.00976658,10,-0.000237026,-2.61276,0.257045,0.229532,-21.8294,0.0971762,
2,0,0,1,0,5085.48,0.0959821,0.0956456,-2.40258,3,0.00958359,10,-0.000229796,-2.61932,0.250015,0.235986,-22.1527,0.0956456,
2,0,0,1,0,5085.55,0.0944866,0.0942176,-2.36733,3,0.0094037,10,-0.000223044,-2.62574,0.273895,0.215411,-19.9691,0.0942176,
2,0,0,1,0,5085.63,0.0929871,0.0926543,-2.34299,3,0.00922561,10,-0.000217088,-2.63023,0.321984,0.183239,-16.7548,0.09265428,
2,0,0,1,0,5085.7,0.0914889,0.0911338,-2.31762,3,0.00904977,10,-0.000211214,-2.63496,0.288956,0.204183,-18.4351,0.0911338,
2,0,0,1,0,5085.78,0.0899907,0.089683,-2.28442,3,0.00887589,10,-0.000204874,-2.64122,0.267277,0.220745,-19.684,0.089683,
2,0,0,1,0,5085.85,0.0884925,0.0881648,-2.25255,3,0.00870422,10,-0.000198595,-2.64733,0.287687,0.205084,-18.0985,0.0881648,
2,0,0,1,0,5085.93,0.0869943,0.0866714,-2.23282,3,0.00853469,10,-0.000193522,-2.65115,0.316818,0.186227,-16.2518,0.0866714,
2,0,0,1,0,5086,0.0854961,0.0851973,-2.21392,3,0.00836674,10,-0.00018862,-2.65484,0.342195,0.172416,-14.9004,0.0851973,
2,0,0,1,0,5086.08,0.083998,0.0837025,-2.19066,3,0.00820043,10,-0.000183364,-2.65942,0.306377,0.192573,-16.4534,0.0837025,
2,0,0,1,0,5086.15,0.0824998,0.082186,-2.1693,3,0.00803563,10,-0.000178286,-2.66368,0.376231,0.156819,-13.2905,0.082186,
2,0,0,1,0,5086.23,0.081002,0.0807027,-2.14835,3,0.00787266,10,-0.000173378,-2.66789,0.42162,0.139936,-11.7636,0.0807027,
2,0,0,1,0,5086.3,0.0795025,0.0791562,-2.13527,3,0.00771068,10,-0.00016902,-2.67055,0.512174,0.115195,-9.58792,0.0791562,
2,0,0,1,0,5086.38,0.078007,0.0777274,-2.11758,3,0.0075502,10,-0.000164594,-2.67416,0.496604,0.118807,-9.79661,0.0777274,
2,0,0,1,0,5086.45,0.076507,0.0762125,-2.1018,3,0.00739055,10,-0.000160183,-2.67741,0.407359,0.144835,-11.8597,0.0762125,
2,0,0,1,0,5086.53,0.0750088,0.0746856,-2.08261,3,0.00723264,10,-0.000155541,-2.68139,0.439001,0.134396,-10.9431,0.0746856,
2,0,0,1,0,5086.6,0.0735106,0.0732117,-2.06911,3,0.00707583,10,-0.000151483,-2.68422,0.586955,0.100519,-8.10761,0.0732117,
2,0,0,1,0,5086.68,0.0720124,0.0716899,-2.05212,3,0.00691993,10,-0.000147116,-2.6878,0.478469,0.12331,-9.88767,0.0716899,
2,0,0,1,0,5086.75,0.0705142,0.0701789,-2.03964,3,0.00676514,10,-0.000143139,-2.69045,0.449682,0.131204,-10.4347,0.0701789,
2,0,0,1,0,5086.83,0.0690161,0.0687176,-2.02176,3,0.0066116,10,-0.00013893,-2.69427,0.454604,0.129783,-10.2631,0.0687176,
2,0,0,1,0,5086.9,0.0675179,0.0671991,-2.00985,3,0.00645922,10,-0.000135061,-2.69684,0.556527,0.106015,-8.32598,0.0671991,
2,0,0,1,0,5086.98,0.0660179,0.0657104,-2.00196,3,0.00630755,10,-0.000131549,-2.69855,0.555848,0.106144,-8.26486,0.0657104,
2,0,0,1,0,5087.05,0.0645224,0.0642392,-1.98371,3,0.00615704,10,-0.000127432,-2.70252,0.457971,0.128829,-9.95086,0.0642392,
2,0,0,1,0,5087.13,0.0630229,0.0626912,-1.96657,3,0.00600744,10,-0.000123286,-2.70629,0.458573,0.12866,-9.89468,0.0626912,
2,0,0,1,0,5087.2,0.0615251,0.0612608,-1.951,3,0.00585934,10,-0.00011952,-2.70974,0.477382,0.123591,-9.43481,0.0612608,
2,0,0,1,0,5087.28,0.0600269,0.0597149,-1.93695,3,0.00571212,10,-0.000115665,-2.71288,0.43422,0.135876,-10.2753,0.0597149,
2,0,0,1,0,5087.35,0.0585287,0.0582675,-1.92535,3,0.00556588,10,-0.000112185,-2.71549,0.382577,0.154217,-11.572,0.0582675,
2,0,0,1,0,5087.43,0.0570305,0.0566938,-1.91225,3,0.00542088,10,-0.000108413,-2.71845,0.401346,0.147005,-10.9586,0.0566938,
2,0,0,1,0,5087.5,0.0555323,0.0552385,-1.89105,3,0.00527725,10,-0.000104459,-2.7233,0.438728,0.13448,-9.94244,0.0552385,
2,0,0,1,0,5087.58,0.0540342,0.0537355,-1.87803,3,0.00513459,10,-0.000100917,-2.7263,0.441873,0.133522,-9.77618,0.0537355,
2,0,0,1,0,5087.65,0.052536,0.0522094,-1.86751,3,0.00499286,10,-9.75015e-05,-2.72874,0.413316,0.142748,-10.3697,0.0522094,
2,0,0,1,0,5087.73,0.0510378,0.0507282,-1.85075,3,0.00485249,10,-9.38852e-05,-2.73265,0.360183,0.163806,-11.8105,0.0507282,
2,0,0,1,0,5087.8,0.0495382,0.0492434,-1.82692,3,0.0047134,10,-8.99638e-05,-2.73828,0.364745,0.161757,-11.548,0.0492434,
2,0,0,1,0,5087.88,0.0480427,0.0477361,-1.81062,3,0.00457582,10,-8.64321e-05,-2.74217,0.414748,0.142255,-10.0408,0.0477361,
2,0,0,1,0,5087.95,0.0465432,0.0461816,-1.79376,3,0.00443908,10,-8.28387e-05,-2.74624,0.351552,0.167827,-11.7542,0.0461816,
2,0,0,1,0,5088.03,0.045045,0.0447173,-1.77958,3,0.00430386,10,-7.95779e-05,-2.74968,0.318745,0.185101,-12.8254,0.0447173,
2,0,0,1,0,5088.1,0.0435468,0.043218,-1.75179,3,0.00417012,10,-7.57091e-05,-2.75652,0.33023,0.178663,-12.2487,0.043218,
2,0,0,1,0,5088.18,0.0420486,0.041705,-1.73669,3,0.00403782,10,-7.24287e-05,-2.76028,0.336092,0.175547,-11.9284,0.041705,
2,0,0,1,0,5088.25,0.0405504,0.0402586,-1.72638,3,0.00390673,10,-6.95015e-05,-2.76286,0.327721,0.180031,-12.0978,0.0402586,
2,0,0,1,0,5088.33,0.0390523,0.0386816,-1.70824,3,0.00377681,10,-6.60772e-05,-2.76745,0.286428,0.205985,-13.6761,0.0386816,
2,0,0,1,0,5088.4,0.0375541,0.037226,-1.68174,3,0.00364836,10,-6.26044e-05,-2.77424,0.293055,0.201327,-13.249,0.037226,
2,0,0,1,0,5088.48,0.0360559,0.0357794,-1.66437,3,0.00352157,10,-5.95504e-05,-2.77875,0.318394,0.185305,-12.0758,0.0357794,
2,0,0,1,0,5088.55,0.0345577,0.03426,-1.65003,3,0.00339594,10,-5.653e-05,-2.78251,0.393798,0.149823,-9.64279,0.03426,
2,0,0,1,0,5088.63,0.0330582,0.0327363,-1.63202,3,0.00327132,10,-5.34262e-05,-2.78727,0.33078,0.178366,-11.3568,0.0327363,
2,0,0,1,0,5088.7,0.0315626,0.0312312,-1.61754,3,0.00314836,10,-5.05176e-05,-2.79115,0.322961,0.182685,-11.5125,0.03123121,
2,0,0,1,0,5088.78,0.0300631,0.0297214,-1.59752,3,0.00302653,10,-4.74804e-05,-2.79655,0.364021,0.162078,-10.1215,0.0297214,
2,0,0,1,0,5088.85,0.0285649,0.0282725,-1.5849,3,0.00290586,10,-4.48092e-05,-2.8,0.514101,0.114763,-7.09873,0.0282725,
2,0,0,1,0,5088.93,0.0270667,0.0266925,-1.57054,3,0.00278618,10,-4.19217e-05,-2.80395,0.370991,0.159033,-9.75229,0.0266925,
2,0,0,1,0,5089,0.0255685,0.0252604,-1.55696,3,0.0026675,10,-3.93293e-05,-2.80772,0.324852,0.181621,-11.0384,0.02526038,
2,0,0,1,0,5089.07,0.0240704,0.0237205,-1.53841,3,0.00255014,10,-3.6492e-05,-2.81293,0.415535,0.141986,-8.5621,0.0237205,
2,0,0,1,0,5089.15,0.0225722,0.0222425,-1.53034,3,0.00243366,10,-3.40385e-05,-2.81521,0.578277,0.102027,-6.09401,0.0222425,
2,0,0,1,0,5089.22,0.021074,0.0207887,-1.52086,3,0.00231796,10,-3.16169e-05,-2.81791,0.47112,0.125234,-7.43765,0.0207887,
2,0,0,1,0,5089.3,0.0195758,0.0192654,-1.51189,3,0.00220306,10,-2.91272e-05,-2.82048,0.419267,0.140722,-8.28265,0.0192654,
2,0,0,1,0,5089.37,0.018078,0.0177489,-1.49391,3,0.00208897,10,-2.65153e-05,-2.82567,0.61385,0.0961146,-5.62342,0.01774892,
2,0,0,1,0,5089.45,0.0165785,0.0162401,-1.48926,3,0.00197564,10,-2.41858e-05,-2.82703,0.817531,0.0721685,-4.20593,0.0162401,
2,0,0,1,0,5089.52,0.015083,0.0147668,-1.48706,3,0.00186296,10,-2.1959e-05,-2.82767,0.863683,0.0683121,-3.95464,0.01476678,
2,0,0,1,0,5089.6,0.013583,0.0132426,-1.47469,3,0.00175033,10,-1.95287e-05,-2.8313,0.591303,0.0997796,-5.74359,0.0132426,
2,0,0,1,0,5089.67,0.0120848,0.0117917,-1.46995,3,0.00163847,10,-1.73332e-05,-2.8327,0.724351,0.0814522,-4.68216,0.0117917,
2,0,0,1,0,5089.75,0.0105866,0.0103221,-1.46551,3,0.00152733,10,-1.51271e-05,-2.83401,0.92395,0.0638562,-3.65669,0.0103221,
2,0,0,1,0,5089.82,0.00908846,0.00876446,-1.4614,3,0.00141632,10,-1.28084e-05,-2.83523,1.69821,0.0347424,-1.98318,0.00876446,
2,0,0,1,0,5089.9,0.00759027,0.00727288,-1.46031,3,0.00130549,10,-1.06207e-05,-2.83555,2.16759,0.0272192,-1.54884,0.00727288,
2,0,0,1,0,5089.97,0.00609208,0.00578135,-1.45902,3,0.00119484,10,-8.43512e-06,-2.83594,1.94947,0.0302647,-1.72129,0.00578135,
2,0,0,1,0,5090.05,0.00459389,0.00428179,-1.45746,3,0.00108452,10,-6.24053e-06,-2.8364,185.792,0.00031756,-0.0180514,0.00428179,
2,0,0,1,0,5090.12,0.00309391,0.00275643,-1.45864,3,0.000974067,10,-4.02064e-06,-2.83605,-0.770987,-0.0765253,4.35531,0.00275643,
2,0,0,1,0,5090.2,0.0015984,0.001251,-1.47375,3,0.000862491,10,-1.84366e-06,-2.83158, , , ,0.001251,
2,0,0,1,0,5090.27,0.000199195,-0.000167237,-1.46026,3,0.000758503,10,2.4421e-07,-2.83557, , , ,-0.000167237,