File: Figure_codes/Fig_3-5/rawdata_trumpetplot_data/after 10th/20221101_1-115_003_TrumpetPlot_ParaChange_from10_every3_10_CV_C01_27.csv
mode,ox/red,error,control changes,counter inc.,time/s,control/V,Ewe/V,<I>/mA,cycle number,(Q-Qo)/C,I Range,P/W,log(|I|),Tafel slope mV/dec,alpha_eff,dI/d(E-IR),E-IR/V,
2,1,0,0,0,54384,-2.44065e-05,-0.000439847,5.10462,28,0.0000000E+000,10,-2.24525e-06,-2.29204, , , ,-0.000439847,
2,1,0,1,0,54384,0.00179726,0.00140526,5.85418,28,4.8783e-05,10,8.22665e-06,-2.23253, , , ,0.00140526,
2,1,0,1,0,54384.1,0.00379485,0.00342533,6.3989,28,0.00011039,10,2.19184e-05,-2.19389,0.0620659,0.950603,234.327,0.00342533,
2,1,0,1,0,54384.1,0.00579244,0.00545018,6.80202,28,0.000176518,10,3.70722e-05,-2.16736,0.0832529,0.708684,187.156,0.00545018,
2,1,0,1,0,54384.1,0.00779002,0.00743129,7.14864,28,0.000246381,10,5.31236e-05,-2.14578,0.09941,0.593502,165.007,0.007431285,
2,1,0,1,0,54384.1,0.00977853,0.00941181,7.45571,28,0.000318756,10,7.01718e-05,-2.12751,0.121081,0.487276,141.231,0.00941181,
2,1,0,1,0,54384.1,0.0117761,0.0114186,7.71177,28,0.000394697,10,8.80575e-05,-2.11285,0.143787,0.410329,123.307,0.0114186,
2,1,0,1,0,54384.1,0.0137737,0.0134175,7.94965,28,0.000473002,10,0.000106665,-2.09965,0.163303,0.361292,111.863,0.0134175,
2,1,0,1,0,54384.1,0.0157713,0.01542,8.15938,28,0.000553616,10,0.000125817,-2.08834,0.1829,0.32258,102.64,0.01542,
2,1,0,1,0,54384.1,0.017778,0.0174129,8.35973,28,0.000636251,10,0.000145567,-2.07781,0.208589,0.282853,92.0731,0.0174129,
2,1,0,1,0,54384.1,0.0197755,0.0193901,8.52492,28,0.000720722,10,0.000165299,-2.06931,0.236561,0.249407,82.9906,0.01939014,
2,1,0,1,0,54384.1,0.0217731,0.0214516,8.6949,28,0.000806822,10,0.000186519,-2.06074,0.253756,0.232507,78.7739,0.0214516,
2,1,0,1,0,54384.2,0.0237707,0.0233837,8.83951,28,0.000894543,10,0.000206701,-2.05357,0.277362,0.212719,73.3964,0.0233837,
2,1,0,1,0,54384.2,0.0257774,0.0254573,8.98891,28,0.000983689,10,0.000228833,-2.04629,0.302836,0.194825,68.2552,0.0254573,
2,1,0,1,0,54384.2,0.027775,0.0274311,9.11577,28,0.00107424,10,0.000250056,-2.04021,0.322694,0.182836,65.0585,0.0274311,
2,1,0,1,0,54384.2,0.0297726,0.0294318,9.24748,28,0.00116609,10,0.00027217,-2.03398,0.339674,0.173696,62.6285,0.0294318,
2,1,0,1,0,54384.2,0.0317701,0.0313796,9.36305,28,0.00125919,10,0.000293809,-2.02858,0.350711,0.168229,61.5165,0.0313796,
2,1,0,1,0,54384.2,0.0337586,0.0334226,9.49299,28,0.00135253,10,0.000317281,-2.0226,0.356396,0.165546,61.2841,0.0334226,
2,1,0,1,0,54384.2,0.0357562,0.0353966,9.60923,28,0.00144808,10,0.000340134,-2.01731,0.384237,0.153551,57.573,0.0353966,
2,1,0,1,0,54384.2,0.0377538,0.0374103,9.72257,28,0.00154473,10,0.000363724,-2.01222,0.398378,0.148101,56.1868,0.0374103,
2,1,0,1,0,54384.2,0.0397514,0.039393,9.83378,28,0.00164255,10,0.000387382,-2.00728,0.37647,0.156719,60.1945,0.039393,
2,1,0,1,0,54384.2,0.0417399,0.0413857,9.96186,28,0.00174051,10,0.000412278,-2.00166,0.384579,0.153415,59.5883,0.0413857,
2,1,0,1,0,54384.3,0.0437375,0.0433924,10.0721,28,0.00184072,10,0.000437053,-1.99688,0.411617,0.143337,56.3459,0.0433924,
2,1,0,1,0,54384.3,0.0457351,0.0453298,10.1841,28,0.00194196,10,0.000461643,-1.99208,0.417079,0.14146,56.2152,0.0453298,
2,1,0,1,0,54384.3,0.0477327,0.0473357,10.2938,28,0.0020444,10,0.000487263,-1.98743,0.407104,0.144926,58.2676,0.04733571,
2,1,0,1,0,54384.3,0.0497393,0.0493885,10.4206,28,0.00214794,10,0.000514657,-1.98211,0.409401,0.144113,58.5535,0.0493885,
2,1,0,1,0,54384.3,0.0517369,0.0513501,10.5288,28,0.0022527,10,0.000540657,-1.97762,0.420268,0.140386,57.7242,0.0513501,
2,1,0,1,0,54384.3,0.0537345,0.0533959,10.6519,28,0.00235856,10,0.000568769,-1.97257,0.428551,0.137673,57.1905,0.0533959,
2,1,0,1,0,54384.3,0.0557321,0.0553975,10.7603,28,0.00246568,10,0.000596094,-1.96818,0.42983,0.137263,57.6725,0.0553975,
2,1,0,1,0,54384.3,0.0577297,0.0573626,10.8807,28,0.00257388,10,0.000624145,-1.96334,0.414472,0.14235,60.4433,0.0573626,
2,1,0,1,0,54384.3,0.0597364,0.059372,11.0005,28,0.00268339,10,0.000653124,-1.95859,0.411164,0.143495,61.627,0.059372,
2,1,0,1,0,54384.3,0.0617339,0.0613961,11.1293,28,0.00279406,10,0.000683293,-1.95353,0.43127,0.136805,59.3642,0.0613961,
2,1,0,1,0,54384.4,0.0637315,0.0633708,11.2379,28,0.00290594,10,0.000712156,-1.94931,0.426679,0.138277,60.707,0.0633708,
2,1,0,1,0,54384.4,0.0657291,0.0653645,11.3702,28,0.00301899,10,0.000743206,-1.94423,0.395057,0.149346,66.267,0.06536454,
2,1,0,1,0,54384.4,0.0677176,0.0673575,11.5021,28,0.00313226,10,0.000774753,-1.93922,0.423986,0.139155,62.4258,0.0673575,
2,1,0,1,0,54384.4,0.0697152,0.0693712,11.6203,28,0.00324786,10,0.000806113,-1.93478,0.454397,0.129842,58.8809,0.0693712,
2,1,0,1,0,54384.4,0.0717128,0.0713651,11.7381,28,0.00336471,10,0.000837688,-1.9304,0.434268,0.135861,62.2648,0.0713651,
2,1,0,1,0,54384.4,0.0737104,0.0733318,11.8669,28,0.00348274,10,0.000870221,-1.92566,0.427445,0.138029,63.9114,0.07333184,
2,1,0,1,0,54384.4,0.0756989,0.0753299,11.9915,28,0.0036009,10,0.000903316,-1.92113,0.452392,0.130418,61.0169,0.07532987,
2,1,0,1,0,54384.4,0.0776965,0.0773175,12.1101,28,0.00372139,10,0.000936322,-1.91685,0.467958,0.12608,59.5883,0.0773175,
2,1,0,1,0,54384.4,0.0796941,0.0793287,12.2298,28,0.00384314,10,0.00097017,-1.91258,0.473451,0.124617,59.4769,0.0793287,
2,1,0,1,0,54384.4,0.0816917,0.081345,12.3496,28,0.00396603,10,0.00100458,-1.90835,0.498803,0.118283,56.9804,0.08134497,
2,1,0,1,0,54384.5,0.0836983,0.0833344,12.458,28,0.0040901,10,0.00103818,-1.90455,0.471529,0.125125,60.8939,0.0833344,
2,1,0,1,0,54384.5,0.0856959,0.0853117,12.5912,28,0.00421535,10,0.00107417,-1.89993,0.462873,0.127465,62.587,0.0853117,
2,1,0,1,0,54384.5,0.0876935,0.0872924,12.7057,28,0.00434187,10,0.00110911,-1.896,0.512165,0.115197,57.115,0.0872924,
2,1,0,1,0,54384.5,0.0896911,0.0892783,12.8177,28,0.00446948,10,0.00114435,-1.89219,0.513686,0.114856,57.4696,0.0892783,
2,1,0,1,0,54384.5,0.0916977,0.0913146,12.9369,28,0.00459832,10,0.00118133,-1.88817,0.521097,0.113223,57.1516,0.0913146,
2,1,0,1,0,54384.5,0.0936953,0.0933578,13.0509,28,0.00472829,10,0.0012184,-1.88436,0.568231,0.103831,52.8526,0.0933578,
2,1,0,1,0,54384.5,0.0956929,0.0953395,13.1496,28,0.00485939,10,0.00125368,-1.88109,0.554399,0.106421,54.6524,0.0953395,
2,1,0,1,0,54384.5,0.0976905,0.0973176,13.2673,28,0.00499147,10,0.00129114,-1.87722,0.518418,0.113808,58.9241,0.0973176,
2,1,0,1,0,54384.5,0.099679,0.09932,13.3841,28,0.00512339,10,0.00132931,-1.87341,0.549654,0.10734,56.048,0.09932,
2,1,0,1,0,54384.5,0.101677,0.101326,13.4919,28,0.00525775,10,0.00136708,-1.86993,0.563728,0.10466,55.1189,0.101326,
2,1,0,1,0,54384.6,0.103674,0.103332,13.6053,28,0.00539325,10,0.00140587,-1.86629,0.511738,0.115293,61.2558,0.103332,
2,1,0,1,0,54384.6,0.105672,0.105317,13.7364,28,0.00552992,10,0.00144667,-1.86213,0.496178,0.118909,63.7202,0.105317,
2,1,0,1,0,54384.6,0.107656,0.107286,13.8573,28,0.0056665,10,0.00148669,-1.85832,0.498478,0.11836,64.0369,0.107286,
2,1,0,1,0,54384.6,0.109658,0.109286,13.9906,28,0.00580573,10,0.00152898,-1.85416,0.465505,0.126744,69.2254,0.1092862,
2,1,0,1,0,54384.6,0.111655,0.11128,14.1337,28,0.0059464,10,0.0015728,-1.84974,0.443216,0.133118,73.4531,0.11128,
2,1,0,1,0,54384.6,0.113653,0.113333,14.2878,28,0.00608847,10,0.00161928,-1.84503,0.453043,0.13023,72.5677,0.113333,
2,1,0,1,0,54384.6,0.115651,0.11527,14.4233,28,0.00623204,10,0.00166257,-1.84094,0.402416,0.146614,82.682,0.11527,
2,1,0,1,0,54384.6,0.117657,0.117273,14.6136,28,0.00637727,10,0.00171377,-1.83524,0.384239,0.15355,87.4911,0.117273,
2,1,0,1,0,54384.6,0.119655,0.119324,14.778,28,0.00652427,10,0.00176337,-1.83038,0.400097,0.147464,85.0823,0.119324,
2,1,0,1,0,54384.6,0.121652,0.121291,14.9555,28,0.00667289,10,0.00181397,-1.8252,0.391285,0.150785,87.9889,0.121291,
2,1,0,1,0,54384.7,0.12365,0.1233,15.1278,28,0.00682335,10,0.00186525,-1.82023,0.381067,0.154828,91.4809,0.1233,
2,1,0,1,0,54384.7,0.125657,0.125333,15.3253,28,0.00697567,10,0.00192077,-1.81459,0.379831,0.155332,92.8283,0.125333,
2,1,0,1,0,54384.7,0.127654,0.127303,15.4994,28,0.00712985,10,0.00197311,-1.80969,0.393896,0.149786,90.6365,0.127303,
2,1,0,1,0,54384.7,0.129652,0.129312,15.6859,28,0.0072858,10,0.00202838,-1.80449,0.391249,0.150799,92.2877,0.129312,
2,1,0,1,0,54384.7,0.131649,0.13126,15.8646,28,0.00744363,10,0.00208238,-1.79957,0.401107,0.147093,91.075,0.13126,
2,1,0,1,0,54384.7,0.133638,0.133263,16.0457,28,0.00760165,10,0.0021383,-1.79464,0.424748,0.138906,86.952,0.133263,
2,1,0,1,0,54384.7,0.135636,0.135302,16.216,28,0.00776303,10,0.00219406,-1.79006,0.440753,0.133862,84.7052,0.135302,
2,1,0,1,0,54384.7,0.137633,0.13725,16.3834,28,0.00792603,10,0.00224862,-1.7856,0.464423,0.127039,81.1836,0.13725,
2,1,0,1,0,54384.7,0.139631,0.139217,16.5339,28,0.00809069,10,0.0023018,-1.78163,0.494902,0.119215,76.9406,0.139217,
2,1,0,1,0,54384.7,0.141619,0.141257,16.6917,28,0.00825514,10,0.00235781,-1.7775,0.520601,0.113331,73.7819,0.141257,
2,1,0,1,0,54384.8,0.143617,0.143235,16.8303,28,0.00842278,10,0.00241068,-1.77391,0.571781,0.103186,67.7656,0.143235,
2,1,0,1,0,54384.8,0.145614,0.14528,16.9643,28,0.00859176,10,0.00246457,-1.77046,0.652475,0.090425,59.8154,0.14528,
2,1,0,1,0,54384.8,0.147612,0.147235,17.0696,28,0.00876194,10,0.00251325,-1.76778,0.685908,0.0860174,57.3334,0.147235,
2,1,0,1,0,54384.8,0.149619,0.149282,17.1938,28,0.00893324,10,0.00256672,-1.76463,0.790719,0.0746156,49.9973,0.149282,
2,1,0,1,0,54384.8,0.151616,0.151232,17.2694,28,0.00910558,10,0.0026117,-1.76272,1.11462,0.052933,35.6642,0.151232,
2,1,0,1,0,54384.8,0.153614,0.153225,17.3344,28,0.0092786,10,0.00265607,-1.76109,1.48955,0.0396093,26.7779,0.153225,
2,1,0,1,0,54384.8,0.155611,0.155217,17.3761,28,0.0094522,10,0.00269708,-1.76005,2.26052,0.0261002,17.6931,0.1552172,
2,1,0,1,0,54384.8,0.157618,0.157232,17.4053,28,0.00962611,10,0.00273667,-1.75932,-128.565,-0.000458914,-0.311195,0.157232,
2,1,0,1,0,54384.8,0.159616,0.159298,17.3749,28,0.00980008,10,0.00276778,-1.76008,-2.10208,-0.0280675,-19.0235,0.159298,
2,1,0,1,0,54384.8,0.161613,0.161264,17.3286,28,0.00997359,10,0.00279449,-1.76124,-1.12077,-0.0526422,-35.5503,0.161264,
2,1,0,1,0,54384.9,0.163611,0.163281,17.2333,28,0.0101464,10,0.00281386,-1.76363,-0.723351,-0.0815648,-54.8111,0.163281,
2,1,0,1,0,54384.9,0.165618,0.165264,17.1094,28,0.0103181,10,0.00282757,-1.76677,-0.526424,-0.112077,-74.7297,0.165264,
2,1,0,1,0,54384.9,0.167597,0.16724,16.9374,28,0.0104867,10,0.00283261,-1.77115,-0.405309,-0.145568,-96.1304,0.16724,
2,1,0,1,0,54384.9,0.169595,0.169165,16.7344,28,0.010655,10,0.00283087,-1.77639,-0.338357,-0.174372,-113.696,0.169165,
2,1,0,1,0,54384.9,0.171592,0.171271,16.4791,28,0.0108211,10,0.00282239,-1.78307,-0.282479,-0.208865,-134.197,0.171271,
2,1,0,1,0,54384.9,0.173572,0.173186,16.1948,28,0.0109827,10,0.00280471,-1.79063,-0.245509,-0.240317,-151.739,0.1731862,
2,1,0,1,0,54384.9,0.175578,0.175203,15.8824,28,0.0111431,10,0.00278265,-1.79908,-0.22466,-0.262619,-162.618,0.175203,
2,1,0,1,0,54384.9,0.177576,0.177197,15.5425,28,0.0113002,10,0.00275409,-1.80848,-0.2029,-0.290784,-176.21,0.177197,
2,1,0,1,0,54384.9,0.179573,0.179203,15.1776,28,0.0114537,10,0.00271987,-1.8188,-0.191966,-0.307345,-181.984,0.179203,
2,1,0,1,0,54384.9,0.181571,0.181237,14.8074,28,0.0116035,10,0.00268364,-1.82952,-0.182343,-0.323567,-186.859,0.181237,
2,1,0,1,0,54385,0.183578,0.183238,14.4236,28,0.0117497,10,0.00264296,-1.84093,-0.172793,-0.341449,-192.215,0.183238,
2,1,0,1,0,54385,0.185575,0.185187,14.0481,28,0.011892,10,0.00260152,-1.85238,-0.170258,-0.346533,-189.889,0.185187,
2,1,0,1,0,54385,0.187573,0.187234,13.6648,28,0.0120306,10,0.00255852,-1.8644,-0.169833,-0.3474,-185.385,0.187234,
2,1,0,1,0,54385,0.18957,0.189192,13.3057,28,0.0121654,10,0.00251732,-1.87596,-0.168901,-0.349317,-181.35,0.189192,
2,1,0,1,0,54385,0.191577,0.191193,12.9468,28,0.0122966,10,0.00247535,-1.88784,-0.173193,-0.340661,-172.259,0.191193,
2,1,0,1,0,54385,0.193575,0.193207,12.614,28,0.0124243,10,0.00243711,-1.89915,-0.178833,-0.329917,-162.444,0.193207,
2,1,0,1,0,54385,0.195572,0.195227,12.2916,28,0.0125489,10,0.00239965,-1.91039,-0.179175,-0.329287,-158.033,0.195227,
2,1,0,1,0,54385,0.19757,0.197181,11.986,28,0.0126702,10,0.00236341,-1.92132,-0.189416,-0.311484,-145.86,0.197181,
2,1,0,1,0,54385,0.199558,0.19921,11.7106,28,0.0127875,10,0.00233287,-1.93142,-0.200747,-0.293903,-134.356,0.19921,
2,1,0,1,0,54385,0.201556,0.201205,11.4453,28,0.0129032,10,0.00230286,-1.94137,-0.198074,-0.297868,-133.07,0.201205,
2,1,0,1,0,54385.1,0.203553,0.203142,11.1875,28,0.0130163,10,0.00227264,-1.95127,-0.211035,-0.279574,-122.19,0.203142,
2,1,0,1,0,54385.1,0.205551,0.20521,10.956,28,0.013127,10,0.00224827,-1.96035,-0.234078,-0.252053,-107.887,0.20521,
2,1,0,1,0,54385.1,0.20754,0.207189,10.7508,28,0.0132344,10,0.00222745,-1.96856,-0.24267,-0.243129,-102.011,0.207189,
2,1,0,1,0,54385.1,0.209537,0.209204,10.5485,28,0.0133408,10,0.00220679,-1.97681,-0.239986,-0.245848,-101.193,0.209204,
2,1,0,1,0,54385.1,0.211535,0.211196,10.3453,28,0.0134452,10,0.00218489,-1.98526,-0.252753,-0.233429,-94.3787,0.211196,
2,1,0,1,0,54385.1,0.213532,0.213178,10.1735,28,0.0135478,10,0.00216876,-1.99253,-0.280249,-0.210527,-83.6074,0.213178,
2,1,0,1,0,54385.1,0.215539,0.215226,10.0084,28,0.0136487,10,0.00215406,-1.99964,-0.282506,-0.208845,-81.5843,0.215226,
2,1,0,1,0,54385.1,0.217537,0.217173,9.84755,28,0.0137479,10,0.00213862,-2.00667,-0.292493,-0.201714,-77.5627,0.217173,
2,1,0,1,0,54385.1,0.219534,0.21922,9.69855,28,0.0138456,10,0.00212612,-2.01329,-0.325907,-0.181033,-68.5846,0.21922,
2,1,0,1,0,54385.1,0.221532,0.221239,9.56865,28,0.0139419,10,0.00211696,-2.01915,-0.325303,-0.181369,-67.6958,0.2212394,
2,1,0,1,0,54385.2,0.223534,0.22318,9.43049,28,0.0140369,10,0.0021047,-2.02547,-0.350224,-0.168464,-62.098,0.2231802,
2,1,0,1,0,54385.2,0.225536,0.225201,9.32265,28,0.0141307,10,0.00209947,-2.03046,-0.378517,-0.155871,-56.6702,0.225201,
2,1,0,1,0,54385.2,0.227534,0.227208,9.20225,28,0.0142233,10,0.00209082,-2.03611,-0.360917,-0.163473,-58.7286,0.227208,
2,1,0,1,0,54385.2,0.229531,0.229178,9.08908,28,0.0143147,10,0.00208302,-2.04148,-0.39566,-0.149118,-52.9301,0.229178,
2,1,0,1,0,54385.2,0.231529,0.231239,8.98885,28,0.0144051,10,0.00207858,-2.0463,-0.445971,-0.132296,-46.4477,0.231239,
2,1,0,1,0,54385.2,0.233517,0.233167,8.90378,28,0.0144937,10,0.00207607,-2.05043,-0.442105,-0.133453,-46.3366,0.233167,
2,1,0,1,0,54385.2,0.235515,0.235199,8.80536,28,0.0145823,10,0.00207101,-2.05525,-0.462324,-0.127616,-43.9011,0.235199,
2,1,0,1,0,54385.2,0.237512,0.237213,8.72617,28,0.0146699,10,0.00206996,-2.05918,-0.485954,-0.121411,-41.3322,0.237213,
2,1,0,1,0,54385.2,0.23951,0.23917,8.64126,28,0.0147567,10,0.00206673,-2.06342,-0.511061,-0.115446,-38.9697,0.23917,
2,1,0,1,0,54385.2,0.241499,0.241144,8.57299,28,0.0148419,10,0.00206732,-2.06687,-0.490137,-0.120374,-40.2191,0.241144,
2,1,0,1,0,54385.3,0.243496,0.243139,8.48163,28,0.0149272,10,0.00206221,-2.07152,-0.546619,-0.107936,-35.8111,0.243139,
2,1,0,1,0,54385.3,0.245494,0.245135,8.43007,28,0.0150117,10,0.0020665,-2.07417,-0.6159,-0.0957948,-31.4735,0.245135,
2,1,0,1,0,54385.3,0.247491,0.247134,8.35588,28,0.0150956,10,0.00206502,-2.07801,-0.5965,-0.0989103,-32.2902,0.247134,
2,1,0,1,0,54385.3,0.249498,0.249155,8.30024,28,0.0151789,10,0.00206805,-2.08091,-0.638588,-0.0923914,-29.9133,0.249155,
2,1,0,1,0,54385.3,0.251496,0.251128,8.2364,28,0.0152616,10,0.00206839,-2.08426,-0.612376,-0.096346,-30.9767,0.251128,
2,1,0,1,0,54385.3,0.253493,0.253144,8.1767,28,0.0153436,10,0.00206988,-2.08742,-0.620507,-0.0950835,-30.3374,0.253144,
2,1,0,1,0,54385.3,0.255491,0.255138,8.11474,28,0.0154251,10,0.00207038,-2.09073,-0.765431,-0.0770808,-24.4494,0.255138,
2,1,0,1,0,54385.3,0.257497,0.257157,8.07859,28,0.0155061,10,0.00207746,-2.09266,-0.782698,-0.0753803,-23.7312,0.257157,
2,1,0,1,0,54385.3,0.259495,0.259175,8.01896,28,0.0155866,10,0.00207831,-2.09588,-0.672197,-0.0877719,-27.4838,0.259175,
2,1,0,1,0,54385.3,0.261493,0.261165,7.96842,28,0.0156666,10,0.00208107,-2.09863,-0.804744,-0.0733153,-22.814,0.261165,
2,1,0,1,0,54385.4,0.26349,0.263161,7.92801,28,0.0157461,10,0.00208634,-2.10084,-1.00275,-0.058838,-18.2147,0.263161,
2,1,0,1,0,54385.4,0.265479,0.265121,7.89636,28,0.0158243,10,0.00209349,-2.10257,-0.848484,-0.0695358,-21.3992,0.265121,
2,1,0,1,0,54385.4,0.267476,0.267135,7.84297,28,0.015903,10,0.00209513,-2.10552,-0.775802,-0.0760503,-23.2976,0.2671349,
2,1,0,1,0,54385.4,0.269474,0.26913,7.80296,28,0.0159812,10,0.00210001,-2.10774,-0.898179,-0.0656885,-20.0047,0.26913,
2,1,0,1,0,54385.4,0.271471,0.271094,7.76378,28,0.016059,10,0.00210471,-2.10993,-1.1522,-0.0512064,-15.5318,0.271094,
2,1,0,1,0,54385.4,0.27346,0.273108,7.74117,28,0.0161356,10,0.00211418,-2.11119,-0.92616,-0.0637039,-19.2057,0.273108,
2,1,0,1,0,54385.4,0.275458,0.27512,7.68645,28,0.0162127,10,0.0021147,-2.11427,-0.819505,-0.0719947,-21.6283,0.27512,
2,1,0,1,0,54385.4,0.277455,0.277124,7.65431,28,0.0162894,10,0.0021212,-2.11609,-0.956978,-0.0616524,-18.4065,0.2771244,
2,1,0,1,0,54385.4,0.279453,0.279079,7.61358,28,0.0163658,10,0.00212479,-2.11841,-1.03256,-0.0571393,-16.994,0.279079,
2,1,0,1,0,54385.4,0.281455,0.281072,7.58722,28,0.0164417,10,0.00213256,-2.11992,-1.08595,-0.0543303,-16.0748,0.281072,
2,1,0,1,0,54385.5,0.283457,0.283098,7.54898,28,0.0165174,10,0.0021371,-2.12211,-1.04167,-0.05664,-16.697,0.283098,
2,1,0,1,0,54385.5,0.285455,0.285097,7.52002,28,0.0165928,10,0.00214393,-2.12378,-0.945146,-0.0624242,-18.3012,0.285097,
2,1,0,1,0,54385.5,0.287452,0.287117,7.47543,28,0.0166678,10,0.00214632,-2.12636,-1.01425,-0.058171,-16.9943,0.287117,
2,1,0,1,0,54385.5,0.28945,0.289131,7.45146,28,0.0167424,10,0.00215445,-2.12776,-1.43886,-0.0410047,-11.9249,0.289131,
2,1,0,1,0,54385.5,0.291456,0.29109,7.42804,28,0.0168169,10,0.00216223,-2.12913,-1.15361,-0.0511439,-14.8144,0.29109,
2,1,0,1,0,54385.5,0.293454,0.293092,7.39279,28,0.0168909,10,0.00216677,-2.13119,-0.988913,-0.0596615,-17.2148,0.293092,
2,1,0,1,0,54385.5,0.295452,0.295111,7.35883,28,0.0169647,10,0.00217167,-2.13319,-1.27493,-0.0462771,-13.3031,0.295111,
2,1,0,1,0,54385.5,0.297449,0.297138,7.33896,28,0.0170382,10,0.00218069,-2.13437,-1.40736,-0.0419223,-12.0002,0.297138,
2,1,0,1,0,54385.5,0.299438,0.299136,7.31052,28,0.0171108,10,0.00218684,-2.13605,-0.0659146,-0.895097,-246.434,0.2991364,
2,1,0,1,0,54385.5,0.299746,0.299417,6.7775,28,0.0171415,10,0.0020293,-2.16893,0.00815989,7.23049,1638.49,0.299417,
2,1,0,1,0,54385.6,0.29774,0.297436,4.52438,28,0.0171966,10,0.00134571,-2.34444,0.0117691,5.01311,917.997,0.297436,
2,1,0,1,0,54385.6,0.295742,0.295395,3.08591,28,0.0172341,10,0.000911564,-2.51062,0.0114985,5.1311,621.184,0.295395,
2,1,0,1,0,54385.6,0.293745,0.293395,2.0145,28,0.0172592,10,0.000591046,-2.69583,0.00929776,6.34562,486.184,0.293395,
2,1,0,1,0,54385.6,0.291747,0.291419,1.15274,28,0.0172748,10,0.000335929,-2.93827,0.00610211,9.66879,395.059,0.291419,
2,1,0,1,0,54385.6,0.289745,0.289444,0.453607,28,0.0172827,10,0.000131294,-3.34332,0.00422976,13.9488,314.538,0.289444,
2,0,0,1,0,54385.6,0.287743,0.287354,-0.12605,28,0.0172841,10,-3.62208e-05,-3.89946,-0.0323462,-1.82402,263.128,0.287354,
2,0,0,1,0,54385.6,0.285745,0.285426,-0.60384,28,0.0172804,10,-0.000172351,-3.21908,-0.00439363,-13.4285,224.307,0.285426,
2,0,0,1,0,54385.6,0.283748,0.283361,-1.02165,28,0.0172721,10,-0.000289497,-2.9907,-0.0113294,-5.20768,190.389,0.283361,
2,0,0,1,0,54385.6,0.28175,0.28138,-1.37409,28,0.01726,10,-0.000386641,-2.86199,-0.0181294,-3.25438,168.706,0.28138,
2,0,0,1,0,54385.6,0.279761,0.279394,-1.69092,28,0.0172447,10,-0.000472432,-2.77188,-0.0258604,-2.28148,146.859,0.279394,
2,0,0,1,0,54385.7,0.277764,0.277396,-1.95919,28,0.0172265,10,-0.000543472,-2.70792,-0.0346023,-1.70509,128.796,0.277396,
2,0,0,1,0,54385.7,0.275766,0.275421,-2.20257,28,0.0172056,10,-0.000606633,-2.65707,-0.0444605,-1.32702,112.698,0.275421,
2,0,0,1,0,54385.7,0.273769,0.27341,-2.40842,28,0.0171825,10,-0.000658484,-2.61827,-0.0537374,-1.09793,102.921,0.27341,
2,0,0,1,0,54385.7,0.27178,0.271433,-2.61304,28,0.0171576,10,-0.000709264,-2.58285,-0.0630276,-0.936098,94.7713,0.271433,
2,0,0,1,0,54385.7,0.269783,0.269392,-2.78916,28,0.0171305,10,-0.000751378,-2.55453,-0.0755619,-0.780817,84.7099,0.269392,
2,0,0,1,0,54385.7,0.267785,0.267412,-2.95362,28,0.0171018,10,-0.000789834,-2.52965,-0.0882355,-0.668665,76.6438,0.267412,
2,0,0,1,0,54385.7,0.265787,0.265467,-3.08999,28,0.0170716,10,-0.000820291,-2.51004,-0.100406,-0.587617,70.9276,0.265467,
2,0,0,1,0,54385.7,0.263781,0.263426,-3.23638,28,0.0170399,10,-0.000852545,-2.48994,-0.110214,-0.535321,67.3569,0.263426,
2,0,0,1,0,54385.7,0.261783,0.261429,-3.36196,28,0.0170068,10,-0.000878916,-2.47341,-0.127777,-0.461743,60.4648,0.261429,
2,0,0,1,0,54385.7,0.259786,0.259443,-3.47722,28,0.0169726,10,-0.000902138,-2.45877,-0.139797,-0.42204,57.2318,0.259443,
2,0,0,1,0,54385.8,0.257788,0.257445,-3.58998,28,0.0169373,10,-0.000924224,-2.44491,-0.144811,-0.407427,57.0826,0.257445,
2,0,0,1,0,54385.8,0.255781,0.25545,-3.70513,28,0.0169007,10,-0.000946476,-2.4312,-0.169781,-0.347506,50.0412,0.25545,
2,0,0,1,0,54385.8,0.253784,0.25342,-3.79143,28,0.0168632,10,-0.000960823,-2.4212,-0.191985,-0.307315,45.5249,0.25342,
2,0,0,1,0,54385.8,0.251786,0.251435,-3.88789,28,0.0168248,10,-0.000977553,-2.41029,-0.198226,-0.29764,45.0804,0.251435,
2,0,0,1,0,54385.8,0.249789,0.249419,-3.97177,28,0.0167855,10,-0.000990637,-2.40102,-0.205429,-0.287204,44.5829,0.249419,
2,0,0,1,0,54385.8,0.2478,0.247384,-4.06854,28,0.0167456,10,-0.00100649,-2.39056,-0.21251,-0.277635,43.9759,0.247384,
2,0,0,1,0,54385.8,0.245802,0.245441,-4.1467,28,0.0167046,10,-0.00101777,-2.3823,-0.235521,-0.250508,40.5455,0.245441,
2,0,0,1,0,54385.8,0.243805,0.243478,-4.2269,28,0.0166627,10,-0.00102916,-2.37398,-0.264272,-0.223254,36.7649,0.243478,
2,0,0,1,0,54385.8,0.241807,0.241454,-4.29331,28,0.0166201,10,-0.00103664,-2.36721,-0.263718,-0.223724,37.5595,0.241454,
2,0,0,1,0,54385.8,0.239819,0.23947,-4.37745,28,0.0165772,10,-0.00104826,-2.35878,-0.277309,-0.212759,36.2431,0.23947,
2,0,0,1,0,54385.9,0.237821,0.237482,-4.43726,28,0.0165331,10,-0.00105377,-2.35288,-0.313681,-0.188089,32.6074,0.237482,
2,0,0,1,0,54385.9,0.235824,0.235485,-4.50738,28,0.0164884,10,-0.00106142,-2.34608,-0.337101,-0.175022,30.7246,0.235485,
2,0,0,1,0,54385.9,0.233826,0.233503,-4.55951,28,0.0164431,10,-0.00106466,-2.34108,-0.324701,-0.181706,32.4275,0.233503,
2,0,0,1,0,54385.9,0.231824,0.231431,-4.63883,28,0.0163971,10,-0.00107357,-2.33359,-0.330074,-0.178748,32.2595,0.231431,
2,0,0,1,0,54385.9,0.229822,0.229463,-4.68985,28,0.0163504,10,-0.00107615,-2.32884,-0.384405,-0.153484,28.1194,0.229463,
2,0,0,1,0,54385.9,0.227824,0.227464,-4.75039,28,0.0163032,10,-0.00108054,-2.32327,-0.37154,-0.158798,29.4343,0.2274636,
2,0,0,1,0,54385.9,0.225827,0.225395,-4.80957,28,0.0162553,10,-0.00108405,-2.31789,-0.380551,-0.155038,29.0926,0.225395,
2,0,0,1,0,54385.9,0.223829,0.223475,-4.86642,28,0.0162069,10,-0.00108753,-2.31279,-0.40937,-0.144124,27.3529,0.223475,
2,0,0,1,0,54385.9,0.221822,0.221474,-4.91682,28,0.0161579,10,-0.00108895,-2.30832,-0.395834,-0.149052,28.6416,0.2214745,
2,0,0,1,0,54385.9,0.219825,0.219457,-4.9815,28,0.0161084,10,-0.00109323,-2.30264,-0.394819,-0.149435,29.0126,0.219457,
2,0,0,1,0,54386,0.217827,0.217466,-5.03311,28,0.0160583,10,-0.00109453,-2.29816,-0.443196,-0.133124,26.1469,0.217466,
2,0,0,1,0,54386,0.21583,0.215529,-5.08422,28,0.0160077,10,-0.0010958,-2.29378,-0.411313,-0.143443,28.494,0.2155288,
2,0,0,1,0,54386,0.213841,0.213465,-5.14713,28,0.0159571,10,-0.00109873,-2.28843,-0.434875,-0.135671,27.213,0.213465,
2,0,0,1,0,54386,0.211843,0.211448,-5.19528,28,0.0159054,10,-0.00109853,-2.28439,-0.52188,-0.113053,22.91,0.211448,
2,0,0,1,0,54386,0.209846,0.209489,-5.23821,28,0.0158532,10,-0.00109735,-2.28082,-0.502888,-0.117322,24.0029,0.209489,
2,0,0,1,0,54386,0.207848,0.20752,-5.28955,28,0.0158006,10,-0.00109769,-2.27658,-0.419827,-0.140534,29.048,0.20752,
2,0,0,1,0,54386,0.20586,0.205476,-5.35478,28,0.0157478,10,-0.00110028,-2.27126,-0.437378,-0.134895,28.1446,0.205476,
2,0,0,1,0,54386,0.203862,0.203488,-5.40303,28,0.0156941,10,-0.00109945,-2.26736,-0.557194,-0.105888,22.3125,0.203488,
2,0,0,1,0,54386,0.201865,0.201473,-5.4441,28,0.0156398,10,-0.00109684,-2.26407,-0.497375,-0.118623,25.2438,0.201473,
2,0,0,1,0,54386,0.199867,0.19953,-5.50295,28,0.0155851,10,-0.001098,-2.2594,-0.486562,-0.121259,26.0085,0.19953,
2,0,0,1,0,54386.1,0.19786,0.197478,-5.54799,28,0.0155299,10,-0.00109561,-2.25586,-0.531723,-0.11096,24.0382,0.197478,
2,0,0,1,0,54386.1,0.195863,0.195519,-5.59936,28,0.0154741,10,-0.00109478,-2.25186,-0.520564,-0.113339,24.7585,0.195519,
2,0,0,1,0,54386.1,0.193865,0.193479,-5.647,28,0.0154179,10,-0.00109258,-2.24818,-0.511557,-0.115334,25.4327,0.193479,
2,0,0,1,0,54386.1,0.191868,0.191503,-5.70151,28,0.0153612,10,-0.00109186,-2.24401,-0.49978,-0.118052,26.2548,0.191503,
2,0,0,1,0,54386.1,0.189861,0.189532,-5.75064,28,0.0153039,10,-0.00108993,-2.24028,-0.49608,-0.118932,26.7089,0.189532,
2,0,0,1,0,54386.1,0.187863,0.187538,-5.80741,28,0.0152461,10,-0.00108911,-2.23602,-0.546027,-0.108053,24.4556,0.187538,
2,0,0,1,0,54386.1,0.185866,0.185539,-5.84828,28,0.0151878,10,-0.00108509,-2.23297,-0.57757,-0.102152,23.3392,0.185539,
2,0,0,1,0,54386.1,0.183868,0.18351,-5.90142,28,0.015129,10,-0.00108297,-2.22904,-0.447421,-0.131867,30.4116,0.18351,
2,0,0,1,0,54386.1,0.18188,0.18151,-5.97082,28,0.0150702,10,-0.00108376,-2.22397,-0.423984,-0.139156,32.3978,0.18151,
2,0,0,1,0,54386.1,0.179882,0.179538,-6.03011,28,0.0150103,10,-0.00108263,-2.21967,-0.552066,-0.106871,25.1136,0.179538,
2,0,0,1,0,54386.2,0.177885,0.177486,-6.07188,28,0.0149498,10,-0.00107767,-2.21668,-0.509307,-0.115844,27.5116,0.177486,
2,0,0,1,0,54386.2,0.175887,0.175515,-6.14078,28,0.0148887,10,-0.0010778,-2.21178,-0.452405,-0.130414,31.2127,0.175515,
2,0,0,1,0,54386.2,0.173907,0.173584,-6.19368,28,0.0148277,10,-0.00107512,-2.20805,-0.456121,-0.129352,31.3113,0.173584,
2,0,0,1,0,54386.2,0.171901,0.171561,-6.26458,28,0.0147653,10,-0.00107476,-2.20311,-0.458956,-0.128553,31.3916,0.171561,
2,0,0,1,0,54386.2,0.169903,0.169534,-6.32081,28,0.0147024,10,-0.00107159,-2.19923,-0.421856,-0.139858,34.5726,0.169534,
2,0,0,1,0,54386.2,0.167906,0.167528,-6.40403,28,0.0146388,10,-0.00107285,-2.19355,-0.403865,-0.146088,36.4532,0.167528,
2,0,0,1,0,54386.2,0.165908,0.165517,-6.46724,28,0.0145744,10,-0.00107044,-2.18928,-0.407224,-0.144883,36.6242,0.165517,
2,0,0,1,0,54386.2,0.163901,0.163518,-6.5509,28,0.0145093,10,-0.00107119,-2.1837,-0.37876,-0.155772,39.7953,0.163518,
2,0,0,1,0,54386.2,0.161904,0.161539,-6.62552,28,0.0144434,10,-0.00107028,-2.17878,-0.354894,-0.166247,43.0477,0.161539,
2,0,0,1,0,54386.2,0.159906,0.1596,-6.71956,28,0.0143767,10,-0.00107244,-2.17266,-0.353699,-0.166809,43.6998,0.1595995,
2,0,0,1,0,54386.3,0.157909,0.157532,-6.80064,28,0.0143091,10,-0.00107132,-2.16745,-0.334212,-0.176535,46.9513,0.157532,
2,0,0,1,0,54386.3,0.155902,0.155523,-6.91094,28,0.0142405,10,-0.00107481,-2.16046,-0.294394,-0.200412,54.0322,0.155523,
2,0,0,1,0,54386.3,0.153904,0.15353,-7.01689,28,0.0141708,10,-0.0010773,-2.15386,-0.279575,-0.211035,57.8688,0.15353,
2,0,0,1,0,54386.3,0.151907,0.151514,-7.14294,28,0.0141,10,-0.00108226,-2.14612,-0.269429,-0.218982,61.0038,0.151514,
2,0,0,1,0,54386.3,0.149909,0.149532,-7.26078,28,0.0140279,10,-0.00108572,-2.13902,-0.236822,-0.249133,70.7898,0.149532,
2,0,0,1,0,54386.3,0.147921,0.147596,-7.42033,28,0.0139552,10,-0.00109521,-2.12958,-0.227853,-0.258938,74.8767,0.147596,
2,0,0,1,0,54386.3,0.145923,0.145534,-7.56015,28,0.0138803,10,-0.00110026,-2.12147,-0.215287,-0.274053,81.0956,0.145534,
2,0,0,1,0,54386.3,0.143926,0.143573,-7.74655,28,0.0138037,10,-0.0011122,-2.11089,-0.183179,-0.32209,97.4446,0.143573,
2,0,0,1,0,54386.3,0.141928,0.141562,-7.94718,28,0.0137252,10,-0.00112502,-2.09979,-0.171952,-0.343119,106.564,0.141562,
2,0,0,1,0,54386.3,0.139939,0.139569,-8.17324,28,0.0136454,10,-0.00114073,-2.08761,-0.165323,-0.356877,113.789,0.1395691,
2,0,0,1,0,54386.4,0.137942,0.137611,-8.39675,28,0.0135626,10,-0.00115548,-2.07589,-0.156749,-0.376398,123.634,0.137611,
2,0,0,1,0,54386.4,0.135944,0.135597,-8.6643,28,0.0134773,10,-0.00117485,-2.06227,-0.146841,-0.401794,135.902,0.1355972,
2,0,0,1,0,54386.4,0.133947,0.133595,-8.94255,28,0.0133893,10,-0.00119468,-2.04854,-0.139258,-0.423675,148.102,0.133595,
2,0,0,1,0,54386.4,0.13194,0.1316,-9.25627,28,0.0132983,10,-0.00121813,-2.03356,-0.135592,-0.43513,157.159,0.1316,
2,0,0,1,0,54386.4,0.129942,0.129579,-9.57372,28,0.0132041,10,-0.00124055,-2.01892,-0.134188,-0.439683,164.457,0.129579,
2,0,0,1,0,54386.4,0.127945,0.127568,-9.91947,28,0.0131066,10,-0.0012654,-2.00351,-0.133075,-0.44336,171.51,0.127568,
2,0,0,1,0,54386.4,0.125947,0.125586,-10.2585,28,0.0130056,10,-0.00128832,-1.98892,-0.130413,-0.452408,181.406,0.1255859,
2,0,0,1,0,54386.4,0.123941,0.123608,-10.6378,28,0.0129011,10,-0.00131491,-1.97315,-0.131795,-0.447664,185.558,0.123608,
2,0,0,1,0,54386.4,0.121943,0.121634,-10.9918,28,0.0127929,10,-0.00133698,-1.95893,-0.142562,-0.413854,177.445,0.121634,
2,0,0,1,0,54386.4,0.119945,0.119637,-11.3424,28,0.0126812,10,-0.00135697,-1.94529,-0.146724,-0.402115,178.045,0.119637,
2,0,0,1,0,54386.5,0.117948,0.117621,-11.7063,28,0.0125659,10,-0.00137691,-1.93158,-0.146072,-0.403911,184.596,0.117621,
2,0,0,1,0,54386.5,0.115946,0.115607,-12.0864,28,0.0124469,10,-0.00139726,-1.9177,-0.155383,-0.379708,178.729,0.115607,
2,0,0,1,0,54386.5,0.113962,0.113612,-12.4228,28,0.0123255,10,-0.00141138,-1.90578,-0.169341,-0.348409,168.916,0.113612,
2,0,0,1,0,54386.5,0.111964,0.111587,-12.7654,28,0.0121995,10,-0.00142445,-1.89397,-0.173238,-0.340571,169.531,0.111587,
2,0,0,1,0,54386.5,0.109967,0.10966,-13.0929,28,0.0120702,10,-0.00143576,-1.88297,-0.182723,-0.322894,164.939,0.10966,
2,0,0,1,0,54386.5,0.107969,0.107633,-13.4176,28,0.0119376,10,-0.00144417,-1.87233,-0.198159,-0.29774,155.74,0.107633,
2,0,0,1,0,54386.5,0.10598,0.105647,-13.7179,28,0.0118032,10,-0.00144925,-1.86271,-0.208423,-0.283078,151.524,0.105647,
2,0,0,1,0,54386.5,0.103983,0.103672,-14.0177,28,0.0116644,10,-0.00145324,-1.85332,-0.223244,-0.264285,144.459,0.103672,
2,0,0,1,0,54386.5,0.101985,0.101633,-14.2977,28,0.0115228,10,-0.00145312,-1.84473,-0.246768,-0.239091,133.289,0.101633,
2,0,0,1,0,54386.5,0.0999877,0.0996419,-14.5549,28,0.0113786,10,-0.00145028,-1.83699,-0.264912,-0.222715,126.451,0.0996419,
2,0,0,1,0,54386.6,0.0979811,0.0976481,-14.8016,28,0.0112317,10,-0.00144535,-1.82969,-0.282758,-0.208659,120.486,0.0976481,
2,0,0,1,0,54386.6,0.0959835,0.0956223,-15.0392,28,0.0110825,10,-0.00143808,-1.82278,-0.323218,-0.182539,106.971,0.0956223,
2,0,0,1,0,54386.6,0.0939859,0.0936259,-15.2318,28,0.0109311,10,-0.00142609,-1.81725,-0.353858,-0.166734,99.1276,0.0936259,
2,0,0,1,0,54386.6,0.0919883,0.091679,-15.4301,28,0.0107777,10,-0.00141461,-1.81163,-0.374896,-0.157377,94.7059,0.091679,
2,0,0,1,0,54386.6,0.0899816,0.0896445,-15.6089,28,0.0106224,10,-0.00139925,-1.80663,-0.440934,-0.133807,81.4286,0.0896445,
2,0,0,1,0,54386.6,0.087984,0.0876585,-15.7575,28,0.0104655,10,-0.00138128,-1.80251,-0.540269,-0.109205,67.1014,0.0876585,
2,0,0,1,0,54386.6,0.0859865,0.0855936,-15.8807,28,0.0103073,10,-0.00135929,-1.79913,-0.651809,-0.0905173,56.0606,0.0855936,
2,0,0,1,0,54386.6,0.0839889,0.0836528,-15.982,28,0.010148,10,-0.00133694,-1.79637,-0.803934,-0.0733891,45.742,0.0836528,
2,0,0,1,0,54386.6,0.0820004,0.0816579,-16.0607,28,0.00998927,10,-0.00131149,-1.79423,-1.07561,-0.0548525,34.3609,0.0816579,
2,0,0,1,0,54386.6,0.0800028,0.0796267,-16.1204,28,0.00982834,10,-0.00128361,-1.79263,-1.57152,-0.0375433,23.6015,0.0796267,
2,0,0,1,0,54386.7,0.0780052,0.0776448,-16.1554,28,0.00966691,10,-0.00125439,-1.79168,-2.39315,-0.0246537,15.5401,0.0776448,
2,0,0,1,0,54386.7,0.0760076,0.0756422,-16.1823,28,0.00950521,10,-0.00122406,-1.79096,-5.61986,-0.0104985,6.62473,0.0756422,
2,0,0,1,0,54386.7,0.0740191,0.0736094,-16.1822,28,0.00934506,10,-0.00119116,-1.79096,13.4416,0.00438935,-2.77112,0.0736094,
2,0,0,1,0,54386.7,0.0720215,0.0716373,-16.1712,28,0.00918328,10,-0.00115846,-1.79126,3.95997,0.0148991,-9.39853,0.0716373,
2,0,0,1,0,54386.7,0.0700239,0.0696384,-16.1449,28,0.00902169,10,-0.0011243,-1.79197,2.48033,0.0237871,-14.9846,0.0696384,
2,0,0,1,0,54386.7,0.0680263,0.0676542,-16.1115,28,0.00886045,10,-0.00109001,-1.79286,2.21938,0.026584,-16.7156,0.0676542,
2,0,0,1,0,54386.7,0.0660197,0.0656526,-16.0782,28,0.00869956,10,-0.00105558,-1.79376,1.74038,0.0339007,-21.2599,0.0656526,
2,0,0,1,0,54386.7,0.0640221,0.0636588,-16.0266,28,0.00853902,10,-0.00102023,-1.79516,1.3617,0.0433283,-27.0967,0.0636588,
2,0,0,1,0,54386.7,0.0620245,0.0616798,-15.9706,28,0.00837902,10,-0.000985063,-1.79668,1.38991,0.0424487,-26.463,0.0616798,
2,0,0,1,0,54386.7,0.0600269,0.0596843,-15.9214,28,0.00821956,10,-0.000950257,-1.79802,1.43668,0.0410668,-25.514,0.0596843,
2,0,0,1,0,54386.8,0.0580248,0.0576663,-15.8682,28,0.00806062,10,-0.000915059,-1.79947,1.36319,0.0432808,-26.8021,0.0576663,
2,0,0,1,0,54386.8,0.0560227,0.0556717,-15.8138,28,0.00790216,10,-0.000880382,-1.80096,1.29755,0.0454704,-28.0591,0.0556717,
2,0,0,1,0,54386.8,0.0540251,0.0536536,-15.7556,28,0.00774429,10,-0.000845344,-1.80257,1.40077,0.0421196,-25.9085,0.0536536,
2,0,0,1,0,54386.8,0.0520275,0.0516277,-15.7091,28,0.00758696,10,-0.000811023,-1.80385,1.27091,0.0464235,-28.4436,0.0516277,
2,0,0,1,0,54386.8,0.0500299,0.0497043,-15.6433,28,0.00743015,10,-0.000777537,-1.80567,1.35277,0.0436142,-26.6494,0.0497043,
2,0,0,1,0,54386.8,0.0480414,0.0476912,-15.6042,28,0.00727545,10,-0.000744181,-1.80676,1.51348,0.0389829,-23.7262,0.0476912,
2,0,0,1,0,54386.8,0.0460438,0.0456568,-15.5472,28,0.0071197,10,-0.000709837,-1.80835,1.33001,0.0443604,-26.9218,0.0456568,
2,0,0,1,0,54386.8,0.0440462,0.0437099,-15.497,28,0.0069645,10,-0.000677371,-1.80975,1.16136,0.0508023,-30.7039,0.0437099,
2,0,0,1,0,54386.8,0.0420486,0.041689,-15.4254,28,0.00680994,10,-0.00064307,-1.81176,1.27362,0.0463247,-27.9162,0.041689,
2,0,0,1,0,54386.8,0.0400601,0.0397147,-15.3854,28,0.00665741,10,-0.000611027,-1.81289,1.30558,0.0451906,-27.1093,0.03971466,
2,0,0,1,0,54386.9,0.0380625,0.0376905,-15.317,28,0.00650391,10,-0.000577306,-1.81483,1.06463,0.0554184,-33.1316,0.0376905,
2,0,0,1,0,54386.9,0.036065,0.0356976,-15.2523,28,0.00635109,10,-0.000544473,-1.81666,1.06822,0.0552322,-32.8736,0.03569765,
2,0,0,1,0,54386.9,0.0340674,0.0336657,-15.1847,28,0.0061989,10,-0.000511204,-1.81859,1.12957,0.0522324,-30.9649,0.0336657,
2,0,0,1,0,54386.9,0.0320607,0.0316937,-15.1284,28,0.00604732,10,-0.000479473,-1.82021,0.980703,0.0601609,-35.488,0.0316937,
2,0,0,1,0,54386.9,0.0300631,0.0297355,-15.0452,28,0.00589645,10,-0.000447377,-1.8226,0.875954,0.0673552,-39.5606,0.02973547,
2,0,0,1,0,54386.9,0.0280655,0.0277244,-14.9713,28,0.00574635,10,-0.000415071,-1.82474,0.934553,0.0631318,-36.8852,0.0277244,
2,0,0,1,0,54386.9,0.0260679,0.0256985,-14.8963,28,0.00559697,10,-0.000382813,-1.82692,0.899884,0.065564,-38.1126,0.0256985,
2,0,0,1,0,54386.9,0.0240613,0.023723,-14.8188,28,0.00544839,10,-0.000351547,-1.82919,0.806888,0.0731204,-42.2675,0.023723,
2,0,0,1,0,54386.9,0.0220637,0.0217006,-14.7273,28,0.00530066,10,-0.000319592,-1.83188,0.773234,0.0763029,-43.8656,0.0217006,
2,0,0,1,0,54386.9,0.0200661,0.019706,-14.6426,28,0.00515384,10,-0.000288547,-1.83438,0.681849,0.0865294,-49.4014,0.019706,
2,0,0,1,0,54387,0.0180685,0.0177243,-14.5309,28,0.00500794,10,-0.000257551,-1.83771,0.69061,0.0854317,-48.4966,0.0177243,
2,0,0,1,0,54387,0.01608,0.0157096,-14.4488,28,0.00486453,10,-0.000226985,-1.84017,0.705187,0.0836658,-47.1354,0.0157096,
2,0,0,1,0,54387,0.0140824,0.0136903,-14.3408,28,0.00472059,10,-0.00019633,-1.84343,0.627326,0.09405,-52.6478,0.0136903,
2,0,0,1,0,54387,0.0120848,0.0117212,-14.2388,28,0.00457772,10,-0.000166896,-1.84653,0.578664,0.101959,-56.6157,0.01172116,
2,0,0,1,0,54387,0.0100872,0.00972256,-14.1161,28,0.00443598,10,-0.000137245,-1.85028,0.579437,0.101823,-56.135,0.00972256,
2,0,0,1,0,54387,0.00810328,0.00771738,-14.0141,28,0.00429678,10,-0.000108152,-1.85344,0.595093,0.0991442,-54.1977,0.00771738,
2,0,0,1,0,54387,0.00610116,0.00571147,-13.8987,28,0.00415718,10,-7.93822e-05,-1.85702,0.535956,0.110084,-59.6997,0.005711474,
2,0,0,1,0,54387,0.00410357,0.00376891,-13.7784,28,0.00401883,10,-5.19293e-05,-1.8608,0.660557,0.0893186,-48.1105,0.00376891,
2,0,0,1,0,54387,0.00210598,0.00169012,-13.7053,28,0.00388155,10,-2.31636e-05,-1.86311,0.660624,0.0893095,-47.6869,0.00169012,
2,0,0,1,0,54387,0.00010174,-0.000278473,-13.5854,28,0.00374511,10,3.78315e-06,-1.86693,0.506966,0.116379,-61.6869,-0.0002784729,
2,0,0,1,0,54387,-0.00189827,-0.00230173,-13.459,28,0.00360983,10,3.0979e-05,-1.87099,0.548065,0.107651,-56.5925,-0.00230173,
2,0,0,1,0,54387.1,-0.00389586,-0.0043354,-13.3558,28,0.00347572,10,5.79025e-05,-1.87433,0.596684,0.0988799,-51.5386,-0.0043354,
2,0,0,1,0,54387.1,-0.00589345,-0.00630746,-13.2526,28,0.00334268,10,8.35901e-05,-1.8777,0.585158,0.100828,-52.1522,-0.006307465,
2,0,0,1,0,54387.1,-0.00789103,-0.0082483,-13.1517,28,0.00321067,10,0.000108479,-1.88102,0.62905,0.0937922,-48.1591,-0.0082483,
2,0,0,1,0,54387.1,-0.0098977,-0.0102776,-13.0614,28,0.00307957,10,0.00013424,-1.88401,0.730033,0.0808183,-41.2183,-0.0102776,
2,0,0,1,0,54387.1,-0.0118953,-0.0122905,-12.9851,28,0.00294935,10,0.000159593,-1.88656,0.690988,0.085385,-43.2353,-0.0122905,
2,0,0,1,0,54387.1,-0.0138929,-0.0142834,-12.8882,28,0.00281999,10,0.000184087,-1.88981,0.714493,0.0825761,-41.5804,-0.0142834,
2,0,0,1,0,54387.1,-0.0158905,-0.0162589,-12.8201,28,0.00269145,10,0.00020844,-1.89211,0.889845,0.0663037,-33.1764,-0.0162589,
2,0,0,1,0,54387.1,-0.017879,-0.0183151,-12.7544,28,0.00256484,10,0.000233599,-1.89434,0.949963,0.0621077,-30.9235,-0.0183151,
2,0,0,1,0,54387.1,-0.0198766,-0.0202732,-12.6959,28,0.0024376,10,0.000257387,-1.89634,0.985118,0.0598913,-29.6738,-0.0202732,
2,0,0,1,0,54387.1,-0.0218741,-0.0222885,-12.6365,28,0.00231101,10,0.000281649,-1.89837,1.12905,0.0522565,-25.7867,-0.0222885,
2,0,0,1,0,54387.2,-0.0238717,-0.0242807,-12.5926,28,0.00218491,10,0.000305757,-1.89988,1.35293,0.0436089,-21.4338,-0.0242807,
2,0,0,1,0,54387.2,-0.0258602,-0.0262589,-12.5514,28,0.00206047,10,0.000329586,-1.90131,1.42983,0.0412637,-20.2148,-0.0262589,
2,0,0,1,0,54387.2,-0.0278578,-0.0282232,-12.5129,28,0.00193518,10,0.000353154,-1.90264,1.49521,0.0394593,-19.2697,-0.0282232,
2,0,0,1,0,54387.2,-0.0298554,-0.0302369,-12.4748,28,0.00181023,10,0.000377198,-1.90397,2.06706,0.028543,-13.9075,-0.0302369,
2,0,0,1,0,54387.2,-0.031853,-0.0322393,-12.457,28,0.00168555,10,0.000401607,-1.90458,3.05143,0.0193352,-9.3991,-0.0322393,
2,0,0,1,0,54387.2,-0.0338597,-0.0342556,-12.437,28,0.00156106,10,0.000426037,-1.90529,4.40027,0.0134083,-6.51179,-0.0342556,
2,0,0,1,0,54387.2,-0.0358573,-0.036213,-12.4312,28,0.00143672,10,0.00045017,-1.90549,6.39935,0.00921968,-4.47179,-0.03621297,
2,0,0,1,0,54387.2,-0.0378548,-0.0382701,-12.419,28,0.00131246,10,0.000475277,-1.90591,6.26643,0.00941525,-4.56443,-0.0382701,
2,0,0,1,0,54387.2,-0.0398524,-0.0402413,-12.4128,28,0.00118829,10,0.000499506,-1.90613,-29.8359,-0.00197749,0.958587,-0.0402413,
2,0,0,1,0,54387.2,-0.0418591,-0.0422506,-12.4228,28,0.0010641,10,0.000524873,-1.90578,-5.25163,-0.0112346,5.44718,-0.0422506,
2,0,0,1,0,54387.3,-0.0438567,-0.0442374,-12.4346,28,0.00093981,10,0.000550073,-1.90537,-36.8813,-0.00159972,0.775683,-0.0442374,
2,0,0,1,0,54387.3,-0.0458543,-0.0462382,-12.4259,28,0.000815438,10,0.000574552,-1.90567,-4.51854,-0.0130573,6.343,-0.0462382,
2,0,0,1,0,54387.3,-0.0478519,-0.0482736,-12.4602,28,0.000691003,10,0.000601496,-1.90448,-1.99641,-0.0295531,14.3648,-0.0482736,
2,0,0,1,0,54387.3,-0.0498585,-0.0502482,-12.4835,28,0.00056633,10,0.000627276,-1.90366,-2.24479,-0.026283,12.807,-0.0502482,
2,0,0,1,0,54387.3,-0.051838,-0.0522397,-12.5109,28,0.000442586,10,0.000653568,-1.90271,-2.79877,-0.0210807,10.2873,-0.0522397,
2,0,0,1,0,54387.3,-0.0538355,-0.0542414,-12.5246,28,0.000317427,10,0.000679354,-1.90224,-2.07459,-0.0284394,13.917,-0.0542414,
2,0,0,1,0,54387.3,-0.0558331,-0.0562719,-12.5671,28,0.000191964,10,0.000707172,-1.90077,-1.60296,-0.0368069,18.0423,-0.05627187,
2,0,0,1,0,54387.3,-0.0578126,-0.0581946,-12.5959,28,6.74104e-05,10,0.000733016,-1.89977,-1.63393,-0.0361093,17.7593,-0.0581946,
2,0,0,1,0,54387.3,-0.0598192,-0.0602205,-12.6372,28,-5.87865e-05,10,0.000761018,-1.89835,-1.35045,-0.0436892,21.5509,-0.0602205,
2,0,0,1,0,54387.3,-0.0618168,-0.0622359,-12.683,28,-0.000185376,10,0.000789341,-1.89678,-1.22982,-0.0479745,23.7495,-0.0622359,
2,0,0,1,0,54387.4,-0.0638144,-0.0642297,-12.7324,28,-0.000312426,10,0.000817798,-1.89509,-1.3416,-0.0439773,21.8423,-0.06422969,
2,0,0,1,0,54387.4,-0.065812,-0.0662113,-12.7699,28,-0.000439928,10,0.00084551,-1.89381,-1.12857,-0.0522784,26.0843,-0.0662113,
2,0,0,1,0,54387.4,-0.0678187,-0.0682519,-12.8373,28,-0.000567988,10,0.000876172,-1.89153,-1.04216,-0.0566133,28.3398,-0.0682519,
2,0,0,1,0,54387.4,-0.0698163,-0.0702266,-12.8837,28,-0.000696597,10,0.000904776,-1.88996,-1.09545,-0.0538591,27.0952,-0.0702266,
2,0,0,1,0,54387.4,-0.0718138,-0.0721822,-12.9438,28,-0.000825741,10,0.000934312,-1.88794,-1.02365,-0.0576368,29.11,-0.0721822,
2,0,0,1,0,54387.4,-0.0738114,-0.0741933,-12.9991,28,-0.000955476,10,0.000964448,-1.88609,-0.87489,-0.067437,34.247,-0.0741933,
2,0,0,1,0,54387.4,-0.0758181,-0.0761992,-13.0814,28,-0.00108595,10,0.000996791,-1.88335,-0.88647,-0.0665561,33.9424,-0.0761992,
2,0,0,1,0,54387.4,-0.0778157,-0.078225,-13.136,28,-0.00121709,10,0.00102756,-1.88154,-0.896887,-0.0657831,33.7577,-0.078225,
2,0,0,1,0,54387.4,-0.0798133,-0.0802153,-13.217,28,-0.00134889,10,0.0010602,-1.87887,-0.78547,-0.0751143,38.7323,-0.0802153,
2,0,0,1,0,54387.4,-0.0818109,-0.0821874,-13.2895,28,-0.00148148,10,0.00109223,-1.87649,-0.708701,-0.0832509,43.2219,-0.0821874,
2,0,0,1,0,54387.5,-0.0837994,-0.0842078,-13.3895,28,-0.00161355,10,0.0011275,-1.87324,-0.721886,-0.0817304,42.6594,-0.0842078,
2,0,0,1,0,54387.5,-0.085797,-0.0861682,-13.4593,28,-0.00174773,10,0.00115976,-1.87098,-0.739868,-0.0797439,41.9309,-0.0861682,
2,0,0,1,0,54387.5,-0.0877945,-0.0882097,-13.5573,28,-0.00188279,10,0.00119589,-1.86783,-0.695365,-0.0848475,44.8637,-0.0882097,
2,0,0,1,0,54387.5,-0.0897921,-0.0901566,-13.6382,28,-0.00201876,10,0.00122957,-1.86524,-0.681471,-0.0865774,46.1171,-0.0901566,
2,0,0,1,0,54387.5,-0.0917806,-0.0921848,-13.7406,28,-0.00215427,10,0.00126668,-1.86199,-0.655672,-0.089984,48.2318,-0.0921848,
2,0,0,1,0,54387.5,-0.0937782,-0.0941473,-13.8307,28,-0.00229217,10,0.00130212,-1.85916,-0.641822,-0.0919259,49.6502,-0.0941473,
2,0,0,1,0,54387.5,-0.0957758,-0.0961758,-13.9388,28,-0.00243104,10,0.00134058,-1.85577,-0.64623,-0.0912987,49.6348,-0.0961758,
2,0,0,1,0,54387.5,-0.0977734,-0.0981678,-14.0302,28,-0.00257092,10,0.00137732,-1.85293,-0.581532,-0.101456,55.6226,-0.0981678,
2,0,0,1,0,54387.5,-0.0997412,-0.100106,-14.1574,28,-0.00270903,10,0.00141725,-1.84902,0.101958,0.57867,-310.095,-0.100106,
2,0,0,1,1,54387.5,-0.0996711,-0.100084,-13.4359,28,-0.00275059,10,0.00134473,-1.87173,-0.0162426,-3.63243,1745.32,-0.100084,
2,0,0,1,1,54387.6,-0.0976826,-0.0980874,-10.6336,28,-0.00286804,10,0.00104302,-1.97332,-0.0210487,-2.80303,1192.28,-0.0980874,
2,0,0,1,1,54387.6,-0.095685,-0.0961151,-8.70344,28,-0.00296414,10,0.000836531,-2.06031,-0.0226792,-2.6015,888.304,-0.0961151,
2,0,0,1,1,54387.6,-0.0936874,-0.0941117,-7.10197,28,-0.00304272,10,0.000668379,-2.14862,-0.0220466,-2.67615,743.237,-0.0941117,
2,0,0,1,1,54387.6,-0.0916898,-0.092121,-5.73493,28,-0.00310661,10,0.000528308,-2.24147,-0.0204895,-2.87953,642.825,-0.092121,
2,0,0,1,1,54387.6,-0.0897013,-0.0901112,-4.53037,28,-0.0031571,10,0.000408237,-2.34387,-0.0181464,-3.25133,570.3,-0.0901112,
2,0,0,1,1,54387.6,-0.0877037,-0.0881097,-3.44725,28,-0.00319676,10,0.000303736,-2.46253,-0.0149375,-3.9498,521.661,-0.08810968,
2,0,0,1,1,54387.6,-0.0857061,-0.0861229,-2.44979,28,-0.00322601,10,0.000210983,-2.61087,-0.0116285,-5.07376,472.274,-0.0861229,
2,0,0,1,1,54387.6,-0.0837086,-0.0841291,-1.56733,28,-0.00324592,10,0.000131858,-2.80484,-0.00757661,-7.78712,430.633,-0.0841291,
2,0,0,1,1,54387.6,-0.0817019,-0.0821189,-0.725539,28,-0.00325718,10,5.95804e-05,-3.13934,-0.00218311,-27.0257,399.381,-0.0821189,
2,0,0,1,1,54387.6,-0.0797043,-0.0801459,0.0234758,28,-0.00326057,10,-1.88149e-06,-4.62938,4.77471,0.0123568,362.6,-0.0801459,
2,1,0,1,1,54387.7,-0.0777067,-0.0781131,0.726941,28,-0.00325667,10,-5.67837e-05,-3.1385,0.00227869,25.8921,333.803,-0.0781131,
2,1,0,1,1,54387.7,-0.0757091,-0.0761246,1.36582,28,-0.00324611,10,-0.000103973,-2.86461,0.00905778,6.51374,318.347,-0.0761246,
2,1,0,1,1,54387.7,-0.0737025,-0.0741621,1.98475,28,-0.00322922,10,-0.000147193,-2.70229,0.0148998,3.95978,292.105,-0.0741621,
2,1,0,1,1,54387.7,-0.0717049,-0.0721249,2.53414,28,-0.00320653,10,-0.000182775,-2.59617,0.0212933,2.77082,268.574,-0.0721249,
2,1,0,1,1,54387.7,-0.0697073,-0.0701589,3.05989,28,-0.00317845,10,-0.000214679,-2.51429,0.0271664,2.1718,255.387,-0.0701589,
2,1,0,1,1,54387.7,-0.0677097,-0.0681513,3.54896,28,-0.00314533,10,-0.000241866,-2.4499,0.0338273,1.74415,239.375,-0.0681513,
2,1,0,1,1,54387.7,-0.0657212,-0.0661615,4.01678,28,-0.00310779,10,-0.000265756,-2.39612,0.0411952,1.4322,222.191,-0.0661615,
2,1,0,1,1,54387.7,-0.0637236,-0.0641669,4.43425,28,-0.00306547,10,-0.000284532,-2.35318,0.0492501,1.19797,206.585,-0.0641669,
2,1,0,1,1,54387.7,-0.061726,-0.0621452,4.84648,28,-0.00301903,10,-0.000301186,-2.31457,0.0573831,1.02818,193.15,-0.0621452,
2,1,0,1,1,54387.7,-0.0597284,-0.0601307,5.21384,28,-0.00296868,10,-0.000313512,-2.28284,0.065161,0.905449,183.882,-0.0601307,
2,1,0,1,1,54387.8,-0.0577399,-0.0581669,5.57803,28,-0.00291525,10,-0.000324456,-2.25352,0.0746982,0.789845,170.955,-0.0581669,
2,1,0,1,1,54387.8,-0.0557423,-0.0561644,5.8919,28,-0.00285787,10,-0.000330915,-2.22974,0.0861302,0.68501,157.462,-0.0561644,
2,1,0,1,1,54387.8,-0.0537448,-0.0541316,6.21342,28,-0.00279726,10,-0.000336343,-2.20667,0.0973621,0.605985,146.19,-0.0541316,
2,1,0,1,1,54387.8,-0.0517472,-0.0521387,6.48041,28,-0.00273373,10,-0.000337881,-2.1884,0.10723,0.550221,139.292,-0.0521387,
2,1,0,1,1,54387.8,-0.049745,-0.0501511,6.76789,28,-0.00266744,10,-0.000339417,-2.16955,0.116202,0.507736,133.626,-0.05015105,
2,1,0,1,1,54387.8,-0.0477429,-0.0481478,7.01371,28,-0.00259847,10,-0.000337694,-2.15405,0.133628,0.441523,120.742,-0.0481478,
2,1,0,1,1,54387.8,-0.0457453,-0.0461418,7.25196,28,-0.00252706,10,-0.000334619,-2.13954,0.148949,0.39611,111.847,-0.0461418,
2,1,0,1,1,54387.8,-0.0437477,-0.0441472,7.46116,28,-0.0024535,10,-0.000329389,-2.12719,0.162331,0.363455,105.811,-0.0441472,
2,1,0,1,1,54387.8,-0.0417501,-0.0421795,7.67122,28,-0.00237775,10,-0.000323568,-2.11514,0.175052,0.337042,100.764,-0.0421795,
2,1,0,1,1,54387.8,-0.0397435,-0.0401562,7.86331,28,-0.00230001,10,-0.000315761,-2.10439,0.194838,0.302816,92.8495,-0.0401562,
2,1,0,1,1,54387.9,-0.0377459,-0.0381538,8.04501,28,-0.00222046,10,-0.000306948,-2.09447,0.220392,0.267705,83.8778,-0.0381538,
2,1,0,1,1,54387.9,-0.0357483,-0.036193,8.19573,28,-0.00213925,10,-0.000296628,-2.08641,0.238093,0.247802,79.3208,-0.036193,
2,1,0,1,1,54387.9,-0.0337507,-0.0341706,8.36096,28,-0.00205642,10,-0.000285699,-2.07774,0.259084,0.227725,74.1542,-0.0341706,
2,1,0,1,1,54387.9,-0.0317622,-0.0321773,8.49351,28,-0.00197298,10,-0.000273298,-2.07091,0.288711,0.204356,67.753,-0.0321773,
2,1,0,1,1,54387.9,-0.0297646,-0.0301851,8.63099,28,-0.00188732,10,-0.000260527,-2.06394,0.321866,0.183306,61.6455,-0.0301851,
2,1,0,1,1,54387.9,-0.027767,-0.0281483,8.74189,28,-0.00180046,10,-0.000246069,-2.05839,0.355154,0.166125,56.6845,-0.0281483,
2,1,0,1,1,54387.9,-0.0257694,-0.0262125,8.85617,28,-0.00171244,10,-0.000232143,-2.05275,0.374386,0.157592,54.4282,-0.0262125,
2,1,0,1,1,54387.9,-0.0237809,-0.0241715,8.95834,28,-0.00162425,10,-0.000216536,-2.04777,0.406936,0.144986,50.6883,-0.02417147,
2,1,0,1,1,54387.9,-0.0217833,-0.0221734,9.06091,28,-0.00153413,10,-0.000200911,-2.04283,0.498986,0.11824,41.7214,-0.0221734,
2,1,0,1,1,54387.9,-0.0197858,-0.0201822,9.12477,28,-0.00144318,10,-0.000184158,-2.03978,0.553557,0.106583,38.0055,-0.0201822,
2,1,0,1,1,54388,-0.0177882,-0.0181702,9.21305,28,-0.00135144,10,-0.000167403,-2.0356,0.535638,0.110149,39.5646,-0.0181702,
2,1,0,1,1,54388,-0.0157815,-0.0161808,9.28309,28,-0.00125895,10,-0.000150208,-2.03231,0.618844,0.0953391,34.5381,-0.0161808,
2,1,0,1,1,54388,-0.0137839,-0.0141402,9.35224,28,-0.00116574,10,-0.000132243,-2.02908,0.772514,0.076374,27.8349,-0.0141402,
2,1,0,1,1,54388,-0.0117863,-0.0121872,9.39425,28,-0.00107204,10,-0.00011449,-2.02714,0.820158,0.0719374,26.4032,-0.0121872,
2,1,0,1,1,54388,-0.00978874,-0.0101709,9.45704,28,-0.000977723,10,-9.61868e-05,-2.02424,0.804938,0.0732976,27.0278,-0.0101709,
2,1,0,1,1,54388,-0.00778207,-0.00817282,9.50275,28,-0.000882922,10,-7.76642e-05,-2.02215,0.974945,0.0605162,22.4404,-0.00817282,
2,1,0,1,1,54388,-0.00578449,-0.00619641,9.54623,28,-0.000787652,10,-5.91524e-05,-2.02017,1.23747,0.0476778,17.7477,-0.00619641,
2,1,0,1,1,54388,-0.0037869,-0.00418183,9.57358,28,-0.000692053,10,-4.00351e-05,-2.01893,1.18229,0.0499033,18.6645,-0.00418183,
2,1,0,1,1,54388,-0.00178931,-0.00219935,9.62084,28,-0.000596049,10,-2.11596e-05,-2.01679,1.92149,0.0307054,11.4985,-0.00219935,
2,1,0,1,1,54388,-2.55332e-05,-0.000382585,9.61727,28,-0.000512341,10,-3.67943e-06,-2.01695, , , ,-0.000382585,