File: Figure_codes/Fig_3-5/rawdata_trumpetplot_data/after 10th/20221101_1-115_003_TrumpetPlot_ParaChange_from10_every3_07_CV_C01_12.csv
mode,ox/red,error,control changes,counter inc.,time/s,control/V,Ewe/V,<I>/mA,cycle number,(Q-Qo)/C,I Range,P/W,log(|I|),Tafel slope mV/dec,alpha_eff,dI/d(E-IR),E-IR/V,
2,0,0,0,0,24806.6,2.44065e-05,-0.00042076,-2.72811,13,0.0000000E+000,10,1.14788e-06,-2.56414, , , ,-0.00042076,
2,0,0,1,0,24806.6,0.0013005,0.000942978,-1.10901,13,-3.73499e-05,10,-1.04577e-06,-2.95506, , , ,0.000942978,
2,0,0,1,0,24806.6,0.00279471,0.00247664,-0.044214,13,-5.01915e-05,10,-1.09502e-07,-4.35444,-0.0123277,-4.78597,589.772,0.00247664,
2,1,0,1,0,24806.7,0.00429425,0.0039848,0.595896,13,-4.22329e-05,10,2.37453e-06,-3.22483,0.00747753,7.89031,372.757,0.0039848,
2,1,0,1,0,24806.7,0.00579379,0.00548212,1.02689,13,-2.11371e-05,10,5.62951e-06,-2.98848,0.00739751,7.97566,254.79,0.00548212,
2,1,0,1,0,24806.7,0.007288,0.0069585,1.33687,13,8.94877e-06,10,9.30258e-06,-2.87391,0.0153044,3.85509,185.495,0.0069585,
2,1,0,1,0,24806.7,0.00878882,0.00849879,1.5731,13,4.5949e-05,10,1.33694e-05,-2.80324,0.0247573,2.38313,140.537,0.00849879,
2,1,0,1,0,24806.8,0.0102896,0.00997279,1.7571,13,8.80846e-05,10,1.75231e-05,-2.7552,0.0374671,1.57471,105.336,0.00997279,
2,1,0,1,0,24806.8,0.0117838,0.0114544,1.90626,13,0.000134072,10,2.1835e-05,-2.71982,0.0487327,1.21069,88.3637,0.0114544,
2,1,0,1,0,24806.8,0.0132834,0.0129257,2.01759,13,0.000183413,10,2.60787e-05,-2.69517,0.0599661,0.983888,76.7666,0.0129257,
2,1,0,1,0,24806.8,0.0147816,0.0144627,2.11452,13,0.000235524,10,3.05816e-05,-2.67479,0.0735545,0.802126,65.9925,0.0144627,
2,1,0,1,0,24806.9,0.0162811,0.0159747,2.20784,13,0.000290104,10,3.52697e-05,-2.65603,0.0885067,0.666616,57.1517,0.01597473,
2,1,0,1,0,24806.9,0.0177753,0.0174261,2.2938,13,0.000346581,10,3.9972e-05,-2.63944,0.108282,0.544874,48.3654,0.0174261,
2,1,0,1,0,24806.9,0.0192761,0.0189943,2.35795,13,0.000405065,10,4.47877e-05,-2.62746,0.116125,0.508072,46.6522,0.0189943,
2,1,0,1,0,24806.9,0.020777,0.020456,2.42093,13,0.000465294,10,4.95226e-05,-2.61602,0.122342,0.482255,45.5877,0.020456,
2,1,0,1,0,24807,0.0222712,0.0219803,2.49534,13,0.000526945,10,5.48482e-05,-2.60287,0.140907,0.418717,40.6747,0.0219803,
2,1,0,1,0,24807,0.0237707,0.0234301,2.555,13,0.000590399,10,5.9864e-05,-2.59261,0.155452,0.379538,37.6867,0.02343013,
2,1,0,1,0,24807,0.0252703,0.0249636,2.60822,13,0.00065531,10,6.51104e-05,-2.58366,0.147856,0.399037,40.6096,0.0249636,
2,1,0,1,0,24807,0.0267645,0.0264532,2.65893,13,0.000721349,10,7.0337e-05,-2.57529,0.149476,0.394713,41.02,0.0264532,
2,1,0,1,0,24807.1,0.0282653,0.0279199,2.72323,13,0.000789101,10,7.60322e-05,-2.56492,0.172804,0.341428,36.2686,0.0279199,
2,1,0,1,0,24807.1,0.0297648,0.0294368,2.78483,13,0.00085831,10,8.19764e-05,-2.5552,0.180493,0.326882,35.327,0.0294368,
2,1,0,1,0,24807.1,0.031259,0.0309222,2.82637,13,0.000928594,10,8.73976e-05,-2.54877,0.169984,0.347091,38.3239,0.0309222,
2,1,0,1,0,24807.1,0.0327585,0.0324391,2.88167,13,0.00100045,10,9.34787e-05,-2.54036,0.184507,0.319771,36.0219,0.0324391,
2,1,0,1,0,24807.2,0.034258,0.0339759,2.93719,13,0.00107369,10,9.97936e-05,-2.53207,0.20828,0.283273,32.5143,0.0339759,
2,1,0,1,0,24807.2,0.0357576,0.0354603,2.9936,13,0.00114826,10,0.000106154,-2.52381,0.216015,0.27313,31.8561,0.0354603,
2,1,0,1,0,24807.2,0.0372518,0.0368992,3.04629,13,0.00122389,10,0.000112406,-2.51623,0.189308,0.311661,36.9913,0.0368992,
2,1,0,1,0,24807.2,0.0387526,0.0383968,3.09145,13,0.00130099,10,0.000118702,-2.50984,0.195416,0.30192,36.5443,0.0383968,
2,1,0,1,0,24807.3,0.0402534,0.0399371,3.15129,13,0.00137944,10,0.000125854,-2.50151,0.202356,0.291566,35.852,0.0399371,
2,1,0,1,0,24807.3,0.0417476,0.0414344,3.21214,13,0.00145903,10,0.000133093,-2.49321,0.21408,0.275598,34.3668,0.0414344,
2,1,0,1,0,24807.3,0.0432472,0.0429513,3.25895,13,0.00154025,10,0.000139976,-2.48692,0.209679,0.281382,35.7402,0.0429513,
2,1,0,1,0,24807.3,0.0447467,0.0444383,3.30144,13,0.00162265,10,0.00014671,-2.4813,0.213356,0.276533,35.698,0.0444383,
2,1,0,1,0,24807.4,0.0462463,0.0459253,3.35397,13,0.00170637,10,0.000154032,-2.47444,0.231864,0.25446,33.3383,0.0459253,
2,1,0,1,0,24807.4,0.0477391,0.0474387,3.41149,13,0.00179107,10,0.000161837,-2.46706,0.232593,0.253661,33.7373,0.0474387,
2,1,0,1,0,24807.4,0.0492399,0.0489518,3.45992,13,0.00187737,10,0.000169369,-2.46093,0.241794,0.24401,32.9191,0.0489518,
2,1,0,1,0,24807.4,0.0507408,0.0504253,3.49771,13,0.00196488,10,0.000176373,-2.45622,0.240769,0.245048,33.5572,0.0504253,
2,1,0,1,0,24807.5,0.052235,0.0518968,3.55427,13,0.00205317,10,0.000184455,-2.44925,0.260605,0.226396,31.4554,0.0518968,
2,1,0,1,0,24807.5,0.0537345,0.0534016,3.61838,13,0.00214313,10,0.000193227,-2.44149,0.253415,0.23282,32.7276,0.0534016,
2,1,0,1,0,24807.5,0.0552341,0.0549415,3.65617,13,0.0022344,10,0.000200876,-2.43697,0.252768,0.233416,33.2756,0.0549415,
2,1,0,1,0,24807.5,0.0567283,0.0564258,3.69399,13,0.00232644,10,0.000208436,-2.4325,0.271952,0.21695,31.3456,0.0564258,
2,1,0,1,0,24807.6,0.0582291,0.0579126,3.74413,13,0.00241989,10,0.000216832,-2.42665,0.292713,0.201562,29.4838,0.0579126,
2,1,0,1,0,24807.6,0.0597299,0.0593695,3.79473,13,0.00251457,10,0.000225291,-2.42082,0.282441,0.208893,30.9041,0.0593695,
2,1,0,1,0,24807.6,0.0612228,0.0609535,3.84228,13,0.00261007,10,0.000234201,-2.41541,0.295318,0.199785,29.9241,0.0609535,
2,1,0,1,0,24807.6,0.0627223,0.0623912,3.88173,13,0.00270705,10,0.000242186,-2.41097,0.302493,0.195046,29.5574,0.0623912,
2,1,0,1,0,24807.7,0.0642218,0.063903,3.9175,13,0.00280501,10,0.00025034,-2.40699,0.325742,0.181125,27.7746,0.063903,
2,1,0,1,0,24807.7,0.0657214,0.0654225,3.96599,13,0.00290408,10,0.000259465,-2.40165,0.318497,0.185245,28.6706,0.0654225,
2,1,0,1,0,24807.7,0.0672156,0.06691,4.01728,13,0.00300392,10,0.000268796,-2.39607,0.295595,0.199597,31.2261,0.06691,
2,1,0,1,0,24807.7,0.0687164,0.0684036,4.05473,13,0.00310522,10,0.000277358,-2.39204,0.348841,0.169132,26.7565,0.0684036,
2,1,0,1,0,24807.8,0.0702172,0.069919,4.08917,13,0.00320742,10,0.000285911,-2.38836,0.381527,0.154642,24.7075,0.06991902,
2,1,0,1,0,24807.8,0.0717114,0.0713733,4.13379,13,0.00331018,10,0.000295042,-2.38365,0.354584,0.166392,26.7997,0.0713733,
2,1,0,1,0,24807.8,0.073211,0.0728792,4.17642,13,0.0034144,10,0.000304374,-2.3792,0.3451,0.170965,27.7971,0.07287918,
2,1,0,1,0,24807.8,0.0747105,0.0744206,4.20402,13,0.00351955,10,0.000312866,-2.37633,0.390684,0.151017,24.7893,0.0744206,
2,1,0,1,0,24807.9,0.0762101,0.0758617,4.23577,13,0.00362555,10,0.000321333,-2.37307,0.44357,0.133012,22.0334,0.0758617,
2,1,0,1,0,24807.9,0.0777042,0.0773734,4.27763,13,0.00373193,10,0.000330975,-2.3688,0.415811,0.141891,23.6823,0.0773734,
2,1,0,1,0,24807.9,0.0792037,0.0788999,4.31249,13,0.00383969,10,0.000340255,-2.36527,0.381693,0.154575,25.9637,0.0788999,
2,1,0,1,0,24807.9,0.0807046,0.0804,4.3402,13,0.00394834,10,0.000348952,-2.36249,0.443383,0.133068,22.5313,0.0804,
2,1,0,1,0,24808,0.0821988,0.0818956,4.37344,13,0.00405729,10,0.000358165,-2.35918,0.527732,0.111799,19.0842,0.0818956,
2,1,0,1,0,24808,0.0836983,0.0833659,4.40379,13,0.00416737,10,0.000367126,-2.35617,0.538481,0.109568,18.8274,0.08336585,
2,1,0,1,0,24808,0.0851979,0.0848665,4.43439,13,0.00427827,10,0.000376331,-2.35317,0.445431,0.132456,22.92,0.0848665,
2,1,0,1,0,24808,0.0866921,0.0863786,4.46313,13,0.0043895,10,0.000385518,-2.35036,0.48957,0.120514,20.9985,0.0863786,
2,1,0,1,0,24808.1,0.0881929,0.0878608,4.49732,13,0.004502,10,0.000395138,-2.34705,0.537367,0.109795,19.2866,0.0878608,
2,1,0,1,0,24808.1,0.0896937,0.0893815,4.53509,13,0.00461521,10,0.000405353,-2.34341,0.473846,0.124513,22.0259,0.0893815,
2,1,0,1,0,24808.1,0.0911879,0.0908334,4.57376,13,0.00472892,10,0.00041545,-2.33973,0.347312,0.169876,30.2808,0.0908334,
2,1,0,1,0,24808.1,0.0926861,0.0923774,4.61103,13,0.00484415,10,0.000425955,-2.3362,0.357429,0.165068,29.7002,0.0923774,
2,1,0,1,0,24808.2,0.0941856,0.0938724,4.64595,13,0.00496035,10,0.000436127,-2.33293,0.424001,0.139151,25.2879,0.0938724,
2,1,0,1,0,24808.2,0.0956852,0.095355,4.68979,13,0.00507752,10,0.000447195,-2.32885,0.377285,0.156381,28.6576,0.095355,
2,1,0,1,0,24808.2,0.0971794,0.0968447,4.73762,13,0.00519533,10,0.000458813,-2.32444,0.3006,0.196274,36.3104,0.0968447,
2,1,0,1,0,24808.2,0.0986802,0.0983729,4.78658,13,0.00531492,10,0.00047087,-2.31997,0.280027,0.210694,39.4659,0.0983729,
2,1,0,1,0,24808.3,0.100181,0.0998293,4.85052,13,0.00543588,10,0.000484225,-2.31421,0.299115,0.197249,37.4013,0.0998293,
2,1,0,1,0,24808.3,0.101675,0.101393,4.91378,13,0.00555791,10,0.000498223,-2.30858,0.27409,0.215257,41.3015,0.101393,
2,1,0,1,0,24808.3,0.103175,0.102887,4.98508,13,0.00568202,10,0.000512899,-2.30233,0.234945,0.251123,48.9202,0.102887,
2,1,0,1,0,24808.3,0.104674,0.104317,5.0611,13,0.00580796,10,0.000527959,-2.29576,0.221907,0.265877,52.5449,0.104317,
2,1,0,1,0,24808.4,0.106169,0.105894,5.13806,13,0.00593539,10,0.000544091,-2.2892,0.236323,0.249659,50.0431,0.105894,
2,1,0,1,0,24808.4,0.107668,0.107385,5.21773,13,0.00606527,10,0.000560308,-2.28252,0.236401,0.249576,50.8143,0.107385,
2,1,0,1,0,24808.4,0.109169,0.108834,5.29922,13,0.00619705,10,0.000576733,-2.27579,0.219043,0.269354,55.7062,0.108834,
2,1,0,1,0,24808.4,0.110663,0.110351,5.37721,13,0.00633041,10,0.00059338,-2.26944,0.213825,0.275926,57.9677,0.110351,
2,1,0,1,0,24808.5,0.112163,0.111827,5.46562,13,0.00646642,10,0.000611206,-2.26236,0.232427,0.253843,54.1163,0.111827,
2,1,0,1,0,24808.5,0.113662,0.113363,5.55108,13,0.00660456,10,0.000629286,-2.25562,0.242226,0.243574,52.7007,0.113363,
2,1,0,1,0,24808.5,0.115162,0.114811,5.62763,13,0.00674466,10,0.000646117,-2.24967,0.238203,0.247688,54.3886,0.114811,
2,1,0,1,0,24808.5,0.116656,0.116318,5.70621,13,0.00688624,10,0.000663735,-2.24365,0.243765,0.242036,53.9003,0.116318,
2,1,0,1,0,24808.6,0.118157,0.117852,5.78981,13,0.00703041,10,0.000682338,-2.23734,0.283529,0.208092,46.9504,0.117852,
2,1,0,1,0,24808.6,0.119657,0.119349,5.86257,13,0.00717642,10,0.000699694,-2.23191,0.321561,0.18348,41.898,0.119349,
2,1,0,1,0,24808.6,0.121152,0.120833,5.92309,13,0.00732347,10,0.000715703,-2.22745,0.324384,0.181883,41.9804,0.1208327,
2,1,0,1,0,24808.6,0.122651,0.122322,5.97066,13,0.00747259,10,0.000730345,-2.22398,0.339023,0.17403,40.5811,0.122322,
2,1,0,1,0,24808.7,0.124151,0.123823,6.03442,13,0.00762318,10,0.0007472,-2.21936,0.380702,0.154977,36.5137,0.123823,
2,1,0,1,0,24808.7,0.125649,0.125333,6.08844,13,0.0077752,10,0.000763086,-2.21549,0.437826,0.134757,31.9733,0.125333,
2,1,0,1,0,24808.7,0.127143,0.126827,6.13046,13,0.00792782,10,0.000777506,-2.21251,0.438832,0.134448,32.1725,0.1268266,
2,1,0,1,0,24808.7,0.128644,0.128302,6.17356,13,0.00808209,10,0.000792077,-2.20946,0.446667,0.13209,31.8548,0.128302,
2,1,0,1,0,24808.8,0.130145,0.129833,6.21911,13,0.00823749,10,0.000807447,-2.20627,0.565475,0.104337,25.3266,0.129833,
2,1,0,1,0,24808.8,0.131639,0.131322,6.26418,13,0.00839336,10,0.000822624,-2.20314,0.626536,0.0941686,22.9782,0.131322,
2,1,0,1,0,24808.8,0.133139,0.132817,6.2998,13,0.0085508,10,0.00083672,-2.20067,0.641044,0.0920374,22.6064,0.132817,
2,1,0,1,0,24808.8,0.134638,0.134356,6.32614,13,0.00870898,10,0.000849955,-2.19886,0.713362,0.082707,20.4368,0.134356,
2,1,0,1,0,24808.9,0.136132,0.135825,6.35749,13,0.00886735,10,0.000863508,-2.19671,0.858756,0.068704,17.0397,0.135825,
2,1,0,1,0,24808.9,0.137633,0.137278,6.39127,13,0.00902711,10,0.00087738,-2.19441,1.12271,0.0525515,13.0769,0.1372779,
2,1,0,1,0,24808.9,0.139133,0.13887,6.41614,13,0.00918746,10,0.000891008,-2.19273,1.52644,0.038652,9.64457,0.13887,
2,1,0,1,0,24808.9,0.140627,0.14031,6.40895,13,0.00934743,10,0.000899238,-2.19321,4.96827,0.0118754,2.96747,0.14031,
2,1,0,1,0,24809,0.142126,0.141785,6.40677,13,0.00950811,10,0.000908386,-2.19336,-2.81759,-0.0209399,-5.22789,0.1417854,
2,1,0,1,0,24809,0.143626,0.143323,6.40146,13,0.00966863,10,0.000917478,-2.19372,-0.785013,-0.075158,-18.6995,0.143323,
2,1,0,1,0,24809,0.145125,0.144833,6.3572,13,0.00982851,10,0.000920732,-2.19673,-0.442619,-0.133297,-32.9606,0.144833,
2,1,0,1,0,24809,0.14662,0.146328,6.28708,13,0.00998642,10,0.000919974,-2.20155,-0.29036,-0.203196,-49.7498,0.146328,
2,1,0,1,0,24809.1,0.14812,0.147796,6.20206,13,0.0101431,10,0.000916641,-2.20746,-0.210373,-0.280454,-67.6736,0.147796,
2,1,0,1,0,24809.1,0.149621,0.149309,6.09758,13,0.0102973,10,0.000910426,-2.21484,-0.166032,-0.355353,-84.1488,0.149309,
2,1,0,1,0,24809.1,0.151116,0.150787,5.96072,13,0.0104478,10,0.000898799,-2.2247,-0.137319,-0.429656,-99.3705,0.150787,
2,1,0,1,0,24809.1,0.152615,0.152304,5.78742,13,0.0105951,10,0.000881449,-2.23752,-0.115225,-0.51204,-115.398,0.152304,
2,1,0,1,0,24809.2,0.154115,0.15382,5.60512,13,0.010738,10,0.000862179,-2.25142,-0.102433,-0.575986,-125.883,0.15382,
2,1,0,1,0,24809.2,0.155614,0.155309,5.41561,13,0.0108762,10,0.000841093,-2.26635,-0.0897614,-0.657298,-138.488,0.155309,
2,1,0,1,0,24809.2,0.157107,0.156772,5.20655,13,0.0110089,10,0.000816241,-2.28345,-0.0861385,-0.684943,-138.847,0.156772,
2,1,0,1,0,24809.2,0.158608,0.158253,4.98721,13,0.0111368,10,0.000789239,-2.30214,-0.0815511,-0.723473,-140.863,0.1582526,
2,1,0,1,0,24809.3,0.160109,0.159788,4.77529,13,0.0112592,10,0.000763034,-2.321,-0.0788402,-0.74835,-139.664,0.159788,
2,1,0,1,0,24809.3,0.161603,0.161317,4.57744,13,0.011376,10,0.000738418,-2.33938,-0.0803231,-0.734533,-131.188,0.161317,
2,1,0,1,0,24809.3,0.163102,0.162813,4.3933,13,0.0114884,10,0.000715285,-2.35721,-0.083085,-0.710116,-121.644,0.162813,
2,1,0,1,0,24809.3,0.164602,0.164329,4.20566,13,0.0115962,10,0.000691114,-2.37617,-0.0858303,-0.687403,-113.153,0.164329,
2,1,0,1,0,24809.4,0.166096,0.165744,4.03399,13,0.0116992,10,0.000668609,-2.39426,-0.0883242,-0.667993,-105.831,0.165744,
2,1,0,1,0,24809.4,0.167597,0.167302,3.90191,13,0.0117987,10,0.0006528,-2.40872,-0.0969018,-0.608864,-92.8129,0.167302,
2,1,0,1,0,24809.4,0.169098,0.168819,3.77187,13,0.0118949,10,0.000636764,-2.42344,-0.105686,-0.55826,-82.1283,0.1688192,
2,1,0,1,0,24809.4,0.170592,0.170302,3.64305,13,0.0119876,10,0.00062042,-2.43853,-0.110395,-0.534444,-76.158,0.170302,
2,1,0,1,0,24809.5,0.17209,0.171806,3.52548,13,0.0120777,10,0.000605698,-2.45278,-0.120666,-0.488953,-67.6908,0.171806,
2,1,0,1,0,24809.5,0.17359,0.17329,3.44018,13,0.0121652,10,0.000596149,-2.46342,-0.128535,-0.459018,-61.7476,0.17329,
2,1,0,1,0,24809.5,0.175089,0.174756,3.35829,13,0.0122505,10,0.000586882,-2.47388,-0.145326,-0.405984,-53.2099,0.174756,
2,1,0,1,0,24809.5,0.176583,0.17628,3.26924,13,0.0123334,10,0.000576301,-2.48555,-0.149823,-0.393798,-50.3871,0.17628,
2,1,0,1,0,24809.6,0.178084,0.177779,3.2015,13,0.0124149,10,0.000569159,-2.49465,-0.159149,-0.370722,-46.4756,0.177779,
2,1,0,1,0,24809.6,0.179585,0.179246,3.14529,13,0.0124945,10,0.000563781,-2.50234,-0.172426,-0.342175,-42.0445,0.179246,
2,1,0,1,0,24809.6,0.181079,0.180785,3.08526,13,0.0125725,10,0.000557769,-2.51071,-0.205617,-0.286941,-34.5965,0.180785,
2,1,0,1,0,24809.6,0.182579,0.182272,3.03606,13,0.0126494,10,0.000553388,-2.51769,-0.221647,-0.266189,-31.5823,0.182272,
2,1,0,1,0,24809.7,0.184078,0.183801,2.98629,13,0.0127251,10,0.000548884,-2.52487,-0.235755,-0.25026,-29.2235,0.183801,
2,1,0,1,0,24809.7,0.185578,0.185272,2.94917,13,0.0127997,10,0.000546398,-2.5303,-0.236882,-0.249069,-28.6816,0.185272,
2,1,0,1,0,24809.7,0.187072,0.186805,2.90951,13,0.012873,10,0.000543511,-2.53618,-0.29099,-0.202756,-23.0245,0.186805,
2,1,0,1,0,24809.7,0.188573,0.188258,2.8739,13,0.0129457,10,0.000541034,-2.54153,-0.300026,-0.19665,-22.0832,0.188258,
2,1,0,1,0,24809.8,0.190072,0.189733,2.84168,13,0.0130176,10,0.000539161,-2.54642,-0.298481,-0.197668,-21.9319,0.189733,
2,1,0,1,0,24809.8,0.191567,0.191221,2.81689,13,0.0130884,10,0.000538649,-2.55023,-0.3369,-0.175126,-19.2518,0.191221,
2,1,0,1,0,24809.8,0.193066,0.192756,2.78912,13,0.0131588,10,0.00053762,-2.55453,-0.456654,-0.129201,-14.0569,0.192756,
2,1,0,1,0,24809.8,0.194566,0.194284,2.76399,13,0.0132286,10,0.000536999,-2.55846,-0.512194,-0.115191,-12.4477,0.1942843,
2,1,0,1,0,24809.9,0.19606,0.195717,2.73865,13,0.0132976,10,0.000536001,-2.56246,-0.374524,-0.157533,-16.8751,0.195717,
2,1,0,1,0,24809.9,0.197561,0.197262,2.72271,13,0.0133663,10,0.000537087,-2.565,-0.370635,-0.159186,-16.9151,0.197262,
2,1,0,1,0,24809.9,0.199062,0.198774,2.7074,13,0.0134345,10,0.00053816,-2.56745,-0.515686,-0.114411,-12.049,0.198774,
2,1,0,1,0,24809.9,0.200556,0.200251,2.6818,13,0.0135019,10,0.000537032,-2.57157,-0.627767,-0.093984,-9.84786,0.200251,
2,1,0,1,0,24809.9,0.202055,0.201747,2.66736,13,0.0135693,10,0.000538131,-2.57392,-0.500195,-0.117954,-12.2865,0.201747,
2,1,0,1,0,24810,0.203553,0.203219,2.65784,13,0.0136362,10,0.000540125,-2.57547,-0.526097,-0.112147,-11.618,0.2032195,
2,1,0,1,0,24810,0.205053,0.204754,2.63873,13,0.0137027,10,0.000540291,-2.5786,-1.05588,-0.0558777,-5.76966,0.204754,
2,1,0,1,0,24810,0.206547,0.20623,2.62635,13,0.0137687,10,0.000541632,-2.58065,-1.22043,-0.0483438,-4.95971,0.20623,
2,1,0,1,0,24810,0.208048,0.207744,2.61678,13,0.0138347,10,0.000543621,-2.58223,-0.673461,-0.0876072,-8.93638,0.207744,
2,1,0,1,0,24810.1,0.209549,0.209238,2.60434,13,0.0139004,10,0.000544925,-2.5843,-0.553511,-0.106592,-10.8386,0.209238,
2,1,0,1,0,24810.1,0.211043,0.210756,2.59523,13,0.0139655,10,0.000546961,-2.58582,-0.855644,-0.0689539,-6.96575,0.210756,
2,1,0,1,0,24810.1,0.212543,0.212253,2.57902,13,0.0140306,10,0.000547404,-2.58855,-1.4496,-0.0407008,-4.10238,0.212253,
2,1,0,1,0,24810.1,0.214042,0.213721,2.56937,13,0.0140954,10,0.000549128,-2.59017,-0.754097,-0.0782393,-7.86802,0.213721,
2,1,0,1,0,24810.2,0.215536,0.215244,2.56847,13,0.0141597,10,0.000552848,-2.59033,-0.829147,-0.0711575,-7.11294,0.215244,
2,1,0,1,0,24810.2,0.217036,0.216722,2.55073,13,0.0142241,10,0.000552799,-2.59334,-1.34996,-0.0437049,-4.35429,0.216722,
2,1,0,1,0,24810.2,0.218537,0.218255,2.54584,13,0.0142882,10,0.000555642,-2.59417,-3.03734,-0.0194249,-1.93131,0.218255,
2,1,0,1,0,24810.2,0.220031,0.219759,2.54003,13,0.0143519,10,0.000558193,-2.59516,-1.30247,-0.0452987,-4.49511,0.219759,
2,1,0,1,0,24810.3,0.22153,0.221216,2.53477,13,0.0144158,10,0.00056073,-2.59606,-0.739199,-0.0798161,-7.87498,0.221216,
2,1,0,1,0,24810.3,0.22303,0.222693,2.52292,13,0.0144794,10,0.000561837,-2.5981,-1.27493,-0.0462769,-4.56011,0.222693,
2,1,0,1,0,24810.3,0.224529,0.224244,2.51317,13,0.0145428,10,0.000563564,-2.59978,-1.51809,-0.0388646,-3.82335,0.224244,
2,1,0,1,0,24810.3,0.226024,0.225719,2.51205,13,0.0146058,10,0.000567017,-2.59997,-1.29424,-0.0455864,-4.47089,0.225719,
2,1,0,1,0,24810.4,0.227525,0.227226,2.5057,13,0.0146689,10,0.000569359,-2.60107,-1.00502,-0.0587056,-5.7345,0.227226,
2,1,0,1,0,24810.4,0.229025,0.228714,2.50456,13,0.0147319,10,0.000572828,-2.60127,-1.45689,-0.0404971,-3.94958,0.228714,
2,1,0,1,0,24810.4,0.23052,0.23023,2.49093,13,0.0147945,10,0.000573486,-2.60364,-2.07383,-0.0284498,-2.7727,0.2302296,
2,1,0,1,0,24810.4,0.232019,0.231731,2.48308,13,0.0148571,10,0.000575407,-2.60501,-1.59421,-0.037009,-3.6,0.231731,
2,1,0,1,0,24810.5,0.233519,0.233209,2.48103,13,0.0149197,10,0.0005786,-2.60537,-1.34332,-0.0439212,-4.25467,0.233209,
2,1,0,1,0,24810.5,0.235018,0.234699,2.48198,13,0.0149821,10,0.000582517,-2.6052,-1.74872,-0.0337391,-3.25888,0.234699,
2,1,0,1,0,24810.5,0.236511,0.236163,2.47085,13,0.0150441,10,0.000583524,-2.60715,-3.14218,-0.0187768,-1.81551,0.236163,
2,1,0,1,0,24810.5,0.238012,0.23772,2.46491,13,0.0151063,10,0.000585959,-2.6082,-1.78116,-0.0331244,-3.19263,0.23772,
2,1,0,1,0,24810.6,0.239513,0.239212,2.46567,13,0.0151683,10,0.000589818,-2.60807,-1.21057,-0.0487373,-4.68064,0.2392122,
2,1,0,1,0,24810.6,0.241007,0.240725,2.46194,13,0.01523,10,0.000592652,-2.60872,-1.73929,-0.0339218,-3.24997,0.240725,
2,1,0,1,0,24810.6,0.242506,0.242195,2.44496,13,0.0152918,10,0.000592156,-2.61173,-3.14326,-0.0187703,-1.79958,0.242195,
2,1,0,1,0,24810.6,0.244006,0.243729,2.44435,13,0.0153534,10,0.00059576,-2.61184,-1.77383,-0.0332613,-3.17938,0.243729,
2,1,0,1,0,24810.7,0.2455,0.245199,2.45113,13,0.0154148,10,0.000601014,-2.61063,-1.40296,-0.042054,-4.01364,0.245199,
2,1,0,1,0,24810.7,0.247001,0.24673,2.44649,13,0.0154763,10,0.000603624,-2.61146,-2.18188,-0.0270409,-2.57142,0.24673,
2,1,0,1,0,24810.7,0.248502,0.248193,2.4314,13,0.0155377,10,0.000603455,-2.61414,-5.56522,-0.0106016,-1.0083,0.248193,
2,1,0,1,0,24810.7,0.249995,0.249682,2.42674,13,0.0155987,10,0.000605911,-2.61498,-1.23623,-0.0477259,-4.53399,0.249682,
2,1,0,1,0,24810.8,0.251494,0.251183,2.43017,13,0.0156598,10,0.000610417,-2.61436,-1.63583,-0.0360674,-3.41797,0.251183,
2,1,0,1,0,24810.8,0.252994,0.252703,2.42356,13,0.0157209,10,0.00061244,-2.61555,-1.57994,-0.0373433,-3.52728,0.252703,
2,1,0,1,0,24810.8,0.254493,0.254168,2.41497,13,0.0157819,10,0.000613809,-2.61709,-2.68691,-0.0219583,-2.07833,0.254168,
2,1,0,1,0,24810.8,0.255988,0.255669,2.41537,13,0.0158425,10,0.000617535,-2.61702,-1.99814,-0.0295275,-2.787,0.255669,
2,1,0,1,0,24810.9,0.257488,0.257202,2.41468,13,0.0159032,10,0.00062106,-2.61714,-2.86061,-0.020625,-1.94155,0.257202,
2,1,0,1,0,24810.9,0.258989,0.258724,2.41658,13,0.015964,10,0.000625228,-2.6168,-3.6674,-0.0160877,-1.51003,0.258724,
2,1,0,1,0,24810.9,0.260483,0.260193,2.40744,13,0.0160244,10,0.0006264,-2.61844,-2.44898,-0.0240916,-2.26252,0.260193,
2,1,0,1,0,24810.9,0.261983,0.261699,2.39714,13,0.0160848,10,0.000627328,-2.62031,-1.77842,-0.0331754,-3.11193,0.261699,
2,1,0,1,0,24811,0.263482,0.26318,2.39558,13,0.0161452,10,0.000630468,-2.62059,-1.61375,-0.0365608,-3.42394,0.26318,
2,1,0,1,0,24811,0.264982,0.264684,2.39676,13,0.0162055,10,0.000634382,-2.62038,-2.32554,-0.0253704,-2.36828,0.264684,
2,1,0,1,0,24811,0.266476,0.266171,2.38829,13,0.0162655,10,0.000635691,-2.62191,-2.33845,-0.0252304,-2.35318,0.266171,
2,1,0,1,0,24811,0.267976,0.267699,2.37905,13,0.0163256,10,0.000636871,-2.6236,-1.59197,-0.037061,-3.45561,0.267699,
2,1,0,1,0,24811.1,0.269477,0.269191,2.38269,13,0.0163856,10,0.0006414,-2.62293,-1.88801,-0.0312499,-2.90521,0.269191,
2,1,0,1,0,24811.1,0.270971,0.270696,2.3871,13,0.0164453,10,0.000646178,-2.62213,-3.11963,-0.0189125,-1.75602,0.270696,
2,1,0,1,0,24811.1,0.27247,0.272173,2.3748,13,0.0165052,10,0.000646356,-2.62437,-2.43661,-0.0242139,-2.24382,0.272173,
2,1,0,1,0,24811.1,0.27397,0.27368,2.36529,13,0.016565,10,0.000647331,-2.62612,-1.14041,-0.0517359,-4.79737,0.27368,
2,1,0,1,0,24811.2,0.275464,0.275161,2.36825,13,0.0166243,10,0.000651648,-2.62557,-1.40434,-0.0420125,-3.88546,0.275161,
2,1,0,1,0,24811.2,0.276965,0.276684,2.36644,13,0.0166839,10,0.000654758,-2.6259,-1.59072,-0.0370902,-3.41524,0.276684,
2,1,0,1,0,24811.2,0.278466,0.278207,2.36051,13,0.0167433,10,0.000656709,-2.627,-2.7631,-0.0213528,-1.96351,0.278207,
2,1,0,1,0,24811.2,0.27996,0.279688,2.35213,13,0.0168024,10,0.000657864,-2.62854,-2.22615,-0.0265032,-2.43674,0.279688,
2,1,0,1,0,24811.3,0.281458,0.281131,2.34858,13,0.0168615,10,0.000660257,-2.6292,-1.3408,-0.0440037,-4.03509,0.281131,
2,1,0,1,0,24811.3,0.282958,0.282638,2.35076,13,0.0169206,10,0.000664416,-2.62879,-55.9152,-0.00105517,-0.0964984,0.282638,
2,1,0,1,0,24811.3,0.284457,0.28418,2.34101,13,0.0169797,10,0.00066527,-2.6306,-2.7969,-0.0210948,-1.92875,0.2841804,
2,1,0,1,0,24811.3,0.285951,0.285661,2.33555,13,0.0170384,10,0.000667176,-2.63161,-1.33489,-0.0441982,-4.03339,0.285661,
2,1,0,1,0,24811.4,0.287452,0.287135,2.32994,13,0.0170971,10,0.000669006,-2.63266,-0.973591,-0.0606004,-5.51694,0.287135,
2,1,0,1,0,24811.4,0.288953,0.288612,2.33121,13,0.0171558,10,0.000672816,-2.63242,-3.54448,-0.0166456,-1.51155,0.288612,
2,1,0,1,0,24811.4,0.290447,0.290123,2.3287,13,0.0172142,10,0.00067561,-2.63289,-6.95241,-0.00848627,-0.769818,0.290123,
2,1,0,1,0,24811.4,0.291947,0.291638,2.31953,13,0.0172726,10,0.000676463,-2.6346,-1.2209,-0.0483249,-4.38027,0.2916376,
2,1,0,1,0,24811.5,0.293446,0.293155,2.31039,13,0.017331,10,0.000677302,-2.63631,-1.26431,-0.0466657,-4.22209,0.293155,
2,1,0,1,0,24811.5,0.29494,0.294647,2.31548,13,0.017389,10,0.000682249,-2.63536,-1.99771,-0.0295338,-2.66683,0.294647,
2,1,0,1,0,24811.5,0.29644,0.296152,2.3107,13,0.0174471,10,0.000684318,-2.63626,-9.44536,-0.00624645,-0.562413,0.296152,
2,1,0,1,0,24811.5,0.297941,0.29767,2.30158,13,0.0175052,10,0.000685111,-2.63797,-1.68019,-0.035115,-3.1561,0.29767,
2,1,0,1,0,24811.6,0.29944,0.299133,2.29837,13,0.0175632,10,0.000687519,-2.63858,-0.00631068,-9.34923,-620.018,0.299133,
2,1,0,1,0,24811.6,0.299736,0.299431,1.80032,13,0.0175928,10,0.000539071,-2.74465,0.00128649,45.8612,1690.3,0.299431,
2,1,0,1,0,24811.6,0.298238,0.297923,0.49282,13,0.0176184,10,0.000146823,-3.30731,0.00348414,16.9339,646.216,0.297923,
2,1,0,1,0,24811.6,0.296744,0.296427,-0.0498505,13,0.0176226,10,-1.4777e-05,-4.30233,0.0145588,4.05252,297.096,0.296427,
2,0,0,1,0,24811.7,0.295243,0.294931,-0.346003,13,0.0176168,10,-0.000102047,-3.46092,-0.00483331,-12.207,158.554,0.294931,
2,0,0,1,0,24811.7,0.293742,0.293454,-0.5289,13,0.0176053,10,-0.000155208,-3.27663,-0.00988544,-5.96837,100.861,0.293454,
2,0,0,1,0,24811.7,0.292248,0.2919,-0.640275,13,0.0175904,10,-0.000186896,-3.19363,-0.0196551,-3.00176,70.3356,0.2919,
2,0,0,1,0,24811.7,0.290748,0.290419,-0.723655,13,0.0175728,10,-0.000210163,-3.14047,-0.0296203,-1.99187,54.9029,0.2904194,
2,0,0,1,0,24811.8,0.289249,0.288945,-0.796335,13,0.0175533,10,-0.000230097,-3.0989,-0.0426258,-1.38414,42.5084,0.288945,
2,0,0,1,0,24811.8,0.287754,0.287425,-0.863637,13,0.0175321,10,-0.000248231,-3.06367,-0.0547125,-1.07836,35.5324,0.287425,
2,0,0,1,0,24811.8,0.286254,0.285932,-0.905753,13,0.0175096,10,-0.000258984,-3.04299,-0.0636028,-0.927631,32.5498,0.285932,
2,0,0,1,0,24811.8,0.284754,0.284433,-0.945229,13,0.017486,10,-0.000268854,-3.02446,-0.0756264,-0.780151,28.9003,0.284433,
2,0,0,1,0,24811.9,0.28326,0.282946,-0.992091,13,0.0174614,10,-0.000280708,-3.00345,-0.0921418,-0.640318,24.5789,0.2829462,
2,0,0,1,0,24811.9,0.28176,0.281437,-1.02996,13,0.0174357,10,-0.000289867,-2.98718,-0.101336,-0.582221,23.2057,0.281437,
2,0,0,1,0,24811.9,0.280261,0.279971,-1.05389,13,0.0174092,10,-0.00029506,-2.9772,-0.111332,-0.529945,21.8884,0.279971,
2,0,0,1,0,24811.9,0.278761,0.278435,-1.08762,13,0.0173818,10,-0.00030283,-2.96352,-0.11986,-0.492239,21.0157,0.278435,
2,0,0,1,0,24812,0.277267,0.276931,-1.11922,13,0.0173539,10,-0.000309946,-2.95109,-0.143431,-0.411346,17.9852,0.276931,
2,0,0,1,0,24812,0.275766,0.27545,-1.14971,13,0.017325,10,-0.000316688,-2.93941,-0.159621,-0.369625,16.4832,0.27545,
2,0,0,1,0,24812,0.274265,0.273923,-1.17346,13,0.0172955,10,-0.000321438,-2.93053,-0.153562,-0.38421,17.6345,0.2739225,
2,0,0,1,0,24812,0.272771,0.272448,-1.19514,13,0.0172655,10,-0.000325615,-2.92258,-0.158192,-0.372964,17.4719,0.272448,
2,0,0,1,0,24812.1,0.271272,0.270948,-1.2209,13,0.0172348,10,-0.000330801,-2.91332,-0.18278,-0.322793,15.4298,0.2709485,
2,0,0,1,0,24812.1,0.269772,0.269449,-1.2556,13,0.0172035,10,-0.000338319,-2.90115,-0.173766,-0.339538,16.4614,0.269449,
2,0,0,1,0,24812.1,0.268273,0.26797,-1.26742,13,0.0171715,10,-0.000339631,-2.89708,-0.198782,-0.296807,14.6847,0.26797,
2,0,0,1,0,24812.1,0.26678,0.266489,-1.28209,13,0.0171393,10,-0.000341662,-2.89208,-0.21936,-0.268964,13.5592,0.266489,
2,0,0,1,0,24812.2,0.265279,0.26494,-1.30767,13,0.0171064,10,-0.000346454,-2.8835,-0.229863,-0.256675,13.0778,0.26494,
2,0,0,1,0,24812.2,0.263778,0.263427,-1.33241,13,0.017073,10,-0.000350994,-2.87536,-0.248105,-0.237803,12.2977,0.263427,
2,0,0,1,0,24812.2,0.262284,0.261965,-1.34632,13,0.0170392,10,-0.000352688,-2.87085,-0.24942,-0.236549,12.4181,0.261965,
2,0,0,1,0,24812.2,0.260784,0.260482,-1.35901,13,0.0170049,10,-0.000353999,-2.86678,-0.262621,-0.224658,11.9829,0.260482,
2,0,0,1,0,24812.3,0.259285,0.258959,-1.37853,13,0.0169701,10,-0.000356982,-2.86058,-0.285395,-0.206731,11.1759,0.258959,
2,0,0,1,0,24812.3,0.257791,0.257514,-1.40548,13,0.016935,10,-0.000361931,-2.85217,-0.282464,-0.208876,11.4207,0.257514,
2,0,0,1,0,24812.3,0.25629,0.25594,-1.42006,13,0.0168992,10,-0.00036345,-2.84769,-0.301909,-0.195423,10.8076,0.25594,
2,0,0,1,0,24812.3,0.254789,0.254437,-1.43053,13,0.0168631,10,-0.000363979,-2.8445,-0.30647,-0.192515,10.781,0.254437,
2,0,0,1,0,24812.4,0.253296,0.253001,-1.44748,13,0.0168268,10,-0.000366212,-2.83939,-0.366624,-0.160928,9.10793,0.2530005,
2,0,0,1,0,24812.4,0.251797,0.251488,-1.47096,13,0.0167899,10,-0.00036993,-2.8324,-0.293674,-0.200903,11.4732,0.251488,
2,0,0,1,0,24812.4,0.250297,0.250005,-1.48147,13,0.0167526,10,-0.000370375,-2.82931,-0.298518,-0.197643,11.4081,0.250005,
2,0,0,1,0,24812.4,0.248797,0.24847,-1.49387,13,0.0167149,10,-0.000371183,-2.82569,-0.401543,-0.146933,8.60832,0.24847,
2,0,0,1,0,24812.5,0.247303,0.246976,-1.51016,13,0.0166771,10,-0.000372974,-2.82098,-0.442014,-0.13348,7.88523,0.246976,
2,0,0,1,0,24812.5,0.245802,0.245489,-1.5326,13,0.0166387,10,-0.000376235,-2.81457,-0.335248,-0.175989,10.453,0.245489,
2,0,0,1,0,24812.5,0.244302,0.244015,-1.54727,13,0.0165998,10,-0.000377558,-2.81043,-0.29616,-0.199217,11.9718,0.244015,
2,0,0,1,0,24812.5,0.242807,0.242545,-1.55216,13,0.0165608,10,-0.000376469,-2.80906,-0.487256,-0.121086,7.36491,0.242545,
2,0,0,1,0,24812.6,0.241308,0.241023,-1.56491,13,0.0165213,10,-0.000377179,-2.80551,-0.475802,-0.124001,7.5883,0.241023,
2,0,0,1,0,24812.6,0.239808,0.239472,-1.58703,13,0.0164815,10,-0.00038005,-2.79941,-0.302473,-0.195059,12.0422,0.239472,
2,0,0,1,0,24812.6,0.238309,0.237947,-1.59536,13,0.0164413,10,-0.000379611,-2.79714,-0.324828,-0.181635,11.3303,0.237947,
2,0,0,1,0,24812.6,0.236815,0.236464,-1.60602,13,0.0164009,10,-0.000379767,-2.79425,-0.41197,-0.143214,8.97927,0.2364644,
2,0,0,1,0,24812.7,0.235315,0.235026,-1.62041,13,0.0163601,10,-0.000380838,-2.79038,-0.575499,-0.10252,6.50138,0.235026,
2,0,0,1,0,24812.7,0.233814,0.233455,-1.63852,13,0.016319,10,-0.000382521,-2.78555,-0.454884,-0.129703,8.27781,0.233455,
2,0,0,1,0,24812.7,0.23232,0.232007,-1.65276,13,0.0162776,10,-0.000383452,-2.78179,-0.308953,-0.190968,12.2593,0.232007,
2,0,0,1,0,24812.7,0.230821,0.230513,-1.65893,13,0.0162357,10,-0.000382405,-2.78017,-0.473762,-0.124535,8.08162,0.2305128,
2,0,0,1,0,24812.8,0.229321,0.229032,-1.67161,13,0.0161935,10,-0.000382853,-2.77686,-0.672258,-0.087764,5.74371,0.229032,
2,0,0,1,0,24812.8,0.227827,0.227529,-1.69187,13,0.0161512,10,-0.00038495,-2.77163,-0.490748,-0.120225,7.93635,0.227529,
2,0,0,1,0,24812.8,0.226326,0.226022,-1.70354,13,0.0161084,10,-0.000385037,-2.76865,-0.353298,-0.166998,11.0796,0.226022,
2,0,0,1,0,24812.8,0.224825,0.224509,-1.71274,13,0.0160652,10,-0.000384525,-2.76631,-0.501288,-0.117697,7.88091,0.224509,
2,0,0,1,0,24812.9,0.223331,0.222993,-1.73053,13,0.0160219,10,-0.000385897,-2.76182,-0.797505,-0.0739807,4.98121,0.222993,
2,0,0,1,0,24812.9,0.221831,0.22153,-1.73901,13,0.0159782,10,-0.000385243,-2.7597,-0.492307,-0.119844,8.13141,0.2215299,
2,0,0,1,0,24812.9,0.220333,0.220059,-1.75097,13,0.0159341,10,-0.000385317,-2.75672,-0.352752,-0.167256,11.4423,0.220059,
2,0,0,1,0,24812.9,0.218834,0.218488,-1.76493,13,0.0158897,10,-0.000385616,-2.75327,-0.41505,-0.142152,9.81566,0.218488,
2,0,0,1,0,24813,0.217339,0.217035,-1.77684,13,0.0158451,10,-0.000385636,-2.75035,-0.65058,-0.0906884,6.29636,0.217035,
2,0,0,1,0,24813,0.215839,0.21549,-1.79102,13,0.0158001,10,-0.000385947,-2.7469,-0.614546,-0.0960059,6.70694,0.21549,
2,0,0,1,0,24813,0.214338,0.214031,-1.80533,13,0.0157548,10,-0.000386396,-2.74344,-0.330384,-0.17858,12.542,0.214031,
2,0,0,1,0,24813,0.212844,0.212508,-1.81387,13,0.0157093,10,-0.000385461,-2.74139,-0.440647,-0.133894,9.4964,0.212508,
2,0,0,1,0,24813.1,0.211344,0.211007,-1.82475,13,0.0156633,10,-0.000385034,-2.7388,-0.762693,-0.0773575,5.52669,0.211007,
2,0,0,1,0,24813.1,0.209845,0.209551,-1.84029,13,0.015617,10,-0.000385636,-2.73511,-0.559061,-0.105534,7.58097,0.209551,
2,0,0,1,0,24813.1,0.20835,0.207985,-1.8558,13,0.0155706,10,-0.00038598,-2.73147,-0.341142,-0.172948,12.5431,0.207985,
2,0,0,1,0,24813.1,0.206851,0.206527,-1.86706,13,0.0155236,10,-0.000385597,-2.72884,-0.444052,-0.132867,9.69809,0.206527,
2,0,0,1,0,24813.2,0.20535,0.20501,-1.88363,13,0.0154762,10,-0.000386164,-2.725,-0.825986,-0.0714298,5.23757,0.20501,
2,0,0,1,0,24813.2,0.203856,0.203505,-1.89892,13,0.0154287,10,-0.000386438,-2.72149,-0.692835,-0.0851573,6.29777,0.203505,
2,0,0,1,0,24813.2,0.202356,0.202046,-1.90741,13,0.0153809,10,-0.000385385,-2.71956,-0.450381,-0.131,9.76175,0.202046,
2,0,0,1,0,24813.2,0.200857,0.200511,-1.91482,13,0.0153326,10,-0.000383944,-2.71787,-0.423192,-0.139417,10.4513,0.200511,
2,0,0,1,0,24813.3,0.199357,0.199021,-1.92957,13,0.015284,10,-0.000384024,-2.71454,-0.585219,-0.100817,7.60134,0.199021,
2,0,0,1,0,24813.3,0.197863,0.197531,-1.94986,13,0.0152353,10,-0.000385157,-2.71,-0.537454,-0.109777,8.33331,0.197531,
2,0,0,1,0,24813.3,0.196362,0.196048,-1.95652,13,0.0151861,10,-0.000383573,-2.70851,-0.396449,-0.148821,11.3639,0.196048,
2,0,0,1,0,24813.3,0.194861,0.194531,-1.97203,13,0.0151365,10,-0.000383621,-2.70509,-0.387905,-0.152099,11.7256,0.194531,
2,0,0,1,0,24813.4,0.193367,0.193023,-1.99466,13,0.0150867,10,-0.000385016,-2.70013,-0.470956,-0.125277,9.72757,0.193023,
2,0,0,1,0,24813.4,0.191868,0.191532,-2.00768,13,0.0150363,10,-0.000384536,-2.6973,-0.536372,-0.109998,8.60279,0.191532,
2,0,0,1,0,24813.4,0.190368,0.190088,-2.01581,13,0.0149855,10,-0.000383181,-2.69555,-0.413357,-0.142734,11.2638,0.1900882,
2,0,0,1,0,24813.4,0.18887,0.188565,-2.02557,13,0.0149345,10,-0.000381951,-2.69345,-0.363188,-0.16245,12.9059,0.188565,
2,0,0,1,0,24813.5,0.187376,0.187086,-2.05137,13,0.0148832,10,-0.000383782,-2.68796,-0.469918,-0.125554,10.0536,0.187086,
2,0,0,1,0,24813.5,0.185875,0.185569,-2.07206,13,0.0148312,10,-0.00038451,-2.6836,-0.486007,-0.121397,9.7672,0.185569,
2,0,0,1,0,24813.5,0.184374,0.184068,-2.08081,13,0.0147788,10,-0.000383012,-2.68177,-0.357894,-0.164853,13.4021,0.184068,
2,0,0,1,0,24813.5,0.18288,0.182574,-2.09614,13,0.0147263,10,-0.000382702,-2.67858,-0.410474,-0.143736,11.8086,0.182574,
2,0,0,1,0,24813.6,0.18138,0.181036,-2.11977,13,0.0146731,10,-0.000383756,-2.67371,-0.430276,-0.137121,11.3482,0.181036,
2,0,0,1,0,24813.6,0.179881,0.179554,-2.14298,13,0.0146194,10,-0.000384781,-2.66898,-0.477679,-0.123514,10.2992,0.179554,
2,0,0,1,0,24813.6,0.178387,0.178051,-2.1616,13,0.0145654,10,-0.000384875,-2.66522,-0.356561,-0.16547,13.9599,0.178051,
2,0,0,1,0,24813.6,0.176886,0.176541,-2.17718,13,0.0145108,10,-0.00038436,-2.66211,-0.343424,-0.171799,14.6549,0.176541,
2,0,0,1,0,24813.7,0.175385,0.175048,-2.20312,13,0.0144556,10,-0.000385652,-2.65696,-0.356745,-0.165384,14.1989,0.175048,
2,0,0,1,0,24813.7,0.173892,0.173542,-2.23233,13,0.0144,10,-0.000387403,-2.65124,-0.345886,-0.170576,14.8039,0.173542,
2,0,0,1,0,24813.7,0.172392,0.172036,-2.25094,13,0.0143436,10,-0.000387243,-2.64764,-0.314707,-0.187476,16.4529,0.172036,
2,0,0,1,0,24813.7,0.170893,0.170538,-2.26769,13,0.0142867,10,-0.000386728,-2.64442,-0.284,-0.207746,18.4559,0.1705384,
2,0,0,1,0,24813.8,0.169393,0.169044,-2.29908,13,0.0142291,10,-0.000388645,-2.63845,-0.26711,-0.220883,19.8336,0.169044,
2,0,0,1,0,24813.8,0.167899,0.167573,-2.33305,13,0.014171,10,-0.000390956,-2.63208,-0.272658,-0.216388,19.6701,0.167573,
2,0,0,1,0,24813.8,0.166398,0.166064,-2.36401,13,0.0141119,10,-0.000392577,-2.62635,-0.243973,-0.24183,22.2804,0.166064,
2,0,0,1,0,24813.8,0.164898,0.164583,-2.38697,13,0.0140521,10,-0.000392854,-2.62215,-0.240107,-0.245723,22.977,0.164583,
2,0,0,1,0,24813.9,0.163403,0.163104,-2.42123,13,0.0139917,10,-0.000394912,-2.61596,-0.257826,-0.228837,21.6857,0.163104,
2,0,0,1,0,24813.9,0.161904,0.161585,-2.47266,13,0.0139301,10,-0.000399545,-2.60684,-0.2203,-0.267816,25.7699,0.1615849,
2,0,0,1,0,24813.9,0.160404,0.160031,-2.50675,13,0.0138675,10,-0.000401158,-2.60089,-0.199672,-0.295484,28.9004,0.160031,
2,0,0,1,0,24813.9,0.158905,0.158586,-2.54452,13,0.0138039,10,-0.000403525,-2.59439,-0.195329,-0.302054,30.1015,0.158586,
2,0,0,1,0,24814,0.157411,0.157088,-2.59731,13,0.0137394,10,-0.000408005,-2.58548,-0.177181,-0.332993,33.9015,0.157088,
2,0,0,1,0,24814,0.155911,0.155578,-2.6512,13,0.0136734,10,-0.00041247,-2.57656,-0.163989,-0.35978,37.2182,0.155578,
2,0,0,1,0,24814,0.15441,0.154055,-2.71229,13,0.0136058,10,-0.000417842,-2.56666,-0.148418,-0.397526,42.0312,0.154055,
2,0,0,1,0,24814,0.152916,0.15256,-2.77316,13,0.0135371,10,-0.000423075,-2.55703,-0.145421,-0.405718,44.0003,0.15256,
2,0,0,1,0,24814.1,0.151417,0.151095,-2.83593,13,0.0134664,10,-0.000428493,-2.54731,-0.137317,-0.429663,47.7861,0.1510946,
2,0,0,1,0,24814.1,0.149917,0.149558,-2.92788,13,0.013394,10,-0.000437886,-2.53345,-0.124019,-0.475734,54.2695,0.149558,
2,0,0,1,0,24814.1,0.148423,0.148079,-3.01208,13,0.0133198,10,-0.000446025,-2.52113,-0.111548,-0.528919,62.1421,0.148079,
2,0,0,1,0,24814.1,0.146922,0.146569,-3.10146,13,0.013243,10,-0.000454577,-2.50843,-0.106874,-0.552052,66.9587,0.146569,
2,0,0,1,0,24814.2,0.145421,0.145109,-3.19823,13,0.0131637,10,-0.000464092,-2.49509,-0.103608,-0.569455,71.418,0.145109,
2,0,0,1,0,24814.2,0.143927,0.143628,-3.32299,13,0.0130821,10,-0.000477275,-2.47847,-0.0947835,-0.622471,80.7239,0.143628,
2,0,0,1,0,24814.2,0.142429,0.142098,-3.45282,13,0.012997,10,-0.000490637,-2.46183,-0.0883128,-0.66808,89.9796,0.142098,
2,0,0,1,0,24814.2,0.140929,0.140603,-3.57677,13,0.0129087,10,-0.000502904,-2.44651,-0.088944,-0.663338,92.8609,0.140603,
2,0,0,1,0,24814.3,0.13943,0.139138,-3.71646,13,0.0128169,10,-0.0005171,-2.42987,-0.089137,-0.661903,96.3996,0.1391377,
2,0,0,1,0,24814.3,0.137935,0.137597,-3.87838,13,0.0127218,10,-0.000533653,-2.41135,-0.0862766,-0.683847,103.533,0.137597,
2,0,0,1,0,24814.3,0.136435,0.136091,-4.04375,13,0.0126224,10,-0.000550316,-2.39322,-0.0834835,-0.706726,111.335,0.136091,
2,0,0,1,0,24814.3,0.134934,0.134647,-4.20154,13,0.0125189,10,-0.000565723,-2.37659,-0.0882732,-0.66838,109.412,0.134647,
2,0,0,1,0,24814.4,0.13344,0.133101,-4.36724,13,0.0124117,10,-0.000581285,-2.35979,-0.0910159,-0.648238,110.545,0.1331012,
2,0,0,1,0,24814.4,0.13194,0.131621,-4.54085,13,0.0123,10,-0.000597672,-2.34286,-0.0935018,-0.631004,111.845,0.131621,
2,0,0,1,0,24814.4,0.13044,0.13012,-4.71511,13,0.0121839,10,-0.000613533,-2.32651,-0.0936552,-0.62997,115.598,0.13012,
2,0,0,1,0,24814.4,0.128941,0.128647,-4.87265,13,0.0120635,10,-0.000626854,-2.31223,-0.10002,-0.589881,112.147,0.128647,
2,0,0,1,0,24814.5,0.127447,0.127099,-5.03788,13,0.0119395,10,-0.000640308,-2.29775,-0.110455,-0.534153,104.911,0.127099,
2,0,0,1,0,24814.5,0.125946,0.125631,-5.20065,13,0.0118111,10,-0.000653363,-2.28394,-0.119763,-0.492638,99.7094,0.125631,
2,0,0,1,0,24814.5,0.124446,0.124118,-5.34735,13,0.0116789,10,-0.000663702,-2.27186,-0.122349,-0.482226,100.326,0.124118,
2,0,0,1,0,24814.5,0.122952,0.122593,-5.48756,13,0.0115435,10,-0.000672739,-2.26062,-0.13382,-0.44089,94.2288,0.122593,
2,0,0,1,0,24814.6,0.121453,0.121164,-5.61597,13,0.0114042,10,-0.000680452,-2.25058,-0.156797,-0.376284,82.416,0.1211639,
2,0,0,1,0,24814.6,0.119953,0.11965,-5.74159,13,0.0112616,10,-0.000686978,-2.24097,-0.17155,-0.343923,76.9981,0.11965,
2,0,0,1,0,24814.6,0.118459,0.118139,-5.8621,13,0.0111167,10,-0.000692543,-2.23195,-0.175011,-0.337122,76.9635,0.1181391,
2,0,0,1,0,24814.6,0.116958,0.116633,-5.96929,13,0.0109684,10,-0.000696218,-2.22408,-0.195925,-0.301136,70.0568,0.116633,
2,0,0,1,0,24814.7,0.115457,0.115115,-6.06864,13,0.0108175,10,-0.000698593,-2.21691,-0.233228,-0.252971,59.7479,0.115115,
2,0,0,1,0,24814.7,0.113963,0.11365,-6.15138,13,0.0106648,10,-0.000699103,-2.21103,-0.266424,-0.221452,53.0555,0.11365,
2,0,0,1,0,24814.7,0.112464,0.112139,-6.23524,13,0.0105096,10,-0.000699213,-2.20515,-0.293308,-0.201154,48.832,0.112139,
2,0,0,1,0,24814.7,0.110965,0.11063,-6.29042,13,0.0103526,10,-0.000695906,-2.20132,-0.332935,-0.177212,43.5023,0.11063,
2,0,0,1,0,24814.8,0.109466,0.109168,-6.35398,13,0.010194,10,-0.00069365,-2.19695,-0.454639,-0.129773,32.1406,0.109168,
2,0,0,1,0,24814.8,0.107972,0.10763,-6.40448,13,0.0100347,10,-0.000689316,-2.19352,-0.599306,-0.0984472,24.5409,0.10763,
2,0,0,1,0,24814.8,0.106471,0.106184,-6.43841,13,0.00987376,10,-0.000683659,-2.19122,-0.609692,-0.0967701,24.2759,0.1061844,
2,0,0,1,0,24814.8,0.10497,0.10465,-6.46245,13,0.00971204,10,-0.000676297,-2.1896,-0.866567,-0.0680847,17.1573,0.10465,
2,0,0,1,0,24814.9,0.103476,0.103126,-6.48234,13,0.00955033,10,-0.000668499,-2.18827,-3.12159,-0.0189006,4.7731,0.103126,
2,0,0,1,0,24814.9,0.101976,0.101648,-6.49565,13,0.00938769,10,-0.000660268,-2.18738,7.91138,0.00745761,-1.88535,0.101648,
2,0,0,1,0,24814.9,0.100477,0.10012,-6.47805,13,0.00922518,10,-0.000648585,-2.18856,2.04196,0.0288938,-7.29955,0.1001204,
2,0,0,1,0,24814.9,0.0989825,0.0986577,-6.46267,13,0.00906358,10,-0.000637593,-2.18959,1.67761,0.035169,-8.86365,0.0986577,
2,0,0,1,0,24815,0.0974817,0.0971521,-6.44107,13,0.0089018,10,-0.000625764,-2.19104,0.73894,0.0798441,-20.0493,0.0971521,
2,0,0,1,0,24815,0.0959822,0.0956706,-6.41287,13,0.00874068,10,-0.000613523,-2.19295,0.573957,0.102795,-25.6681,0.0956706,
2,0,0,1,0,24815,0.094488,0.0941878,-6.3646,13,0.0085812,10,-0.000599468,-2.19623,0.555426,0.106225,-26.3673,0.0941878,
2,0,0,1,0,24815,0.0929884,0.0926805,-6.31628,13,0.00842219,10,-0.000585396,-2.19954,0.490109,0.120381,-29.6905,0.0926805,
2,0,0,1,0,24815.1,0.0914889,0.0911313,-6.26797,13,0.00826433,10,-0.000571208,-2.20287,0.421346,0.140028,-34.2726,0.0911313,
2,0,0,1,0,24815.1,0.0899894,0.0896755,-6.22015,13,0.00810774,10,-0.000557795,-2.2062,0.349214,0.168951,-40.9277,0.0896755,
2,0,0,1,0,24815.1,0.0884951,0.0881811,-6.15358,13,0.00795317,10,-0.000542629,-2.21087,0.354868,0.166259,-39.9348,0.0881811,
2,0,0,1,0,24815.1,0.0869943,0.0866621,-6.09127,13,0.00779964,10,-0.000527883,-2.21529,0.353267,0.167013,-39.7677,0.0866621,
2,0,0,1,0,24815.2,0.0854935,0.085175,-6.03409,13,0.00764753,10,-0.000513954,-2.21939,0.350492,0.168335,-39.6764,0.085175,
2,0,0,1,0,24815.2,0.0839993,0.0836506,-5.98726,13,0.0074974,10,-0.000500838,-2.22277,0.349139,0.168987,-39.4481,0.0836506,
2,0,0,1,0,24815.2,0.0824998,0.0821757,-5.92896,13,0.00734807,10,-0.000487216,-2.22702,0.392177,0.150442,-34.8237,0.0821757,
2,0,0,1,0,24815.2,0.0810002,0.0806598,-5.86994,13,0.00720018,10,-0.000473468,-2.23137,0.451106,0.13079,-30.0377,0.0806598,
2,0,0,1,0,24815.3,0.0795007,0.0792089,-5.82555,13,0.00705347,10,-0.000461436,-2.23466,0.457329,0.12901,-29.3662,0.07920894,
2,0,0,1,0,24815.3,0.0780078,0.0776747,-5.78661,13,0.00690839,10,-0.000449473,-2.23758,0.486279,0.121329,-27.3906,0.0776747,
2,0,0,1,0,24815.3,0.076507,0.0761719,-5.7499,13,0.00676377,10,-0.000437981,-2.24034,0.49909,0.118215,-26.5012,0.0761719,
2,0,0,1,0,24815.3,0.0750062,0.0746421,-5.69963,13,0.00662026,10,-0.000425432,-2.24415,0.509077,0.115896,-25.8183,0.0746421,
2,0,0,1,0,24815.4,0.073512,0.0731784,-5.66851,13,0.00647822,10,-0.000414812,-2.24653,0.595835,0.0990208,-21.9195,0.0731784,
2,0,0,1,0,24815.4,0.0720124,0.0716581,-5.63761,13,0.00633644,10,-0.000403981,-2.2489,0.620317,0.0951126,-20.9368,0.0716581,
2,0,0,1,0,24815.4,0.0705129,0.0702072,-5.61025,13,0.00619537,10,-0.00039388,-2.25102,0.629378,0.0937434,-20.5141,0.0702072,
2,0,0,1,0,24815.4,0.0690187,0.0687055,-5.56697,13,0.00605568,10,-0.000382481,-2.25438,0.656464,0.0898754,-19.5835,0.0687055,
2,0,0,1,0,24815.5,0.0675179,0.0671835,-5.54436,13,0.00591627,10,-0.00037249,-2.25615,0.663555,0.088915,-19.2593,0.0671835,
2,0,0,1,0,24815.5,0.066017,0.0657032,-5.52609,13,0.00577749,10,-0.000363082,-2.25758,0.720826,0.0818505,-17.6231,0.0657032,
2,0,0,1,0,24815.5,0.0645242,0.0641439,-5.4981,13,0.00563987,10,-0.000352669,-2.25979,0.696717,0.0846829,-18.1418,0.0641439,
2,0,0,1,0,24815.5,0.0630246,0.0626979,-5.4569,13,0.00550242,10,-0.000342136,-2.26305,0.695541,0.084826,-18.0907,0.0626979,
2,0,0,1,0,24815.6,0.0615251,0.0612222,-5.42894,13,0.00536577,10,-0.000332372,-2.26528,0.597357,0.0987684,-20.9702,0.0612222,
2,0,0,1,0,24815.6,0.0600256,0.0596945,-5.40936,13,0.00522976,10,-0.000322909,-2.26685,0.617073,0.0956127,-20.1813,0.0596945,
2,0,0,1,0,24815.6,0.0585314,0.0581808,-5.38516,13,0.00509496,10,-0.000313313,-2.2688,0.651918,0.0905022,-18.9988,0.05818082,
2,0,0,1,0,24815.6,0.0570305,0.0567096,-5.35109,13,0.00496031,10,-0.000303458,-2.27156,0.698786,0.0844321,-17.6335,0.0567096,
2,0,0,1,0,24815.7,0.0555297,0.0551964,-5.32194,13,0.00482648,10,-0.000293752,-2.27393,0.598356,0.0986035,-20.4951,0.0551964,
2,0,0,1,0,24815.7,0.0540355,0.053741,-5.3022,13,0.00469385,10,-0.000284946,-2.27554,0.68878,0.0856588,-17.6941,0.053741,
2,0,0,1,0,24815.7,0.052536,0.0521648,-5.27218,13,0.00456129,10,-0.000275022,-2.27801,0.724907,0.0813898,-16.7215,0.0521648,
2,0,0,1,0,24815.7,0.0510364,0.0506995,-5.23862,13,0.00442945,10,-0.000265595,-2.28078,0.585763,0.100723,-20.6008,0.0506995,
2,0,0,1,0,24815.8,0.0495369,0.0492184,-5.20153,13,0.00429849,10,-0.000256011,-2.28387,0.53473,0.110336,-22.4342,0.0492184,
2,0,0,1,0,24815.8,0.0480427,0.0476956,-5.17643,13,0.00416882,10,-0.000246893,-2.28597,0.60485,0.0975448,-19.691,0.0476956,
2,0,0,1,0,24815.8,0.0465432,0.0462229,-5.14568,13,0.00403937,10,-0.000237848,-2.28856,0.651876,0.0905081,-18.1706,0.0462229,
2,0,0,1,0,24815.8,0.0450424,0.0447062,-5.11199,13,0.00391067,10,-0.000228537,-2.29141,0.576751,0.102297,-20.4057,0.0447062,
2,0,0,1,0,24815.9,0.0435482,0.0432453,-5.07508,13,0.0037833,10,-0.000219473,-2.29456,0.48048,0.122794,-24.3364,0.0432453,
2,0,0,1,0,24815.9,0.0420486,0.0417609,-5.05188,13,0.00365632,10,-0.000210971,-2.29655,0.503822,0.117105,-23.0679,0.0417609,
2,0,0,1,0,24815.9,0.0405491,0.0402239,-5.02187,13,0.0035301,10,-0.000201999,-2.29913,0.57397,0.102793,-20.1035,0.0402239,
2,0,0,1,0,24815.9,0.0390549,0.0387497,-4.97867,13,0.00340514,10,-0.000192922,-2.30289,0.492013,0.119916,-23.3035,0.0387497,
2,0,0,1,0,24816,0.0375541,0.0372551,-4.9434,13,0.00328062,10,-0.000184167,-2.30597,0.416008,0.141824,-27.3788,0.03725509,
2,0,0,1,0,24816,0.0360532,0.0357389,-4.90995,13,0.00315709,10,-0.000175476,-2.30892,0.448705,0.13149,-25.1747,0.0357389,
2,0,0,1,0,24816,0.034559,0.0342029,-4.87578,13,0.00303491,10,-0.000166766,-2.31196,0.507886,0.116168,-22.0729,0.0342029,
2,0,0,1,0,24816,0.0330595,0.0327306,-4.83225,13,0.00291315,10,-0.000158162,-2.31585,0.482409,0.122303,-23.0693,0.0327306,
2,0,0,1,0,24816.1,0.0315613,0.0311786,-4.7954,13,0.00279234,10,-0.000149514,-2.31917,0.382322,0.15432,-28.8812,0.0311786,
2,0,0,1,0,24816.1,0.0300618,0.0297287,-4.75082,13,0.00267263,10,-0.000141236,-2.32323,0.382767,0.154141,-28.5901,0.0297287,
2,0,0,1,0,24816.1,0.0285676,0.0282383,-4.7146,13,0.00255435,10,-0.000133132,-2.32656,0.446284,0.132203,-24.3055,0.0282383,
2,0,0,1,0,24816.1,0.0270667,0.0267942,-4.66874,13,0.0024366,10,-0.000125095,-2.3308,0.414492,0.142343,-25.9528,0.0267942,
2,0,0,1,0,24816.2,0.0255659,0.0252527,-4.62745,13,0.00231989,10,-0.000116855,-2.33466,0.354285,0.166533,-30.0894,0.0252527,
2,0,0,1,0,24816.2,0.0240717,0.0237544,-4.58758,13,0.00220468,10,-0.000108975,-2.33842,0.383264,0.153941,-27.573,0.0237544,
2,0,0,1,0,24816.2,0.0225722,0.0222529,-4.55056,13,0.00209004,10,-0.000101263,-2.34194,0.445211,0.132522,-23.5162,0.02225291,
2,0,0,1,0,24816.2,0.0210726,0.0207437,-4.50433,13,0.00197638,10,-9.34365e-05,-2.34637,0.415586,0.141968,-25.0147,0.02074372,
2,0,0,1,0,24816.3,0.0195784,0.0192547,-4.47033,13,0.00186412,10,-8.6075e-05,-2.34966,0.377139,0.156441,-27.3005,0.0192547,
2,0,0,1,0,24816.3,0.0180789,0.0177627,-4.42914,13,0.00175237,10,-7.86734e-05,-2.35368,0.388785,0.151755,-26.2356,0.01776267,
2,0,0,1,0,24816.3,0.0165781,0.016197,-4.4009,13,0.00164162,10,-7.12814e-05,-2.35646,0.461299,0.1279,-21.9461,0.016197,
2,0,0,1,0,24816.3,0.0150839,0.01478,-4.36062,13,0.00153216,10,-6.44498e-05,-2.36045,0.467026,0.126331,-21.5146,0.01478,
2,0,0,1,0,24816.4,0.0135844,0.0132543,-4.32392,13,0.00142306,10,-5.73104e-05,-2.36412,0.412045,0.143188,-24.1863,0.0132543,
2,0,0,1,0,24816.4,0.0120848,0.0117964,-4.29969,13,0.00131476,10,-5.07209e-05,-2.36656,0.468883,0.125831,-21.096,0.0117964,
2,0,0,1,0,24816.4,0.0105853,0.0102604,-4.26869,13,0.00120733,10,-4.37985e-05,-2.36971,0.533573,0.110575,-18.4335,0.0102604,
2,0,0,1,0,24816.4,0.00909108,0.00877983,-4.23264,13,0.00110102,10,-3.71618e-05,-2.37339,0.57661,0.102322,-16.9365,0.00877983,
2,0,0,1,0,24816.5,0.00759027,0.007286,-4.2142,13,0.000994941,10,-3.07047e-05,-2.37528,0.495366,0.119104,-19.5845,0.007286,
2,0,0,1,0,24816.5,0.00608945,0.00578739,-4.19573,13,0.000889492,10,-2.42823e-05,-2.37719,0.546391,0.107981,-17.6448,0.00578739,
2,0,0,1,0,24816.5,0.00459524,0.0042871,-4.165,13,0.000785114,10,-1.78558e-05,-2.38039,0.721402,0.0817852,-13.2999,0.0042871,
2,0,0,1,0,24816.5,0.0030957,0.00276837,-4.14721,13,0.000680813,10,-1.1481e-05,-2.38224,2.86284,0.0206089,-3.34588,0.00276837,
2,0,0,1,0,24816.6,0.00159616,0.00123906,-4.16008,13,0.000576468,10,-5.1546e-06,-2.3809, , , ,0.00123906,
2,0,0,1,0,24816.6,0.000199195,-0.000157355,-4.13336,13,0.000479432,10,6.50406e-07,-2.3837, , , ,-0.000157355,