File: Figure_codes/Fig_3-5/rawdata_trumpetplot_data/after 10th/20221101_1-115_003_TrumpetPlot_ParaChange_from10_every3_10_CV_C01_7.csv
mode,ox/red,error,control changes,counter inc.,time/s,control/V,Ewe/V,<I>/mA,cycle number,(Q-Qo)/C,I Range,P/W,log(|I|),Tafel slope mV/dec,alpha_eff,dI/d(E-IR),E-IR/V,
2,1,0,0,0,14981.4,-2.44065e-05,-0.000229887,5.23691,8,0.0000000E+000,10,-1.2039e-06,-2.28092, , , ,-0.000229887,
2,1,0,1,0,14981.4,0.00179726,0.00144025,6.24551,8,5.1144e-05,10,8.99512e-06,-2.20443, , , ,0.00144025,
2,1,0,1,0,14981.5,0.00379485,0.00346033,7.02267,8,0.000117935,10,2.43007e-05,-2.1535,0.0479628,1.23012,330.827,0.00346033,
2,1,0,1,0,14981.5,0.00579244,0.00547324,7.57974,8,0.000191124,10,4.14857e-05,-2.12035,0.0687935,0.857639,251.501,0.00547324,
2,1,0,1,0,14981.5,0.00779002,0.00745673,8.02777,8,0.000269331,10,5.98609e-05,-2.09541,0.0873435,0.675494,210.587,0.00745673,
2,1,0,1,0,14981.5,0.00977853,0.00942049,8.41097,8,0.00035082,10,7.92355e-05,-2.07515,0.111518,0.529063,172.775,0.00942049,
2,1,0,1,0,14981.5,0.0117761,0.0114472,8.71722,8,0.000436572,10,9.97879e-05,-2.05962,0.141122,0.418078,141.84,0.0114472,
2,1,0,1,0,14981.5,0.0137737,0.0134436,8.98161,8,0.000525095,10,0.000120745,-2.04665,0.163243,0.361424,126.463,0.0134436,
2,1,0,1,0,14981.5,0.0157713,0.0154139,9.21886,8,0.000616194,10,0.000142099,-2.03532,0.187865,0.314055,112.82,0.0154139,
2,1,0,1,0,14981.5,0.017778,0.0174337,9.43177,8,0.000709509,10,0.000164431,-2.02541,0.222679,0.264956,97.3276,0.01743369,
2,1,0,1,0,14981.5,0.0197755,0.0194179,9.60856,8,0.000804795,10,0.000186578,-2.01734,0.24463,0.24118,90.4634,0.0194179,
2,1,0,1,0,14981.5,0.0217731,0.0214203,9.79242,8,0.000901795,10,0.000209757,-2.00911,0.278845,0.211587,80.6888,0.0214203,
2,1,0,1,0,14981.6,0.0237707,0.0234783,9.93619,8,0.00100051,10,0.000233285,-2.00278,0.29936,0.197087,76.4987,0.0234783,
2,1,0,1,0,14981.6,0.0257774,0.0254469,10.1004,8,0.00110071,10,0.000257025,-1.99566,0.310564,0.189977,74.7592,0.0254469,
2,1,0,1,0,14981.6,0.027775,0.0274311,10.2317,8,0.00120244,10,0.000280667,-1.99005,0.330269,0.178642,71.4063,0.0274311,
2,1,0,1,0,14981.6,0.0297726,0.0294327,10.3851,8,0.00130558,10,0.00030566,-1.98359,0.338025,0.174543,70.666,0.0294327,
2,1,0,1,0,14981.6,0.0317701,0.031475,10.5175,8,0.00141013,10,0.000331037,-1.97809,0.334125,0.176581,72.5573,0.031475,
2,1,0,1,0,14981.6,0.0337587,0.0334099,10.6736,8,0.00151499,10,0.000356605,-1.97169,0.332266,0.177569,73.8994,0.03340992,
2,1,0,1,0,14981.6,0.0357562,0.0354531,10.8114,8,0.00162239,10,0.000383299,-1.96612,0.378137,0.156028,65.7913,0.0354531,
2,1,0,1,0,14981.6,0.0377538,0.0374023,10.9363,8,0.00173111,10,0.000409043,-1.96113,0.37211,0.158555,67.7245,0.0374023,
2,1,0,1,0,14981.6,0.0397514,0.0394025,11.0789,8,0.00184122,10,0.000436537,-1.9555,0.336489,0.17534,75.875,0.0394025,
2,1,0,1,0,14981.6,0.0417399,0.0414204,11.2412,8,0.00195163,10,0.000465613,-1.94919,0.353333,0.166982,73.1478,0.0414204,
2,1,0,1,0,14981.7,0.0437375,0.043402,11.3715,8,0.00206471,10,0.000493544,-1.94418,0.390519,0.151081,67.0628,0.04340199,
2,1,0,1,0,14981.7,0.0457351,0.0453931,11.5076,8,0.0021791,10,0.000522366,-1.93902,0.37195,0.158624,71.2857,0.0453931,
2,1,0,1,0,14981.7,0.0477327,0.0474511,11.6601,8,0.00229499,10,0.000553285,-1.9333,0.345338,0.170847,77.7688,0.0474511,
2,1,0,1,0,14981.7,0.0497393,0.049424,11.8211,8,0.00241235,10,0.000584245,-1.92734,0.360139,0.163826,75.4892,0.049424,
2,1,0,1,0,14981.7,0.0517369,0.0513588,11.9551,8,0.00253127,10,0.000614,-1.92245,0.358665,0.164499,76.86,0.0513588,
2,1,0,1,0,14981.7,0.0537345,0.0533734,12.1246,8,0.00265168,10,0.000647132,-1.91633,0.358653,0.164504,77.7682,0.0533734,
2,1,0,1,0,14981.7,0.0557321,0.0554444,12.2728,8,0.00277371,10,0.000680459,-1.91106,0.371219,0.158936,76.1425,0.0554444,
2,1,0,1,0,14981.7,0.0577297,0.0573548,12.4278,8,0.00289721,10,0.000712793,-1.90561,0.365246,0.161535,78.346,0.0573548,
2,1,0,1,0,14981.7,0.0597364,0.059411,12.5836,8,0.00302238,10,0.000747605,-1.9002,0.369971,0.159472,78.3313,0.059411,
2,1,0,1,0,14981.7,0.0617339,0.0614117,12.7456,8,0.00314905,10,0.000782727,-1.89464,0.388999,0.151671,75.3744,0.0614117,
2,1,0,1,0,14981.8,0.0637315,0.0634116,12.8851,8,0.00327726,10,0.000817067,-1.88991,0.396917,0.148646,74.799,0.0634116,
2,1,0,1,0,14981.8,0.0657291,0.0653897,13.0431,8,0.00340691,10,0.000852885,-1.88462,0.387245,0.152358,77.5319,0.0653897,
2,1,0,1,0,14981.8,0.0677176,0.0674012,13.1945,8,0.00353689,10,0.000889323,-1.87961,0.402568,0.146559,75.4594,0.0674012,
2,1,0,1,0,14981.8,0.0697152,0.0693728,13.3437,8,0.00366961,10,0.000925688,-1.87472,0.392092,0.150475,78.3972,0.06937281,
2,1,0,1,0,14981.8,0.0717128,0.0713778,13.5062,8,0.00380391,10,0.000964044,-1.86947,0.389318,0.151547,79.8684,0.0713778,
2,1,0,1,0,14981.8,0.0737104,0.073405,13.6657,8,0.00393976,10,0.00100313,-1.86437,0.389387,0.15152,80.8039,0.073405,
2,1,0,1,0,14981.8,0.0756989,0.0753143,13.8243,8,0.0040759,10,0.00104117,-1.85936,0.409815,0.143968,77.6322,0.0753143,
2,1,0,1,0,14981.8,0.0776965,0.0773167,13.9694,8,0.00421483,10,0.00108007,-1.85482,0.461585,0.12782,69.6638,0.0773167,
2,1,0,1,0,14981.8,0.0796941,0.0793694,14.1068,8,0.00435524,10,0.00111965,-1.85057,0.458006,0.128819,70.948,0.0793694,
2,1,0,1,0,14981.8,0.0816916,0.0813571,14.256,8,0.00449706,10,0.00115983,-1.846,0.461726,0.127781,71.0543,0.0813571,
2,1,0,1,0,14981.9,0.0836983,0.0833621,14.3905,8,0.00464034,10,0.00119962,-1.84192,0.472934,0.124753,70.0932,0.0833621,
2,1,0,1,0,14981.9,0.0856959,0.0853811,14.5381,8,0.00478498,10,0.00124128,-1.83749,0.482747,0.122217,69.2878,0.0853811,
2,1,0,1,0,14981.9,0.0876935,0.0872993,14.6633,8,0.00493105,10,0.0012801,-1.83377,0.524014,0.112592,64.4419,0.0872993,
2,1,0,1,0,14981.9,0.0896911,0.0893452,14.7936,8,0.00507831,10,0.00132173,-1.82993,0.509993,0.115688,66.8124,0.0893452,
2,1,0,1,0,14981.9,0.0916978,0.0913467,14.9337,8,0.00522698,10,0.00136415,-1.82583,0.50255,0.117401,68.4114,0.0913467,
2,1,0,1,0,14981.9,0.0936953,0.0933787,15.0695,8,0.00537701,10,0.00140717,-1.8219,0.558403,0.105658,62.0909,0.0933787,
2,1,0,1,0,14981.9,0.0956929,0.0953533,15.1825,8,0.00552832,10,0.0014477,-1.81866,0.549985,0.107276,63.6237,0.0953533,
2,1,0,1,0,14981.9,0.0976905,0.0973939,15.325,8,0.00568086,10,0.00149256,-1.8146,0.489501,0.120531,72.0918,0.0973939,
2,1,0,1,0,14981.9,0.099679,0.0993423,15.4701,8,0.0058333,10,0.00153683,-1.81051,0.497579,0.118574,71.5671,0.0993423,
2,1,0,1,0,14981.9,0.101677,0.10133,15.6066,8,0.00598867,10,0.00158142,-1.80669,0.511495,0.115348,70.2745,0.10133,
2,1,0,1,0,14982,0.103674,0.103358,15.7522,8,0.00614548,10,0.00162812,-1.80266,0.455217,0.129609,79.7442,0.103358,
2,1,0,1,0,14982,0.105672,0.105322,15.925,8,0.00630383,10,0.00167726,-1.79792,0.420867,0.140187,87.1208,0.105322,
2,1,0,1,0,14982,0.107656,0.107314,16.0969,8,0.00646235,10,0.00172743,-1.79326,0.412144,0.143154,89.965,0.107314,
2,1,0,1,0,14982,0.109658,0.109294,16.2823,8,0.00662425,10,0.00177956,-1.78828,0.392736,0.150228,95.4968,0.109294,
2,1,0,1,0,14982,0.111655,0.111336,16.481,8,0.00678814,10,0.00183494,-1.78302,0.36679,0.160855,103.523,0.111336,
2,1,0,1,0,14982,0.113653,0.113338,16.701,8,0.00695406,10,0.00189285,-1.77726,0.343283,0.17187,112.031,0.113338,
2,1,0,1,0,14982,0.115651,0.115302,16.9253,8,0.00712222,10,0.00195153,-1.77146,0.321557,0.183482,121.316,0.115302,
2,1,0,1,0,14982,0.117657,0.117327,17.1849,8,0.0072928,10,0.00201626,-1.76485,0.317426,0.18587,124.583,0.117327,
2,1,0,1,0,14982,0.119655,0.119324,17.4263,8,0.00746592,10,0.00207937,-1.75879,0.325391,0.18132,123.357,0.119324,
2,1,0,1,0,14982,0.121652,0.121357,17.6821,8,0.00764144,10,0.00214585,-1.75247,0.326296,0.180817,124.729,0.1213572,
2,1,0,1,0,14982.1,0.12365,0.123333,17.9264,8,0.00781959,10,0.00221091,-1.74651,0.308633,0.191166,133.89,0.123333,
2,1,0,1,0,14982.1,0.125657,0.125324,18.2132,8,0.00800039,10,0.00228254,-1.73961,0.317923,0.185579,131.728,0.125324,
2,1,0,1,0,14982.1,0.127654,0.127324,18.4521,8,0.0081838,10,0.00234939,-1.73395,0.340605,0.173221,124.803,0.127324,
2,1,0,1,0,14982.1,0.129652,0.129317,18.7115,8,0.00836966,10,0.0024197,-1.72789,0.340575,0.173237,126.457,0.1293166,
2,1,0,1,0,14982.1,0.131649,0.131329,18.9585,8,0.0085581,10,0.0024898,-1.72219,0.358521,0.164565,121.737,0.131329,
2,1,0,1,0,14982.1,0.133638,0.133334,19.2006,8,0.00874705,10,0.0025601,-1.71669,0.383384,0.153893,115.24,0.133334,
2,1,0,1,0,14982.1,0.135636,0.135322,19.4187,8,0.0089402,10,0.00262778,-1.71178,0.405884,0.145362,110.168,0.135322,
2,1,0,1,0,14982.1,0.137633,0.137326,19.6403,8,0.0091355,10,0.00269713,-1.70685,0.434179,0.135889,104.082,0.137326,
2,1,0,1,0,14982.1,0.139631,0.139317,19.8346,8,0.00933293,10,0.00276331,-1.70258,0.457877,0.128856,99.7548,0.139317,
2,1,0,1,0,14982.1,0.141619,0.141274,20.0342,8,0.00953022,10,0.0028303,-1.69823,0.480448,0.122802,95.9737,0.141274,
2,1,0,1,0,14982.2,0.143617,0.143308,20.2176,8,0.00973153,10,0.00289733,-1.69427,0.531913,0.11092,87.4803,0.1433076,
2,1,0,1,0,14982.2,0.145614,0.145273,20.384,8,0.00993449,10,0.00296123,-1.69071,0.619941,0.0951703,75.6418,0.145273,
2,1,0,1,0,14982.2,0.147612,0.147231,20.5143,8,0.010139,10,0.00302034,-1.68794,0.665327,0.0886782,71.0389,0.147231,
2,1,0,1,0,14982.2,0.149619,0.149296,20.6698,8,0.0103449,10,0.00308591,-1.68466,0.817188,0.0721988,58.1381,0.149296,
2,1,0,1,0,14982.2,0.151616,0.151329,20.7526,8,0.010552,10,0.00314048,-1.68293,1.23504,0.0477717,38.6792,0.151329,
2,1,0,1,0,14982.2,0.153614,0.153265,20.8233,8,0.01076,10,0.00319148,-1.68145,2.09406,0.028175,22.8684,0.1532651,
2,1,0,1,0,14982.2,0.155611,0.155248,20.8422,8,0.0109684,10,0.00323572,-1.68106,11.5058,0.00512785,4.16893,0.155248,
2,1,0,1,0,14982.2,0.157618,0.157301,20.8401,8,0.0111768,10,0.00327818,-1.6811,-1.65485,-0.0356529,-28.9189,0.1573012,
2,1,0,1,0,14982.2,0.159616,0.15929,20.7254,8,0.0113847,10,0.00330134,-1.6835,-0.703825,-0.0838277,-67.7372,0.15929,
2,1,0,1,0,14982.2,0.161613,0.161281,20.5705,8,0.0115912,10,0.00331764,-1.68675,-0.458708,-0.128622,-102.998,0.161281,
2,1,0,1,0,14982.3,0.163611,0.16329,20.3133,8,0.0117957,10,0.00331697,-1.69222,-0.316162,-0.186613,-147.642,0.16329,
2,1,0,1,0,14982.3,0.165618,0.165301,19.9771,8,0.0119972,10,0.00330222,-1.69947,-0.238089,-0.247806,-192.723,0.165301,
2,1,0,1,0,14982.3,0.167597,0.167267,19.5469,8,0.0121929,10,0.00326955,-1.70892,-0.186733,-0.315959,-240.402,0.167267,
2,1,0,1,0,14982.3,0.169595,0.169271,19.0226,8,0.0123857,10,0.00321997,-1.72073,-0.156115,-0.377927,-279.882,0.169271,
2,1,0,1,0,14982.3,0.171592,0.171307,18.4162,8,0.0125729,10,0.00315482,-1.7348,-0.132089,-0.44667,-320.404,0.171307,
2,1,0,1,0,14982.3,0.173572,0.173236,17.7523,8,0.0127518,10,0.00307533,-1.75075,-0.117637,-0.501543,-346.903,0.173236,
2,1,0,1,0,14982.3,0.175578,0.175253,17.0474,8,0.0129258,10,0.0029876,-1.76834,-0.109847,-0.537109,-356.786,0.175253,
2,1,0,1,0,14982.3,0.177576,0.177279,16.3098,8,0.0130925,10,0.00289138,-1.78755,-0.101791,-0.579619,-368.665,0.1772787,
2,1,0,1,0,14982.3,0.179573,0.179259,15.5703,8,0.0132518,10,0.00279112,-1.8077,-0.0986426,-0.598119,-363.595,0.179259,
2,1,0,1,0,14982.3,0.181571,0.181251,14.8653,8,0.0134038,10,0.00269436,-1.82783,-0.100216,-0.588729,-341.716,0.181251,
2,1,0,1,0,14982.4,0.183578,0.183281,14.1961,8,0.0135491,10,0.00260187,-1.84783,-0.101613,-0.580634,-321.964,0.1832808,
2,1,0,1,0,14982.4,0.185575,0.185272,13.5709,8,0.0136878,10,0.0025143,-1.86739,-0.102731,-0.574316,-304.57,0.185272,
2,1,0,1,0,14982.4,0.187573,0.187213,12.9985,8,0.0138206,10,0.00243349,-1.88611,-0.111823,-0.527619,-268.235,0.187213,
2,1,0,1,0,14982.4,0.18957,0.189275,12.4971,8,0.0139479,10,0.00236538,-1.90319,-0.122105,-0.483191,-235.922,0.189275,
2,1,0,1,0,14982.4,0.191577,0.191295,12.0355,8,0.0140705,10,0.00230233,-1.91954,-0.128108,-0.460549,-216.784,0.191295,
2,1,0,1,0,14982.4,0.193575,0.19325,11.6355,8,0.0141888,10,0.00224855,-1.93422,-0.141266,-0.417653,-189.947,0.19325,
2,1,0,1,0,14982.4,0.195572,0.195275,11.2795,8,0.0143033,10,0.00220261,-1.94771,-0.153525,-0.384302,-169.38,0.195275,
2,1,0,1,0,14982.4,0.19757,0.197248,10.9582,8,0.0144145,10,0.00216148,-1.96026,-0.171858,-0.343307,-147.231,0.197248,
2,1,0,1,0,14982.4,0.199558,0.199189,10.7032,8,0.0145216,10,0.00213197,-1.97048,-0.193116,-0.305516,-127.618,0.199189,
2,1,0,1,0,14982.4,0.201556,0.201212,10.4523,8,0.0146273,10,0.00210313,-1.98079,-0.204192,-0.288943,-118.003,0.201212,
2,1,0,1,0,14982.5,0.203553,0.203206,10.2292,8,0.0147307,10,0.00207864,-1.99016,-0.221359,-0.266536,-106.502,0.203206,
2,1,0,1,0,14982.5,0.205551,0.205198,10.0278,8,0.0148319,10,0.00205768,-1.9988,-0.265168,-0.2225,-87.2821,0.205198,
2,1,0,1,0,14982.5,0.20754,0.207254,9.87585,8,0.0149304,10,0.00204682,-2.00543,-0.292163,-0.201942,-77.778,0.207254,
2,1,0,1,0,14982.5,0.209537,0.209263,9.71163,8,0.0150282,10,0.00203228,-2.01271,-0.274171,-0.215194,-81.5747,0.209263,
2,1,0,1,0,14982.5,0.211535,0.211221,9.55227,8,0.0151245,10,0.00201764,-2.01989,-0.304481,-0.193772,-72.3631,0.211221,
2,1,0,1,0,14982.5,0.213532,0.213189,9.42754,8,0.0152193,10,0.00200985,-2.0256,-0.361267,-0.163314,-60.1118,0.213189,
2,1,0,1,0,14982.5,0.215539,0.215229,9.31138,8,0.015313,10,0.00200407,-2.03099,-0.369238,-0.159788,-58.0587,0.215229,
2,1,0,1,0,14982.5,0.217537,0.217215,9.19381,8,0.0154055,10,0.00199703,-2.0365,-0.379337,-0.155535,-55.8418,0.217215,
2,1,0,1,0,14982.5,0.219534,0.219216,9.08871,8,0.0154969,10,0.00199239,-2.0415,-0.429195,-0.137467,-48.7949,0.219216,
2,1,0,1,0,14982.5,0.221532,0.221241,8.99734,8,0.0155873,10,0.00199058,-2.04589,-0.439692,-0.134185,-47.1001,0.221241,
2,1,0,1,0,14982.6,0.223534,0.223222,8.90004,8,0.0156768,10,0.00198668,-2.05061,-0.492096,-0.119895,-41.7075,0.223222,
2,1,0,1,0,14982.6,0.225536,0.225249,8.83016,8,0.0157655,10,0.00198899,-2.05403,-0.521836,-0.113062,-38.9265,0.225249,
2,1,0,1,0,14982.6,0.227534,0.227222,8.74431,8,0.0158534,10,0.0019869,-2.05827,-0.492734,-0.11974,-40.882,0.227222,
2,1,0,1,0,14982.6,0.229531,0.229236,8.66718,8,0.0159404,10,0.00198683,-2.06212,-0.552557,-0.106776,-36.1389,0.229236,
2,1,0,1,0,14982.6,0.231529,0.231194,8.60077,8,0.0160268,10,0.00198845,-2.06546,-0.683127,-0.0863676,-29.0206,0.2311943,
2,1,0,1,0,14982.6,0.233517,0.233183,8.55263,8,0.0161117,10,0.00199433,-2.0679,-0.659917,-0.0894052,-29.8016,0.233183,
2,1,0,1,0,14982.6,0.235515,0.23519,8.4817,8,0.0161969,10,0.00199481,-2.07152,-0.60092,-0.0981828,-32.5207,0.23519,
2,1,0,1,0,14982.6,0.237513,0.237202,8.42194,8,0.0162813,10,0.0019977,-2.07459,-0.70346,-0.0838711,-27.58,0.237202,
2,1,0,1,0,14982.6,0.23951,0.239224,8.37044,8,0.0163653,10,0.00200241,-2.07725,-0.810885,-0.07276,-23.7803,0.2392237,
2,1,0,1,0,14982.6,0.241499,0.24118,8.32735,8,0.0164479,10,0.00200839,-2.07949,-0.720908,-0.0818413,-26.5677,0.24118,
2,1,0,1,0,14982.6,0.243496,0.243165,8.26574,8,0.0165309,10,0.00200994,-2.08272,-0.7806,-0.0755829,-24.4182,0.243165,
2,1,0,1,0,14982.7,0.245494,0.245212,8.22888,8,0.0166133,10,0.00201782,-2.08466,-0.846548,-0.0696948,-22.3617,0.245212,
2,1,0,1,0,14982.7,0.247491,0.24713,8.17706,8,0.0166954,10,0.0020208,-2.0874,-0.840359,-0.0702081,-22.4251,0.24713,
2,1,0,1,0,14982.7,0.249498,0.249177,8.13997,8,0.0167769,10,0.00202829,-2.08938,-0.904825,-0.065206,-20.7023,0.249177,
2,1,0,1,0,14982.7,0.251496,0.251169,8.09345,8,0.0168581,10,0.00203282,-2.09187,-0.892517,-0.0661052,-20.8924,0.251169,
2,1,0,1,0,14982.7,0.253493,0.253167,8.0566,8,0.0169388,10,0.00203967,-2.09385,-0.87001,-0.0678153,-21.3068,0.253167,
2,1,0,1,0,14982.7,0.255491,0.255186,8.00786,8,0.0170192,10,0.00204349,-2.09648,-1.05746,-0.0557941,-17.4664,0.255186,
2,1,0,1,0,14982.7,0.257497,0.257187,7.98639,8,0.0170992,10,0.002054,-2.09765,-1.22075,-0.0483309,-15.0478,0.257187,
2,1,0,1,0,14982.7,0.259495,0.259174,7.94785,8,0.0171789,10,0.00205987,-2.09975,-0.9365,-0.0630005,-19.5398,0.259174,
2,1,0,1,0,14982.7,0.261493,0.261194,7.90809,8,0.0172582,10,0.00206555,-2.10193,-0.988226,-0.0597029,-18.4332,0.261194,
2,1,0,1,0,14982.7,0.26349,0.263146,7.87462,8,0.0173371,10,0.00207218,-2.10377,-1.51577,-0.0389242,-11.9772,0.263146,
2,1,0,1,0,14982.8,0.265479,0.265134,7.8609,8,0.017415,10,0.00208419,-2.10453,-1.38237,-0.0426804,-13.0727,0.265134,
2,1,0,1,0,14982.8,0.267476,0.267173,7.82199,8,0.0174934,10,0.00208982,-2.10668,-0.969787,-0.0608381,-18.574,0.267173,
2,1,0,1,0,14982.8,0.269474,0.269222,7.78498,8,0.0175714,10,0.00209588,-2.10874,-1.20537,-0.0489477,-14.8851,0.269222,
2,1,0,1,0,14982.8,0.271471,0.27118,7.76234,8,0.0176492,10,0.00210499,-2.11001,-2.0235,-0.0291574,-8.83888,0.27118,
2,1,0,1,0,14982.8,0.27346,0.273157,7.75019,8,0.0177259,10,0.00211702,-2.11069,-1.2883,-0.045797,-13.8247,0.273157,
2,1,0,1,0,14982.8,0.275458,0.275145,7.70752,8,0.0178031,10,0.00212069,-2.11309,-1.02095,-0.0577892,-17.4018,0.275145,
2,1,0,1,0,14982.8,0.277455,0.277098,7.6816,8,0.01788,10,0.00212856,-2.11455,-1.16432,-0.0506733,-15.1826,0.277098,
2,1,0,1,0,14982.8,0.279453,0.279135,7.64695,8,0.0179567,10,0.00213453,-2.11651,-1.31553,-0.0448489,-13.3979,0.279135,
2,1,0,1,0,14982.8,0.281455,0.281125,7.62766,8,0.018033,10,0.00214432,-2.11761,-1.56922,-0.0375984,-11.1877,0.281125,
2,1,0,1,0,14982.8,0.283457,0.283157,7.60195,8,0.0181091,10,0.00215255,-2.11907,-1.27703,-0.0462008,-13.7036,0.2831569,
2,1,0,1,0,14982.9,0.285455,0.285138,7.57267,8,0.018185,10,0.00215925,-2.12075,-1.07857,-0.0547021,-16.1602,0.285138,
2,1,0,1,0,14982.9,0.287452,0.287141,7.53757,8,0.0182606,10,0.00216435,-2.12277,-1.21076,-0.0487297,-14.3469,0.287141,
2,1,0,1,0,14982.9,0.28945,0.289136,7.51531,8,0.0183358,10,0.00217294,-2.12405,-1.6466,-0.0358313,-10.5106,0.289136,
2,1,0,1,0,14982.9,0.291456,0.291193,7.49499,8,0.0184109,10,0.00218248,-2.12523,-1.1632,-0.0507223,-14.8184,0.291193,
2,1,0,1,0,14982.9,0.293454,0.293113,7.45638,8,0.0184857,10,0.00218556,-2.12747,-1.12134,-0.0526156,-15.3283,0.293113,
2,1,0,1,0,14982.9,0.295452,0.29513,7.43463,8,0.0185602,10,0.00219418,-2.12874,-1.98524,-0.0297193,-8.62794,0.29513,
2,1,0,1,0,14982.9,0.297449,0.297174,7.42134,8,0.0186345,10,0.00220543,-2.12952,-1.9139,-0.030827,-8.92278,0.297174,
2,1,0,1,0,14982.9,0.299438,0.29917,7.39859,8,0.0187079,10,0.00221343,-2.13085,-0.0523284,-1.12749,-310.431,0.29917,
2,1,0,1,0,14982.9,0.299746,0.299496,6.70061,8,0.0187388,10,0.0020068,-2.17389,0.0049515,11.9156,2386.79,0.299496,
2,1,0,1,0,14982.9,0.29774,0.297488,3.38453,8,0.0187871,10,0.00100686,-2.4705,0.00611635,9.64627,1293.04,0.297488,
2,1,0,1,0,14983,0.295742,0.295439,1.45488,8,0.0188104,10,0.000429828,-2.83717,0.00322345,18.3033,786.307,0.295439,
2,1,0,1,0,14983,0.293745,0.293419,0.184999,8,0.018818,10,5.42822e-05,-3.73283,0.0124541,4.73738,538.551,0.293419,
2,0,0,1,0,14983,0.291747,0.291446,-0.695399,8,0.0188151,10,-0.000202671,-3.15777,-0.00461117,-12.795,384.748,0.291446,
2,0,0,1,0,14983,0.289745,0.289451,-1.34152,8,0.0188047,10,-0.000388305,-2.8724,-0.00966491,-6.10456,279.295,0.289451,
2,0,0,1,0,14983,0.287743,0.287386,-1.82921,8,0.0187887,10,-0.000525691,-2.73774,-0.0190637,-3.09489,208.505,0.287386,
2,0,0,1,0,14983,0.285745,0.285438,-2.17837,8,0.0187685,10,-0.000621788,-2.66187,-0.0297453,-1.98351,165.618,0.285438,
2,0,0,1,0,14983,0.283748,0.283439,-2.48301,8,0.018745,10,-0.000703782,-2.60502,-0.0413251,-1.4277,135.964,0.283439,
2,0,0,1,0,14983,0.28175,0.281438,-2.72217,8,0.0187189,10,-0.000766123,-2.56508,-0.0554186,-1.06463,112.221,0.2814382,
2,0,0,1,0,14983,0.279761,0.279445,-2.93125,8,0.0186908,10,-0.000819121,-2.53295,-0.0712189,-0.828432,93.9654,0.279445,
2,0,0,1,0,14983,0.277764,0.277432,-3.09864,8,0.0186606,10,-0.000859662,-2.50883,-0.0859619,-0.686351,82.9075,0.277432,
2,0,0,1,0,14983.1,0.275766,0.275418,-3.26508,8,0.0186288,10,-0.000899263,-2.48611,-0.104693,-0.563551,71.2125,0.275418,
2,0,0,1,0,14983.1,0.273769,0.273464,-3.3812,8,0.0185956,10,-0.000924636,-2.47093,-0.122446,-0.481844,63.7607,0.273464,
2,0,0,1,0,14983.1,0.27178,0.271429,-3.5194,8,0.0185614,10,-0.000955268,-2.45353,-0.130442,-0.452308,61.8361,0.271429,
2,0,0,1,0,14983.1,0.269783,0.269477,-3.62777,8,0.0185256,10,-0.000977598,-2.44036,-0.154549,-0.381755,54.03,0.2694765,
2,0,0,1,0,14983.1,0.267785,0.267425,-3.73573,8,0.0184888,10,-0.00099903,-2.42762,-0.177022,-0.333291,48.4351,0.267425,
2,0,0,1,0,14983.1,0.265787,0.265481,-3.82128,8,0.018451,10,-0.00101448,-2.41779,-0.18118,-0.325643,48.6955,0.2654812,
2,0,0,1,0,14983.1,0.263781,0.263454,-3.92914,8,0.0184122,10,-0.00103515,-2.4057,-0.192586,-0.306356,46.7928,0.2634536,
2,0,0,1,0,14983.1,0.261783,0.261499,-4.00762,8,0.0183725,10,-0.00104799,-2.39711,-0.232343,-0.253935,39.7148,0.2614989,
2,0,0,1,0,14983.1,0.259786,0.259485,-4.08675,8,0.018332,10,-0.00106045,-2.38862,-0.237515,-0.248405,39.6152,0.259485,
2,0,0,1,0,14983.1,0.257788,0.257497,-4.16614,8,0.0182908,10,-0.00107277,-2.38027,-0.226467,-0.260524,42.4054,0.257497,
2,0,0,1,0,14983.2,0.255781,0.255499,-4.2558,8,0.0182486,10,-0.00108735,-2.37102,-0.275722,-0.213984,35.3898,0.255499,
2,0,0,1,0,14983.2,0.253784,0.253428,-4.31014,8,0.0182058,10,-0.00109231,-2.36551,-0.305837,-0.192913,32.5311,0.253428,
2,0,0,1,0,14983.2,0.251786,0.251477,-4.38662,8,0.0181623,10,-0.00110314,-2.35787,-0.287004,-0.205572,35.1368,0.251477,
2,0,0,1,0,14983.2,0.249789,0.249454,-4.44979,8,0.0181181,10,-0.00111002,-2.35166,-0.297392,-0.198391,34.4984,0.2494539,
2,0,0,1,0,14983.2,0.2478,0.247454,-4.52543,8,0.0180737,10,-0.00111983,-2.34434,-0.300659,-0.196236,34.5975,0.247454,
2,0,0,1,0,14983.2,0.245802,0.245518,-4.58598,8,0.0180281,10,-0.00112594,-2.33857,-0.322487,-0.182953,32.7713,0.245518,
2,0,0,1,0,14983.2,0.243805,0.243509,-4.65471,8,0.0179819,10,-0.00113346,-2.33211,-0.394849,-0.149424,27.0605,0.2435088,
2,0,0,1,0,14983.2,0.241807,0.241482,-4.69518,8,0.0179352,10,-0.0011338,-2.32835,-0.357356,-0.165101,30.3821,0.241482,
2,0,0,1,0,14983.2,0.239819,0.239507,-4.7763,8,0.0178883,10,-0.00114396,-2.32091,-0.360222,-0.163788,30.3949,0.239507,
2,0,0,1,0,14983.2,0.237821,0.237526,-4.81543,8,0.0178404,10,-0.00114379,-2.31737,-0.393239,-0.150036,28.2973,0.237526,
2,0,0,1,0,14983.3,0.235824,0.235508,-4.88945,8,0.0177919,10,-0.0011515,-2.31074,-0.429283,-0.137438,26.1081,0.235508,
2,0,0,1,0,14983.3,0.233826,0.233525,-4.91989,8,0.0177428,10,-0.00114892,-2.30804,-0.414775,-0.142246,27.446,0.2335247,
2,0,0,1,0,14983.3,0.231824,0.231521,-4.99889,8,0.0176933,10,-0.00115735,-2.30113,-0.404781,-0.145758,28.3113,0.231521,
2,0,0,1,0,14983.3,0.229822,0.229477,-5.03448,8,0.0176431,10,-0.0011553,-2.29805,-0.504632,-0.116917,23.0198,0.2294773,
2,0,0,1,0,14983.3,0.227824,0.227504,-5.09136,8,0.0175924,10,-0.0011583,-2.29317,-0.465234,-0.126818,25.161,0.227504,
2,0,0,1,0,14983.3,0.225827,0.225549,-5.13333,8,0.0175413,10,-0.00115782,-2.2896,-0.447414,-0.131869,26.4744,0.225549,
2,0,0,1,0,14983.3,0.223829,0.223497,-5.19744,8,0.0174896,10,-0.00116161,-2.28421,-0.43607,-0.135299,27.3978,0.223497,
2,0,0,1,0,14983.3,0.221822,0.221494,-5.24443,8,0.0174373,10,-0.00116161,-2.2803,-0.462566,-0.127549,26.1298,0.221494,
2,0,0,1,0,14983.3,0.219825,0.219522,-5.30131,8,0.0173845,10,-0.00116375,-2.27562,-0.446401,-0.132168,27.3299,0.219522,
2,0,0,1,0,14983.3,0.217827,0.217528,-5.35282,8,0.0173312,10,-0.00116439,-2.27142,-0.523022,-0.112806,23.5469,0.217528,
2,0,0,1,0,14983.4,0.21583,0.215495,-5.39612,8,0.0172775,10,-0.00116284,-2.26792,-0.475281,-0.124137,26.1875,0.215495,
2,0,0,1,0,14983.4,0.213841,0.213498,-5.45835,8,0.0172237,10,-0.00116535,-2.26294,-0.427073,-0.13815,29.4045,0.213498,
2,0,0,1,0,14983.4,0.211843,0.211557,-5.51191,8,0.0171689,10,-0.00116608,-2.2587,-0.565614,-0.104311,22.4015,0.2115574,
2,0,0,1,0,14983.4,0.209846,0.209521,-5.54744,8,0.0171136,10,-0.0011623,-2.25591,-0.558265,-0.105685,22.9236,0.209521,
2,0,0,1,0,14983.4,0.207848,0.207537,-5.60407,8,0.0170578,10,-0.00116305,-2.2515,-0.420624,-0.140268,30.7041,0.207537,
2,0,0,1,0,14983.4,0.20586,0.205505,-5.67073,8,0.0170019,10,-0.00116537,-2.24636,-0.43424,-0.13587,30.034,0.205505,
2,0,0,1,0,14983.4,0.203862,0.203529,-5.72445,8,0.016945,10,-0.00116509,-2.24227,-0.565611,-0.104312,23.2723,0.203529,
2,0,0,1,0,14983.4,0.201865,0.20155,-5.76278,8,0.0168875,10,-0.00116149,-2.23937,-0.553496,-0.106595,24.0118,0.20155,
2,0,0,1,0,14983.4,0.199867,0.199561,-5.81974,8,0.0168296,10,-0.00116139,-2.2351,-0.441146,-0.133743,30.3932,0.199561,
2,0,0,1,0,14983.4,0.19786,0.197577,-5.88353,8,0.0167711,10,-0.00116245,-2.23036,-0.481185,-0.122614,28.1184,0.197577,
2,0,0,1,0,14983.5,0.195863,0.195541,-5.93276,8,0.016712,10,-0.0011601,-2.22674,-0.530343,-0.111249,25.7703,0.1955409,
2,0,0,1,0,14983.5,0.193865,0.193529,-5.98785,8,0.0166524,10,-0.00115882,-2.22273,-0.47231,-0.124918,29.206,0.193529,
2,0,0,1,0,14983.5,0.191868,0.191555,-6.04917,8,0.0165922,10,-0.00115875,-2.2183,-0.43859,-0.134522,31.7666,0.191555,
2,0,0,1,0,14983.5,0.189861,0.189551,-6.11422,8,0.0165314,10,-0.00115896,-2.21366,-0.453556,-0.130083,31.0263,0.189551,
2,0,0,1,0,14983.5,0.187863,0.187526,-6.17418,8,0.0164699,10,-0.00115782,-2.20942,-0.461874,-0.12774,30.7865,0.187526,
2,0,0,1,0,14983.5,0.185866,0.185561,-6.23706,8,0.0164078,10,-0.00115735,-2.20502,-0.456623,-0.129209,31.4503,0.185561,
2,0,0,1,0,14983.5,0.183868,0.183525,-6.3,8,0.0163451,10,-0.00115621,-2.20066,-0.391118,-0.150849,37.1539,0.183525,
2,0,0,1,0,14983.5,0.18188,0.181566,-6.3855,8,0.0162824,10,-0.00115939,-2.19481,-0.372707,-0.158301,39.4025,0.181566,
2,0,0,1,0,14983.5,0.179882,0.179557,-6.45637,8,0.0162182,10,-0.00115929,-2.19001,-0.447676,-0.131792,33.1829,0.179557,
2,0,0,1,0,14983.5,0.177885,0.177572,-6.518,8,0.0161533,10,-0.00115742,-2.18589,-0.388039,-0.152046,38.7699,0.177572,
2,0,0,1,0,14983.6,0.175887,0.175556,-6.6115,8,0.0160877,10,-0.00116069,-2.1797,-0.356423,-0.165534,42.6585,0.175556,
2,0,0,1,0,14983.6,0.173907,0.17356,-6.68916,8,0.0160218,10,-0.00116097,-2.17463,-0.337911,-0.174602,45.6661,0.17356,
2,0,0,1,0,14983.6,0.171901,0.171591,-6.79256,8,0.0159543,10,-0.00116554,-2.16797,-0.324689,-0.181712,48.1112,0.171591,
2,0,0,1,0,14983.6,0.169903,0.169591,-6.88013,8,0.015886,10,-0.00116681,-2.1624,-0.313612,-0.188131,50.61,0.169591,
2,0,0,1,0,14983.6,0.167906,0.167599,-6.99459,8,0.0158166,10,-0.00117228,-2.15524,-0.296288,-0.199131,54.3156,0.167599,
2,0,0,1,0,14983.6,0.165908,0.165556,-7.09926,8,0.0157461,10,-0.00117533,-2.14879,-0.27437,-0.215038,59.7026,0.165556,
2,0,0,1,0,14983.6,0.163901,0.163576,-7.23478,8,0.0156744,10,-0.00118343,-2.14057,-0.256552,-0.229973,64.8617,0.163576,
2,0,0,1,0,14983.6,0.161904,0.161599,-7.35593,8,0.0156014,10,-0.00118871,-2.13336,-0.249663,-0.236319,67.9829,0.161599,
2,0,0,1,0,14983.6,0.159906,0.159537,-7.50934,8,0.0155271,10,-0.00119802,-2.1244,-0.229275,-0.257333,75.3691,0.159537,
2,0,0,1,0,14983.6,0.157909,0.157625,-7.65548,8,0.0154512,10,-0.00120669,-2.11603,-0.210307,-0.280542,84.0357,0.157625,
2,0,0,1,0,14983.7,0.155902,0.155556,-7.84392,8,0.0153736,10,-0.00122017,-2.10547,-0.191074,-0.308781,94.5432,0.155556,
2,0,0,1,0,14983.7,0.153904,0.153574,-8.03846,8,0.0152941,10,-0.0012345,-2.09483,-0.181102,-0.325782,102.286,0.153574,
2,0,0,1,0,14983.7,0.151907,0.151592,-8.24939,8,0.0152127,10,-0.00125054,-2.08358,-0.171667,-0.343689,110.776,0.151592,
2,0,0,1,0,14983.7,0.149909,0.14956,-8.48316,8,0.015129,10,-0.00126874,-2.07144,-0.153003,-0.385614,127.924,0.14956,
2,0,0,1,0,14983.7,0.147921,0.147629,-8.75626,8,0.0150437,10,-0.00129268,-2.05768,-0.14671,-0.402153,137.389,0.1476292,
2,0,0,1,0,14983.7,0.145923,0.145578,-9.03017,8,0.0149547,10,-0.0013146,-2.0443,-0.14088,-0.418796,147.936,0.145578,
2,0,0,1,0,14983.7,0.143926,0.143597,-9.35277,8,0.0148628,10,-0.00134303,-2.02906,-0.124985,-0.472056,172.57,0.143597,
2,0,0,1,0,14983.7,0.141928,0.141625,-9.71242,8,0.0147674,10,-0.00137552,-2.01267,-0.118339,-0.498569,189.233,0.141625,
2,0,0,1,0,14983.7,0.139939,0.139607,-10.1078,8,0.0146694,10,-0.00141112,-1.99535,-0.11629,-0.507351,200.155,0.139607,
2,0,0,1,0,14983.7,0.137942,0.137612,-10.5156,8,0.0145662,10,-0.00144707,-1.97817,-0.113001,-0.522118,214.617,0.137612,
2,0,0,1,0,14983.8,0.135944,0.135595,-10.9689,8,0.0144588,10,-0.00148733,-1.95984,-0.109769,-0.537492,230.146,0.135595,
2,0,0,1,0,14983.8,0.133947,0.133593,-11.4405,8,0.0143467,10,-0.00152837,-1.94155,-0.107082,-0.550978,246.176,0.133593,
2,0,0,1,0,14983.8,0.13194,0.131643,-11.9418,8,0.0142298,10,-0.00157205,-1.92293,-0.107383,-0.549435,256.029,0.131643,
2,0,0,1,0,14983.8,0.129942,0.129634,-12.4541,8,0.0141077,10,-0.00161448,-1.90469,-0.111428,-0.529491,257.379,0.129634,
2,0,0,1,0,14983.8,0.127945,0.127597,-12.9831,8,0.0139805,10,-0.0016566,-1.88662,-0.113112,-0.521609,264.13,0.127597,
2,0,0,1,0,14983.8,0.125947,0.125635,-13.5103,8,0.0138479,10,-0.00169737,-1.86933,-0.114029,-0.517412,272.88,0.125635,
2,0,0,1,0,14983.8,0.123941,0.123656,-14.0584,8,0.0137101,10,-0.00173841,-1.85206,-0.125701,-0.469367,256.718,0.123656,
2,0,0,1,0,14983.8,0.121943,0.121658,-14.5313,8,0.0135671,10,-0.00176785,-1.8377,-0.13249,-0.445315,252.953,0.121658,
2,0,0,1,0,14983.8,0.119945,0.119685,-15.0629,8,0.013419,10,-0.00180281,-1.82209,-0.13344,-0.442145,259.62,0.119685,
2,0,0,1,0,14983.8,0.117948,0.11765,-15.572,8,0.0132658,10,-0.00183204,-1.80766,-0.145639,-0.40511,245.91,0.11765,
2,0,0,1,0,14983.9,0.115946,0.115649,-16.0554,8,0.0131076,10,-0.0018568,-1.79438,-0.158508,-0.372221,232.905,0.115649,
2,0,0,1,0,14983.9,0.113962,0.113652,-16.503,8,0.0129463,10,-0.00187561,-1.78244,-0.174136,-0.338816,218.03,0.1136522,
2,0,0,1,0,14983.9,0.111964,0.111639,-16.9299,8,0.0127791,10,-0.00189003,-1.77135,-0.186996,-0.315515,208.258,0.1116385,
2,0,0,1,0,14983.9,0.109967,0.109684,-17.3295,8,0.0126077,10,-0.00190077,-1.76121,-0.205075,-0.2877,194.4,0.109684,
2,0,0,1,0,14983.9,0.107969,0.107659,-17.7035,8,0.0124325,10,-0.00190594,-1.75194,-0.230533,-0.255929,176.637,0.1076588,
2,0,0,1,0,14983.9,0.10598,0.105634,-18.0449,8,0.0122554,10,-0.00190615,-1.74365,-0.248874,-0.237068,166.859,0.105634,
2,0,0,1,0,14983.9,0.103983,0.103663,-18.3702,8,0.0120733,10,-0.00190432,-1.73589,-0.273715,-0.215553,154.358,0.103663,
2,0,0,1,0,14983.9,0.101985,0.101672,-18.6564,8,0.011888,10,-0.00189684,-1.72917,-0.310599,-0.189955,138.207,0.101672,
2,0,0,1,0,14983.9,0.0999877,0.0996974,-18.9183,8,0.0117001,10,-0.00188611,-1.72312,-0.346478,-0.170285,125.653,0.0996974,
2,0,0,1,0,14983.9,0.0979811,0.0976594,-19.1606,8,0.0115096,10,-0.00187121,-1.71759,-0.394639,-0.149504,111.684,0.0976594,
2,0,0,1,0,14984,0.0959835,0.0956856,-19.3664,8,0.0113169,10,-0.00185308,-1.71295,-0.496576,-0.118814,89.6674,0.0956856,
2,0,0,1,0,14984,0.0939859,0.0936971,-19.5159,8,0.0111224,10,-0.00182858,-1.70961,-0.625586,-0.0943116,71.8102,0.0936971,
2,0,0,1,0,14984,0.0919883,0.0916755,-19.6543,8,0.0109265,10,-0.00180182,-1.70654,-0.768533,-0.0767696,58.8256,0.0916755,
2,0,0,1,0,14984,0.0899816,0.0896671,-19.753,8,0.0107294,10,-0.00177119,-1.70437,-1.27487,-0.0462792,35.6269,0.0896671,
2,0,0,1,0,14984,0.087984,0.0876742,-19.7969,8,0.0105316,10,-0.00173568,-1.7034,-2.85797,-0.0206441,15.9402,0.0876742,
2,0,0,1,0,14984,0.0859865,0.0856561,-19.8169,8,0.0103335,10,-0.00169744,-1.70296,-39.4872,-0.00149416,1.15454,0.0856561,
2,0,0,1,0,14984,0.0839889,0.0836545,-19.8015,8,0.0101354,10,-0.00165649,-1.7033,2.48054,0.0237851,-18.3614,0.0836545,
2,0,0,1,0,14984,0.0820004,0.0816881,-19.744,8,0.0099396,10,-0.00161285,-1.70456,1.23182,0.0478966,-36.8771,0.0816881,
2,0,0,1,0,14984,0.0800028,0.0796823,-19.6551,8,0.00974263,10,-0.00156616,-1.70653,0.858087,0.0687576,-52.6964,0.07968235,
2,0,0,1,0,14984,0.0780052,0.0776686,-19.5322,8,0.0095467,10,-0.00151704,-1.70925,0.685346,0.0860879,-65.5902,0.0776686,
2,0,0,1,0,14984.1,0.0760076,0.0756462,-19.3903,8,0.00935214,10,-0.0014668,-1.71241,0.570976,0.103332,-78.1475,0.0756462,
2,0,0,1,0,14984.1,0.0740191,0.0737413,-19.2253,8,0.00916106,10,-0.0014177,-1.71613,0.511483,0.115351,-86.5236,0.0737413,
2,0,0,1,0,14984.1,0.0720215,0.0717172,-19.0504,8,0.00896973,10,-0.00136624,-1.7201,0.482581,0.122259,-90.8548,0.0717172,
2,0,0,1,0,14984.1,0.0700239,0.0697086,-18.8589,8,0.00878019,10,-0.00131463,-1.72448,0.454695,0.129757,-95.4931,0.0697086,
2,0,0,1,0,14984.1,0.0680263,0.0676845,-18.6653,8,0.00859261,10,-0.00126335,-1.72897,0.479733,0.122985,-89.6526,0.0676845,
2,0,0,1,0,14984.1,0.0660197,0.0657003,-18.4996,8,0.00840686,10,-0.00121543,-1.73284,0.49133,0.120082,-86.662,0.0657003,
2,0,0,1,0,14984.1,0.0640221,0.0637005,-18.32,8,0.00822283,10,-0.00116699,-1.73707,0.448547,0.131536,-94.0029,0.0637005,
2,0,0,1,0,14984.1,0.0620245,0.0617206,-18.1255,8,0.00804064,10,-0.00111872,-1.74171,0.481047,0.122649,-86.8487,0.0617206,
2,0,0,1,0,14984.1,0.0600269,0.0596618,-17.9693,8,0.00786022,10,-0.00107208,-1.74547,0.534072,0.110472,-77.4739,0.0596618,
2,0,0,1,0,14984.1,0.0580248,0.0577097,-17.8147,8,0.00768131,10,-0.00102808,-1.74922,0.556228,0.106072,-73.7791,0.0577097,
2,0,0,1,0,14984.2,0.0560227,0.0556968,-17.6767,8,0.00750387,10,-0.000984538,-1.7526,0.565759,0.104285,-71.9178,0.0556968,
2,0,0,1,0,14984.2,0.0540251,0.0537126,-17.5273,8,0.00732787,10,-0.000941436,-1.75629,0.611602,0.096468,-66.05,0.0537126,
2,0,0,1,0,14984.2,0.0520275,0.051685,-17.4117,8,0.00715318,10,-0.000899927,-1.75916,0.615696,0.0958265,-65.0558,0.051685,
2,0,0,1,0,14984.2,0.0500299,0.0496713,-17.2644,8,0.00697976,10,-0.000857543,-1.76285,0.645722,0.0913706,-61.649,0.0496713,
2,0,0,1,0,14984.2,0.0480414,0.0476936,-17.1657,8,0.00680932,10,-0.000818693,-1.76534,0.703679,0.0838451,-56.1263,0.0476936,
2,0,0,1,0,14984.2,0.0460438,0.045691,-17.041,8,0.00663829,10,-0.000778619,-1.76851,0.665735,0.0886239,-58.966,0.045691,
2,0,0,1,0,14984.2,0.0440462,0.0437298,-16.932,8,0.00646846,10,-0.000740431,-1.77129,0.634999,0.0929136,-61.3555,0.0437298,
2,0,0,1,0,14984.2,0.0420486,0.0417702,-16.8004,8,0.00629985,10,-0.000701755,-1.77468,0.70194,0.0840528,-55.18,0.0417702,
2,0,0,1,0,14984.2,0.0400601,0.0397363,-16.7116,8,0.00613398,10,-0.000664058,-1.77698,0.736916,0.0800634,-52.1623,0.0397363,
2,0,0,1,0,14984.2,0.0380625,0.0376966,-16.5879,8,0.00596747,10,-0.000625308,-1.78021,0.650127,0.0907515,-58.7691,0.0376966,
2,0,0,1,0,14984.3,0.036065,0.0357185,-16.4755,8,0.00580222,10,-0.000588478,-1.78316,0.637856,0.0924974,-59.4556,0.0357185,
2,0,0,1,0,14984.3,0.0340674,0.0337473,-16.3531,8,0.00563804,10,-0.000551873,-1.7864,0.661476,0.0891945,-56.9562,0.0337473,
2,0,0,1,0,14984.3,0.0320607,0.0317466,-16.2492,8,0.00547504,10,-0.000515858,-1.78917,0.634706,0.0929564,-58.8969,0.0317466,
2,0,0,1,0,14984.3,0.0300631,0.0297433,-16.1173,8,0.00531318,10,-0.000479381,-1.79271,0.583033,0.101195,-63.6684,0.0297433,
2,0,0,1,0,14984.3,0.0280655,0.02774,-15.9941,8,0.00515265,10,-0.000443677,-1.79604,0.576115,0.10241,-63.9075,0.02774,
2,0,0,1,0,14984.3,0.0260679,0.025767,-15.8632,8,0.00499332,10,-0.000408747,-1.79961,0.574182,0.102755,-63.6284,0.025767,
2,0,0,1,0,14984.3,0.0240613,0.0237429,-15.7398,8,0.00483536,10,-0.000373709,-1.803,0.529489,0.111428,-68.3788,0.0237429,
2,0,0,1,0,14984.3,0.0220637,0.0217084,-15.5856,8,0.00467872,10,-0.000338339,-1.80728,0.485138,0.121615,-73.9961,0.0217084,
2,0,0,1,0,14984.3,0.0200661,0.0197181,-15.442,8,0.00452361,10,-0.000304487,-1.8113,0.455888,0.129418,-77.9318,0.0197181,
2,0,0,1,0,14984.3,0.0180685,0.0177191,-15.2748,8,0.00436994,10,-0.000270655,-1.81603,0.455569,0.129508,-77.2733,0.0177191,
2,0,0,1,0,14984.4,0.01608,0.0157613,-15.1362,8,0.0042195,10,-0.000238567,-1.81998,0.448156,0.13165,-77.6799,0.0157613,
2,0,0,1,0,14984.4,0.0140824,0.0137221,-14.9643,8,0.004069,10,-0.000205342,-1.82494,0.396198,0.148915,-86.9514,0.0137221,
2,0,0,1,0,14984.4,0.0120848,0.0117562,-14.788,8,0.00392025,10,-0.00017385,-1.83009,0.380633,0.155005,-89.4483,0.0117562,
2,0,0,1,0,14984.4,0.0100872,0.00976153,-14.61,8,0.00377327,10,-0.000142616,-1.83535,0.391019,0.150888,-86.0691,0.00976153,
2,0,0,1,0,14984.4,0.00810328,0.00777551,-14.4454,8,0.00362955,10,-0.00011232,-1.84027,0.391364,0.150755,-84.9581,0.00777551,
2,0,0,1,0,14984.4,0.00610116,0.00577741,-14.2715,8,0.00348593,10,-8.24524e-05,-1.84553,0.369751,0.159567,-88.8533,0.00577741,
2,0,0,1,0,14984.4,0.00410357,0.00380188,-14.0923,8,0.0033442,10,-5.35772e-05,-1.85102,0.4556,0.129499,-71.3964,0.00380188,
2,0,0,1,0,14984.4,0.00210598,0.00173784,-13.9831,8,0.003204,10,-2.43004e-05,-1.8544,0.466487,0.126477,-68.8617,0.001737842,
2,0,0,1,0,14984.4,0.00010174,-0.000292355,-13.8104,8,0.00306514,10,4.03753e-06,-1.85979,0.37624,0.156815,-84.5344,-0.000292355,
2,0,0,1,0,14984.4,-0.00189827,-0.00227397,-13.644,8,0.00292782,10,3.10259e-05,-1.86506,0.392178,0.150442,-80.153,-0.00227397,
2,0,0,1,0,14984.5,-0.00389586,-0.00423562,-13.4943,8,0.00279219,10,5.71568e-05,-1.86985,0.431274,0.136804,-72.074,-0.00423562,
2,0,0,1,0,14984.5,-0.00589345,-0.00627016,-13.3559,8,0.00265791,10,8.37439e-05,-1.87433,0.460518,0.128117,-66.7945,-0.00627016,
2,0,0,1,0,14984.5,-0.00789103,-0.00827606,-13.2244,8,0.00252503,10,0.000109446,-1.87862,0.528554,0.111625,-57.6773,-0.008276063,
2,0,0,1,0,14984.5,-0.0098977,-0.0102889,-13.1242,8,0.00239322,10,0.000135033,-1.88193,0.626904,0.0941132,-48.218,-0.0102889,
2,0,0,1,0,14984.5,-0.0118953,-0.0122714,-13.0318,8,0.00226247,10,0.000159918,-1.885,0.600012,0.0983313,-49.9831,-0.0122714,
2,0,0,1,0,14984.5,-0.0138929,-0.0142582,-12.9258,8,0.00213262,10,0.000184298,-1.88854,0.657615,0.0897182,-45.3153,-0.0142582,
2,0,0,1,0,14984.5,-0.0158905,-0.0162259,-12.8526,8,0.00200377,10,0.000208545,-1.89101,0.940767,0.0627148,-31.4807,-0.0162259,
2,0,0,1,0,14984.5,-0.017879,-0.0182968,-12.7986,8,0.00187671,10,0.000234174,-1.89284,1.17381,0.0502638,-25.1126,-0.0182968,
2,0,0,1,0,14984.5,-0.0198766,-0.0202612,-12.7512,8,0.00174902,10,0.000258356,-1.89445,1.09962,0.0536551,-26.6909,-0.0202612,
2,0,0,1,0,14984.5,-0.0218741,-0.0222034,-12.6944,8,0.00162183,10,0.000281857,-1.89639,1.40133,0.0421028,-20.8839,-0.0222034,
2,0,0,1,0,14984.6,-0.0238717,-0.0242338,-12.6683,8,0.0014951,10,0.000307001,-1.89728,2.93154,0.020126,-9.95506,-0.02423379,
2,0,0,1,0,14984.6,-0.0258602,-0.026232,-12.6542,8,0.00136973,10,0.000331947,-1.89776,2.51348,0.0234734,-11.5842,-0.026232,
2,0,0,1,0,14984.6,-0.0278578,-0.0282136,-12.6222,8,0.00124343,10,0.000356118,-1.89887,3.09255,0.0190781,-9.40768,-0.0282136,
2,0,0,1,0,14984.6,-0.0298554,-0.0302716,-12.6162,8,0.00111721,10,0.000381914,-1.89907,55.5483,0.00106214,-0.523171,-0.0302716,
2,0,0,1,0,14984.6,-0.031853,-0.0322194,-12.6201,8,0.000991087,10,0.000406611,-1.89894,-18.2135,-0.00323936,1.59537,-0.0322194,
2,0,0,1,0,14984.6,-0.0338597,-0.0342314,-12.6226,8,0.000864833,10,0.000432087,-1.89885,-6.04042,-0.00976753,4.81444,-0.0342314,
2,0,0,1,0,14984.6,-0.0358573,-0.0362668,-12.6396,8,0.000738528,10,0.000458396,-1.89827,-2.82168,-0.0209095,10.3173,-0.0362668,
2,0,0,1,0,14984.6,-0.0378549,-0.0382371,-12.6639,8,0.000611949,10,0.00048423,-1.89743,-3.03552,-0.0194365,9.60202,-0.0382371,
2,0,0,1,0,14984.6,-0.0398524,-0.0402005,-12.6773,8,0.000485265,10,0.000509635,-1.89697,-2.00076,-0.0294888,14.608,-0.0402005,
2,0,0,1,0,14984.6,-0.0418591,-0.0422506,-12.7225,8,0.000358242,10,0.000537534,-1.89543,-1.5014,-0.0392968,19.5025,-0.0422506,
2,0,0,1,0,14984.7,-0.0438567,-0.0442296,-12.7559,8,0.000230869,10,0.00056419,-1.89429,-1.77796,-0.0331842,16.519,-0.0442296,
2,0,0,1,0,14984.7,-0.0458543,-0.0462165,-12.788,8,0.000103031,10,0.000591017,-1.8932,-1.4789,-0.0398946,19.9222,-0.0462165,
2,0,0,1,0,14984.7,-0.0478519,-0.0482146,-12.8353,8,-2.5087e-05,10,0.000618849,-1.89159,-1.08359,-0.0544489,27.2922,-0.0482146,
2,0,0,1,0,14984.7,-0.0498585,-0.0502942,-12.8993,8,-0.000153763,10,0.000648761,-1.88943,-1.01719,-0.0580031,29.188,-0.0502942,
2,0,0,1,0,14984.7,-0.051838,-0.0522444,-12.9529,8,-0.000281716,10,0.000676719,-1.88763,-1.04484,-0.056468,28.5488,-0.0522444,
2,0,0,1,0,14984.7,-0.0538355,-0.0541667,-13.0099,8,-0.000411518,10,0.000704702,-1.88573,-0.979899,-0.0602103,30.5795,-0.0541667,
2,0,0,1,0,14984.7,-0.0558331,-0.0562154,-13.0744,8,-0.000541889,10,0.000734981,-1.88358,-0.936242,-0.0630179,32.1543,-0.0562154,
2,0,0,1,0,14984.7,-0.0578126,-0.0581669,-13.1385,8,-0.000671639,10,0.000764225,-1.88145,-0.908223,-0.064962,33.3151,-0.0581669,
2,0,0,1,0,14984.7,-0.0598192,-0.0602031,-13.2072,8,-0.000803359,10,0.000795116,-1.87919,-0.809532,-0.0728817,37.5841,-0.0602031,
2,0,0,1,0,14984.7,-0.0618168,-0.0621726,-13.289,8,-0.000935857,10,0.000826215,-1.87651,-0.783914,-0.0752634,39.0194,-0.0621726,
2,0,0,1,0,14984.8,-0.0638144,-0.0641534,-13.3614,8,-0.00106908,10,0.000857176,-1.87415,-0.808545,-0.0729706,38.0631,-0.0641534,
2,0,0,1,0,14984.8,-0.065812,-0.0662096,-13.4427,8,-0.00120315,10,0.000890036,-1.87151,-0.72454,-0.081431,42.7395,-0.06620957,
2,0,0,1,0,14984.8,-0.0678187,-0.0682441,-13.5362,8,-0.00133805,10,0.000923765,-1.8685,-0.670159,-0.0880387,46.5023,-0.0682441,
2,0,0,1,0,14984.8,-0.0698163,-0.0701589,-13.6264,8,-0.00147388,10,0.000956011,-1.86562,-0.714423,-0.0825842,43.9056,-0.0701589,
2,0,0,1,0,14984.8,-0.0718138,-0.0721874,-13.7093,8,-0.00161055,10,0.00098964,-1.86298,-0.671628,-0.0878462,47.0375,-0.0721874,
2,0,0,1,0,14984.8,-0.0738114,-0.0741534,-13.8143,8,-0.00174822,10,0.00102437,-1.85967,-0.575909,-0.102447,55.2486,-0.0741534,
2,0,0,1,0,14984.8,-0.0758181,-0.0761489,-13.9282,8,-0.00188696,10,0.00106062,-1.85611,-0.623629,-0.0946076,51.3882,-0.07614886,
2,0,0,1,0,14984.8,-0.0778157,-0.0781973,-14.0221,8,-0.00202682,10,0.00109649,-1.85319,-0.614409,-0.0960272,52.5979,-0.0781973,
2,0,0,1,0,14984.8,-0.0798133,-0.0802179,-14.1422,8,-0.00216763,10,0.00113446,-1.84948,-0.539402,-0.10938,60.369,-0.0802179,
2,0,0,1,0,14984.8,-0.0818109,-0.0821822,-14.2626,8,-0.00230968,10,0.00117213,-1.8458,-0.531113,-0.111088,61.8426,-0.0821822,
2,0,0,1,0,14984.9,-0.0837994,-0.0841863,-14.3876,8,-0.00245148,10,0.00121124,-1.84201,-0.530496,-0.111217,62.4401,-0.0841863,
2,0,0,1,0,14984.9,-0.0857969,-0.0861348,-14.5094,8,-0.00259598,10,0.00124977,-1.83835,-0.521522,-0.113131,64.0857,-0.0861348,
2,0,0,1,0,14984.9,-0.0877945,-0.0881739,-14.6432,8,-0.00274171,10,0.00129115,-1.83436,-0.505766,-0.116655,66.6704,-0.0881739,
2,0,0,1,0,14984.9,-0.0897921,-0.0901916,-14.7799,8,-0.00288885,10,0.00133302,-1.83033,-0.482581,-0.122259,70.531,-0.09019164,
2,0,0,1,0,14984.9,-0.0917806,-0.0921241,-14.9218,8,-0.00303581,10,0.00137466,-1.82618,-0.47465,-0.124302,72.3807,-0.09212409,
2,0,0,1,0,14984.9,-0.0937782,-0.0940857,-15.0618,8,-0.00318578,10,0.0014171,-1.82212,-0.49155,-0.120029,70.5619,-0.0940857,
2,0,0,1,0,14984.9,-0.0957758,-0.0961498,-15.2058,8,-0.00333709,10,0.00146204,-1.81799,-0.507945,-0.116154,68.9107,-0.09614978,
2,0,0,1,0,14984.9,-0.0977734,-0.0981557,-15.3422,8,-0.00348989,10,0.00150593,-1.81411,-0.459836,-0.128307,76.9032,-0.0981557,
2,0,0,1,0,14984.9,-0.0997412,-0.100117,-15.5109,8,-0.00364103,10,0.00155291,-1.80936,0.0960923,0.613993,-359.253,-0.100117,
2,0,0,1,1,14984.9,-0.0996711,-0.100088,-14.6481,8,-0.00368648,10,0.0014661,-1.83422,-0.0130054,-4.53659,2300.23,-0.100088,
2,0,0,1,1,14984.9,-0.0976826,-0.0980524,-10.7619,8,-0.00381025,10,0.00105523,-1.96811,-0.0152347,-3.87273,1661.07,-0.0980524,
2,0,0,1,1,14985,-0.095685,-0.0960848,-7.99884,8,-0.00390315,10,0.000768568,-2.09697,-0.0147569,-3.99812,1248.25,-0.0960848,
2,0,0,1,1,14985,-0.0936874,-0.0940425,-5.75646,8,-0.00397135,10,0.000541352,-2.23984,-0.0130295,-4.52819,1007.7,-0.0940425,
2,0,0,1,1,14985,-0.0916898,-0.0920113,-3.89392,8,-0.00401911,10,0.000358285,-2.40961,-0.00992714,-5.9433,873.418,-0.0920113,
2,0,0,1,1,14985,-0.0897013,-0.0900817,-2.29706,8,-0.00404938,10,0.000206923,-2.63883,-0.00623913,-9.45645,761.92,-0.0900817,
2,0,0,1,1,14985,-0.0877037,-0.0881131,-0.923836,8,-0.00406516,10,8.14021e-05,-3.03441,-0.00440165,-13.4041,655.499,-0.0881131,
2,1,0,1,1,14985,-0.0857062,-0.0861333,0.291158,8,-0.00406802,10,-2.50784e-05,-3.53587,0.0245959,2.39878,562.973,-0.0861333,
2,1,0,1,1,14985,-0.0837086,-0.0840779,1.3479,8,-0.00405952,10,-0.000113328,-2.87034,0.00449124,13.1367,499.26,-0.0840779,
2,1,0,1,1,14985,-0.0817019,-0.0820963,2.30666,8,-0.00404104,10,-0.000189368,-2.63702,0.0109173,5.40425,446.087,-0.0820963,
2,1,0,1,1,14985,-0.0797043,-0.0800843,3.12938,8,-0.00401364,10,-0.000250614,-2.50454,0.0175329,3.36509,397.378,-0.0800843,
2,1,0,1,1,14985,-0.0777067,-0.0781348,3.88086,8,-0.0039784,10,-0.000303231,-2.41107,0.0244917,2.40898,356.852,-0.0781348,
2,1,0,1,1,14985.1,-0.0757091,-0.076102,4.55048,8,-0.00393608,10,-0.0003463,-2.34194,0.0321285,1.83637,322.588,-0.076102,
2,1,0,1,1,14985.1,-0.0737025,-0.0740944,5.18427,8,-0.00388727,10,-0.000384125,-2.28531,0.0403446,1.4624,291.861,-0.0740944,
2,1,0,1,1,14985.1,-0.0717049,-0.0720885,5.72187,8,-0.00383258,10,-0.000412481,-2.24246,0.0508416,1.16047,257.314,-0.0720885,
2,1,0,1,1,14985.1,-0.0697073,-0.0701095,6.20964,8,-0.00377281,10,-0.000435354,-2.20693,0.0605042,0.975139,235.158,-0.0701095,
2,1,0,1,1,14985.1,-0.0677097,-0.0680984,6.66018,8,-0.00370833,10,-0.000453547,-2.17651,0.0706537,0.835059,216.209,-0.0680984,
2,1,0,1,1,14985.1,-0.0657212,-0.0660939,7.07784,8,-0.00364029,10,-0.000467802,-2.1501,0.084607,0.697342,191.493,-0.0660939,
2,1,0,1,1,14985.1,-0.0637236,-0.0640977,7.42628,8,-0.00356771,10,-0.000476007,-2.12923,0.100044,0.58974,170.614,-0.0640977,
2,1,0,1,1,14985.1,-0.061726,-0.0621046,7.75846,8,-0.00349176,10,-0.000481836,-2.11022,0.114696,0.514402,155.249,-0.0621046,
2,1,0,1,1,14985.1,-0.0597284,-0.0600893,8.04857,8,-0.00341263,10,-0.000483633,-2.09428,0.129715,0.454842,142.616,-0.0600893,
2,1,0,1,1,14985.1,-0.0577399,-0.058192,8.31646,8,-0.00333162,10,-0.000483952,-2.08006,0.150619,0.391717,126.856,-0.058192,
2,1,0,1,1,14985.2,-0.0557423,-0.0561158,8.55263,8,-0.00324718,10,-0.000479938,-2.0679,0.175831,0.33555,111.884,-0.05611584,
2,1,0,1,1,14985.2,-0.0537447,-0.0540935,8.77503,8,-0.0031605,10,-0.000474672,-2.05675,0.204739,0.288172,98.3855,-0.05409345,
2,1,0,1,1,14985.2,-0.0517472,-0.0521118,8.94657,8,-0.00307178,10,-0.000466222,-2.04834,0.224145,0.263223,92.0286,-0.0521118,
2,1,0,1,1,14985.2,-0.049745,-0.0500782,9.14455,8,-0.00298132,10,-0.000457942,-2.03884,0.23893,0.246935,87.8894,-0.0500782,
2,1,0,1,1,14985.2,-0.0477429,-0.0481417,9.29551,8,-0.00288901,10,-0.000447501,-2.03173,0.286322,0.206061,74.7185,-0.0481417,
2,1,0,1,1,14985.2,-0.0457453,-0.046134,9.43925,8,-0.0027953,10,-0.000435471,-2.02506,0.339492,0.173789,63.9181,-0.04613404,
2,1,0,1,1,14985.2,-0.0437477,-0.0441012,9.55376,8,-0.00270028,10,-0.000421333,-2.01983,0.377926,0.156115,58.2182,-0.0441012,
2,1,0,1,1,14985.2,-0.0417501,-0.0421266,9.67256,8,-0.00260411,10,-0.000407472,-2.01446,0.40893,0.144279,54.406,-0.04212657,
2,1,0,1,1,14985.2,-0.0397435,-0.0400972,9.7716,8,-0.00250678,10,-0.000391814,-2.01003,0.48176,0.122467,46.6775,-0.04009724,
2,1,0,1,1,14985.2,-0.0377459,-0.0381035,9.86034,8,-0.00240864,10,-0.000375713,-2.00611,0.5702,0.103473,39.7749,-0.03810348,
2,1,0,1,1,14985.3,-0.0357483,-0.0361635,9.92807,8,-0.00230966,10,-0.000359034,-2.00314,0.64003,0.0921832,35.7284,-0.0361635,
2,1,0,1,1,14985.3,-0.0337507,-0.0341325,10.0022,8,-0.00221,10,-0.0003414,-1.9999,0.741302,0.0795897,31.0313,-0.0341325,
2,1,0,1,1,14985.3,-0.0317622,-0.0321431,10.0528,8,-0.00211068,10,-0.000323129,-1.99771,0.830661,0.0710277,27.8802,-0.0321431,
2,1,0,1,1,14985.3,-0.0297646,-0.030135,10.1137,8,-0.0020099,10,-0.000304775,-1.99509,1.0545,0.0559508,22.0474,-0.030135,
2,1,0,1,1,14985.3,-0.027767,-0.0281427,10.141,8,-0.00190863,10,-0.000285396,-1.99392,1.5311,0.0385343,15.2557,-0.0281427,
2,1,0,1,1,14985.3,-0.0257694,-0.0261187,10.1749,8,-0.00180709,10,-0.000265756,-1.99247,1.70273,0.0346502,13.751,-0.0261187,
2,1,0,1,1,14985.3,-0.0237809,-0.0241177,10.1964,8,-0.0017062,10,-0.000245913,-1.99155,1.58762,0.0371626,14.7996,-0.0241177,
2,1,0,1,1,14985.3,-0.0217833,-0.0221578,10.2336,8,-0.00160403,10,-0.000226753,-1.98997,2.28556,0.0258142,10.2929,-0.0221578,
2,1,0,1,1,14985.3,-0.0197858,-0.0201475,10.2372,8,-0.00150163,10,-0.000206255,-1.98982,4.33656,0.0136052,5.4395,-0.0201475,
2,1,0,1,1,14985.3,-0.0177882,-0.0181503,10.2554,8,-0.00139919,10,-0.000186138,-1.98905,2.53297,0.0232928,9.323,-0.0181503,
2,1,0,1,1,14985.4,-0.0157815,-0.0161565,10.2744,8,-0.00129654,10,-0.000165999,-1.98824,5.30568,0.0111202,4.45454,-0.0161565,
2,1,0,1,1,14985.4,-0.0137839,-0.0141524,10.2732,8,-0.00119379,10,-0.00014539,-1.9883,-20.8007,-0.00283644,-1.1371,-0.0141524,
2,1,0,1,1,14985.4,-0.0117863,-0.0121135,10.2698,8,-0.00109103,10,-0.000124404,-1.98844,6.63647,0.00889026,3.56683,-0.0121135,
2,1,0,1,1,14985.4,-0.00978874,-0.0101726,10.2874,8,-0.000988245,10,-0.00010465,-1.9877,3.77943,0.0156108,6.26443,-0.0101726,
2,1,0,1,1,14985.4,-0.00778208,-0.00812597,10.2948,8,-0.000885347,10,-8.36554e-05,-1.98738,6690.1,8.819e-06,0.00354069,-0.00812597,
2,1,0,1,1,14985.4,-0.00578449,-0.00617385,10.2874,8,-0.000782496,10,-6.35128e-05,-1.9877,-8.81036,-0.00669666,-2.68917,-0.00617385,
2,1,0,1,1,14985.4,-0.0037869,-0.00420179,10.2843,8,-0.000679608,10,-4.32123e-05,-1.98783,-53.0548,-0.00111206,-0.446435,-0.00420179,
2,1,0,1,1,14985.4,-0.00178931,-0.00219241,10.2856,8,-0.000576768,10,-2.25503e-05,-1.98777,-11.2458,-0.0052464,-2.10488,-0.00219241,
2,1,0,1,1,14985.4,-2.55332e-05,-0.000363498,10.2762,8,-0.000487271,10,-3.73538e-06,-1.98817, , , ,-0.000363498,