File: Figure_codes/Fig_3-5/rawdata_trumpetplot_data/after 10th/20221101_1-115_003_TrumpetPlot_ParaChange_from10_every3_06_CV_C01_13.csv
mode,ox/red,error,control changes,counter inc.,time/s,control/V,Ewe/V,<I>/mA,cycle number,(Q-Qo)/C,I Range,P/W,log(|I|),Tafel slope mV/dec,alpha_eff,dI/d(E-IR),E-IR/V,
2,0,0,0,0,26761.7,2.44065e-05,-0.000401673,-1.42043,14,0.0000000E+000,10,5.70549e-07,-2.84758, , , ,-0.000401673,
2,0,0,1,0,26761.7,0.00129787,0.000915693,-0.185192,14,-2.10236e-05,10,-1.69579e-07,-3.73238, , , ,0.000915693,
2,1,0,1,0,26761.8,0.00279427,0.00250164,0.52575,14,-1.26805e-05,10,1.31524e-06,-3.27922,0.0159054,3.70942,375.981,0.00250164,
2,1,0,1,0,26761.8,0.00429425,0.00395409,0.883271,14,1.50021e-05,10,3.49253e-06,-3.05391,0.00755517,7.80922,204.228,0.00395409,
2,1,0,1,0,26761.9,0.00579422,0.00548693,1.10527,14,5.33989e-05,10,6.06457e-06,-2.95653,0.0185448,3.18149,127.493,0.00548693,
2,1,0,1,0,26761.9,0.00729063,0.0069674,1.2588,14,9.84759e-05,10,8.77058e-06,-2.90004,0.0314731,1.87462,89.0745,0.0069674,
2,1,0,1,0,26761.9,0.00878703,0.00847035,1.37595,14,0.000148437,10,1.16547e-05,-2.8614,0.0465463,1.26756,66.3376,0.00847035,
2,1,0,1,0,26762,0.010287,0.00997145,1.46382,14,0.000202196,10,1.45964e-05,-2.83451,0.0653381,0.902995,50.4835,0.00997145,
2,1,0,1,0,26762,0.011787,0.0114858,1.52877,14,0.000258751,10,1.75591e-05,-2.81566,0.0818736,0.720623,42.3617,0.0114858,
2,1,0,1,0,26762,0.0132825,0.0129548,1.57779,14,0.000317301,10,2.04401e-05,-2.80195,0.0999566,0.590256,36.2733,0.0129548,
2,1,0,1,0,26762.1,0.014778,0.0144396,1.62878,14,0.000377913,10,2.35189e-05,-2.78814,0.112287,0.525441,33.329,0.0144396,
2,1,0,1,0,26762.1,0.0162816,0.0159955,1.67221,14,0.000440766,10,2.67478e-05,-2.77671,0.134099,0.439972,28.6696,0.0159955,
2,1,0,1,0,26762.2,0.017778,0.0174818,1.71394,14,0.000504892,10,2.99628e-05,-2.766,0.153839,0.383519,25.7212,0.01748178,
2,1,0,1,0,26762.2,0.0192744,0.018965,1.75372,14,0.000570422,10,3.32592e-05,-2.75604,0.158116,0.373145,25.5497,0.018965,
2,1,0,1,0,26762.2,0.0207743,0.0204413,1.79455,14,0.000637615,10,3.6683e-05,-2.74604,0.157502,0.3746,26.1473,0.0204413,
2,1,0,1,0,26762.3,0.0222743,0.0219572,1.83335,14,0.000706243,10,4.02553e-05,-2.73676,0.168091,0.351,25.0078,0.0219572,
2,1,0,1,0,26762.3,0.0237707,0.0234745,1.8705,14,0.000776105,10,4.39092e-05,-2.72804,0.183329,0.321826,23.4212,0.0234745,
2,1,0,1,0,26762.3,0.0252671,0.024918,1.90202,14,0.000847235,10,4.73945e-05,-2.72079,0.186299,0.316694,23.5369,0.024918,
2,1,0,1,0,26762.4,0.0267671,0.0264768,1.93723,14,0.000919913,10,5.12917e-05,-2.71282,0.176407,0.334453,25.3513,0.0264768,
2,1,0,1,0,26762.4,0.0282671,0.0279832,1.97566,14,0.000993964,10,5.52853e-05,-2.70429,0.180457,0.326947,25.2465,0.0279832,
2,1,0,1,0,26762.5,0.0297626,0.0294517,2.01234,14,0.00106924,10,5.92671e-05,-2.6963,0.202022,0.292048,22.9287,0.0294517,
2,1,0,1,0,26762.5,0.0312581,0.0309404,2.04201,14,0.00114577,10,6.31805e-05,-2.68994,0.208052,0.283582,22.6456,0.0309404,
2,1,0,1,0,26762.5,0.0327616,0.0324904,2.08075,14,0.00122391,10,6.76044e-05,-2.68178,0.197915,0.298107,24.2264,0.03249038,
2,1,0,1,0,26762.6,0.034258,0.033948,2.12269,14,0.00130308,10,7.2061e-05,-2.67311,0.195468,0.30184,24.9218,0.033948,
2,1,0,1,0,26762.6,0.0357545,0.0354187,2.15431,14,0.00138366,10,7.63029e-05,-2.66669,0.219717,0.268527,22.5197,0.0354187,
2,1,0,1,0,26762.6,0.0372544,0.0369321,2.1869,14,0.00146581,10,8.07668e-05,-2.66017,0.212227,0.278004,23.7739,0.0369321,
2,1,0,1,0,26762.7,0.0387544,0.0384487,2.2234,14,0.00154916,10,8.54868e-05,-2.65298,0.216442,0.272591,23.7028,0.0384487,
2,1,0,1,0,26762.7,0.0402508,0.0399557,2.25844,14,0.00163367,10,9.02375e-05,-2.64619,0.212993,0.277004,24.4762,0.0399557,
2,1,0,1,0,26762.8,0.0417472,0.041444,2.30001,14,0.00171962,10,9.53216e-05,-2.63827,0.228035,0.258732,23.1908,0.041444,
2,1,0,1,0,26762.8,0.0432472,0.0429438,2.33458,14,0.00180719,10,0.000100256,-2.63179,0.245866,0.239968,21.8346,0.0429438,
2,1,0,1,0,26762.8,0.0447472,0.0444164,2.36516,14,0.00189591,10,0.000105052,-2.62614,0.241823,0.24398,22.5601,0.0444164,
2,1,0,1,0,26762.9,0.0462427,0.045981,2.40504,14,0.00198574,10,0.000110586,-2.61888,0.225064,0.262147,24.5349,0.04598102,
2,1,0,1,0,26762.9,0.0477382,0.0473836,2.44043,14,0.00207694,10,0.000115636,-2.61253,0.229928,0.256602,24.3825,0.0473836,
2,1,0,1,0,26762.9,0.0492417,0.048915,2.47047,14,0.0021699,10,0.000120843,-2.60722,0.266338,0.221523,21.3557,0.048915,
2,1,0,1,0,26763,0.0507381,0.0504376,2.49824,14,0.00226359,10,0.000126005,-2.60237,0.269795,0.218685,21.3841,0.05043757,
2,1,0,1,0,26763,0.0522345,0.0519306,2.53418,14,0.00235844,10,0.000131602,-2.59616,0.257277,0.229325,22.7362,0.0519306,
2,1,0,1,0,26763.1,0.0537345,0.0533986,2.56959,14,0.00245487,10,0.000137212,-2.59014,0.26564,0.222105,22.2894,0.0533986,
2,1,0,1,0,26763.1,0.0552345,0.0549096,2.60646,14,0.00255263,10,0.00014312,-2.58395,0.287708,0.205069,20.8104,0.05490962,
2,1,0,1,0,26763.1,0.0567309,0.0564381,2.6339,14,0.00265129,10,0.000148652,-2.5794,0.296505,0.198985,20.4463,0.0564381,
2,1,0,1,0,26763.2,0.0582273,0.057877,2.66951,14,0.00275099,10,0.000154503,-2.57357,0.31707,0.186079,19.3543,0.057877,
2,1,0,1,0,26763.2,0.0597309,0.0594458,2.69843,14,0.00285249,10,0.00016041,-2.56889,0.278269,0.212025,22.2916,0.0594458,
2,1,0,1,0,26763.2,0.0612264,0.0609078,2.72906,14,0.00295461,10,0.000166221,-2.56399,0.333623,0.176847,18.8098,0.0609078,
2,1,0,1,0,26763.3,0.0627219,0.0624123,2.75617,14,0.00305787,10,0.000172019,-2.55969,0.351833,0.167693,18.0458,0.0624123,
2,1,0,1,0,26763.3,0.0642218,0.0638981,2.7794,14,0.00316237,10,0.000177599,-2.55605,0.340668,0.173189,18.8619,0.0638981,
2,1,0,1,0,26763.4,0.0657218,0.0654094,2.80941,14,0.00326796,10,0.000183761,-2.55139,0.329533,0.179041,19.6698,0.0654094,
2,1,0,1,0,26763.4,0.0672182,0.0668615,2.84725,14,0.00337451,10,0.000190371,-2.54557,0.328361,0.17968,19.906,0.0668615,
2,1,0,1,0,26763.4,0.0687146,0.0684357,2.87465,14,0.00348213,10,0.000196729,-2.54141,0.380157,0.155199,17.3739,0.0684357,
2,1,0,1,0,26763.5,0.0702146,0.0698631,2.89812,14,0.00359086,10,0.000202472,-2.53788,0.397734,0.14834,16.7601,0.0698631,
2,1,0,1,0,26763.5,0.0717146,0.0714123,2.92291,14,0.00370056,10,0.000208732,-2.53418,0.388747,0.15177,17.2824,0.0714123,
2,1,0,1,0,26763.5,0.073211,0.0729425,2.94454,14,0.00381092,10,0.000214782,-2.53098,0.436271,0.135237,15.5603,0.07294254,
2,1,0,1,0,26763.6,0.0747074,0.0743707,2.96455,14,0.00392215,10,0.000220476,-2.52804,0.477149,0.123651,14.3265,0.0743707,
2,1,0,1,0,26763.6,0.0762109,0.07589,2.98334,14,0.0040348,10,0.000226406,-2.5253,0.462583,0.127545,14.9011,0.07589,
2,1,0,1,0,26763.7,0.0777064,0.0774005,3.00763,14,0.00414761,10,0.000232792,-2.52178,0.408607,0.144393,16.9929,0.0774005,
2,1,0,1,0,26763.7,0.079202,0.0789119,3.03841,14,0.00426132,10,0.000239767,-2.51735,0.460826,0.128031,15.1581,0.07891193,
2,1,0,1,0,26763.7,0.0807019,0.0804227,3.06066,14,0.00437627,10,0.000246146,-2.51419,0.546934,0.107874,12.8397,0.0804227,
2,1,0,1,0,26763.8,0.0822019,0.0818821,3.07381,14,0.00449195,10,0.00025169,-2.51232,0.544785,0.1083,12.9822,0.0818821,
2,1,0,1,0,26763.8,0.0836983,0.0833978,3.09396,14,0.00460793,10,0.000258029,-2.50949,0.510114,0.115661,13.978,0.0833978,
2,1,0,1,0,26763.8,0.0851947,0.0848735,3.11311,14,0.00472471,10,0.00026422,-2.50681,0.521538,0.113127,13.763,0.0848735,
2,1,0,1,0,26763.9,0.0866947,0.0863956,3.1356,14,0.00484263,10,0.000270902,-2.50368,0.536999,0.10987,13.4537,0.0863956,
2,1,0,1,0,26763.9,0.0881947,0.0879162,3.15742,14,0.00496129,10,0.000277588,-2.50067,0.485531,0.121516,15.0116,0.0879162,
2,1,0,1,0,26764,0.0896911,0.0893902,3.18196,14,0.00508039,10,0.000284436,-2.49731,0.402418,0.146614,18.2488,0.0893902,
2,1,0,1,0,26764,0.0911875,0.0909023,3.21295,14,0.00520055,10,0.000292065,-2.4931,0.352597,0.16733,20.9708,0.0909023,
2,1,0,1,0,26764,0.0926901,0.0923961,3.24923,14,0.00532257,10,0.000300216,-2.48822,0.338007,0.174553,22.0534,0.0923961,
2,1,0,1,0,26764.1,0.0941856,0.0938924,3.276,14,0.00544506,10,0.000307591,-2.48466,0.363483,0.162318,20.7177,0.0938924,
2,1,0,1,0,26764.1,0.0956821,0.0953507,3.30344,14,0.00556868,10,0.000314985,-2.48103,0.314801,0.18742,24.1927,0.0953507,
2,1,0,1,0,26764.1,0.097182,0.0968912,3.33842,14,0.00569392,10,0.000323464,-2.47646,0.279056,0.211427,27.6219,0.0968912,
2,1,0,1,0,26764.2,0.098682,0.0983795,3.38052,14,0.00582072,10,0.000332574,-2.47102,0.256732,0.229811,30.4271,0.0983795,
2,1,0,1,0,26764.2,0.100178,0.0998638,3.42971,14,0.00594892,10,0.000342504,-2.46474,0.254167,0.232131,31.1322,0.0998638,
2,1,0,1,0,26764.3,0.101675,0.101381,3.4786,14,0.00607884,10,0.000352665,-2.4586,0.246218,0.239625,32.5826,0.101381,
2,1,0,1,0,26764.3,0.103175,0.102855,3.53443,14,0.00621091,10,0.000363535,-2.45168,0.223801,0.263627,36.4028,0.102855,
2,1,0,1,0,26764.3,0.104675,0.104372,3.60006,14,0.00634516,10,0.000375746,-2.44369,0.207217,0.284725,39.9016,0.104372,
2,1,0,1,0,26764.4,0.106171,0.105827,3.65375,14,0.00648136,10,0.000386667,-2.43726,0.211446,0.279031,39.7131,0.105827,
2,1,0,1,0,26764.4,0.107667,0.107373,3.71576,14,0.0066198,10,0.000398971,-2.42995,0.210076,0.28085,40.7326,0.107373,
2,1,0,1,0,26764.4,0.10917,0.108875,3.77044,14,0.00676114,10,0.000410505,-2.42361,0.208985,0.282317,41.6201,0.108875,
2,1,0,1,0,26764.5,0.110666,0.110331,3.83241,14,0.00690414,10,0.000422833,-2.41653,0.208901,0.282431,42.3128,0.110331,
2,1,0,1,0,26764.5,0.112162,0.111842,3.89331,14,0.00704946,10,0.000435438,-2.40968,0.233425,0.252758,38.4365,0.111842,
2,1,0,1,0,26764.6,0.113662,0.113338,3.95775,14,0.00719744,10,0.000448563,-2.40255,0.250735,0.235308,36.2885,0.1133378,
2,1,0,1,0,26764.6,0.115162,0.114837,4.01328,14,0.00734741,10,0.000460875,-2.3965,0.25809,0.228602,35.7625,0.114837,
2,1,0,1,0,26764.6,0.116658,0.116325,4.06625,14,0.00749902,10,0.000473005,-2.39081,0.263659,0.223774,35.4335,0.116325,
2,1,0,1,0,26764.7,0.118155,0.117858,4.12089,14,0.00765272,10,0.000485679,-2.38501,0.30086,0.196104,31.425,0.117858,
2,1,0,1,0,26764.7,0.119655,0.119341,4.16353,14,0.0078086,10,0.000496881,-2.38054,0.351402,0.167899,27.228,0.119341,
2,1,0,1,0,26764.7,0.121155,0.120838,4.19637,14,0.00796592,10,0.000507082,-2.37713,0.397112,0.148573,24.3369,0.120838,
2,1,0,1,0,26764.8,0.122651,0.122357,4.23089,14,0.00812413,10,0.000517679,-2.37357,0.427436,0.138032,22.802,0.122357,
2,1,0,1,0,26764.8,0.124147,0.123827,4.26514,14,0.00828373,10,0.000528142,-2.37007,0.427896,0.137884,22.9533,0.123827,
2,1,0,1,0,26764.9,0.12565,0.12532,4.29631,14,0.00844535,10,0.000538412,-2.3669,0.533073,0.110679,18.5427,0.12532,
2,1,0,1,0,26764.9,0.127146,0.12682,4.31841,14,0.00860722,10,0.000547662,-2.36468,0.519612,0.113546,19.1395,0.12682,
2,1,0,1,0,26764.9,0.128642,0.128355,4.35219,14,0.00876995,10,0.000558625,-2.36129,0.589341,0.100112,16.9788,0.128355,
2,1,0,1,0,26765,0.130142,0.129839,4.37709,14,0.00893416,10,0.000568316,-2.35881,0.62672,0.0941409,16.0526,0.129839,
2,1,0,1,0,26765,0.131642,0.131313,4.40093,14,0.00909938,10,0.0005779,-2.35646,0.710595,0.083029,14.2428,0.131313,
2,1,0,1,0,26765,0.133139,0.132845,4.42093,14,0.00926503,10,0.000587297,-2.35449,0.812602,0.0726063,12.5285,0.132845,
2,1,0,1,0,26765.1,0.134635,0.1343,4.43377,14,0.00943125,10,0.000595455,-2.35323,0.896608,0.0658036,11.4027,0.1343,
2,1,0,1,0,26765.1,0.136135,0.135827,4.45315,14,0.00959861,10,0.000604857,-2.35133,1.29388,0.0455993,7.92308,0.135827,
2,1,0,1,0,26765.2,0.137635,0.13735,4.46336,14,0.00976646,10,0.000613045,-2.35034,3.05439,0.0193165,3.35674,0.13735,
2,1,0,1,0,26765.2,0.13913,0.138799,4.46747,14,0.00993402,10,0.00062008,-2.34994,-2.29711,-0.0256844,-4.45875,0.138799,
2,1,0,1,0,26765.2,0.140626,0.140301,4.45481,14,0.0101013,10,0.000625012,-2.35117,-0.785494,-0.075112,-12.9918,0.140301,
2,1,0,1,0,26765.3,0.14213,0.141823,4.42216,14,0.0102687,10,0.000627166,-2.35437,-0.470078,-0.125511,-21.586,0.1418234,
2,1,0,1,0,26765.3,0.143626,0.143301,4.38541,14,0.0104341,10,0.000628435,-2.35799,-0.304877,-0.19352,-32.9641,0.143301,
2,1,0,1,0,26765.3,0.145122,0.144827,4.31586,14,0.0105976,10,0.000625052,-2.36493,-0.195686,-0.301503,-50.6079,0.144827,
2,1,0,1,0,26765.4,0.146622,0.146316,4.22905,14,0.0107586,10,0.000618779,-2.37376,-0.150386,-0.392325,-64.6761,0.146316,
2,1,0,1,0,26765.4,0.148122,0.147838,4.13186,14,0.0109161,10,0.000610847,-2.38385,-0.130175,-0.453236,-72.7702,0.1478381,
2,1,0,1,0,26765.5,0.149619,0.149294,4.01368,14,0.0110691,10,0.000599219,-2.39646,-0.107565,-0.548508,-85.537,0.149294,
2,1,0,1,0,26765.5,0.151115,0.150782,3.88068,14,0.0112173,10,0.000585135,-2.41109,-0.0924256,-0.638351,-96.0771,0.150782,
2,1,0,1,0,26765.5,0.152615,0.152318,3.72566,14,0.0113604,10,0.000567487,-2.4288,-0.0851584,-0.692827,-100.399,0.1523183,
2,1,0,1,0,26765.6,0.154115,0.153778,3.56827,14,0.0114978,10,0.000548721,-2.44754,-0.0812606,-0.726059,-101.035,0.1537782,
2,1,0,1,0,26765.6,0.155611,0.15528,3.41665,14,0.0116289,10,0.000530537,-2.4664,-0.0777963,-0.75839,-101.044,0.15528,
2,1,0,1,0,26765.6,0.157106,0.156759,3.26127,14,0.0117544,10,0.000511232,-2.48661,-0.0737417,-0.80009,-101.767,0.1567587,
2,1,0,1,0,26765.7,0.15861,0.158307,3.11183,14,0.0118749,10,0.000492624,-2.50698,-0.074514,-0.791797,-96.4269,0.158307,
2,1,0,1,0,26765.7,0.160106,0.159802,2.97139,14,0.0119891,10,0.000474833,-2.52704,-0.0774839,-0.761449,-88.6199,0.159802,
2,1,0,1,0,26765.8,0.161602,0.161334,2.85095,14,0.0120986,10,0.000459955,-2.54501,-0.0828034,-0.712531,-79.3895,0.1613342,
2,1,0,1,0,26765.8,0.163102,0.162772,2.73914,14,0.0122039,10,0.000445855,-2.56239,-0.0892385,-0.661149,-70.7226,0.162772,
2,1,0,1,0,26765.8,0.164602,0.164281,2.63852,14,0.0123051,10,0.000433459,-2.57864,-0.0913156,-0.646111,-66.525,0.164281,
2,1,0,1,0,26765.9,0.166099,0.165842,2.54067,14,0.0124024,10,0.000421352,-2.59505,-0.104183,-0.566313,-56.3044,0.1658424,
2,1,0,1,0,26765.9,0.167595,0.167255,2.46037,14,0.0124965,10,0.00041151,-2.609,-0.117118,-0.503768,-48.5313,0.167255,
2,1,0,1,0,26765.9,0.169095,0.168775,2.39196,14,0.0125881,10,0.000403704,-2.62125,-0.127577,-0.462466,-43.2938,0.168775,
2,1,0,1,0,26766,0.170595,0.170263,2.32549,14,0.0126772,10,0.000395945,-2.63348,-0.129584,-0.455304,-41.5193,0.170263,
2,1,0,1,0,26766,0.172091,0.171785,2.26591,14,0.0127638,10,0.000389249,-2.64476,-0.142924,-0.412808,-36.6629,0.171785,
2,1,0,1,0,26766.1,0.173586,0.173262,2.22073,14,0.0128483,10,0.000384769,-2.6535,-0.162018,-0.364158,-31.5958,0.1732624,
2,1,0,1,0,26766.1,0.17509,0.174788,2.1806,14,0.0129316,10,0.000381144,-2.66142,-0.181748,-0.324626,-27.5627,0.174788,
2,1,0,1,0,26766.1,0.176586,0.176244,2.13837,14,0.0130128,10,0.000376874,-2.66992,-0.184769,-0.319318,-26.5987,0.176244,
2,1,0,1,0,26766.2,0.178083,0.177763,2.09819,14,0.0130927,10,0.000372981,-2.67815,-0.205777,-0.286718,-23.5322,0.177763,
2,1,0,1,0,26766.2,0.179582,0.179305,2.06653,14,0.0131714,10,0.000370539,-2.68476,-0.233015,-0.253203,-20.5104,0.179305,
2,1,0,1,0,26766.2,0.181082,0.180823,2.03607,14,0.0132491,10,0.000368169,-2.69121,-0.283899,-0.20782,-16.6179,0.180823,
2,1,0,1,0,26766.3,0.182579,0.182242,2.01534,14,0.0133257,10,0.000367279,-2.69565,-0.270003,-0.218516,-17.23,0.182242,
2,1,0,1,0,26766.3,0.184075,0.183792,1.99449,14,0.0134014,10,0.000366571,-2.70017,-0.284292,-0.207533,-16.1722,0.183792,
2,1,0,1,0,26766.4,0.185579,0.185266,1.97506,14,0.0134765,10,0.000365911,-2.70442,-0.341978,-0.172526,-13.293,0.185266,
2,1,0,1,0,26766.4,0.187074,0.186763,1.95926,14,0.0135506,10,0.000365917,-2.70791,-0.453201,-0.130185,-9.91102,0.186763,
2,1,0,1,0,26766.4,0.18857,0.188241,1.94109,14,0.0136241,10,0.000365393,-2.71195,-0.436283,-0.135233,-10.2166,0.188241,
2,1,0,1,0,26766.5,0.19007,0.189721,1.92169,14,0.0136971,10,0.000364586,-2.71632,-0.435407,-0.135505,-10.1796,0.189721,
2,1,0,1,0,26766.5,0.19157,0.191218,1.9054,14,0.0137696,10,0.000364347,-2.72001,-0.468349,-0.125975,-9.39785,0.1912183,
2,1,0,1,0,26766.5,0.193066,0.192785,1.8891,14,0.0138413,10,0.000364192,-2.72374,-0.612276,-0.0963617,-7.1439,0.1927855,
2,1,0,1,0,26766.6,0.194563,0.194231,1.88436,14,0.0139127,10,0.000366002,-2.72484,-0.650663,-0.0906768,-6.68351,0.194231,
2,1,0,1,0,26766.6,0.196063,0.195734,1.87437,14,0.013984,10,0.000366878,-2.72715,-0.534858,-0.11031,-8.09129,0.195734,
2,1,0,1,0,26766.7,0.197563,0.197224,1.86575,14,0.0140548,10,0.00036797,-2.72915,-0.580299,-0.101672,-7.40343,0.197224,
2,1,0,1,0,26766.7,0.199059,0.198729,1.85863,14,0.014125,10,0.000369363,-2.73081,-0.659753,-0.0894274,-6.47553,0.198729,
2,1,0,1,0,26766.7,0.200555,0.200211,1.85329,14,0.0141948,10,0.00037105,-2.73206,-0.652636,-0.0904026,-6.50299,0.200211,
2,1,0,1,0,26766.8,0.202059,0.201784,1.84016,14,0.0142648,10,0.000371316,-2.73514,-0.727769,-0.0810697,-5.81007,0.201784,
2,1,0,1,0,26766.8,0.203554,0.203223,1.82585,14,0.0143341,10,0.000371054,-2.73854,-1.01199,-0.058301,-4.17319,0.203223,
2,1,0,1,0,26766.8,0.20505,0.204728,1.81915,14,0.014403,10,0.000372432,-2.74013,-2.03747,-0.0289574,-2.07346,0.204728,
2,1,0,1,0,26766.9,0.20655,0.206244,1.8177,14,0.0144719,10,0.000374888,-2.74048,-2.38525,-0.0247353,-1.75728,0.206244,
2,1,0,1,0,26766.9,0.20805,0.207733,1.81544,14,0.0145408,10,0.000377126,-2.74102,-1.28156,-0.0460376,-3.25155,0.207733,
2,1,0,1,0,26767,0.209546,0.209253,1.80935,14,0.0146092,10,0.000378612,-2.74248,-0.798249,-0.0739118,-5.21337,0.209253,
2,1,0,1,0,26767,0.211043,0.210713,1.8018,14,0.0146772,10,0.000379664,-2.74429,-0.805651,-0.0732327,-5.13711,0.210713,
2,1,0,1,0,26767,0.212543,0.212188,1.7966,14,0.0147452,10,0.000381217,-2.74555,-1.77796,-0.0331841,-2.32074,0.212188,
2,1,0,1,0,26767.1,0.214043,0.21377,1.79511,14,0.0148131,10,0.000383741,-2.74591,-1.5602,-0.0378156,-2.64331,0.21377,
2,1,0,1,0,26767.1,0.215539,0.215255,1.78554,14,0.0148806,10,0.000384346,-2.74823,-1.21866,-0.0484138,-3.37823,0.215255,
2,1,0,1,0,26767.1,0.217035,0.216734,1.77549,14,0.0149479,10,0.000384808,-2.75068,-1.38208,-0.0426892,-2.97482,0.216734,
2,1,0,1,0,26767.2,0.218538,0.218259,1.77382,14,0.0150153,10,0.000387151,-2.75109,-2.81065,-0.0209916,-1.45826,0.2182589,
2,1,0,1,0,26767.2,0.220034,0.219737,1.77766,14,0.0150823,10,0.000390617,-2.75015,-1.56019,-0.0378159,-2.61462,0.219737,
2,1,0,1,0,26767.3,0.22153,0.221254,1.77331,14,0.0151493,10,0.000392352,-2.75121,-1.19438,-0.049398,-3.40129,0.221254,
2,1,0,1,0,26767.3,0.22303,0.22274,1.76262,14,0.0152162,10,0.000392606,-2.75384,-1.51013,-0.0390694,-2.68734,0.22274,
2,1,0,1,0,26767.3,0.22453,0.224209,1.76271,14,0.0152828,10,0.000395215,-2.75382,-1.36541,-0.0432104,-2.96782,0.224209,
2,1,0,1,0,26767.4,0.226026,0.225688,1.75372,14,0.0153492,10,0.000395795,-2.75604,-1.03422,-0.0570478,-3.9089,0.2256881,
2,1,0,1,0,26767.4,0.227523,0.227233,1.75157,14,0.0154155,10,0.000398014,-2.75657,-1.03755,-0.0568646,-3.89272,0.227233,
2,1,0,1,0,26767.4,0.229023,0.228696,1.74653,14,0.0154819,10,0.000399424,-2.75782,-1.29963,-0.0453975,-3.10402,0.228696,
2,1,0,1,0,26767.5,0.230523,0.230204,1.74239,14,0.015548,10,0.000401105,-2.75885,-2.44177,-0.0241628,-1.64914,0.230204,
2,1,0,1,0,26767.5,0.232019,0.231726,1.74384,14,0.0156139,10,0.000404094,-2.75849,-3.88478,-0.0151875,-1.03309,0.231726,
2,1,0,1,0,26767.6,0.233515,0.233242,1.74342,14,0.0156797,10,0.00040664,-2.7586,-2.18976,-0.0269436,-1.82821,0.233242,
2,1,0,1,0,26767.6,0.235018,0.234719,1.74076,14,0.0157457,10,0.000408589,-2.75926,-1.20453,-0.0489817,-3.3103,0.2347188,
2,1,0,1,0,26767.6,0.236514,0.236217,1.7314,14,0.0158112,10,0.000408986,-2.7616,-1.86418,-0.0316493,-2.13945,0.236217,
2,1,0,1,0,26767.7,0.23801,0.237709,1.72928,14,0.0158766,10,0.000411064,-2.76214,-20.1437,-0.00292895,-0.197726,0.237709,
2,1,0,1,0,26767.7,0.23951,0.239208,1.72634,14,0.0159421,10,0.000412953,-2.76287,-1.63334,-0.0361224,-2.44175,0.239208,
2,1,0,1,0,26767.7,0.24101,0.240723,1.72454,14,0.0160075,10,0.000415136,-2.76333,-2.55934,-0.0230528,-1.55317,0.240723,
2,1,0,1,0,26767.8,0.242506,0.242203,1.71516,14,0.0160725,10,0.000415416,-2.7657,-1.29639,-0.0455111,-3.06163,0.242203,
2,1,0,1,0,26767.8,0.244003,0.243685,1.71805,14,0.0161374,10,0.000418663,-2.76496,-3.47836,-0.016962,-1.13794,0.243685,
2,1,0,1,0,26767.9,0.245503,0.245217,1.72237,14,0.0162025,10,0.000422354,-2.76387,-6.05278,-0.00974758,-0.652208,0.245217,
2,1,0,1,0,26767.9,0.247003,0.246712,1.71671,14,0.0162675,10,0.000423533,-2.7653,-1.4236,-0.0414443,-2.7608,0.246712,
2,1,0,1,0,26767.9,0.248499,0.248184,1.70528,14,0.0163322,10,0.000423224,-2.7682,-1.55518,-0.0379378,-2.52804,0.248184,
2,1,0,1,0,26768,0.249995,0.249679,1.70505,14,0.0163966,10,0.000425714,-2.76826,-2.09343,-0.0281834,-1.88084,0.249679,
2,1,0,1,0,26768,0.251498,0.251176,1.7008,14,0.0164614,10,0.000427201,-2.76935,-4.68506,-0.0125932,-0.838757,0.251176,
2,1,0,1,0,26768,0.252994,0.25267,1.69987,14,0.0165258,10,0.000429508,-2.76958,-1.42559,-0.0413864,-2.75358,0.25267,
2,1,0,1,0,26768.1,0.25449,0.254177,1.696,14,0.01659,10,0.000431085,-2.77057,-1.71094,-0.034484,-2.28663,0.254177,
2,1,0,1,0,26768.1,0.25599,0.255684,1.69687,14,0.0166543,10,0.000433863,-2.77035,-1.60115,-0.0368485,-2.4419,0.255684,
2,1,0,1,0,26768.1,0.25749,0.257216,1.69509,14,0.0167185,10,0.000436005,-2.77081,-5.69148,-0.0103664,-0.683808,0.257216,
2,1,0,1,0,26768.2,0.258987,0.258707,1.69605,14,0.0167824,10,0.000438781,-2.77056,-2.46463,-0.0239387,-1.57967,0.258707,
2,1,0,1,0,26768.2,0.260483,0.260168,1.69227,14,0.0168463,10,0.000440274,-2.77153,-1.26991,-0.0464601,-3.06163,0.260168,
2,1,0,1,0,26768.3,0.261983,0.261693,1.68184,14,0.0169102,10,0.000440124,-2.77422,-1.84673,-0.0319484,-2.10171,0.261693,
2,1,0,1,0,26768.3,0.263483,0.263165,1.68097,14,0.0169739,10,0.000442372,-2.77444,-10.6069,-0.00556242,-0.365553,0.263165,
2,1,0,1,0,26768.3,0.264978,0.264707,1.68059,14,0.0170374,10,0.000444864,-2.77454,-2.53305,-0.0232921,-1.53047,0.264707,
2,1,0,1,0,26768.4,0.266474,0.266214,1.6773,14,0.0171009,10,0.00044652,-2.77539,-1.7146,-0.0344103,-2.25065,0.266214,
2,1,0,1,0,26768.4,0.267977,0.267671,1.6719,14,0.0171645,10,0.000447519,-2.77679,-2.94564,-0.0200296,-1.30836,0.267671,
2,1,0,1,0,26768.4,0.269474,0.269133,1.67573,14,0.0172277,10,0.000450995,-2.7758,-27.8976,-0.00211488,-0.137952,0.269133,
2,1,0,1,0,26768.5,0.27097,0.270672,1.67394,14,0.0172908,10,0.00045309,-2.77626,-1.75272,-0.033662,-2.18878,0.270672,
2,1,0,1,0,26768.5,0.27247,0.272179,1.66989,14,0.0173541,10,0.000454509,-2.77731,-1.5946,-0.0369999,-2.40292,0.272179,
2,1,0,1,0,26768.6,0.27397,0.27368,1.66004,14,0.0174172,10,0.000454321,-2.77988,-1.61985,-0.0364231,-2.36879,0.2736803,
2,1,0,1,0,26768.6,0.275467,0.275185,1.65833,14,0.0174799,10,0.000456347,-2.78033,-1.80366,-0.0327113,-2.12496,0.275185,
2,1,0,1,0,26768.6,0.276963,0.276659,1.65629,14,0.0175426,10,0.000458229,-2.78086,-2.02366,-0.0291551,-1.8883,0.276659,
2,1,0,1,0,26768.7,0.278463,0.278149,1.65522,14,0.0176054,10,0.000460396,-2.78115,-1.46237,-0.0403454,-2.6039,0.278149,
2,1,0,1,0,26768.7,0.279963,0.279685,1.6539,14,0.017668,10,0.000462572,-2.78149,-1.48578,-0.0397099,-2.5606,0.279685,
2,1,0,1,0,26768.7,0.281459,0.281174,1.65364,14,0.0177303,10,0.000464959,-2.78156,-1.43653,-0.0410711,-2.64007,0.281174,
2,1,0,1,0,26768.8,0.282954,0.282659,1.64546,14,0.0177925,10,0.000465104,-2.78371,-3.29602,-0.0179004,-1.14872,0.282659,
2,1,0,1,0,26768.8,0.284458,0.284183,1.64545,14,0.017855,10,0.000467609,-2.78371,-2.23804,-0.0263623,-1.6906,0.284183,
2,1,0,1,0,26768.9,0.285954,0.285652,1.6383,14,0.017917,10,0.000467984,-2.78561,-1.66152,-0.0355096,-2.27804,0.285652,
2,1,0,1,0,26768.9,0.28745,0.287115,1.63102,14,0.0179788,10,0.000468291,-2.78754,-1.27227,-0.0463739,-2.96675,0.287115,
2,1,0,1,0,26768.9,0.28895,0.288653,1.63102,14,0.0180408,10,0.000470799,-2.78754,-4.5986,-0.01283,-0.818617,0.288653,
2,1,0,1,0,26769,0.29045,0.290151,1.63028,14,0.0181026,10,0.000473026,-2.78774,-2.30533,-0.0255929,-1.62809,0.290151,
2,1,0,1,0,26769,0.291947,0.29163,1.62769,14,0.0181641,10,0.000474683,-2.78843,-1.31863,-0.0447433,-2.83755,0.29163,
2,1,0,1,0,26769,0.293443,0.29313,1.62398,14,0.0182255,10,0.000476037,-2.78942,-1.62608,-0.0362836,-2.29289,0.2931301,
2,1,0,1,0,26769.1,0.294943,0.294678,1.62497,14,0.0182869,10,0.000478842,-2.78915,-3.00542,-0.0196312,-1.23956,0.294678,
2,1,0,1,0,26769.1,0.296443,0.296157,1.62051,14,0.0183483,10,0.000479925,-2.79035,-2.62668,-0.0224618,-1.41705,0.296157,
2,1,0,1,0,26769.2,0.297939,0.297657,1.61427,14,0.0184094,10,0.000480497,-2.79202,-1.30646,-0.0451602,-2.84706,0.297657,
2,1,0,1,0,26769.2,0.299434,0.29912,1.60607,14,0.0184704,10,0.000480409,-2.79423,-0.0135274,-4.36153,-230.808,0.29912,
2,1,0,0,0,26769.2,0.299962,0.299651,1.52853,14,0.0184944,10,0.000458025,-2.81573,0.000766424,76.9809,1895.5,0.299651,
2,1,0,1,0,26769.2,0.298689,0.298404,0.365743,14,0.0185192,10,0.000109139,-3.43682,0.00325717,18.1139,542.85,0.298404,
2,0,0,1,0,26769.3,0.297189,0.296893,-0.077609,14,0.0185225,10,-2.30416e-05,-4.11009,0.0124164,4.75177,240.537,0.296893,
2,0,0,1,0,26769.3,0.295692,0.295397,-0.276059,14,0.0185148,10,-8.1547e-05,-3.559,-0.00347217,-16.9922,105.931,0.2953974,
2,0,0,1,0,26769.4,0.294196,0.293919,-0.380822,14,0.0185018,10,-0.000111931,-3.41928,-0.0122925,-4.79968,60.8143,0.2939193,
2,0,0,1,0,26769.4,0.292696,0.292383,-0.446813,14,0.0184856,10,-0.00013064,-3.34987,-0.023592,-2.50085,41.6344,0.292383,
2,0,0,1,0,26769.4,0.291196,0.290898,-0.498466,14,0.0184671,10,-0.000145003,-3.30236,-0.0338742,-1.74174,33.211,0.2908977,
2,0,0,1,0,26769.5,0.2897,0.289392,-0.544326,14,0.0184468,10,-0.000157523,-3.26414,-0.0453015,-1.30238,27.4322,0.2893917,
2,0,0,1,0,26769.5,0.288205,0.287848,-0.579116,14,0.0184251,10,-0.000166697,-3.23723,-0.0568071,-1.0386,23.3597,0.287848,
2,0,0,1,0,26769.5,0.286701,0.286409,-0.609418,14,0.0184019,10,-0.000174543,-3.21508,-0.0698803,-0.844301,20.0883,0.286409,
2,0,0,1,0,26769.6,0.285205,0.284921,-0.642161,14,0.0183778,10,-0.000182965,-3.19236,-0.07693,-0.766931,19.1288,0.284921,
2,0,0,1,0,26769.6,0.283708,0.283386,-0.669632,14,0.0183526,10,-0.000189764,-3.17416,-0.0930274,-0.634222,16.4621,0.283386,
2,0,0,1,0,26769.7,0.282208,0.281931,-0.693599,14,0.0183263,10,-0.000195547,-3.15889,-0.107749,-0.547571,14.6873,0.281931,
2,0,0,1,0,26769.7,0.280709,0.280406,-0.713738,14,0.0182991,10,-0.000200136,-3.14646,-0.124068,-0.475544,13.2493,0.280406,
2,0,0,1,0,26769.7,0.279212,0.278928,-0.736643,14,0.0182714,10,-0.00020547,-3.13274,-0.121351,-0.486193,13.9551,0.278928,
2,0,0,1,0,26769.8,0.277716,0.277427,-0.755617,14,0.0182427,10,-0.000209628,-3.1217,-0.136185,-0.433235,12.7603,0.277427,
2,0,0,1,0,26769.8,0.276216,0.275922,-0.775469,14,0.0182133,10,-0.000213969,-3.11044,-0.143746,-0.410446,12.4127,0.275922,
2,0,0,1,0,26769.8,0.274716,0.274367,-0.795544,14,0.0181832,10,-0.000218271,-3.09934,-0.157507,-0.374585,11.5919,0.274367,
2,0,0,1,0,26769.9,0.27322,0.272928,-0.811277,14,0.0181525,10,-0.00022142,-3.09083,-0.167165,-0.352945,11.1249,0.272928,
2,0,0,1,0,26769.9,0.271725,0.271398,-0.828454,14,0.0181212,10,-0.000224841,-3.08173,-0.144025,-0.409651,13.1477,0.2713978,
2,0,0,1,0,26770,0.270221,0.26992,-0.846022,14,0.0180891,10,-0.000228358,-3.07262,-0.172437,-0.342154,11.2352,0.26992,
2,0,0,1,0,26770,0.268725,0.268398,-0.858315,14,0.0180565,10,-0.00023037,-3.06635,-0.202451,-0.291428,9.76157,0.268398,
2,0,0,1,0,26770,0.267228,0.266895,-0.869781,14,0.0180234,10,-0.00023214,-3.06059,-0.208717,-0.282679,9.62652,0.266895,
2,0,0,1,0,26770.1,0.265728,0.265401,-0.881109,14,0.0179898,10,-0.000233848,-3.05497,-0.220647,-0.267395,9.27451,0.265401,
2,0,0,1,0,26770.1,0.264228,0.263903,-0.90095,14,0.0179555,10,-0.000237763,-3.0453,-0.254564,-0.231769,8.14159,0.263903,
2,0,0,1,0,26770.1,0.262732,0.262451,-0.912816,14,0.0179209,10,-0.000239569,-3.03962,-0.283915,-0.207808,7.38288,0.262451,
2,0,0,1,0,26770.2,0.261236,0.260939,-0.926899,14,0.0178858,10,-0.000241865,-3.03297,-0.272757,-0.21631,7.81281,0.260939,
2,0,0,1,0,26770.2,0.259736,0.259427,-0.941836,14,0.0178502,10,-0.000244338,-3.02602,-0.238132,-0.247762,9.08239,0.259427,
2,0,0,1,0,26770.3,0.258236,0.257974,-0.954576,14,0.017814,10,-0.000246256,-3.02019,-0.23396,-0.252179,9.34458,0.257974,
2,0,0,1,0,26770.3,0.256741,0.256432,-0.964853,14,0.0177774,10,-0.000247419,-3.01554,-0.273696,-0.215567,8.09479,0.256432,
2,0,0,1,0,26770.3,0.255241,0.254963,-0.970634,14,0.0177403,10,-0.000247476,-3.01294,-0.303074,-0.194672,7.41101,0.254963,
2,0,0,1,0,26770.4,0.253741,0.253427,-0.984379,14,0.0177029,10,-0.000249468,-3.00684,-0.317741,-0.185686,7.16567,0.253427,
2,0,0,1,0,26770.4,0.252245,0.251944,-0.996327,14,0.0176651,10,-0.000251019,-3.0016,-0.287074,-0.205522,8.00681,0.251944,
2,0,0,1,0,26770.4,0.250748,0.25042,-1.00957,14,0.0176268,10,-0.000252815,-2.99586,-0.287602,-0.205144,8.0846,0.25042,
2,0,0,1,0,26770.5,0.249248,0.248927,-1.01932,14,0.017588,10,-0.000253737,-2.99169,-0.4355,-0.135476,5.38482,0.248927,
2,0,0,1,0,26770.5,0.247748,0.247419,-1.03034,14,0.0175489,10,-0.000254925,-2.98702,-0.391983,-0.150517,6.05134,0.247419,
2,0,0,1,0,26770.6,0.246252,0.245943,-1.04498,14,0.0175095,10,-0.000257004,-2.98089,-0.31182,-0.189212,7.66581,0.245943,
2,0,0,1,0,26770.6,0.244756,0.244447,-1.05655,14,0.0174696,10,-0.000258271,-2.97611,-0.316593,-0.186359,7.65125,0.244447,
2,0,0,1,0,26770.6,0.243252,0.242926,-1.06276,14,0.0174291,10,-0.000258171,-2.97357,-0.415067,-0.142146,5.90191,0.242926,
2,0,0,1,0,26770.7,0.241756,0.2415,-1.06403,14,0.0173884,10,-0.000256963,-2.97305,-0.362798,-0.162625,6.83834,0.2415,
2,0,0,1,0,26770.7,0.240261,0.23995,-1.0794,14,0.0173475,10,-0.000259002,-2.96682,-0.353788,-0.166767,7.06146,0.23995,
2,0,0,1,0,26770.7,0.238761,0.23847,-1.09092,14,0.017306,10,-0.000260152,-2.96221,-0.362581,-0.162722,6.92052,0.2384699,
2,0,0,1,0,26770.8,0.237261,0.236939,-1.10745,14,0.0172641,10,-0.000262398,-2.95568,-0.460477,-0.128128,5.49299,0.2369394,
2,0,0,1,0,26770.8,0.235765,0.235456,-1.11108,14,0.017222,10,-0.00026161,-2.95425,-0.446036,-0.132276,5.726,0.235456,
2,0,0,1,0,26770.9,0.234268,0.233944,-1.1199,14,0.0171796,10,-0.000261995,-2.95082,-0.429587,-0.137341,6.01905,0.233944,
2,0,0,1,0,26770.9,0.232768,0.232468,-1.12857,14,0.0171367,10,-0.000262357,-2.94747,-0.371098,-0.158988,7.00602,0.232468,
2,0,0,1,0,26770.9,0.231268,0.230966,-1.13868,14,0.0170934,10,-0.000262998,-2.9436,-0.421675,-0.139918,6.23788,0.230966,
2,0,0,1,0,26771,0.229772,0.229478,-1.14845,14,0.0170499,10,-0.000263544,-2.93989,-0.510706,-0.115526,5.18642,0.229478,
2,0,0,1,0,26771,0.228275,0.227961,-1.15789,14,0.0170062,10,-0.000263954,-2.93633,-0.417256,-0.1414,6.39765,0.227961,
2,0,0,1,0,26771,0.226772,0.226457,-1.17101,14,0.0169617,10,-0.000265183,-2.93144,-0.343133,-0.171945,7.80623,0.226457,
2,0,0,1,0,26771.1,0.225276,0.224994,-1.17915,14,0.0169172,10,-0.0002653,-2.92843,-0.426618,-0.138297,6.33233,0.2249935,
2,0,0,1,0,26771.1,0.223781,0.223482,-1.18673,14,0.0168723,10,-0.000265213,-2.92565,-0.496034,-0.118943,5.4886,0.223482,
2,0,0,1,0,26771.2,0.222281,0.221947,-1.19041,14,0.016827,10,-0.000264208,-2.9243,-0.43564,-0.135433,6.31834,0.2219473,
2,0,0,1,0,26771.2,0.220781,0.220448,-1.20037,14,0.0167814,10,-0.000264619,-2.92069,-0.423257,-0.139395,6.54657,0.220448,
2,0,0,1,0,26771.2,0.219284,0.219023,-1.20971,14,0.0167355,10,-0.000264954,-2.91732,-0.461052,-0.127968,6.07061,0.219023,
2,0,0,1,0,26771.3,0.217788,0.217443,-1.22296,14,0.0166892,10,-0.000265923,-2.91259,-0.475368,-0.124114,5.92154,0.217443,
2,0,0,1,0,26771.3,0.216288,0.215982,-1.22661,14,0.0166426,10,-0.000264926,-2.91129,-0.512856,-0.115042,5.52795,0.215982,
2,0,0,1,0,26771.3,0.214788,0.214461,-1.23993,14,0.0165956,10,-0.000265917,-2.9066,-0.503305,-0.117225,5.66574,0.214461,
2,0,0,1,0,26771.4,0.213292,0.213004,-1.25199,14,0.0165484,10,-0.000266679,-2.9024,-0.381774,-0.154542,7.51223,0.213004,
2,0,0,1,0,26771.4,0.211796,0.211533,-1.26004,14,0.0165008,10,-0.00026654,-2.89962,-0.483566,-0.12201,5.97045,0.211533,
2,0,0,1,0,26771.5,0.210293,0.209979,-1.26469,14,0.0164527,10,-0.00026556,-2.89801,-0.496999,-0.118713,5.87979,0.209979,
2,0,0,1,0,26771.5,0.208797,0.208496,-1.2721,14,0.0164045,10,-0.000265227,-2.89548,-0.408917,-0.144284,7.21119,0.208496,
2,0,0,1,0,26771.5,0.207301,0.206975,-1.28306,14,0.016356,10,-0.000265562,-2.89175,-0.407635,-0.144737,7.2708,0.206975,
2,0,0,1,0,26771.6,0.205801,0.205464,-1.29778,14,0.0163067,10,-0.000266648,-2.8868,-0.37575,-0.157019,7.94197,0.205464,
2,0,0,1,0,26771.6,0.204301,0.203981,-1.30463,14,0.0162572,10,-0.00026612,-2.88451,-0.634721,-0.0929542,4.7342,0.203981,
2,0,0,1,0,26771.6,0.202804,0.202487,-1.31507,14,0.0162076,10,-0.000266285,-2.88105,-0.602652,-0.0979007,5.01229,0.202487,
2,0,0,1,0,26771.7,0.201308,0.201009,-1.32372,14,0.0161576,10,-0.00026608,-2.8782,-0.379571,-0.155439,8.00399,0.201009,
2,0,0,1,0,26771.7,0.199808,0.199482,-1.33407,14,0.0161071,10,-0.000266122,-2.87482,-0.443811,-0.132939,6.91108,0.199482,
2,0,0,1,0,26771.8,0.198308,0.198017,-1.34254,14,0.0160562,10,-0.000265846,-2.87207,-0.523346,-0.112736,5.91566,0.198017,
2,0,0,1,0,26771.8,0.196812,0.19651,-1.34798,14,0.0160052,10,-0.000264892,-2.87032,-0.47323,-0.124675,6.58552,0.1965099,
2,0,0,1,0,26771.8,0.195316,0.195007,-1.36093,14,0.0159537,10,-0.000265392,-2.86616,-0.347545,-0.169762,9.05265,0.195007,
2,0,0,1,0,26771.9,0.193813,0.193482,-1.3751,14,0.0159016,10,-0.000266057,-2.86166,-0.396306,-0.148875,7.99194,0.193482,
2,0,0,1,0,26771.9,0.192317,0.192008,-1.38621,14,0.0158492,10,-0.000266163,-2.85817,-0.500176,-0.117958,6.35736,0.192008,
2,0,0,1,0,26771.9,0.190821,0.190505,-1.39153,14,0.0157965,10,-0.000265092,-2.85651,-0.437585,-0.134831,7.32611,0.190505,
2,0,0,1,0,26772,0.189321,0.189012,-1.40611,14,0.0157434,10,-0.000265773,-2.85198,-0.413179,-0.142795,7.827,0.189012,
2,0,0,1,0,26772,0.187821,0.187481,-1.41844,14,0.0156898,10,-0.00026593,-2.84819,-0.385267,-0.153141,8.45612,0.187481,
2,0,0,1,0,26772.1,0.186324,0.186017,-1.42993,14,0.0156358,10,-0.00026599,-2.84469,-0.506654,-0.11645,6.49096,0.186017,
2,0,0,1,0,26772.1,0.184828,0.184519,-1.44112,14,0.0155814,10,-0.000265913,-2.8413,-0.436993,-0.135014,7.60971,0.184519,
2,0,0,1,0,26772.1,0.183328,0.183004,-1.45026,14,0.0155265,10,-0.000265404,-2.83855,-0.427384,-0.138049,7.85527,0.183004,
2,0,0,1,0,26772.2,0.181828,0.181535,-1.46999,14,0.015471,10,-0.000266855,-2.83268,-0.357407,-0.165078,9.458,0.181535,
2,0,0,1,0,26772.2,0.180332,0.17998,-1.48657,14,0.0154152,10,-0.000267553,-2.82781,-0.368993,-0.159894,9.24747,0.17998,
2,0,0,1,0,26772.2,0.178836,0.178514,-1.49763,14,0.0153588,10,-0.000267347,-2.8246,-0.372295,-0.158476,9.23163,0.178514,
2,0,0,1,0,26772.3,0.177333,0.177035,-1.50769,14,0.0153016,10,-0.000266915,-2.82169,-0.328249,-0.179742,10.5759,0.177035,
2,0,0,1,0,26772.3,0.175837,0.175476,-1.52597,14,0.0152442,10,-0.000267771,-2.81645,-0.30771,-0.191739,11.4119,0.175476,
2,0,0,1,0,26772.4,0.174341,0.173977,-1.54417,14,0.0151861,10,-0.00026865,-2.8113,-0.306982,-0.192193,11.5686,0.173977,
2,0,0,1,0,26772.4,0.172841,0.172524,-1.55719,14,0.0151273,10,-0.000268653,-2.80766,-0.34032,-0.173366,10.5486,0.172524,
2,0,0,1,0,26772.4,0.171341,0.171044,-1.56907,14,0.0150678,10,-0.00026838,-2.80436,-0.278353,-0.211961,13.0884,0.171044,
2,0,0,1,0,26772.5,0.169844,0.169481,-1.59646,14,0.0150078,10,-0.00027057,-2.79684,-0.263106,-0.224244,13.9938,0.169481,
2,0,0,1,0,26772.5,0.168348,0.167973,-1.61791,14,0.014947,10,-0.000271765,-2.79104,-0.262809,-0.224498,14.1739,0.167973,
2,0,0,1,0,26772.5,0.166848,0.166494,-1.64148,14,0.0148851,10,-0.000273297,-2.78477,-0.271144,-0.217597,13.8987,0.166494,
2,0,0,1,0,26772.6,0.165348,0.165021,-1.66694,14,0.0148225,10,-0.00027508,-2.77808,-0.247616,-0.238273,15.4636,0.165021,
2,0,0,1,0,26772.6,0.163852,0.163532,-1.69124,14,0.0147592,10,-0.000276571,-2.7718,-0.215469,-0.273822,18.0725,0.163532,
2,0,0,1,0,26772.7,0.162357,0.162042,-1.71845,14,0.0146948,10,-0.000278462,-2.76486,-0.195121,-0.302377,20.2845,0.1620423,
2,0,0,1,0,26772.7,0.160853,0.160513,-1.74561,14,0.0146289,10,-0.000280193,-2.75805,-0.207287,-0.284629,19.4439,0.1605131,
2,0,0,1,0,26772.7,0.159357,0.159044,-1.77913,14,0.0145622,10,-0.00028296,-2.74979,-0.179968,-0.327836,22.8065,0.159044,
2,0,0,1,0,26772.8,0.157861,0.157557,-1.81029,14,0.0144945,10,-0.000285223,-2.74225,-0.17642,-0.33443,23.7189,0.157557,
2,0,0,1,0,26772.8,0.156361,0.155993,-1.85281,14,0.014425,10,-0.000289026,-2.73217,-0.14791,-0.398892,28.8101,0.155993,
2,0,0,1,0,26772.8,0.154861,0.154469,-1.90282,14,0.014354,10,-0.000293926,-2.7206,-0.148536,-0.397209,29.3973,0.154469,
2,0,0,1,0,26772.9,0.153364,0.153039,-1.94778,14,0.0142815,10,-0.000298087,-2.71046,-0.144435,-0.408489,30.9839,0.153039,
2,0,0,1,0,26772.9,0.151868,0.151543,-1.99264,14,0.0142072,10,-0.000301972,-2.70057,-0.127198,-0.463843,36.1289,0.151543,
2,0,0,1,0,26773,0.150368,0.150075,-2.04974,14,0.0141308,10,-0.000307614,-2.6883,-0.114723,-0.514281,41.2681,0.150075,
2,0,0,1,0,26773,0.148868,0.148517,-2.11503,14,0.014052,10,-0.000314119,-2.67468,-0.106583,-0.55356,45.8814,0.148517,
2,0,0,1,0,26773,0.147372,0.147068,-2.18788,14,0.0139708,10,-0.000321766,-2.65998,-0.100191,-0.588873,50.3506,0.147068,
2,0,0,1,0,26773.1,0.145877,0.14554,-2.25749,14,0.0138869,10,-0.000328555,-2.64637,-0.0933128,-0.632282,55.9748,0.14554,
2,0,0,1,0,26773.1,0.144373,0.144051,-2.35081,14,0.0137995,10,-0.000338638,-2.62878,-0.087598,-0.673531,61.8631,0.144051,
2,0,0,1,0,26773.1,0.142877,0.142524,-2.44861,14,0.0137092,10,-0.000348985,-2.61108,-0.0834579,-0.706943,67.5046,0.142524,
2,0,0,1,0,26773.2,0.14138,0.141086,-2.55219,14,0.013615,10,-0.00036008,-2.59309,-0.0838167,-0.703917,69.884,0.141086,
2,0,0,1,0,26773.2,0.13988,0.139551,-2.65403,14,0.0135166,10,-0.000370374,-2.57609,-0.0835368,-0.706275,73.3321,0.139551,
2,0,0,1,0,26773.3,0.13838,0.138032,-2.771,14,0.0134142,10,-0.000382488,-2.55736,-0.0810316,-0.728111,78.9222,0.138032,
2,0,0,1,0,26773.3,0.136884,0.136581,-2.88818,14,0.0133075,10,-0.000394469,-2.53938,-0.0825258,-0.714928,80.7975,0.136581,
2,0,0,1,0,26773.3,0.135388,0.13506,-3.01479,14,0.0131963,10,-0.000407178,-2.52074,-0.085252,-0.692066,81.5013,0.13506,
2,0,0,1,0,26773.4,0.133888,0.133613,-3.14414,14,0.01308,10,-0.000420099,-2.5025,-0.08774,-0.672441,82.2967,0.133613,
2,0,0,1,0,26773.4,0.132389,0.132074,-3.26804,14,0.0129592,10,-0.000431622,-2.48571,-0.0902848,-0.653488,83.2321,0.132074,
2,0,0,1,0,26773.4,0.130893,0.130568,-3.38749,14,0.0128341,10,-0.000442296,-2.47012,-0.092958,-0.634695,83.8473,0.130568,
2,0,0,1,0,26773.5,0.129393,0.129107,-3.51671,14,0.0127038,10,-0.000454033,-2.45386,-0.0989856,-0.596046,81.4238,0.1291071,
2,0,0,1,0,26773.5,0.127893,0.127588,-3.63081,14,0.0125691,10,-0.000463247,-2.44,-0.110831,-0.532342,75.3039,0.127588,
2,0,0,1,0,26773.6,0.126397,0.126035,-3.73868,14,0.0124305,10,-0.000471204,-2.42728,-0.120037,-0.491513,71.6827,0.126035,
2,0,0,1,0,26773.6,0.1249,0.124566,-3.84154,14,0.0122879,10,-0.000478523,-2.41549,-0.128331,-0.459749,68.9399,0.124566,
2,0,0,1,0,26773.6,0.1234,0.123077,-3.94477,14,0.0121411,10,-0.000485512,-2.40398,-0.142592,-0.413769,63.6219,0.123077,
2,0,0,1,0,26773.7,0.1219,0.121598,-4.03981,14,0.0119906,10,-0.000491232,-2.39364,-0.165232,-0.357073,56.0716,0.1215978,
2,0,0,1,0,26773.7,0.120404,0.120105,-4.11631,14,0.0118374,10,-0.000494388,-2.38549,-0.181317,-0.325398,52.166,0.120105,
2,0,0,1,0,26773.7,0.118908,0.118579,-4.1984,14,0.0116812,10,-0.000497843,-2.37692,-0.194473,-0.303383,49.5506,0.118579,
2,0,0,1,0,26773.8,0.117404,0.11706,-4.2714,14,0.0115214,10,-0.000500011,-2.36943,-0.228235,-0.258506,42.9122,0.11706,
2,0,0,1,0,26773.8,0.115909,0.115562,-4.32549,14,0.0113599,10,-0.000499862,-2.36396,-0.270568,-0.21806,36.7299,0.115562,
2,0,0,1,0,26773.9,0.114413,0.114101,-4.37511,14,0.0111964,10,-0.000499206,-2.35901,-0.310973,-0.189727,32.3872,0.114101,
2,0,0,1,0,26773.9,0.112913,0.112584,-4.41447,14,0.0110309,10,-0.000496997,-2.35512,-0.381542,-0.154636,26.6544,0.112584,
2,0,0,1,0,26773.9,0.111413,0.111115,-4.45344,14,0.0108637,10,-0.000494842,-2.3513,-0.458486,-0.128684,22.3514,0.111115,
2,0,0,1,0,26774,0.109917,0.109623,-4.48584,14,0.0106958,10,-0.00049175,-2.34816,-0.637632,-0.0925299,16.153,0.109623,
2,0,0,1,0,26774,0.10842,0.108109,-4.50352,14,0.0105269,10,-0.000486871,-2.34645,-1.10863,-0.0532188,9.32511,0.108109,
2,0,0,1,0,26774,0.10692,0.106621,-4.5141,14,0.0103572,10,-0.000481297,-2.34543,-2.62308,-0.0224926,3.95122,0.106621,
2,0,0,1,0,26774.1,0.10542,0.105089,-4.51442,14,0.0101873,10,-0.000474415,-2.3454,-5.78862,-0.0101924,1.79329,0.105089,
2,0,0,1,0,26774.1,0.103924,0.103592,-4.51182,14,0.0100178,10,-0.000467387,-2.34565,1.83135,0.0322166,-5.66244,0.103592,
2,0,0,1,0,26774.2,0.102427,0.102119,-4.49631,14,0.00984852,10,-0.000459157,-2.34714,0.878253,0.0671788,-11.7793,0.102119,
2,0,0,1,0,26774.2,0.100924,0.100598,-4.47022,14,0.00967912,10,-0.000449694,-2.34967,0.637027,0.0926178,-16.172,0.100598,
2,0,0,1,0,26774.2,0.0994284,0.0991365,-4.44967,14,0.00951161,10,-0.000441124,-2.35167,0.570105,0.10349,-17.9597,0.0991365,
2,0,0,1,0,26774.3,0.0979329,0.0976531,-4.41913,14,0.00934509,10,-0.000431542,-2.35466,0.516048,0.11433,-19.6897,0.0976531,
2,0,0,1,0,26774.3,0.0964329,0.0961127,-4.38761,14,0.00917933,10,-0.000421705,-2.35777,0.391136,0.150843,-25.7552,0.0961127,
2,0,0,1,0,26774.3,0.094933,0.0946547,-4.34691,14,0.00901496,10,-0.000411455,-2.36182,0.350569,0.168298,-28.4926,0.0946547,
2,0,0,1,0,26774.4,0.0934366,0.0931393,-4.30344,14,0.00885265,10,-0.00040082,-2.36618,0.355741,0.165851,-27.8579,0.0931393,
2,0,0,1,0,26774.4,0.0919401,0.09162,-4.26165,14,0.0086918,10,-0.000390453,-2.37042,0.371711,0.158725,-26.4051,0.09162,
2,0,0,1,0,26774.5,0.0904402,0.0900819,-4.21914,14,0.00853199,10,-0.000380068,-2.37478,0.334719,0.176267,-29.0416,0.0900819,
2,0,0,1,0,26774.5,0.0889402,0.0886444,-4.17814,14,0.00837377,10,-0.000370369,-2.37902,0.344127,0.171448,-27.9815,0.0886444,
2,0,0,1,0,26774.5,0.0874438,0.0871268,-4.13368,14,0.00821772,10,-0.000360154,-2.38366,0.353244,0.167023,-26.9756,0.0871268,
2,0,0,1,0,26774.6,0.0859483,0.0856194,-4.10076,14,0.00806302,10,-0.000351105,-2.38714,0.405098,0.145644,-23.3047,0.08561942,
2,0,0,1,0,26774.6,0.0844447,0.0841081,-4.06452,14,0.00790892,10,-0.000341859,-2.39099,0.395033,0.149355,-23.6694,0.0841081,
2,0,0,1,0,26774.6,0.0829492,0.0826202,-4.03399,14,0.0077569,10,-0.000333289,-2.39427,0.421929,0.139834,-21.9674,0.0826202,
2,0,0,1,0,26774.7,0.0814528,0.0811862,-3.98967,14,0.0076062,10,-0.000323906,-2.39906,0.46129,0.127902,-19.956,0.08118622,
2,0,0,1,0,26774.7,0.0799528,0.0796351,-3.96526,14,0.00745624,10,-0.000315774,-2.40173,0.537799,0.109706,-16.9979,0.0796351,
2,0,0,1,0,26774.8,0.0784529,0.0781479,-3.93837,14,0.00730724,10,-0.000307776,-2.40468,0.539004,0.109461,-16.8545,0.0781479,
2,0,0,1,0,26774.8,0.0769565,0.0766187,-3.91731,14,0.00715952,10,-0.000300139,-2.40701,0.534871,0.110307,-16.8768,0.0766187,
2,0,0,1,0,26774.8,0.0754601,0.0751621,-3.88963,14,0.00701275,10,-0.000292353,-2.41009,0.542682,0.108719,-16.5335,0.07516212,
2,0,0,1,0,26774.9,0.0739601,0.0736569,-3.8714,14,0.00686653,10,-0.000285155,-2.41213,0.568097,0.103856,-15.6908,0.0736569,
2,0,0,1,0,26774.9,0.0724601,0.0721334,-3.85211,14,0.0067211,10,-0.000277866,-2.4143,0.605782,0.0973948,-14.6248,0.0721334,
2,0,0,1,0,26774.9,0.0709637,0.0706664,-3.83376,14,0.00657682,10,-0.000270918,-2.41638,0.577491,0.102166,-15.2444,0.07066638,
2,0,0,1,0,26775,0.0694682,0.0691638,-3.80607,14,0.00643326,10,-0.000263242,-2.41952,0.736634,0.080094,-11.9001,0.0691638,
2,0,0,1,0,26775,0.0679646,0.0676903,-3.78366,14,0.00628989,10,-0.000256117,-2.42209,0.659265,0.0894936,-13.2495,0.0676903,
2,0,0,1,0,26775.1,0.0664691,0.0661413,-3.76069,14,0.00614792,10,-0.000248737,-2.42473,0.708166,0.0833138,-12.2623,0.0661413,
2,0,0,1,0,26775.1,0.0649727,0.0647101,-3.74582,14,0.00600659,10,-0.000242392,-2.42645,0.634308,0.0930148,-13.6094,0.06471011,
2,0,0,1,0,26775.1,0.0634727,0.0631254,-3.72918,14,0.00586561,10,-0.000235406,-2.42839,0.599503,0.0984148,-14.3133,0.0631254,
2,0,0,1,0,26775.2,0.0619728,0.0616664,-3.70684,14,0.00572559,10,-0.000228587,-2.431,0.59116,0.0998039,-14.4297,0.0616664,
2,0,0,1,0,26775.2,0.0604764,0.0601564,-3.68987,14,0.00558669,10,-0.00022197,-2.43299,0.677972,0.0870243,-12.495,0.0601564,
2,0,0,1,0,26775.2,0.05898,0.0586625,-3.67072,14,0.00544853,10,-0.000215334,-2.43525,0.628737,0.0938389,-13.4074,0.0586625,
2,0,0,1,0,26775.3,0.05748,0.0571432,-3.64267,14,0.00531074,10,-0.000208154,-2.43858,0.589857,0.100024,-14.2201,0.0571432,
2,0,0,1,0,26775.3,0.05598,0.0556885,-3.61544,14,0.00517389,10,-0.000201338,-2.44184,0.593409,0.0994256,-14.063,0.0556885,
2,0,0,1,0,26775.4,0.0544836,0.054162,-3.59804,14,0.0050382,10,-0.000194877,-2.44393,0.676865,0.0871666,-12.2529,0.054162,
2,0,0,1,0,26775.4,0.0529881,0.0526316,-3.58206,14,0.00490317,10,-0.00018853,-2.44587,0.638314,0.092431,-12.9189,0.0526316,
2,0,0,1,0,26775.4,0.0514846,0.0511503,-3.55838,14,0.0047682,10,-0.000182012,-2.44875,0.5098,0.115732,-16.0637,0.05115027,
2,0,0,1,0,26775.5,0.049989,0.0496398,-3.53188,14,0.00463484,10,-0.000175322,-2.45199,0.469357,0.125704,-17.332,0.0496398,
2,0,0,1,0,26775.5,0.0484926,0.0481837,-3.51668,14,0.00450245,10,-0.000169447,-2.45387,0.476448,0.123833,-16.9537,0.0481837,
2,0,0,1,0,26775.5,0.0469927,0.0466489,-3.48887,14,0.00437052,10,-0.000162752,-2.45731,0.513954,0.114796,-15.6146,0.0466489,
2,0,0,1,0,26775.6,0.0454927,0.0451671,-3.46483,14,0.00423949,10,-0.000156496,-2.46032,0.444619,0.132698,-17.9277,0.0451671,
2,0,0,1,0,26775.6,0.0439963,0.0436812,-3.43855,14,0.00410962,10,-0.0001502,-2.46363,0.459866,0.128298,-17.2253,0.0436812,
2,0,0,1,0,26775.6,0.0424999,0.0421961,-3.41005,14,0.00398083,10,-0.000143891,-2.46724,0.490585,0.120264,-16.0584,0.04219611,
2,0,0,1,0,26775.7,0.0409999,0.0406694,-3.38873,14,0.00385255,10,-0.000137817,-2.46996,0.492568,0.11978,-15.8632,0.0406694,
2,0,0,1,0,26775.7,0.0394999,0.0391689,-3.3705,14,0.00372507,10,-0.000132019,-2.47231,0.475057,0.124196,-16.2972,0.0391689,
2,0,0,1,0,26775.8,0.0380044,0.0376757,-3.34419,14,0.00359894,10,-0.000125994,-2.47571,0.398814,0.147939,-19.2691,0.0376757,
2,0,0,1,0,26775.8,0.0365089,0.036208,-3.31152,14,0.00347393,10,-0.000119904,-2.47997,0.421307,0.14004,-18.0844,0.03620797,
2,0,0,1,0,26775.8,0.0350054,0.0346992,-3.28632,14,0.00334928,10,-0.000114033,-2.48329,0.449472,0.131265,-16.8199,0.03469922,
2,0,0,1,0,26775.9,0.033509,0.0331796,-3.25567,14,0.00322625,10,-0.000108022,-2.48736,0.407657,0.14473,-18.3874,0.0331796,
2,0,0,1,0,26775.9,0.0320125,0.0316816,-3.22338,14,0.00310424,10,-0.000102122,-2.49169,0.374237,0.157654,-19.8726,0.0316816,
2,0,0,1,0,26775.9,0.0305126,0.0302388,-3.19211,14,0.0029831,10,-9.65256e-05,-2.49592,0.366047,0.161182,-20.1591,0.0302388,
2,0,0,1,0,26776,0.0290126,0.0286743,-3.16917,14,0.00286305,10,-9.08736e-05,-2.49905,0.399194,0.147798,-18.2832,0.02867428,
2,0,0,1,0,26776,0.0275162,0.0271885,-3.14496,14,0.00274425,10,-8.5507e-05,-2.50238,0.40197,0.146777,-17.9886,0.0271885,
2,0,0,1,0,26776.1,0.0260198,0.0256728,-3.11799,14,0.00262651,10,-8.00474e-05,-2.50613,0.387544,0.152241,-18.4921,0.0256728,
2,0,0,1,0,26776.1,0.0245198,0.0241866,-3.09158,14,0.0025095,10,-7.4775e-05,-2.50982,0.376957,0.156516,-18.836,0.0241866,
2,0,0,1,0,26776.1,0.0230198,0.0227132,-3.0638,14,0.00239357,10,-6.95887e-05,-2.51374,0.424862,0.138869,-16.5927,0.0227132,
2,0,0,1,0,26776.2,0.0215243,0.0211929,-3.03257,14,0.00227888,10,-6.42689e-05,-2.51819,0.432486,0.136421,-16.1688,0.0211929,
2,0,0,1,0,26776.2,0.0200288,0.0197162,-3.00634,14,0.00216509,10,-5.92736e-05,-2.52196,0.37826,0.155977,-18.3345,0.0197162,
2,0,0,1,0,26776.2,0.0185253,0.0181803,-2.98185,14,0.00205158,10,-5.42111e-05,-2.52551,0.434167,0.135893,-15.8605,0.0181803,
2,0,0,1,0,26776.3,0.0170289,0.0166733,-2.96064,14,0.00193976,10,-4.93636e-05,-2.52861,0.439609,0.13421,-15.5366,0.0166733,
2,0,0,1,0,26776.3,0.0155325,0.0152206,-2.94399,14,0.00182868,10,-4.48093e-05,-2.53106,0.525945,0.112179,-12.8801,0.0152206,
2,0,0,1,0,26776.4,0.0140325,0.0136871,-2.92307,14,0.00171796,10,-4.00083e-05,-2.53416,0.513721,0.114848,-13.0767,0.0136871,
2,0,0,1,0,26776.4,0.0125325,0.0121685,-2.9062,14,0.00160798,10,-3.53642e-05,-2.53667,0.476789,0.123745,-14.0018,0.0121685,
2,0,0,1,0,26776.4,0.0110361,0.0107356,-2.88451,14,0.00149915,10,-3.0967e-05,-2.53993,0.571842,0.103175,-11.6146,0.0107356,
2,0,0,1,0,26776.5,0.0095397,0.00923333,-2.86556,14,0.00139097,10,-2.64586e-05,-2.54279,0.725698,0.081301,-9.10338,0.00923333,
2,0,0,1,0,26776.5,0.00803616,0.0077389,-2.84895,14,0.00128274,10,-2.20477e-05,-2.54532,0.790202,0.0746645,-8.32424,0.007738898,
2,0,0,1,0,26776.5,0.00654064,0.00623185,-2.83775,14,0.00117557,10,-1.76845e-05,-2.54703,0.813409,0.0725342,-8.05209,0.00623185,
2,0,0,1,0,26776.6,0.00504513,0.00473196,-2.82291,14,0.00106896,10,-1.33579e-05,-2.5493,0.907022,0.065048,-7.18713,0.00473196,
2,0,0,1,0,26776.6,0.00354515,0.00323379,-2.81739,14,0.000962457,10,-9.11085e-06,-2.55015,-5.01096,-0.0117742,1.30031,0.00323379,
2,0,0,1,0,26776.7,0.00204518,0.00166981,-2.85348,14,0.000856002,10,-4.76478e-06,-2.54462,4.98718,0.0118303,-1.29934,0.00166981,
2,0,0,1,0,26776.7,0.000548773,0.000194124,-2.82169,14,0.000749464,10,-5.47758e-07,-2.54949, , , ,0.000194124,
2,0,0,1,0,26776.7,0.000177222,-0.000174152,-2.81166,14,0.000723085,10,4.89656e-07,-2.55104, , , ,-0.000174152,