File: Figure_codes/Fig_3-5/rawdata_trumpetplot_data/after 10th/20221101_1-115_003_TrumpetPlot_ParaChange_from10_every3_03_CV_C01_31.csv
mode,ox/red,error,control changes,counter inc.,time/s,control/V,Ewe/V,<I>/mA,cycle number,(Q-Qo)/C,I Range,P/W,log(|I|),Tafel slope mV/dec,alpha_eff,dI/d(E-IR),E-IR/V,
2,0,0,1,0,62014.1,2.44065e-05,-0.000401673,-0.112751,32,0.0000000E+000,10,4.52889e-08,-3.94788, , , ,-0.000401673,
2,1,0,0,0,62014.3,0.00129787,0.000906869,0.115817,32,1.67954e-05,10,1.05031e-07,-3.93623, , , ,0.0009068689,
2,1,0,0,0,62014.6,0.00279606,0.0024487,0.162524,32,6.36675e-05,10,3.97974e-07,-3.78908,0.011953,4.93601,24.1757,0.0024487,
2,1,0,1,0,62014.9,0.00429469,0.00392316,0.175758,32,0.000117979,10,6.89525e-07,-3.75509,0.0466085,1.26586,8.52317,0.00392316,
2,1,0,1,0,62015.2,0.00579255,0.00538916,0.185806,32,0.000175842,10,1.00134e-06,-3.73094,0.059953,0.984104,7.087,0.00538916,
2,1,0,1,0,62015.5,0.00729041,0.00693923,0.196522,32,0.000236685,10,1.36371e-06,-3.70659,0.0807801,0.730378,5.55434,0.00693923,
2,1,0,1,0,62015.8,0.00878882,0.00843045,0.204737,32,0.000300157,10,1.72602e-06,-3.6888,0.0958544,0.615517,4.86591,0.00843045,
2,1,0,1,0,62016.1,0.010287,0.00992881,0.211896,32,0.000365774,10,2.10388e-06,-3.67388,0.117096,0.503858,4.10966,0.00992881,
2,1,0,1,0,62016.4,0.0117852,0.0113932,0.215482,32,0.000433235,10,2.45504e-06,-3.66659,0.120734,0.488677,4.12182,0.0113932,
2,1,0,1,0,62016.7,0.0132836,0.0128948,0.222269,32,0.000502355,10,2.86612e-06,-3.65312,0.123143,0.479118,4.16788,0.0128948,
2,1,0,1,0,62017,0.0147815,0.0144056,0.227821,32,0.000573341,10,3.2819e-06,-3.64241,0.150904,0.390977,3.47918,0.0144056,
2,1,0,1,0,62017.3,0.0162793,0.0159314,0.232833,32,0.000646209,10,3.70935e-06,-3.63296,0.181041,0.325893,2.95362,0.0159314,
2,1,0,0,0,62017.6,0.017778,0.0174407,0.238778,32,0.000720374,10,4.16446e-06,-3.62201,0.187567,0.314555,2.93569,0.0174407,
2,1,0,0,0,62017.9,0.0192761,0.0188924,0.243303,32,0.000795796,10,4.59659e-06,-3.61385,0.165704,0.356058,3.36898,0.0188924,
2,1,0,1,0,62018.2,0.0207747,0.0203701,0.248101,32,0.000873008,10,5.05384e-06,-3.60537,0.157067,0.375636,3.61833,0.0203701,
2,1,0,1,0,62018.5,0.0222725,0.0218744,0.25309,32,0.000951794,10,5.53619e-06,-3.59672,0.184309,0.320115,3.15823,0.0218744,
2,1,0,1,0,62018.8,0.0237704,0.0233956,0.258726,32,0.00103207,10,6.05306e-06,-3.58716,0.189985,0.31055,3.12837,0.0233956,
2,1,0,1,0,62019.1,0.0252689,0.0249155,0.262423,32,0.00111367,10,6.5384e-06,-3.581,0.184087,0.3205,3.29115,0.0249155,
2,1,0,1,0,62019.4,0.0267671,0.0263789,0.267928,32,0.0011969,10,7.06763e-06,-3.57198,0.152069,0.387982,4.05741,0.0263789,
2,1,0,1,0,62019.7,0.0282657,0.0278904,0.273586,32,0.00128177,10,7.63045e-06,-3.56291,0.188777,0.312538,3.34327,0.0278904,
2,1,0,1,0,62020,0.0297635,0.0294201,0.278709,32,0.00136822,10,8.19964e-06,-3.55485,0.195442,0.30188,3.27641,0.02942007,
2,1,0,1,0,62020.3,0.0312613,0.0308558,0.282001,32,0.00145616,10,8.70138e-06,-3.54975,0.190347,0.30996,3.43332,0.0308558,
2,1,0,0,0,62020.6,0.0327599,0.0323458,0.288724,32,0.0015454,10,9.339e-06,-3.53952,0.201756,0.292433,3.30095,0.0323458,
2,1,0,0,0,62020.9,0.034258,0.0338887,0.293964,32,0.00163639,10,9.96204e-06,-3.53171,0.188785,0.312524,3.58103,0.03388869,
2,1,0,1,0,62021.2,0.0357567,0.035399,0.299261,32,0.001729,10,1.05936e-05,-3.52395,0.250122,0.235885,2.74321,0.035399,
2,1,0,1,0,62021.5,0.0372545,0.0368729,0.303965,32,0.00182294,10,1.12081e-05,-3.51718,0.201637,0.292605,3.47845,0.03687286,
2,1,0,1,0,62021.8,0.0387524,0.0383709,0.308749,32,0.00191809,10,1.1847e-05,-3.5104,0.200676,0.294006,3.55553,0.0383709,
2,1,0,1,0,62022.1,0.0402508,0.0398757,0.314131,32,0.00201501,10,1.25262e-05,-3.50289,0.209272,0.28193,3.46075,0.0398757,
2,1,0,1,0,62022.4,0.041749,0.0413561,0.319183,32,0.00211358,10,1.32001e-05,-3.49596,0.240002,0.245832,3.05482,0.0413561,
2,1,0,1,0,62022.7,0.0432472,0.0429212,0.32387,32,0.00221344,10,1.39009e-05,-3.48963,0.26266,0.224625,2.83824,0.04292123,
2,1,0,1,0,62023,0.0447456,0.0443466,0.328865,32,0.00231446,10,1.4584e-05,-3.48298,0.243557,0.242243,3.09717,0.0443466,
2,1,0,1,0,62023.3,0.0462435,0.0458882,0.332697,32,0.00241695,10,1.52669e-05,-3.47795,0.233508,0.252668,3.27795,0.0458882,
2,1,0,1,0,62023.6,0.0477413,0.0473544,0.337095,32,0.00252083,10,1.5963e-05,-3.47225,0.268506,0.219734,2.89028,0.0473544,
2,1,0,0,0,62023.9,0.0492399,0.0488648,0.341324,32,0.00262606,10,1.66788e-05,-3.46683,0.300326,0.196453,2.6188,0.0488648,
2,1,0,0,0,62024.2,0.0507381,0.0504098,0.344954,32,0.00273238,10,1.73891e-05,-3.46224,0.277026,0.212976,2.87495,0.0504098,
2,1,0,1,0,62024.5,0.0522367,0.0518566,0.349825,32,0.00284012,10,1.81407e-05,-3.45615,0.227005,0.259907,3.55274,0.0518566,
2,1,0,1,0,62024.8,0.0537345,0.0534044,0.355094,32,0.00294931,10,1.89636e-05,-3.44966,0.271058,0.217666,3.0109,0.0534044,
2,1,0,1,0,62025.1,0.0552323,0.0548864,0.35903,32,0.0030598,10,1.97058e-05,-3.44487,0.324562,0.181784,2.53838,0.0548864,
2,1,0,1,0,62025.4,0.0567309,0.0563608,0.360841,32,0.00317147,10,2.03373e-05,-3.44268,0.303823,0.194192,2.74323,0.05636083,
2,1,0,1,0,62025.7,0.0582291,0.0578655,0.367346,32,0.00328411,10,2.12567e-05,-3.43492,0.324343,0.181906,2.60306,0.0578655,
2,1,0,1,0,62026,0.0597277,0.0593535,0.3719,32,0.00339821,10,2.20736e-05,-3.42957,0.317087,0.186069,2.68553,0.0593535,
2,1,0,1,0,62026.3,0.0612255,0.0608677,0.374158,32,0.00351345,10,2.27741e-05,-3.42694,0.451589,0.13065,1.90428,0.0608677,
2,1,0,1,0,62026.6,0.0627233,0.0623826,0.377177,32,0.00362972,10,2.35293e-05,-3.42345,0.348941,0.169083,2.49344,0.0623826,
2,1,0,0,0,62026.9,0.0642218,0.0638547,0.380804,32,0.00374687,10,2.43161e-05,-3.4193,0.348238,0.169425,2.52396,0.0638547,
2,1,0,0,0,62027.2,0.06572,0.0653531,0.384433,32,0.00386523,10,2.51239e-05,-3.41518,0.380137,0.155207,2.32848,0.0653531,
2,1,0,1,0,62027.5,0.0672187,0.0668797,0.38963,32,0.00398498,10,2.60584e-05,-3.40935,0.377867,0.15614,2.36172,0.0668797,
2,1,0,1,0,62027.8,0.0687165,0.0683616,0.391209,32,0.00410551,10,2.67437e-05,-3.40759,0.512495,0.115123,1.75969,0.06836158,
2,1,0,1,0,62028.1,0.0702144,0.0698797,0.393514,32,0.00422663,10,2.74987e-05,-3.40504,0.417593,0.141286,2.17603,0.06987974,
2,1,0,1,0,62028.4,0.0717128,0.0713677,0.396739,32,0.00434892,10,2.83143e-05,-3.4015,0.359597,0.164072,2.53978,0.0713677,
2,1,0,1,0,62028.7,0.073211,0.0728968,0.399903,32,0.00447218,10,2.91516e-05,-3.39805,0.499038,0.118228,1.84871,0.0728968,
2,1,0,1,0,62029,0.0747092,0.0743506,0.402861,32,0.00459619,10,2.99529e-05,-3.39485,0.643744,0.0916513,1.44086,0.0743506,
2,1,0,1,0,62029.3,0.0762076,0.0758321,0.404819,32,0.00472099,10,3.06983e-05,-3.39274,0.524263,0.112539,1.78206,0.0758321,
2,1,0,1,0,62029.6,0.0777054,0.0773304,0.408209,32,0.00484655,10,3.15669e-05,-3.38912,0.397901,0.148278,2.3604,0.0773304,
2,1,0,1,0,62029.9,0.0792033,0.0788577,0.413269,32,0.0049731,10,3.25895e-05,-3.38377,0.452869,0.13028,2.0925,0.0788577,
2,1,0,0,0,62030.2,0.0807019,0.0803228,0.415089,32,0.0051007,10,3.33412e-05,-3.38186,0.590179,0.0999697,1.6133,0.0803228,
2,1,0,0,0,62030.5,0.0822001,0.0818435,0.415673,32,0.00522905,10,3.40201e-05,-3.38125,0.435122,0.135594,2.20993,0.0818435,
2,1,0,1,0,62030.8,0.0836986,0.0833282,0.421223,32,0.00535809,10,3.50997e-05,-3.37549,0.457341,0.129007,2.12315,0.0833282,
2,1,0,1,0,62031.1,0.0851965,0.0848286,0.424102,32,0.00548836,10,3.5976e-05,-3.37253,0.356472,0.165511,2.74182,0.0848286,
2,1,0,1,0,62031.4,0.0866944,0.0863477,0.429062,32,0.00561981,10,3.70485e-05,-3.36748,0.437916,0.134729,2.24886,0.0863477,
2,1,0,1,0,62031.7,0.0881929,0.0878316,0.431669,32,0.00575244,10,3.79142e-05,-3.36485,0.35929,0.164213,2.77478,0.0878316,
2,1,0,1,0,62032,0.0896911,0.0893554,0.43679,32,0.00588594,10,3.90295e-05,-3.35973,0.312533,0.18878,3.226,0.0893554,
2,1,0,1,0,62032.3,0.0911897,0.0907705,0.442737,32,0.00602125,10,4.01874e-05,-3.35385,0.272319,0.216658,3.73511,0.0907705,
2,1,0,1,0,62032.6,0.0926875,0.0923204,0.448028,32,0.00615836,10,4.13621e-05,-3.3487,0.302099,0.1953,3.41208,0.0923204,
2,1,0,1,0,62032.9,0.0941853,0.0938564,0.453988,32,0.006297,10,4.26097e-05,-3.34296,0.284043,0.207715,3.67704,0.0938564,
2,1,0,0,0,62033.2,0.0956838,0.0953424,0.459201,32,0.00643713,10,4.37813e-05,-3.338,0.238438,0.247444,4.44312,0.09534242,
2,1,0,0,0,62033.5,0.097182,0.0968471,0.466305,32,0.00657943,10,4.51603e-05,-3.33133,0.194212,0.303792,5.5239,0.0968471,
2,1,0,1,0,62033.8,0.0986807,0.0983279,0.473964,32,0.00672399,10,4.66038e-05,-3.32426,0.237195,0.248741,4.60639,0.0983279,
2,1,0,1,0,62034.1,0.100179,0.0998387,0.481409,32,0.00687072,10,4.80632e-05,-3.31749,0.222496,0.265173,4.98099,0.0998387,
2,1,0,1,0,62034.4,0.101676,0.101296,0.487259,32,0.00701961,10,4.93575e-05,-3.31224,0.208521,0.282946,5.39579,0.101296,
2,1,0,1,0,62034.7,0.103175,0.102828,0.497657,32,0.00717097,10,5.1173e-05,-3.30307,0.219657,0.268601,5.20975,0.102828,
2,1,0,1,0,62035,0.104673,0.104324,0.505849,32,0.00732473,10,5.27722e-05,-3.29598,0.206668,0.285481,5.62571,0.104324,
2,1,0,1,0,62035.3,0.106171,0.105812,0.513389,32,0.00748099,10,5.43226e-05,-3.28955,0.247871,0.238027,4.75059,0.105812,
2,1,0,1,0,62035.6,0.10767,0.1073,0.519436,32,0.00763953,10,5.57354e-05,-3.28447,0.254692,0.231652,4.7021,0.1073,
2,1,0,1,0,62035.9,0.109167,0.108786,0.525926,32,0.00779979,10,5.72134e-05,-3.27908,0.26999,0.218527,4.49491,0.108786,
2,1,0,1,0,62036.2,0.110665,0.11029,0.533607,32,0.00796235,10,5.88517e-05,-3.27278,0.290113,0.203369,4.23402,0.11029,
2,1,0,0,0,62036.5,0.112164,0.11178,0.540059,32,0.00812699,10,6.03677e-05,-3.26756,0.365425,0.161456,3.39061,0.11178,
2,1,0,0,0,62036.8,0.113662,0.113293,0.545224,32,0.0082932,10,6.17701e-05,-3.26342,0.386781,0.152541,3.24392,0.113293,
2,1,0,1,0,62037.1,0.115161,0.114789,0.549831,32,0.00846059,10,6.31149e-05,-3.25977,0.375523,0.157114,3.36656,0.114789,
2,1,0,1,0,62037.4,0.116658,0.116257,0.554797,32,0.00862975,10,6.4499e-05,-3.25587,0.363942,0.162114,3.50332,0.116257,
2,1,0,1,0,62037.7,0.118156,0.117783,0.559873,32,0.00880046,10,6.59437e-05,-3.25191,0.532728,0.110751,2.41357,0.117783,
2,1,0,1,0,62038,0.119655,0.119281,0.562182,32,0.0089723,10,6.70577e-05,-3.25012,0.695939,0.0847776,1.86181,0.119281,
2,1,0,1,0,62038.3,0.121153,0.120787,0.564427,32,0.0091448,10,6.81754e-05,-3.24839,0.602269,0.0979628,2.1606,0.120787,
2,1,0,1,0,62038.6,0.122652,0.122277,0.568377,32,0.00931849,10,6.94995e-05,-3.24536,0.48331,0.122075,2.70435,0.122277,
2,1,0,1,0,62038.9,0.124149,0.123811,0.571546,32,0.009493,10,7.07638e-05,-3.24295,0.768828,0.0767402,1.70955,0.123811,
2,1,0,1,0,62039.2,0.125647,0.125306,0.574062,32,0.00966837,10,7.19333e-05,-3.24104,1.07947,0.0546566,1.22254,0.1253058,
2,1,0,0,0,62039.5,0.127146,0.12677,0.574196,32,0.00984424,10,7.27906e-05,-3.24094,1.35237,0.0436271,0.978821,0.12677,
2,1,0,0,0,62039.8,0.128644,0.128325,0.577376,32,0.0100203,10,7.4092e-05,-3.23854,4.56102,0.0129357,0.290829,0.128325,
2,1,0,1,0,62040.1,0.130143,0.129755,0.577452,32,0.0101968,10,7.49274e-05,-3.23848,-6.51071,-0.009062,-0.203397,0.129755,
2,1,0,1,0,62040.4,0.131641,0.131308,0.575757,32,0.0103732,10,7.56018e-05,-3.23976,-0.676947,-0.0871559,-1.94625,0.131308,
2,1,0,1,0,62040.7,0.133138,0.132768,0.571394,32,0.0105487,10,7.5863e-05,-3.24306,-0.433131,-0.136217,-3.03201,0.132768,
2,1,0,1,0,62041,0.134637,0.134282,0.566777,32,0.0107227,10,7.61077e-05,-3.24659,-0.316333,-0.186512,-4.1127,0.134282,
2,1,0,1,0,62041.3,0.136135,0.13579,0.558632,32,0.0108949,10,7.58564e-05,-3.25287,-0.219805,-0.26842,-5.83075,0.13579,
2,1,0,1,0,62041.6,0.137633,0.137286,0.549588,32,0.0110645,10,7.54506e-05,-3.25996,-0.159745,-0.369338,-7.87154,0.137286,
2,1,0,1,0,62041.9,0.139132,0.138794,0.537328,32,0.0112309,10,7.45778e-05,-3.26976,-0.129985,-0.453899,-9.44407,0.138794,
2,1,0,1,0,62042.2,0.140629,0.140276,0.520746,32,0.0113926,10,7.30482e-05,-3.28337,-0.107398,-0.549359,-11.1358,0.140276,
2,1,0,1,0,62042.5,0.142127,0.141759,0.504997,32,0.0115497,10,7.15879e-05,-3.29671,-0.0992728,-0.594322,-11.6405,0.141759,
2,1,0,0,0,62042.8,0.143626,0.143284,0.485315,32,0.0117017,10,6.95381e-05,-3.31398,-0.0882535,-0.668529,-12.6424,0.143284,
2,1,0,0,0,62043.1,0.145124,0.14474,0.464598,32,0.0118478,10,6.72462e-05,-3.33292,-0.079119,-0.745712,-13.5543,0.1447404,
2,1,0,1,0,62043.4,0.146623,0.146288,0.444295,32,0.0119876,10,6.4995e-05,-3.35233,-0.0790179,-0.746666,-12.9919,0.146288,
2,1,0,1,0,62043.7,0.14812,0.147751,0.426116,32,0.0121216,10,6.29591e-05,-3.37047,-0.0816001,-0.723038,-12.0293,0.147751,
2,1,0,1,0,62044,0.149618,0.149235,0.409028,32,0.0122502,10,6.10414e-05,-3.38825,-0.0844911,-0.698298,-11.176,0.149235,
2,1,0,1,0,62044.3,0.151117,0.150742,0.392792,32,0.0123738,10,5.92103e-05,-3.40584,-0.0914056,-0.645474,-9.89311,0.150742,
2,1,0,1,0,62044.6,0.152615,0.152269,0.377555,32,0.0124928,10,5.749e-05,-3.42302,-0.0988478,-0.596877,-8.85462,0.152269,
2,1,0,1,0,62044.9,0.154114,0.153736,0.365947,32,0.0126078,10,5.62593e-05,-3.43658,-0.123404,-0.478103,-6.86822,0.153736,
2,1,0,1,0,62045.2,0.155612,0.155243,0.357065,32,0.0127196,10,5.54317e-05,-3.44725,-0.130832,-0.450958,-6.30313,0.155243,
2,1,0,1,0,62045.5,0.157109,0.156785,0.34852,32,0.0128288,10,5.46428e-05,-3.45777,-0.145038,-0.406791,-5.54112,0.156785,
2,1,0,0,0,62045.8,0.158608,0.15826,0.340933,32,0.0129356,10,5.39559e-05,-3.46733,-0.17586,-0.335495,-4.48621,0.15826,
2,1,0,0,0,62046.1,0.160106,0.159787,0.334375,32,0.0130401,10,5.34287e-05,-3.47577,-0.195084,-0.302434,-3.96814,0.159787,
2,1,0,1,0,62046.4,0.161605,0.161257,0.33034,32,0.0131431,10,5.32694e-05,-3.48104,-0.234738,-0.251344,-3.23775,0.1612566,
2,1,0,1,0,62046.7,0.163102,0.162727,0.325491,32,0.0132447,10,5.29663e-05,-3.48746,-0.285163,-0.206899,-2.62752,0.162727,
2,1,0,1,0,62047,0.1646,0.164253,0.321714,32,0.0133449,10,5.28424e-05,-3.49253,-0.280673,-0.210209,-2.62799,0.164253,
2,1,0,1,0,62047.3,0.166099,0.165771,0.317568,32,0.0134438,10,5.26436e-05,-3.49816,-0.343141,-0.171941,-2.13704,0.165771,
2,1,0,1,0,62047.6,0.167597,0.167233,0.313813,32,0.0135418,10,5.24798e-05,-3.50333,-0.464596,-0.126992,-1.55544,0.167233,
2,1,0,1,0,62047.9,0.169095,0.168759,0.312489,32,0.0136391,10,5.27352e-05,-3.50517,-0.436414,-0.135193,-1.64587,0.1687586,
2,1,0,1,0,62048.2,0.170594,0.170247,0.308663,32,0.0137356,10,5.25488e-05,-3.51052,-0.395777,-0.149074,-1.80492,0.170247,
2,1,0,1,0,62048.5,0.172091,0.171753,0.306238,32,0.0138312,10,5.25973e-05,-3.51394,-0.595712,-0.0990412,-1.18961,0.171753,
2,1,0,1,0,62048.8,0.173589,0.17323,0.305313,32,0.0139264,10,5.28894e-05,-3.51525,-0.738598,-0.0798811,-0.952654,0.17323,
2,1,0,0,0,62049.1,0.175088,0.174697,0.304156,32,0.014021,10,5.31352e-05,-3.5169,-0.687979,-0.0857584,-1.01832,0.174697,
2,1,0,0,0,62049.4,0.176586,0.176204,0.302569,32,0.0141152,10,5.33138e-05,-3.51918,-0.508099,-0.116119,-1.36956,0.176204,
2,1,0,1,0,62049.7,0.178085,0.177708,0.300839,32,0.014209,10,5.34615e-05,-3.52167,-0.81766,-0.0721572,-0.847315,0.177708,
2,1,0,1,0,62050,0.179582,0.179241,0.299284,32,0.0143021,10,5.3644e-05,-3.52392,-1.06264,-0.0555223,-0.650359,0.179241,
2,1,0,1,0,62050.3,0.18108,0.180732,0.29866,32,0.0143951,10,5.39774e-05,-3.52482,-0.881317,-0.0669453,-0.780312,0.180732,
2,1,0,1,0,62050.6,0.182579,0.182249,0.297631,32,0.0144879,10,5.4243e-05,-3.52632,-0.529245,-0.11148,-1.29313,0.1822491,
2,1,0,1,0,62050.9,0.184077,0.183689,0.296835,32,0.0145802,10,5.45253e-05,-3.52749,-0.908949,-0.0649102,-0.753262,0.183689,
2,1,0,1,0,62051.2,0.185576,0.185223,0.295624,32,0.0146721,10,5.47563e-05,-3.52926,-1.43875,-0.0410077,-0.473151,0.185223,
2,1,0,1,0,62051.5,0.187074,0.186701,0.295747,32,0.014764,10,5.52162e-05,-3.52908,-1.83284,-0.0321905,-0.369102,0.186701,
2,1,0,1,0,62051.8,0.188571,0.188191,0.294765,32,0.0148555,10,5.54723e-05,-3.53052,-1.76004,-0.0335221,-0.385111,0.188191,
2,1,0,0,0,62052.1,0.19007,0.189687,0.293663,32,0.0149469,10,5.5704e-05,-3.53215,-1.36875,-0.043105,-0.492909,0.189687,
2,1,0,0,0,62052.4,0.191568,0.191208,0.292349,32,0.0150379,10,5.58995e-05,-3.5341,-1.79545,-0.0328609,-0.374942,0.191208,
2,1,0,1,0,62052.7,0.193067,0.192706,0.291591,32,0.0151288,10,5.61915e-05,-3.53523,-3.23032,-0.0182644,-0.208076,0.192706,
2,1,0,1,0,62053,0.194564,0.194179,0.290902,32,0.0152197,10,5.6487e-05,-3.53625,-3.92298,-0.0150396,-0.171299,0.194179,
2,1,0,1,0,62053.3,0.196062,0.19568,0.290926,32,0.0153103,10,5.69284e-05,-3.53622,-1.02407,-0.0576133,-0.654397,0.19568,
2,1,0,1,0,62053.6,0.197561,0.197184,0.289688,32,0.0154006,10,5.71218e-05,-3.53807,-2.32429,-0.0253841,-0.28828,0.197184,
2,1,0,1,0,62053.9,0.199059,0.198699,0.289508,32,0.0154908,10,5.75251e-05,-3.53834,-1.38303,-0.0426601,-0.481879,0.198699,
2,1,0,1,0,62054.2,0.200557,0.200217,0.289103,32,0.0155809,10,5.78832e-05,-3.53895,-2.31948,-0.0254368,-0.287133,0.200217,
2,1,0,1,0,62054.5,0.202056,0.201716,0.289488,32,0.0156708,10,5.83944e-05,-3.53837,-1.68567,-0.0350009,-0.393607,0.201716,
2,1,0,1,0,62054.8,0.203553,0.203191,0.287939,32,0.0157606,10,5.85067e-05,-3.5407,-2.02058,-0.0291996,-0.328177,0.203191,
2,1,0,1,0,62055.1,0.205051,0.204716,0.288074,32,0.0158502,10,5.89732e-05,-3.5405,2.33048,0.0253166,0.2863,0.204716,
2,1,0,0,0,62055.4,0.20655,0.206182,0.288251,32,0.0159398,10,5.94323e-05,-3.54023,-1.53711,-0.0383837,-0.431099,0.206182,
2,1,0,0,0,62055.7,0.208048,0.207663,0.287327,32,0.0160295,10,5.9667e-05,-3.54162,-2.00326,-0.029452,-0.329805,0.207663,
2,1,0,1,0,62056,0.209547,0.20921,0.287483,32,0.0161189,10,6.01445e-05,-3.54139,-1.72835,-0.0341365,-0.382569,0.20921,
2,1,0,1,0,62056.3,0.211044,0.210671,0.286547,32,0.016208,10,6.03673e-05,-3.5428,-13.7,-0.00430656,-0.0481713,0.210671,
2,1,0,1,0,62056.6,0.212542,0.212214,0.286568,32,0.0162971,10,6.08136e-05,-3.54277,8.77103,0.00672669,0.0751298,0.212214,
2,1,0,1,0,62056.9,0.214041,0.213668,0.285762,32,0.0163862,10,6.10581e-05,-3.544,-5.91168,-0.00998024,-0.111334,0.213668,
2,1,0,1,0,62057.2,0.215539,0.215173,0.285385,32,0.0164751,10,6.14069e-05,-3.54457,-2.57505,-0.0229122,-0.255739,0.2151726,
2,1,0,1,0,62057.5,0.217038,0.21666,0.283896,32,0.0165638,10,6.15088e-05,-3.54684,-1.5171,-0.0388901,-0.433345,0.21666,
2,1,0,1,0,62057.8,0.218535,0.218179,0.284959,32,0.0166524,10,6.21719e-05,-3.54522,3.43023,0.0172,0.190843,0.218179,
2,1,0,1,0,62058.1,0.220033,0.219682,0.284642,32,0.016741,10,6.25309e-05,-3.5457,-68.693,-0.000858894,-0.00954973,0.219682,
2,1,0,0,0,62058.4,0.221532,0.221212,0.284416,32,0.0168296,10,6.29161e-05,-3.54605,-0.809456,-0.0728884,-0.808422,0.2212116,
2,1,0,0,0,62058.7,0.22303,0.222689,0.283248,32,0.0169179,10,6.30762e-05,-3.54783,-9.10758,-0.00647812,-0.0716675,0.222689,
2,1,0,1,0,62059,0.224529,0.224189,0.283859,32,0.0170059,10,6.3638e-05,-3.5469,-1.88035,-0.0313771,-0.34677,0.224189,
2,1,0,1,0,62059.3,0.226026,0.225669,0.282364,32,0.0170941,10,6.37206e-05,-3.54919,127.48,0.000462816,0.00511052,0.225669,
2,1,0,1,0,62059.6,0.227524,0.227174,0.282841,32,0.0171822,10,6.42543e-05,-3.54846,-1.17657,-0.0501459,-0.552232,0.227174,
2,1,0,1,0,62059.9,0.229023,0.228715,0.281751,32,0.0172701,10,6.44407e-05,-3.55013,-2.00327,-0.0294518,-0.324994,0.228715,
2,1,0,1,0,62060.2,0.230521,0.230157,0.282162,32,0.0173578,10,6.49416e-05,-3.5495,-9.18377,-0.00642438,-0.0707932,0.2301572,
2,1,0,1,0,62060.5,0.232019,0.231652,0.281156,32,0.0174456,10,6.51306e-05,-3.55105,-9.6304,-0.00612643,-0.0672499,0.231652,
2,1,0,1,0,62060.8,0.233518,0.23315,0.281981,32,0.0175333,10,6.57438e-05,-3.54978,-2.46684,-0.0239173,-0.262356,0.23315,
2,1,0,1,0,62061.1,0.235015,0.23465,0.280628,32,0.0176208,10,6.58493e-05,-3.55187,-4.21385,-0.0140014,-0.15332,0.23465,
2,1,0,1,0,62061.4,0.236513,0.236144,0.279877,32,0.0177081,10,6.60913e-05,-3.55303,-2.36917,-0.0249032,-0.272599,0.236144,
2,1,0,0,0,62061.7,0.238012,0.237669,0.280414,32,0.0177953,10,6.66458e-05,-3.5522,-3.92312,-0.0150391,-0.164452,0.237669,
2,1,0,0,0,62062,0.23951,0.239183,0.280803,32,0.0178824,10,6.71634e-05,-3.5516,-8.26245,-0.00714074,-0.0779314,0.239183,
2,1,0,1,0,62062.3,0.241009,0.240646,0.279906,32,0.0179697,10,6.73583e-05,-3.55299,-6.87396,-0.00858312,-0.0936253,0.240646,
2,1,0,1,0,62062.6,0.242506,0.242133,0.278671,32,0.0180565,10,6.74752e-05,-3.55491,-1.45548,-0.0405365,-0.442941,0.242133,
2,1,0,1,0,62062.9,0.244004,0.243646,0.279037,32,0.0181434,10,6.79864e-05,-3.55434,5.52121,0.0106861,0.116372,0.243646,
2,1,0,1,0,62063.2,0.245503,0.245152,0.280193,32,0.0182303,10,6.86901e-05,-3.55254,2.35367,0.0250672,0.272919,0.245152,
2,1,0,1,0,62063.5,0.247001,0.246622,0.279113,32,0.0183172,10,6.88353e-05,-3.55422,-2.13428,-0.0276439,-0.300412,0.246622,
2,1,0,1,0,62063.8,0.2485,0.248122,0.278115,32,0.018404,10,6.90065e-05,-3.55578,-2.37927,-0.0247976,-0.269267,0.248122,
2,1,0,1,0,62064.1,0.249997,0.249633,0.278522,32,0.0184905,10,6.95281e-05,-3.55514,-2.96489,-0.0198996,-0.215875,0.249633,
2,1,0,1,0,62064.4,0.251495,0.251161,0.277978,32,0.0185769,10,6.98173e-05,-3.55599,-2.37917,-0.0247986,-0.268656,0.2511614,
2,1,0,0,0,62064.7,0.252994,0.252677,0.276792,32,0.0186633,10,6.99391e-05,-3.55785,-1.34011,-0.0440261,-0.476486,0.252677,
2,1,0,0,0,62065,0.254492,0.254154,0.277309,32,0.0187496,10,7.04793e-05,-3.55704,-1.64456,-0.0358759,-0.388129,0.254154,
2,1,0,1,0,62065.3,0.255991,0.255607,0.276696,32,0.0188356,10,7.07255e-05,-3.558,-15.4631,-0.00381554,-0.0412987,0.255607,
2,1,0,1,0,62065.6,0.257488,0.257172,0.276846,32,0.0189217,10,7.11972e-05,-3.55776,-3.32077,-0.0177669,-0.191542,0.257172,
2,1,0,1,0,62065.8,0.258986,0.258623,0.276512,32,0.0190078,10,7.15123e-05,-3.55829,-1.83033,-0.0322346,-0.346415,0.258623,
2,1,0,1,0,62066.1,0.260485,0.26017,0.276106,32,0.0190937,10,7.18345e-05,-3.55892,-1.52931,-0.0385794,-0.415411,0.26017,
2,1,0,1,0,62066.4,0.261983,0.261605,0.274922,32,0.0191792,10,7.1921e-05,-3.56079,-2.81226,-0.0209796,-0.225106,0.261605,
2,1,0,1,0,62066.7,0.263481,0.263131,0.274877,32,0.0192648,10,7.23285e-05,-3.56086,3.35298,0.0175963,0.188851,0.263131,
2,1,0,1,0,62067,0.26498,0.264625,0.275217,32,0.0193504,10,7.28294e-05,-3.56032,22.6996,0.00259917,0.0278692,0.264625,
2,1,0,1,0,62067.3,0.266477,0.266122,0.273919,32,0.0194359,10,7.28958e-05,-3.56238,-1.87396,-0.0314841,-0.337628,0.266122,
2,1,0,0,0,62067.6,0.267976,0.267602,0.273855,32,0.0195213,10,7.32842e-05,-3.56248,-3.90454,-0.0151106,-0.161743,0.267602,
2,1,0,0,0,62067.9,0.269474,0.269097,0.273655,32,0.0196065,10,7.36398e-05,-3.5628,6.28569,0.00938641,0.100375,0.269097,
2,1,0,0,0,62068.2,0.270972,0.270634,0.274444,32,0.0196917,10,7.42739e-05,-3.56155,-2.45465,-0.024036,-0.255863,0.270634,
2,1,0,1,0,62068.5,0.27247,0.272087,0.273788,32,0.019777,10,7.4494e-05,-3.56259,-2.09147,-0.0282098,-0.300527,0.272087,
2,1,0,1,0,62068.8,0.273968,0.273639,0.271627,32,0.0198619,10,7.43276e-05,-3.56603,-1.04116,-0.0566678,-0.604129,0.273639,
2,1,0,1,0,62069.1,0.275466,0.275114,0.271938,32,0.0199466,10,7.48138e-05,-3.56553,-1.88757,-0.0312571,-0.333205,0.2751137,
2,1,0,1,0,62069.4,0.276965,0.276619,0.272231,32,0.0200313,10,7.53043e-05,-3.56506,-3.97771,-0.0148326,-0.157783,0.276619,
2,1,0,1,0,62069.7,0.278463,0.27811,0.272146,32,0.020116,10,7.56864e-05,-3.5652,-0.893615,-0.066024,-0.698137,0.27811,
2,1,0,1,0,62070,0.279962,0.279593,0.272008,32,0.0202006,10,7.60514e-05,-3.56542,-5.92545,-0.00995704,-0.105748,0.279593,
2,1,0,1,0,62070.3,0.281459,0.281085,0.271998,32,0.0202849,10,7.64548e-05,-3.56543,5.35813,0.0110113,0.116954,0.281085,
2,1,0,1,0,62070.6,0.282957,0.282619,0.27107,32,0.0203693,10,7.66095e-05,-3.56692,-2.49337,-0.0236628,-0.250166,0.282619,
2,1,0,0,0,62070.9,0.284456,0.284163,0.271117,32,0.0204537,10,7.70412e-05,-3.56684,-1.81662,-0.032478,-0.342833,0.284163,
2,1,0,0,0,62071.2,0.285954,0.285631,0.270872,32,0.0205379,10,7.73696e-05,-3.56724,-1.32022,-0.0446895,-0.471493,0.2856313,
2,1,0,0,0,62071.5,0.287452,0.287073,0.269866,32,0.0206217,10,7.74712e-05,-3.56885,28.155,0.00209554,0.0221072,0.287073,
2,1,0,1,0,62071.8,0.28895,0.288598,0.269296,32,0.0207057,10,7.77185e-05,-3.56977,4.1505,0.0142151,0.149052,0.288598,
2,1,0,1,0,62072.1,0.290448,0.290091,0.26919,32,0.0207895,10,7.80895e-05,-3.56994,-1.97725,-0.0298394,-0.313083,0.290091,
2,1,0,1,0,62072.4,0.291947,0.2916,0.268824,32,0.0208732,10,7.83892e-05,-3.57053,6.5414,0.00901948,0.0947067,0.2916,
2,1,0,1,0,62072.7,0.293445,0.293071,0.267115,32,0.0209567,10,7.82837e-05,-3.5733,4.53133,0.0130205,0.136558,0.293071,
2,1,0,1,0,62073,0.294943,0.294616,0.268324,32,0.0210401,10,7.90526e-05,-3.57134,-2.7882,-0.0211606,-0.221098,0.2946161,
2,1,0,1,0,62073.3,0.296442,0.296071,0.267992,32,0.0211235,10,7.93447e-05,-3.57188,-3.58949,-0.0164369,-0.171352,0.296071,
2,1,0,1,0,62073.6,0.297939,0.297614,0.267728,32,0.0212068,10,7.96794e-05,-3.57231,-1.1522,-0.0512064,-0.532778,0.297614,
2,1,0,1,0,62073.9,0.299437,0.299095,0.265874,32,0.0212899,10,7.95216e-05,-3.57532,-0.00300033,-19.6645,-112.199,0.299095,
2,1,0,1,0,62074.1,0.299737,0.299386,0.140924,32,0.0213298,10,4.21907e-05,-3.85102,0.00105726,55.8045,209.308,0.299386,
2,1,0,1,0,62074.4,0.29824,0.29787,0.029916,32,0.0213459,10,8.91107e-06,-4.5241,0.0018182,32.4497,73.2429,0.29787,
2,1,0,0,0,62074.7,0.296741,0.296404,0.00887125,32,0.0213481,10,2.62947e-06,-5.05202,0.00567204,10.4019,12.7698,0.296404,
2,1,0,0,0,62075,0.295243,0.294836,-0.0048638,32,0.0213454,10,-1.43402e-06,-5.31302,-0.050447,-1.16954,7.33409,0.294836,
2,0,0,1,0,62075.3,0.293744,0.293408,-0.014967,32,0.0213394,10,-4.39145e-06,-4.82486,-0.00264136,-22.337,5.78705,0.2934078,
2,0,0,1,0,62075.6,0.292246,0.291871,-0.0230786,32,0.021331,10,-6.73596e-06,-4.63679,-0.00900401,-6.55263,4.91033,0.291871,
2,0,0,1,0,62075.9,0.290749,0.290364,-0.0288525,32,0.0213203,10,-8.37772e-06,-4.53982,-0.013695,-4.30816,4.4884,0.290364,
2,0,0,1,0,62076.2,0.28925,0.288859,-0.0354772,32,0.0213075,10,-1.02479e-05,-4.45005,-0.0191123,-3.08702,4.07623,0.288859,
2,0,0,1,0,62076.5,0.287752,0.287395,-0.0403388,32,0.0212931,10,-1.15932e-05,-4.39428,-0.0247988,-2.37915,3.68869,0.287395,
2,0,0,1,0,62076.8,0.286253,0.285908,-0.0457541,32,0.0212772,10,-1.30814e-05,-4.33957,-0.0310566,-1.89976,3.37941,0.285908,
2,0,0,1,0,62077.1,0.284755,0.284432,-0.04989,32,0.0212597,10,-1.41903e-05,-4.30199,-0.0339033,-1.74024,3.40399,0.284432,
2,0,0,1,0,62077.4,0.283257,0.282923,-0.0553928,32,0.0212407,10,-1.56719e-05,-4.25655,-0.0472507,-1.24866,2.65043,0.282923,
2,0,0,0,0,62077.7,0.281759,0.281395,-0.058847,32,0.0212205,10,-1.65593e-05,-4.23028,-0.0503506,-1.17178,2.65549,0.281395,
2,0,0,0,0,62078,0.280261,0.279887,-0.0620507,32,0.0211992,10,-1.73672e-05,-4.20725,-0.0565978,-1.04244,2.56211,0.279887,
2,0,0,0,0,62078.3,0.278763,0.278424,-0.0665458,32,0.0211768,10,-1.85279e-05,-4.17688,-0.0632452,-0.932877,2.39793,0.2784237,
2,0,0,1,0,62078.6,0.277264,0.276887,-0.0707592,32,0.021153,10,-1.95923e-05,-4.15022,-0.0723401,-0.815591,2.22029,0.276887,
2,0,0,1,0,62078.9,0.275766,0.275417,-0.0740175,32,0.0211282,10,-2.03857e-05,-4.13067,-0.0945914,-0.623735,1.77939,0.275417,
2,0,0,1,0,62079.2,0.274269,0.273892,-0.0770061,32,0.0211024,10,-2.10914e-05,-4.11347,-0.0889836,-0.663043,1.99252,0.273892,
2,0,0,1,0,62079.5,0.27277,0.272349,-0.079733,32,0.0210758,10,-2.17152e-05,-4.09836,-0.0832375,-0.708816,2.22002,0.272349,
2,0,0,1,0,62079.8,0.271272,0.270904,-0.0833622,32,0.0210481,10,-2.25832e-05,-4.07903,-0.102213,-0.577224,1.86876,0.270904,
2,0,0,1,0,62080.1,0.269773,0.269414,-0.0866611,32,0.0210193,10,-2.33477e-05,-4.06218,-0.0977313,-0.603696,2.02228,0.269414,
2,0,0,1,0,62080.4,0.268275,0.2679,-0.0891572,32,0.0209898,10,-2.38853e-05,-4.04984,-0.121914,-0.483947,1.67702,0.2679,
2,0,0,1,0,62080.7,0.266778,0.2664,-0.0911791,32,0.0209596,10,-2.42901e-05,-4.0401,-0.115186,-0.512215,1.82743,0.2664001,
2,0,0,0,0,62081,0.265279,0.264897,-0.0947755,32,0.0209285,10,-2.51057e-05,-4.0233,-0.105949,-0.55687,2.03607,0.264897,
2,0,0,0,0,62081.3,0.263781,0.263392,-0.0970914,32,0.0208965,10,-2.55731e-05,-4.01282,-0.137599,-0.428783,1.62933,0.263392,
2,0,0,1,0,62081.6,0.262282,0.261921,-0.0991331,32,0.0208638,10,-2.59651e-05,-4.00378,-0.139732,-0.422238,1.6403,0.261921,
2,0,0,1,0,62081.9,0.260784,0.260435,-0.101981,32,0.0208304,10,-2.65594e-05,-3.99148,-0.131676,-0.448068,1.79164,0.260435,
2,0,0,1,0,62082.2,0.259286,0.258928,-0.104537,32,0.0207962,10,-2.70675e-05,-3.98073,-0.122918,-0.479995,1.96422,0.258928,
2,0,0,1,0,62082.5,0.257788,0.257436,-0.108104,32,0.0207612,10,-2.78299e-05,-3.96616,-0.133744,-0.441141,1.84417,0.257436,
2,0,0,1,0,62082.8,0.25629,0.255913,-0.109989,32,0.0207254,10,-2.81476e-05,-3.95865,-0.182849,-0.322671,1.37301,0.255913,
2,0,0,1,0,62083.1,0.254791,0.254431,-0.111065,32,0.020689,10,-2.82584e-05,-3.95442,-0.166963,-0.353373,1.54347,0.2544314,
2,0,0,1,0,62083.4,0.253293,0.252919,-0.113984,32,0.020652,10,-2.88288e-05,-3.94315,-0.179515,-0.328664,1.46117,0.2529186,
2,0,0,1,0,62083.7,0.251795,0.251425,-0.116052,32,0.0206143,10,-2.91785e-05,-3.93535,-0.19231,-0.306797,1.39474,0.251425,
2,0,0,0,0,62084,0.250297,0.24995,-0.117293,32,0.020576,10,-2.93173e-05,-3.93073,-0.321441,-0.183548,0.842374,0.24995,
2,0,0,0,0,62084.3,0.248799,0.248498,-0.119566,32,0.0205372,10,-2.97119e-05,-3.92239,-0.237524,-0.248396,1.16451,0.248498,
2,0,0,0,0,62084.6,0.247301,0.246917,-0.122289,32,0.0204978,10,-3.01952e-05,-3.91261,-0.206634,-0.285529,1.3684,0.246917,
2,0,0,1,0,62084.9,0.245802,0.24546,-0.124464,32,0.0204577,10,-3.0551e-05,-3.90496,-0.181034,-0.325905,1.56955,0.24546,
2,0,0,1,0,62085.2,0.244304,0.243975,-0.126504,32,0.0204168,10,-3.08639e-05,-3.8979,-0.2415,-0.244306,1.20139,0.243975,
2,0,0,1,0,62085.5,0.242806,0.242439,-0.128834,32,0.0203754,10,-3.12344e-05,-3.88997,-0.294085,-0.200622,1.00488,0.242439,
2,0,0,1,0,62085.8,0.241308,0.24098,-0.129017,32,0.0203335,10,-3.10904e-05,-3.88935,-0.206896,-0.285168,1.45228,0.24098,
2,0,0,1,0,62086.1,0.23981,0.239457,-0.130327,32,0.0202911,10,-3.12077e-05,-3.88497,-0.208257,-0.283304,1.45538,0.239457,
2,0,0,1,0,62086.4,0.238311,0.237961,-0.13288,32,0.0202481,10,-3.16202e-05,-3.87654,-0.285285,-0.206811,1.07908,0.237961,
2,0,0,1,0,62086.7,0.236813,0.236464,-0.135354,32,0.0202046,10,-3.20063e-05,-3.86853,-0.264465,-0.223092,1.17743,0.236464,
2,0,0,1,0,62087,0.235316,0.234939,-0.135857,32,0.0201605,10,-3.19181e-05,-3.86692,-0.277222,-0.212826,1.13926,0.2349391,
2,0,0,0,0,62087.3,0.233817,0.233486,-0.13937,32,0.020116,10,-3.25409e-05,-3.85583,-0.283558,-0.20807,1.13089,0.233486,
2,0,0,0,0,62087.6,0.232319,0.231944,-0.141399,32,0.0200707,10,-3.27966e-05,-3.84955,-0.296453,-0.19902,1.09155,0.231944,
2,0,0,1,0,62087.9,0.23082,0.230433,-0.1424,32,0.0200249,10,-3.28136e-05,-3.84649,-0.389523,-0.151467,0.840721,0.230433,
2,0,0,1,0,62088.2,0.229322,0.228977,-0.143426,32,0.0199787,10,-3.28412e-05,-3.84337,-0.269844,-0.218645,1.22657,0.228977,
2,0,0,1,0,62088.5,0.227825,0.227442,-0.14527,32,0.0199321,10,-3.30405e-05,-3.83782,-0.276487,-0.213391,1.22514,0.227442,
2,0,0,1,0,62088.8,0.226326,0.225988,-0.147672,32,0.0198849,10,-3.33721e-05,-3.8307,-0.285545,-0.206622,1.18618,0.225988,
2,0,0,1,0,62089.1,0.224828,0.224477,-0.149571,32,0.0198371,10,-3.35753e-05,-3.82515,-0.470085,-0.125509,0.730299,0.224477,
2,0,0,1,0,62089.4,0.223329,0.222958,-0.152318,32,0.0197888,10,-3.39606e-05,-3.81725,-0.28314,-0.208378,1.23143,0.222958,
2,0,0,1,0,62089.7,0.221831,0.221495,-0.153337,32,0.0197401,10,-3.39634e-05,-3.81435,-0.296399,-0.199056,1.18594,0.221495,
2,0,0,1,0,62090,0.220333,0.220026,-0.154343,32,0.0196907,10,-3.39595e-05,-3.81151,-0.297923,-0.198037,1.19159,0.220026,
2,0,0,0,0,62090.3,0.218835,0.218475,-0.156711,32,0.0196407,10,-3.42373e-05,-3.8049,-0.402505,-0.146582,0.893866,0.2184747,
2,0,0,0,0,62090.6,0.217337,0.21696,-0.157551,32,0.0195903,10,-3.41824e-05,-3.80258,-0.407323,-0.144848,0.894855,0.21696,
2,0,0,0,0,62090.9,0.215839,0.215454,-0.159655,32,0.0195395,10,-3.43983e-05,-3.79682,-0.33558,-0.175815,1.09874,0.215454,
2,0,0,1,0,62091.2,0.21434,0.21389,-0.160857,32,0.0194881,10,-3.44059e-05,-3.79356,-0.237683,-0.24823,1.56317,0.21389,
2,0,0,1,0,62091.5,0.212842,0.212492,-0.162726,32,0.0194361,10,-3.4578e-05,-3.78854,-0.273436,-0.215773,1.37492,0.212492,
2,0,0,1,0,62091.8,0.211344,0.21099,-0.164967,32,0.0193836,10,-3.48065e-05,-3.7826,-0.40382,-0.146105,0.944043,0.21099,
2,0,0,1,0,62092.1,0.209846,0.209479,-0.165088,32,0.0193306,10,-3.45825e-05,-3.78228,-0.333709,-0.176801,1.15079,0.209479,
2,0,0,1,0,62092.4,0.208348,0.207969,-0.168035,32,0.0192772,10,-3.49462e-05,-3.7746,-0.280589,-0.210272,1.37872,0.207969,
2,0,0,1,0,62092.7,0.206849,0.206531,-0.171802,32,0.0192231,10,-3.54825e-05,-3.76497,-0.27642,-0.213443,1.41851,0.206531,
2,0,0,1,0,62093,0.205351,0.205011,-0.171919,32,0.0191683,10,-3.52453e-05,-3.76468,-0.491536,-0.120032,0.801116,0.205011,
2,0,0,1,0,62093.3,0.203854,0.203465,-0.173292,32,0.0191132,10,-3.52588e-05,-3.76122,-0.372383,-0.158439,1.07587,0.203465,
2,0,0,0,0,62093.6,0.202355,0.201992,-0.174848,32,0.0190578,10,-3.53178e-05,-3.75734,-0.346964,-0.170046,1.16484,0.201992,
2,0,0,0,0,62093.9,0.200857,0.200473,-0.176785,32,0.0190016,10,-3.54407e-05,-3.75255,-0.386862,-0.152509,1.05423,0.200473,
2,0,0,1,0,62094.2,0.199358,0.198949,-0.178474,32,0.0189449,10,-3.55073e-05,-3.74842,-0.462061,-0.127689,0.887904,0.198949,
2,0,0,1,0,62094.5,0.19786,0.197501,-0.180264,32,0.0188877,10,-3.56022e-05,-3.74409,-0.330804,-0.178354,1.25532,0.197501,
2,0,0,1,0,62094.8,0.196363,0.196021,-0.182267,32,0.0188302,10,-3.57282e-05,-3.73929,-0.332925,-0.177217,1.26141,0.196021,
2,0,0,1,0,62095.1,0.194864,0.194545,-0.184169,32,0.0187718,10,-3.5829e-05,-3.73478,-0.266532,-0.221362,1.58615,0.194545,
2,0,0,1,0,62095.4,0.193366,0.192962,-0.186252,32,0.0187129,10,-3.59397e-05,-3.7299,-0.304244,-0.193923,1.40544,0.192962,
2,0,0,1,0,62095.7,0.191867,0.191457,-0.18786,32,0.0186534,10,-3.59672e-05,-3.72617,-0.464625,-0.126984,0.934406,0.191457,
2,0,0,1,0,62096,0.190369,0.190024,-0.189277,32,0.0185935,10,-3.59672e-05,-3.7229,-0.298832,-0.197435,1.46499,0.190024,
2,0,0,1,0,62096.3,0.188871,0.188497,-0.191858,32,0.0185328,10,-3.61647e-05,-3.71702,-0.263151,-0.224206,1.67359,0.188497,
2,0,0,0,0,62096.6,0.187373,0.187035,-0.19451,32,0.0184715,10,-3.63802e-05,-3.71106,-0.306097,-0.19275,1.45629,0.187035,
2,0,0,0,0,62096.9,0.185875,0.18553,-0.196314,32,0.0184096,10,-3.64221e-05,-3.70705,-0.328802,-0.179439,1.36792,0.18553,
2,0,0,0,0,62097.2,0.184377,0.184019,-0.196699,32,0.0183472,10,-3.61963e-05,-3.7062,-0.381228,-0.154763,1.19654,0.184019,
2,0,0,1,0,62097.5,0.182878,0.182489,-0.20096,32,0.0182841,10,-3.6673e-05,-3.69689,-0.318264,-0.185381,1.44891,0.182489,
2,0,0,1,0,62097.8,0.181381,0.181039,-0.202328,32,0.0182201,10,-3.66293e-05,-3.69394,-0.298032,-0.197965,1.56836,0.181039,
2,0,0,1,0,62098.1,0.179882,0.179509,-0.204906,32,0.0181555,10,-3.67825e-05,-3.68845,-0.495172,-0.119151,0.951503,0.179509,
2,0,0,1,0,62098.4,0.178384,0.178047,-0.206454,32,0.0180902,10,-3.67584e-05,-3.68518,-0.322257,-0.183084,1.48465,0.1780467,
2,0,0,1,0,62098.7,0.176886,0.176553,-0.208631,32,0.0180244,10,-3.68343e-05,-3.68062,-0.269332,-0.219061,1.79429,0.176553,
2,0,0,1,0,62099,0.175387,0.175042,-0.211483,32,0.0179576,10,-3.70185e-05,-3.67472,-0.348551,-0.169272,1.39626,0.175042,
2,0,0,1,0,62099.3,0.173889,0.173501,-0.214743,32,0.0178901,10,-3.72581e-05,-3.66808,-0.292178,-0.201932,1.69664,0.173501,
2,0,0,1,0,62099.6,0.172392,0.172074,-0.217289,32,0.017822,10,-3.73897e-05,-3.66296,-0.301324,-0.195802,1.66177,0.172074,
2,0,0,0,0,62099.9,0.170893,0.170556,-0.219714,32,0.017753,10,-3.74736e-05,-3.65814,-0.218932,-0.26949,2.31352,0.170556,
2,0,0,0,0,62100.2,0.169395,0.169008,-0.223247,32,0.0176831,10,-3.77304e-05,-3.65122,-0.214515,-0.275039,2.38712,0.169008,
2,0,0,1,0,62100.5,0.167896,0.167557,-0.226899,32,0.017612,10,-3.80186e-05,-3.64417,-0.253827,-0.232442,2.05741,0.1675569,
2,0,0,1,0,62100.8,0.166398,0.166028,-0.228852,32,0.0175402,10,-3.79958e-05,-3.64045,-0.255631,-0.230802,2.08264,0.166028,
2,0,0,1,0,62101.1,0.164901,0.16454,-0.231835,32,0.0174675,10,-3.81461e-05,-3.63482,-0.228711,-0.257967,2.34572,0.16454,
2,0,0,1,0,62101.4,0.163402,0.163053,-0.236089,32,0.0173938,10,-3.8495e-05,-3.62692,-0.198466,-0.29728,2.74497,0.163053,
2,0,0,1,0,62101.7,0.161904,0.161582,-0.240698,32,0.0173188,10,-3.88924e-05,-3.61853,-0.200392,-0.294422,2.75967,0.161582,
2,0,0,1,0,62102,0.160405,0.160023,-0.245637,32,0.0172426,10,-3.93074e-05,-3.60971,-0.240766,-0.245051,2.33216,0.1600226,
2,0,0,1,0,62102.3,0.158907,0.158518,-0.247312,32,0.0171653,10,-3.92035e-05,-3.60675,-0.219198,-0.269163,2.61252,0.158518,
2,0,0,1,0,62102.6,0.157409,0.157084,-0.253291,32,0.0170867,10,-3.97879e-05,-3.59638,-0.175831,-0.33555,3.3224,0.157084,
2,0,0,0,0,62102.9,0.155911,0.155597,-0.258087,32,0.0170066,10,-4.01575e-05,-3.58823,-0.177459,-0.332471,3.35719,0.155597,
2,0,0,0,0,62103.2,0.154413,0.154032,-0.263967,32,0.0169248,10,-4.06593e-05,-3.57845,-0.18849,-0.313014,3.2138,0.154032,
2,0,0,0,0,62103.5,0.152915,0.152575,-0.26997,32,0.0168414,10,-4.11906e-05,-3.56868,-0.156217,-0.37768,3.98395,0.152575,
2,0,0,1,0,62103.8,0.151416,0.151058,-0.275886,32,0.0167564,10,-4.16749e-05,-3.55927,-0.141537,-0.416854,4.5013,0.151058,
2,0,0,1,0,62104.1,0.149919,0.14952,-0.283809,32,0.016669,10,-4.24351e-05,-3.54697,-0.127466,-0.462869,5.1134,0.14952,
2,0,0,1,0,62104.4,0.14842,0.148086,-0.291013,32,0.0165795,10,-4.3095e-05,-3.53609,-0.124613,-0.473465,5.38767,0.148086,
2,0,0,1,0,62104.7,0.146922,0.146571,-0.299604,32,0.0164875,10,-4.39132e-05,-3.52345,-0.111362,-0.529805,6.21643,0.146571,
2,0,0,1,0,62105,0.145424,0.145063,-0.308992,32,0.016393,10,-4.48232e-05,-3.51005,-0.10481,-0.562925,6.80249,0.145063,
2,0,0,1,0,62105.3,0.143925,0.143583,-0.319744,32,0.016295,10,-4.59099e-05,-3.4952,-0.0927799,-0.635914,7.93907,0.143583,
2,0,0,1,0,62105.6,0.142427,0.142076,-0.33275,32,0.0161936,10,-4.72757e-05,-3.47788,-0.0921241,-0.64044,8.32982,0.142076,
2,0,0,1,0,62105.9,0.14093,0.140527,-0.345284,32,0.0160884,10,-4.85216e-05,-3.46182,-0.0913015,-0.646211,8.71517,0.140527,
2,0,0,0,0,62106.2,0.139431,0.139047,-0.357539,32,0.0159792,10,-4.97148e-05,-3.44668,-0.0856796,-0.688612,9.65534,0.139047,
2,0,0,0,0,62106.5,0.137933,0.137586,-0.374114,32,0.0158659,10,-5.14728e-05,-3.427,-0.0837466,-0.704506,10.2827,0.137586,
2,0,0,1,0,62106.8,0.136434,0.136072,-0.389976,32,0.0157479,10,-5.3065e-05,-3.40896,-0.0837669,-0.704335,10.7046,0.136072,
2,0,0,1,0,62107.1,0.134936,0.134552,-0.406314,32,0.0156251,10,-5.46703e-05,-3.39114,-0.0869459,-0.678583,10.7102,0.134552,
2,0,0,1,0,62107.4,0.133439,0.133052,-0.421216,32,0.0154976,10,-5.60436e-05,-3.3755,-0.0875742,-0.673714,11.09,0.133052,
2,0,0,1,0,62107.7,0.13194,0.131573,-0.437785,32,0.0153651,10,-5.76008e-05,-3.35874,-0.0898712,-0.656495,11.2574,0.131573,
2,0,0,1,0,62108,0.130442,0.130088,-0.45403,32,0.0152275,10,-5.90638e-05,-3.34292,-0.0949257,-0.621539,11.0413,0.130088,
2,0,0,1,0,62108.3,0.128943,0.128547,-0.471687,32,0.0150847,10,-6.06337e-05,-3.32635,-0.102626,-0.574906,10.5549,0.128547,
2,0,0,1,0,62108.6,0.127445,0.127052,-0.488441,32,0.0149371,10,-6.20572e-05,-3.31119,-0.110751,-0.532727,10.1143,0.127052,
2,0,0,1,0,62108.9,0.125947,0.125587,-0.503342,32,0.0147853,10,-6.3213e-05,-3.29814,-0.120351,-0.490234,9.59832,0.125587,
2,0,0,0,0,62109.2,0.124449,0.124087,-0.516949,32,0.0146289,10,-6.41466e-05,-3.28655,-0.128888,-0.457762,9.18431,0.124087,
2,0,0,0,0,62109.5,0.122951,0.122607,-0.528286,32,0.0144684,10,-6.47713e-05,-3.27713,-0.151919,-0.388364,7.99758,0.122607,
2,0,0,0,0,62109.8,0.121453,0.121107,-0.540759,32,0.0143044,10,-6.54897e-05,-3.267,-0.18427,-0.320183,6.7249,0.121107,
2,0,0,1,0,62110.1,0.119954,0.119619,-0.548671,32,0.0141374,10,-6.56315e-05,-3.26069,-0.210603,-0.280147,5.99856,0.119619,
2,0,0,1,0,62110.4,0.118456,0.118116,-0.557572,32,0.0139677,10,-6.5858e-05,-3.2537,-0.2227,-0.26493,5.75366,0.118116,
2,0,0,1,0,62110.7,0.116958,0.116598,-0.564703,32,0.0137953,10,-6.58434e-05,-3.24818,-0.292492,-0.201715,4.4356,0.116598,
2,0,0,1,0,62111,0.11546,0.115055,-0.569796,32,0.0136213,10,-6.55581e-05,-3.24428,-0.505887,-0.116627,2.58824,0.115055,
2,0,0,1,0,62111.3,0.113962,0.113623,-0.572328,32,0.0134461,10,-6.50295e-05,-3.24236,-0.690721,-0.085418,1.90581,0.113623,
2,0,0,1,0,62111.6,0.112463,0.112154,-0.576767,32,0.01327,10,-6.46868e-05,-3.239,-1.27645,-0.046222,1.03675,0.112154,
2,0,0,1,0,62111.9,0.110965,0.110653,-0.578203,32,0.0130932,10,-6.39797e-05,-3.23792,-1.5008,-0.0393124,0.884518,0.110653,
2,0,0,1,0,62112.2,0.109468,0.109102,-0.578578,32,0.0129162,10,-6.31237e-05,-3.23764,3.56236,0.0165621,-0.373207,0.109102,
2,0,0,0,0,62112.5,0.107969,0.107611,-0.578339,32,0.0127389,10,-6.22359e-05,-3.23782,-7.64767,-0.00771477,0.174105,0.107611,
2,0,0,0,0,62112.8,0.106471,0.106103,-0.577643,32,0.0125621,10,-6.12899e-05,-3.23834,24.2918,0.00242881,-0.0548019,0.106103,
2,0,0,1,0,62113.1,0.104972,0.104631,-0.576749,32,0.0123852,10,-6.03459e-05,-3.23901,2.22777,0.0264838,-0.59624,0.104631,
2,0,0,1,0,62113.4,0.103474,0.10311,-0.575912,32,0.0122083,10,-5.93822e-05,-3.23964,1.78935,0.0329728,-0.740966,0.1031099,
2,0,0,1,0,62113.7,0.101977,0.101629,-0.575649,32,0.0120319,10,-5.85025e-05,-3.23984,1.06233,0.0555384,-1.2445,0.101629,
2,0,0,1,0,62114,0.100478,0.100108,-0.57296,32,0.0118562,10,-5.73578e-05,-3.24188,1.40941,0.0418615,-0.936626,0.1001079,
2,0,0,1,0,62114.3,0.0989798,0.0986223,-0.572197,32,0.0116808,10,-5.64314e-05,-3.24245,4.08218,0.0144531,-0.321911,0.0986223,
2,0,0,1,0,62114.6,0.0974812,0.0971256,-0.570587,32,0.0115057,10,-5.54186e-05,-3.24368,0.984125,0.0599517,-1.33482,0.09712562,
2,0,0,1,0,62114.9,0.0959834,0.0956243,-0.568154,32,0.0113313,10,-5.43294e-05,-3.24553,0.940421,0.0627379,-1.39135,0.0956243,
2,0,0,1,0,62115.2,0.0944855,0.0941814,-0.564714,32,0.0111576,10,-5.31856e-05,-3.24817,0.973335,0.0606164,-1.34056,0.0941814,
2,0,0,0,0,62115.5,0.0929871,0.0926257,-0.563718,32,0.0109845,10,-5.22147e-05,-3.24894,1.55482,0.0379465,-0.835876,0.0926257,
2,0,0,0,0,62115.8,0.0914889,0.0911252,-0.563228,32,0.0108118,10,-5.13242e-05,-3.24932,0.888371,0.0664137,-1.45672,0.09112519,
2,0,0,0,0,62116.1,0.0899907,0.0896194,-0.560729,32,0.0106398,10,-5.02522e-05,-3.25125,0.633796,0.0930898,-2.03141,0.0896194,
2,0,0,1,0,62116.4,0.0884923,0.0881378,-0.555581,32,0.0104685,10,-4.89677e-05,-3.25525,0.660735,0.0892945,-1.94094,0.0881378,
2,0,0,1,0,62116.7,0.0869946,0.0865976,-0.554944,32,0.0102984,10,-4.80568e-05,-3.25575,0.59549,0.099078,-2.14524,0.0865976,
2,0,0,1,0,62117,0.0854961,0.0851551,-0.551812,32,0.0101289,10,-4.69896e-05,-3.25821,0.590065,0.0999889,-2.15155,0.0851551,
2,0,0,1,0,62117.3,0.083998,0.083609,-0.548671,32,0.00996028,10,-4.58739e-05,-3.26069,0.524989,0.112383,-2.40223,0.08360903,
2,0,0,1,0,62117.6,0.0824998,0.0821255,-0.545273,32,0.00979255,10,-4.47808e-05,-3.26339,0.556757,0.105971,-2.25615,0.0821255,
2,0,0,1,0,62117.9,0.0810014,0.0806596,-0.541195,32,0.00962605,10,-4.36526e-05,-3.26665,0.664923,0.088732,-1.88008,0.0806596,
2,0,0,1,0,62118.2,0.0795035,0.0791469,-0.539177,32,0.00946029,10,-4.26742e-05,-3.26827,0.698814,0.0844288,-1.77487,0.0791469,
2,0,0,1,0,62118.5,0.0780056,0.0776362,-0.537315,32,0.00929528,10,-4.17151e-05,-3.26977,0.594903,0.0991759,-2.07308,0.0776362,
2,0,0,0,0,62118.8,0.076507,0.0760992,-0.533654,32,0.00913117,10,-4.06106e-05,-3.27274,0.609941,0.0967307,-2.0128,0.0760992,
2,0,0,0,0,62119.1,0.0750088,0.0746443,-0.529915,32,0.0089686,10,-3.95552e-05,-3.27579,0.597537,0.0987387,-2.04532,0.07464435,
2,0,0,1,0,62119.4,0.0735103,0.0731509,-0.526947,32,0.00880654,10,-3.85467e-05,-3.27823,0.830037,0.0710812,-1.4561,0.0731509,
2,0,0,1,0,62119.7,0.0720124,0.0716307,-0.52451,32,0.00864542,10,-3.7571e-05,-3.28025,0.550369,0.107201,-2.19242,0.0716307,
2,0,0,1,0,62120,0.0705146,0.0701455,-0.521047,32,0.00848531,10,-3.65491e-05,-3.28312,0.584019,0.101024,-2.05327,0.0701455,
2,0,0,1,0,62120.3,0.069016,0.0686721,-0.515082,32,0.00832633,10,-3.53718e-05,-3.28812,0.538972,0.109468,-2.21139,0.0686721,
2,0,0,1,0,62120.6,0.0675179,0.0671515,-0.514155,32,0.00816838,10,-3.45263e-05,-3.28891,0.662447,0.0890637,-1.78756,0.0671515,
2,0,0,1,0,62120.9,0.0660192,0.0656284,-0.513131,32,0.00801106,10,-3.3676e-05,-3.28977,0.66368,0.0888983,-1.77308,0.0656284,
2,0,0,1,0,62121.2,0.0645214,0.0642118,-0.50845,32,0.00785452,10,-3.26485e-05,-3.29375,0.469725,0.125605,-2.4855,0.06421183,
2,0,0,1,0,62121.5,0.0630235,0.0627012,-0.504277,32,0.00769912,10,-3.16187e-05,-3.29733,0.535983,0.110078,-2.16878,0.0627012,
2,0,0,0,0,62121.8,0.0615251,0.061209,-0.501528,32,0.00754483,10,-3.0698e-05,-3.2997,0.510273,0.115624,-2.26631,0.061209,
2,0,0,0,0,62122.1,0.0600269,0.0596831,-0.498274,32,0.00739135,10,-2.97385e-05,-3.30253,0.589628,0.100063,-1.94783,0.0596831,
2,0,0,0,0,62122.4,0.0585287,0.0581805,-0.495711,32,0.00723866,10,-2.88407e-05,-3.30477,0.399951,0.147518,-2.84672,0.0581805,
2,0,0,1,0,62122.7,0.0570303,0.0566925,-0.492411,32,0.00708686,10,-2.7916e-05,-3.30767,0.458979,0.128546,-2.4724,0.0566925,
2,0,0,1,0,62123,0.0555325,0.0551648,-0.488622,32,0.0069365,10,-2.69547e-05,-3.31103,0.567544,0.103957,-1.98685,0.05516478,
2,0,0,1,0,62123.3,0.0540342,0.0537512,-0.485361,32,0.00678686,10,-2.60887e-05,-3.31394,0.588688,0.100223,-1.898,0.0537512,
2,0,0,1,0,62123.6,0.052536,0.0521425,-0.483816,32,0.00663787,10,-2.52274e-05,-3.31532,0.591299,0.0997803,-1.87695,0.0521425,
2,0,0,1,0,62123.9,0.0510378,0.0506304,-0.480346,32,0.00649,10,-2.43201e-05,-3.31845,0.503907,0.117085,-2.19262,0.0506304,
2,0,0,1,0,62124.1,0.0495394,0.0491986,-0.475122,32,0.00634341,10,-2.33753e-05,-3.3232,0.465083,0.126859,-2.36079,0.0491986,
2,0,0,1,0,62124.4,0.0480415,0.0476932,-0.473123,32,0.00619772,10,-2.25648e-05,-3.32503,0.762706,0.0773561,-1.42478,0.0476932,
2,0,0,1,0,62124.7,0.0465436,0.0461759,-0.469173,32,0.00605288,10,-2.16645e-05,-3.32867,0.486645,0.121238,-2.22063,0.0461759,
2,0,0,0,0,62125,0.045045,0.0446815,-0.465857,32,0.00590899,10,-2.08152e-05,-3.33175,0.417593,0.141286,-2.57033,0.0446815,
2,0,0,0,0,62125.3,0.0435468,0.0431853,-0.46094,32,0.00576634,10,-1.99058e-05,-3.33636,0.408623,0.144387,-2.60605,0.0431853,
2,0,0,1,0,62125.6,0.0420483,0.0416738,-0.459661,32,0.00562467,10,-1.91558e-05,-3.33756,0.534057,0.110475,-1.98012,0.0416738,
2,0,0,1,0,62125.9,0.0405504,0.0401747,-0.457376,32,0.00548382,10,-1.83749e-05,-3.33973,0.490003,0.120407,-2.14081,0.0401747,
2,0,0,1,0,62126.2,0.0390526,0.0386555,-0.453277,32,0.00534387,10,-1.75216e-05,-3.34364,0.414361,0.142388,-2.50939,0.0386555,
2,0,0,1,0,62126.5,0.0375541,0.0371728,-0.44802,32,0.00520501,10,-1.66542e-05,-3.3487,0.478821,0.123219,-2.16115,0.0371728,
2,0,0,1,0,62126.8,0.0360559,0.0357115,-0.446479,32,0.00506733,10,-1.59444e-05,-3.3502,0.525882,0.112193,-1.95684,0.0357115,
2,0,0,1,0,62127.1,0.0345572,0.0341799,-0.442012,32,0.00493039,10,-1.51079e-05,-3.35457,0.513875,0.114814,-1.98638,0.0341799,
2,0,0,1,0,62127.4,0.0330594,0.0327243,-0.440536,32,0.00479437,10,-1.44162e-05,-3.35602,0.461745,0.127776,-2.19119,0.03272428,
2,0,0,1,0,62127.7,0.0315615,0.0311975,-0.437592,32,0.0046593,10,-1.36518e-05,-3.35893,0.492516,0.119793,-2.04557,0.0311975,
2,0,0,0,0,62128,0.0300631,0.0297202,-0.433588,32,0.00452532,10,-1.28863e-05,-3.36292,0.565008,0.104423,-1.76945,0.0297202,
2,0,0,0,0,62128.3,0.0285649,0.0282251,-0.432292,32,0.00439217,10,-1.22015e-05,-3.36422,0.567875,0.103896,-1.74799,0.0282251,
2,0,0,0,0,62128.6,0.0270667,0.0267034,-0.429578,32,0.00425959,10,-1.14712e-05,-3.36696,0.698845,0.084425,-1.41196,0.0267034,
2,0,0,1,0,62128.9,0.0255683,0.0252196,-0.426427,32,0.00412786,10,-1.07543e-05,-3.37016,0.508717,0.115978,-1.93101,0.0252196,
2,0,0,1,0,62129.2,0.0240706,0.0237101,-0.423052,32,0.00399714,10,-1.00306e-05,-3.37361,0.632633,0.093261,-1.54542,0.0237101,
2,0,0,1,0,62129.5,0.0225722,0.0222327,-0.420355,32,0.00386701,10,-9.34562e-06,-3.37638,1.0874,0.0542579,-0.892077,0.0222327,
2,0,0,1,0,62129.8,0.021074,0.020676,-0.418975,32,0.00373753,10,-8.66274e-06,-3.37781,0.655855,0.0899589,-1.473,0.020676,
2,0,0,1,0,62130.1,0.0195758,0.0192286,-0.417675,32,0.00360869,10,-8.03129e-06,-3.37916,0.560783,0.10521,-1.71119,0.0192286,
2,0,0,1,0,62130.4,0.0180774,0.0176844,-0.414382,32,0.0034805,10,-7.32808e-06,-3.3826,0.657276,0.0897644,-1.45257,0.0176844,
2,0,0,1,0,62130.7,0.0165795,0.0162013,-0.413647,32,0.00335296,10,-6.70163e-06,-3.38337,1.93929,0.0304234,-0.491414,0.0162013,
2,0,0,1,0,62131,0.0150817,0.0147232,-0.413566,32,0.00322572,10,-6.08902e-06,-3.38346,1.03814,0.0568325,-0.914767,0.0147232,
2,0,0,0,0,62131.3,0.013583,0.0132002,-0.411722,32,0.00309869,10,-5.4348e-06,-3.3854,0.785755,0.0750871,-1.20374,0.01320016,
2,0,0,0,0,62131.6,0.0120848,0.0117326,-0.409633,32,0.00297222,10,-4.80605e-06,-3.3876,1.97867,0.029818,-0.476821,0.0117326,
2,0,0,1,0,62131.9,0.0105863,0.0102168,-0.409595,32,0.00284622,10,-4.18476e-06,-3.38765,2.15275,0.0274069,-0.438372,0.0102168,
2,0,0,1,0,62132.2,0.00908846,0.00872736,-0.408944,32,0.00272021,10,-3.569e-06,-3.38834,3.65647,0.0161358,-0.257404,0.00872736,
2,0,0,1,0,62132.5,0.0075906,0.00723461,-0.408938,32,0.00259426,10,-2.95851e-06,-3.38834,55.1777,0.00106927,-0.0170392,0.00723461,
2,0,0,1,0,62132.8,0.00609207,0.0057858,-0.408304,32,0.00246838,10,-2.36236e-06,-3.38902,29.2791,0.00201509,-0.0320997,0.0057858,
2,0,0,1,0,62133.1,0.00459389,0.00422806,-0.408254,32,0.0023427,10,-1.72612e-06,-3.38907,12.8784,0.00458131,-0.0730486,0.004228062,
2,0,0,1,0,62133.4,0.00309525,0.00274854,-0.408435,32,0.00221676,10,-1.1226e-06,-3.38888,-0.772992,-0.0763268,1.21834,0.00274854,
2,0,0,1,0,62133.7,0.00159739,0.00116857,-0.413708,32,0.00208927,10,-4.83446e-07,-3.38331, , , ,0.00116857,
2,0,0,0,0,62134,0.000199195,-0.000203165,-0.411188,32,0.00197082,10,8.35388e-08,-3.38596, , , ,-0.0002031647,