File: Figure_codes/Fig_3-5/rawdata_trumpetplot_data/after 10th/20221101_1-115_003_TrumpetPlot_ParaChange_from10_every3_12_CV_C01_28.csv
mode,ox/red,error,control changes,counter inc.,time/s,control/V,Ewe/V,<I>/mA,cycle number,(Q-Qo)/C,I Range,P/W,log(|I|),Tafel slope mV/dec,alpha_eff,dI/d(E-IR),E-IR/V,
2,1,0,1,0,56360.2,2.44065e-05,-0.000401673,13.6115,29,0.0000000E+000,10,-5.46739e-06,-1.86609, , , ,-0.000401673,
2,1,0,1,0,56360.2,0.00200257,0.00161098,14.4514,29,4.38719e-05,10,2.32809e-05,-1.84009, , , ,0.00161098,
2,1,0,1,0,56360.2,0.004408,0.00401068,15.1825,29,0.00010328,10,6.08922e-05,-1.81866, , , ,0.00401068,
2,1,0,1,0,56360.2,0.0068051,0.00645704,15.7678,29,0.00016526,10,0.000101813,-1.80223,0.146722,0.40212,244.718,0.00645704,
2,1,0,1,0,56360.2,0.00920221,0.00886946,16.2969,29,0.000229461,10,0.000144545,-1.78789,0.172777,0.341481,215.868,0.00886946,
2,1,0,1,0,56360.2,0.0115993,0.0111854,16.7945,29,0.000295706,10,0.000187853,-1.77483,0.189961,0.31059,202.639,0.01118539,
2,1,0,1,0,56360.2,0.0140075,0.0136233,17.2576,29,0.000363859,10,0.000235104,-1.76302,0.207645,0.284139,190.617,0.0136233,
2,1,0,1,0,56360.2,0.0164046,0.0160155,17.7047,29,0.000433826,10,0.00028355,-1.75191,0.22681,0.260129,179.105,0.0160155,
2,1,0,1,0,56360.2,0.0188017,0.0184046,18.1145,29,0.00050552,10,0.00033339,-1.74197,0.244528,0.241282,170.106,0.0184046,
2,1,0,1,0,56360.2,0.0212099,0.0208096,18.5182,29,0.000578824,10,0.000385357,-1.7324,0.265001,0.222641,160.444,0.0208096,
2,1,0,1,0,56360.2,0.023607,0.0232592,18.8967,29,0.000653685,10,0.000439521,-1.72361,0.279116,0.211382,155.546,0.0232592,
2,1,0,1,0,56360.2,0.0260041,0.0256292,19.2471,29,0.000730011,10,0.000493289,-1.71563,0.296355,0.199086,149.401,0.0256292,
2,1,0,1,0,56360.2,0.0284012,0.0280554,19.6156,29,0.000807771,10,0.000550324,-1.7074,0.310586,0.189964,145.157,0.0280554,
2,1,0,1,0,56360.2,0.0308067,0.0304413,19.9572,29,0.000886959,10,0.000607523,-1.6999,0.3254,0.181315,140.935,0.03044131,
2,1,0,1,0,56360.2,0.0332038,0.0327806,20.2788,29,0.000967465,10,0.00066475,-1.69296,0.344236,0.171394,135.503,0.0327806,
2,1,0,1,0,56360.2,0.0356009,0.0352418,20.6019,29,0.00104926,10,0.000726047,-1.68609,0.359695,0.164028,131.767,0.0352418,
2,1,0,1,0,56360.2,0.0380091,0.037633,20.9134,29,0.00113232,10,0.000787034,-1.67958,0.372378,0.158441,129.208,0.037633,
2,1,0,1,0,56360.2,0.0404062,0.0400497,21.2233,29,0.00121663,10,0.000849984,-1.67319,0.387843,0.152123,125.86,0.0400497,
2,1,0,1,0,56360.2,0.0428033,0.0424271,21.5252,29,0.00130216,10,0.000913251,-1.66705,0.399003,0.147869,124.096,0.0424271,
2,1,0,1,0,56360.2,0.0452032,0.04483,21.8087,29,0.00138886,10,0.000977681,-1.66137,0.415832,0.141884,120.709,0.04483,
2,1,0,1,0,56360.3,0.0476058,0.0472381,22.1054,29,0.00147673,10,0.00104422,-1.6555,0.42466,0.138935,119.79,0.0472381,
2,1,0,1,0,56360.3,0.0500029,0.0496781,22.3855,29,0.00156574,10,0.00111207,-1.65003,0.428968,0.137539,120.138,0.0496781,
2,1,0,1,0,56360.3,0.0524,0.0519813,22.6697,29,0.00165587,10,0.0011784,-1.64455,0.446437,0.132158,116.877,0.0519813,
2,1,0,1,0,56360.3,0.0548082,0.0544489,22.9643,29,0.00174715,10,0.00125038,-1.63895,0.454149,0.129913,116.295,0.05444891,
2,1,0,1,0,56360.3,0.0572053,0.0568189,23.2251,29,0.00183956,10,0.00131963,-1.63404,0.467969,0.126077,114.24,0.0568189,
2,1,0,1,0,56360.3,0.0596024,0.0592473,23.4983,29,0.00193303,10,0.00139221,-1.62896,0.480047,0.122905,112.739,0.0592473,
2,1,0,1,0,56360.3,0.0620051,0.0616512,23.7744,29,0.0020276,10,0.00146572,-1.62389,0.475577,0.12406,115.102,0.0616512,
2,1,0,1,0,56360.3,0.0644077,0.0640986,24.0521,29,0.00212327,10,0.00154171,-1.61885,0.484896,0.121676,114.169,0.0640986,
2,1,0,1,0,56360.3,0.0668048,0.0664167,24.3298,29,0.00222006,10,0.00161591,-1.61386,0.491284,0.120093,113.972,0.0664167,
2,1,0,1,0,56360.3,0.0692019,0.0688535,24.5951,29,0.00231793,10,0.00169346,-1.60915,0.495488,0.119075,114.283,0.0688535,
2,1,0,1,0,56360.3,0.0716074,0.0712511,24.8685,29,0.00241688,10,0.00177191,-1.60435,0.50548,0.116721,113.281,0.0712511,
2,1,0,1,0,56360.3,0.0740045,0.0736211,25.1404,29,0.00251694,10,0.00185086,-1.59963,0.504156,0.117027,114.825,0.0736211,
2,1,0,1,0,56360.3,0.0764016,0.0759921,25.4146,29,0.00261808,10,0.00193131,-1.59492,0.505873,0.11663,115.699,0.07599213,
2,1,0,1,0,56360.3,0.0788042,0.0784353,25.6953,29,0.00272032,10,0.00201542,-1.59015,0.514927,0.114579,114.863,0.0784353,
2,1,0,1,0,56360.3,0.0812069,0.0808329,25.9771,29,0.0028237,10,0.0020998,-1.58541,0.520354,0.113384,114.888,0.0808329,
2,1,0,1,0,56360.3,0.083604,0.083204,26.2411,29,0.00292815,10,0.00218337,-1.58102,0.521406,0.113156,115.911,0.083204,
2,1,0,1,0,56360.3,0.0860011,0.0856111,26.5197,29,0.0030337,10,0.00227038,-1.57643,0.531314,0.111045,114.953,0.0856111,
2,1,0,1,0,56360.3,0.0884065,0.0880288,26.8073,29,0.0031404,10,0.00235981,-1.57175,0.527383,0.111873,117.013,0.0880288,
2,1,0,1,0,56360.3,0.0908036,0.0904317,27.0805,29,0.00324821,10,0.00244894,-1.56734,0.534582,0.110367,116.626,0.0904317,
2,1,0,1,0,56360.3,0.0932007,0.0928346,27.368,29,0.00335715,10,0.0025407,-1.56276,0.544035,0.108449,115.807,0.09283457,
2,1,0,1,0,56360.3,0.0956034,0.0952279,27.6412,29,0.0034672,10,0.00263222,-1.55844,0.538131,0.109639,118.281,0.0952279,
2,1,0,1,0,56360.3,0.098006,0.0976721,27.9241,29,0.00357838,10,0.0027274,-1.55402,0.545629,0.108132,117.858,0.0976721,
2,1,0,1,0,56360.3,0.100403,0.100009,28.2134,29,0.00369068,10,0.0028216,-1.54955,0.545294,0.108199,119.12,0.100009,
2,1,0,1,0,56360.3,0.1028,0.102402,28.4956,29,0.00380413,10,0.00291799,-1.54522,0.548079,0.107649,119.693,0.102402,
2,1,0,1,0,56360.3,0.105208,0.104839,28.7862,29,0.00391873,10,0.00301793,-1.54082,0.561004,0.105169,118.105,0.104839,
2,1,0,1,0,56360.4,0.107606,0.107195,29.0638,29,0.00403445,10,0.00311549,-1.53665,0.556732,0.105976,120.232,0.1071946,
2,1,0,1,0,56360.4,0.110003,0.109588,29.3446,29,0.00415129,10,0.00321582,-1.53247,0.555634,0.106185,121.684,0.109588,
2,1,0,1,0,56360.4,0.112408,0.112025,29.6526,29,0.00426931,10,0.00332182,-1.52794,0.560637,0.105237,121.76,0.112025,
2,1,0,1,0,56360.4,0.114805,0.114392,29.9485,29,0.00438855,10,0.00342586,-1.52362,0.556157,0.106085,123.945,0.114392,
2,1,0,1,0,56360.4,0.117202,0.116824,30.2363,29,0.00450896,10,0.00353233,-1.51947,0.567103,0.104037,122.789,0.116824,
2,1,0,1,0,56360.4,0.119599,0.119212,30.5375,29,0.00463053,10,0.00364044,-1.51517,0.566169,0.104209,124.215,0.119212,
2,1,0,1,0,56360.4,0.122008,0.121683,30.8385,29,0.00475331,10,0.00375252,-1.51091,0.556454,0.106029,127.626,0.121683,
2,1,0,1,0,56360.4,0.124405,0.124018,31.1443,29,0.0048773,10,0.00386245,-1.50662,0.561277,0.105117,127.769,0.124018,
2,1,0,1,0,56360.4,0.126802,0.126389,31.457,29,0.00500253,10,0.00397582,-1.50228,0.56507,0.104412,128.131,0.126389,
2,1,0,1,0,56360.4,0.129207,0.128781,31.7601,29,0.00512899,10,0.00409011,-1.49812,0.558972,0.105551,130.856,0.128781,
2,1,0,1,0,56360.4,0.131604,0.131199,32.0578,29,0.00525666,10,0.00420595,-1.49407,0.546309,0.107997,135.301,0.131199,
2,1,0,1,0,56360.4,0.134001,0.133589,32.3967,29,0.00538558,10,0.00432785,-1.4895,0.527123,0.111928,141.68,0.133589,
2,1,0,1,0,56360.4,0.136399,0.135978,32.7545,29,0.00551594,10,0.0044539,-1.48473,0.515288,0.114499,146.378,0.135978,
2,1,0,1,0,56360.4,0.138807,0.138365,33.118,29,0.00564774,10,0.00458238,-1.47994,0.517837,0.113936,147.193,0.138365,
2,1,0,1,0,56360.4,0.141204,0.140826,33.467,29,0.00578095,10,0.00471304,-1.47538,0.527099,0.111933,146.153,0.140826,
2,1,0,1,0,56360.4,0.143601,0.143252,33.8189,29,0.00591554,10,0.00484462,-1.47084,0.536994,0.109871,144.997,0.1432516,
2,1,0,1,0,56360.4,0.146009,0.145658,34.1692,29,0.00605155,10,0.004977,-1.46637,0.537371,0.109794,146.382,0.145658,
2,1,0,1,0,56360.4,0.148406,0.14805,34.5223,29,0.00618896,10,0.00511102,-1.4619,0.548695,0.107528,144.814,0.14805,
2,1,0,1,0,56360.4,0.150803,0.15039,34.867,29,0.00632778,10,0.00524366,-1.45759,0.557076,0.10591,144.058,0.15039,
2,1,0,1,0,56360.4,0.153206,0.152839,35.2073,29,0.00646796,10,0.00538104,-1.45337,0.575047,0.1026,140.923,0.152839,
2,1,0,1,0,56360.4,0.155606,0.155212,35.5455,29,0.00660951,10,0.00551709,-1.44922,0.587349,0.100451,139.291,0.155212,
2,1,0,1,0,56360.4,0.158003,0.157646,35.8745,29,0.00675239,10,0.00565545,-1.44521,0.592853,0.0995187,139.311,0.157646,
2,1,0,1,0,56360.4,0.1604,0.159981,36.2029,29,0.00689658,10,0.00579175,-1.44126,0.616053,0.095771,135.263,0.159981,
2,1,0,1,0,56360.4,0.162808,0.162396,36.5388,29,0.0070421,10,0.00593375,-1.43725,0.636803,0.0926503,131.991,0.162396,
2,1,0,1,0,56360.4,0.165205,0.164788,36.8409,29,0.0071889,10,0.00607095,-1.43367,0.663166,0.0889671,127.825,0.164788,
2,1,0,1,0,56360.5,0.167602,0.16723,37.1395,29,0.00733688,10,0.00621082,-1.43016,0.708238,0.0833054,120.685,0.1672295,
2,1,0,1,0,56360.5,0.170008,0.169611,37.4339,29,0.00748606,10,0.00634921,-1.42673,0.730803,0.0807331,117.857,0.169611,
2,1,0,1,0,56360.5,0.172405,0.17209,37.7087,29,0.0076364,10,0.00648931,-1.42356,0.770988,0.0765251,112.516,0.17209,
2,1,0,1,0,56360.5,0.174802,0.174423,37.9764,29,0.0077878,10,0.00662397,-1.42049,0.843672,0.0699324,103.525,0.174423,
2,1,0,1,0,56360.5,0.177199,0.176786,38.2147,29,0.00794023,10,0.00675583,-1.41777,0.909975,0.064837,96.5829,0.1767859,
2,1,0,1,0,56360.5,0.179607,0.179274,38.4342,29,0.00809355,10,0.00689024,-1.41528,1.02455,0.0575864,86.2761,0.179274,
2,1,0,1,0,56360.5,0.182005,0.181666,38.6335,29,0.00824772,10,0.00701839,-1.41304,1.14849,0.051372,77.3607,0.181666,
2,1,0,1,0,56360.5,0.184402,0.184022,38.8046,29,0.00840262,10,0.0071409,-1.41112,1.34808,0.0437658,66.1848,0.184022,
2,1,0,1,0,56360.5,0.18681,0.186418,38.9599,29,0.00855815,10,0.0072628,-1.40938,1.7067,0.0345695,52.4592,0.186418,
2,1,0,1,0,56360.5,0.189207,0.188809,39.0653,29,0.00871422,10,0.00737587,-1.40821,2.2655,0.0260428,39.6321,0.188809,
2,1,0,1,0,56360.5,0.191604,0.191214,39.1344,29,0.00887064,10,0.00748304,-1.40744,3.44739,0.0171144,26.1058,0.191214,
2,1,0,1,0,56360.5,0.194001,0.193587,39.1836,29,0.00902729,10,0.00758544,-1.4069,7.12531,0.00828034,12.6439,0.193587,
2,1,0,1,0,56360.5,0.196407,0.196025,39.2107,29,0.00918411,10,0.00768626,-1.4066,409.831,0.000143962,0.219878,0.196025,
2,1,0,1,0,56360.5,0.198804,0.198445,39.1871,29,0.00934091,10,0.00777648,-1.40686,-7.12785,-0.00827739,-12.6382,0.198445,
2,1,0,1,0,56360.5,0.201201,0.200857,39.1365,29,0.00949757,10,0.00786085,-1.40742,-3.10519,-0.0190004,-28.9728,0.200857,
2,1,0,1,0,56360.5,0.203609,0.203222,39.0619,29,0.00965395,10,0.00793822,-1.40825,-2.22492,-0.0265178,-40.3541,0.203222,
2,1,0,1,0,56360.5,0.206006,0.205603,38.9331,29,0.00980993,10,0.00800479,-1.40968,-1.62651,-0.0362741,-55.0303,0.205603,
2,1,0,1,0,56360.5,0.208403,0.208048,38.7996,29,0.00996539,10,0.00807217,-1.41117,-1.30143,-0.0453346,-68.5249,0.208048,
2,1,0,1,0,56360.5,0.210803,0.210435,38.6095,29,0.0101202,10,0.00812477,-1.41331,-1.10129,-0.0535736,-80.588,0.210435,
2,1,0,1,0,56360.5,0.213206,0.21286,38.4014,29,0.0102742,10,0.00817412,-1.41565,-0.916047,-0.0644072,-96.3588,0.21286,
2,1,0,1,0,56360.5,0.215603,0.215231,38.1573,29,0.0104273,10,0.00821263,-1.41842,-0.828284,-0.0712316,-105.904,0.215231,
2,1,0,1,0,56360.5,0.218,0.217656,37.8738,29,0.0105794,10,0.00824345,-1.42166,-0.731827,-0.0806202,-119.011,0.217656,
2,1,0,1,0,56360.5,0.220408,0.220094,37.5865,29,0.0107303,10,0.00827256,-1.42497,-0.660302,-0.0893531,-130.857,0.220094,
2,1,0,1,0,56360.5,0.222805,0.222497,37.2545,29,0.0108799,10,0.00828901,-1.42882,-0.609979,-0.0967246,-140.415,0.222497,
2,1,0,1,0,56360.5,0.225202,0.224836,36.9004,29,0.0110282,10,0.00829654,-1.43297,-0.555983,-0.106118,-152.63,0.224836,
2,1,0,1,0,56360.6,0.227605,0.22723,36.5294,29,0.011175,10,0.00830058,-1.43736,-0.522572,-0.112903,-160.759,0.22723,
2,1,0,1,0,56360.6,0.230008,0.229629,36.1312,29,0.0113203,10,0.00829677,-1.44212,-0.499409,-0.11814,-166.416,0.229629,
2,1,0,1,0,56360.6,0.232405,0.232013,35.7247,29,0.011464,10,0.00828859,-1.44703,-0.473822,-0.124519,-173.423,0.232013,
2,1,0,1,0,56360.6,0.234802,0.234456,35.2995,29,0.011606,10,0.00827617,-1.45223,-0.454149,-0.129913,-178.806,0.234456,
2,1,0,1,0,56360.6,0.237207,0.236874,34.857,29,0.0117463,10,0.00825671,-1.45771,-0.43959,-0.134216,-182.457,0.236874,
2,1,0,1,0,56360.6,0.239604,0.239219,34.4164,29,0.0118848,10,0.00823306,-1.46324,-0.425077,-0.138798,-186.311,0.239219,
2,1,0,1,0,56360.6,0.242002,0.241704,33.9565,29,0.0120215,10,0.00820742,-1.46908,-0.414764,-0.14225,-188.463,0.241704,
2,1,0,1,0,56360.6,0.244404,0.244085,33.5056,29,0.0121564,10,0.00817819,-1.47488,-0.406402,-0.145176,-189.763,0.244085,
2,1,0,1,0,56360.6,0.246807,0.246439,33.0544,29,0.0122895,10,0.00814588,-1.48077,-0.399493,-0.147687,-190.413,0.2464387,
2,1,0,1,0,56360.6,0.249204,0.248865,32.586,29,0.0124207,10,0.00810951,-1.48697,-0.394213,-0.149665,-190.332,0.248865,
2,1,0,1,0,56360.6,0.251601,0.251283,32.1326,29,0.0125501,10,0.00807437,-1.49305,-0.390875,-0.150944,-189.317,0.251283,
2,1,0,1,0,56360.6,0.254006,0.253661,31.6828,29,0.0126777,10,0.0080367,-1.49918,-0.390731,-0.150999,-186.716,0.253661,
2,1,0,1,0,56360.6,0.256404,0.256034,31.2378,29,0.0128035,10,0.00799794,-1.50532,-0.388597,-0.151828,-185.117,0.256034,
2,1,0,1,0,56360.6,0.258801,0.258433,30.7995,29,0.0129275,10,0.0079596,-1.51146,-0.394067,-0.149721,-180.008,0.258433,
2,1,0,1,0,56360.6,0.261203,0.260822,30.3667,29,0.0130498,10,0.00792031,-1.5176,-0.395669,-0.149115,-176.792,0.260822,
2,1,0,1,0,56360.6,0.263606,0.263304,29.947,29,0.0131704,10,0.00788517,-1.52365,-0.397484,-0.148434,-173.544,0.263304,
2,1,0,1,0,56360.6,0.266003,0.265655,29.5368,29,0.0132893,10,0.00784662,-1.52964,-0.406101,-0.145284,-167.561,0.265655,
2,1,0,1,0,56360.6,0.2684,0.26804,29.1322,29,0.0134066,10,0.0078086,-1.53563,-0.406763,-0.145047,-165.014,0.26804,
2,1,0,1,0,56360.6,0.270808,0.270455,28.7526,29,0.0135223,10,0.00777629,-1.54132,-0.413423,-0.142711,-160.174,0.270455,
2,1,0,1,0,56360.6,0.273205,0.27287,28.3684,29,0.0136365,10,0.00774091,-1.54716,-0.424185,-0.13909,-154.076,0.27287,
2,1,0,1,0,56360.6,0.275603,0.275284,27.9946,29,0.0137492,10,0.00770646,-1.55293,-0.42701,-0.13817,-151.1,0.275284,
2,1,0,1,0,56360.6,0.278008,0.277668,27.6488,29,0.0138604,10,0.00767719,-1.55832,-0.433313,-0.13616,-146.978,0.2776677,
2,1,0,1,0,56360.6,0.280405,0.280053,27.3024,29,0.0139703,10,0.00764611,-1.5638,-0.44129,-0.133699,-142.49,0.280053,
2,1,0,1,0,56360.6,0.282802,0.282443,26.9615,29,0.0140788,10,0.00761509,-1.56926,-0.449379,-0.131292,-138.25,0.282443,
2,1,0,1,0,56360.6,0.285199,0.284838,26.6332,29,0.014186,10,0.00758615,-1.57458,-0.460243,-0.128193,-133.366,0.284838,
2,1,0,1,0,56360.7,0.287608,0.287247,26.3244,29,0.0142919,10,0.00756163,-1.57964,-0.473871,-0.124506,-128.005,0.287247,
2,1,0,1,0,56360.7,0.290005,0.28965,26.0224,29,0.0143965,10,0.0075374,-1.58465,-0.487971,-0.120909,-122.872,0.28965,
2,1,0,1,0,56360.7,0.292402,0.292026,25.7349,29,0.0145,10,0.00751524,-1.58948,-0.495626,-0.119041,-119.61,0.292026,
2,1,0,1,0,56360.7,0.294807,0.294431,25.4546,29,0.0146023,10,0.0074946,-1.59423,-0.502178,-0.117488,-116.793,0.294431,
2,1,0,1,0,56360.7,0.297204,0.296851,25.1757,29,0.0147036,10,0.00747344,-1.59902,-0.516036,-0.114333,-112.88,0.296851,
2,1,0,1,0,56360.7,0.299421,0.299013,24.9289,29,0.0147963,10,0.00745406,-1.6033,-0.130401,-0.45245,-431.783,0.299013,
2,1,0,0,0,56360.7,0.300012,0.299727,24.8655,29,0.0148212,10,0.00745287,-1.6044,0.00268962,21.9362,19391.9,0.299727,
2,1,0,1,0,56360.7,0.299243,0.299008,23.478,29,0.014852,10,0.0070201,-1.62934,0.0336871,1.75141,1448.42,0.299008,
2,1,0,1,0,56360.7,0.296846,0.2966,20.3019,29,0.014939,10,0.00602155,-1.69246,0.0403356,1.46273,1138.77,0.2966,
2,1,0,1,0,56360.7,0.294449,0.294123,17.846,29,0.0150149,10,0.00524892,-1.74846,0.0421947,1.39828,995.305,0.294123,
2,1,0,1,0,56360.7,0.292041,0.291702,15.7266,29,0.0150817,10,0.00458748,-1.80337,0.0434444,1.35806,841.663,0.291702,
2,1,0,1,0,56360.7,0.289644,0.289329,13.844,29,0.0151407,10,0.00400547,-1.85874,0.0423751,1.39233,756.406,0.289329,
2,1,0,1,0,56360.7,0.287247,0.286918,12.1525,29,0.0151924,10,0.00348675,-1.91534,0.0409765,1.43985,683.775,0.286918,
2,1,0,1,0,56360.7,0.284841,0.284567,10.6175,29,0.0152378,10,0.00302139,-1.97398,0.0392051,1.5049,621.885,0.284567,
2,1,0,1,0,56360.7,0.282444,0.282146,9.19218,29,0.0152772,10,0.00259354,-2.03658,0.0366916,1.608,573.299,0.282146,
2,1,0,1,0,56360.7,0.280047,0.279752,7.88849,29,0.0153112,10,0.00220683,-2.10301,0.0341442,1.72797,526.151,0.2797524,
2,1,0,1,0,56360.7,0.27765,0.277345,6.6647,29,0.0153402,10,0.00184842,-2.17622,0.0308206,1.9143,490.281,0.277345,
2,1,0,1,0,56360.7,0.275242,0.274906,5.53472,29,0.0153644,10,0.00152153,-2.2569,0.0274043,2.15295,453.69,0.274906,
2,1,0,1,0,56360.7,0.272845,0.272554,4.48972,29,0.0153844,10,0.00122369,-2.34778,0.0233332,2.52859,424.402,0.272554,
2,1,0,1,0,56360.7,0.270448,0.270077,3.49899,29,0.0154002,10,0.000944998,-2.45606,0.0188946,3.12259,397,0.270077,
2,1,0,1,0,56360.7,0.26804,0.267709,2.57519,29,0.0154123,10,0.000689403,-2.58919,0.0137472,4.29177,373.588,0.2677094,
2,1,0,1,0,56360.7,0.265642,0.265277,1.71178,29,0.0154208,10,0.000454095,-2.76655,0.00677468,8.7089,351.476,0.265277,
2,1,0,1,0,56360.7,0.263245,0.262937,0.896597,29,0.0154259,10,0.000235748,-3.0474,0.0149776,3.93921,328.507,0.2629365,
2,1,0,1,0,56360.7,0.260843,0.260507,0.135302,29,0.0154279,10,3.52471e-05,-3.8687,0.0744587,0.792386,312.77,0.260507,
2,0,0,1,0,56360.7,0.258443,0.258085,-0.586453,29,0.0154269,10,-0.000151355,-3.23177,-0.0290838,-2.02862,293.204,0.258085,
2,0,0,1,0,56360.7,0.256046,0.25573,-1.27418,29,0.0154231,10,-0.000325846,-2.89477,-0.00752064,-7.84508,279.317,0.25573,
2,0,0,1,0,56360.7,0.253649,0.253343,-1.91625,29,0.0154166,10,-0.00048547,-2.71755,-0.0132154,-4.46449,263.79,0.253343,
2,0,0,1,0,56360.8,0.25124,0.25093,-2.53988,29,0.0154076,10,-0.000637332,-2.59519,-0.0210015,-2.80932,248.113,0.2509295,
2,0,0,1,0,56360.8,0.248843,0.248502,-3.11433,29,0.0153962,10,-0.000773917,-2.50664,-0.028318,-2.08348,236.769,0.248502,
2,0,0,1,0,56360.8,0.246446,0.246093,-3.66524,29,0.0153826,10,-0.000901989,-2.4359,-0.0358673,-1.64495,225.394,0.246093,
2,0,0,1,0,56360.8,0.244041,0.243681,-4.20403,29,0.0153668,10,-0.00102444,-2.37633,-0.0432494,-1.36418,216.182,0.243681,
2,0,0,1,0,56360.8,0.241644,0.241334,-4.70267,29,0.0153489,10,-0.00113491,-2.32766,-0.0515804,-1.14384,204.38,0.241334,
2,0,0,1,0,56360.8,0.239246,0.238941,-5.18139,29,0.0153291,10,-0.00123805,-2.28555,-0.0600387,-0.9827,194.865,0.238941,
2,0,0,1,0,56360.8,0.236849,0.236471,-5.63181,29,0.0153074,10,-0.00133176,-2.24935,-0.0685376,-0.860842,186.457,0.236471,
2,0,0,1,0,56360.8,0.234441,0.234093,-6.07223,29,0.015284,10,-0.00142147,-2.21665,-0.077625,-0.760064,177.897,0.234093,
2,0,0,1,0,56360.8,0.232044,0.23173,-6.49342,29,0.0152588,10,-0.00150472,-2.18753,-0.0854105,-0.690782,173.138,0.23173,
2,0,0,1,0,56360.8,0.229647,0.22931,-6.89465,29,0.015232,10,-0.00158101,-2.16149,-0.0954736,-0.617972,164.748,0.22931,
2,0,0,1,0,56360.8,0.227239,0.226931,-7.28344,29,0.0152036,10,-0.00165284,-2.13766,-0.10594,-0.556921,156.904,0.226931,
2,0,0,1,0,56360.8,0.224842,0.224513,-7.65065,29,0.0151737,10,-0.00171767,-2.1163,-0.116731,-0.505436,149.781,0.224513,
2,0,0,1,0,56360.8,0.222445,0.222149,-7.99668,29,0.0151424,10,-0.00177646,-2.09709,-0.126525,-0.466313,144.895,0.222149,
2,0,0,1,0,56360.8,0.220047,0.219677,-8.33745,29,0.0151097,10,-0.00183155,-2.07897,-0.13675,-0.431444,139.86,0.219677,
2,0,0,1,0,56360.8,0.217642,0.217286,-8.68102,29,0.0150756,10,-0.00188626,-2.06143,-0.146867,-0.401724,135.332,0.217286,
2,0,0,1,0,56360.8,0.215245,0.214877,-8.99833,29,0.0150402,10,-0.00193353,-2.04584,-0.155199,-0.380157,132.901,0.214877,
2,0,0,1,0,56360.8,0.212848,0.212518,-9.30002,29,0.0150036,10,-0.00197643,-2.03152,-0.169164,-0.348773,126.226,0.212518,
2,0,0,1,0,56360.8,0.21044,0.210116,-9.60821,29,0.0149657,10,-0.00201883,-2.01736,-0.178599,-0.330349,123.486,0.210116,
2,0,0,1,0,56360.8,0.208043,0.20769,-9.89224,29,0.0149267,10,-0.00205452,-2.00471,-0.190188,-0.310219,119.414,0.20769,
2,0,0,1,0,56360.8,0.205645,0.205289,-10.1823,29,0.0148865,10,-0.00209032,-1.99215,-0.204001,-0.289214,114.565,0.205289,
2,0,0,1,0,56360.8,0.203246,0.202897,-10.4489,29,0.0148452,10,-0.00212006,-1.98093,-0.215441,-0.273858,111.378,0.202897,
2,0,0,1,0,56360.8,0.200843,0.200482,-10.7119,29,0.0148029,10,-0.00214754,-1.97013,-0.22934,-0.25726,107.319,0.200482,
2,0,0,1,0,56360.8,0.198446,0.198029,-10.9683,29,0.0147595,10,-0.00217204,-1.95986,-0.235629,-0.250394,107.076,0.198029,
2,0,0,1,0,56360.8,0.196049,0.195691,-11.2124,29,0.0147151,10,-0.00219415,-1.9503,-0.245356,-0.240467,105.182,0.195691,
2,0,0,1,0,56360.8,0.19364,0.19325,-11.4819,29,0.0146697,10,-0.00221888,-1.93999,-0.256293,-0.230205,102.882,0.19325,
2,0,0,1,0,56360.9,0.191243,0.190908,-11.7188,29,0.0146232,10,-0.00223723,-1.93112,-0.266666,-0.22125,100.954,0.190908,
2,0,0,1,0,56360.9,0.188846,0.188501,-11.9485,29,0.0145759,10,-0.00225231,-1.92269,-0.283919,-0.207806,96.8309,0.188501,
2,0,0,1,0,56360.9,0.186444,0.186062,-12.1844,29,0.0145276,10,-0.00226706,-1.9142,-0.292222,-0.201901,95.9236,0.186062,
2,0,0,1,0,56360.9,0.184041,0.183671,-12.4094,29,0.0144784,10,-0.00227926,-1.90625,-0.299917,-0.196721,95.1966,0.183671,
2,0,0,1,0,56360.9,0.181644,0.181303,-12.6402,29,0.0144283,10,-0.00229171,-1.89825,-0.31079,-0.189839,93.5407,0.1813032,
2,0,0,1,0,56360.9,0.179247,0.178908,-12.8618,29,0.0143772,10,-0.00230108,-1.8907,-0.319067,-0.184914,92.719,0.178908,
2,0,0,1,0,56360.9,0.176841,0.176517,-13.0773,29,0.0143253,10,-0.00230836,-1.88348,-0.328494,-0.179607,91.6501,0.176517,
2,0,0,1,0,56360.9,0.174444,0.174101,-13.2968,29,0.0142726,10,-0.00231498,-1.87625,-0.333675,-0.176819,91.7668,0.174101,
2,0,0,1,0,56360.9,0.172047,0.171705,-13.5198,29,0.0142189,10,-0.00232143,-1.86903,-0.334744,-0.176254,93.0015,0.171705,
2,0,0,1,0,56360.9,0.169644,0.16929,-13.7444,29,0.0141644,10,-0.00232679,-1.86187,-0.343687,-0.171668,92.0123,0.16929,
2,0,0,1,0,56360.9,0.167242,0.166883,-13.9733,29,0.0141089,10,-0.0023319,-1.8547,-0.347888,-0.169595,92.3911,0.166883,
2,0,0,1,0,56360.9,0.164845,0.164497,-14.1805,29,0.0140526,10,-0.00233264,-1.84831,-0.352022,-0.167603,92.79,0.164497,
2,0,0,1,0,56360.9,0.162448,0.162097,-14.4076,29,0.0139954,10,-0.00233543,-1.84141,-0.354219,-0.166564,93.7256,0.162097,
2,0,0,1,0,56360.9,0.160042,0.159674,-14.6366,29,0.0139373,10,-0.00233709,-1.83456,-0.34699,-0.170034,97.1635,0.159674,
2,0,0,1,0,56360.9,0.157645,0.157286,-14.8727,29,0.0138782,10,-0.00233927,-1.82761,-0.345064,-0.170983,99.276,0.157286,
2,0,0,1,0,56360.9,0.155248,0.154892,-15.1137,29,0.0138182,10,-0.00234099,-1.82063,-0.343195,-0.171914,101.432,0.154892,
2,0,0,1,0,56360.9,0.152845,0.152529,-15.3574,29,0.0137573,10,-0.00234246,-1.81368,-0.33759,-0.174768,104.839,0.152529,
2,0,0,1,0,56360.9,0.150443,0.150076,-15.6102,29,0.0136953,10,-0.00234272,-1.80659,-0.330764,-0.178375,108.814,0.150076,
2,0,0,1,0,56360.9,0.148046,0.147678,-15.8801,29,0.0136323,10,-0.00234513,-1.79915,-0.318357,-0.185326,115.035,0.147678,
2,0,0,1,0,56360.9,0.145648,0.145278,-16.1598,29,0.0135682,10,-0.00234767,-1.79156,-0.310148,-0.190232,120.138,0.145278,
2,0,0,1,0,56360.9,0.14324,0.142901,-16.4651,29,0.0135029,10,-0.00235287,-1.78344,-0.301113,-0.19594,126.01,0.142901,
2,0,0,1,0,56360.9,0.140843,0.140442,-16.7677,29,0.0134364,10,-0.00235488,-1.77553,-0.283992,-0.207752,136.23,0.140442,
2,0,0,1,0,56360.9,0.138446,0.138061,-17.0919,29,0.0133687,10,-0.00235972,-1.76721,-0.276183,-0.213627,142.927,0.1380609,
2,0,0,1,0,56360.9,0.136041,0.135726,-17.4611,29,0.0132995,10,-0.00236993,-1.75793,-0.259976,-0.226944,154.943,0.1357259,
2,0,0,1,0,56360.9,0.133644,0.133281,-17.84,29,0.0132289,10,-0.00237773,-1.7486,-0.248374,-0.237545,165.658,0.133281,
2,0,0,1,0,56361,0.131246,0.130932,-18.2411,29,0.0131567,10,-0.00238835,-1.73895,-0.242484,-0.243315,173.624,0.130932,
2,0,0,1,0,56361,0.128849,0.128537,-18.6695,29,0.0130828,10,-0.00239973,-1.72887,-0.233409,-0.252775,184.589,0.1285374,
2,0,0,1,0,56361,0.126441,0.126097,-19.1329,29,0.0130072,10,-0.0024126,-1.71822,-0.224097,-0.263279,196.977,0.1260974,
2,0,0,1,0,56361,0.124044,0.123687,-19.6109,29,0.0129297,10,-0.00242561,-1.7075,-0.217339,-0.271465,208.246,0.1236871,
2,0,0,1,0,56361,0.121647,0.121337,-20.131,29,0.0128501,10,-0.00244265,-1.69613,-0.210713,-0.280002,220.406,0.121337,
2,0,0,1,0,56361,0.119241,0.118897,-20.677,29,0.0127685,10,-0.00245844,-1.68451,-0.207674,-0.2841,229.447,0.118897,
2,0,0,1,0,56361,0.116844,0.116522,-21.2434,29,0.0126846,10,-0.00247532,-1.67278,-0.206498,-0.285717,236.957,0.116522,
2,0,0,1,0,56361,0.114447,0.114073,-21.8167,29,0.0125984,10,-0.00248871,-1.66121,-0.204695,-0.288233,245.583,0.114073,
2,0,0,1,0,56361,0.11205,0.111716,-22.4108,29,0.0125099,10,-0.00250365,-1.64954,-0.207465,-0.284385,248.776,0.111716,
2,0,0,1,0,56361,0.109642,0.109321,-23.0289,29,0.0124189,10,-0.00251753,-1.63773,-0.208743,-0.282645,253.78,0.1093207,
2,0,0,1,0,56361,0.107245,0.106933,-23.6289,29,0.0123256,10,-0.00252671,-1.62656,-0.212422,-0.277749,255.958,0.106933,
2,0,0,1,0,56361,0.104848,0.104529,-24.239,29,0.0122298,10,-0.00253367,-1.61549,-0.220803,-0.267206,252.571,0.104529,
2,0,0,1,0,56361,0.10244,0.102157,-24.8577,29,0.0121315,10,-0.00253938,-1.60454,-0.224914,-0.262323,254.211,0.1021566,
2,0,0,1,0,56361,0.100042,0.0997293,-25.4514,29,0.0120308,10,-0.00253825,-1.59429,-0.230932,-0.255486,253.661,0.0997293,
2,0,0,1,0,56361,0.0976454,0.097318,-26.0731,29,0.0119277,10,-0.00253738,-1.58381,-0.240839,-0.244977,248.937,0.097318,
2,0,0,1,0,56361,0.0952427,0.0949024,-26.6808,29,0.0118222,10,-0.00253207,-1.5738,-0.250503,-0.235526,244.606,0.0949024,
2,0,0,1,0,56361,0.0928428,0.0925302,-27.254,29,0.0117142,10,-0.00252182,-1.56457,-0.26227,-0.224959,238.779,0.0925302,
2,0,0,1,0,56361,0.0904457,0.090104,-27.8058,29,0.011604,10,-0.00250541,-1.55586,-0.271723,-0.217133,235.5,0.090104,
2,0,0,1,0,56361,0.0880486,0.0877669,-28.3537,29,0.0114917,10,-0.00248852,-1.54739,-0.278995,-0.211473,234.073,0.0877669,
2,0,0,1,0,56361,0.0856404,0.085346,-28.9313,29,0.011377,10,-0.00246917,-1.53863,-0.290139,-0.203351,229.289,0.085346,
2,0,0,1,0,56361,0.0832433,0.0829388,-29.4991,29,0.0112601,10,-0.00244662,-1.53019,-0.302365,-0.195128,224.029,0.08293885,
2,0,0,1,0,56361,0.0808462,0.0805105,-30.0055,29,0.011141,10,-0.00241576,-1.5228,-0.320486,-0.184096,215.209,0.0805105,
2,0,0,1,0,56361,0.0784408,0.0781437,-30.5096,29,0.01102,10,-0.00238413,-1.51556,-0.342705,-0.17216,204.737,0.0781437,
2,0,0,1,0,56361,0.0760437,0.0757323,-31.0003,29,0.0108969,10,-0.00234772,-1.50863,-0.358642,-0.164509,198.699,0.0757323,
2,0,0,1,0,56361,0.0736466,0.0733316,-31.4661,29,0.0107719,10,-0.00230746,-1.50216,-0.381948,-0.154471,189.349,0.0733316,
2,0,0,1,0,56361.1,0.0712495,0.0709181,-31.9115,29,0.0106451,10,-0.0022631,-1.49605,-0.407761,-0.144693,179.877,0.0709181,
2,0,0,1,0,56361.1,0.0688413,0.0685523,-32.3257,29,0.0105166,10,-0.002216,-1.49045,-0.434253,-0.135866,171.129,0.0685523,
2,0,0,1,0,56361.1,0.0664442,0.0661516,-32.7236,29,0.0103864,10,-0.00216472,-1.48514,-0.466335,-0.126518,161.357,0.0661516,
2,0,0,1,0,56361.1,0.0640471,0.0638123,-33.0951,29,0.0102548,10,-0.00211187,-1.48024,-0.500293,-0.117931,152.125,0.0638123,
2,0,0,1,0,56361.1,0.0616389,0.0613288,-33.4588,29,0.0101216,10,-0.00205199,-1.47549,-0.535121,-0.110256,143.757,0.0613288,
2,0,0,1,0,56361.1,0.0592417,0.0589196,-33.7911,29,0.00998709,10,-0.00199096,-1.4712,-0.577745,-0.102121,134.468,0.05891959,
2,0,0,1,0,56361.1,0.0568446,0.0565485,-34.1041,29,0.00985126,10,-0.00192854,-1.46719,-0.615996,-0.0957798,127.348,0.0565485,
2,0,0,1,0,56361.1,0.0544475,0.0541647,-34.3924,29,0.00971425,10,-0.00186285,-1.46354,-0.657759,-0.0896985,120.294,0.0541647,
2,0,0,1,0,56361.1,0.0520421,0.051694,-34.6857,29,0.00957606,10,-0.00179304,-1.45985,-0.709313,-0.0831791,112.46,0.05169398,
2,0,0,1,0,56361.1,0.049645,0.0493505,-34.9422,29,0.00943677,10,-0.00172441,-1.45665,-0.751321,-0.0785283,106.977,0.0493505,
2,0,0,1,0,56361.1,0.0472479,0.0469094,-35.1881,29,0.00929647,10,-0.00165066,-1.4536,-0.829172,-0.0711553,97.6147,0.0469094,
2,0,0,1,0,56361.1,0.0448397,0.0445129,-35.4249,29,0.00915523,10,-0.00157687,-1.45069,-0.899222,-0.0656123,90.587,0.0445129,
2,0,0,1,0,56361.1,0.0424426,0.0421079,-35.6215,29,0.00901312,10,-0.00149995,-1.44829,-0.983541,-0.0599873,83.3148,0.0421079,
2,0,0,1,0,56361.1,0.0400455,0.0397177,-35.8148,29,0.00887024,10,-0.00142248,-1.44594,-1.09207,-0.0540259,75.4546,0.0397177,
2,0,0,1,0,56361.1,0.0376456,0.0372841,-35.9901,29,0.00872662,10,-0.00134186,-1.44382,-1.18503,-0.0497877,69.8637,0.0372841,
2,0,0,1,0,56361.1,0.035243,0.034895,-36.1506,29,0.00858231,10,-0.00126148,-1.44188,-1.32719,-0.0444547,62.655,0.034895,
2,0,0,1,0,56361.1,0.0328459,0.0325144,-36.2917,29,0.0084374,10,-0.00118,-1.44019,-1.43637,-0.0410757,58.1387,0.0325144,
2,0,0,1,0,56361.1,0.0304488,0.0301433,-36.4147,29,0.00829195,10,-0.00109766,-1.43872,-1.57941,-0.0373557,53.0735,0.0301433,
2,0,0,1,0,56361.1,0.0280406,0.0277171,-36.5463,29,0.00814602,10,-0.00101296,-1.43716,-1.77354,-0.0332669,47.4122,0.0277171,
2,0,0,1,0,56361.1,0.0256435,0.0253005,-36.6599,29,0.0079996,10,-0.000927511,-1.43581,-1.95811,-0.0301311,43.0654,0.02530046,
2,0,0,1,0,56361.1,0.0232464,0.022922,-36.7465,29,0.0078528,10,-0.000842303,-1.43478,-2.2823,-0.0258512,37.0507,0.02292197,
2,0,0,1,0,56361.1,0.0208437,0.0204639,-36.8315,29,0.00770564,10,-0.000753718,-1.43378,-2.74492,-0.0214942,30.8763,0.0204639,
2,0,0,1,0,56361.1,0.018441,0.0180982,-36.9027,29,0.00755817,10,-0.000667871,-1.43294,-3.06559,-0.0192459,27.7008,0.0180982,
2,0,0,1,0,56361.1,0.0160439,0.0157059,-36.9561,29,0.00741046,10,-0.000580429,-1.43231,-3.59599,-0.0164072,23.6562,0.0157059,
2,0,0,1,0,56361.1,0.0136468,0.0132733,-37.0138,29,0.00726251,10,-0.000491296,-1.43164,-4.68762,-0.0125863,18.1695,0.0132733,
2,0,0,1,0,56361.2,0.0112414,0.0109118,-37.0575,29,0.00711435,10,-0.000404364,-1.43112,-5.9645,-0.00989187,14.2934,0.0109118,
2,0,0,1,0,56361.2,0.00884431,0.00853013,-37.0765,29,0.00696608,10,-0.000316268,-1.4309,-9.6643,-0.00610494,8.82888,0.00853013,
2,0,0,1,0,56361.2,0.0064472,0.00605938,-37.094,29,0.00681774,10,-0.000224767,-1.4307,-8.97436,-0.00657428,9.51973,0.006059384,
2,0,0,1,0,56361.2,0.00404455,0.00367241,-37.0986,29,0.00666936,10,-0.000136241,-1.43064,-19.3708,-0.00304583,4.4098,0.00367241,
2,0,0,1,0,56361.2,0.0016419,0.00128013,-37.1492,29,0.00652089,10,-4.75558e-05,-1.43005,90.1176,0.0006547,-0.947668,0.00128013,
2,0,0,1,0,56361.2,-0.000755208,-0.00119804,-37.1194,29,0.00637237,10,4.44705e-05,-1.4304,17.0834,0.00345364,-4.99708,-0.00119804,
2,0,0,1,0,56361.2,-0.00315231,-0.00356275,-37.0849,29,0.00622397,10,0.000132124,-1.4308,5.27279,0.0111895,-16.1887,-0.00356275,
2,0,0,1,0,56361.2,-0.00555774,-0.00596563,-37.0504,29,0.00607569,10,0.000221029,-1.43121,4.6942,0.0125687,-18.1651,-0.00596563,
2,0,0,1,0,56361.2,-0.00795485,-0.00833458,-36.9935,29,0.0059276,10,0.000308325,-1.43187,4.15669,0.014194,-20.4886,-0.00833458,
2,0,0,1,0,56361.2,-0.010352,-0.0107491,-36.9459,29,0.00577973,10,0.000397136,-1.43243,3.24575,0.0181776,-26.1951,-0.0107491,
2,0,0,1,0,56361.2,-0.0127546,-0.0131499,-36.8884,29,0.00563206,10,0.000485079,-1.43311,2.9609,0.0199264,-28.6608,-0.0131499,
2,0,0,1,0,56361.2,-0.0151573,-0.0155347,-36.7997,29,0.0054847,10,0.000571674,-1.43416,2.49261,0.02367,-33.9778,-0.0155347,
2,0,0,1,0,56361.2,-0.0175544,-0.0179843,-36.7169,29,0.00533768,10,0.000660328,-1.43513,2.2208,0.026567,-38.057,-0.01798428,
2,0,0,1,0,56361.2,-0.0199515,-0.0203946,-36.6182,29,0.00519102,10,0.000746813,-1.4363,2.13101,0.0276864,-39.5562,-0.0203946,
2,0,0,1,0,56361.2,-0.0223597,-0.0227614,-36.5226,29,0.00504474,10,0.000831307,-1.43744,1.8995,0.0310608,-44.2509,-0.0227614,
2,0,0,1,0,56361.2,-0.0247568,-0.025176,-36.4184,29,0.00489888,10,0.000916867,-1.43868,1.83862,0.0320893,-45.5841,-0.025176,
2,0,0,1,0,56361.2,-0.0271539,-0.0275704,-36.2928,29,0.00475347,10,0.0010006,-1.44018,1.71249,0.0344527,-48.7926,-0.0275704,
2,0,0,1,0,56361.2,-0.0295593,-0.0299934,-36.1806,29,0.00460856,10,0.00108518,-1.44152,1.6124,0.0365914,-51.6547,-0.0299934,
2,0,0,1,0,56361.2,-0.0319564,-0.0323454,-36.055,29,0.0044641,10,0.00116621,-1.44303,1.62943,0.0362091,-50.9428,-0.0323454,
2,0,0,1,0,56361.2,-0.0343535,-0.0347111,-35.9258,29,0.00432015,10,0.00124703,-1.44459,1.5577,0.0378763,-53.1052,-0.0347111,
2,0,0,1,0,56361.2,-0.0367506,-0.0370896,-35.8078,29,0.00417671,10,0.0013281,-1.44602,1.52566,0.0386718,-54.0236,-0.0370896,
2,0,0,1,0,56361.2,-0.0391588,-0.0395689,-35.6721,29,0.00403374,10,0.00141151,-1.44767,1.54075,0.0382929,-53.3044,-0.0395689,
2,0,0,1,0,56361.2,-0.0415559,-0.0419399,-35.5367,29,0.00389135,10,0.00149041,-1.44932,1.52816,0.0386086,-53.5636,-0.0419399,
2,0,0,1,0,56361.2,-0.043953,-0.0443555,-35.4117,29,0.00374947,10,0.00157071,-1.45085,1.5507,0.0380474,-52.5939,-0.0443555,
2,0,0,1,0,56361.2,-0.0463585,-0.0467468,-35.2905,29,0.00360808,10,0.00164972,-1.45234,1.577,0.0374129,-51.5249,-0.0467468,
2,0,0,1,0,56361.3,-0.0487556,-0.049138,-35.1689,29,0.00346718,10,0.00172813,-1.45384,1.56706,0.0376502,-51.6697,-0.04913798,
2,0,0,1,0,56361.3,-0.0511527,-0.0515546,-35.0413,29,0.00332677,10,0.00180654,-1.45542,1.63096,0.0361749,-49.4875,-0.0515546,
2,0,0,1,0,56361.3,-0.0535498,-0.0539003,-34.9186,29,0.00318687,10,0.00188212,-1.45694,1.66532,0.0354286,-48.3055,-0.05390026,
2,0,0,1,0,56361.3,-0.055958,-0.0563275,-34.8164,29,0.00304741,10,0.00196112,-1.45822,1.74096,0.0338893,-46.0532,-0.0563275,
2,0,0,1,0,56361.3,-0.0583551,-0.0587389,-34.7051,29,0.00290837,10,0.00203854,-1.45961,1.90482,0.0309741,-41.9652,-0.0587389,
2,0,0,1,0,56361.3,-0.0607522,-0.0611248,-34.6006,29,0.00276978,10,0.00211495,-1.46092,1.90606,0.030954,-41.8157,-0.0611248,
2,0,0,1,0,56361.3,-0.0631604,-0.0635447,-34.5138,29,0.00263155,10,0.00219317,-1.46201,2.04365,0.0288699,-38.8912,-0.0635447,
2,0,0,1,0,56361.3,-0.0655575,-0.0659624,-34.4135,29,0.00249371,10,0.00227,-1.46327,2.27069,0.0259833,-34.9155,-0.0659624,
2,0,0,1,0,56361.3,-0.0679546,-0.0683578,-34.331,29,0.00235623,10,0.00234679,-1.46431,2.39644,0.0246198,-33.0095,-0.0683578,
2,0,0,1,0,56361.3,-0.0703573,-0.0707713,-34.2637,29,0.00221906,10,0.00242489,-1.46517,2.67963,0.0220179,-29.4497,-0.0707713,
2,0,0,1,0,56361.3,-0.0727571,-0.0731488,-34.1968,29,0.00208214,10,0.00250146,-1.46601,2.9079,0.0202896,-27.0817,-0.07314878,
2,0,0,1,0,56361.3,-0.0751543,-0.0755517,-34.1311,29,0.00194549,10,0.00257866,-1.46685,3.23395,0.018244,-24.3129,-0.0755517,
2,0,0,1,0,56361.3,-0.0775514,-0.0779386,-34.0715,29,0.0018091,10,0.00265549,-1.46761,3.74124,0.0157702,-20.9847,-0.0779386,
2,0,0,1,0,56361.3,-0.0799595,-0.0803489,-34.0309,29,0.00167291,10,0.00273434,-1.46813,4.32985,0.0136263,-18.1045,-0.0803489,
2,0,0,1,0,56361.3,-0.0823567,-0.0827433,-33.9955,29,0.00153686,10,0.0028129,-1.46858,5.78822,0.0101931,-13.5279,-0.0827433,
2,0,0,1,0,56361.3,-0.0847538,-0.0851367,-33.9576,29,0.00140097,10,0.00289104,-1.46906,6.66212,0.00885604,-11.7424,-0.0851367,
2,0,0,1,0,56361.3,-0.0871592,-0.0875639,-33.9413,29,0.00126518,10,0.00297204,-1.46927,7.56781,0.00779618,-10.3284,-0.0875639,
2,0,0,1,0,56361.3,-0.0895563,-0.0899573,-33.9181,29,0.00112946,10,0.00305118,-1.46957,12.1416,0.00485931,-6.434,-0.0899573,
2,0,0,1,0,56361.3,-0.0919534,-0.0923188,-33.8966,29,0.000993839,10,0.00312929,-1.46984,26.661,0.00221297,-2.93014,-0.0923188,
2,0,0,1,0,56361.3,-0.0943505,-0.0947037,-33.896,29,0.000858247,10,0.00321008,-1.46985,163.721,0.000360368,-0.476993,-0.0947037,
2,0,0,1,0,56361.3,-0.0967587,-0.09715,-33.9132,29,0.000722623,10,0.00329467,-1.46963,-22.1681,-0.00266148,3.52227,-0.09715,
2,0,0,1,0,56361.3,-0.0991558,-0.0995847,-33.9135,29,0.000586976,10,0.00337726,-1.46963,2.86902,0.0205645,-27.1397,-0.0995847,
2,0,0,1,0,56361.3,-0.0999548,-0.100343,-33.9248,29,0.000542886,10,0.00340412,-1.46948,0.0244638,2.41173,-3010.6,-0.100343,
2,0,0,1,1,56361.3,-0.0999548,-0.100591,-33.7363,29,0.000522618,10,0.00339356,-1.4719,-0.0357212,-1.65168,1952.48,-0.100591,
2,0,0,1,1,56361.3,-0.0979573,-0.0984055,-30.1334,29,0.000425121,10,0.00296529,-1.52095,-0.0462138,-1.27667,1435.97,-0.0984055,
2,0,0,1,1,56361.3,-0.0955546,-0.0960101,-26.9341,29,0.000311486,10,0.00258594,-1.5697,-0.0499861,-1.18033,1261.45,-0.0960101,
2,0,0,1,1,56361.4,-0.093152,-0.0936093,-24.2557,29,0.000209489,10,0.00227056,-1.61519,-0.0521326,-1.13173,1085.08,-0.0936093,
2,0,0,1,1,56361.4,-0.0907548,-0.0911958,-21.8847,29,0.00011752,10,0.0019958,-1.65986,-0.0531278,-1.11053,954.391,-0.0911958,
2,0,0,1,1,56361.4,-0.0883578,-0.0888205,-19.7328,29,3.4541e-05,10,0.00175268,-1.70481,-0.0525642,-1.12244,867.287,-0.0888205,
2,0,0,1,1,56361.4,-0.0859523,-0.0863816,-17.7447,29,-4.01782e-05,10,0.00153282,-1.75093,-0.0509284,-1.15849,803.197,-0.0863816,
2,0,0,1,1,56361.4,-0.0835552,-0.0840031,-15.9243,29,-0.000107278,10,0.00133769,-1.79794,-0.0492446,-1.1981,742.739,-0.0840031,
2,0,0,1,1,56361.4,-0.0811581,-0.0816257,-14.198,29,-0.000167328,10,0.00115892,-1.84777,-0.0467047,-1.26325,696.709,-0.08162567,
2,0,0,1,1,56361.4,-0.0787555,-0.0791804,-12.5727,29,-0.000220695,10,0.00099551,-1.90057,-0.0436796,-1.35074,658.549,-0.0791804,
2,0,0,1,1,56361.4,-0.0763528,-0.0767669,-11.0461,29,-0.000267754,10,0.000847972,-1.95679,-0.0406747,-1.45053,619.31,-0.0767669,
2,0,0,1,1,56361.4,-0.0739557,-0.0743894,-9.59327,29,-0.000308869,10,0.000713638,-2.01803,-0.0367779,-1.60423,592.054,-0.0743894,
2,0,0,1,1,56361.4,-0.0715586,-0.0719781,-8.22315,29,-0.000344343,10,0.000591886,-2.08496,-0.0329067,-1.79295,563.391,-0.0719781,
2,0,0,1,1,56361.4,-0.0691532,-0.0696049,-6.90349,29,-0.000374457,10,0.000480516,-2.16093,-0.0288563,-2.04461,534.694,-0.0696049,
2,0,0,1,1,56361.4,-0.0667561,-0.0671967,-5.65432,29,-0.000399424,10,0.000379952,-2.24762,-0.0242571,-2.43228,511.897,-0.0671967,
2,0,0,1,1,56361.4,-0.0643589,-0.0647853,-4.45801,29,-0.000419504,10,0.000288814,-2.35086,-0.0192989,-3.05717,490.468,-0.0647853,
2,0,0,1,1,56361.4,-0.0619563,-0.0623623,-3.30086,29,-0.000434899,10,0.000205849,-2.48137,-0.0139062,-4.24272,468.496,-0.06236231,
2,0,0,1,1,56361.4,-0.0595536,-0.0600093,-2.19713,29,-0.000445757,10,0.000131848,-2.65814,-0.0064631,-9.12874,448.974,-0.0600093,
2,0,0,1,1,56361.4,-0.0571565,-0.0575852,-1.15136,29,-0.00045235,10,6.6301e-05,-2.93879,-0.0161364,-3.65633,432.757,-0.05758518,
2,0,0,1,1,56361.4,-0.0547594,-0.0551802,-0.145542,29,-0.000454827,10,8.03102e-06,-3.83701,-0.103188,-0.571772,410.973,-0.0551802,
2,1,0,1,1,56361.4,-0.0523512,-0.052789,0.842074,29,-0.000453301,10,-4.44522e-05,-3.07465,0.0262486,2.24774,398.664,-0.052789,
2,1,0,1,1,56361.4,-0.0499541,-0.0503532,1.77125,29,-0.000447977,10,-8.91879e-05,-2.75172,0.00691481,8.53242,383.93,-0.0503532,
2,1,0,1,1,56361.4,-0.047557,-0.0480044,2.66816,29,-0.000438999,10,-0.000128083,-2.57379,0.0133958,4.40437,367.888,-0.0480044,
2,1,0,1,1,56361.4,-0.0451544,-0.0456036,3.53118,29,-0.000426506,10,-0.000161035,-2.45208,0.0204421,2.8862,357.513,-0.0456036,
2,1,0,1,1,56361.4,-0.0427545,-0.0432188,4.36283,29,-0.00041062,10,-0.000188556,-2.36023,0.0276146,2.13655,340.995,-0.0432188,
2,1,0,1,1,56361.4,-0.0403574,-0.0408382,5.17299,29,-0.000391446,10,-0.000211255,-2.28626,0.0344941,1.71044,330.499,-0.0408382,
2,1,0,1,1,56361.4,-0.0379603,-0.0383992,5.94347,29,-0.000369118,10,-0.000228225,-2.22596,0.0415346,1.4205,319.36,-0.0383992,
2,1,0,1,1,56361.4,-0.0355521,-0.03599,6.70848,29,-0.000343723,10,-0.000241438,-2.17338,0.0492573,1.19779,305.548,-0.03599,
2,1,0,1,1,56361.5,-0.033155,-0.0336168,7.42932,29,-0.00031538,10,-0.00024975,-2.12905,0.0560967,1.05176,298.972,-0.0336168,
2,1,0,1,1,56361.5,-0.0307579,-0.0311916,8.12047,29,-0.000284211,10,-0.000253291,-2.09042,0.0642292,0.918586,286.903,-0.0311916,
2,1,0,1,1,56361.5,-0.0283524,-0.0288057,8.81166,29,-0.000250284,10,-0.000253826,-2.05494,0.0724566,0.81428,276.018,-0.0288057,
2,1,0,1,1,56361.5,-0.0259553,-0.0264198,9.45419,29,-0.000213684,10,-0.000249778,-2.02438,0.0806763,0.731318,266.67,-0.0264198,
2,1,0,1,1,56361.5,-0.0235582,-0.0240275,10.0761,29,-0.00017454,10,-0.000242105,-1.99671,0.0904413,0.652357,254.282,-0.0240275,
2,1,0,1,1,56361.5,-0.0211611,-0.0215812,10.6833,29,-0.000132949,10,-0.000230558,-1.9713,0.09891,0.596502,246.796,-0.02158118,
2,1,0,1,1,56361.5,-0.0187529,-0.0191613,11.2641,29,-8.89919e-05,10,-0.000215834,-1.94831,0.108301,0.544776,237.847,-0.0191613,
2,1,0,1,1,56361.5,-0.0163558,-0.0167616,11.8378,29,-4.273e-05,10,-0.000198421,-1.92673,0.116602,0.505995,232.195,-0.0167616,
2,1,0,1,1,56361.5,-0.0139587,-0.0143545,12.3768,29,5.75834e-06,10,-0.000177663,-1.90739,0.126988,0.464611,223.111,-0.0143545,
2,1,0,1,1,56361.5,-0.0115505,-0.0120216,12.903,29,5.63796e-05,10,-0.000155114,-1.88931,0.139053,0.424298,212.475,-0.0120216,
2,1,0,1,1,56361.5,-0.0091534,-0.00955511,13.4073,29,0.000109053,10,-0.000128108,-1.87266,0.148623,0.396977,206.7,-0.00955511,
2,1,0,1,1,56361.5,-0.00675629,-0.00715434,13.8791,29,0.000163696,10,-9.92959e-05,-1.85764,0.160238,0.368202,198.859,-0.00715434,
2,1,0,1,1,56361.5,-0.00435919,-0.00478221,14.3554,29,0.00022023,10,-6.86507e-05,-1.84298,0.178041,0.331384,184.075,-0.00478221,
2,1,0,1,1,56361.5,-0.00195376,-0.00238888,14.8185,29,0.000278649,10,-3.53996e-05,-1.8292, , , ,-0.00238888,
2,1,0,0,1,56361.5,-7.54729e-05,-0.000401673,15.0922,29,0.000325093,10,-6.06214e-06,-1.82125, , , ,-0.000401673,