File: Figure_codes/Fig_3-5/rawdata_trumpetplot_data/after 10th/20221101_1-115_003_TrumpetPlot_ParaChange_from10_every3_06_CV_C01_17.csv
mode,ox/red,error,control changes,counter inc.,time/s,control/V,Ewe/V,<I>/mA,cycle number,(Q-Qo)/C,I Range,P/W,log(|I|),Tafel slope mV/dec,alpha_eff,dI/d(E-IR),E-IR/V,
2,0,0,0,0,34642.2,2.44065e-05,-0.000401673,-1.42298,18,0.0000000E+000,10,5.71571e-07,-2.8468, , , ,-0.000401673,
2,0,0,1,0,34642.3,0.00129787,0.000919101,-0.321476,18,-2.36485e-05,10,-2.95469e-07,-3.49285, , , ,0.000919101,
2,1,0,1,0,34642.3,0.00279427,0.00248307,0.344746,18,-2.12659e-05,10,8.56027e-07,-3.4625,0.0422936,1.39501,353.347,0.00248307,
2,1,0,1,0,34642.3,0.00429425,0.00398958,0.704426,18,-3.76423e-07,10,2.81036e-06,-3.15216,0.0052877,11.158,203.311,0.00398958,
2,1,0,1,0,34642.4,0.00579422,0.00544228,0.934536,18,3.13153e-05,10,5.08601e-06,-3.0294,0.0143818,4.10242,134.674,0.00544228,
2,1,0,1,0,34642.4,0.00729063,0.00695018,1.09645,18,7.00866e-05,10,7.62051e-06,-2.96001,0.0249263,2.36698,96.487,0.00695018,
2,1,0,1,0,34642.5,0.00878703,0.00843132,1.21602,18,0.000114058,10,1.02526e-05,-2.91506,0.0388575,1.51837,70.2061,0.00843132,
2,1,0,1,0,34642.5,0.010287,0.00996307,1.31288,18,0.000162073,10,1.30803e-05,-2.88177,0.0547661,1.07731,54.0895,0.00996307,
2,1,0,1,0,34642.5,0.011787,0.0114717,1.38038,18,0.000213151,10,1.58352e-05,-2.86,0.0697411,0.845986,45.1639,0.0114717,
2,1,0,1,0,34642.6,0.0132825,0.0129496,1.44156,18,0.00026655,10,1.86675e-05,-2.84117,0.0816237,0.722829,40.6159,0.0129496,
2,1,0,1,0,34642.6,0.014778,0.0144527,1.49493,18,0.000322133,10,2.16057e-05,-2.82538,0.0968313,0.609307,35.5545,0.0144527,
2,1,0,1,0,34642.6,0.0162815,0.0159432,1.54964,18,0.000380123,10,2.47063e-05,-2.80977,0.110387,0.534481,32.1525,0.0159432,
2,1,0,1,0,34642.7,0.017778,0.0174579,1.59395,18,0.000439529,10,2.78271e-05,-2.79753,0.138662,0.425494,26.3862,0.0174579,
2,1,0,1,0,34642.7,0.0192744,0.0189604,1.63316,18,0.00050038,10,3.09652e-05,-2.78697,0.138511,0.425959,27.0904,0.0189604,
2,1,0,1,0,34642.8,0.0207743,0.0204889,1.67445,18,0.000562936,10,3.43076e-05,-2.77613,0.146332,0.403193,26.2499,0.0204889,
2,1,0,1,0,34642.8,0.0222743,0.0219659,1.71253,18,0.000627031,10,3.76173e-05,-2.76636,0.156145,0.377853,25.2114,0.0219659,
2,1,0,1,0,34642.8,0.0237707,0.023489,1.74627,18,0.000692392,10,4.10182e-05,-2.75789,0.173841,0.339391,23.1653,0.023489,
2,1,0,1,0,34642.9,0.0252671,0.0249688,1.77818,18,0.000759045,10,4.4399e-05,-2.75002,0.175252,0.336658,23.4794,0.0249688,
2,1,0,1,0,34642.9,0.0267671,0.0264522,1.82011,18,0.0008272,10,4.81459e-05,-2.7399,0.165757,0.355942,25.3013,0.0264522,
2,1,0,1,0,34642.9,0.0282671,0.0279667,1.86185,18,0.000896794,10,5.20698e-05,-2.73006,0.175757,0.33569,24.3257,0.02796668,
2,1,0,1,0,34643,0.0297626,0.0294303,1.89468,18,0.000967583,10,5.5761e-05,-2.72246,0.190747,0.30931,22.7932,0.02943027,
2,1,0,1,0,34643,0.0312581,0.0309498,1.92946,18,0.00103965,10,5.97164e-05,-2.71456,0.189674,0.31106,23.3568,0.0309498,
2,1,0,1,0,34643.1,0.0327616,0.0324403,1.96272,18,0.00111333,10,6.36711e-05,-2.70714,0.191788,0.307632,23.5482,0.0324403,
2,1,0,1,0,34643.1,0.034258,0.0339141,1.99713,18,0.00118799,10,6.77309e-05,-2.69959,0.185912,0.317354,24.735,0.0339141,
2,1,0,1,0,34643.1,0.0357545,0.0354481,2.03135,18,0.00126399,10,7.20074e-05,-2.69222,0.212713,0.277369,21.9908,0.0354481,
2,1,0,1,0,34643.2,0.0372544,0.0369149,2.06514,18,0.00134152,10,7.62345e-05,-2.68505,0.206121,0.286239,23.1357,0.0369149,
2,1,0,1,0,34643.2,0.0387544,0.0384529,2.09771,18,0.00142021,10,8.06633e-05,-2.67825,0.205319,0.287358,23.6083,0.0384529,
2,1,0,1,0,34643.2,0.0402508,0.0399474,2.13991,18,0.00150007,10,8.5484e-05,-2.6696,0.209338,0.281841,23.4999,0.0399474,
2,1,0,1,0,34643.3,0.0417472,0.0414413,2.17638,18,0.00158138,10,9.01922e-05,-2.66226,0.203874,0.289394,24.494,0.0414413,
2,1,0,1,0,34643.3,0.0432472,0.0429373,2.21532,18,0.00166419,10,9.51198e-05,-2.65456,0.232057,0.254247,21.8662,0.0429373,
2,1,0,1,0,34643.4,0.0447472,0.0444157,2.24218,18,0.00174822,10,9.9588e-05,-2.64933,0.223284,0.264237,23.1013,0.04441569,
2,1,0,1,0,34643.4,0.0462427,0.0459551,2.27762,18,0.00183327,10,0.000104669,-2.64252,0.221707,0.266117,23.6055,0.0459551,
2,1,0,1,0,34643.4,0.0477382,0.0474368,2.31034,18,0.00191965,10,0.000109595,-2.63632,0.234136,0.251991,22.7308,0.0474368,
2,1,0,1,0,34643.5,0.0492417,0.0489113,2.33952,18,0.00200774,10,0.000114429,-2.63087,0.25692,0.229643,21.0111,0.0489113,
2,1,0,1,0,34643.5,0.0507381,0.0504134,2.36953,18,0.00209656,10,0.000119456,-2.62534,0.245129,0.240689,22.3471,0.0504134,
2,1,0,1,0,34643.5,0.0522345,0.0519434,2.40753,18,0.00218659,10,0.000125055,-2.61843,0.247093,0.238777,22.4392,0.0519434,
2,1,0,1,0,34643.6,0.0537345,0.0534627,2.44474,18,0.00227815,10,0.000130702,-2.61177,0.252619,0.233553,22.2415,0.0534627,
2,1,0,1,0,34643.6,0.0552345,0.0549331,2.47856,18,0.00237101,10,0.000136155,-2.6058,0.293012,0.201357,19.3831,0.0549331,
2,1,0,1,0,34643.7,0.0567309,0.0563988,2.50327,18,0.00246473,10,0.000141182,-2.60149,0.300917,0.196067,19.1389,0.0563988,
2,1,0,1,0,34643.7,0.0582273,0.0578641,2.53259,18,0.00255944,10,0.000146546,-2.59644,0.296648,0.198889,19.6703,0.05786407,
2,1,0,1,0,34643.7,0.0597309,0.0594089,2.56445,18,0.00265586,10,0.000152351,-2.59101,0.287873,0.204951,20.5159,0.0594089,
2,1,0,1,0,34643.8,0.0612264,0.0608896,2.58983,18,0.00275291,10,0.000157694,-2.58673,0.319975,0.184389,18.681,0.0608896,
2,1,0,1,0,34643.8,0.0627219,0.0624426,2.62445,18,0.00285108,10,0.000163878,-2.58096,0.317867,0.185612,19.0022,0.0624426,
2,1,0,1,0,34643.8,0.0642218,0.0638784,2.64945,18,0.00295048,10,0.000169243,-2.57684,0.324127,0.182027,18.823,0.06387838,
2,1,0,1,0,34643.9,0.0657218,0.0653744,2.67738,18,0.00305099,10,0.000175032,-2.57229,0.301674,0.195575,20.4186,0.0653744,
2,1,0,1,0,34643.9,0.0672182,0.066911,2.71285,18,0.00315239,10,0.000181519,-2.56657,0.330549,0.178491,18.8243,0.066911,
2,1,0,1,0,34644,0.0687146,0.0683611,2.73505,18,0.00325481,10,0.000186971,-2.56303,0.394553,0.149536,15.9382,0.0683611,
2,1,0,1,0,34644,0.0702146,0.0699232,2.75538,18,0.00335836,10,0.000192665,-2.55982,0.36697,0.160776,17.3153,0.0699232,
2,1,0,1,0,34644,0.0717146,0.0714036,2.77996,18,0.00346284,10,0.000198499,-2.55596,0.394938,0.149391,16.2399,0.0714036,
2,1,0,1,0,34644.1,0.073211,0.0728848,2.80372,18,0.00356801,10,0.000204349,-2.55227,0.428186,0.137791,15.1101,0.0728848,
2,1,0,1,0,34644.1,0.0747074,0.0744366,2.8326,18,0.00367408,10,0.000210849,-2.54781,0.459345,0.128444,14.1819,0.07443662,
2,1,0,1,0,34644.1,0.0762109,0.0759266,2.84813,18,0.00378149,10,0.000216249,-2.54544,0.461,0.127983,14.2396,0.0759266,
2,1,0,1,0,34644.2,0.0777064,0.0774051,2.87782,18,0.0038891,10,0.000222758,-2.54094,0.421541,0.139963,15.6839,0.07740505,
2,1,0,1,0,34644.2,0.079202,0.0788973,2.90113,18,0.00399758,10,0.000228891,-2.53743,0.483431,0.122044,13.7635,0.0788973,
2,1,0,1,0,34644.3,0.0807019,0.0803961,2.91665,18,0.0041072,10,0.000234487,-2.53512,0.505783,0.116651,13.2545,0.0803961,
2,1,0,1,0,34644.3,0.0822019,0.0818912,2.93278,18,0.00421751,10,0.000240169,-2.53272,0.508306,0.116072,13.2978,0.0818912,
2,1,0,1,0,34644.3,0.0836983,0.0833741,2.94772,18,0.00432821,10,0.000245763,-2.53051,0.521454,0.113145,13.0542,0.08337409,
2,1,0,1,0,34644.4,0.0851947,0.0848673,2.97198,18,0.00443969,10,0.000252224,-2.52695,0.501458,0.117657,13.6782,0.0848673,
2,1,0,1,0,34644.4,0.0866947,0.0863708,2.99427,18,0.00455224,10,0.000258617,-2.52371,0.525393,0.112297,13.121,0.0863708,
2,1,0,1,0,34644.4,0.0881947,0.0878761,3.0171,18,0.00466557,10,0.000265131,-2.52041,0.571622,0.103215,12.1467,0.0878761,
2,1,0,1,0,34644.5,0.0896911,0.0894292,3.03774,18,0.0047792,10,0.000271663,-2.51745,0.466015,0.126605,15.0138,0.0894292,
2,1,0,1,0,34644.5,0.0911875,0.0908117,3.05997,18,0.0048937,10,0.000277881,-2.51428,0.386684,0.152579,18.2232,0.0908117,
2,1,0,1,0,34644.6,0.0926901,0.0923687,3.09186,18,0.0050099,10,0.000285591,-2.50978,0.362187,0.162899,19.6185,0.0923687,
2,1,0,1,0,34644.6,0.0941856,0.0938805,3.11359,18,0.00512655,10,0.000292306,-2.50674,0.361107,0.163386,19.8756,0.0938805,
2,1,0,1,0,34644.6,0.0956821,0.0953524,3.14017,18,0.00524421,10,0.000299423,-2.50305,0.343877,0.171573,21.0988,0.0953524,
2,1,0,1,0,34644.7,0.097182,0.0968377,3.17866,18,0.0053634,10,0.000307814,-2.49776,0.295352,0.199761,24.8271,0.0968377,
2,1,0,1,0,34644.7,0.098682,0.0983733,3.22018,18,0.00548398,10,0.00031678,-2.49212,0.279119,0.211379,26.5693,0.0983733,
2,1,0,1,0,34644.7,0.100178,0.0998909,3.26033,18,0.00560575,10,0.000325677,-2.48674,0.26146,0.225656,28.7241,0.0998909,
2,1,0,1,0,34644.8,0.101675,0.10134,3.30455,18,0.00572906,10,0.000334885,-2.48089,0.248444,0.237478,30.6434,0.10134,
2,1,0,1,0,34644.8,0.103175,0.102873,3.35862,18,0.00585441,10,0.000345513,-2.47384,0.224091,0.263286,34.4524,0.102873,
2,1,0,1,0,34644.9,0.104675,0.104348,3.40919,18,0.00598176,10,0.000355741,-2.46735,0.207532,0.284293,37.7852,0.104348,
2,1,0,1,0,34644.9,0.106171,0.105851,3.46277,18,0.0061108,10,0.000366538,-2.46058,0.225298,0.261875,35.3446,0.105851,
2,1,0,1,0,34644.9,0.107667,0.10736,3.51114,18,0.00624186,10,0.000376955,-2.45455,0.21951,0.268781,36.9104,0.10736,
2,1,0,1,0,34645,0.10917,0.108847,3.56697,18,0.00637559,10,0.000388254,-2.4477,0.216203,0.272892,38.0766,0.108847,
2,1,0,1,0,34645,0.110666,0.110354,3.62854,18,0.00651083,10,0.000400424,-2.44027,0.21199,0.278315,39.4366,0.110354,
2,1,0,1,0,34645,0.112162,0.111881,3.69023,18,0.00664829,10,0.000412866,-2.43295,0.23119,0.255201,36.6718,0.111881,
2,1,0,1,0,34645.1,0.113662,0.113363,3.74601,18,0.00678829,10,0.000424657,-2.42643,0.23575,0.250265,36.5031,0.113363,
2,1,0,1,0,34645.1,0.115162,0.114802,3.79835,18,0.00693015,10,0.000436057,-2.4204,0.266377,0.221491,32.7597,0.1148017,
2,1,0,1,0,34645.2,0.116658,0.116298,3.8435,18,0.00707364,10,0.00044699,-2.41527,0.266785,0.221152,33.1351,0.116298,
2,1,0,1,0,34645.2,0.118155,0.11786,3.89496,18,0.00721899,10,0.00045906,-2.4095,0.295712,0.199518,30.2924,0.1178601,
2,1,0,1,0,34645.2,0.119655,0.119308,3.9327,18,0.00736647,10,0.000469201,-2.40531,0.351344,0.167927,25.7961,0.119308,
2,1,0,1,0,34645.3,0.121155,0.120861,3.96792,18,0.0075154,10,0.000479565,-2.40144,0.38324,0.153951,23.872,0.120861,
2,1,0,1,0,34645.3,0.122651,0.122307,4.0062,18,0.00766527,10,0.000489987,-2.39727,0.401307,0.147019,22.9879,0.122307,
2,1,0,1,0,34645.3,0.124147,0.123834,4.0421,18,0.00781641,10,0.000500549,-2.39339,0.44068,0.133884,21.1041,0.1238341,
2,1,0,1,0,34645.4,0.12565,0.125351,4.07605,18,0.00796955,10,0.000510938,-2.38976,0.532958,0.110703,17.5451,0.125351,
2,1,0,1,0,34645.4,0.127146,0.126881,4.09469,18,0.00812286,10,0.000519539,-2.38778,0.622862,0.0947241,15.1232,0.126881,
2,1,0,1,0,34645.5,0.128642,0.128332,4.11681,18,0.00827692,10,0.000528317,-2.38544,0.62574,0.0942884,15.1462,0.128332,
2,1,0,1,0,34645.5,0.130142,0.129833,4.13749,18,0.00843231,10,0.000537183,-2.38326,0.660018,0.0893915,14.4357,0.129833,
2,1,0,1,0,34645.5,0.131642,0.13131,4.15933,18,0.00858858,10,0.00054616,-2.38098,0.834876,0.0706692,11.4648,0.13131,
2,1,0,1,0,34645.6,0.133139,0.132818,4.17508,18,0.00874515,10,0.000554525,-2.37933,0.882021,0.0668918,10.9101,0.132818,
2,1,0,1,0,34645.6,0.134635,0.134307,4.19063,18,0.00890222,10,0.00056283,-2.37772,1.17954,0.0500196,8.18218,0.134307,
2,1,0,1,0,34645.6,0.136135,0.135796,4.20557,18,0.00906028,10,0.000571099,-2.37617,1.34735,0.0437898,7.17574,0.135796,
2,1,0,1,0,34645.7,0.137635,0.137283,4.2161,18,0.00921871,10,0.000578801,-2.37509,3.3566,0.0175773,2.88164,0.137283,
2,1,0,1,0,34645.7,0.13913,0.138815,4.21977,18,0.00937691,10,0.000585769,-2.37471,-3.13168,-0.0188397,-3.0888,0.138815,
2,1,0,1,0,34645.7,0.140626,0.140265,4.20311,18,0.00953487,10,0.000589548,-2.37643,-0.820082,-0.071944,-11.7713,0.140265,
2,1,0,1,0,34645.8,0.14213,0.141786,4.18084,18,0.0096931,10,0.000592784,-2.37874,-0.56016,-0.105327,-17.1353,0.141786,
2,1,0,1,0,34645.8,0.143626,0.143318,4.144,18,0.00984951,10,0.000593909,-2.38258,-0.336483,-0.175343,-28.3041,0.143318,
2,1,0,1,0,34645.9,0.145122,0.144819,4.08957,18,0.0100043,10,0.000592249,-2.38832,-0.230447,-0.256024,-40.783,0.144819,
2,1,0,1,0,34645.9,0.146622,0.146325,4.0251,18,0.0101572,10,0.000588974,-2.39522,-0.172926,-0.341186,-53.4219,0.146325,
2,1,0,1,0,34645.9,0.148122,0.147826,3.93862,18,0.0103072,10,0.00058223,-2.40466,-0.147497,-0.400007,-61.2415,0.147826,
2,1,0,1,0,34646,0.149619,0.149322,3.84037,18,0.0104532,10,0.000573452,-2.41563,-0.12156,-0.485358,-72.3766,0.149322,
2,1,0,1,0,34646,0.151115,0.150781,3.72551,18,0.0105953,10,0.000561735,-2.42881,-0.103112,-0.572195,-82.7194,0.150781,
2,1,0,1,0,34646,0.152615,0.152301,3.58922,18,0.010733,10,0.000546644,-2.445,-0.09395,-0.627994,-87.8236,0.152301,
2,1,0,1,0,34646.1,0.154115,0.153799,3.45583,18,0.0108657,10,0.000531502,-2.46145,-0.0877639,-0.672258,-90.6792,0.1537988,
2,1,0,1,0,34646.1,0.155611,0.155305,3.31816,18,0.0109931,10,0.000515327,-2.4791,-0.0841573,-0.701068,-90.8793,0.155305,
2,1,0,1,0,34646.2,0.157106,0.1568,3.18412,18,0.0111154,10,0.000499271,-2.49701,-0.0813908,-0.724898,-90.1954,0.1568,
2,1,0,1,0,34646.2,0.15861,0.158254,3.05615,18,0.0112332,10,0.000483649,-2.51483,-0.0833745,-0.707651,-84.56,0.1582545,
2,1,0,1,0,34646.2,0.160106,0.159786,2.9297,18,0.0113457,10,0.000468127,-2.53318,-0.0867113,-0.680419,-77.9145,0.159786,
2,1,0,1,0,34646.3,0.161602,0.161306,2.82007,18,0.0114537,10,0.000454893,-2.54974,-0.0898938,-0.65633,-72.2778,0.161306,
2,1,0,1,0,34646.3,0.163102,0.162766,2.71487,18,0.011558,10,0.000441888,-2.56625,-0.0954122,-0.618369,-65.6215,0.162766,
2,1,0,1,0,34646.3,0.164602,0.16431,2.62136,18,0.0116586,10,0.000430715,-2.58147,-0.099226,-0.594602,-60.9163,0.16431,
2,1,0,1,0,34646.4,0.166099,0.165837,2.53074,18,0.0117555,10,0.000419691,-2.59675,-0.108755,-0.542502,-53.8356,0.165837,
2,1,0,1,0,34646.4,0.167595,0.167293,2.4562,18,0.0118494,10,0.000410905,-2.60974,-0.120592,-0.489253,-47.0722,0.167293,
2,1,0,1,0,34646.5,0.169095,0.168812,2.38906,18,0.0119409,10,0.000403301,-2.62177,-0.127268,-0.463589,-43.3636,0.168812,
2,1,0,1,0,34646.5,0.170595,0.170289,2.32977,18,0.01203,10,0.000396734,-2.63269,-0.134175,-0.439726,-40.0574,0.170289,
2,1,0,1,0,34646.5,0.172091,0.171799,2.2705,18,0.0121166,10,0.00039007,-2.64388,-0.149332,-0.395093,-35.1161,0.171799,
2,1,0,1,0,34646.6,0.173586,0.173252,2.22207,18,0.0122012,10,0.000384977,-2.65324,-0.161481,-0.365367,-31.7296,0.173252,
2,1,0,1,0,34646.6,0.17509,0.174788,2.1808,18,0.0122844,10,0.000381178,-2.66138,-0.18363,-0.321299,-27.2991,0.174788,
2,1,0,1,0,34646.6,0.176586,0.176293,2.13848,18,0.0123657,10,0.000377,-2.66989,-0.178931,-0.329736,-27.5105,0.176293,
2,1,0,1,0,34646.7,0.178083,0.177778,2.0963,18,0.0124456,10,0.000372675,-2.67855,-0.206542,-0.285656,-23.4767,0.177778,
2,1,0,1,0,34646.7,0.179582,0.17927,2.06396,18,0.0125242,10,0.000370006,-2.6853,-0.2319,-0.25442,-20.6146,0.17927,
2,1,0,1,0,34646.8,0.181082,0.180759,2.0352,18,0.0126017,10,0.000367879,-2.69139,-0.265981,-0.22182,-17.683,0.1807586,
2,1,0,1,0,34646.8,0.182579,0.182283,2.01136,18,0.0126781,10,0.000366636,-2.69651,-0.274803,-0.214699,-16.8778,0.182283,
2,1,0,1,0,34646.8,0.184075,0.183775,1.99473,18,0.0127536,10,0.000366583,-2.70012,-0.296256,-0.199152,-15.4661,0.183775,
2,1,0,1,0,34646.9,0.185579,0.185245,1.9669,18,0.0128284,10,0.000364359,-2.70622,-0.329528,-0.179044,-13.7442,0.185245,
2,1,0,1,0,34646.9,0.187074,0.186755,1.94702,18,0.0129022,10,0.000363615,-2.71063,-0.405534,-0.145487,-11.0542,0.186755,
2,1,0,1,0,34646.9,0.18857,0.188214,1.93066,18,0.0129753,10,0.000363379,-2.71429,-0.429509,-0.137366,-10.3553,0.188214,
2,1,0,1,0,34647,0.19007,0.189717,1.91476,18,0.013048,10,0.000363263,-2.71789,-0.413592,-0.142653,-10.6667,0.189717,
2,1,0,1,0,34647,0.19157,0.191256,1.89582,18,0.0131201,10,0.000362588,-2.7222,-0.44452,-0.132728,-9.85308,0.191256,
2,1,0,1,0,34647.1,0.193066,0.1928,1.88294,18,0.0131914,10,0.000363032,-2.72516,-0.624534,-0.0944704,-6.95745,0.1928,
2,1,0,1,0,34647.1,0.194563,0.194233,1.87359,18,0.0132623,10,0.000363915,-2.72732,-0.540202,-0.109218,-7.99274,0.1942334,
2,1,0,1,0,34647.1,0.196063,0.195767,1.86508,18,0.013333,10,0.000365122,-2.7293,-0.505462,-0.116725,-8.4727,0.195767,
2,1,0,1,0,34647.2,0.197563,0.197235,1.8508,18,0.0134032,10,0.000365042,-2.73264,-0.560561,-0.105252,-7.60097,0.197235,
2,1,0,1,0,34647.2,0.199059,0.198732,1.84277,18,0.0134728,10,0.000366218,-2.73453,-0.636748,-0.0926583,-6.65979,0.198732,
2,1,0,1,0,34647.2,0.200555,0.200183,1.83412,18,0.0135421,10,0.00036716,-2.73657,-0.654073,-0.090204,-6.44965,0.200183,
2,1,0,1,0,34647.3,0.202059,0.201734,1.82055,18,0.0136115,10,0.000367266,-2.7398,-0.755819,-0.078061,-5.5519,0.201734,
2,1,0,1,0,34647.3,0.203554,0.203205,1.8097,18,0.0136801,10,0.00036774,-2.74239,-0.774139,-0.0762137,-5.40533,0.203205,
2,1,0,1,0,34647.4,0.20505,0.204717,1.80455,18,0.0137483,10,0.000369422,-2.74363,-2.01237,-0.0293187,-2.07606,0.204717,
2,1,0,1,0,34647.4,0.20655,0.206242,1.80241,18,0.0138166,10,0.000371732,-2.74415,-1.3464,-0.0438205,-3.07979,0.206242,
2,1,0,1,0,34647.4,0.20805,0.207733,1.80317,18,0.0138848,10,0.000374577,-2.74396,-1.0977,-0.0537486,-3.75841,0.207733,
2,1,0,1,0,34647.5,0.209546,0.209291,1.79577,18,0.0139525,10,0.000375838,-2.74575,-0.58611,-0.100664,-7.02101,0.209291,
2,1,0,1,0,34647.5,0.211043,0.210742,1.78259,18,0.0140199,10,0.000375666,-2.74895,-0.944962,-0.0624364,-4.34164,0.210742,
2,1,0,1,0,34647.5,0.212543,0.212227,1.77925,18,0.0140872,10,0.000377603,-2.74976,-1.76998,-0.0333336,-2.31182,0.2122267,
2,1,0,1,0,34647.6,0.214043,0.213711,1.77456,18,0.0141544,10,0.000379244,-2.75091,-1.52531,-0.0386807,-2.67743,0.213711,
2,1,0,1,0,34647.6,0.215539,0.215208,1.76604,18,0.0142212,10,0.000380067,-2.753,-1.25639,-0.0469601,-3.24565,0.215208,
2,1,0,1,0,34647.7,0.217035,0.216717,1.75815,18,0.0142877,10,0.000381021,-2.75494,-1.31652,-0.0448152,-3.08927,0.216717,
2,1,0,1,0,34647.7,0.218538,0.218216,1.75592,18,0.0143545,10,0.000383169,-2.7555,-2.82798,-0.020863,-1.43051,0.218216,
2,1,0,1,0,34647.7,0.220034,0.219744,1.75783,18,0.0144208,10,0.000386274,-2.75502,-1.65863,-0.0355715,-2.43584,0.219744,
2,1,0,1,0,34647.8,0.22153,0.22124,1.75122,18,0.014487,10,0.00038744,-2.75666,-1.03654,-0.0569204,-3.88269,0.22124,
2,1,0,1,0,34647.8,0.22303,0.22272,1.74415,18,0.0145531,10,0.000388458,-2.75842,-1.89994,-0.0310536,-2.11189,0.22272,
2,1,0,1,0,34647.8,0.22453,0.224189,1.74231,18,0.0146191,10,0.000390605,-2.75888,-1.57761,-0.0373984,-2.54385,0.224189,
2,1,0,1,0,34647.9,0.226026,0.225715,1.73749,18,0.0146848,10,0.000392178,-2.76008,-3.3499,-0.0176125,-1.19554,0.225715,
2,1,0,1,0,34647.9,0.227523,0.2272,1.73171,18,0.0147503,10,0.000393445,-2.76152,-1.02701,-0.0574485,-3.89268,0.2272,
2,1,0,1,0,34648,0.229023,0.228718,1.73081,18,0.014816,10,0.000395868,-2.76175,-1.16903,-0.0504693,-3.41215,0.2287183,
2,1,0,1,0,34648,0.230523,0.230237,1.72752,18,0.0148814,10,0.000397739,-2.76258,-1.1913,-0.0495257,-3.34066,0.230237,
2,1,0,1,0,34648,0.232019,0.231663,1.72632,18,0.0149465,10,0.000399926,-2.76288,-2.46315,-0.0239531,-1.6103,0.231663,
2,1,0,1,0,34648.1,0.233515,0.233204,1.7291,18,0.0150116,10,0.000403234,-2.76218,-1.49768,-0.0393942,-2.64544,0.233204,
2,1,0,1,0,34648.1,0.235018,0.234709,1.72001,18,0.0150769,10,0.000403703,-2.76447,-1.95871,-0.0301218,-2.01797,0.234709,
2,1,0,1,0,34648.1,0.236514,0.236203,1.71295,18,0.0151417,10,0.000404605,-2.76626,-1.6844,-0.0350273,-2.34356,0.236203,
2,1,0,1,0,34648.2,0.23801,0.237697,1.70985,18,0.0152063,10,0.000406427,-2.76704,-3.82876,-0.0154097,-1.02974,0.237697,
2,1,0,1,0,34648.2,0.23951,0.239207,1.70905,18,0.0152711,10,0.000408816,-2.76725,-2.18945,-0.0269473,-1.80066,0.239207,
2,1,0,1,0,34648.3,0.24101,0.240713,1.70284,18,0.0153358,10,0.000409897,-2.76883,-1.18271,-0.0498855,-3.32475,0.2407134,
2,1,0,1,0,34648.3,0.242506,0.242172,1.69885,18,0.0154001,10,0.000411414,-2.76984,-1.70834,-0.0345364,-2.29912,0.242172,
2,1,0,1,0,34648.3,0.244003,0.243708,1.70311,18,0.0154643,10,0.00041506,-2.76876,48.794,0.00120917,0.0801302,0.2437079,
2,1,0,1,0,34648.4,0.245503,0.245189,1.70108,18,0.0155287,10,0.000417088,-2.76927,-2.29148,-0.0257476,-1.70451,0.245189,
2,1,0,1,0,34648.4,0.247003,0.246701,1.69702,18,0.015593,10,0.000418658,-2.77031,-1.74585,-0.0337944,-2.23182,0.246701,
2,1,0,1,0,34648.4,0.248499,0.248201,1.68878,18,0.0156569,10,0.000419158,-2.77243,-1.77166,-0.0333022,-2.19898,0.248201,
2,1,0,1,0,34648.5,0.249995,0.24967,1.69075,18,0.0157207,10,0.00042213,-2.77192,-1.53608,-0.0384095,-2.53974,0.24967,
2,1,0,1,0,34648.5,0.251498,0.251175,1.68458,18,0.0157848,10,0.000423124,-2.77351,-5.65518,-0.0104329,-0.68756,0.251175,
2,1,0,1,0,34648.6,0.252994,0.252697,1.68285,18,0.0158484,10,0.000425251,-2.77395,-1.21243,-0.0486627,-3.20034,0.252697,
2,1,0,1,0,34648.6,0.25449,0.254196,1.68212,18,0.015912,10,0.000427588,-2.77414,-1.9184,-0.0307548,-2.01987,0.254196,
2,1,0,1,0,34648.6,0.25599,0.255674,1.68006,18,0.0159756,10,0.000429547,-2.77468,-2.18434,-0.0270104,-1.76997,0.255674,
2,1,0,1,0,34648.7,0.25749,0.25719,1.68144,18,0.0160391,10,0.00043245,-2.77432,-45.9076,-0.00128519,-0.0839297,0.25719,
2,1,0,1,0,34648.7,0.258987,0.258707,1.6788,18,0.0161025,10,0.000434319,-2.775,-2.402,-0.0245629,-1.60546,0.258707,
2,1,0,1,0,34648.7,0.260483,0.260193,1.67596,18,0.0161658,10,0.000436073,-2.77574,-1.52931,-0.0385795,-2.52319,0.260193,
2,1,0,1,0,34648.8,0.261983,0.261636,1.66676,18,0.016229,10,0.000436084,-2.77813,-1.5102,-0.0390678,-2.55184,0.2616359,
2,1,0,1,0,34648.8,0.263483,0.263156,1.66607,18,0.0162922,10,0.000438435,-2.77831,95.9741,0.000614749,0.0400632,0.263156,
2,1,0,1,0,34648.9,0.264978,0.264699,1.66588,18,0.0163551,10,0.000440956,-2.77836,-2.17876,-0.0270796,-1.75927,0.264699,
2,1,0,1,0,34648.9,0.266474,0.26618,1.6636,18,0.0164179,10,0.000442816,-2.77895,-4.29483,-0.0137374,-0.891105,0.26618,
2,1,0,1,0,34648.9,0.267977,0.267634,1.65696,18,0.016481,10,0.000443459,-2.78069,-2.60681,-0.022633,-1.46621,0.267634,
2,1,0,1,0,34649,0.269474,0.269181,1.66024,18,0.0165436,10,0.000446904,-2.77983,-12.5636,-0.0046961,-0.303456,0.269181,
2,1,0,1,0,34649,0.27097,0.270679,1.66005,18,0.0166061,10,0.00044934,-2.77988,-2.34679,-0.0251407,-1.62215,0.270679,
2,1,0,1,0,34649,0.27247,0.272146,1.65352,18,0.0166688,10,0.000449998,-2.78159,-1.33346,-0.0442457,-2.85221,0.272146,
2,1,0,1,0,34649.1,0.27397,0.27366,1.64508,18,0.0167314,10,0.000450192,-2.78381,-1.42148,-0.0415059,-2.67809,0.27366,
2,1,0,1,0,34649.1,0.275467,0.27513,1.64609,18,0.0167936,10,0.000452889,-2.78355,-1.15571,-0.0510509,-3.29141,0.27513,
2,1,0,1,0,34649.2,0.276963,0.27665,1.64355,18,0.0168557,10,0.000454687,-2.78422,-3.41163,-0.0172938,-1.1116,0.27665,
2,1,0,1,0,34649.2,0.278463,0.278156,1.64361,18,0.0169179,10,0.00045718,-2.7842,-1.35355,-0.0435891,-2.78767,0.278156,
2,1,0,1,0,34649.2,0.279963,0.279658,1.64235,18,0.0169801,10,0.000459295,-2.78453,-1.53647,-0.0383996,-2.45165,0.279658,
2,1,0,1,0,34649.3,0.281459,0.28116,1.63771,18,0.0170418,10,0.000460458,-2.78576,-1.89913,-0.0310668,-1.98052,0.28116,
2,1,0,1,0,34649.3,0.282954,0.282677,1.63499,18,0.0171036,10,0.000462175,-2.78648,-3.95716,-0.0149097,-0.949839,0.2826772,
2,1,0,1,0,34649.3,0.284458,0.284175,1.63118,18,0.0171656,10,0.000463541,-2.7875,-2.14756,-0.027473,-1.75006,0.284175,
2,1,0,1,0,34649.4,0.285954,0.285631,1.62502,18,0.0172271,10,0.000464157,-2.78914,-1.05021,-0.0561791,-3.57535,0.285631,
2,1,0,1,0,34649.4,0.28745,0.287133,1.62016,18,0.0172885,10,0.000465203,-2.79044,-1.4406,-0.0409553,-2.60123,0.287133,
2,1,0,1,0,34649.5,0.28895,0.288616,1.61765,18,0.0173499,10,0.000466878,-2.79112,-1.89684,-0.0311044,-1.96873,0.288616,
2,1,0,1,0,34649.5,0.29045,0.290114,1.62,18,0.0174113,10,0.000469984,-2.79049,-2.67664,-0.0220425,-1.39005,0.290114,
2,1,0,1,0,34649.5,0.291947,0.291639,1.61736,18,0.0174724,10,0.000471684,-2.79119,-1.34452,-0.043882,-2.76157,0.291639,
2,1,0,1,0,34649.6,0.293443,0.293119,1.61219,18,0.0175333,10,0.000472564,-2.79258,-1.31436,-0.0448888,-2.8181,0.293119,
2,1,0,1,0,34649.6,0.294943,0.294659,1.61315,18,0.0175943,10,0.00047533,-2.79232,-3.16962,-0.0186142,-1.16907,0.294659,
2,1,0,1,0,34649.6,0.296443,0.296146,1.61024,18,0.0176552,10,0.000476865,-2.79311,-1.76484,-0.0334309,-2.09725,0.296146,
2,1,0,1,0,34649.7,0.297939,0.297642,1.60359,18,0.0177159,10,0.000477297,-2.79491,-1.95008,-0.0302552,-1.89648,0.2976422,
2,1,0,1,0,34649.7,0.299434,0.299159,1.59689,18,0.0177764,10,0.000477725,-2.79672,-0.0164823,-3.57959,-192.543,0.299159,
2,1,0,0,0,34649.7,0.299962,0.299727,1.53362,18,0.0178002,10,0.000459667,-2.81428,0.0010041,58.7592,1754.91,0.299727,
2,1,0,1,0,34649.8,0.298689,0.298371,0.480558,18,0.0178277,10,0.000143385,-3.31825,0.00220578,26.7479,488.558,0.298371,
2,1,0,1,0,34649.8,0.297189,0.296838,0.0323971,18,0.0178355,10,9.6167e-06,-4.48949,0.00741554,7.95627,239.009,0.296838,
2,0,0,1,0,34649.8,0.295692,0.295391,-0.176542,18,0.0178319,10,-5.2149e-05,-3.75315,-0.0118477,-4.97985,116.724,0.295391,
2,0,0,1,0,34649.9,0.294196,0.293853,-0.291299,18,0.0178225,10,-8.5599e-05,-3.53566,-0.00771254,-7.64988,67.8439,0.293853,
2,0,0,1,0,34649.9,0.292696,0.292401,-0.366492,18,0.0178094,10,-0.000107163,-3.43594,-0.0168449,-3.50255,46.9872,0.292401,
2,0,0,1,0,34650,0.291196,0.29088,-0.427512,18,0.0177938,10,-0.000124355,-3.36905,-0.0262471,-2.24787,36.461,0.29088,
2,0,0,1,0,34650,0.2897,0.28933,-0.474844,18,0.0177762,10,-0.000137387,-3.32345,-0.0366333,-1.61056,29.5923,0.28933,
2,0,0,1,0,34650,0.288205,0.287867,-0.516506,18,0.0177569,10,-0.000148685,-3.28692,-0.0471239,-1.25202,24.9107,0.287867,
2,0,0,1,0,34650.1,0.286701,0.286375,-0.549708,18,0.0177361,10,-0.000157423,-3.25987,-0.057266,-1.03028,22.055,0.286375,
2,0,0,1,0,34650.1,0.285205,0.284904,-0.581831,18,0.0177142,10,-0.000165766,-3.2352,-0.064531,-0.91429,20.7563,0.284904,
2,0,0,1,0,34650.1,0.283708,0.283398,-0.615889,18,0.0176911,10,-0.000174542,-3.2105,-0.0745813,-0.791083,18.7603,0.283398,
2,0,0,1,0,34650.2,0.282208,0.281884,-0.641417,18,0.0176669,10,-0.000180805,-3.19286,-0.0916977,-0.643418,15.8988,0.281884,
2,0,0,1,0,34650.2,0.280708,0.280375,-0.661587,18,0.0176418,10,-0.000185493,-3.17941,-0.111263,-0.530273,13.7225,0.2803753,
2,0,0,1,0,34650.3,0.279212,0.278911,-0.682992,18,0.017616,10,-0.000190494,-3.16558,-0.112945,-0.522377,13.9943,0.278911,
2,0,0,1,0,34650.3,0.277716,0.277429,-0.70441,18,0.0175893,10,-0.000195424,-3.15217,-0.118414,-0.498252,13.7418,0.277429,
2,0,0,1,0,34650.3,0.276216,0.275912,-0.727085,18,0.0175617,10,-0.000200611,-3.13841,-0.132558,-0.445089,12.6306,0.275912,
2,0,0,1,0,34650.4,0.274716,0.274414,-0.750662,18,0.0175334,10,-0.000205992,-3.12456,-0.155454,-0.379533,11.0095,0.274414,
2,0,0,1,0,34650.4,0.27322,0.272892,-0.762472,18,0.0175046,10,-0.000208072,-3.11778,-0.150176,-0.392871,11.6543,0.272892,
2,0,0,1,0,34650.4,0.271725,0.271406,-0.779327,18,0.0174752,10,-0.000211514,-3.10828,-0.137085,-0.43039,13.0185,0.271406,
2,0,0,1,0,34650.5,0.270221,0.269908,-0.798897,18,0.0174449,10,-0.000215628,-3.09751,-0.164761,-0.358095,11.1177,0.2699075,
2,0,0,1,0,34650.5,0.268725,0.26842,-0.811706,18,0.017414,10,-0.000217878,-3.0906,-0.197481,-0.298763,9.47062,0.26842,
2,0,0,1,0,34650.6,0.267228,0.266928,-0.822949,18,0.0173827,10,-0.000219668,-3.08463,-0.213215,-0.276716,8.96845,0.266928,
2,0,0,1,0,34650.6,0.265728,0.265434,-0.840769,18,0.0173507,10,-0.000223169,-3.07532,-0.216414,-0.272625,8.98814,0.265434,
2,0,0,1,0,34650.6,0.264228,0.263892,-0.858378,18,0.0173182,10,-0.000226519,-3.06632,-0.222491,-0.26518,8.86874,0.263892,
2,0,0,1,0,34650.7,0.262732,0.262381,-0.871297,18,0.0172852,10,-0.000228612,-3.05983,-0.252321,-0.233829,7.91304,0.262381,
2,0,0,1,0,34650.7,0.261236,0.260941,-0.883434,18,0.0172518,10,-0.000230524,-3.05383,-0.256082,-0.230395,7.92974,0.260941,
2,0,0,1,0,34650.7,0.259736,0.259415,-0.897649,18,0.0172179,10,-0.000232863,-3.04689,-0.239612,-0.246232,8.59679,0.259415,
2,0,0,1,0,34650.8,0.258236,0.257923,-0.90882,18,0.0171834,10,-0.000234406,-3.04152,-0.242563,-0.243236,8.61377,0.257923,
2,0,0,1,0,34650.8,0.256741,0.256452,-0.922336,18,0.0171485,10,-0.000236535,-3.03511,-0.268237,-0.219955,7.89817,0.256452,
2,0,0,1,0,34650.9,0.255241,0.254916,-0.93254,18,0.017113,10,-0.000237719,-3.03033,-0.256572,-0.229955,8.3725,0.254916,
2,0,0,1,0,34650.9,0.253741,0.253399,-0.938172,18,0.0170773,10,-0.000237732,-3.02772,-0.294066,-0.200635,7.40181,0.253399,
2,0,0,1,0,34650.9,0.252245,0.251927,-0.954782,18,0.0170411,10,-0.000240535,-3.0201,-0.250699,-0.235342,8.77089,0.251927,
2,0,0,1,0,34651,0.250748,0.250484,-0.969814,18,0.0170044,10,-0.000242923,-3.01331,-0.288312,-0.204639,7.70409,0.250484,
2,0,0,1,0,34651,0.249248,0.248913,-0.9815,18,0.0169673,10,-0.000244308,-3.00811,-0.302933,-0.194762,7.41374,0.248913,
2,0,0,1,0,34651,0.247748,0.247454,-0.987532,18,0.0169298,10,-0.000244368,-3.00545,-0.304353,-0.193854,7.46907,0.2474536,
2,0,0,1,0,34651.1,0.246252,0.245917,-1.00116,18,0.0168919,10,-0.000246203,-2.99949,-0.261728,-0.225425,8.77323,0.245917,
2,0,0,1,0,34651.1,0.244756,0.244432,-1.01154,18,0.0168537,10,-0.000247252,-2.99502,-0.301704,-0.195556,7.72359,0.244432,
2,0,0,1,0,34651.2,0.243252,0.242926,-1.01753,18,0.0168147,10,-0.000247185,-2.99245,-0.364231,-0.161985,6.46455,0.242926,
2,0,0,1,0,34651.2,0.241756,0.241389,-1.02505,18,0.0167757,10,-0.000247435,-2.98926,-0.360943,-0.163461,6.59294,0.241389,
2,0,0,1,0,34651.2,0.240261,0.239953,-1.03735,18,0.0167364,10,-0.000248915,-2.98408,-0.303648,-0.194304,7.90259,0.2399535,
2,0,0,1,0,34651.3,0.238761,0.238476,-1.05132,18,0.0166965,10,-0.000250714,-2.97827,-0.348533,-0.169281,6.92584,0.238476,
2,0,0,1,0,34651.3,0.237261,0.236939,-1.06406,18,0.0166562,10,-0.000252117,-2.97304,-0.480194,-0.122867,5.06113,0.236939,
2,0,0,1,0,34651.3,0.235765,0.235437,-1.06913,18,0.0166157,10,-0.000251712,-2.97097,-0.417839,-0.141203,5.87457,0.235437,
2,0,0,1,0,34651.4,0.234268,0.233931,-1.0791,18,0.0165749,10,-0.000252435,-2.96694,-0.381693,-0.154575,6.50922,0.2339308,
2,0,0,1,0,34651.4,0.232768,0.232425,-1.08697,18,0.0165335,10,-0.000252639,-2.96378,-0.308942,-0.190974,8.12471,0.232425,
2,0,0,1,0,34651.5,0.231268,0.230948,-1.09649,18,0.0164918,10,-0.000253232,-2.96,-0.440354,-0.133983,5.75237,0.230948,
2,0,0,1,0,34651.5,0.229772,0.229417,-1.10854,18,0.0164498,10,-0.000254319,-2.95525,-0.466136,-0.126572,5.48102,0.229417,
2,0,0,1,0,34651.5,0.228275,0.227957,-1.11592,18,0.0164076,10,-0.000254382,-2.95237,-0.408707,-0.144358,6.30734,0.227957,
2,0,0,1,0,34651.6,0.226772,0.226454,-1.12844,18,0.0163648,10,-0.00025554,-2.94752,-0.400552,-0.147297,6.45696,0.226454,
2,0,0,1,0,34651.6,0.225276,0.224996,-1.14072,18,0.0163218,10,-0.000256658,-2.94282,-0.34634,-0.170353,7.52978,0.224996,
2,0,0,1,0,34651.6,0.223781,0.223476,-1.14641,18,0.0162785,10,-0.000256195,-2.94066,-0.461919,-0.127728,5.69912,0.223476,
2,0,0,1,0,34651.7,0.222281,0.222014,-1.15053,18,0.0162348,10,-0.000255433,-2.9391,-0.421392,-0.140012,6.309,0.2220138,
2,0,0,1,0,34651.7,0.220781,0.220464,-1.1626,18,0.0161907,10,-0.000256312,-2.93457,-0.42474,-0.138908,6.3074,0.220464,
2,0,0,1,0,34651.8,0.219284,0.21899,-1.17123,18,0.0161464,10,-0.000256488,-2.93136,-0.535848,-0.110106,5.03742,0.21899,
2,0,0,1,0,34651.8,0.217788,0.217476,-1.18057,18,0.0161016,10,-0.000256746,-2.92791,-0.454285,-0.129874,5.98483,0.217476,
2,0,0,1,0,34651.8,0.216288,0.21595,-1.18379,18,0.0160565,10,-0.000255639,-2.92673,-0.61256,-0.096317,4.47659,0.21595,
2,0,0,1,0,34651.9,0.214788,0.214448,-1.20205,18,0.0160112,10,-0.000257777,-2.92008,-0.510496,-0.115574,5.41084,0.214448,
2,0,0,1,0,34651.9,0.213292,0.212984,-1.21091,18,0.0159655,10,-0.000257904,-2.91689,-0.41722,-0.141412,6.64592,0.212984,
2,0,0,1,0,34651.9,0.211796,0.211465,-1.21864,18,0.0159195,10,-0.0002577,-2.91412,-0.516092,-0.114321,5.40758,0.211465,
2,0,0,1,0,34652,0.210293,0.210004,-1.227,18,0.0158729,10,-0.000257675,-2.91115,-0.527705,-0.111805,5.35133,0.210004,
2,0,0,1,0,34652,0.208797,0.208454,-1.23475,18,0.0158263,10,-0.000257389,-2.90842,-0.367905,-0.160367,7.76281,0.2084543,
2,0,0,1,0,34652.1,0.207301,0.207006,-1.24006,18,0.0157793,10,-0.000256701,-2.90656,-0.395277,-0.149262,7.27492,0.207006,
2,0,0,1,0,34652.1,0.205801,0.205509,-1.25541,18,0.0157316,10,-0.000257999,-2.90121,-0.541806,-0.108895,5.33513,0.205509,
2,0,0,1,0,34652.1,0.204301,0.203955,-1.26234,18,0.0156837,10,-0.00025746,-2.89882,-0.653494,-0.0902839,4.45691,0.203955,
2,0,0,1,0,34652.2,0.202804,0.202508,-1.27127,18,0.0156357,10,-0.000257443,-2.89576,-0.527541,-0.11184,5.54723,0.202508,
2,0,0,1,0,34652.2,0.201308,0.200991,-1.28139,18,0.0155873,10,-0.000257548,-2.89232,-0.409155,-0.1442,7.194,0.200991,
2,0,0,1,0,34652.2,0.199808,0.199511,-1.29348,18,0.0155384,10,-0.000258064,-2.88824,-0.502722,-0.117361,5.90048,0.199511,
2,0,0,1,0,34652.3,0.198308,0.197968,-1.29944,18,0.0154892,10,-0.000257247,-2.88624,-0.559135,-0.10552,5.34099,0.197968,
2,0,0,1,0,34652.3,0.196812,0.196511,-1.30715,18,0.0154398,10,-0.00025687,-2.88367,-0.532072,-0.110887,5.68707,0.196511,
2,0,0,1,0,34652.4,0.195316,0.195024,-1.314,18,0.01539,10,-0.000256262,-2.8814,-0.349646,-0.168742,8.7132,0.195024,
2,0,0,1,0,34652.4,0.193813,0.193497,-1.3317,18,0.0153395,10,-0.000257681,-2.87559,-0.436806,-0.135071,7.03019,0.193497,
2,0,0,1,0,34652.4,0.192317,0.191989,-1.34057,18,0.0152888,10,-0.000257374,-2.87271,-0.461765,-0.127771,6.67662,0.191989,
2,0,0,1,0,34652.5,0.190821,0.190491,-1.34992,18,0.0152378,10,-0.000257147,-2.86969,-0.544014,-0.108453,5.70774,0.190491,
2,0,0,1,0,34652.5,0.189321,0.188987,-1.36273,18,0.0151864,10,-0.000257538,-2.86559,-0.463512,-0.127289,6.76544,0.188987,
2,0,0,1,0,34652.5,0.187821,0.187483,-1.37128,18,0.0151345,10,-0.000257092,-2.86288,-0.405257,-0.145587,7.78525,0.187483,
2,0,0,1,0,34652.6,0.186324,0.186009,-1.3832,18,0.0150823,10,-0.000257288,-2.85911,-0.506045,-0.116591,6.28211,0.186009,
2,0,0,1,0,34652.6,0.184828,0.184483,-1.39205,18,0.0150297,10,-0.000256811,-2.85634,-0.517162,-0.114084,6.2091,0.184483,
2,0,0,1,0,34652.7,0.183328,0.183007,-1.40484,18,0.0149766,10,-0.000257095,-2.85237,-0.420997,-0.140143,7.72264,0.183007,
2,0,0,1,0,34652.7,0.181828,0.181519,-1.41652,18,0.0149231,10,-0.000257125,-2.84878,-0.37457,-0.157514,8.72291,0.181519,
2,0,0,1,0,34652.7,0.180332,0.179988,-1.43306,18,0.0148691,10,-0.000257934,-2.84373,-0.360884,-0.163488,9.12148,0.179988,
2,0,0,1,0,34652.8,0.178836,0.178488,-1.44646,18,0.0148147,10,-0.000258175,-2.83969,-0.365853,-0.161267,9.07639,0.178488,
2,0,0,1,0,34652.8,0.177333,0.177005,-1.45738,18,0.0147595,10,-0.000257963,-2.83643,-0.3754,-0.157166,8.93277,0.177005,
2,0,0,1,0,34652.8,0.175837,0.175514,-1.46952,18,0.0147041,10,-0.000257922,-2.83282,-0.324089,-0.182049,10.4317,0.175514,
2,0,0,1,0,34652.9,0.174341,0.173976,-1.48527,18,0.0146482,10,-0.000258402,-2.82819,-0.319887,-0.18444,10.7019,0.173976,
2,0,0,1,0,34652.9,0.172841,0.172534,-1.5001,18,0.0145915,10,-0.00025882,-2.82388,-0.332303,-0.177549,10.404,0.172534,
2,0,0,1,0,34653,0.171341,0.170992,-1.51052,18,0.0145342,10,-0.000258287,-2.82087,-0.332206,-0.177601,10.5421,0.170992,
2,0,0,1,0,34653,0.169844,0.169545,-1.53284,18,0.0144765,10,-0.000259886,-2.8145,-0.279031,-0.211446,12.6938,0.169545,
2,0,0,1,0,34653,0.168348,0.168041,-1.55578,18,0.0144181,10,-0.000261435,-2.80805,-0.276399,-0.213459,12.9385,0.168041,
2,0,0,1,0,34653.1,0.166848,0.166529,-1.57516,18,0.0143587,10,-0.00026231,-2.80268,-0.290581,-0.203041,12.4591,0.1665293,
2,0,0,1,0,34653.1,0.165348,0.164996,-1.59599,18,0.0142987,10,-0.000263331,-2.79697,-0.267373,-0.220665,13.7274,0.164996,
2,0,0,1,0,34653.1,0.163852,0.163514,-1.616,18,0.014238,10,-0.000264239,-2.79156,-0.242896,-0.242903,15.3277,0.163514,
2,0,0,1,0,34653.2,0.162357,0.162056,-1.63834,18,0.0141765,10,-0.000265503,-2.7856,-0.220771,-0.267246,17.1165,0.162056,
2,0,0,1,0,34653.2,0.160853,0.160511,-1.66283,18,0.0141137,10,-0.000266902,-2.77915,-0.223589,-0.263877,17.1486,0.160511,
2,0,0,1,0,34653.2,0.159357,0.159032,-1.68983,18,0.0140502,10,-0.000268736,-2.77216,-0.207854,-0.283852,18.7856,0.159032,
2,0,0,1,0,34653.3,0.157861,0.157509,-1.72064,18,0.0139857,10,-0.000271016,-2.76431,-0.192084,-0.307158,20.7183,0.157509,
2,0,0,1,0,34653.3,0.156361,0.156045,-1.75486,18,0.0139199,10,-0.000273836,-2.75576,-0.168361,-0.350438,24.0104,0.156045,
2,0,0,1,0,34653.4,0.154861,0.154551,-1.79633,18,0.0138526,10,-0.000277624,-2.74561,-0.155851,-0.378567,26.4792,0.1545507,
2,0,0,1,0,34653.4,0.153364,0.153033,-1.83849,18,0.0137841,10,-0.00028135,-2.73554,-0.15775,-0.374009,26.7435,0.153033,
2,0,0,1,0,34653.4,0.151868,0.151539,-1.87582,18,0.0137141,10,-0.00028426,-2.72681,-0.143824,-0.410224,30.0763,0.151539,
2,0,0,1,0,34653.5,0.150368,0.149992,-1.92356,18,0.0136422,10,-0.000288519,-2.71589,-0.125104,-0.471609,35.4517,0.149992,
2,0,0,1,0,34653.5,0.148868,0.148539,-1.97807,18,0.0135684,10,-0.00029382,-2.70376,-0.115459,-0.511002,39.5833,0.1485389,
2,0,0,1,0,34653.5,0.147372,0.147019,-2.03674,18,0.0134926,10,-0.00029944,-2.69106,-0.110652,-0.533201,42.5329,0.147019,
2,0,0,1,0,34653.6,0.145877,0.145544,-2.09998,18,0.0134145,10,-0.000305639,-2.67778,-0.104855,-0.562684,46.4159,0.145544,
2,0,0,1,0,34653.6,0.144373,0.14407,-2.17877,18,0.0133333,10,-0.000313895,-2.66179,-0.095865,-0.615449,52.4754,0.14407,
2,0,0,1,0,34653.7,0.142877,0.142574,-2.26154,18,0.0132497,10,-0.000322436,-2.6456,-0.0917416,-0.643111,56.8138,0.142574,
2,0,0,1,0,34653.7,0.14138,0.141069,-2.35091,18,0.0131627,10,-0.00033164,-2.62876,-0.091024,-0.64818,59.3795,0.141069,
2,0,0,1,0,34653.7,0.13988,0.139557,-2.44274,18,0.0130722,10,-0.000340903,-2.61212,-0.0877705,-0.672208,64.1034,0.139557,
2,0,0,1,0,34653.8,0.13838,0.13809,-2.53956,18,0.0129781,10,-0.000350689,-2.59524,-0.0856594,-0.688774,68.4641,0.13809,
2,0,0,1,0,34653.8,0.136884,0.136576,-2.64411,18,0.0128804,10,-0.000361122,-2.57772,-0.0858384,-0.687338,71.0445,0.136576,
2,0,0,1,0,34653.8,0.135388,0.135049,-2.75273,18,0.0127787,10,-0.000371754,-2.56024,-0.0882459,-0.668586,71.9455,0.135049,
2,0,0,1,0,34653.9,0.133888,0.13359,-2.86177,18,0.0126726,10,-0.000382306,-2.54336,-0.0897744,-0.657203,73.4705,0.13359,
2,0,0,1,0,34653.9,0.132389,0.132106,-2.97695,18,0.0125624,10,-0.000393274,-2.52623,-0.0911852,-0.647035,75.1112,0.132106,
2,0,0,1,0,34654,0.130893,0.130555,-3.09392,18,0.0124483,10,-0.000403926,-2.50949,-0.0944457,-0.624697,75.0826,0.130555,
2,0,0,1,0,34654,0.129393,0.129086,-3.19835,18,0.0123296,10,-0.000412861,-2.49507,-0.100001,-0.589995,73.56,0.129086,
2,0,0,1,0,34654,0.127893,0.127563,-3.31039,18,0.0122069,10,-0.000422284,-2.48012,-0.110729,-0.53283,68.6104,0.127563,
2,0,0,1,0,34654.1,0.126397,0.126041,-3.40643,18,0.0120807,10,-0.000429349,-2.4677,-0.118349,-0.498526,66.2858,0.126041,
2,0,0,1,0,34654.1,0.1249,0.124571,-3.50497,18,0.0119506,10,-0.000436617,-2.45532,-0.123082,-0.479354,65.5544,0.124571,
2,0,0,1,0,34654.1,0.1234,0.123058,-3.60043,18,0.0118166,10,-0.000443062,-2.44365,-0.134966,-0.437147,61.3948,0.123058,
2,0,0,1,0,34654.2,0.1219,0.121609,-3.69307,18,0.011679,10,-0.000449108,-2.43261,-0.155036,-0.380556,54.73,0.121609,
2,0,0,1,0,34654.2,0.120404,0.120094,-3.7719,18,0.0115387,10,-0.000452984,-2.42344,-0.163713,-0.360387,52.9906,0.120094,
2,0,0,1,0,34654.3,0.118908,0.118588,-3.85042,18,0.0113955,10,-0.000456616,-2.41449,-0.177139,-0.333072,49.99,0.118588,
2,0,0,1,0,34654.3,0.117404,0.11708,-3.92855,18,0.0112486,10,-0.000459955,-2.40577,-0.194877,-0.302756,46.2645,0.11708,
2,0,0,1,0,34654.3,0.115908,0.115554,-3.99309,18,0.0110999,10,-0.000461417,-2.39869,-0.22855,-0.258149,40.0902,0.115554,
2,0,0,1,0,34654.4,0.114413,0.114077,-4.04242,18,0.0109489,10,-0.000461148,-2.39336,-0.265483,-0.222237,35.0354,0.114077,
2,0,0,1,0,34654.4,0.112913,0.112568,-4.09056,18,0.0107957,10,-0.000460465,-2.38822,-0.315235,-0.187162,29.8844,0.112568,
2,0,0,1,0,34654.4,0.111413,0.111105,-4.13252,18,0.0106407,10,-0.000459143,-2.38378,-0.346796,-0.170129,27.4262,0.111105,
2,0,0,1,0,34654.5,0.109917,0.109589,-4.17524,18,0.0104846,10,-0.000457561,-2.37932,-0.450365,-0.131005,21.303,0.109589,
2,0,0,1,0,34654.5,0.10842,0.108083,-4.20185,18,0.0103273,10,-0.00045415,-2.37656,-0.620248,-0.0951232,15.5631,0.108083,
2,0,0,1,0,34654.6,0.10692,0.106624,-4.22052,18,0.0101688,10,-0.000450008,-2.37463,-0.949083,-0.0621653,10.2172,0.106624,
2,0,0,1,0,34654.6,0.10542,0.105081,-4.23358,18,0.0100096,10,-0.000444871,-2.37329,-1.33464,-0.0442066,7.28598,0.105081,
2,0,0,1,0,34654.6,0.103924,0.10359,-4.24261,18,0.0098505,10,-0.000439493,-2.37237,-7.34825,-0.00802912,1.32584,0.10359,
2,0,0,1,0,34654.7,0.102427,0.102075,-4.23637,18,0.00969124,10,-0.000432426,-2.37301,1.9151,0.0308078,-5.08612,0.102075,
2,0,0,1,0,34654.7,0.100924,0.100605,-4.22078,18,0.00953143,10,-0.000424631,-2.37461,1.2546,0.047027,-7.75847,0.100605,
2,0,0,1,0,34654.7,0.0994284,0.0991184,-4.20868,18,0.00937299,10,-0.000417158,-2.37585,0.950678,0.062061,-10.1995,0.0991184,
2,0,0,1,0,34654.8,0.0979329,0.0976224,-4.19092,18,0.00921511,10,-0.000409128,-2.37769,0.703789,0.083832,-13.7127,0.0976224,
2,0,0,1,0,34654.8,0.0964329,0.0961165,-4.16914,18,0.00905756,10,-0.000400724,-2.37995,0.545528,0.108152,-17.5724,0.0961165,
2,0,0,1,0,34654.9,0.094933,0.0946222,-4.14453,18,0.00890098,10,-0.000392164,-2.38253,0.446788,0.132054,-21.3216,0.0946222,
2,0,0,1,0,34654.9,0.0934366,0.0931195,-4.11428,18,0.00874602,10,-0.00038312,-2.38571,0.480969,0.122669,-19.6805,0.0931195,
2,0,0,1,0,34654.9,0.0919401,0.0916135,-4.08186,18,0.00859216,10,-0.000373954,-2.38914,0.470999,0.125266,-19.9456,0.0916135,
2,0,0,1,0,34655,0.0904402,0.0901164,-4.05099,18,0.00843892,10,-0.00036506,-2.39244,0.429048,0.137514,-21.7272,0.0901164,
2,0,0,1,0,34655,0.0889402,0.0886188,-4.01722,18,0.0082869,10,-0.000356002,-2.39607,0.410759,0.143636,-22.5382,0.0886188,
2,0,0,1,0,34655,0.0874438,0.087129,-3.98749,18,0.00813661,10,-0.000347426,-2.3993,0.428166,0.137797,-21.4642,0.087129,
2,0,0,1,0,34655.1,0.0859483,0.0856109,-3.95411,18,0.00798746,10,-0.000338515,-2.40295,0.469392,0.125695,-19.4075,0.0856109,
2,0,0,1,0,34655.1,0.0844447,0.0840984,-3.92981,18,0.00783858,10,-0.00033049,-2.40563,0.510258,0.115628,-17.7273,0.0840984,
2,0,0,1,0,34655.2,0.0829492,0.0826466,-3.90359,18,0.00769152,10,-0.000322618,-2.40854,0.519496,0.113572,-17.2813,0.0826466,
2,0,0,1,0,34655.2,0.0814528,0.0811363,-3.87939,18,0.00754546,10,-0.000314759,-2.41124,0.56762,0.103943,-15.7201,0.0811363,
2,0,0,1,0,34655.2,0.0799528,0.0796412,-3.85095,18,0.0073999,10,-0.000306694,-2.41443,0.654915,0.0900881,-13.5514,0.0796412,
2,0,0,1,0,34655.3,0.0784529,0.0781142,-3.82678,18,0.00725515,10,-0.000298926,-2.41717,0.672826,0.0876899,-13.1226,0.0781142,
2,0,0,1,0,34655.3,0.0769565,0.0766213,-3.80807,18,0.0071115,10,-0.000291779,-2.41929,0.584275,0.10098,-15.0247,0.0766213,
2,0,0,1,0,34655.3,0.0754601,0.0751401,-3.78595,18,0.00696866,10,-0.000284477,-2.42183,0.677919,0.087031,-12.895,0.0751401,
2,0,0,1,0,34655.4,0.0739601,0.0736382,-3.77038,18,0.00682621,10,-0.000277644,-2.42361,0.702375,0.0840007,-12.3761,0.0736382,
2,0,0,1,0,34655.4,0.0724601,0.072133,-3.7552,18,0.00668437,10,-0.000270874,-2.42537,0.70946,0.0831618,-12.1865,0.072133,
2,0,0,1,0,34655.5,0.0709637,0.0705902,-3.74254,18,0.00654358,10,-0.000264187,-2.42683,0.648622,0.0909621,-13.2511,0.0705902,
2,0,0,1,0,34655.5,0.0694682,0.0691491,-3.72067,18,0.00640346,10,-0.000257281,-2.42938,0.6677,0.088363,-12.8104,0.0691491,
2,0,0,1,0,34655.5,0.0679646,0.0676323,-3.6988,18,0.00626341,10,-0.000250159,-2.43194,0.738006,0.0799451,-11.5557,0.06763234,
2,0,0,1,0,34655.6,0.0664691,0.0661505,-3.67724,18,0.00612474,10,-0.000243252,-2.43448,0.772903,0.0763356,-10.9735,0.0661505,
2,0,0,1,0,34655.6,0.0649727,0.0646482,-3.6627,18,0.00598658,10,-0.000236787,-2.4362,0.687939,0.0857635,-12.2638,0.0646482,
2,0,0,1,0,34655.6,0.0634727,0.063141,-3.64378,18,0.00584877,10,-0.000230072,-2.43845,0.650418,0.0907109,-12.9218,0.063141,
2,0,0,1,0,34655.7,0.0619728,0.0616974,-3.6238,18,0.00571179,10,-0.000223579,-2.44084,0.665491,0.0886563,-12.5538,0.0616974,
2,0,0,1,0,34655.7,0.0604764,0.0601557,-3.61292,18,0.00557589,10,-0.000217338,-2.44214,0.695941,0.0847773,-11.9305,0.0601557,
2,0,0,1,0,34655.8,0.05898,0.058647,-3.59444,18,0.00544062,10,-0.000210803,-2.44437,0.624602,0.0944601,-13.2223,0.058647,
2,0,0,1,0,34655.8,0.05748,0.0571667,-3.57494,18,0.00530569,10,-0.000204367,-2.44673,0.578541,0.101981,-14.2001,0.0571667,
2,0,0,1,0,34655.8,0.05598,0.0556493,-3.54839,18,0.00517156,10,-0.000197465,-2.44997,0.588943,0.100179,-13.884,0.0556493,
2,0,0,1,0,34655.9,0.0544836,0.0541366,-3.52832,18,0.00503856,10,-0.000191011,-2.45243,0.661232,0.0892274,-12.2961,0.0541366,
2,0,0,1,0,34655.9,0.0529881,0.0526391,-3.50983,18,0.00490621,10,-0.000184754,-2.45471,0.614654,0.095989,-13.1653,0.0526391,
2,0,0,1,0,34655.9,0.0514846,0.051155,-3.48838,18,0.0047739,10,-0.000178448,-2.45738,0.548489,0.107568,-14.6577,0.051155,
2,0,0,1,0,34656,0.049989,0.0496683,-3.46078,18,0.00464312,10,-0.000171891,-2.46083,0.549653,0.10734,-14.5313,0.0496683,
2,0,0,1,0,34656,0.0484926,0.0481665,-3.45077,18,0.00451322,10,-0.000166212,-2.46208,0.537153,0.109838,-14.7672,0.0481665,
2,0,0,1,0,34656.1,0.0469927,0.0466425,-3.42681,18,0.00438367,10,-0.000159835,-2.46511,0.608984,0.0968826,-12.936,0.0466425,
2,0,0,1,0,34656.1,0.0454927,0.0451753,-3.40377,18,0.00425491,10,-0.000153766,-2.46804,0.480505,0.122788,-16.3034,0.0451753,
2,0,0,1,0,34656.1,0.0439963,0.0436778,-3.38083,18,0.00412731,10,-0.000147667,-2.47098,0.491731,0.119984,-15.8346,0.0436778,
2,0,0,1,0,34656.2,0.0424999,0.0421767,-3.35785,18,0.00400067,10,-0.000141623,-2.47394,0.515935,0.114356,-15.0039,0.0421767,
2,0,0,1,0,34656.2,0.0409999,0.0406928,-3.33312,18,0.0038745,10,-0.000135634,-2.47715,0.537837,0.109699,-14.3029,0.0406928,
2,0,0,1,0,34656.2,0.0394999,0.0391452,-3.31428,18,0.00374908,10,-0.000129738,-2.47961,0.48762,0.120996,-15.6403,0.0391452,
2,0,0,1,0,34656.3,0.0380044,0.0376537,-3.2909,18,0.00362485,10,-0.000123915,-2.48268,0.436771,0.135082,-17.3374,0.0376537,
2,0,0,1,0,34656.3,0.0365089,0.0362208,-3.26204,18,0.00350166,10,-0.000118154,-2.48651,0.439269,0.134314,-17.1043,0.0362208,
2,0,0,1,0,34656.4,0.0350054,0.034689,-3.23974,18,0.00337872,10,-0.000112383,-2.48949,0.476791,0.123744,-15.62,0.034689,
2,0,0,1,0,34656.4,0.033509,0.0331762,-3.21649,18,0.00325738,10,-0.000106711,-2.49262,0.418084,0.14112,-17.6867,0.0331762,
2,0,0,1,0,34656.4,0.0320125,0.0316933,-3.18919,18,0.00313699,10,-0.000101076,-2.49632,0.411121,0.14351,-17.8582,0.03169331,
2,0,0,1,0,34656.5,0.0305126,0.0301444,-3.15706,18,0.00301731,10,-9.51677e-05,-2.50072,0.416411,0.141687,-17.502,0.0301444,
2,0,0,1,0,34656.5,0.0290126,0.0286232,-3.12986,18,0.00289864,10,-8.95864e-05,-2.50448,0.449133,0.131364,-16.0858,0.0286232,
2,0,0,1,0,34656.5,0.0275162,0.0271517,-3.1083,18,0.00278121,10,-8.43958e-05,-2.50748,0.427199,0.138109,-16.7693,0.0271517,
2,0,0,1,0,34656.6,0.0260198,0.0257079,-3.08703,18,0.00266466,10,-7.93609e-05,-2.51046,0.40184,0.146825,-17.6624,0.0257079,
2,0,0,1,0,34656.6,0.0245198,0.0242044,-3.05892,18,0.00254878,10,-7.40394e-05,-2.51443,0.404103,0.146002,-17.4351,0.0242044,
2,0,0,1,0,34656.7,0.0230198,0.022697,-3.04036,18,0.00243393,10,-6.90073e-05,-2.51707,0.431513,0.136728,-16.1811,0.022697,
2,0,0,1,0,34656.7,0.0215243,0.0211852,-3.01282,18,0.00232022,10,-6.38273e-05,-2.52103,0.464048,0.127142,-14.9194,0.0211852,
2,0,0,1,0,34656.7,0.0200288,0.0196678,-2.98577,18,0.00220735,10,-5.87235e-05,-2.52494,0.463576,0.127271,-14.8254,0.0196678,
2,0,0,1,0,34656.8,0.0185253,0.0181865,-2.96419,18,0.00209478,10,-5.39082e-05,-2.52809,0.480752,0.122724,-14.2222,0.0181865,
2,0,0,1,0,34656.8,0.0170289,0.0166864,-2.94063,18,0.00198369,10,-4.90685e-05,-2.53156,0.509319,0.115841,-13.3221,0.0166864,
2,0,0,1,0,34656.8,0.0155325,0.0151974,-2.92282,18,0.00187332,10,-4.44194e-05,-2.5342,0.499648,0.118083,-13.4821,0.0151974,
2,0,0,1,0,34656.9,0.0140325,0.0137034,-2.90383,18,0.00176329,10,-3.97923e-05,-2.53703,0.543654,0.108525,-12.302,0.0137034,
2,0,0,1,0,34656.9,0.0125325,0.0122173,-2.88772,18,0.00165398,10,-3.528e-05,-2.53945,0.504733,0.116893,-13.1649,0.01221726,
2,0,0,1,0,34657,0.0110361,0.0107525,-2.87066,18,0.00154572,10,-3.08667e-05,-2.54202,0.641722,0.0919401,-10.2873,0.0107525,
2,0,0,1,0,34657,0.0095397,0.009188,-2.85559,18,0.00143807,10,-2.62371e-05,-2.5443,0.745645,0.0791261,-8.80005,0.009188001,
2,0,0,1,0,34657,0.00803616,0.00768436,-2.84022,18,0.00133036,10,-2.18253e-05,-2.54665,0.781565,0.0754896,-8.38014,0.00768436,
2,0,0,1,0,34657.1,0.00654064,0.00618481,-2.82402,18,0.00122371,10,-1.7466e-05,-2.54913,0.743874,0.0793145,-8.76319,0.00618481,
2,0,0,1,0,34657.1,0.00504513,0.00471407,-2.80861,18,0.00111758,10,-1.324e-05,-2.55151,0.905672,0.065145,-7.16475,0.00471407,
2,0,0,1,0,34657.1,0.00354515,0.00321018,-2.80317,18,0.0010116,10,-8.99868e-06,-2.55235,37.7576,0.0015626,-0.171836,0.00321018,
2,0,0,1,0,34657.2,0.00204518,0.00166913,-2.83145,18,0.000905699,10,-4.72607e-06,-2.54799,1.84045,0.0320574,-3.50547,0.00166913,
2,0,0,1,0,34657.2,0.000548773,0.000148281,-2.8055,18,0.000799837,10,-4.16001e-07,-2.55199, , , ,0.000148281,
2,0,0,1,0,34657.2,0.000177222,-0.000272261,-2.7949,18,0.000773631,10,7.60941e-07,-2.55363, , , ,-0.0002722608,