File: Figure_codes/Fig_3-5/rawdata_trumpetplot_data/after 10th/20221101_1-115_003_TrumpetPlot_ParaChange_from10_every3_02_CV_C01_33.csv
mode,ox/red,error,control changes,counter inc.,time/s,control/V,Ewe/V,<I>/mA,cycle number,(Q-Qo)/C,I Range,P/W,log(|I|),Tafel slope mV/dec,alpha_eff,dI/d(E-IR),E-IR/V,
2,0,0,1,0,65354.3,2.44065e-05,-0.000306236,-0.396421,34,0.0000000E+000,10,1.21398e-07,-3.40184, , , ,-0.000306236,
2,0,0,1,0,65355.6,0.00129791,0.000902674,-0.179267,34,-0.000272758,10,-1.6182e-07,-3.7465, , , ,0.000902674,
2,0,0,1,0,65357.1,0.00279612,0.00245411,-0.143526,34,-0.000496976,10,-3.52228e-07,-3.84307,-0.0174866,-3.37402,20.4785,0.00245411,
2,0,0,1,0,65358.6,0.00429431,0.00396407,-0.123131,34,-0.000682661,10,-4.881e-07,-3.90963,-0.0249498,-2.36475,11.585,0.003964073,
2,0,0,1,0,65360.1,0.00579242,0.00544751,-0.108505,34,-0.000842008,10,-5.9108e-07,-3.96455,-0.0271599,-2.17232,9.31919,0.00544751,
2,0,0,1,0,65361.6,0.00729061,0.00700416,-0.0958076,34,-0.000981204,10,-6.71052e-07,-4.0186,-0.030075,-1.96176,7.4451,0.00700416,
2,0,0,1,0,65363.1,0.00878882,0.00846441,-0.0859283,34,-0.00110407,10,-7.27333e-07,-4.06586,-0.0322485,-1.82954,6.20902,0.00846441,
2,0,0,1,0,65364.6,0.010287,0.00997758,-0.077593,34,-0.00121331,10,-7.7419e-07,-4.11018,-0.0342247,-1.7239,5.27864,0.00997758,
2,0,0,1,0,65366.1,0.0117852,0.01146,-0.0707096,34,-0.00131097,10,-8.10334e-07,-4.15052,-0.0368229,-1.60226,4.44612,0.01146,
2,0,0,1,0,65367.6,0.0132834,0.0129648,-0.0645579,34,-0.0013992,10,-8.36979e-07,-4.19005,-0.038119,-1.54778,3.87514,0.01296478,
2,0,0,1,0,65369.1,0.0147815,0.0144344,-0.0595405,34,-0.00147886,10,-8.59433e-07,-4.22519,-0.0398425,-1.48083,3.42544,0.0144344,
2,0,0,1,0,65370.6,0.0162797,0.0159689,-0.0542747,34,-0.00155041,10,-8.66705e-07,-4.2654,-0.0403736,-1.46135,3.11023,0.0159689,
2,0,0,1,0,65372.1,0.0177779,0.0174566,-0.0497067,34,-0.00161526,10,-8.67709e-07,-4.30359,-0.0404677,-1.45795,2.83456,0.0174566,
2,0,0,1,0,65373.6,0.0192761,0.018974,-0.0453227,34,-0.00167412,10,-8.59955e-07,-4.34368,-0.0412865,-1.42904,2.54182,0.018974,
2,0,0,1,0,65375.1,0.0207743,0.0204607,-0.0418368,34,-0.00172699,10,-8.56011e-07,-4.37844,-0.0417877,-1.4119,2.33354,0.0204607,
2,0,0,1,0,65376.6,0.0222725,0.0219369,-0.0384421,34,-0.00177438,10,-8.43298e-07,-4.41519,-0.0385411,-1.53084,2.31359,0.02193686,
2,0,0,1,0,65378.1,0.0237707,0.0234341,-0.0350363,34,-0.00181692,10,-8.21045e-07,-4.45548,-0.0374466,-1.57558,2.16294,0.0234341,
2,0,0,1,0,65379.6,0.0252689,0.0249399,-0.0319721,34,-0.00185499,10,-7.97382e-07,-4.49523,-0.0341386,-1.72825,2.15731,0.0249399,
2,0,0,1,0,65381.1,0.0267671,0.0264871,-0.0288758,34,-0.00188778,10,-7.64836e-07,-4.53947,-0.0285387,-2.06737,2.33584,0.0264871,
2,0,0,1,0,65382.6,0.0282653,0.0279313,-0.0259361,34,-0.00191573,10,-7.2443e-07,-4.5861,-0.0307612,-1.918,1.90605,0.0279313,
2,0,0,1,0,65384.1,0.0297635,0.0294636,-0.0230229,34,-0.00193933,10,-6.78337e-07,-4.63784,-0.0303808,-1.94201,1.73598,0.0294636,
2,0,0,1,0,65385.6,0.0312617,0.0309133,-0.0209787,34,-0.0019589,10,-6.4852e-07,-4.67822,-0.0264243,-2.23279,1.79814,0.0309133,
2,0,0,1,0,65387.1,0.0327599,0.0324042,-0.0181972,34,-0.00197494,10,-5.89665e-07,-4.74,-0.0250506,-2.35524,1.625,0.0324042,
2,0,0,1,0,65388.6,0.0342581,0.0339386,-0.0149778,34,-0.0019871,10,-5.08326e-07,-4.82455,-0.0208599,-2.82839,1.70229,0.0339386,
2,0,0,1,0,65390.1,0.0357563,0.035456,-0.0132072,34,-0.00199528,10,-4.68276e-07,-4.87919,-0.0205638,-2.86911,1.45897,0.035456,
2,0,0,1,0,65391.6,0.0372544,0.0369309,-0.0108214,34,-0.00199979,10,-3.99644e-07,-4.96572,-0.0145167,-4.06427,1.6361,0.0369309,
2,0,0,1,0,65393.1,0.0387526,0.0384049,-0.00843715,34,-0.00200119,10,-3.24028e-07,-5.0738,-0.0112459,-5.24637,1.56722,0.0384049,
2,0,0,1,0,65394.6,0.0402508,0.0398758,-0.00613082,34,-0.00199881,10,-2.44471e-07,-5.21248,-0.00816085,-7.22964,1.51353,0.0398758,
2,0,0,1,0,65396.1,0.041749,0.041407,-0.00363734,34,-0.00199264,10,-1.50611e-07,-5.43922,-0.00447425,-13.1866,1.52464,0.041407,
2,0,0,1,0,65397.6,0.0432472,0.0429626,-0.00152294,34,-0.00198341,10,-6.54296e-08,-5.81732,-0.0075247,-7.84084,1.54339,0.0429626,
2,0,0,1,0,65399.1,0.0447454,0.0444334,0.00108503,34,-0.00197115,10,4.82116e-08,-5.96456,0.0301733,1.95537,1.5263,0.0444334,
2,1,0,1,0,65400.6,0.0462435,0.0459296,0.00282297,34,-0.00195495,10,1.29658e-07,-5.54929,0.00364376,16.1921,1.43756,0.0459296,
2,0,0,1,0,65402.1,0.0477417,0.047412,0.00461648,34,-0.00193573,10,2.18877e-07,-5.33569,0.00774299,7.6198,1.31471,0.047412,
2,0,0,1,0,65403.5,0.0492399,0.0488934,0.00659724,34,-0.0019137,10,3.22561e-07,-5.18064,0.0111264,5.30271,1.32574,0.0488934,
2,1,0,1,0,65405,0.0507381,0.0504522,0.00862963,34,-0.00188899,10,4.35384e-07,-5.06401,0.013828,4.26671,1.42074,0.0504522,
2,1,0,1,0,65406.5,0.0522363,0.0519113,0.0103887,34,-0.00186082,10,5.39292e-07,-4.98344,0.0162249,3.63639,1.43725,0.0519113,
2,1,0,1,0,65408,0.0537345,0.0533938,0.0131524,34,-0.00182943,10,7.02257e-07,-4.88099,0.0228971,2.57675,1.2678,0.0533938,
2,1,0,1,0,65409.5,0.0552327,0.0549197,0.0147428,34,-0.00179526,10,8.09669e-07,-4.83142,0.0259735,2.27154,1.23222,0.0549197,
2,1,0,1,0,65411,0.0567309,0.056399,0.0159016,34,-0.00175832,10,8.96831e-07,-4.79856,0.0377424,1.56323,0.971726,0.056399,
2,1,0,1,0,65412.5,0.0582291,0.0578666,0.0179678,34,-0.00171901,10,1.03974e-06,-4.7455,0.0366609,1.60934,1.13495,0.0578666,
2,1,0,1,0,65414,0.0597273,0.0594201,0.0196924,34,-0.00167695,10,1.17013e-06,-4.7057,0.0448384,1.31584,1.00746,0.0594201,
2,1,0,1,0,65415.5,0.0612255,0.0609004,0.0208929,34,-0.00163236,10,1.27239e-06,-4.68,0.0644266,0.915771,0.74472,0.0609004,
2,1,0,1,0,65417,0.0627237,0.0624328,0.022419,34,-0.00158605,10,1.39968e-06,-4.64938,0.0634478,0.929898,0.832443,0.0624328,
2,1,0,1,0,65418.5,0.0642219,0.0638971,0.0242245,34,-0.00153771,10,1.54787e-06,-4.61575,0.044808,1.31673,1.25307,0.0638971,
2,1,0,1,0,65420,0.0657201,0.0654009,0.0260725,34,-0.0014865,10,1.70517e-06,-4.58382,0.0509268,1.15853,1.17762,0.0654009,
2,1,0,1,0,65421.5,0.0672183,0.0669024,0.027961,34,-0.00143211,10,1.87066e-06,-4.55345,0.0620405,0.950992,1.01003,0.0669024,
2,1,0,1,0,65423,0.0687164,0.0683773,0.0288731,34,-0.00137578,10,1.97427e-06,-4.53951,0.070035,0.842436,0.949124,0.0683773,
2,1,0,1,0,65424.5,0.0702146,0.0699085,0.0306683,34,-0.00131768,10,2.14398e-06,-4.51331,0.0763517,0.77274,0.912531,0.0699085,
2,1,0,1,0,65426,0.0717128,0.0714049,0.0321965,34,-0.00125707,10,2.29899e-06,-4.49219,0.0732041,0.805966,0.994714,0.0714049,
2,1,0,1,0,65427.5,0.073211,0.0728819,0.0332256,34,-0.00119422,10,2.42155e-06,-4.47853,0.0875037,0.674257,0.883883,0.0728819,
2,1,0,1,0,65429,0.0747092,0.0744058,0.0345536,34,-0.00112963,10,2.57099e-06,-4.46151,0.089731,0.657521,0.896016,0.0744058,
2,1,0,1,0,65430.5,0.0762074,0.0758596,0.0359801,34,-0.0010628,10,2.72944e-06,-4.44394,0.075896,0.77738,1.09346,0.0758596,
2,1,0,1,0,65432,0.0777055,0.0773971,0.0371324,34,-0.000993743,10,2.87394e-06,-4.43025,0.0858431,0.687301,1.00167,0.0773971,
2,1,0,1,0,65433.5,0.0792037,0.0788785,0.0394155,34,-0.000922564,10,3.10904e-06,-4.40433,0.0877683,0.672225,1.01877,0.07887847,
2,1,0,1,0,65435,0.0807019,0.0803652,0.0405718,34,-0.000849082,10,3.26056e-06,-4.39178,0.102253,0.576998,0.906104,0.0803652,
2,1,0,1,0,65436.5,0.0822001,0.0818741,0.0413303,34,-0.000773555,10,3.38388e-06,-4.38373,0.0984399,0.599351,0.980714,0.0818741,
2,1,0,1,0,65438,0.0836983,0.0833683,0.0432314,34,-0.000695998,10,3.60413e-06,-4.3642,0.0865379,0.681782,1.15916,0.0833683,
2,1,0,1,0,65439.5,0.0851965,0.0848709,0.0451526,34,-0.000615396,10,3.83214e-06,-4.34532,0.0748711,0.788021,1.3935,0.08487089,
2,1,0,1,0,65441,0.0866947,0.0863427,0.0472443,34,-0.000531836,10,4.0792e-06,-4.32565,0.117216,0.503344,0.918123,0.08634273,
2,1,0,1,0,65442.5,0.0881929,0.0879142,0.0489877,34,-0.000445538,10,4.30672e-06,-4.30991,0.10191,0.578943,1.11042,0.0879142,
2,1,0,1,0,65444,0.0896911,0.0893967,0.050778,34,-0.000357086,10,4.53939e-06,-4.29432,0.0948132,0.622276,1.23289,0.0893967,
2,1,0,1,0,65445.5,0.0911893,0.0908994,0.0526121,34,-0.000265741,10,4.78241e-06,-4.27891,0.110267,0.535065,1.09331,0.0908994,
2,1,0,1,0,65447,0.0926875,0.0923808,0.054243,34,-0.000171624,10,5.01101e-06,-4.26566,0.120425,0.489932,1.03377,0.09238077,
2,1,0,1,0,65448.5,0.0941857,0.0938462,0.0562614,34,-7.50188e-05,10,5.27992e-06,-4.24979,0.112601,0.523973,1.14494,0.0938462,
2,1,0,1,0,65450,0.0956839,0.0953647,0.0577515,34,2.40813e-05,10,5.50746e-06,-4.23844,0.0968036,0.609482,1.38208,0.09536472,
2,1,0,1,0,65451.5,0.0971821,0.0968515,0.0601216,34,0.000126625,10,5.82287e-06,-4.22097,0.0924137,0.638433,1.48464,0.0968515,
2,1,0,1,0,65453,0.0986803,0.0984166,0.0618573,34,0.000232353,10,6.08779e-06,-4.20861,0.10647,0.554145,1.34334,0.0984166,
2,1,0,1,0,65454.5,0.100178,0.0998194,0.0634134,34,0.000340666,10,6.32989e-06,-4.19782,0.111984,0.526861,1.3167,0.0998194,
2,1,0,1,0,65456,0.101677,0.101342,0.0655732,34,0.000451725,10,6.64533e-06,-4.18327,0.114145,0.516887,1.32884,0.101342,
2,1,0,1,0,65457.5,0.103175,0.102887,0.0682841,34,0.00056627,10,7.02556e-06,-4.16568,0.115473,0.510942,1.35113,0.102887,
2,1,0,1,0,65459,0.104673,0.104395,0.0708132,34,0.000684164,10,7.39256e-06,-4.14989,0.128121,0.460501,1.25284,0.104395,
2,1,0,1,0,65460.5,0.106171,0.105848,0.0721536,34,0.000805031,10,7.6373e-06,-4.14174,0.135569,0.435202,1.21112,0.105848,
2,1,0,1,0,65462,0.107669,0.107335,0.0729027,34,0.000928102,10,7.82498e-06,-4.13726,0.139266,0.42365,1.21595,0.107335,
2,1,0,1,0,65463.5,0.109167,0.108855,0.0752225,34,0.00105374,10,8.18835e-06,-4.12365,0.155982,0.37825,1.1114,0.108855,
2,1,0,1,0,65465,0.110666,0.110322,0.0765404,34,0.00118221,10,8.44406e-06,-4.11611,0.175354,0.336463,1.01345,0.110322,
2,1,0,1,0,65466.5,0.112164,0.11182,0.0784978,34,0.00131318,10,8.77762e-06,-4.10514,0.242081,0.24372,0.743744,0.11182,
2,1,0,1,0,65468,0.113662,0.113318,0.079975,34,0.00144668,10,9.06264e-06,-4.09705,0.163191,0.361539,1.12898,0.113318,
2,1,0,1,0,65469.5,0.11516,0.114825,0.0817248,34,0.0015819,10,9.38407e-06,-4.08765,0.162104,0.363963,1.16334,0.114825,
2,1,0,1,0,65471,0.116658,0.116353,0.0840652,34,0.00172005,10,9.78127e-06,-4.07538,0.1913,0.308416,1.00627,0.116353,
2,1,0,1,0,65472.5,0.118157,0.11783,0.0859679,34,0.00186156,10,1.01296e-05,-4.06566,0.202892,0.290795,0.963685,0.11783,
2,1,0,1,0,65474,0.119655,0.119324,0.0865527,34,0.00200496,10,1.03278e-05,-4.06272,0.32079,0.183921,0.621896,0.119324,
2,1,0,1,0,65475.5,0.121153,0.120827,0.0876637,34,0.00214962,10,1.05922e-05,-4.05718,0.274748,0.214742,0.736928,0.120827,
2,1,0,1,0,65477,0.122651,0.122299,0.0889259,34,0.0022963,10,1.08756e-05,-4.05097,0.191667,0.307826,1.06449,0.122299,
2,1,0,1,0,65478.5,0.124149,0.123821,0.08997,34,0.00244483,10,1.11402e-05,-4.0459,0.267997,0.220152,0.771318,0.123821,
2,1,0,1,0,65480,0.125648,0.125304,0.0908565,34,0.00259511,10,1.13847e-05,-4.04164,0.532447,0.110809,0.392574,0.1253043,
2,1,0,1,0,65481.5,0.127146,0.126815,0.0907353,34,0.00274619,10,1.15066e-05,-4.04222,0.472861,0.124772,0.445627,0.126815,
2,1,0,1,0,65483,0.128644,0.128264,0.092673,34,0.00289812,10,1.18866e-05,-4.03305,1.52663,0.0386473,0.138498,0.128264,
2,1,0,1,0,65484.5,0.130142,0.129814,0.0921968,34,0.00305077,10,1.19685e-05,-4.03528,-1.4029,-0.0420557,-0.150448,0.129814,
2,1,0,1,0,65485.9,0.13164,0.1313,0.091904,34,0.00320294,10,1.2067e-05,-4.03667,-0.308676,-0.191139,-0.677003,0.1313,
2,1,0,1,0,65487.4,0.133139,0.13282,0.090182,34,0.00335368,10,1.1978e-05,-4.04488,-0.204093,-0.289083,-1.01665,0.13282,
2,1,0,1,0,65488.9,0.134637,0.134307,0.0886789,34,0.00350179,10,1.19102e-05,-4.05218,-0.185816,-0.317519,-1.10025,0.1343071,
2,1,0,1,0,65490.4,0.136135,0.135813,0.0870036,34,0.00364766,10,1.18162e-05,-4.06046,-0.126837,-0.465164,-1.56757,0.135813,
2,1,0,1,0,65491.9,0.137633,0.137306,0.0842454,34,0.00379021,10,1.15674e-05,-4.07445,-0.0993558,-0.593826,-1.94139,0.137306,
2,1,0,1,0,65493.4,0.139131,0.138794,0.081411,34,0.00392807,10,1.12993e-05,-4.08932,-0.0872072,-0.67655,-2.13179,0.138794,
2,1,0,1,0,65494.9,0.14063,0.140289,0.0781223,34,0.00406098,10,1.09597e-05,-4.10722,-0.0816265,-0.722805,-2.18918,0.140289,
2,1,0,1,0,65496.4,0.142128,0.141769,0.0746148,34,0.00418892,10,1.05781e-05,-4.12718,-0.0705503,-0.836282,-2.40669,0.1417691,
2,1,0,1,0,65497.9,0.143626,0.143309,0.0708765,34,0.00431165,10,1.01572e-05,-4.1495,-0.0665852,-0.886083,-2.44324,0.143309,
2,1,0,1,0,65499.4,0.145124,0.144839,0.0671744,34,0.00442829,10,9.72947e-06,-4.1728,-0.071574,-0.824322,-2.18727,0.144839,
2,1,0,1,0,65500.9,0.146622,0.146313,0.0643321,34,0.00454004,10,9.41262e-06,-4.19157,-0.0800496,-0.737043,-1.85066,0.146313,
2,1,0,1,0,65502.4,0.14812,0.147803,0.0614385,34,0.00464778,10,9.08078e-06,-4.21156,-0.0947706,-0.622556,-1.50293,0.147803,
2,1,0,1,0,65503.9,0.149619,0.149293,0.0594474,34,0.00475152,10,8.87506e-06,-4.22587,-0.10282,-0.57382,-1.33783,0.149293,
2,1,0,1,0,65505.4,0.151117,0.150785,0.0574417,34,0.00485219,10,8.66133e-06,-4.24077,-0.112648,-0.523754,-1.16947,0.150785,
2,1,0,1,0,65506.9,0.152615,0.152289,0.0555844,34,0.0049502,10,8.46492e-06,-4.25505,-0.134967,-0.437144,-0.956759,0.152289,
2,1,0,1,0,65508.4,0.154113,0.153783,0.0544874,34,0.00504572,10,8.3792e-06,-4.2637,-0.173473,-0.34011,-0.726266,0.153783,
2,1,0,1,0,65509.9,0.155611,0.155309,0.0537868,34,0.00513982,10,8.3536e-06,-4.26932,-0.194949,-0.302644,-0.633994,0.1553095,
2,1,0,1,0,65511.4,0.15711,0.156803,0.0524744,34,0.00523225,10,8.22812e-06,-4.28005,-0.16813,-0.350918,-0.721343,0.156803,
2,1,0,1,0,65512.9,0.158608,0.158279,0.0521946,34,0.00532368,10,8.26129e-06,-4.28237,-0.46611,-0.12658,-0.258405,0.158279,
2,1,0,1,0,65514.4,0.160106,0.159811,0.0514856,34,0.00541379,10,8.22797e-06,-4.28831,-0.913093,-0.0646155,-0.131155,0.159811,
2,1,0,1,0,65515.9,0.161604,0.161303,0.0516082,34,0.0055039,10,8.32455e-06,-4.28728,-9.4031,-0.00627452,-0.0126609,0.161303,
2,1,0,1,0,65517.4,0.163102,0.162776,0.0509203,34,0.00559393,10,8.28859e-06,-4.29311,-1.35097,-0.0436723,-0.0871338,0.162776,
2,1,0,1,0,65518.9,0.164601,0.16429,0.0516853,34,0.00568351,10,8.49139e-06,-4.28663,-0.551323,-0.107015,-0.214503,0.16429,
2,1,0,1,0,65520.4,0.166099,0.165794,0.0511402,34,0.00577249,10,8.47872e-06,-4.29124,-0.969479,-0.0608575,-0.120705,0.165794,
2,1,0,1,0,65521.9,0.167597,0.167266,0.0505589,34,0.00586124,10,8.45676e-06,-4.2962,-1.07835,-0.054713,-0.107898,0.167266,
2,1,0,1,0,65523.4,0.169095,0.168736,0.0504508,34,0.00594977,10,8.51288e-06,-4.29713,-2.69189,-0.0219177,-0.0433088,0.168736,
2,1,0,1,0,65524.9,0.170593,0.170279,0.050374,34,0.00603788,10,8.57764e-06,-4.29779,-7.00035,-0.00842815,-0.0167637,0.170279,
2,1,0,1,0,65526.4,0.172091,0.171792,0.0504567,34,0.0061258,10,8.66808e-06,-4.29708,0.704384,0.0837612,0.165174,0.171792,
2,1,0,1,0,65527.9,0.17359,0.173258,0.0505889,34,0.00621419,10,8.76492e-06,-4.29595,0.691581,0.0853118,0.168585,0.173258,
2,1,0,1,0,65529.4,0.175088,0.174741,0.0508544,34,0.00630263,10,8.88637e-06,-4.29367,1.87604,0.0314492,0.062439,0.174741,
2,1,0,1,0,65530.9,0.176586,0.176259,0.051418,34,0.00639138,10,9.06287e-06,-4.28889,0.7421,0.0795041,0.158135,0.176259,
2,1,0,1,0,65532.4,0.178084,0.177765,0.0510115,34,0.00648049,10,9.06805e-06,-4.29233,0.673254,0.0876341,0.174685,0.177765,
2,1,0,1,0,65533.9,0.179582,0.179246,0.0514254,34,0.00656937,10,9.21779e-06,-4.28882,1.02555,0.0575301,0.115543,0.179246,
2,1,0,1,0,65535.4,0.181081,0.180795,0.0516993,34,0.00665904,10,9.34699e-06,-4.28652,4.73455,0.0124616,0.0249409,0.180795,
2,1,0,1,0,65536.9,0.182579,0.182225,0.0519143,34,0.00674879,10,9.46006e-06,-4.28471,-1.10942,-0.0531809,-0.107032,0.182225,
2,1,0,1,0,65538.4,0.184077,0.183742,0.0518893,34,0.00683841,10,9.53426e-06,-4.28492,43.0371,0.00137091,0.00275843,0.183742,
2,1,0,1,0,65539.9,0.185575,0.185235,0.0514233,34,0.00692779,10,9.52541e-06,-4.28884,-4.25757,-0.0138577,-0.027995,0.1852352,
2,1,0,1,0,65541.4,0.187073,0.186747,0.0516743,34,0.00701734,10,9.65005e-06,-4.28673,0.629755,0.0936872,0.189146,0.186747,
2,1,0,1,0,65542.9,0.188572,0.188245,0.0524457,34,0.00710722,10,9.87263e-06,-4.28029,0.591542,0.0997393,0.201723,0.1882447,
2,1,0,1,0,65544.4,0.19007,0.189751,0.0523012,34,0.00719763,10,9.92418e-06,-4.28149,0.390737,0.150997,0.308256,0.189751,
2,1,0,1,0,65545.9,0.191568,0.191218,0.0523195,34,0.0072879,10,1.00044e-05,-4.28134,1.66884,0.035354,0.0725509,0.191218,
2,1,0,1,0,65547.4,0.193066,0.192692,0.0528655,34,0.00737903,10,1.01868e-05,-4.27683,0.540793,0.109099,0.223953,0.192692,
2,1,0,1,0,65548.9,0.194564,0.194214,0.0530604,34,0.00747038,10,1.03051e-05,-4.27523,6.69513,0.00881238,0.0182066,0.194214,
2,1,0,1,0,65550.4,0.196063,0.195732,0.0532384,34,0.00756183,10,1.04205e-05,-4.27377,2.05864,0.0286597,0.0593665,0.195732,
2,1,0,1,0,65551.9,0.197561,0.197234,0.0531008,34,0.00765324,10,1.04733e-05,-4.2749,2.74674,0.02148,0.0445207,0.197234,
2,1,0,1,0,65553.4,0.199059,0.198714,0.0530315,34,0.00774465,10,1.05381e-05,-4.27547,2.00134,0.0294802,0.0612483,0.198714,
2,1,0,1,0,65554.9,0.200557,0.200222,0.0537525,34,0.00783658,10,1.07624e-05,-4.2696,0.45188,0.130566,0.272053,0.200222,
2,1,0,1,0,65556.4,0.202055,0.20175,0.0537691,34,0.00792859,10,1.08479e-05,-4.26947,8.97328,0.00657508,0.0138023,0.20175,
2,1,0,1,0,65557.9,0.203554,0.203231,0.053749,34,0.00802095,10,1.09235e-05,-4.26963,0.668609,0.0882429,0.184918,0.203231,
2,1,0,1,0,65559.4,0.205052,0.204713,0.0539661,34,0.00811363,10,1.10475e-05,-4.26788,0.750664,0.0785971,0.166675,0.204713,
2,1,0,1,0,65560.9,0.20655,0.206193,0.053922,34,0.00820662,10,1.11183e-05,-4.26823,2.5493,0.0231436,0.0490255,0.206193,
2,1,0,1,0,65562.4,0.208048,0.20775,0.0544492,34,0.00830033,10,1.13118e-05,-4.26401,0.980559,0.0601697,0.12756,0.20775,
2,1,0,1,0,65563.9,0.209546,0.20925,0.0545256,34,0.00839375,10,1.14095e-05,-4.2634,0.759737,0.0776585,0.165992,0.20925,
2,1,0,1,0,65565.4,0.211044,0.210687,0.0548457,34,0.00848722,10,1.15553e-05,-4.26086,1.20582,0.0489294,0.10402,0.210687,
2,1,0,1,0,65566.9,0.212543,0.212201,0.0551203,34,0.00858129,10,1.16966e-05,-4.25869,1.16358,0.0507055,0.108498,0.2122013,
2,1,0,1,0,65568.3,0.214041,0.213679,0.0550813,34,0.00867546,10,1.17698e-05,-4.259,0.627345,0.0940471,0.202432,0.213679,
2,1,0,1,0,65569.8,0.215539,0.215186,0.0553696,34,0.00877007,10,1.19148e-05,-4.25673,1.19319,0.0494471,0.106311,0.215186,
2,1,0,1,0,65571.3,0.217037,0.216722,0.0552339,34,0.00886445,10,1.19704e-05,-4.25779,-19.8344,-0.00297463,-0.00643504,0.216722,
2,1,0,1,0,65572.8,0.218535,0.218252,0.0551442,34,0.00895893,10,1.20353e-05,-4.2585,0.661734,0.0891598,0.192784,0.218252,
2,1,0,1,0,65574.3,0.220034,0.219708,0.0557408,34,0.00905378,10,1.22467e-05,-4.25383,0.598434,0.0985907,0.21457,0.219708,
2,1,0,1,0,65575.8,0.221532,0.221196,0.0557189,34,0.00914884,10,1.23248e-05,-4.254,0.962187,0.0613187,0.133793,0.221196,
2,1,0,1,0,65577.3,0.22303,0.222739,0.0565192,34,0.00924443,10,1.2589e-05,-4.2478,0.479056,0.123159,0.270504,0.222739,
2,1,0,1,0,65578.8,0.224528,0.224187,0.0566277,34,0.00934028,10,1.26952e-05,-4.24697,0.547929,0.107678,0.236894,0.224187,
2,1,0,1,0,65580.3,0.226026,0.225727,0.0570213,34,0.00943691,10,1.28712e-05,-4.24396,1.26706,0.0465645,0.102713,0.225727,
2,1,0,1,0,65581.8,0.227524,0.227245,0.0567299,34,0.00953397,10,1.28916e-05,-4.24619,1.83814,0.0320976,0.0711889,0.227245,
2,1,0,1,0,65583.3,0.229023,0.228665,0.057144,34,0.009631,10,1.30669e-05,-4.24303,2.33275,0.025292,0.0564546,0.2286652,
2,1,0,1,0,65584.8,0.230521,0.230205,0.0570057,34,0.00972796,10,1.3123e-05,-4.24408,-4.08254,-0.0144518,-0.0323407,0.230205,
2,1,0,1,0,65586.3,0.232019,0.231682,0.0566343,34,0.009825,10,1.31211e-05,-4.24692,2.03587,0.0289803,0.0650823,0.231682,
2,1,0,1,0,65587.8,0.233517,0.233226,0.0574293,34,0.00992218,10,1.3394e-05,-4.24087,1.18952,0.0495999,0.111049,0.233226,
2,1,0,1,0,65589.3,0.235015,0.234687,0.0577902,34,0.0100198,10,1.35626e-05,-4.23815,1.54749,0.0381262,0.0854438,0.234687,
2,1,0,1,0,65590.8,0.236514,0.236156,0.0578229,34,0.0101174,10,1.36552e-05,-4.2379,0.958827,0.0615335,0.13921,0.236156,
2,1,0,1,0,65592.3,0.238012,0.237648,0.0584687,34,0.0102155,10,1.3895e-05,-4.23308,0.413694,0.142617,0.323197,0.237648,
2,1,0,1,0,65593.8,0.23951,0.239159,0.0587861,34,0.0103146,10,1.40592e-05,-4.23073,0.277262,0.212795,0.48873,0.239159,
2,1,0,1,0,65595.3,0.241008,0.240688,0.0593132,34,0.0104141,10,1.4276e-05,-4.22685,0.690187,0.0854841,0.196836,0.240688,
2,1,0,1,0,65596.8,0.242506,0.242146,0.0592916,34,0.0105142,10,1.43572e-05,-4.22701,1.49665,0.0394213,0.0909,0.242146,
2,1,0,1,0,65598.3,0.244005,0.243694,0.0591466,34,0.0106142,10,1.44137e-05,-4.22807,1.05893,0.0557164,0.12853,0.243694,
2,1,0,1,0,65599.8,0.245503,0.245196,0.0593714,34,0.0107143,10,1.45576e-05,-4.22642,1.1946,0.049389,0.11458,0.2451959,
2,1,0,1,0,65601.3,0.247001,0.246657,0.0595729,34,0.0108145,10,1.46941e-05,-4.22495,0.804441,0.0733429,0.17014,0.246657,
2,1,0,1,0,65602.8,0.248499,0.248196,0.059313,34,0.010915,10,1.47212e-05,-4.22685,0.91311,0.0646143,0.150556,0.2481958,
2,1,0,1,0,65604.3,0.249997,0.249635,0.0601538,34,0.0110156,10,1.50165e-05,-4.22074,0.622842,0.0947271,0.221926,0.249635,
2,1,0,1,0,65605.8,0.251496,0.251226,0.060635,34,0.011117,10,1.52331e-05,-4.21728,0.604185,0.0976522,0.230046,0.251226,
2,1,0,1,0,65607.3,0.252994,0.252686,0.0608316,34,0.0112189,10,1.53713e-05,-4.21587,1.93414,0.0305045,0.0721702,0.252686,
2,1,0,1,0,65608.8,0.254492,0.254186,0.0609089,34,0.0113212,10,1.54822e-05,-4.21532,1.01902,0.0578989,0.137965,0.254186,
2,1,0,1,0,65610.3,0.25599,0.255672,0.0610281,34,0.0114235,10,1.56032e-05,-4.21447,11.6835,0.00504985,0.0120407,0.255672,
2,1,0,1,0,65611.8,0.257488,0.257184,0.0611854,34,0.0115263,10,1.57359e-05,-4.21335,3.17012,0.0186113,0.0442938,0.257184,
2,1,0,1,0,65613.3,0.258987,0.258688,0.0609047,34,0.0116289,10,1.57553e-05,-4.21535,1.47382,0.0400321,0.0957802,0.2586875,
2,1,0,1,0,65614.8,0.260485,0.26015,0.0614814,34,0.0117318,10,1.59944e-05,-4.21126,0.430621,0.137012,0.329551,0.26015,
2,1,0,1,0,65616.3,0.261983,0.261666,0.061922,34,0.0118351,10,1.62029e-05,-4.20816,0.552533,0.106781,0.256918,0.261666,
2,1,0,1,0,65617.8,0.263481,0.263144,0.0623614,34,0.0119392,10,1.641e-05,-4.20508,0.506629,0.116456,0.282409,0.263144,
2,1,0,1,0,65619.3,0.264979,0.26468,0.0621249,34,0.0120433,10,1.64432e-05,-4.20673,3.46211,0.0170416,0.0414791,0.26468,
2,1,0,1,0,65620.8,0.266477,0.266157,0.0623278,34,0.0121479,10,1.6589e-05,-4.20532,0.80252,0.0735185,0.179217,0.266157,
2,1,0,1,0,65622.3,0.267976,0.267684,0.0626736,34,0.0122523,10,1.67767e-05,-4.20292,-6.68151,-0.00883034,-0.0215302,0.267684,
2,1,0,1,0,65623.8,0.269474,0.269206,0.0626646,34,0.0123573,10,1.68697e-05,-4.20298,0.786154,0.0750489,0.183787,0.269206,
2,1,0,1,0,65625.3,0.270972,0.270644,0.063359,34,0.0124623,10,1.71477e-05,-4.19819,6.29797,0.0093681,0.0230133,0.270644,
2,1,0,1,0,65626.8,0.27247,0.272124,0.06305,34,0.0125676,10,1.71574e-05,-4.20031,6.14683,0.00959845,0.0235775,0.272124,
2,1,0,1,0,65628.3,0.273968,0.27364,0.0626,34,0.0126727,10,1.71299e-05,-4.20343,-11.5906,-0.00509034,-0.0125147,0.27364,
2,1,0,1,0,65629.8,0.275467,0.275144,0.0629406,34,0.0127777,10,1.73177e-05,-4.20107,1.16979,0.0504365,0.124137,0.275144,
2,1,0,1,0,65631.3,0.276965,0.276645,0.0630523,34,0.0128831,10,1.74431e-05,-4.2003,0.72592,0.0812762,0.201937,0.276645,
2,1,0,1,0,65632.8,0.278463,0.278161,0.0637688,34,0.012989,10,1.7738e-05,-4.19539,2.11565,0.0278874,0.0691414,0.278161,
2,1,0,1,0,65634.3,0.279961,0.279632,0.0639857,34,0.0130955,10,1.78924e-05,-4.19392,11.7486,0.00502186,0.0124935,0.279632,
2,1,0,1,0,65635.8,0.281459,0.281161,0.0638402,34,0.0132016,10,1.79494e-05,-4.19491,1.42789,0.0413197,0.103223,0.281161,
2,1,0,1,0,65637.3,0.282958,0.282606,0.0642567,34,0.0133081,10,1.81593e-05,-4.19208,-2.62084,-0.0225118,-0.0561274,0.282606,
2,1,0,1,0,65638.8,0.284456,0.284146,0.0642485,34,0.0134149,10,1.82559e-05,-4.19214,4.59349,0.0128443,0.0320719,0.284146,
2,1,0,1,0,65640.3,0.285954,0.285581,0.0641144,34,0.0135213,10,1.83099e-05,-4.19304,-12.4588,-0.00473563,-0.0118159,0.2855815,
2,1,0,1,0,65641.8,0.287452,0.287111,0.0642455,34,0.013628,10,1.84456e-05,-4.19216,1.92571,0.0306381,0.0766371,0.287111,
2,1,0,1,0,65643.3,0.28895,0.288643,0.0640738,34,0.0137348,10,1.84944e-05,-4.19332,0.971488,0.0607316,0.153501,0.288643,
2,1,0,1,0,65644.8,0.290449,0.290119,0.0645513,34,0.0138418,10,1.87276e-05,-4.19009,1.17856,0.0500613,0.126109,0.290119,
2,1,0,1,0,65646.3,0.291947,0.291645,0.0648865,34,0.0139493,10,1.89238e-05,-4.18785,1.3107,0.045014,0.113806,0.2916449,
2,1,0,1,0,65647.8,0.293445,0.293136,0.064784,34,0.0140567,10,1.89905e-05,-4.18853,0.646243,0.0912969,0.231639,0.293136,
2,1,0,1,0,65649.3,0.294943,0.294625,0.0649031,34,0.0141643,10,1.91221e-05,-4.18773,1.04432,0.0564959,0.143446,0.2946246,
2,1,0,1,0,65650.7,0.296441,0.29613,0.0655781,34,0.0142726,10,1.94197e-05,-4.18324,0.762192,0.0774083,0.196635,0.29613,
2,1,0,1,0,65652.2,0.297939,0.297608,0.0658305,34,0.0143814,10,1.95917e-05,-4.18157,1.07112,0.0550828,0.14121,0.2976076,
2,1,0,1,0,65653.7,0.299438,0.299136,0.0659996,34,0.0144904,10,1.97428e-05,-4.18046,-0.00413022,-14.2849,-22.9827,0.299136,
2,1,0,1,0,65654.6,0.299737,0.299465,0.0324086,34,0.01454,10,9.70525e-06,-4.48934,0.00202442,29.1441,40.7686,0.299465,
2,1,0,1,0,65656.1,0.298239,0.297963,0.018264,34,0.0145641,10,5.44199e-06,-4.7384,0.00516039,11.4332,14.4773,0.297963,
2,1,0,1,0,65657.6,0.296741,0.296446,0.0137039,34,0.0145775,10,4.06246e-06,-4.86316,0.012247,4.81752,2.72127,0.296446,
2,1,0,1,0,65659.1,0.295243,0.294937,0.0103812,34,0.0145852,10,3.06182e-06,-4.98375,0.0123592,4.77378,1.95419,0.294937,
2,1,0,1,0,65660.6,0.293745,0.293453,0.00747211,34,0.0145885,10,2.19271e-06,-5.12656,0.0116054,5.08384,1.59093,0.293453,
2,1,0,1,0,65662.1,0.292246,0.291951,0.00557439,34,0.014588,10,1.62745e-06,-5.2538,0.00950823,6.20515,1.33473,0.2919513,
2,1,0,1,0,65663.6,0.290748,0.290452,0.00414651,34,0.0145846,10,1.20436e-06,-5.38232,0.0065647,8.98746,1.17562,0.290452,
2,1,0,1,0,65665.1,0.28925,0.288946,0.00202143,34,0.0145786,10,5.84085e-07,-5.69434,0.00288776,20.4311,1.16031,0.288946,
2,1,0,1,0,65666.6,0.287752,0.287395,0.000569911,34,0.01457,10,1.63789e-07,-6.24419,0.00960405,6.14324,0.976686,0.287395,
2,1,0,1,0,65668.1,0.286254,0.285943,-0.000775948,34,0.0145595,10,-2.21877e-07,-6.11017,-0.0100881,-5.84845,0.836633,0.285943,
2,1,0,1,0,65669.6,0.284755,0.284426,-0.00178263,34,0.0145471,10,-5.07026e-07,-5.74894,-0.00272568,-21.646,0.878337,0.284426,
2,0,0,1,0,65671.1,0.283257,0.282963,-0.00303692,34,0.0145329,10,-8.59337e-07,-5.51757,-0.00828096,-7.12478,0.768222,0.282963,
2,0,0,1,0,65672.6,0.281759,0.281401,-0.00421733,34,0.0145171,10,-1.18676e-06,-5.37496,-0.01167,-5.05572,0.782245,0.2814014,
2,0,0,1,0,65674.1,0.280261,0.279936,-0.00518,34,0.0144996,10,-1.45007e-06,-5.28567,-0.0164381,-3.58922,0.720795,0.2799359,
2,1,0,1,0,65675.6,0.278763,0.278436,-0.0063424,34,0.0144803,10,-1.76596e-06,-5.19775,-0.0229771,-2.56777,0.633158,0.278436,
2,1,0,1,0,65677.1,0.277264,0.276969,-0.00735165,34,0.0144594,10,-2.03618e-06,-5.13362,-0.0226529,-2.60452,0.738769,0.276969,
2,1,0,1,0,65678.6,0.275766,0.275475,-0.00831384,34,0.0144368,10,-2.29025e-06,-5.0802,-0.0360801,-1.63525,0.522967,0.275475,
2,1,0,1,0,65680.1,0.274268,0.273964,-0.00958578,34,0.0144127,10,-2.62616e-06,-5.01837,-0.0368322,-1.60186,0.598391,0.273964,
2,0,0,1,0,65681.6,0.27277,0.272474,-0.0103416,34,0.0143872,10,-2.8178e-06,-4.98541,-0.0381408,-1.5469,0.619054,0.272474,
2,0,0,1,0,65683.1,0.271272,0.270939,-0.0111576,34,0.0143604,10,-3.02304e-06,-4.95243,-0.0573485,-1.0288,0.446015,0.270939,
2,0,0,1,0,65684.6,0.269774,0.269476,-0.0120599,34,0.0143321,10,-3.24987e-06,-4.91865,-0.0779269,-0.75712,0.354015,0.269476,
2,0,0,1,0,65686.1,0.268275,0.267928,-0.0131327,34,0.0143029,10,-3.51862e-06,-4.88165,-0.0589212,-1.00134,0.500646,0.267928,
2,0,0,1,0,65687.6,0.266777,0.26649,-0.0135965,34,0.0142725,10,-3.62332e-06,-4.86657,-0.0462524,-1.27561,0.666295,0.26649,
2,0,0,1,0,65689.1,0.265279,0.26499,-0.0146551,34,0.0142407,10,-3.88347e-06,-4.83401,-0.0657738,-0.897013,0.504031,0.26499,
2,0,0,1,0,65690.6,0.263781,0.263504,-0.015093,34,0.0142075,10,-3.97705e-06,-4.82123,-0.0788342,-0.748406,0.434788,0.263504,
2,0,0,1,0,65692.1,0.262283,0.261974,-0.0156278,34,0.0141734,10,-4.09408e-06,-4.8061,-0.0819342,-0.72009,0.447016,0.261974,
2,0,0,1,0,65693.5,0.260784,0.260454,-0.0162475,34,0.0141386,10,-4.23173e-06,-4.78921,-0.0802936,-0.734803,0.471889,0.260454,
2,0,0,1,0,65695,0.259286,0.258986,-0.0169728,34,0.0141025,10,-4.39572e-06,-4.77025,-0.0745133,-0.791805,0.533899,0.258986,
2,0,0,1,0,65696.5,0.257788,0.257485,-0.0183057,34,0.0140654,10,-4.71343e-06,-4.73741,-0.0753346,-0.783173,0.546605,0.257485,
2,0,0,1,0,65698,0.25629,0.255949,-0.0184412,34,0.0140272,10,-4.72e-06,-4.73421,-0.100076,-0.589552,0.42259,0.255949,
2,0,0,1,0,65699.5,0.254792,0.254464,-0.0191216,34,0.013988,10,-4.86575e-06,-4.71848,-0.092383,-0.638645,0.470357,0.254464,
2,0,0,1,0,65701,0.253293,0.252971,-0.0199057,34,0.0139478,10,-5.03557e-06,-4.70102,-0.0810863,-0.727619,0.564592,0.252971,
2,0,0,1,0,65702.5,0.251795,0.251476,-0.0202378,34,0.0139068,10,-5.08932e-06,-4.69384,-0.0993678,-0.593754,0.479678,0.2514756,
2,0,0,1,0,65704,0.250297,0.25,-0.02103,34,0.0138646,10,-5.25748e-06,-4.67716,-0.106583,-0.553558,0.454153,0.25,
2,0,0,1,0,65705.5,0.248799,0.248466,-0.0217495,34,0.0138213,10,-5.40402e-06,-4.66255,-0.12806,-0.46072,0.396935,0.248466,
2,0,0,1,0,65707,0.247301,0.246954,-0.0224208,34,0.0137772,10,-5.53692e-06,-4.64935,-0.127775,-0.461748,0.407969,0.246954,
2,0,0,1,0,65708.5,0.245802,0.24548,-0.0230391,34,0.013732,10,-5.65564e-06,-4.63753,-0.153533,-0.384282,0.345697,0.24548,
2,0,0,1,0,65710,0.244304,0.243991,-0.023435,34,0.013686,10,-5.71793e-06,-4.63014,-0.185427,-0.318185,0.290556,0.243991,
2,0,0,1,0,65711.5,0.242806,0.242525,-0.0240111,34,0.0136393,10,-5.82329e-06,-4.61959,-0.109325,-0.539677,0.502009,0.242525,
2,0,0,1,0,65713,0.241308,0.241018,-0.0247549,34,0.0135921,10,-5.96638e-06,-4.60634,-0.130959,-0.450523,0.431927,0.241018,
2,0,0,1,0,65714.5,0.23981,0.239479,-0.0256381,34,0.0135433,10,-6.13979e-06,-4.59111,-0.0977503,-0.603579,0.588747,0.2394793,
2,0,0,1,0,65716,0.238312,0.238015,-0.0258907,34,0.0134934,10,-6.16237e-06,-4.58686,-0.221831,-0.265968,0.26957,0.238015,
2,0,0,1,0,65717.5,0.236813,0.236522,-0.0265734,34,0.013443,10,-6.2852e-06,-4.57555,-0.282921,-0.208539,0.214954,0.236522,
2,0,0,1,0,65719,0.235315,0.234976,-0.0268246,34,0.0133918,10,-6.30313e-06,-4.57147,-0.20502,-0.287777,0.299791,0.234976,
2,0,0,1,0,65720.5,0.233817,0.233481,-0.0273328,34,0.0133399,10,-6.38169e-06,-4.56332,-0.191699,-0.307775,0.327824,0.2334805,
2,0,0,1,0,65722,0.232319,0.231993,-0.0281056,34,0.0132869,10,-6.5203e-06,-4.55121,-0.193456,-0.304979,0.331791,0.231993,
2,0,0,1,0,65723.5,0.230821,0.230494,-0.0285243,34,0.0132333,10,-6.5747e-06,-4.54478,-0.29379,-0.200824,0.224104,0.230494,
2,0,0,1,0,65725,0.229322,0.229033,-0.0293641,34,0.0131787,10,-6.72536e-06,-4.53218,-0.125469,-0.470235,0.532875,0.229033,
2,0,0,1,0,65726.5,0.227824,0.227523,-0.0300399,34,0.0131231,10,-6.83477e-06,-4.5223,-0.168583,-0.349975,0.410748,0.227523,
2,0,0,1,0,65728,0.226326,0.226025,-0.0304678,34,0.0130666,10,-6.88647e-06,-4.51616,-0.23455,-0.251546,0.300746,0.226025,
2,0,0,1,0,65729.5,0.224828,0.22451,-0.0308425,34,0.0130089,10,-6.92447e-06,-4.51085,-0.211323,-0.279193,0.334906,0.22451,
2,0,0,1,0,65731,0.22333,0.223001,-0.0317268,34,0.0129503,10,-7.07513e-06,-4.49857,-0.208462,-0.283026,0.348322,0.2230015,
2,0,0,1,0,65732.5,0.221831,0.22153,-0.0322277,34,0.0128912,10,-7.13939e-06,-4.49177,-0.178479,-0.330571,0.418402,0.22153,
2,0,0,1,0,65734,0.220333,0.220037,-0.032954,34,0.0128308,10,-7.25109e-06,-4.48209,-0.186367,-0.31658,0.403994,0.2200367,
2,0,0,1,0,65735.5,0.218835,0.218501,-0.0335568,34,0.0127694,10,-7.33219e-06,-4.47422,-0.237253,-0.24868,0.322854,0.218501,
2,0,0,1,0,65737,0.217337,0.217015,-0.0337203,34,0.0127075,10,-7.31779e-06,-4.47211,-0.178847,-0.32989,0.43836,0.217015,
2,0,0,1,0,65738.5,0.215839,0.215532,-0.0347278,34,0.0126447,10,-7.48496e-06,-4.45932,-0.180577,-0.326731,0.442597,0.215532,
2,0,0,1,0,65740,0.21434,0.214022,-0.0350163,34,0.0125807,10,-7.49425e-06,-4.45573,-0.193691,-0.304608,0.417545,0.214022,
2,0,0,1,0,65741.5,0.212842,0.21251,-0.0357389,34,0.0125157,10,-7.59488e-06,-4.44686,-0.261155,-0.225919,0.314125,0.21251,
2,0,0,1,0,65743,0.211344,0.211068,-0.0360401,34,0.0124502,10,-7.60691e-06,-4.44321,-0.263494,-0.223914,0.317,0.211068,
2,0,0,1,0,65744.5,0.209846,0.209511,-0.0365686,34,0.0123837,10,-7.66153e-06,-4.43689,-0.210553,-0.280214,0.400234,0.2095111,
2,0,0,1,0,65746,0.208348,0.20804,-0.037174,34,0.0123163,10,-7.73369e-06,-4.42976,-0.288942,-0.204193,0.296608,0.20804,
2,0,0,1,0,65747.5,0.20685,0.206588,-0.0386426,34,0.0122481,10,-7.98307e-06,-4.41293,-0.34572,-0.170658,0.251923,0.2065876,
2,0,0,1,0,65749,0.205351,0.20502,-0.0382876,34,0.0121789,10,-7.84974e-06,-4.41694,-0.283517,-0.2081,0.309697,0.20502,
2,0,0,1,0,65750.5,0.203853,0.203542,-0.0387328,34,0.0121092,10,-7.88376e-06,-4.41192,-0.346549,-0.17025,0.25793,0.2035421,
2,0,0,1,0,65752,0.202355,0.202019,-0.0393491,34,0.0120389,10,-7.94928e-06,-4.40507,-0.350572,-0.168297,0.258646,0.202019,
2,0,0,1,0,65753.5,0.200857,0.200537,-0.0395989,34,0.0119675,10,-7.94104e-06,-4.40232,-0.344883,-0.171072,0.263754,0.200537,
2,0,0,1,0,65755,0.199359,0.19901,-0.0401369,34,0.0118957,10,-7.98764e-06,-4.39646,-0.339636,-0.173715,0.27449,0.1990099,
2,0,0,1,0,65756.5,0.19786,0.197579,-0.0406363,34,0.0118233,10,-8.0289e-06,-4.39109,-0.204554,-0.288432,0.458979,0.197579,
2,0,0,1,0,65758,0.196362,0.196097,-0.0420195,34,0.0117495,10,-8.23989e-06,-4.37655,-0.163721,-0.360368,0.582622,0.196097,
2,0,0,1,0,65759.5,0.194864,0.194522,-0.0425142,34,0.0116745,10,-8.26996e-06,-4.37147,-0.250873,-0.235179,0.384159,0.194522,
2,0,0,1,0,65761,0.193366,0.193041,-0.0430158,34,0.0115987,10,-8.3038e-06,-4.36637,-0.38501,-0.153243,0.256321,0.193041,
2,0,0,1,0,65762.5,0.191868,0.191552,-0.0430151,34,0.0115223,10,-8.23962e-06,-4.36638,-0.258596,-0.228155,0.386973,0.191552,
2,0,0,1,0,65764,0.190369,0.190023,-0.0434022,34,0.0114454,10,-8.24742e-06,-4.36249,-0.246407,-0.239441,0.410331,0.190023,
2,0,0,1,0,65765.5,0.188871,0.188523,-0.0443057,34,0.0113671,10,-8.35267e-06,-4.35354,-0.170763,-0.345508,0.591353,0.188523,
2,0,0,1,0,65767,0.187373,0.187037,-0.0449527,34,0.0112878,10,-8.40782e-06,-4.34724,-0.19405,-0.304045,0.536167,0.187037,
2,0,0,1,0,65768.5,0.185875,0.185547,-0.0456899,34,0.0112077,10,-8.47762e-06,-4.34018,-0.250184,-0.235826,0.419979,0.185547,
2,0,0,1,0,65770,0.184377,0.184106,-0.0463652,34,0.0111264,10,-8.5361e-06,-4.33381,-0.232102,-0.254198,0.458583,0.1841059,
2,0,0,1,0,65771.5,0.182878,0.182527,-0.0468835,34,0.0110442,10,-8.5575e-06,-4.32898,-0.285806,-0.206434,0.37692,0.182527,
2,0,0,1,0,65773,0.18138,0.181079,-0.0476719,34,0.0109606,10,-8.6324e-06,-4.32174,-0.251048,-0.235015,0.438239,0.181079,
2,0,0,1,0,65774.5,0.179882,0.179588,-0.0484626,34,0.0108761,10,-8.70332e-06,-4.31459,-0.34826,-0.169414,0.319499,0.179588,
2,0,0,1,0,65775.9,0.178384,0.178078,-0.0492746,34,0.0107906,10,-8.77469e-06,-4.30738,-0.212797,-0.27726,0.533822,0.178078,
2,0,0,1,0,65777.4,0.176886,0.176551,-0.0494677,34,0.0107043,10,-8.73356e-06,-4.30568,-0.182879,-0.322618,0.627137,0.176551,
2,0,0,1,0,65778.9,0.175388,0.17501,-0.0506975,34,0.0106163,10,-8.87256e-06,-4.29501,-0.165486,-0.356525,0.706226,0.17501,
2,0,0,1,0,65780.4,0.173889,0.173532,-0.0515741,34,0.0105272,10,-8.94974e-06,-4.28757,-0.211967,-0.278345,0.557572,0.1735315,
2,0,0,1,0,65781.9,0.172391,0.17204,-0.0528434,34,0.0104364,10,-9.09116e-06,-4.27701,-0.183632,-0.321294,0.65567,0.17204,
2,0,0,1,0,65783.4,0.170893,0.170593,-0.0534591,34,0.0103445,10,-9.11976e-06,-4.27198,-0.199676,-0.295478,0.613515,0.170593,
2,0,0,1,0,65784.9,0.169395,0.169075,-0.0546767,34,0.010251,10,-9.24445e-06,-4.2622,-0.172539,-0.341951,0.723888,0.169075,
2,0,0,1,0,65786.4,0.167897,0.167548,-0.0553651,34,0.0101559,10,-9.27629e-06,-4.25676,-0.148633,-0.396951,0.858798,0.167548,
2,0,0,1,0,65787.9,0.166398,0.166087,-0.0561344,34,0.0100592,10,-9.32322e-06,-4.25077,-0.171321,-0.344382,0.762216,0.166087,
2,0,0,1,0,65789.4,0.1649,0.164584,-0.0577634,34,0.00996097,10,-9.50693e-06,-4.23835,-0.181881,-0.324388,0.733236,0.164584,
2,0,0,1,0,65790.9,0.163402,0.163092,-0.0591058,34,0.00986063,10,-9.63967e-06,-4.22837,-0.132895,-0.443959,1.01777,0.163092,
2,0,0,1,0,65792.4,0.161904,0.161585,-0.0598664,34,0.0097584,10,-9.67351e-06,-4.22282,-0.158082,-0.373223,0.873134,0.161585,
2,0,0,1,0,65793.9,0.160406,0.160062,-0.0614917,34,0.00965433,10,-9.84249e-06,-4.21118,-0.164373,-0.358941,0.857545,0.160062,
2,0,0,1,0,65795.4,0.158907,0.158624,-0.0620806,34,0.00954857,10,-9.84749e-06,-4.20704,-0.178356,-0.3308,0.806874,0.158624,
2,0,0,1,0,65796.9,0.157409,0.157128,-0.0638308,34,0.00944087,10,-1.00296e-05,-4.19497,-0.167965,-0.351264,0.873528,0.157128,
2,0,0,1,0,65798.4,0.155911,0.155609,-0.0653771,34,0.00933105,10,-1.01732e-05,-4.18457,-0.162862,-0.36227,0.924282,0.155609,
2,0,0,1,0,65799.9,0.154413,0.154084,-0.0665651,34,0.00921886,10,-1.02566e-05,-4.17675,-0.141288,-0.417586,1.0864,0.154084,
2,0,0,1,0,65801.4,0.152915,0.152558,-0.0682339,34,0.00910426,10,-1.04096e-05,-4.166,-0.136853,-0.43112,1.153,0.152558,
2,0,0,1,0,65802.9,0.151416,0.151077,-0.0699645,34,0.00898692,10,-1.057e-05,-4.15512,-0.123493,-0.47776,1.31673,0.151077,
2,0,0,1,0,65804.4,0.149918,0.14957,-0.0726237,34,0.00886657,10,-1.08623e-05,-4.13892,-0.129997,-0.453857,1.28332,0.14957,
2,0,0,1,0,65805.9,0.14842,0.148083,-0.0749327,34,0.00874252,10,-1.10962e-05,-4.12533,-0.104924,-0.562314,1.63833,0.148083,
2,0,0,1,0,65807.4,0.146922,0.146595,-0.0771576,34,0.00861523,10,-1.13109e-05,-4.11262,-0.110737,-0.532793,1.60533,0.146595,
2,0,0,1,0,65808.9,0.145424,0.145043,-0.0791933,34,0.00848442,10,-1.14864e-05,-4.10131,-0.0963751,-0.612192,1.8983,0.145043,
2,0,0,1,0,65810.4,0.143926,0.143614,-0.0826524,34,0.00834914,10,-1.18701e-05,-4.08274,-0.0870396,-0.677852,2.17705,0.143614,
2,0,0,1,0,65811.9,0.142427,0.142089,-0.0851212,34,0.00820901,10,-1.20948e-05,-4.06996,-0.0893276,-0.66049,2.21845,0.1420894,
2,0,0,1,0,65813.4,0.140929,0.140621,-0.0890927,34,0.00806398,10,-1.25283e-05,-4.05016,-0.0864944,-0.682125,2.38235,0.140621,
2,0,0,1,0,65814.9,0.139431,0.13908,-0.0924159,34,0.00791345,10,-1.28532e-05,-4.03425,-0.081901,-0.720382,2.61941,0.13908,
2,0,0,1,0,65816.4,0.137933,0.137604,-0.097059,34,0.00775689,10,-1.33557e-05,-4.01296,-0.0808779,-0.729494,2.75467,0.137604,
2,0,0,1,0,65817.9,0.136435,0.13609,-0.101175,34,0.00759386,10,-1.37689e-05,-3.99492,-0.0804003,-0.733828,2.88682,0.13609,
2,0,0,1,0,65819.4,0.134936,0.134552,-0.105811,34,0.00742473,10,-1.42371e-05,-3.97547,-0.0882524,-0.668537,2.74455,0.134552,
2,0,0,1,0,65820.9,0.133438,0.133137,-0.109196,34,0.00724905,10,-1.45381e-05,-3.96179,-0.0886869,-0.665262,2.83792,0.133137,
2,0,0,1,0,65822.4,0.13194,0.131591,-0.113343,34,0.0070675,10,-1.49149e-05,-3.94561,-0.100023,-0.589862,2.61763,0.131591,
2,0,0,1,0,65823.9,0.130442,0.130132,-0.117529,34,0.00687979,10,-1.52943e-05,-3.92986,-0.113474,-0.519943,2.3754,0.130132,
2,0,0,1,0,65825.4,0.128944,0.128615,-0.121122,34,0.00668613,10,-1.55781e-05,-3.91678,-0.13606,-0.433631,2.04147,0.128615,
2,0,0,1,0,65826.9,0.127445,0.12713,-0.124708,34,0.00648753,10,-1.58542e-05,-3.90411,-0.149218,-0.395394,1.91226,0.12713,
2,0,0,1,0,65828.4,0.125947,0.125647,-0.127095,34,0.00628496,10,-1.5969e-05,-3.89587,-0.160504,-0.367591,1.81808,0.125647,
2,0,0,1,0,65829.9,0.124449,0.124132,-0.129505,34,0.0060783,10,-1.60758e-05,-3.88771,-0.200392,-0.294424,1.48002,0.124132,
2,0,0,1,0,65831.4,0.122951,0.122633,-0.131569,34,0.00586799,10,-1.61348e-05,-3.88085,-0.257988,-0.228693,1.16676,0.122633,
2,0,0,1,0,65832.9,0.121453,0.121103,-0.132899,34,0.00565533,10,-1.60944e-05,-3.87648,-0.289827,-0.203569,1.05462,0.121103,
2,0,0,1,0,65834.4,0.119955,0.119637,-0.134243,34,0.00544119,10,-1.60604e-05,-3.87211,-0.401617,-0.146906,0.768462,0.119637,
2,0,0,1,0,65835.9,0.118456,0.118142,-0.135174,34,0.00522467,10,-1.59697e-05,-3.86911,-0.387818,-0.152133,0.799279,0.118142,
2,0,0,1,0,65837.4,0.116958,0.116605,-0.136063,34,0.00500678,10,-1.58656e-05,-3.86626,-0.81616,-0.0722897,0.383059,0.1166047,
2,0,0,1,0,65838.9,0.11546,0.115107,-0.135699,34,0.00478824,10,-1.562e-05,-3.86742,-2.64733,-0.0222866,0.118516,0.115107,
2,0,0,1,0,65840.4,0.113962,0.113632,-0.135761,34,0.00456958,10,-1.54268e-05,-3.86723,-3.76361,-0.0156764,0.0833828,0.1136324,
2,0,0,1,0,65841.9,0.112464,0.112148,-0.136303,34,0.00435079,10,-1.52861e-05,-3.86549,6.43872,0.00916331,-0.0487849,0.112148,
2,0,0,1,0,65843.4,0.110965,0.110625,-0.136611,34,0.00413161,10,-1.51126e-05,-3.86451,-4.69716,-0.0125608,0.0670168,0.110625,
2,0,0,1,0,65844.9,0.109467,0.109148,-0.13658,34,0.0039122,10,-1.49075e-05,-3.86461,-1.6398,-0.03598,0.191988,0.109148,
2,0,0,1,0,65846.4,0.107969,0.107623,-0.136761,34,0.00369249,10,-1.47186e-05,-3.86404,15.7981,0.00373464,-0.0199902,0.107623,
2,0,0,1,0,65847.9,0.106471,0.106116,-0.137052,34,0.00347246,10,-1.45434e-05,-3.86311,-4.69429,-0.0125685,0.0673604,0.106116,
2,0,0,1,0,65849.4,0.104973,0.104623,-0.13696,34,0.00325264,10,-1.43291e-05,-3.86341,2.46753,0.0239106,-0.128067,0.104623,
2,0,0,1,0,65850.9,0.103474,0.103144,-0.136204,34,0.00303263,10,-1.40486e-05,-3.86581,1.259,0.0468626,-0.248987,0.1031438,
2,0,0,1,0,65852.4,0.101976,0.101653,-0.136666,34,0.00281346,10,-1.38925e-05,-3.86434,0.739471,0.0797867,-0.425213,0.101653,
2,0,0,1,0,65853.9,0.100478,0.100169,-0.136182,34,0.00259489,10,-1.36412e-05,-3.86588,3.83473,0.0153857,-0.0815746,0.100169,
2,0,0,1,0,65855.4,0.0989798,0.0986795,-0.135938,34,0.00237666,10,-1.34143e-05,-3.86666,1.9139,0.0308271,-0.163244,0.09867949,
2,0,0,1,0,65856.9,0.0974816,0.0971662,-0.135771,34,0.00215744,10,-1.31924e-05,-3.86719,1.74976,0.033719,-0.178131,0.09716624,
2,0,0,1,0,65858.3,0.0959834,0.0956488,-0.134677,34,0.00193959,10,-1.28817e-05,-3.87071,0.364169,0.162013,-0.861472,0.09564878,
2,0,0,1,0,65859.8,0.0944852,0.0941663,-0.134095,34,0.00172327,10,-1.26273e-05,-3.87259,0.748084,0.0788681,-0.41367,0.0941663,
2,0,0,1,0,65861.3,0.0929871,0.0926925,-0.133656,34,0.00150774,10,-1.23889e-05,-3.87401,0.854152,0.0690743,-0.358943,0.0926925,
2,0,0,1,0,65862.8,0.0914889,0.0911782,-0.133192,34,0.00129288,10,-1.21442e-05,-3.87552,0.767077,0.0769154,-0.398251,0.0911782,
2,0,0,1,0,65864.3,0.0899907,0.0896608,-0.131915,34,0.00107971,10,-1.18276e-05,-3.87971,0.585525,0.100764,-0.51944,0.0896608,
2,0,0,1,0,65865.8,0.0884925,0.0881518,-0.130558,34,0.000867811,10,-1.15089e-05,-3.8842,0.599181,0.0984678,-0.503541,0.0881518,
2,0,0,1,0,65867.3,0.0869943,0.0866789,-0.130308,34,0.000657073,10,-1.1295e-05,-3.88503,0.485247,0.121588,-0.618411,0.08667887,
2,0,0,1,0,65868.8,0.0854961,0.0851159,-0.129319,34,0.000447667,10,-1.10071e-05,-3.88834,0.608099,0.0970237,-0.491026,0.08511585,
2,0,0,1,0,65870.3,0.083998,0.0836664,-0.12928,34,0.000239515,10,-1.08164e-05,-3.88847,0.425697,0.138596,-0.694945,0.0836664,
2,0,0,1,0,65871.8,0.0824998,0.0821871,-0.127824,34,3.22643e-05,10,-1.05054e-05,-3.89339,0.66276,0.0890217,-0.444544,0.0821871,
2,0,0,1,0,65873.3,0.0810016,0.0806728,-0.126924,34,-0.00017331,10,-1.02393e-05,-3.89646,0.590141,0.0999762,-0.496999,0.0806728,
2,0,0,1,0,65874.8,0.0795034,0.0791914,-0.126316,34,-0.000378131,10,-1.00031e-05,-3.89854,0.790674,0.0746199,-0.369194,0.0791914,
2,0,0,1,0,65876.3,0.0780052,0.0776771,-0.12603,34,-0.000582026,10,-9.78962e-06,-3.89953,0.584025,0.101023,-0.495213,0.0776771,
2,0,0,1,0,65877.8,0.076507,0.0761353,-0.125754,34,-0.000785153,10,-9.57433e-06,-3.90048,0.636611,0.0926782,-0.452686,0.0761353,
2,0,0,1,0,65879.3,0.0750088,0.0746846,-0.124767,34,-0.000986638,10,-9.31818e-06,-3.9039,0.605397,0.0974567,-0.473455,0.0746846,
2,0,0,1,0,65880.8,0.0735106,0.07318,-0.12414,34,-0.00118776,10,-9.08454e-06,-3.90609,0.878193,0.0671834,-0.324974,0.07317996,
2,0,0,1,0,65882.3,0.0720124,0.0716762,-0.123239,34,-0.00138798,10,-8.8333e-06,-3.90925,0.671674,0.0878402,-0.423946,0.0716762,
2,0,0,1,0,65883.8,0.0705142,0.0701578,-0.122513,34,-0.00158715,10,-8.59521e-06,-3.91182,0.578383,0.102009,-0.488795,0.0701578,
2,0,0,1,0,65885.3,0.069016,0.0686795,-0.121541,34,-0.0017847,10,-8.34736e-06,-3.91528,0.570625,0.103395,-0.493489,0.0686795,
2,0,0,1,0,65886.8,0.0675178,0.0671876,-0.121247,34,-0.00198144,10,-8.14627e-06,-3.91633,1.28886,0.045777,-0.21688,0.0671876,
2,0,0,1,0,65888.3,0.0660196,0.065704,-0.121093,34,-0.00217735,10,-7.95629e-06,-3.91688,1.00198,0.0588833,-0.276668,0.065704,
2,0,0,1,0,65889.8,0.0645214,0.0641674,-0.120606,34,-0.00237283,10,-7.73899e-06,-3.91863,0.630825,0.0935283,-0.436601,0.06416741,
2,0,0,1,0,65891.3,0.0630233,0.0627063,-0.11911,34,-0.00256689,10,-7.46895e-06,-3.92405,0.959119,0.0615148,-0.287274,0.0627063,
2,0,0,1,0,65892.8,0.0615251,0.0612154,-0.119307,34,-0.00275989,10,-7.30342e-06,-3.92333,0.631554,0.0934203,-0.433505,0.0612154,
2,0,0,1,0,65894.3,0.0600269,0.0597244,-0.117624,34,-0.00295222,10,-7.02505e-06,-3.9295,0.637959,0.0924824,-0.427506,0.0597244,
2,0,0,1,0,65895.8,0.0585287,0.0582145,-0.117762,34,-0.00314344,10,-6.85546e-06,-3.92899,0.385535,0.153034,-0.702195,0.0582145,
2,0,0,1,0,65897.3,0.0570305,0.0567075,-0.116987,34,-0.00333373,10,-6.63403e-06,-3.93186,0.646162,0.0913084,-0.416574,0.0567075,
2,0,0,1,0,65898.8,0.0555323,0.0552272,-0.116329,34,-0.00352259,10,-6.42452e-06,-3.93431,1.04308,0.056563,-0.257653,0.05522725,
2,0,0,1,0,65900.3,0.0540342,0.0536918,-0.115627,34,-0.00371083,10,-6.20824e-06,-3.93694,1.16387,0.0506931,-0.228596,0.0536918,
2,0,0,1,0,65901.8,0.052536,0.0522231,-0.11511,34,-0.00389883,10,-6.01142e-06,-3.93889,1.00561,0.0586711,-0.264046,0.0522231,
2,0,0,1,0,65903.3,0.0510378,0.0507004,-0.114602,34,-0.00408539,10,-5.81034e-06,-3.94081,0.672108,0.0877835,-0.393076,0.0507004,
2,0,0,1,0,65904.8,0.0495396,0.0492519,-0.114414,34,-0.00427088,10,-5.63512e-06,-3.94152,0.874558,0.0674627,-0.300801,0.0492519,
2,0,0,1,0,65906.3,0.0480414,0.0477281,-0.113626,34,-0.00445599,10,-5.42313e-06,-3.94452,2.4709,0.023878,-0.105737,0.0477281,
2,0,0,1,0,65907.8,0.0465432,0.0462361,-0.112953,34,-0.00464045,10,-5.22253e-06,-3.9471,0.644883,0.0914895,-0.403983,0.0462361,
2,0,0,1,0,65909.3,0.045045,0.044725,-0.112345,34,-0.00482401,10,-5.02463e-06,-3.94945,0.674493,0.0874731,-0.384582,0.044725,
2,0,0,1,0,65910.8,0.0435468,0.0432298,-0.111741,34,-0.00500644,10,-4.83053e-06,-3.95179,0.555992,0.106117,-0.463062,0.0432298,
2,0,0,1,0,65912.3,0.0420486,0.0417717,-0.111432,34,-0.00518815,10,-4.65471e-06,-3.95299,0.936458,0.0630034,-0.274431,0.0417717,
2,0,0,1,0,65913.8,0.0405504,0.040231,-0.111667,34,-0.00536891,10,-4.49247e-06,-3.95208,0.508594,0.116006,-0.501491,0.04023103,
2,0,0,1,0,65915.3,0.0390522,0.0387199,-0.110604,34,-0.00554949,10,-4.28257e-06,-3.95623,0.600915,0.0981836,-0.422521,0.0387199,
2,0,0,1,0,65916.8,0.037554,0.0371982,-0.109358,34,-0.00572852,10,-4.06792e-06,-3.96115,0.524847,0.112414,-0.48167,0.0371982,
2,0,0,1,0,65918.3,0.0360558,0.035738,-0.109304,34,-0.00590688,10,-3.9063e-06,-3.96136,0.726228,0.0812418,-0.347068,0.035738,
2,0,0,1,0,65919.8,0.0345576,0.0342195,-0.108791,34,-0.00608458,10,-3.72277e-06,-3.96341,0.700008,0.0842847,-0.359482,0.0342195,
2,0,0,1,0,65921.3,0.0330594,0.0327445,-0.108651,34,-0.00626195,10,-3.55771e-06,-3.96397,0.422787,0.13955,-0.589249,0.0327445,
2,0,0,1,0,65922.8,0.0315613,0.0312483,-0.108229,34,-0.00643852,10,-3.38197e-06,-3.96566,0.52473,0.112439,-0.473918,0.0312483,
2,0,0,1,0,65924.3,0.0300631,0.0297213,-0.107586,34,-0.00661367,10,-3.1976e-06,-3.96824,0.829423,0.0711338,-0.297959,0.0297213,
2,0,0,1,0,65925.8,0.0285649,0.0282123,-0.10792,34,-0.00678858,10,-3.04467e-06,-3.9669,0.990129,0.0595882,-0.248309,0.0282123,
2,0,0,1,0,65927.3,0.0270667,0.0267076,-0.106973,34,-0.00696341,10,-2.857e-06,-3.97072,1.1794,0.0500254,-0.208193,0.0267076,
2,0,0,1,0,65928.8,0.0255685,0.0252421,-0.106637,34,-0.00713731,10,-2.69173e-06,-3.97209,0.805771,0.0732218,-0.305288,0.0252421,
2,0,0,1,0,65930.3,0.0240703,0.0237618,-0.106405,34,-0.0073105,10,-2.52837e-06,-3.97304,2.4864,0.0237291,-0.0986656,0.0237618,
2,0,0,1,0,65931.8,0.0225722,0.0222317,-0.10592,34,-0.00748383,10,-2.35478e-06,-3.97502,1.6877,0.0349588,-0.144593,0.0222317,
2,0,0,1,0,65933.3,0.021074,0.0207196,-0.106052,34,-0.00765678,10,-2.19735e-06,-3.97448,0.836973,0.0704921,-0.29239,0.0207196,
2,0,0,1,0,65934.8,0.0195759,0.0192382,-0.105565,34,-0.00782926,10,-2.03088e-06,-3.97648,2.25186,0.0262006,-0.108454,0.0192382,
2,0,0,1,0,65936.3,0.0180776,0.0177218,-0.105286,34,-0.00800142,10,-1.86585e-06,-3.97763,6.55566,0.00899986,-0.0371754,0.0177218,
2,0,0,1,0,65937.8,0.0165794,0.0162362,-0.105731,34,-0.00817344,10,-1.71666e-06,-3.9758,-1.07739,-0.054762,0.226479,0.0162362,
2,0,0,1,0,65939.3,0.0150812,0.0147537,-0.106603,34,-0.00834608,10,-1.57278e-06,-3.97223,-1.44132,-0.0409348,0.169754,0.0147537,
2,0,0,1,0,65940.8,0.013583,0.0132267,-0.106493,34,-0.00851928,10,-1.40855e-06,-3.97268,-1.09989,-0.0536415,0.2216,0.0132267,
2,0,0,1,0,65942.2,0.0120848,0.0117718,-0.106397,34,-0.00869251,10,-1.25248e-06,-3.97307,-1.25672,-0.0469476,0.195503,0.0117718,
2,0,0,1,0,65943.7,0.0105866,0.0102618,-0.106607,34,-0.00886563,10,-1.09398e-06,-3.97221,-0.91673,-0.0643592,0.268795,0.0102618,
2,0,0,1,0,65945.2,0.00908843,0.008756,-0.107001,34,-0.00903978,10,-9.36902e-07,-3.97061,-0.684886,-0.0861457,0.360886,0.008756,
2,0,0,1,0,65946.7,0.00759024,0.00722264,-0.107129,34,-0.00921446,10,-7.73751e-07,-3.97009,-0.860267,-0.0685834,0.288468,0.00722264,
2,0,0,1,0,65948.2,0.00609203,0.00577198,-0.108682,34,-0.00938978,10,-6.27309e-07,-3.96384,-0.54144,-0.108969,0.459555,0.00577198,
2,0,0,1,0,65949.7,0.00459384,0.00425663,-0.108757,34,-0.0095658,10,-4.62938e-07,-3.96354,-0.612169,-0.0963787,0.408956,0.00425663,
2,0,0,1,0,65951.2,0.00309563,0.00279962,-0.109523,34,-0.00974292,10,-3.06623e-07,-3.96049,-0.503196,-0.117251,0.500006,0.00279962,
2,0,0,1,0,65952.7,0.00159744,0.00124721,-0.110436,34,-0.00992309,10,-1.37737e-07,-3.95689, , , ,0.00124721,
2,0,0,1,0,65954.1,0.000199235,-0.000136315,-0.111155,34,-0.0100906,10,1.5152e-08,-3.95407, , , ,-0.000136315,