File: Figure_codes/Fig_3-5/rawdata_trumpetplot_data/after 10th/20221101_1-115_003_TrumpetPlot_ParaChange_from10_every3_14_CV_C01_33.csv
mode,ox/red,error,control changes,counter inc.,time/s,control/V,Ewe/V,<I>/mA,cycle number,(Q-Qo)/C,I Range,P/W,log(|I|),Tafel slope mV/dec,alpha_eff,dI/d(E-IR),E-IR/V,
2,1,0,1,0,66213.4,2.44065e-05,-0.000248974,29.3756,34,0.0000000E+000,10,-7.31377e-06,-1.53201, , , ,-0.000248974,
2,1,0,1,0,66213.4,0.00332042,0.00297996,30.6474,34,9.36319e-05,10,9.13283e-05,-1.51361, , , ,0.00297996,
2,1,0,1,0,66213.4,0.0073156,0.00697557,31.6507,34,0.000218359,10,0.000220782,-1.49962, , , ,0.00697557,
2,1,0,1,0,66213.4,0.0113108,0.0109818,32.5437,34,0.000346854,10,0.000357388,-1.48753,0.338355,0.174373,220.313,0.0109818,
2,1,0,1,0,66213.4,0.0153059,0.0149286,33.3857,34,0.000478801,10,0.000498402,-1.47644,0.371465,0.158831,206.258,0.0149286,
2,1,0,1,0,66213.4,0.0193011,0.0189433,34.1644,34,0.000614002,10,0.000647187,-1.46643,0.404805,0.145749,193.807,0.0189433,
2,1,0,1,0,66213.4,0.0233462,0.0229867,34.9531,34,0.000752366,10,0.000803455,-1.45651,0.438933,0.134417,182.728,0.02298665,
2,1,0,1,0,66213.4,0.0273414,0.0269982,35.6478,34,0.000893636,10,0.000962425,-1.44797,0.465112,0.126851,176.028,0.0269982,
2,1,0,1,0,66213.4,0.0313366,0.0309927,36.321,34,0.00103765,10,0.00112569,-1.43984,0.501664,0.117609,166.454,0.0309927,
2,1,0,1,0,66213.4,0.0353317,0.0349767,36.9867,34,0.00118434,10,0.00129367,-1.43195,0.52716,0.111921,161.265,0.0349767,
2,1,0,1,0,66213.4,0.0393269,0.0389479,37.6099,34,0.00133359,10,0.00146483,-1.4247,0.553156,0.106661,156.33,0.0389479,
2,1,0,1,0,66213.5,0.0433221,0.0429679,38.2231,34,0.00148535,10,0.00164237,-1.41767,0.586315,0.100629,149.907,0.0429679,
2,1,0,1,0,66213.5,0.0473173,0.0469635,38.8177,34,0.00163949,10,0.00182302,-1.41097,0.610249,0.0966819,146.293,0.0469635,
2,1,0,1,0,66213.5,0.0513124,0.0509475,39.3808,34,0.00179596,10,0.00200635,-1.40472,0.635601,0.0928256,142.545,0.0509475,
2,1,0,1,0,66213.5,0.0553076,0.0549908,39.9569,34,0.0019547,10,0.00219726,-1.39841,0.651884,0.0905069,141.06,0.0549908,
2,1,0,1,0,66213.5,0.0593028,0.0589016,40.4944,34,0.00211566,10,0.00238518,-1.3926,0.680529,0.0866973,136.94,0.0589016,
2,1,0,1,0,66213.5,0.0633479,0.0629629,41.0746,34,0.00227883,10,0.00258618,-1.38643,0.70811,0.0833203,133.36,0.0629629,
2,1,0,1,0,66213.5,0.0673431,0.0670402,41.5846,34,0.00244419,10,0.00278784,-1.38107,0.732296,0.0805685,130.6,0.0670402,
2,1,0,1,0,66213.5,0.0713383,0.070952,42.0855,34,0.00261159,10,0.00298605,-1.37587,0.768976,0.0767254,125.984,0.070952,
2,1,0,1,0,66213.5,0.0753334,0.0749699,42.5929,34,0.00278099,10,0.00319319,-1.37066,0.785227,0.0751375,124.827,0.0749699,
2,1,0,1,0,66213.5,0.0793286,0.0789538,43.0892,34,0.0029524,10,0.00340206,-1.36563,0.803949,0.0733877,123.337,0.07895384,
2,1,0,1,0,66213.5,0.0833238,0.0829293,43.568,34,0.00312578,10,0.00361306,-1.36083,0.823503,0.0716452,121.788,0.0829293,
2,1,0,1,0,66213.5,0.0873189,0.0869302,44.0562,34,0.00330108,10,0.00382982,-1.35599,0.842002,0.0700711,120.45,0.08693023,
2,1,0,1,0,66213.5,0.0913141,0.090912,44.5345,34,0.00347831,10,0.00404872,-1.3513,0.848437,0.0695396,120.84,0.090912,
2,1,0,1,0,66213.5,0.0953093,0.0949554,45.0166,34,0.00365747,10,0.00427457,-1.34663,0.85402,0.069085,121.377,0.0949554,
2,1,0,1,0,66213.5,0.0993045,0.0989043,45.4984,34,0.00383856,10,0.00449999,-1.342,0.854578,0.0690399,122.629,0.0989043,
2,1,0,1,0,66213.5,0.103319,0.102895,45.9939,34,0.00402157,10,0.00473253,-1.3373,0.860704,0.0685486,123.038,0.102895,
2,1,0,1,0,66213.5,0.107345,0.106975,46.5043,34,0.00420666,10,0.0049748,-1.33251,0.875933,0.0673568,122.16,0.106975,
2,1,0,1,0,66213.5,0.11134,0.110916,46.9803,34,0.00439368,10,0.00521085,-1.32808,0.890929,0.066223,121.376,0.110916,
2,1,0,1,0,66213.5,0.115335,0.114945,47.4579,34,0.00458261,10,0.00545506,-1.32369,0.911628,0.0647193,119.857,0.114945,
2,1,0,1,0,66213.5,0.11933,0.118983,47.9467,34,0.00477346,10,0.00570484,-1.31924,0.93536,0.0630773,117.953,0.118983,
2,1,0,1,0,66213.5,0.123325,0.122917,48.4151,34,0.00496623,10,0.00595105,-1.31502,0.924397,0.0638254,120.596,0.122917,
2,1,0,1,0,66213.5,0.127321,0.126866,48.8617,34,0.00516085,10,0.0061989,-1.31103,0.908097,0.064971,124.058,0.126866,
2,1,0,1,0,66213.5,0.131316,0.130913,49.3836,34,0.00535734,10,0.00646494,-1.30642,0.891235,0.0662003,127.708,0.130913,
2,1,0,1,0,66213.5,0.135311,0.13488,49.9188,34,0.00555601,10,0.00673303,-1.30174,0.863491,0.0683273,133.126,0.13488,
2,1,0,1,0,66213.5,0.139306,0.138929,50.4599,34,0.00575681,10,0.00701037,-1.29705,0.851315,0.0693046,136.511,0.138929,
2,1,0,1,0,66213.6,0.143301,0.142935,51.0009,34,0.00595979,10,0.00728978,-1.29242,0.856759,0.0688642,137.106,0.142935,
2,1,0,1,0,66213.6,0.147346,0.146959,51.574,34,0.00616502,10,0.00757926,-1.28757,0.851171,0.0693162,139.503,0.1469588,
2,1,0,1,0,66213.6,0.151342,0.150987,52.1272,34,0.00637248,10,0.00787054,-1.28294,0.847081,0.0696509,141.696,0.150987,
2,1,0,1,0,66213.6,0.155337,0.15494,52.6935,34,0.00658217,10,0.00816436,-1.27824,0.854057,0.069082,142.099,0.15494,
2,1,0,1,0,66213.6,0.159332,0.158955,53.2709,34,0.00679416,10,0.00846769,-1.27351,0.849165,0.06948,144.448,0.158955,
2,1,0,1,0,66213.6,0.163327,0.16301,53.8549,34,0.00700847,10,0.0087789,-1.26877,0.860077,0.0685985,144.139,0.16301,
2,1,0,1,0,66213.6,0.167322,0.166932,54.4303,34,0.00722509,10,0.00908613,-1.26416,0.869521,0.0678535,144.094,0.166932,
2,1,0,1,0,66213.6,0.171317,0.17096,55.0026,34,0.00744402,10,0.00940324,-1.25962,0.89081,0.0662318,142.114,0.17096,
2,1,0,1,0,66213.6,0.175313,0.174933,55.5733,34,0.00766522,10,0.00972162,-1.25513,0.919858,0.0641403,139.019,0.174933,
2,1,0,1,0,66213.6,0.179308,0.178954,56.1208,34,0.00788867,10,0.0100431,-1.25088,0.937022,0.0629654,137.85,0.178954,
2,1,0,1,0,66213.6,0.183303,0.182953,56.6576,34,0.00811429,10,0.0103657,-1.24674,0.989907,0.0596016,131.705,0.182953,
2,1,0,1,0,66213.6,0.187348,0.186948,57.2065,34,0.00834202,10,0.0106946,-1.24255,1.04177,0.0566343,126.263,0.186948,
2,1,0,1,0,66213.6,0.191343,0.19095,57.6827,34,0.00857185,10,0.0110145,-1.23895,1.12244,0.052564,118.162,0.19095,
2,1,0,1,0,66213.6,0.195338,0.194967,58.1425,34,0.00880355,10,0.0113359,-1.23551,1.24229,0.0474928,107.622,0.194967,
2,1,0,1,0,66213.6,0.199334,0.199001,58.5539,34,0.00903699,10,0.0116523,-1.23244,1.37044,0.043052,98.2366,0.199001,
2,1,0,1,0,66213.6,0.203329,0.202969,58.9308,34,0.00927203,10,0.0119612,-1.22966,1.56144,0.0377855,86.757,0.202969,
2,1,0,1,0,66213.6,0.207324,0.207005,59.26,34,0.00950844,10,0.0122671,-1.22724,1.80722,0.0326468,75.3666,0.207005,
2,1,0,1,0,66213.6,0.211319,0.210928,59.5273,34,0.00974606,10,0.012556,-1.22528,2.21484,0.0266385,61.7785,0.210928,
2,1,0,1,0,66213.6,0.215314,0.214947,59.7557,34,0.00998466,10,0.0128443,-1.22362,2.87416,0.0205277,47.7805,0.214947,
2,1,0,1,0,66213.6,0.219309,0.218989,59.9205,34,0.010224,10,0.0131219,-1.22242,3.93554,0.0149916,34.992,0.218989,
2,1,0,1,0,66213.6,0.223305,0.222998,60.0241,34,0.010464,10,0.0133853,-1.22167,6.52751,0.00903867,21.1387,0.222998,
2,1,0,1,0,66213.6,0.227314,0.226983,60.0891,34,0.0107042,10,0.0136392,-1.2212,18.957,0.0031123,7.28522,0.2269834,
2,1,0,1,0,66213.6,0.231345,0.231026,60.0955,34,0.0109446,10,0.0138836,-1.22116,-20.5956,-0.00286469,-6.7047,0.231026,
2,1,0,1,0,66213.6,0.23534,0.234984,60.037,34,0.0111849,10,0.0141077,-1.22158,-6.21107,-0.00949916,-22.2104,0.234984,
2,1,0,1,0,66213.6,0.239335,0.238988,59.9169,34,0.0114248,10,0.0143194,-1.22245,-3.69631,-0.0159619,-37.2506,0.238988,
2,1,0,1,0,66213.7,0.24333,0.242998,59.7334,34,0.0116641,10,0.0145151,-1.22378,-2.64012,-0.0223475,-51.9969,0.242998,
2,1,0,1,0,66213.7,0.247326,0.246982,59.5012,34,0.0119026,10,0.0146957,-1.22547,-2.05356,-0.0287306,-66.5842,0.246982,
2,1,0,1,0,66213.7,0.251321,0.25102,59.2032,34,0.01214,10,0.0148612,-1.22765,-1.70842,-0.0345349,-79.647,0.25102,
2,1,0,1,0,66213.7,0.255316,0.254977,58.8523,34,0.0123761,10,0.015006,-1.23024,-1.43118,-0.0412247,-94.5052,0.254977,
2,1,0,1,0,66213.7,0.259311,0.258981,58.4604,34,0.0126107,10,0.0151401,-1.23314,-1.24555,-0.0473686,-107.843,0.2589812,
2,1,0,1,0,66213.7,0.263306,0.26302,57.9854,34,0.0128435,10,0.0152513,-1.23668,-1.12698,-0.0523524,-118.292,0.26302,
2,1,0,1,0,66213.7,0.267302,0.267022,57.4774,34,0.0130744,10,0.0153478,-1.2405,-0.996445,-0.0592105,-132.621,0.267022,
2,1,0,1,0,66213.7,0.271347,0.271041,56.9521,34,0.0133033,10,0.0154364,-1.24449,-0.912462,-0.0646603,-143.411,0.271041,
2,1,0,1,0,66213.7,0.275342,0.274999,56.3361,34,0.0135298,10,0.0154924,-1.24921,-0.837441,-0.0704527,-154.606,0.274999,
2,1,0,1,0,66213.7,0.279337,0.27902,55.691,34,0.0137538,10,0.0155389,-1.25422,-0.765001,-0.0771241,-167.371,0.27902,
2,1,0,1,0,66213.7,0.283332,0.283046,55.0001,34,0.0139751,10,0.0155675,-1.25964,-0.725375,-0.0813372,-174.366,0.283046,
2,1,0,1,0,66213.7,0.287327,0.286992,54.2824,34,0.0141936,10,0.0155786,-1.26534,-0.690308,-0.0854691,-180.897,0.2869918,
2,1,0,1,0,66213.7,0.291322,0.290993,53.5473,34,0.0144092,10,0.0155819,-1.27126,-0.662988,-0.0889911,-185.924,0.290993,
2,1,0,1,0,66213.7,0.295318,0.295005,52.7992,34,0.0146218,10,0.015576,-1.27737,-0.646382,-0.0912773,-189.08,0.295005,
2,1,0,1,0,66213.7,0.299013,0.298682,52.0929,34,0.0148158,10,0.0155592,-1.28322,-0.219162,-0.269207,-540.812,0.2986823,
2,1,0,0,0,66213.7,0.300012,0.299632,51.8924,34,0.0148679,10,0.0155486,-1.2849,0.00644288,9.1574,17208.6,0.299632,
2,1,0,1,0,66213.7,0.298714,0.298557,49.4567,34,0.0149327,10,0.0147656,-1.30578,0.0667574,0.883797,1565.43,0.2985566,
2,1,0,1,0,66213.7,0.294718,0.294481,43.7848,34,0.0151182,10,0.0128938,-1.35868,0.0787732,0.748986,1259.14,0.294481,
2,1,0,1,0,66213.7,0.290723,0.290498,39.2802,34,0.0152836,10,0.0114108,-1.40583,0.0834207,0.707259,1102.6,0.290498,
2,1,0,1,0,66213.7,0.286728,0.28647,35.3198,34,0.0154323,10,0.0101181,-1.45198,0.0852869,0.691783,960.446,0.28647,
2,1,0,1,0,66213.7,0.282733,0.282489,31.7409,34,0.015566,10,0.00896647,-1.49838,0.0844101,0.698969,868.686,0.282489,
2,1,0,1,0,66213.7,0.278738,0.278527,28.461,34,0.015686,10,0.00792715,-1.54575,0.0822477,0.717346,797.264,0.2785266,
2,1,0,1,0,66213.7,0.274742,0.274534,25.413,34,0.0157934,10,0.00697675,-1.59494,0.0792623,0.744364,737.029,0.274534,
2,1,0,1,0,66213.7,0.270747,0.270494,22.5826,34,0.015889,10,0.00610847,-1.64623,0.0756517,0.77989,685.101,0.270494,
2,1,0,1,0,66213.7,0.266702,0.266445,19.9161,34,0.0159737,10,0.00530654,-1.7008,0.0714014,0.826315,639.607,0.266445,
2,1,0,1,0,66213.7,0.262707,0.262456,17.4511,34,0.0160481,10,0.00458016,-1.75818,0.0663931,0.888646,600.892,0.262456,
2,1,0,1,0,66213.8,0.258712,0.258469,15.1377,34,0.0161131,10,0.00391262,-1.81994,0.0610596,0.96627,564.083,0.258469,
2,1,0,1,0,66213.8,0.254717,0.254474,12.9566,34,0.016169,10,0.00329713,-1.88751,0.0552613,1.06766,530.902,0.254474,
2,1,0,1,0,66213.8,0.250722,0.250463,10.9006,34,0.0162165,10,0.0027302,-1.96255,0.0490957,1.20174,498.903,0.250463,
2,1,0,1,0,66213.8,0.246726,0.246475,8.96657,34,0.016256,10,0.00221003,-2.04737,0.0421928,1.39834,471.313,0.246475,
2,1,0,1,0,66213.8,0.242731,0.242423,7.13225,34,0.016288,10,0.00172902,-2.14677,0.0345668,1.70684,446.925,0.242423,
2,1,0,1,0,66213.8,0.238736,0.238449,5.40338,34,0.0163128,10,0.00128843,-2.26733,0.0262258,2.2497,422.959,0.238449,
2,1,0,1,0,66213.8,0.234741,0.234488,3.761,34,0.016331,10,0.000881909,-2.4247,0.0157338,3.74988,402.883,0.234488,
2,1,0,1,0,66213.8,0.230746,0.230481,2.20173,34,0.0163427,10,0.000507457,-2.65724,0.0181013,3.25943,381.068,0.230481,
2,1,0,1,0,66213.8,0.226701,0.226422,0.685929,34,0.0163484,10,0.00015531,-3.16372,0.0603026,0.978398,360.935,0.226422,
2,0,0,1,0,66213.8,0.222705,0.222423,-0.703589,34,0.0163482,10,-0.000156494,-3.15268,-0.0908105,-0.649705,342.432,0.222423,
2,0,0,1,0,66213.8,0.21871,0.218425,-2.03671,34,0.0163426,10,-0.000444868,-2.69107,-0.019492,-3.02689,326.425,0.218425,
2,0,0,1,0,66213.8,0.214715,0.214379,-3.31185,34,0.0163317,10,-0.000709993,-2.47993,-0.0176048,-3.35136,312.21,0.214379,
2,0,0,1,0,66213.8,0.21072,0.210441,-4.5308,34,0.0163159,10,-0.000953467,-2.34382,-0.0305342,-1.93226,297.955,0.210441,
2,0,0,1,0,66213.8,0.206725,0.206434,-5.69545,34,0.0162953,10,-0.00117573,-2.24447,-0.0425032,-1.38813,285.114,0.206434,
2,0,0,1,0,66213.8,0.20273,0.202437,-6.80034,34,0.0162702,10,-0.00137664,-2.16747,-0.0545042,-1.08249,273.276,0.202437,
2,0,0,1,0,66213.8,0.198734,0.198422,-7.86142,34,0.0162408,10,-0.00155988,-2.1045,-0.0669456,-0.881313,261.264,0.198422,
2,0,0,1,0,66213.8,0.194739,0.194478,-8.89321,34,0.0162071,10,-0.00172953,-2.05094,-0.0789323,-0.747476,252.841,0.194478,
2,0,0,1,0,66213.8,0.190744,0.190423,-9.87856,34,0.0161695,10,-0.0018811,-2.00531,-0.0909879,-0.648438,245.24,0.190423,
2,0,0,1,0,66213.8,0.186735,0.186427,-10.8483,34,0.0161279,10,-0.00202242,-1.96464,-0.104483,-0.564685,235.192,0.186427,
2,0,0,1,0,66213.8,0.182704,0.182427,-11.7841,34,0.0160825,10,-0.00214974,-1.9287,-0.116978,-0.504368,228.587,0.182427,
2,0,0,1,0,66213.8,0.178709,0.178403,-12.6739,34,0.0160335,10,-0.00226105,-1.89709,-0.130807,-0.451045,220.572,0.178403,
2,0,0,1,0,66213.8,0.174713,0.174408,-13.5392,34,0.015981,10,-0.00236135,-1.86841,-0.143914,-0.409967,214.853,0.174408,
2,0,0,1,0,66213.8,0.170718,0.170425,-14.3781,34,0.0159251,10,-0.00245037,-1.8423,-0.156577,-0.376812,210.054,0.170425,
2,0,0,1,0,66213.8,0.166723,0.166438,-15.2193,34,0.0158658,10,-0.00253308,-1.8176,-0.169132,-0.34884,205.909,0.166438,
2,0,0,1,0,66213.8,0.162728,0.162451,-16.0246,34,0.0158032,10,-0.00260321,-1.79521,-0.179287,-0.329081,204.971,0.1624513,
2,0,0,1,0,66213.9,0.158733,0.15843,-16.8293,34,0.0157374,10,-0.00266626,-1.77393,-0.190937,-0.309002,202.461,0.15843,
2,0,0,1,0,66213.9,0.154737,0.154445,-17.6533,34,0.0156684,10,-0.00272647,-1.75317,-0.198483,-0.297255,204.248,0.154445,
2,0,0,1,0,66213.9,0.150742,0.15042,-18.4624,34,0.0155961,10,-0.00277712,-1.73371,-0.203764,-0.289551,208.484,0.15042,
2,0,0,1,0,66213.9,0.146747,0.146471,-19.2885,34,0.0155205,10,-0.00282521,-1.7147,-0.2111,-0.279488,210.359,0.146471,
2,0,0,1,0,66213.9,0.142702,0.142404,-20.1704,34,0.0154415,10,-0.00287235,-1.69529,-0.214725,-0.27477,215.999,0.142404,
2,0,0,1,0,66213.9,0.138707,0.138462,-21.0156,34,0.015359,10,-0.00290986,-1.67746,-0.217809,-0.270879,222.236,0.138462,
2,0,0,1,0,66213.9,0.134712,0.134404,-21.922,34,0.0152731,10,-0.00294639,-1.65912,-0.220293,-0.267826,229.478,0.134404,
2,0,0,1,0,66213.9,0.130717,0.130416,-22.8564,34,0.0151834,10,-0.00298085,-1.64099,-0.21921,-0.269149,240.471,0.130416,
2,0,0,1,0,66213.9,0.126721,0.126409,-23.8409,34,0.0150899,10,-0.00301371,-1.62268,-0.217672,-0.27105,252.614,0.126409,
2,0,0,1,0,66213.9,0.122726,0.122394,-24.8793,34,0.0149924,10,-0.00304509,-1.60416,-0.215826,-0.273369,265.906,0.122394,
2,0,0,1,0,66213.9,0.118731,0.118449,-25.9524,34,0.0148907,10,-0.00307403,-1.58582,-0.215,-0.274419,278.482,0.118449,
2,0,0,1,0,66213.9,0.114736,0.114411,-27.1124,34,0.0147844,10,-0.00310195,-1.56683,-0.215358,-0.273963,290.013,0.114411,
2,0,0,1,0,66213.9,0.110741,0.110428,-28.2915,34,0.0146735,10,-0.00312416,-1.54834,-0.216155,-0.272952,301.48,0.110428,
2,0,0,1,0,66213.9,0.106745,0.106459,-29.5009,34,0.0145578,10,-0.00314063,-1.53016,-0.221742,-0.266075,306.266,0.106459,
2,0,0,1,0,66213.9,0.102703,0.102409,-30.788,34,0.0144371,10,-0.00315297,-1.51162,-0.228015,-0.258754,310.056,0.102409,
2,0,0,1,0,66213.9,0.0987052,0.0984176,-32.0106,34,0.0143114,10,-0.0031504,-1.49471,-0.237011,-0.248934,310.119,0.0984176,
2,0,0,1,0,66213.9,0.09471,0.094439,-33.2489,34,0.0141808,10,-0.00313999,-1.47822,-0.249791,-0.236197,305.768,0.094439,
2,0,0,1,0,66213.9,0.0907148,0.0904338,-34.4705,34,0.0140452,10,-0.0031173,-1.46255,-0.260436,-0.226543,303.977,0.0904338,
2,0,0,1,0,66213.9,0.0867197,0.0864329,-35.673,34,0.0139048,10,-0.00308332,-1.44766,-0.273834,-0.215459,299.204,0.0864329,
2,0,0,1,0,66213.9,0.0827245,0.0824415,-36.8669,34,0.0137596,10,-0.00303936,-1.43336,-0.289477,-0.203816,292.399,0.0824415,
2,0,0,1,0,66213.9,0.0787293,0.078482,-38.0233,34,0.0136097,10,-0.00298414,-1.41995,-0.306116,-0.192737,285.135,0.078482,
2,0,0,1,0,66213.9,0.0747341,0.0744355,-39.1484,34,0.0134552,10,-0.00291403,-1.40729,-0.326493,-0.180708,275.223,0.0744355,
2,0,0,1,0,66213.9,0.070739,0.070442,-40.2326,34,0.0132963,10,-0.00283406,-1.39542,-0.348527,-0.169284,264.961,0.070442,
2,0,0,1,0,66213.9,0.0667438,0.0664591,-41.2656,34,0.0131332,10,-0.00274248,-1.38441,-0.372657,-0.158323,254.26,0.0664591,
2,0,0,1,0,66213.9,0.0627403,0.0624836,-42.2622,34,0.0129661,10,-0.0026407,-1.37405,-0.404655,-0.145803,239.639,0.0624836,
2,0,0,1,0,66214,0.0587035,0.0584254,-43.2191,34,0.0127949,10,-0.0025251,-1.36432,-0.433019,-0.136253,228.985,0.0584254,
2,0,0,1,0,66214,0.0547083,0.0544988,-44.0532,34,0.0126203,10,-0.00240084,-1.35602,-0.468079,-0.126047,216.312,0.0544988,
2,0,0,1,0,66214,0.0507132,0.0505413,-44.9106,34,0.0124423,10,-0.00226984,-1.34765,-0.506853,-0.116405,203.615,0.0505413,
2,0,0,1,0,66214,0.046718,0.0464566,-45.7291,34,0.0122609,10,-0.00212442,-1.33981,-0.538937,-0.109475,194.82,0.0464566,
2,0,0,1,0,66214,0.0427228,0.0425045,-46.4609,34,0.0120764,10,-0.0019748,-1.33291,-0.58439,-0.10096,182.675,0.0425045,
2,0,0,1,0,66214,0.0387276,0.0384453,-47.1807,34,0.0118891,10,-0.00181388,-1.32624,-0.63112,-0.0934847,171.788,0.0384453,
2,0,0,1,0,66214,0.0347325,0.0344772,-47.8451,34,0.0116989,10,-0.00164956,-1.32016,-0.678652,-0.086937,161.993,0.0344772,
2,0,0,1,0,66214,0.0307373,0.0305071,-48.469,34,0.0115062,10,-0.00147865,-1.31454,-0.732589,-0.0805362,152.06,0.0305071,
2,0,0,1,0,66214,0.0267421,0.026504,-49.0529,34,0.0113111,10,-0.0013001,-1.30934,-0.777598,-0.0758747,145.085,0.026504,
2,0,0,1,0,66214,0.022747,0.0225466,-49.5983,34,0.0111137,10,-0.00111827,-1.30453,-0.836245,-0.0705535,136.455,0.0225466,
2,0,0,1,0,66214,0.0187018,0.0184842,-50.1654,34,0.0109141,10,-0.000927266,-1.2996,-0.8956,-0.0658776,128.755,0.0184842,
2,0,0,1,0,66214,0.0147067,0.0144377,-50.6618,34,0.0107124,10,-0.000731437,-1.29532,-0.965075,-0.0611351,120.643,0.0144377,
2,0,0,1,0,66214,0.0107115,0.0104399,-51.1212,34,0.0105088,10,-0.000533701,-1.2914,-1.07303,-0.0549847,109.524,0.0104399,
2,0,0,1,0,66214,0.00671632,0.00642098,-51.5437,34,0.0103034,10,-0.000330961,-1.28782,-1.17486,-0.0502186,100.87,0.006420983,
2,0,0,1,0,66214,0.00272115,0.0024381,-51.9228,34,0.0100965,10,-0.000126593,-1.28464,-1.30229,-0.0453049,91.6818,0.0024381,
2,0,0,1,0,66214,-0.00127403,-0.00162644,-52.2822,34,0.00988797,10,8.50339e-05,-1.28165,-1.47799,-0.039919,81.312,-0.00162644,
2,0,0,1,0,66214,-0.0052692,-0.00560085,-52.5918,34,0.0096782,10,0.000294559,-1.27908,-1.67173,-0.0352929,72.3131,-0.00560085,
2,0,0,1,0,66214,-0.00926437,-0.00961343,-52.8475,34,0.00946729,10,0.000508046,-1.27698,-1.95844,-0.030126,62.0519,-0.00961343,
2,0,0,1,0,66214,-0.0132596,-0.0136069,-53.0831,34,0.00925538,10,0.000722298,-1.27504,-2.22098,-0.0265649,54.9794,-0.0136069,
2,0,0,1,0,66214,-0.0172547,-0.0176449,-53.2761,34,0.00904265,10,0.000940055,-1.27347,-2.5799,-0.0228691,47.5056,-0.0176449,
2,0,0,1,0,66214,-0.0212915,-0.0216162,-53.4724,34,0.00882917,10,0.00115587,-1.27187,-3.2536,-0.0181337,37.7814,-0.0216162,
2,0,0,1,0,66214,-0.025295,-0.0256224,-53.608,34,0.00861497,10,0.00137357,-1.27077,-4.13034,-0.0142845,29.8331,-0.0256224,
2,0,0,1,0,66214,-0.0292902,-0.0296689,-53.69,34,0.00840036,10,0.00159292,-1.27011,-6.02061,-0.00979966,20.5132,-0.0296689,
2,0,0,1,0,66214,-0.0332854,-0.0336157,-53.7526,34,0.00818544,10,0.00180693,-1.2696,-10.2008,-0.00578389,12.1227,-0.0336157,
2,0,0,1,0,66214,-0.0372805,-0.0376135,-53.8005,34,0.00797034,10,0.00202362,-1.26921,-17.5646,-0.00335904,7.04573,-0.0376135,
2,0,0,1,0,66214.1,-0.0412757,-0.041642,-53.8022,34,0.00775513,10,0.00224043,-1.2692,-80.0464,-0.000737073,1.54658,-0.041642,
2,0,0,1,0,66214.1,-0.0452709,-0.045627,-53.8024,34,0.00753991,10,0.00245484,-1.2692,26.907,0.00219274,-4.60086,-0.045627,
2,0,0,1,0,66214.1,-0.0492661,-0.0496321,-53.7774,34,0.00732476,10,0.00266909,-1.2694,14.7063,0.00401188,-8.41339,-0.0496321,
2,0,0,1,0,66214.1,-0.0532612,-0.0536415,-53.7268,34,0.00710973,10,0.00288199,-1.26981,9.87291,0.00597595,-12.5246,-0.0536415,
2,0,0,1,0,66214.1,-0.0572564,-0.0575375,-53.6685,34,0.00689494,10,0.00308795,-1.27028,9.52506,0.00619419,-12.975,-0.0575375,
2,0,0,1,0,66214.1,-0.0612544,-0.0615925,-53.6024,34,0.00668041,10,0.00330151,-1.27082,8.05478,0.00732484,-15.3236,-0.0615925,
2,0,0,1,0,66214.1,-0.0652967,-0.0656612,-53.5694,34,0.00646599,10,0.00351743,-1.27108,6.97683,0.00845657,-17.6654,-0.0656612,
2,0,0,1,0,66214.1,-0.0692919,-0.0696261,-53.4818,34,0.0062519,10,0.00372373,-1.27179,6.30931,0.00935127,-19.5051,-0.0696261,
2,0,0,1,0,66214.1,-0.0732871,-0.0736313,-53.3842,34,0.00603818,10,0.00393075,-1.27259,5.22317,0.0112958,-23.5327,-0.0736313,
2,0,0,1,0,66214.1,-0.0772822,-0.0776396,-53.2894,34,0.00582484,10,0.00413737,-1.27336,5.23488,0.0112706,-23.4418,-0.0776396,
2,0,0,1,0,66214.1,-0.0812774,-0.0816193,-53.1939,34,0.00561189,10,0.00434165,-1.27414,5.50805,0.0107116,-22.2421,-0.0816193,
2,0,0,1,0,66214.1,-0.0852726,-0.0856043,-53.1073,34,0.00539929,10,0.00454621,-1.27485,5.51724,0.0106938,-22.1661,-0.08560431,
2,0,0,1,0,66214.1,-0.0892678,-0.0896657,-53.0276,34,0.00518704,10,0.00475475,-1.2755,5.63484,0.0104706,-21.6661,-0.0896657,
2,0,0,1,0,66214.1,-0.0932629,-0.0936061,-52.9355,34,0.00497512,10,0.00495509,-1.27625,5.93709,0.00993752,-20.5327,-0.0936061,
2,0,0,1,0,66214.1,-0.0972581,-0.0975678,-52.8483,34,0.00476356,10,0.0051563,-1.27697,7.3917,0.00798192,-16.4775,-0.0975678,
2,0,0,1,0,66214.1,-0.101253,-0.101648,-52.7779,34,0.00455231,10,0.00536478,-1.27755,8.19428,0.00720015,-14.8413,-0.101648,
2,0,0,1,0,66214.1,-0.105298,-0.105654,-52.7641,34,0.00434123,10,0.00557477,-1.27766,9.69911,0.00608303,-12.5223,-0.105654,
2,0,0,1,0,66214.1,-0.109294,-0.109674,-52.697,34,0.00413031,10,0.00577952,-1.27821,10.8829,0.00542137,-11.1478,-0.109674,
2,0,0,1,0,66214.1,-0.113289,-0.113669,-52.6467,34,0.00391964,10,0.0059843,-1.27863,9.81955,0.00600842,-12.3495,-0.113669,
2,0,0,1,0,66214.1,-0.117284,-0.117646,-52.5995,34,0.00370916,10,0.0061881,-1.27902,12.9327,0.00456206,-9.36902,-0.117646,
2,0,0,1,0,66214.1,-0.121279,-0.121611,-52.567,34,0.00349884,10,0.00639276,-1.27929,17.3176,0.00340695,-6.99261,-0.121611,
2,0,0,1,0,66214.1,-0.125274,-0.125639,-52.5475,34,0.00328863,10,0.00660201,-1.27945,32.7284,0.00180272,-3.69853,-0.125639,
2,0,0,1,0,66214.1,-0.129269,-0.129627,-52.5351,34,0.00307847,10,0.00680997,-1.27955,79.9306,0.00073814,-1.51397,-0.129627,
2,0,0,1,0,66214.1,-0.133265,-0.133609,-52.5405,34,0.00286831,10,0.00701988,-1.27951,-82.0959,-0.000718672,1.47416,-0.133609,
2,0,0,1,0,66214.1,-0.13726,-0.13758,-52.5429,34,0.00265815,10,0.00722886,-1.27949,-17.4099,-0.00338888,6.95553,-0.13758,
2,0,0,1,0,66214.2,-0.141255,-0.141628,-52.571,34,0.0024479,10,0.00744552,-1.27925,-13.3024,-0.0044353,9.10717,-0.141628,
2,0,0,1,0,66214.2,-0.145286,-0.145675,-52.6467,34,0.00223751,10,0.00766933,-1.27863,-9.83997,-0.00599596,12.3183,-0.145675,
2,0,0,1,0,66214.2,-0.149295,-0.14964,-52.6865,34,0.00202683,10,0.00788401,-1.2783,-8.90765,-0.00662352,13.6175,-0.14964,
2,0,0,1,0,66214.2,-0.15329,-0.153641,-52.7407,34,0.00181596,10,0.00810314,-1.27785,-9.29562,-0.00634708,13.0667,-0.1536411,
2,0,0,1,0,66214.2,-0.157286,-0.157622,-52.7888,34,0.0016049,10,0.00832067,-1.27746,-7.6444,-0.00771807,15.9081,-0.157622,
2,0,0,1,0,66214.2,-0.161281,-0.161616,-52.855,34,0.0013936,10,0.00854224,-1.27691,-6.86595,-0.00859313,17.7347,-0.161616,
2,0,0,1,0,66214.2,-0.165276,-0.165626,-52.9408,34,0.001182,10,0.00876836,-1.27621,-5.98703,-0.00985463,20.3649,-0.165626,
2,0,0,1,0,66214.2,-0.169271,-0.169602,-53.0238,34,0.000970063,10,0.00899296,-1.27553,-5.64079,-0.0104595,21.6462,-0.169602,
2,0,0,1,0,66214.2,-0.173266,-0.173611,-53.1144,34,0.000757771,10,0.00922123,-1.27479,-5.62056,-0.0104972,21.7594,-0.173611,
2,0,0,1,0,66214.2,-0.177261,-0.177622,-53.2015,34,0.000545143,10,0.00944976,-1.27408,-5.34145,-0.0110457,22.9361,-0.177622,
2,0,0,1,0,66214.2,-0.181257,-0.181592,-53.2882,34,0.000332148,10,0.00967673,-1.27337,-4.76075,-0.012393,25.7889,-0.181592,
2,0,0,1,0,66214.2,-0.185252,-0.185524,-53.389,34,0.000118769,10,0.00990495,-1.27255,-4.87004,-0.0121149,25.2494,-0.185524,
2,0,0,1,0,66214.2,-0.189297,-0.189586,-53.5264,34,-9.51214e-05,10,0.0101478,-1.27143,-4.87021,-0.0121145,25.2899,-0.1895857,
2,0,0,1,0,66214.2,-0.193292,-0.193625,-53.6055,34,-0.000309409,10,0.0103794,-1.27079,-4.89958,-0.0120419,25.178,-0.193625,
2,0,0,1,0,66214.2,-0.197287,-0.197641,-53.6941,34,-0.000524015,10,0.0106121,-1.27007,11.8423,0.00498213,-10.3967,-0.197641,
2,0,0,0,0,66214.2,-0.199984,-0.200341,-53.762,34,-0.000669055,10,0.0107708,-1.26952,0.0685888,0.860198,-1696.66,-0.200341,
2,0,0,0,1,66214.2,-0.199984,-0.200265,-53.4154,34,-0.000701143,10,0.0106972,-1.27233,-0.0450464,-1.30976,2450.53,-0.200265,
2,0,0,1,1,66214.2,-0.196688,-0.197169,-47.5927,34,-0.000855217,10,0.0093838,-1.32246,-0.077909,-0.757294,1351.49,-0.197169,
2,0,0,1,1,66214.2,-0.192693,-0.193119,-42.6138,34,-0.0010348,10,0.00822954,-1.37045,-0.0824006,-0.716014,1216.63,-0.193119,
2,0,0,1,1,66214.2,-0.188698,-0.189077,-38.5379,34,-0.00119652,10,0.00728663,-1.41411,-0.091921,-0.641855,981.215,-0.189077,
2,0,0,1,1,66214.2,-0.184653,-0.185097,-34.9615,34,-0.00134305,10,0.00647127,-1.45641,-0.0953679,-0.618657,853.092,-0.185097,
2,0,0,1,1,66214.2,-0.180657,-0.18108,-31.8065,34,-0.0014762,10,0.00575952,-1.49748,-0.096195,-0.613338,766.411,-0.18108,
2,0,0,1,1,66214.2,-0.176662,-0.177082,-28.9332,34,-0.00159732,10,0.00512355,-1.5386,-0.0957044,-0.616482,698.15,-0.177082,
2,0,0,1,1,66214.2,-0.172667,-0.173082,-26.2791,34,-0.00170742,10,0.00454842,-1.58039,-0.0931797,-0.633185,649.555,-0.173082,
2,0,0,1,1,66214.2,-0.168672,-0.169094,-23.7893,34,-0.00180726,10,0.00402264,-1.62362,-0.0901591,-0.654399,606.652,-0.169094,
2,0,0,1,1,66214.2,-0.164677,-0.165127,-21.4443,34,-0.00189746,10,0.00354104,-1.66869,-0.0860199,-0.685888,572.351,-0.165127,
2,0,0,1,1,66214.2,-0.160682,-0.161093,-19.2329,34,-0.00197856,10,0.00309827,-1.71596,-0.0813935,-0.724874,541.342,-0.161093,
2,0,0,1,1,66214.3,-0.156686,-0.157104,-17.1345,34,-0.00205105,10,0.00269191,-1.76613,-0.0762213,-0.774061,513.457,-0.157104,
2,0,0,1,1,66214.3,-0.152691,-0.153103,-15.1327,34,-0.00211535,10,0.00231687,-1.82008,-0.0696305,-0.84733,493.743,-0.153103,
2,0,0,1,1,66214.3,-0.148696,-0.149093,-13.2113,34,-0.00217182,10,0.00196971,-1.87906,-0.0630567,-0.935666,473.645,-0.149093,
2,0,0,1,1,66214.3,-0.14467,-0.145074,-11.3238,34,-0.00222073,10,0.0016428,-1.94601,-0.0560637,-1.05237,455.199,-0.145074,
2,0,0,1,1,66214.3,-0.140656,-0.141077,-9.54341,34,-0.00226225,10,0.00134636,-2.0203,-0.0484075,-1.21882,440.016,-0.141077,
2,0,0,1,1,66214.3,-0.136661,-0.137061,-7.83001,34,-0.00229681,10,0.00107319,-2.10624,-0.0404728,-1.45777,423.083,-0.137061,
2,0,0,1,1,66214.3,-0.132665,-0.133099,-6.1736,34,-0.00232464,10,0.0008217,-2.20946,-0.0317957,-1.85559,409.165,-0.133099,
2,0,0,1,1,66214.3,-0.12867,-0.129088,-4.56059,34,-0.00234592,10,0.00058872,-2.34098,-0.0219876,-2.68333,398.663,-0.129088,
2,0,0,1,1,66214.3,-0.124675,-0.125072,-2.9944,34,-0.00236087,10,0.000374514,-2.52369,-0.00533148,-11.0663,386.172,-0.125072,
2,0,0,1,1,66214.3,-0.12068,-0.121119,-1.47488,34,-0.00236964,10,0.000178637,-2.83124,-0.0320019,-1.84364,376.311,-0.121119,
2,0,0,1,1,66214.3,-0.116685,-0.117096,0.00615192,34,-0.0023724,10,-7.20367e-07,-5.21099,-0.733144,-0.0804753,366.835,-0.117096,
2,1,0,1,1,66214.3,-0.112689,-0.113126,1.4462,34,-0.00236935,10,-0.000163603,-2.83977,0.0347724,1.69675,358.455,-0.113126,
2,1,0,1,1,66214.3,-0.108694,-0.109144,2.8483,34,-0.0023606,10,-0.000310875,-2.54541,0.00541139,10.9029,350.127,-0.109144,
2,1,0,1,1,66214.3,-0.104699,-0.10519,4.23509,34,-0.00234628,10,-0.000445489,-2.37314,0.02348,2.51277,342.867,-0.10519,
2,1,0,1,1,66214.3,-0.100654,-0.101077,5.61503,34,-0.0023264,10,-0.000567549,-2.25065,0.0348969,1.6907,334.073,-0.101077,
2,1,0,1,1,66214.3,-0.0966588,-0.0971638,6.91915,34,-0.00230118,10,-0.000672291,-2.15995,0.045848,1.28686,326.593,-0.0971638,
2,1,0,1,1,66214.3,-0.0926637,-0.0931088,8.20531,34,-0.0022708,10,-0.000763987,-2.08591,0.0567761,1.03917,320.251,-0.0931088,
2,1,0,1,1,66214.3,-0.0886685,-0.089179,9.46419,34,-0.00223532,10,-0.000844007,-2.02392,0.0677698,0.870594,312.615,-0.08917895,
2,1,0,1,1,66214.3,-0.0846733,-0.0851186,10.7256,34,-0.00219479,10,-0.00091295,-1.96958,0.0783617,0.752919,307.642,-0.0851186,
2,1,0,1,1,66214.3,-0.0806781,-0.0811146,11.9364,34,-0.00214935,10,-0.000968214,-1.92313,0.0897326,0.657509,300.59,-0.0811146,
2,1,0,1,1,66214.3,-0.076683,-0.0771444,13.1166,34,-0.0020991,10,-0.00101188,-1.88218,0.101198,0.583013,294.332,-0.0771444,
2,1,0,1,1,66214.3,-0.0726878,-0.0731074,14.2951,34,-0.00204415,10,-0.00104508,-1.84481,0.112469,0.524589,289.14,-0.0731074,
2,1,0,1,1,66214.3,-0.0686926,-0.069133,15.4307,34,-0.00198458,10,-0.00106677,-1.81161,0.12367,0.477076,284.78,-0.069133,
2,1,0,1,1,66214.3,-0.0646974,-0.0651183,16.5615,34,-0.00192048,10,-0.00107846,-1.7809,0.135779,0.434529,278.532,-0.0651183,
2,1,0,1,1,66214.3,-0.0606523,-0.06104,17.7029,34,-0.00185186,10,-0.00108058,-1.75196,0.148219,0.39806,272.216,-0.06104,
2,1,0,1,1,66214.4,-0.0566571,-0.0570932,18.7556,34,-0.00177883,10,-0.00107082,-1.72687,0.161493,0.365341,265.317,-0.0570932,
2,1,0,1,1,66214.4,-0.052662,-0.0530975,19.7958,34,-0.00170161,10,-0.00105111,-1.70343,0.175786,0.335634,257.941,-0.0530975,
2,1,0,1,1,66214.4,-0.0486668,-0.0490797,20.8169,34,-0.00162029,10,-0.00102168,-1.68158,0.188778,0.312537,252.662,-0.0490797,
2,1,0,1,1,66214.4,-0.0446716,-0.0450597,21.8248,34,-0.0015349,10,-0.000983419,-1.66105,0.20192,0.292195,247.651,-0.0450597,
2,1,0,1,1,66214.4,-0.0406764,-0.0410651,22.8053,34,-0.00144553,10,-0.000936503,-1.64196,0.215536,0.273736,242.503,-0.0410651,
2,1,0,1,1,66214.4,-0.0366813,-0.0370939,23.7592,34,-0.00135229,10,-0.000881319,-1.62417,0.229728,0.256825,237.221,-0.0370939,
2,1,0,1,1,66214.4,-0.0326861,-0.0330961,24.6929,34,-0.00125528,10,-0.00081724,-1.60743,0.244463,0.241345,231.788,-0.0330961,
2,1,0,1,1,66214.4,-0.0286909,-0.0290995,25.6109,34,-0.00115456,10,-0.000745264,-1.59157,0.257484,0.229141,228.406,-0.0290995,
2,1,0,1,1,66214.4,-0.0246957,-0.0251049,26.5047,34,-0.00105023,10,-0.000665398,-1.57668,0.273837,0.215457,222.303,-0.0251049,
2,1,0,1,1,66214.4,-0.0206756,-0.0211093,27.4101,34,-0.000942327,10,-0.000578608,-1.56209,0.290978,0.202765,216.089,-0.0211093,
2,1,0,1,1,66214.4,-0.0166554,-0.0170384,28.2626,34,-0.000830874,10,-0.00048155,-1.54879,0.307145,0.192092,211.125,-0.0170384,
2,1,0,1,1,66214.4,-0.0126603,-0.0130608,29.0767,34,-0.000716109,10,-0.000379765,-1.53645,0.326992,0.180433,204.289,-0.0130608,
2,1,0,1,1,66214.4,-0.0086651,-0.00908216,29.8875,34,-0.000598084,10,-0.000271443,-1.52451,0.344624,0.171201,199.066,-0.00908216,
2,1,0,1,1,66214.4,-0.00466992,-0.00513533,30.6734,34,-0.00047688,10,-0.000157518,-1.51324, , , ,-0.00513533,
2,1,0,1,1,66214.4,-0.000974387,-0.00138149,31.3794,34,-0.00036204,10,-4.33502e-05,-1.50336, , , ,-0.00138149,
2,1,0,0,1,66214.4,-0.000175352,-0.000554371,31.5317,34,-0.000336896,10,-1.74803e-05,-1.50125, , , ,-0.000554371,