File: Figure_codes/Fig_3-5/rawdata_trumpetplot_data/after 10th/20221101_1-115_003_TrumpetPlot_ParaChange_from10_every3_07_CV_C01_20.csv
mode,ox/red,error,control changes,counter inc.,time/s,control/V,Ewe/V,<I>/mA,cycle number,(Q-Qo)/C,I Range,P/W,log(|I|),Tafel slope mV/dec,alpha_eff,dI/d(E-IR),E-IR/V,
2,0,0,0,0,40567.6,2.44065e-05,-0.000287149,-2.72557,21,0.0000000E+000,10,7.82644e-07,-2.56454, , , ,-0.0002871489,
2,0,0,1,0,40567.6,0.0013005,0.000946746,-1.41349,21,-4.12983e-05,10,-1.33822e-06,-2.84971, , , ,0.000946746,
2,0,0,1,0,40567.7,0.00279471,0.00249057,-0.477687,21,-6.36801e-05,10,-1.18971e-06,-3.32086,-0.00528546,-11.1627,521.344,0.00249057,
2,1,0,1,0,40567.7,0.00429425,0.00397422,0.142152,21,-6.70579e-05,10,5.64944e-07,-3.84725,-0.193367,-0.305119,363.079,0.00397422,
2,1,0,1,0,40567.7,0.00579379,0.00546329,0.590976,21,-5.72416e-05,10,3.22867e-06,-3.22843,0.00290499,20.3099,266.865,0.00546329,
2,1,0,1,0,40567.7,0.007288,0.00699893,0.927998,21,-3.77933e-05,10,6.495e-06,-3.03245,0.00901856,6.54207,203.234,0.00699893,
2,1,0,1,0,40567.8,0.00878882,0.00847293,1.19597,21,-1.07088e-05,10,1.01334e-05,-2.92228,0.016218,3.63794,158.826,0.00847293,
2,1,0,1,0,40567.8,0.0102896,0.00998685,1.41401,21,2.23398e-05,10,1.41216e-05,-2.84955,0.024749,2.38393,126.207,0.00998685,
2,1,0,1,0,40567.8,0.0117838,0.0114657,1.58573,21,6.0051e-05,10,1.81816e-05,-2.79977,0.0330651,1.78436,107.733,0.0114657,
2,1,0,1,0,40567.8,0.0132834,0.0129651,1.72661,21,0.000101772,10,2.23857e-05,-2.76281,0.0423685,1.39254,92.5616,0.0129651,
2,1,0,1,0,40567.9,0.0147816,0.0144591,1.84594,21,0.000146855,10,2.66907e-05,-2.73378,0.0552121,1.06861,76.4222,0.0144591,
2,1,0,1,0,40567.9,0.0162811,0.0159786,1.95822,21,0.000194876,10,3.12897e-05,-2.70814,0.067437,0.87489,66.2138,0.0159786,
2,1,0,1,0,40567.9,0.0177753,0.0174161,2.05054,21,0.000245193,10,3.57124e-05,-2.68813,0.0785452,0.75116,59.6731,0.0174161,
2,1,0,1,0,40567.9,0.0192761,0.0189202,2.12963,21,0.000297793,10,4.02931e-05,-2.6717,0.0888993,0.663672,55.0678,0.0189202,
2,1,0,1,0,40568,0.020777,0.0204796,2.20712,21,0.000352422,10,4.5201e-05,-2.65617,0.102712,0.574424,49.3529,0.0204796,
2,1,0,1,0,40568,0.0222712,0.0219702,2.2835,21,0.000408762,10,5.01691e-05,-2.6414,0.115778,0.509594,45.2308,0.0219702,
2,1,0,1,0,40568,0.0237707,0.0234567,2.35082,21,0.00046701,10,5.51424e-05,-2.62878,0.128805,0.458056,41.8654,0.0234567,
2,1,0,1,0,40568,0.0252703,0.0249463,2.40196,21,0.00052683,10,5.99199e-05,-2.61943,0.133816,0.440905,41.4646,0.0249463,
2,1,0,1,0,40568.1,0.0267645,0.0264456,2.46502,21,0.000587884,10,6.51889e-05,-2.60818,0.14447,0.408389,39.3651,0.0264456,
2,1,0,1,0,40568.1,0.0282653,0.0279591,2.53199,21,0.000650736,10,7.07921e-05,-2.59654,0.158844,0.371434,36.5936,0.0279591,
2,1,0,1,0,40568.1,0.0297648,0.0294599,2.58584,21,0.000715018,10,7.61788e-05,-2.5874,0.161943,0.364326,36.6529,0.0294599,
2,1,0,1,0,40568.1,0.031259,0.0309363,2.63378,21,0.000780385,10,8.14797e-05,-2.57942,0.160983,0.366497,37.6847,0.0309363,
2,1,0,1,0,40568.2,0.0327585,0.0324112,2.68579,21,0.000847268,10,8.70497e-05,-2.57093,0.174438,0.33823,35.5118,0.0324112,
2,1,0,1,0,40568.2,0.034258,0.0338993,2.74441,21,0.000915544,10,9.30334e-05,-2.56155,0.182343,0.323567,34.5798,0.0338993,
2,1,0,1,0,40568.2,0.0357576,0.0354291,2.7962,21,0.000985174,10,9.90669e-05,-2.55343,0.184209,0.320289,34.9305,0.03542909,
2,1,0,1,0,40568.2,0.0372518,0.0369474,2.84702,21,0.00105581,10,0.00010519,-2.54561,0.188614,0.312808,34.7876,0.0369474,
2,1,0,1,0,40568.3,0.0387526,0.0384116,2.8959,21,0.00112795,10,0.000111236,-2.53822,0.19823,0.297633,33.68,0.0384116,
2,1,0,1,0,40568.3,0.0402534,0.0399665,2.94863,21,0.00120139,10,0.000117847,-2.53038,0.209087,0.28218,32.4364,0.0399665,
2,1,0,1,0,40568.3,0.0417476,0.0413965,3.00664,21,0.00127589,10,0.000124464,-2.52192,0.204759,0.288144,33.6772,0.04139645,
2,1,0,1,0,40568.3,0.0432472,0.0429634,3.05018,21,0.00135187,10,0.000131046,-2.51567,0.214561,0.27498,32.7359,0.0429634,
2,1,0,1,0,40568.4,0.0447467,0.044419,3.09684,21,0.00142903,10,0.000137559,-2.50908,0.214511,0.275045,33.2598,0.044419,
2,1,0,1,0,40568.4,0.0462463,0.0459271,3.1467,21,0.00150745,10,0.000144519,-2.50214,0.222818,0.26479,32.4922,0.0459271,
2,1,0,1,0,40568.4,0.0477391,0.04741,3.19333,21,0.00158681,10,0.000151396,-2.49576,0.217635,0.271096,33.8112,0.04741,
2,1,0,1,0,40568.4,0.0492399,0.0489217,3.24444,21,0.00166771,10,0.000158724,-2.48886,0.228624,0.258065,32.6627,0.0489217,
2,1,0,1,0,40568.5,0.0507408,0.0504155,3.28563,21,0.00174978,10,0.000165647,-2.48338,0.248306,0.23761,30.5499,0.0504155,
2,1,0,1,0,40568.5,0.052235,0.0519058,3.33685,21,0.00183267,10,0.000173202,-2.47666,0.247852,0.238045,31.0031,0.0519058,
2,1,0,1,0,40568.5,0.0537345,0.0534166,3.39416,21,0.00191716,10,0.000181304,-2.46927,0.247694,0.238197,31.468,0.0534166,
2,1,0,1,0,40568.5,0.0552341,0.0549515,3.4338,21,0.00200288,10,0.000188692,-2.46423,0.248647,0.237284,31.7893,0.0549515,
2,1,0,1,0,40568.6,0.0567283,0.0564004,3.47385,21,0.00208936,10,0.000195927,-2.45919,0.289771,0.203609,27.6606,0.0564004,
2,1,0,1,0,40568.6,0.0582291,0.0579046,3.52306,21,0.00217724,10,0.000204001,-2.45308,0.294611,0.200264,27.5476,0.05790456,
2,1,0,1,0,40568.6,0.0597299,0.0594089,3.57426,21,0.00226629,10,0.000212343,-2.44681,0.276443,0.213426,29.7038,0.05940894,
2,1,0,1,0,40568.6,0.0612228,0.0608921,3.61269,21,0.00235612,10,0.000219984,-2.44217,0.286405,0.206002,29.0408,0.0608921,
2,1,0,1,0,40568.7,0.0627223,0.0624028,3.65231,21,0.0024474,10,0.000227915,-2.43743,0.303332,0.194506,27.7758,0.0624028,
2,1,0,1,0,40568.7,0.0642218,0.0639066,3.69346,21,0.00253967,10,0.000236036,-2.43257,0.313417,0.188247,27.2064,0.0639066,
2,1,0,1,0,40568.7,0.0657214,0.0653614,3.74144,21,0.00263306,10,0.000244546,-2.42696,0.293582,0.200966,29.3337,0.0653614,
2,1,0,1,0,40568.7,0.0672156,0.066906,3.78782,21,0.00272719,10,0.000253428,-2.42161,0.310834,0.189812,28.0083,0.066906,
2,1,0,1,0,40568.8,0.0687164,0.0683925,3.82359,21,0.00282272,10,0.000261505,-2.41753,0.35471,0.166333,24.8312,0.06839253,
2,1,0,1,0,40568.8,0.0702172,0.0698741,3.86311,21,0.00291919,10,0.000269931,-2.41306,0.352147,0.167544,25.2722,0.0698741,
2,1,0,1,0,40568.8,0.0717115,0.0713945,3.90258,21,0.00301622,10,0.000278623,-2.40865,0.350963,0.168109,25.5733,0.0713945,
2,1,0,1,0,40568.8,0.073211,0.0728985,3.93781,21,0.00311462,10,0.00028706,-2.40475,0.362205,0.162891,25.0362,0.0728985,
2,1,0,1,0,40568.9,0.0747105,0.0743636,3.97321,21,0.00321394,10,0.000295462,-2.40086,0.389881,0.151328,23.4818,0.0743636,
2,1,0,1,0,40568.9,0.0762101,0.0758661,4.00486,21,0.00331414,10,0.000303833,-2.39741,0.460926,0.128003,20.0316,0.0758661,
2,1,0,1,0,40568.9,0.0777042,0.0773872,4.04685,21,0.00341474,10,0.000313174,-2.39288,0.415542,0.141983,22.411,0.0773872,
2,1,0,1,0,40568.9,0.0792037,0.078881,4.07857,21,0.00351661,10,0.000321722,-2.38949,0.387733,0.152166,24.1991,0.07888101,
2,1,0,1,0,40569,0.0807046,0.0803849,4.10758,21,0.00361938,10,0.000330188,-2.38641,0.47048,0.125404,20.0989,0.0803849,
2,1,0,1,0,40569,0.0821988,0.0818711,4.13794,21,0.00372249,10,0.000338777,-2.38322,0.543197,0.108616,17.5484,0.0818711,
2,1,0,1,0,40569,0.0836983,0.0833777,4.17074,21,0.00382673,10,0.000347747,-2.37979,0.494645,0.119277,19.4063,0.0833777,
2,1,0,1,0,40569,0.0851979,0.0849246,4.20265,21,0.00393174,10,0.000356908,-2.37648,0.441622,0.133598,21.9103,0.0849246,
2,1,0,1,0,40569.1,0.0866921,0.0864122,4.22733,21,0.00403709,10,0.000365293,-2.37393,0.534183,0.110449,18.2452,0.0864122,
2,1,0,1,0,40569.1,0.0881929,0.0878686,4.26083,21,0.0041436,10,0.000374393,-2.37051,0.589934,0.100011,16.6271,0.0878686,
2,1,0,1,0,40569.1,0.0896937,0.0893981,4.29603,21,0.00425075,10,0.000384057,-2.36693,0.481922,0.122426,20.4803,0.0893981,
2,1,0,1,0,40569.1,0.0911879,0.090854,4.32157,21,0.00435827,10,0.000392632,-2.36436,0.40997,0.143913,24.2587,0.090854,
2,1,0,1,0,40569.2,0.0926861,0.0923869,4.35044,21,0.00446705,10,0.000401924,-2.36147,0.44272,0.133267,22.6542,0.0923869,
2,1,0,1,0,40569.2,0.0941856,0.0938399,4.39021,21,0.00457668,10,0.000411977,-2.35751,0.480751,0.122725,21.0182,0.0938399,
2,1,0,1,0,40569.2,0.0956852,0.0953478,4.42632,21,0.00468719,10,0.000422039,-2.35396,0.413597,0.142651,24.6304,0.0953478,
2,1,0,1,0,40569.2,0.0971794,0.0968728,4.463,21,0.00479816,10,0.000432344,-2.35037,0.342792,0.172116,30.0045,0.0968728,
2,1,0,1,0,40569.3,0.0986802,0.0983438,4.50589,21,0.00491065,10,0.000443126,-2.34622,0.351101,0.168043,29.5853,0.0983438,
2,1,0,1,0,40569.3,0.100181,0.0998607,4.557,21,0.00502428,10,0.000455066,-2.34132,0.348271,0.169408,30.0998,0.0998607,
2,1,0,1,0,40569.3,0.101675,0.101348,4.60434,21,0.00513865,10,0.00046664,-2.33683,0.294216,0.200533,36.0384,0.101348,
2,1,0,1,0,40569.3,0.103175,0.102835,4.66374,21,0.00525472,10,0.000479596,-2.33127,0.268943,0.219377,39.9262,0.102835,
2,1,0,1,0,40569.4,0.104674,0.104366,4.71546,21,0.00537231,10,0.000492132,-2.32648,0.255365,0.231042,42.579,0.104366,
2,1,0,1,0,40569.4,0.106169,0.10582,4.78387,21,0.00549101,10,0.000506229,-2.32022,0.267991,0.220157,41.1181,0.10582,
2,1,0,1,0,40569.4,0.107668,0.107384,4.85185,21,0.00561178,10,0.000521011,-2.31409,0.243386,0.242413,45.9016,0.1073839,
2,1,0,1,0,40569.4,0.109169,0.108821,4.92109,21,0.00573424,10,0.000535517,-2.30794,0.222844,0.264759,50.8902,0.108821,
2,1,0,1,0,40569.5,0.110663,0.110295,4.98931,21,0.00585806,10,0.000550297,-2.30196,0.228495,0.258211,50.3555,0.110295,
2,1,0,1,0,40569.5,0.112163,0.111826,5.07346,21,0.00598431,10,0.000567345,-2.2947,0.245465,0.24036,47.5639,0.111826,
2,1,0,1,0,40569.5,0.113662,0.113319,5.15069,21,0.0061124,10,0.000583671,-2.28813,0.249175,0.236782,47.5034,0.113319,
2,1,0,1,0,40569.5,0.115162,0.114822,5.21766,21,0.00624232,10,0.000599103,-2.28252,0.239077,0.246783,50.2455,0.114822,
2,1,0,1,0,40569.6,0.116656,0.116326,5.28826,21,0.00637354,10,0.000615162,-2.27669,0.244466,0.241342,49.8584,0.116326,
2,1,0,1,0,40569.6,0.118157,0.117857,5.37107,21,0.0065072,10,0.000633018,-2.26994,0.26235,0.224891,47.0874,0.117857,
2,1,0,1,0,40569.6,0.119658,0.119342,5.44319,21,0.00664269,10,0.000649602,-2.26415,0.291221,0.202595,42.9267,0.119342,
2,1,0,1,0,40569.6,0.121152,0.120814,5.49754,21,0.00677921,10,0.000664182,-2.25983,0.297586,0.198262,42.5346,0.120814,
2,1,0,1,0,40569.7,0.122651,0.122331,5.55872,21,0.00691785,10,0.000680001,-2.25503,0.30473,0.193614,41.9885,0.122331,
2,1,0,1,0,40569.7,0.124151,0.123813,5.62065,21,0.00705797,10,0.000695909,-2.25021,0.351748,0.167734,36.7814,0.123813,
2,1,0,1,0,40569.7,0.125649,0.125354,5.68116,21,0.00719955,10,0.000712154,-2.24556,0.393346,0.149995,33.1666,0.125354,
2,1,0,1,0,40569.7,0.127143,0.126811,5.71472,21,0.00734183,10,0.000724687,-2.243,0.405633,0.145452,32.458,0.126811,
2,1,0,1,0,40569.8,0.128644,0.128308,5.7625,21,0.00748575,10,0.000739374,-2.23939,0.462936,0.127447,28.6714,0.128308,
2,1,0,1,0,40569.8,0.130145,0.129807,5.81177,21,0.00763083,10,0.000754412,-2.23569,0.503767,0.117118,26.5377,0.129807,
2,1,0,1,0,40569.8,0.131639,0.131343,5.85402,21,0.00777637,10,0.000768884,-2.23255,0.56641,0.104165,23.7456,0.131343,
2,1,0,1,0,40569.8,0.133139,0.132813,5.88128,21,0.00792344,10,0.000781113,-2.23053,0.583907,0.101044,23.1909,0.132813,
2,1,0,1,0,40569.9,0.134638,0.134337,5.9075,21,0.00807122,10,0.000793598,-2.2286,0.661914,0.0891355,20.5918,0.1343375,
2,1,0,1,0,40569.9,0.136132,0.135837,5.94537,21,0.00821918,10,0.000807601,-2.22582,0.817402,0.0721799,16.7333,0.135837,
2,1,0,1,0,40569.9,0.137633,0.137353,5.97683,21,0.00836849,10,0.000820937,-2.22353,0.897527,0.0657362,15.2924,0.137353,
2,1,0,1,0,40569.9,0.139133,0.138796,5.99292,21,0.00851836,10,0.000831796,-2.22236,1.08714,0.0542706,12.6667,0.138796,
2,1,0,1,0,40570,0.140627,0.140334,5.99924,21,0.00866802,10,0.000841896,-2.2219,1.86285,0.0316719,7.41544,0.140334,
2,1,0,1,0,40570,0.142126,0.141832,6.0078,21,0.00881854,10,0.000852101,-2.22128,10.6874,0.00552052,1.29293,0.141832,
2,1,0,1,0,40570,0.143626,0.143337,6.01343,21,0.00896915,10,0.000861947,-2.22088,-2.14234,-0.02754,-6.44245,0.143337,
2,1,0,1,0,40570,0.145125,0.144821,5.99097,21,0.00911953,10,0.000867616,-2.2225,-0.797032,-0.0740247,-17.2597,0.144821,
2,1,0,1,0,40570.1,0.14662,0.146311,5.94695,21,0.00926859,10,0.000870108,-2.22571,-0.487892,-0.120928,-28.0321,0.146311,
2,1,0,1,0,40570.1,0.14812,0.147804,5.90009,21,0.00941715,10,0.000872056,-2.22914,-0.312838,-0.188596,-43.3051,0.147804,
2,1,0,1,0,40570.1,0.149621,0.149314,5.8386,21,0.00956423,10,0.000871785,-2.23369,-0.244403,-0.241405,-54.7259,0.149314,
2,1,0,1,0,40570.1,0.151116,0.15079,5.74211,21,0.00970869,10,0.000865854,-2.24093,-0.194819,-0.302846,-67.5567,0.15079,
2,1,0,1,0,40570.2,0.152615,0.152278,5.61623,21,0.00985113,10,0.00085523,-2.25055,-0.152919,-0.385824,-84.4577,0.152278,
2,1,0,1,0,40570.2,0.154115,0.153792,5.48704,21,0.00999039,10,0.000843863,-2.26066,-0.130113,-0.453453,-96.9263,0.153792,
2,1,0,1,0,40570.2,0.155614,0.155264,5.34665,21,0.0101262,10,0.00083014,-2.27192,-0.118535,-0.497742,-103.448,0.155264,
2,1,0,1,0,40570.2,0.157107,0.156812,5.17912,21,0.0102575,10,0.000812149,-2.28574,-0.107503,-0.548822,-110.516,0.156812,
2,1,0,1,0,40570.3,0.158608,0.158311,5.00169,21,0.0103852,10,0.000791822,-2.30088,-0.0967279,-0.609958,-118.931,0.158311,
2,1,0,1,0,40570.3,0.160109,0.159766,4.82275,21,0.0105083,10,0.000770513,-2.31671,-0.0908278,-0.649581,-122.208,0.159766,
2,1,0,1,0,40570.3,0.161603,0.16132,4.65075,21,0.0106266,10,0.000750261,-2.33248,-0.0926043,-0.63712,-115.423,0.16132,
2,1,0,1,0,40570.3,0.163102,0.16278,4.47569,21,0.0107409,10,0.000728552,-2.34914,-0.0916936,-0.643447,-112.41,0.16278,
2,1,0,1,0,40570.4,0.164602,0.164258,4.30347,21,0.010851,10,0.000706877,-2.36618,-0.090341,-0.653081,-109.855,0.164258,
2,1,0,1,0,40570.4,0.166096,0.165724,4.14456,21,0.0109565,10,0.000686851,-2.38252,-0.093591,-0.630402,-102.269,0.165724,
2,1,0,1,0,40570.4,0.167597,0.167245,4.00873,21,0.0110586,10,0.000670441,-2.39699,-0.101593,-0.580746,-90.8212,0.167245,
2,1,0,1,0,40570.4,0.169098,0.16876,3.87355,21,0.0111574,10,0.000653699,-2.41189,-0.107036,-0.551214,-83.385,0.16876,
2,1,0,1,0,40570.5,0.170592,0.170279,3.74438,21,0.0112526,10,0.00063759,-2.42662,-0.106522,-0.553878,-81.1702,0.170279,
2,1,0,1,0,40570.5,0.17209,0.171787,3.62731,21,0.0113452,10,0.000623125,-2.44041,-0.117655,-0.501464,-71.2755,0.171787,
2,1,0,1,0,40570.5,0.17359,0.17327,3.5331,21,0.011435,10,0.000612183,-2.45184,-0.123994,-0.47583,-65.6845,0.17327,
2,1,0,1,0,40570.5,0.175089,0.17478,3.4421,21,0.0115224,10,0.00060161,-2.46318,-0.135807,-0.43444,-58.3745,0.17478,
2,1,0,1,0,40570.6,0.176583,0.176307,3.35089,21,0.0116073,10,0.000590788,-2.47484,-0.14605,-0.403971,-52.9257,0.176307,
2,1,0,1,0,40570.6,0.178084,0.17779,3.27034,21,0.0116905,10,0.000581434,-2.48541,-0.146917,-0.401586,-51.4128,0.17779,
2,1,0,1,0,40570.6,0.179585,0.179272,3.20832,21,0.0117719,10,0.000575162,-2.49372,-0.163325,-0.361244,-45.2489,0.179272,
2,1,0,1,0,40570.6,0.181079,0.180751,3.14746,21,0.0118513,10,0.000568906,-2.50204,-0.184931,-0.319038,-39.1934,0.180751,
2,1,0,1,0,40570.7,0.182579,0.182243,3.0834,21,0.0119295,10,0.000561927,-2.51097,-0.200235,-0.294653,-35.533,0.182243,
2,1,0,1,0,40570.7,0.184078,0.183717,3.03349,21,0.0120064,10,0.000557303,-2.51806,-0.200363,-0.294466,-34.9105,0.183717,
2,1,0,1,0,40570.7,0.185578,0.185239,2.99044,21,0.0120819,10,0.000553946,-2.52426,-0.22545,-0.261699,-30.5418,0.185239,
2,1,0,1,0,40570.7,0.187072,0.186733,2.94314,21,0.0121561,10,0.000549581,-2.53119,-0.266516,-0.221375,-25.4412,0.1867329,
2,1,0,1,0,40570.8,0.188573,0.188205,2.90199,21,0.0122296,10,0.000546169,-2.5373,-0.275233,-0.214364,-24.3109,0.188205,
2,1,0,1,0,40570.8,0.190072,0.189732,2.87038,21,0.0123021,10,0.000544601,-2.54206,-0.26188,-0.225294,-25.268,0.1897316,
2,1,0,1,0,40570.8,0.191567,0.191223,2.83985,21,0.0123735,10,0.000543046,-2.5467,-0.298828,-0.197438,-21.8623,0.191223,
2,1,0,1,0,40570.8,0.193066,0.192723,2.80316,21,0.0124443,10,0.000540234,-2.55235,-0.407259,-0.144871,-15.868,0.1927233,
2,1,0,1,0,40570.9,0.194566,0.194249,2.77501,21,0.0125145,10,0.000539044,-2.55673,-0.393073,-0.150099,-16.2973,0.194249,
2,1,0,1,0,40570.9,0.19606,0.195767,2.75204,21,0.0125837,10,0.00053876,-2.56035,-0.333992,-0.176651,-19.0017,0.195767,
2,1,0,1,0,40570.9,0.197561,0.197214,2.72747,21,0.0126526,10,0.000537894,-2.56424,-0.391809,-0.150584,-16.0299,0.197214,
2,1,0,1,0,40570.9,0.199062,0.198735,2.71022,21,0.0127209,10,0.000538617,-2.567,-0.458825,-0.128589,-13.5943,0.198735,
2,1,0,1,0,40571,0.200556,0.20024,2.68685,21,0.0127884,10,0.000538014,-2.57076,-0.533962,-0.110495,-11.5953,0.20024,
2,1,0,1,0,40571,0.202055,0.201735,2.66695,21,0.0128557,10,0.000538018,-2.57399,-0.43668,-0.13511,-14.0683,0.201735,
2,1,0,1,0,40571,0.203553,0.203202,2.65358,21,0.0129226,10,0.000539212,-2.57617,-0.473272,-0.124664,-12.9055,0.203202,
2,1,0,1,0,40571,0.205053,0.204703,2.63634,21,0.0129889,10,0.000539667,-2.579,-0.748314,-0.0788439,-8.12603,0.204703,
2,1,0,1,0,40571.1,0.206547,0.206232,2.61704,21,0.0130547,10,0.000539716,-2.58219,-0.901935,-0.0654149,-6.70215,0.206232,
2,1,0,1,0,40571.1,0.208048,0.207713,2.61316,21,0.0131205,10,0.000542789,-2.58283,-0.599607,-0.0983977,-10.0153,0.207713,
2,1,0,1,0,40571.1,0.209549,0.209262,2.59992,21,0.013186,10,0.000544066,-2.58504,-0.545323,-0.108193,-10.9521,0.209262,
2,1,0,1,0,40571.1,0.211043,0.210714,2.58367,21,0.0132508,10,0.000544415,-2.58776,-0.822297,-0.0717502,-7.22752,0.210714,
2,1,0,1,0,40571.2,0.212543,0.212229,2.57082,21,0.0133155,10,0.000545603,-2.58993,-0.941216,-0.0626849,-6.29074,0.212229,
2,1,0,1,0,40571.2,0.214042,0.213728,2.55896,21,0.01338,10,0.000546921,-2.59194,-0.8613,-0.0685011,-6.84317,0.213728,
2,1,0,1,0,40571.2,0.215536,0.215178,2.55235,21,0.0134439,10,0.000549211,-2.59306,-0.674876,-0.0874235,-8.69144,0.215178,
2,1,0,1,0,40571.2,0.217036,0.216708,2.53838,21,0.0135079,10,0.000550089,-2.59544,-1.3316,-0.0443077,-4.39037,0.216708,
2,1,0,1,0,40571.3,0.218537,0.218217,2.52878,21,0.0135715,10,0.000551822,-2.59709,-1.45048,-0.0406762,-4.01785,0.218217,
2,1,0,1,0,40571.3,0.220031,0.21973,2.52434,21,0.0136348,10,0.000554675,-2.59785,-1.04401,-0.056513,-5.56248,0.2197303,
2,1,0,1,0,40571.3,0.22153,0.221211,2.51715,21,0.0136981,10,0.00055682,-2.59909,-0.966468,-0.061047,-5.98624,0.221211,
2,1,0,1,0,40571.3,0.22303,0.222711,2.50385,21,0.0137612,10,0.000557636,-2.60139,-1.39051,-0.0424305,-4.14911,0.222711,
2,1,0,1,0,40571.4,0.224529,0.224199,2.49623,21,0.0138241,10,0.00055965,-2.60272,-1.39197,-0.042386,-4.13774,0.224199,
2,1,0,1,0,40571.4,0.226024,0.225712,2.4909,21,0.0138866,10,0.000562227,-2.60364,-0.952732,-0.0619272,-6.02557,0.225712,
2,1,0,1,0,40571.4,0.227525,0.227233,2.48783,21,0.0139492,10,0.000565318,-2.60418,-0.917242,-0.0643233,-6.23129,0.227233,
2,1,0,1,0,40571.4,0.229025,0.228748,2.47826,21,0.0140116,10,0.000566898,-2.60585,-1.27482,-0.0462812,-4.4742,0.228748,
2,1,0,1,0,40571.5,0.23052,0.230219,2.46593,21,0.0140735,10,0.000567705,-2.60802,-2.1898,-0.0269431,-2.59779,0.230219,
2,1,0,1,0,40571.5,0.232019,0.231736,2.46247,21,0.0141355,10,0.000570643,-2.60863,-1.29339,-0.0456164,-4.3919,0.231736,
2,1,0,1,0,40571.5,0.233519,0.233215,2.46267,21,0.0141974,10,0.000574331,-2.60859,-2.0235,-0.0291575,-2.79733,0.233215,
2,1,0,1,0,40571.5,0.235018,0.234675,2.45469,21,0.0142593,10,0.000576055,-2.61,-3.11999,-0.0189103,-1.81032,0.234675,
2,1,0,1,0,40571.6,0.236511,0.236168,2.44176,21,0.0143206,10,0.000576665,-2.6123,-1.76059,-0.0335115,-3.205,0.236168,
2,1,0,1,0,40571.6,0.238012,0.237698,2.43927,21,0.0143821,10,0.00057981,-2.61274,-1.91362,-0.0308317,-2.93882,0.2376983,
2,1,0,1,0,40571.6,0.239513,0.239213,2.4452,21,0.0144435,10,0.000584924,-2.61169,-1.96015,-0.0300997,-2.86245,0.239213,
2,1,0,1,0,40571.6,0.241007,0.240703,2.43613,21,0.0145045,10,0.000586384,-2.6133,-1.68963,-0.0349189,-3.31387,0.240703,
2,1,0,1,0,40571.7,0.242506,0.242236,2.42384,21,0.0145657,10,0.000587141,-2.6155,-1.71965,-0.0343093,-3.25719,0.242236,
2,1,0,1,0,40571.7,0.244006,0.243677,2.42043,21,0.0146266,10,0.000589803,-2.61611,-1.2185,-0.0484203,-4.58626,0.243677,
2,1,0,1,0,40571.7,0.2455,0.245202,2.42794,21,0.0146873,10,0.000595335,-2.61476,-1.79234,-0.0329179,-3.11161,0.245202,
2,1,0,1,0,40571.7,0.247001,0.246729,2.41862,21,0.0147482,10,0.000596745,-2.61643,-2.94129,-0.0200592,-1.88932,0.246729,
2,1,0,1,0,40571.8,0.248502,0.248213,2.40709,21,0.0148089,10,0.00059747,-2.61851,-1.70248,-0.0346553,-3.26195,0.248213,
2,1,0,1,0,40571.8,0.249995,0.249658,2.406,21,0.0148692,10,0.000600679,-2.6187,-1.50925,-0.0390922,-3.67235,0.249658,
2,1,0,1,0,40571.8,0.251494,0.251175,2.40281,21,0.0149297,10,0.000603527,-2.61928,-2.01942,-0.0292164,-2.73941,0.251175,
2,1,0,1,0,40571.8,0.252994,0.252663,2.40053,21,0.0149901,10,0.000606525,-2.61969,-2.02573,-0.0291253,-2.72086,0.2526629,
2,1,0,1,0,40571.9,0.254493,0.2542,2.39243,21,0.0150504,10,0.000608155,-2.62116,-1.71383,-0.0344257,-3.2196,0.2542,
2,1,0,1,0,40571.9,0.255988,0.255641,2.38703,21,0.0151103,10,0.000610221,-2.62214,-1.40623,-0.0419562,-3.91824,0.255641,
2,1,0,1,0,40571.9,0.257488,0.257184,2.38811,21,0.0151703,10,0.000614183,-2.62195,-2.05272,-0.0287424,-2.67555,0.257184,
2,1,0,1,0,40571.9,0.258989,0.258712,2.38326,21,0.0152304,10,0.00061658,-2.62283,-3.59678,-0.0164036,-1.52438,0.258712,
2,1,0,1,0,40572,0.260483,0.260195,2.37926,21,0.01529,10,0.000619071,-2.62356,-1.38615,-0.0425639,-3.95382,0.260195,
2,1,0,1,0,40572,0.261983,0.261641,2.37124,21,0.0153498,10,0.000620413,-2.62502,-1.39961,-0.0421547,-3.91297,0.261641,
2,1,0,1,0,40572,0.263482,0.263164,2.37348,21,0.0154095,10,0.000624616,-2.62461,-2.76239,-0.0213583,-1.97568,0.263164,
2,1,0,1,0,40572,0.264982,0.264706,2.371,21,0.0154692,10,0.000627617,-2.62507,-2.8976,-0.0203617,-1.88138,0.264706,
2,1,0,1,0,40572.1,0.266476,0.266184,2.36076,21,0.0155285,10,0.000628395,-2.62695,-2.90683,-0.0202971,-1.87469,0.266184,
2,1,0,1,0,40572.1,0.267976,0.267666,2.35735,21,0.0155879,10,0.000630984,-2.62758,-1.82596,-0.0323117,-2.98218,0.267666,
2,1,0,1,0,40572.1,0.269477,0.269164,2.36181,21,0.0156472,10,0.000635713,-2.62676,-2.28448,-0.0258264,-2.3751,0.269164,
2,1,0,1,0,40572.1,0.270971,0.270677,2.36041,21,0.0157062,10,0.00063891,-2.62701,-4.90041,-0.0120398,-1.10528,0.270677,
2,1,0,1,0,40572.2,0.27247,0.272158,2.35118,21,0.0157654,10,0.000639891,-2.62871,-1.92288,-0.0306831,-2.81237,0.272158,
2,1,0,1,0,40572.2,0.27397,0.273637,2.34091,21,0.0158245,10,0.000640559,-2.63062,-1.24227,-0.0474937,-4.35646,0.273637,
2,1,0,1,0,40572.2,0.275464,0.275103,2.34197,21,0.0158832,10,0.000644285,-2.63042,-1.39645,-0.0422499,-3.86823,0.275103,
2,1,0,1,0,40572.2,0.276965,0.276643,2.34213,21,0.0159421,10,0.000647933,-2.63039,-3.64344,-0.0161935,-1.47766,0.276643,
2,1,0,1,0,40572.3,0.278466,0.27815,2.33306,21,0.0160009,10,0.000648939,-2.63207,-2.83907,-0.0207814,-1.89367,0.27815,
2,1,0,1,0,40572.3,0.27996,0.279656,2.33101,21,0.0160593,10,0.000651881,-2.63246,-1.55235,-0.0380068,-3.4593,0.2796562,
2,1,0,1,0,40572.3,0.281458,0.281127,2.32846,21,0.0161179,10,0.000654592,-2.63293,-2.21491,-0.0266376,-2.41785,0.281127,
2,1,0,1,0,40572.3,0.282958,0.282633,2.32612,21,0.0161763,10,0.000657438,-2.63337,-6.70254,-0.00880263,-0.798147,0.282633,
2,1,0,1,0,40572.4,0.284457,0.284131,2.31921,21,0.0162348,10,0.000658958,-2.63466,-3.98755,-0.0147961,-1.34063,0.2841309,
2,1,0,1,0,40572.4,0.285951,0.285627,2.31491,21,0.0162929,10,0.000661199,-2.63547,-1.36166,-0.0433295,-3.92148,0.285627,
2,1,0,1,0,40572.4,0.287452,0.287101,2.31137,21,0.016351,10,0.000663595,-2.63613,-1.4738,-0.0400326,-3.61297,0.287101,
2,1,0,1,0,40572.4,0.288953,0.288649,2.31143,21,0.0164091,10,0.000667192,-2.63612,-45.859,-0.00128655,-0.115811,0.288649,
2,1,0,1,0,40572.5,0.290447,0.290138,2.30127,21,0.0164669,10,0.000667684,-2.63803,-3.48256,-0.0169416,-1.52447,0.290138,
2,1,0,1,0,40572.5,0.291947,0.291616,2.29705,21,0.0165248,10,0.000669858,-2.63883,-1.2064,-0.048906,-4.39739,0.2916162,
2,1,0,1,0,40572.5,0.293446,0.293101,2.29812,21,0.0165826,10,0.000673581,-2.63863,-2.0352,-0.0289898,-2.59691,0.293101,
2,1,0,1,0,40572.5,0.29494,0.294607,2.29102,21,0.0166401,10,0.00067495,-2.63997,-3.56241,-0.0165618,-1.48181,0.294607,
2,1,0,1,0,40572.6,0.29644,0.29616,2.28867,21,0.0166977,10,0.000677812,-2.64042,-4.02853,-0.0146455,-1.30953,0.29616,
2,1,0,1,0,40572.6,0.297941,0.297612,2.28395,21,0.0167553,10,0.000679732,-2.64131,-1.37848,-0.0428009,-3.81489,0.297612,
2,1,0,1,0,40572.6,0.29944,0.299112,2.28055,21,0.0168127,10,0.000682142,-2.64196,-0.00872038,-6.76576,-480.429,0.299112,
2,1,0,1,0,40572.6,0.299736,0.299451,1.89767,21,0.0168425,10,0.000568258,-2.72178,0.00199226,29.6146,1414.74,0.299451,
2,1,0,1,0,40572.7,0.298238,0.297925,0.782064,21,0.0168737,10,0.000232996,-3.10676,0.00260677,22.6333,595.945,0.297925,
2,1,0,1,0,40572.7,0.296744,0.296443,0.225756,21,0.0168852,10,6.69239e-05,-3.64636,0.00542539,10.8748,316.276,0.296443,
2,0,0,1,0,40572.7,0.295243,0.294935,-0.113508,21,0.0168859,10,-3.34775e-05,-3.94497,-0.278802,-0.21162,190.065,0.2949346,
2,0,0,1,0,40572.7,0.293742,0.293431,-0.339036,21,0.0168797,10,-9.94835e-05,-3.46975,-0.00256676,-22.9862,126.636,0.293431,
2,0,0,1,0,40572.8,0.292248,0.291912,-0.485229,21,0.016869,10,-0.000141644,-3.31405,-0.0103349,-5.70882,94.6204,0.291912,
2,0,0,1,0,40572.8,0.290748,0.2904,-0.603209,21,0.016855,10,-0.000175172,-3.21953,-0.018515,-3.18661,70.6656,0.2904,
2,0,0,1,0,40572.8,0.289249,0.288958,-0.691028,21,0.0168384,10,-0.000199678,-3.1605,-0.0276861,-2.13104,55.9133,0.288958,
2,0,0,1,0,40572.8,0.287754,0.287442,-0.77283,21,0.0168197,10,-0.000222144,-3.11192,-0.0376805,-1.5658,45.8782,0.287442,
2,0,0,1,0,40572.9,0.286254,0.285956,-0.826713,21,0.0167993,10,-0.000236404,-3.08265,-0.047141,-1.25156,40.0985,0.285956,
2,0,0,1,0,40572.9,0.284754,0.284437,-0.879533,21,0.0167775,10,-0.000250172,-3.05575,-0.058835,-1.0028,34.341,0.284437,
2,0,0,1,0,40572.9,0.28326,0.282936,-0.930946,21,0.0167546,10,-0.000263398,-3.03108,-0.0743875,-0.793144,28.6437,0.282936,
2,0,0,1,0,40572.9,0.28176,0.281484,-0.972984,21,0.0167304,10,-0.00027388,-3.01189,-0.0869796,-0.67832,25.5809,0.281484,
2,0,0,1,0,40573,0.280261,0.279962,-1.0007,21,0.0167052,10,-0.000280158,-2.9997,-0.0872133,-0.676502,26.5723,0.279962,
2,0,0,1,0,40573,0.278761,0.27845,-1.03923,21,0.0166791,10,-0.000289374,-2.98329,-0.11145,-0.529385,21.5452,0.27845,
2,0,0,1,0,40573,0.277267,0.276932,-1.07732,21,0.0166523,10,-0.000298343,-2.96766,-0.125333,-0.470745,19.7091,0.276932,
2,0,0,1,0,40573,0.275766,0.275445,-1.11215,21,0.0166245,10,-0.000306337,-2.95384,-0.134756,-0.437828,18.8304,0.275445,
2,0,0,1,0,40573.1,0.274265,0.273916,-1.1364,21,0.0165961,10,-0.000311278,-2.94447,-0.139945,-0.421595,18.6823,0.273916,
2,0,0,1,0,40573.1,0.272771,0.272478,-1.1614,21,0.0165671,10,-0.000316455,-2.93502,-0.153565,-0.384202,17.4535,0.272478,
2,0,0,1,0,40573.1,0.271272,0.27094,-1.18545,21,0.0165373,10,-0.000321187,-2.92612,-0.172554,-0.341922,15.8459,0.27094,
2,0,0,1,0,40573.1,0.269772,0.269455,-1.2187,21,0.0165068,10,-0.000328386,-2.9141,-0.16763,-0.351966,16.6393,0.269455,
2,0,0,1,0,40573.2,0.268273,0.267953,-1.23731,21,0.0164758,10,-0.00033154,-2.90752,-0.179544,-0.32861,15.8495,0.267953,
2,0,0,1,0,40573.2,0.26678,0.266441,-1.25075,21,0.0164443,10,-0.000333252,-2.90283,-0.195579,-0.301669,14.8407,0.266441,
2,0,0,1,0,40573.2,0.265279,0.26498,-1.27762,21,0.0164122,10,-0.000338544,-2.8936,-0.19487,-0.302765,15.1105,0.26498,
2,0,0,1,0,40573.2,0.263778,0.263488,-1.30235,21,0.0163796,10,-0.000343154,-2.88527,-0.23232,-0.25396,12.8657,0.263488,
2,0,0,1,0,40573.3,0.262284,0.261959,-1.31979,21,0.0163465,10,-0.000345732,-2.87949,-0.215634,-0.273612,14.074,0.261959,
2,0,0,1,0,40573.3,0.260784,0.260434,-1.33363,21,0.0163129,10,-0.000347321,-2.87497,-0.242864,-0.242934,12.7104,0.260434,
2,0,0,1,0,40573.3,0.259285,0.258977,-1.35297,21,0.0162788,10,-0.000350388,-2.86871,-0.287352,-0.205323,10.8829,0.258977,
2,0,0,1,0,40573.3,0.257791,0.257476,-1.38394,21,0.0162444,10,-0.000356331,-2.85888,-0.267263,-0.220757,11.8132,0.257476,
2,0,0,1,0,40573.4,0.25629,0.255952,-1.39551,21,0.0162094,10,-0.000357184,-2.85527,-0.283426,-0.208168,11.3105,0.255952,
2,0,0,1,0,40573.4,0.254789,0.254491,-1.40576,21,0.016174,10,-0.000357753,-2.85209,-0.305978,-0.192824,10.6054,0.254491,
2,0,0,1,0,40573.4,0.253296,0.252963,-1.42549,21,0.0161384,10,-0.000360596,-2.84604,-0.352882,-0.167195,9.29835,0.252963,
2,0,0,1,0,40573.4,0.251797,0.251451,-1.44473,21,0.0161022,10,-0.000363279,-2.84021,-0.286917,-0.205635,11.5559,0.251451,
2,0,0,1,0,40573.5,0.250297,0.249983,-1.45633,21,0.0160655,10,-0.000364058,-2.83674,-0.315587,-0.186953,10.595,0.249983,
2,0,0,1,0,40573.5,0.248797,0.24853,-1.46762,21,0.0160285,10,-0.000364747,-2.83339,-0.344257,-0.171384,9.86933,0.24853,
2,0,0,1,0,40573.5,0.247303,0.246992,-1.48872,21,0.0159913,10,-0.000367701,-2.82719,-0.404826,-0.145742,8.46481,0.2469918,
2,0,0,1,0,40573.5,0.245802,0.245466,-1.50513,21,0.0159536,10,-0.000369457,-2.82243,-0.339077,-0.174002,10.1704,0.245466,
2,0,0,1,0,40573.6,0.244302,0.244009,-1.5192,21,0.0159154,10,-0.000370699,-2.81838,-0.266431,-0.221446,13.103,0.244009,
2,0,0,1,0,40573.6,0.242807,0.242476,-1.53083,21,0.015877,10,-0.000371189,-2.81507,-0.377317,-0.156367,9.33809,0.242476,
2,0,0,1,0,40573.6,0.241308,0.241017,-1.54125,21,0.0158382,10,-0.000371468,-2.81213,-0.443869,-0.132922,8.01762,0.241017,
2,0,0,1,0,40573.6,0.239808,0.239515,-1.56142,21,0.015799,10,-0.000373984,-2.80648,-0.351171,-0.168009,10.213,0.239515,
2,0,0,1,0,40573.7,0.238309,0.23798,-1.57135,21,0.0157595,10,-0.00037395,-2.80373,-0.36689,-0.160811,9.87191,0.23798,
2,0,0,1,0,40573.7,0.236815,0.236485,-1.58448,21,0.0157197,10,-0.000374706,-2.80011,-0.436513,-0.135162,8.36816,0.236485,
2,0,0,1,0,40573.7,0.235315,0.234981,-1.59542,21,0.0156795,10,-0.000374894,-2.79712,-0.483979,-0.121906,7.60979,0.234981,
2,0,0,1,0,40573.7,0.233814,0.233475,-1.61613,21,0.0156391,10,-0.000377327,-2.79152,-0.406403,-0.145176,9.12331,0.233475,
2,0,0,1,0,40573.8,0.23232,0.231951,-1.62515,21,0.0155984,10,-0.000376955,-2.78911,-0.385727,-0.152958,9.68393,0.231951,
2,0,0,1,0,40573.8,0.230821,0.230507,-1.63498,21,0.0155572,10,-0.000376873,-2.78649,-0.511865,-0.115265,7.3659,0.230507,
2,0,0,1,0,40573.8,0.229321,0.229003,-1.649,21,0.0155156,10,-0.000377626,-2.78278,-0.535397,-0.110199,7.09836,0.229003,
2,0,0,1,0,40573.8,0.227827,0.227499,-1.66646,21,0.015474,10,-0.000379119,-2.7782,-0.437149,-0.134965,8.76145,0.2274994,
2,0,0,1,0,40573.9,0.226326,0.22604,-1.6752,21,0.0154319,10,-0.000378662,-2.77593,-0.426611,-0.138299,9.04514,0.22604,
2,0,0,1,0,40573.9,0.224825,0.224491,-1.68576,21,0.0153894,10,-0.000378438,-2.7732,-0.51087,-0.115489,7.59864,0.224491,
2,0,0,1,0,40573.9,0.223331,0.223055,-1.70588,21,0.0153468,10,-0.000380506,-2.76805,-0.660455,-0.0893324,5.935,0.223055,
2,0,0,1,0,40573.9,0.221831,0.221527,-1.71568,21,0.0153038,10,-0.00038007,-2.76556,-0.397795,-0.148318,9.89579,0.221527,
2,0,0,1,0,40574,0.220333,0.220026,-1.72681,21,0.0152604,10,-0.000379943,-2.76275,-0.377293,-0.156377,10.5255,0.2200256,
2,0,0,1,0,40574,0.218834,0.21851,-1.73848,21,0.0152167,10,-0.000379874,-2.75983,-0.540112,-0.109237,7.42323,0.21851,
2,0,0,1,0,40574,0.217339,0.217,-1.74688,21,0.0151728,10,-0.000379074,-2.75774,-0.756506,-0.0779902,5.31984,0.217,
2,0,0,1,0,40574,0.215839,0.21553,-1.76161,21,0.0151285,10,-0.000379679,-2.75409,-0.552997,-0.106691,7.34065,0.21553,
2,0,0,1,0,40574.1,0.214338,0.213996,-1.7751,21,0.0150839,10,-0.000379865,-2.75078,-0.390676,-0.15102,10.4508,0.213996,
2,0,0,1,0,40574.1,0.212844,0.212519,-1.78541,21,0.0150392,10,-0.000379434,-2.74826,-0.492552,-0.119784,8.349,0.212519,
2,0,0,1,0,40574.1,0.211344,0.211007,-1.80118,21,0.0149939,10,-0.000380061,-2.74444,-0.736198,-0.0801414,5.6252,0.211007,
2,0,0,1,0,40574.1,0.209845,0.209509,-1.81207,21,0.0149484,10,-0.000379645,-2.74182,-0.509099,-0.115891,8.17925,0.209509,
2,0,0,1,0,40574.2,0.20835,0.208036,-1.82518,21,0.0149028,10,-0.000379703,-2.73869,-0.388722,-0.15178,10.8209,0.208036,
2,0,0,1,0,40574.2,0.206851,0.206537,-1.83566,21,0.0148566,10,-0.000379131,-2.73621,-0.526055,-0.112156,8.05342,0.206537,
2,0,0,1,0,40574.2,0.20535,0.20499,-1.85132,21,0.0148101,10,-0.000379503,-2.73252,-0.711194,-0.0829591,5.97797,0.20499,
2,0,0,1,0,40574.2,0.203856,0.203507,-1.86307,21,0.0147634,10,-0.000379149,-2.72977,-0.593672,-0.0993815,7.21828,0.203507,
2,0,0,1,0,40574.3,0.202356,0.202019,-1.87052,21,0.0147164,10,-0.000377881,-2.72804,-0.475558,-0.124065,9.07874,0.202019,
2,0,0,1,0,40574.3,0.200857,0.200507,-1.88138,21,0.014669,10,-0.000377229,-2.72552,-0.49204,-0.119909,8.82397,0.200507,
2,0,0,1,0,40574.3,0.199357,0.199015,-1.89848,21,0.0146213,10,-0.000377826,-2.72159,-0.653281,-0.0903134,6.68804,0.199015,
2,0,0,1,0,40574.3,0.197863,0.197497,-1.91663,21,0.0145734,10,-0.000378529,-2.71746,-0.647841,-0.0910717,6.79526,0.197497,
2,0,0,1,0,40574.4,0.196362,0.19604,-1.92291,21,0.0145251,10,-0.000376967,-2.71604,-0.395169,-0.149303,11.2004,0.19604,
2,0,0,1,0,40574.4,0.194861,0.194536,-1.93301,21,0.0144765,10,-0.00037604,-2.71377,-0.400771,-0.147216,11.1313,0.194536,
2,0,0,1,0,40574.4,0.193367,0.193041,-1.95265,21,0.0144276,10,-0.000376942,-2.70937,-0.539636,-0.109333,8.3284,0.1930408,
2,0,0,1,0,40574.4,0.191868,0.191552,-1.97124,21,0.0143782,10,-0.000377597,-2.70526,-0.551715,-0.106939,8.20145,0.191552,
2,0,0,1,0,40574.5,0.190368,0.190055,-1.97733,21,0.0143285,10,-0.000375801,-2.70392,-0.426025,-0.13849,10.7019,0.190055,
2,0,0,1,0,40574.5,0.18887,0.188517,-1.98904,21,0.0142785,10,-0.000374968,-2.70136,-0.385184,-0.153173,11.9374,0.1885166,
2,0,0,1,0,40574.5,0.187376,0.187062,-2.00792,21,0.0142283,10,-0.000375607,-2.69725,-0.544628,-0.108331,8.49315,0.1870624,
2,0,0,1,0,40574.5,0.185875,0.185585,-2.02421,21,0.0141775,10,-0.000375664,-2.69374,-0.599748,-0.0983747,7.74976,0.185585,
2,0,0,1,0,40574.6,0.184374,0.184011,-2.0376,21,0.0141263,10,-0.000374942,-2.69088,-0.422577,-0.139619,11.0955,0.184011,
2,0,0,1,0,40574.6,0.18288,0.182577,-2.05094,21,0.014075,10,-0.000374455,-2.68805,-0.417244,-0.141404,11.3526,0.182577,
2,0,0,1,0,40574.6,0.18138,0.181065,-2.06934,21,0.014023,10,-0.000374684,-2.68417,-0.431202,-0.136827,11.0508,0.1810648,
2,0,0,1,0,40574.6,0.179881,0.179573,-2.0895,21,0.0139706,10,-0.000375217,-2.67996,-0.499562,-0.118103,9.618,0.179573,
2,0,0,1,0,40574.7,0.178387,0.178102,-2.10777,21,0.013918,10,-0.0003754,-2.67618,-0.399765,-0.147587,12.1395,0.1781024,
2,0,0,1,0,40574.7,0.176886,0.176537,-2.11917,21,0.0138648,10,-0.000374113,-2.67383,-0.422764,-0.139558,11.5749,0.176537,
2,0,0,1,0,40574.7,0.175385,0.175037,-2.14238,21,0.0138111,10,-0.000374995,-2.6691,-0.42337,-0.139358,11.6474,0.175037,
2,0,0,1,0,40574.7,0.173892,0.173554,-2.17112,21,0.0137571,10,-0.000376807,-2.66332,-0.369911,-0.159498,13.4527,0.173554,
2,0,0,1,0,40574.8,0.172392,0.172016,-2.18484,21,0.0137024,10,-0.000375828,-2.66058,-0.339056,-0.174012,14.8077,0.172016,
2,0,0,1,0,40574.8,0.170893,0.170552,-2.19772,21,0.0136472,10,-0.000374825,-2.65803,-0.327699,-0.180043,15.4875,0.170552,
2,0,0,1,0,40574.8,0.169393,0.169085,-2.22222,21,0.0135915,10,-0.000375746,-2.65321,-0.355148,-0.166128,14.4447,0.169085,
2,0,0,1,0,40574.8,0.167899,0.167613,-2.25328,21,0.0135353,10,-0.000377678,-2.64719,-0.305072,-0.193397,16.9948,0.167613,
2,0,0,1,0,40574.9,0.166398,0.166113,-2.2765,21,0.0134783,10,-0.000378156,-2.64273,-0.301569,-0.195643,17.392,0.166113,
2,0,0,1,0,40574.9,0.164898,0.1646,-2.30013,21,0.0134207,10,-0.000378602,-2.63825,-0.285941,-0.206336,18.5586,0.1646004,
2,0,0,1,0,40574.9,0.163403,0.163098,-2.32893,21,0.0133626,10,-0.000379844,-2.63284,-0.309745,-0.190479,17.3333,0.163098,
2,0,0,1,0,40574.9,0.161904,0.16157,-2.36426,21,0.0133036,10,-0.000381995,-2.6263,-0.25723,-0.229367,21.1344,0.16157,
2,0,0,1,0,40575,0.160404,0.160063,-2.39328,21,0.0132437,10,-0.000383076,-2.62101,-0.232013,-0.254296,23.7552,0.160063,
2,0,0,1,0,40575,0.158905,0.158607,-2.42222,21,0.0131831,10,-0.000384182,-2.61579,-0.229899,-0.256635,24.3539,0.158607,
2,0,0,1,0,40575,0.157411,0.157107,-2.46399,21,0.0131218,10,-0.00038711,-2.60836,-0.212094,-0.278179,26.8557,0.157107,
2,0,0,1,0,40575,0.155911,0.155593,-2.51086,21,0.0130592,10,-0.000390674,-2.60018,-0.194516,-0.303317,29.7314,0.155593,
2,0,0,1,0,40575.1,0.15441,0.154057,-2.55398,21,0.0129955,10,-0.000393459,-2.59278,-0.179353,-0.32896,32.788,0.154057,
2,0,0,1,0,40575.1,0.152916,0.152613,-2.60169,21,0.0129309,10,-0.000397051,-2.58474,-0.178357,-0.330798,33.6586,0.152613,
2,0,0,1,0,40575.1,0.151417,0.151132,-2.65222,21,0.0128648,10,-0.000400834,-2.57639,-0.175104,-0.336944,35.0062,0.151132,
2,0,0,1,0,40575.1,0.149917,0.149544,-2.72138,21,0.0127972,10,-0.000406967,-2.56521,-0.148551,-0.397171,42.1314,0.149544,
2,0,0,1,0,40575.2,0.148423,0.148087,-2.7866,21,0.0127283,10,-0.000412659,-2.55492,-0.132447,-0.44546,48.422,0.148087,
2,0,0,1,0,40575.2,0.146922,0.146587,-2.85147,21,0.0126575,10,-0.000417989,-2.54493,-0.130798,-0.451076,50.3343,0.146587,
2,0,0,1,0,40575.2,0.145421,0.145094,-2.93286,21,0.0125848,10,-0.00042554,-2.53271,-0.122552,-0.481429,55.2399,0.1450939,
2,0,0,1,0,40575.2,0.143927,0.143611,-3.0235,21,0.0125103,10,-0.000434208,-2.51949,-0.109324,-0.539681,63.7586,0.143611,
2,0,0,1,0,40575.3,0.142429,0.142095,-3.12001,21,0.0124331,10,-0.000443337,-2.50584,-0.103378,-0.570721,69.6329,0.142095,
2,0,0,1,0,40575.3,0.140929,0.140597,-3.21849,21,0.0123533,10,-0.000452509,-2.49235,-0.102876,-0.573506,72.2911,0.140597,
2,0,0,1,0,40575.3,0.13943,0.139098,-3.3299,21,0.0122709,10,-0.000463181,-2.47757,-0.10495,-0.562171,73.2514,0.139098,
2,0,0,1,0,40575.3,0.137935,0.137643,-3.45368,21,0.012186,10,-0.000475375,-2.46172,-0.0985271,-0.59882,80.8514,0.137643,
2,0,0,1,0,40575.4,0.136435,0.136082,-3.58399,21,0.0120977,10,-0.000487716,-2.44563,-0.0925198,-0.637701,89.1847,0.136082,
2,0,0,1,0,40575.4,0.134934,0.134594,-3.71765,21,0.012006,10,-0.000500374,-2.42973,-0.0935775,-0.630494,91.3416,0.134594,
2,0,0,1,0,40575.4,0.13344,0.133151,-3.8553,21,0.0119113,10,-0.000513336,-2.41394,-0.0954741,-0.617968,92.9936,0.133151,
2,0,0,1,0,40575.4,0.13194,0.131614,-3.99787,21,0.0118128,10,-0.000526177,-2.39817,-0.0986573,-0.59803,93.3015,0.131614,
2,0,0,1,0,40575.5,0.13044,0.130101,-4.14108,21,0.0117106,10,-0.000538759,-2.38289,-0.0987818,-0.597276,96.3011,0.130101,
2,0,0,1,0,40575.5,0.128941,0.128631,-4.2803,21,0.0116049,10,-0.00055058,-2.36853,-0.103228,-0.571548,95.4239,0.128631,
2,0,0,1,0,40575.5,0.127447,0.127148,-4.42329,21,0.0114961,10,-0.000562412,-2.35425,-0.112281,-0.525469,90.6422,0.127148,
2,0,0,1,0,40575.5,0.125946,0.125611,-4.56534,21,0.0113834,10,-0.000573458,-2.34053,-0.118297,-0.498744,88.6105,0.125611,
2,0,0,1,0,40575.6,0.124446,0.12414,-4.70331,21,0.0112672,10,-0.000583866,-2.3276,-0.117642,-0.50152,91.7264,0.12414,
2,0,0,1,0,40575.6,0.122952,0.122621,-4.82628,21,0.0111482,10,-0.000591802,-2.31639,-0.126255,-0.467309,87.9182,0.122621,
2,0,0,1,0,40575.6,0.121453,0.121113,-4.94839,21,0.0110256,10,-0.000599317,-2.30554,-0.142204,-0.414896,80.1094,0.121113,
2,0,0,1,0,40575.6,0.119953,0.119664,-5.06291,21,0.0108999,10,-0.000605846,-2.2956,-0.150078,-0.39313,77.753,0.119664,
2,0,0,1,0,40575.7,0.118459,0.118146,-5.18637,21,0.0107718,10,-0.000612747,-2.28514,-0.155613,-0.379145,76.6151,0.118146,
2,0,0,1,0,40575.7,0.116958,0.116618,-5.29275,21,0.0106404,10,-0.000617228,-2.27632,-0.16879,-0.349546,72.1599,0.116618,
2,0,0,1,0,40575.7,0.115457,0.115121,-5.39887,21,0.0105062,10,-0.000621525,-2.2677,-0.187678,-0.314369,66.1248,0.115121,
2,0,0,1,0,40575.7,0.113963,0.113575,-5.49728,21,0.0103702,10,-0.000624356,-2.25985,-0.21316,-0.276787,59.2417,0.113575,
2,0,0,1,0,40575.8,0.112464,0.112137,-5.58522,21,0.0102314,10,-0.000626309,-2.25296,-0.21684,-0.27209,59.1787,0.112137,
2,0,0,1,0,40575.8,0.110965,0.110673,-5.65888,21,0.0100904,10,-0.000626288,-2.24727,-0.241181,-0.24463,54.0457,0.110673,
2,0,0,1,0,40575.8,0.109466,0.109184,-5.73883,21,0.00994742,10,-0.00062659,-2.24118,-0.289314,-0.20393,45.6178,0.109184,
2,0,0,1,0,40575.8,0.107972,0.107592,-5.80765,21,0.00980323,10,-0.000624856,-2.236,-0.338185,-0.174461,39.4487,0.107592,
2,0,0,1,0,40575.9,0.106471,0.106169,-5.86327,21,0.00965698,10,-0.000622496,-2.23186,-0.371002,-0.159029,36.3249,0.106169,
2,0,0,1,0,40575.9,0.10497,0.104661,-5.9079,21,0.00950942,10,-0.000618329,-2.22857,-0.433102,-0.136227,31.3871,0.104661,
2,0,0,1,0,40575.9,0.103476,0.103143,-5.95048,21,0.00936126,10,-0.00061375,-2.22545,-0.605729,-0.0974033,22.5933,0.1031429,
2,0,0,1,0,40575.9,0.101976,0.101648,-5.98631,21,0.00921161,10,-0.000608494,-2.22284,-0.880844,-0.0669812,15.614,0.101648,
2,0,0,1,0,40576,0.100477,0.100139,-6.00541,21,0.00906138,10,-0.000601376,-2.22146,-1.23835,-0.0476441,11.15,0.100139,
2,0,0,1,0,40576,0.0989825,0.09866,-6.01332,21,0.00891137,10,-0.000593274,-2.22089,-1.89912,-0.031067,7.28699,0.09866,
2,0,0,1,0,40576,0.0974817,0.0971388,-6.01897,21,0.00876053,10,-0.000584676,-2.22048,31.5267,0.00187143,-0.439114,0.0971388,
2,0,0,1,0,40576,0.0959822,0.0956957,-6.02073,21,0.00860964,10,-0.000576158,-2.22035,1.94731,0.0302982,-7.10152,0.0956957,
2,0,0,1,0,40576.1,0.094488,0.0941693,-6.00032,21,0.00845963,10,-0.000565046,-2.22183,1.30795,0.0451088,-10.5539,0.0941693,
2,0,0,1,0,40576.1,0.0929884,0.0926988,-5.98221,21,0.00830943,10,-0.000554544,-2.22314,1.18935,0.049607,-11.5748,0.0926988,
2,0,0,1,0,40576.1,0.0914889,0.0911506,-5.95836,21,0.00815975,10,-0.000543108,-2.22487,0.768859,0.0767371,-17.8454,0.0911506,
2,0,0,1,0,40576.1,0.0899894,0.0896556,-5.9287,21,0.00801069,10,-0.000531541,-2.22704,0.571945,0.103157,-23.8445,0.0896556,
2,0,0,1,0,40576.2,0.0884951,0.08817,-5.89396,21,0.00786303,10,-0.000519671,-2.22959,0.567876,0.103896,-23.8866,0.08817,
2,0,0,1,0,40576.2,0.0869943,0.0867304,-5.85943,21,0.00771576,10,-0.000508191,-2.23214,0.532952,0.110704,-25.3135,0.0867304,
2,0,0,1,0,40576.2,0.0854935,0.0851781,-5.81957,21,0.00756941,10,-0.0004957,-2.23511,0.518588,0.11377,-25.8506,0.08517807,
2,0,0,1,0,40576.2,0.0839993,0.0836617,-5.78616,21,0.00742457,10,-0.00048408,-2.23761,0.495645,0.119037,-26.8372,0.0836617,
2,0,0,1,0,40576.3,0.0824998,0.0821693,-5.75026,21,0.00728006,10,-0.000472495,-2.24031,0.533704,0.110548,-24.7704,0.0821693,
2,0,0,1,0,40576.3,0.0810002,0.0807065,-5.70208,21,0.00713657,10,-0.000460195,-2.24397,0.548085,0.107648,-23.9899,0.0807065,
2,0,0,1,0,40576.3,0.0795007,0.0791906,-5.66795,21,0.006994,10,-0.000448848,-2.24657,0.586507,0.100596,-22.269,0.0791906,
2,0,0,1,0,40576.3,0.0780078,0.0776454,-5.6397,21,0.00685281,10,-0.000437896,-2.24874,0.595726,0.0990388,-21.7896,0.0776454,
2,0,0,1,0,40576.4,0.076507,0.0761701,-5.61251,21,0.00671186,10,-0.000427506,-2.25084,0.600051,0.098325,-21.4913,0.0761701,
2,0,0,1,0,40576.4,0.0750062,0.0747029,-5.56918,21,0.00657177,10,-0.000416034,-2.25421,0.638871,0.0923504,-20.0838,0.0747029,
2,0,0,1,0,40576.4,0.073512,0.0731954,-5.53994,21,0.00643303,10,-0.000405498,-2.2565,0.658938,0.089538,-19.3703,0.0731954,
2,0,0,1,0,40576.4,0.0720124,0.0716808,-5.51797,21,0.00629443,10,-0.000395533,-2.25822,0.718089,0.0821625,-17.69,0.0716808,
2,0,0,1,0,40576.5,0.0705129,0.0702111,-5.49122,21,0.00615646,10,-0.000385544,-2.26033,0.698752,0.0844363,-18.0765,0.0702111,
2,0,0,1,0,40576.5,0.0690187,0.0686896,-5.45974,21,0.0060197,10,-0.000375027,-2.26283,0.700139,0.084269,-17.9807,0.0686896,
2,0,0,1,0,40576.5,0.0675179,0.0672016,-5.43479,21,0.00588311,10,-0.000365226,-2.26482,0.793003,0.0744007,-15.7934,0.0672016,
2,0,0,1,0,40576.5,0.066017,0.0656919,-5.41986,21,0.00574709,10,-0.000356041,-2.26601,0.750075,0.0786588,-16.6084,0.0656919,
2,0,0,1,0,40576.6,0.0645242,0.0641994,-5.39476,21,0.00561214,10,-0.00034634,-2.26803,0.787709,0.0749008,-15.7342,0.0641994,
2,0,0,1,0,40576.6,0.0630246,0.0626943,-5.36108,21,0.0054773,10,-0.000336109,-2.27075,0.759283,0.0777049,-16.27,0.0626943,
2,0,0,1,0,40576.6,0.0615251,0.0611763,-5.33428,21,0.00534316,10,-0.000326332,-2.27292,0.685469,0.0860725,-17.9408,0.0611763,
2,0,0,1,0,40576.6,0.0600256,0.059726,-5.31386,21,0.00520962,10,-0.000317375,-2.27459,0.689791,0.0855331,-17.7301,0.059726,
2,0,0,1,0,40576.6,0.0585314,0.0581796,-5.29131,21,0.00507725,10,-0.000307846,-2.27644,0.68084,0.0866576,-17.8673,0.0581796,
2,0,0,1,0,40576.7,0.0570305,0.0566925,-5.26379,21,0.00494494,10,-0.000298417,-2.2787,0.67618,0.0872548,-17.9086,0.0566925,
2,0,0,1,0,40576.7,0.0555297,0.0552256,-5.22961,21,0.0048134,10,-0.000288808,-2.28153,0.626544,0.0941674,-19.2521,0.0552256,
2,0,0,1,0,40576.7,0.0540355,0.0536882,-5.20816,21,0.00468305,10,-0.000279617,-2.28332,0.650856,0.0906498,-18.4124,0.0536882,
2,0,0,1,0,40576.7,0.052536,0.0521725,-5.1867,21,0.0045527,10,-0.000270603,-2.28511,0.747309,0.0789499,-15.9522,0.0521725,
2,0,0,1,0,40576.8,0.0510364,0.050702,-5.15426,21,0.00442309,10,-0.000261331,-2.28783,0.626175,0.0942229,-18.9541,0.050702,
2,0,0,1,0,40576.8,0.0495369,0.049222,-5.11546,21,0.00429424,10,-0.000251793,-2.29112,0.606448,0.0972879,-19.4695,0.049222,
2,0,0,1,0,40576.8,0.0480427,0.0476753,-5.09965,21,0.00416664,10,-0.000243127,-2.29246,0.656227,0.0899079,-17.8724,0.0476753,
2,0,0,1,0,40576.8,0.0465432,0.0462274,-5.06958,21,0.00403918,10,-0.000234353,-2.29503,0.662479,0.0890594,-17.5974,0.0462274,
2,0,0,1,0,40576.9,0.0450424,0.0447087,-5.03566,21,0.00391246,10,-0.000225138,-2.29794,0.59591,0.0990083,-19.4509,0.0447087,
2,0,0,1,0,40576.9,0.0435482,0.0432196,-4.99882,21,0.00378704,10,-0.000216047,-2.30113,0.534225,0.11044,-21.5742,0.0432196,
2,0,0,1,0,40576.9,0.0420486,0.0417328,-4.97685,21,0.00366193,10,-0.000207698,-2.30305,0.532239,0.110852,-21.5198,0.0417328,
2,0,0,1,0,40576.9,0.0405491,0.0401692,-4.94851,21,0.00353755,10,-0.000198778,-2.30553,0.574945,0.102619,-19.7868,0.0401692,
2,0,0,1,0,40577,0.0390549,0.0387529,-4.91069,21,0.00341438,10,-0.000190304,-2.30886,0.522427,0.112934,-21.6441,0.0387529,
2,0,0,1,0,40577,0.0375541,0.0372234,-4.87224,21,0.00329156,10,-0.000181362,-2.31227,0.47683,0.123734,-23.573,0.0372234,
2,0,0,1,0,40577,0.0360532,0.03571,-4.84512,21,0.00316967,10,-0.000173019,-2.3147,0.451855,0.130573,-24.6977,0.03571,
2,0,0,1,0,40577,0.034559,0.0342439,-4.81506,21,0.00304908,10,-0.000164886,-2.3174,0.501199,0.117718,-22.0875,0.0342439,
2,0,0,1,0,40577.1,0.0330595,0.0327504,-4.77719,21,0.00292885,10,-0.000156455,-2.32083,0.495184,0.119148,-22.1911,0.0327504,
2,0,0,1,0,40577.1,0.0315613,0.0312526,-4.73282,21,0.00280947,10,-0.000147913,-2.32488,0.410056,0.143883,-26.6154,0.0312526,
2,0,0,1,0,40577.1,0.0300618,0.0297519,-4.69657,21,0.00269115,10,-0.000139732,-2.32822,0.417636,0.141271,-25.9261,0.0297519,
2,0,0,1,0,40577.1,0.0285676,0.0282454,-4.6634,21,0.0025742,10,-0.000131719,-2.3313,0.442049,0.13347,-24.2639,0.0282454,
2,0,0,1,0,40577.2,0.0270667,0.0267412,-4.62359,21,0.00245766,10,-0.00012364,-2.33502,0.468827,0.125846,-22.7133,0.0267412,
2,0,0,1,0,40577.2,0.0255659,0.0252542,-4.585,21,0.00234208,10,-0.00011579,-2.33866,0.361109,0.163385,-29.2555,0.0252542,
2,0,0,1,0,40577.2,0.0240717,0.0237518,-4.54694,21,0.00222794,10,-0.000107998,-2.34228,0.401351,0.147004,-26.1016,0.0237518,
2,0,0,1,0,40577.2,0.0225722,0.0222604,-4.51105,21,0.00211434,10,-0.000100418,-2.34572,0.431676,0.136676,-24.0625,0.02226039,
2,0,0,1,0,40577.3,0.0210726,0.020738,-4.46987,21,0.0020016,10,-9.26964e-05,-2.34971,0.44429,0.132796,-23.1972,0.020738,
2,0,0,1,0,40577.3,0.0195784,0.0192339,-4.4345,21,0.00189027,10,-8.52926e-05,-2.35316,0.420373,0.140352,-24.3152,0.0192339,
2,0,0,1,0,40577.3,0.0180789,0.0177584,-4.39909,21,0.00177941,10,-7.81208e-05,-2.35664,0.389633,0.151425,-25.9986,0.0177584,
2,0,0,1,0,40577.3,0.0165781,0.0162214,-4.36881,21,0.00166943,10,-7.08681e-05,-2.35964,0.452688,0.130333,-22.2076,0.0162214,
2,0,0,1,0,40577.4,0.0150839,0.0147343,-4.33567,21,0.00156072,10,-6.38831e-05,-2.36294,0.48938,0.120561,-20.4038,0.0147343,
2,0,0,1,0,40577.4,0.0135844,0.0132362,-4.29741,21,0.00145231,10,-5.68814e-05,-2.36679,0.466863,0.126376,-21.2196,0.0132362,
2,0,0,1,0,40577.4,0.0120848,0.0117962,-4.27145,21,0.00134471,10,-5.03866e-05,-2.36943,0.442097,0.133455,-22.2641,0.0117962,
2,0,0,1,0,40577.4,0.0105853,0.0102416,-4.2443,21,0.0012379,10,-4.34683e-05,-2.37219,0.511212,0.115412,-19.1227,0.0102416,
2,0,0,1,0,40577.5,0.00909108,0.00873362,-4.21201,21,0.00113221,10,-3.67861e-05,-2.37551,0.589381,0.100105,-16.4775,0.00873362,
2,0,0,1,0,40577.5,0.00759027,0.00725812,-4.18905,21,0.00102672,10,-3.04046e-05,-2.37788,0.586256,0.100639,-16.4582,0.00725812,
2,0,0,1,0,40577.5,0.00608945,0.00576152,-4.16524,21,0.000921862,10,-2.39981e-05,-2.38036,0.546215,0.108016,-17.5639,0.00576152,
2,0,0,1,0,40577.5,0.00459524,0.00427678,-4.14864,21,0.000818046,10,-1.77428e-05,-2.38209,0.628566,0.0938644,-15.186,0.00427678,
2,0,0,1,0,40577.6,0.0030957,0.00276553,-4.12019,21,0.000714333,10,-1.13945e-05,-2.38508,2.84866,0.0207115,-3.34251,0.00276553,
2,0,0,1,0,40577.6,0.00159616,0.0012192,-4.12914,21,0.000610671,10,-5.03425e-06,-2.38414, , , ,0.0012192,
2,0,0,1,0,40577.6,0.000199195,-0.000216526,-4.10694,21,0.000514319,10,8.89257e-07,-2.38648, , , ,-0.0002165258,