File: Figure_codes/Fig_3-5/rawdata_trumpetplot_data/after 10th/20221101_1-115_003_TrumpetPlot_ParaChange_from10_every3_02_CV_C01_18.csv
mode,ox/red,error,control changes,counter inc.,time/s,control/V,Ewe/V,<I>/mA,cycle number,(Q-Qo)/C,I Range,P/W,log(|I|),Tafel slope mV/dec,alpha_eff,dI/d(E-IR),E-IR/V,
2,0,0,1,0,35802.4,2.44065e-05,-0.000325324,-0.383064,19,0.0000000E+000,10,1.2462e-07,-3.41673, , , ,-0.000325324,
2,0,0,1,0,35803.7,0.00129791,0.000896295,-0.178013,19,-0.000263617,10,-1.59552e-07,-3.74955, , , ,0.000896295,
2,0,0,1,0,35805.1,0.00279612,0.00243607,-0.142539,19,-0.000483104,10,-3.47234e-07,-3.84607,-0.0175104,-3.36942,20.2743,0.00243607,
2,0,0,1,0,35806.6,0.00429431,0.0039821,-0.12201,19,-0.000663855,10,-4.85855e-07,-3.91361,-0.0252696,-2.33483,11.3734,0.003982103,
2,0,0,1,0,35808.1,0.00579242,0.0055016,-0.107505,19,-0.000818854,10,-5.91451e-07,-3.96857,-0.0274297,-2.15096,9.15454,0.0055016,
2,0,0,1,0,35809.6,0.00729061,0.00695119,-0.0948758,19,-0.000953704,10,-6.595e-07,-4.02284,-0.0304524,-1.93745,7.3069,0.00695119,
2,0,0,1,0,35811.1,0.00878882,0.00844001,-0.0856641,19,-0.00107272,10,-7.23006e-07,-4.0672,-0.0336763,-1.75197,5.93468,0.00844001,
2,0,0,1,0,35812.6,0.010287,0.00996491,-0.07761,19,-0.00117863,10,-7.73377e-07,-4.11008,-0.0360653,-1.63592,5.01897,0.00996491,
2,0,0,1,0,35814.1,0.0117852,0.0114951,-0.0710677,19,-0.0012736,10,-8.16928e-07,-4.14833,-0.0367523,-1.60534,4.42803,0.0114951,
2,0,0,1,0,35815.6,0.0132834,0.0129722,-0.0645319,19,-0.00135889,10,-8.37121e-07,-4.19023,-0.0372494,-1.58392,3.95314,0.0129722,
2,0,0,1,0,35817.1,0.0147815,0.0144917,-0.0589732,19,-0.00143527,10,-8.5462e-07,-4.22935,-0.0387299,-1.52337,3.5188,0.0144917,
2,0,0,1,0,35818.6,0.0162797,0.0159677,-0.0540556,19,-0.00150343,10,-8.63144e-07,-4.26716,-0.0401878,-1.46811,3.09057,0.0159677,
2,0,0,1,0,35820.1,0.0177779,0.0174386,-0.0491939,19,-0.00156491,10,-8.57872e-07,-4.30809,-0.0392901,-1.50165,2.8884,0.0174386,
2,0,0,1,0,35821.6,0.0192761,0.0189316,-0.0452922,19,-0.00162021,10,-8.57454e-07,-4.34398,-0.0422231,-1.39734,2.47655,0.0189316,
2,0,0,1,0,35823.1,0.0207743,0.0204587,-0.041083,19,-0.00166944,10,-8.40504e-07,-4.38634,-0.040949,-1.44082,2.35232,0.0204587,
2,0,0,1,0,35824.6,0.0222725,0.0219411,-0.0378092,19,-0.00171331,10,-8.29573e-07,-4.4224,-0.0399952,-1.47518,2.19523,0.0219411,
2,0,0,1,0,35826.1,0.0237707,0.0234882,-0.0347134,19,-0.00175215,10,-8.15357e-07,-4.4595,-0.0361273,-1.63311,2.21254,0.0234882,
2,0,0,1,0,35827.6,0.0252689,0.0249431,-0.0321081,19,-0.0017863,10,-8.00875e-07,-4.49339,-0.0339359,-1.73857,2.13812,0.0249431,
2,0,0,1,0,35829.1,0.0267671,0.0264552,-0.0283629,19,-0.0018156,10,-7.50347e-07,-4.54725,-0.030565,-1.93032,2.13344,0.0264552,
2,0,0,1,0,35830.6,0.0282653,0.027907,-0.0253724,19,-0.00183971,10,-7.08067e-07,-4.59564,-0.0275325,-2.14292,2.08269,0.027907,
2,0,0,1,0,35832.1,0.0297635,0.0294584,-0.0223414,19,-0.00185952,10,-6.58141e-07,-4.65089,-0.0279391,-2.11173,1.81371,0.0294584,
2,0,0,1,0,35833.6,0.0312617,0.0309567,-0.0200686,19,-0.00187483,10,-6.21259e-07,-4.69748,-0.0236778,-2.49179,1.90209,0.0309567,
2,0,0,1,0,35835.1,0.0327599,0.0324222,-0.0169701,19,-0.00188612,10,-5.50207e-07,-4.77032,-0.0285203,-2.0687,1.4283,0.0324222,
2,0,0,1,0,35836.6,0.0342581,0.0338951,-0.0162372,19,-0.00189605,10,-5.50361e-07,-4.78949,-0.0223273,-2.64251,1.53141,0.0338951,
2,0,0,1,0,35838.1,0.0357563,0.0354104,-0.0129493,19,-0.00190129,10,-4.58539e-07,-4.88775,-0.0122765,-4.80595,2.65917,0.0354104,
2,0,0,1,0,35839.6,0.0372544,0.0369586,-0.0102799,19,-0.00190198,10,-3.79929e-07,-4.98801,-0.0118619,-4.97391,1.89042,0.03695856,
2,1,0,1,0,35841.1,0.0387526,0.0384198,-0.0078054,19,-0.00189919,10,-2.99882e-07,-5.1076,-0.0092313,-6.3913,1.70538,0.0384198,
2,0,0,1,0,35842.6,0.0402508,0.039898,-0.00495864,19,-0.00189192,10,-1.9784e-07,-5.30464,-0.00656609,-8.98555,1.63653,0.039898,
2,0,0,1,0,35844.1,0.041749,0.0414165,-0.00311017,19,-0.00188104,10,-1.28812e-07,-5.50722,-0.00430047,-13.7194,1.27403,0.0414165,
2,0,0,1,0,35845.6,0.0432472,0.0429117,-0.000697439,19,-0.00186695,10,-2.99283e-08,-6.15649,-0.0168407,-3.50343,1.56148,0.0429117,
2,1,0,1,0,35847.1,0.0447454,0.0444048,0.00193933,19,-0.00184984,10,8.61155e-08,-5.71235,0.00833582,7.07789,1.40887,0.04440476,
2,0,0,1,0,35848.6,0.0462435,0.0459051,0.00416152,19,-0.0018288,10,1.91035e-07,-5.38075,0.00440099,13.4061,1.43785,0.0459051,
2,0,0,1,0,35850.1,0.0477417,0.0473961,0.00659843,19,-0.00180451,10,3.1274e-07,-5.18056,0.00904168,6.52534,1.37294,0.0473961,
2,0,0,1,0,35851.6,0.0492399,0.0488775,0.00808656,19,-0.00177704,10,3.95251e-07,-5.09224,0.0157838,3.73801,1.13776,0.0488775,
2,0,0,1,0,35853.1,0.0507381,0.0504215,0.00983083,19,-0.00174693,10,4.95685e-07,-5.00741,0.0205609,2.86953,1.16977,0.0504215,
2,1,0,1,0,35854.6,0.0522363,0.0519198,0.0118672,19,-0.00171368,10,6.16144e-07,-4.92565,0.0189088,3.12024,1.39599,0.0519198,
2,1,0,1,0,35856.1,0.0537345,0.0533684,0.0141739,19,-0.00167691,10,7.56439e-07,-4.84851,0.0242565,2.43234,1.29611,0.05336836,
2,1,0,1,0,35857.6,0.0552327,0.0548837,0.0159651,19,-0.00163762,10,8.76222e-07,-4.79683,0.0282642,2.08745,1.27463,0.0548837,
2,1,0,1,0,35859.1,0.0567309,0.056381,0.0170435,19,-0.00159568,10,9.60927e-07,-4.76844,0.0308048,1.91528,1.31219,0.056381,
2,1,0,1,0,35860.6,0.0582291,0.0578656,0.0196279,19,-0.00155109,10,1.13578e-06,-4.70713,0.033717,1.74986,1.32297,0.0578656,
2,1,0,1,0,35862.1,0.0597273,0.0593565,0.0215873,19,-0.00150333,10,1.28134e-06,-4.6658,0.0393785,1.49828,1.22265,0.0593565,
2,1,0,1,0,35863.6,0.0612255,0.0608941,0.0229847,19,-0.00145273,10,1.39963e-06,-4.63856,0.049673,1.18777,1.0529,0.0608941,
2,1,0,1,0,35865.1,0.0627237,0.0624211,0.0247545,19,-0.00140006,10,1.5452e-06,-4.60635,0.0555113,1.06285,1.03685,0.0624211,
2,1,0,1,0,35866.6,0.0642219,0.0639258,0.026548,19,-0.00134481,10,1.6971e-06,-4.57597,0.0504548,1.16936,1.2046,0.0639258,
2,1,0,1,0,35868.1,0.0657201,0.0653977,0.0279399,19,-0.00128662,10,1.82721e-06,-4.55377,0.0635158,0.928903,1.02097,0.06539768,
2,1,0,1,0,35869.6,0.0672183,0.0668992,0.0300946,19,-0.00122644,10,2.0133e-06,-4.52151,0.0794271,0.74282,0.854862,0.0668992,
2,1,0,1,0,35871.1,0.0687164,0.0683233,0.0313991,19,-0.00116374,10,2.14529e-06,-4.50308,0.0591615,0.997271,1.19599,0.0683233,
2,1,0,1,0,35872.6,0.0702146,0.0698746,0.032725,19,-0.0010993,10,2.28665e-06,-4.48512,0.0794458,0.742645,0.942169,0.0698746,
2,1,0,1,0,35874.1,0.0717128,0.071373,0.0340098,19,-0.00103229,10,2.42738e-06,-4.4684,0.0805359,0.732592,0.969461,0.071373,
2,1,0,1,0,35875.6,0.073211,0.0728724,0.0354025,19,-0.000962774,10,2.57986e-06,-4.45097,0.0771303,0.764939,1.06196,0.0728724,
2,1,0,1,0,35877.1,0.0747092,0.074374,0.0369342,19,-0.000891105,10,2.74694e-06,-4.43257,0.0966322,0.610563,0.888285,0.074374,
2,1,0,1,0,35878.6,0.0762074,0.0758893,0.0385766,19,-0.000817318,10,2.92755e-06,-4.41368,0.087188,0.676699,1.02765,0.0758893,
2,1,0,1,0,35880.1,0.0777055,0.077361,0.0399624,19,-0.000741391,10,3.09154e-06,-4.39835,0.0808005,0.730193,1.14523,0.077361,
2,1,0,1,0,35881.6,0.0792037,0.0789029,0.0423828,19,-0.000662655,10,3.34412e-06,-4.37281,0.0934671,0.631238,1.01346,0.07890287,
2,1,0,1,0,35883.1,0.0807019,0.0803546,0.0430489,19,-0.000581771,10,3.45918e-06,-4.36604,0.110269,0.535054,0.892858,0.0803546,
2,1,0,1,0,35884.6,0.0822001,0.0818953,0.0439629,19,-0.000499176,10,3.60036e-06,-4.35691,0.109476,0.53893,0.932392,0.0818953,
2,1,0,1,0,35886.1,0.0836983,0.0833566,0.046303,19,-0.000414283,10,3.85966e-06,-4.33439,0.108315,0.544709,0.977565,0.0833566,
2,1,0,1,0,35887.5,0.0851965,0.0849005,0.0470461,19,-0.000327088,10,3.99424e-06,-4.32748,0.104868,0.56261,1.04974,0.0849005,
2,1,0,1,0,35889,0.0866947,0.0863618,0.0488777,19,-0.000237391,10,4.22116e-06,-4.31089,0.12024,0.490684,0.937996,0.0863618,
2,1,0,1,0,35890.5,0.0881929,0.0878857,0.0505725,19,-0.000144792,10,4.44459e-06,-4.29609,0.0991315,0.595169,1.18923,0.0878857,
2,1,0,1,0,35892,0.0896911,0.0893479,0.0529254,19,-5.01613e-05,10,4.72878e-06,-4.27634,0.0987992,0.597171,1.23536,0.0893479,
2,1,0,1,0,35893.5,0.0911893,0.0908548,0.0547122,19,4.78619e-05,10,4.97087e-06,-4.26192,0.0964933,0.611441,1.30002,0.0908548,
2,1,0,1,0,35895,0.0926875,0.0923118,0.0568141,19,0.000148938,10,5.24461e-06,-4.24554,0.0994384,0.593332,1.30811,0.0923118,
2,1,0,1,0,35896.5,0.0941857,0.0938431,0.0593069,19,0.000252916,10,5.56554e-06,-4.22689,0.108899,0.541787,1.23746,0.0938431,
2,1,0,1,0,35898,0.0956839,0.0953509,0.0603121,19,0.00035966,10,5.75082e-06,-4.2196,0.111803,0.527713,1.25029,0.0953509,
2,1,0,1,0,35899.5,0.0971821,0.0968398,0.0626617,19,0.000469665,10,6.06815e-06,-4.203,0.0892935,0.660743,1.61146,0.0968398,
2,1,0,1,0,35901,0.0986803,0.0983212,0.064698,19,0.000582849,10,6.36118e-06,-4.18911,0.107001,0.551394,1.39938,0.0983212,
2,1,0,1,0,35902.5,0.100178,0.0998555,0.0668051,19,0.000699394,10,6.67085e-06,-4.17519,0.115173,0.512272,1.34484,0.0998555,
2,1,0,1,0,35904,0.101677,0.101331,0.0688187,19,0.000818741,10,6.97343e-06,-4.16229,0.114537,0.515119,1.39089,0.101331,
2,1,0,1,0,35905.5,0.103175,0.102856,0.0717283,19,0.000941769,10,7.37772e-06,-4.14431,0.109861,0.537045,1.49306,0.102856,
2,1,0,1,0,35907,0.104673,0.104354,0.0742496,19,0.00106809,10,7.74822e-06,-4.12931,0.135378,0.435817,1.24698,0.104354,
2,1,0,1,0,35908.5,0.106171,0.105884,0.0751277,19,0.00119735,10,7.95481e-06,-4.1242,0.134209,0.439612,1.28917,0.105884,
2,1,0,1,0,35910,0.107669,0.107359,0.0768986,19,0.00132953,10,8.25576e-06,-4.11408,0.130299,0.452804,1.3615,0.107359,
2,1,0,1,0,35911.5,0.109167,0.108796,0.0793725,19,0.00146434,10,8.63539e-06,-4.10033,0.149574,0.394455,1.22647,0.108796,
2,1,0,1,0,35913,0.110666,0.110348,0.0801606,19,0.00160225,10,8.84558e-06,-4.09604,0.150029,0.393257,1.24343,0.110348,
2,1,0,1,0,35914.5,0.112164,0.11181,0.0827087,19,0.00174292,10,9.2477e-06,-4.08245,0.226888,0.26004,0.838069,0.1118105,
2,1,0,1,0,35916,0.113662,0.113322,0.0843553,19,0.00188608,10,9.55928e-06,-4.07389,0.164777,0.35806,1.18536,0.113322,
2,1,0,1,0,35917.5,0.11516,0.114854,0.0864649,19,0.00203139,10,9.93083e-06,-4.06316,0.174347,0.338406,1.13589,0.114854,
2,1,0,1,0,35919,0.116658,0.116327,0.0878657,19,0.00217993,10,1.02211e-05,-4.05618,0.1833,0.321877,1.10217,0.116327,
2,1,0,1,0,35920.5,0.118157,0.117803,0.0896743,19,0.00233124,10,1.05639e-05,-4.04733,0.174702,0.337718,1.18175,0.117803,
2,1,0,1,0,35922,0.119655,0.119303,0.0914165,19,0.00248458,10,1.09063e-05,-4.03898,0.246321,0.239525,0.854505,0.119303,
2,1,0,1,0,35923.5,0.121153,0.120843,0.0925338,19,0.00264025,10,1.11821e-05,-4.0337,0.178327,0.330853,1.20026,0.120843,
2,1,0,1,0,35925,0.122651,0.122297,0.0938174,19,0.0027984,10,1.14736e-05,-4.02772,0.192684,0.3062,1.12271,0.122297,
2,1,0,1,0,35926.5,0.124149,0.123841,0.0959582,19,0.00295912,10,1.18836e-05,-4.01792,0.23486,0.251213,0.939813,0.123841,
2,1,0,1,0,35928,0.125648,0.125302,0.0968909,19,0.00312175,10,1.21406e-05,-4.01372,0.315521,0.186992,0.707107,0.125302,
2,1,0,1,0,35929.5,0.127146,0.126834,0.0972367,19,0.00328576,10,1.2333e-05,-4.01217,0.298165,0.197877,0.754844,0.126834,
2,1,0,1,0,35931,0.128644,0.128322,0.0987533,19,0.00345099,10,1.26722e-05,-4.00545,0.641109,0.092028,0.354295,0.128322,
2,1,0,1,0,35932.5,0.130142,0.129824,0.099683,19,0.00361762,10,1.29412e-05,-4.00138,4.40108,0.0134058,0.0518152,0.129824,
2,1,0,1,0,35934,0.13164,0.13135,0.0992855,19,0.00378483,10,1.30411e-05,-4.00311,-0.43687,-0.135052,-0.518272,0.13135,
2,1,0,1,0,35935.5,0.133139,0.132817,0.0982094,19,0.00395079,10,1.30439e-05,-4.00785,-0.307274,-0.192011,-0.735851,0.132817,
2,1,0,1,0,35937,0.134637,0.134292,0.0971963,19,0.00411485,10,1.30527e-05,-4.01235,-0.227861,-0.25893,-0.978609,0.1342922,
2,1,0,1,0,35938.5,0.136135,0.135813,0.0952786,19,0.00427679,10,1.29401e-05,-4.021,-0.14299,-0.412616,-1.52571,0.135813,
2,1,0,1,0,35940,0.137633,0.137306,0.0929439,19,0.0044353,10,1.27618e-05,-4.03178,-0.102027,-0.578279,-2.06172,0.137306,
2,1,0,1,0,35941.5,0.139131,0.138821,0.0894215,19,0.00458917,10,1.24136e-05,-4.04856,-0.0833613,-0.707762,-2.44123,0.1388212,
2,1,0,1,0,35943,0.14063,0.14033,0.0855738,19,0.00473699,10,1.20086e-05,-4.06766,-0.0771348,-0.764895,-2.54057,0.14033,
2,1,0,1,0,35944.5,0.142128,0.141791,0.0813576,19,0.00487922,10,1.15358e-05,-4.0896,-0.073873,-0.798668,-2.52661,0.141791,
2,1,0,1,0,35946,0.143626,0.143295,0.0770673,19,0.00501551,10,1.10434e-05,-4.11313,-0.0687582,-0.858079,-2.59333,0.143295,
2,1,0,1,0,35947.5,0.145124,0.14482,0.0732068,19,0.00514537,10,1.06018e-05,-4.13545,-0.0642677,-0.918035,-2.63532,0.14482,
2,1,0,1,0,35949,0.146622,0.146279,0.0694019,19,0.00526909,10,1.0152e-05,-4.15863,-0.0706791,-0.834759,-2.27568,0.146279,
2,1,0,1,0,35950.5,0.14812,0.147794,0.0660914,19,0.00538764,10,9.76794e-06,-4.17985,-0.0784337,-0.752228,-1.94936,0.147794,
2,1,0,1,0,35952,0.149619,0.149327,0.0629924,19,0.00550164,10,9.40645e-06,-4.20071,-0.0821804,-0.717932,-1.77785,0.149327,
2,1,0,1,0,35953.5,0.151117,0.150784,0.0604905,19,0.00561122,10,9.12098e-06,-4.21831,-0.0775161,-0.761132,-1.81086,0.150784,
2,1,0,1,0,35955,0.152615,0.152293,0.0579375,19,0.00571664,10,8.82346e-06,-4.23704,-0.0998308,-0.591,-1.35826,0.152293,
2,1,0,1,0,35956.5,0.154113,0.153789,0.0570883,19,0.00581915,10,8.77955e-06,-4.24345,-0.141332,-0.417456,-0.927619,0.153789,
2,1,0,1,0,35958,0.155611,0.155314,0.0557568,19,0.00591971,10,8.6598e-06,-4.2537,-0.138257,-0.426743,-0.927368,0.1553138,
2,1,0,1,0,35959.5,0.15711,0.156792,0.0542132,19,0.00601813,10,8.5002e-06,-4.26589,-0.160458,-0.367697,-0.781527,0.156792,
2,1,0,1,0,35961,0.158608,0.158308,0.0529887,19,0.00611472,10,8.38855e-06,-4.27582,-0.182173,-0.323869,-0.67832,0.158308,
2,1,0,1,0,35962.5,0.160106,0.15979,0.0517244,19,0.00620965,10,8.26503e-06,-4.2863,-0.199131,-0.296288,-0.60942,0.1597898,
2,1,0,1,0,35964,0.161604,0.161263,0.0518125,19,0.00630368,10,8.35542e-06,-4.28557,-0.640393,-0.092131,-0.187197,0.161263,
2,1,0,1,0,35965.5,0.163102,0.16277,0.0519014,19,0.00639709,10,8.44801e-06,-4.28482,-0.788058,-0.0748676,-0.150545,0.16277,
2,1,0,1,0,35967,0.164601,0.164296,0.0513212,19,0.00649007,10,8.43189e-06,-4.2897,-0.58426,-0.100982,-0.201201,0.1642964,
2,1,0,1,0,35968.5,0.166099,0.165767,0.0512753,19,0.00658245,10,8.49977e-06,-4.29009,-1.00191,-0.0588873,-0.117014,0.165767,
2,1,0,1,0,35969.9,0.167597,0.167256,0.0510329,19,0.00667467,10,8.53555e-06,-4.29215,-1.52463,-0.038698,-0.076377,0.167256,
2,1,0,1,0,35971.4,0.169095,0.168806,0.050475,19,0.00676684,10,8.5205e-06,-4.29692,-0.607313,-0.0971492,-0.192716,0.168806,
2,1,0,1,0,35972.9,0.170593,0.170261,0.0505516,19,0.00685841,10,8.60698e-06,-4.29626,-0.701254,-0.0841349,-0.167327,0.170261,
2,1,0,1,0,35974.4,0.172091,0.171724,0.0504435,19,0.0069493,10,8.66238e-06,-4.29719,-0.532632,-0.110771,-0.219584,0.171724,
2,1,0,1,0,35975.9,0.17359,0.173256,0.0500915,19,0.00704038,10,8.67864e-06,-4.30024,3.21597,0.018346,0.0358911,0.173256,
2,1,0,1,0,35977.4,0.175088,0.174774,0.0504164,19,0.00713134,10,8.81149e-06,-4.29743,-2.8995,-0.0203483,-0.0401143,0.174774,
2,1,0,1,0,35978.9,0.176586,0.176253,0.050218,19,0.00722232,10,8.85104e-06,-4.29914,-0.525296,-0.112318,-0.218941,0.1762525,
2,1,0,1,0,35980.4,0.178084,0.177778,0.0494559,19,0.00731305,10,8.79218e-06,-4.30578,-3.38531,-0.0174283,-0.0340647,0.177778,
2,1,0,1,0,35981.9,0.179582,0.179247,0.0498098,19,0.00740328,10,8.92826e-06,-4.30269,2.14511,0.0275044,0.0538742,0.179247,
2,1,0,1,0,35983.4,0.181081,0.180733,0.0503225,19,0.00749396,10,9.09493e-06,-4.29824,6.98261,0.00844957,0.0165028,0.180733,
2,1,0,1,0,35984.9,0.182579,0.182319,0.0500575,19,0.00758445,10,9.12644e-06,-4.30053,-0.665008,-0.0887208,-0.173099,0.182319,
2,1,0,1,0,35986.4,0.184077,0.183789,0.049873,19,0.00767464,10,9.16609e-06,-4.30213,3.9203,0.0150499,0.0294007,0.183789,
2,1,0,1,0,35987.9,0.185575,0.18529,0.0500136,19,0.0077647,10,9.26704e-06,-4.30091,0.744132,0.0792871,0.155761,0.18529,
2,1,0,1,0,35989.4,0.187073,0.186779,0.050252,19,0.00785511,10,9.38603e-06,-4.29885,0.662402,0.0890698,0.174849,0.1867792,
2,1,0,1,0,35990.9,0.188572,0.188238,0.0503588,19,0.00794612,10,9.47946e-06,-4.29792,3.86778,0.0152542,0.0298588,0.188238,
2,1,0,1,0,35992.4,0.19007,0.189782,0.0504998,19,0.00803703,10,9.58397e-06,-4.29671,-4.49221,-0.0131339,-0.0258991,0.189782,
2,1,0,1,0,35993.9,0.191568,0.191234,0.0505144,19,0.00812772,10,9.66007e-06,-4.29658,1.59817,0.0369172,0.0729047,0.191234,
2,1,0,1,0,35995.4,0.193066,0.192771,0.0508428,19,0.00821877,10,9.80099e-06,-4.29377,0.542967,0.108662,0.215,0.192771,
2,1,0,1,0,35996.9,0.194564,0.194249,0.051091,19,0.00831052,10,9.92435e-06,-4.29166,0.690885,0.0853977,0.170352,0.194249,
2,1,0,1,0,35998.4,0.196063,0.195724,0.0510585,19,0.00840261,10,9.99337e-06,-4.29193,2.69416,0.0218992,0.0438411,0.195724,
2,1,0,1,0,35999.9,0.197561,0.197222,0.0513088,19,0.0084946,10,1.01192e-05,-4.28981,-38.5514,-0.00153042,-0.003095,0.197222,
2,1,0,1,0,36001.4,0.199059,0.198702,0.0517313,19,0.00858695,10,1.02791e-05,-4.28625,2.8277,0.020865,0.0417253,0.198702,
2,1,0,1,0,36002.9,0.200557,0.200273,0.0516719,19,0.00867964,10,1.03485e-05,-4.28675,-4.96343,-0.0118869,-0.0237438,0.200273,
2,1,0,1,0,36004.4,0.202055,0.201774,0.0512926,19,0.00877171,10,1.03495e-05,-4.28995,1.49854,0.0393717,0.0794584,0.2017744,
2,1,0,1,0,36005.9,0.203554,0.203213,0.0512359,19,0.00886357,10,1.04118e-05,-4.29043,1.86822,0.0315808,0.0634346,0.203213,
2,1,0,1,0,36007.4,0.205052,0.204739,0.0518068,19,0.00895592,10,1.06069e-05,-4.28561,0.504202,0.117017,0.236176,0.204739,
2,1,0,1,0,36008.9,0.20655,0.20624,0.0515165,19,0.0090483,10,1.06247e-05,-4.28805,12.8964,0.00457492,0.00924899,0.20624,
2,1,0,1,0,36010.4,0.208048,0.207735,0.0514294,19,0.00914123,10,1.06837e-05,-4.28879,-168.548,-0.00035005,-0.000704933,0.207735,
2,1,0,1,0,36011.9,0.209546,0.209228,0.0522191,19,0.00923384,10,1.09257e-05,-4.28217,0.487719,0.120971,0.24585,0.2092279,
2,1,0,1,0,36013.4,0.211044,0.210758,0.0523836,19,0.00932694,10,1.10403e-05,-4.2808,0.394675,0.14949,0.304182,0.210758,
2,1,0,1,0,36014.9,0.212543,0.212237,0.0523726,19,0.00942034,10,1.11154e-05,-4.2809,0.611265,0.0965211,0.198317,0.212237,
2,1,0,1,0,36016.4,0.214041,0.213736,0.0526967,19,0.0095143,10,1.12632e-05,-4.27822,0.417248,0.141403,0.289719,0.213736,
2,1,0,1,0,36017.9,0.215539,0.215256,0.0532163,19,0.00960854,10,1.14551e-05,-4.27396,0.977538,0.0603557,0.124793,0.215256,
2,1,0,1,0,36019.4,0.217037,0.21671,0.0528576,19,0.00970256,10,1.14548e-05,-4.27689,0.555308,0.106247,0.220827,0.21671,
2,1,0,1,0,36020.9,0.218535,0.21823,0.0533691,19,0.0097972,10,1.16467e-05,-4.27271,0.46711,0.126309,0.261944,0.21823,
2,1,0,1,0,36022.4,0.220034,0.219772,0.0534951,19,0.00989219,10,1.17567e-05,-4.27169,0.799556,0.073791,0.154795,0.219772,
2,1,0,1,0,36023.9,0.221532,0.221232,0.053538,19,0.00998745,10,1.18443e-05,-4.27134,2.25654,0.0261462,0.0551454,0.2212318,
2,1,0,1,0,36025.4,0.22303,0.222687,0.0536844,19,0.010083,10,1.19548e-05,-4.27015,0.696298,0.0847339,0.179341,0.222687,
2,1,0,1,0,36026.9,0.224528,0.224218,0.0546233,19,0.010179,10,1.22475e-05,-4.26262,0.81524,0.0723713,0.153272,0.224218,
2,1,0,1,0,36028.4,0.226026,0.225744,0.0544536,19,0.0102755,10,1.22926e-05,-4.26397,0.805923,0.073208,0.155722,0.225744,
2,1,0,1,0,36029.9,0.227525,0.22719,0.0545718,19,0.0103719,10,1.23982e-05,-4.26303,1.45763,0.0404768,0.0865277,0.22719,
2,1,0,1,0,36031.4,0.229023,0.228689,0.0551319,19,0.0104689,10,1.2608e-05,-4.2586,0.744632,0.0792338,0.169039,0.228689,
2,1,0,1,0,36032.9,0.230521,0.230211,0.055078,19,0.0105661,10,1.26796e-05,-4.25902,1.40639,0.0419514,0.0908037,0.230211,
2,1,0,1,0,36034.4,0.232019,0.231752,0.0551802,19,0.0106634,10,1.27881e-05,-4.25822,0.762406,0.0773866,0.167197,0.231752,
2,1,0,1,0,36035.9,0.233517,0.23318,0.0556434,19,0.0107613,10,1.2975e-05,-4.25459,0.816269,0.0722801,0.156734,0.23318,
2,1,0,1,0,36037.4,0.235016,0.234686,0.0559445,19,0.0108593,10,1.31294e-05,-4.25224,6.94322,0.0084975,0.0184174,0.234686,
2,1,0,1,0,36038.9,0.236514,0.236182,0.0559917,19,0.0109575,10,1.32243e-05,-4.25188,2.15429,0.0273873,0.0594863,0.236182,
2,1,0,1,0,36040.4,0.238012,0.237709,0.0558716,19,0.0110558,10,1.32812e-05,-4.25281,1.65532,0.0356428,0.0779306,0.237709,
2,1,0,1,0,36041.9,0.23951,0.239166,0.0563123,19,0.0111544,10,1.3468e-05,-4.2494,1.28088,0.0460621,0.101297,0.239166,
2,1,0,1,0,36043.4,0.241008,0.240711,0.0566971,19,0.0112535,10,1.36476e-05,-4.24644,1.08403,0.0544263,0.12015,0.240711,
2,1,0,1,0,36044.9,0.242506,0.242197,0.056642,19,0.0113526,10,1.37185e-05,-4.24686,0.69534,0.0848506,0.187931,0.242197,
2,1,0,1,0,36046.4,0.244005,0.243596,0.0571168,19,0.0114525,10,1.39134e-05,-4.24324,0.454966,0.12968,0.287952,0.2435957,
2,1,0,1,0,36047.9,0.245503,0.245213,0.0570666,19,0.0115526,10,1.39935e-05,-4.24362,12.7352,0.00463283,0.0103627,0.245213,
2,1,0,1,0,36049.4,0.247001,0.246721,0.0572211,19,0.0116527,10,1.41176e-05,-4.24244,1.45472,0.0405575,0.0909946,0.246721,
2,1,0,1,0,36050.9,0.248499,0.248163,0.0572981,19,0.0117529,10,1.42193e-05,-4.24186,1.08784,0.0542361,0.121833,0.248163,
2,1,0,1,0,36052.4,0.249997,0.249693,0.057481,19,0.0118535,10,1.43526e-05,-4.24048,-3.70008,-0.0159456,-0.0358133,0.249693,
2,1,0,1,0,36053.8,0.251496,0.251202,0.0577326,19,0.0119544,10,1.45026e-05,-4.23858,0.592571,0.0995662,0.224184,0.251202,
2,1,0,1,0,36055.3,0.252994,0.252664,0.0578389,19,0.0120554,10,1.46138e-05,-4.23778,0.488585,0.120757,0.27421,0.252664,
2,1,0,1,0,36056.8,0.254492,0.254144,0.0581847,19,0.012157,10,1.47873e-05,-4.23519,0.352828,0.16722,0.38138,0.254144,
2,1,0,1,0,36058.3,0.25599,0.255629,0.0585874,19,0.0122592,10,1.49766e-05,-4.2322,0.520147,0.113429,0.261064,0.255629,
2,1,0,1,0,36059.8,0.257488,0.257164,0.0588926,19,0.0123618,10,1.5145e-05,-4.22994,6.72983,0.00876694,0.0202025,0.2571637,
2,1,0,1,0,36061.3,0.258987,0.258721,0.0592038,19,0.0124647,10,1.53173e-05,-4.22765,-3.40271,-0.0173391,-0.0399295,0.258721,
2,1,0,1,0,36062.8,0.260485,0.260196,0.0590065,19,0.0125675,10,1.53533e-05,-4.2291,4.27967,0.0137861,0.0319326,0.260196,
2,1,0,1,0,36064.3,0.261983,0.261663,0.0592064,19,0.0126701,10,1.54921e-05,-4.22763,0.808945,0.0729345,0.168817,0.2616629,
2,1,0,1,0,36065.8,0.263481,0.263157,0.0597038,19,0.0127733,10,1.57115e-05,-4.224,2.66064,0.0221751,0.0511785,0.263157,
2,1,0,1,0,36067.3,0.264979,0.264671,0.0594697,19,0.0128766,10,1.57399e-05,-4.2257,0.981094,0.060137,0.140022,0.264671,
2,1,0,1,0,36068.8,0.266477,0.266204,0.059701,19,0.0129798,10,1.58926e-05,-4.22402,1.11314,0.0530033,0.123827,0.266204,
2,1,0,1,0,36070.3,0.267976,0.267681,0.0598158,19,0.0130834,10,1.60115e-05,-4.22318,0.357173,0.165186,0.387542,0.267681,
2,1,0,1,0,36071.8,0.269474,0.269188,0.060664,19,0.0131873,10,1.633e-05,-4.21707,0.384468,0.153459,0.359271,0.2691876,
2,1,0,1,0,36073.3,0.270972,0.270653,0.0609434,19,0.0132923,10,1.64945e-05,-4.21507,2.27757,0.0259048,0.0611831,0.270653,
2,1,0,1,0,36074.8,0.27247,0.272149,0.0605567,19,0.0133971,10,1.64805e-05,-4.21784,-1.81188,-0.0325628,-0.0772446,0.272149,
2,1,0,1,0,36076.3,0.273968,0.273612,0.0606294,19,0.0135019,10,1.65889e-05,-4.21732,1.8671,0.0315999,0.0747575,0.273612,
2,1,0,1,0,36077.8,0.275467,0.27516,0.0611324,19,0.013607,10,1.68212e-05,-4.21373,1.06762,0.055263,0.130686,0.27516,
2,1,0,1,0,36079.3,0.276965,0.276663,0.0605792,19,0.0137119,10,1.676e-05,-4.21768,1.20886,0.0488065,0.116943,0.276663,
2,1,0,1,0,36080.8,0.278463,0.27818,0.0610062,19,0.0138172,10,1.69707e-05,-4.21463,0.887793,0.0664569,0.157582,0.27818,
2,1,0,1,0,36082.3,0.279961,0.279663,0.0609339,19,0.0139229,10,1.7041e-05,-4.21514,2.1645,0.027258,0.0652619,0.279663,
2,1,0,1,0,36083.8,0.281459,0.281155,0.0611991,19,0.0140282,10,1.72065e-05,-4.21325,0.889678,0.0663161,0.159553,0.281155,
2,1,0,1,0,36085.3,0.282958,0.282638,0.0613259,19,0.0141336,10,1.7333e-05,-4.21236,0.738404,0.079902,0.191811,0.282638,
2,1,0,1,0,36086.8,0.284456,0.284133,0.0620317,19,0.0142399,10,1.76253e-05,-4.20739,0.562963,0.104803,0.251818,0.284133,
2,1,0,1,0,36088.3,0.285954,0.285637,0.0618928,19,0.0143466,10,1.76789e-05,-4.20836,9.5546,0.00617504,0.0149117,0.285637,
2,1,0,1,0,36089.8,0.287452,0.287103,0.0622167,19,0.0144531,10,1.78626e-05,-4.20609,1.02112,0.0577798,0.140886,0.287103,
2,1,0,1,0,36091.3,0.28895,0.28862,0.0627822,19,0.0145603,10,1.81202e-05,-4.20216,0.739509,0.0797827,0.192898,0.28862,
2,1,0,1,0,36092.8,0.290448,0.290137,0.0625733,19,0.0146679,10,1.81548e-05,-4.20361,16.4035,0.0035968,0.00876764,0.290137,
2,1,0,1,0,36094.3,0.291947,0.291663,0.0628197,19,0.0147753,10,1.83222e-05,-4.2019,1.35206,0.0436371,0.107103,0.291663,
2,1,0,1,0,36095.8,0.293445,0.293133,0.0625289,19,0.0148826,10,1.83292e-05,-4.20392,0.84383,0.0699193,0.171256,0.293133,
2,1,0,1,0,36097.3,0.294943,0.294647,0.0632417,19,0.0149904,10,1.8634e-05,-4.199,0.734372,0.0803408,0.19731,0.294647,
2,1,0,1,0,36098.8,0.296441,0.296119,0.0634513,19,0.0150984,10,1.87891e-05,-4.19756,3.34245,0.0176517,0.0434703,0.296119,
2,1,0,1,0,36100.3,0.297939,0.29761,0.0635248,19,0.0152068,10,1.89056e-05,-4.19706,0.573623,0.102855,0.255182,0.29761,
2,1,0,1,0,36101.8,0.299438,0.299173,0.0635684,19,0.0153152,10,1.90179e-05,-4.19676,-0.00459315,-12.8452,-20.7246,0.2991727,
2,1,0,1,0,36102.6,0.299737,0.299435,0.0325158,19,0.0153641,10,9.73636e-06,-4.48791,0.00220274,26.7849,37.7001,0.299435,
2,1,0,1,0,36104.1,0.298239,0.297908,0.0195672,19,0.0153867,10,5.82922e-06,-4.70847,0.00548863,10.7495,13.9375,0.297908,
2,1,0,1,0,36105.6,0.296741,0.296423,0.0150946,19,0.0153988,10,4.47438e-06,-4.82118,0.0135702,4.34775,2.6366,0.296423,
2,1,0,1,0,36107.1,0.295243,0.294944,0.0117066,19,0.0154054,10,3.4528e-06,-4.93157,0.0160905,3.66677,1.75925,0.294944,
2,1,0,1,0,36108.6,0.293745,0.293447,0.00939691,19,0.015408,10,2.75749e-06,-5.02701,0.0138107,4.27205,1.56209,0.293447,
2,1,0,1,0,36110.1,0.292246,0.291905,0.00753129,19,0.0154074,10,2.19842e-06,-5.12313,0.0124057,4.7559,1.37521,0.291905,
2,1,0,1,0,36111.6,0.290748,0.290448,0.00560929,19,0.0154037,10,1.62921e-06,-5.25109,0.010697,5.51556,1.18804,0.290448,
2,1,0,1,0,36113.1,0.28925,0.288936,0.00365704,19,0.0153974,10,1.05665e-06,-5.43687,0.00758346,7.78009,1.11707,0.288936,
2,1,0,1,0,36114.6,0.287752,0.287416,0.00257593,19,0.0153887,10,7.40362e-07,-5.58907,0.00414685,14.2277,1.02034,0.287416,
2,1,0,1,0,36116.1,0.286254,0.285959,0.00148084,19,0.0153781,10,4.23459e-07,-5.82949,0.00612658,9.63017,0.886577,0.285959,
2,0,0,1,0,36117.6,0.284755,0.284448,0.000128442,19,0.0153654,10,3.65351e-08,-6.89129,-0.0629219,-0.93767,0.941314,0.284448,
2,1,0,1,0,36119.1,0.283257,0.282972,-0.001894,19,0.0153508,10,-5.35948e-07,-5.72262,-0.003786,-15.5837,0.839773,0.282972,
2,1,0,1,0,36120.6,0.281759,0.281445,-0.00299019,19,0.015334,10,-8.41574e-07,-5.5243,-0.00701265,-8.41337,0.762557,0.281445,
2,1,0,1,0,36122.1,0.280261,0.279957,-0.00342826,19,0.0153157,10,-9.59766e-07,-5.46493,-0.0134025,-4.40215,0.600693,0.279957,
2,0,0,1,0,36123.6,0.278763,0.278453,-0.0044614,19,0.0152961,10,-1.24229e-06,-5.35053,-0.014266,-4.13569,0.71395,0.278453,
2,0,0,1,0,36125.1,0.277264,0.276926,-0.00558547,19,0.0152749,10,-1.54676e-06,-5.25294,-0.0176332,-3.34595,0.715116,0.2769264,
2,0,0,1,0,36126.6,0.275766,0.275466,-0.00663459,19,0.0152521,10,-1.82761e-06,-5.17819,-0.0246342,-2.39504,0.584551,0.275466,
2,1,0,1,0,36128.1,0.274268,0.273929,-0.00688885,19,0.015228,10,-1.88705e-06,-5.16185,-0.0246074,-2.39765,0.693474,0.273929,
2,0,0,1,0,36129.6,0.27277,0.272475,-0.00835227,19,0.0152027,10,-2.27578e-06,-5.0782,-0.029607,-1.99277,0.665202,0.272475,
2,0,0,1,0,36131.1,0.271272,0.270961,-0.00900551,19,0.0151759,10,-2.44014e-06,-5.04549,-0.0420624,-1.40268,0.494641,0.2709606,
2,0,0,1,0,36132.6,0.269774,0.269443,-0.0104053,19,0.0151476,10,-2.80364e-06,-4.98274,-0.0370483,-1.59251,0.618943,0.269443,
2,0,0,1,0,36134.1,0.268275,0.267937,-0.0114427,19,0.015118,10,-3.06593e-06,-4.94147,-0.0555001,-1.06306,0.450418,0.267937,
2,0,0,1,0,36135.6,0.266777,0.266449,-0.0119234,19,0.0150871,10,-3.17697e-06,-4.9236,-0.0690505,-0.854447,0.389248,0.266449,
2,0,0,1,0,36137.1,0.265279,0.264954,-0.0124786,19,0.0150552,10,-3.30627e-06,-4.90383,-0.0699766,-0.843139,0.40959,0.264954,
2,0,0,1,0,36138.6,0.263781,0.26344,-0.012925,19,0.0150223,10,-3.40498e-06,-4.88857,-0.0539233,-1.09415,0.569056,0.26344,
2,0,0,1,0,36140.1,0.262283,0.262004,-0.0138175,19,0.0149882,10,-3.62025e-06,-4.85957,-0.0834797,-0.706759,0.37739,0.262004,
2,0,0,1,0,36141.6,0.260784,0.260485,-0.0143259,19,0.0149531,10,-3.73169e-06,-4.84388,-0.0647048,-0.911833,0.516601,0.260485,
2,0,0,1,0,36143.1,0.259286,0.258997,-0.0150921,19,0.0149171,10,-3.9088e-06,-4.82125,-0.0585876,-1.00704,0.592172,0.258997,
2,0,0,1,0,36144.6,0.257788,0.257504,-0.016084,19,0.01488,10,-4.14169e-06,-4.79361,-0.0735999,-0.801631,0.498778,0.257504,
2,0,0,1,0,36146.1,0.25629,0.255963,-0.0167861,19,0.0148415,10,-4.29663e-06,-4.77505,-0.0749432,-0.787263,0.511444,0.255963,
2,0,0,1,0,36147.6,0.254792,0.254482,-0.0176022,19,0.0148019,10,-4.47944e-06,-4.75443,-0.081781,-0.721439,0.489575,0.254482,
2,0,0,1,0,36149.1,0.253293,0.252985,-0.0184255,19,0.0147611,10,-4.66137e-06,-4.73458,-0.0909532,-0.648685,0.461541,0.252985,
2,0,0,1,0,36150.6,0.251795,0.251476,-0.0191944,19,0.014719,10,-4.82693e-06,-4.71682,-0.10431,-0.565621,0.421518,0.251476,
2,0,0,1,0,36152.1,0.250297,0.249954,-0.0192671,19,0.014676,10,-4.81589e-06,-4.71518,-0.124567,-0.473639,0.360935,0.249954,
2,0,0,1,0,36153.6,0.248799,0.248471,-0.0200462,19,0.0146321,10,-4.9809e-06,-4.69797,-0.103701,-0.568944,0.449209,0.248471,
2,0,0,1,0,36155.1,0.247301,0.246984,-0.0206509,19,0.0145875,10,-5.10044e-06,-4.68506,-0.0860068,-0.685992,0.564161,0.246984,
2,0,0,1,0,36156.6,0.245802,0.245496,-0.0219043,19,0.0145415,10,-5.37742e-06,-4.65947,-0.113122,-0.521562,0.437155,0.245496,
2,0,0,1,0,36158.1,0.244304,0.24398,-0.0223323,19,0.0144943,10,-5.44862e-06,-4.65107,-0.129646,-0.455086,0.393186,0.24398,
2,0,0,1,0,36159.6,0.242806,0.242457,-0.0227477,19,0.0144465,10,-5.51535e-06,-4.64306,-0.108345,-0.544557,0.482011,0.242457,
2,0,0,1,0,36161.1,0.241308,0.241029,-0.0232985,19,0.0143978,10,-5.61562e-06,-4.63267,-0.182894,-0.322591,0.293011,0.241029,
2,0,0,1,0,36162.6,0.23981,0.239489,-0.02426,19,0.0143481,10,-5.81e-06,-4.61511,-0.100445,-0.587384,0.550055,0.239489,
2,0,0,1,0,36164.1,0.238312,0.23798,-0.0240813,19,0.0142976,10,-5.73086e-06,-4.61832,-0.195445,-0.301875,0.289812,0.23798,
2,0,0,1,0,36165.6,0.236813,0.236529,-0.0251818,19,0.014246,10,-5.95624e-06,-4.59891,-0.19428,-0.303686,0.294738,0.236529,
2,0,0,1,0,36167.1,0.235315,0.234976,-0.0256489,19,0.0141938,10,-6.02686e-06,-4.59093,-0.159091,-0.370858,0.370582,0.234976,
2,0,0,1,0,36168.6,0.233817,0.233521,-0.0262887,19,0.0141408,10,-6.13895e-06,-4.58023,-0.164767,-0.358081,0.365213,0.233521,
2,0,0,1,0,36170.1,0.232319,0.232,-0.0267202,19,0.0140866,10,-6.19909e-06,-4.57316,-0.142663,-0.413562,0.431257,0.2320002,
2,0,0,1,0,36171.6,0.230821,0.230541,-0.0276117,19,0.0140315,10,-6.36564e-06,-4.55891,-0.223427,-0.264068,0.281373,0.230541,
2,0,0,1,0,36173.1,0.229322,0.228964,-0.0276499,19,0.0139757,10,-6.33084e-06,-4.55831,-0.168457,-0.350237,0.377712,0.228964,
2,0,0,1,0,36174.6,0.227824,0.227508,-0.0279587,19,0.0139195,10,-6.36084e-06,-4.55348,-0.222984,-0.264593,0.294434,0.227508,
2,0,0,1,0,36176.1,0.226326,0.226005,-0.0290822,19,0.0138622,10,-6.5727e-06,-4.53637,-0.138166,-0.427022,0.480347,0.226005,
2,0,0,1,0,36177.5,0.224828,0.224524,-0.0295817,19,0.0138038,10,-6.64181e-06,-4.52898,-0.210111,-0.280805,0.321593,0.224524,
2,0,0,1,0,36179,0.22333,0.223012,-0.0301119,19,0.0137446,10,-6.71533e-06,-4.52126,-0.194139,-0.303906,0.356706,0.223012,
2,0,0,1,0,36180.5,0.221831,0.221526,-0.0305191,19,0.0136846,10,-6.76075e-06,-4.51543,-0.191887,-0.307473,0.364387,0.221526,
2,0,0,1,0,36182,0.220333,0.220026,-0.0311875,19,0.0136238,10,-6.86206e-06,-4.50602,-0.592023,-0.0996583,0.119838,0.220026,
2,0,0,1,0,36183.5,0.218835,0.21854,-0.0311126,19,0.0135623,10,-6.79935e-06,-4.50706,-0.308624,-0.191171,0.234521,0.21854,
2,0,0,1,0,36185,0.217337,0.21701,-0.032087,19,0.0135003,10,-6.9632e-06,-4.49367,-0.216935,-0.27197,0.336622,0.21701,
2,0,0,1,0,36186.5,0.215839,0.215529,-0.0325119,19,0.0134376,10,-7.00725e-06,-4.48796,-0.151757,-0.38878,0.494742,0.215529,
2,0,0,1,0,36188,0.21434,0.214052,-0.033025,19,0.0133737,10,-7.06907e-06,-4.48116,-0.164792,-0.358027,0.458244,0.214052,
2,0,0,1,0,36189.5,0.212842,0.212522,-0.0335762,19,0.0133086,10,-7.13567e-06,-4.47397,-0.17341,-0.340234,0.450011,0.212522,
2,0,0,1,0,36191,0.211344,0.210996,-0.0341015,19,0.0132427,10,-7.19526e-06,-4.46723,-0.244061,-0.241743,0.322425,0.210996,
2,0,0,1,0,36192.5,0.209846,0.209479,-0.034851,19,0.0131759,10,-7.30056e-06,-4.45778,-0.203827,-0.289461,0.395428,0.209479,
2,0,0,1,0,36194,0.208348,0.208045,-0.0358307,19,0.0131082,10,-7.45439e-06,-4.44574,-0.192429,-0.306607,0.425128,0.208045,
2,0,0,1,0,36195.5,0.20685,0.206553,-0.0369875,19,0.0130392,10,-7.63987e-06,-4.43194,-0.207046,-0.28496,0.402553,0.206553,
2,0,0,1,0,36197,0.205351,0.205046,-0.0367564,19,0.0129695,10,-7.53673e-06,-4.43467,-0.357749,-0.16492,0.237015,0.205046,
2,0,0,1,0,36198.5,0.203853,0.203505,-0.0372045,19,0.0128989,10,-7.57129e-06,-4.42941,-0.270363,-0.218225,0.316126,0.203505,
2,0,0,1,0,36200,0.202355,0.202047,-0.0374684,19,0.0128279,10,-7.57037e-06,-4.42634,-0.380617,-0.155012,0.228782,0.202047,
2,0,0,1,0,36201.5,0.200857,0.20053,-0.0380519,19,0.012756,10,-7.63057e-06,-4.41962,-0.208954,-0.282359,0.422713,0.20053,
2,0,0,1,0,36203,0.199359,0.19904,-0.0385603,19,0.0126833,10,-7.67502e-06,-4.41386,-0.32421,-0.181981,0.274491,0.19904,
2,0,0,1,0,36204.5,0.19786,0.197534,-0.039474,19,0.0126096,10,-7.79744e-06,-4.40369,-0.268937,-0.219382,0.336246,0.197534,
2,0,0,1,0,36206,0.196362,0.19606,-0.0401274,19,0.0125352,10,-7.86737e-06,-4.39656,-0.240815,-0.245002,0.382798,0.19606,
2,0,0,1,0,36207.5,0.194864,0.194533,-0.0405804,19,0.0124597,10,-7.89421e-06,-4.39168,-0.168456,-0.35024,0.554256,0.194533,
2,0,0,1,0,36209,0.193366,0.193025,-0.0413062,19,0.012383,10,-7.97313e-06,-4.38398,-0.179186,-0.329267,0.525628,0.193025,
2,0,0,1,0,36210.5,0.191868,0.191514,-0.0419827,19,0.0123054,10,-8.04026e-06,-4.37693,-0.300595,-0.196277,0.321554,0.191514,
2,0,0,1,0,36212,0.190369,0.190108,-0.0423165,19,0.0122271,10,-8.04469e-06,-4.37349,-0.201575,-0.292696,0.484536,0.190108,
2,0,0,1,0,36213.5,0.188871,0.188505,-0.0428015,19,0.0121477,10,-8.06832e-06,-4.36854,-0.259837,-0.227066,0.38111,0.188505,
2,0,0,1,0,36215,0.187373,0.187063,-0.043593,19,0.0120673,10,-8.15465e-06,-4.36058,-0.167322,-0.352614,0.609775,0.187063,
2,0,0,1,0,36216.5,0.185875,0.1856,-0.0450741,19,0.011986,10,-8.36576e-06,-4.34607,-0.135793,-0.434484,0.758701,0.1856,
2,0,0,1,0,36218,0.184377,0.184056,-0.0456707,19,0.011903,10,-8.40597e-06,-4.34036,-0.182439,-0.323396,0.574403,0.184056,
2,0,0,1,0,36219.5,0.182878,0.18258,-0.0466918,19,0.0118189,10,-8.52499e-06,-4.33076,-0.251902,-0.234218,0.428822,0.18258,
2,0,0,1,0,36221,0.18138,0.181081,-0.0476808,19,0.0117337,10,-8.63406e-06,-4.32166,-0.221612,-0.266231,0.49125,0.181081,
2,0,0,1,0,36222.5,0.179882,0.179604,-0.0480638,19,0.0116471,10,-8.63247e-06,-4.31818,-0.249761,-0.236226,0.443659,0.179604,
2,0,0,1,0,36224,0.178384,0.178063,-0.0488505,19,0.0115593,10,-8.69846e-06,-4.31113,-0.252137,-0.234,0.445173,0.178063,
2,0,0,1,0,36225.5,0.176886,0.176584,-0.0498644,19,0.0114705,10,-8.80527e-06,-4.30221,-0.203308,-0.2902,0.567028,0.176584,
2,0,0,1,0,36227,0.175388,0.175069,-0.0504926,19,0.0113804,10,-8.8397e-06,-4.29677,-0.177014,-0.333307,0.657209,0.175069,
2,0,0,1,0,36228.5,0.173889,0.173577,-0.0516967,19,0.0112888,10,-8.97336e-06,-4.28654,-0.202102,-0.291932,0.589268,0.173577,
2,0,0,1,0,36230,0.172391,0.172058,-0.0525752,19,0.011196,10,-9.04596e-06,-4.27922,-0.189954,-0.310601,0.634347,0.172058,
2,0,0,1,0,36231.5,0.170893,0.170535,-0.0531042,19,0.0111015,10,-9.05611e-06,-4.27487,-0.178129,-0.331221,0.690518,0.170535,
2,0,0,1,0,36233,0.169395,0.169113,-0.0545587,19,0.0110057,10,-9.22657e-06,-4.26314,-0.175032,-0.337082,0.713457,0.169113,
2,0,0,1,0,36234.5,0.167897,0.167595,-0.0556819,19,0.0109079,10,-9.33203e-06,-4.25429,-0.167842,-0.35152,0.761151,0.167595,
2,0,0,1,0,36236,0.166398,0.166049,-0.0562496,19,0.0108088,10,-9.3402e-06,-4.24988,-0.204814,-0.288066,0.637255,0.1660492,
2,0,0,1,0,36237.5,0.1649,0.164588,-0.057369,19,0.0107082,10,-9.44225e-06,-4.24132,-0.138142,-0.427097,0.964565,0.164588,
2,0,0,1,0,36239,0.163402,0.163065,-0.059299,19,0.0106055,10,-9.66961e-06,-4.22695,-0.138724,-0.425304,0.974444,0.163065,
2,0,0,1,0,36240.5,0.161904,0.161554,-0.0605402,19,0.0105004,10,-9.78052e-06,-4.21796,-0.146473,-0.402806,0.948682,0.161554,
2,0,0,1,0,36242,0.160406,0.160098,-0.0617681,19,0.0103935,10,-9.88896e-06,-4.20924,-0.151116,-0.390429,0.940622,0.160098,
2,0,0,1,0,36243.5,0.158907,0.158581,-0.0631839,19,0.0102844,10,-1.00198e-05,-4.19939,-0.136956,-0.430795,1.05734,0.158581,
2,0,0,1,0,36245,0.157409,0.157093,-0.0648997,19,0.0101728,10,-1.01953e-05,-4.18776,-0.128307,-0.459835,1.16288,0.157093,
2,0,0,1,0,36246.5,0.155911,0.155571,-0.0668752,19,0.0100585,10,-1.04039e-05,-4.17473,-0.130478,-0.452182,1.17782,0.155571,
2,0,0,1,0,36248,0.154413,0.154056,-0.0684775,19,0.00994108,10,-1.05494e-05,-4.16445,-0.141422,-0.417191,1.11073,0.1540561,
2,0,0,1,0,36249.5,0.152915,0.152608,-0.0702637,19,0.00982094,10,-1.07228e-05,-4.15327,-0.121166,-0.486937,1.34793,0.1526075,
2,0,0,1,0,36251,0.151417,0.151084,-0.0727827,19,0.00969812,10,-1.09963e-05,-4.13797,-0.116618,-0.505927,1.43196,0.151084,
2,0,0,1,0,36252.5,0.149918,0.149561,-0.0750544,19,0.0095712,10,-1.12252e-05,-4.12462,-0.0993929,-0.593604,1.73647,0.149561,
2,0,0,1,0,36254,0.14842,0.148111,-0.0776367,19,0.00944059,10,-1.14989e-05,-4.10993,-0.0931931,-0.633094,1.92309,0.148111,
2,0,0,1,0,36255.5,0.146922,0.146632,-0.0807553,19,0.00930543,10,-1.18413e-05,-4.09283,-0.077761,-0.758735,2.39843,0.146632,
2,0,0,1,0,36257,0.145424,0.145093,-0.0839856,19,0.00916561,10,-1.21857e-05,-4.0758,-0.0778478,-0.757889,2.49815,0.145093,
2,0,0,1,0,36258.5,0.143926,0.143588,-0.0878639,19,0.00901962,10,-1.26162e-05,-4.05619,-0.0724055,-0.814856,2.7937,0.143588,
2,0,0,1,0,36259.9,0.142427,0.142076,-0.0921086,19,0.00886735,10,-1.30864e-05,-4.0357,-0.0723468,-0.815517,2.94914,0.142076,
2,0,0,1,0,36261.4,0.140929,0.14059,-0.0962684,19,0.00870893,10,-1.35344e-05,-4.01652,-0.0792076,-0.744878,2.80695,0.14059,
2,0,0,1,0,36262.9,0.139431,0.139105,-0.100839,19,0.00854371,10,-1.40272e-05,-3.99637,-0.0780386,-0.756037,2.98479,0.139105,
2,0,0,1,0,36264.4,0.137933,0.137628,-0.105728,19,0.00837186,10,-1.45511e-05,-3.97581,-0.0769726,-0.766506,3.16402,0.137628,
2,0,0,1,0,36265.9,0.136435,0.136097,-0.110612,19,0.00819252,10,-1.50539e-05,-3.9562,-0.0780942,-0.755498,3.25492,0.136097,
2,0,0,1,0,36267.4,0.134936,0.134601,-0.115959,19,0.00800553,10,-1.56081e-05,-3.9357,-0.0826198,-0.714114,3.20647,0.134601,
2,0,0,1,0,36268.9,0.133438,0.133115,-0.120024,19,0.00781135,10,-1.5977e-05,-3.92073,-0.0887052,-0.665125,3.11759,0.1331152,
2,0,0,1,0,36270.4,0.13194,0.131631,-0.125187,19,0.0076104,10,-1.64784e-05,-3.90244,-0.0979124,-0.602579,2.93854,0.131631,
2,0,0,1,0,36271.9,0.130442,0.130141,-0.128648,19,0.00740267,10,-1.67424e-05,-3.8906,-0.117864,-0.500577,2.50843,0.130141,
2,0,0,1,0,36273.4,0.128944,0.128632,-0.132317,19,0.00718884,10,-1.70202e-05,-3.87838,-0.146799,-0.401911,2.06788,0.1286317,
2,0,0,1,0,36274.9,0.127445,0.1271,-0.135126,19,0.00697044,10,-1.71746e-05,-3.86926,-0.170697,-0.345642,1.82614,0.1271,
2,0,0,1,0,36276.4,0.125947,0.12561,-0.138194,19,0.0067485,10,-1.73585e-05,-3.85951,-0.2133,-0.276605,1.48571,0.12561,
2,0,0,1,0,36277.9,0.124449,0.124127,-0.140451,19,0.00652238,10,-1.74338e-05,-3.85248,-0.277177,-0.21286,1.15729,0.1241272,
2,0,0,1,0,36279.4,0.122951,0.122638,-0.141571,19,0.00629361,10,-1.73621e-05,-3.84902,-0.291333,-0.202517,1.11453,0.122638,
2,0,0,1,0,36280.9,0.121453,0.12113,-0.143272,19,0.006063,10,-1.73546e-05,-3.84384,-0.678966,-0.0868969,0.482502,0.12113,
2,0,0,1,0,36282.4,0.119955,0.119655,-0.143027,19,0.0058315,10,-1.71139e-05,-3.84458,-1.16721,-0.0505479,0.283423,0.1196554,
2,0,0,1,0,36283.9,0.118456,0.118161,-0.143704,19,0.00559888,10,-1.69803e-05,-3.84253,-0.84876,-0.0695132,0.389516,0.118161,
2,0,0,1,0,36285.4,0.116958,0.116616,-0.14406,19,0.00536531,10,-1.67997e-05,-3.84146,-6.8931,-0.00855929,0.0481434,0.116616,
2,0,0,1,0,36286.9,0.11546,0.115093,-0.144086,19,0.00513201,10,-1.65833e-05,-3.84138,1.82349,0.0323555,-0.182024,0.115093,
2,0,0,1,0,36288.4,0.113962,0.113607,-0.143012,19,0.00489902,10,-1.62472e-05,-3.84463,9.48291,0.00622172,-0.0349594,0.113607,
2,0,0,1,0,36289.9,0.112464,0.112101,-0.143802,19,0.00466642,10,-1.61204e-05,-3.84223,2.3831,0.0247576,-0.138791,0.112101,
2,0,0,1,0,36291.4,0.110965,0.110612,-0.14379,19,0.00443391,10,-1.5905e-05,-3.84227,1.78533,0.0330472,-0.185043,0.110612,
2,0,0,1,0,36292.9,0.109467,0.109154,-0.143197,19,0.00420156,10,-1.56306e-05,-3.84407,1.92727,0.0306133,-0.170924,0.109154,
2,0,0,1,0,36294.4,0.107969,0.107615,-0.143036,19,0.00396954,10,-1.53927e-05,-3.84456,3.14334,0.0187698,-0.105048,0.107615,
2,0,0,1,0,36295.9,0.106471,0.106182,-0.142529,19,0.003738,10,-1.5134e-05,-3.8461,40.7415,0.00144816,-0.00810557,0.1061819,
2,0,0,1,0,36297.4,0.104973,0.104661,-0.142708,19,0.0035065,10,-1.4936e-05,-3.84555,1.92687,0.0306196,-0.170534,0.1046613,
2,0,0,1,0,36298.9,0.103474,0.103154,-0.142434,19,0.00327525,10,-1.46927e-05,-3.84639,0.654224,0.0901831,-0.499168,0.103154,
2,0,0,1,0,36300.4,0.101976,0.101672,-0.142245,19,0.00304496,10,-1.44624e-05,-3.84696,0.609206,0.0968473,-0.534477,0.1016719,
2,0,0,1,0,36301.9,0.100478,0.100134,-0.140845,19,0.00281651,10,-1.41034e-05,-3.85126,0.654781,0.0901064,-0.494594,0.100134,
2,0,0,1,0,36303.4,0.0989798,0.0986551,-0.140006,19,0.00258879,10,-1.38123e-05,-3.85385,0.762587,0.0773682,-0.422657,0.0986551,
2,0,0,1,0,36304.9,0.0974816,0.0971652,-0.139526,19,0.00236206,10,-1.35571e-05,-3.85534,0.807278,0.0730852,-0.396737,0.09716519,
2,0,0,1,0,36306.4,0.0959834,0.0956329,-0.138122,19,0.00213693,10,-1.3209e-05,-3.85974,0.463828,0.127202,-0.688535,0.0956329,
2,0,0,1,0,36307.9,0.0944852,0.0941568,-0.137159,19,0.00191348,10,-1.29145e-05,-3.86277,0.832871,0.0708393,-0.381011,0.0941568,
2,0,0,1,0,36309.4,0.0929871,0.0926479,-0.136249,19,0.00169073,10,-1.26231e-05,-3.86567,0.992259,0.0594603,-0.316459,0.0926479,
2,0,0,1,0,36310.9,0.0914889,0.0911157,-0.136138,19,0.00146922,10,-1.24044e-05,-3.86602,0.435095,0.135603,-0.719583,0.0911157,
2,0,0,1,0,36312.4,0.0899907,0.089631,-0.134886,19,0.00124935,10,-1.209e-05,-3.87003,0.619789,0.0951937,-0.499942,0.089631,
2,0,0,1,0,36313.9,0.0884925,0.0881454,-0.133478,19,0.00103133,10,-1.17654e-05,-3.87459,0.392284,0.150401,-0.783906,0.0881454,
2,0,0,1,0,36315.4,0.0869943,0.0866768,-0.13244,19,0.000814846,10,-1.14795e-05,-3.87798,0.493438,0.119569,-0.619441,0.0866768,
2,0,0,1,0,36316.9,0.0854961,0.0851509,-0.131618,19,0.000599764,10,-1.12074e-05,-3.88068,0.428369,0.137732,-0.70904,0.0851509,
2,0,0,1,0,36318.4,0.083998,0.083678,-0.130622,19,0.000386245,10,-1.09302e-05,-3.88398,0.311326,0.189512,-0.965656,0.083678,
2,0,0,1,0,36319.9,0.0824998,0.0821447,-0.129687,19,0.000174168,10,-1.06531e-05,-3.8871,0.526653,0.112028,-0.567837,0.0821447,
2,0,0,1,0,36321.4,0.0810016,0.080694,-0.128339,19,-3.60539e-05,10,-1.03562e-05,-3.89164,0.591946,0.0996713,-0.502549,0.080694,
2,0,0,1,0,36322.9,0.0795034,0.0791712,-0.127727,19,-0.000244971,10,-1.01123e-05,-3.89372,0.527737,0.111798,-0.558525,0.0791712,
2,0,0,1,0,36324.4,0.0780052,0.0776559,-0.127428,19,-0.000453073,10,-9.89555e-06,-3.89473,0.632927,0.0932177,-0.460805,0.0776559,
2,0,0,1,0,36325.9,0.076507,0.0761777,-0.125973,19,-0.000659793,10,-9.59632e-06,-3.89972,0.691089,0.0853725,-0.420539,0.0761777,
2,0,0,1,0,36327.4,0.0750088,0.0746369,-0.125306,19,-0.000864845,10,-9.35242e-06,-3.90203,0.823809,0.0716185,-0.350904,0.0746369,
2,0,0,1,0,36328.9,0.0735106,0.0731502,-0.125259,19,-0.00106907,10,-9.16273e-06,-3.90219,0.764014,0.0772237,-0.376147,0.0731502,
2,0,0,1,0,36330.4,0.0720124,0.0716741,-0.124482,19,-0.00127243,10,-8.92211e-06,-3.90489,0.786683,0.0749985,-0.363765,0.0716741,
2,0,0,1,0,36331.9,0.0705142,0.0701896,-0.123323,19,-0.00147474,10,-8.65597e-06,-3.90896,0.656733,0.0898386,-0.43313,0.0701896,
2,0,0,1,0,36333.4,0.069016,0.0687145,-0.122659,19,-0.00167577,10,-8.42843e-06,-3.9113,0.867802,0.0679879,-0.326482,0.0687145,
2,0,0,1,0,36334.9,0.0675178,0.0671886,-0.121861,19,-0.00187597,10,-8.18768e-06,-3.91413,1.6319,0.0361541,-0.172294,0.0671886,
2,0,0,1,0,36336.4,0.0660196,0.0657061,-0.122277,19,-0.00207509,10,-8.03432e-06,-3.91266,0.885283,0.0666454,-0.316406,0.0657061,
2,0,0,1,0,36337.9,0.0645214,0.0642438,-0.121026,19,-0.00227365,10,-7.77516e-06,-3.91712,0.953637,0.0618684,-0.291072,0.0642438,
2,0,0,1,0,36339.4,0.0630233,0.0626883,-0.119747,19,-0.00247107,10,-7.50676e-06,-3.92173,1.00159,0.0589062,-0.276552,0.0626883,
2,0,0,1,0,36340.9,0.0615251,0.0611953,-0.11987,19,-0.00266733,10,-7.33548e-06,-3.92129,0.64871,0.0909497,-0.426266,0.0611953,
2,0,0,1,0,36342.4,0.0600269,0.0597086,-0.119542,19,-0.00286319,10,-7.13771e-06,-3.92248,0.685789,0.0860322,-0.400999,0.0597086,
2,0,0,1,0,36343.8,0.0585287,0.0581752,-0.118348,19,-0.00305838,10,-6.88489e-06,-3.92684,0.504305,0.116993,-0.541026,0.0581752,
2,0,0,1,0,36345.3,0.0570305,0.0567129,-0.118253,19,-0.00325254,10,-6.70645e-06,-3.92719,0.668273,0.0882872,-0.407356,0.0567129,
2,0,0,1,0,36346.8,0.0555323,0.0552219,-0.117495,19,-0.00344524,10,-6.4883e-06,-3.92998,1.04068,0.0566936,-0.2613,0.0552219,
2,0,0,1,0,36348.3,0.0540342,0.0536929,-0.117714,19,-0.00363768,10,-6.32038e-06,-3.92917,0.9299,0.0634477,-0.29037,0.0536929,
2,0,0,1,0,36349.8,0.052536,0.0522073,-0.116541,19,-0.00382971,10,-6.08426e-06,-3.93352,0.641437,0.091981,-0.418985,0.0522073,
2,0,0,1,0,36351.3,0.0510378,0.0507375,-0.116695,19,-0.00402062,10,-5.92083e-06,-3.93295,0.815614,0.0723381,-0.327491,0.0507375,
2,0,0,1,0,36352.8,0.0495396,0.0491777,-0.115831,19,-0.00421056,10,-5.69629e-06,-3.93618,0.968034,0.0609483,-0.274612,0.0491777,
2,0,0,1,0,36354.3,0.0480414,0.0477185,-0.115044,19,-0.00439985,10,-5.48972e-06,-3.93914,1.82589,0.0323131,-0.145092,0.0477185,
2,0,0,1,0,36355.8,0.0465432,0.0462128,-0.114299,19,-0.00458844,10,-5.28209e-06,-3.94196,0.592293,0.0996128,-0.445009,0.0462128,
2,0,0,1,0,36357.3,0.045045,0.0447133,-0.113956,19,-0.00477588,10,-5.09533e-06,-3.94326,0.871575,0.0676935,-0.301067,0.0447133,
2,0,0,1,0,36358.8,0.0435468,0.0432479,-0.112843,19,-0.00496223,10,-4.88023e-06,-3.94752,1.13112,0.0521606,-0.230847,0.0432479,
2,0,0,1,0,36360.3,0.0420486,0.0417156,-0.112625,19,-0.00514777,10,-4.69823e-06,-3.94836,0.720688,0.0818662,-0.358834,0.0417156,
2,0,0,1,0,36361.8,0.0405504,0.0402182,-0.112309,19,-0.00533259,10,-4.51686e-06,-3.94959,0.687675,0.0857963,-0.375846,0.0402182,
2,0,0,1,0,36363.3,0.0390522,0.0387188,-0.111431,19,-0.00551663,10,-4.31447e-06,-3.95299,0.681324,0.0865961,-0.376585,0.0387188,
2,0,0,1,0,36364.8,0.037554,0.0372278,-0.110125,19,-0.00569959,10,-4.09971e-06,-3.95811,0.776377,0.075994,-0.329555,0.0372278,
2,0,0,1,0,36366.3,0.0360558,0.0357698,-0.110312,19,-0.00588148,10,-3.94582e-06,-3.95738,0.653294,0.0903116,-0.390264,0.0357698,
2,0,0,1,0,36367.8,0.0345576,0.0341887,-0.110026,19,-0.00606288,10,-3.76165e-06,-3.9585,0.481106,0.122634,-0.526251,0.0341887,
2,0,0,1,0,36369.3,0.0330594,0.0327296,-0.109497,19,-0.00624338,10,-3.5838e-06,-3.9606,0.513167,0.114972,-0.490716,0.0327296,
2,0,0,1,0,36370.8,0.0315613,0.0312313,-0.10865,19,-0.00642274,10,-3.39329e-06,-3.96397,2.47571,0.0238316,-0.101391,0.03123129,
2,0,0,1,0,36372.3,0.0300631,0.0297521,-0.108686,19,-0.00660114,10,-3.23364e-06,-3.96383,2.11472,0.0278997,-0.117849,0.0297521,
2,0,0,1,0,36373.8,0.0285649,0.0281954,-0.10839,19,-0.0067796,10,-3.0561e-06,-3.96501,1.14761,0.0514112,-0.216042,0.0281954,
2,0,0,1,0,36375.3,0.0270667,0.0267214,-0.107555,19,-0.00695769,10,-2.87403e-06,-3.96837,0.730696,0.0807449,-0.338069,0.0267214,
2,0,0,1,0,36376.8,0.0255685,0.0252782,-0.107455,19,-0.00713466,10,-2.71625e-06,-3.96878,0.864559,0.0682429,-0.286356,0.0252782,
2,0,0,1,0,36378.3,0.0240703,0.0237311,-0.106771,19,-0.00731085,10,-2.53378e-06,-3.97155,0.870948,0.0677423,-0.282806,0.0237311,
2,0,0,1,0,36379.8,0.0225722,0.0222115,-0.106948,19,-0.00748687,10,-2.37548e-06,-3.97083,201.687,0.000292532,-0.0012202,0.0222115,
2,0,0,1,0,36381.3,0.021074,0.0207397,-0.106325,19,-0.00766261,10,-2.20514e-06,-3.97337,3.26517,0.0180695,-0.075368,0.0207397,
2,0,0,1,0,36382.8,0.0195758,0.0192499,-0.10651,19,-0.0078383,10,-2.05031e-06,-3.97261,3.68778,0.0159988,-0.0664969,0.0192499,
2,0,0,1,0,36384.3,0.0180776,0.0177461,-0.106349,19,-0.00801408,10,-1.88728e-06,-3.97327,-8.18371,-0.00720944,0.0300293,0.0177461,
2,0,0,1,0,36385.8,0.0165794,0.0162733,-0.10704,19,-0.00818942,10,-1.7419e-06,-3.97045,-6.55196,-0.00900493,0.0374455,0.0162733,
2,0,0,1,0,36387.3,0.0150812,0.0147123,-0.1069,19,-0.00836503,10,-1.57275e-06,-3.97102,5.65615,0.0104311,-0.0433161,0.0147123,
2,0,0,1,0,36388.8,0.013583,0.0132351,-0.106752,19,-0.0085406,10,-1.41288e-06,-3.97162,-2.69779,-0.0218697,0.0909441,0.0132351,
2,0,0,1,0,36390.3,0.0120848,0.0117188,-0.106308,19,-0.00871621,10,-1.2458e-06,-3.97343,-7.25966,-0.0081271,0.0339735,0.0117188,
2,0,0,1,0,36391.8,0.0105866,0.0102649,-0.107049,19,-0.00889187,10,-1.09885e-06,-3.97042,-1.3299,-0.0443642,0.185997,0.0102649,
2,0,0,1,0,36393.3,0.00908843,0.00881534,-0.107552,19,-0.00906834,10,-9.48106e-07,-3.96838,-1.48173,-0.0398184,0.167035,0.00881534,
2,0,0,1,0,36394.8,0.00759024,0.00726609,-0.107933,19,-0.00924536,10,-7.84253e-07,-3.96684,-1.00537,-0.0586849,0.24709,0.00726609,
2,0,0,1,0,36396.3,0.00609203,0.00572428,-0.109049,19,-0.00942316,10,-6.24228e-07,-3.96238,-0.551177,-0.107044,0.452241,0.00572428,
2,0,0,1,0,36397.8,0.00459384,0.00428633,-0.109881,19,-0.00960171,10,-4.70985e-07,-3.95908,-0.612604,-0.0963102,0.409956,0.00428633,
2,0,0,1,0,36399.3,0.00309563,0.00273498,-0.11028,19,-0.00978137,10,-3.01614e-07,-3.9575,-0.523033,-0.112804,0.483597,0.00273498,
2,0,0,1,0,36400.8,0.00159744,0.00119207,-0.110693,19,-0.00996408,10,-1.31954e-07,-3.95588, , , ,0.00119207,
2,0,0,1,0,36402.2,0.000199235,-0.000155372,-0.111199,19,-0.0101334,10,1.72771e-08,-3.9539, , , ,-0.000155372,