File: Figure_codes/Fig_3-5/rawdata_trumpetplot_data/after 10th/20221101_1-115_003_TrumpetPlot_ParaChange_from10_every3_11_CV_C01_29.csv
mode,ox/red,error,control changes,counter inc.,time/s,control/V,Ewe/V,<I>/mA,cycle number,(Q-Qo)/C,I Range,P/W,log(|I|),Tafel slope mV/dec,alpha_eff,dI/d(E-IR),E-IR/V,
2,1,0,1,0,58328.3,2.44065e-05,-0.000363498,9.25409,30,0.0000000E+000,10,-3.36385e-06,-2.03367, , , ,-0.000363498,
2,1,0,1,0,58328.3,0.00214129,0.00173611,10.239,30,5.02439e-05,10,1.7776e-05,-1.98974, , , ,0.00173611,
2,1,0,1,0,58328.3,0.00454949,0.00418459,10.9978,30,0.000114129,10,4.60213e-05,-1.95869,0.0874125,0.674961,285.09,0.00418459,
2,1,0,1,0,58328.3,0.0069466,0.00660655,11.5857,30,0.00018195,10,7.65419e-05,-1.93608,0.112137,0.526141,236.005,0.00660655,
2,1,0,1,0,58328.3,0.0093437,0.00893096,12.1023,30,0.000253094,10,0.000108085,-1.91713,0.132334,0.44584,209.571,0.00893096,
2,1,0,1,0,58328.3,0.0117408,0.0113508,12.5689,30,0.000327183,10,0.000142667,-1.9007,0.152034,0.388071,189.84,0.0113508,
2,1,0,1,0,58328.3,0.0141462,0.0137749,13.0125,30,0.000404012,10,0.000179246,-1.88564,0.169948,0.347166,175.778,0.0137749,
2,1,0,1,0,58328.3,0.0165433,0.0161513,13.4159,30,0.00048338,10,0.000216684,-1.87238,0.195467,0.301842,157.636,0.0161513,
2,1,0,1,0,58328.3,0.0189404,0.0185499,13.778,30,0.000565019,10,0.000255581,-1.86081,0.209927,0.28105,151.026,0.0185499,
2,1,0,1,0,58328.4,0.0213486,0.0209136,14.1441,30,0.000648831,10,0.000295803,-1.84943,0.230717,0.255725,140.845,0.0209136,
2,1,0,1,0,58328.4,0.0237457,0.0233758,14.4706,30,0.000734731,10,0.000338262,-1.83951,0.250941,0.235115,132.556,0.0233758,
2,1,0,1,0,58328.4,0.0261429,0.0257925,14.7742,30,0.000822493,10,0.000381065,-1.83049,0.268045,0.220112,126.888,0.0257925,
2,1,0,1,0,58328.4,0.02854,0.0281328,15.0765,30,0.000912067,10,0.000424145,-1.8217,0.284435,0.207429,121.882,0.0281328,
2,1,0,1,0,58328.4,0.0309482,0.0305686,15.3634,30,0.00100344,10,0.000469637,-1.81351,0.302787,0.194857,116.664,0.0305686,
2,1,0,1,0,58328.4,0.0333453,0.0330202,15.6269,30,0.00109643,10,0.000516004,-1.80613,0.327961,0.179899,109.674,0.0330202,
2,1,0,1,0,58328.4,0.0357424,0.0354019,15.8898,30,0.00119101,10,0.000562529,-1.79888,0.343654,0.171685,106.413,0.0354019,
2,1,0,1,0,58328.4,0.0381478,0.0377857,16.147,30,0.00128715,10,0.000610126,-1.79191,0.359619,0.164063,103.308,0.0377857,
2,1,0,1,0,58328.4,0.0405449,0.0401578,16.3904,30,0.0013848,10,0.000658201,-1.78541,0.378101,0.156043,99.7784,0.0401578,
2,1,0,1,0,58328.4,0.042942,0.0425607,16.6289,30,0.00148389,10,0.00070774,-1.77914,0.381216,0.154768,100.432,0.0425607,
2,1,0,1,0,58328.4,0.0453391,0.0449901,16.8633,30,0.00158438,10,0.000758682,-1.77306,0.397688,0.148358,97.6275,0.0449901,
2,1,0,1,0,58328.4,0.0477473,0.0473474,17.1055,30,0.00168632,10,0.000809899,-1.76686,0.409826,0.143963,95.981,0.0473474,
2,1,0,1,0,58328.4,0.0501444,0.0498107,17.3192,30,0.00178962,10,0.000862681,-1.76147,0.423929,0.139174,94.1082,0.0498107,
2,1,0,1,0,58328.4,0.0525415,0.0521097,17.5445,30,0.00189422,10,0.000914239,-1.75586,0.423785,0.139222,95.3649,0.0521097,
2,1,0,1,0,58328.4,0.0549469,0.0545454,17.7832,30,0.00200024,10,0.00096999,-1.74999,0.433929,0.135967,94.2619,0.05454541,
2,1,0,1,0,58328.4,0.057344,0.0570077,17.9866,30,0.00210759,10,0.00102538,-1.74505,0.454803,0.129726,91.1111,0.0570077,
2,1,0,1,0,58328.5,0.0597411,0.0593204,18.208,30,0.00221621,10,0.0010801,-1.73974,0.447256,0.131916,93.8091,0.05932042,
2,1,0,1,0,58328.5,0.0621438,0.061788,18.4449,30,0.0023262,10,0.00113967,-1.73412,0.460602,0.128093,92.1276,0.061788,
2,1,0,1,0,58328.5,0.0645465,0.0641453,18.657,30,0.00243754,10,0.00119676,-1.72916,0.46567,0.126699,92.2406,0.0641453,
2,1,0,1,0,58328.5,0.0669436,0.0665651,18.8738,30,0.00255015,10,0.00125633,-1.72414,0.473826,0.124518,91.7285,0.0665651,
2,1,0,1,0,58328.5,0.0693407,0.0689129,19.1022,30,0.0026641,10,0.00131639,-1.71892,0.470799,0.125319,93.4094,0.0689129,
2,1,0,1,0,58328.5,0.0717489,0.0713804,19.3299,30,0.0027794,10,0.00137978,-1.71377,0.478518,0.123297,92.9602,0.0713804,
2,1,0,1,0,58328.5,0.074146,0.0737335,19.5434,30,0.00289603,10,0.001441,-1.709,0.492622,0.119767,91.3475,0.0737335,
2,1,0,1,0,58328.5,0.0765431,0.076112,19.7619,30,0.00301396,10,0.00150411,-1.70417,0.479173,0.123129,94.9882,0.076112,
2,1,0,1,0,58328.5,0.0789485,0.0785742,19.9944,30,0.00313324,10,0.00157105,-1.69909,0.492326,0.119839,93.4782,0.0785742,
2,1,0,1,0,58328.5,0.0813456,0.0809548,20.2134,30,0.00325391,10,0.00163638,-1.69436,0.498524,0.118349,93.3595,0.0809548,
2,1,0,1,0,58328.5,0.0837427,0.0833704,20.4352,30,0.00337589,10,0.00170369,-1.68962,0.49397,0.11944,95.3144,0.0833704,
2,1,0,1,0,58328.5,0.0861398,0.0857744,20.668,30,0.00349923,10,0.00177278,-1.6847,0.500453,0.117893,95.0845,0.0857744,
2,1,0,1,0,58328.5,0.088548,0.0881359,20.9056,30,0.003624,10,0.00184253,-1.67974,0.508566,0.116013,94.5963,0.0881359,
2,1,0,1,0,58328.5,0.0909451,0.0905589,21.1217,30,0.00375009,10,0.00191276,-1.67527,0.521692,0.113094,93.2702,0.0905589,
2,1,0,1,0,58328.5,0.0933422,0.0929501,21.3591,30,0.00387755,10,0.00198533,-1.67042,0.514952,0.114574,95.4693,0.09295015,
2,1,0,1,0,58328.5,0.0957477,0.0953679,21.5866,30,0.0040064,10,0.00205867,-1.66582,0.535432,0.110191,92.7882,0.0953679,
2,1,0,1,0,58328.5,0.0981447,0.0977633,21.805,30,0.00413658,10,0.00213173,-1.66144,0.539406,0.10938,93.0565,0.0977633,
2,1,0,1,0,58328.6,0.100542,0.100125,22.0246,30,0.00426808,10,0.00220521,-1.65709,0.546759,0.107909,92.7482,0.100125,
2,1,0,1,0,58328.6,0.102939,0.102587,22.2409,30,0.0044009,10,0.00228163,-1.65285,0.560879,0.105192,91.3049,0.102587,
2,1,0,1,0,58328.6,0.105347,0.104915,22.4551,30,0.00453503,10,0.00235587,-1.64868,0.548328,0.1076,94.3392,0.104915,
2,1,0,1,0,58328.6,0.107744,0.107323,22.6944,30,0.00467049,10,0.00243562,-1.64408,0.533437,0.110603,97.9659,0.1073229,
2,1,0,1,0,58328.6,0.110141,0.109766,22.9312,30,0.00480739,10,0.00251707,-1.63957,0.52548,0.112278,100.478,0.109766,
2,1,0,1,0,58328.6,0.11255,0.112142,23.1803,30,0.00494573,10,0.0025995,-1.63488,0.536155,0.110043,99.5134,0.112142,
2,1,0,1,0,58328.6,0.114947,0.114533,23.4094,30,0.00508552,10,0.00268114,-1.63061,0.532116,0.110878,101.327,0.1145326,
2,1,0,1,0,58328.6,0.117344,0.116968,23.6575,30,0.00522674,10,0.00276718,-1.62603,0.529635,0.111397,102.883,0.116968,
2,1,0,1,0,58328.6,0.119744,0.11937,23.9158,30,0.00536947,10,0.00285483,-1.62132,0.524128,0.112568,105.032,0.11937,
2,1,0,1,0,58328.6,0.122146,0.121744,24.1648,30,0.00551373,10,0.00294192,-1.61682,0.513862,0.114817,108.306,0.121744,
2,1,0,1,0,58328.6,0.124543,0.124135,24.428,30,0.00565951,10,0.00303237,-1.61211,0.508609,0.116003,110.584,0.1241346,
2,1,0,1,0,58328.6,0.126941,0.126559,24.6973,30,0.00580692,10,0.00312566,-1.60735,0.495003,0.119191,114.898,0.126559,
2,1,0,1,0,58328.6,0.129349,0.128931,24.9719,30,0.00595595,10,0.00321964,-1.60255,0.49096,0.120173,117.161,0.128931,
2,1,0,1,0,58328.6,0.131746,0.131374,25.2619,30,0.00610668,10,0.00331875,-1.59753,0.489951,0.12042,118.715,0.131374,
2,1,0,1,0,58328.6,0.134143,0.133719,25.5479,30,0.00625915,10,0.00341623,-1.59264,0.486123,0.121368,121.036,0.133719,
2,1,0,1,0,58328.6,0.13654,0.136186,25.8379,30,0.00641334,10,0.00351876,-1.58774,0.495965,0.11896,119.946,0.136186,
2,1,0,1,0,58328.6,0.138945,0.138583,26.1326,30,0.00656929,10,0.00362152,-1.58282,0.495989,0.118954,121.304,0.138583,
2,1,0,1,0,58328.7,0.141343,0.140955,26.429,30,0.00672699,10,0.0037253,-1.57792,0.501119,0.117737,121.405,0.140955,
2,1,0,1,0,58328.7,0.14374,0.143415,26.715,30,0.00688645,10,0.00383133,-1.57324,0.514852,0.114596,119.451,0.1434149,
2,1,0,1,0,58328.7,0.146148,0.145775,27.0014,30,0.00704765,10,0.00393613,-1.56861,0.517186,0.114079,120.204,0.145775,
2,1,0,1,0,58328.7,0.148545,0.148162,27.285,30,0.00721054,10,0.00404261,-1.56408,0.546847,0.107891,114.872,0.148162,
2,1,0,1,0,58328.7,0.150942,0.150563,27.5659,30,0.00737512,10,0.00415041,-1.55963,0.55612,0.106092,114.088,0.150563,
2,1,0,1,0,58328.7,0.153345,0.152959,27.8209,30,0.00754131,10,0.00425545,-1.55563,0.575448,0.102529,111.33,0.152959,
2,1,0,1,0,58328.7,0.155747,0.155341,28.0896,30,0.00770908,10,0.00436348,-1.55145,0.59766,0.0987184,108.165,0.155341,
2,1,0,1,0,58328.7,0.158144,0.157749,28.3473,30,0.00787842,10,0.00447177,-1.54749,0.643296,0.0917152,101.383,0.157749,
2,1,0,1,0,58328.7,0.160542,0.16016,28.5672,30,0.00804919,10,0.00457531,-1.54413,0.693699,0.0850513,94.8136,0.16016,
2,1,0,1,0,58328.7,0.162947,0.162566,28.797,30,0.00822134,10,0.00468141,-1.54065,0.756476,0.0779932,87.5916,0.162566,
2,1,0,1,0,58328.7,0.165344,0.164996,29.0001,30,0.00839478,10,0.00478491,-1.5376,0.858974,0.0686866,77.6779,0.1649963,
2,1,0,1,0,58328.7,0.167741,0.167304,29.1761,30,0.00856934,10,0.00488127,-1.53497,0.975238,0.060498,68.8402,0.167304,
2,1,0,1,0,58328.7,0.170149,0.16975,29.3401,30,0.00874489,10,0.00498049,-1.53254,1.20734,0.0488677,55.8883,0.16975,
2,1,0,1,0,58328.7,0.172547,0.17217,29.4512,30,0.00892127,10,0.00507061,-1.5309,1.5379,0.0383641,44.0512,0.17217,
2,1,0,1,0,58328.7,0.174944,0.174577,29.5363,30,0.00909827,10,0.00515637,-1.52964,2.37543,0.0248376,28.5982,0.174577,
2,1,0,1,0,58328.7,0.177341,0.176934,29.5804,30,0.00927565,10,0.00523378,-1.529,5.52476,0.0106792,12.3169,0.176934,
2,1,0,1,0,58328.8,0.179746,0.179369,29.5882,30,0.00945318,10,0.00530721,-1.52888,-15.1071,-0.00390544,-4.50506,0.179369,
2,1,0,1,0,58328.8,0.182143,0.181812,29.5634,30,0.00963068,10,0.00537499,-1.52925,-2.94046,-0.0200649,-23.1117,0.181812,
2,1,0,1,0,58328.8,0.18454,0.184165,29.4851,30,0.00980785,10,0.00543014,-1.5304,-1.69378,-0.0348334,-40.0364,0.184165,
2,1,0,1,0,58328.8,0.186949,0.18658,29.3722,30,0.0099844,10,0.00548025,-1.53206,-1.16753,-0.050534,-57.8613,0.18658,
2,1,0,1,0,58328.8,0.189346,0.18897,29.2188,30,0.0101602,10,0.00552148,-1.53434,-0.896681,-0.0657982,-74.9082,0.18897,
2,1,0,1,0,58328.8,0.191743,0.191375,29.0126,30,0.0103349,10,0.00555229,-1.53741,-0.732813,-0.0805116,-91.0736,0.191375,
2,1,0,1,0,58328.8,0.19414,0.193753,28.7692,30,0.0105082,10,0.00557413,-1.54107,-0.613156,-0.0962234,-107.94,0.193753,
2,1,0,1,0,58328.8,0.196548,0.196202,28.5067,30,0.01068,10,0.00559308,-1.54505,-0.545811,-0.108096,-120.075,0.196202,
2,1,0,1,0,58328.8,0.198945,0.198573,28.1958,30,0.0108501,10,0.00559893,-1.54982,-0.474105,-0.124445,-136.755,0.198573,
2,1,0,1,0,58328.8,0.201342,0.200991,27.8408,30,0.0110182,10,0.00559575,-1.55532,-0.425962,-0.13851,-150.35,0.200991,
2,1,0,1,0,58328.8,0.203748,0.203386,27.4717,30,0.0111841,10,0.00558737,-1.56111,-0.394758,-0.149459,-160.111,0.203386,
2,1,0,1,0,58328.8,0.206145,0.20579,27.0741,30,0.0113477,10,0.00557159,-1.56745,-0.364812,-0.161727,-170.735,0.20579,
2,1,0,1,0,58328.8,0.208542,0.208162,26.6579,30,0.0115089,10,0.00554918,-1.57417,-0.34759,-0.16974,-176.475,0.208162,
2,1,0,1,0,58328.8,0.210939,0.21059,26.2151,30,0.0116675,10,0.00552062,-1.58145,-0.332276,-0.177563,-181.651,0.21059,
2,1,0,1,0,58328.8,0.213347,0.212986,25.7822,30,0.0118235,10,0.00549124,-1.58868,-0.317055,-0.186087,-187.109,0.212986,
2,1,0,1,0,58328.8,0.215744,0.215419,25.3279,30,0.0119767,10,0.0054561,-1.5964,-0.303719,-0.194258,-191.936,0.215419,
2,1,0,1,0,58328.8,0.218141,0.217773,24.8607,30,0.0121272,10,0.00541399,-1.60449,-0.303941,-0.194116,-188.399,0.217773,
2,1,0,1,0,58328.9,0.220547,0.220204,24.4198,30,0.012275,10,0.00537735,-1.61226,-0.301862,-0.195454,-186.194,0.220204,
2,1,0,1,0,58328.9,0.222944,0.222598,23.9643,30,0.0124202,10,0.00533439,-1.62044,-0.292427,-0.20176,-188.703,0.222598,
2,1,0,1,0,58328.9,0.225341,0.225005,23.5139,30,0.0125625,10,0.00529073,-1.62868,-0.297464,-0.198343,-182.136,0.225005,
2,1,0,1,0,58328.9,0.227744,0.227403,23.0885,30,0.0127023,10,0.0052504,-1.6366,-0.301738,-0.195534,-176.208,0.227403,
2,1,0,1,0,58328.9,0.230146,0.229754,22.6619,30,0.0128395,10,0.00520666,-1.6447,-0.304441,-0.193798,-171.472,0.229754,
2,1,0,1,0,58328.9,0.232543,0.232162,22.2569,30,0.0129743,10,0.00516723,-1.65253,-0.303043,-0.194692,-169.162,0.232162,
2,1,0,1,0,58328.9,0.234941,0.234587,21.8606,30,0.0131066,10,0.00512821,-1.66034,-0.313442,-0.188232,-160.694,0.234587,
2,1,0,1,0,58328.9,0.237349,0.237006,21.4873,30,0.0132366,10,0.00509262,-1.66782,-0.320248,-0.184232,-154.532,0.237006,
2,1,0,1,0,58328.9,0.239746,0.239402,21.121,30,0.0133643,10,0.0050564,-1.67529,-0.321609,-0.183453,-151.234,0.239402,
2,1,0,1,0,58328.9,0.242143,0.241778,20.7615,30,0.0134899,10,0.00501967,-1.68274,-0.334519,-0.176373,-143.039,0.241778,
2,1,0,1,0,58328.9,0.244548,0.24417,20.4337,30,0.0136134,10,0.0049893,-1.68965,-0.346704,-0.170174,-135.764,0.24417,
2,1,0,1,0,58328.9,0.246946,0.24657,20.1119,30,0.0137351,10,0.00495898,-1.69655,-0.354179,-0.166583,-130.737,0.24657,
2,1,0,1,0,58328.9,0.249343,0.248983,19.7945,30,0.0138548,10,0.00492848,-1.70346,-0.363157,-0.162464,-125.641,0.248983,
2,1,0,1,0,58328.9,0.25174,0.251409,19.506,30,0.0139726,10,0.00490399,-1.70983,-0.379804,-0.155343,-118.311,0.251409,
2,1,0,1,0,58328.9,0.254148,0.253772,19.2345,30,0.0140888,10,0.00488119,-1.71592,-0.390077,-0.151252,-113.545,0.253772,
2,1,0,1,0,58328.9,0.256545,0.256178,18.96,30,0.0142034,10,0.00485715,-1.72216,-0.394245,-0.149653,-110.811,0.2561785,
2,1,0,1,0,58328.9,0.258942,0.258544,18.7033,30,0.0143163,10,0.00483564,-1.72808,-0.414374,-0.142383,-104.008,0.258544,
2,1,0,1,0,58329,0.261348,0.261004,18.4704,30,0.0144278,10,0.00482085,-1.73352,-0.428152,-0.137802,-99.334,0.261004,
2,1,0,1,0,58329,0.263745,0.263394,18.2323,30,0.0145379,10,0.00480227,-1.73916,-0.440324,-0.133992,-95.3567,0.263394,
2,1,0,1,0,58329,0.266142,0.265735,18.0079,30,0.0146466,10,0.00478532,-1.74454,-0.459276,-0.128463,-90.342,0.265735,
2,1,0,1,0,58329,0.268539,0.268176,17.791,30,0.0147539,10,0.00477111,-1.7498,-0.478028,-0.123424,-85.764,0.268176,
2,1,0,1,0,58329,0.270947,0.27061,17.6014,30,0.0148601,10,0.00476312,-1.75445,-0.497119,-0.118684,-81.4896,0.27061,
2,1,0,1,0,58329,0.273344,0.272989,17.3991,30,0.0149651,10,0.00474978,-1.75947,-0.506332,-0.116524,-79.1424,0.272989,
2,1,0,1,0,58329,0.275741,0.275355,17.204,30,0.0150688,10,0.00473721,-1.76437,-0.525839,-0.112202,-75.408,0.275355,
2,1,0,1,0,58329,0.278149,0.277801,17.0377,30,0.0151716,10,0.0047331,-1.76859,-0.540511,-0.109156,-72.5571,0.277801,
2,1,0,1,0,58329,0.280547,0.280159,16.8587,30,0.0152732,10,0.0047231,-1.77318,-0.546351,-0.107989,-71.0739,0.280159,
2,1,0,1,0,58329,0.282944,0.282575,16.691,30,0.0153739,10,0.00471647,-1.77752,-0.578612,-0.101968,-66.4798,0.282575,
2,1,0,1,0,58329,0.285344,0.284965,16.5426,30,0.0154735,10,0.00471406,-1.7814,-0.584462,-0.100948,-65.1516,0.284965,
2,1,0,1,0,58329,0.287746,0.287381,16.3814,30,0.0155723,10,0.0047077,-1.78565,-0.593485,-0.0994128,-63.5745,0.287381,
2,1,0,1,0,58329,0.290143,0.289764,16.2333,30,0.0156701,10,0.00470383,-1.78959,-0.612365,-0.0963477,-61.0717,0.289764,
2,1,0,1,0,58329,0.29254,0.292181,16.0968,30,0.0157671,10,0.00470318,-1.79326,-0.655218,-0.0900464,-56.5765,0.292181,
2,1,0,1,0,58329,0.294949,0.294566,15.9597,30,0.0158632,10,0.0047012,-1.79697,-0.672043,-0.087792,-54.6878,0.294566,
2,1,0,1,0,58329,0.297346,0.296995,15.8271,30,0.0159586,10,0.00470057,-1.8006,-0.700885,-0.0841793,-52.0843,0.2969946,
2,1,0,1,0,58329.1,0.299621,0.299277,15.6976,30,0.0160484,10,0.00469792,-1.80417,-0.0976966,-0.60391,-360.923,0.299277,
2,1,0,1,0,58329.1,0.299962,0.299689,15.5667,30,0.0160673,10,0.00466517,-1.8078,0.0144721,4.07681,2182.01,0.2996892,
2,1,0,1,0,58329.1,0.297903,0.297569,12.6909,30,0.0161381,10,0.00377643,-1.89651,0.0258815,2.27962,1110.86,0.297569,
2,1,0,1,0,58329.1,0.295506,0.295192,10.4143,30,0.0162069,10,0.00307422,-1.98237,0.0279086,2.11404,872.878,0.295192,
2,1,0,1,0,58329.1,0.293101,0.29277,8.56817,30,0.0162635,10,0.0025085,-2.06711,0.0280425,2.10395,708.235,0.29277,
2,1,0,1,0,58329.1,0.290704,0.290385,7.013,30,0.01631,10,0.00203647,-2.1541,0.0264095,2.23405,610.893,0.2903851,
2,1,0,1,0,58329.1,0.288307,0.287971,5.65454,30,0.0163478,10,0.00162834,-2.2476,0.0240232,2.45596,538.392,0.287971,
2,1,0,1,0,58329.1,0.28591,0.28557,4.45413,30,0.0163779,10,0.00127197,-2.35124,0.0213017,2.76974,475.333,0.28557,
2,1,0,1,0,58329.1,0.283501,0.283161,3.37815,30,0.0164012,10,0.000956558,-2.47132,0.0178138,3.31203,426.955,0.283161,
2,1,0,1,0,58329.1,0.281104,0.280731,2.42445,30,0.0164185,10,0.000680619,-2.61539,0.0139195,4.23865,380.329,0.280731,
2,1,0,1,0,58329.1,0.278707,0.27836,1.56408,30,0.0164304,10,0.000435377,-2.80574,0.00894629,6.59491,345.875,0.2783601,
2,1,0,1,0,58329.1,0.276302,0.275957,0.771864,30,0.0164373,10,0.000213001,-3.11246,0.0059195,9.96705,313.289,0.2759572,
2,1,0,1,0,58329.1,0.273905,0.273543,0.0704971,30,0.0164397,10,1.9284e-05,-4.15183,0.0584308,1.00974,286.178,0.273543,
2,0,0,1,0,58329.1,0.271508,0.271123,-0.584792,30,0.0164381,10,-0.000158551,-3.233,-0.00945922,-6.2373,263.955,0.271123,
2,0,0,1,0,58329.1,0.269105,0.268771,-1.19496,30,0.0164326,10,-0.00032117,-2.92265,-0.00898553,-6.56611,240.969,0.268771,
2,0,0,1,0,58329.1,0.266702,0.266312,-1.74244,30,0.0164237,10,-0.000464032,-2.75884,-0.0166997,-3.53299,221.29,0.266312,
2,0,0,1,0,58329.1,0.264305,0.263975,-2.2484,30,0.0164117,10,-0.000593522,-2.64813,-0.0240205,-2.45624,206.412,0.263975,
2,0,0,1,0,58329.1,0.261908,0.261556,-2.73165,30,0.0163967,10,-0.000714478,-2.56358,-0.0317497,-1.85829,192.232,0.261556,
2,0,0,1,0,58329.2,0.2595,0.259141,-3.17475,30,0.0163789,10,-0.000822709,-2.49829,-0.0406262,-1.45227,176.166,0.2591413,
2,0,0,1,0,58329.2,0.257103,0.256743,-3.58326,30,0.0163586,10,-0.000919975,-2.44572,-0.0495399,-1.19096,164.405,0.256743,
2,0,0,1,0,58329.2,0.254706,0.254325,-3.96657,30,0.0163359,10,-0.0010088,-2.40158,-0.0585631,-1.00746,154.297,0.254325,
2,0,0,1,0,58329.2,0.2523,0.251928,-4.33455,30,0.0163109,10,-0.001092,-2.36306,-0.068091,-0.866488,145.16,0.251928,
2,0,0,1,0,58329.2,0.249903,0.249551,-4.666,30,0.0162839,10,-0.0011644,-2.33106,-0.078221,-0.754273,136.498,0.249551,
2,0,0,1,0,58329.2,0.247506,0.247157,-4.97829,30,0.0162549,10,-0.00123042,-2.30292,-0.0874144,-0.674946,130.709,0.247157,
2,0,0,1,0,58329.2,0.245109,0.244765,-5.29196,30,0.0162241,10,-0.00129529,-2.27638,-0.0977626,-0.603503,123.848,0.244765,
2,0,0,1,0,58329.2,0.242701,0.242361,-5.57241,30,0.0161914,10,-0.00135054,-2.25396,-0.110559,-0.53365,115.579,0.242361,
2,0,0,1,0,58329.2,0.240304,0.239948,-5.83513,30,0.0161572,10,-0.00140013,-2.23395,-0.12312,-0.479209,109.026,0.239948,
2,0,0,1,0,58329.2,0.237906,0.237542,-6.10117,30,0.0161213,10,-0.00144928,-2.21459,-0.135045,-0.436892,103.607,0.237542,
2,0,0,1,0,58329.2,0.235501,0.235126,-6.34618,30,0.0160839,10,-0.00149215,-2.19749,-0.147474,-0.400072,98.8739,0.235126,
2,0,0,1,0,58329.2,0.233104,0.232745,-6.57416,30,0.0160452,10,-0.0015301,-2.18216,-0.160403,-0.367824,94.2664,0.232745,
2,0,0,1,0,58329.2,0.230707,0.23034,-6.80381,30,0.016005,10,-0.00156719,-2.16725,-0.171447,-0.344129,91.1654,0.23034,
2,0,0,1,0,58329.2,0.22831,0.227945,-7.01179,30,0.0159635,10,-0.0015983,-2.15417,-0.186893,-0.315689,86.2973,0.227945,
2,0,0,1,0,58329.2,0.225902,0.225575,-7.22281,30,0.0159208,10,-0.00162929,-2.14129,-0.198213,-0.297659,83.7431,0.225575,
2,0,0,1,0,58329.2,0.223504,0.223149,-7.42104,30,0.0158768,10,-0.001656,-2.12954,-0.211356,-0.27915,80.7051,0.223149,
2,0,0,1,0,58329.2,0.221107,0.220764,-7.60517,30,0.0158318,10,-0.00167895,-2.11889,-0.222884,-0.264712,78.5288,0.220764,
2,0,0,1,0,58329.3,0.218699,0.218369,-7.79446,30,0.0157855,10,-0.00170207,-2.10821,-0.237087,-0.248854,75.5811,0.218369,
2,0,0,1,0,58329.3,0.216302,0.215948,-7.96707,30,0.0157382,10,-0.00172047,-2.0987,-0.254858,-0.231502,71.934,0.215948,
2,0,0,1,0,58329.3,0.213905,0.213564,-8.13951,30,0.0156899,10,-0.00173831,-2.0894,-0.266676,-0.221242,70.2307,0.213564,
2,0,0,1,0,58329.3,0.211505,0.211158,-8.30597,30,0.0156405,10,-0.00175387,-2.08061,-0.285124,-0.206927,67.0146,0.2111579,
2,0,0,1,0,58329.3,0.209102,0.208718,-8.46484,30,0.0155902,10,-0.00176676,-2.07238,-0.291326,-0.202522,66.9318,0.2087179,
2,0,0,1,0,58329.3,0.206705,0.206311,-8.63795,30,0.0155389,10,-0.0017821,-2.06359,-0.308364,-0.191333,64.3515,0.206311,
2,0,0,1,0,58329.3,0.204308,0.203932,-8.78554,30,0.0154866,10,-0.00179166,-2.05623,-0.316216,-0.186582,63.8999,0.203932,
2,0,0,1,0,58329.3,0.2019,0.201517,-8.9366,30,0.0154335,10,-0.00180087,-2.04883,-0.332199,-0.177605,61.9209,0.201517,
2,0,0,1,0,58329.3,0.199503,0.199119,-9.0873,30,0.0153794,10,-0.00180946,-2.04157,-0.342308,-0.17236,61.0331,0.199119,
2,0,0,1,0,58329.3,0.197106,0.196735,-9.22419,30,0.0153245,10,-0.00181472,-2.03507,-0.348182,-0.169452,61.0089,0.196735,
2,0,0,1,0,58329.3,0.194709,0.194346,-9.36203,30,0.0152687,10,-0.00181948,-2.02863,-0.36107,-0.163403,59.7415,0.194346,
2,0,0,1,0,58329.3,0.192303,0.191922,-9.50691,30,0.015212,10,-0.00182459,-2.02196,-0.368995,-0.159894,59.2864,0.191922,
2,0,0,1,0,58329.3,0.189906,0.189531,-9.6445,30,0.0151546,10,-0.00182793,-2.01572,-0.387095,-0.152417,57.3675,0.189531,
2,0,0,1,0,58329.3,0.187509,0.187164,-9.78121,30,0.0150963,10,-0.00183069,-2.00961,-0.395113,-0.149324,56.9793,0.187164,
2,0,0,1,0,58329.3,0.185101,0.184761,-9.9186,30,0.0150371,10,-0.00183257,-2.00355,-0.404011,-0.146036,56.5546,0.184761,
2,0,0,1,0,58329.3,0.182704,0.182339,-10.0589,30,0.0149772,10,-0.00183413,-1.99745,-0.419665,-0.140588,55.1718,0.182339,
2,0,0,1,0,58329.4,0.180307,0.179922,-10.1956,30,0.0149164,10,-0.00183441,-1.99159,-0.409682,-0.144014,57.2724,0.179922,
2,0,0,1,0,58329.4,0.177904,0.177498,-10.325,30,0.0148549,10,-0.00183267,-1.98611,-0.418114,-0.14111,56.8976,0.177498,
2,0,0,1,0,58329.4,0.175501,0.175157,-10.4688,30,0.0147925,10,-0.00183368,-1.9801,-0.406874,-0.145008,59.2425,0.175157,
2,0,0,1,0,58329.4,0.173104,0.17274,-10.6063,30,0.0147292,10,-0.00183213,-1.97444,-0.422881,-0.139519,57.7231,0.17274,
2,0,0,1,0,58329.4,0.170707,0.170358,-10.7378,30,0.0146652,10,-0.00182926,-1.96909,-0.425514,-0.138656,58.1724,0.1703577,
2,0,0,1,0,58329.4,0.168302,0.16793,-10.8937,30,0.0146003,10,-0.00182939,-1.96282,-0.404349,-0.145913,62.0005,0.16793,
2,0,0,1,0,58329.4,0.165905,0.165511,-11.0407,30,0.0145345,10,-0.00182735,-1.957,-0.415422,-0.142024,61.183,0.165511,
2,0,0,1,0,58329.4,0.163507,0.163107,-11.1822,30,0.0144678,10,-0.00182389,-1.95147,-0.410988,-0.143557,62.7155,0.163107,
2,0,0,1,0,58329.4,0.161099,0.16071,-11.3482,30,0.0144002,10,-0.00182377,-1.94507,-0.395651,-0.149121,66.037,0.16071,
2,0,0,1,0,58329.4,0.158702,0.158335,-11.5059,30,0.0143316,10,-0.00182179,-1.93908,-0.38113,-0.154803,69.5312,0.158335,
2,0,0,1,0,58329.4,0.156305,0.155929,-11.6793,30,0.0142621,10,-0.00182114,-1.93258,-0.366922,-0.160797,73.3245,0.155929,
2,0,0,1,0,58329.4,0.153908,0.153506,-11.8498,30,0.0141915,10,-0.00181901,-1.92629,-0.35333,-0.166983,77.3305,0.153506,
2,0,0,1,0,58329.4,0.151503,0.151101,-12.0444,30,0.0141198,10,-0.00181992,-1.91922,-0.338301,-0.174401,82.0457,0.151101,
2,0,0,1,0,58329.4,0.149105,0.148752,-12.2469,30,0.0140469,10,-0.00182175,-1.91197,-0.324172,-0.182002,87.0089,0.148752,
2,0,0,1,0,58329.4,0.146708,0.146299,-12.4599,30,0.0139727,10,-0.00182287,-1.90449,-0.308647,-0.191157,93.0841,0.1462992,
2,0,0,1,0,58329.4,0.1443,0.143934,-12.6965,30,0.0138973,10,-0.00182746,-1.89632,-0.277991,-0.212237,105.345,0.1439345,
2,0,0,1,0,58329.4,0.141903,0.141577,-12.96,30,0.0138203,10,-0.00183484,-1.88739,-0.269409,-0.218998,110.823,0.1415772,
2,0,0,1,0,58329.5,0.139506,0.139112,-13.2279,30,0.0137417,10,-0.00184016,-1.87851,-0.251531,-0.234564,121.349,0.139112,
2,0,0,1,0,58329.5,0.137109,0.136771,-13.5313,30,0.0136614,10,-0.00185069,-1.86866,-0.235664,-0.250356,132.518,0.136771,
2,0,0,1,0,58329.5,0.134701,0.134334,-13.874,30,0.0135791,10,-0.00186374,-1.8578,-0.21916,-0.269209,145.877,0.134334,
2,0,0,1,0,58329.5,0.132303,0.131943,-14.2334,30,0.0134948,10,-0.00187801,-1.84669,-0.209702,-0.281352,156.547,0.131943,
2,0,0,1,0,58329.5,0.129906,0.129538,-14.6269,30,0.0134082,10,-0.00189474,-1.83485,-0.195549,-0.301715,172.494,0.129538,
2,0,0,1,0,58329.5,0.127501,0.127096,-15.0646,30,0.0133191,10,-0.00191465,-1.82204,-0.186471,-0.316403,186.122,0.127096,
2,0,0,1,0,58329.5,0.125104,0.124733,-15.5153,30,0.0132274,10,-0.00193526,-1.80924,-0.183155,-0.322131,195.229,0.124733,
2,0,0,1,0,58329.5,0.122707,0.12234,-15.9939,30,0.0131328,10,-0.0019567,-1.79605,-0.179151,-0.329331,205.715,0.12234,
2,0,0,1,0,58329.5,0.12031,0.119948,-16.487,30,0.0130353,10,-0.00197759,-1.78286,-0.177378,-0.332622,214.27,0.1199481,
2,0,0,1,0,58329.5,0.117901,0.117564,-17.0176,30,0.0129347,10,-0.00200066,-1.7691,-0.180533,-0.32681,217.008,0.117564,
2,0,0,1,0,58329.5,0.115504,0.115109,-17.5517,30,0.0128309,10,-0.00202036,-1.75568,-0.18219,-0.323837,221.685,0.115109,
2,0,0,1,0,58329.5,0.113107,0.112765,-18.0782,30,0.012724,10,-0.00203859,-1.74284,-0.183482,-0.321557,226.939,0.112765,
2,0,0,1,0,58329.5,0.110702,0.110369,-18.6303,30,0.0126139,10,-0.00205622,-1.72978,-0.190056,-0.310435,225.496,0.110369,
2,0,0,1,0,58329.5,0.108305,0.107964,-19.179,30,0.0125004,10,-0.00207065,-1.71717,-0.198633,-0.29703,222.047,0.107964,
2,0,0,1,0,58329.5,0.105908,0.105558,-19.7044,30,0.0123837,10,-0.00207996,-1.70544,-0.204838,-0.288032,221.34,0.105558,
2,0,0,1,0,58329.5,0.103505,0.103177,-20.2377,30,0.0122638,10,-0.00208806,-1.69384,-0.21327,-0.276645,218.246,0.103177,
2,0,0,1,0,58329.5,0.101102,0.100774,-20.741,30,0.0121409,10,-0.00209015,-1.68317,-0.22062,-0.267428,216.435,0.100774,
2,0,0,1,0,58329.6,0.0987052,0.0983487,-21.2483,30,0.0120148,10,-0.00208975,-1.67268,-0.228605,-0.258087,213.962,0.0983487,
2,0,0,1,0,58329.6,0.0963081,0.0959585,-21.7705,30,0.0118857,10,-0.00208907,-1.66213,-0.239489,-0.246358,209.05,0.0959585,
2,0,0,1,0,58329.6,0.0938999,0.0935705,-22.2627,30,0.0117535,10,-0.00208313,-1.65242,-0.255272,-0.231126,200.549,0.0935705,
2,0,0,1,0,58329.6,0.0915028,0.0912026,-22.735,30,0.0116185,10,-0.00207349,-1.64331,-0.276015,-0.213756,189.453,0.0912026,
2,0,0,1,0,58329.6,0.0891057,0.0887212,-23.1904,30,0.0114807,10,-0.00205748,-1.63469,-0.290537,-0.203072,183.61,0.0887212,
2,0,0,1,0,58329.6,0.0867002,0.0863725,-23.6267,30,0.0113402,10,-0.00204069,-1.6266,-0.308358,-0.191336,176.185,0.08637245,
2,0,0,1,0,58329.6,0.0843031,0.0839728,-24.0343,30,0.0111972,10,-0.00201822,-1.61917,-0.334976,-0.176132,164.949,0.0839728,
2,0,0,1,0,58329.6,0.081906,0.0816399,-24.4014,30,0.0110518,10,-0.00199213,-1.61259,-0.361123,-0.163379,155.542,0.0816399,
2,0,0,1,0,58329.6,0.0795089,0.0791893,-24.7705,30,0.0109043,10,-0.00196156,-1.60607,-0.391272,-0.15079,145.685,0.0791893,
2,0,0,1,0,58329.6,0.0771007,0.0767832,-25.1146,30,0.0107545,10,-0.00192838,-1.60007,-0.420824,-0.140201,137.217,0.0767832,
2,0,0,1,0,58329.6,0.0747036,0.0743421,-25.4166,30,0.0106029,10,-0.00188952,-1.59488,-0.473071,-0.124717,123.667,0.0743421,
2,0,0,1,0,58329.6,0.0723065,0.0719806,-25.7112,30,0.0104495,10,-0.0018507,-1.58988,-0.505811,-0.116644,116.94,0.0719806,
2,0,0,1,0,58329.6,0.0699011,0.0695618,-25.9906,30,0.0102943,10,-0.00180796,-1.58518,-0.562485,-0.104892,106.24,0.0695618,
2,0,0,1,0,58329.6,0.067504,0.0672014,-26.2231,30,0.0101377,10,-0.00176223,-1.58132,-0.637889,-0.0924926,94.5717,0.0672014,
2,0,0,1,0,58329.6,0.0651069,0.064825,-26.4423,30,0.00997965,10,-0.00171412,-1.5777,-0.714804,-0.0825401,85.1254,0.064825,
2,0,0,1,0,58329.6,0.0627098,0.0623723,-26.6304,30,0.0098204,10,-0.001661,-1.57462,-0.816321,-0.0722755,75.0617,0.0623723,
2,0,0,1,0,58329.7,0.0603016,0.0599333,-26.8033,30,0.00966004,10,-0.00160641,-1.57181,-0.952254,-0.0619582,64.7592,0.0599333,
2,0,0,1,0,58329.7,0.0579045,0.0575198,-26.9499,30,0.00949877,10,-0.00155015,-1.56944,-1.13243,-0.0521003,54.7571,0.0575198,
2,0,0,1,0,58329.7,0.0555074,0.05517,-27.0642,30,0.00933671,10,-0.00149313,-1.56761,-1.23014,-0.0479619,50.6541,0.05517,
2,0,0,1,0,58329.7,0.0530992,0.0527491,-27.1947,30,0.00917393,10,-0.00143449,-1.56552,-1.50364,-0.0392382,41.5924,0.0527491,
2,0,0,1,0,58329.7,0.0507021,0.0503388,-27.2693,30,0.00901052,10,-0.0013727,-1.56433,-1.86207,-0.0316851,33.7077,0.0503388,
2,0,0,1,0,58329.7,0.048305,0.0479338,-27.3375,30,0.00884668,10,-0.00131039,-1.56324,-2.17772,-0.0270926,28.905,0.0479338,
2,0,0,1,0,58329.7,0.0459051,0.0455404,-27.4065,30,0.00868243,10,-0.0012481,-1.56215,-2.81579,-0.0209533,22.4001,0.0455404,
2,0,0,1,0,58329.7,0.0435024,0.0431471,-27.4482,30,0.00851782,10,-0.00118431,-1.56149,-3.59971,-0.0163902,17.5542,0.0431471,
2,0,0,1,0,58329.7,0.0411053,0.0407304,-27.4819,30,0.008353,10,-0.00111935,-1.56095,-5.2166,-0.01131,12.1313,0.0407304,
2,0,0,1,0,58329.7,0.0387082,0.0383095,-27.5207,30,0.00818796,10,-0.00105431,-1.56034,-6.86878,-0.00858959,9.22089,0.0383095,
2,0,0,1,0,58329.7,0.0363,0.035931,-27.5454,30,0.00802279,10,-0.000989735,-1.55995,-16.8932,-0.00349252,3.75227,0.035931,
2,0,0,1,0,58329.7,0.0339029,0.0335218,-27.5424,30,0.00785754,10,-0.000923272,-1.56,-46.5632,-0.0012671,1.36145,0.03352179,
2,0,0,1,0,58329.7,0.0315058,0.0311391,-27.549,30,0.00769228,10,-0.00085785,-1.55989,90.3697,0.000652874,-0.701771,0.0311391,
2,0,0,1,0,58329.7,0.0291087,0.0287266,-27.5326,30,0.00752706,10,-0.000790918,-1.56015,14.7464,0.00400097,-4.29871,0.0287266,
2,0,0,1,0,58329.7,0.0267033,0.0263301,-27.5213,30,0.00736187,10,-0.00072464,-1.56033,8.58417,0.00687312,-7.38012,0.0263301,
2,0,0,1,0,58329.7,0.0243062,0.0239707,-27.4912,30,0.00719681,10,-0.000658983,-1.56081,5.51109,0.0107057,-11.4871,0.0239707,
2,0,0,1,0,58329.7,0.0219091,0.0215413,-27.468,30,0.00703191,10,-0.000591697,-1.56117,4.7104,0.0125255,-13.4239,0.0215413,
2,0,0,1,0,58329.8,0.0195009,0.0191575,-27.442,30,0.00686718,10,-0.00052572,-1.56158,3.57406,0.0165078,-17.6684,0.0191575,
2,0,0,1,0,58329.8,0.0171038,0.0167143,-27.3883,30,0.00670271,10,-0.000457778,-1.56243,3.03718,0.0194259,-20.7674,0.0167143,
2,0,0,1,0,58329.8,0.0147067,0.0143825,-27.3437,30,0.00653852,10,-0.000393271,-1.56314,2.91671,0.0202283,-21.578,0.0143825,
2,0,0,1,0,58329.8,0.012304,0.0119722,-27.2939,30,0.00637461,10,-0.000326768,-1.56394,2.33035,0.0253181,-26.9535,0.0119722,
2,0,0,1,0,58329.8,0.00990136,0.00953858,-27.2118,30,0.00621112,10,-0.000259562,-1.56524,2.14662,0.0274851,-29.1926,0.00953858,
2,0,0,1,0,58329.8,0.00750426,0.00718554,-27.1482,30,0.00604806,10,-0.000195074,-1.56626,1.91162,0.0308639,-32.6822,0.007185536,
2,0,0,1,0,58329.8,0.00510715,0.00476675,-27.0479,30,0.00588545,10,-0.000128931,-1.56787,2.01275,0.0293132,-30.9651,0.00476675,
2,0,0,1,0,58329.8,0.00270173,0.00233736,-26.9606,30,0.0057234,10,-6.30167e-05,-1.56927,1.6877,0.0349588,-36.7974,0.002337357,
2,0,0,1,0,58329.8,0.000304623,-0.000112182,-26.8856,30,0.00556177,10,3.01607e-06,-1.57048,1.4569,0.0404969,-42.4495,-0.0001121818,
2,0,0,1,0,58329.8,-0.00209248,-0.0024928,-26.7687,30,0.0054008,10,6.67289e-05,-1.57237,1.23089,0.0479328,-50.069,-0.0024928,
2,0,0,1,0,58329.8,-0.00450068,-0.00493809,-26.6526,30,0.00524056,10,0.000131613,-1.57426,1.12239,0.0525662,-54.6407,-0.00493809,
2,0,0,1,0,58329.8,-0.00689779,-0.0072869,-26.5127,30,0.00508109,10,0.000193195,-1.57655,1.09243,0.0540081,-55.8782,-0.007286896,
2,0,0,1,0,58329.8,-0.00929489,-0.00964948,-26.3767,30,0.00492244,10,0.000254522,-1.57878,1.06637,0.0553279,-56.953,-0.00964948,
2,0,0,1,0,58329.8,-0.011692,-0.0121096,-26.2471,30,0.00476459,10,0.000317842,-1.58092,0.99401,0.0593556,-60.7645,-0.0121096,
2,0,0,1,0,58329.8,-0.0140974,-0.0144701,-26.0857,30,0.00460759,10,0.000377463,-1.5836,0.968151,0.0609409,-62.0548,-0.01447009,
2,0,0,1,0,58329.8,-0.0164945,-0.0168984,-25.945,30,0.00445153,10,0.00043843,-1.58595,0.95558,0.0617426,-62.5166,-0.0168984,
2,0,0,1,0,58329.8,-0.0188916,-0.0193024,-25.796,30,0.00429632,10,0.000497923,-1.58845,0.95359,0.0618715,-62.2693,-0.0193024,
2,0,0,1,0,58329.9,-0.0212998,-0.0217254,-25.6413,30,0.00414202,10,0.000557068,-1.59106,0.949636,0.0621291,-62.186,-0.0217254,
2,0,0,1,0,58329.9,-0.0236969,-0.0240721,-25.4959,30,0.00398864,10,0.000613739,-1.59353,0.962694,0.0612863,-60.9726,-0.0240721,
2,0,0,1,0,58329.9,-0.026094,-0.0264728,-25.3502,30,0.00383611,10,0.000671091,-1.59602,0.987516,0.0597459,-59.109,-0.02647284,
2,0,0,1,0,58329.9,-0.0284912,-0.0289128,-25.1998,30,0.00368448,10,0.000728598,-1.5986,0.977581,0.0603531,-59.3814,-0.0289128,
2,0,0,1,0,58329.9,-0.0308994,-0.0313369,-25.0678,30,0.00353368,10,0.000785547,-1.60088,1.03833,0.0568218,-55.5939,-0.0313369,
2,0,0,1,0,58329.9,-0.0332965,-0.0336804,-24.931,30,0.00338371,10,0.000839687,-1.60326,1.05819,0.0557556,-54.2691,-0.0336804,
2,0,0,1,0,58329.9,-0.0356936,-0.0360833,-24.8089,30,0.00323452,10,0.000895186,-1.60539,1.13036,0.0521958,-50.5451,-0.0360833,
2,0,0,1,0,58329.9,-0.038099,-0.0384724,-24.6867,30,0.00308605,10,0.000949758,-1.60754,1.21044,0.0487424,-46.9703,-0.0384724,
2,0,0,1,0,58329.9,-0.0404961,-0.0409188,-24.5781,30,0.00293827,10,0.00100571,-1.60945,1.25729,0.0469264,-45.0218,-0.04091876,
2,0,0,1,0,58329.9,-0.0428932,-0.0432612,-24.4734,30,0.00279114,10,0.00105875,-1.6113,1.37943,0.0427713,-40.8558,-0.0432612,
2,0,0,1,0,58329.9,-0.0452903,-0.0456906,-24.3694,30,0.00264461,10,0.00111345,-1.61315,1.49627,0.0394315,-37.5274,-0.0456906,
2,0,0,1,0,58329.9,-0.0476985,-0.0480797,-24.2862,30,0.00249865,10,0.00116767,-1.61464,1.71624,0.0343775,-32.6003,-0.0480797,
2,0,0,1,0,58329.9,-0.0500956,-0.0504858,-24.2143,30,0.00235313,10,0.00122248,-1.61593,1.80053,0.0327682,-30.9651,-0.05048576,
2,0,0,1,0,58329.9,-0.0524927,-0.0528399,-24.1296,30,0.00220806,10,0.001275,-1.61745,1.88171,0.0313544,-29.5573,-0.05283986,
2,0,0,1,0,58329.9,-0.0548981,-0.0553085,-24.082,30,0.00206343,10,0.00133194,-1.61831,2.35215,0.0250835,-23.5894,-0.0553085,
2,0,0,1,0,58329.9,-0.0572953,-0.0577018,-24.0335,30,0.0019191,10,0.00138678,-1.61918,2.6097,0.022608,-21.2016,-0.0577018,
2,0,0,1,0,58330,-0.0596924,-0.0600846,-23.9823,30,0.00177506,10,0.00144096,-1.62011,3.1619,0.0186597,-17.4745,-0.0600846,
2,0,0,1,0,58330,-0.062095,-0.0625065,-23.9498,30,0.0016313,10,0.00149702,-1.6207,4.45838,0.0132335,-12.3707,-0.0625065,
2,0,0,1,0,58330,-0.0644977,-0.06492,-23.9291,30,0.00148769,10,0.00155348,-1.62107,6.14392,0.00960298,-8.96574,-0.06492,
2,0,0,1,0,58330,-0.0668948,-0.0672646,-23.9019,30,0.00134422,10,0.00160775,-1.62157,7.30638,0.00807513,-7.53381,-0.0672646,
2,0,0,1,0,58330,-0.0692919,-0.069712,-23.883,30,0.00120086,10,0.00166493,-1.62191,14.9834,0.00393769,-3.67228,-0.069712,
2,0,0,1,0,58330,-0.0717001,-0.0720831,-23.8774,30,0.00105756,10,0.00172115,-1.62201,-53.0885,-0.00111135,1.03629,-0.0720831,
2,0,0,1,0,58330,-0.0740972,-0.0744997,-23.8893,30,0.000914253,10,0.00177975,-1.6218,-120.126,-0.00049115,0.457977,-0.0744997,
2,0,0,1,0,58330,-0.0764943,-0.0768846,-23.892,30,0.000770884,10,0.00183693,-1.62175,-15.4592,-0.00381649,3.56006,-0.0768846,
2,0,0,1,0,58330,-0.0788997,-0.07935,-23.9079,30,0.000627511,10,0.0018971,-1.62146,-7.96983,-0.00740292,6.91192,-0.07935,
2,0,0,1,0,58330,-0.0812968,-0.0816617,-23.9409,30,0.000483984,10,0.00195506,-1.62086,-4.83432,-0.0122044,11.3987,-0.0816617,
2,0,0,1,0,58330,-0.0836939,-0.084089,-23.9694,30,0.00034027,10,0.00201556,-1.62034,-4.03352,-0.0146274,13.6809,-0.084089,
2,0,0,1,0,58330,-0.086091,-0.0864982,-23.9866,30,0.000196423,10,0.0020748,-1.62003,-3.00721,-0.0196195,18.3838,-0.0864982,
2,0,0,1,0,58330,-0.0884992,-0.088916,-24.0523,30,5.22987e-05,10,0.00213863,-1.61884,-2.55305,-0.0231096,21.6849,-0.088916,
2,0,0,1,0,58330,-0.0908963,-0.0912892,-24.0952,30,-9.2152e-05,10,0.00219963,-1.61807,-2.66119,-0.0221705,20.8508,-0.0912892,
2,0,0,1,0,58330,-0.0932934,-0.093762,-24.1481,30,-0.000236878,10,0.00226418,-1.61712,-2.28367,-0.0258356,24.3604,-0.093762,
2,0,0,1,0,58330,-0.0956989,-0.0961129,-24.2097,30,-0.000381932,10,0.00232687,-1.61601,-2.06777,-0.0285331,26.964,-0.0961129,
2,0,0,1,0,58330,-0.098096,-0.0985339,-24.2821,30,-0.000527426,10,0.00239261,-1.61471,-2.32439,-0.025383,24.0153,-0.0985339,
2,0,0,0,0,58330.1,-0.0999548,-0.100343,-24.3131,30,-0.00064168,10,0.00243965,-1.61416,0.0305636,1.9304,-1732.37,-0.100343,
2,0,0,1,1,58330.1,-0.0994555,-0.0999527,-23.1222,30,-0.000681737,10,0.00231113,-1.63597,-0.0291405,-2.02467,1690.78,-0.0999527,
2,0,0,1,1,58330.1,-0.0970583,-0.0975297,-19.631,30,-0.000808962,10,0.00191461,-1.70706,-0.0352459,-1.67395,1304.23,-0.0975297,
2,0,0,1,1,58330.1,-0.0946501,-0.0950981,-17.0118,30,-0.000918432,10,0.00161779,-1.76925,-0.0388285,-1.5195,1018.68,-0.0950981,
2,0,0,1,1,58330.1,-0.092253,-0.092655,-14.8059,30,-0.00101354,10,0.00137184,-1.82956,-0.0393823,-1.49814,869.25,-0.092655,
2,0,0,1,1,58330.1,-0.0898559,-0.0902977,-12.8506,30,-0.0010962,10,0.00116038,-1.89108,-0.0376968,-1.56512,785.346,-0.0902977,
2,0,0,1,1,58330.1,-0.0874588,-0.0879096,-11.0857,30,-0.00116776,10,0.000974538,-1.95524,-0.0359947,-1.63913,707.695,-0.0879096,
2,0,0,1,1,58330.1,-0.0850534,-0.0855004,-9.46489,30,-0.00122918,10,0.000809252,-2.02388,-0.0336755,-1.75202,644.592,-0.0855004,
2,0,0,1,1,58330.1,-0.0826563,-0.0830774,-7.97213,30,-0.0012813,10,0.000662303,-2.09843,-0.0305286,-1.93261,597.068,-0.0830774,
2,0,0,1,1,58330.1,-0.0802592,-0.0807063,-6.58519,30,-0.00132479,10,0.000531466,-2.18143,-0.0266855,-2.21094,561.611,-0.0807063,
2,0,0,1,1,58330.1,-0.077851,-0.078297,-5.28927,30,-0.00136026,10,0.000414134,-2.2766,-0.0227578,-2.59252,524.376,-0.078297,
2,0,0,1,1,58330.1,-0.0754539,-0.0758305,-4.07477,30,-0.00138822,10,0.000308992,-2.3899,-0.0183792,-3.21016,492.157,-0.0758305,
2,0,0,1,1,58330.1,-0.0730568,-0.0734743,-2.92461,30,-0.00140908,10,0.000214884,-2.53393,-0.0133887,-4.4067,468.808,-0.07347431,
2,0,0,1,1,58330.1,-0.0706597,-0.0711192,-1.86325,30,-0.0014233,10,0.000132513,-2.72973,-0.00783015,-7.53498,439.235,-0.0711192,
2,0,0,1,1,58330.1,-0.0682542,-0.0687258,-0.840618,30,-0.00143124,10,5.77722e-05,-3.0754,-0.00906755,-6.50672,415.12,-0.0687258,
2,1,0,1,1,58330.1,-0.0658571,-0.0662487,0.131274,30,-0.00143323,10,-8.6967e-06,-3.88182,0.115555,0.510577,393.679,-0.0662487,
2,1,0,1,1,58330.1,-0.06346,-0.0639042,1.03469,30,-0.00142963,10,-6.61207e-05,-2.98519,0.00595082,9.9146,370.414,-0.0639042,
2,1,0,1,1,58330.1,-0.0610518,-0.061461,1.91294,30,-0.0014207,10,-0.000117571,-2.7183,0.0104944,5.62202,352.52,-0.061461,
2,1,0,1,1,58330.2,-0.0586547,-0.0590973,2.7371,30,-0.00140666,10,-0.000161755,-2.56271,0.0174207,3.38678,336.165,-0.0590973,
2,1,0,1,1,58330.2,-0.0562576,-0.0567326,3.51249,30,-0.00138783,10,-0.000199273,-2.45438,0.024677,2.39089,315.585,-0.0567326,
2,1,0,1,1,58330.2,-0.053855,-0.0542841,4.26311,30,-0.00136444,10,-0.000231419,-2.37027,0.0311637,1.89323,306.949,-0.0542841,
2,1,0,1,1,58330.2,-0.0514523,-0.0519258,4.97303,30,-0.00133666,10,-0.000258229,-2.30338,0.0384879,1.53295,292.22,-0.0519258,
2,1,0,1,1,58330.2,-0.0490552,-0.0495123,5.6592,30,-0.00130469,10,-0.0002802,-2.24724,0.0461138,1.27944,278.607,-0.0495123,
2,1,0,1,1,58330.2,-0.0466581,-0.0471126,6.30796,30,-0.00126872,10,-0.000297184,-2.20011,0.0538354,1.09593,266.762,-0.0471126,
2,1,0,1,1,58330.2,-0.0442527,-0.0447065,6.92494,30,-0.00122895,10,-0.00030959,-2.15958,0.0621131,0.949881,254.569,-0.0447065,
2,1,0,1,1,58330.2,-0.0418556,-0.0422877,7.51907,30,-0.00118553,10,-0.000317964,-2.12384,0.072203,0.81714,237.872,-0.0422877,
2,1,0,1,1,58330.2,-0.0394585,-0.0398923,8.07294,30,-0.00113867,10,-0.000322048,-2.09297,0.08135,0.725261,227.498,-0.0398923,
2,1,0,1,1,58330.2,-0.0370558,-0.0374979,8.61251,30,-0.00108857,10,-0.000322951,-2.06487,0.0897843,0.657131,220.006,-0.0374979,
2,1,0,1,1,58330.2,-0.0346532,-0.0350929,9.13607,30,-0.00103525,10,-0.000320611,-2.03924,0.0997497,0.59148,209.722,-0.0350929,
2,1,0,1,1,58330.2,-0.0322561,-0.0326836,9.61684,30,-0.000978926,10,-0.000314313,-2.01697,0.111901,0.527251,197.233,-0.0326836,
2,1,0,1,1,58330.2,-0.0298589,-0.0303009,10.0803,30,-0.000919793,10,-0.000305442,-1.99653,0.122469,0.481755,188.997,-0.0303009,
2,1,0,1,1,58330.2,-0.0274535,-0.027863,10.528,30,-0.000857916,10,-0.000293343,-1.97765,0.133582,0.441678,180.795,-0.027863,
2,1,0,1,1,58330.2,-0.0250564,-0.0255164,10.9404,30,-0.000793461,10,-0.000279158,-1.96097,0.146743,0.402064,171.26,-0.0255164,
2,1,0,1,1,58330.2,-0.0226593,-0.0230912,11.3364,30,-0.000726569,10,-0.000261772,-1.94552,0.161216,0.365968,161.596,-0.0230912,
2,1,0,1,1,58330.3,-0.0202511,-0.020648,11.7287,30,-0.000657345,10,-0.000242175,-1.93075,0.173214,0.340619,155.533,-0.020648,
2,1,0,1,1,58330.3,-0.017854,-0.0182823,12.0837,30,-0.000585875,10,-0.000220918,-1.9178,0.189599,0.311182,146.44,-0.0182823,
2,1,0,1,1,58330.3,-0.0154569,-0.0158507,12.4265,30,-0.00051229,10,-0.00019697,-1.90565,0.207222,0.284718,137.848,-0.0158507,
2,1,0,1,1,58330.3,-0.0130598,-0.01345,12.7423,30,-0.000436733,10,-0.000171383,-1.89475,0.215643,0.2736,136.004,-0.01345,
2,1,0,1,1,58330.3,-0.0106516,-0.0110609,13.0679,30,-0.000359251,10,-0.000144543,-1.88379,0.23608,0.249915,127.223,-0.0110609,
2,1,0,1,1,58330.3,-0.00825448,-0.00864422,13.3674,30,-0.00027991,10,-0.00011555,-1.87395,0.262316,0.224919,117.099,-0.00864422,
2,1,0,1,1,58330.3,-0.00585738,-0.00630602,13.6308,30,-0.000198899,10,-8.59561e-05,-1.86548,0.27554,0.214125,113.893,-0.00630602,
2,1,0,1,1,58330.3,-0.00345195,-0.00386072,13.911,30,-0.000116262,10,-5.37067e-05,-1.85664,0.295122,0.199917,108.288,-0.00386072,
2,1,0,1,1,58330.3,-0.00105485,-0.00149071,14.1597,30,-3.20136e-05,10,-2.11081e-05,-1.84894, , , ,-0.00149071,
2,1,0,0,1,58330.3,-7.54729e-05,-0.000554371,14.2412,30,3.49385e-06,10,-7.89492e-06,-1.84645, , , ,-0.000554371,