File: Figure_codes/Fig_3-5/rawdata_trumpetplot_data/after 10th/20221101_1-115_003_TrumpetPlot_ParaChange_from10_every3_13_CV_C01_26.csv
mode,ox/red,error,control changes,counter inc.,time/s,control/V,Ewe/V,<I>/mA,cycle number,(Q-Qo)/C,I Range,P/W,log(|I|),Tafel slope mV/dec,alpha_eff,dI/d(E-IR),E-IR/V,
2,1,0,1,0,52421.2,2.44065e-05,-0.000268062,16.0603,27,0.0000000E+000,10,-4.30514e-06,-1.79425, , , ,-0.000268062,
2,1,0,1,0,52421.2,0.00266289,0.00223556,17.2965,27,5.22333e-05,10,3.86673e-05,-1.76204, , , ,0.00223556,
2,1,0,1,0,52421.3,0.00586735,0.00549101,18.3384,27,0.000123677,10,0.000100696,-1.73664, , , ,0.00549101,
2,1,0,1,0,52421.3,0.00906349,0.00869555,19.227,27,0.000198899,10,0.000167189,-1.71609,0.160965,0.366539,271.663,0.00869555,
2,1,0,1,0,52421.3,0.0122624,0.011934,20.0269,27,0.000277502,10,0.000239002,-1.69839,0.185849,0.317462,246.266,0.011934,
2,1,0,1,0,52421.3,0.0154641,0.0151047,20.7926,27,0.000359232,10,0.000314064,-1.68209,0.205813,0.286668,231.317,0.0151047,
2,1,0,1,0,52421.3,0.0186602,0.0183262,21.4992,27,0.000443908,10,0.000393998,-1.66758,0.224019,0.263371,219.971,0.0183262,
2,1,0,1,0,52421.3,0.0218675,0.0215307,22.196,27,0.000531395,10,0.000477895,-1.65373,0.244953,0.240862,207.698,0.0215307,
2,1,0,1,0,52421.3,0.0250636,0.0247066,22.8365,27,0.000621549,10,0.000564214,-1.64137,0.262522,0.224743,199.543,0.02470663,
2,1,0,1,0,52421.3,0.0282597,0.0279059,23.4513,27,0.000714205,10,0.00065443,-1.62983,0.283138,0.208379,190.233,0.02790588,
2,1,0,1,0,52421.3,0.031467,0.0311041,24.049,27,0.000809296,10,0.000748021,-1.6189,0.2989,0.19739,184.878,0.0311041,
2,1,0,1,0,52421.3,0.0346631,0.0343277,24.6304,27,0.000906735,10,0.000845504,-1.60853,0.314859,0.187386,179.763,0.0343277,
2,1,0,1,0,52421.3,0.0378704,0.037493,25.2005,27,0.00100646,10,0.000944842,-1.59859,0.334793,0.176228,172.908,0.037493,
2,1,0,1,0,52421.3,0.0410665,0.0406732,25.7464,27,0.00110841,10,0.00104719,-1.58928,0.351113,0.168037,168.497,0.0406732,
2,1,0,1,0,52421.3,0.0442626,0.0439201,26.265,27,0.0012125,10,0.00115356,-1.58062,0.371432,0.158845,162.605,0.0439201,
2,1,0,1,0,52421.3,0.0474671,0.0471257,26.7868,27,0.00131865,10,0.00126235,-1.57208,0.385019,0.153239,160.023,0.0471257,
2,1,0,1,0,52421.3,0.0506632,0.050325,27.287,27,0.00142687,10,0.00137322,-1.56404,0.396611,0.14876,158.288,0.050325,
2,1,0,1,0,52421.3,0.0538621,0.0534755,27.7951,27,0.00153708,10,0.00148636,-1.55603,0.410663,0.14367,155.698,0.0534755,
2,1,0,1,0,52421.3,0.0570638,0.0567076,28.2891,27,0.00164932,10,0.00160421,-1.54838,0.423969,0.139161,153.471,0.0567076,
2,1,0,1,0,52421.3,0.06026,0.0598898,28.7742,27,0.00176351,10,0.00172328,-1.541,0.437149,0.134965,151.445,0.0598898,
2,1,0,1,0,52421.3,0.0634672,0.0631305,29.2523,27,0.00187962,10,0.00184671,-1.53384,0.448547,0.131536,150.092,0.0631305,
2,1,0,1,0,52421.3,0.0666633,0.0662576,29.7309,27,0.00199764,10,0.0019699,-1.52679,0.457808,0.128875,149.499,0.0662576,
2,1,0,1,0,52421.3,0.0698595,0.069495,30.2084,27,0.00211758,10,0.00209933,-1.51987,0.467231,0.126276,148.803,0.069495,
2,1,0,1,0,52421.3,0.0730667,0.0727335,30.6943,27,0.00223945,10,0.0022325,-1.51294,0.475236,0.124149,148.64,0.0727335,
2,1,0,1,0,52421.3,0.0762628,0.0759285,31.1567,27,0.00236321,10,0.00236568,-1.50645,0.483746,0.121965,148.263,0.0759285,
2,1,0,1,0,52421.3,0.0794701,0.0791384,31.6455,27,0.00248884,10,0.00250437,-1.49969,0.488711,0.120726,149.051,0.0791384,
2,1,0,1,0,52421.3,0.0826662,0.0823037,32.1074,27,0.00261639,10,0.00264256,-1.49339,0.489534,0.120523,151.019,0.0823037,
2,1,0,1,0,52421.4,0.0858624,0.085487,32.5952,27,0.00274583,10,0.00278646,-1.48685,0.501294,0.117695,149.706,0.085487,
2,1,0,1,0,52421.4,0.0890668,0.0886396,33.0763,27,0.00287723,10,0.00293187,-1.48048,0.506021,0.116596,150.439,0.0886396,
2,1,0,1,0,52421.4,0.092263,0.0919141,33.5581,27,0.00301054,10,0.00308446,-1.4742,0.517166,0.114083,149.353,0.0919141,
2,1,0,1,0,52421.4,0.0954674,0.0951028,34.0329,27,0.00314575,10,0.00323662,-1.4681,0.525961,0.112176,148.962,0.0951028,
2,1,0,1,0,52421.4,0.0986636,0.0983285,34.5131,27,0.0032829,10,0.00339362,-1.46202,0.522899,0.112832,151.997,0.0983285,
2,1,0,1,0,52421.4,0.10186,0.101515,34.9942,27,0.00342198,10,0.00355244,-1.456,0.531209,0.111067,151.687,0.101515,
2,1,0,1,0,52421.4,0.105067,0.104654,35.4945,27,0.00356302,10,0.00371464,-1.44984,0.535129,0.110254,152.649,0.104654,
2,1,0,1,0,52421.4,0.108263,0.107898,35.9737,27,0.00370602,10,0.00388148,-1.44401,0.542402,0.108775,152.652,0.107898,
2,1,0,1,0,52421.4,0.111465,0.111064,36.4572,27,0.00385092,10,0.00404908,-1.43822,0.551059,0.107067,152.359,0.111064,
2,1,0,1,0,52421.4,0.114666,0.114271,36.9414,27,0.00399777,10,0.00422132,-1.43249,0.550582,0.107159,154.545,0.114271,
2,1,0,1,0,52421.4,0.117863,0.117482,37.4489,27,0.0041466,10,0.00439956,-1.42656,0.552643,0.10676,156.031,0.1174816,
2,1,0,1,0,52421.4,0.12107,0.120698,37.9519,27,0.00429745,10,0.00458071,-1.42077,0.551617,0.106958,158.4,0.120698,
2,1,0,1,0,52421.4,0.124266,0.123892,38.4587,27,0.00445031,10,0.00476472,-1.41501,0.553647,0.106566,159.991,0.123892,
2,1,0,1,0,52421.4,0.127462,0.12708,38.9705,27,0.00460522,10,0.00495238,-1.40926,0.549151,0.107439,163.464,0.1270804,
2,1,0,1,0,52421.4,0.130667,0.130352,39.508,27,0.00476222,10,0.00514994,-1.40331,0.547557,0.107751,166.158,0.130352,
2,1,0,1,0,52421.4,0.133863,0.13345,40.0365,27,0.00492137,10,0.00534288,-1.39754,0.550131,0.107247,167.549,0.13345,
2,1,0,1,0,52421.4,0.137067,0.136691,40.5854,27,0.00508265,10,0.00554765,-1.39163,0.55572,0.106169,168.07,0.136691,
2,1,0,1,0,52421.4,0.140263,0.13985,41.11,27,0.00524612,10,0.00574922,-1.38605,0.552166,0.106852,171.473,0.13985,
2,1,0,1,0,52421.4,0.143459,0.143017,41.6367,27,0.00541168,10,0.00595477,-1.38052,0.546832,0.107894,175.582,0.143017,
2,1,0,1,0,52421.4,0.146667,0.146197,42.2223,27,0.00557941,10,0.00617279,-1.37446,0.53801,0.109663,180.859,0.146197,
2,1,0,1,0,52421.4,0.149863,0.149481,42.8312,27,0.0057496,10,0.00640247,-1.36824,0.53366,0.110557,184.723,0.149481,
2,1,0,1,0,52421.4,0.153064,0.152669,43.4284,27,0.00592219,10,0.00663018,-1.36223,0.547482,0.107766,182.463,0.152669,
2,1,0,1,0,52421.4,0.156266,0.155866,44.0102,27,0.00609714,10,0.00685971,-1.35645,0.562534,0.104882,179.982,0.155866,
2,1,0,1,0,52421.4,0.159462,0.159046,44.5667,27,0.00627435,10,0.00708817,-1.35099,0.586153,0.100656,174.973,0.159046,
2,1,0,1,0,52421.4,0.16267,0.162254,45.13,27,0.00645379,10,0.00732252,-1.34553,0.606913,0.0972133,171.096,0.162254,
2,1,0,1,0,52421.5,0.165866,0.165502,45.6739,27,0.00663546,10,0.00755912,-1.34033,0.629288,0.0937568,166.96,0.1655021,
2,1,0,1,0,52421.5,0.169062,0.168677,46.2021,27,0.00681925,10,0.00779323,-1.33534,0.661946,0.0891311,160.54,0.168677,
2,1,0,1,0,52421.5,0.172266,0.171879,46.7093,27,0.00700515,10,0.00802837,-1.3306,0.689263,0.0855986,155.882,0.171879,
2,1,0,1,0,52421.5,0.175462,0.175083,47.1895,27,0.00719299,10,0.00826208,-1.32615,0.726072,0.0812592,149.534,0.175083,
2,1,0,1,0,52421.5,0.178667,0.178274,47.6647,27,0.00738276,10,0.00849736,-1.3218,0.775762,0.0760542,141.309,0.178274,
2,1,0,1,0,52421.5,0.181863,0.181475,48.1158,27,0.00757437,10,0.00873182,-1.31771,0.831006,0.0709983,133.104,0.181475,
2,1,0,1,0,52421.5,0.185059,0.184683,48.5186,27,0.00776772,10,0.00896054,-1.31409,0.926322,0.0636928,120.394,0.184683,
2,1,0,1,0,52421.5,0.188266,0.187898,48.8953,27,0.00796261,10,0.00918732,-1.31073,1.03992,0.0567353,108.063,0.187898,
2,1,0,1,0,52421.5,0.191463,0.191126,49.2121,27,0.00815888,10,0.00940569,-1.30793,1.19398,0.0494144,94.7341,0.191126,
2,1,0,1,0,52421.5,0.194664,0.194284,49.5,27,0.00835634,10,0.00961704,-1.30539,1.43566,0.0410962,79.2298,0.194284,
2,1,0,1,0,52421.5,0.197866,0.197506,49.7334,27,0.00855486,10,0.00982265,-1.30335,1.79801,0.0328141,63.5418,0.197506,
2,1,0,1,0,52421.5,0.201062,0.200673,49.9074,27,0.00875418,10,0.010015,-1.30183,2.48643,0.0237288,46.1135,0.2006726,
2,1,0,1,0,52421.5,0.204269,0.203926,50.0254,27,0.00895408,10,0.0102015,-1.30081,4.14414,0.014237,27.7315,0.203926,
2,1,0,1,0,52421.5,0.207465,0.207121,50.092,27,0.00915432,10,0.0103751,-1.30023,10.5144,0.00561133,10.9447,0.207121,
2,1,0,1,0,52421.5,0.210662,0.210292,50.0879,27,0.00935469,10,0.0105331,-1.30027,-15.016,-0.00392913,-7.66346,0.210292,
2,1,0,1,0,52421.5,0.213866,0.213487,50.0477,27,0.00955497,10,0.0106845,-1.30062,-4.507,-0.0130908,-25.5078,0.213487,
2,1,0,1,0,52421.5,0.217062,0.216722,49.9273,27,0.00975493,10,0.0108203,-1.30166,-2.65673,-0.0222077,-43.1703,0.216722,
2,1,0,1,0,52421.5,0.220267,0.219958,49.7645,27,0.0099543,10,0.0109461,-1.30308,-1.84837,-0.03192,-61.8508,0.2199582,
2,1,0,1,0,52421.5,0.223463,0.22314,49.5332,27,0.0101529,10,0.0110529,-1.3051,-1.44813,-0.0407422,-78.5862,0.22314,
2,1,0,1,0,52421.5,0.226659,0.226312,49.2544,27,0.0103505,10,0.0111469,-1.30756,-1.17944,-0.0500238,-95.9557,0.226312,
2,1,0,1,0,52421.5,0.229866,0.229487,48.9242,27,0.0105468,10,0.0112275,-1.31048,-1.00911,-0.0584676,-111.386,0.229487,
2,1,0,1,0,52421.5,0.233062,0.232697,48.5422,27,0.0107417,10,0.0112956,-1.31388,-0.874137,-0.0674951,-127.573,0.232697,
2,1,0,1,0,52421.5,0.236264,0.235979,48.1032,27,0.010935,10,0.0113513,-1.31783,-0.7705,-0.0765736,-143.441,0.235979,
2,1,0,1,0,52421.5,0.239466,0.239147,47.6169,27,0.0111264,10,0.0113875,-1.32224,-0.702467,-0.0839897,-155.815,0.239147,
2,1,0,1,0,52421.5,0.242662,0.242309,47.0849,27,0.0113158,10,0.0114091,-1.32712,-0.636886,-0.0926382,-169.967,0.242309,
2,1,0,1,0,52421.6,0.245869,0.245527,46.5431,27,0.011503,10,0.0114276,-1.33214,-0.591523,-0.0997425,-180.832,0.245527,
2,1,0,1,0,52421.6,0.249065,0.248718,45.9381,27,0.0116879,10,0.0114256,-1.33783,-0.560902,-0.105188,-188.282,0.2487175,
2,1,0,1,0,52421.6,0.252261,0.251893,45.312,27,0.0118704,10,0.0114138,-1.34379,-0.525727,-0.112226,-198.238,0.251893,
2,1,0,1,0,52421.6,0.255466,0.255156,44.6661,27,0.0120503,10,0.0113968,-1.35002,-0.50567,-0.116677,-203.19,0.255156,
2,1,0,1,0,52421.6,0.258662,0.258333,44.0043,27,0.0122275,10,0.0113678,-1.3565,-0.488493,-0.12078,-207.247,0.2583333,
2,1,0,1,0,52421.6,0.261866,0.261542,43.3323,27,0.0124021,10,0.0113332,-1.36319,-0.468285,-0.125992,-212.876,0.261542,
2,1,0,1,0,52421.6,0.265063,0.26474,42.6496,27,0.012574,10,0.0112911,-1.37009,-0.460928,-0.128003,-212.936,0.26474,
2,1,0,1,0,52421.6,0.268259,0.267919,41.9491,27,0.0127432,10,0.011239,-1.37728,-0.450034,-0.131101,-214.607,0.267919,
2,1,0,1,0,52421.6,0.271466,0.271149,41.2753,27,0.0129096,10,0.0111918,-1.38431,-0.447962,-0.131708,-212.179,0.271149,
2,1,0,1,0,52421.6,0.274662,0.274336,40.5866,27,0.0130732,10,0.0111344,-1.39162,-0.446052,-0.132272,-209.554,0.274336,
2,1,0,1,0,52421.6,0.277869,0.27752,39.9379,27,0.0132342,10,0.0110836,-1.39861,-0.44244,-0.133351,-207.838,0.27752,
2,1,0,1,0,52421.6,0.281065,0.280709,39.269,27,0.0133926,10,0.0110232,-1.40595,-0.445696,-0.132377,-202.913,0.280709,
2,1,0,1,0,52421.6,0.284262,0.283897,38.626,27,0.0135483,10,0.0109658,-1.41312,-0.44495,-0.132599,-199.977,0.283897,
2,1,0,1,0,52421.6,0.287469,0.287108,37.9949,27,0.0137014,10,0.0109087,-1.42027,-0.450659,-0.130919,-194.227,0.287108,
2,1,0,1,0,52421.6,0.290665,0.290325,37.3773,27,0.0138521,10,0.0108516,-1.42739,-0.459368,-0.128437,-187.518,0.290325,
2,1,0,1,0,52421.6,0.293861,0.293495,36.7856,27,0.0140004,10,0.0107964,-1.43432,-0.464741,-0.126952,-182.697,0.2934953,
2,1,0,1,0,52421.6,0.297066,0.296728,36.2198,27,0.0141463,10,0.0107474,-1.44105,-0.466691,-0.126422,-180.21,0.296728,
2,1,0,1,0,52421.6,0.299638,0.29925,35.7766,27,0.0142615,10,0.0107062,-1.4464,-0.136489,-0.43227,-593.68,0.29925,
2,1,0,1,0,52421.6,0.300012,0.299708,35.6863,27,0.0142794,10,0.0106955,-1.4475,0.012043,4.89909,6199.94,0.299708,
2,1,0,1,0,52421.6,0.298983,0.298788,33.6435,27,0.0143237,10,0.0100523,-1.4731,0.0456989,1.29106,1521.34,0.298788,
2,1,0,1,0,52421.6,0.295787,0.295549,28.9089,27,0.0144478,10,0.00854399,-1.53897,0.0507615,1.1623,1284.85,0.295549,
2,1,0,1,0,52421.6,0.292579,0.292314,25.2242,27,0.0145555,10,0.0073734,-1.59818,0.0530343,1.11249,1119.12,0.292314,
2,1,0,1,0,52421.6,0.289383,0.289098,22.0534,27,0.0146497,10,0.00637559,-1.65652,0.0537473,1.09773,952.715,0.289098,
2,1,0,1,0,52421.6,0.286187,0.28592,19.2427,27,0.0147319,10,0.00550186,-1.71573,0.0525237,1.1233,845.667,0.28592,
2,1,0,1,0,52421.6,0.282983,0.282716,16.6827,27,0.0148034,10,0.00471646,-1.77773,0.0499471,1.18125,768.276,0.282716,
2,1,0,1,0,52421.6,0.279786,0.279478,14.3691,27,0.0148652,10,0.00401584,-1.84257,0.047114,1.25228,698.967,0.279478,
2,1,0,1,0,52421.7,0.276582,0.276319,12.2356,27,0.0149182,10,0.00338092,-1.91238,0.043598,1.35327,640.103,0.276319,
2,1,0,1,0,52421.7,0.273386,0.27311,10.2891,27,0.014963,10,0.00281006,-1.98762,0.039066,1.51026,595.688,0.27311,
2,1,0,1,0,52421.7,0.27019,0.269896,8.47633,27,0.0150003,10,0.00228773,-2.07179,0.0346685,1.70183,546.96,0.269896,
2,1,0,1,0,52421.7,0.266982,0.266744,6.78399,27,0.0150306,10,0.00180959,-2.16851,0.0292936,2.01409,509.766,0.266744,
2,1,0,1,0,52421.7,0.263786,0.263491,5.21932,27,0.0150544,10,0.00137524,-2.28239,0.0233696,2.52465,474.177,0.263491,
2,1,0,1,0,52421.7,0.260585,0.2603,3.75916,27,0.0150722,10,0.000978511,-2.42491,0.0164618,3.58404,440.931,0.2603,
2,1,0,1,0,52421.7,0.257383,0.257073,2.39622,27,0.0150843,10,0.000616004,-2.62047,0.00722011,8.17162,413.754,0.257073,
2,1,0,1,0,52421.7,0.254187,0.253917,1.12783,27,0.0150912,10,0.000286375,-2.94776,0.0259443,2.2741,386.835,0.253917,
2,1,0,1,0,52421.7,0.25098,0.250665,-0.0873448,27,0.0150932,10,-2.18943e-05,-4.05876,0.534004,0.110486,365.441,0.250665,
2,0,0,1,0,52421.7,0.247783,0.24747,-1.20386,27,0.0150905,10,-0.000297921,-2.91942,-0.0279183,-2.11331,340.836,0.24747,
2,0,0,1,0,52421.7,0.244587,0.24431,-2.26791,27,0.0150834,10,-0.000554074,-2.64437,-0.00760758,-7.75542,321.706,0.24431,
2,0,0,1,0,52421.7,0.241383,0.241027,-3.26528,27,0.0150722,10,-0.000787022,-2.48608,-0.02042,-2.88933,304.628,0.241027,
2,0,0,1,0,52421.7,0.238187,0.237865,-4.20523,27,0.0150572,10,-0.00100028,-2.37621,-0.0306985,-1.92192,286.378,0.237865,
2,0,0,1,0,52421.7,0.234982,0.234652,-5.10864,27,0.0150384,10,-0.00119875,-2.29169,-0.0404836,-1.45738,272.869,0.234652,
2,0,0,1,0,52421.7,0.231786,0.231448,-5.95152,27,0.0150162,10,-0.00137747,-2.22537,-0.0509519,-1.15796,257.535,0.231448,
2,0,0,1,0,52421.7,0.22859,0.228267,-6.74734,27,0.0149907,10,-0.00154019,-2.17087,-0.0617644,-0.955243,244.019,0.228267,
2,0,0,1,0,52421.7,0.225383,0.225033,-7.50991,27,0.0149621,10,-0.00168998,-2.12437,-0.0723567,-0.815405,233.742,0.225033,
2,0,0,1,0,52421.7,0.222187,0.221863,-8.22954,27,0.0149305,10,-0.00182583,-2.08462,-0.0837324,-0.704626,222.384,0.2218627,
2,0,0,1,0,52421.7,0.218979,0.218658,-8.94098,27,0.0148961,10,-0.00195502,-2.04861,-0.0952649,-0.619326,212.642,0.218658,
2,0,0,1,0,52421.7,0.215783,0.215471,-9.59295,27,0.014859,10,-0.002067,-2.01805,-0.107609,-0.548279,202.605,0.215471,
2,0,0,1,0,52421.7,0.212587,0.212266,-10.2248,27,0.0148193,10,-0.00217037,-1.99035,-0.120381,-0.490109,193.735,0.212266,
2,0,0,1,0,52421.7,0.20938,0.209047,-10.8261,27,0.0147771,10,-0.00226317,-1.96553,-0.133272,-0.442702,185.522,0.209047,
2,0,0,1,0,52421.7,0.206184,0.205877,-11.4171,27,0.0147326,10,-0.00235052,-1.94244,-0.146135,-0.403738,178.527,0.205877,
2,0,0,1,0,52421.7,0.202988,0.202655,-11.9706,27,0.0146857,10,-0.0024259,-1.92188,-0.159847,-0.369103,171.256,0.202655,
2,0,0,1,0,52421.7,0.199783,0.19945,-12.5128,27,0.0146367,10,-0.00249568,-1.90265,-0.173898,-0.33928,164.771,0.19945,
2,0,0,1,0,52421.8,0.196587,0.196244,-13.0186,27,0.0145856,10,-0.00255483,-1.88544,-0.187853,-0.314075,158.864,0.196244,
2,0,0,1,0,52421.8,0.193382,0.19305,-13.5306,27,0.0145324,10,-0.00261208,-1.86868,-0.200784,-0.293849,154.537,0.1930504,
2,0,0,1,0,52421.8,0.190186,0.189855,-14.0039,27,0.0144773,10,-0.00265872,-1.85375,-0.213242,-0.276681,150.739,0.1898554,
2,0,0,1,0,52421.8,0.18699,0.186678,-14.4865,27,0.0144203,10,-0.00270431,-1.83904,-0.228182,-0.258566,145.727,0.186678,
2,0,0,1,0,52421.8,0.183783,0.183461,-14.9455,27,0.0143613,10,-0.00274193,-1.82549,-0.240743,-0.245075,142.491,0.183461,
2,0,0,1,0,52421.8,0.180587,0.180278,-15.3919,27,0.0143006,10,-0.00277482,-1.81271,-0.255207,-0.231185,138.579,0.180278,
2,0,0,1,0,52421.8,0.17738,0.177046,-15.8292,27,0.0142381,10,-0.00280249,-1.80054,-0.266189,-0.221647,136.692,0.1770457,
2,0,0,1,0,52421.8,0.174183,0.173833,-16.2666,27,0.0141739,10,-0.00282767,-1.7887,-0.274147,-0.215213,136.467,0.173833,
2,0,0,1,0,52421.8,0.170987,0.170692,-16.691,27,0.0141079,10,-0.00284902,-1.77752,-0.285357,-0.206758,134.568,0.170692,
2,0,0,1,0,52421.8,0.16778,0.167504,-17.1351,27,0.0140402,10,-0.0028702,-1.76611,-0.292671,-0.201592,134.628,0.167504,
2,0,0,1,0,52421.8,0.164584,0.164226,-17.5543,27,0.0139708,10,-0.00288287,-1.75562,-0.301446,-0.195724,133.958,0.164226,
2,0,0,1,0,52421.8,0.161382,0.161061,-17.986,27,0.0138997,10,-0.00289685,-1.74506,-0.306824,-0.192292,134.992,0.161061,
2,0,0,1,0,52421.8,0.158183,0.157848,-18.4115,27,0.0138268,10,-0.00290622,-1.73491,-0.305351,-0.19322,138.938,0.157848,
2,0,0,1,0,52421.8,0.154987,0.154662,-18.8687,27,0.0137522,10,-0.00291827,-1.72426,-0.307227,-0.19204,141.462,0.154662,
2,0,0,1,0,52421.8,0.151783,0.151491,-19.3237,27,0.0136758,10,-0.00292737,-1.71391,-0.30399,-0.194085,146.434,0.151491,
2,0,0,1,0,52421.8,0.148587,0.148291,-19.7926,27,0.0135975,10,-0.00293505,-1.7035,-0.301498,-0.195689,151.38,0.148291,
2,0,0,1,0,52421.8,0.145385,0.145064,-20.2836,27,0.0135173,10,-0.00294241,-1.69286,-0.294729,-0.200184,158.788,0.145064,
2,0,0,1,0,52421.8,0.142183,0.141865,-20.8059,27,0.0134351,10,-0.00295163,-1.68181,-0.285346,-0.206766,168.298,0.141865,
2,0,0,1,0,52421.8,0.138987,0.138667,-21.3599,27,0.0133507,10,-0.00296193,-1.6704,-0.27503,-0.214522,179.243,0.138667,
2,0,0,1,0,52421.8,0.13578,0.135428,-21.9573,27,0.013264,10,-0.00297364,-1.65842,-0.265479,-0.22224,190.851,0.135428,
2,0,0,1,0,52421.8,0.132584,0.132272,-22.5764,27,0.0131749,10,-0.00298623,-1.64635,-0.255765,-0.230681,203.821,0.132272,
2,0,0,1,0,52421.8,0.129388,0.129069,-23.2481,27,0.0130832,10,-0.0030006,-1.63361,-0.245793,-0.24004,218.491,0.129069,
2,0,0,1,0,52421.8,0.12618,0.125862,-23.97,27,0.0129887,10,-0.00301691,-1.62033,-0.237142,-0.248796,233.405,0.125862,
2,0,0,1,0,52421.8,0.122984,0.122672,-24.7443,27,0.0128912,10,-0.00303544,-1.60652,-0.229549,-0.257025,248.815,0.122672,
2,0,0,1,0,52421.8,0.119782,0.119482,-25.5618,27,0.0127905,10,-0.00305416,-1.59241,-0.225884,-0.261196,260.938,0.119482,
2,0,0,1,0,52421.9,0.116584,0.116281,-26.4298,27,0.0126865,10,-0.00307329,-1.57791,-0.223333,-0.26418,272.742,0.116281,
2,0,0,1,0,52421.9,0.113387,0.113107,-27.2981,27,0.012579,10,-0.00308762,-1.56387,-0.221286,-0.266624,284.473,0.113107,
2,0,0,1,0,52421.9,0.110183,0.109854,-28.2404,27,0.0124678,10,-0.00310232,-1.54913,-0.221567,-0.266285,293.688,0.1098541,
2,0,0,1,0,52421.9,0.106987,0.106706,-29.1962,27,0.0123528,10,-0.0031154,-1.53467,-0.224236,-0.263115,299.572,0.106706,
2,0,0,1,0,52421.9,0.103785,0.103534,-30.1735,27,0.012234,10,-0.00312398,-1.52037,-0.229483,-0.2571,302.251,0.103534,
2,0,0,1,0,52421.9,0.100583,0.100305,-31.1333,27,0.0121113,10,-0.00312283,-1.50677,-0.238406,-0.247477,300.219,0.100305,
2,0,0,1,0,52421.9,0.0973873,0.0971239,-32.0881,27,0.0119847,10,-0.00311652,-1.49366,-0.248881,-0.237061,296.491,0.0971239,
2,0,0,1,0,52421.9,0.0941801,0.0938621,-33.0521,27,0.0118543,10,-0.00310234,-1.4808,-0.257097,-0.229486,295.477,0.0938621,
2,0,0,1,0,52421.9,0.0909839,0.0906395,-33.9966,27,0.0117202,10,-0.00308143,-1.46856,-0.267589,-0.220487,291.936,0.0906395,
2,0,0,1,0,52421.9,0.0877878,0.0874806,-34.9227,27,0.0115822,10,-0.00305505,-1.45689,-0.283513,-0.208103,282.819,0.0874806,
2,0,0,1,0,52421.9,0.0845806,0.0842919,-35.8342,27,0.0114406,10,-0.00302054,-1.4457,-0.299185,-0.197202,274.872,0.0842919,
2,0,0,1,0,52421.9,0.0813844,0.0811192,-36.656,27,0.0112955,10,-0.00297351,-1.43585,-0.314578,-0.187553,267.903,0.0811192,
2,0,0,1,0,52421.9,0.0781828,0.0779263,-37.4911,27,0.0111472,10,-0.00292154,-1.42607,-0.334215,-0.176533,258.097,0.0779263,
2,0,0,1,0,52421.9,0.0749839,0.0747557,-38.3317,27,0.0109954,10,-0.00286551,-1.41644,-0.349833,-0.168652,251.709,0.0747557,
2,0,0,1,0,52421.9,0.0717877,0.0714886,-39.1387,27,0.0108404,10,-0.00279797,-1.40739,-0.371077,-0.158997,242.115,0.0714886,
2,0,0,1,0,52421.9,0.0685832,0.068336,-39.8736,27,0.0106823,10,-0.00272481,-1.39931,-0.403842,-0.146097,226.78,0.068336,
2,0,0,1,0,52421.9,0.0653871,0.0651399,-40.5869,27,0.0105213,10,-0.00264382,-1.39161,-0.434921,-0.135657,214.393,0.0651399,
2,0,0,1,0,52421.9,0.0621854,0.0618781,-41.2521,27,0.0103575,10,-0.0025526,-1.38455,-0.471241,-0.125201,201.073,0.0618781,
2,0,0,1,0,52421.9,0.0589837,0.0586884,-41.883,27,0.0101911,10,-0.00245805,-1.37796,-0.508934,-0.115929,189.059,0.0586884,
2,0,0,1,0,52421.9,0.0557876,0.0554955,-42.4555,27,0.0100224,10,-0.00235609,-1.37207,-0.552112,-0.106862,176.696,0.0554955,
2,0,0,1,0,52421.9,0.0525804,0.0523175,-43.0111,27,0.00985138,10,-0.00225023,-1.36642,-0.599177,-0.0984684,164.954,0.0523175,
2,0,0,1,0,52421.9,0.0493842,0.0491342,-43.5039,27,0.00967829,10,-0.00213753,-1.36147,-0.639433,-0.0922693,156.442,0.0491342,
2,0,0,1,0,52421.9,0.0461881,0.0459593,-43.9827,27,0.00950325,10,-0.00202141,-1.35672,-0.695767,-0.0847985,145.403,0.0459593,
2,0,0,1,0,52421.9,0.0429808,0.0427569,-44.4484,27,0.00932633,10,-0.00190047,-1.35214,-0.743903,-0.0793114,137.368,0.0427569,
2,0,0,1,0,52421.9,0.0397847,0.0395014,-44.8746,27,0.00914765,10,-0.00177261,-1.348,-0.808572,-0.0729681,127.575,0.0395014,
2,0,0,1,0,52422,0.036583,0.0362958,-45.2674,27,0.00896732,10,-0.00164302,-1.34421,-0.8966,-0.0658041,116.051,0.0362958,
2,0,0,1,0,52422,0.0333841,0.0330838,-45.6253,27,0.00878549,10,-0.00150946,-1.34079,-0.970733,-0.0607788,108.076,0.0330838,
2,0,0,1,0,52422,0.030188,0.0299228,-45.9378,27,0.00860231,10,-0.00137459,-1.33783,-1.08139,-0.0545594,97.7109,0.0299228,
2,0,0,1,0,52422,0.0269835,0.0266949,-46.2586,27,0.00841788,10,-0.00123487,-1.33481,-1.19014,-0.0495742,89.3741,0.0266949,
2,0,0,1,0,52422,0.0237874,0.0235126,-46.5165,27,0.00823228,10,-0.00109372,-1.33239,-1.32941,-0.0443805,80.4601,0.0235126,
2,0,0,1,0,52422,0.0205857,0.0202879,-46.7689,27,0.00804568,10,-0.000948844,-1.33004,-1.50978,-0.0390786,71.2444,0.0202879,
2,0,0,1,0,52422,0.017384,0.0170378,-46.9745,27,0.00785814,10,-0.000800341,-1.32814,-1.65905,-0.0355624,65.1379,0.0170378,
2,0,0,1,0,52422,0.0141878,0.0138672,-47.1725,27,0.00766982,10,-0.000654149,-1.32631,-1.88257,-0.0313401,57.6546,0.0138672,
2,0,0,1,0,52422,0.0109806,0.0106838,-47.3521,27,0.00748073,10,-0.000505902,-1.32466,-2.16401,-0.0272642,50.3244,0.0106838,
2,0,0,1,0,52422,0.00778448,0.00745806,-47.5086,27,0.00729098,10,-0.000354322,-1.32323,-2.36019,-0.024998,46.3109,0.00745806,
2,0,0,1,0,52422,0.00458834,0.00424397,-47.6184,27,0.00710072,10,-0.000202091,-1.32223,-2.9604,-0.0199298,37.0155,0.00424397,
2,0,0,1,0,52422,0.0013811,0.00101291,-47.7678,27,0.00690996,10,-4.83845e-05,-1.32086,-3.64734,-0.0161762,30.1142,0.00101291,
2,0,0,1,0,52422,-0.00181504,-0.0022033,-47.8292,27,0.00671875,10,0.000105382,-1.32031,-4.67285,-0.0126261,23.5388,-0.0022033,
2,0,0,1,0,52422,-0.0050195,-0.00537392,-47.895,27,0.00652731,10,0.000257384,-1.31971,-8.86592,-0.00665469,12.4265,-0.00537392,
2,0,0,1,0,52422,-0.00821564,-0.00860286,-47.9208,27,0.00633567,10,0.000412256,-1.31948,-18.7134,-0.00315283,5.88976,-0.00860286,
2,0,0,1,0,52422,-0.0114118,-0.0117629,-47.9266,27,0.00614398,10,0.000563754,-1.31942,54.3948,0.00108466,-2.02689,-0.0117629,
2,0,0,1,0,52422,-0.0146162,-0.0149759,-47.9044,27,0.0059523,10,0.000717412,-1.31962,14.3506,0.00411132,-7.68108,-0.0149759,
2,0,0,1,0,52422,-0.0178124,-0.0182017,-47.869,27,0.00576075,10,0.000871296,-1.31995,8.03063,0.00734687,-13.7165,-0.0182017,
2,0,0,1,0,52422,-0.0210196,-0.0214052,-47.8224,27,0.00556937,10,0.00102365,-1.32037,5.33411,0.0110609,-20.622,-0.0214052,
2,0,0,1,0,52422,-0.0242158,-0.0245938,-47.7506,27,0.00537822,10,0.00117437,-1.32102,4.20852,0.0140192,-26.0989,-0.0245938,
2,0,0,1,0,52422,-0.0274119,-0.0277634,-47.6407,27,0.00518743,10,0.00132267,-1.32202,3.34713,0.017627,-32.7539,-0.0277634,
2,0,0,1,0,52422,-0.0306191,-0.0309987,-47.535,27,0.00499708,10,0.00147352,-1.32299,3.00133,0.019658,-36.4542,-0.0309987,
2,0,0,1,0,52422,-0.0338153,-0.0342149,-47.4029,27,0.00480721,10,0.00162188,-1.3242,2.71816,0.0217059,-40.1385,-0.0342149,
2,0,0,1,0,52422,-0.037017,-0.0374109,-47.2834,27,0.00461787,10,0.00176891,-1.32529,2.49055,0.0236895,-43.6879,-0.0374109,
2,0,0,1,0,52422,-0.0402187,-0.0405943,-47.1257,27,0.00442907,10,0.00191303,-1.32674,2.32417,0.0253854,-46.6667,-0.0405943,
2,0,0,1,0,52422.1,-0.0434148,-0.0438264,-46.9746,27,0.00424088,10,0.00205873,-1.32814,2.1488,0.0274572,-50.322,-0.0438264,
2,0,0,1,0,52422.1,-0.0466193,-0.0469885,-46.8068,27,0.00405336,10,0.00219938,-1.32969,2.11823,0.0278534,-50.8718,-0.0469885,
2,0,0,1,0,52422.1,-0.0498154,-0.0501878,-46.6404,27,0.00386649,10,0.00234078,-1.33124,2.07251,0.0284678,-51.8223,-0.0501878,
2,0,0,1,0,52422.1,-0.0530115,-0.0534135,-46.4735,27,0.00368027,10,0.00248232,-1.33279,2.03981,0.0289242,-52.4565,-0.05341354,
2,0,0,1,0,52422.1,-0.056216,-0.056547,-46.3154,27,0.00349469,10,0.002619,-1.33427,2.0949,0.0281636,-50.9052,-0.056547,
2,0,0,1,0,52422.1,-0.0594121,-0.0597898,-46.1352,27,0.0033098,10,0.00275842,-1.33597,2.07296,0.0284617,-51.2574,-0.0597898,
2,0,0,1,0,52422.1,-0.0626194,-0.0629911,-45.9886,27,0.00312558,10,0.00289688,-1.33735,2.13066,0.0276909,-49.7075,-0.0629911,
2,0,0,1,0,52422.1,-0.0658155,-0.0661745,-45.8195,27,0.00294196,10,0.00303208,-1.33895,2.28905,0.0257749,-46.111,-0.06617447,
2,0,0,1,0,52422.1,-0.0690117,-0.0693652,-45.6783,27,0.00275897,10,0.00316848,-1.34029,2.34769,0.025131,-44.8239,-0.0693652,
2,0,0,1,0,52422.1,-0.0722189,-0.0725687,-45.546,27,0.00257652,10,0.00330521,-1.34155,2.52761,0.0233422,-41.4982,-0.07256873,
2,0,0,1,0,52422.1,-0.075415,-0.0757531,-45.4166,27,0.00239462,10,0.00344045,-1.34279,2.67883,0.0220246,-39.0475,-0.07575313,
2,0,0,1,0,52422.1,-0.0786167,-0.0789587,-45.2889,27,0.00221324,10,0.00357596,-1.34401,2.85072,0.0206965,-36.5983,-0.0789587,
2,0,0,1,0,52422.1,-0.0818184,-0.0821654,-45.1784,27,0.00203232,10,0.00371211,-1.34507,3.22945,0.0182694,-32.2342,-0.0821654,
2,0,0,1,0,52422.1,-0.0850146,-0.0854039,-45.0762,27,0.00185183,10,0.00384969,-1.34605,3.58858,0.0164411,-28.9401,-0.0854039,
2,0,0,1,0,52422.1,-0.088219,-0.0885819,-45.0031,27,0.00167168,10,0.00398646,-1.34676,4.08929,0.0144279,-25.3477,-0.0885819,
2,0,0,1,0,52422.1,-0.0914152,-0.0917801,-44.9179,27,0.00149185,10,0.00412257,-1.34758,4.76889,0.0123719,-21.6975,-0.0917801,
2,0,0,1,0,52422.1,-0.0946141,-0.0949348,-44.8548,27,0.00131232,10,0.00425828,-1.34819,5.87176,0.0100481,-17.6035,-0.0949348,
2,0,0,1,0,52422.1,-0.0978158,-0.0981648,-44.7994,27,0.00113299,10,0.00439772,-1.34873,8.09671,0.00728691,-12.7508,-0.0981648,
2,0,0,1,0,52422.1,-0.101012,-0.101388,-44.7776,27,0.000953843,10,0.00453994,-1.34894,12.5613,0.00469697,-8.21253,-0.101388,
2,0,0,1,0,52422.1,-0.104219,-0.104586,-44.7546,27,0.000774777,10,0.00468069,-1.34916,21.59,0.00273275,-4.77463,-0.104586,
2,0,0,1,0,52422.1,-0.107415,-0.107817,-44.749,27,0.000595761,10,0.00482468,-1.34922,229.137,0.000257488,-0.449939,-0.107817,
2,0,0,1,0,52422.1,-0.110611,-0.110946,-44.7383,27,0.000416782,10,0.00496354,-1.34932,-30.2313,-0.00195162,3.41043,-0.110946,
2,0,0,1,0,52422.1,-0.113819,-0.114184,-44.7719,27,0.00023775,10,0.00511225,-1.34899,-11.8733,-0.00496912,8.6889,-0.114184,
2,0,0,1,0,52422.1,-0.117015,-0.117382,-44.7982,27,5.86087e-05,10,0.00525849,-1.34874,-7.55496,-0.00780944,13.662,-0.117382,
2,0,0,1,0,52422.1,-0.120216,-0.120599,-44.86,27,-0.0001207,10,0.00541007,-1.34814,-6.35144,-0.00928923,16.2689,-0.120599,
2,0,0,1,0,52422.2,-0.123418,-0.123813,-44.9141,27,-0.000300256,10,0.00556095,-1.34762,-4.61474,-0.0127851,22.4242,-0.1238129,
2,0,0,1,0,52422.2,-0.126614,-0.126988,-44.9802,27,-0.000480035,10,0.00571193,-1.34698,-4.52014,-0.0130527,22.9265,-0.126988,
2,0,0,1,0,52422.2,-0.129819,-0.130183,-45.0853,27,-0.000660184,10,0.00586933,-1.34597,-3.72021,-0.0158593,27.9094,-0.130183,
2,0,0,1,0,52422.2,-0.133015,-0.133383,-45.1531,27,-0.000840647,10,0.00602266,-1.34531,-3.15484,-0.0187014,32.9832,-0.133383,
2,0,0,1,0,52422.2,-0.136214,-0.136601,-45.2711,27,-0.0010215,10,0.00618409,-1.34418,-3.15692,-0.0186891,33.0382,-0.1366014,
2,0,0,1,0,52422.2,-0.139416,-0.139801,-45.4028,27,-0.00120288,10,0.00634734,-1.34292,-2.62706,-0.0224586,39.7992,-0.139801,
2,0,0,1,0,52422.2,-0.142612,-0.142989,-45.5084,27,-0.00138471,10,0.00650721,-1.34191,-2.52055,-0.0234076,41.5989,-0.142989,
2,0,0,1,0,52422.2,-0.145819,-0.146193,-45.663,27,-0.00156706,10,0.00667559,-1.34044,-2.43641,-0.0242159,43.1688,-0.146193,
2,0,0,1,0,52422.2,-0.149015,-0.149392,-45.8031,27,-0.00175001,10,0.00684262,-1.3391,-2.24959,-0.026227,46.8873,-0.149392,
2,0,0,1,0,52422.2,-0.152211,-0.152569,-45.954,27,-0.00193355,10,0.00701115,-1.33768,-2.29859,-0.0256679,46.037,-0.152569,
2,0,0,1,0,52422.2,-0.155418,-0.155805,-46.1093,27,-0.00211772,10,0.00718408,-1.33621,-2.25461,-0.0261686,47.0852,-0.155805,
2,0,0,1,0,52422.2,-0.158615,-0.158996,-46.2524,27,-0.00230245,10,0.00735395,-1.33487,-2.19165,-0.0269204,48.6062,-0.158996,
2,0,0,1,0,52422.2,-0.161816,-0.162206,-46.4065,27,-0.00248779,10,0.00752741,-1.33342,-2.22421,-0.0265263,48.0503,-0.162206,
2,0,0,1,0,52422.2,-0.165018,-0.165372,-46.5763,27,-0.00267377,10,0.00770243,-1.33184,-2.17277,-0.0271543,49.3482,-0.165372,
2,0,0,1,0,52422.2,-0.168214,-0.168547,-46.7216,27,-0.00286038,10,0.00787479,-1.33048,-2.30796,-0.0255637,46.594,-0.168547,
2,0,0,1,0,52422.2,-0.171419,-0.171738,-46.8812,27,-0.0030476,10,0.00805128,-1.329,-2.42596,-0.0243203,44.4774,-0.171738,
2,0,0,1,0,52422.2,-0.174615,-0.174951,-47.0003,27,-0.00323537,10,0.00822275,-1.3279,-2.51634,-0.0234467,43.0042,-0.174951,
2,0,0,1,0,52422.2,-0.177814,-0.178182,-47.146,27,-0.00342366,10,0.00840058,-1.32655,-2.702,-0.0218357,40.1698,-0.1781821,
2,0,0,1,0,52422.2,-0.181015,-0.181354,-47.2723,27,-0.00361252,10,0.00857301,-1.32539,-2.70371,-0.0218219,40.2461,-0.181354,
2,0,0,1,0,52422.2,-0.184211,-0.18454,-47.3954,27,-0.00380188,10,0.00874637,-1.32426,-2.91768,-0.0202216,37.3954,-0.18454,
2,0,0,1,0,52422.2,-0.187419,-0.187741,-47.515,27,-0.00399173,10,0.0089205,-1.32317,-3.16353,-0.0186501,34.568,-0.187741,
2,0,0,1,0,52422.2,-0.190615,-0.190977,-47.6245,27,-0.00418202,10,0.00909518,-1.32217,-3.2198,-0.0183241,34.0504,-0.190977,
2,0,0,1,0,52422.2,-0.193811,-0.194143,-47.7144,27,-0.00437272,10,0.00926343,-1.32135,-3.70468,-0.0159258,29.6449,-0.194143,
2,0,0,1,0,52422.2,-0.197018,-0.197401,-47.8333,27,-0.00456384,10,0.00944234,-1.32027,-5.56251,-0.0106067,19.7535,-0.197401,
2,0,0,1,0,52422.2,-0.199647,-0.199993,-47.8783,27,-0.00472179,10,0.00957532,-1.31986,0.246312,0.239534,-435.235,-0.199993,
2,0,0,1,0,52422.2,-0.200134,-0.200628,-47.8151,27,-0.00475052,10,0.00959304,-1.32043,-0.0167275,-3.52714,6061,-0.200628,
2,0,0,1,1,52422.2,-0.198935,-0.199415,-45.4202,27,-0.00481971,10,0.00905744,-1.34275,-0.0605801,-0.973917,1596.1,-0.1994146,
2,0,0,1,1,52422.3,-0.195739,-0.19618,-40.4357,27,-0.00499044,10,0.00793268,-1.39324,-0.0695685,-0.848085,1329.11,-0.19618,
2,0,0,1,1,52422.3,-0.192535,-0.192933,-36.6104,27,-0.00514392,10,0.00706337,-1.4364,-0.0743822,-0.793201,1159.69,-0.1929334,
2,0,0,1,1,52422.3,-0.189339,-0.189754,-33.3632,27,-0.00528341,10,0.00633082,-1.47673,-0.0797333,-0.739967,975.659,-0.189754,
2,0,0,1,1,52422.3,-0.186137,-0.186543,-30.4935,27,-0.00541075,10,0.00568836,-1.51579,-0.0815729,-0.723279,867.642,-0.186543,
2,0,0,1,1,52422.3,-0.182935,-0.183339,-27.9067,27,-0.00552722,10,0.00511638,-1.55429,-0.0820349,-0.719206,786.885,-0.183339,
2,0,0,1,1,52422.3,-0.179739,-0.180162,-25.5293,27,-0.00563379,10,0.0045994,-1.59296,-0.0815317,-0.723645,722.714,-0.180162,
2,0,0,1,1,52422.3,-0.176532,-0.176973,-23.306,27,-0.00573119,10,0.00412454,-1.63253,-0.079989,-0.737602,671.988,-0.176973,
2,0,0,1,1,52422.3,-0.173336,-0.173744,-21.2434,27,-0.00582005,10,0.00369092,-1.67278,-0.0779584,-0.756814,627.423,-0.173744,
2,0,0,1,1,52422.3,-0.17014,-0.170543,-19.308,27,-0.00590094,10,0.00329285,-1.71426,-0.0749863,-0.78681,591.325,-0.170543,
2,0,0,1,1,52422.3,-0.166932,-0.167309,-17.4649,27,-0.00597426,10,0.00292203,-1.75783,-0.0707802,-0.833566,565.557,-0.167309,
2,0,0,1,1,52422.3,-0.163736,-0.164122,-15.7068,27,-0.00604042,10,0.00257784,-1.80391,-0.0666888,-0.884707,539.096,-0.164122,
2,0,0,1,1,52422.3,-0.160532,-0.16098,-14.0246,27,-0.0060997,10,0.00225768,-1.85311,-0.0621048,-0.950007,516.149,-0.16098,
2,0,0,1,1,52422.3,-0.157336,-0.157772,-12.4235,27,-0.00615242,10,0.00196009,-1.90576,-0.0574,-1.02787,492.809,-0.157772,
2,0,0,1,1,52422.3,-0.154139,-0.154576,-10.8931,27,-0.00619888,10,0.00168382,-1.96285,-0.0522062,-1.13013,472.553,-0.154576,
2,0,0,1,1,52422.3,-0.150935,-0.151325,-9.40037,27,-0.00623931,10,0.00142251,-2.02686,-0.0463055,-1.27415,456.96,-0.151325,
2,0,0,1,1,52422.3,-0.147739,-0.148169,-7.97078,27,-0.00627389,10,0.00118103,-2.0985,-0.0403073,-1.46375,441.121,-0.148169,
2,0,0,1,1,52422.3,-0.144532,-0.144968,-6.5724,27,-0.00630282,10,0.000952787,-2.18228,-0.0337929,-1.74593,427.931,-0.144968,
2,0,0,1,1,52422.3,-0.141335,-0.141751,-5.23549,27,-0.00632629,10,0.000742135,-2.28104,-0.0270526,-2.18094,412.64,-0.141751,
2,0,0,1,1,52422.3,-0.138139,-0.138568,-3.94138,27,-0.00634452,10,0.000546151,-2.40435,-0.01947,-3.0303,400.12,-0.138568,
2,0,0,1,1,52422.3,-0.134932,-0.135328,-2.67186,27,-0.00635759,10,0.000361577,-2.57319,-0.00959591,-6.14845,390.967,-0.135328,
2,0,0,1,1,52422.3,-0.131736,-0.132149,-1.44315,27,-0.00636569,10,0.000190711,-2.84069,-0.0204005,-2.89208,379.842,-0.132149,
2,0,0,1,1,52422.3,-0.12854,-0.128986,-0.244727,27,-0.00636893,10,3.15663e-05,-3.61132,-0.111941,-0.527063,371.691,-0.128986,
2,1,0,1,1,52422.3,-0.125333,-0.12575,0.927515,27,-0.00636743,10,-0.000116635,-3.03268,0.0371871,1.58657,362.353,-0.12575,
2,1,0,1,1,52422.3,-0.122136,-0.122606,2.05668,27,-0.00636135,10,-0.000252162,-2.68683,0.0103081,5.72365,352.369,-0.122606,
2,1,0,1,1,52422.3,-0.118932,-0.119391,3.17967,27,-0.00635078,10,-0.000379624,-2.49762,0.016819,3.50794,344.53,-0.119391,
2,1,0,1,1,52422.4,-0.115736,-0.116193,4.26304,27,-0.00633577,10,-0.000495335,-2.37028,0.0260572,2.26425,337.329,-0.116193,
2,1,0,1,1,52422.4,-0.11254,-0.112983,5.32624,27,-0.00631648,10,-0.000601774,-2.27358,0.0349028,1.69041,329.35,-0.112983,
2,1,0,1,1,52422.4,-0.109335,-0.109803,6.37562,27,-0.00629294,10,-0.000700061,-2.19548,0.0433758,1.3602,323.819,-0.1098028,
2,1,0,1,1,52422.4,-0.106139,-0.106608,7.38981,27,-0.00626529,10,-0.000787811,-2.13137,0.0518238,1.13847,318.497,-0.106608,
2,1,0,1,1,52422.4,-0.102932,-0.103413,8.40145,27,-0.00623359,10,-0.000868818,-2.07565,0.0607228,0.971628,311.247,-0.103413,
2,1,0,1,1,52422.4,-0.0997357,-0.100215,9.39292,27,-0.0061979,10,-0.000941308,-2.0272,0.0691307,0.853455,306.891,-0.1002146,
2,1,0,1,1,52422.4,-0.0965395,-0.0969952,10.362,27,-0.00615828,10,-0.00100506,-1.98456,0.0785137,0.751461,299.031,-0.0969952,
2,1,0,1,1,52422.4,-0.0933323,-0.093815,11.3158,27,-0.00611483,10,-0.00106159,-1.94632,0.0875595,0.673828,293.754,-0.093815,
2,1,0,1,1,52422.4,-0.0901362,-0.0906084,12.2304,27,-0.00606763,10,-0.00110817,-1.91256,0.0972978,0.606386,286.696,-0.0906084,
2,1,0,1,1,52422.4,-0.0869344,-0.0873932,13.1593,27,-0.00601676,10,-0.00115003,-1.88077,0.106746,0.552712,281.383,-0.0873932,
2,1,0,1,1,52422.4,-0.0837328,-0.0841155,14.0545,27,-0.00596223,10,-0.0011822,-1.85218,0.11527,0.511842,278.464,-0.0841155,
2,1,0,1,1,52422.4,-0.0805366,-0.08093,14.9414,27,-0.00590415,10,-0.00120921,-1.82561,0.126304,0.467126,270.388,-0.08093,
2,1,0,1,1,52422.4,-0.0773322,-0.0777806,15.8024,27,-0.00584257,10,-0.00122912,-1.80128,0.135512,0.435386,266.696,-0.0777806,
2,1,0,1,1,52422.4,-0.074136,-0.0745199,16.64,27,-0.0057776,10,-0.00124001,-1.77885,0.146133,0.40374,260.822,-0.07451988,
2,1,0,1,1,52422.4,-0.0709371,-0.0713471,17.4598,27,-0.00570932,10,-0.00124571,-1.75796,0.15724,0.375222,254.566,-0.07134714,
2,1,0,1,1,52422.4,-0.0677354,-0.0681426,18.2767,27,-0.00563775,10,-0.00124542,-1.7381,0.166248,0.354892,252.094,-0.0681426,
2,1,0,1,1,52422.4,-0.0645393,-0.0649539,19.0677,27,-0.00556297,10,-0.00123852,-1.7197,0.177793,0.331847,245.915,-0.0649539,
2,1,0,1,1,52422.4,-0.061332,-0.0617579,19.8573,27,-0.00548504,10,-0.00122634,-1.70208,0.18981,0.310838,239.847,-0.0617579,
2,1,0,1,1,52422.4,-0.0581359,-0.0585639,20.6034,27,-0.00540403,10,-0.00120661,-1.68606,0.200885,0.293701,235.443,-0.0585639,
2,1,0,1,1,52422.4,-0.0549398,-0.0553477,21.3455,27,-0.00532004,10,-0.00118142,-1.67069,0.212725,0.277353,230.532,-0.0553477,
2,1,0,1,1,52422.4,-0.0517325,-0.0521262,22.0879,27,-0.00523307,10,-0.00115136,-1.65585,0.223705,0.26374,226.67,-0.0521262,
2,1,0,1,1,52422.4,-0.0485364,-0.0489651,22.8064,27,-0.00514321,10,-0.00111672,-1.64194,0.235889,0.250117,221.93,-0.0489651,
2,1,0,1,1,52422.4,-0.0453347,-0.0457669,23.5041,27,-0.00505051,10,-0.00107571,-1.62886,0.249564,0.236412,216.268,-0.0457669,
2,1,0,1,1,52422.4,-0.042133,-0.0425528,24.185,27,-0.00495506,10,-0.00102914,-1.61645,0.263541,0.223874,210.869,-0.0425528,
2,1,0,1,1,52422.4,-0.0389369,-0.0393716,24.8463,27,-0.00485692,10,-0.000978238,-1.60474,0.277692,0.212466,205.65,-0.0393716,
2,1,0,1,1,52422.5,-0.0357324,-0.0361247,25.5141,27,-0.00475615,10,-0.000921687,-1.59322,0.290314,0.203228,201.887,-0.0361247,
2,1,0,1,1,52422.5,-0.0325363,-0.0329222,26.1456,27,-0.00465276,10,-0.000860771,-1.5826,0.305514,0.193117,196.59,-0.0329222,
2,1,0,1,1,52422.5,-0.0293374,-0.0297633,26.7671,27,-0.00454687,10,-0.000796676,-1.5724,0.322816,0.182767,190.563,-0.0297633,
2,1,0,1,1,52422.5,-0.0261357,-0.0265715,27.3627,27,-0.00443853,10,-0.000727066,-1.56284,0.337205,0.174968,186.566,-0.0265715,
2,1,0,1,1,52422.5,-0.0229395,-0.0233107,27.9559,27,-0.00432784,10,-0.000651673,-1.55353,0.354614,0.166378,181.221,-0.0233107,
2,1,0,1,1,52422.5,-0.0197323,-0.0201252,28.5331,27,-0.0042148,10,-0.000574235,-1.54465,0.372348,0.158454,176.112,-0.0201252,
2,1,0,1,1,52422.5,-0.0165361,-0.0169811,29.0835,27,-0.0040995,10,-0.000493871,-1.53635,0.38874,0.151772,172.005,-0.0169811,
2,1,0,1,1,52422.5,-0.01334,-0.0137257,29.625,27,-0.00398201,10,-0.000406623,-1.52834,0.412029,0.143194,165.304,-0.0137257,
2,1,0,1,1,52422.5,-0.0101328,-0.0105551,30.15,27,-0.0038624,10,-0.000318235,-1.52071,0.429721,0.137298,161.322,-0.01055507,
2,1,0,1,1,52422.5,-0.00693663,-0.00730704,30.652,27,-0.00374072,10,-0.000223975,-1.51354,0.447942,0.131714,157.292,-0.00730704,
2,1,0,1,1,52422.5,-0.00373494,-0.00414703,31.1539,27,-0.00361708,10,-0.000129196,-1.50649, , , ,-0.00414703,
2,1,0,1,1,52422.5,-0.000774628,-0.00120175,31.5949,27,-0.00350096,10,-3.79691e-05,-1.50038, , , ,-0.00120175,
2,1,0,0,1,52422.5,-0.000125413,-0.000516197,31.6965,27,-0.00347566,10,-1.63616e-05,-1.49899, , , ,-0.000516197,