File: Figure_codes/Fig_3-5/rawdata_trumpetplot_data/after 10th/20221101_1-115_003_TrumpetPlot_ParaChange_from10_every3_03_CV_C01_5.csv
mode,ox/red,error,control changes,counter inc.,time/s,control/V,Ewe/V,<I>/mA,cycle number,(Q-Qo)/C,I Range,P/W,log(|I|),Tafel slope mV/dec,alpha_eff,dI/d(E-IR),E-IR/V,
2,0,0,1,0,10790.7,2.44065e-05,-0.000268062,-0.107026,6,0.0000000E+000,10,2.86897e-08,-3.97051, , , ,-0.000268062,
2,1,0,0,0,10790.9,0.00129787,0.000932319,0.150422,6,2.93987e-05,10,1.40241e-07,-3.82269, , , ,0.000932319,
2,1,0,0,0,10791.2,0.00279606,0.00245506,0.183617,6,8.63242e-05,10,4.5079e-07,-3.73609,0.0218902,2.69527,16.9821,0.00245506,
2,1,0,1,0,10791.5,0.00429469,0.00398233,0.193972,6,0.000148052,10,7.72462e-07,-3.71226,0.0808249,0.729973,5.58956,0.00398233,
2,1,0,1,0,10791.8,0.00579255,0.0054467,0.203331,6,0.000212762,10,1.10748e-06,-3.6918,0.07302,0.807998,6.40081,0.0054467,
2,1,0,1,0,10792.1,0.00729041,0.0069763,0.213476,6,0.000280358,10,1.48927e-06,-3.67065,0.0830396,0.710505,5.88696,0.0069763,
2,1,0,1,0,10792.4,0.00878882,0.00847605,0.221589,6,0.000350669,10,1.8782e-06,-3.65445,0.105227,0.560693,4.82272,0.00847605,
2,1,0,1,0,10792.7,0.010287,0.00994577,0.228631,6,0.000423156,10,2.27391e-06,-3.64087,0.128318,0.459796,4.06516,0.00994577,
2,1,0,1,0,10793,0.0117852,0.0114982,0.233105,6,0.000497519,10,2.68029e-06,-3.63245,0.131198,0.449702,4.10474,0.0114982,
2,1,0,1,0,10793.3,0.0132836,0.0129754,0.239982,6,0.000573448,10,3.11385e-06,-3.61982,0.130077,0.453579,4.27011,0.0129754,
2,1,0,1,0,10793.6,0.0147815,0.0144323,0.245085,6,0.000651391,10,3.53715e-06,-3.61068,0.141428,0.417173,4.00427,0.0144323,
2,1,0,1,0,10793.9,0.0162793,0.0159504,0.252,6,0.000731361,10,4.01949e-06,-3.5986,0.17119,0.344647,3.36686,0.0159504,
2,1,0,0,0,10794.2,0.017778,0.0174354,0.257642,6,0.000812815,10,4.4921e-06,-3.58898,0.157597,0.374372,3.76075,0.0174354,
2,1,0,0,0,10794.5,0.0192761,0.0189709,0.263827,6,0.000895555,10,5.00504e-06,-3.57868,0.168885,0.34935,3.56465,0.0189709,
2,1,0,1,0,10794.8,0.0207747,0.0204262,0.267287,6,0.000980192,10,5.45966e-06,-3.57302,0.159047,0.37096,3.8566,0.0204262,
2,1,0,1,0,10795.1,0.0222725,0.0219474,0.27422,6,0.00106645,10,6.01842e-06,-3.5619,0.169627,0.347823,3.69641,0.0219474,
2,1,0,1,0,10795.4,0.0237704,0.0235252,0.279027,6,0.00115426,10,6.56416e-06,-3.55435,0.196119,0.300837,3.26922,0.02352515,
2,1,0,1,0,10795.7,0.0252689,0.0249781,0.282128,6,0.00124329,10,7.04702e-06,-3.54955,0.190315,0.310013,3.44233,0.0249781,
2,1,0,1,0,10796,0.0267671,0.0264669,0.287427,6,0.00133412,10,7.6073e-06,-3.54147,0.161647,0.364993,4.11107,0.02646691,
2,1,0,1,0,10796.3,0.0282657,0.0279468,0.296484,6,0.00142696,10,8.28577e-06,-3.528,0.186362,0.316589,3.64511,0.0279468,
2,1,0,1,0,10796.6,0.0297635,0.0294521,0.301449,6,0.00152136,10,8.87828e-06,-3.52079,0.212062,0.278221,3.26421,0.0294521,
2,1,0,1,0,10796.9,0.0312613,0.0309661,0.304425,6,0.00161708,10,9.42685e-06,-3.51652,0.174657,0.337805,4.03285,0.0309661,
2,1,0,0,0,10797.2,0.0327599,0.0324105,0.311846,6,0.00171445,10,1.01071e-05,-3.50606,0.186866,0.315735,3.83866,0.0324105,
2,1,0,0,0,10797.5,0.034258,0.0338951,0.317746,6,0.0018136,10,1.077e-05,-3.49792,0.191633,0.30788,3.8116,0.0338951,
2,1,0,1,0,10797.8,0.0357567,0.0354363,0.323313,6,0.00191453,10,1.1457e-05,-3.49038,0.22289,0.264704,3.31792,0.0354363,
2,1,0,1,0,10798.1,0.0372545,0.036948,0.327673,6,0.00201707,10,1.21069e-05,-3.48456,0.204003,0.289211,3.70747,0.036948,
2,1,0,1,0,10798.4,0.0387524,0.0384219,0.333759,6,0.00212088,10,1.28237e-05,-3.47657,0.174706,0.33771,4.4121,0.0384219,
2,1,0,1,0,10798.7,0.0402508,0.0399298,0.338629,6,0.00222672,10,1.35214e-05,-3.47028,0.219771,0.268461,3.5506,0.03992983,
2,1,0,1,0,10799,0.041749,0.0414292,0.344799,6,0.00233445,10,1.42848e-05,-3.46243,0.24618,0.239662,3.21736,0.0414292,
2,1,0,1,0,10799.3,0.0432472,0.0429594,0.349926,6,0.00244348,10,1.50326e-05,-3.45602,0.246398,0.23945,3.2641,0.0429594,
2,1,0,1,0,10799.6,0.0447456,0.0444051,0.355032,6,0.00255386,10,1.57652e-05,-3.44973,0.228268,0.258468,3.57195,0.0444051,
2,1,0,1,0,10799.9,0.0462435,0.0458924,0.360009,6,0.00266607,10,1.65217e-05,-3.44369,0.209764,0.281269,3.94239,0.0458924,
2,1,0,1,0,10800.2,0.0477413,0.0474318,0.365665,6,0.00277994,10,1.73442e-05,-3.43692,0.266684,0.221236,3.15303,0.0474318,
2,1,0,0,0,10800.5,0.0492399,0.0489475,0.370187,6,0.00289536,10,1.81198e-05,-3.43158,0.27361,0.215635,3.12127,0.0489475,
2,1,0,0,0,10800.8,0.0507381,0.0503939,0.374201,6,0.00301184,10,1.88575e-05,-3.4269,0.275436,0.214206,3.13963,0.05039392,
2,1,0,1,0,10801.1,0.0522367,0.0519041,0.379685,6,0.0031301,10,1.97072e-05,-3.42058,0.217066,0.271806,4.01382,0.0519041,
2,1,0,1,0,10801.4,0.0537345,0.0534087,0.385407,6,0.00325008,10,2.05841e-05,-3.41408,0.276276,0.213555,3.20586,0.0534087,
2,1,0,1,0,10801.7,0.0552323,0.0549182,0.38951,6,0.00337149,10,2.13912e-05,-3.40948,0.328857,0.179409,2.72223,0.0549182,
2,1,0,1,0,10802,0.0567309,0.0563842,0.391939,6,0.0034941,10,2.20992e-05,-3.40678,0.348249,0.169419,2.605,0.0563842,
2,1,0,1,0,10802.3,0.0582291,0.0579069,0.400417,6,0.00361805,10,2.31869e-05,-3.39749,0.281878,0.209311,3.25329,0.0579069,
2,1,0,1,0,10802.6,0.0597277,0.0594067,0.405052,6,0.00374369,10,2.40628e-05,-3.39249,0.339298,0.173888,2.74074,0.05940669,
2,1,0,1,0,10802.9,0.0612255,0.0609132,0.407239,6,0.00387073,10,2.48063e-05,-3.39015,0.407777,0.144687,2.2989,0.0609132,
2,1,0,1,0,10803.2,0.0627233,0.0624378,0.413454,6,0.00399903,10,2.58152e-05,-3.38357,0.326,0.180981,2.91745,0.0624378,
2,1,0,0,0,10803.5,0.0642218,0.0639417,0.41781,6,0.00412834,10,2.67155e-05,-3.37902,0.312854,0.188586,3.0796,0.0639417,
2,1,0,0,0,10803.8,0.06572,0.0654008,0.422202,6,0.00425931,10,2.76124e-05,-3.37448,0.320226,0.184245,3.03186,0.0654008,
2,1,0,1,0,10804.1,0.0672187,0.0669377,0.427838,6,0.0043918,10,2.86385e-05,-3.36872,0.40558,0.145471,2.41565,0.0669377,
2,1,0,1,0,10804.4,0.0687165,0.068384,0.431768,6,0.00452537,10,2.9526e-05,-3.36475,0.425627,0.138619,2.33124,0.068384,
2,1,0,1,0,10804.7,0.0702144,0.0699274,0.434663,6,0.00465965,10,3.03948e-05,-3.36185,0.365624,0.161368,2.74061,0.0699274,
2,1,0,1,0,10805,0.0717128,0.0714133,0.437948,6,0.00479561,10,3.12753e-05,-3.35858,0.311456,0.189433,3.22892,0.0714133,
2,1,0,1,0,10805.3,0.073211,0.0728523,0.441625,6,0.00493274,10,3.21734e-05,-3.35495,0.414937,0.14219,2.45526,0.0728523,
2,1,0,1,0,10805.6,0.0747092,0.074357,0.445347,6,0.00507083,10,3.31147e-05,-3.3513,0.468979,0.125805,2.1899,0.074357,
2,1,0,1,0,10805.9,0.0762076,0.0758748,0.446782,6,0.00520967,10,3.38995e-05,-3.3499,0.422025,0.139802,2.45317,0.0758748,
2,1,0,1,0,10806.2,0.0777054,0.0773418,0.452571,6,0.00534982,10,3.50027e-05,-3.34431,0.344921,0.171054,3.01864,0.07734184,
2,1,0,1,0,10806.5,0.0792033,0.0788664,0.457642,6,0.00549113,10,3.60926e-05,-3.33947,0.46914,0.125762,2.24161,0.0788664,
2,1,0,0,0,10806.8,0.0807019,0.0803822,0.459465,6,0.00563374,10,3.69328e-05,-3.33775,0.50106,0.11775,2.10229,0.08038222,
2,1,0,0,0,10807.1,0.0822001,0.0818975,0.461487,6,0.00577717,10,3.77947e-05,-3.33584,0.494201,0.119385,2.16098,0.0818975,
2,1,0,1,0,10807.4,0.0836986,0.0833897,0.467734,6,0.00592148,10,3.90041e-05,-3.33,0.40029,0.147393,2.68671,0.0833897,
2,1,0,1,0,10807.7,0.0851965,0.0848785,0.471884,6,0.00606742,10,4.00528e-05,-3.32616,0.383385,0.153892,2.83049,0.0848785,
2,1,0,1,0,10808,0.0866944,0.086388,0.476783,6,0.0062147,10,4.11883e-05,-3.32168,0.417704,0.141248,2.62487,0.086388,
2,1,0,1,0,10808.3,0.0881929,0.0878719,0.48109,6,0.00636361,10,4.22742e-05,-3.31777,0.33186,0.177786,3.3417,0.0878719,
2,1,0,1,0,10808.6,0.0896911,0.0893692,0.48591,6,0.00651355,10,4.34254e-05,-3.31344,0.298737,0.197498,3.75632,0.0893692,
2,1,0,1,0,10808.9,0.0911897,0.0908117,0.493594,6,0.00666548,10,4.48242e-05,-3.30663,0.23733,0.248599,4.77311,0.0908117,
2,1,0,1,0,10809.2,0.0926875,0.0923743,0.50044,6,0.00681977,10,4.62278e-05,-3.30065,0.253544,0.232701,4.5335,0.0923743,
2,1,0,1,0,10809.5,0.0941853,0.0938768,0.50613,6,0.00697597,10,4.75139e-05,-3.29574,0.237128,0.248811,4.93745,0.0938768,
2,1,0,0,0,10809.8,0.0956838,0.0953849,0.513794,6,0.00713387,10,4.90081e-05,-3.28921,0.218422,0.270119,5.44904,0.0953849,
2,1,0,0,0,10810.1,0.097182,0.0968684,0.522586,6,0.0072945,10,5.06221e-05,-3.28184,0.186711,0.315996,6.44428,0.0968684,
2,1,0,1,0,10810.4,0.0986807,0.0983407,0.531922,6,0.00745784,10,5.23096e-05,-3.27415,0.194786,0.302897,6.29455,0.0983407,
2,1,0,1,0,10810.7,0.100179,0.0998917,0.541653,6,0.00762378,10,5.41066e-05,-3.26628,0.223899,0.263511,5.56109,0.0998917,
2,1,0,1,0,10811,0.101676,0.101316,0.547936,6,0.0077923,10,5.55145e-05,-3.26127,0.199933,0.2951,6.34522,0.101316,
2,1,0,1,0,10811.3,0.103175,0.10283,0.560748,6,0.0079635,10,5.76617e-05,-3.25123,0.206653,0.285502,6.25246,0.10283,
2,1,0,1,0,10811.6,0.104673,0.104371,0.572419,6,0.00813801,10,5.97438e-05,-3.24229,0.189754,0.310929,6.91258,0.104371,
2,1,0,1,0,10811.9,0.106171,0.105861,0.580504,6,0.00831562,10,6.14525e-05,-3.23619,0.246104,0.239736,5.40218,0.105861,
2,1,0,1,0,10812.2,0.10767,0.107368,0.586386,6,0.00849581,10,6.29589e-05,-3.23182,0.226672,0.260288,5.97269,0.107368,
2,1,0,1,0,10812.5,0.109167,0.108853,0.596204,6,0.00867821,10,6.48985e-05,-3.22461,0.241716,0.244088,5.69147,0.108853,
2,1,0,1,0,10812.8,0.110665,0.110326,0.605089,6,0.00886357,10,6.67569e-05,-3.21818,0.24827,0.237644,5.61351,0.110326,
2,1,0,0,0,10813.1,0.112164,0.111846,0.612355,6,0.00905152,10,6.84892e-05,-3.213,0.31022,0.190188,4.53924,0.111846,
2,1,0,0,0,10813.4,0.113662,0.113332,0.621949,6,0.00924169,10,7.04868e-05,-3.20625,0.277063,0.212948,5.15487,0.113332,
2,1,0,1,0,10813.7,0.115161,0.114838,0.627518,6,0.00943356,10,7.2063e-05,-3.20237,0.300498,0.196341,4.79704,0.114838,
2,1,0,1,0,10814,0.116658,0.116313,0.635384,6,0.00962788,10,7.39035e-05,-3.19696,0.28191,0.209287,5.16795,0.116313,
2,1,0,1,0,10814.3,0.118156,0.11786,0.642158,6,0.00982462,10,7.56846e-05,-3.19236,0.321358,0.183596,4.58809,0.11786,
2,1,0,1,0,10814.6,0.119655,0.119321,0.646739,6,0.0100232,10,7.71698e-05,-3.18927,0.381791,0.154535,3.90842,0.1193214,
2,1,0,1,0,10814.9,0.121153,0.120806,0.651948,6,0.0102231,10,7.87592e-05,-3.18579,0.328461,0.179625,4.59235,0.120806,
2,1,0,1,0,10815.2,0.122652,0.122339,0.659578,6,0.0104252,10,8.06919e-05,-3.18073,0.278956,0.211503,5.44294,0.122339,
2,1,0,1,0,10815.5,0.124149,0.12389,0.667606,6,0.0106297,10,8.27094e-05,-3.17548,0.309591,0.190574,4.96888,0.12389,
2,1,0,1,0,10815.8,0.125647,0.125332,0.675543,6,0.0108362,10,8.46675e-05,-3.17035,0.368369,0.160166,4.21367,0.125332,
2,1,0,0,0,10816.1,0.127146,0.126821,0.678309,6,0.0110446,10,8.60236e-05,-3.16857,0.395322,0.149245,3.96833,0.126821,
2,1,0,0,0,10816.4,0.128644,0.128334,0.688088,6,0.0112547,10,8.8305e-05,-3.16236,0.429723,0.137298,3.68083,0.128334,
2,1,0,1,0,10816.7,0.130143,0.129828,0.694013,6,0.0114669,10,9.01026e-05,-3.15863,0.610059,0.0967119,2.60481,0.129828,
2,1,0,1,0,10817,0.131641,0.131324,0.695772,6,0.0116803,10,9.13717e-05,-3.15753,2.71413,0.0217381,0.587336,0.131324,
2,1,0,1,0,10817.3,0.133138,0.132824,0.696416,6,0.0118941,10,9.2501e-05,-3.15713,-3.21748,-0.0183373,-0.497053,0.132824,
2,1,0,1,0,10817.6,0.134637,0.134339,0.694277,6,0.0121074,10,9.32683e-05,-3.15847,-0.720154,-0.081927,-2.21736,0.134339,
2,1,0,1,0,10817.9,0.136135,0.135794,0.691333,6,0.0123202,10,9.38788e-05,-3.16031,-0.378873,-0.155725,-4.17586,0.135794,
2,1,0,1,0,10818.2,0.137633,0.137338,0.682681,6,0.0125312,10,9.37578e-05,-3.16578,-0.20708,-0.284915,-7.53341,0.137338,
2,1,0,1,0,10818.5,0.139132,0.138788,0.67021,6,0.0127391,10,9.30168e-05,-3.17379,-0.155871,-0.378517,-9.83411,0.138788,
2,1,0,1,0,10818.8,0.140629,0.140327,0.654426,6,0.0129423,10,9.18336e-05,-3.18414,-0.130856,-0.450877,-11.4624,0.140327,
2,1,0,1,0,10819.1,0.142127,0.141804,0.635246,6,0.0131407,10,9.00802e-05,-3.19706,-0.110661,-0.533161,-13.1332,0.1418038,
2,1,0,0,0,10819.4,0.143626,0.143327,0.614131,6,0.0133334,10,8.80214e-05,-3.21174,-0.0912493,-0.646581,-15.4205,0.143327,
2,1,0,0,0,10819.7,0.145124,0.144796,0.587958,6,0.0135187,10,8.51337e-05,-3.23065,-0.0806385,-0.731661,-16.8143,0.144796,
2,1,0,1,0,10820,0.146623,0.146301,0.561166,6,0.0136961,10,8.20989e-05,-3.25091,-0.0778502,-0.757866,-16.6678,0.146301,
2,1,0,1,0,10820.3,0.14812,0.147815,0.539135,6,0.0138662,10,7.9692e-05,-3.2683,-0.0774753,-0.761533,-15.965,0.147815,
2,1,0,1,0,10820.6,0.149618,0.149284,0.513509,6,0.014029,10,7.66587e-05,-3.28945,-0.0734255,-0.803535,-16.1259,0.149284,
2,1,0,1,0,10820.9,0.151117,0.150812,0.490068,6,0.0141847,10,7.39082e-05,-3.30974,-0.0732287,-0.805695,-15.422,0.1508123,
2,1,0,1,0,10821.2,0.152615,0.152309,0.466599,6,0.0143333,10,7.1067e-05,-3.33106,-0.0797172,-0.740117,-13.5833,0.152309,
2,1,0,1,0,10821.5,0.154114,0.153749,0.449876,6,0.0144758,10,6.9168e-05,-3.34691,-0.0899107,-0.656207,-11.5777,0.153749,
2,1,0,1,0,10821.8,0.155612,0.155307,0.433504,6,0.0146132,10,6.73264e-05,-3.36301,-0.0972815,-0.606487,-10.283,0.155307,
2,1,0,1,0,10822.1,0.157109,0.156797,0.417265,6,0.0147459,10,6.54259e-05,-3.37959,-0.0968791,-0.609007,-9.949,0.156797,
2,1,0,0,0,10822.4,0.158608,0.158314,0.405726,6,0.0148744,10,6.42319e-05,-3.39177,-0.1223,-0.482421,-7.66271,0.158314,
2,1,0,0,0,10822.7,0.160106,0.159806,0.393353,6,0.0149989,10,6.28599e-05,-3.40522,-0.130908,-0.450697,-6.95344,0.159806,
2,1,0,1,0,10823,0.161605,0.161249,0.383659,6,0.0151205,10,6.18647e-05,-3.41605,-0.136641,-0.431787,-6.473,0.161249,
2,1,0,1,0,10823.3,0.163102,0.162786,0.375957,6,0.0152392,10,6.12008e-05,-3.42486,-0.157169,-0.375393,-5.50012,0.162786,
2,1,0,1,0,10823.6,0.1646,0.164278,0.367946,6,0.0153553,10,6.04456e-05,-3.43422,-0.165151,-0.357249,-5.12344,0.164278,
2,1,0,1,0,10823.9,0.166099,0.165803,0.360073,6,0.015469,10,5.97012e-05,-3.44361,-0.186006,-0.317194,-4.45916,0.165803,
2,1,0,1,0,10824.2,0.167597,0.167273,0.353798,6,0.0155808,10,5.91808e-05,-3.45124,-0.240446,-0.245377,-3.38181,0.167273,
2,1,0,1,0,10824.5,0.169095,0.168747,0.346554,6,0.0156909,10,5.84799e-05,-3.46023,-0.229063,-0.257571,-3.50332,0.168747,
2,1,0,1,0,10824.8,0.170594,0.170264,0.3423,6,0.0157993,10,5.82813e-05,-3.46559,-0.220159,-0.267989,-3.59923,0.170264,
2,1,0,1,0,10825.1,0.172091,0.171799,0.337161,6,0.015906,10,5.79238e-05,-3.47216,-0.287543,-0.205187,-2.70786,0.171799,
2,1,0,1,0,10825.4,0.173589,0.173296,0.334439,6,0.0160116,10,5.79568e-05,-3.47568,-0.324143,-0.182018,-2.37406,0.173296,
2,1,0,0,0,10825.7,0.175088,0.174774,0.331158,6,0.016116,10,5.7878e-05,-3.47996,-0.312889,-0.188565,-2.42955,0.174774,
2,1,0,0,0,10826,0.176586,0.176294,0.327257,6,0.0162194,10,5.76933e-05,-3.48511,-0.299477,-0.19701,-2.50765,0.176294,
2,1,0,1,0,10826.3,0.178085,0.177761,0.321489,6,0.0163218,10,5.71481e-05,-3.49283,-0.343367,-0.171828,-2.16889,0.177761,
2,1,0,1,0,10826.6,0.179582,0.179248,0.320347,6,0.0164231,10,5.74216e-05,-3.49438,-0.469817,-0.125581,-1.57403,0.179248,
2,1,0,1,0,10826.9,0.18108,0.180733,0.31842,6,0.0165238,10,5.75492e-05,-3.497,-0.450161,-0.131064,-1.63204,0.180733,
2,1,0,1,0,10827.2,0.182579,0.182276,0.316382,6,0.0166239,10,5.76688e-05,-3.49979,-0.377857,-0.156144,-1.92194,0.182276,
2,1,0,1,0,10827.5,0.184077,0.183793,0.312654,6,0.0167231,10,5.74637e-05,-3.50494,-0.467365,-0.12624,-1.54798,0.183793,
2,1,0,1,0,10827.8,0.185576,0.185232,0.311913,6,0.0168215,10,5.77763e-05,-3.50597,-0.584644,-0.100916,-1.22785,0.185232,
2,1,0,1,0,10828.1,0.187074,0.186771,0.31126,6,0.0169195,10,5.81343e-05,-3.50688,-0.594533,-0.0992375,-1.19965,0.186771,
2,1,0,1,0,10828.4,0.188571,0.188243,0.308645,6,0.017017,10,5.81004e-05,-3.51054,-0.698743,-0.0844374,-1.01418,0.188243,
2,1,0,0,0,10828.7,0.19007,0.189731,0.307141,6,0.017114,10,5.82742e-05,-3.51266,-0.594372,-0.0992644,-1.18413,0.189731,
2,1,0,0,0,10829,0.191568,0.191247,0.30463,6,0.0172103,10,5.82596e-05,-3.51623,-0.578831,-0.10193,-1.21504,0.191247,
2,1,0,1,0,10829.3,0.193067,0.192788,0.30295,6,0.0173063,10,5.84051e-05,-3.51863,-1.29732,-0.0454785,-0.536756,0.192788,
2,1,0,1,0,10829.6,0.194564,0.194258,0.301019,6,0.0174019,10,5.84754e-05,-3.52141,-0.799743,-0.0737737,-0.870746,0.194258,
2,1,0,1,0,10829.9,0.196062,0.195748,0.300611,6,0.0174971,10,5.8844e-05,-3.52199,-0.600475,-0.0982556,-1.15748,0.195748,
2,1,0,1,0,10830.2,0.197561,0.197253,0.298011,6,0.0175918,10,5.87835e-05,-3.52577,-0.892639,-0.0660962,-0.771074,0.1972528,
2,1,0,1,0,10830.5,0.199059,0.198769,0.298622,6,0.0176861,10,5.93569e-05,-3.52488,-0.787019,-0.0749664,-0.872959,0.198769,
2,1,0,1,0,10830.8,0.200557,0.200255,0.297462,6,0.0177802,10,5.95681e-05,-3.52657,-0.699115,-0.0843924,-0.978364,0.200255,
2,1,0,1,0,10831.1,0.202056,0.201757,0.295689,6,0.017874,10,5.96572e-05,-3.52917,-0.512363,-0.115153,-1.32565,0.201757,
2,1,0,1,0,10831.4,0.203553,0.203234,0.293405,6,0.0179673,10,5.963e-05,-3.53253,-0.884679,-0.0666908,-0.767743,0.203234,
2,1,0,1,0,10831.7,0.205051,0.204752,0.292435,6,0.0180601,10,5.98765e-05,-3.53397,40.4366,0.00145907,0.0168441,0.2047517,
2,1,0,0,0,10832,0.20655,0.206239,0.29239,6,0.0181529,10,6.03021e-05,-3.53404,-1.3653,-0.043214,-0.493105,0.2062387,
2,1,0,0,0,10832.3,0.208048,0.207768,0.290415,6,0.0182457,10,6.0339e-05,-3.53698,-0.638591,-0.0923909,-1.05018,0.207768,
2,1,0,1,0,10832.6,0.209547,0.209208,0.290239,6,0.0183379,10,6.07204e-05,-3.53724,-1.2294,-0.0479907,-0.544062,0.209208,
2,1,0,1,0,10832.9,0.211044,0.210745,0.289372,6,0.0184295,10,6.09837e-05,-3.53854,-2.08991,-0.0282309,-0.318967,0.210745,
2,1,0,1,0,10833.2,0.212542,0.212219,0.28918,6,0.0185211,10,6.13695e-05,-3.53883,-2.40474,-0.0245349,-0.275724,0.212219,
2,1,0,1,0,10833.5,0.214041,0.213718,0.287409,6,0.0186125,10,6.14244e-05,-3.5415,-1.01065,-0.0583782,-0.65685,0.213718,
2,1,0,1,0,10833.8,0.215539,0.21523,0.288154,6,0.0187036,10,6.20194e-05,-3.54038,-0.934838,-0.0631125,-0.708316,0.2152299,
2,1,0,1,0,10834.1,0.217038,0.2167,0.286791,6,0.0187944,10,6.21477e-05,-3.54243,-1.71738,-0.0343546,-0.385212,0.2167,
2,1,0,1,0,10834.4,0.218535,0.218244,0.284739,6,0.0188849,10,6.21428e-05,-3.54555,3.4631,0.0170368,0.189563,0.218244,
2,1,0,1,0,10834.7,0.220033,0.219724,0.285004,6,0.0189755,10,6.26222e-05,-3.54515,-4.85042,-0.0121639,-0.135514,0.219724,
2,1,0,0,0,10835,0.221532,0.221197,0.284607,6,0.0190659,10,6.29542e-05,-3.54575,-1.32663,-0.0444737,-0.495571,0.221197,
2,1,0,0,0,10835.3,0.22303,0.222724,0.282907,6,0.0191559,10,6.30101e-05,-3.54836,-1.71298,-0.0344429,-0.382625,0.222724,
2,1,0,1,0,10835.6,0.224529,0.224203,0.283695,6,0.0192458,10,6.36053e-05,-3.54715,-2.76263,-0.0213565,-0.235691,0.224203,
2,1,0,1,0,10835.9,0.226026,0.225698,0.283652,6,0.0193357,10,6.40197e-05,-3.54721,-1.37456,-0.0429227,-0.473925,0.225698,
2,1,0,1,0,10836.2,0.227524,0.227228,0.282117,6,0.0194253,10,6.4105e-05,-3.54957,-0.712099,-0.0828537,-0.913077,0.227228,
2,1,0,1,0,10836.5,0.229023,0.228737,0.281707,6,0.0195146,10,6.44369e-05,-3.5502,-1.42978,-0.0412652,-0.455059,0.228737,
2,1,0,1,0,10836.8,0.230521,0.23023,0.280632,6,0.0196037,10,6.461e-05,-3.55186,-1.44702,-0.0407735,-0.447631,0.23023,
2,1,0,1,0,10837.1,0.232019,0.231729,0.280166,6,0.0196927,10,6.49224e-05,-3.55259,-1.40321,-0.0420465,-0.460275,0.231729,
2,1,0,1,0,10837.4,0.233518,0.233182,0.280083,6,0.0197817,10,6.53103e-05,-3.55271,-0.905729,-0.0651409,-0.709808,0.233182,
2,1,0,1,0,10837.7,0.235015,0.234697,0.279721,6,0.0198705,10,6.56495e-05,-3.55328,-1.35965,-0.0433935,-0.472732,0.234697,
2,1,0,1,0,10838,0.236513,0.23624,0.280018,6,0.019959,10,6.61516e-05,-3.55281,6.83417,0.00863309,0.0940616,0.2362404,
2,1,0,0,0,10838.3,0.238012,0.237733,0.278758,6,0.0200474,10,6.62699e-05,-3.55477,-2.1751,-0.0271252,-0.294383,0.237733,
2,1,0,0,0,10838.6,0.23951,0.23918,0.279124,6,0.0201358,10,6.6761e-05,-3.5542,3.81761,0.0154547,0.167891,0.23918,
2,1,0,1,0,10838.9,0.241009,0.240735,0.277398,6,0.0202241,10,6.67795e-05,-3.5569,-3.28666,-0.0179514,-0.194406,0.240735,
2,1,0,1,0,10839.2,0.242506,0.24223,0.276825,6,0.020312,10,6.70552e-05,-3.5578,-2.65727,-0.0222032,-0.240768,0.2422298,
2,1,0,1,0,10839.5,0.244004,0.243682,0.276241,6,0.0203999,10,6.73151e-05,-3.55871,1.38661,0.0425497,0.458329,0.243682,
2,1,0,1,0,10839.8,0.245503,0.245272,0.276571,6,0.0204879,10,6.78353e-05,-3.55819,-3.58698,-0.0164484,-0.177615,0.245272,
2,1,0,1,0,10840.1,0.247001,0.24671,0.276055,6,0.0205755,10,6.81055e-05,-3.559,-0.699858,-0.0843029,-0.907831,0.24671,
2,1,0,1,0,10840.4,0.2485,0.248153,0.274452,6,0.020663,10,6.81061e-05,-3.56153,-2.25733,-0.0261371,-0.281024,0.248153,
2,1,0,1,0,10840.7,0.249997,0.249675,0.27527,6,0.0207503,10,6.8728e-05,-3.56024,-5.34662,-0.011035,-0.118531,0.249675,
2,1,0,1,0,10841,0.251495,0.251211,0.274942,6,0.0208376,10,6.90685e-05,-3.56076,-5.19517,-0.0113567,-0.121761,0.251211,
2,1,0,0,0,10841.3,0.252994,0.252668,0.274229,6,0.0209247,10,6.92888e-05,-3.56189,-1.28105,-0.0460559,-0.492676,0.252668,
2,1,0,0,0,10841.6,0.254492,0.254196,0.274046,6,0.0210118,10,6.96614e-05,-3.56218,-1.03516,-0.0569963,-0.610344,0.2541956,
2,1,0,1,0,10841.9,0.255991,0.255729,0.273717,6,0.0210985,10,6.99974e-05,-3.5627,10.825,0.00545032,0.0584202,0.255729,
2,1,0,1,0,10842.2,0.257488,0.257141,0.272959,6,0.0211853,10,7.0189e-05,-3.5639,-3.64439,-0.0161893,-0.172806,0.257141,
2,1,0,1,0,10842.5,0.258986,0.258707,0.274174,6,0.0212721,10,7.09309e-05,-3.56197,-1.67141,-0.0352996,-0.375756,0.258707,
2,1,0,1,0,10842.8,0.260485,0.260209,0.273415,6,0.0213587,10,7.1145e-05,-3.56318,-1.37831,-0.042806,-0.454486,0.260209,
2,1,0,1,0,10843.1,0.261983,0.261606,0.272408,6,0.021445,10,7.12634e-05,-3.56478,-1.19663,-0.0493052,-0.522509,0.261606,
2,1,0,1,0,10843.4,0.263481,0.263144,0.271934,6,0.0215313,10,7.15579e-05,-3.56554,73.2742,0.000805195,0.00853284,0.263144,
2,1,0,1,0,10843.7,0.26498,0.264676,0.271828,6,0.0216176,10,7.19462e-05,-3.56571,-2.13736,-0.0276042,-0.292418,0.264676,
2,1,0,1,0,10844,0.266477,0.266161,0.26981,6,0.0217038,10,7.18128e-05,-3.56894,-1.15518,-0.0510742,-0.540951,0.266161,
2,1,0,0,0,10844.3,0.267976,0.267668,0.26893,6,0.0217895,10,7.1984e-05,-3.57036,-1.19125,-0.0495277,-0.523992,0.267668,
2,1,0,0,0,10844.6,0.269474,0.269189,0.26978,6,0.0218753,10,7.26216e-05,-3.56899,2.42318,0.0243481,0.255781,0.269189,
2,1,0,0,0,10844.9,0.270972,0.270672,0.271008,6,0.0219611,10,7.33542e-05,-3.56702,-1.93704,-0.0304588,-0.320016,0.270672,
2,1,0,1,0,10845.2,0.27247,0.272214,0.270039,6,0.0220469,10,7.35084e-05,-3.56857,-3.00747,-0.0196178,-0.20551,0.2722142,
2,1,0,1,0,10845.5,0.273968,0.273678,0.26815,6,0.0221324,10,7.33869e-05,-3.57162,-2.07162,-0.0284802,-0.298434,0.2736783,
2,1,0,1,0,10845.8,0.275466,0.275201,0.268326,6,0.0222178,10,7.38434e-05,-3.57134,-1.56557,-0.0376861,-0.394746,0.275201,
2,1,0,1,0,10846.1,0.276965,0.276674,0.267253,6,0.0223031,10,7.3942e-05,-3.57308,-0.85383,-0.0691004,-0.723595,0.276674,
2,1,0,1,0,10846.4,0.278463,0.278159,0.267533,6,0.0223883,10,7.44166e-05,-3.57262,-0.818452,-0.0720873,-0.750472,0.278159,
2,1,0,1,0,10846.7,0.279962,0.279644,0.267694,6,0.0224735,10,7.48587e-05,-3.57236,-2.37069,-0.0248873,-0.259828,0.279644,
2,1,0,1,0,10847,0.281459,0.281188,0.266695,6,0.0225584,10,7.49914e-05,-3.57399,-2.78831,-0.0211598,-0.220863,0.281188,
2,1,0,1,0,10847.3,0.282957,0.282671,0.267087,6,0.0226431,10,7.54979e-05,-3.57335,-1.42778,-0.0413229,-0.429342,0.282671,
2,1,0,0,0,10847.6,0.284456,0.284151,0.266685,6,0.022728,10,7.57788e-05,-3.574,-1.19535,-0.0493581,-0.511486,0.284151,
2,1,0,0,0,10847.9,0.285954,0.285644,0.265972,6,0.0228126,10,7.59734e-05,-3.57516,-21.4488,-0.00275073,-0.0284874,0.285644,
2,1,0,0,0,10848.2,0.287452,0.287125,0.265698,6,0.0228969,10,7.62887e-05,-3.57561,-7.07824,-0.0083354,-0.0865433,0.287125,
2,1,0,1,0,10848.5,0.28895,0.288676,0.265309,6,0.0229814,10,7.65884e-05,-3.57625,3.89105,0.015163,0.156744,0.288676,
2,1,0,1,0,10848.8,0.290448,0.290143,0.264411,6,0.0230657,10,7.67171e-05,-3.57772,-4.73031,-0.0124728,-0.128984,0.290143,
2,1,0,1,0,10849.1,0.291947,0.291639,0.264756,6,0.0231498,10,7.72131e-05,-3.57715,-2.51244,-0.0234831,-0.243003,0.291639,
2,1,0,1,0,10849.4,0.293445,0.293162,0.264553,6,0.0232337,10,7.7557e-05,-3.57749,5.49779,0.0107316,0.110704,0.293162,
2,1,0,1,0,10849.7,0.294943,0.294595,0.264998,6,0.0233177,10,7.80672e-05,-3.57676,-3.41856,-0.0172587,-0.177723,0.294595,
2,1,0,1,0,10850,0.296442,0.296118,0.264626,6,0.0234016,10,7.83605e-05,-3.57737,3.6865,0.0160043,0.164828,0.296118,
2,1,0,1,0,10850.3,0.297939,0.297661,0.264398,6,0.0234855,10,7.87008e-05,-3.57774,70.6514,0.000835087,0.0085903,0.297661,
2,1,0,1,0,10850.5,0.299437,0.299157,0.262336,6,0.0235692,10,7.84794e-05,-3.58114,-0.00221143,-26.6796,-125.63,0.299157,
2,1,0,1,0,10850.7,0.299737,0.299441,0.0935486,6,0.0236066,10,2.80123e-05,-4.02896,0.000848807,69.5094,210.642,0.299441,
2,1,0,1,0,10851,0.29824,0.297962,0.0180455,6,0.0236137,10,5.37687e-06,-4.74363,0.00227511,25.9329,68.6509,0.297962,
2,1,0,0,0,10851.3,0.296741,0.296441,0.000853127,6,0.0236113,10,2.52902e-07,-6.06899,0.0155686,3.78969,10.4341,0.296441,
2,1,0,0,0,10851.6,0.295243,0.29494,-0.0112815,6,0.0236046,10,-3.32737e-06,-4.94763,-0.00511331,-11.5385,6.7082,0.29494,
2,0,0,1,0,10851.9,0.293744,0.293427,-0.0200894,6,0.0235951,10,-5.89477e-06,-4.69703,-0.00699419,-8.43557,5.44405,0.293427,
2,0,0,1,0,10852.2,0.292246,0.291975,-0.0273671,6,0.0235833,10,-7.9905e-06,-4.56277,-0.0125054,-4.71796,4.61801,0.291975,
2,0,0,1,0,10852.5,0.290749,0.290448,-0.0340632,6,0.0235693,10,-9.8936e-06,-4.46771,-0.0190113,-3.10342,3.9581,0.290448,
2,0,0,1,0,10852.8,0.28925,0.288973,-0.03966,6,0.0235534,10,-1.14607e-05,-4.40165,-0.0231092,-2.5531,3.82568,0.288973,
2,0,0,1,0,10853.1,0.287752,0.287438,-0.0440475,6,0.023536,10,-1.26609e-05,-4.35608,-0.0308243,-1.91407,3.29981,0.287438,
2,0,0,1,0,10853.4,0.286253,0.285987,-0.0484061,6,0.0235172,10,-1.38435e-05,-4.3151,-0.0420712,-1.40238,2.68251,0.285987,
2,0,0,1,0,10853.7,0.284755,0.284467,-0.053818,6,0.0234969,10,-1.53094e-05,-4.26907,-0.0384023,-1.53637,3.12608,0.284467,
2,0,0,1,0,10854,0.283257,0.282958,-0.0591415,6,0.0234753,10,-1.67346e-05,-4.22811,-0.0509718,-1.1575,2.57116,0.2829583,
2,0,0,0,0,10854.3,0.281759,0.281451,-0.0606049,6,0.0234526,10,-1.70573e-05,-4.21749,-0.0532497,-1.10799,2.64758,0.2814512,
2,0,0,0,0,10854.6,0.280261,0.279955,-0.0631285,6,0.0234289,10,-1.76731e-05,-4.19977,-0.0620782,-0.950415,2.38621,0.279955,
2,0,0,0,0,10854.9,0.278763,0.27846,-0.0694981,6,0.023404,10,-1.93524e-05,-4.15803,-0.0675121,-0.873917,2.33439,0.27846,
2,0,0,1,0,10855.2,0.277264,0.276944,-0.0723151,6,0.023378,10,-2.00273e-05,-4.14077,-0.066465,-0.887685,2.48965,0.276944,
2,0,0,1,0,10855.5,0.275766,0.275452,-0.0756629,6,0.0233509,10,-2.08415e-05,-4.12112,-0.0999504,-0.590293,1.73563,0.275452,
2,0,0,1,0,10855.8,0.274269,0.273961,-0.0772115,6,0.023323,10,-2.11529e-05,-4.11232,-0.0923669,-0.638757,1.96092,0.273961,
2,0,0,1,0,10856.1,0.27277,0.272429,-0.081379,6,0.0232942,10,-2.217e-05,-4.08949,-0.082572,-0.714528,2.28961,0.272429,
2,0,0,1,0,10856.4,0.271272,0.270983,-0.0839821,6,0.0232645,10,-2.27577e-05,-4.07581,-0.100786,-0.585401,1.94115,0.270983,
2,0,0,1,0,10856.7,0.269773,0.269448,-0.0877802,6,0.0232338,10,-2.36522e-05,-4.0566,-0.0958062,-0.615826,2.07736,0.269448,
2,0,0,1,0,10857,0.268275,0.267947,-0.0902896,6,0.0232022,10,-2.41928e-05,-4.04436,-0.110898,-0.532022,1.85774,0.267947,
2,0,0,1,0,10857.3,0.266778,0.26646,-0.0919642,6,0.0231701,10,-2.45048e-05,-4.03638,-0.115018,-0.512965,1.84297,0.2664597,
2,0,0,0,0,10857.6,0.265279,0.264941,-0.0955793,6,0.023137,10,-2.53229e-05,-4.01964,-0.108641,-0.543075,1.99794,0.264941,
2,0,0,0,0,10857.9,0.263781,0.26349,-0.0973211,6,0.0231031,10,-2.56431e-05,-4.01179,-0.121493,-0.485625,1.85742,0.26349,
2,0,0,1,0,10858.2,0.262282,0.261992,-0.0995442,6,0.0230685,10,-2.60798e-05,-4.00198,-0.144626,-0.407949,1.59072,0.261992,
2,0,0,1,0,10858.5,0.260784,0.260497,-0.100852,6,0.0230334,10,-2.62716e-05,-3.99632,-0.133189,-0.44298,1.77133,0.260497,
2,0,0,1,0,10858.8,0.259286,0.258998,-0.10431,6,0.0229975,10,-2.70162e-05,-3.98167,-0.116456,-0.506627,2.06063,0.258998,
2,0,0,1,0,10859.1,0.257788,0.257467,-0.107231,6,0.0229608,10,-2.76085e-05,-3.96968,-0.17393,-0.339216,1.40581,0.257467,
2,0,0,1,0,10859.4,0.25629,0.256016,-0.10917,6,0.0229235,10,-2.79493e-05,-3.9619,-0.183579,-0.321388,1.35861,0.256016,
2,0,0,1,0,10859.7,0.254791,0.254497,-0.1103,6,0.0228855,10,-2.80711e-05,-3.95742,-0.21308,-0.276891,1.19161,0.254497,
2,0,0,1,0,10860,0.253293,0.252996,-0.114239,6,0.0228471,10,-2.8902e-05,-3.94219,-0.17718,-0.332994,1.46868,0.252996,
2,0,0,1,0,10860.3,0.251795,0.251468,-0.115469,6,0.0228078,10,-2.90367e-05,-3.93754,-0.171334,-0.344357,1.55468,0.251468,
2,0,0,0,0,10860.6,0.250297,0.249975,-0.116219,6,0.022768,10,-2.9052e-05,-3.93472,-0.291192,-0.202615,0.930187,0.249975,
2,0,0,0,0,10860.9,0.248799,0.248491,-0.119983,6,0.0227275,10,-2.98146e-05,-3.92088,-0.189153,-0.311916,1.46454,0.248491,
2,0,0,0,0,10861.2,0.247301,0.246977,-0.120957,6,0.0226865,10,-2.98738e-05,-3.91737,-0.146507,-0.40271,1.92233,0.2469774,
2,0,0,1,0,10861.5,0.245802,0.24549,-0.12368,6,0.0226449,10,-3.03622e-05,-3.9077,-0.200592,-0.29413,1.40311,0.24549,
2,0,0,1,0,10861.8,0.244304,0.243979,-0.126413,6,0.0226025,10,-3.08421e-05,-3.89821,-0.206131,-0.286226,1.40607,0.2439788,
2,0,0,1,0,10862.1,0.242806,0.242477,-0.128235,6,0.0225596,10,-3.1094e-05,-3.89199,-0.199069,-0.29638,1.47946,0.242477,
2,0,0,1,0,10862.4,0.241308,0.240946,-0.130663,6,0.0225162,10,-3.14826e-05,-3.88385,-0.281724,-0.209425,1.06411,0.2409458,
2,0,0,1,0,10862.7,0.23981,0.239495,-0.131474,6,0.0224722,10,-3.14874e-05,-3.88116,-0.172778,-0.341479,1.75294,0.239495,
2,0,0,1,0,10863,0.238311,0.238017,-0.134273,6,0.0224275,10,-3.19592e-05,-3.87201,-0.284776,-0.207181,1.08118,0.238017,
2,0,0,1,0,10863.3,0.236813,0.23652,-0.135806,6,0.0223823,10,-3.21209e-05,-3.86708,-0.25343,-0.232806,1.23031,0.23652,
2,0,0,1,0,10863.6,0.235316,0.23499,-0.136873,6,0.0223367,10,-3.21637e-05,-3.86368,-0.266261,-0.221587,1.18727,0.23499,
2,0,0,0,0,10863.9,0.233817,0.2335,-0.13827,6,0.0222905,10,-3.2286e-05,-3.85927,-0.367917,-0.160362,0.868966,0.2334996,
2,0,0,0,0,10864.2,0.232319,0.232029,-0.14155,6,0.0222436,10,-3.28437e-05,-3.84909,-0.240709,-0.245109,1.34239,0.232029,
2,0,0,1,0,10864.5,0.23082,0.230518,-0.143807,6,0.0221962,10,-3.31501e-05,-3.84222,-0.34643,-0.170309,0.94039,0.230518,
2,0,0,1,0,10864.8,0.229322,0.228999,-0.143141,6,0.0221485,10,-3.27792e-05,-3.84424,-0.26361,-0.223815,1.25295,0.2289992,
2,0,0,1,0,10865.1,0.227825,0.227534,-0.146491,6,0.0221002,10,-3.33316e-05,-3.83419,-0.203346,-0.290146,1.65172,0.227534,
2,0,0,1,0,10865.4,0.226326,0.226013,-0.147369,6,0.0220513,10,-3.33073e-05,-3.83159,-0.349455,-0.168834,0.979359,0.226013,
2,0,0,1,0,10865.7,0.224828,0.224501,-0.149245,6,0.0220017,10,-3.35055e-05,-3.8261,-0.393043,-0.150111,0.873617,0.224501,
2,0,0,1,0,10866,0.223329,0.222992,-0.151312,6,0.0219517,10,-3.37414e-05,-3.82013,-0.277278,-0.212783,1.25843,0.222992,
2,0,0,1,0,10866.3,0.221831,0.221512,-0.153583,6,0.0219013,10,-3.40205e-05,-3.81366,-0.23686,-0.249092,1.48574,0.221512,
2,0,0,1,0,10866.6,0.220333,0.220028,-0.154684,6,0.0218502,10,-3.40348e-05,-3.81056,-0.266476,-0.221408,1.3363,0.220028,
2,0,0,0,0,10866.9,0.218835,0.218533,-0.156076,6,0.0217983,10,-3.41078e-05,-3.80666,-0.2485,-0.237425,1.4539,0.218533,
2,0,0,0,0,10867.2,0.217337,0.217045,-0.158317,6,0.021746,10,-3.43619e-05,-3.80047,-0.343472,-0.171775,1.06472,0.217045,
2,0,0,0,0,10867.5,0.215839,0.215569,-0.16002,6,0.0216933,10,-3.44953e-05,-3.79583,-0.311204,-0.189586,1.18631,0.2155692,
2,0,0,1,0,10867.8,0.21434,0.214043,-0.161609,6,0.0216399,10,-3.45913e-05,-3.79153,-0.193169,-0.305433,1.92748,0.214043,
2,0,0,1,0,10868.1,0.212842,0.212474,-0.163276,6,0.0215859,10,-3.46918e-05,-3.78708,-0.30016,-0.196562,1.26215,0.212474,
2,0,0,1,0,10868.4,0.211344,0.211076,-0.166088,6,0.0215313,10,-3.50571e-05,-3.77966,-0.332533,-0.177426,1.1493,0.211076,
2,0,0,1,0,10868.7,0.209846,0.209533,-0.166138,6,0.0214763,10,-3.48114e-05,-3.77953,-0.326071,-0.180942,1.1862,0.209533,
2,0,0,1,0,10869,0.208348,0.208055,-0.169926,6,0.0214208,10,-3.5354e-05,-3.76974,-0.259133,-0.227682,1.51021,0.208055,
2,0,0,1,0,10869.3,0.206849,0.206456,-0.174643,6,0.0213644,10,-3.6056e-05,-3.75785,-0.382802,-0.154127,1.03022,0.206456,
2,0,0,1,0,10869.6,0.205351,0.205083,-0.173188,6,0.0213073,10,-3.55178e-05,-3.76148,-0.363974,-0.162099,1.09435,0.205083,
2,0,0,1,0,10869.9,0.203854,0.203532,-0.173859,6,0.0212501,10,-3.53859e-05,-3.7598,-0.468193,-0.126016,0.867122,0.203532,
2,0,0,0,0,10870.2,0.202355,0.202058,-0.176015,6,0.0211922,10,-3.55652e-05,-3.75445,-0.273181,-0.215974,1.50164,0.202058,
2,0,0,0,0,10870.5,0.200857,0.20051,-0.179787,6,0.0211336,10,-3.60492e-05,-3.74524,-0.258377,-0.228349,1.60142,0.20051,
2,0,0,1,0,10870.8,0.199358,0.199031,-0.181558,6,0.0210744,10,-3.61357e-05,-3.74098,-0.383578,-0.153815,1.08391,0.199031,
2,0,0,1,0,10871.1,0.19786,0.197507,-0.184141,6,0.0210145,10,-3.63692e-05,-3.73485,-0.306084,-0.192758,1.38507,0.197507,
2,0,0,1,0,10871.4,0.196363,0.19603,-0.186438,6,0.0209542,10,-3.65475e-05,-3.72947,-0.250693,-0.235347,1.70378,0.19603,
2,0,0,1,0,10871.7,0.194864,0.194536,-0.189954,6,0.020893,10,-3.69528e-05,-3.72135,-0.226202,-0.260829,1.9211,0.194536,
2,0,0,1,0,10872,0.193366,0.193079,-0.190807,6,0.0208309,10,-3.68409e-05,-3.7194,-0.233778,-0.252376,1.88108,0.193079,
2,0,0,1,0,10872.3,0.191867,0.191525,-0.193253,6,0.0207682,10,-3.70128e-05,-3.71387,-0.315698,-0.186888,1.41386,0.191525,
2,0,0,1,0,10872.6,0.190369,0.190052,-0.195443,6,0.0207049,10,-3.71443e-05,-3.70898,-0.287355,-0.205321,1.56608,0.190052,
2,0,0,1,0,10872.9,0.188871,0.188584,-0.198039,6,0.0206408,10,-3.73471e-05,-3.70325,-0.194368,-0.303548,2.3445,0.188584,
2,0,0,0,0,10873.2,0.187373,0.187093,-0.200201,6,0.0205757,10,-3.74562e-05,-3.69853,-0.276056,-0.213725,1.68055,0.187093,
2,0,0,0,0,10873.5,0.185875,0.185547,-0.204232,6,0.0205099,10,-3.78946e-05,-3.68988,-0.256892,-0.229668,1.82551,0.185547,
2,0,0,0,0,10873.8,0.184377,0.184051,-0.204974,6,0.0204433,10,-3.77257e-05,-3.6883,-0.229887,-0.256647,2.06777,0.184051,
2,0,0,1,0,10874.1,0.182878,0.182588,-0.209505,6,0.0203758,10,-3.82531e-05,-3.67881,-0.240552,-0.245269,2.00201,0.1825882,
2,0,0,1,0,10874.4,0.181381,0.181092,-0.214642,6,0.0203073,10,-3.887e-05,-3.66829,-0.228592,-0.258102,2.1452,0.181092,
2,0,0,1,0,10874.7,0.179882,0.179543,-0.215003,6,0.0202378,10,-3.86023e-05,-3.66756,-0.287114,-0.205493,1.72556,0.179543,
2,0,0,1,0,10875,0.178384,0.178035,-0.21907,6,0.0201673,10,-3.90021e-05,-3.65942,-0.233029,-0.253187,2.17264,0.178035,
2,0,0,1,0,10875.3,0.176886,0.176587,-0.223454,6,0.0200961,10,-3.9459e-05,-3.65081,-0.1938,-0.304438,2.66043,0.176587,
2,0,0,1,0,10875.6,0.175387,0.175079,-0.227668,6,0.0200234,10,-3.98599e-05,-3.6427,-0.1828,-0.322757,2.85521,0.175079,
2,0,0,1,0,10875.9,0.173889,0.173598,-0.231778,6,0.0199496,10,-4.02363e-05,-3.63493,-0.176015,-0.335199,3.02033,0.173598,
2,0,0,1,0,10876.2,0.172392,0.172039,-0.236316,6,0.0198745,10,-4.06555e-05,-3.62651,-0.184294,-0.320141,2.94649,0.172039,
2,0,0,0,0,10876.5,0.170893,0.170585,-0.23995,6,0.0197983,10,-4.09317e-05,-3.61988,-0.181349,-0.32534,3.05628,0.170585,
2,0,0,0,0,10876.8,0.169395,0.16907,-0.245572,6,0.0197205,10,-4.1519e-05,-3.60982,-0.149394,-0.394929,3.77101,0.16907,
2,0,0,1,0,10877.1,0.167896,0.1676,-0.250403,6,0.019641,10,-4.19677e-05,-3.60136,-0.149042,-0.395862,3.88665,0.1676,
2,0,0,1,0,10877.4,0.166398,0.166092,-0.255784,6,0.0195601,10,-4.24836e-05,-3.59213,-0.15575,-0.378813,3.80768,0.166092,
2,0,0,1,0,10877.7,0.164901,0.164606,-0.261143,6,0.0194776,10,-4.29858e-05,-3.58312,-0.141657,-0.4165,4.2705,0.164606,
2,0,0,1,0,10878,0.163402,0.163094,-0.269234,6,0.019393,10,-4.39104e-05,-3.56987,-0.126099,-0.467886,4.90812,0.163094,
2,0,0,1,0,10878.3,0.161904,0.161588,-0.275492,6,0.0193063,10,-4.45163e-05,-3.55989,-0.125558,-0.469903,5.06634,0.161588,
2,0,0,1,0,10878.6,0.160405,0.160085,-0.283923,6,0.0192172,10,-4.54519e-05,-3.5468,-0.125998,-0.468262,5.18044,0.160085,
2,0,0,1,0,10878.9,0.158907,0.158599,-0.29005,6,0.019126,10,-4.60015e-05,-3.53753,-0.122375,-0.482126,5.516,0.158599,
2,0,0,1,0,10879.2,0.157409,0.157097,-0.301347,6,0.019032,10,-4.73406e-05,-3.52093,-0.104058,-0.566993,6.68029,0.157097,
2,0,0,0,0,10879.5,0.155911,0.155595,-0.311221,6,0.0189349,10,-4.84243e-05,-3.50693,-0.0990557,-0.595624,7.2775,0.155595,
2,0,0,0,0,10879.8,0.154413,0.154074,-0.322485,6,0.0188343,10,-4.96866e-05,-3.49149,-0.097145,-0.607339,7.65207,0.1540741,
2,0,0,0,0,10880.1,0.152915,0.152579,-0.336423,6,0.0187302,10,-5.1331e-05,-3.47311,-0.0889261,-0.663472,8.73762,0.152579,
2,0,0,1,0,10880.4,0.151416,0.151122,-0.35028,6,0.0186224,10,-5.29349e-05,-3.45559,-0.0817975,-0.721293,9.87323,0.151122,
2,0,0,1,0,10880.7,0.149919,0.149597,-0.366009,6,0.0185099,10,-5.4754e-05,-3.43651,-0.075031,-0.786342,11.2196,0.149597,
2,0,0,1,0,10881,0.14842,0.148117,-0.382966,6,0.0183925,10,-5.67236e-05,-3.41684,-0.0748615,-0.788122,11.7725,0.148117,
2,0,0,1,0,10881.3,0.146922,0.146599,-0.401671,6,0.0182698,10,-5.88847e-05,-3.39613,-0.0729986,-0.808235,12.6672,0.146599,
2,0,0,1,0,10881.6,0.145424,0.145116,-0.420715,6,0.0181417,10,-6.10524e-05,-3.37601,-0.0696574,-0.847002,13.9531,0.145116,
2,0,0,1,0,10881.9,0.143925,0.14366,-0.443092,6,0.018007,10,-6.36545e-05,-3.35351,-0.0611284,-0.965181,16.6756,0.14366,
2,0,0,1,0,10882.2,0.142427,0.142127,-0.467507,6,0.0178652,10,-6.64452e-05,-3.33021,-0.0643873,-0.91633,16.6967,0.142127,
2,0,0,1,0,10882.5,0.14093,0.1406,-0.491167,6,0.0177161,10,-6.90581e-05,-3.30877,-0.0705753,-0.835987,16.0428,0.1406,
2,0,0,0,0,10882.8,0.139431,0.139129,-0.513884,6,0.01756,10,-7.1496e-05,-3.28914,-0.0703468,-0.838702,16.906,0.139129,
2,0,0,0,0,10883.1,0.137933,0.137592,-0.540656,6,0.0173966,10,-7.43901e-05,-3.26708,-0.0758839,-0.777503,16.3923,0.137592,
2,0,0,1,0,10883.4,0.136434,0.136085,-0.566903,6,0.0172252,10,-7.7147e-05,-3.24649,-0.0794346,-0.74275,16.3393,0.136085,
2,0,0,1,0,10883.7,0.134936,0.134617,-0.58954,6,0.0170464,10,-7.9362e-05,-3.22949,-0.0902806,-0.653518,14.9742,0.134617,
2,0,0,1,0,10884,0.133439,0.133122,-0.610836,6,0.0168609,10,-8.13156e-05,-3.21408,-0.0989586,-0.596209,14.201,0.133122,
2,0,0,1,0,10884.3,0.13194,0.131618,-0.632486,6,0.0166693,10,-8.32465e-05,-3.19895,-0.113662,-0.519082,12.7789,0.131618,
2,0,0,1,0,10884.6,0.130442,0.130126,-0.64994,6,0.0164719,10,-8.4574e-05,-3.18713,-0.136643,-0.431781,10.9155,0.1301259,
2,0,0,1,0,10884.9,0.128943,0.128655,-0.664724,6,0.0162693,10,-8.552e-05,-3.17736,-0.174539,-0.338033,8.72539,0.128655,
2,0,0,1,0,10885.2,0.127445,0.127135,-0.677229,6,0.0160628,10,-8.60998e-05,-3.16926,-0.206347,-0.285927,7.53743,0.127135,
2,0,0,1,0,10885.5,0.125947,0.125627,-0.68711,6,0.0158533,10,-8.63193e-05,-3.16297,-0.257684,-0.228962,6.11237,0.125627,
2,0,0,0,0,10885.8,0.124449,0.124137,-0.694858,6,0.0156408,10,-8.62574e-05,-3.1581,-0.338895,-0.174095,4.70111,0.1241367,
2,0,0,0,0,10886.1,0.122951,0.122634,-0.700388,6,0.0154263,10,-8.58915e-05,-3.15466,-0.574941,-0.102619,2.79016,0.122634,
2,0,0,0,0,10886.4,0.121453,0.121141,-0.70392,6,0.0152106,10,-8.52737e-05,-3.15248,-1.92403,-0.0306648,0.838147,0.121141,
2,0,0,1,0,10886.7,0.119954,0.119654,-0.701007,6,0.0149948,10,-8.38784e-05,-3.15428,-13.9272,-0.00423633,0.116172,0.119654,
2,0,0,1,0,10887,0.118456,0.118106,-0.701649,6,0.014779,10,-8.28691e-05,-3.15388,-6.59243,-0.00894966,0.244464,0.118106,
2,0,0,1,0,10887.3,0.116958,0.116642,-0.70151,6,0.014563,10,-8.18254e-05,-3.15397,1.03949,0.0567589,-1.54811,0.116642,
2,0,0,1,0,10887.6,0.11546,0.115117,-0.697775,6,0.0143478,10,-8.03257e-05,-3.15628,0.611437,0.096494,-2.62053,0.115117,
2,0,0,1,0,10887.9,0.113962,0.113666,-0.691943,6,0.014134,10,-7.86506e-05,-3.15993,0.52399,0.112598,-3.04302,0.113666,
2,0,0,1,0,10888.2,0.112463,0.112124,-0.689082,6,0.0139216,10,-7.72628e-05,-3.16173,0.426094,0.138467,-3.72126,0.112124,
2,0,0,1,0,10888.5,0.110965,0.110629,-0.684538,6,0.0137103,10,-7.57301e-05,-3.1646,0.479644,0.123008,-3.28029,0.110629,
2,0,0,1,0,10888.8,0.109468,0.109185,-0.67956,6,0.0135006,10,-7.41981e-05,-3.16777,0.366545,0.160962,-4.26054,0.109185,
2,0,0,0,0,10889.1,0.107969,0.107625,-0.673676,6,0.0132925,10,-7.25045e-05,-3.17155,0.422133,0.139766,-3.67932,0.107625,
2,0,0,0,0,10889.4,0.106471,0.106137,-0.667904,6,0.0130863,10,-7.08895e-05,-3.17529,0.454832,0.129718,-3.38881,0.106137,
2,0,0,1,0,10889.7,0.104972,0.104671,-0.662604,6,0.0128816,10,-6.93552e-05,-3.17875,0.405064,0.145656,-3.76912,0.104671,
2,0,0,1,0,10890,0.103474,0.103155,-0.657262,6,0.0126784,10,-6.78002e-05,-3.18226,0.341257,0.17289,-4.41872,0.103155,
2,0,0,1,0,10890.3,0.101977,0.101645,-0.650863,6,0.0124773,10,-6.61568e-05,-3.18651,0.345164,0.170933,-4.33992,0.101645,
2,0,0,1,0,10890.6,0.100478,0.10017,-0.643612,6,0.0122784,10,-6.44709e-05,-3.19138,0.342323,0.172352,-4.33467,0.10017,
2,0,0,1,0,10890.9,0.0989799,0.0986477,-0.636424,6,0.0120812,10,-6.27818e-05,-3.19625,0.36814,0.160265,-3.97991,0.0986477,
2,0,0,1,0,10891.2,0.0974812,0.0971447,-0.631802,6,0.0118858,10,-6.13762e-05,-3.19942,0.366282,0.161078,-3.96843,0.0971447,
2,0,0,1,0,10891.5,0.0959834,0.09567,-0.623828,6,0.0116923,10,-5.96816e-05,-3.20493,0.308146,0.191468,-4.66886,0.09567,
2,0,0,1,0,10891.8,0.0944855,0.0941805,-0.615247,6,0.0115012,10,-5.79443e-05,-3.21095,0.342399,0.172313,-4.16094,0.0941805,
2,0,0,0,0,10892.1,0.0929871,0.0926426,-0.610586,6,0.0113118,10,-5.65663e-05,-3.21425,0.422297,0.139712,-3.33121,0.0926426,
2,0,0,0,0,10892.4,0.0914889,0.0911369,-0.60828,6,0.0111239,10,-5.54367e-05,-3.2159,0.346595,0.170228,-4.01937,0.09113685,
2,0,0,0,0,10892.7,0.0899907,0.0897011,-0.599406,6,0.0109379,10,-5.37674e-05,-3.22228,0.301116,0.195938,-4.5747,0.0897011,
2,0,0,1,0,10893,0.0884923,0.0881928,-0.589854,6,0.010754,10,-5.20209e-05,-3.22926,0.330017,0.178779,-4.13292,0.0881928,
2,0,0,1,0,10893.3,0.0869946,0.0866802,-0.587606,6,0.010572,10,-5.09338e-05,-3.23091,0.358707,0.16448,-3.76613,0.0866802,
2,0,0,1,0,10893.6,0.0854962,0.0851795,-0.580972,6,0.0103916,10,-4.94869e-05,-3.23584,0.376415,0.156742,-3.55465,0.0851795,
2,0,0,1,0,10893.9,0.083998,0.0836843,-0.575324,6,0.0102127,10,-4.81456e-05,-3.24009,0.29352,0.201008,-4.51389,0.0836843,
2,0,0,1,0,10894.2,0.0824998,0.0821648,-0.570807,6,0.0100355,10,-4.69002e-05,-3.24351,0.348396,0.169348,-3.77868,0.0821648,
2,0,0,1,0,10894.5,0.0810014,0.0806438,-0.565921,6,0.00986017,10,-4.56381e-05,-3.24724,0.434257,0.135864,-3.00573,0.0806438,
2,0,0,1,0,10894.8,0.0795035,0.079182,-0.562901,6,0.00968588,10,-4.45716e-05,-3.24957,0.522563,0.112905,-2.46848,0.079182,
2,0,0,1,0,10895.1,0.0780056,0.0776446,-0.558517,6,0.00951274,10,-4.33658e-05,-3.25296,0.492494,0.119798,-2.60654,0.0776446,
2,0,0,0,0,10895.4,0.076507,0.0761692,-0.553643,6,0.00934106,10,-4.21706e-05,-3.25677,0.446028,0.132279,-2.85229,0.0761692,
2,0,0,0,0,10895.7,0.0750088,0.0746719,-0.549114,6,0.00917111,10,-4.10034e-05,-3.26034,0.440787,0.133851,-2.86767,0.0746719,
2,0,0,1,0,10896,0.0735103,0.0731965,-0.546034,6,0.00900191,10,-3.99678e-05,-3.26278,1.0266,0.0574713,-1.21952,0.0731965,
2,0,0,1,0,10896.3,0.0720124,0.0716699,-0.541487,6,0.00883385,10,-3.88083e-05,-3.26641,0.54494,0.108269,-2.2909,0.0716699,
2,0,0,1,0,10896.6,0.0705146,0.0701847,-0.537795,6,0.00866694,10,-3.7745e-05,-3.26938,0.516786,0.114167,-2.40047,0.0701847,
2,0,0,1,0,10896.9,0.0690161,0.0687177,-0.53275,6,0.0085013,10,-3.66094e-05,-3.27348,0.470926,0.125285,-2.61063,0.06871774,
2,0,0,1,0,10897.2,0.0675179,0.0672692,-0.5308,6,0.00833689,10,-3.57065e-05,-3.27507,0.571496,0.103238,-2.135,0.0672692,
2,0,0,1,0,10897.5,0.0660192,0.0657163,-0.530339,6,0.00817316,10,-3.48519e-05,-3.27545,0.549814,0.107309,-2.20219,0.0657163,
2,0,0,1,0,10897.8,0.0645214,0.0641897,-0.523637,6,0.00801025,10,-3.36121e-05,-3.28097,0.449198,0.131345,-2.67576,0.0641897,
2,0,0,1,0,10898.1,0.0630235,0.0627521,-0.51783,6,0.00784871,10,-3.24949e-05,-3.28581,0.432425,0.13644,-2.77343,0.0627521,
2,0,0,0,0,10898.4,0.0615251,0.0612228,-0.516289,6,0.00768841,10,-3.16087e-05,-3.28711,0.487719,0.120971,-2.44095,0.0612228,
2,0,0,0,0,10898.7,0.0600269,0.0596937,-0.513142,6,0.00752891,10,-3.06313e-05,-3.28976,0.443014,0.133179,-2.66889,0.0596937,
2,0,0,0,0,10899,0.0585287,0.0582091,-0.508756,6,0.00737055,10,-2.96143e-05,-3.29349,0.364961,0.161661,-3.20743,0.0582091,
2,0,0,1,0,10899.3,0.0570303,0.0566935,-0.505498,6,0.00721322,10,-2.86584e-05,-3.29628,0.487142,0.121115,-2.38786,0.0566935,
2,0,0,1,0,10899.6,0.0555325,0.055204,-0.501854,6,0.00705748,10,-2.77043e-05,-3.29942,0.599334,0.0984425,-1.93462,0.055204,
2,0,0,1,0,10899.9,0.0540342,0.0537066,-0.498146,6,0.00690244,10,-2.67538e-05,-3.30264,0.633975,0.0930636,-1.80754,0.0537066,
2,0,0,1,0,10900.2,0.052536,0.0522221,-0.495954,6,0.00674818,10,-2.58997e-05,-3.30456,0.523854,0.112627,-2.17049,0.0522221,
2,0,0,1,0,10900.5,0.0510378,0.0507279,-0.491079,6,0.00659533,10,-2.49114e-05,-3.30885,0.412198,0.143135,-2.74122,0.0507279,
2,0,0,1,0,10900.8,0.0495394,0.0492165,-0.487092,6,0.00644375,10,-2.3973e-05,-3.31239,0.639854,0.0922085,-1.75386,0.04921655,
2,0,0,1,0,10901.1,0.0480415,0.0477557,-0.482477,6,0.00629325,10,-2.3041e-05,-3.31652,0.794642,0.0742472,-1.39888,0.0477557,
2,0,0,1,0,10901.4,0.0465436,0.0462449,-0.479759,6,0.00614345,10,-2.21864e-05,-3.31898,0.493662,0.119515,-2.24043,0.0462449,
2,0,0,0,0,10901.7,0.045045,0.0446964,-0.476445,6,0.00599484,10,-2.12953e-05,-3.32199,0.39682,0.148682,-2.76397,0.0446964,
2,0,0,0,0,10902,0.0435468,0.0432489,-0.470466,6,0.00584756,10,-2.03471e-05,-3.32747,0.477992,0.123433,-2.27816,0.0432489,
2,0,0,1,0,10902.3,0.0420483,0.0417121,-0.469575,6,0.00570143,10,-1.95869e-05,-3.3283,0.471731,0.125071,-2.28952,0.0417121,
2,0,0,1,0,10902.6,0.0405504,0.0402533,-0.46884,6,0.00555607,10,-1.88724e-05,-3.32898,0.487792,0.120953,-2.19649,0.0402533,
2,0,0,1,0,10902.9,0.0390526,0.0387774,-0.462753,6,0.00541172,10,-1.79444e-05,-3.33465,0.379283,0.155557,-2.80043,0.0387774,
2,0,0,1,0,10903.2,0.0375541,0.0372332,-0.45708,6,0.00526865,10,-1.70185e-05,-3.34001,0.420498,0.14031,-2.50998,0.0372332,
2,0,0,1,0,10903.5,0.0360559,0.0357041,-0.454768,6,0.005127,10,-1.62371e-05,-3.34221,0.410674,0.143666,-2.55193,0.03570411,
2,0,0,1,0,10903.8,0.0345572,0.0342467,-0.451426,6,0.004986,10,-1.54599e-05,-3.34541,0.458172,0.128773,-2.26598,0.0342467,
2,0,0,1,0,10904.1,0.0330594,0.0327667,-0.447659,6,0.00484602,10,-1.46683e-05,-3.34905,0.37372,0.157872,-2.75564,0.0327667,
2,0,0,1,0,10904.4,0.0315615,0.0312784,-0.444189,6,0.00470721,10,-1.38935e-05,-3.35243,0.388417,0.151899,-2.63569,0.0312784,
2,0,0,0,0,10904.7,0.0300631,0.0297574,-0.441301,6,0.00456969,10,-1.31319e-05,-3.35527,0.474776,0.124269,-2.13614,0.0297574,
2,0,0,0,0,10905,0.0285649,0.0283025,-0.438613,6,0.00443289,10,-1.24138e-05,-3.35792,0.594085,0.0993124,-1.69218,0.0283025,
2,0,0,0,0,10905.3,0.0270667,0.0267649,-0.43556,6,0.00429689,10,-1.16577e-05,-3.36095,0.47201,0.124997,-2.11852,0.0267649,
2,0,0,1,0,10905.6,0.0255683,0.0252238,-0.431822,6,0.00416179,10,-1.08922e-05,-3.3647,0.501642,0.117614,-1.98474,0.0252238,
2,0,0,1,0,10905.9,0.0240706,0.0237684,-0.428312,6,0.00402806,10,-1.01803e-05,-3.36824,0.632372,0.0932995,-1.56448,0.0237684,
2,0,0,1,0,10906.2,0.0225722,0.0222847,-0.426032,6,0.00389474,10,-9.49398e-06,-3.37056,1.25855,0.0468795,-0.780784,0.0222847,
2,0,0,1,0,10906.5,0.021074,0.0206983,-0.424489,6,0.00376224,10,-8.7862e-06,-3.37213,0.675278,0.0873715,-1.44786,0.0206983,
2,0,0,1,0,10906.8,0.0195758,0.019272,-0.421983,6,0.00363026,10,-8.13248e-06,-3.37471,0.725533,0.0813195,-1.33859,0.019272,
2,0,0,1,0,10907.1,0.0180774,0.0177576,-0.41862,6,0.00349912,10,-7.43368e-06,-3.37818,0.865551,0.0681647,-1.11844,0.0177576,
2,0,0,1,0,10907.4,0.0165795,0.0162224,-0.418663,6,0.00336857,10,-6.79172e-06,-3.37814,1.186,0.0497472,-0.81208,0.0162224,
2,0,0,1,0,10907.7,0.0150817,0.0147978,-0.41829,6,0.00323831,10,-6.18977e-06,-3.37852,1.02283,0.0576832,-0.939813,0.0147978,
2,0,0,0,0,10908,0.013583,0.0132956,-0.415793,6,0.00310837,10,-5.52822e-06,-3.38112,0.824962,0.0715184,-1.1605,0.0132956,
2,0,0,0,0,10908.3,0.0120848,0.0117676,-0.414449,6,0.00297899,10,-4.87705e-06,-3.38253,2.03314,0.0290192,-0.470277,0.0117676,
2,0,0,1,0,10908.6,0.0105863,0.0102528,-0.412648,6,0.00285004,10,-4.23082e-06,-3.38442,3.10697,0.0189896,-0.307209,0.0102528,
2,0,0,1,0,10908.8,0.00908846,0.00875499,-0.413259,6,0.00272119,10,-3.61808e-06,-3.38378,5.19483,0.0113574,-0.183381,0.00875499,
2,0,0,1,0,10909.1,0.0075906,0.00728548,-0.41271,6,0.00259235,10,-3.00679e-06,-3.38435,2.15626,0.0273622,-0.440282,0.00728548,
2,0,0,1,0,10909.4,0.00609208,0.00575399,-0.413924,6,0.00246358,10,-2.38171e-06,-3.38308,-4.93783,-0.0119486,0.192664,0.005753987,
2,0,0,1,0,10909.7,0.00459389,0.00433728,-0.412342,6,0.00233518,10,-1.78845e-06,-3.38474,-13.8403,-0.0042629,0.0686885,0.00433728,
2,0,0,1,0,10910,0.00309525,0.00278227,-0.413769,6,0.00220622,10,-1.15122e-06,-3.38324,-0.845729,-0.0697623,1.12536,0.00278227,
2,0,0,1,0,10910.3,0.00159739,0.00120914,-0.417307,6,0.00207518,10,-5.04584e-07,-3.37954, , , ,0.00120914,
2,0,0,0,0,10910.6,0.000199195,-0.000138268,-0.415197,6,0.00195399,10,5.74084e-08,-3.38175, , , ,-0.000138268,