File: Figure_codes/Fig_3-5/rawdata_trumpetplot_data/after 10th/20221101_1-115_003_TrumpetPlot_ParaChange_from10_every3_05_CV_C01_19.csv
mode,ox/red,error,control changes,counter inc.,time/s,control/V,Ewe/V,<I>/mA,cycle number,(Q-Qo)/C,I Range,P/W,log(|I|),Tafel slope mV/dec,alpha_eff,dI/d(E-IR),E-IR/V,
2,0,0,1,0,38552.5,2.44065e-05,-0.000344411,-0.746238,20,0.0000000E+000,10,2.57013e-07,-3.12712, , , ,-0.000344411,
2,0,0,1,0,38552.6,0.00129787,0.000917801,0.0690985,20,-1.35858e-05,10,6.34187e-08,-4.16053, , , ,0.0009178014,
2,1,0,1,0,38552.6,0.00279606,0.00248153,0.412897,20,7.58582e-06,10,1.02462e-06,-3.38416,0.00634992,9.29146,177.886,0.00248153,
2,1,0,1,0,38552.7,0.00429425,0.00400952,0.55151,20,4.54535e-05,10,2.21129e-06,-3.25845,0.0140444,4.20095,77.5972,0.00400952,
2,1,0,1,0,38552.8,0.00579244,0.00545063,0.624095,20,9.08936e-05,10,3.40171e-06,-3.20475,0.0298378,1.97736,46.3297,0.00545063,
2,1,0,1,0,38552.9,0.00729063,0.00699027,0.68201,20,0.000141267,10,4.76744e-06,-3.16621,0.0472111,1.24971,32.4688,0.00699027,
2,1,0,1,0,38552.9,0.00878882,0.00846353,0.724195,20,0.000195266,10,6.12925e-06,-3.14014,0.065921,0.895011,24.9669,0.00846353,
2,1,0,1,0,38553,0.010287,0.0099532,0.756852,20,0.000251996,10,7.53309e-06,-3.12099,0.0834095,0.707353,20.738,0.0099532,
2,1,0,1,0,38553.1,0.0117852,0.0114216,0.785613,20,0.000311021,10,8.973e-06,-3.10479,0.0985807,0.598495,18.2766,0.0114216,
2,1,0,1,0,38553.2,0.0132847,0.0129452,0.809769,20,0.000372045,10,1.04826e-05,-3.09164,0.111666,0.528362,16.7002,0.0129452,
2,1,0,1,0,38553.2,0.0147802,0.014516,0.834029,20,0.000434821,10,1.21068e-05,-3.07882,0.127115,0.464146,15.0809,0.014516,
2,1,0,1,0,38553.3,0.0162798,0.0159596,0.856184,20,0.000499557,10,1.36643e-05,-3.06743,0.145433,0.405684,13.5006,0.0159596,
2,1,0,1,0,38553.4,0.017778,0.0174747,0.876663,20,0.000565787,10,1.53194e-05,-3.05717,0.154676,0.381442,13.0376,0.0174747,
2,1,0,1,0,38553.5,0.0192761,0.0189222,0.89708,20,0.00063336,10,1.69747e-05,-3.04717,0.161958,0.364292,12.7125,0.0189222,
2,1,0,1,0,38553.5,0.0207743,0.020449,0.915994,20,0.000702497,10,1.87312e-05,-3.03811,0.158278,0.372761,13.2908,0.020449,
2,1,0,1,0,38553.6,0.0222725,0.0219848,0.938725,20,0.000773076,10,2.06377e-05,-3.02746,0.169,0.349112,12.7207,0.0219848,
2,1,0,1,0,38553.7,0.0237707,0.0234247,0.954407,20,0.000845057,10,2.23567e-05,-3.02027,0.181001,0.325964,12.1286,0.0234247,
2,1,0,1,0,38553.8,0.0252689,0.0249387,0.967337,20,0.00091836,10,2.41241e-05,-3.01442,0.184949,0.319007,12.096,0.0249387,
2,1,0,1,0,38553.8,0.0267671,0.0264606,0.990196,20,0.000993111,10,2.62012e-05,-3.00428,0.172773,0.341489,13.2134,0.0264606,
2,1,0,1,0,38553.9,0.0282653,0.0279228,1.01319,20,0.00106935,10,2.82912e-05,-2.99431,0.174003,0.339075,13.3869,0.0279228,
2,1,0,1,0,38554,0.0297644,0.0294205,1.0319,20,0.00114722,10,3.03589e-05,-2.98636,0.197607,0.298572,11.9785,0.0294205,
2,1,0,1,0,38554.1,0.0312599,0.0309054,1.04364,20,0.00122621,10,3.22541e-05,-2.98145,0.20447,0.288551,11.7875,0.0309054,
2,1,0,1,0,38554.1,0.0327599,0.0324255,1.06608,20,0.00130658,10,3.45682e-05,-2.97221,0.187313,0.31498,13.1163,0.03242553,
2,1,0,1,0,38554.2,0.034258,0.0339311,1.08588,20,0.00138841,10,3.68451e-05,-2.96422,0.185998,0.317208,13.4093,0.0339311,
2,1,0,1,0,38554.3,0.0357562,0.0354177,1.10402,20,0.00147176,10,3.91017e-05,-2.95702,0.224201,0.263157,11.3123,0.0354177,
2,1,0,1,0,38554.4,0.0372544,0.036912,1.12083,20,0.00155648,10,4.1372e-05,-2.95046,0.217718,0.270993,11.8773,0.036912,
2,1,0,1,0,38554.4,0.0387526,0.0383877,1.13947,20,0.00164242,10,4.37418e-05,-2.9433,0.199845,0.295229,13.1794,0.0383877,
2,1,0,1,0,38554.5,0.0402508,0.0399053,1.16102,20,0.00172993,10,4.63307e-05,-2.93516,0.197535,0.298681,13.5189,0.03990525,
2,1,0,1,0,38554.6,0.041749,0.0414758,1.18229,20,0.00181903,10,4.90364e-05,-2.92728,0.211313,0.279206,12.8585,0.0414758,
2,1,0,1,0,38554.7,0.0432472,0.0429138,1.20066,20,0.00190948,10,5.1525e-05,-2.92058,0.235755,0.25026,11.7002,0.04291378,
2,1,0,1,0,38554.7,0.0447449,0.0444135,1.21588,20,0.00200114,10,5.40013e-05,-2.91511,0.232607,0.253647,12.0445,0.0444135,
2,1,0,1,0,38554.8,0.0462445,0.0458982,1.2377,20,0.00209432,10,5.68082e-05,-2.90738,0.207407,0.284464,13.6992,0.0458982,
2,1,0,1,0,38554.9,0.04774,0.0474125,1.2536,20,0.00218866,10,5.94365e-05,-2.90184,0.226728,0.260224,12.7304,0.0474125,
2,1,0,1,0,38555,0.0492399,0.0489389,1.27041,20,0.00228468,10,6.21724e-05,-2.89606,0.262258,0.22497,11.1496,0.0489389,
2,1,0,1,0,38555,0.0507381,0.0504063,1.28549,20,0.00238175,10,6.47966e-05,-2.89093,0.26161,0.225527,11.3442,0.0504063,
2,1,0,1,0,38555.1,0.0522363,0.0519424,1.30538,20,0.00248001,10,6.78044e-05,-2.88426,0.245024,0.240793,12.256,0.0519424,
2,1,0,1,0,38555.2,0.0537345,0.0533939,1.32438,20,0.00257971,10,7.0714e-05,-2.87799,0.266418,0.221456,11.4175,0.0533939,
2,1,0,1,0,38555.3,0.0552327,0.0549455,1.33905,20,0.0026807,10,7.3575e-05,-2.8732,0.309196,0.190818,9.94761,0.0549455,
2,1,0,1,0,38555.3,0.0567309,0.056403,1.35119,20,0.00278281,10,7.6211e-05,-2.86928,0.295831,0.199438,10.5468,0.056403,
2,1,0,1,0,38555.4,0.0582291,0.0579281,1.37059,20,0.00288599,10,7.93954e-05,-2.86309,0.304899,0.193507,10.3468,0.0579281,
2,1,0,1,0,38555.5,0.0597291,0.0594365,1.38602,20,0.00299057,10,8.238e-05,-2.85823,0.28808,0.204805,11.0808,0.05943647,
2,1,0,1,0,38555.6,0.0612246,0.0608966,1.40072,20,0.00309609,10,8.52991e-05,-2.85365,0.350511,0.168326,9.18218,0.0608966,
2,1,0,1,0,38555.6,0.0627241,0.0624092,1.41405,20,0.00320302,10,8.825e-05,-2.84953,0.32832,0.179703,9.92871,0.0624092,
2,1,0,1,0,38555.7,0.0642218,0.0639144,1.42897,20,0.0033107,10,9.13318e-05,-2.84498,0.336097,0.175544,9.80319,0.0639144,
2,1,0,1,0,38555.8,0.06572,0.065387,1.44237,20,0.00341954,10,9.43123e-05,-2.84092,0.334542,0.176361,9.92804,0.065387,
2,1,0,1,0,38555.9,0.0672182,0.0669142,1.458,20,0.00352959,10,9.75607e-05,-2.83624,0.370712,0.159153,9.04209,0.0669142,
2,1,0,1,0,38555.9,0.0687164,0.0683867,1.47148,20,0.00364063,10,0.000100629,-2.83225,0.436636,0.135124,7.75231,0.0683867,
2,1,0,1,0,38556,0.0702146,0.0699064,1.4813,20,0.00375239,10,0.000103552,-2.82936,0.417457,0.141332,8.18281,0.0699064,
2,1,0,1,0,38556.1,0.0717128,0.071342,1.49525,20,0.00386506,10,0.000106674,-2.82529,0.359849,0.163958,9.56867,0.071342,
2,1,0,1,0,38556.2,0.073211,0.0728989,1.50886,20,0.0039788,10,0.000109994,-2.82135,0.38264,0.154192,9.06454,0.0728989,
2,1,0,1,0,38556.2,0.0747092,0.0743668,1.51846,20,0.0040935,10,0.000112923,-2.8186,0.514483,0.114678,6.79168,0.0743668,
2,1,0,1,0,38556.3,0.0762087,0.0758745,1.52665,20,0.004209,10,0.000115834,-2.81626,0.518143,0.113868,6.79599,0.0758745,
2,1,0,1,0,38556.4,0.0777042,0.0773737,1.54028,20,0.00432484,10,0.000119177,-2.8124,0.471632,0.125098,7.51553,0.0773737,
2,1,0,1,0,38556.5,0.0792037,0.078868,1.55111,20,0.0044419,10,0.000122333,-2.80936,0.498615,0.118328,7.15307,0.078868,
2,1,0,1,0,38556.5,0.0807019,0.0803634,1.56033,20,0.00455963,10,0.000125393,-2.80678,0.595308,0.0991084,6.02346,0.0803634,
2,1,0,1,0,38556.6,0.0822001,0.0818752,1.56765,20,0.00467806,10,0.000128352,-2.80475,0.556011,0.106113,6.49988,0.0818752,
2,1,0,1,0,38556.7,0.0836983,0.0833871,1.58092,20,0.00479711,10,0.000131829,-2.80109,0.548006,0.107663,6.64153,0.0833871,
2,1,0,1,0,38556.8,0.0851965,0.0848455,1.58931,20,0.00491709,10,0.000134845,-2.79879,0.532596,0.110778,6.87598,0.0848455,
2,1,0,1,0,38556.8,0.0866947,0.0863121,1.60171,20,0.0050379,10,0.000138247,-2.79542,0.518579,0.113772,7.1074,0.0863121,
2,1,0,1,0,38556.9,0.0881929,0.0878335,1.61326,20,0.0051596,10,0.000141698,-2.7923,0.43093,0.136913,8.62529,0.0878335,
2,1,0,1,0,38557,0.0896911,0.0893585,1.62562,20,0.00528207,10,0.000145263,-2.78898,0.386472,0.152663,9.71117,0.0893585,
2,1,0,1,0,38557.1,0.0911893,0.0908484,1.64275,20,0.00540569,10,0.000149241,-2.78443,0.313438,0.188235,12.0626,0.0908484,
2,1,0,1,0,38557.1,0.0926884,0.0923564,1.66311,20,0.0055309,10,0.000153599,-2.77908,0.296473,0.199007,12.8937,0.0923564,
2,1,0,1,0,38557.2,0.0941839,0.0938633,1.67899,20,0.00565702,10,0.000157596,-2.77495,0.319042,0.184929,12.1278,0.0938633,
2,1,0,1,0,38557.3,0.0956838,0.0953156,1.69337,20,0.00578475,10,0.000161404,-2.77125,0.272298,0.216674,14.3734,0.0953156,
2,1,0,1,0,38557.4,0.097182,0.0968596,1.71778,20,0.0059139,10,0.000166384,-2.76503,0.22792,0.258862,17.3745,0.0968596,
2,1,0,1,0,38557.4,0.0986802,0.0983528,1.74333,20,0.00604501,10,0.000171461,-2.75862,0.228873,0.257785,17.5615,0.0983528,
2,1,0,1,0,38557.5,0.100178,0.0998301,1.77167,20,0.00617802,10,0.000176866,-2.75162,0.235397,0.250641,17.3521,0.0998301,
2,1,0,1,0,38557.6,0.101677,0.101339,1.7983,20,0.00631298,10,0.000182238,-2.74514,0.221094,0.266854,18.7707,0.101339,
2,1,0,1,0,38557.7,0.103175,0.102887,1.82935,20,0.0064501,10,0.000188216,-2.7377,0.198634,0.297029,21.2439,0.102887,
2,1,0,1,0,38557.7,0.104673,0.104351,1.86577,20,0.00658973,10,0.000194694,-2.72914,0.194155,0.303881,22.096,0.104351,
2,1,0,1,0,38557.8,0.106171,0.10586,1.89918,20,0.00673191,10,0.000201048,-2.72143,0.204709,0.288214,21.2878,0.10586,
2,1,0,1,0,38557.9,0.107669,0.107315,1.92552,20,0.00687644,10,0.000206637,-2.71545,0.211339,0.279172,21.001,0.107315,
2,1,0,1,0,38558,0.109168,0.108846,1.95872,20,0.00702335,10,0.0002132,-2.70803,0.210287,0.280569,21.4752,0.108846,
2,1,0,1,0,38558,0.110664,0.11032,1.99182,20,0.0071724,10,0.000219737,-2.70075,0.214557,0.274985,21.3491,0.11032,
2,1,0,1,0,38558.1,0.112164,0.111786,2.02382,20,0.00732425,10,0.000226234,-2.69383,0.248523,0.237403,18.689,0.111786,
2,1,0,1,0,38558.2,0.113662,0.113333,2.05076,20,0.00747796,10,0.000232419,-2.68808,0.291418,0.202459,16.1723,0.113333,
2,1,0,1,0,38558.3,0.11516,0.114787,2.07159,20,0.00763346,10,0.000237791,-2.6837,0.291956,0.202085,16.328,0.1147868,
2,1,0,1,0,38558.3,0.116658,0.116322,2.09614,20,0.00779084,10,0.000243826,-2.67858,0.303934,0.194121,15.8684,0.116322,
2,1,0,1,0,38558.4,0.118157,0.117805,2.12147,20,0.00795013,10,0.000249919,-2.67336,0.34865,0.169224,13.9863,0.117805,
2,1,0,1,0,38558.5,0.119655,0.119308,2.14097,20,0.00811093,10,0.000255434,-2.66939,0.453174,0.130193,10.8606,0.119308,
2,1,0,1,0,38558.6,0.121153,0.120772,2.1494,20,0.00827289,10,0.000259588,-2.66768,0.500356,0.117916,9.90935,0.120772,
2,1,0,1,0,38558.6,0.122653,0.122329,2.16789,20,0.00843616,10,0.000265197,-2.66396,0.499386,0.118145,9.99283,0.122329,
2,1,0,1,0,38558.7,0.124149,0.123832,2.18074,20,0.00860012,10,0.000270047,-2.6614,0.548754,0.107516,9.15219,0.123832,
2,1,0,1,0,38558.8,0.125648,0.125364,2.19367,20,0.00876547,10,0.000275007,-2.65883,0.639385,0.0922761,7.90319,0.125364,
2,1,0,1,0,38558.9,0.127146,0.126817,2.20103,20,0.00893149,10,0.00027913,-2.65737,0.799822,0.0737664,6.33909,0.126817,
2,1,0,1,0,38558.9,0.128644,0.128336,2.21226,20,0.00909821,10,0.000283912,-2.65516,0.72514,0.0813636,7.03344,0.128336,
2,1,0,1,0,38559,0.130142,0.129832,2.22882,20,0.00926582,10,0.000289371,-2.65193,0.791469,0.074545,6.46739,0.129832,
2,1,0,1,0,38559.1,0.13164,0.131345,2.23484,20,0.00943423,10,0.000293534,-2.65075,1.62887,0.0362215,3.15247,0.131345,
2,1,0,1,0,38559.2,0.133139,0.132796,2.23798,20,0.00960313,10,0.000297194,-2.65014,4.72171,0.0124955,1.09122,0.132796,
2,1,0,1,0,38559.2,0.134637,0.134307,2.23995,20,0.00977211,10,0.000300841,-2.64976,-8.06326,-0.00731714,-0.639429,0.134307,
2,1,0,1,0,38559.3,0.136135,0.135811,2.24124,20,0.00994119,10,0.000304384,-2.64951,-1.50745,-0.0391389,-3.41161,0.135811,
2,1,0,1,0,38559.4,0.137633,0.137306,2.23415,20,0.01011,10,0.000306762,-2.65089,-0.558681,-0.105606,-9.16196,0.137306,
2,1,0,1,0,38559.4,0.139133,0.138857,2.21334,20,0.010278,10,0.000307338,-2.65495,-0.341963,-0.172533,-14.8339,0.138857,
2,1,0,1,0,38559.5,0.140628,0.140261,2.18495,20,0.0104437,10,0.000306462,-2.66056,-0.236441,-0.249534,-21.2083,0.140261,
2,1,0,1,0,38559.6,0.142128,0.141797,2.15026,20,0.0106075,10,0.0003049,-2.66751,-0.190715,-0.309363,-25.8135,0.141797,
2,1,0,1,0,38559.7,0.143626,0.143303,2.10384,20,0.0107681,10,0.000301486,-2.67699,-0.140261,-0.420645,-34.3822,0.143303,
2,1,0,1,0,38559.7,0.145124,0.144842,2.04591,20,0.0109248,10,0.000296334,-2.68911,-0.111343,-0.529892,-42.1291,0.144842,
2,1,0,1,0,38559.8,0.146622,0.146266,1.97589,20,0.0110769,10,0.000289006,-2.70424,-0.0961428,-0.613671,-47.2086,0.146266,
2,1,0,1,0,38559.9,0.14812,0.147816,1.9064,20,0.0112235,10,0.000281795,-2.71979,-0.0851154,-0.693177,-51.4159,0.147816,
2,1,0,1,0,38560,0.149619,0.149282,1.82589,20,0.0113645,10,0.000272573,-2.73852,-0.0771387,-0.764856,-54.367,0.149282,
2,1,0,1,0,38560,0.151117,0.150775,1.74669,20,0.0114995,10,0.000263358,-2.75778,-0.074477,-0.79219,-53.8653,0.150775,
2,1,0,1,0,38560.1,0.152615,0.15233,1.66088,20,0.0116284,10,0.000253002,-2.77966,-0.0737967,-0.799494,-51.9781,0.15233,
2,1,0,1,0,38560.2,0.154113,0.153815,1.58876,20,0.0117513,10,0.000244375,-2.79894,-0.0765583,-0.770655,-47.9082,0.153815,
2,1,0,1,0,38560.3,0.155613,0.15529,1.51842,20,0.0118689,10,0.000235794,-2.81861,-0.0777031,-0.759301,-45.0711,0.15529,
2,1,0,1,0,38560.3,0.157108,0.156801,1.4512,20,0.0119813,10,0.00022755,-2.83827,-0.0798853,-0.738559,-41.9833,0.156801,
2,1,0,1,0,38560.4,0.158608,0.158294,1.39408,20,0.0120893,10,0.000220675,-2.85571,-0.0883159,-0.668056,-36.4663,0.158294,
2,1,0,1,0,38560.5,0.160106,0.159767,1.34028,20,0.0121928,10,0.000214133,-2.8728,-0.0956914,-0.616566,-32.4718,0.159767,
2,1,0,1,0,38560.6,0.161604,0.161268,1.29889,20,0.0122928,10,0.00020947,-2.88643,-0.110396,-0.53444,-27.1394,0.161268,
2,1,0,1,0,38560.6,0.163102,0.162809,1.25993,20,0.0123898,10,0.000205127,-2.89965,-0.11623,-0.507615,-24.9739,0.162809,
2,1,0,1,0,38560.7,0.164601,0.164249,1.22421,20,0.012484,10,0.000201075,-2.91214,-0.130515,-0.452054,-21.6401,0.164249,
2,1,0,1,0,38560.8,0.166099,0.165775,1.19396,20,0.0125757,10,0.000197929,-2.92301,-0.145752,-0.404797,-18.9085,0.165775,
2,1,0,1,0,38560.9,0.167597,0.16722,1.16943,20,0.0126653,10,0.000195553,-2.93202,-0.182234,-0.323759,-14.8043,0.16722,
2,1,0,1,0,38560.9,0.169095,0.168772,1.14761,20,0.0127533,10,0.000193684,-2.94021,-0.192153,-0.307048,-13.7527,0.168772,
2,1,0,1,0,38561,0.170593,0.170281,1.1257,20,0.0128397,10,0.000191686,-2.94858,-0.192872,-0.305902,-13.4723,0.1702808,
2,1,0,1,0,38561.1,0.172092,0.171759,1.107,20,0.0129247,10,0.000190138,-2.95585,-0.239774,-0.246065,-10.6797,0.171759,
2,1,0,1,0,38561.2,0.173588,0.173225,1.09387,20,0.0130083,10,0.000189485,-2.96103,-0.294189,-0.200551,-8.56683,0.173225,
2,1,0,1,0,38561.2,0.175088,0.174755,1.08149,20,0.013091,10,0.000188996,-2.96598,-0.265453,-0.222262,-9.37646,0.174755,
2,1,0,1,0,38561.3,0.176586,0.176294,1.06719,20,0.0131727,10,0.000188138,-2.97176,-0.30299,-0.194726,-8.11094,0.176294,
2,1,0,1,0,38561.4,0.178084,0.177733,1.05627,20,0.0132535,10,0.000187733,-2.97623,-0.349504,-0.168811,-6.96557,0.177733,
2,1,0,1,0,38561.5,0.179582,0.179218,1.04698,20,0.0133334,10,0.000187638,-2.98006,-0.458819,-0.128591,-5.27478,0.179218,
2,1,0,1,0,38561.5,0.181081,0.180772,1.03976,20,0.0134128,10,0.000187959,-2.98307,-0.505632,-0.116686,-4.73712,0.180772,
2,1,0,1,0,38561.6,0.182579,0.182248,1.03424,20,0.0134917,10,0.000188489,-2.98538,-0.419363,-0.14069,-5.67021,0.1822484,
2,1,0,1,0,38561.7,0.184077,0.183761,1.02495,20,0.01357,10,0.000188347,-2.9893,-0.476795,-0.123743,-4.95782,0.1837611,
2,1,0,1,0,38561.8,0.185577,0.185255,1.02097,20,0.0136477,10,0.00018914,-2.99099,-0.683935,-0.0862655,-3.43196,0.185255,
2,1,0,1,0,38561.8,0.187073,0.186776,1.01376,20,0.0137249,10,0.000189346,-2.99407,-0.785379,-0.0751229,-2.96523,0.186776,
2,1,0,1,0,38561.9,0.188572,0.188233,1.00821,20,0.0138019,10,0.000189777,-2.99645,-0.672181,-0.087774,-3.44808,0.1882329,
2,1,0,1,0,38562,0.19007,0.189766,1.00269,20,0.0138784,10,0.000190276,-2.99883,-0.683826,-0.0862793,-3.37451,0.189766,
2,1,0,1,0,38562.1,0.191568,0.191237,0.995408,20,0.0139544,10,0.000190359,-3.002,-0.625597,-0.0943099,-3.67362,0.191237,
2,1,0,1,0,38562.1,0.193066,0.192744,0.99251,20,0.0140302,10,0.0001913,-3.00327,-1.48295,-0.0397855,-1.54095,0.192744,
2,1,0,1,0,38562.2,0.194564,0.194212,0.991142,20,0.0141057,10,0.000192492,-3.00386,-0.780271,-0.0756148,-2.91685,0.194212,
2,1,0,1,0,38562.3,0.196063,0.195775,0.985484,20,0.0141809,10,0.000192934,-3.00635,-0.603764,-0.0977203,-3.76123,0.195775,
2,1,0,1,0,38562.4,0.197561,0.19725,0.979973,20,0.0142558,10,0.000193299,-3.00879,-0.893356,-0.0660431,-2.52885,0.19725,
2,1,0,1,0,38562.4,0.199059,0.198759,0.978547,20,0.0143303,10,0.000194495,-3.00942,-0.972553,-0.0606651,-2.31467,0.198759,
2,1,0,1,0,38562.5,0.200557,0.200242,0.975273,20,0.0144047,10,0.000195291,-3.01087,-0.828574,-0.0712067,-2.70761,0.200242,
2,1,0,1,0,38562.6,0.202057,0.201762,0.972887,20,0.014479,10,0.000196292,-3.01194,-0.792735,-0.0744259,-2.82082,0.201762,
2,1,0,1,0,38562.7,0.203552,0.203237,0.968856,20,0.0145528,10,0.000196907,-3.01374,-1.06697,-0.0552969,-2.09558,0.203237,
2,1,0,1,0,38562.7,0.205052,0.204699,0.964528,20,0.0146264,10,0.000197438,-3.01569,-4.51114,-0.0130787,-0.495628,0.204699,
2,1,0,1,0,38562.8,0.20655,0.206194,0.964714,20,0.0147,10,0.000198918,-3.0156,-2.30097,-0.0256414,-0.964005,0.2061941,
2,1,0,1,0,38562.9,0.208048,0.207728,0.963663,20,0.0147736,10,0.00020018,-3.01607,-1.35616,-0.0435053,-1.63328,0.207728,
2,1,0,1,0,38563,0.209546,0.20925,0.959417,20,0.0148468,10,0.000200758,-3.01799,-0.755881,-0.0780546,-2.93013,0.20925,
2,1,0,1,0,38563,0.211044,0.210702,0.957212,20,0.0149197,10,0.000201686,-3.01899,-1.50616,-0.0391725,-1.46205,0.210702,
2,1,0,1,0,38563.1,0.212543,0.212206,0.956398,20,0.0149926,10,0.000202953,-3.01936,-1.32886,-0.0443988,-1.65383,0.212206,
2,1,0,1,0,38563.2,0.214041,0.213789,0.955146,20,0.0150653,10,0.0002042,-3.01993,-1.96263,-0.0300617,-1.11968,0.213789,
2,1,0,1,0,38563.3,0.215539,0.215192,0.952119,20,0.0151378,10,0.000204888,-3.02131,-1.81643,-0.0324813,-1.20779,0.215192,
2,1,0,1,0,38563.3,0.217037,0.216726,0.946774,20,0.0152101,10,0.000205191,-3.02375,-1.87603,-0.0314493,-1.1648,0.216726,
2,1,0,1,0,38563.4,0.218536,0.218213,0.946194,20,0.0152824,10,0.000206472,-3.02402,37.3933,0.00157782,0.0584,0.218213,
2,1,0,1,0,38563.5,0.220032,0.219709,0.950049,20,0.0153545,10,0.000208735,-3.02225,-6.69432,-0.00881345,-0.325917,0.219709,
2,1,0,1,0,38563.6,0.221532,0.221205,0.945272,20,0.0154266,10,0.000209099,-3.02444,-1.38092,-0.0427252,-1.57774,0.221205,
2,1,0,1,0,38563.6,0.22303,0.222713,0.93975,20,0.0154984,10,0.000209295,-3.02699,-1.54801,-0.0381135,-1.40099,0.222713,
2,1,0,1,0,38563.7,0.224528,0.224207,0.941527,20,0.0155701,10,0.000211097,-3.02617,-2.98214,-0.0197844,-0.727127,0.224207,
2,1,0,1,0,38563.8,0.226026,0.225744,0.938744,20,0.0156417,10,0.000211916,-3.02745,-2.31458,-0.0254906,-0.934569,0.225744,
2,1,0,1,0,38563.9,0.227525,0.22721,0.936599,20,0.0157132,10,0.000212805,-3.02845,-1.28265,-0.0459986,-1.68318,0.22721,
2,1,0,1,0,38563.9,0.229023,0.228693,0.93664,20,0.0157846,10,0.000214203,-3.02843,-1.87774,-0.0314207,-1.1479,0.228693,
2,1,0,1,0,38564,0.230521,0.230145,0.934607,20,0.0158558,10,0.000215095,-3.02937,-3.73871,-0.0157808,-0.576753,0.230145,
2,1,0,1,0,38564.1,0.232019,0.231693,0.933418,20,0.0159269,10,0.000216266,-3.02992,-4.20906,-0.0140174,-0.511033,0.231693,
2,1,0,1,0,38564.2,0.233517,0.233164,0.933802,20,0.0159981,10,0.000217729,-3.02975,-2.33682,-0.025248,-0.918545,0.233164,
2,1,0,1,0,38564.2,0.235016,0.234742,0.931806,20,0.0160692,10,0.000218734,-3.03067,-2.57759,-0.0228896,-0.832013,0.234742,
2,1,0,1,0,38564.3,0.236512,0.236155,0.929263,20,0.0161398,10,0.00021945,-3.03186,-2.36275,-0.0249709,-0.906684,0.236155,
2,1,0,1,0,38564.4,0.238012,0.23771,0.928731,20,0.0162107,10,0.000220768,-3.03211,6.76531,0.00872096,0.315847,0.23771,
2,1,0,1,0,38564.5,0.23951,0.239172,0.927812,20,0.0162814,10,0.000221907,-3.03254,-1.91281,-0.0308447,-1.11506,0.2391721,
2,1,0,1,0,38564.5,0.241008,0.2407,0.924341,20,0.016352,10,0.000222489,-3.03417,-2.12425,-0.0277746,-1.00305,0.2407,
2,1,0,1,0,38564.6,0.242506,0.242171,0.921891,20,0.0164224,10,0.000223255,-3.03532,-2.48266,-0.0237648,-0.857623,0.242171,
2,1,0,1,0,38564.7,0.244005,0.243687,0.922246,20,0.0164928,10,0.000224739,-3.03515,-2.83739,-0.0207937,-0.74947,0.243687,
2,1,0,1,0,38564.8,0.245503,0.245218,0.924509,20,0.0165631,10,0.000226706,-3.03409,-5.60149,-0.0105329,-0.379271,0.245218,
2,1,0,1,0,38564.8,0.247001,0.246669,0.921201,20,0.0166333,10,0.000227232,-3.03565,-2.84139,-0.0207645,-0.745103,0.246669,
2,1,0,1,0,38564.9,0.248501,0.248183,0.917372,20,0.0167035,10,0.000227676,-3.03745,-2.18222,-0.0270367,-0.968794,0.248183,
2,1,0,1,0,38565,0.249997,0.249649,0.919498,20,0.0167734,10,0.000229551,-3.03645,-2.56704,-0.0229836,-0.823127,0.249649,
2,1,0,1,0,38565.1,0.251496,0.251193,0.917849,20,0.0168434,10,0.000230557,-3.03723,-4.53535,-0.0130089,-0.465671,0.251193,
2,1,0,1,0,38565.1,0.252994,0.25266,0.914673,20,0.0169132,10,0.000231101,-3.03873,-1.74365,-0.033837,-1.20682,0.2526598,
2,1,0,1,0,38565.2,0.254492,0.254171,0.913188,20,0.016983,10,0.000232106,-3.03944,-2.40192,-0.0245637,-0.875975,0.254171,
2,1,0,1,0,38565.3,0.25599,0.255668,0.911847,20,0.0170525,10,0.00023313,-3.04008,-4.0699,-0.0144967,-0.51711,0.255668,
2,1,0,1,0,38565.4,0.257488,0.257152,0.912431,20,0.017122,10,0.000234633,-3.0398,-2.92915,-0.0201424,-0.716494,0.257152,
2,1,0,1,0,38565.4,0.258987,0.258688,0.911033,20,0.0171915,10,0.000235674,-3.04047,-2.00849,-0.0293752,-1.04224,0.2586883,
2,1,0,1,0,38565.5,0.260485,0.260186,0.909072,20,0.0172609,10,0.000236528,-3.0414,-1.62759,-0.03625,-1.28603,0.260186,
2,1,0,1,0,38565.6,0.261983,0.261662,0.907305,20,0.01733,10,0.000237407,-3.04225,-2.30295,-0.0256193,-0.907009,0.261662,
2,1,0,1,0,38565.7,0.263481,0.263193,0.908236,20,0.0173991,10,0.000239041,-3.0418,-4.22255,-0.0139726,-0.494235,0.263193,
2,1,0,1,0,38565.7,0.264981,0.264664,0.905688,20,0.0174683,10,0.000239703,-3.04302,-2.59642,-0.0227236,-0.804004,0.264664,
2,1,0,1,0,38565.8,0.266476,0.266172,0.902791,20,0.0175372,10,0.000240298,-3.04441,-1.49805,-0.0393846,-1.38999,0.266172,
2,1,0,1,0,38565.9,0.267976,0.267637,0.899177,20,0.0176061,10,0.000240653,-3.04615,-1.98721,-0.0296899,-1.04552,0.267637,
2,1,0,1,0,38566,0.269474,0.269182,0.901161,20,0.0176747,10,0.000242577,-3.0452,-11.4189,-0.00516687,-0.181686,0.269182,
2,1,0,1,0,38566,0.270972,0.270656,0.901902,20,0.0177434,10,0.000244105,-3.04484,-1.72184,-0.0342657,-1.20227,0.270656,
2,1,0,1,0,38566.1,0.27247,0.272161,0.899273,20,0.0178121,10,0.000244747,-3.04611,-1.90705,-0.0309378,-1.08335,0.2721608,
2,1,0,1,0,38566.2,0.273968,0.273667,0.894972,20,0.0178805,10,0.000244924,-3.04819,-2.27905,-0.0258879,-0.906135,0.2736671,
2,1,0,1,0,38566.3,0.275467,0.275165,0.894484,20,0.0179488,10,0.000246131,-3.04843,-1.44612,-0.0407988,-1.42564,0.275165,
2,1,0,1,0,38566.3,0.276965,0.276704,0.894212,20,0.0180169,10,0.000247432,-3.04856,-2.83088,-0.0208416,-0.726636,0.276704,
2,1,0,1,0,38566.4,0.278463,0.278158,0.892916,20,0.0180851,10,0.000248371,-3.04919,-1.21096,-0.0487217,-1.69406,0.278158,
2,1,0,1,0,38566.5,0.279961,0.27964,0.891387,20,0.0181531,10,0.000249268,-3.04993,-1.50582,-0.0391812,-1.3618,0.27964,
2,1,0,1,0,38566.6,0.28146,0.28113,0.888296,20,0.0182209,10,0.000249727,-3.05144,-2.29441,-0.0257147,-0.892443,0.28113,
2,1,0,1,0,38566.6,0.282956,0.282631,0.887926,20,0.0182885,10,0.000250955,-3.05162,43.4517,0.00135783,0.0469978,0.282631,
2,1,0,1,0,38566.7,0.284456,0.284136,0.885535,20,0.0183562,10,0.000251612,-3.05279,-5.49369,-0.0107396,-0.371209,0.284136,
2,1,0,1,0,38566.8,0.285954,0.285624,0.884953,20,0.0184238,10,0.000252764,-3.05308,-1.27717,-0.0461958,-1.59283,0.285624,
2,1,0,1,0,38566.9,0.287452,0.28714,0.882265,20,0.0184911,10,0.000253334,-3.0544,-1.23603,-0.0477335,-1.64252,0.28714,
2,1,0,1,0,38566.9,0.28895,0.288616,0.880186,20,0.0185583,10,0.000254036,-3.05543,-157.602,-0.000374361,-0.0128506,0.288616,
2,1,0,1,0,38567,0.290449,0.290145,0.879358,20,0.0186255,10,0.000255141,-3.05583,-1.00068,-0.0589599,-2.02428,0.290145,
2,1,0,1,0,38567.1,0.291947,0.291643,0.877159,20,0.0186926,10,0.000255817,-3.05692,-1.80766,-0.0326389,-1.11931,0.291643,
2,1,0,1,0,38567.2,0.293445,0.293138,0.873158,20,0.0187594,10,0.000255956,-3.05891,-1.30306,-0.045278,-1.54994,0.293138,
2,1,0,1,0,38567.2,0.294943,0.294613,0.875091,20,0.0188261,10,0.000257813,-3.05795,-4.65199,-0.0126828,-0.432959,0.294613,
2,1,0,1,0,38567.3,0.296441,0.296143,0.875212,20,0.0188927,10,0.000259188,-3.05789,-2.95702,-0.0199525,-0.678239,0.296143,
2,1,0,1,0,38567.4,0.29794,0.297664,0.87242,20,0.0189594,10,0.000259688,-3.05927,-1.21517,-0.0485527,-1.6451,0.297664,
2,1,0,1,0,38567.5,0.299436,0.299157,0.867101,20,0.0190257,10,0.0002594,-3.06193,-0.00359412,-16.4157,-331.479,0.299157,
2,1,0,1,0,38567.5,0.299739,0.299455,0.5607,20,0.0190593,10,0.000167904,-3.25127,0.000691372,85.3376,756.266,0.299455,
2,1,0,1,0,38567.6,0.298239,0.29794,0.0420037,20,0.0190753,10,1.25146e-05,-4.37671,0.00434628,13.5748,254.333,0.29794,
2,0,0,1,0,38567.7,0.296741,0.296426,-0.0846527,20,0.0190717,10,-2.50933e-05,-4.07236,-0.0391955,-1.50527,72.0213,0.296426,
2,0,0,1,0,38567.7,0.295243,0.294888,-0.145902,20,0.0190616,10,-4.30248e-05,-3.83594,-0.00731265,-8.06821,34.4199,0.294888,
2,0,0,1,0,38567.8,0.293745,0.293382,-0.182315,20,0.0190479,10,-5.34881e-05,-3.73918,-0.0169073,-3.48961,23.2312,0.293382,
2,0,0,1,0,38567.9,0.292246,0.291915,-0.210438,20,0.0190319,10,-6.143e-05,-3.67688,-0.0254886,-2.31476,18.4758,0.291915,
2,0,0,1,0,38568,0.290748,0.290432,-0.237841,20,0.0190138,10,-6.90767e-05,-3.62371,-0.0351103,-1.68042,15.2387,0.290432,
2,0,0,1,0,38568,0.28925,0.288922,-0.259571,20,0.018994,10,-7.49957e-05,-3.58574,-0.0467514,-1.26199,12.5906,0.288922,
2,0,0,1,0,38568.1,0.287752,0.287455,-0.276135,20,0.0189728,10,-7.93765e-05,-3.55888,-0.0609263,-0.968383,10.3377,0.287455,
2,0,0,1,0,38568.2,0.286254,0.285959,-0.28894,20,0.0189504,10,-8.26252e-05,-3.53919,-0.0651488,-0.905619,10.263,0.285959,
2,0,0,1,0,38568.3,0.284754,0.284443,-0.306153,20,0.0189268,10,-8.70832e-05,-3.51406,-0.0713391,-0.827036,9.819,0.284443,
2,0,0,1,0,38568.3,0.283259,0.282955,-0.32164,20,0.0189021,10,-9.10097e-05,-3.49263,-0.0877887,-0.672068,8.36548,0.282955,
2,0,0,1,0,38568.4,0.281759,0.281428,-0.3338,20,0.0188763,10,-9.39407e-05,-3.47651,-0.100942,-0.584494,7.51394,0.281428,
2,0,0,1,0,38568.5,0.280261,0.279903,-0.340867,20,0.0188496,10,-9.54097e-05,-3.46741,-0.0990592,-0.595603,7.96551,0.279903,
2,0,0,1,0,38568.6,0.278763,0.27843,-0.356895,20,0.0188222,10,-9.93702e-05,-3.44746,-0.127924,-0.46121,6.4183,0.2784301,
2,0,0,1,0,38568.6,0.277264,0.276917,-0.367032,20,0.0187939,10,-0.000101637,-3.4353,-0.119399,-0.494141,7.07178,0.276917,
2,0,0,1,0,38568.7,0.275766,0.275442,-0.378071,20,0.0187648,10,-0.000104137,-3.42243,-0.143527,-0.411073,6.01837,0.275442,
2,0,0,1,0,38568.8,0.274268,0.273935,-0.387127,20,0.0187349,10,-0.000106048,-3.41215,-0.138334,-0.426503,6.42998,0.273935,
2,0,0,1,0,38568.9,0.27277,0.272435,-0.396897,20,0.0187044,10,-0.000108128,-3.40132,-0.158638,-0.371916,5.77701,0.272435,
2,0,0,1,0,38568.9,0.271272,0.270968,-0.406439,20,0.0186731,10,-0.000110132,-3.391,-0.136432,-0.432451,6.83252,0.270968,
2,0,0,1,0,38569,0.269774,0.269459,-0.415226,20,0.0186411,10,-0.000111886,-3.38171,-0.172341,-0.342345,5.51329,0.269459,
2,0,0,1,0,38569.1,0.268274,0.267952,-0.422586,20,0.0186085,10,-0.000113233,-3.37408,-0.190499,-0.309713,5.09138,0.267952,
2,0,0,1,0,38569.2,0.266779,0.266417,-0.43011,20,0.0185754,10,-0.000114589,-3.36642,-0.17623,-0.33479,5.63228,0.266417,
2,0,0,1,0,38569.2,0.265279,0.265002,-0.439591,20,0.0185417,10,-0.000116493,-3.35695,-0.179962,-0.327847,5.58329,0.265002,
2,0,0,1,0,38569.3,0.263781,0.263434,-0.444333,20,0.0185073,10,-0.000117052,-3.35229,-0.196498,-0.300257,5.22004,0.263434,
2,0,0,1,0,38569.4,0.262283,0.261948,-0.452523,20,0.0184723,10,-0.000118538,-3.34436,-0.245176,-0.240644,4.24207,0.2619482,
2,0,0,1,0,38569.5,0.260784,0.260493,-0.45898,20,0.0184369,10,-0.000119561,-3.33821,-0.237101,-0.248839,4.46442,0.260493,
2,0,0,1,0,38569.5,0.259286,0.258971,-0.465986,20,0.018401,10,-0.000120677,-3.33163,-0.195802,-0.301325,5.48572,0.258971,
2,0,0,1,0,38569.6,0.257788,0.257459,-0.475827,20,0.0183644,10,-0.000122506,-3.32255,-0.264869,-0.222751,4.12629,0.257459,
2,0,0,1,0,38569.7,0.25629,0.255961,-0.480769,20,0.0183272,10,-0.000123058,-3.31806,-0.322738,-0.182811,3.4198,0.255961,
2,0,0,1,0,38569.8,0.25479,0.254444,-0.488454,20,0.0182896,10,-0.000124284,-3.31118,-0.272342,-0.21664,4.12907,0.254444,
2,0,0,1,0,38569.8,0.253294,0.25294,-0.495497,20,0.0182518,10,-0.000125331,-3.30496,-0.277514,-0.212602,4.11031,0.25294,
2,0,0,1,0,38569.9,0.251795,0.251417,-0.500928,20,0.0182132,10,-0.000125942,-3.30022,-0.296191,-0.199196,3.89122,0.251417,
2,0,0,1,0,38570,0.250297,0.249988,-0.508042,20,0.0181741,10,-0.000127004,-3.2941,-0.323399,-0.182437,3.60272,0.2499876,
2,0,0,1,0,38570.1,0.248799,0.248463,-0.51519,20,0.0181346,10,-0.000128006,-3.28803,-0.326405,-0.180757,3.61913,0.248463,
2,0,0,1,0,38570.1,0.247301,0.24698,-0.520634,20,0.0180948,10,-0.000128586,-3.28347,-0.295431,-0.199708,4.05467,0.24698,
2,0,0,1,0,38570.2,0.245802,0.245502,-0.526388,20,0.0180545,10,-0.000129229,-3.27869,-0.348376,-0.169357,3.45457,0.245502,
2,0,0,1,0,38570.3,0.244304,0.244006,-0.530664,20,0.0180136,10,-0.000129485,-3.27518,-0.2741,-0.21525,4.45909,0.244006,
2,0,0,1,0,38570.4,0.242806,0.242499,-0.536857,20,0.0179724,10,-0.000130187,-3.27014,-0.409357,-0.144128,3.02272,0.242499,
2,0,0,1,0,38570.4,0.241308,0.240988,-0.540897,20,0.0179308,10,-0.00013035,-3.26689,-0.309434,-0.190671,4.03579,0.240988,
2,0,0,1,0,38570.5,0.23981,0.239469,-0.547168,20,0.0178888,10,-0.00013103,-3.26188,-0.284026,-0.207728,4.42511,0.239469,
2,0,0,1,0,38570.6,0.23831,0.237982,-0.555627,20,0.0178462,10,-0.000132229,-3.25522,-0.355394,-0.166013,3.59279,0.237982,
2,0,0,1,0,38570.7,0.236815,0.236465,-0.558914,20,0.0178033,10,-0.000132163,-3.25266,-0.395066,-0.149342,3.26217,0.236465,
2,0,0,1,0,38570.7,0.235315,0.234999,-0.561419,20,0.0177599,10,-0.000131933,-3.25071,-0.37321,-0.158088,3.48415,0.234999,
2,0,0,1,0,38570.8,0.233817,0.233533,-0.566815,20,0.0177162,10,-0.00013237,-3.24656,-0.330262,-0.178646,3.97531,0.233533,
2,0,0,1,0,38570.9,0.232319,0.23196,-0.574654,20,0.0176721,10,-0.000133297,-3.24059,-0.384578,-0.153415,3.43936,0.23196,
2,0,0,1,0,38571,0.230821,0.230493,-0.581815,20,0.0176275,10,-0.000134104,-3.23522,-0.556433,-0.106033,2.39541,0.2304932,
2,0,0,1,0,38571,0.229322,0.229006,-0.584499,20,0.0175826,10,-0.000133854,-3.23322,-0.398989,-0.147874,3.37899,0.229006,
2,0,0,1,0,38571.1,0.227824,0.22751,-0.588839,20,0.0175373,10,-0.000133967,-3.23,-0.45053,-0.130957,3.02069,0.22751,
2,0,0,1,0,38571.2,0.226326,0.226033,-0.596707,20,0.0174916,10,-0.000134875,-3.22424,-0.34476,-0.171133,3.98854,0.226033,
2,0,0,1,0,38571.3,0.224828,0.224487,-0.602641,20,0.0174455,10,-0.000135285,-3.21994,-0.512943,-0.115023,2.69107,0.224487,
2,0,0,1,0,38571.3,0.22333,0.222998,-0.607951,20,0.017399,10,-0.000135572,-3.21613,-0.45099,-0.130823,3.09466,0.222998,
2,0,0,1,0,38571.4,0.22183,0.221528,-0.610561,20,0.0173522,10,-0.000135257,-3.21427,-0.359854,-0.163955,3.9057,0.221528,
2,0,0,1,0,38571.5,0.220335,0.220007,-0.617914,20,0.017305,10,-0.000135946,-3.20907,-0.393558,-0.149914,3.61142,0.220007,
2,0,0,1,0,38571.6,0.218835,0.218519,-0.623003,20,0.0172572,10,-0.000136138,-3.20551,-0.389958,-0.151298,3.67286,0.218519,
2,0,0,1,0,38571.6,0.217337,0.217024,-0.626036,20,0.0172092,10,-0.000135865,-3.2034,-0.627614,-0.0940068,2.30659,0.217024,
2,0,0,1,0,38571.7,0.215839,0.215527,-0.630013,20,0.0171609,10,-0.000135785,-3.20065,-0.495553,-0.119059,2.93055,0.215527,
2,0,0,1,0,38571.8,0.21434,0.213994,-0.636627,20,0.0171122,10,-0.000136234,-3.19612,-0.350039,-0.168553,4.18274,0.213994,
2,0,0,1,0,38571.9,0.212842,0.212522,-0.641724,20,0.0170631,10,-0.00013638,-3.19265,-0.500662,-0.117844,2.96076,0.212522,
2,0,0,1,0,38571.9,0.211344,0.211014,-0.647769,20,0.0170135,10,-0.000136688,-3.18858,-0.426098,-0.138466,3.48795,0.211014,
2,0,0,1,0,38572,0.209846,0.209502,-0.6488,20,0.0169637,10,-0.000135925,-3.18789,-0.515477,-0.114457,2.91299,0.209502,
2,0,0,1,0,38572.1,0.208348,0.208036,-0.656991,20,0.0169135,10,-0.000136678,-3.18244,-0.331141,-0.178172,4.57938,0.208036,
2,0,0,1,0,38572.2,0.20685,0.206559,-0.666211,20,0.0168628,10,-0.000137612,-3.17639,-0.39509,-0.149333,3.86258,0.206559,
2,0,0,1,0,38572.2,0.20535,0.204981,-0.668553,20,0.0168115,10,-0.000137041,-3.17486,-0.614682,-0.0959846,2.4934,0.204981,
2,0,0,1,0,38572.3,0.203855,0.203534,-0.671587,20,0.01676,10,-0.000136691,-3.1729,-0.499526,-0.118112,3.10215,0.203534,
2,0,0,1,0,38572.4,0.202355,0.202043,-0.678263,20,0.0167083,10,-0.000137039,-3.1686,-0.460263,-0.128188,3.39398,0.202043,
2,0,0,1,0,38572.5,0.200857,0.200518,-0.68173,20,0.016656,10,-0.000136699,-3.16639,-0.382624,-0.154198,4.10945,0.200518,
2,0,0,1,0,38572.5,0.199359,0.199042,-0.688696,20,0.0166033,10,-0.000137079,-3.16197,-0.470257,-0.125463,3.36729,0.1990416,
2,0,0,1,0,38572.6,0.19786,0.197511,-0.695471,20,0.0165502,10,-0.000137363,-3.15772,-0.509876,-0.115714,3.13587,0.197511,
2,0,0,1,0,38572.7,0.196362,0.196066,-0.700574,20,0.0164968,10,-0.000137359,-3.15455,-0.476809,-0.123739,3.38209,0.196066,
2,0,0,1,0,38572.8,0.194864,0.194538,-0.706906,20,0.0164429,10,-0.00013752,-3.15064,-0.330121,-0.178722,4.92112,0.194538,
2,0,0,1,0,38572.8,0.193366,0.193042,-0.713449,20,0.0163884,10,-0.000137726,-3.14664,-0.369952,-0.15948,4.43285,0.193042,
2,0,0,1,0,38572.9,0.191866,0.191526,-0.717674,20,0.0163335,10,-0.000137453,-3.14407,-0.533165,-0.11066,3.09859,0.191526,
2,0,0,1,0,38573,0.19037,0.190047,-0.722367,20,0.0162783,10,-0.000137284,-3.14124,-0.418305,-0.141045,3.9925,0.190047,
2,0,0,1,0,38573.1,0.188871,0.188514,-0.72916,20,0.0162226,10,-0.000137457,-3.13718,-0.333179,-0.177082,5.05404,0.188514,
2,0,0,1,0,38573.1,0.187373,0.187054,-0.737301,20,0.0161664,10,-0.000137915,-3.13236,-0.423456,-0.13933,3.99702,0.187054,
2,0,0,1,0,38573.2,0.185875,0.185588,-0.742927,20,0.0161097,10,-0.000137878,-3.12905,-0.427625,-0.137971,3.99142,0.185588,
2,0,0,1,0,38573.3,0.184377,0.184024,-0.747009,20,0.0160526,10,-0.000137468,-3.12667,-0.387071,-0.152427,4.45448,0.184024,
2,0,0,1,0,38573.4,0.182878,0.18254,-0.755822,20,0.015995,10,-0.000137968,-3.12158,-0.386845,-0.152516,4.50598,0.18254,
2,0,0,1,0,38573.4,0.18138,0.181068,-0.763793,20,0.0159368,10,-0.000138298,-3.11702,-0.343505,-0.171759,5.13038,0.181068,
2,0,0,1,0,38573.5,0.179882,0.179554,-0.770177,20,0.0158781,10,-0.000138289,-3.11341,-0.501599,-0.117624,3.5279,0.1795544,
2,0,0,1,0,38573.6,0.178384,0.178034,-0.778977,20,0.0158187,10,-0.000138685,-3.10848,-0.376604,-0.156663,4.76874,0.178034,
2,0,0,1,0,38573.7,0.176886,0.176584,-0.785737,20,0.0157591,10,-0.000138749,-3.10472,-0.36508,-0.161608,4.97328,0.176584,
2,0,0,1,0,38573.7,0.175386,0.175043,-0.794828,20,0.0156986,10,-0.000139129,-3.09973,-0.294379,-0.200422,6.21603,0.175043,
2,0,0,1,0,38573.8,0.173891,0.173554,-0.803641,20,0.0156374,10,-0.000139475,-3.09494,-0.269072,-0.219272,6.86709,0.173554,
2,0,0,1,0,38573.9,0.172391,0.172048,-0.812357,20,0.0155756,10,-0.000139765,-3.09025,-0.32419,-0.181992,5.78245,0.172048,
2,0,0,1,0,38574,0.170893,0.170558,-0.818982,20,0.0155132,10,-0.000139684,-3.08673,-0.274915,-0.214612,6.87887,0.170558,
2,0,0,1,0,38574,0.169395,0.169098,-0.83222,20,0.01545,10,-0.000140727,-3.07976,-0.23497,-0.251096,8.14462,0.169098,
2,0,0,1,0,38574.1,0.167897,0.16757,-0.842688,20,0.0153859,10,-0.000141209,-3.07433,-0.244805,-0.241008,7.9407,0.16757,
2,0,0,1,0,38574.2,0.166398,0.166084,-0.854822,20,0.015321,10,-0.000141973,-3.06812,-0.275596,-0.214082,7.14708,0.166084,
2,0,0,1,0,38574.2,0.1649,0.164538,-0.863501,20,0.0152553,10,-0.000142079,-3.06374,-0.256827,-0.229727,7.78095,0.164538,
2,0,0,1,0,38574.3,0.163402,0.163103,-0.878877,20,0.0151888,10,-0.000143348,-3.05607,-0.220738,-0.267286,9.18796,0.1631031,
2,0,0,1,0,38574.4,0.161904,0.161593,-0.894332,20,0.0151211,10,-0.000144518,-3.0485,-0.20313,-0.290454,10.1388,0.161593,
2,0,0,1,0,38574.5,0.160406,0.16006,-0.910858,20,0.0150523,10,-0.000145792,-3.04055,-0.216219,-0.272871,9.68179,0.16006,
2,0,0,1,0,38574.5,0.158906,0.158589,-0.92305,20,0.0149822,10,-0.000146385,-3.03477,-0.176743,-0.333819,12.0804,0.158589,
2,0,0,1,0,38574.6,0.157411,0.157117,-0.944065,20,0.0149112,10,-0.000148329,-3.025,-0.166439,-0.354483,13.0877,0.157117,
2,0,0,1,0,38574.7,0.155911,0.155609,-0.964005,20,0.0148383,10,-0.000150008,-3.01592,-0.148482,-0.397355,14.9849,0.155609,
2,0,0,1,0,38574.8,0.154413,0.154099,-0.985731,20,0.0147639,10,-0.0001519,-3.00624,-0.150111,-0.393044,15.1203,0.1540986,
2,0,0,1,0,38574.8,0.152915,0.152583,-1.01114,20,0.0146878,10,-0.000154282,-2.99519,-0.142984,-0.412635,16.3397,0.152583,
2,0,0,1,0,38574.9,0.151417,0.151131,-1.03551,20,0.01461,10,-0.000156498,-2.98484,-0.123856,-0.47636,19.348,0.151131,
2,0,0,1,0,38575,0.149918,0.149598,-1.06999,20,0.0145298,10,-0.000160069,-2.97062,-0.111094,-0.531083,22.1512,0.149598,
2,0,0,1,0,38575.1,0.14842,0.148102,-1.10385,20,0.0144472,10,-0.000163482,-2.95709,-0.107115,-0.550808,23.7738,0.1481017,
2,0,0,1,0,38575.1,0.146922,0.146586,-1.14192,20,0.0143619,10,-0.00016739,-2.94236,-0.0986288,-0.598202,26.658,0.146586,
2,0,0,1,0,38575.2,0.145424,0.145091,-1.17964,20,0.0142738,10,-0.000171156,-2.92825,-0.09251,-0.637769,29.5123,0.145091,
2,0,0,1,0,38575.3,0.143926,0.143626,-1.2256,20,0.0141823,10,-0.000176028,-2.91165,-0.0837522,-0.704459,33.7997,0.143626,
2,0,0,1,0,38575.4,0.142426,0.142087,-1.27996,20,0.0140869,10,-0.000181865,-2.8928,-0.0833894,-0.707524,35.4015,0.1420871,
2,0,0,1,0,38575.4,0.140931,0.14061,-1.33475,20,0.0139878,10,-0.000187679,-2.8746,-0.083277,-0.708479,36.9238,0.14061,
2,0,0,1,0,38575.5,0.139431,0.1391,-1.38404,20,0.0138844,10,-0.00019252,-2.85885,-0.081057,-0.727883,39.5428,0.1391,
2,0,0,1,0,38575.6,0.137933,0.137622,-1.45077,20,0.0137768,10,-0.000199657,-2.8384,-0.0822485,-0.717338,40.6102,0.137622,
2,0,0,1,0,38575.7,0.136435,0.136104,-1.51639,20,0.0136644,10,-0.000206387,-2.81919,-0.0820993,-0.718642,42.4615,0.136104,
2,0,0,1,0,38575.7,0.134936,0.134582,-1.57724,20,0.0135472,10,-0.000212268,-2.8021,-0.0861174,-0.685111,42.1412,0.134582,
2,0,0,1,0,38575.8,0.133438,0.133148,-1.64051,20,0.0134252,10,-0.000218431,-2.78502,-0.0878393,-0.671681,43.0092,0.133148,
2,0,0,1,0,38575.9,0.13194,0.131596,-1.70471,20,0.0132986,10,-0.000224332,-2.76835,-0.0919945,-0.641343,42.713,0.131596,
2,0,0,1,0,38576,0.130442,0.130144,-1.7696,20,0.013167,10,-0.000230303,-2.75213,-0.0979773,-0.602181,41.4845,0.1301444,
2,0,0,1,0,38576,0.128942,0.128657,-1.83299,20,0.0130305,10,-0.000235828,-2.73684,-0.107912,-0.546742,38.9241,0.128657,
2,0,0,1,0,38576.1,0.127446,0.127103,-1.88667,20,0.0128901,10,-0.000239801,-2.7243,-0.117365,-0.502705,36.9614,0.127103,
2,0,0,1,0,38576.2,0.125947,0.125616,-1.94233,20,0.0127453,10,-0.000243988,-2.71168,-0.12286,-0.480222,36.3148,0.125616,
2,0,0,1,0,38576.3,0.124449,0.124116,-1.99398,20,0.0125965,10,-0.000247486,-2.70028,-0.132313,-0.445914,34.6064,0.124116,
2,0,0,1,0,38576.3,0.122951,0.122635,-2.04334,20,0.012444,10,-0.000250585,-2.68966,-0.150255,-0.392666,31.2178,0.122635,
2,0,0,1,0,38576.4,0.121453,0.121145,-2.08595,20,0.0122881,10,-0.000252702,-2.6807,-0.176277,-0.334701,27.1625,0.121145,
2,0,0,1,0,38576.5,0.119955,0.119651,-2.11963,20,0.0121291,10,-0.000253616,-2.67374,-0.206393,-0.285863,23.6363,0.119651,
2,0,0,1,0,38576.6,0.118456,0.118153,-2.15666,20,0.0119675,10,-0.000254817,-2.66622,-0.214396,-0.275192,23.1412,0.1181531,
2,0,0,1,0,38576.6,0.116958,0.116656,-2.19351,20,0.0118032,10,-0.000255885,-2.65886,-0.274071,-0.215272,18.3419,0.116656,
2,0,0,1,0,38576.7,0.11546,0.115113,-2.21469,20,0.0116368,10,-0.000254939,-2.65469,-0.373516,-0.157959,13.6124,0.115113,
2,0,0,1,0,38576.8,0.113962,0.113628,-2.2302,20,0.0114689,10,-0.000253413,-2.65166,-0.528114,-0.111718,9.71263,0.113628,
2,0,0,1,0,38576.9,0.112462,0.112149,-2.24736,20,0.0112997,10,-0.000252039,-2.64833,-0.679622,-0.086813,7.59843,0.112149,
2,0,0,1,0,38576.9,0.110967,0.110658,-2.25552,20,0.0111299,10,-0.00024959,-2.64675,-0.921897,-0.0639984,5.62915,0.110658,
2,0,0,1,0,38577,0.109467,0.109162,-2.26005,20,0.0109591,10,-0.000246711,-2.64588,-3.33405,-0.0176962,1.55721,0.109162,
2,0,0,1,0,38577.1,0.107969,0.107691,-2.2631,20,0.0107882,10,-0.000243715,-2.6453,4.09111,0.0144215,-1.27098,0.107691,
2,0,0,1,0,38577.2,0.106471,0.106154,-2.25924,20,0.0106177,10,-0.000239828,-2.64604,1.5148,0.038949,-3.42963,0.106154,
2,0,0,1,0,38577.2,0.104973,0.104621,-2.25037,20,0.0104474,10,-0.000235436,-2.64775,1.20484,0.048969,-4.29963,0.104621,
2,0,0,1,0,38577.3,0.103474,0.103126,-2.2453,20,0.0102776,10,-0.000231549,-2.64872,0.704869,0.0837035,-7.32002,0.103126,
2,0,0,1,0,38577.4,0.101976,0.101609,-2.23133,20,0.0101086,10,-0.000226724,-2.65144,0.518861,0.113711,-9.89118,0.101609,
2,0,0,1,0,38577.5,0.100478,0.100187,-2.21726,20,0.0099408,10,-0.000222141,-2.65418,0.52619,0.112127,-9.69641,0.1001872,
2,0,0,1,0,38577.5,0.0989799,0.0986531,-2.20419,20,0.00977407,10,-0.00021745,-2.65675,0.545691,0.10812,-9.28636,0.09865313,
2,0,0,1,0,38577.6,0.0974817,0.0971542,-2.18919,20,0.00960838,10,-0.000212689,-2.65972,0.462036,0.127696,-10.894,0.0971542,
2,0,0,1,0,38577.7,0.0959821,0.0956235,-2.16803,20,0.0094436,10,-0.000207315,-2.66394,0.444623,0.132697,-11.2332,0.0956235,
2,0,0,1,0,38577.8,0.0944866,0.0941676,-2.14964,20,0.00928068,10,-0.000202426,-2.66763,0.42993,0.137232,-11.5356,0.09416762,
2,0,0,1,0,38577.8,0.0929871,0.0926636,-2.13409,20,0.00911861,10,-0.000197752,-2.67079,0.539154,0.109431,-9.1329,0.0926636,
2,0,0,1,0,38577.9,0.0914889,0.0911706,-2.12458,20,0.00895775,10,-0.000193699,-2.67273,0.520846,0.113277,-9.38747,0.0911706,
2,0,0,1,0,38578,0.0899907,0.0895993,-2.10878,20,0.00879794,10,-0.000188946,-2.67597,0.40777,0.144689,-11.8929,0.0895993,
2,0,0,1,0,38578.1,0.0884925,0.08819,-2.09037,20,0.00863925,10,-0.00018435,-2.67978,0.495446,0.119085,-9.7248,0.08819,
2,0,0,1,0,38578.1,0.0869943,0.0867002,-2.08054,20,0.00848188,10,-0.000180383,-2.68182,0.514806,0.114606,-9.30715,0.0867002,
2,0,0,1,0,38578.2,0.0854961,0.085115,-2.06681,20,0.00832537,10,-0.000175916,-2.6847,0.55478,0.106348,-8.57521,0.085115,
2,0,0,1,0,38578.3,0.083998,0.0836969,-2.05297,20,0.00816973,10,-0.000171827,-2.68762,0.509188,0.115871,-9.27871,0.0836969,
2,0,0,1,0,38578.4,0.0824998,0.0821873,-2.04509,20,0.00801501,10,-0.00016808,-2.68929,0.582109,0.101356,-8.07934,0.0821873,
2,0,0,1,0,38578.4,0.081002,0.0806772,-2.02797,20,0.0078614,10,-0.000163611,-2.69294,0.614806,0.0959652,-7.60722,0.0806772,
2,0,0,1,0,38578.5,0.0795025,0.079158,-2.01913,20,0.00770832,10,-0.00015983,-2.69484,0.735837,0.0801809,-6.31473,0.079158,
2,0,0,1,0,38578.6,0.078007,0.0776807,-2.00997,20,0.00755632,10,-0.000156136,-2.69681,0.733834,0.0803997,-6.29731,0.0776807,
2,0,0,1,0,38578.7,0.076507,0.0761597,-1.99768,20,0.00740479,10,-0.000152142,-2.69948,0.561258,0.105121,-8.19133,0.0761597,
2,0,0,1,0,38578.7,0.0750088,0.074691,-1.98511,20,0.00725448,10,-0.00014827,-2.70222,0.599346,0.0984406,-7.63106,0.074691,
2,0,0,1,0,38578.8,0.0735106,0.0731907,-1.97479,20,0.00710497,10,-0.000144536,-2.70448,0.753316,0.0783203,-6.02828,0.0731907,
2,0,0,1,0,38578.9,0.0720124,0.071642,-1.9658,20,0.00695614,10,-0.000140834,-2.70646,0.638164,0.0924527,-7.08913,0.071642,
2,0,0,1,0,38579,0.0705142,0.0701599,-1.95561,20,0.0068081,10,-0.000137206,-2.70872,0.539874,0.109285,-8.3334,0.0701599,
2,0,0,1,0,38579,0.069016,0.068672,-1.94052,20,0.00666094,10,-0.00013326,-2.71208,0.604012,0.0976801,-7.40374,0.068672,
2,0,0,1,0,38579.1,0.0675179,0.0671695,-1.93079,20,0.00651471,10,-0.00012969,-2.71426,0.633691,0.0931053,-7.02273,0.0671695,
2,0,0,1,0,38579.2,0.0660179,0.0656802,-1.92285,20,0.00636901,10,-0.000126293,-2.71605,0.647273,0.0911516,-6.82972,0.0656802,
2,0,0,1,0,38579.3,0.0645224,0.0641795,-1.90963,20,0.00622438,10,-0.000122559,-2.71905,0.609904,0.0967365,-7.19932,0.0641795,
2,0,0,1,0,38579.3,0.0630228,0.0626862,-1.89756,20,0.00608029,10,-0.000118951,-2.7218,0.569729,0.103558,-7.67032,0.0626862,
2,0,0,1,0,38579.4,0.0615251,0.0612198,-1.88648,20,0.00593742,10,-0.00011549,-2.72435,0.578807,0.101934,-7.51173,0.0612198,
2,0,0,1,0,38579.5,0.0600269,0.0597234,-1.87324,20,0.00579527,10,-0.000111876,-2.72741,0.587125,0.10049,-7.35225,0.0597234,
2,0,0,1,0,38579.6,0.0585287,0.0581846,-1.86439,20,0.00565392,10,-0.000108479,-2.72946,0.50538,0.116744,-8.49026,0.0581846,
2,0,0,1,0,38579.6,0.0570305,0.0566781,-1.85237,20,0.00551345,10,-0.000104989,-2.73227,0.529481,0.11143,-8.05757,0.0566781,
2,0,0,1,0,38579.7,0.0555323,0.0552315,-1.84093,20,0.00537402,10,-0.000101677,-2.73496,0.549532,0.107364,-7.71342,0.0552315,
2,0,0,1,0,38579.8,0.0540341,0.0537189,-1.83042,20,0.00523536,10,-9.83283e-05,-2.73745,0.56874,0.103738,-7.39843,0.0537189,
2,0,0,1,0,38579.9,0.052536,0.0522105,-1.82019,20,0.00509737,10,-9.50328e-05,-2.73988,0.559456,0.10546,-7.47724,0.0522105,
2,0,0,1,0,38579.9,0.0510378,0.0506677,-1.80715,20,0.00496035,10,-9.15644e-05,-2.743,0.414528,0.142331,-10.0321,0.0506677,
2,0,0,1,0,38580,0.0495382,0.0492458,-1.78976,20,0.00482425,10,-8.81383e-05,-2.7472,0.505094,0.11681,-8.17181,0.0492458,
2,0,0,1,0,38580.1,0.0480427,0.0477232,-1.77942,20,0.00468936,10,-8.49195e-05,-2.74972,0.602382,0.0979446,-6.79761,0.04772317,
2,0,0,1,0,38580.2,0.0465432,0.0462243,-1.76721,20,0.00455501,10,-8.1688e-05,-2.75271,0.537142,0.109841,-7.58069,0.0462243,
2,0,0,1,0,38580.2,0.045045,0.0447281,-1.7547,20,0.00442185,10,-7.84845e-05,-2.7558,0.44409,0.132856,-9.09336,0.0447281,
2,0,0,1,0,38580.3,0.0435468,0.0432331,-1.73712,20,0.00428967,10,-7.51012e-05,-2.76017,0.462977,0.127436,-8.6556,0.0432331,
2,0,0,1,0,38580.4,0.0420486,0.0417332,-1.72861,20,0.00415848,10,-7.21404e-05,-2.7623,0.463261,0.127358,-8.5848,0.0417332,
2,0,0,1,0,38580.5,0.0405504,0.0402149,-1.71992,20,0.00402815,10,-6.91666e-05,-2.76449,0.425574,0.138636,-9.281,0.0402149,
2,0,0,1,0,38580.5,0.0390523,0.0387157,-1.70263,20,0.0038987,10,-6.59186e-05,-2.76888,0.42195,0.139827,-9.28216,0.0387157,
2,0,0,1,0,38580.6,0.0375541,0.0372066,-1.68778,20,0.00377037,10,-6.27967e-05,-2.77268,0.36672,0.160886,-10.6012,0.0372066,
2,0,0,1,0,38580.7,0.0360559,0.0357329,-1.67309,20,0.00364325,10,-5.97842e-05,-2.77648,0.404579,0.145831,-9.53723,0.0357329,
2,0,0,1,0,38580.8,0.0345577,0.0342071,-1.6614,20,0.00351709,10,-5.68316e-05,-2.77953,0.467867,0.126104,-8.17208,0.0342071,
2,0,0,1,0,38580.8,0.0330582,0.0327514,-1.6485,20,0.0033917,10,-5.39905e-05,-2.78291,0.39899,0.147873,-9.50335,0.0327514,
2,0,0,1,0,38580.9,0.0315626,0.0312271,-1.63326,20,0.00326769,10,-5.10021e-05,-2.78694,0.411105,0.143516,-9.14888,0.0312271,
2,0,0,1,0,38581,0.0300631,0.0297076,-1.62065,20,0.00314449,10,-4.81455e-05,-2.79031,0.449737,0.131188,-8.29535,0.0297076,
2,0,0,1,0,38581.1,0.0285649,0.0282092,-1.60811,20,0.00302238,10,-4.53634e-05,-2.79369,0.488057,0.120887,-7.58094,0.0282092,
2,0,0,1,0,38581.1,0.0270667,0.0267242,-1.59641,20,0.00290116,10,-4.26628e-05,-2.79686,0.48541,0.121547,-7.56559,0.0267242,
2,0,0,1,0,38581.2,0.0255685,0.0252485,-1.58143,20,0.00278087,10,-3.99287e-05,-2.80095,0.398186,0.148172,-9.1631,0.0252485,
2,0,0,1,0,38581.3,0.0240704,0.023746,-1.56805,20,0.00266156,10,-3.72349e-05,-2.80464,0.461485,0.127848,-7.83173,0.023746,
2,0,0,1,0,38581.4,0.0225722,0.0222415,-1.55832,20,0.00254319,10,-3.46594e-05,-2.80734,0.494975,0.119198,-7.25315,0.0222415,
2,0,0,1,0,38581.4,0.021074,0.0207599,-1.54976,20,0.00242559,10,-3.21729e-05,-2.80973,0.516869,0.114149,-6.89538,0.0207599,
2,0,0,1,0,38581.5,0.0195758,0.0192539,-1.53763,20,0.00230883,10,-2.96053e-05,-2.81315,0.48796,0.120911,-7.24902,0.01925387,
2,0,0,1,0,38581.6,0.018078,0.0177338,-1.52377,20,0.0021928,10,-2.70222e-05,-2.81708,0.548945,0.107479,-6.39768,0.0177338,
2,0,0,1,0,38581.7,0.0165785,0.0162593,-1.51826,20,0.0020775,10,-2.46858e-05,-2.81866,0.653256,0.0903168,-5.35303,0.0162593,
2,0,0,1,0,38581.7,0.015083,0.01471,-1.51126,20,0.00196314,10,-2.22307e-05,-2.82066,0.714281,0.0826005,-4.86203,0.01471,
2,0,0,1,0,38581.8,0.013583,0.0132692,-1.50051,20,0.00184897,10,-1.99105e-05,-2.82376,0.602905,0.0978596,-5.7215,0.0132692,
2,0,0,1,0,38581.9,0.0120848,0.0117675,-1.49249,20,0.00173558,10,-1.75629e-05,-2.82609,0.723028,0.0816012,-4.75483,0.0117675,
2,0,0,1,0,38582,0.0105866,0.0102561,-1.48346,20,0.00162289,10,-1.52146e-05,-2.82872,0.868407,0.0679405,-3.94469,0.0102561,
2,0,0,1,0,38582,0.00908846,0.00877713,-1.48028,20,0.00151058,10,-1.29926e-05,-2.82966,0.843223,0.0699696,-4.04256,0.00877713,
2,0,0,1,0,38582.1,0.00759027,0.00728728,-1.47587,20,0.0013986,10,-1.07551e-05,-2.83095,1.09523,0.05387,-3.10032,0.00728728,
2,0,0,1,0,38582.2,0.00609208,0.00574436,-1.47201,20,0.001287,10,-8.45577e-06,-2.83209,1.19666,0.0493041,-2.82884,0.00574436,
2,0,0,1,0,38582.3,0.00459389,0.00430753,-1.4644,20,0.00117586,10,-6.30796e-06,-2.83434,1.43702,0.0410572,-2.35203,0.00430753,
2,0,0,1,0,38582.3,0.00309391,0.00275847,-1.46489,20,0.0010648,10,-4.04086e-06,-2.83419,-1.42357,-0.0414452,2.37436,0.00275847,
2,0,0,1,0,38582.4,0.0015984,0.00125347,-1.48044,20,0.000953111,10,-1.85569e-06,-2.82961, , , ,0.00125347,
2,0,0,1,0,38582.5,0.000199195,-0.000164621,-1.46605,20,0.000848803,10,2.41342e-07,-2.83385, , , ,-0.000164621,