File: Figure_codes/Fig_3-5/rawdata_trumpetplot_data/after 10th/20221101_1-115_003_TrumpetPlot_ParaChange_from10_every3_14_CV_C01_27.csv
mode,ox/red,error,control changes,counter inc.,time/s,control/V,Ewe/V,<I>/mA,cycle number,(Q-Qo)/C,I Range,P/W,log(|I|),Tafel slope mV/dec,alpha_eff,dI/d(E-IR),E-IR/V,
2,1,0,1,0,54392.6,2.44065e-05,-0.00042076,32.101,28,0.0000000E+000,10,-1.35068e-05,-1.49348, , , ,-0.00042076,
2,1,0,1,0,54392.6,0.00332042,0.0029174,33.4637,28,0.000102249,10,9.76268e-05,-1.47543, , , ,0.0029174,
2,1,0,1,0,54392.6,0.0073156,0.00697451,34.5154,28,0.000238362,10,0.000240728,-1.46199, , , ,0.00697451,
2,1,0,1,0,54392.6,0.0113108,0.0108864,35.444,28,0.000378402,10,0.000385856,-1.45046,0.358427,0.164608,226.411,0.0108864,
2,1,0,1,0,54392.6,0.0153059,0.0149095,36.298,28,0.000521979,10,0.000541187,-1.44012,0.396534,0.148789,210.023,0.0149095,
2,1,0,1,0,54392.6,0.0193011,0.0189158,37.0859,28,0.000668851,10,0.000701507,-1.43079,0.438399,0.134581,194.235,0.0189158,
2,1,0,1,0,54392.7,0.0233462,0.0229654,37.8738,28,0.000818928,10,0.000869789,-1.42166,0.474664,0.124298,183.123,0.0229654,
2,1,0,1,0,54392.7,0.0273414,0.0269398,38.5621,28,0.000971876,10,0.00103886,-1.41384,0.504809,0.116876,175.481,0.0269398,
2,1,0,1,0,54392.7,0.0313366,0.0309726,39.2395,28,0.00112756,10,0.00121535,-1.40628,0.547072,0.107847,164.887,0.0309726,
2,1,0,1,0,54392.7,0.0353317,0.0349056,39.8918,28,0.00128589,10,0.00139245,-1.39912,0.576438,0.102353,159.066,0.03490562,
2,1,0,1,0,54392.7,0.0393269,0.0389341,40.5069,28,0.00144676,10,0.0015771,-1.39247,0.608914,0.0968938,152.952,0.0389341,
2,1,0,1,0,54392.7,0.0433221,0.0429424,41.1076,28,0.00161008,10,0.00176526,-1.38608,0.647079,0.091179,146.077,0.0429424,
2,1,0,1,0,54392.7,0.0473173,0.0469338,41.6808,28,0.00177571,10,0.00195624,-1.38006,0.671824,0.0878206,142.713,0.0469338,
2,1,0,1,0,54392.7,0.0513124,0.0509273,42.2322,28,0.0019436,10,0.00215077,-1.37436,0.701203,0.0841411,138.591,0.0509273,
2,1,0,1,0,54392.7,0.0553076,0.0549515,42.7928,28,0.00211372,10,0.00235153,-1.36863,0.714745,0.082547,137.807,0.0549515,
2,1,0,1,0,54392.7,0.0593028,0.0589175,43.3216,28,0.002286,10,0.0025524,-1.3633,0.742783,0.079431,134.229,0.0589175,
2,1,0,1,0,54392.7,0.0633479,0.0629746,43.8914,28,0.00246045,10,0.00276404,-1.35762,0.774465,0.0761816,130.304,0.0629746,
2,1,0,1,0,54392.7,0.0673431,0.0669766,44.3864,28,0.00263703,10,0.00297285,-1.35275,0.794375,0.0742722,128.53,0.0669766,
2,1,0,1,0,54392.7,0.0713383,0.0709563,44.8782,28,0.00281561,10,0.00318439,-1.34796,0.831445,0.0709608,124.27,0.0709563,
2,1,0,1,0,54392.7,0.0753334,0.074919,45.3783,28,0.00299618,10,0.00339969,-1.34315,0.849314,0.0694678,122.972,0.074919,
2,1,0,1,0,54392.7,0.0793286,0.0788902,45.8692,28,0.00317872,10,0.00361863,-1.33848,0.860203,0.0685885,122.733,0.0788902,
2,1,0,1,0,54392.7,0.0833238,0.0828986,46.3444,28,0.00336321,10,0.00384188,-1.334,0.874941,0.0674331,121.959,0.0828986,
2,1,0,1,0,54392.7,0.0873189,0.0869164,46.8371,28,0.00354962,10,0.00407091,-1.32941,0.8816,0.0669238,122.345,0.0869164,
2,1,0,1,0,54392.7,0.0913141,0.090841,47.3201,28,0.00373797,10,0.0042986,-1.32495,0.877326,0.0672498,124.221,0.090841,
2,1,0,1,0,54392.7,0.0953093,0.0949183,47.8302,28,0.00392833,10,0.00453996,-1.3203,0.880355,0.0670184,125.099,0.0949183,
2,1,0,1,0,54392.7,0.0993045,0.0988874,48.3305,28,0.0041207,10,0.00477928,-1.31578,0.878671,0.0671469,126.656,0.0988874,
2,1,0,1,0,54392.7,0.103319,0.102893,48.8357,28,0.00431506,10,0.00502482,-1.31126,0.891995,0.0661438,126.045,0.102893,
2,1,0,1,0,54392.7,0.107345,0.106934,49.3583,28,0.00451155,10,0.00527807,-1.30664,0.920915,0.0640667,123.293,0.106934,
2,1,0,1,0,54392.7,0.11134,0.11087,49.8408,28,0.00470998,10,0.00552585,-1.30241,0.913461,0.0645895,125.617,0.11087,
2,1,0,1,0,54392.7,0.115335,0.114893,50.3039,28,0.00491034,10,0.00577958,-1.2984,0.912961,0.0646249,127.028,0.114893,
2,1,0,1,0,54392.7,0.11933,0.118888,50.8449,28,0.00511262,10,0.00604484,-1.29375,0.892675,0.0660935,131.252,0.1188877,
2,1,0,1,0,54392.8,0.123325,0.122907,51.3873,28,0.00531715,10,0.00631585,-1.28914,0.859899,0.0686127,137.624,0.122907,
2,1,0,1,0,54392.8,0.127321,0.12688,51.9421,28,0.00552387,10,0.00659042,-1.28448,0.864946,0.0682123,138.282,0.12688,
2,1,0,1,0,54392.8,0.131316,0.13087,52.5028,28,0.00573282,10,0.00687105,-1.27982,0.858952,0.0686884,140.751,0.1308703,
2,1,0,1,0,54392.8,0.135311,0.134903,53.0595,28,0.005944,10,0.00715789,-1.27524,0.857956,0.0687681,142.447,0.134903,
2,1,0,1,0,54392.8,0.139306,0.138911,53.64,28,0.00615747,10,0.00745121,-1.27051,0.836102,0.0705656,147.836,0.138911,
2,1,0,1,0,54392.8,0.143301,0.14292,54.2269,28,0.00637325,10,0.0077501,-1.26578,0.820626,0.0718963,152.278,0.14292,
2,1,0,1,0,54392.8,0.147346,0.146931,54.8771,28,0.00659155,10,0.00806316,-1.26061,0.808135,0.0730076,156.375,0.1469312,
2,1,0,1,0,54392.8,0.151342,0.150932,55.5004,28,0.00681236,10,0.0083768,-1.2557,0.801959,0.0735698,159.338,0.150932,
2,1,0,1,0,54392.8,0.155337,0.154925,56.1441,28,0.0070357,10,0.0086981,-1.2507,0.814645,0.0724242,158.673,0.154925,
2,1,0,1,0,54392.8,0.159332,0.15896,56.7828,28,0.00726163,10,0.00902623,-1.24578,0.82037,0.0719187,159.314,0.15896,
2,1,0,1,0,54392.8,0.163327,0.162942,57.4177,28,0.0074901,10,0.00935576,-1.24095,0.837599,0.0704394,157.778,0.162942,
2,1,0,1,0,54392.8,0.167322,0.166873,58.0401,28,0.00772108,10,0.00968533,-1.23627,0.859297,0.0686607,155.459,0.166873,
2,1,0,1,0,54392.8,0.171317,0.170886,58.6624,28,0.00795455,10,0.0100246,-1.23164,0.890422,0.0662607,151.588,0.170886,
2,1,0,1,0,54392.8,0.175313,0.174933,59.266,28,0.00819048,10,0.0103676,-1.22719,0.93255,0.0632674,146.176,0.174933,
2,1,0,1,0,54392.8,0.179308,0.178912,59.8385,28,0.00842875,10,0.0107058,-1.22302,0.976662,0.0604098,140.958,0.178912,
2,1,0,1,0,54392.8,0.183303,0.182869,60.3783,28,0.00866926,10,0.0110414,-1.21912,1.04776,0.0563107,132.563,0.182869,
2,1,0,1,0,54392.8,0.187348,0.186966,60.929,28,0.00891187,10,0.0113916,-1.21518,1.13311,0.0520691,123.596,0.186966,
2,1,0,1,0,54392.8,0.191343,0.190941,61.388,28,0.00915656,10,0.0117215,-1.21192,1.26608,0.0466005,111.429,0.190941,
2,1,0,1,0,54392.8,0.195338,0.194911,61.8159,28,0.00940301,10,0.0120486,-1.2089,1.48667,0.0396859,95.5435,0.194911,
2,1,0,1,0,54392.8,0.199334,0.19894,62.169,28,0.00965103,10,0.0123679,-1.20643,1.77014,0.0333306,80.6896,0.19894,
2,1,0,1,0,54392.8,0.203329,0.20292,62.4533,28,0.00990033,10,0.012673,-1.20444,2.27546,0.0259288,63.0621,0.20292,
2,1,0,1,0,54392.8,0.207324,0.20694,62.6789,28,0.0101506,10,0.0129708,-1.20288,3.08483,0.0191259,46.6825,0.20694,
2,1,0,1,0,54392.8,0.211319,0.210919,62.8254,28,0.0104017,10,0.0132511,-1.20186,4.91871,0.011995,29.346,0.210919,
2,1,0,1,0,54392.8,0.215314,0.214936,62.9158,28,0.0106532,10,0.0135229,-1.20124,13.5525,0.00435344,10.6637,0.214936,
2,1,0,1,0,54392.8,0.219309,0.21894,62.9235,28,0.0109049,10,0.0137765,-1.20119,-24.2074,-0.00243727,-5.97133,0.21894,
2,1,0,1,0,54392.9,0.223305,0.222944,62.8496,28,0.0111565,10,0.014012,-1.2017,-6.26337,-0.00941984,-23.0615,0.222944,
2,1,0,1,0,54392.9,0.227314,0.226944,62.7297,28,0.0114076,10,0.0142361,-1.20253,-3.53654,-0.016683,-40.7553,0.226944,
2,1,0,1,0,54392.9,0.231345,0.230963,62.5462,28,0.0116582,10,0.0144459,-1.2038,-2.49608,-0.0236371,-57.5509,0.230963,
2,1,0,1,0,54392.9,0.23534,0.23498,62.2697,28,0.0119078,10,0.0146321,-1.20572,-1.86047,-0.0317124,-76.8708,0.23498,
2,1,0,1,0,54392.9,0.239335,0.238977,61.9269,28,0.0121562,10,0.0147991,-1.20812,-1.49094,-0.0395722,-95.4113,0.2389766,
2,1,0,1,0,54392.9,0.24333,0.242987,61.4965,28,0.012403,10,0.0149429,-1.21115,-1.2526,-0.0471022,-112.802,0.242987,
2,1,0,1,0,54392.9,0.247326,0.246965,61.0195,28,0.012648,10,0.0150696,-1.21453,-1.08836,-0.0542101,-128.825,0.246965,
2,1,0,1,0,54392.9,0.251321,0.250967,60.4664,28,0.0128909,10,0.0151751,-1.21849,-0.974704,-0.0605312,-142.566,0.250967,
2,1,0,1,0,54392.9,0.255316,0.25496,59.8678,28,0.0131316,10,0.0152639,-1.22281,-0.867285,-0.0680284,-158.615,0.25496,
2,1,0,1,0,54392.9,0.259311,0.258981,59.2163,28,0.0133697,10,0.0153359,-1.22756,-0.790126,-0.0746716,-172.18,0.2589812,
2,1,0,1,0,54392.9,0.263306,0.26294,58.4856,28,0.013605,10,0.0153782,-1.23295,-0.73993,-0.0797373,-181.725,0.26294,
2,1,0,1,0,54392.9,0.267301,0.266913,57.7208,28,0.0138374,10,0.0154064,-1.23867,-0.682512,-0.0864454,-194.477,0.266913,
2,1,0,1,0,54392.9,0.271347,0.271015,56.9503,28,0.0140667,10,0.0154344,-1.2445,-0.6468,-0.0912184,-202.363,0.271015,
2,1,0,1,0,54392.9,0.275342,0.274994,56.1021,28,0.0142927,10,0.0154278,-1.25102,-0.612165,-0.0963793,-210.671,0.274994,
2,1,0,1,0,54392.9,0.279337,0.279009,55.2337,28,0.0145153,10,0.0154107,-1.2578,-0.574347,-0.102725,-221.156,0.279009,
2,1,0,1,0,54392.9,0.283332,0.283002,54.3314,28,0.0147343,10,0.0153759,-1.26495,-0.553756,-0.106545,-225.702,0.283002,
2,1,0,1,0,54392.9,0.287327,0.286997,53.4157,28,0.0149497,10,0.0153302,-1.27233,-0.537159,-0.109837,-228.856,0.286997,
2,1,0,1,0,54392.9,0.291322,0.290966,52.4972,28,0.0151615,10,0.0152749,-1.27986,-0.526857,-0.111985,-229.518,0.290966,
2,1,0,1,0,54392.9,0.295318,0.294952,51.585,28,0.0153695,10,0.0152151,-1.28748,-0.5199,-0.113483,-230.095,0.2949523,
2,1,0,1,0,54392.9,0.299013,0.298641,50.7419,28,0.0155588,10,0.0151536,-1.29463,-0.182919,-0.322547,-630.254,0.298641,
2,1,0,0,0,54392.9,0.300012,0.299594,50.5173,28,0.0156095,10,0.0151347,-1.29656,0.00495541,11.9062,21482.9,0.299594,
2,1,0,1,0,54392.9,0.298714,0.298555,47.7147,28,0.0156722,10,0.0142454,-1.32135,0.0560528,1.05258,1770.55,0.298555,
2,1,0,1,0,54392.9,0.294718,0.294472,41.2657,28,0.0158489,10,0.0121516,-1.38441,0.0659395,0.894759,1415.35,0.294472,
2,1,0,1,0,54392.9,0.290723,0.290467,36.2691,28,0.0160032,10,0.010535,-1.44046,0.0698723,0.844398,1220.91,0.290467,
2,1,0,1,0,54392.9,0.286728,0.286481,31.9577,28,0.0161391,10,0.00915526,-1.49542,0.0711024,0.829789,1043.82,0.286481,
2,1,0,1,0,54392.9,0.282733,0.282493,28.1045,28,0.0162587,10,0.00793931,-1.55122,0.0701185,0.841433,926.038,0.282493,
2,1,0,1,0,54392.9,0.278738,0.27853,24.6249,28,0.0163637,10,0.00685878,-1.60862,0.0673632,0.875849,841.252,0.27853,
2,1,0,1,0,54393,0.274742,0.274439,21.4265,28,0.0164554,10,0.00588026,-1.66905,0.0637439,0.925579,770.516,0.274439,
2,1,0,1,0,54393,0.270747,0.270469,18.4874,28,0.0165349,10,0.00500027,-1.73312,0.0597405,0.987605,707.185,0.270469,
2,1,0,1,0,54393,0.266702,0.266451,15.744,28,0.016603,10,0.00419499,-1.80289,0.0546438,1.07972,656.589,0.266451,
2,1,0,1,0,54393,0.262707,0.262432,13.2406,28,0.0166607,10,0.00347476,-1.87809,0.0490894,1.20189,609.846,0.262432,
2,1,0,1,0,54393,0.258712,0.258423,10.911,28,0.0167087,10,0.00281966,-1.96213,0.0431361,1.36776,564.632,0.258423,
2,1,0,1,0,54393,0.254717,0.254462,8.72572,28,0.0167477,10,0.00222036,-2.0592,0.0361991,1.62988,528.69,0.254462,
2,1,0,1,0,54393,0.250722,0.250412,6.68805,28,0.0167783,10,0.00167477,-2.1747,0.0285676,2.06528,493.825,0.250412,
2,1,0,1,0,54393,0.246726,0.246448,4.79031,28,0.016801,10,0.00118056,-2.31964,0.0196059,3.0093,461.268,0.246448,
2,1,0,1,0,54393,0.242731,0.242403,2.99964,28,0.0168164,10,0.00072712,-2.52293,0.0112529,5.24311,435.267,0.242403,
2,1,0,1,0,54393,0.238736,0.23842,1.32613,28,0.0168249,10,0.000316176,-2.87741,0.0365651,1.61356,409.139,0.23842,
2,1,0,1,0,54393,0.234741,0.234459,-0.255646,28,0.0168268,10,-5.99385e-05,-3.59236,-0.5624,-0.104908,387.86,0.234459,
2,0,0,1,0,54393,0.230746,0.230462,-1.75046,28,0.0168226,10,-0.000403414,-2.75685,-0.0302895,-1.94787,362.48,0.230462,
2,0,0,1,0,54393,0.226701,0.226412,-3.20259,28,0.0168126,10,-0.000725105,-2.4945,-0.0119,-4.95797,341.97,0.226412,
2,0,0,1,0,54393,0.222705,0.222338,-4.50331,28,0.0167971,10,-0.00100126,-2.34647,-0.0268747,-2.19538,323.181,0.222338,
2,0,0,1,0,54393,0.21871,0.21836,-5.76107,28,0.0167764,10,-0.00125799,-2.2395,-0.0398207,-1.48164,304.856,0.21836,
2,0,0,1,0,54393,0.214715,0.214362,-6.95338,28,0.0167509,10,-0.00149054,-2.1578,-0.0515951,-1.14352,292.691,0.214362,
2,0,0,1,0,54393,0.21072,0.210398,-8.08463,28,0.0167206,10,-0.00170099,-2.09234,-0.0643805,-0.916427,277.76,0.210398,
2,0,0,1,0,54393,0.206725,0.206427,-9.16013,28,0.016686,10,-0.0018909,-2.0381,-0.0774299,-0.761979,264.609,0.206427,
2,0,0,1,0,54393,0.20273,0.202415,-10.19,28,0.0166472,10,-0.00206262,-1.99182,-0.0910246,-0.648177,252.109,0.202415,
2,0,0,1,0,54393,0.198734,0.198407,-11.1755,28,0.0166044,10,-0.00221729,-1.95173,-0.10475,-0.563243,241.391,0.1984065,
2,0,0,1,0,54393,0.194739,0.194394,-12.1193,28,0.0165577,10,-0.00235592,-1.91652,-0.118199,-0.499157,232.946,0.194394,
2,0,0,1,0,54393,0.190744,0.190397,-13.0297,28,0.0165073,10,-0.00248081,-1.88507,-0.131914,-0.447261,225.069,0.190397,
2,0,0,1,0,54393,0.186735,0.186406,-13.9193,28,0.0164533,10,-0.00259463,-1.85638,-0.14606,-0.403943,217.344,0.186406,
2,0,0,1,0,54393,0.182704,0.182389,-14.7805,28,0.0163958,10,-0.0026958,-1.83031,-0.160468,-0.367674,210.252,0.182389,
2,0,0,1,0,54393,0.178709,0.178376,-15.6006,28,0.0163349,10,-0.00278278,-1.80686,-0.175117,-0.336917,203.725,0.1783765,
2,0,0,1,0,54393.1,0.174713,0.174344,-16.405,28,0.0162708,10,-0.0028601,-1.78502,-0.189699,-0.311019,198.056,0.174344,
2,0,0,1,0,54393.1,0.170718,0.170386,-17.1829,28,0.0162036,10,-0.00292772,-1.7649,-0.201709,-0.292501,195.377,0.170386,
2,0,0,1,0,54393.1,0.166723,0.166355,-17.9562,28,0.0161332,10,-0.0029871,-1.74579,-0.213329,-0.276568,193.248,0.166355,
2,0,0,1,0,54393.1,0.162728,0.162386,-18.7248,28,0.0160598,10,-0.00304064,-1.72758,-0.221709,-0.266115,194.115,0.162386,
2,0,0,1,0,54393.1,0.158733,0.158371,-19.4917,28,0.0159833,10,-0.00308691,-1.71015,-0.22926,-0.25735,195.591,0.158371,
2,0,0,1,0,54393.1,0.154737,0.154409,-20.2843,28,0.0159037,10,-0.00313208,-1.69284,-0.235249,-0.250798,198.359,0.154409,
2,0,0,1,0,54393.1,0.150742,0.150406,-21.0756,28,0.0158209,10,-0.0031699,-1.67622,-0.236193,-0.249796,205.649,0.150406,
2,0,0,1,0,54393.1,0.146747,0.146434,-21.889,28,0.0157348,10,-0.00320529,-1.65977,-0.239692,-0.246149,210.673,0.146434,
2,0,0,1,0,54393.1,0.142702,0.142363,-22.7837,28,0.0156454,10,-0.00324355,-1.64238,-0.237426,-0.248499,221.12,0.142363,
2,0,0,1,0,54393.1,0.138707,0.138369,-23.6634,28,0.0155524,10,-0.00327429,-1.62592,-0.235289,-0.250756,231.919,0.138369,
2,0,0,1,0,54393.1,0.134712,0.134392,-24.6167,28,0.0154558,10,-0.00330828,-1.60877,-0.234181,-0.251942,242.59,0.1343919,
2,0,0,1,0,54393.1,0.130717,0.13041,-25.6052,28,0.0153553,10,-0.00333918,-1.59167,-0.228305,-0.258426,258.936,0.13041,
2,0,0,1,0,54393.1,0.126721,0.126374,-26.6624,28,0.0152507,10,-0.00336944,-1.5741,-0.225289,-0.261885,273.349,0.126374,
2,0,0,1,0,54393.1,0.122726,0.122412,-27.7952,28,0.0151417,10,-0.00340248,-1.55603,-0.220441,-0.267645,291.131,0.122412,
2,0,0,1,0,54393.1,0.118731,0.118383,-28.9927,28,0.015028,10,-0.00343224,-1.53771,-0.217513,-0.271248,307.536,0.118383,
2,0,0,1,0,54393.1,0.114736,0.114393,-30.2684,28,0.0149093,10,-0.00346248,-1.51901,-0.217885,-0.270786,320.001,0.114393,
2,0,0,1,0,54393.1,0.110741,0.110387,-31.5789,28,0.0147855,10,-0.00348592,-1.5006,-0.218024,-0.270612,333.602,0.110387,
2,0,0,1,0,54393.1,0.106745,0.10643,-32.9096,28,0.0146564,10,-0.00350257,-1.48268,-0.224016,-0.263374,338.131,0.10643,
2,0,0,1,0,54393.1,0.102703,0.102375,-34.333,28,0.0145219,10,-0.00351484,-1.46429,-0.231922,-0.254396,339.786,0.102375,
2,0,0,1,0,54393.1,0.0987052,0.0984112,-35.6722,28,0.0143817,10,-0.00351054,-1.44767,-0.240442,-0.245381,340.642,0.09841124,
2,0,0,1,0,54393.1,0.09471,0.0943944,-37.0131,28,0.0142362,10,-0.00349383,-1.43164,-0.254328,-0.231984,334.418,0.0943944,
2,0,0,1,0,54393.1,0.0907148,0.0903956,-38.3716,28,0.0140853,10,-0.00346863,-1.41599,-0.266892,-0.221063,329.967,0.0903956,
2,0,0,1,0,54393.1,0.0867197,0.0864138,-39.6707,28,0.0139291,10,-0.00342809,-1.40153,-0.282098,-0.209147,322.691,0.0864138,
2,0,0,1,0,54393.1,0.0827245,0.0824415,-40.9417,28,0.0137677,10,-0.00337529,-1.38783,-0.301703,-0.195556,311.434,0.0824415,
2,0,0,1,0,54393.1,0.0787293,0.0784236,-42.1668,28,0.0136014,10,-0.00330687,-1.37503,-0.322354,-0.183029,300.189,0.0784236,
2,0,0,1,0,54393.2,0.0747341,0.0744344,-43.3425,28,0.0134302,10,-0.00322617,-1.36309,-0.347504,-0.169782,286.133,0.0744344,
2,0,0,1,0,54393.2,0.070739,0.0704208,-44.4716,28,0.0132545,10,-0.00313173,-1.35192,-0.377538,-0.156275,270.043,0.0704208,
2,0,0,1,0,54393.2,0.0667438,0.0664951,-45.5045,28,0.0130744,10,-0.00302583,-1.34195,-0.403414,-0.146252,258.994,0.0664951,
2,0,0,1,0,54393.2,0.0627403,0.0625377,-46.4566,28,0.0128904,10,-0.00290529,-1.33295,-0.438912,-0.134423,243.339,0.0625377,
2,0,0,1,0,54393.2,0.0587035,0.0584901,-47.472,28,0.0127024,10,-0.00277664,-1.32356,-0.474989,-0.124213,229.376,0.0584901,
2,0,0,1,0,54393.2,0.0547083,0.0544765,-48.3515,28,0.0125106,10,-0.00263402,-1.31559,-0.513316,-0.114939,216.088,0.0544765,
2,0,0,1,0,54393.2,0.0507132,0.0504862,-49.1765,28,0.0123155,10,-0.00248274,-1.30824,-0.575265,-0.102561,196.25,0.0504862,
2,0,0,1,0,54393.2,0.046718,0.046463,-49.9302,28,0.0121172,10,-0.00231991,-1.30164,-0.625267,-0.0943597,183.402,0.04646299,
2,0,0,1,0,54393.2,0.0427228,0.0424388,-50.6221,28,0.011916,10,-0.00214834,-1.29566,-0.687995,-0.0857564,169.075,0.0424388,
2,0,0,1,0,54393.2,0.0387276,0.0384919,-51.2831,28,0.0117121,10,-0.00197398,-1.29003,-0.746207,-0.0790666,157.933,0.0384919,
2,0,0,1,0,54393.2,0.0347325,0.0344698,-51.8845,28,0.0115057,10,-0.00178845,-1.28496,-0.802933,-0.0734806,148.543,0.0344698,
2,0,0,1,0,54393.2,0.0307373,0.0304816,-52.4542,28,0.0112969,10,-0.00159889,-1.28022,-0.874709,-0.067451,137.886,0.0304816,
2,0,0,1,0,54393.2,0.0267421,0.0264786,-52.9928,28,0.011086,10,-0.00140317,-1.27578,-0.922671,-0.0639448,132.116,0.02647857,
2,0,0,1,0,54393.2,0.022747,0.0224649,-53.493,28,0.010873,10,-0.00120172,-1.2717,-1.00721,-0.0585776,122.155,0.0224649,
2,0,0,1,0,54393.2,0.0187018,0.0183771,-54.0106,28,0.0106579,10,-0.000992557,-1.26752,-1.11647,-0.0528451,111.129,0.0183771,
2,0,0,1,0,54393.2,0.0147067,0.0143475,-54.425,28,0.010441,10,-0.000780864,-1.2642,-1.24638,-0.0473371,100.305,0.0143475,
2,0,0,1,0,54393.2,0.0107115,0.0103508,-54.7851,28,0.0102225,10,-0.000567072,-1.26134,-1.46687,-0.0402218,85.856,0.0103508,
2,0,0,1,0,54393.2,0.00671632,0.00639765,-55.1046,28,0.0100027,10,-0.00035254,-1.25881,-1.64849,-0.0357903,76.8747,0.00639765,
2,0,0,1,0,54393.2,0.00272115,0.00237553,-55.3844,28,0.00978171,10,-0.000131568,-1.25661,-1.87998,-0.0313833,67.7628,0.00237553,
2,0,0,1,0,54393.2,-0.00127403,-0.00163387,-55.6536,28,0.00955954,10,9.09305e-05,-1.25451,-2.22772,-0.0264844,57.4307,-0.00163387,
2,0,0,1,0,54393.2,-0.0052692,-0.00566871,-55.8706,28,0.00933647,10,0.000316715,-1.25282,-2.71899,-0.0216992,47.2223,-0.00566871,
2,0,0,1,0,54393.2,-0.00926438,-0.00962509,-56.0248,28,0.00911267,10,0.000539244,-1.25162,-3.61344,-0.0163279,35.6457,-0.00962509,
2,0,0,1,0,54393.2,-0.0132596,-0.0136525,-56.1413,28,0.00888831,10,0.00076647,-1.25072,-4.60226,-0.0128198,28.0655,-0.0136525,
2,0,0,1,0,54393.2,-0.0172547,-0.0176619,-56.2249,28,0.00866356,10,0.00099304,-1.25007,-6.48684,-0.00909534,19.9436,-0.0176619,
2,0,0,1,0,54393.2,-0.0212915,-0.0217212,-56.3211,28,0.00843849,10,0.00122336,-1.24933,-11.9071,-0.00495505,10.8734,-0.0217212,
2,0,0,1,0,54393.3,-0.025295,-0.0256987,-56.3454,28,0.00821313,10,0.00144801,-1.24914,-69.0195,-0.00085483,1.87624,-0.0256987,
2,0,0,1,0,54393.3,-0.0292902,-0.0296604,-56.3154,28,0.00798782,10,0.00167034,-1.24937,14.7705,0.00399446,-8.76906,-0.02966042,
2,0,0,1,0,54393.3,-0.0332854,-0.033673,-56.255,28,0.00776267,10,0.00189427,-1.24984,7.75514,0.00760786,-16.6899,-0.033673,
2,0,0,1,0,54393.3,-0.0372805,-0.0376697,-56.1813,28,0.00753782,10,0.00211633,-1.25041,6.04332,0.00976284,-21.3916,-0.0376697,
2,0,0,1,0,54393.3,-0.0412757,-0.041677,-56.0787,28,0.00731331,10,0.00233719,-1.2512,5.01907,0.0117552,-25.7136,-0.041677,
2,0,0,1,0,54393.3,-0.0452709,-0.0456598,-55.9731,28,0.00708919,10,0.00255572,-1.25202,4.18372,0.0141023,-30.7847,-0.0456598,
2,0,0,1,0,54393.3,-0.0492661,-0.0496396,-55.8444,28,0.00686558,10,0.00277209,-1.25302,3.77574,0.0156261,-34.0329,-0.0496396,
2,0,0,1,0,54393.3,-0.0532612,-0.0536691,-55.6888,28,0.00664252,10,0.00298876,-1.25423,3.43684,0.017167,-37.3008,-0.0536691,
2,0,0,1,0,54393.3,-0.0572564,-0.0576393,-55.5355,28,0.00642008,10,0.00320102,-1.25543,3.58637,0.0164512,-35.6702,-0.0576393,
2,0,0,1,0,54393.3,-0.0612544,-0.0616115,-55.3781,28,0.00619827,10,0.00341193,-1.25666,3.51811,0.0167704,-36.2576,-0.0616115,
2,0,0,1,0,54393.3,-0.0652967,-0.0656824,-55.2722,28,0.0059769,10,0.00363041,-1.25749,3.34378,0.0176447,-38.0329,-0.0656824,
2,0,0,1,0,54393.3,-0.0692919,-0.0696908,-55.1078,28,0.00575616,10,0.00384051,-1.25879,3.34075,0.0176607,-37.9586,-0.0696908,
2,0,0,1,0,54393.3,-0.0732871,-0.0736313,-54.9273,28,0.00553611,10,0.00404436,-1.26021,3.10333,0.0190119,-40.7684,-0.0736313,
2,0,0,1,0,54393.3,-0.0772822,-0.0776619,-54.7689,28,0.00531673,10,0.00425345,-1.26147,3.2229,0.0183065,-39.1478,-0.0776619,
2,0,0,1,0,54393.3,-0.0812774,-0.0816554,-54.621,28,0.00509798,10,0.00446009,-1.26264,3.5172,0.0167747,-35.7712,-0.0816554,
2,0,0,1,0,54393.3,-0.0852726,-0.0856552,-54.4829,28,0.00487978,10,0.00466674,-1.26374,3.60005,0.0163887,-34.8516,-0.08565522,
2,0,0,1,0,54393.3,-0.0892678,-0.0896328,-54.3549,28,0.00466214,10,0.00487198,-1.26476,3.7723,0.0156403,-33.1783,-0.0896328,
2,0,0,1,0,54393.3,-0.0932629,-0.0936475,-54.2118,28,0.00444503,10,0.0050768,-1.26591,4.07807,0.0144676,-30.6242,-0.0936475,
2,0,0,1,0,54393.3,-0.0972581,-0.097623,-54.0912,28,0.00422843,10,0.00528054,-1.26687,5.07547,0.0116245,-24.5696,-0.097623,
2,0,0,1,0,54393.3,-0.101253,-0.101621,-53.9939,28,0.00401227,10,0.0054869,-1.26765,5.86311,0.0100629,-21.2234,-0.1016207,
2,0,0,1,0,54393.3,-0.105298,-0.105688,-53.9604,28,0.00379636,10,0.00570299,-1.26793,6.8238,0.00864621,-18.2027,-0.105688,
2,0,0,1,0,54393.3,-0.109294,-0.109672,-53.8716,28,0.00358071,10,0.00590823,-1.26864,7.82024,0.00754452,-15.8604,-0.109672,
2,0,0,1,0,54393.3,-0.113289,-0.113737,-53.7979,28,0.00336538,10,0.0061188,-1.26923,7.78915,0.00757464,-15.9139,-0.113737,
2,0,0,1,0,54393.3,-0.117284,-0.117682,-53.7392,28,0.00315032,10,0.00632412,-1.26971,10.6591,0.00553518,-11.6173,-0.117682,
2,0,0,1,0,54393.3,-0.121279,-0.121649,-53.7064,28,0.00293545,10,0.00653331,-1.26997,16.7051,0.00353186,-7.40722,-0.121649,
2,0,0,1,0,54393.4,-0.125274,-0.125659,-53.6859,28,0.00272068,10,0.00674612,-1.27014,31.7419,0.00185874,-3.89604,-0.125659,
2,0,0,1,0,54393.4,-0.129269,-0.129671,-53.6798,28,0.00250594,10,0.0069607,-1.27019,86.3927,0.000682928,-1.43111,-0.129671,
2,0,0,1,0,54393.4,-0.133265,-0.133598,-53.6772,28,0.00229124,10,0.00717119,-1.27021,-60.2436,-0.000979358,2.05257,-0.133598,
2,0,0,1,0,54393.4,-0.13726,-0.13765,-53.6835,28,0.00207652,10,0.00738954,-1.27016,-14.0935,-0.00418633,8.78162,-0.13765,
2,0,0,1,0,54393.4,-0.141255,-0.141635,-53.7187,28,0.0018617,10,0.00760846,-1.26987,-10.3107,-0.0057222,12.0087,-0.141635,
2,0,0,1,0,54393.4,-0.145286,-0.145641,-53.8201,28,0.00164667,10,0.00783843,-1.26906,-8.05342,-0.00732608,15.3841,-0.145641,
2,0,0,1,0,54393.4,-0.149295,-0.149655,-53.87,28,0.00143126,10,0.00806192,-1.26865,-7.41617,-0.00795559,16.7203,-0.149655,
2,0,0,1,0,54393.4,-0.15329,-0.153669,-53.9299,28,0.00121565,10,0.00828734,-1.26817,-7.98817,-0.00738592,15.5495,-0.153669,
2,0,0,1,0,54393.4,-0.157286,-0.157685,-53.9871,28,0.000999831,10,0.00851298,-1.26771,-6.63412,-0.00889341,18.7494,-0.157685,
2,0,0,1,0,54393.4,-0.161281,-0.161664,-54.0692,28,0.00078371,10,0.00874106,-1.26705,-6.02375,-0.00979456,20.6778,-0.161664,
2,0,0,1,0,54393.4,-0.165276,-0.165663,-54.1702,28,0.000567236,10,0.00897399,-1.26624,-5.56236,-0.010607,22.4223,-0.1656629,
2,0,0,1,0,54393.4,-0.169271,-0.169622,-54.2598,28,0.00035038,10,0.00920368,-1.26552,-5.43562,-0.0108543,22.982,-0.169622,
2,0,0,1,0,54393.4,-0.173266,-0.173638,-54.3448,28,0.000133147,10,0.00943633,-1.26484,-5.42547,-0.0108746,23.068,-0.173638,
2,0,0,1,0,54393.4,-0.177261,-0.177643,-54.4365,28,-8.44187e-05,10,0.00967028,-1.26411,-5.19247,-0.0113626,24.1467,-0.177643,
2,0,0,1,0,54393.4,-0.181257,-0.18161,-54.538,28,-0.000302386,10,0.00990467,-1.2633,-4.54256,-0.0129883,27.6594,-0.18161,
2,0,0,1,0,54393.4,-0.185252,-0.185582,-54.6452,28,-0.000520769,10,0.0101411,-1.26245,-4.66626,-0.012644,26.968,-0.185582,
2,0,0,1,0,54393.4,-0.189297,-0.189706,-54.7892,28,-0.000739701,10,0.0103938,-1.26131,-4.82417,-0.0122301,26.131,-0.189706,
2,0,0,1,0,54393.4,-0.193292,-0.193613,-54.8671,28,-0.000959034,10,0.010623,-1.26069,-5.01457,-0.0117657,25.177,-0.193613,
2,0,0,1,0,54393.4,-0.197287,-0.197648,-54.9571,28,-0.00117868,10,0.0108622,-1.25998,10.463,0.00563891,-12.043,-0.197648,
2,0,0,0,0,54393.4,-0.199984,-0.200322,-55.0163,28,-0.00132713,10,0.011021,-1.25951,0.0620194,0.951315,-1907.4,-0.200322,
2,0,0,0,1,54393.4,-0.199984,-0.200609,-54.6579,28,-0.00135997,10,0.0109648,-1.26235,-0.0399107,-1.4783,2794.35,-0.200609,
2,0,0,1,1,54393.4,-0.196688,-0.197195,-48.0348,28,-0.0015163,10,0.00947223,-1.31844,-0.069279,-0.851629,1527.19,-0.197195,
2,0,0,1,1,54393.4,-0.192693,-0.193172,-42.4496,28,-0.00169631,10,0.00820008,-1.37213,-0.0752005,-0.78457,1332.81,-0.193172,
2,0,0,1,1,54393.4,-0.188698,-0.189139,-37.9377,28,-0.00185644,10,0.00717552,-1.42093,-0.0820946,-0.718683,1084.39,-0.189139,
2,0,0,1,1,54393.4,-0.184653,-0.185127,-34.0234,28,-0.00199985,10,0.00629864,-1.46822,-0.0853435,-0.691324,929.059,-0.185127,
2,0,0,1,1,54393.4,-0.180657,-0.181113,-30.5956,28,-0.00212866,10,0.00554126,-1.51434,-0.0854696,-0.690304,830.267,-0.181113,
2,0,0,1,1,54393.5,-0.176662,-0.177079,-27.4986,28,-0.00224447,10,0.00486942,-1.56069,-0.0847998,-0.695757,748.668,-0.177079,
2,0,0,1,1,54393.5,-0.172667,-0.173137,-24.6513,28,-0.00234842,10,0.00426805,-1.60816,-0.0820499,-0.719074,691.326,-0.173137,
2,0,0,1,1,54393.5,-0.168672,-0.169057,-21.9927,28,-0.00244139,10,0.00371803,-1.65772,-0.0778148,-0.75821,648.685,-0.169057,
2,0,0,1,1,54393.5,-0.164677,-0.165068,-19.5032,28,-0.0025241,10,0.00321936,-1.70989,-0.0736399,-0.801196,606.553,-0.165068,
2,0,0,1,1,54393.5,-0.160681,-0.161135,-17.1558,28,-0.00259714,10,0.00276439,-1.76559,-0.0680061,-0.86757,575.896,-0.161135,
2,0,0,1,1,54393.5,-0.156686,-0.157144,-14.9507,28,-0.0026611,10,0.0023494,-1.82534,-0.0621345,-0.949553,545.873,-0.157144,
2,0,0,1,1,54393.5,-0.152691,-0.153167,-12.8417,28,-0.00271643,10,0.00196692,-1.89138,-0.0554928,-1.0632,520.31,-0.153167,
2,0,0,1,1,54393.5,-0.148696,-0.149139,-10.8078,28,-0.00276351,10,0.00161186,-1.96626,-0.0484486,-1.21779,497.141,-0.149139,
2,0,0,1,1,54393.5,-0.14467,-0.145146,-8.8366,28,-0.00280262,10,0.0012826,-2.05371,-0.0406828,-1.45024,477.842,-0.145146,
2,0,0,1,1,54393.5,-0.140656,-0.141099,-6.97405,28,-0.00283401,10,0.000984029,-2.15651,-0.0323741,-1.82245,458.828,-0.1410986,
2,0,0,1,1,54393.5,-0.136661,-0.137144,-5.18532,28,-0.00285813,10,0.000711137,-2.28522,-0.0230716,-2.55725,440.247,-0.137144,
2,0,0,1,1,54393.5,-0.132665,-0.133124,-3.45997,28,-0.00287525,10,0.000460607,-2.46093,-0.00980633,-6.01652,426.303,-0.133124,
2,0,0,1,1,54393.5,-0.12867,-0.129135,-1.78778,28,-0.00288556,10,0.000230865,-2.74769,-0.0282742,-2.0867,412.858,-0.129135,
2,0,0,1,1,54393.5,-0.124675,-0.125124,-0.163845,28,-0.00288929,10,2.05009e-05,-3.78557,-0.226212,-0.260817,400.555,-0.125124,
2,1,0,1,1,54393.5,-0.12068,-0.121166,1.41143,28,-0.00288663,10,-0.000171017,-2.85034,0.0404585,1.45829,389.713,-0.1211661,
2,1,0,1,1,54393.5,-0.116685,-0.117145,2.94059,28,-0.00287776,10,-0.000344476,-2.53157,0.010264,5.74824,379.203,-0.117145,
2,1,0,1,1,54393.5,-0.112689,-0.113161,4.43749,28,-0.00286286,10,-0.000502151,-2.35286,0.0222995,2.6458,370.688,-0.1131611,
2,1,0,1,1,54393.5,-0.108694,-0.109155,5.89153,28,-0.00284205,10,-0.000643089,-2.22977,0.0337229,1.74955,363.927,-0.109155,
2,1,0,1,1,54393.5,-0.104699,-0.105224,7.32098,28,-0.00281548,10,-0.000770342,-2.13543,0.0448698,1.31492,353.417,-0.105224,
2,1,0,1,1,54393.5,-0.100654,-0.101164,8.75664,28,-0.00278313,10,-0.000885854,-2.05766,0.0555485,1.06214,346.569,-0.101164,
2,1,0,1,1,54393.5,-0.0966588,-0.0971246,10.1051,28,-0.00274525,10,-0.00098145,-1.99546,0.0667939,0.883314,337.246,-0.0971246,
2,1,0,1,1,54393.5,-0.0926637,-0.093148,11.439,28,-0.00270202,10,-0.00106552,-1.94161,0.0782698,0.753802,329.144,-0.093148,
2,1,0,1,1,54393.5,-0.0886685,-0.0891461,12.7432,28,-0.00265352,10,-0.001136,-1.89472,0.0888492,0.664047,324.389,-0.0891461,
2,1,0,1,1,54393.5,-0.0846733,-0.0851324,14.0332,28,-0.00259982,10,-0.00119468,-1.85284,0.100549,0.586778,316.358,-0.0851324,
2,1,0,1,1,54393.5,-0.0806781,-0.0811548,15.2855,28,-0.00254106,10,-0.00124049,-1.81572,0.111984,0.526859,310.208,-0.0811548,
2,1,0,1,1,54393.6,-0.076683,-0.077155,16.4985,28,-0.00247736,10,-0.00127294,-1.78255,0.124143,0.475259,302.95,-0.077155,
2,1,0,1,1,54393.6,-0.0726878,-0.0731626,17.7014,28,-0.00240884,10,-0.00129508,-1.75199,0.136838,0.431168,295.185,-0.0731626,
2,1,0,1,1,54393.6,-0.0686926,-0.0691595,18.8722,28,-0.00233558,10,-0.00130519,-1.72418,0.147909,0.398895,291.837,-0.0691595,
2,1,0,1,1,54393.6,-0.0646974,-0.0651469,20.0108,28,-0.00225768,10,-0.00130364,-1.69874,0.161815,0.364615,283.025,-0.0651469,
2,1,0,1,1,54393.6,-0.0606523,-0.0610803,21.1897,28,-0.00217519,10,-0.00129427,-1.67387,0.174934,0.337271,276.633,-0.0610803,
2,1,0,1,1,54393.6,-0.0566571,-0.0570868,22.2513,28,-0.0020882,10,-0.00127025,-1.65265,0.188216,0.31347,270.537,-0.0570868,
2,1,0,1,1,54393.6,-0.052662,-0.0530901,23.3176,28,-0.00199695,10,-0.00123793,-1.63232,0.203798,0.289502,262.343,-0.0530901,
2,1,0,1,1,54393.6,-0.0486668,-0.0490722,24.3596,28,-0.00190151,10,-0.00119538,-1.61333,0.216711,0.272252,257.709,-0.0490722,
2,1,0,1,1,54393.6,-0.0446716,-0.0451265,25.3751,28,-0.00180193,10,-0.00114509,-1.59559,0.231368,0.255004,251.504,-0.04512646,
2,1,0,1,1,54393.6,-0.0406764,-0.0410863,26.3747,28,-0.00169833,10,-0.00108364,-1.57881,0.246319,0.239526,245.558,-0.0410863,
2,1,0,1,1,54393.6,-0.0366813,-0.0371289,27.3319,28,-0.00159083,10,-0.0010148,-1.56333,0.262984,0.224348,238.537,-0.0371289,
2,1,0,1,1,54393.6,-0.0326861,-0.033128,28.2748,28,-0.00147951,10,-0.000936686,-1.5486,0.278099,0.212155,233.442,-0.033128,
2,1,0,1,1,54393.6,-0.0286909,-0.0290825,29.2022,28,-0.00136446,10,-0.000849272,-1.53458,0.29227,0.201868,229.511,-0.0290825,
2,1,0,1,1,54393.6,-0.0246957,-0.0251463,30.0958,28,-0.00124576,10,-0.000756797,-1.52149,0.31061,0.189949,222.6,-0.0251463,
2,1,0,1,1,54393.6,-0.0206756,-0.021104,31.0098,28,-0.00112349,10,-0.00065443,-1.5085,0.328618,0.17954,216.528,-0.021104,
2,1,0,1,1,54393.6,-0.0166554,-0.0170575,31.8521,28,-0.000997663,10,-0.000543316,-1.49686,0.348006,0.169537,210.081,-0.0170575,
2,1,0,1,1,54393.6,-0.0126603,-0.013081,32.6669,28,-0.000868531,10,-0.000427315,-1.48589,0.371052,0.159008,202.312,-0.013081,
2,1,0,1,1,54393.6,-0.0086651,-0.00910443,33.4659,28,-0.000736179,10,-0.000304688,-1.4754,0.388245,0.151966,197.939,-0.00910443,
2,1,0,1,1,54393.6,-0.00466992,-0.00510246,34.2471,28,-0.000600655,10,-0.000174744,-1.46538, , , ,-0.005102457,
2,1,0,1,1,54393.6,-0.000974387,-0.00142762,34.9459,28,-0.000472619,10,-4.98893e-05,-1.4566, , , ,-0.00142762,
2,1,0,0,1,54393.6,-0.000175352,-0.000649808,35.077,28,-0.000444625,10,-2.27933e-05,-1.45498, , , ,-0.000649808,