File: Figure_codes/Fig_3-5/rawdata_trumpetplot_data/after 10th/20221101_1-115_003_TrumpetPlot_ParaChange_from10_every3_02_CV_C01_14.csv
mode,ox/red,error,control changes,counter inc.,time/s,control/V,Ewe/V,<I>/mA,cycle number,(Q-Qo)/C,I Range,P/W,log(|I|),Tafel slope mV/dec,alpha_eff,dI/d(E-IR),E-IR/V,
2,0,0,1,0,27921.9,2.44065e-05,-0.000363498,-0.381156,15,0.0000000E+000,10,1.3855e-07,-3.4189, , , ,-0.000363498,
2,0,0,1,0,27923.1,0.00129791,0.000922806,-0.179408,15,-0.000264688,10,-1.65559e-07,-3.74616, , , ,0.000922806,
2,0,0,1,0,27924.6,0.00279612,0.00250497,-0.143425,15,-0.000484938,10,-3.59275e-07,-3.84338,-0.0170501,-3.46039,20.9064,0.00250497,
2,0,0,1,0,27926.1,0.00429431,0.00396193,-0.122732,15,-0.00066621,10,-4.86257e-07,-3.91104,-0.0241788,-2.44016,11.8638,0.00396193,
2,0,0,1,0,27927.6,0.00579242,0.00546234,-0.107178,15,-0.000820505,10,-5.85442e-07,-3.9699,-0.0268919,-2.19397,9.34885,0.00546234,
2,0,0,1,0,27929.1,0.00729061,0.00696389,-0.0948135,15,-0.000954457,10,-6.60271e-07,-4.02313,-0.0302809,-1.94842,7.31563,0.00696389,
2,0,0,1,0,27930.6,0.00878882,0.00844744,-0.0851577,15,-0.00107247,10,-7.19365e-07,-4.06978,-0.0335177,-1.76026,5.93273,0.00844744,
2,0,0,1,0,27932.1,0.010287,0.0099511,-0.0770548,15,-0.00117736,10,-7.6678e-07,-4.1132,-0.0352222,-1.67508,5.10664,0.0099511,
2,0,0,1,0,27933.6,0.0117852,0.0114208,-0.0703366,15,-0.00127136,10,-8.03302e-07,-4.15282,-0.0368021,-1.60317,4.4328,0.0114208,
2,0,0,1,0,27935.1,0.0132834,0.0129553,-0.0643923,15,-0.00135577,10,-8.34219e-07,-4.19117,-0.0370611,-1.59197,3.98767,0.0129553,
2,0,0,1,0,27936.6,0.0147815,0.0144651,-0.0585432,15,-0.00143152,10,-8.46836e-07,-4.23252,-0.0396223,-1.48906,3.4225,0.01446513,
2,0,0,1,0,27938.1,0.0162797,0.015955,-0.0537539,15,-0.00149912,10,-8.57645e-07,-4.26959,-0.0417806,-1.41214,2.98974,0.01595504,
2,0,0,1,0,27939.6,0.0177779,0.017464,-0.0496857,15,-0.00156013,10,-8.67713e-07,-4.30377,-0.0396356,-1.48856,2.88009,0.017464,
2,0,0,1,0,27941.1,0.0192761,0.0189751,-0.0452107,15,-0.00161525,10,-8.57878e-07,-4.34476,-0.0397443,-1.48449,2.62624,0.0189751,
2,0,0,1,0,27942.6,0.0207743,0.0204417,-0.0410302,15,-0.0016638,10,-8.38727e-07,-4.3869,-0.0407976,-1.44616,2.36238,0.0204417,
2,0,0,1,0,27944.1,0.0222725,0.0219273,-0.0373115,15,-0.00170664,10,-8.18139e-07,-4.42816,-0.0361668,-1.63133,2.39521,0.0219273,
2,0,0,1,0,27945.6,0.0237707,0.0234914,-0.0344886,15,-0.00174436,10,-8.10186e-07,-4.46232,-0.0380957,-1.54873,2.10089,0.0234914,
2,0,0,1,0,27947.1,0.0252689,0.0249706,-0.0313371,15,-0.00177756,10,-7.82508e-07,-4.50394,-0.0336013,-1.75588,2.12812,0.0249706,
2,0,0,1,0,27948.6,0.0267671,0.0264362,-0.0284302,15,-0.00180615,10,-7.51587e-07,-4.54622,-0.0314574,-1.87555,2.09335,0.0264362,
2,0,0,1,0,27950.1,0.0282653,0.027942,-0.025255,15,-0.00182974,10,-7.05674e-07,-4.59765,-0.0296169,-1.9921,1.96891,0.027942,
2,0,0,1,0,27951.6,0.0297635,0.0294392,-0.0223229,15,-0.00184897,10,-6.57168e-07,-4.65125,-0.027935,-2.11204,1.82524,0.0294392,
2,0,0,1,0,27953.1,0.0312617,0.0309324,-0.0197024,15,-0.00186386,10,-6.09442e-07,-4.70548,-0.0237211,-2.48724,1.89451,0.0309324,
2,0,0,1,0,27954.6,0.0327599,0.0324148,-0.0168912,15,-0.00187463,10,-5.47523e-07,-4.77234,-0.0223466,-2.64022,1.7186,0.03241476,
2,0,0,1,0,27956.1,0.0342581,0.0339142,-0.0137377,15,-0.00188111,10,-4.65902e-07,-4.86209,-0.0183206,-3.22041,1.7517,0.0339142,
2,0,0,1,0,27957.6,0.0357563,0.0354455,-0.0111651,15,-0.00188327,10,-3.95754e-07,-4.95214,-0.0165266,-3.57001,1.63686,0.0354455,
2,0,0,1,0,27959.1,0.0372544,0.0369204,-0.00941926,15,-0.0018818,10,-3.47763e-07,-5.02598,-0.0118937,-4.96059,1.619,0.0369204,
2,0,0,1,0,27960.6,0.0387526,0.0384177,-0.00680842,15,-0.00187696,10,-2.61564e-07,-5.16695,-0.00835087,-7.06513,1.66772,0.0384177,
2,0,0,1,0,27962.1,0.0402508,0.0399266,-0.00428966,15,-0.00186805,10,-1.71272e-07,-5.36758,-0.0049577,-11.9007,1.57645,0.0399266,
2,0,0,1,0,27963.6,0.041749,0.0414388,-0.00205796,15,-0.00185554,10,-8.52793e-08,-5.68656,-0.00434785,-13.5699,1.42143,0.0414388,
2,0,0,1,0,27965.1,0.0432472,0.0429488,0.000341093,15,-0.00183991,10,1.46496e-08,-6.46713,0.136207,0.433164,1.47879,0.0429488,
2,0,0,1,0,27966.6,0.0447454,0.044444,0.00228361,15,-0.0018214,10,1.01493e-07,-5.64138,0.0049859,11.8334,1.37173,0.044444,
2,0,0,1,0,27968.1,0.0462435,0.0459211,0.00400826,15,-0.00179923,10,1.84064e-07,-5.39704,0.00569803,10.3545,1.35439,0.0459211,
2,1,0,1,0,27969.6,0.0477417,0.0474098,0.0066848,15,-0.00177397,10,3.16925e-07,-5.17491,0.0100454,5.87332,1.35161,0.0474098,
2,1,0,1,0,27971.1,0.0492399,0.0489178,0.00832019,15,-0.00174556,10,4.07006e-07,-5.07987,0.0124495,4.73915,1.52914,0.0489178,
2,1,0,1,0,27972.6,0.0507381,0.0503822,0.00975504,15,-0.00171446,10,4.91481e-07,-5.01077,0.0175844,3.35524,1.34149,0.0503822,
2,0,0,1,0,27974.1,0.0522363,0.0518976,0.0123449,15,-0.00167985,10,6.40669e-07,-4.90851,0.0186951,3.15591,1.49817,0.0518976,
2,1,0,1,0,27975.6,0.0537345,0.053415,0.0152862,15,-0.0016418,10,8.16512e-07,-4.8157,0.0228068,2.58695,1.41553,0.053415,
2,0,0,1,0,27977.1,0.0552327,0.0549006,0.0162947,15,-0.00160097,10,8.94588e-07,-4.78795,0.0304417,1.93813,1.20843,0.0549006,
2,1,0,1,0,27978.6,0.0567309,0.0563841,0.0178535,15,-0.00155757,10,1.00665e-06,-4.74828,0.034603,1.70505,1.19066,0.0563841,
2,1,0,1,0,27980.1,0.0582291,0.0579143,0.0199766,15,-0.0015115,10,1.15693e-06,-4.69948,0.0358332,1.64652,1.26467,0.0579143,
2,1,0,1,0,27981.6,0.0597273,0.0594022,0.0221584,15,-0.00146238,10,1.31626e-06,-4.65446,0.0419494,1.40646,1.17524,0.0594022,
2,1,0,1,0,27983.1,0.0612255,0.0609004,0.0235046,15,-0.00141052,10,1.43144e-06,-4.62885,0.0605946,0.973685,0.876987,0.0609004,
2,1,0,1,0,27984.6,0.0627237,0.0624253,0.024986,15,-0.0013563,10,1.55976e-06,-4.6023,0.0555192,1.0627,1.05439,0.0624253,
2,1,0,1,0,27986.1,0.0642219,0.0639173,0.0268907,15,-0.00130037,10,1.71878e-06,-4.5704,0.0477386,1.2359,1.30756,0.0639173,
2,1,0,1,0,27987.6,0.0657201,0.0653775,0.0287387,15,-0.00124107,10,1.87886e-06,-4.54153,0.0580836,1.01578,1.12292,0.0653775,
2,1,0,1,0,27989,0.0672183,0.0669194,0.0304438,15,-0.00117914,10,2.03728e-06,-4.5165,0.0588063,1.00329,1.17534,0.0669194,
2,1,0,1,0,27990.5,0.0687164,0.0684292,0.0321415,15,-0.00111466,10,2.19942e-06,-4.49293,0.0668444,0.882647,1.0781,0.0684292,
2,1,0,1,0,27992,0.0702146,0.0698852,0.0333988,15,-0.0010484,10,2.33408e-06,-4.47627,0.0819758,0.719725,0.931187,0.0698852,
2,1,0,1,0,27993.5,0.0717128,0.0713815,0.0346612,15,-0.000979981,10,2.47417e-06,-4.46016,0.0766488,0.769745,1.02942,0.0713815,
2,1,0,1,0,27995,0.073211,0.0728502,0.0359488,15,-0.000909243,10,2.61887e-06,-4.44432,0.087606,0.67347,0.948423,0.07285016,
2,1,0,1,0,27996.5,0.0747092,0.074392,0.0376619,15,-0.000836367,10,2.80174e-06,-4.4241,0.0991328,0.595161,0.869831,0.074392,
2,1,0,1,0,27998,0.0762074,0.0758416,0.0389463,15,-0.000761686,10,2.95375e-06,-4.40953,0.0862719,0.683884,1.03658,0.0758416,
2,1,0,1,0,27999.5,0.0777055,0.0773822,0.0406334,15,-0.000684375,10,3.1443e-06,-4.39112,0.082238,0.71743,1.13105,0.0773822,
2,1,0,1,0,28001,0.0792037,0.078871,0.0426771,15,-0.00060464,10,3.36598e-06,-4.36981,0.108714,0.542708,0.886612,0.078871,
2,1,0,1,0,28002.5,0.0807019,0.0803673,0.0441226,15,-0.000522267,10,3.54602e-06,-4.35534,0.100471,0.587237,0.990933,0.0803673,
2,1,0,1,0,28004,0.0822001,0.0818773,0.043916,15,-0.000438252,10,3.59572e-06,-4.35738,0.100401,0.587644,1.03468,0.0818773,
2,1,0,1,0,28005.5,0.0836983,0.0834075,0.0466251,15,-0.000352241,10,3.88888e-06,-4.33138,0.10061,0.586425,1.0704,0.0834075,
2,1,0,1,0,28007,0.0851965,0.0848794,0.0480247,15,-0.000263376,10,4.0763e-06,-4.31854,0.110231,0.535242,1.00156,0.0848794,
2,1,0,1,0,28008.5,0.0866947,0.0863417,0.0495179,15,-0.000172165,10,4.27546e-06,-4.30524,0.116303,0.507297,0.982418,0.0863417,
2,1,0,1,0,28010,0.0881929,0.0878856,0.0514707,15,-7.84106e-05,10,4.52353e-06,-4.28844,0.0917087,0.643342,1.29642,0.0878856,
2,1,0,1,0,28011.5,0.0896911,0.0893554,0.0531692,15,1.75909e-05,10,4.75096e-06,-4.27434,0.0886482,0.665552,1.39962,0.0893554,
2,1,0,1,0,28013,0.0911893,0.0908209,0.0557364,15,0.000117146,10,5.06203e-06,-4.25386,0.0863814,0.683018,1.4707,0.0908209,
2,1,0,1,0,28014.5,0.0926875,0.0923214,0.0574308,15,0.000220352,10,5.30209e-06,-4.24086,0.098882,0.596671,1.33203,0.0923214,
2,1,0,1,0,28016,0.0941857,0.0938717,0.0596811,15,0.000326089,10,5.60237e-06,-4.22416,0.1018,0.579566,1.34282,0.0938717,
2,1,0,1,0,28017.5,0.0956839,0.0954029,0.0617736,15,0.000434613,10,5.89338e-06,-4.2092,0.0979012,0.602649,1.44574,0.0954029,
2,1,0,1,0,28019,0.0971821,0.0968716,0.0632711,15,0.000546467,10,6.12917e-06,-4.19879,0.0884023,0.667404,1.65053,0.0968716,
2,1,0,1,0,28020.5,0.0986803,0.0983583,0.06558,15,0.000661607,10,6.45034e-06,-4.18323,0.107503,0.548819,1.40817,0.0983583,
2,1,0,1,0,28022,0.100178,0.0998735,0.067937,15,0.00077999,10,6.78511e-06,-4.16789,0.117124,0.503739,1.3335,0.0998735,
2,1,0,1,0,28023.5,0.101677,0.101317,0.0697301,15,0.00090114,10,7.06483e-06,-4.15658,0.117866,0.50057,1.36979,0.101317,
2,1,0,1,0,28025,0.103175,0.102845,0.0721838,15,0.00102572,10,7.42372e-06,-4.14156,0.117345,0.502791,1.40918,0.1028448,
2,1,0,1,0,28026.5,0.104673,0.104291,0.0749566,15,0.00115402,10,7.81732e-06,-4.12519,0.124418,0.474209,1.36946,0.1042912,
2,1,0,1,0,28028,0.106171,0.105829,0.0760888,15,0.00128534,10,8.05238e-06,-4.11868,0.140604,0.419617,1.24272,0.105829,
2,1,0,1,0,28029.5,0.107669,0.10733,0.0781573,15,0.00141929,10,8.38865e-06,-4.10703,0.144223,0.40909,1.24675,0.10733,
2,1,0,1,0,28031,0.109167,0.10886,0.0802688,15,0.00155609,10,8.73809e-06,-4.09545,0.111213,0.530514,1.66278,0.1088604,
2,1,0,1,0,28032.5,0.110666,0.110297,0.0819513,15,0.00169618,10,9.039e-06,-4.08644,0.156978,0.37585,1.20469,0.110297,
2,1,0,1,0,28034,0.112164,0.111852,0.0840983,15,0.00183962,10,9.40655e-06,-4.07521,0.208838,0.282515,0.921251,0.111852,
2,1,0,1,0,28035.5,0.113662,0.113347,0.0856571,15,0.00198516,10,9.70898e-06,-4.06724,0.217889,0.27078,0.907093,0.113347,
2,1,0,1,0,28037,0.11516,0.114808,0.0873728,15,0.00213275,10,1.00311e-05,-4.05862,0.18424,0.320234,1.08522,0.1148083,
2,1,0,1,0,28038.5,0.116658,0.116324,0.0887403,15,0.00228334,10,1.03226e-05,-4.05188,0.195776,0.301364,1.04585,0.116324,
2,1,0,1,0,28040,0.118157,0.117804,0.0906571,15,0.0024365,10,1.06798e-05,-4.0426,0.206534,0.285667,1.00935,0.117804,
2,1,0,1,0,28041.5,0.119655,0.119343,0.0926787,15,0.00259213,10,1.10605e-05,-4.03302,0.199189,0.296201,1.0671,0.1193426,
2,1,0,1,0,28043,0.121153,0.120819,0.094016,15,0.00274988,10,1.13589e-05,-4.0268,0.210102,0.280816,1.03043,0.120819,
2,1,0,1,0,28044.5,0.122651,0.122313,0.0957548,15,0.00291044,10,1.1712e-05,-4.01884,0.160756,0.367016,1.36451,0.122313,
2,1,0,1,0,28046,0.124149,0.12379,0.0963854,15,0.00307334,10,1.19315e-05,-4.01599,0.238201,0.24769,0.940298,0.12379,
2,1,0,1,0,28047.5,0.125648,0.125341,0.098959,15,0.00323884,10,1.24037e-05,-4.00454,0.291457,0.202431,0.776646,0.125341,
2,1,0,1,0,28049,0.127146,0.126817,0.0986801,15,0.00340616,10,1.25144e-05,-4.00577,0.35829,0.164671,0.638663,0.126817,
2,1,0,1,0,28050.5,0.128644,0.128302,0.10115,15,0.00357479,10,1.29778e-05,-3.99503,0.418054,0.14113,0.553463,0.128302,
2,1,0,1,0,28052,0.130142,0.129806,0.101347,15,0.00374512,10,1.31554e-05,-3.99419,1.56563,0.0376844,0.148367,0.129806,
2,1,0,1,0,28053.5,0.13164,0.131323,0.10138,15,0.00391585,10,1.33135e-05,-3.99405,-0.760104,-0.077621,-0.305249,0.131323,
2,1,0,1,0,28055,0.133139,0.132836,0.100492,15,0.0040858,10,1.3349e-05,-3.99787,-0.378618,-0.15583,-0.611868,0.132836,
2,1,0,1,0,28056.5,0.134637,0.134335,0.0992527,15,0.00425378,10,1.33331e-05,-4.00326,-0.217563,-0.271185,-1.04914,0.134335,
2,1,0,1,0,28058,0.136135,0.135815,0.0975854,15,0.00442005,10,1.32536e-05,-4.01062,-0.151505,-0.389426,-1.47125,0.135815,
2,1,0,1,0,28059.5,0.137633,0.137345,0.0952489,15,0.00458307,10,1.3082e-05,-4.02114,-0.110803,-0.532475,-1.95764,0.137345,
2,1,0,1,0,28061,0.139131,0.138814,0.0926428,15,0.00474134,10,1.28601e-05,-4.03319,-0.0911264,-0.647453,-2.32073,0.138814,
2,1,0,1,0,28062.5,0.14063,0.140312,0.0887057,15,0.00489431,10,1.24465e-05,-4.05205,-0.0828125,-0.712453,-2.44229,0.140312,
2,1,0,1,0,28064,0.142128,0.141836,0.084833,15,0.00504195,10,1.20324e-05,-4.07144,-0.0750075,-0.786588,-2.57774,0.141836,
2,1,0,1,0,28065.5,0.143626,0.143351,0.0803284,15,0.00518379,10,1.15152e-05,-4.09513,-0.0682734,-0.864173,-2.69136,0.143351,
2,1,0,1,0,28067,0.145124,0.144817,0.0758591,15,0.00531848,10,1.09857e-05,-4.11999,-0.0594746,-0.99202,-2.96921,0.144817,
2,1,0,1,0,28068.5,0.146622,0.146295,0.0717803,15,0.00544641,10,1.05011e-05,-4.14399,-0.0696721,-0.846824,-2.39103,0.146295,
2,1,0,1,0,28070,0.14812,0.147809,0.0683368,15,0.00556877,10,1.01008e-05,-4.16535,-0.0787345,-0.749354,-2.003,0.147809,
2,1,0,1,0,28071.4,0.149619,0.149284,0.06568,15,0.00568644,10,9.805e-06,-4.18257,-0.0793797,-0.743263,-1.89783,0.149284,
2,1,0,1,0,28072.9,0.151117,0.150825,0.0624834,15,0.00579936,10,9.42407e-06,-4.20424,-0.0886789,-0.665322,-1.64207,0.150825,
2,1,0,1,0,28074.4,0.152615,0.152283,0.0600923,15,0.00590829,10,9.15103e-06,-4.22118,-0.101993,-0.578473,-1.36602,0.152283,
2,1,0,1,0,28075.9,0.154113,0.153808,0.0584541,15,0.00601402,10,8.9907e-06,-4.23319,-0.115548,-0.510612,-1.17009,0.153808,
2,1,0,1,0,28077.4,0.155611,0.15527,0.05743,15,0.00611765,10,8.91717e-06,-4.24086,-0.148111,-0.39835,-0.883983,0.15527,
2,1,0,1,0,28078.9,0.15711,0.156785,0.05594,15,0.00621907,10,8.77052e-06,-4.25228,-0.12556,-0.469893,-1.02657,0.156785,
2,1,0,1,0,28080.4,0.158608,0.158256,0.0546492,15,0.00631865,10,8.64858e-06,-4.26242,-0.155568,-0.379255,-0.81278,0.1582564,
2,1,0,1,0,28081.9,0.160106,0.159787,0.0533251,15,0.00641652,10,8.52063e-06,-4.27307,-0.18576,-0.317614,-0.669591,0.159787,
2,1,0,1,0,28083.4,0.161604,0.161278,0.0523946,15,0.00651281,10,8.45007e-06,-4.28071,-0.168614,-0.349912,-0.727989,0.161278,
2,1,0,1,0,28084.9,0.163102,0.162802,0.0523625,15,0.00660793,10,8.52474e-06,-4.28098,-0.28579,-0.206446,-0.42189,0.162802,
2,1,0,1,0,28086.4,0.164601,0.164235,0.0519717,15,0.00670224,10,8.53557e-06,-4.28423,-0.483032,-0.122145,-0.246304,0.164235,
2,1,0,1,0,28087.9,0.166099,0.165777,0.0514674,15,0.00679569,10,8.5321e-06,-4.28847,-0.357464,-0.165052,-0.32895,0.165777,
2,1,0,1,0,28089.4,0.167597,0.167285,0.0511795,15,0.0068886,10,8.56155e-06,-4.2909,-6.6296,-0.00889948,-0.0177111,0.167285,
2,1,0,1,0,28090.9,0.169095,0.168754,0.05102,15,0.00698135,10,8.60985e-06,-4.29226,-2.76004,-0.0213765,-0.0426523,0.1687544,
2,1,0,1,0,28092.4,0.170593,0.170262,0.0510674,15,0.00707395,10,8.69484e-06,-4.29186,-0.560694,-0.105227,-0.208606,0.170262,
2,1,0,1,0,28093.9,0.172091,0.171789,0.0505926,15,0.00716611,10,8.69127e-06,-4.29591,-1.25081,-0.0471694,-0.0936281,0.171789,
2,1,0,1,0,28095.4,0.17359,0.173257,0.0504126,15,0.00725785,10,8.73432e-06,-4.29746,-1.24684,-0.0473197,-0.0931553,0.173257,
2,1,0,1,0,28096.9,0.175088,0.174779,0.050635,15,0.00734943,10,8.8499e-06,-4.29555,-0.675086,-0.0873962,-0.171312,0.174779,
2,1,0,1,0,28098.4,0.176586,0.176265,0.0500348,15,0.00744095,10,8.81939e-06,-4.30073,-1.20563,-0.0489372,-0.0957509,0.176265,
2,1,0,1,0,28099.9,0.178084,0.177751,0.049868,15,0.00753198,10,8.86408e-06,-4.30218,-1.14524,-0.0515178,-0.101347,0.177751,
2,1,0,1,0,28101.4,0.179582,0.179261,0.0503383,15,0.00762298,10,9.02369e-06,-4.2981,2.78217,0.0212065,0.0415357,0.179261,
2,1,0,1,0,28102.9,0.181081,0.180763,0.0503165,15,0.00771439,10,9.09538e-06,-4.29829,4.48502,0.0131549,0.0256954,0.180763,
2,1,0,1,0,28104.4,0.182579,0.182285,0.0498828,15,0.00780543,10,9.09289e-06,-4.30205,3.71314,0.0158895,0.0311204,0.182285,
2,1,0,1,0,28105.9,0.184077,0.18375,0.0498309,15,0.00789638,10,9.15641e-06,-4.3025,0.397335,0.148489,0.293234,0.18375,
2,1,0,1,0,28107.4,0.185575,0.185243,0.0505737,15,0.00798769,10,9.3684e-06,-4.29608,0.736157,0.080146,0.156478,0.185243,
2,1,0,1,0,28108.9,0.187073,0.186741,0.0508107,15,0.00807936,10,9.48844e-06,-4.29405,2.96837,0.0198762,0.0393158,0.186741,
2,1,0,1,0,28110.4,0.188572,0.188263,0.050564,15,0.00817124,10,9.51931e-06,-4.29616,1.27675,0.0462112,0.090876,0.1882627,
2,1,0,1,0,28111.9,0.19007,0.189763,0.0506919,15,0.00826313,10,9.61945e-06,-4.29506,-2.44917,-0.0240898,-0.0474136,0.189763,
2,1,0,1,0,28113.4,0.191568,0.191214,0.0506866,15,0.00835453,10,9.69198e-06,-4.29511,9.55358,0.0061757,0.0122116,0.191214,
2,1,0,1,0,28114.9,0.193066,0.192744,0.050707,15,0.00844602,10,9.77347e-06,-4.29493,0.534715,0.110339,0.218815,0.192744,
2,1,0,1,0,28116.4,0.194564,0.194235,0.0507497,15,0.00853806,10,9.85736e-06,-4.29457,1.50569,0.0391846,0.0773852,0.194235,
2,1,0,1,0,28117.9,0.196063,0.195743,0.050705,15,0.0086301,10,9.92514e-06,-4.29495,-0.856549,-0.068881,-0.137531,0.195743,
2,1,0,1,0,28119.4,0.197561,0.197267,0.0507306,15,0.00872177,10,1.00074e-05,-4.29473,-1.88316,-0.0313303,-0.0624932,0.197267,
2,1,0,1,0,28120.9,0.199059,0.198732,0.0508108,15,0.00881363,10,1.00977e-05,-4.29404,0.672135,0.08778,0.175499,0.198732,
2,1,0,1,0,28122.4,0.200557,0.200253,0.0513165,15,0.0089058,10,1.02763e-05,-4.28974,0.780422,0.0756001,0.151025,0.200253,
2,1,0,1,0,28123.9,0.202055,0.20176,0.0517271,15,0.00899859,10,1.04364e-05,-4.28628,0.767785,0.0768445,0.154203,0.20176,
2,1,0,1,0,28125.4,0.203554,0.203237,0.0513414,15,0.0090916,10,1.04345e-05,-4.28953,-10.5692,-0.00558225,-0.0112731,0.2032367,
2,1,0,1,0,28126.9,0.205052,0.204737,0.051967,15,0.00918486,10,1.06396e-05,-4.28427,0.48869,0.120731,0.24624,0.204737,
2,1,0,1,0,28128.4,0.20655,0.206213,0.0513594,15,0.00927821,10,1.0591e-05,-4.28938,4.32399,0.0136448,0.0277867,0.206213,
2,1,0,1,0,28129.9,0.208048,0.207783,0.0520218,15,0.00937205,10,1.08092e-05,-4.28381,-3.4695,-0.0170054,-0.0344636,0.207783,
2,1,0,1,0,28131.4,0.209546,0.209268,0.052026,15,0.00946567,10,1.08874e-05,-4.28378,3.97197,0.0148541,0.0302051,0.209268,
2,1,0,1,0,28132.9,0.211044,0.210764,0.0523119,15,0.00955902,10,1.10255e-05,-4.2814,1.2744,0.0462964,0.094358,0.210764,
2,1,0,1,0,28134.4,0.212543,0.21226,0.0525021,15,0.00965278,10,1.11441e-05,-4.27982,0.594659,0.0992165,0.20283,0.21226,
2,1,0,1,0,28135.9,0.214041,0.213742,0.0526659,15,0.00974677,10,1.12569e-05,-4.27847,0.707053,0.083445,0.170978,0.213742,
2,1,0,1,0,28137.4,0.215539,0.215228,0.0528156,15,0.00984133,10,1.13674e-05,-4.27724,0.489145,0.120619,0.247585,0.215228,
2,1,0,1,0,28138.9,0.217037,0.216703,0.0535343,15,0.00993618,10,1.1601e-05,-4.27137,0.630568,0.0935664,0.194538,0.216703,
2,1,0,1,0,28140.4,0.218535,0.218224,0.0533932,15,0.0100314,10,1.16517e-05,-4.27251,1.11122,0.053095,0.109742,0.218224,
2,1,0,1,0,28141.9,0.220034,0.219722,0.053877,15,0.0101272,10,1.1838e-05,-4.2686,0.744487,0.0792492,0.166157,0.219722,
2,1,0,1,0,28143.4,0.221532,0.221212,0.0534355,15,0.0102229,10,1.18205e-05,-4.27217,-3.82106,-0.0154408,-0.0324872,0.221212,
2,1,0,1,0,28144.9,0.22303,0.22273,0.0529824,15,0.0103184,10,1.18008e-05,-4.27587,0.942443,0.0626033,0.131867,0.22273,
2,1,0,1,0,28146.4,0.224528,0.224235,0.0541792,15,0.0104144,10,1.21489e-05,-4.26617,1.18262,0.0498891,0.104557,0.224235,
2,1,0,1,0,28147.9,0.226026,0.225743,0.0539304,15,0.0105108,10,1.21744e-05,-4.26817,3.40587,0.017323,0.0366008,0.225743,
2,1,0,1,0,28149.4,0.227525,0.227191,0.0542043,15,0.0106072,10,1.23147e-05,-4.26597,2.22786,0.0264829,0.0561106,0.227191,
2,1,0,1,0,28150.9,0.229023,0.228715,0.0546767,15,0.0107039,10,1.25054e-05,-4.2622,0.506459,0.116495,0.248256,0.228715,
2,1,0,1,0,28152.4,0.230521,0.23022,0.0549556,15,0.0108009,10,1.26519e-05,-4.25999,1.38532,0.0425895,0.0910548,0.23022,
2,1,0,1,0,28153.9,0.232019,0.231732,0.054903,15,0.0108985,10,1.27228e-05,-4.2604,1.57514,0.0374571,0.080395,0.231732,
2,1,0,1,0,28155.3,0.233517,0.233184,0.0550867,15,0.0109963,10,1.28453e-05,-4.25895,1.13727,0.0518788,0.110922,0.233184,
2,1,0,1,0,28156.8,0.235016,0.23472,0.0555429,15,0.0110942,10,1.3037e-05,-4.25537,12.8819,0.00458006,0.00986527,0.23472,
2,1,0,1,0,28158.3,0.236514,0.236188,0.0549909,15,0.0111918,10,1.29882e-05,-4.25971,-3.57777,-0.0164907,-0.0355485,0.236188,
2,1,0,1,0,28159.8,0.238012,0.237699,0.0557362,15,0.0112897,10,1.32484e-05,-4.25386,1.09694,0.0537858,0.116312,0.237699,
2,1,0,1,0,28161.3,0.23951,0.239203,0.0552911,15,0.0113879,10,1.32258e-05,-4.25734,0.659882,0.0894099,0.193833,0.239203,
2,1,0,1,0,28162.8,0.241008,0.240684,0.0559658,15,0.0114863,10,1.34701e-05,-4.25208,1.04739,0.0563305,0.121921,0.240684,
2,1,0,1,0,28164.3,0.242506,0.242175,0.0554792,15,0.0115848,10,1.34357e-05,-4.25587,1.69999,0.0347062,0.0757024,0.242175,
2,1,0,1,0,28165.8,0.244005,0.243675,0.0557453,15,0.0116834,10,1.35837e-05,-4.25379,0.431079,0.136866,0.299804,0.243675,
2,1,0,1,0,28167.3,0.245503,0.245222,0.0566737,15,0.0117827,10,1.38977e-05,-4.24662,0.623792,0.0945828,0.206978,0.245222,
2,1,0,1,0,28168.8,0.247001,0.246684,0.0569958,15,0.0118828,10,1.40599e-05,-4.24416,1.01285,0.0582517,0.128825,0.2466836,
2,1,0,1,0,28170.3,0.248499,0.248213,0.0565263,15,0.0119828,10,1.40306e-05,-4.24775,0.953184,0.0618978,0.137491,0.248213,
2,1,0,1,0,28171.8,0.249997,0.249699,0.0571692,15,0.0120831,10,1.42751e-05,-4.24284,6.23902,0.00945662,0.0210418,0.249699,
2,1,0,1,0,28173.3,0.251496,0.25118,0.057048,15,0.0121839,10,1.43293e-05,-4.24376,0.724786,0.0814034,0.181227,0.25118,
2,1,0,1,0,28174.8,0.252994,0.25267,0.0572868,15,0.0122848,10,1.44746e-05,-4.24195,17.32,0.00340647,0.00765612,0.25267,
2,1,0,1,0,28176.3,0.254492,0.254169,0.0576905,15,0.0123859,10,1.46632e-05,-4.2389,0.626263,0.0942096,0.212369,0.254169,
2,1,0,1,0,28177.8,0.25599,0.255665,0.0580193,15,0.0124871,10,1.48335e-05,-4.23643,0.660615,0.0893108,0.202898,0.255665,
2,1,0,1,0,28179.3,0.257488,0.257173,0.0581251,15,0.0125888,10,1.49482e-05,-4.23564,0.61719,0.0955945,0.216614,0.2571733,
2,1,0,1,0,28180.8,0.258987,0.258725,0.0583122,15,0.0126909,10,1.50868e-05,-4.23424,0.502692,0.117368,0.2672,0.258725,
2,1,0,1,0,28182.3,0.260485,0.260172,0.0585796,15,0.0127935,10,1.52408e-05,-4.23225,2.71607,0.0217226,0.0496427,0.260172,
2,1,0,1,0,28183.8,0.261983,0.261645,0.0587044,15,0.0128963,10,1.53597e-05,-4.23133,1.69254,0.0348589,0.0799113,0.2616449,
2,1,0,1,0,28185.3,0.263481,0.263144,0.0586881,15,0.0129992,10,1.54434e-05,-4.23145,1.49778,0.0393915,0.0905591,0.263144,
2,1,0,1,0,28186.8,0.264979,0.264678,0.059414,15,0.0131025,10,1.57255e-05,-4.22611,4.44398,0.0132764,0.030638,0.264678,
2,1,0,1,0,28188.3,0.266477,0.26616,0.0591101,15,0.0132057,10,1.57328e-05,-4.22834,-11.1905,-0.00527231,-0.0121735,0.26616,
2,1,0,1,0,28189.8,0.267976,0.267661,0.0592293,15,0.0133089,10,1.58533e-05,-4.22746,1.63378,0.0361126,0.0834208,0.267661,
2,1,0,1,0,28191.3,0.269474,0.269153,0.0593697,15,0.0134123,10,1.59795e-05,-4.22644,1.53878,0.0383421,0.0883399,0.269153,
2,1,0,1,0,28192.8,0.270972,0.270648,0.0594728,15,0.0135159,10,1.60962e-05,-4.22568,1.08539,0.0543585,0.126349,0.270648,
2,1,0,1,0,28194.3,0.27247,0.272167,0.0593525,15,0.0136197,10,1.61538e-05,-4.22656,1.81542,0.0324994,0.0754243,0.272167,
2,1,0,1,0,28195.8,0.273968,0.273665,0.0597974,15,0.0137238,10,1.63644e-05,-4.22332,0.985322,0.0598789,0.140073,0.273665,
2,1,0,1,0,28197.3,0.275467,0.275134,0.0603601,15,0.0138282,10,1.66071e-05,-4.21925,0.495234,0.119136,0.279702,0.275134,
2,1,0,1,0,28198.8,0.276965,0.27665,0.0605829,15,0.0139332,10,1.67602e-05,-4.21765,1.04797,0.0562996,0.133098,0.27665,
2,1,0,1,0,28200.3,0.278463,0.278122,0.0606823,15,0.0140383,10,1.68771e-05,-4.21694,2.58741,0.0228027,0.0542351,0.278122,
2,1,0,1,0,28201.8,0.279961,0.279654,0.0610219,15,0.0141436,10,1.7065e-05,-4.21451,1.32486,0.0445331,0.105521,0.279654,
2,1,0,1,0,28203.3,0.281459,0.281162,0.0608363,15,0.0142488,10,1.71048e-05,-4.21584,0.788488,0.0748267,0.178525,0.281162,
2,1,0,1,0,28204.8,0.282958,0.282653,0.0609554,15,0.0143545,10,1.72292e-05,-4.21499,2.04345,0.0288727,0.0687709,0.282653,
2,1,0,1,0,28206.3,0.284456,0.284165,0.0617363,15,0.0144609,10,1.75433e-05,-4.20946,1.45876,0.0404453,0.0968458,0.284165,
2,1,0,1,0,28207.8,0.285954,0.285629,0.0613222,15,0.0145672,10,1.75154e-05,-4.21238,6.916,0.00853094,0.0205085,0.285629,
2,1,0,1,0,28209.3,0.287452,0.287168,0.0617783,15,0.0146734,10,1.77407e-05,-4.20916,1.31692,0.0448016,0.108174,0.287168,
2,1,0,1,0,28210.8,0.28895,0.288606,0.0618417,15,0.0147799,10,1.78479e-05,-4.20872,0.660852,0.0892787,0.215739,0.288606,
2,1,0,1,0,28212.3,0.290448,0.290138,0.0619037,15,0.0148865,10,1.79606e-05,-4.20828,0.813743,0.0725044,0.176013,0.290138,
2,1,0,1,0,28213.8,0.291947,0.291629,0.0621823,15,0.0149939,10,1.81341e-05,-4.20633,0.756048,0.0780373,0.188409,0.291629,
2,1,0,1,0,28215.3,0.293445,0.293108,0.0622019,15,0.015101,10,1.82319e-05,-4.2062,4.31527,0.0136724,0.0333675,0.293108,
2,1,0,1,0,28216.8,0.294943,0.294612,0.0625983,15,0.0152084,10,1.84422e-05,-4.20344,1.77502,0.0332391,0.0808103,0.294612,
2,1,0,1,0,28218.3,0.296441,0.296157,0.0627085,15,0.015316,10,1.85716e-05,-4.20267,1.22605,0.048122,0.116606,0.296157,
2,1,0,1,0,28219.8,0.297939,0.297619,0.0626196,15,0.0154238,10,1.86368e-05,-4.20329,-1.95501,-0.0301789,-0.0733713,0.297619,
2,1,0,1,0,28221.3,0.299438,0.299165,0.0625827,15,0.0155313,10,1.87226e-05,-4.20355,-0.00471159,-12.5223,-20.1501,0.299165,
2,1,0,1,0,28222.1,0.299737,0.299435,0.0321862,15,0.0155796,10,9.63766e-06,-4.49233,0.0021647,27.2555,37.946,0.299435,
2,1,0,1,0,28223.6,0.298239,0.29794,0.0196519,15,0.0156021,10,5.85507e-06,-4.7066,0.00557246,10.5878,13.4963,0.29794,
2,1,0,1,0,28225.1,0.296741,0.296428,0.0151683,15,0.0156141,10,4.49633e-06,-4.81906,0.0133697,4.41298,2.75585,0.296428,
2,1,0,1,0,28226.6,0.295243,0.294928,0.0118326,15,0.0156204,10,3.48975e-06,-4.92692,0.0151581,3.89231,1.88092,0.2949279,
2,1,0,1,0,28228.1,0.293745,0.293438,0.00900013,15,0.0156224,10,2.64098e-06,-5.04575,0.0140937,4.18627,1.59796,0.293438,
2,1,0,1,0,28229.6,0.292246,0.291921,0.00716119,15,0.0156211,10,2.0905e-06,-5.14501,0.0126294,4.67163,1.29156,0.291921,
2,1,0,1,0,28231.1,0.290748,0.290436,0.00550414,15,0.015617,10,1.5986e-06,-5.25931,0.0119085,4.95446,1.03555,0.290436,
2,1,0,1,0,28232.6,0.28925,0.288946,0.00383008,15,0.0156104,10,1.10669e-06,-5.41679,0.00754677,7.81792,1.13343,0.288946,
2,1,0,1,0,28234.1,0.287752,0.28744,0.00240309,15,0.0156012,10,6.90745e-07,-5.61923,0.00542433,10.8769,0.977636,0.28744,
2,0,0,1,0,28235.6,0.286254,0.285958,0.00151517,15,0.0155903,10,4.33275e-07,-5.81954,0.00863522,6.83249,0.927106,0.285958,
2,1,0,1,0,28237.1,0.284755,0.284449,6.4221e-06,15,0.0155773,10,1.82676e-09,-8.19232,0.0773249,0.763015,0.967731,0.284449,
2,1,0,1,0,28238.6,0.283257,0.282969,-0.00171905,15,0.015562,10,-4.86438e-07,-5.76471,-0.00480984,-12.2665,0.869321,0.282969,
2,1,0,1,0,28240.1,0.281759,0.281387,-0.0027826,15,0.0155451,10,-7.82988e-07,-5.55555,-0.00624112,-9.45343,0.807161,0.281387,
2,1,0,1,0,28241.6,0.280261,0.279956,-0.00332652,15,0.0155264,10,-9.31278e-07,-5.47801,-0.0105639,-5.58506,0.730433,0.279956,
2,1,0,1,0,28243.1,0.278763,0.278429,-0.00442443,15,0.0155062,10,-1.23189e-06,-5.35414,-0.018633,-3.16642,0.540283,0.278429,
2,0,0,1,0,28244.6,0.277264,0.276947,-0.00590315,15,0.0154844,10,-1.63486e-06,-5.22892,-0.0266972,-2.20997,0.464807,0.276947,
2,0,0,1,0,28246.1,0.275766,0.27544,-0.00642843,15,0.0154613,10,-1.77065e-06,-5.19189,-0.0283696,-2.07969,0.519842,0.27544,
2,0,0,1,0,28247.6,0.274268,0.273983,-0.00739818,15,0.0154372,10,-2.02697e-06,-5.13088,-0.0272228,-2.1673,0.63752,0.273983,
2,0,0,1,0,28249.1,0.27277,0.272467,-0.00804896,15,0.0154115,10,-2.19308e-06,-5.09426,-0.0301951,-1.95396,0.643671,0.272467,
2,0,0,1,0,28250.6,0.271272,0.270915,-0.0093352,15,0.0153841,10,-2.52905e-06,-5.02988,-0.0399032,-1.47858,0.541493,0.270915,
2,0,0,1,0,28252.1,0.269774,0.269474,-0.0102121,15,0.0153551,10,-2.7519e-06,-4.99088,-0.0498229,-1.18419,0.455218,0.269474,
2,0,0,1,0,28253.6,0.268275,0.267978,-0.0106228,15,0.0153252,10,-2.84668e-06,-4.97376,-0.0509183,-1.15872,0.476556,0.267978,
2,1,0,1,0,28255.1,0.266777,0.266449,-0.0113982,15,0.0152948,10,-3.03704e-06,-4.94316,-0.0504419,-1.16966,0.521919,0.266449,
2,0,0,1,0,28256.6,0.265279,0.264981,-0.0125533,15,0.015263,10,-3.32639e-06,-4.90124,-0.0418486,-1.40985,0.659654,0.264981,
2,0,0,1,0,28258.1,0.263781,0.263504,-0.0127997,15,0.0152298,10,-3.37277e-06,-4.8928,-0.0514628,-1.14646,0.581302,0.263504,
2,0,0,1,0,28259.6,0.262283,0.261997,-0.0137031,15,0.0151954,10,-3.59018e-06,-4.86318,-0.0658053,-0.896584,0.481703,0.261997,
2,0,0,1,0,28261.1,0.260784,0.260453,-0.014437,15,0.0151599,10,-3.76016e-06,-4.84052,-0.0810606,-0.727851,0.411502,0.260453,
2,1,0,1,0,28262.6,0.259286,0.259009,-0.0155795,15,0.0151231,10,-4.03523e-06,-4.80745,-0.0772217,-0.764034,0.446842,0.259009,
2,0,0,1,0,28264.1,0.257788,0.257467,-0.0159436,15,0.0150855,10,-4.10496e-06,-4.79741,-0.106564,-0.553655,0.348023,0.257467,
2,0,0,1,0,28265.6,0.25629,0.255964,-0.016537,15,0.0150471,10,-4.23288e-06,-4.78154,-0.0833643,-0.707737,0.449305,0.255964,
2,0,0,1,0,28267.1,0.254792,0.254438,-0.0167854,15,0.0150073,10,-4.27084e-06,-4.77507,-0.0651845,-0.905123,0.603937,0.254438,
2,0,0,1,0,28268.6,0.253293,0.252999,-0.0178333,15,0.0149668,10,-4.51182e-06,-4.74877,-0.146383,-0.403053,0.287019,0.252999,
2,0,0,1,0,28270.1,0.251795,0.251514,-0.0186939,15,0.0149249,10,-4.70178e-06,-4.7283,-0.086705,-0.680469,0.494729,0.251514,
2,0,0,1,0,28271.6,0.250297,0.250012,-0.0189608,15,0.0148822,10,-4.74043e-06,-4.72214,-0.197252,-0.29911,0.222976,0.250012,
2,0,0,1,0,28273.1,0.248799,0.248476,-0.0200549,15,0.0148386,10,-4.98315e-06,-4.69778,-0.112834,-0.522893,0.408362,0.2484757,
2,0,0,1,0,28274.6,0.247301,0.246971,-0.0204909,15,0.014794,10,-5.06066e-06,-4.68844,-0.118978,-0.495888,0.395465,0.246971,
2,0,0,1,0,28276.1,0.245802,0.245463,-0.0212266,15,0.0147484,10,-5.21036e-06,-4.67312,-0.184959,-0.318989,0.257902,0.245463,
2,0,0,1,0,28277.6,0.244304,0.243977,-0.0216621,15,0.014702,10,-5.28507e-06,-4.6643,-0.132004,-0.446957,0.3695,0.243977,
2,0,0,1,0,28279,0.242806,0.242451,-0.0221325,15,0.0146549,10,-5.36603e-06,-4.65497,-0.134081,-0.440032,0.377913,0.242451,
2,0,0,1,0,28280.5,0.241308,0.241021,-0.0225363,15,0.0146071,10,-5.43172e-06,-4.64712,-0.119106,-0.495356,0.436347,0.241021,
2,0,0,1,0,28282,0.23981,0.239482,-0.0232123,15,0.014558,10,-5.55894e-06,-4.63428,-0.0960032,-0.614563,0.560501,0.239482,
2,0,0,1,0,28283.5,0.238312,0.238004,-0.0239356,15,0.014508,10,-5.69678e-06,-4.62096,-0.106872,-0.552062,0.513104,0.238004,
2,0,0,1,0,28285,0.236813,0.236496,-0.0244484,15,0.0144567,10,-5.78196e-06,-4.61175,-0.133706,-0.441266,0.422674,0.236496,
2,0,0,1,0,28286.5,0.235315,0.234986,-0.0250303,15,0.0144049,10,-5.88177e-06,-4.60153,-0.154789,-0.381163,0.374346,0.234986,
2,0,0,1,0,28288,0.233817,0.233514,-0.0258291,15,0.0143521,10,-6.03147e-06,-4.58789,-0.187266,-0.315061,0.31403,0.233514,
2,0,0,1,0,28289.5,0.232319,0.231993,-0.0267259,15,0.0142984,10,-6.20022e-06,-4.57307,-0.3976,-0.14839,0.149548,0.2319928,
2,0,0,1,0,28291,0.230821,0.230458,-0.0264742,15,0.0142439,10,-6.1012e-06,-4.57718,-0.207451,-0.284405,0.293323,0.230458,
2,0,0,1,0,28292.5,0.229322,0.229024,-0.0266719,15,0.0141892,10,-6.1085e-06,-4.57395,-0.147307,-0.400523,0.426318,0.229024,
2,0,0,1,0,28294,0.227824,0.227545,-0.0275476,15,0.0141336,10,-6.26832e-06,-4.55992,-0.153043,-0.385513,0.413242,0.2275454,
2,0,0,1,0,28295.5,0.226326,0.225989,-0.0277022,15,0.014077,10,-6.26038e-06,-4.55749,-0.158064,-0.373268,0.408361,0.225989,
2,0,0,1,0,28297,0.224828,0.224527,-0.0285832,15,0.0140196,10,-6.41772e-06,-4.54389,-0.202764,-0.290979,0.324745,0.224527,
2,0,0,1,0,28298.5,0.22333,0.223021,-0.0296031,15,0.0139611,10,-6.6021e-06,-4.52866,-0.169198,-0.348704,0.396997,0.223021,
2,0,0,1,0,28300,0.221831,0.221557,-0.0298242,15,0.013902,10,-6.60776e-06,-4.52543,-0.178531,-0.330474,0.382172,0.2215573,
2,0,0,1,0,28301.5,0.220333,0.220052,-0.0305979,15,0.0138418,10,-6.73311e-06,-4.51431,-0.160899,-0.366691,0.434763,0.220052,
2,0,0,1,0,28303,0.218835,0.218569,-0.0309468,15,0.0137807,10,-6.76401e-06,-4.50938,-0.180867,-0.326206,0.396371,0.218569,
2,0,0,1,0,28304.5,0.217337,0.216975,-0.0316737,15,0.0137188,10,-6.87242e-06,-4.4993,-0.15956,-0.369767,0.453804,0.216975,
2,0,0,1,0,28306,0.215839,0.215503,-0.0321897,15,0.0136559,10,-6.937e-06,-4.49228,-0.171932,-0.343159,0.430464,0.215503,
2,0,0,1,0,28307.5,0.21434,0.214015,-0.0325042,15,0.0135922,10,-6.95637e-06,-4.48806,-0.204226,-0.288896,0.36559,0.214015,
2,0,0,1,0,28309,0.212842,0.212484,-0.0331889,15,0.0135278,10,-7.0521e-06,-4.47901,-0.226066,-0.260986,0.337495,0.212484,
2,0,0,1,0,28310.5,0.211344,0.211046,-0.0336087,15,0.0134625,10,-7.09297e-06,-4.47355,-0.233929,-0.252213,0.331195,0.211046,
2,0,0,1,0,28312,0.209846,0.209539,-0.0339051,15,0.0133966,10,-7.10443e-06,-4.46974,-0.234907,-0.251163,0.336128,0.209539,
2,0,0,1,0,28313.5,0.208348,0.208035,-0.0347599,15,0.0133299,10,-7.23129e-06,-4.45892,-0.197736,-0.298378,0.40403,0.2080351,
2,0,0,1,0,28315,0.20685,0.206527,-0.0360282,15,0.0132619,10,-7.44081e-06,-4.44336,-0.241875,-0.243927,0.336007,0.206527,
2,0,0,1,0,28316.5,0.205351,0.205055,-0.035634,15,0.0131932,10,-7.30695e-06,-4.44814,-0.350427,-0.168366,0.236349,0.205055,
2,0,0,1,0,28318,0.203853,0.20351,-0.0361733,15,0.0131239,10,-7.36164e-06,-4.44161,-0.196867,-0.299694,0.428696,0.20351,
2,0,0,1,0,28319.5,0.202355,0.202025,-0.0368262,15,0.0130537,10,-7.43979e-06,-4.43384,-0.220213,-0.267922,0.386217,0.202025,
2,0,0,1,0,28321,0.200857,0.200574,-0.0373639,15,0.0129823,10,-7.49423e-06,-4.42755,-0.197938,-0.298073,0.440908,0.200574,
2,0,0,1,0,28322.5,0.199359,0.199061,-0.0380784,15,0.0129102,10,-7.57992e-06,-4.41932,-0.285737,-0.206484,0.305135,0.199061,
2,0,0,1,0,28324,0.19786,0.197549,-0.038776,15,0.0128371,10,-7.66014e-06,-4.41144,-0.206754,-0.285364,0.429524,0.197549,
2,0,0,1,0,28325.5,0.196362,0.19605,-0.0390813,15,0.0127633,10,-7.66189e-06,-4.40803,-0.281282,-0.209754,0.320129,0.19605,
2,0,0,1,0,28327,0.194864,0.194538,-0.0397095,15,0.0126883,10,-7.72501e-06,-4.40111,-0.278652,-0.211733,0.325573,0.1945381,
2,0,0,1,0,28328.5,0.193366,0.193029,-0.0401881,15,0.0126124,10,-7.75748e-06,-4.3959,-0.3897,-0.151399,0.240162,0.193029,
2,0,0,1,0,28330,0.191868,0.191569,-0.0411577,15,0.0125358,10,-7.88453e-06,-4.38555,-0.207514,-0.284318,0.459174,0.191569,
2,0,0,1,0,28331.5,0.190369,0.190005,-0.0419976,15,0.012458,10,-7.97975e-06,-4.37678,-0.193198,-0.305387,0.497763,0.190005,
2,0,0,1,0,28333,0.188871,0.18852,-0.0425528,15,0.0123789,10,-8.02206e-06,-4.37107,-0.18436,-0.320026,0.530794,0.18852,
2,0,0,1,0,28334.5,0.187373,0.187047,-0.0428397,15,0.0122991,10,-8.01306e-06,-4.36815,-0.180392,-0.327065,0.550703,0.187047,
2,0,0,1,0,28336,0.185875,0.185501,-0.0438349,15,0.0122183,10,-8.13144e-06,-4.35818,-0.194311,-0.303637,0.518715,0.185501,
2,0,0,1,0,28337.5,0.184377,0.18409,-0.0442267,15,0.0121364,10,-8.1417e-06,-4.35432,-0.212473,-0.277682,0.478781,0.18409,
2,0,0,1,0,28339,0.182878,0.182574,-0.0451499,15,0.0120536,10,-8.24317e-06,-4.34534,-0.190476,-0.30975,0.544914,0.182574,
2,0,0,1,0,28340.5,0.18138,0.181062,-0.0460101,15,0.0119696,10,-8.3307e-06,-4.33715,-0.166716,-0.353895,0.63322,0.181062,
2,0,0,1,0,28342,0.179882,0.179552,-0.0464216,15,0.0118841,10,-8.33511e-06,-4.33328,-0.212776,-0.277287,0.504628,0.179552,
2,0,0,1,0,28343.5,0.178384,0.1781,-0.04717,15,0.0117977,10,-8.40096e-06,-4.32633,-0.206797,-0.285303,0.529493,0.1780998,
2,0,0,1,0,28345,0.176886,0.176526,-0.0482004,15,0.0117102,10,-8.50864e-06,-4.31695,-0.169095,-0.348917,0.658097,0.176526,
2,0,0,1,0,28346.5,0.175388,0.175061,-0.0489079,15,0.0116213,10,-8.56185e-06,-4.31062,-0.162978,-0.362012,0.694724,0.175061,
2,0,0,1,0,28348,0.173889,0.173572,-0.0504215,15,0.0115306,10,-8.75175e-06,-4.29738,-0.135712,-0.434743,0.852242,0.1735718,
2,0,0,1,0,28349.5,0.172391,0.172032,-0.0514378,15,0.0114383,10,-8.84896e-06,-4.28872,-0.178237,-0.331019,0.660271,0.172032,
2,0,0,1,0,28351,0.170893,0.170581,-0.0524739,15,0.0113444,10,-8.95108e-06,-4.28006,-0.175223,-0.336714,0.685597,0.170581,
2,0,0,1,0,28352.5,0.169395,0.169094,-0.0533221,15,0.0112492,10,-9.01643e-06,-4.27309,-0.139996,-0.42144,0.878288,0.169094,
2,0,0,1,0,28354,0.167897,0.167572,-0.0541324,15,0.0111521,10,-9.07107e-06,-4.26654,-0.143298,-0.411729,0.874584,0.167572,
2,0,0,1,0,28355.5,0.166398,0.166068,-0.0556208,15,0.0110534,10,-9.23686e-06,-4.25476,-0.188198,-0.313499,0.681091,0.1660683,
2,0,0,1,0,28357,0.1649,0.164539,-0.0570587,15,0.0109527,10,-9.38839e-06,-4.24368,-0.166062,-0.355288,0.790233,0.1645392,
2,0,0,1,0,28358.5,0.163402,0.163097,-0.0582318,15,0.0108501,10,-9.49744e-06,-4.23484,-0.145639,-0.405113,0.924018,0.163097,
2,0,0,1,0,28360,0.161904,0.161587,-0.0599096,15,0.0107453,10,-9.68061e-06,-4.2225,-0.1321,-0.446631,1.04146,0.161587,
2,0,0,1,0,28361.5,0.160406,0.160074,-0.0613657,15,0.0106383,10,-9.82305e-06,-4.21207,-0.162411,-0.363275,0.868786,0.1600738,
2,0,0,1,0,28362.9,0.158907,0.15858,-0.062291,15,0.0105287,10,-9.8781e-06,-4.20557,-0.126949,-0.464753,1.13928,0.15858,
2,0,0,1,0,28364.4,0.157409,0.157077,-0.0648037,15,0.0104168,10,-1.01792e-05,-4.1884,-0.114089,-0.517138,1.30748,0.157077,
2,0,0,1,0,28365.9,0.155911,0.155565,-0.0667597,15,0.0103016,10,-1.03855e-05,-4.17549,-0.121793,-0.48443,1.26051,0.155565,
2,0,0,1,0,28367.4,0.154413,0.154087,-0.0686485,15,0.0101832,10,-1.05778e-05,-4.16337,-0.11362,-0.519273,1.38673,0.154087,
2,0,0,1,0,28368.9,0.152915,0.152594,-0.0707827,15,0.0100618,10,-1.0801e-05,-4.15007,-0.133756,-0.441102,1.22086,0.152594,
2,0,0,1,0,28370.4,0.151417,0.151076,-0.0727631,15,0.00993741,10,-1.09928e-05,-4.13809,-0.107395,-0.549372,1.5742,0.151076,
2,0,0,1,0,28371.9,0.149918,0.149584,-0.0760925,15,0.00980898,10,-1.13823e-05,-4.11866,-0.090379,-0.652807,1.93066,0.149584,
2,0,0,1,0,28373.4,0.14842,0.148143,-0.0783989,15,0.00967593,10,-1.16143e-05,-4.10569,-0.0832186,-0.708976,2.18009,0.148143,
2,0,0,1,0,28374.9,0.146922,0.146574,-0.0818263,15,0.00953815,10,-1.19936e-05,-4.08711,-0.0801191,-0.736403,2.36037,0.146574,
2,0,0,1,0,28376.4,0.145424,0.145124,-0.0857726,15,0.00939519,10,-1.24477e-05,-4.06665,-0.0743511,-0.793533,2.66847,0.145124,
2,0,0,1,0,28377.9,0.143926,0.143636,-0.0902078,15,0.00924601,10,-1.2957e-05,-4.04476,-0.068203,-0.865064,3.03928,0.143636,
2,0,0,1,0,28379.4,0.142427,0.142078,-0.0941634,15,0.00908996,10,-1.33785e-05,-4.02612,-0.0734714,-0.803034,2.96136,0.142078,
2,0,0,1,0,28380.9,0.140929,0.140593,-0.0986929,15,0.00892723,10,-1.38756e-05,-4.00571,-0.0746825,-0.790011,3.05852,0.140593,
2,0,0,1,0,28382.4,0.139431,0.139131,-0.102783,15,0.00875811,10,-1.43003e-05,-3.98808,-0.0703787,-0.838321,3.38559,0.139131,
2,0,0,1,0,28383.9,0.137933,0.137571,-0.108542,15,0.00858122,10,-1.49323e-05,-3.9644,-0.0740304,-0.79697,3.35411,0.137571,
2,0,0,1,0,28385.4,0.136435,0.136095,-0.113794,15,0.00839653,10,-1.54867e-05,-3.94388,-0.0807939,-0.730253,3.22132,0.136095,
2,0,0,1,0,28386.9,0.134936,0.134606,-0.118533,15,0.00820438,10,-1.59553e-05,-3.92616,-0.0860931,-0.685305,3.15784,0.134606,
2,0,0,1,0,28388.4,0.133438,0.133119,-0.122809,15,0.00800535,10,-1.63483e-05,-3.91077,-0.0910036,-0.648326,3.10966,0.133119,
2,0,0,1,0,28389.9,0.13194,0.131607,-0.127523,15,0.00779928,10,-1.67829e-05,-3.89441,-0.0988422,-0.596911,2.97236,0.1316072,
2,0,0,1,0,28391.4,0.130442,0.130082,-0.13179,15,0.00758635,10,-1.71435e-05,-3.88012,-0.116281,-0.507391,2.60393,0.130082,
2,0,0,1,0,28392.9,0.128944,0.128597,-0.135563,15,0.00736722,10,-1.74329e-05,-3.86786,-0.148477,-0.397367,2.0916,0.128597,
2,0,0,1,0,28394.4,0.127445,0.127109,-0.139037,15,0.00714306,10,-1.76728e-05,-3.85687,-0.182619,-0.323076,1.74082,0.127109,
2,0,0,1,0,28395.9,0.125947,0.125661,-0.141254,15,0.00691562,10,-1.775e-05,-3.85,-0.257974,-0.228705,1.2538,0.125661,
2,0,0,1,0,28397.4,0.124449,0.124128,-0.142812,15,0.0066848,10,-1.7727e-05,-3.84523,-0.319592,-0.18461,1.02181,0.124128,
2,0,0,1,0,28398.9,0.122951,0.122599,-0.143797,15,0.00645166,10,-1.76294e-05,-3.84225,-0.49199,-0.119921,0.671082,0.122599,
2,0,0,1,0,28400.4,0.121453,0.121094,-0.144509,15,0.00621741,10,-1.74993e-05,-3.8401,-1.0554,-0.0559031,0.314792,0.121094,
2,0,0,1,0,28401.9,0.119955,0.119651,-0.144648,15,0.00598243,10,-1.73073e-05,-3.83969,-1.07528,-0.0548692,0.310558,0.119651,
2,0,0,1,0,28403.4,0.118456,0.118133,-0.144839,15,0.00574664,10,-1.71103e-05,-3.83911,-1.78108,-0.0331259,0.187478,0.118133,
2,0,0,1,0,28404.9,0.116958,0.116604,-0.145303,15,0.00551041,10,-1.69428e-05,-3.83773,-18.7938,-0.00313934,0.0178203,0.116604,
2,0,0,1,0,28406.4,0.11546,0.115152,-0.145417,15,0.00527449,10,-1.6745e-05,-3.83738,1.37502,0.0429083,-0.243266,0.1151519,
2,0,0,1,0,28407.9,0.113962,0.113634,-0.144598,15,0.00503912,10,-1.64313e-05,-3.83984,2.13637,0.0276169,-0.155976,0.113634,
2,0,0,1,0,28409.4,0.112464,0.112116,-0.144641,15,0.00480426,10,-1.62165e-05,-3.83971,1.69777,0.0347514,-0.19571,0.112116,
2,0,0,1,0,28410.9,0.110965,0.110636,-0.144829,15,0.00456937,10,-1.60232e-05,-3.83914,1.95774,0.0301368,-0.169671,0.110636,
2,0,0,1,0,28412.4,0.109467,0.10913,-0.144104,15,0.00433502,10,-1.57261e-05,-3.84132,1.15979,0.0508715,-0.285762,0.10913,
2,0,0,1,0,28413.9,0.107969,0.107666,-0.142938,15,0.00410117,10,-1.53897e-05,-3.84485,1.80665,0.0326572,-0.183276,0.1076665,
2,0,0,1,0,28415.4,0.106471,0.106166,-0.143195,15,0.0038682,10,-1.52024e-05,-3.84407,1.257,0.0469371,-0.263809,0.106166,
2,0,0,1,0,28416.9,0.104973,0.104675,-0.143417,15,0.00363534,10,-1.50122e-05,-3.8434,0.949843,0.0621155,-0.346508,0.104675,
2,0,0,1,0,28418.4,0.103474,0.103141,-0.142215,15,0.00340285,10,-1.46682e-05,-3.84705,0.560098,0.105339,-0.583895,0.103141,
2,0,0,1,0,28419.9,0.101976,0.101617,-0.141942,15,0.00317198,10,-1.44236e-05,-3.84789,0.533326,0.110626,-0.610302,0.101617,
2,0,0,1,0,28421.4,0.100478,0.10015,-0.141277,15,0.00294257,10,-1.4149e-05,-3.84993,0.856095,0.0689176,-0.378726,0.10015,
2,0,0,1,0,28422.9,0.0989798,0.0986848,-0.140323,15,0.00271416,10,-1.38478e-05,-3.85287,0.626457,0.0941805,-0.514878,0.0986848,
2,0,0,1,0,28424.4,0.0974816,0.0971556,-0.13926,15,0.00248662,10,-1.35299e-05,-3.85617,0.710139,0.0830824,-0.452123,0.0971556,
2,0,0,1,0,28425.9,0.0959834,0.0956319,-0.138657,15,0.00226054,10,-1.326e-05,-3.85806,0.585377,0.10079,-0.545039,0.0956319,
2,0,0,1,0,28427.4,0.0944852,0.0941515,-0.136763,15,0.00203648,10,-1.28764e-05,-3.86403,0.498734,0.118299,-0.633912,0.0941515,
2,0,0,1,0,28428.9,0.0929871,0.0926607,-0.136225,15,0.00181322,10,-1.26227e-05,-3.86574,0.66062,0.0893101,-0.474614,0.0926607,
2,0,0,1,0,28430.4,0.0914889,0.0911729,-0.135506,15,0.00159151,10,-1.23545e-05,-3.86804,0.377133,0.156443,-0.826487,0.0911729,
2,0,0,1,0,28431.9,0.0899907,0.0896746,-0.134557,15,0.00137169,10,-1.20663e-05,-3.87109,0.412323,0.143092,-0.749732,0.0896746,
2,0,0,1,0,28433.4,0.0884925,0.0880977,-0.132823,15,0.00115355,10,-1.17014e-05,-3.87673,0.490045,0.120397,-0.623719,0.0880977,
2,0,0,1,0,28434.9,0.0869943,0.0866746,-0.132426,15,0.000937245,10,-1.1478e-05,-3.87803,0.381772,0.154542,-0.795489,0.0866746,
2,0,0,1,0,28436.4,0.0854961,0.0851678,-0.131184,15,0.000722429,10,-1.11727e-05,-3.88212,0.564542,0.10451,-0.533247,0.0851678,
2,0,0,1,0,28437.9,0.083998,0.0836802,-0.130027,15,0.000509374,10,-1.08807e-05,-3.88597,0.333941,0.176678,-0.894608,0.0836802,
2,0,0,1,0,28439.4,0.0824998,0.0821935,-0.129024,15,0.000297685,10,-1.06049e-05,-3.88933,0.462868,0.127466,-0.643183,0.0821935,
2,0,0,1,0,28440.9,0.0810016,0.0806622,-0.127584,15,8.78142e-05,10,-1.02912e-05,-3.89421,0.522732,0.112869,-0.564959,0.0806622,
2,0,0,1,0,28442.4,0.0795034,0.0791903,-0.126867,15,-0.00012105,10,-1.00466e-05,-3.89665,0.395728,0.149092,-0.737614,0.0791903,
2,0,0,1,0,28443.9,0.0780052,0.0776846,-0.12655,15,-0.00032863,10,-9.83095e-06,-3.89774,0.385261,0.153143,-0.752564,0.0776846,
2,0,0,1,0,28445.3,0.076507,0.0761544,-0.125635,15,-0.000534697,10,-9.56767e-06,-3.90089,0.553899,0.106518,-0.519668,0.0761544,
2,0,0,1,0,28446.8,0.0750088,0.0746878,-0.124449,15,-0.000738948,10,-9.29486e-06,-3.90501,0.555289,0.106251,-0.516088,0.0746878,
2,0,0,1,0,28448.3,0.0735106,0.0731757,-0.124418,15,-0.000942857,10,-9.10435e-06,-3.90512,0.877991,0.0671989,-0.324386,0.0731757,
2,0,0,1,0,28449.8,0.0720124,0.0716657,-0.123182,15,-0.00114569,10,-8.8279e-06,-3.90945,0.707373,0.0834072,-0.401926,0.07166566,
2,0,0,1,0,28451.3,0.0705142,0.0701864,-0.121964,15,-0.00134736,10,-8.56025e-06,-3.91377,0.511447,0.115359,-0.5529,0.0701864,
2,0,0,1,0,28452.8,0.069016,0.0687442,-0.121788,15,-0.00154756,10,-8.37225e-06,-3.91439,0.517594,0.113989,-0.541841,0.06874422,
2,0,0,1,0,28454.3,0.0675178,0.0671398,-0.121086,15,-0.00174748,10,-8.12969e-06,-3.91691,3.04888,0.0193514,-0.0917802,0.0671398,
2,0,0,1,0,28455.8,0.0660196,0.0656934,-0.121271,15,-0.00194658,10,-7.96672e-06,-3.91624,1.72388,0.0342251,-0.161471,0.0656934,
2,0,0,1,0,28457.3,0.0645214,0.0642067,-0.120649,15,-0.00214517,10,-7.74644e-06,-3.91848,0.634256,0.0930224,-0.436517,0.0642067,
2,0,0,1,0,28458.8,0.0630233,0.0627095,-0.119571,15,-0.00234261,10,-7.49824e-06,-3.92237,0.838529,0.0703613,-0.328413,0.0627095,
2,0,0,1,0,28460.3,0.0615251,0.0611677,-0.118984,15,-0.00253914,10,-7.27798e-06,-3.92451,0.759809,0.0776511,-0.361231,0.0611677,
2,0,0,1,0,28461.8,0.0600269,0.0597032,-0.118445,15,-0.00273474,10,-7.07155e-06,-3.92648,0.53494,0.110293,-0.511322,0.0597032,
2,0,0,1,0,28463.3,0.0585287,0.058189,-0.118115,15,-0.00292961,10,-6.87302e-06,-3.92769,0.523093,0.112791,-0.519078,0.058189,
2,0,0,1,0,28464.8,0.0570305,0.0566492,-0.117639,15,-0.00312379,10,-6.66414e-06,-3.92945,1.10764,0.0532664,-0.245411,0.05664923,
2,0,0,1,0,28466.3,0.0555323,0.0551954,-0.117339,15,-0.00331689,10,-6.47657e-06,-3.93056,1.15464,0.051098,-0.234016,0.0551954,
2,0,0,1,0,28467.8,0.0540342,0.0536813,-0.116948,15,-0.00350978,10,-6.27793e-06,-3.93201,0.600001,0.0983331,-0.446542,0.0536813,
2,0,0,1,0,28469.3,0.052536,0.0522211,-0.116638,15,-0.00370213,10,-6.09099e-06,-3.93316,0.60673,0.0972426,-0.440341,0.0522211,
2,0,0,1,0,28470.8,0.0510378,0.0507185,-0.115706,15,-0.00389325,10,-5.86845e-06,-3.93664,0.920383,0.0641038,-0.28847,0.0507185,
2,0,0,1,0,28472.3,0.0495396,0.0492551,-0.115007,15,-0.00408276,10,-5.66466e-06,-3.93928,0.924307,0.0638316,-0.286693,0.0492551,
2,0,0,1,0,28473.8,0.0480414,0.047674,-0.114269,15,-0.00427184,10,-5.44765e-06,-3.94207,1.33914,0.0440582,-0.196004,0.047674,
2,0,0,1,0,28475.3,0.0465432,0.0462106,-0.113922,15,-0.00446016,10,-5.26442e-06,-3.94339,0.739854,0.0797454,-0.354451,0.0462106,
2,0,0,1,0,28476.8,0.045045,0.0447175,-0.112939,15,-0.00464747,10,-5.05037e-06,-3.94715,0.695061,0.0848846,-0.375552,0.0447175,
2,0,0,1,0,28478.3,0.0435468,0.0432298,-0.112241,15,-0.00483373,10,-4.85217e-06,-3.94985,0.739033,0.079834,-0.351187,0.0432298,
2,0,0,1,0,28479.8,0.0420486,0.0417845,-0.112345,15,-0.00501936,10,-4.69429e-06,-3.94945,0.610804,0.096594,-0.421613,0.0417845,
2,0,0,1,0,28481.3,0.0405504,0.0402076,-0.112275,15,-0.00520461,10,-4.51432e-06,-3.94972,0.55419,0.106462,-0.462881,0.0402076,
2,0,0,1,0,28482.8,0.0390522,0.0386743,-0.111081,15,-0.0053886,10,-4.29596e-06,-3.95436,0.758099,0.0778262,-0.33764,0.0386743,
2,0,0,1,0,28484.3,0.037554,0.0372194,-0.109748,15,-0.00557134,10,-4.08475e-06,-3.9596,0.547913,0.107681,-0.461991,0.03721942,
2,0,0,1,0,28485.8,0.0360558,0.0357667,-0.109451,15,-0.00575329,10,-3.91471e-06,-3.96078,0.71849,0.0821166,-0.351934,0.0357667,
2,0,0,1,0,28487.3,0.0345576,0.034246,-0.108664,15,-0.00593437,10,-3.72129e-06,-3.96392,0.462646,0.127527,-0.543723,0.034246,
2,0,0,1,0,28488.8,0.0330594,0.0327391,-0.108338,15,-0.00611442,10,-3.54689e-06,-3.96522,0.453642,0.130059,-0.550896,0.0327391,
2,0,0,1,0,28490.3,0.0315613,0.0311752,-0.107736,15,-0.00629344,10,-3.35868e-06,-3.96764,0.570667,0.103388,-0.434647,0.0311752,
2,0,0,1,0,28491.8,0.0300631,0.0297404,-0.107343,15,-0.00647116,10,-3.19241e-06,-3.96923,1.06893,0.0551953,-0.232146,0.0297404,
2,0,0,1,0,28493.3,0.0285649,0.0282346,-0.106988,15,-0.00664882,10,-3.02076e-06,-3.97067,8.70187,0.00678015,-0.0282873,0.0282346,
2,0,0,1,0,28494.8,0.0270667,0.0267437,-0.107318,15,-0.00682628,10,-2.87007e-06,-3.96933,1.45772,0.040474,-0.168916,0.0267437,
2,0,0,1,0,28496.3,0.0255685,0.0252867,-0.106969,15,-0.00700345,10,-2.70489e-06,-3.97074,1.44813,0.0407422,-0.169473,0.0252867,
2,0,0,1,0,28497.8,0.0240703,0.02373,-0.106073,15,-0.00717964,10,-2.5171e-06,-3.9744,0.692795,0.0851623,-0.354258,0.02373,
2,0,0,1,0,28499.3,0.0225722,0.0222402,-0.106151,15,-0.00735557,10,-2.36081e-06,-3.97408,-9.38951,-0.00628361,0.0260096,0.0222402,
2,0,0,1,0,28500.8,0.021074,0.0207853,-0.105566,15,-0.00753116,10,-2.19423e-06,-3.97647,1.8271,0.0322917,-0.133474,0.0207853,
2,0,0,1,0,28502.3,0.0195758,0.0192382,-0.10558,15,-0.00770631,10,-2.03117e-06,-3.97642,23.5598,0.00250426,-0.010297,0.0192382,
2,0,0,1,0,28503.8,0.0180776,0.0177621,-0.105155,15,-0.00788097,10,-1.86776e-06,-3.97817,-5.8724,-0.010047,0.0413048,0.0177621,
2,0,0,1,0,28505.3,0.0165794,0.0162362,-0.105574,15,-0.00805546,10,-1.71411e-06,-3.97644,2.76213,0.0213603,-0.08805,0.0162362,
2,0,0,1,0,28506.8,0.0150812,0.0147272,-0.105772,15,-0.00823014,10,-1.55772e-06,-3.97563,4.38568,0.0134529,-0.0554009,0.0147272,
2,0,0,1,0,28508.3,0.013583,0.0132681,-0.105956,15,-0.00840532,10,-1.40583e-06,-3.97487,-1.54871,-0.0380962,0.157221,0.0132681,
2,0,0,1,0,28509.8,0.0120848,0.0117336,-0.106023,15,-0.00858047,10,-1.24403e-06,-3.9746,-1.57879,-0.0373703,0.154788,0.0117336,
2,0,0,1,0,28511.3,0.0105866,0.0102703,-0.106477,15,-0.00875609,10,-1.09355e-06,-3.97274,-1.0677,-0.055259,0.229503,0.0102703,
2,0,0,1,0,28512.8,0.00908843,0.00875601,-0.106459,15,-0.00893217,10,-9.32153e-07,-3.97282,-10.1863,-0.00579208,0.0241223,0.00875601,
2,0,0,1,0,28514.3,0.00759024,0.00728094,-0.106906,15,-0.00910893,10,-7.78373e-07,-3.971,-1.22102,-0.0483204,0.201714,0.00728094,
2,0,0,1,0,28515.8,0.00609203,0.0057603,-0.107617,15,-0.00928618,10,-6.19907e-07,-3.96812,-0.788725,-0.0748043,0.31427,0.0057603,
2,0,0,1,0,28517.3,0.00459384,0.00425028,-0.107627,15,-0.00946356,10,-4.57444e-07,-3.96808,-0.875839,-0.067364,0.283019,0.00425028,
2,0,0,1,0,28518.8,0.00309563,0.00278267,-0.108723,15,-0.00964222,10,-3.0254e-07,-3.96368,-0.468622,-0.125901,0.531696,0.00278267,
2,0,0,1,0,28520.3,0.00159744,0.00121641,-0.110068,15,-0.00982366,10,-1.33889e-07,-3.95834, , , ,0.00121641,
2,0,0,1,0,28521.7,0.000199235,-0.000161087,-0.109564,15,-0.00999209,10,1.76494e-08,-3.96033, , , ,-0.000161087,