File: Figure_codes/Fig_3-5/rawdata_trumpetplot_data/after 10th/20221101_1-115_003_TrumpetPlot_ParaChange_from10_every3_08_CV_C01_32.csv
mode,ox/red,error,control changes,counter inc.,time/s,control/V,Ewe/V,<I>/mA,cycle number,(Q-Qo)/C,I Range,P/W,log(|I|),Tafel slope mV/dec,alpha_eff,dI/d(E-IR),E-IR/V,
2,0,0,0,0,64219.2,2.44065e-05,-0.000287149,-3.95057,33,0.0000000E+000,10,1.1344e-06,-2.40334, , , ,-0.0002871489,
2,0,0,1,0,64219.2,0.0012943,0.000868997,-2.52695,33,-4.91703e-05,10,-2.19591e-06,-2.5974, , , ,0.0008689973,
2,0,0,1,0,64219.2,0.00279784,0.00246517,-1.45624,33,-8.59009e-05,10,-3.58989e-06,-2.83677,-0.0051969,-11.3529,609.116,0.00246517,
2,0,0,1,0,64219.2,0.00429425,0.00395418,-0.704589,33,-0.000105579,10,-2.78608e-06,-3.15206,-0.00270413,-21.8184,459.746,0.00395418,
2,0,0,1,0,64219.3,0.00579065,0.00543666,-0.11379,33,-0.000112735,10,-6.18637e-07,-3.9439,-0.0151136,-3.90376,364.895,0.00543666,
2,1,0,1,0,64219.3,0.0072942,0.00691013,0.371343,33,-0.000109884,10,2.56603e-06,-3.43022,0.00846923,6.96639,291.968,0.00691013,
2,1,0,1,0,64219.3,0.00878347,0.00844939,0.759743,33,-9.8959e-05,10,6.41936e-06,-3.11933,0.00541741,10.8908,242.797,0.00844939,
2,1,0,1,0,64219.3,0.010287,0.00996274,1.09144,33,-8.11514e-05,10,1.08737e-05,-2.962,0.0112569,5.24122,202.483,0.00996274,
2,1,0,1,0,64219.3,0.0117905,0.011458,1.36673,33,-5.76465e-05,10,1.56601e-05,-2.86432,0.0174132,3.38824,172.434,0.011458,
2,1,0,1,0,64219.4,0.013278,0.0129278,1.60509,33,-2.96871e-05,10,2.07502e-05,-2.7945,0.0241892,2.43911,149.153,0.0129278,
2,1,0,1,0,64219.4,0.0147816,0.0143941,1.81288,33,2.76473e-06,10,2.60946e-05,-2.74163,0.0319928,1.84416,128.001,0.0143941,
2,1,0,1,0,64219.4,0.0162851,0.0159439,1.99303,33,3.89247e-05,10,3.17767e-05,-2.70049,0.0407169,1.44903,111.238,0.0159439,
2,1,0,1,0,64219.4,0.0177744,0.0174385,2.15473,33,7.7796e-05,10,3.75752e-05,-2.66661,0.050243,1.17429,97.7683,0.0174385,
2,1,0,1,0,64219.4,0.0192779,0.0189743,2.29387,33,0.000119844,10,4.35246e-05,-2.63943,0.0595685,0.990457,88.0836,0.01897434,
2,1,0,1,0,64219.5,0.0207743,0.0204262,2.4248,33,0.000164196,10,4.95295e-05,-2.61532,0.069443,0.849617,79.8296,0.02042621,
2,1,0,1,0,64219.5,0.0222707,0.0219745,2.54051,33,0.00021082,10,5.58263e-05,-2.59508,0.0804564,0.733316,72.2743,0.0219745,
2,1,0,1,0,64219.5,0.0237743,0.0234275,2.64576,33,0.000259769,10,6.19836e-05,-2.57745,0.0929566,0.634705,65.2439,0.0234275,
2,1,0,1,0,64219.5,0.0252636,0.0249265,2.74694,33,0.000310051,10,6.84716e-05,-2.56115,0.099977,0.590136,63.0235,0.0249265,
2,1,0,1,0,64219.5,0.0267671,0.0264525,2.83644,33,0.000362661,10,7.50308e-05,-2.54723,0.105925,0.557,61.3767,0.0264525,
2,1,0,1,0,64219.5,0.0282706,0.0279195,2.92599,33,0.000416977,10,8.16922e-05,-2.53373,0.112501,0.52444,59.6429,0.0279195,
2,1,0,1,0,64219.6,0.0297581,0.0294267,3.00228,33,0.000472293,10,8.83471e-05,-2.52255,0.129954,0.454008,53.0628,0.0294267,
2,1,0,1,0,64219.6,0.0312617,0.0309867,3.07196,33,0.00052966,10,9.51899e-05,-2.51258,0.138703,0.425368,51.0186,0.0309867,
2,1,0,1,0,64219.6,0.0327652,0.0324323,3.14548,33,0.000588412,10,0.000102015,-2.50231,0.14419,0.409183,50.2786,0.0324323,
2,1,0,1,0,64219.6,0.0342545,0.0339354,3.2241,33,0.000647943,10,0.000109411,-2.49159,0.155384,0.379704,47.7249,0.0339354,
2,1,0,1,0,64219.6,0.035758,0.0354518,3.29428,33,0.00070949,10,0.000116788,-2.48224,0.167097,0.353089,45.3292,0.0354518,
2,1,0,1,0,64219.7,0.0372544,0.0369344,3.3601,33,0.000772025,10,0.000124104,-2.47365,0.175719,0.335764,44.048,0.0369344,
2,1,0,1,0,64219.7,0.0387508,0.0383868,3.42774,33,0.000835755,10,0.00013158,-2.46499,0.184781,0.319296,42.7458,0.0383868,
2,1,0,1,0,64219.7,0.0402544,0.0399223,3.49385,33,0.000901075,10,0.000139482,-2.4567,0.190288,0.310056,42.2993,0.0399223,
2,1,0,1,0,64219.7,0.0417436,0.0414149,3.5654,33,0.000966969,10,0.000147661,-2.44789,0.199447,0.295818,41.1011,0.0414149,
2,1,0,1,0,64219.7,0.0432472,0.0429235,3.62712,33,0.00103477,10,0.000155689,-2.44044,0.215265,0.274081,38.7555,0.0429235,
2,1,0,1,0,64219.8,0.0447507,0.0444426,3.6889,33,0.00110368,10,0.000163944,-2.4331,0.214673,0.274836,39.5172,0.0444426,
2,1,0,1,0,64219.8,0.0462382,0.045882,3.74894,33,0.00117304,10,0.000172009,-2.42609,0.204964,0.287855,42.0752,0.045882,
2,1,0,1,0,64219.8,0.0477418,0.0474182,3.81375,33,0.0012443,10,0.000180841,-2.41865,0.218024,0.270613,40.2249,0.0474182,
2,1,0,1,0,64219.8,0.0492453,0.0488859,3.87339,33,0.00131672,10,0.000189354,-2.41191,0.226781,0.260163,39.2628,0.0488859,
2,1,0,1,0,64219.8,0.0507346,0.0504463,3.92727,33,0.00138946,10,0.000198116,-2.40591,0.220533,0.267534,40.9948,0.0504463,
2,1,0,1,0,64219.8,0.0522381,0.0519225,3.98703,33,0.00146405,10,0.000207016,-2.39935,0.221307,0.266598,41.4883,0.0519225,
2,1,0,1,0,64219.9,0.0537345,0.053363,4.04935,33,0.00153936,10,0.000216085,-2.39261,0.22257,0.265086,41.8605,0.053363,
2,1,0,1,0,64219.9,0.0552309,0.054897,4.10201,33,0.00161579,10,0.000225188,-2.387,0.238894,0.246971,39.5147,0.054897,
2,1,0,1,0,64219.9,0.0567345,0.0563902,4.1524,33,0.0016937,10,0.000234155,-2.3817,0.263454,0.223948,36.328,0.0563902,
2,1,0,1,0,64219.9,0.0582237,0.0578634,4.20987,33,0.00177177,10,0.000243598,-2.37573,0.255671,0.230765,37.953,0.0578634,
2,1,0,1,0,64219.9,0.0597273,0.0594112,4.26942,33,0.00185173,10,0.000253651,-2.36963,0.265767,0.221999,36.9603,0.0594112,
2,1,0,1,0,64220,0.0612308,0.0608921,4.3199,33,0.00193276,10,0.000263048,-2.36453,0.291976,0.202072,34.0913,0.0608921,
2,1,0,1,0,64220,0.0627183,0.062368,4.37746,33,0.00201394,10,0.000273013,-2.35878,0.295129,0.199912,34.1525,0.062368,
2,1,0,1,0,64220,0.0642218,0.0639018,4.42501,33,0.00209691,10,0.000282766,-2.35409,0.309696,0.19051,32.9589,0.0639018,
2,1,0,1,0,64220,0.0657254,0.065452,4.47789,33,0.0021809,10,0.000293087,-2.34893,0.289222,0.203996,35.6642,0.065452,
2,1,0,1,0,64220,0.0672147,0.0669374,4.5388,33,0.002265,10,0.000303815,-2.34306,0.317782,0.185662,32.8256,0.0669374,
2,1,0,1,0,64220,0.0687182,0.0683703,4.58989,33,0.00235099,10,0.000313812,-2.3382,0.349176,0.168969,30.2095,0.0683703,
2,1,0,1,0,64220.1,0.0702146,0.0698986,4.63547,33,0.00243739,10,0.000324013,-2.33391,0.334695,0.17628,31.8775,0.0698986,
2,1,0,1,0,64220.1,0.071711,0.0713615,4.68391,33,0.00252468,10,0.000334251,-2.32939,0.319875,0.184447,33.6948,0.0713615,
2,1,0,1,0,64220.1,0.0732145,0.0728963,4.72936,33,0.00261336,10,0.000344753,-2.3252,0.322048,0.183202,33.8152,0.0728963,
2,1,0,1,0,64220.1,0.0747038,0.0744186,4.77804,33,0.002702,10,0.000355575,-2.32075,0.353908,0.16671,31.0752,0.07441856,
2,1,0,1,0,64220.1,0.0762074,0.0758678,4.81818,33,0.0027924,10,0.000365545,-2.31712,0.375964,0.15693,29.5164,0.0758678,
2,1,0,1,0,64220.2,0.0777109,0.0773846,4.86361,33,0.00288366,10,0.000376368,-2.31304,0.346515,0.170267,32.331,0.0773846,
2,1,0,1,0,64220.2,0.0791984,0.078887,4.90786,33,0.00297477,10,0.000387166,-2.30911,0.380668,0.154991,29.6971,0.078887,
2,1,0,1,0,64220.2,0.0807019,0.0803585,4.9467,33,0.00306768,10,0.000397509,-2.30568,0.40344,0.146242,28.2136,0.0803585,
2,1,0,1,0,64220.2,0.0822055,0.0818616,4.9854,33,0.00316135,10,0.000408113,-2.3023,0.413684,0.142621,27.7654,0.0818616,
2,1,0,1,0,64220.2,0.0836947,0.0833405,5.02283,33,0.0032547,10,0.000418605,-2.29905,0.469325,0.125712,24.6796,0.0833405,
2,1,0,1,0,64220.3,0.0851983,0.0848546,5.06267,33,0.00334983,10,0.000429591,-2.29562,0.449646,0.131214,25.9409,0.0848546,
2,1,0,1,0,64220.3,0.0866947,0.0863074,5.10301,33,0.00344519,10,0.000440427,-2.29217,0.52426,0.11254,22.4149,0.0863074,
2,1,0,1,0,64220.3,0.0881911,0.0878761,5.1433,33,0.00354125,10,0.000451973,-2.28876,0.513872,0.114815,23.0543,0.0878761,
2,1,0,1,0,64220.3,0.0896946,0.089412,5.1814,33,0.00363846,10,0.000463279,-2.28555,0.525386,0.112298,22.7105,0.089412,
2,1,0,1,0,64220.3,0.0911839,0.0908555,5.22336,33,0.0037354,10,0.000474571,-2.28205,0.450053,0.131096,26.6985,0.0908555,
2,1,0,1,0,64220.3,0.0926857,0.0923477,5.2616,33,0.0038341,10,0.000485897,-2.27888,0.4736,0.124578,25.5677,0.0923477,
2,1,0,1,0,64220.4,0.0941892,0.0938641,5.30283,33,0.00393358,10,0.000497746,-2.27549,0.460537,0.128111,26.4888,0.0938641,
2,1,0,1,0,64220.4,0.0956785,0.0953229,5.34064,33,0.00403273,10,0.000509085,-2.27241,0.430943,0.136909,28.5389,0.0953229,
2,1,0,1,0,64220.4,0.097182,0.0968547,5.38218,33,0.00413372,10,0.000521289,-2.26904,0.380041,0.155246,32.6333,0.0968547,
2,1,0,1,0,64220.4,0.0986856,0.0983466,5.43607,33,0.0042356,10,0.000534619,-2.26471,0.366221,0.161105,34.1548,0.0983466,
2,1,0,1,0,64220.4,0.100175,0.0998708,5.48342,33,0.00433733,10,0.000547633,-2.26095,0.355337,0.16604,35.5441,0.0998708,
2,1,0,1,0,64220.5,0.101678,0.101334,5.52702,33,0.00444108,10,0.000560075,-2.25751,0.337832,0.174643,37.7589,0.101334,
2,1,0,1,0,64220.5,0.103175,0.102825,5.59291,33,0.00454533,10,0.00057509,-2.25236,0.30577,0.192956,42.178,0.102825,
2,1,0,1,0,64220.5,0.104671,0.104341,5.65909,33,0.00465074,10,0.000590477,-2.24725,0.286436,0.20598,45.5119,0.104341,
2,1,0,1,0,64220.5,0.106175,0.105899,5.7218,33,0.00475801,10,0.000605931,-2.24247,0.290085,0.203389,45.4586,0.105899,
2,1,0,1,0,64220.5,0.107662,0.107367,5.793,33,0.00486544,10,0.000621979,-2.2371,0.273977,0.215347,48.7646,0.107367,
2,1,0,1,0,64220.6,0.109166,0.108874,5.86862,33,0.00497533,10,0.000638942,-2.23146,0.273688,0.215574,49.4598,0.108874,
2,1,0,1,0,64220.6,0.110669,0.110333,5.94913,33,0.00508675,10,0.000656384,-2.22555,0.25983,0.227071,52.7593,0.110333,
2,1,0,1,0,64220.6,0.112159,0.111853,6.03084,33,0.00519843,10,0.000674565,-2.21962,0.273229,0.215936,50.8447,0.111853,
2,1,0,1,0,64220.6,0.113662,0.113312,6.12087,33,0.00531286,10,0.000693568,-2.21319,0.267482,0.220576,52.6034,0.113312,
2,1,0,1,0,64220.6,0.115166,0.114838,6.20064,33,0.00542881,10,0.000712069,-2.20756,0.261396,0.225712,54.5958,0.114838,
2,1,0,1,0,64220.6,0.116655,0.116299,6.28373,33,0.00554507,10,0.000730791,-2.20178,0.261401,0.225707,55.3005,0.116299,
2,1,0,1,0,64220.7,0.118158,0.117795,6.36931,33,0.00566416,10,0.000750271,-2.19591,0.270636,0.218005,54.1166,0.117795,
2,1,0,1,0,64220.7,0.119655,0.119359,6.45071,33,0.00578416,10,0.000769949,-2.19039,0.272564,0.216463,54.4186,0.119359,
2,1,0,1,0,64220.7,0.121151,0.120824,6.52066,33,0.00590559,10,0.000787852,-2.18571,0.285274,0.206819,52.6545,0.120824,
2,1,0,1,0,64220.7,0.122655,0.12231,6.60263,33,0.00602918,10,0.000807566,-2.18028,0.283404,0.208184,53.5932,0.12231,
2,1,0,1,0,64220.7,0.124142,0.123819,6.67496,33,0.00615292,10,0.000826487,-2.17555,0.302619,0.194965,50.7358,0.123819,
2,1,0,1,0,64220.8,0.125646,0.125316,6.74015,33,0.00627924,10,0.000844648,-2.17133,0.351908,0.167658,44.0869,0.125316,
2,1,0,1,0,64220.8,0.127149,0.126831,6.80027,33,0.00640682,10,0.000862482,-2.16747,0.373588,0.157928,41.8996,0.126831,
2,1,0,1,0,64220.8,0.128639,0.128329,6.85636,33,0.00653411,10,0.00087987,-2.16391,0.422278,0.139718,37.4078,0.128329,
2,1,0,1,0,64220.8,0.130142,0.1298,6.91425,33,0.00666386,10,0.000897468,-2.16026,0.464693,0.126965,34.2336,0.1298,
2,1,0,1,0,64220.8,0.131646,0.131279,6.95822,33,0.00679462,10,0.000913468,-2.1575,0.567581,0.10395,28.2379,0.131279,
2,1,0,1,0,64220.9,0.133135,0.132806,7.00904,33,0.00692482,10,0.000930845,-2.15434,0.640556,0.0921075,25.1845,0.132806,
2,1,0,1,0,64220.9,0.134639,0.134303,7.04638,33,0.00705715,10,0.000946347,-2.15203,0.706137,0.0835531,22.9795,0.134303,
2,1,0,1,0,64220.9,0.136135,0.135825,7.08825,33,0.00718952,10,0.000962761,-2.14946,0.719314,0.0820226,22.6731,0.135825,
2,1,0,1,0,64220.9,0.137631,0.137315,7.12633,33,0.00732257,10,0.000978551,-2.14713,0.828906,0.0711782,19.7659,0.137315,
2,1,0,1,0,64220.9,0.139135,0.13878,7.14977,33,0.00745691,10,0.000992247,-2.14571,1.12677,0.0523622,14.5919,0.13878,
2,1,0,1,0,64220.9,0.140622,0.140296,7.17036,33,0.00759023,10,0.00100597,-2.14446,1.30587,0.0451805,12.6264,0.1402957,
2,1,0,1,0,64221,0.142126,0.141835,7.18613,33,0.0077253,10,0.00101924,-2.1435,1.96429,0.0300363,8.40844,0.141835,
2,1,0,1,0,64221,0.143629,0.143295,7.19162,33,0.00786064,10,0.00103052,-2.14317,5.88324,0.0100285,2.80968,0.143295,
2,1,0,1,0,64221,0.145119,0.144788,7.18825,33,0.00799457,10,0.00104077,-2.14338,-2.22179,-0.0265551,-7.43611,0.144788,
2,1,0,1,0,64221,0.146622,0.146287,7.16535,33,0.0081297,10,0.0010482,-2.14476,-1.0171,-0.0580083,-16.2009,0.146287,
2,1,0,1,0,64221,0.148126,0.14781,7.13397,33,0.00826435,10,0.00105447,-2.14667,-0.697609,-0.0845746,-23.4993,0.14781,
2,1,0,1,0,64221.1,0.149615,0.149266,7.08594,33,0.00839685,10,0.00105769,-2.1496,-0.438487,-0.134554,-37.1446,0.149266,
2,1,0,1,0,64221.1,0.151119,0.150813,7.01834,33,0.0085297,10,0.00105846,-2.15377,-0.319209,-0.184832,-50.5179,0.150813,
2,1,0,1,0,64221.1,0.152615,0.152285,6.93586,33,0.00866046,10,0.00105623,-2.1589,-0.258117,-0.228578,-61.715,0.152285,
2,1,0,1,0,64221.1,0.154111,0.153782,6.83459,33,0.00878943,10,0.00105103,-2.16529,-0.211364,-0.27914,-74.3133,0.153782,
2,1,0,1,0,64221.1,0.155615,0.155253,6.7136,33,0.00891704,10,0.00104231,-2.17304,-0.178554,-0.330432,-86.3808,0.155253,
2,1,0,1,0,64221.2,0.157103,0.156812,6.57299,33,0.00904096,10,0.00103072,-2.18224,-0.155825,-0.378629,-96.9668,0.156812,
2,1,0,1,0,64221.2,0.158606,0.158251,6.43032,33,0.00916349,10,0.0010176,-2.19177,-0.138449,-0.426149,-106.709,0.158251,
2,1,0,1,0,64221.2,0.16011,0.159783,6.26635,33,0.00928299,10,0.00100125,-2.20299,-0.126282,-0.467208,-114.061,0.159783,
2,1,0,1,0,64221.2,0.161599,0.161253,6.10051,33,0.00939814,10,0.000983726,-2.21463,-0.121378,-0.486086,-115.478,0.1612529,
2,1,0,1,0,64221.2,0.163102,0.162749,5.92194,33,0.00951126,10,0.000963792,-2.22754,-0.117648,-0.501494,-115.77,0.162749,
2,1,0,1,0,64221.2,0.164606,0.164306,5.75048,33,0.00962111,10,0.000944838,-2.2403,-0.114645,-0.514633,-115.235,0.164306,
2,1,0,1,0,64221.3,0.166095,0.165752,5.57264,33,0.00972646,10,0.000923679,-2.25394,-0.114777,-0.514041,-111.801,0.1657524,
2,1,0,1,0,64221.3,0.167599,0.167265,5.40132,33,0.00982973,10,0.00090345,-2.2675,-0.120188,-0.490899,-103.564,0.167265,
2,1,0,1,0,64221.3,0.169095,0.168754,5.24456,33,0.00992944,10,0.000885042,-2.28029,-0.119872,-0.492192,-100.793,0.1687544,
2,1,0,1,0,64221.3,0.170592,0.170216,5.09159,33,0.0100263,10,0.000866671,-2.29315,-0.119001,-0.495793,-98.5531,0.170216,
2,1,0,1,0,64221.3,0.172095,0.171763,4.93984,33,0.0101208,10,0.000848481,-2.30629,-0.125774,-0.469094,-90.6105,0.171763,
2,1,0,1,0,64221.4,0.173583,0.173219,4.80646,33,0.0102117,10,0.000832569,-2.31818,-0.12723,-0.463726,-87.1678,0.173219,
2,1,0,1,0,64221.4,0.175086,0.174769,4.68288,33,0.0103011,10,0.000818422,-2.32949,-0.135041,-0.436905,-79.9855,0.174769,
2,1,0,1,0,64221.4,0.17659,0.176294,4.56535,33,0.0103883,10,0.000804843,-2.34053,-0.141176,-0.417919,-74.5536,0.1762937,
2,1,0,1,0,64221.4,0.178079,0.177744,4.46048,33,0.0104725,10,0.000792823,-2.35062,-0.14592,-0.404331,-70.5029,0.177744,
2,1,0,1,0,64221.4,0.179582,0.179214,4.35711,33,0.0105556,10,0.000780854,-2.3608,-0.149825,-0.393793,-67.1709,0.179214,
2,1,0,1,0,64221.5,0.181086,0.180765,4.26332,33,0.0106369,10,0.000770658,-2.37025,-0.164576,-0.358497,-59.8062,0.180765,
2,1,0,1,0,64221.5,0.182575,0.182258,4.1879,33,0.0107158,10,0.000763278,-2.378,-0.168312,-0.350539,-57.3184,0.182258,
2,1,0,1,0,64221.5,0.184079,0.183756,4.10695,33,0.0107939,10,0.000754676,-2.38648,-0.183093,-0.32224,-51.7275,0.183756,
2,1,0,1,0,64221.5,0.185582,0.185262,4.031,33,0.0108706,10,0.000746791,-2.39459,-0.192071,-0.307178,-48.3791,0.185262,
2,1,0,1,0,64221.5,0.18707,0.18674,3.97081,33,0.0109451,10,0.000741508,-2.40112,-0.213292,-0.276616,-42.831,0.18674,
2,1,0,1,0,64221.5,0.188573,0.188249,3.90641,33,0.0110192,10,0.000735378,-2.40822,-0.235151,-0.250903,-38.2386,0.188249,
2,1,0,1,0,64221.6,0.19007,0.189766,3.84788,33,0.0110919,10,0.000730198,-2.41478,-0.240366,-0.245459,-36.8362,0.189766,
2,1,0,1,0,64221.6,0.191566,0.191239,3.7917,33,0.0111634,10,0.00072512,-2.42117,-0.245224,-0.240596,-35.6079,0.191239,
2,1,0,1,0,64221.6,0.19307,0.192742,3.735,33,0.0112344,10,0.00071989,-2.42771,-0.291957,-0.202084,-29.4991,0.192742,
2,1,0,1,0,64221.6,0.194559,0.19421,3.6932,33,0.0113037,10,0.000717254,-2.4326,-0.297155,-0.198549,-28.6278,0.19421,
2,1,0,1,0,64221.6,0.196063,0.195727,3.64709,33,0.011373,10,0.000713835,-2.43805,-0.298555,-0.197619,-28.1392,0.195727,
2,1,0,1,0,64221.7,0.197566,0.197233,3.60013,33,0.0114414,10,0.000710065,-2.44368,-0.312198,-0.188983,-26.6361,0.197233,
2,1,0,1,0,64221.7,0.199055,0.198758,3.57071,33,0.0115083,10,0.000709708,-2.44724,-0.342267,-0.17238,-24.0355,0.198758,
2,1,0,1,0,64221.7,0.200559,0.200208,3.53135,33,0.0115753,10,0.000707006,-2.45206,-0.351644,-0.167783,-23.1585,0.200208,
2,1,0,1,0,64221.7,0.202062,0.201726,3.49877,33,0.0116416,10,0.000705792,-2.45608,-0.360099,-0.163844,-22.3918,0.201726,
2,1,0,1,0,64221.7,0.20355,0.203231,3.47043,33,0.0117067,10,0.000705298,-2.45962,-0.375814,-0.156993,-21.2772,0.203231,
2,1,0,1,0,64221.8,0.205054,0.204754,3.43878,33,0.0117718,10,0.000704103,-2.4636,-0.421163,-0.140088,-18.8493,0.204754,
2,1,0,1,0,64221.8,0.20655,0.206205,3.41392,33,0.0118362,10,0.000703969,-2.46675,-0.473707,-0.124549,-16.6278,0.206205,
2,1,0,1,0,64221.8,0.208046,0.207742,3.39636,33,0.0119001,10,0.000705569,-2.46899,-0.456983,-0.129108,-17.0862,0.207742,
2,1,0,1,0,64221.8,0.20955,0.209231,3.37372,33,0.0119639,10,0.000705885,-2.47189,-0.439842,-0.134139,-17.6454,0.209231,
2,1,0,1,0,64221.8,0.211039,0.210696,3.35027,33,0.0120265,10,0.000705888,-2.47492,-0.480226,-0.122859,-16.0484,0.210696,
2,1,0,1,0,64221.8,0.212543,0.212191,3.32485,33,0.0120894,10,0.000705503,-2.47823,-0.558967,-0.105552,-13.6949,0.212191,
2,1,0,1,0,64221.9,0.214046,0.213708,3.30672,33,0.0121519,10,0.000706672,-2.4806,-0.672182,-0.0877738,-11.323,0.213708,
2,1,0,1,0,64221.9,0.215535,0.21523,3.28871,33,0.0122134,10,0.000707829,-2.48297,-0.696902,-0.0846604,-10.86,0.21523,
2,1,0,1,0,64221.9,0.217039,0.216698,3.26808,33,0.0122752,10,0.000708185,-2.48571,-0.864775,-0.0682259,-8.70838,0.2166978,
2,1,0,1,0,64221.9,0.218543,0.218224,3.24733,33,0.0123367,10,0.000708645,-2.48847,-0.959122,-0.0615146,-7.81338,0.218224,
2,1,0,1,0,64221.9,0.22003,0.219726,3.23964,33,0.0123973,10,0.000711832,-2.4895,-0.874394,-0.0674753,-8.52894,0.219726,
2,1,0,1,0,64222,0.221534,0.221246,3.21897,33,0.0124583,10,0.000712183,-2.49228,-0.857216,-0.0688274,-8.656,0.221246,
2,1,0,1,0,64222,0.22303,0.222744,3.2015,33,0.0125186,10,0.000713115,-2.49465,-0.801878,-0.0735773,-9.20841,0.222744,
2,1,0,1,0,64222,0.224526,0.224198,3.19042,33,0.0125787,10,0.000715287,-2.49615,-0.681681,-0.0865508,-10.795,0.224198,
2,1,0,1,0,64222,0.22603,0.22574,3.17954,33,0.0126388,10,0.000717751,-2.49764,-0.742246,-0.0794884,-9.873,0.22574,
2,1,0,1,0,64222,0.227519,0.227193,3.17088,33,0.0126981,10,0.000720401,-2.49882,-0.719059,-0.0820516,-10.1499,0.2271931,
2,1,0,1,0,64222.1,0.229023,0.228715,3.15617,33,0.0127578,10,0.000721864,-2.50084,-0.740457,-0.0796805,-9.82126,0.228715,
2,1,0,1,0,64222.1,0.230526,0.230212,3.1478,33,0.0128173,10,0.000724662,-2.50199,-0.829865,-0.0710959,-8.73465,0.230212,
2,1,0,1,0,64222.1,0.232016,0.231665,3.13944,33,0.0128759,10,0.000727297,-2.50315,-1.06215,-0.0555478,-6.80393,0.231665,
2,1,0,1,0,64222.1,0.233519,0.233199,3.1316,33,0.012935,10,0.000730286,-2.50423,-1.14241,-0.0516453,-6.31036,0.233199,
2,1,0,1,0,64222.1,0.235023,0.234694,3.1222,33,0.012994,10,0.00073276,-2.50554,-1.24132,-0.04753,-5.78611,0.234694,
2,1,0,1,0,64222.1,0.23651,0.236172,3.1127,33,0.0130521,10,0.000735131,-2.50686,-1.23461,-0.0477883,-5.80419,0.236172,
2,1,0,1,0,64222.2,0.238014,0.237733,3.1058,33,0.0131107,10,0.00073835,-2.50783,-2.08564,-0.0282886,-3.42061,0.237733,
2,1,0,1,0,64222.2,0.23951,0.239174,3.09211,33,0.0131688,10,0.000739554,-2.50974,-2.52992,-0.0233209,-2.81612,0.2391741,
2,1,0,1,0,64222.2,0.241006,0.240699,3.08375,33,0.0132268,10,0.000742256,-2.51092,-1.90006,-0.0310516,-3.73903,0.240699,
2,1,0,1,0,64222.2,0.24251,0.242178,3.06954,33,0.013285,10,0.000743376,-2.51293,-1.43855,-0.0410137,-4.92438,0.242178,
2,1,0,1,0,64222.2,0.243999,0.243706,3.0682,33,0.0133423,10,0.000747739,-2.51312,-2.5139,-0.0234695,-2.81334,0.243706,
2,1,0,1,0,64222.3,0.245503,0.245207,3.06216,33,0.0134002,10,0.000750861,-2.51397,-1.939,-0.030428,-3.63671,0.245207,
2,1,0,1,0,64222.3,0.247006,0.246652,3.05511,33,0.013458,10,0.000753549,-2.51497,-1.34663,-0.043813,-5.21986,0.246652,
2,1,0,1,0,64222.3,0.248496,0.248154,3.04857,33,0.013515,10,0.000756513,-2.5159,-1.0764,-0.0548122,-6.52662,0.2481537,
2,1,0,1,0,64222.3,0.249999,0.249678,3.04021,33,0.0135725,10,0.000759072,-2.5171,-1.51401,-0.0389694,-4.62584,0.249678,
2,1,0,1,0,64222.3,0.251503,0.251145,3.03872,33,0.0136298,10,0.000763159,-2.51731,-1.40055,-0.0421263,-4.99197,0.251145,
2,1,0,1,0,64222.4,0.25299,0.25265,3.03208,33,0.0136865,10,0.000766054,-2.51826,-1.08142,-0.0545581,-6.45222,0.25265,
2,1,0,1,0,64222.4,0.254494,0.254183,3.02577,33,0.0137436,10,0.000769097,-2.51916,-1.28592,-0.0458816,-5.41686,0.254183,
2,1,0,1,0,64222.4,0.25599,0.255658,3.02045,33,0.0138003,10,0.000772203,-2.51993,-1.80326,-0.0327185,-3.85513,0.255658,
2,1,0,1,0,64222.4,0.257487,0.257142,3.01969,33,0.0138569,10,0.000776491,-2.52004,-2.05724,-0.0286792,-3.37331,0.257142,
2,1,0,1,0,64222.4,0.25899,0.25869,3.01387,33,0.0139138,10,0.00077966,-2.52087,-2.87644,-0.0205115,-2.40832,0.25869,
2,1,0,1,0,64222.4,0.260479,0.260141,3.00617,33,0.01397,10,0.000782028,-2.52199,-1.84266,-0.0320189,-3.75185,0.260141,
2,1,0,1,0,64222.5,0.261983,0.261644,2.99926,33,0.0140266,10,0.000784738,-2.52299,-2.30464,-0.0256006,-2.99568,0.261644,
2,1,0,1,0,64222.5,0.263486,0.263178,2.99383,33,0.0140831,10,0.000787911,-2.52377,-9.89546,-0.00596233,-0.696679,0.2631785,
2,1,0,1,0,64222.5,0.264974,0.264629,2.98932,33,0.014139,10,0.00079106,-2.52443,-4.00924,-0.014716,-1.71727,0.264629,
2,1,0,1,0,64222.5,0.266477,0.266174,2.98267,33,0.0141954,10,0.000793909,-2.52539,-2.68478,-0.0219758,-2.55926,0.266174,
2,1,0,1,0,64222.5,0.267981,0.267692,2.9706,33,0.0142516,10,0.000795207,-2.52716,-3.00516,-0.0196329,-2.28304,0.267692,
2,1,0,1,0,64222.6,0.26947,0.269126,2.97195,33,0.0143072,10,0.00079983,-2.52696,-2.00455,-0.0294331,-3.41747,0.269126,
2,1,0,1,0,64222.6,0.270974,0.270653,2.96814,33,0.0143633,10,0.000803335,-2.52752,-1.61924,-0.0364368,-4.22121,0.270653,
2,1,0,1,0,64222.6,0.27247,0.272176,2.96726,33,0.014419,10,0.000807617,-2.52764,-1.97238,-0.0299132,-3.46076,0.272176,
2,1,0,1,0,64222.6,0.273967,0.273667,2.9599,33,0.0144747,10,0.000810026,-2.52872,-1.1524,-0.0511977,-5.91951,0.273667,
2,1,0,1,0,64222.6,0.27547,0.275196,2.95519,33,0.0145305,10,0.000813255,-2.52941,-1.59763,-0.0369297,-4.2599,0.275196,
2,1,0,1,0,64222.7,0.276959,0.276647,2.95317,33,0.0145856,10,0.000816986,-2.52971,-3.011,-0.0195948,-2.25628,0.276647,
2,1,0,1,0,64222.7,0.278463,0.278182,2.95132,33,0.0146412,10,0.000821002,-2.52998,-1.36074,-0.0433589,-4.98198,0.278182,
2,1,0,1,0,64222.7,0.279967,0.279617,2.94007,33,0.0146968,10,0.000822094,-2.53164,-1.55504,-0.0379411,-4.35512,0.2796171,
2,1,0,1,0,64222.7,0.281454,0.281158,2.94078,33,0.0147516,10,0.000826825,-2.53154,-2.25924,-0.026115,-2.99398,0.281158,
2,1,0,1,0,64222.7,0.282958,0.282646,2.93423,33,0.014807,10,0.000829348,-2.53251,-14.834,-0.00397734,-0.454596,0.282646,
2,1,0,1,0,64222.7,0.284461,0.284159,2.92754,33,0.0148623,10,0.000831888,-2.5335,-6.72032,-0.00877934,-1.00278,0.284159,
2,1,0,1,0,64222.8,0.28595,0.285622,2.92205,33,0.0149169,10,0.000834603,-2.53431,-3.17437,-0.0185864,-2.11926,0.285622,
2,1,0,1,0,64222.8,0.287454,0.287155,2.91445,33,0.014972,10,0.000836901,-2.53544,-2.89144,-0.0204051,-2.32349,0.287155,
2,1,0,1,0,64222.8,0.28895,0.288618,2.90889,33,0.0150267,10,0.000839559,-2.53627,-8.86264,-0.00665716,-0.756509,0.288618,
2,1,0,1,0,64222.8,0.290447,0.290127,2.90526,33,0.0150813,10,0.000842896,-2.53682,-3.64908,-0.0161684,-1.83493,0.2901274,
2,1,0,1,0,64222.8,0.29195,0.291656,2.89992,33,0.0151361,10,0.000845781,-2.53761,-2.35038,-0.0251023,-2.8431,0.291656,
2,1,0,1,0,64222.9,0.29344,0.293101,2.89069,33,0.0151903,10,0.000847264,-2.539,-2.32436,-0.0253834,-2.87016,0.293101,
2,1,0,1,0,64222.9,0.294943,0.294609,2.88622,33,0.0152449,10,0.000850305,-2.53967,-1.65421,-0.0356665,-4.02582,0.2946088,
2,1,0,1,0,64222.9,0.296447,0.296139,2.88904,33,0.0152994,10,0.000855555,-2.53925,-1.71189,-0.0344648,-3.88403,0.296139,
2,1,0,1,0,64222.9,0.297934,0.297582,2.88206,33,0.0153533,10,0.000857651,-2.5403,-1.6423,-0.0359253,-4.04502,0.297582,
2,1,0,1,0,64222.9,0.299438,0.29911,2.88117,33,0.0154077,10,0.000861787,-2.54043,-0.0348073,-1.69505,-177.904,0.29911,
2,1,0,1,0,64222.9,0.300012,0.299651,2.88805,33,0.015428,10,0.000865406,-2.5394,0.00197567,29.8632,2357.3,0.299651,
2,1,0,1,0,64223,0.298737,0.298451,1.64794,33,0.0154621,10,0.00049183,-2.78306,0.00529266,11.1475,662.683,0.298451,
2,1,0,1,0,64223,0.29724,0.296894,0.877266,33,0.0154849,10,0.000260455,-3.05687,0.00419732,14.0566,446.534,0.296894,
2,1,0,1,0,64223,0.295744,0.295396,0.359639,33,0.015496,10,0.000106236,-3.44413,0.00393675,14.987,305.805,0.295396,
2,1,0,1,0,64223,0.29424,0.293935,-0.00146784,33,0.015499,10,-4.3145e-07,-5.83332,0.025278,2.33405,216.501,0.293935,
2,0,0,1,0,64223,0.292751,0.292429,-0.271435,33,0.0154961,10,-7.93754e-05,-3.56633,-0.00556101,-10.6096,166.402,0.292429,
2,0,0,1,0,64223.1,0.291248,0.290911,-0.484,33,0.0154887,10,-0.000140801,-3.31515,-0.00704049,-8.38009,127.936,0.290911,
2,0,0,1,0,64223.1,0.289744,0.289412,-0.651044,33,0.0154777,10,-0.00018842,-3.18639,-0.0135158,-4.36525,102.45,0.289412,
2,0,0,1,0,64223.1,0.288257,0.287897,-0.785224,33,0.015464,10,-0.000226064,-3.10501,-0.0214512,-2.75043,80.975,0.287897,
2,0,0,1,0,64223.1,0.286753,0.286389,-0.894888,33,0.0154479,10,-0.000256286,-3.04823,-0.029552,-1.99648,68.5901,0.286389,
2,0,0,1,0,64223.1,0.285249,0.284904,-0.993445,33,0.0154298,10,-0.000283036,-3.00286,-0.0382866,-1.54101,59.118,0.284904,
2,0,0,1,0,64223.1,0.28376,0.283418,-1.08408,33,0.0154103,10,-0.000307247,-2.96494,-0.0483108,-1.22126,50.9215,0.283418,
2,0,0,1,0,64223.2,0.282257,0.281933,-1.15445,33,0.015389,10,-0.000325478,-2.93762,-0.0604963,-0.975266,43.4895,0.281933,
2,0,0,1,0,64223.2,0.28076,0.28039,-1.22313,33,0.0153666,10,-0.000342953,-2.91253,-0.0722524,-0.816582,38.6459,0.28039,
2,0,0,1,0,64223.2,0.279264,0.278905,-1.27905,33,0.0153431,10,-0.000356734,-2.89311,-0.0814958,-0.723964,35.9407,0.278905,
2,0,0,1,0,64223.2,0.27776,0.27746,-1.32974,33,0.0153184,10,-0.000368948,-2.87623,-0.0886089,-0.665847,34.3273,0.27746,
2,0,0,1,0,64223.2,0.276271,0.275956,-1.37787,33,0.0152931,10,-0.000380231,-2.86079,-0.100255,-0.588502,31.4669,0.275956,
2,0,0,1,0,64223.3,0.274767,0.274421,-1.42368,33,0.0152666,10,-0.000390686,-2.84659,-0.109191,-0.54034,29.913,0.274421,
2,0,0,1,0,64223.3,0.273264,0.272915,-1.46157,33,0.0152393,10,-0.000398884,-2.83518,-0.120869,-0.488133,27.7707,0.272915,
2,0,0,1,0,64223.3,0.271776,0.271429,-1.49463,33,0.0152116,10,-0.000405686,-2.82547,-0.121135,-0.487058,28.4764,0.271429,
2,0,0,1,0,64223.3,0.270273,0.269943,-1.53471,33,0.0151829,10,-0.000414285,-2.81397,-0.140141,-0.421005,25.2151,0.269943,
2,0,0,1,0,64223.3,0.268769,0.268431,-1.56809,33,0.0151534,10,-0.000420924,-2.80463,-0.158371,-0.372542,22.7872,0.268431,
2,0,0,1,0,64223.4,0.26728,0.266941,-1.59457,33,0.0151237,10,-0.000425657,-2.79736,-0.172998,-0.341044,21.2814,0.266941,
2,0,0,1,0,64223.4,0.265777,0.26548,-1.62703,33,0.0150932,10,-0.000431943,-2.7886,-0.18926,-0.311741,19.8226,0.26548,
2,0,0,1,0,64223.4,0.26428,0.263959,-1.65772,33,0.0150622,10,-0.00043757,-2.78049,-0.19711,-0.299326,19.3832,0.263959,
2,0,0,1,0,64223.4,0.262784,0.262478,-1.68872,33,0.0150306,10,-0.000443254,-2.77244,-0.242618,-0.24318,15.9852,0.262478,
2,0,0,1,0,64223.4,0.26128,0.260936,-1.71516,33,0.0149984,10,-0.000447548,-2.76569,-0.246702,-0.239155,15.9962,0.260936,
2,0,0,1,0,64223.4,0.259791,0.259454,-1.74046,33,0.0149661,10,-0.00045157,-2.75934,-0.26178,-0.22538,15.3324,0.2594544,
2,0,0,1,0,64223.5,0.258287,0.257953,-1.76688,33,0.014933,10,-0.00045577,-2.75279,-0.250232,-0.235781,16.2475,0.257953,
2,0,0,1,0,64223.5,0.256786,0.256473,-1.79311,33,0.0148993,10,-0.000459884,-2.74639,-0.288148,-0.204756,14.2867,0.256473,
2,0,0,1,0,64223.5,0.255296,0.254956,-1.81939,33,0.0148656,10,-0.000463865,-2.74007,-0.271248,-0.217513,15.3782,0.254956,
2,0,0,1,0,64223.5,0.253793,0.253501,-1.83721,33,0.0148311,10,-0.000465736,-2.73584,-0.294486,-0.200349,14.3463,0.253501,
2,0,0,1,0,64223.5,0.252289,0.251985,-1.86012,33,0.0147962,10,-0.000468722,-2.73046,-0.276731,-0.213203,15.4409,0.251985,
2,0,0,1,0,64223.6,0.2508,0.250468,-1.87747,33,0.0147613,10,-0.000470245,-2.72643,-0.271997,-0.216914,15.8829,0.250468,
2,0,0,1,0,64223.6,0.249296,0.248912,-1.90084,33,0.0147256,10,-0.000473142,-2.72105,-0.325889,-0.181043,13.3978,0.2489121,
2,0,0,1,0,64223.6,0.2478,0.247467,-1.91137,33,0.0146898,10,-0.000473001,-2.71866,-0.309658,-0.190533,14.2698,0.2474672,
2,0,0,1,0,64223.6,0.246304,0.246021,-1.93039,33,0.0146536,10,-0.000474918,-2.71435,-0.293295,-0.201163,15.1976,0.246021,
2,0,0,1,0,64223.6,0.2448,0.244492,-1.9546,33,0.0146168,10,-0.000477883,-2.70894,-0.323743,-0.182243,13.888,0.244492,
2,0,0,1,0,64223.6,0.243313,0.242957,-1.97122,33,0.01458,10,-0.000478921,-2.70527,-0.371936,-0.15863,12.2155,0.242957,
2,0,0,1,0,64223.7,0.241809,0.241476,-1.98591,33,0.0145425,10,-0.000479549,-2.70204,-0.400842,-0.14719,11.4342,0.241476,
2,0,0,1,0,64223.7,0.240306,0.23995,-2.00771,33,0.0145047,10,-0.000481751,-2.6973,-0.402529,-0.146573,11.5008,0.23995,
2,0,0,1,0,64223.7,0.238816,0.238499,-2.02507,33,0.014467,10,-0.000482977,-2.69356,-0.399172,-0.147806,11.6935,0.2384986,
2,0,0,1,0,64223.7,0.237313,0.236979,-2.04431,33,0.0144285,10,-0.000484458,-2.68945,-0.514222,-0.114736,9.1533,0.236979,
2,0,0,1,0,64223.7,0.235809,0.235463,-2.0638,33,0.0143896,10,-0.000485947,-2.68533,-0.464178,-0.127106,10.2224,0.2354627,
2,0,0,1,0,64223.8,0.23432,0.234004,-2.07758,33,0.014351,10,-0.000486161,-2.68244,-0.513651,-0.114864,9.33162,0.234004,
2,0,0,1,0,64223.8,0.232816,0.232473,-2.09781,33,0.0143115,10,-0.000487685,-2.67823,-0.467621,-0.126171,10.32,0.232473,
2,0,0,1,0,64223.8,0.23132,0.230952,-2.11619,33,0.014272,10,-0.000488738,-2.67445,-0.529663,-0.111392,9.17983,0.230952,
2,0,0,1,0,64223.8,0.229824,0.229469,-2.13047,33,0.0142321,10,-0.000488876,-2.67153,-0.413924,-0.142538,11.8271,0.229469,
2,0,0,1,0,64223.8,0.22832,0.227966,-2.14799,33,0.0141918,10,-0.000489669,-2.66797,-0.421678,-0.139917,11.6989,0.227966,
2,0,0,1,0,64223.9,0.226833,0.226521,-2.15639,33,0.0141516,10,-0.000488467,-2.66627,-0.393891,-0.149788,12.6149,0.226521,
2,0,0,1,0,64223.9,0.225329,0.225034,-2.17448,33,0.0141107,10,-0.000489331,-2.66265,-0.374769,-0.15743,13.3541,0.225034,
2,0,0,1,0,64223.9,0.223825,0.223502,-2.18791,33,0.0140695,10,-0.000489002,-2.65997,-0.464499,-0.127019,10.8471,0.223502,
2,0,0,1,0,64223.9,0.222336,0.221993,-2.19987,33,0.0140284,10,-0.000488356,-2.6576,-0.444037,-0.132872,11.4523,0.221993,
2,0,0,1,0,64223.9,0.220833,0.220477,-2.21475,33,0.0139866,10,-0.000488302,-2.65468,-0.453667,-0.130051,11.2724,0.2204771,
2,0,0,1,0,64223.9,0.219329,0.219004,-2.2366,33,0.0139445,10,-0.000489824,-2.65041,-0.484104,-0.121875,10.6356,0.219004,
2,0,0,1,0,64224,0.21784,0.217512,-2.25128,33,0.0139026,10,-0.00048968,-2.64757,-0.609659,-0.0967754,8.49506,0.217512,
2,0,0,1,0,64224,0.216336,0.216006,-2.25721,33,0.0138599,10,-0.000487571,-2.64643,-0.730703,-0.0807441,7.14272,0.216006,
2,0,0,1,0,64224,0.21484,0.214478,-2.27666,33,0.0138172,10,-0.000488294,-2.6427,-0.671262,-0.0878942,7.8208,0.214478,
2,0,0,1,0,64224,0.213343,0.213024,-2.29873,33,0.0137743,10,-0.000489683,-2.63851,-0.603176,-0.0978156,8.76328,0.2130235,
2,0,0,1,0,64224,0.21184,0.21152,-2.31113,33,0.0137308,10,-0.000488849,-2.63618,-0.644894,-0.0914879,8.24288,0.2115197,
2,0,0,1,0,64224.1,0.210352,0.210033,-2.33018,33,0.0136874,10,-0.000489414,-2.63261,-0.598309,-0.0986113,8.94717,0.210033,
2,0,0,1,0,64224.1,0.208849,0.208547,-2.33937,33,0.0136434,10,-0.000487868,-2.6309,-0.520649,-0.11332,10.3624,0.208547,
2,0,0,1,0,64224.1,0.207345,0.206978,-2.35593,33,0.0135991,10,-0.000487625,-2.62784,-0.443023,-0.133176,12.2538,0.206978,
2,0,0,1,0,64224.1,0.205856,0.205482,-2.37597,33,0.0135549,10,-0.000488219,-2.62416,-0.428377,-0.137729,12.7353,0.205482,
2,0,0,1,0,64224.1,0.204353,0.204021,-2.38567,33,0.01351,10,-0.000486727,-2.62239,-0.581067,-0.101537,9.46106,0.204021,
2,0,0,1,0,64224.2,0.202849,0.202513,-2.40025,33,0.0134648,10,-0.000486082,-2.61974,-0.531647,-0.110976,10.3913,0.202513,
2,0,0,1,0,64224.2,0.20136,0.20101,-2.417,33,0.0134198,10,-0.000485843,-2.61672,-0.438877,-0.134434,12.6666,0.20101,
2,0,0,1,0,64224.2,0.199856,0.199535,-2.42933,33,0.0133741,10,-0.000484735,-2.61451,-0.487283,-0.12108,11.4846,0.199535,
2,0,0,1,0,64224.2,0.19836,0.198035,-2.44607,33,0.0133283,10,-0.000484407,-2.61153,-0.53953,-0.109354,10.4395,0.198035,
2,0,0,1,0,64224.2,0.196863,0.19653,-2.45202,33,0.0132823,10,-0.000481896,-2.61048,-0.574094,-0.102771,9.86127,0.19653,
2,0,0,1,0,64224.2,0.19536,0.195007,-2.47452,33,0.0132357,10,-0.000482548,-2.60651,-0.492761,-0.119734,11.5695,0.195007,
2,0,0,1,0,64224.3,0.193872,0.193503,-2.48952,33,0.0131893,10,-0.000481731,-2.60388,-0.533978,-0.110491,10.7328,0.193503,
2,0,0,1,0,64224.3,0.192369,0.192019,-2.50667,33,0.0131421,10,-0.000481329,-2.6009,-0.562738,-0.104844,10.2429,0.192019,
2,0,0,1,0,64224.3,0.190865,0.190479,-2.51957,33,0.0130946,10,-0.000479924,-2.59867,-0.614144,-0.0960687,9.46255,0.190479,
2,0,0,1,0,64224.3,0.189376,0.18902,-2.5396,33,0.0130473,10,-0.000480034,-2.59523,-0.646828,-0.0912143,9.04618,0.1890195,
2,0,0,1,0,64224.3,0.187872,0.187534,-2.55717,33,0.0129992,10,-0.000479557,-2.59224,-0.597541,-0.0987379,9.84478,0.187534,
2,0,0,1,0,64224.4,0.186369,0.186065,-2.57356,33,0.0129508,10,-0.00047885,-2.58947,-0.702175,-0.0840247,8.44003,0.186065,
2,0,0,1,0,64224.4,0.18488,0.184524,-2.59526,33,0.0129026,10,-0.000478887,-2.58582,-0.59039,-0.0999339,10.1041,0.184524,
2,0,0,1,0,64224.4,0.183376,0.183026,-2.61,33,0.0128536,10,-0.000477697,-2.58336,-0.499141,-0.118203,12.0339,0.183026,
2,0,0,1,0,64224.4,0.18188,0.181562,-2.62583,33,0.0128045,10,-0.000476752,-2.58073,-0.399278,-0.147767,15.1511,0.181562,
2,0,0,1,0,64224.4,0.180383,0.180037,-2.64708,33,0.012755,10,-0.000476572,-2.57723,-0.394782,-0.14945,15.4204,0.180037,
2,0,0,1,0,64224.5,0.17888,0.178521,-2.66407,33,0.0127049,10,-0.000475592,-2.57445,-0.454916,-0.129694,13.4828,0.178521,
2,0,0,1,0,64224.5,0.177392,0.17704,-2.67582,33,0.012655,10,-0.000473728,-2.57254,-0.395044,-0.14935,15.6345,0.17704,
2,0,0,1,0,64224.5,0.175889,0.175514,-2.69758,33,0.0126042,10,-0.000473464,-2.56902,-0.364061,-0.162061,17.0861,0.175514,
2,0,0,1,0,64224.5,0.174385,0.174023,-2.71908,33,0.012553,10,-0.000473182,-2.56558,-0.440728,-0.133869,14.2369,0.174023,
2,0,0,1,0,64224.5,0.172896,0.172532,-2.74274,33,0.0125019,10,-0.00047321,-2.56181,-0.478829,-0.123217,13.2037,0.172532,
2,0,0,1,0,64224.5,0.171392,0.171108,-2.76253,33,0.0124499,10,-0.00047269,-2.55869,-0.423375,-0.139356,15.0572,0.171108,
2,0,0,1,0,64224.6,0.169889,0.169551,-2.79211,33,0.0123975,10,-0.000473406,-2.55407,-0.450379,-0.131001,14.2671,0.169551,
2,0,0,1,0,64224.6,0.1684,0.16807,-2.81866,33,0.0123451,10,-0.000473733,-2.54996,-0.394873,-0.149415,16.3997,0.16807,
2,0,0,1,0,64224.6,0.166896,0.166549,-2.8425,33,0.0122918,10,-0.000473414,-2.5463,-0.421654,-0.139925,15.5012,0.166549,
2,0,0,1,0,64224.6,0.165392,0.165067,-2.86661,33,0.0122379,10,-0.000473182,-2.54263,-0.422862,-0.139525,15.6133,0.165067,
2,0,0,1,0,64224.6,0.163905,0.163569,-2.89492,33,0.0121841,10,-0.000473521,-2.53836,-0.37895,-0.155693,17.6198,0.163569,
2,0,0,1,0,64224.7,0.162401,0.16208,-2.92778,33,0.0121292,10,-0.000474534,-2.53346,-0.319225,-0.184823,21.1102,0.16208,
2,0,0,1,0,64224.7,0.160905,0.160587,-2.96042,33,0.012074,10,-0.000475406,-2.52865,-0.324024,-0.182085,21.0303,0.160587,
2,0,0,1,0,64224.7,0.159409,0.159077,-2.99148,33,0.0120182,10,-0.000475877,-2.52411,-0.290815,-0.202878,23.6762,0.159077,
2,0,0,1,0,64224.7,0.157905,0.157547,-3.03038,33,0.0119615,10,-0.000477428,-2.5185,-0.276948,-0.213036,25.1868,0.157547,
2,0,0,1,0,64224.7,0.156416,0.156074,-3.06648,33,0.0119046,10,-0.000478599,-2.51336,-0.242382,-0.243418,29.129,0.156074,
2,0,0,1,0,64224.8,0.154912,0.154554,-3.1064,33,0.0118464,10,-0.000480105,-2.50774,-0.232538,-0.253722,30.8075,0.154554,
2,0,0,1,0,64224.8,0.153409,0.153099,-3.15316,33,0.0117873,10,-0.000482744,-2.50125,-0.229808,-0.256736,31.6212,0.153099,
2,0,0,1,0,64224.8,0.151919,0.151567,-3.19463,33,0.011728,10,-0.0004842,-2.49558,-0.210545,-0.280225,35.0622,0.151567,
2,0,0,1,0,64224.8,0.150416,0.15008,-3.24733,33,0.0116672,10,-0.00048736,-2.48847,-0.190677,-0.309423,39.3692,0.15008,
2,0,0,1,0,64224.8,0.148912,0.148586,-3.30896,33,0.0116053,10,-0.000491666,-2.48031,-0.182222,-0.323781,41.9357,0.148586,
2,0,0,1,0,64224.8,0.147425,0.147073,-3.37555,33,0.0115428,10,-0.000496454,-2.47165,-0.183445,-0.321623,42.4702,0.147073,
2,0,0,1,0,64224.9,0.145921,0.145559,-3.44138,33,0.0114784,10,-0.000500925,-2.46327,-0.167554,-0.352126,47.45,0.145559,
2,0,0,1,0,64224.9,0.144425,0.144121,-3.52586,33,0.0114131,10,-0.000508151,-2.45274,-0.154741,-0.381282,52.5577,0.144121,
2,0,0,1,0,64224.9,0.142929,0.142574,-3.61567,33,0.0113462,10,-0.000515501,-2.44181,-0.146433,-0.402914,56.8783,0.142574,
2,0,0,1,0,64224.9,0.141425,0.141094,-3.70554,33,0.0112772,10,-0.00052283,-2.43115,-0.137823,-0.428084,61.9084,0.141094,
2,0,0,1,0,64224.9,0.139936,0.139624,-3.81347,33,0.0112072,10,-0.000532453,-2.41868,-0.12283,-0.480337,71.4753,0.139624,
2,0,0,1,0,64225,0.138432,0.138072,-3.91901,33,0.0111344,10,-0.000541107,-2.40682,-0.113781,-0.518542,79.4318,0.138072,
2,0,0,1,0,64225,0.136929,0.136612,-4.04321,33,0.0110594,10,-0.000552349,-2.39327,-0.111072,-0.531185,83.8883,0.136612,
2,0,0,1,0,64225,0.135439,0.135143,-4.1714,33,0.0109829,10,-0.000563735,-2.37972,-0.106776,-0.552558,89.9301,0.1351428,
2,0,0,1,0,64225,0.133936,0.133627,-4.3053,33,0.010903,10,-0.000575304,-2.366,-0.105989,-0.556663,93.5102,0.133627,
2,0,0,1,0,64225,0.132432,0.132061,-4.44305,33,0.0108206,10,-0.000586754,-2.35232,-0.104082,-0.566862,98.3739,0.132061,
2,0,0,1,0,64225.1,0.130945,0.130601,-4.58689,33,0.0107364,10,-0.000599054,-2.33848,-0.103245,-0.571456,102.337,0.130601,
2,0,0,1,0,64225.1,0.129441,0.129086,-4.73787,33,0.0106485,10,-0.000611592,-2.32442,-0.107121,-0.550777,101.844,0.129086,
2,0,0,1,0,64225.1,0.127945,0.12759,-4.88701,33,0.0105582,10,-0.000623532,-2.31096,-0.112288,-0.525434,100.242,0.12759,
2,0,0,1,0,64225.1,0.126448,0.126137,-5.03182,33,0.0104652,10,-0.000634701,-2.29827,-0.116922,-0.504609,99.188,0.126137,
2,0,0,1,0,64225.1,0.124945,0.124587,-5.18327,33,0.0103688,10,-0.000645767,-2.2854,-0.119271,-0.494671,100.128,0.124587,
2,0,0,1,0,64225.1,0.123456,0.123142,-5.33646,33,0.0102707,10,-0.000657142,-2.27275,-0.12751,-0.462709,96.3318,0.123142,
2,0,0,1,0,64225.2,0.121952,0.121617,-5.48668,33,0.0101687,10,-0.000667272,-2.26069,-0.136783,-0.431341,92.1755,0.121617,
2,0,0,1,0,64225.2,0.120449,0.120125,-5.62912,33,0.010064,10,-0.000676199,-2.24956,-0.141136,-0.418036,91.6845,0.120125,
2,0,0,1,0,64225.2,0.118959,0.118588,-5.76534,33,0.00995795,10,-0.000683698,-2.23918,-0.147428,-0.400194,90.0214,0.118588,
2,0,0,1,0,64225.2,0.117456,0.117138,-5.90539,33,0.00984808,10,-0.000691748,-2.22875,-0.156756,-0.376382,86.6081,0.117138,
2,0,0,1,0,64225.2,0.115952,0.115611,-6.04184,33,0.00973564,10,-0.000698501,-2.21883,-0.166136,-0.355131,83.5269,0.1156107,
2,0,0,1,0,64225.3,0.114465,0.114129,-6.1645,33,0.00962203,10,-0.000703548,-2.2101,-0.175884,-0.335448,80.5215,0.114129,
2,0,0,1,0,64225.3,0.112961,0.112602,-6.28236,33,0.00950494,10,-0.000707405,-2.20188,-0.183729,-0.321126,78.6207,0.1126017,
2,0,0,1,0,64225.3,0.111465,0.111133,-6.39453,33,0.00938627,10,-0.000710646,-2.19419,-0.189299,-0.311675,77.6774,0.111133,
2,0,0,1,0,64225.3,0.109968,0.109621,-6.50613,33,0.00926547,10,-0.000713211,-2.18668,-0.198097,-0.297834,75.482,0.109621,
2,0,0,1,0,64225.3,0.108465,0.108132,-6.60648,33,0.00914203,10,-0.000714374,-2.18003,-0.221093,-0.266856,68.72,0.108132,
2,0,0,1,0,64225.4,0.106976,0.10667,-6.69867,33,0.00901806,10,-0.000714549,-2.17401,-0.24033,-0.245496,64.1271,0.10667,
2,0,0,1,0,64225.4,0.105472,0.105094,-6.785,33,0.00889102,10,-0.000713064,-2.16845,-0.267227,-0.220786,58.4634,0.105094,
2,0,0,1,0,64225.4,0.103968,0.103651,-6.86987,33,0.00876237,10,-0.00071207,-2.16305,-0.309062,-0.1909,51.1594,0.103651,
2,0,0,1,0,64225.4,0.102479,0.102111,-6.9426,33,0.00863362,10,-0.000708915,-2.15848,-0.362574,-0.162725,44.0566,0.102111,
2,0,0,1,0,64225.4,0.100976,0.100609,-7.00353,33,0.00850223,10,-0.000704617,-2.15468,-0.430321,-0.137107,37.4598,0.100609,
2,0,0,1,0,64225.4,0.0994721,0.0991629,-7.06365,33,0.00836975,10,-0.000700452,-2.15097,-0.51815,-0.113867,31.3442,0.0991629,
2,0,0,1,0,64225.5,0.0979846,0.0976441,-7.1062,33,0.00823774,10,-0.000693878,-2.14836,-0.653306,-0.0903098,25.0286,0.0976441,
2,0,0,1,0,64225.5,0.0964811,0.0961396,-7.14647,33,0.00810358,10,-0.000687058,-2.14591,-0.955731,-0.0617328,17.1872,0.09613958,
2,0,0,1,0,64225.5,0.0949847,0.0945959,-7.16852,33,0.00796953,10,-0.000678113,-2.14457,-1.27745,-0.0461857,12.9067,0.0945959,
2,0,0,1,0,64225.5,0.0934883,0.0931579,-7.18396,33,0.00783516,10,-0.000669242,-2.14364,-1.88887,-0.0312355,8.75376,0.09315788,
2,0,0,1,0,64225.5,0.0919847,0.0916585,-7.19842,33,0.0076998,10,-0.000659796,-2.14276,-5.25123,-0.0112355,3.15296,0.0916585,
2,0,0,1,0,64225.6,0.0904955,0.0901387,-7.20071,33,0.00756573,10,-0.000649062,-2.14262,5.87177,0.0100481,-2.81828,0.0901387,
2,0,0,1,0,64225.6,0.0889919,0.0886573,-7.19091,33,0.00743032,10,-0.000637527,-2.14322,1.98181,0.0297707,-8.34423,0.0886573,
2,0,0,1,0,64225.6,0.0874884,0.0871294,-7.17349,33,0.0072952,10,-0.000625022,-2.14427,1.52682,0.0386425,-10.8049,0.0871294,
2,0,0,1,0,64225.6,0.0860009,0.0856436,-7.15403,33,0.00716183,10,-0.000612697,-2.14545,1.37433,0.04293,-11.9697,0.0856436,
2,0,0,1,0,64225.6,0.0844974,0.0841937,-7.12559,33,0.00702744,10,-0.000599929,-2.14718,1.04967,0.0562081,-15.6149,0.0841937,
2,0,0,1,0,64225.7,0.0829938,0.082652,-7.09775,33,0.00689353,10,-0.000586644,-2.14888,0.829706,0.0711095,-19.6903,0.082652,
2,0,0,1,0,64225.7,0.0815045,0.0811956,-7.05965,33,0.00676165,10,-0.000573212,-2.15122,0.74906,0.0787654,-21.7136,0.0811956,
2,0,0,1,0,64225.7,0.080001,0.0796536,-7.0226,33,0.00662897,10,-0.000559376,-2.1535,0.779642,0.0756758,-20.7658,0.0796536,
2,0,0,1,0,64225.7,0.0785046,0.0781716,-6.99881,33,0.00649758,10,-0.000547108,-2.15498,0.757506,0.0778871,-21.2803,0.0781716,
2,0,0,1,0,64225.7,0.0770082,0.0766235,-6.96635,33,0.00636677,10,-0.000533786,-2.15699,0.663189,0.0889641,-24.1876,0.0766235,
2,0,0,1,0,64225.7,0.0755046,0.0751623,-6.93093,33,0.00623589,10,-0.000520945,-2.15921,0.653403,0.0902965,-24.4428,0.0751623,
2,0,0,1,0,64225.8,0.0740154,0.0736707,-6.90214,33,0.00610705,10,-0.000508485,-2.16102,0.678173,0.0869984,-23.4465,0.0736707,
2,0,0,1,0,64225.8,0.0725118,0.0721404,-6.88089,33,0.00597738,10,-0.00049639,-2.16236,0.733602,0.080425,-21.5624,0.0721404,
2,0,0,1,0,64225.8,0.0710083,0.0706706,-6.84997,33,0.00584823,10,-0.000484092,-2.16431,0.767618,0.0768611,-20.5215,0.0706706,
2,0,0,1,0,64225.8,0.0695208,0.0691907,-6.82272,33,0.00572099,10,-0.000472069,-2.16604,0.80471,0.0733183,-19.514,0.0691907,
2,0,0,1,0,64225.8,0.0680173,0.0677107,-6.795,33,0.00559294,10,-0.000460095,-2.16781,0.984294,0.0599414,-15.8955,0.0677107,
2,0,0,1,0,64225.9,0.0665137,0.0661347,-6.77377,33,0.00546529,10,-0.000447981,-2.16917,1.18358,0.0498488,-13.1717,0.0661347,
2,0,0,1,0,64225.9,0.0650244,0.0647001,-6.75139,33,0.00533939,10,-0.000436815,-2.17061,1.07696,0.0547839,-14.4196,0.0647001,
2,0,0,1,0,64225.9,0.0635209,0.0631588,-6.72602,33,0.00521255,10,-0.000424807,-2.17224,1.03698,0.0568959,-14.9324,0.0631588,
2,0,0,1,0,64225.9,0.0620245,0.0616818,-6.70115,33,0.00508687,10,-0.000413339,-2.17385,1.05629,0.0558557,-14.6088,0.0616818,
2,0,0,1,0,64225.9,0.0605281,0.0602111,-6.6731,33,0.00496165,10,-0.000401795,-2.17567,1.18447,0.0498113,-12.9746,0.0602111,
2,0,0,1,0,64226,0.0590246,0.058678,-6.65282,33,0.00483617,10,-0.000390374,-2.17699,1.10545,0.0533717,-13.8525,0.058678,
2,0,0,1,0,64226,0.0575353,0.0571463,-6.62969,33,0.00471241,10,-0.000378862,-2.17851,1.03883,0.0567948,-14.6909,0.0571463,
2,0,0,1,0,64226,0.0560317,0.0556878,-6.59811,33,0.00458785,10,-0.000367434,-2.18058,0.829572,0.071121,-18.3337,0.05568777,
2,0,0,1,0,64226,0.0545282,0.0541771,-6.57751,33,0.00446375,10,-0.000356351,-2.18194,0.929544,0.063472,-16.2998,0.0541771,
2,0,0,1,0,64226,0.0530407,0.0526604,-6.55548,33,0.00434138,10,-0.000345214,-2.1834,0.874276,0.0674844,-17.2649,0.0526604,
2,0,0,1,0,64226,0.0515372,0.0512033,-6.53214,33,0.00421817,10,-0.000334467,-2.18494,0.724995,0.0813799,-20.7297,0.0512033,
2,0,0,1,0,64226.1,0.0500336,0.0496841,-6.50203,33,0.00409545,10,-0.000323048,-2.18695,0.715901,0.0824137,-20.9144,0.0496841,
2,0,0,1,0,64226.1,0.0485444,0.0482366,-6.47947,33,0.00397458,10,-0.000312548,-2.18846,0.739732,0.0797587,-20.1541,0.04823656,
2,0,0,1,0,64226.1,0.0470408,0.0466564,-6.44809,33,0.00385292,10,-0.000300845,-2.19057,0.756649,0.0779754,-19.6122,0.0466564,
2,0,0,1,0,64226.1,0.0455444,0.0452075,-6.42395,33,0.00373243,10,-0.000290411,-2.1922,0.695567,0.0848229,-21.2356,0.0452075,
2,0,0,1,0,64226.1,0.044048,0.0437091,-6.3905,33,0.00361249,10,-0.000279323,-2.19446,0.740131,0.0797156,-19.8834,0.0437091,
2,0,0,1,0,64226.2,0.0425445,0.0421859,-6.35913,33,0.00349253,10,-0.000268266,-2.1966,0.751897,0.0784682,-19.4759,0.0421859,
2,0,0,1,0,64226.2,0.0410552,0.0407277,-6.32887,33,0.00337439,10,-0.00025776,-2.19867,0.767014,0.0769217,-18.9946,0.0407277,
2,0,0,1,0,64226.2,0.0395516,0.0392038,-6.30029,33,0.00325554,10,-0.000246996,-2.20064,0.750165,0.0786494,-19.3239,0.03920383,
2,0,0,1,0,64226.2,0.0380481,0.0376663,-6.26376,33,0.00313729,10,-0.000235933,-2.20316,0.643893,0.0916302,-22.3889,0.0376663,
2,0,0,1,0,64226.2,0.0365606,0.0362054,-6.22494,33,0.00302095,10,-0.000225377,-2.20586,0.668087,0.0883118,-21.4581,0.0362054,
2,0,0,1,0,64226.3,0.0350571,0.0346835,-6.18484,33,0.00290404,10,-0.000214512,-2.20867,0.650317,0.0907249,-21.9111,0.03468354,
2,0,0,1,0,64226.3,0.0335535,0.0332128,-6.15529,33,0.00278775,10,-0.000204434,-2.21075,0.625348,0.0943475,-22.6635,0.0332128,
2,0,0,1,0,64226.3,0.0320643,0.0317165,-6.11552,33,0.0026734,10,-0.000193963,-2.21357,0.509787,0.115735,-27.6169,0.0317165,
2,0,0,1,0,64226.3,0.0305607,0.0302147,-6.07051,33,0.00255857,10,-0.000183419,-2.21677,0.503892,0.117088,-27.7686,0.0302147,
2,0,0,1,0,64226.3,0.0290643,0.0287009,-6.0351,33,0.00244512,10,-0.000173213,-2.21932,0.539503,0.10936,-25.7694,0.0287009,
2,0,0,1,0,64226.3,0.0275679,0.0272228,-5.99908,33,0.00233239,10,-0.000163312,-2.22192,0.470116,0.125501,-29.3744,0.0272228,
2,0,0,1,0,64226.4,0.0260644,0.0257657,-5.95966,33,0.0022198,10,-0.000153555,-2.22478,0.462517,0.127563,-29.6533,0.0257657,
2,0,0,1,0,64226.4,0.0245751,0.0241882,-5.91696,33,0.00210919,10,-0.000143121,-2.2279,0.457623,0.128927,-29.7462,0.0241882,
2,0,0,1,0,64226.4,0.0230716,0.0227042,-5.87512,33,0.00199823,10,-0.00013339,-2.23098,0.478769,0.123233,-28.2477,0.0227042,
2,0,0,1,0,64226.4,0.021568,0.021229,-5.8344,33,0.00188804,10,-0.000123859,-2.234,0.486077,0.12138,-27.6141,0.021229,
2,0,0,1,0,64226.4,0.0200805,0.0197344,-5.79108,33,0.00177981,10,-0.000114284,-2.23724,0.463037,0.12742,-28.794,0.0197344,
2,0,0,1,0,64226.5,0.018577,0.0182422,-5.74977,33,0.00167119,10,-0.000104888,-2.24035,0.496491,0.118834,-26.6409,0.0182422,
2,0,0,1,0,64226.5,0.0170735,0.0167653,-5.70488,33,0.00156339,10,-9.56442e-05,-2.24375,0.525601,0.112253,-24.9953,0.0167653,
2,0,0,1,0,64226.5,0.0155842,0.0152707,-5.66634,33,0.0014575,10,-8.6529e-05,-2.2467,0.570883,0.103349,-22.8469,0.0152707,
2,0,0,1,0,64226.5,0.0140806,0.0137417,-5.62419,33,0.00135118,10,-7.72858e-05,-2.24994,0.532665,0.110764,-24.3093,0.0137417,
2,0,0,1,0,64226.5,0.0125842,0.0121828,-5.58721,33,0.00124613,10,-6.80679e-05,-2.2528,0.499002,0.118236,-25.7756,0.0121828,
2,0,0,1,0,64226.6,0.0110878,0.0107474,-5.54391,33,0.00114188,10,-5.95824e-05,-2.25618,0.526288,0.112106,-24.292,0.0107474,
2,0,0,1,0,64226.6,0.00958429,0.00927287,-5.50535,33,0.00103775,10,-5.10504e-05,-2.25922,0.547167,0.107828,-23.1912,0.00927287,
2,0,0,1,0,64226.6,0.0080968,0.00772509,-5.47385,33,0.00093533,10,-4.2286e-05,-2.26171,0.54863,0.107541,-23.0023,0.007725093,
2,0,0,1,0,64226.6,0.00659326,0.00624992,-5.44007,33,0.000832474,10,-3.4e-05,-2.2644,0.548515,0.107563,-22.8667,0.00624992,
2,0,0,1,0,64226.6,0.00508972,0.0047744,-5.40709,33,0.00073023,10,-2.58156e-05,-2.26704,0.562363,0.104914,-22.1774,0.0047744,
2,0,0,1,0,64226.6,0.00360044,0.00323412,-5.38355,33,0.000629637,10,-1.74111e-05,-2.26893,0.981258,0.0601269,-12.671,0.00323412,
2,0,0,1,0,64226.7,0.0020969,0.00171975,-5.39531,33,0.000528368,10,-9.27856e-06,-2.26798,0.835397,0.0706251,-14.794,0.001719746,
2,0,0,1,0,64226.7,0.000593362,0.000182195,-5.35404,33,0.000427185,10,-9.75477e-07,-2.27132, , , ,0.000182195,
2,0,0,1,0,64226.7,0.000199195,-0.000208891,-5.33833,33,0.000400935,10,1.11513e-06,-2.27259, , , ,-0.0002088909,