File: Figure_codes/Fig_3-5/rawdata_trumpetplot_data/after 10th/20221101_1-115_003_TrumpetPlot_ParaChange_from10_every3_04_CV_C01_28.csv
mode,ox/red,error,control changes,counter inc.,time/s,control/V,Ewe/V,<I>/mA,cycle number,(Q-Qo)/C,I Range,P/W,log(|I|),Tafel slope mV/dec,alpha_eff,dI/d(E-IR),E-IR/V,
2,0,0,1,0,56223.7,2.44065e-05,-0.000344411,-0.395149,29,0.0000000E+000,10,1.36094e-07,-3.40324, , , ,-0.000344411,
2,1,0,1,0,56223.8,0.00129787,0.000923835,0.0794958,29,-8.56455e-06,10,7.3441e-08,-4.09966, , , ,0.000923835,
2,1,0,1,0,56223.9,0.00279606,0.00246991,0.227535,29,1.83312e-05,10,5.61991e-07,-3.64295,0.0036439,16.1915,76.3241,0.00246991,
2,1,0,1,0,56224.1,0.00429425,0.00396826,0.275988,29,5.84496e-05,10,1.09519e-06,-3.55911,0.0188031,3.13778,30.8968,0.00396826,
2,1,0,1,0,56224.2,0.00579244,0.00542632,0.307463,29,0.000104543,10,1.66839e-06,-3.51221,0.0358914,1.64385,19.2657,0.00542632,
2,1,0,1,0,56224.4,0.00729063,0.00697664,0.333493,29,0.000154737,10,2.32666e-06,-3.47691,0.0507225,1.16319,14.9121,0.00697664,
2,1,0,1,0,56224.5,0.00878882,0.00840712,0.353979,29,0.000208333,10,2.97594e-06,-3.45102,0.0676662,0.871927,11.9157,0.00840712,
2,1,0,1,0,56224.7,0.010287,0.00991078,0.369026,29,0.000264584,10,3.65733e-06,-3.43294,0.0862486,0.684069,9.79357,0.00991078,
2,1,0,1,0,56224.8,0.0117852,0.0114462,0.383215,29,0.000323097,10,4.38638e-06,-3.41656,0.0953609,0.618702,9.25329,0.0114462,
2,1,0,1,0,56225,0.0132838,0.0128984,0.396275,29,0.000383582,10,5.11133e-06,-3.402,0.102351,0.576451,8.95409,0.0128984,
2,1,0,1,0,56225.1,0.0147814,0.0144192,0.409259,29,0.00044608,10,5.90117e-06,-3.388,0.111722,0.528096,8.43285,0.0144192,
2,1,0,1,0,56225.3,0.0162789,0.0159394,0.421338,29,0.000510513,10,6.71587e-06,-3.37537,0.131207,0.449673,7.37242,0.01593937,
2,1,0,1,0,56225.4,0.017778,0.0173686,0.433074,29,0.000576626,10,7.52189e-06,-3.36344,0.134293,0.439337,7.41931,0.0173686,
2,1,0,1,0,56225.6,0.0192761,0.0189094,0.441778,29,0.000643997,10,8.35375e-06,-3.3548,0.146205,0.403542,6.97696,0.0189094,
2,1,0,1,0,56225.7,0.0207743,0.0204332,0.452914,29,0.000713131,10,9.25448e-06,-3.34398,0.141659,0.416493,7.33497,0.0204332,
2,1,0,1,0,56225.9,0.0222725,0.0219178,0.463862,29,0.000783866,10,1.01668e-05,-3.33361,0.163579,0.360683,6.51518,0.0219178,
2,1,0,1,0,56226,0.0237707,0.0234151,0.474404,29,0.000856107,10,1.11082e-05,-3.32385,0.174366,0.33837,6.25289,0.0234151,
2,1,0,1,0,56226.2,0.0252689,0.0249452,0.482048,29,0.000929629,10,1.20248e-05,-3.31691,0.165871,0.355698,6.71822,0.02494522,
2,1,0,1,0,56226.3,0.0267671,0.0264372,0.49405,29,0.00100484,10,1.30613e-05,-3.30623,0.152247,0.387527,7.45954,0.0264372,
2,1,0,1,0,56226.5,0.0282662,0.0278955,0.504461,29,0.00108172,10,1.40722e-05,-3.29717,0.169659,0.347755,6.83898,0.0278955,
2,1,0,1,0,56226.6,0.0297635,0.0294105,0.514114,29,0.00116013,10,1.51204e-05,-3.28894,0.182203,0.323815,6.49432,0.0294105,
2,1,0,1,0,56226.8,0.031261,0.0308817,0.520808,29,0.00123985,10,1.60834e-05,-3.28332,0.188931,0.312284,6.38087,0.0308817,
2,1,0,1,0,56226.9,0.0327599,0.0324052,0.534812,29,0.00132102,10,1.73307e-05,-3.2718,0.178705,0.330152,6.88151,0.0324052,
2,1,0,1,0,56227.1,0.034258,0.0338622,0.544223,29,0.00140372,10,1.84286e-05,-3.26422,0.18487,0.319144,6.75611,0.0338622,
2,1,0,1,0,56227.2,0.0357562,0.0353976,0.555374,29,0.00148802,10,1.96589e-05,-3.25541,0.20469,0.28824,6.21413,0.0353976,
2,1,0,1,0,56227.4,0.0372544,0.0368483,0.562647,29,0.00157372,10,2.07326e-05,-3.24976,0.209747,0.281292,6.18713,0.0368483,
2,1,0,1,0,56227.5,0.0387526,0.0384113,0.572323,29,0.00166068,10,2.19837e-05,-3.24236,0.204227,0.288895,6.47759,0.0384113,
2,1,0,1,0,56227.7,0.0402508,0.0399076,0.581337,29,0.00174916,10,2.31997e-05,-3.23557,0.202582,0.291239,6.61292,0.03990756,
2,1,0,1,0,56227.8,0.041749,0.0413932,0.593857,29,0.00183925,10,2.45816e-05,-3.22632,0.226556,0.260421,6.00568,0.0413932,
2,1,0,1,0,56228,0.0432472,0.0428968,0.602987,29,0.00193074,10,2.58662e-05,-3.21969,0.223156,0.264389,6.19792,0.0428968,
2,1,0,1,0,56228.1,0.0447458,0.0444166,0.610421,29,0.00202344,10,2.71128e-05,-3.21437,0.223516,0.263963,6.29829,0.0444166,
2,1,0,1,0,56228.3,0.0462433,0.0458935,0.620672,29,0.00211762,10,2.84848e-05,-3.20714,0.192856,0.305928,7.38781,0.04589355,
2,1,0,1,0,56228.4,0.0477409,0.0474069,0.630566,29,0.00221336,10,2.98932e-05,-3.20027,0.216583,0.272412,6.70011,0.04740686,
2,1,0,1,0,56228.6,0.0492399,0.0488828,0.639071,29,0.00231055,10,3.12396e-05,-3.19445,0.260552,0.226442,5.64316,0.0488828,
2,1,0,1,0,56228.7,0.0507381,0.0504257,0.644648,29,0.0024088,10,3.25069e-05,-3.19068,0.266721,0.221205,5.59792,0.0504257,
2,1,0,1,0,56228.9,0.0522363,0.0519103,0.654681,29,0.00250835,10,3.39847e-05,-3.18397,0.226997,0.259915,6.64391,0.0519103,
2,1,0,1,0,56229,0.0537345,0.0533832,0.666995,29,0.00260931,10,3.56063e-05,-3.17588,0.277048,0.21296,5.52009,0.0533832,
2,1,0,1,0,56229.2,0.0552327,0.0548561,0.674,29,0.00271165,10,3.6973e-05,-3.17134,0.311353,0.189496,4.96778,0.0548561,
2,1,0,1,0,56229.3,0.0567309,0.0563767,0.680092,29,0.00281503,10,3.83414e-05,-3.16743,0.328926,0.179372,4.76858,0.0563767,
2,1,0,1,0,56229.5,0.0582291,0.0578613,0.688108,29,0.00291944,10,3.98148e-05,-3.16234,0.3305,0.178517,4.79705,0.0578613,
2,1,0,1,0,56229.6,0.0597282,0.059386,0.696956,29,0.00302516,10,4.13895e-05,-3.15679,0.301445,0.195724,5.315,0.059386,
2,1,0,1,0,56229.8,0.0612255,0.060864,0.704251,29,0.00313206,10,4.28636e-05,-3.15227,0.364181,0.162007,4.43774,0.060864,
2,1,0,1,0,56229.9,0.062723,0.0624057,0.709623,29,0.00324004,10,4.42845e-05,-3.14897,0.356273,0.165603,4.59374,0.0624057,
2,1,0,1,0,56230.1,0.0642218,0.0638929,0.717262,29,0.00334891,10,4.58279e-05,-3.14432,0.339885,0.173588,4.86356,0.0638929,
2,1,0,1,0,56230.2,0.06572,0.0653806,0.724891,29,0.00345888,10,4.73939e-05,-3.13973,0.322867,0.182738,5.16541,0.06538064,
2,1,0,1,0,56230.4,0.0672182,0.0668917,0.731358,29,0.00357006,10,4.89218e-05,-3.13587,0.367439,0.160571,4.58003,0.0668917,
2,1,0,1,0,56230.5,0.0687164,0.0683986,0.737418,29,0.00368222,10,5.04383e-05,-3.13229,0.438079,0.134679,3.87665,0.06839855,
2,1,0,1,0,56230.7,0.0702146,0.0698566,0.742212,29,0.00379509,10,5.18484e-05,-3.12947,0.442341,0.133381,3.86893,0.0698566,
2,1,0,1,0,56230.8,0.0717128,0.0713475,0.749025,29,0.00390889,10,5.34411e-05,-3.1255,0.400734,0.14723,4.29931,0.0713475,
2,1,0,1,0,56231,0.073211,0.0728321,0.755182,29,0.00402373,10,5.50015e-05,-3.12195,0.412248,0.143118,4.21424,0.0728321,
2,1,0,1,0,56231.1,0.0747092,0.0743135,0.7606,29,0.00413941,10,5.65229e-05,-3.11884,0.535876,0.1101,3.26753,0.0743135,
2,1,0,1,0,56231.3,0.0762078,0.0758101,0.764512,29,0.00425584,10,5.79577e-05,-3.11662,0.511162,0.115423,3.45225,0.0758101,
2,1,0,1,0,56231.4,0.0777053,0.0773533,0.77061,29,0.00437292,10,5.96092e-05,-3.11317,0.41866,0.140926,4.23969,0.0773533,
2,1,0,1,0,56231.6,0.0792029,0.0787994,0.777727,29,0.00449099,10,6.12845e-05,-3.10917,0.440593,0.13391,4.06086,0.0787994,
2,1,0,1,0,56231.7,0.0807019,0.0803377,0.782664,29,0.00460996,10,6.28774e-05,-3.10642,0.598006,0.0986612,3.00638,0.0803377,
2,1,0,1,0,56231.9,0.0822001,0.0818169,0.78618,29,0.00472965,10,6.43229e-05,-3.10448,0.486129,0.121367,3.72734,0.0818169,
2,1,0,1,0,56232,0.0836983,0.0833566,0.79244,29,0.00484986,10,6.60552e-05,-3.10103,0.460645,0.128081,3.97011,0.0833566,
2,1,0,1,0,56232.2,0.0851965,0.0848603,0.798047,29,0.00497115,10,6.77225e-05,-3.09797,0.395921,0.14902,4.65028,0.08486031,
2,1,0,1,0,56232.3,0.0866947,0.086312,0.805444,29,0.0050934,10,6.95195e-05,-3.09396,0.543473,0.108561,3.40858,0.086312,
2,1,0,1,0,56232.5,0.0881929,0.0878453,0.813117,29,0.00521663,10,7.14286e-05,-3.08985,0.351804,0.167707,5.32499,0.0878453,
2,1,0,1,0,56232.6,0.0896911,0.0892875,0.819221,29,0.00534065,10,7.31462e-05,-3.0866,0.344429,0.171298,5.48507,0.0892875,
2,1,0,1,0,56232.8,0.0911902,0.0907911,0.829454,29,0.00546621,10,7.5307e-05,-3.08121,0.289344,0.20391,6.58814,0.0907911,
2,1,0,1,0,56232.9,0.0926875,0.0922748,0.838777,29,0.00559317,10,7.7398e-05,-3.07635,0.279782,0.210879,6.90031,0.0922748,
2,1,0,1,0,56233.1,0.094185,0.093806,0.849274,29,0.0057216,10,7.96671e-05,-3.07095,0.286537,0.205907,6.82864,0.093806,
2,1,0,1,0,56233.2,0.0956838,0.0953297,0.858246,29,0.00585156,10,8.18164e-05,-3.06639,0.240387,0.245437,8.25124,0.0953297,
2,1,0,1,0,56233.4,0.097182,0.0968164,0.872704,29,0.0059833,10,8.44921e-05,-3.05913,0.216779,0.272166,9.26904,0.0968164,
2,1,0,1,0,56233.5,0.0986802,0.0982935,0.88541,29,0.00611708,10,8.70301e-05,-3.05286,0.225482,0.261661,9.05328,0.0982935,
2,1,0,1,0,56233.7,0.100178,0.099829,0.899841,29,0.00625297,10,8.98303e-05,-3.04583,0.228862,0.257798,9.05796,0.099829,
2,1,0,1,0,56233.8,0.101677,0.101316,0.911369,29,0.00639082,10,9.2336e-05,-3.04031,0.216336,0.272724,9.73543,0.101316,
2,1,0,1,0,56234,0.103175,0.102856,0.929382,29,0.00653088,10,9.55929e-05,-3.03181,0.194946,0.302648,10.9901,0.102856,
2,1,0,1,0,56234.1,0.104673,0.104298,0.946946,29,0.00667341,10,9.87642e-05,-3.02367,0.203095,0.290505,10.7076,0.104298,
2,1,0,1,0,56234.3,0.106171,0.105802,0.963451,29,0.00681857,10,0.000101935,-3.01617,0.223125,0.264426,9.90969,0.105802,
2,1,0,1,0,56234.4,0.10767,0.1073,0.977177,29,0.00696598,10,0.000104851,-3.01003,0.232192,0.2541,9.6861,0.1073,
2,1,0,1,0,56234.6,0.109167,0.108805,0.990997,29,0.00711541,10,0.000107825,-3.00393,0.225145,0.262053,10.1509,0.108805,
2,1,0,1,0,56234.7,0.110665,0.110298,1.00562,29,0.00726714,10,0.000110917,-2.99757,0.24511,0.240708,9.44348,0.110298,
2,1,0,1,0,56234.9,0.112164,0.111795,1.02045,29,0.00742126,10,0.000114081,-2.99121,0.267263,0.220756,8.77381,0.111795,
2,1,0,1,0,56235,0.113662,0.113268,1.03313,29,0.00757709,10,0.00011702,-2.98585,0.328641,0.179527,7.22622,0.113268,
2,1,0,1,0,56235.2,0.11516,0.11476,1.0426,29,0.00773443,10,0.000119648,-2.98188,0.333137,0.177104,7.20425,0.11476,
2,1,0,1,0,56235.3,0.116658,0.116279,1.05212,29,0.00789337,10,0.000122339,-2.97794,0.347966,0.169557,6.94469,0.1162791,
2,1,0,1,0,56235.5,0.118157,0.11784,1.06139,29,0.00805399,10,0.000125074,-2.97413,0.465649,0.126705,5.2467,0.11784,
2,1,0,1,0,56235.6,0.119655,0.11925,1.06851,29,0.00821565,10,0.00012742,-2.97122,0.668355,0.0882765,3.68369,0.11925,
2,1,0,1,0,56235.8,0.121153,0.120779,1.0736,29,0.00837815,10,0.000129668,-2.96916,0.652932,0.0903616,3.79395,0.120779,
2,1,0,1,0,56235.9,0.122652,0.12225,1.0807,29,0.00854164,10,0.000132116,-2.96629,0.549709,0.107329,4.52311,0.12225,
2,1,0,1,0,56236.1,0.124149,0.123767,1.0876,29,0.00870603,10,0.000134609,-2.96353,0.604739,0.0975628,4.13567,0.1237668,
2,1,0,1,0,56236.2,0.125647,0.125265,1.09262,29,0.0088712,10,0.000136867,-2.96153,0.882628,0.0668458,2.84061,0.1252653,
2,1,0,1,0,56236.4,0.127146,0.126718,1.0915,29,0.00903715,10,0.000138312,-2.96198,0.9955,0.0592667,2.53009,0.126718,
2,1,0,1,0,56236.5,0.128644,0.128274,1.09732,29,0.00920331,10,0.000140758,-2.95967,1.52515,0.0386848,1.6571,0.1282744,
2,1,0,1,0,56236.7,0.130142,0.12979,1.10285,29,0.00937011,10,0.000143138,-2.95748,1.95449,0.0301869,1.29518,0.12979,
2,1,0,1,0,56236.8,0.13164,0.131228,1.10121,29,0.00953725,10,0.000144509,-2.95813,-1.93242,-0.0305317,-1.30774,0.131228,
2,1,0,1,0,56237,0.133139,0.132766,1.10053,29,0.00970425,10,0.000146113,-2.9584,-1.00532,-0.0586877,-2.51593,0.132766,
2,1,0,1,0,56237.1,0.134637,0.134266,1.09335,29,0.00987046,10,0.0001468,-2.96124,-0.551747,-0.106933,-4.55629,0.134266,
2,1,0,1,0,56237.3,0.136135,0.135729,1.08696,29,0.0100359,10,0.000147532,-2.96379,-0.362518,-0.162751,-6.87604,0.135729,
2,1,0,1,0,56237.4,0.137633,0.137287,1.0746,29,0.0101997,10,0.000147529,-2.96875,-0.245226,-0.240595,-10.0337,0.1372868,
2,1,0,1,0,56237.6,0.139132,0.138785,1.05709,29,0.0103613,10,0.000146707,-2.97589,-0.181461,-0.325138,-13.3261,0.1387845,
2,1,0,1,0,56237.7,0.140629,0.140256,1.03259,29,0.0105197,10,0.000144827,-2.98607,-0.143303,-0.411714,-16.5156,0.140256,
2,1,0,1,0,56237.9,0.142127,0.141778,1.00591,29,0.0106744,10,0.000142615,-2.99744,-0.120615,-0.489159,-19.1116,0.1417775,
2,1,0,1,0,56238,0.143626,0.143235,0.974649,29,0.010825,10,0.000139603,-3.01115,-0.0997449,-0.591509,-22.3927,0.143235,
2,1,0,1,0,56238.2,0.145124,0.144769,0.938351,29,0.0109703,10,0.000135844,-3.02763,-0.0867206,-0.680346,-24.8774,0.144769,
2,1,0,1,0,56238.3,0.146622,0.146265,0.899417,29,0.0111101,10,0.000131554,-3.04604,-0.0831979,-0.709152,-24.9157,0.146265,
2,1,0,1,0,56238.5,0.14812,0.147775,0.864492,29,0.0112441,10,0.00012775,-3.06324,-0.08086,-0.729656,-24.5834,0.147775,
2,1,0,1,0,56238.6,0.149619,0.149255,0.826721,29,0.0113727,10,0.000123392,-3.08264,-0.0773476,-0.76279,-24.6007,0.149255,
2,1,0,1,0,56238.8,0.151117,0.150739,0.790971,29,0.0114957,10,0.00011923,-3.10184,-0.0764387,-0.77186,-23.8247,0.150739,
2,1,0,1,0,56238.9,0.152615,0.152251,0.75528,29,0.0116134,10,0.000114992,-3.12189,-0.0829077,-0.711635,-21.056,0.152251,
2,1,0,1,0,56239.1,0.154114,0.153771,0.726303,29,0.0117263,10,0.000111684,-3.13888,-0.0929289,-0.634894,-18.1,0.153771,
2,1,0,1,0,56239.2,0.155612,0.155232,0.700595,29,0.0118351,10,0.000108755,-3.15453,-0.102351,-0.576448,-15.7973,0.155232,
2,1,0,1,0,56239.4,0.157109,0.156731,0.677788,29,0.0119403,10,0.00010623,-3.16891,-0.109333,-0.539638,-14.3246,0.156731,
2,1,0,1,0,56239.5,0.158608,0.158256,0.657619,29,0.0120424,10,0.000104072,-3.18203,-0.122916,-0.480004,-12.3529,0.158256,
2,1,0,1,0,56239.7,0.160106,0.15977,0.638618,29,0.0121414,10,0.000102032,-3.19476,-0.134604,-0.438324,-10.982,0.15977,
2,1,0,1,0,56239.8,0.161604,0.161257,0.625644,29,0.0122383,10,0.00010089,-3.20367,-0.167386,-0.352479,-8.63046,0.1612573,
2,1,0,1,0,56240,0.163102,0.162765,0.613762,29,0.0123331,10,9.98992e-05,-3.212,-0.1756,-0.335991,-8.04872,0.162765,
2,1,0,1,0,56240.1,0.164601,0.164217,0.601887,29,0.0124261,10,9.884e-05,-3.22049,-0.201998,-0.292081,-6.88037,0.164217,
2,1,0,1,0,56240.3,0.166099,0.165763,0.592597,29,0.0125174,10,9.82306e-05,-3.22724,-0.226303,-0.260712,-6.04962,0.165763,
2,1,0,1,0,56240.4,0.167597,0.16724,0.58452,29,0.0126076,10,9.77552e-05,-3.2332,-0.302362,-0.19513,-4.46068,0.16724,
2,1,0,1,0,56240.6,0.169095,0.168729,0.580046,29,0.0126968,10,9.78705e-05,-3.23654,-0.291445,-0.202439,-4.57815,0.168729,
2,1,0,1,0,56240.7,0.170594,0.170261,0.572883,29,0.012785,10,9.75394e-05,-3.24193,-0.326391,-0.180765,-4.04871,0.170261,
2,1,0,1,0,56240.9,0.172091,0.171726,0.565413,29,0.0128721,10,9.70964e-05,-3.24763,-0.390401,-0.151127,-3.34349,0.171726,
2,1,0,1,0,56241,0.173589,0.173242,0.561846,29,0.0129586,10,9.73355e-05,-3.25038,-0.442772,-0.133251,-2.92304,0.173242,
2,1,0,1,0,56241.2,0.175088,0.174723,0.558828,29,0.0130445,10,9.76404e-05,-3.25272,-0.475959,-0.12396,-2.70178,0.174723,
2,1,0,1,0,56241.3,0.176586,0.176206,0.554105,29,0.0131297,10,9.76366e-05,-3.25641,-0.520964,-0.113252,-2.44749,0.176206,
2,1,0,1,0,56241.5,0.178084,0.177649,0.548917,29,0.0132143,10,9.75145e-05,-3.26049,-0.478269,-0.123361,-2.64874,0.177649,
2,1,0,1,0,56241.6,0.179582,0.179186,0.547347,29,0.0132984,10,9.80767e-05,-3.26174,-0.885067,-0.0666616,-1.42774,0.179186,
2,1,0,1,0,56241.8,0.181081,0.180738,0.546178,29,0.013382,10,9.87152e-05,-3.26267,-0.753191,-0.0783334,-1.6645,0.180738,
2,1,0,1,0,56241.9,0.182579,0.182211,0.541576,29,0.0134654,10,9.8681e-05,-3.26634,-0.483283,-0.122082,-2.58187,0.182211,
2,1,0,1,0,56242.1,0.184077,0.183729,0.539571,29,0.0135483,10,9.9135e-05,-3.26795,-0.747191,-0.0789624,-1.66232,0.183729,
2,1,0,1,0,56242.2,0.185576,0.185248,0.537301,29,0.0136308,10,9.95339e-05,-3.26978,-1.4276,-0.0413282,-0.867642,0.185248,
2,1,0,1,0,56242.4,0.187074,0.186748,0.536199,29,0.013713,10,0.000100134,-3.27067,-1.02224,-0.0577163,-1.20511,0.186748,
2,1,0,1,0,56242.5,0.188571,0.188193,0.533362,29,0.013795,10,0.000100375,-3.27298,-1.29376,-0.0456035,-0.950059,0.188193,
2,1,0,1,0,56242.7,0.19007,0.189712,0.532456,29,0.0138768,10,0.000101013,-3.27372,-0.949565,-0.0621337,-1.28899,0.189712,
2,1,0,1,0,56242.8,0.191568,0.19122,0.528941,29,0.0139581,10,0.000101144,-3.27659,-1.42769,-0.0413255,-0.856828,0.19122,
2,1,0,1,0,56243,0.193066,0.192708,0.527654,29,0.0140393,10,0.000101683,-3.27765,-3.32483,-0.0177453,-0.365712,0.192708,
2,1,0,1,0,56243.1,0.194564,0.194175,0.527247,29,0.0141203,10,0.000102379,-3.27799,-1.11751,-0.0527961,-1.08842,0.194175,
2,1,0,1,0,56243.3,0.196063,0.195718,0.526043,29,0.0142012,10,0.000102956,-3.27898,-0.781732,-0.0754734,-1.54989,0.195718,
2,1,0,1,0,56243.4,0.197561,0.197205,0.523523,29,0.0142817,10,0.000103241,-3.28106,-1.34234,-0.0439531,-0.902333,0.197205,
2,1,0,1,0,56243.6,0.199059,0.198684,0.523879,29,0.014362,10,0.000104087,-3.28077,-1.04607,-0.0564016,-1.15358,0.198684,
2,1,0,1,0,56243.7,0.200557,0.200185,0.522235,29,0.0144422,10,0.000104543,-3.28213,-1.75164,-0.0336828,-0.686235,0.200185,
2,1,0,1,0,56243.9,0.202056,0.201717,0.522592,29,0.0145224,10,0.000105416,-3.28184,-1.29726,-0.0454805,-0.924618,0.201717,
2,1,0,1,0,56244,0.203553,0.203216,0.51933,29,0.0146023,10,0.000105536,-3.28456,-2.22413,-0.0265272,-0.539334,0.203216,
2,1,0,1,0,56244.2,0.205051,0.204677,0.519759,29,0.0146819,10,0.000106383,-3.2842,2.04359,0.0288708,0.588319,0.204677,
2,1,0,1,0,56244.3,0.20655,0.20619,0.518717,29,0.0147616,10,0.000106954,-3.28507,-1.52857,-0.0385981,-0.78102,0.2061899,
2,1,0,1,0,56244.5,0.208048,0.207709,0.517984,29,0.0148413,10,0.00010759,-3.28568,-1.23639,-0.0477196,-0.96278,0.207709,
2,1,0,1,0,56244.6,0.209546,0.209229,0.517,29,0.0149207,10,0.000108171,-3.28651,-0.980564,-0.0601694,-1.21598,0.209229,
2,1,0,1,0,56244.8,0.211044,0.210731,0.515378,29,0.0149999,10,0.000108606,-3.28787,-2.57541,-0.022909,-0.460983,0.210731,
2,1,0,1,0,56244.9,0.212543,0.212177,0.515281,29,0.0150789,10,0.000109331,-3.28796,-1.56308,-0.037746,-0.757781,0.212177,
2,1,0,1,0,56245.1,0.214041,0.213701,0.514197,29,0.0151579,10,0.000109884,-3.28887,-2.00753,-0.0293893,-0.589206,0.213701,
2,1,0,1,0,56245.2,0.215539,0.215174,0.514253,29,0.0152368,10,0.000110654,-3.28882,-3.54221,-0.0166563,-0.334074,0.215174,
2,1,0,1,0,56245.4,0.217038,0.216676,0.511886,29,0.0153154,10,0.000110913,-3.29083,-2.63876,-0.022359,-0.448055,0.216676,
2,1,0,1,0,56245.5,0.218535,0.218148,0.512788,29,0.015394,10,0.000111864,-3.29006,6.9596,0.0084775,0.169441,0.218148,
2,1,0,1,0,56245.7,0.220033,0.219665,0.512058,29,0.0154726,10,0.000112481,-3.29068,-5.14769,-0.0114614,-0.228871,0.2196646,
2,1,0,1,0,56245.8,0.221532,0.221209,0.510728,29,0.0155512,10,0.000112978,-3.29181,-1.87396,-0.0314841,-0.627695,0.221209,
2,1,0,1,0,56246,0.22303,0.222652,0.5067,29,0.0156295,10,0.000112818,-3.29525,-1.75721,-0.0335759,-0.667708,0.222652,
2,1,0,1,0,56246.1,0.224528,0.224186,0.509153,29,0.0157076,10,0.000114145,-3.29315,-2.4242,-0.024338,-0.483816,0.224186,
2,1,0,1,0,56246.3,0.226026,0.225666,0.50847,29,0.0157858,10,0.000114745,-3.29373,-1.9215,-0.0307051,-0.607342,0.225666,
2,1,0,1,0,56246.4,0.227524,0.227176,0.507504,29,0.0158639,10,0.000115293,-3.29456,-1.06361,-0.0554716,-1.09981,0.227176,
2,1,0,1,0,56246.6,0.229023,0.228622,0.506308,29,0.0159417,10,0.000115753,-3.29558,-1.29681,-0.0454962,-0.900943,0.228622,
2,1,0,1,0,56246.7,0.230521,0.23015,0.506247,29,0.0160194,10,0.000116513,-3.29564,7.18467,0.00821193,0.162785,0.23015,
2,1,0,1,0,56246.9,0.232019,0.231663,0.506241,29,0.0160971,10,0.000117277,-3.29564,-2.21524,-0.0266337,-0.526104,0.231663,
2,1,0,1,0,56247,0.233518,0.233153,0.506611,29,0.0161749,10,0.000118118,-3.29533,-3.56681,-0.0165414,-0.325861,0.233153,
2,1,0,1,0,56247.2,0.235015,0.234667,0.50549,29,0.0162525,10,0.000118622,-3.29629,-2.72764,-0.0216304,-0.425962,0.234667,
2,1,0,1,0,56247.3,0.236513,0.236168,0.504207,29,0.0163298,10,0.000119078,-3.29739,-10.9705,-0.00537805,-0.105894,0.236168,
2,1,0,1,0,56247.5,0.238012,0.237641,0.503158,29,0.0164072,10,0.000119571,-3.2983,9.57333,0.00616295,0.120885,0.2376405,
2,1,0,1,0,56247.6,0.23951,0.239155,0.50327,29,0.0164845,10,0.000120359,-3.2982,-5.36981,-0.0109874,-0.216203,0.239155,
2,1,0,1,0,56247.8,0.241008,0.240658,0.502781,29,0.0165618,10,0.000120998,-3.29862,-1.7157,-0.0343882,-0.67483,0.240658,
2,1,0,1,0,56247.9,0.242506,0.242165,0.501441,29,0.0166388,10,0.000121432,-3.29978,-2.97991,-0.0197992,-0.38835,0.242165,
2,1,0,1,0,56248.1,0.244005,0.243694,0.500793,29,0.0167158,10,0.00012204,-3.30034,-4.76589,-0.0123796,-0.242069,0.243694,
2,1,0,1,0,56248.2,0.245503,0.245186,0.502539,29,0.0167929,10,0.000123216,-3.29883,-3.65014,-0.0161638,-0.316156,0.245186,
2,1,0,1,0,56248.4,0.247001,0.246648,0.500614,29,0.0168698,10,0.000123475,-3.3005,-2.68892,-0.0219419,-0.428486,0.246648,
2,1,0,1,0,56248.5,0.2485,0.248165,0.49956,29,0.0169466,10,0.000123973,-3.30141,-1.72321,-0.0342385,-0.668287,0.248165,
2,1,0,1,0,56248.7,0.249997,0.249649,0.499912,29,0.0170232,10,0.000124802,-3.30111,-8.40247,-0.00702175,-0.136663,0.249649,
2,1,0,1,0,56248.8,0.251495,0.25114,0.499374,29,0.0170998,10,0.000125413,-3.30157,-4.74812,-0.012426,-0.241908,0.25114,
2,1,0,1,0,56249,0.252994,0.252621,0.497504,29,0.0171764,10,0.00012568,-3.3032,-0.96541,-0.0611139,-1.18451,0.252621,
2,1,0,1,0,56249.1,0.254492,0.25413,0.496965,29,0.0172527,10,0.000126294,-3.30367,-1.16601,-0.0505999,-0.983714,0.25413,
2,1,0,1,0,56249.3,0.25599,0.255632,0.495649,29,0.0173289,10,0.000126704,-3.30483,32.3258,0.00182517,0.0353744,0.2556324,
2,1,0,1,0,56249.4,0.257488,0.257129,0.496188,29,0.0174051,10,0.000127584,-3.30435,-2.62283,-0.0224948,-0.435476,0.257129,
2,1,0,1,0,56249.6,0.258987,0.258673,0.496482,29,0.0174813,10,0.000128426,-3.3041,-5.32416,-0.0110816,-0.214112,0.2586726,
2,1,0,1,0,56249.7,0.260485,0.260148,0.494757,29,0.0175573,10,0.00012871,-3.30561,-1.25431,-0.0470379,-0.90814,0.2601476,
2,1,0,1,0,56249.9,0.261983,0.261619,0.49312,29,0.0176331,10,0.00012901,-3.30705,-7.52656,-0.0078389,-0.151265,0.261619,
2,1,0,1,0,56250,0.263481,0.26314,0.493901,29,0.0177089,10,0.000129965,-3.30636,-6.22318,-0.00948068,-0.182065,0.26314,
2,1,0,1,0,56250.2,0.26498,0.264681,0.492375,29,0.0177847,10,0.000130322,-3.3077,-3.69067,-0.0159863,-0.307476,0.264681,
2,1,0,1,0,56250.3,0.266477,0.266101,0.492718,29,0.0178602,10,0.000131113,-3.3074,-4.02446,-0.0146604,-0.28118,0.2661005,
2,1,0,1,0,56250.5,0.267976,0.26762,0.489153,29,0.0179357,10,0.000130907,-3.31056,-4.43339,-0.0133081,-0.255284,0.2676203,
2,1,0,1,0,56250.6,0.269474,0.269071,0.489766,29,0.0180111,10,0.000131782,-3.31001,-32.1664,-0.00183421,-0.0351041,0.269071,
2,1,0,1,0,56250.8,0.270972,0.270616,0.491329,29,0.0180864,10,0.000132962,-3.30863,-1.7318,-0.0340687,-0.651009,0.270616,
2,1,0,1,0,56250.9,0.27247,0.272134,0.489566,29,0.0181617,10,0.000133228,-3.31019,-1.07675,-0.0547946,-1.04437,0.272134,
2,1,0,1,0,56251.1,0.273968,0.273616,0.487145,29,0.0182368,10,0.000133291,-3.31234,-2.52835,-0.0233353,-0.445294,0.273616,
2,1,0,1,0,56251.2,0.275467,0.275097,0.487958,29,0.0183116,10,0.000134236,-3.31162,-1.1376,-0.0518636,-0.988321,0.275097,
2,1,0,1,0,56251.4,0.276965,0.276593,0.486606,29,0.0183865,10,0.000134592,-3.31282,-7.5843,-0.00777923,-0.147695,0.276593,
2,1,0,1,0,56251.5,0.278463,0.278089,0.486191,29,0.0184613,10,0.000135204,-3.31319,-1.12959,-0.0522312,-0.990472,0.278089,
2,1,0,1,0,56251.7,0.279962,0.279632,0.487878,29,0.018536,10,0.000136426,-3.31169,-2.45599,-0.0240229,-0.455605,0.279632,
2,1,0,1,0,56251.8,0.281459,0.281092,0.484876,29,0.0186103,10,0.000136295,-3.31437,-10.7809,-0.00547266,-0.103557,0.281092,
2,1,0,1,0,56252,0.282957,0.28267,0.48472,29,0.0186847,10,0.000137016,-3.31451,9.03061,0.00653334,0.123342,0.28267,
2,1,0,1,0,56252.1,0.284456,0.284084,0.483479,29,0.0187591,10,0.000137349,-3.31562,-2.06936,-0.0285112,-0.537424,0.284084,
2,1,0,1,0,56252.3,0.285954,0.285595,0.482878,29,0.0188333,10,0.000137908,-3.31616,-1.02191,-0.0577348,-1.08709,0.285595,
2,1,0,1,0,56252.4,0.287452,0.287067,0.481377,29,0.0189072,10,0.000138187,-3.31751,-1.40624,-0.0419559,-0.789364,0.287067,
2,1,0,1,0,56252.6,0.28895,0.288609,0.481774,29,0.0189811,10,0.000139044,-3.31716,-4.32726,-0.0136345,-0.255674,0.288609,
2,1,0,1,0,56252.7,0.290449,0.290075,0.478827,29,0.0190549,10,0.000138896,-3.31982,-1.46644,-0.0402334,-0.754449,0.290075,
2,1,0,1,0,56252.9,0.291947,0.29161,0.479813,29,0.0191285,10,0.000139918,-3.31893,-1.36189,-0.0433221,-0.810746,0.29161,
2,1,0,1,0,56253,0.293445,0.293096,0.47693,29,0.019202,10,0.000139786,-3.32155,-36.8883,-0.00159942,-0.0298552,0.2930955,
2,1,0,1,0,56253.2,0.294943,0.294598,0.478842,29,0.0192754,10,0.000141066,-3.31981,-2.69067,-0.0219276,-0.408914,0.294598,
2,1,0,1,0,56253.3,0.296442,0.296109,0.479004,29,0.0193488,10,0.000141837,-3.31966,-2.0021,-0.029469,-0.547858,0.296109,
2,1,0,1,0,56253.5,0.297939,0.297616,0.476865,29,0.0194221,10,0.000141923,-3.3216,-1.43493,-0.041117,-0.762779,0.297616,
2,1,0,1,0,56253.6,0.299437,0.29913,0.473674,29,0.0194952,10,0.00014169,-3.32452,-0.00319741,-18.4524,-196.168,0.29913,
2,1,0,1,0,56253.7,0.299738,0.299401,0.287212,29,0.0195315,10,8.59915e-05,-3.5418,0.000753216,78.3308,389.992,0.2994011,
2,1,0,1,0,56253.8,0.29824,0.297901,0.0354601,29,0.0195476,10,1.05636e-05,-4.45026,0.00311497,18.9408,131.009,0.297901,
2,0,0,1,0,56254,0.296741,0.296386,-0.0163065,29,0.0195467,10,-4.83301e-06,-4.78764,0.0244401,2.41407,30.9071,0.296386,
2,0,0,1,0,56254.1,0.295243,0.29489,-0.0438944,29,0.0195402,10,-1.2944e-05,-4.35759,-0.00312817,-18.8608,15.8699,0.29489,
2,0,0,1,0,56254.3,0.293745,0.293363,-0.06342,29,0.0195303,10,-1.86051e-05,-4.19777,-0.0110515,-5.33863,11.7364,0.293363,
2,0,0,1,0,56254.4,0.292246,0.291895,-0.0780104,29,0.019518,10,-2.27709e-05,-4.10785,-0.0185238,-3.18509,9.18596,0.291895,
2,0,0,1,0,56254.6,0.290748,0.290401,-0.0912375,29,0.0195035,10,-2.64955e-05,-4.03983,-0.0226926,-2.59997,8.85458,0.290401,
2,0,0,1,0,56254.7,0.28925,0.288916,-0.102633,29,0.0194872,10,-2.96524e-05,-3.98871,-0.0318738,-1.85105,7.28182,0.288916,
2,0,0,1,0,56254.9,0.287752,0.287416,-0.112677,29,0.0194692,10,-3.23852e-05,-3.94816,-0.041174,-1.43294,6.26553,0.287416,
2,0,0,1,0,56255,0.286253,0.28585,-0.120724,29,0.0194498,10,-3.4509e-05,-3.91821,-0.0454887,-1.29703,6.14993,0.28585,
2,0,0,1,0,56255.2,0.284755,0.284408,-0.12969,29,0.0194292,10,-3.68849e-05,-3.88709,-0.0501955,-1.1754,5.9184,0.284408,
2,0,0,1,0,56255.3,0.283258,0.28291,-0.138541,29,0.0194073,10,-3.91945e-05,-3.85842,-0.0588951,-1.00178,5.36395,0.28291,
2,0,0,1,0,56255.5,0.281759,0.281417,-0.145657,29,0.0193842,10,-4.09903e-05,-3.83667,-0.0697672,-0.845669,4.75259,0.281417,
2,0,0,1,0,56255.6,0.280261,0.279932,-0.15038,29,0.0193603,10,-4.2096e-05,-3.82281,-0.0810182,-0.728232,4.28312,0.2799316,
2,0,0,1,0,56255.8,0.278763,0.278436,-0.159794,29,0.0193353,10,-4.44923e-05,-3.79644,-0.0933502,-0.632029,3.88728,0.278436,
2,0,0,1,0,56255.9,0.277264,0.276936,-0.164979,29,0.0193093,10,-4.56886e-05,-3.78257,-0.09437,-0.625199,3.99839,0.276936,
2,0,0,1,0,56256.1,0.275766,0.275399,-0.170903,29,0.0192824,10,-4.70667e-05,-3.76725,-0.122249,-0.48262,3.19066,0.275399,
2,0,0,1,0,56256.2,0.274268,0.273861,-0.174843,29,0.0192546,10,-4.78827e-05,-3.75735,-0.103756,-0.568642,3.9131,0.273861,
2,0,0,1,0,56256.4,0.27277,0.272443,-0.181192,29,0.0192261,10,-4.93645e-05,-3.74186,-0.106869,-0.552078,3.91718,0.272443,
2,0,0,1,0,56256.5,0.271272,0.270908,-0.186392,29,0.0191967,10,-5.0495e-05,-3.72957,-0.122606,-0.481218,3.50155,0.270908,
2,0,0,1,0,56256.7,0.269773,0.269399,-0.192894,29,0.0191663,10,-5.19655e-05,-3.71468,-0.137516,-0.42904,3.20295,0.269399,
2,0,0,1,0,56256.8,0.268275,0.267926,-0.196854,29,0.0191353,10,-5.27422e-05,-3.70586,-0.152373,-0.387209,2.9648,0.267926,
2,0,0,1,0,56257,0.266778,0.26643,-0.200747,29,0.0191037,10,-5.3485e-05,-3.69735,-0.123348,-0.478322,3.76029,0.26643,
2,0,0,1,0,56257.1,0.265279,0.264954,-0.205455,29,0.0190713,10,-5.44363e-05,-3.68728,-0.127063,-0.464335,3.71674,0.264954,
2,0,0,1,0,56257.3,0.263781,0.263462,-0.209869,29,0.0190381,10,-5.52927e-05,-3.67805,-0.178176,-0.331133,2.72595,0.263462,
2,0,0,1,0,56257.4,0.262283,0.261915,-0.215178,29,0.0190043,10,-5.63585e-05,-3.6672,-0.182677,-0.322975,2.70513,0.2619153,
2,0,0,1,0,56257.6,0.260784,0.260434,-0.218426,29,0.0189699,10,-5.68856e-05,-3.6607,-0.20402,-0.289187,2.48119,0.260434,
2,0,0,1,0,56257.7,0.259286,0.258947,-0.224006,29,0.0189349,10,-5.80058e-05,-3.64974,-0.154253,-0.382488,3.32515,0.258947,
2,0,0,1,0,56257.9,0.257788,0.257426,-0.230743,29,0.0188991,10,-5.93993e-05,-3.63687,-0.215958,-0.273201,2.42257,0.257426,
2,0,0,1,0,56258,0.25629,0.255909,-0.232366,29,0.0188627,10,-5.94646e-05,-3.63383,-0.221765,-0.266048,2.40122,0.255909,
2,0,0,1,0,56258.2,0.254791,0.254432,-0.235241,29,0.0188257,10,-5.98531e-05,-3.62849,-0.211504,-0.278954,2.57361,0.254432,
2,0,0,1,0,56258.3,0.253293,0.252894,-0.239462,29,0.0187884,10,-6.05584e-05,-3.62076,-0.222726,-0.2649,2.483,0.252894,
2,0,0,1,0,56258.5,0.251796,0.251436,-0.243015,29,0.0187503,10,-6.11025e-05,-3.61437,-0.211873,-0.278469,2.65034,0.251436,
2,0,0,1,0,56258.6,0.250297,0.249958,-0.24637,29,0.0187117,10,-6.15823e-05,-3.60841,-0.257188,-0.229404,2.19976,0.249958,
2,0,0,1,0,56258.8,0.248799,0.248421,-0.250101,29,0.0186726,10,-6.21303e-05,-3.60188,-0.255371,-0.231036,2.2584,0.248421,
2,0,0,1,0,56258.9,0.247301,0.246915,-0.25329,29,0.0186331,10,-6.25411e-05,-3.59638,-0.246233,-0.239611,2.36453,0.2469148,
2,0,0,1,0,56259.1,0.245802,0.245459,-0.258208,29,0.018593,10,-6.33794e-05,-3.58803,-0.227376,-0.259482,2.60433,0.245459,
2,0,0,1,0,56259.2,0.244304,0.243893,-0.261079,29,0.0185523,10,-6.36752e-05,-3.58323,-0.301209,-0.195877,1.98422,0.243893,
2,0,0,1,0,56259.4,0.242806,0.242458,-0.264874,29,0.0185111,10,-6.42209e-05,-3.57696,-0.43667,-0.135113,1.39859,0.242458,
2,0,0,1,0,56259.5,0.241308,0.240945,-0.266461,29,0.0184695,10,-6.42025e-05,-3.57437,-0.351037,-0.168074,1.75177,0.2409447,
2,0,0,1,0,56259.7,0.23981,0.239434,-0.269312,29,0.0184275,10,-6.44823e-05,-3.56974,-0.219233,-0.269121,2.83307,0.239434,
2,0,0,1,0,56259.8,0.238311,0.237991,-0.273411,29,0.0183849,10,-6.50693e-05,-3.56318,-0.328293,-0.179717,1.91414,0.237991,
2,0,0,1,0,56260,0.236814,0.23645,-0.277752,29,0.0183418,10,-6.56744e-05,-3.55634,-0.376651,-0.156644,1.69242,0.23645,
2,0,0,1,0,56260.1,0.235316,0.234968,-0.277725,29,0.0182984,10,-6.52564e-05,-3.55639,-0.31022,-0.190188,2.07041,0.234968,
2,0,0,1,0,56260.3,0.233817,0.233427,-0.283354,29,0.0182545,10,-6.61427e-05,-3.54767,-0.329959,-0.17881,1.97489,0.233427,
2,0,0,1,0,56260.4,0.232319,0.231933,-0.286208,29,0.0182101,10,-6.63811e-05,-3.54332,-0.30802,-0.191546,2.12878,0.231933,
2,0,0,1,0,56260.6,0.230821,0.230452,-0.289332,29,0.0181651,10,-6.66771e-05,-3.5386,-0.420131,-0.140432,1.5729,0.230452,
2,0,0,1,0,56260.7,0.229322,0.228926,-0.290109,29,0.0181198,10,-6.64136e-05,-3.53744,-0.497203,-0.118664,1.34789,0.228926,
2,0,0,1,0,56260.9,0.227824,0.227463,-0.293393,29,0.0180742,10,-6.67359e-05,-3.53255,-0.329736,-0.178931,2.06174,0.227463,
2,0,0,1,0,56261,0.226326,0.225971,-0.296858,29,0.0180281,10,-6.70813e-05,-3.52745,-0.341914,-0.172558,1.9947,0.225971,
2,0,0,1,0,56261.2,0.224828,0.224479,-0.300854,29,0.0179815,10,-6.75354e-05,-3.52164,-0.383045,-0.154029,1.80304,0.224479,
2,0,0,1,0,56261.3,0.223329,0.222956,-0.303648,29,0.0179343,10,-6.77003e-05,-3.51763,-0.34878,-0.169161,1.99217,0.222956,
2,0,0,1,0,56261.5,0.221831,0.221495,-0.306252,29,0.0178869,10,-6.78332e-05,-3.51392,-0.296735,-0.198831,2.36654,0.221495,
2,0,0,1,0,56261.6,0.220334,0.220005,-0.308377,29,0.017839,10,-6.78444e-05,-3.51092,-0.273555,-0.215678,2.59111,0.220005,
2,0,0,1,0,56261.8,0.218835,0.218501,-0.312509,29,0.0177905,10,-6.82836e-05,-3.50514,-0.321867,-0.183305,2.22796,0.218501,
2,0,0,1,0,56261.9,0.217337,0.216968,-0.313598,29,0.0177417,10,-6.80408e-05,-3.50363,-0.574367,-0.102722,1.25951,0.216968,
2,0,0,1,0,56262.1,0.215839,0.215476,-0.316596,29,0.0176925,10,-6.82188e-05,-3.49949,-0.420072,-0.140452,1.74133,0.215476,
2,0,0,1,0,56262.2,0.21434,0.213988,-0.318127,29,0.0176429,10,-6.80754e-05,-3.4974,-0.283941,-0.207789,2.58368,0.213988,
2,0,0,1,0,56262.4,0.212842,0.212494,-0.323095,29,0.0175928,10,-6.86557e-05,-3.49067,-0.367231,-0.160662,2.02583,0.212494,
2,0,0,1,0,56262.5,0.211344,0.210963,-0.325721,29,0.0175421,10,-6.87151e-05,-3.48715,-0.477179,-0.123643,1.56547,0.210963,
2,0,0,1,0,56262.7,0.209846,0.209477,-0.327653,29,0.0174912,10,-6.86358e-05,-3.48459,-0.521635,-0.113106,1.44976,0.209477,
2,0,0,1,0,56262.8,0.208348,0.208019,-0.331172,29,0.0174398,10,-6.889e-05,-3.47995,-0.34375,-0.171636,2.23076,0.208019,
2,0,0,1,0,56263,0.206849,0.206484,-0.337963,29,0.0173879,10,-6.9784e-05,-3.47113,-0.393224,-0.150042,1.96231,0.2064842,
2,0,0,1,0,56263.1,0.205352,0.205014,-0.339652,29,0.0173353,10,-6.96334e-05,-3.46897,-0.428868,-0.137571,1.80463,0.205014,
2,0,0,1,0,56263.3,0.203854,0.203495,-0.339716,29,0.0172825,10,-6.91305e-05,-3.46888,-0.352747,-0.167259,2.22966,0.203495,
2,0,0,1,0,56263.4,0.202355,0.201985,-0.343445,29,0.0172294,10,-6.93708e-05,-3.46414,-0.407324,-0.144848,1.94801,0.201985,
2,0,0,1,0,56263.6,0.200857,0.200455,-0.347229,29,0.0171756,10,-6.96038e-05,-3.45938,-0.338721,-0.174185,2.35924,0.2004552,
2,0,0,1,0,56263.7,0.199359,0.198983,-0.350191,29,0.0171215,10,-6.96822e-05,-3.4557,-0.409828,-0.143963,1.96324,0.198983,
2,0,0,1,0,56263.9,0.19786,0.197496,-0.353262,29,0.0170669,10,-6.97677e-05,-3.4519,-0.377651,-0.156229,2.14612,0.197496,
2,0,0,1,0,56264,0.196362,0.195978,-0.355812,29,0.0170119,10,-6.97314e-05,-3.44878,-0.401917,-0.146796,2.03503,0.195978,
2,0,0,1,0,56264.2,0.194864,0.194487,-0.35984,29,0.0169564,10,-6.99843e-05,-3.44389,-0.302997,-0.194721,2.7328,0.194487,
2,0,0,1,0,56264.3,0.193366,0.192978,-0.363338,29,0.0169003,10,-7.01164e-05,-3.43969,-0.356089,-0.165689,2.34549,0.192978,
2,0,0,1,0,56264.5,0.191867,0.191521,-0.366288,29,0.0168437,10,-7.01519e-05,-3.43618,-0.563592,-0.104686,1.50077,0.191521,
2,0,0,1,0,56264.6,0.190369,0.189999,-0.368271,29,0.0167869,10,-6.99712e-05,-3.43383,-0.420905,-0.140174,2.01714,0.1899993,
2,0,0,1,0,56264.8,0.188872,0.188497,-0.372469,29,0.0167294,10,-7.02092e-05,-3.42891,-0.292933,-0.201411,2.91572,0.188497,
2,0,0,1,0,56264.9,0.187373,0.187011,-0.375709,29,0.0166715,10,-7.02618e-05,-3.42515,-0.352463,-0.167394,2.45929,0.187011,
2,0,0,1,0,56265.1,0.185875,0.18553,-0.378951,29,0.016613,10,-7.03067e-05,-3.42142,-0.371724,-0.15872,2.34165,0.18553,
2,0,0,1,0,56265.2,0.184377,0.184,-0.381194,29,0.0165541,10,-7.01397e-05,-3.41885,-0.424994,-0.138825,2.07287,0.184,
2,0,0,1,0,56265.4,0.182878,0.182526,-0.385976,29,0.0164946,10,-7.04507e-05,-3.41344,-0.420013,-0.140472,2.12022,0.182526,
2,0,0,1,0,56265.5,0.18138,0.18103,-0.389884,29,0.0164346,10,-7.05805e-05,-3.40906,-0.340866,-0.173088,2.63662,0.18103,
2,0,0,1,0,56265.7,0.179882,0.179525,-0.39398,29,0.016374,10,-7.07292e-05,-3.40453,-0.528154,-0.11171,1.71205,0.179525,
2,0,0,1,0,56265.8,0.178384,0.178027,-0.395682,29,0.0163128,10,-7.04419e-05,-3.40265,-0.430341,-0.137101,2.12616,0.178027,
2,0,0,1,0,56266,0.176886,0.176473,-0.400078,29,0.0162513,10,-7.0603e-05,-3.39786,-0.361215,-0.163338,2.55721,0.176473,
2,0,0,1,0,56266.1,0.175387,0.175025,-0.405305,29,0.016189,10,-7.09387e-05,-3.39222,-0.305302,-0.193251,3.05627,0.175025,
2,0,0,1,0,56266.3,0.17389,0.173512,-0.409792,29,0.0161261,10,-7.11037e-05,-3.38744,-0.293548,-0.200989,3.20907,0.173512,
2,0,0,1,0,56266.4,0.172392,0.17204,-0.414391,29,0.0160625,10,-7.12916e-05,-3.38259,-0.292537,-0.201684,3.25745,0.17204,
2,0,0,1,0,56266.6,0.170893,0.170544,-0.416853,29,0.0159983,10,-7.1092e-05,-3.38002,-0.294903,-0.200066,3.26541,0.170544,
2,0,0,1,0,56266.7,0.169395,0.169028,-0.423108,29,0.0159333,10,-7.1517e-05,-3.37355,-0.237521,-0.248399,4.08978,0.169028,
2,0,0,1,0,56266.9,0.167897,0.167547,-0.428532,29,0.0158674,10,-7.1799e-05,-3.36802,-0.290444,-0.203137,3.40068,0.167547,
2,0,0,1,0,56267,0.166398,0.166026,-0.433299,29,0.0158008,10,-7.19389e-05,-3.36321,-0.31521,-0.187177,3.17491,0.166026,
2,0,0,1,0,56267.2,0.1649,0.164543,-0.437784,29,0.0157334,10,-7.20344e-05,-3.35874,-0.268387,-0.219832,3.77815,0.164543,
2,0,0,1,0,56267.3,0.163402,0.163007,-0.445802,29,0.0156651,10,-7.26688e-05,-3.35086,-0.25554,-0.230884,4.01926,0.163007,
2,0,0,1,0,56267.5,0.161904,0.161539,-0.45309,29,0.0155958,10,-7.31918e-05,-3.34382,-0.218153,-0.270453,4.78082,0.161539,
2,0,0,1,0,56267.6,0.160405,0.160026,-0.461133,29,0.0155253,10,-7.37933e-05,-3.33617,-0.240894,-0.244921,4.3919,0.160026,
2,0,0,1,0,56267.8,0.158907,0.158525,-0.465433,29,0.0154538,10,-7.37828e-05,-3.33214,-0.200766,-0.293875,5.36586,0.158525,
2,0,0,1,0,56267.9,0.15741,0.157088,-0.476,29,0.0153812,10,-7.47739e-05,-3.32239,-0.166782,-0.353755,6.60034,0.157088,
2,0,0,1,0,56268.1,0.155911,0.155555,-0.485987,29,0.0153071,10,-7.55979e-05,-3.31338,-0.178056,-0.331357,6.28119,0.155555,
2,0,0,1,0,56268.2,0.154413,0.153987,-0.494885,29,0.0152315,10,-7.62059e-05,-3.3055,-0.178781,-0.330013,6.37023,0.153987,
2,0,0,1,0,56268.4,0.152915,0.152538,-0.505689,29,0.0151544,10,-7.71366e-05,-3.29612,-0.158004,-0.373407,7.37996,0.152538,
2,0,0,1,0,56268.5,0.151417,0.151035,-0.51848,29,0.0150759,10,-7.83086e-05,-3.28527,-0.149097,-0.395715,8.02375,0.151035,
2,0,0,1,0,56268.7,0.149918,0.149556,-0.531363,29,0.0149953,10,-7.94683e-05,-3.27461,-0.133446,-0.442127,9.17832,0.1495557,
2,0,0,1,0,56268.8,0.14842,0.148067,-0.546162,29,0.0149126,10,-8.08686e-05,-3.26268,-0.123881,-0.476265,10.1885,0.148067,
2,0,0,1,0,56269,0.146922,0.146578,-0.563594,29,0.0148275,10,-8.26106e-05,-3.24903,-0.110572,-0.533587,11.7461,0.146578,
2,0,0,1,0,56269.1,0.145424,0.145069,-0.580579,29,0.0147399,10,-8.4224e-05,-3.23614,-0.103203,-0.571687,13.0138,0.145069,
2,0,0,1,0,56269.3,0.143925,0.143547,-0.602798,29,0.0146492,10,-8.65298e-05,-3.21983,-0.0895488,-0.658859,15.4913,0.143547,
2,0,0,1,0,56269.4,0.142428,0.142065,-0.627032,29,0.0145552,10,-8.90792e-05,-3.20271,-0.0896843,-0.657863,16.0711,0.142065,
2,0,0,1,0,56269.6,0.14093,0.140551,-0.649207,29,0.0144576,10,-9.12465e-05,-3.18762,-0.0903336,-0.653135,16.5666,0.140551,
2,0,0,1,0,56269.7,0.139431,0.139065,-0.673925,29,0.0143564,10,-9.37195e-05,-3.17139,-0.0849632,-0.694418,18.3286,0.1390651,
2,0,0,1,0,56269.9,0.137933,0.137565,-0.702617,29,0.0142512,10,-9.66553e-05,-3.15328,-0.0845072,-0.698165,19.1635,0.137565,
2,0,0,1,0,56270,0.136435,0.136064,-0.735108,29,0.0141416,10,-0.000100022,-3.13365,-0.0835783,-0.705925,20.1605,0.136064,
2,0,0,1,0,56270.2,0.134936,0.134546,-0.762116,29,0.0140274,10,-0.000102539,-3.11798,-0.0883333,-0.667925,19.8262,0.134546,
2,0,0,1,0,56270.3,0.133438,0.133066,-0.791547,29,0.0139087,10,-0.000105328,-3.10152,-0.0900926,-0.654882,20.3056,0.133066,
2,0,0,1,0,56270.5,0.13194,0.131573,-0.824777,29,0.0137856,10,-0.000108519,-3.08366,-0.0912479,-0.64659,20.8242,0.131573,
2,0,0,1,0,56270.6,0.130442,0.130057,-0.857102,29,0.0136575,10,-0.000111472,-3.06697,-0.0960334,-0.614369,20.4897,0.130057,
2,0,0,1,0,56270.8,0.128943,0.128589,-0.886116,29,0.0135247,10,-0.000113944,-3.05251,-0.108237,-0.545099,18.7895,0.128589,
2,0,0,1,0,56270.9,0.127445,0.127061,-0.916181,29,0.0133876,10,-0.000116411,-3.03802,-0.113432,-0.520136,18.5629,0.127061,
2,0,0,1,0,56271.1,0.125948,0.125569,-0.940084,29,0.0132466,10,-0.000118045,-3.02683,-0.121272,-0.48651,17.8682,0.125569,
2,0,0,1,0,56271.2,0.124449,0.124068,-0.968508,29,0.0131012,10,-0.000120161,-3.0139,-0.126689,-0.465706,17.5836,0.124068,
2,0,0,1,0,56271.4,0.122951,0.122647,-0.994892,29,0.012952,10,-0.00012202,-3.00222,-0.143061,-0.412412,15.9593,0.122647,
2,0,0,1,0,56271.5,0.121453,0.121116,-1.01825,29,0.012799,10,-0.000123326,-2.99215,-0.165157,-0.357236,14.1547,0.1211156,
2,0,0,1,0,56271.7,0.119955,0.119597,-1.03554,29,0.012643,10,-0.000123847,-2.98483,-0.192985,-0.305723,12.3664,0.119597,
2,0,0,1,0,56271.8,0.118456,0.118069,-1.05596,29,0.012484,10,-0.000124676,-2.97635,-0.199692,-0.295456,12.1605,0.118069,
2,0,0,1,0,56272,0.116958,0.116561,-1.07362,29,0.0123223,10,-0.000125142,-2.96915,-0.260353,-0.226615,9.45142,0.116561,
2,0,0,1,0,56272.1,0.11546,0.11512,-1.08638,29,0.0121584,10,-0.000125064,-2.96402,-0.352081,-0.167575,7.08029,0.11512,
2,0,0,1,0,56272.3,0.113962,0.113581,-1.09255,29,0.0119929,10,-0.000124094,-2.96156,-0.419695,-0.140578,5.9941,0.113581,
2,0,0,1,0,56272.4,0.112463,0.11208,-1.10354,29,0.0118263,10,-0.000123685,-2.95721,-0.61242,-0.0963392,4.13756,0.11208,
2,0,0,1,0,56272.6,0.110966,0.110586,-1.10847,29,0.0116586,10,-0.000122581,-2.95528,-0.837039,-0.0704866,3.03782,0.110586,
2,0,0,1,0,56272.7,0.109468,0.109109,-1.1123,29,0.0114902,10,-0.000121363,-2.95378,-3.94992,-0.014937,0.645947,0.109109,
2,0,0,1,0,56272.9,0.107969,0.107617,-1.11022,29,0.0113215,10,-0.000119478,-2.95459,5.89,0.010017,-0.43399,0.107617,
2,0,0,1,0,56273,0.106471,0.106129,-1.1099,29,0.0111533,10,-0.000117792,-2.95472,7.68843,0.00767387,-0.332885,0.106129,
2,0,0,1,0,56273.2,0.104973,0.10461,-1.10824,29,0.010985,10,-0.000115933,-2.95537,2.11356,0.0279149,-1.20488,0.10461,
2,0,0,1,0,56273.3,0.103474,0.103122,-1.10794,29,0.0108168,10,-0.000114253,-2.95548,1.15945,0.0508863,-2.1926,0.103122,
2,0,0,1,0,56273.5,0.101976,0.101599,-1.10361,29,0.0106491,10,-0.000112126,-2.95718,0.64347,0.0916904,-3.94284,0.101599,
2,0,0,1,0,56273.6,0.100478,0.100105,-1.09659,29,0.0104824,10,-0.000109774,-2.95995,0.851158,0.0693173,-2.96858,0.1001047,
2,0,0,1,0,56273.8,0.0989798,0.0986053,-1.0933,29,0.0103162,10,-0.000107805,-2.96126,1.10898,0.0532021,-2.26599,0.09860529,
2,0,0,1,0,56273.9,0.0974808,0.0971071,-1.0907,29,0.0101506,10,-0.000105915,-2.96229,0.87004,0.067813,-2.88373,0.0971071,
2,0,0,1,0,56274.1,0.0959833,0.0956319,-1.08414,29,0.0099856,10,-0.000103678,-2.96492,0.745213,0.079172,-3.34833,0.0956319,
2,0,0,1,0,56274.2,0.0944857,0.0941754,-1.07707,29,0.00982153,10,-0.000101434,-2.96776,0.85524,0.0689865,-2.90852,0.0941754,
2,0,0,1,0,56274.4,0.0929871,0.0926437,-1.07376,29,0.00965808,10,-9.94771e-05,-2.96909,1.04264,0.0565873,-2.37362,0.0926437,
2,0,0,1,0,56274.5,0.0914889,0.0911146,-1.07154,29,0.0094952,10,-9.76326e-05,-2.96999,0.84875,0.069514,-2.90191,0.0911146,
2,0,0,1,0,56274.7,0.0899907,0.0896767,-1.06616,29,0.00933297,10,-9.56099e-05,-2.97218,0.592944,0.0995034,-4.13123,0.0896767,
2,0,0,1,0,56274.8,0.0884925,0.0881083,-1.05966,29,0.00917159,10,-9.33652e-05,-2.97483,0.672715,0.0877044,-3.62836,0.0881083,
2,0,0,1,0,56275,0.0869943,0.0865813,-1.057,29,0.0090111,10,-9.15161e-05,-2.97593,0.632701,0.093251,-3.84669,0.0865813,
2,0,0,1,0,56275.1,0.0854961,0.0851137,-1.05219,29,0.00885116,10,-8.95556e-05,-2.97791,0.814704,0.072419,-2.97283,0.0851137,
2,0,0,1,0,56275.3,0.083998,0.0836568,-1.0465,29,0.00869182,10,-8.75472e-05,-2.98026,0.601708,0.0980543,-4.00256,0.0836568,
2,0,0,1,0,56275.4,0.0824998,0.0821287,-1.04185,29,0.00853328,10,-8.55657e-05,-2.9822,0.690097,0.0854953,-3.47831,0.0821287,
2,0,0,1,0,56275.6,0.0810011,0.0806563,-1.03548,29,0.00837564,10,-8.35184e-05,-2.98486,0.781214,0.0755235,-3.05819,0.0806563,
2,0,0,1,0,56275.7,0.0795036,0.0791334,-1.03214,29,0.00821867,10,-8.16767e-05,-2.98626,0.778547,0.0757822,-3.05027,0.0791334,
2,0,0,1,0,56275.9,0.0780061,0.0776566,-1.02767,29,0.00806235,10,-7.98052e-05,-2.98815,0.680502,0.0867007,-3.47277,0.0776566,
2,0,0,1,0,56276,0.076507,0.0761321,-1.02223,29,0.0079067,10,-7.78245e-05,-2.99045,0.636923,0.0926329,-3.69219,0.0761321,
2,0,0,1,0,56276.2,0.0750088,0.074655,-1.01508,29,0.00775221,10,-7.57805e-05,-2.9935,0.570054,0.103499,-4.10336,0.074655,
2,0,0,1,0,56276.3,0.0735106,0.0731778,-1.01001,29,0.00759845,10,-7.39103e-05,-2.99567,0.81778,0.0721466,-2.83989,0.0731778,
2,0,0,1,0,56276.5,0.0720124,0.0716392,-1.00416,29,0.00744545,10,-7.19373e-05,-2.9982,0.593886,0.0993456,-3.90045,0.0716392,
2,0,0,1,0,56276.6,0.0705142,0.0701048,-0.998022,29,0.00729331,10,-6.99661e-05,-3.00086,0.532679,0.110761,-4.31875,0.0701048,
2,0,0,1,0,56276.8,0.069016,0.0687082,-0.991679,29,0.00714207,10,-6.81365e-05,-3.00363,0.587578,0.100412,-3.89642,0.0687082,
2,0,0,1,0,56276.9,0.0675179,0.0671653,-0.987521,29,0.00699184,10,-6.63272e-05,-3.00545,0.660222,0.0893639,-3.44773,0.0671653,
2,0,0,1,0,56277.1,0.0660188,0.0656705,-0.984977,29,0.0068421,10,-6.4684e-05,-3.00657,0.691831,0.0852809,-3.26382,0.0656705,
2,0,0,1,0,56277.2,0.0645213,0.0641472,-0.978659,29,0.00669313,10,-6.27782e-05,-3.00937,0.547488,0.107765,-4.09835,0.0641472,
2,0,0,1,0,56277.4,0.0630237,0.0626504,-0.970009,29,0.0065452,10,-6.07714e-05,-3.01322,0.569617,0.103578,-3.92773,0.0626504,
2,0,0,1,0,56277.5,0.0615251,0.0611772,-0.963296,29,0.00639828,10,-5.89318e-05,-3.01624,0.592891,0.0995123,-3.74974,0.06117719,
2,0,0,1,0,56277.7,0.0600269,0.0596629,-0.958158,29,0.00625212,10,-5.71665e-05,-3.01856,0.601893,0.098024,-3.66944,0.0596629,
2,0,0,1,0,56277.8,0.0585287,0.0581985,-0.952646,29,0.00610676,10,-5.54426e-05,-3.02107,0.447747,0.131771,-4.89769,0.0581985,
2,0,0,1,0,56278,0.0570305,0.0566524,-0.946865,29,0.00596225,10,-5.36422e-05,-3.02371,0.505113,0.116806,-4.32208,0.0566524,
2,0,0,1,0,56278.1,0.0555323,0.0551551,-0.940346,29,0.00581898,10,-5.18649e-05,-3.02671,0.528746,0.111585,-4.1011,0.0551551,
2,0,0,1,0,56278.3,0.0540342,0.0536918,-0.935782,29,0.00567636,10,-5.02438e-05,-3.02883,0.65372,0.0902527,-3.29271,0.0536918,
2,0,0,1,0,56278.4,0.052536,0.0521404,-0.929778,29,0.00553452,10,-4.8479e-05,-3.03162,0.538354,0.109593,-3.97216,0.0521404,
2,0,0,1,0,56278.6,0.0510378,0.0506558,-0.925013,29,0.00539353,10,-4.68573e-05,-3.03385,0.479117,0.123143,-4.44019,0.0506558,
2,0,0,1,0,56278.7,0.0495391,0.0491995,-0.91687,29,0.00525357,10,-4.51095e-05,-3.03769,0.499788,0.11805,-4.22924,0.0491995,
2,0,0,1,0,56278.9,0.0480416,0.0476868,-0.91098,29,0.0051146,10,-4.34417e-05,-3.04049,0.627254,0.0940609,-3.34389,0.0476868,
2,0,0,1,0,56279,0.0465441,0.0462267,-0.904927,29,0.00497652,10,-4.18318e-05,-3.04339,0.570479,0.103422,-3.656,0.0462267,
2,0,0,1,0,56279.2,0.045045,0.0446985,-0.899767,29,0.00483919,10,-4.02182e-05,-3.04587,0.510373,0.115602,-4.05302,0.0446985,
2,0,0,1,0,56279.3,0.0435468,0.0431757,-0.890285,29,0.00470303,10,-3.84387e-05,-3.05047,0.476306,0.12387,-4.31279,0.0431757,
2,0,0,1,0,56279.5,0.0420486,0.0417219,-0.886348,29,0.00456789,10,-3.69801e-05,-3.0524,0.514447,0.114686,-3.96969,0.04172191,
2,0,0,1,0,56279.6,0.0405504,0.0401674,-0.881457,29,0.00443353,10,-3.54058e-05,-3.0548,0.540917,0.109074,-3.74792,0.0401674,
2,0,0,1,0,56279.8,0.0390523,0.0386701,-0.874216,29,0.00429994,10,-3.3806e-05,-3.05838,0.370497,0.159246,-5.42311,0.0386701,
2,0,0,1,0,56279.9,0.0375541,0.0371622,-0.86699,29,0.00416747,10,-3.22192e-05,-3.06199,0.416231,0.141748,-4.80378,0.0371622,
2,0,0,1,0,56280.1,0.0360559,0.0356734,-0.86058,29,0.00403619,10,-3.06998e-05,-3.06521,0.456695,0.129189,-4.34336,0.0356734,
2,0,0,1,0,56280.2,0.0345568,0.0342273,-0.855126,29,0.00390559,10,-2.92687e-05,-3.06797,0.500276,0.117935,-3.93543,0.0342273,
2,0,0,1,0,56280.4,0.0330593,0.0326996,-0.84876,29,0.00377594,10,-2.77541e-05,-3.07122,0.421638,0.13993,-4.62809,0.0326996,
2,0,0,1,0,56280.5,0.0315618,0.0312277,-0.84206,29,0.00364722,10,-2.62956e-05,-3.07466,0.472019,0.124995,-4.11082,0.0312277,
2,0,0,1,0,56280.7,0.0300631,0.0296757,-0.834824,29,0.00351957,10,-2.4774e-05,-3.07841,0.470386,0.125429,-4.09277,0.0296757,
2,0,0,1,0,56280.8,0.0285649,0.0281805,-0.829441,29,0.00339279,10,-2.33741e-05,-3.08121,0.52747,0.111855,-3.61734,0.0281805,
2,0,0,1,0,56281,0.0270667,0.0266832,-0.823749,29,0.00326681,10,-2.19803e-05,-3.08421,0.45504,0.129659,-4.17053,0.0266832,
2,0,0,1,0,56281.1,0.0255685,0.0251987,-0.818646,29,0.00314173,10,-2.06288e-05,-3.0869,0.431858,0.136619,-4.35823,0.0251987,
2,0,0,1,0,56281.3,0.0240704,0.023695,-0.810042,29,0.00301771,10,-1.91939e-05,-3.09149,0.486568,0.121257,-3.84873,0.023695,
2,0,0,1,0,56281.4,0.0225722,0.0222104,-0.80576,29,0.00289456,10,-1.78963e-05,-3.09379,0.675549,0.0873364,-2.74644,0.0222104,
2,0,0,1,0,56281.6,0.021074,0.0207492,-0.802913,29,0.00277193,10,-1.66598e-05,-3.09533,0.538783,0.109506,-3.42814,0.0207492,
2,0,0,1,0,56281.7,0.0195758,0.0192583,-0.796588,29,0.00265015,10,-1.53409e-05,-3.09877,0.525123,0.112355,-3.49204,0.0192583,
2,0,0,1,0,56281.9,0.0180772,0.0176612,-0.790502,29,0.00252902,10,-1.39612e-05,-3.1021,0.625375,0.0943434,-2.91788,0.0176612,
2,0,0,1,0,56282,0.0165796,0.0162024,-0.788788,29,0.0024088,10,-1.27802e-05,-3.10304,0.69461,0.0849398,-2.61376,0.0162024,
2,0,0,1,0,56282.2,0.0150821,0.0147268,-0.787078,29,0.00228891,10,-1.15911e-05,-3.10398,0.74785,0.0788929,-2.41656,0.0147268,
2,0,0,1,0,56282.3,0.013583,0.0131885,-0.781912,29,0.00216939,10,-1.03122e-05,-3.10684,0.607651,0.0970951,-2.95546,0.0131885,
2,0,0,1,0,56282.5,0.0120848,0.0117273,-0.77834,29,0.00205055,10,-9.1278e-06,-3.10883,0.838274,0.0703828,-2.14142,0.0117273,
2,0,0,1,0,56282.6,0.0105866,0.0102257,-0.773588,29,0.00193235,10,-7.91049e-06,-3.11149,1.03561,0.0569715,-1.72662,0.0102257,
2,0,0,1,0,56282.8,0.00908846,0.00871994,-0.773202,29,0.00181434,10,-6.74228e-06,-3.11171,1.23759,0.0476733,-1.44012,0.00871994,
2,0,0,1,0,56282.9,0.00759027,0.00722689,-0.771282,29,0.00169664,10,-5.57397e-06,-3.11279,1.27268,0.0463588,-1.39404,0.00722689,
2,0,0,1,0,56283.1,0.00609207,0.00573702,-0.770464,29,0.00157911,10,-4.42017e-06,-3.11325,2.0939,0.0281771,-0.847959,0.00573702,
2,0,0,1,0,56283.2,0.00459389,0.00427472,-0.769186,29,0.00146201,10,-3.28805e-06,-3.11397,2.75636,0.021405,-0.642352,0.00427472,
2,0,0,1,0,56283.4,0.0030948,0.0027151,-0.769674,29,0.00134478,10,-2.08974e-06,-3.11369,-1.2676,-0.0465448,1.39945,0.0027151,
2,0,0,1,0,56283.5,0.00159728,0.00121295,-0.777361,29,0.00122656,10,-9.42901e-07,-3.10938, , , ,0.00121295,
2,0,0,1,0,56283.6,0.000199195,-0.000203165,-0.771166,29,0.0011165,10,1.56674e-07,-3.11285, , , ,-0.0002031647,