File: Figure_codes/Fig_3-5/rawdata_trumpetplot_data/after 10th/20221101_1-115_003_TrumpetPlot_ParaChange_from10_every3_13_CV_C01_5.csv
mode,ox/red,error,control changes,counter inc.,time/s,control/V,Ewe/V,<I>/mA,cycle number,(Q-Qo)/C,I Range,P/W,log(|I|),Tafel slope mV/dec,alpha_eff,dI/d(E-IR),E-IR/V,
2,1,0,1,0,11048.5,2.44065e-05,-0.000401673,24.8464,6,0.0000000E+000,10,-9.98013e-06,-1.60474, , , ,-0.000401673,
2,1,0,1,0,11048.5,0.00266289,0.00227373,26.1751,6,7.95938e-05,10,5.95152e-05,-1.58211, , , ,0.00227373,
2,1,0,1,0,11048.5,0.00586735,0.00550161,27.3456,6,0.000186847,10,0.000150445,-1.56311, , , ,0.00550161,
2,1,0,1,0,11048.5,0.00906349,0.00871994,28.3321,6,0.000298319,10,0.000247054,-1.54772,0.216884,0.272035,297.748,0.00871994,
2,1,0,1,0,11048.5,0.0122624,0.0119287,29.1977,6,0.000413494,10,0.000348291,-1.53465,0.254213,0.232089,262.62,0.0119287,
2,1,0,1,0,11048.5,0.0154641,0.015128,30.0024,6,0.000532001,10,0.000453876,-1.52284,0.287374,0.205307,239.076,0.015128,
2,1,0,1,0,11048.5,0.0186602,0.0183028,30.7074,6,0.000653524,10,0.000562033,-1.51276,0.319368,0.18474,220.529,0.0183028,
2,1,0,1,0,11048.5,0.0218675,0.021536,31.3961,6,0.000777821,10,0.000676147,-1.50312,0.352217,0.16751,204.582,0.021536,
2,1,0,1,0,11048.5,0.0250636,0.0247278,32.0202,6,0.000904732,10,0.000791792,-1.49458,0.378545,0.15586,194.262,0.02472784,
2,1,0,1,0,11048.5,0.0282597,0.0279345,32.6224,6,0.0010341,10,0.000911292,-1.48648,0.408373,0.144476,183.549,0.0279345,
2,1,0,1,0,11048.5,0.031467,0.0311242,33.1981,6,0.00116584,10,0.00103326,-1.47889,0.434161,0.135894,175.703,0.03112421,
2,1,0,1,0,11048.6,0.0346631,0.0342969,33.7383,6,0.00129976,10,0.00115712,-1.47188,0.457476,0.128968,169.595,0.0342969,
2,1,0,1,0,11048.6,0.0378704,0.0374983,34.2641,6,0.00143582,10,0.00128484,-1.46516,0.481965,0.122416,163.564,0.0374983,
2,1,0,1,0,11048.6,0.0410665,0.040722,34.7911,6,0.00157396,10,0.00141676,-1.45853,0.494594,0.11929,161.851,0.040722,
2,1,0,1,0,11048.6,0.0442626,0.0439509,35.2961,6,0.00171419,10,0.00155129,-1.45227,0.513743,0.114843,158.083,0.0439509,
2,1,0,1,0,11048.6,0.0474671,0.0471162,35.8132,6,0.00185647,10,0.00168738,-1.44596,0.520936,0.113258,158.204,0.0471162,
2,1,0,1,0,11048.6,0.0506632,0.0503589,36.2971,6,0.00200075,10,0.00182788,-1.44013,0.522405,0.112939,160.031,0.0503589,
2,1,0,1,0,11048.6,0.0538621,0.0534946,36.8118,6,0.00214701,10,0.00196923,-1.43401,0.530554,0.111204,159.821,0.05349455,
2,1,0,1,0,11048.6,0.0570638,0.0567097,37.3379,6,0.00229537,10,0.00211742,-1.42785,0.522803,0.112853,164.449,0.0567097,
2,1,0,1,0,11048.6,0.06026,0.0599026,37.8567,6,0.00244581,10,0.00226771,-1.42186,0.526393,0.112084,165.627,0.0599026,
2,1,0,1,0,11048.6,0.0634672,0.0631411,38.3991,6,0.0025984,10,0.00242456,-1.41568,0.5289,0.111552,167.168,0.06314107,
2,1,0,1,0,11048.6,0.0666633,0.0663202,38.9361,6,0.00275312,10,0.00258225,-1.40965,0.523119,0.112785,171.427,0.0663202,
2,1,0,1,0,11048.6,0.0698595,0.0695152,39.4786,6,0.00291002,10,0.00274436,-1.40364,0.521463,0.113143,174.423,0.0695152,
2,1,0,1,0,11048.6,0.0730667,0.0727346,40.0564,6,0.00306917,10,0.00291349,-1.39733,0.513939,0.1148,179.542,0.0727346,
2,1,0,1,0,11048.6,0.0762629,0.0758978,40.6242,6,0.00323059,10,0.00308328,-1.39122,0.51311,0.114985,182.333,0.0758978,
2,1,0,1,0,11048.6,0.0794701,0.0791171,41.2337,6,0.00339435,10,0.00326229,-1.38475,0.515497,0.114453,184.118,0.0791171,
2,1,0,1,0,11048.6,0.0826662,0.0822793,41.8059,6,0.00356048,10,0.00343976,-1.37876,0.510316,0.115615,188.676,0.08227928,
2,1,0,1,0,11048.6,0.0858624,0.0854944,42.4058,6,0.00372896,10,0.00362546,-1.37258,0.511754,0.11529,190.938,0.0854944,
2,1,0,1,0,11048.6,0.0890668,0.0886502,43.0302,6,0.0038999,10,0.00381464,-1.36623,0.505933,0.116616,195.908,0.0886502,
2,1,0,1,0,11048.6,0.092263,0.0918367,43.6623,6,0.00407334,10,0.0040098,-1.35989,0.50359,0.117159,199.682,0.0918367,
2,1,0,1,0,11048.6,0.0954674,0.0950593,44.3096,6,0.00424933,10,0.00421204,-1.3535,0.508571,0.116011,200.594,0.0950593,
2,1,0,1,0,11048.6,0.0986636,0.0982999,44.9628,6,0.00442795,10,0.00441984,-1.34715,0.50826,0.116082,203.683,0.0982999,
2,1,0,1,0,11048.6,0.10186,0.101485,45.6049,6,0.00460917,10,0.00462823,-1.34099,0.515011,0.114561,203.894,0.101485,
2,1,0,1,0,11048.6,0.105067,0.104702,46.2827,6,0.004793,10,0.00484587,-1.33458,0.52443,0.112503,203.062,0.104702,
2,1,0,1,0,11048.6,0.108263,0.107881,46.9238,6,0.00497949,10,0.00506217,-1.32861,0.531438,0.11102,203.168,0.107881,
2,1,0,1,0,11048.6,0.111465,0.111085,47.559,6,0.00516852,10,0.0052831,-1.32277,0.527657,0.111815,207.7,0.111085,
2,1,0,1,0,11048.7,0.114666,0.114266,48.2016,6,0.00536009,10,0.00550783,-1.31694,0.518722,0.113741,214.317,0.114266,
2,1,0,1,0,11048.7,0.117863,0.117468,48.9342,6,0.00555445,10,0.00574819,-1.31039,0.510929,0.115476,220.649,0.117468,
2,1,0,1,0,11048.7,0.12107,0.120667,49.6641,6,0.0057517,10,0.00599282,-1.30396,0.509947,0.115698,224.098,0.120667,
2,1,0,1,0,11048.7,0.124266,0.123914,50.3897,6,0.00595188,10,0.00624399,-1.29766,0.517113,0.114095,224.267,0.123914,
2,1,0,1,0,11048.7,0.127462,0.127142,51.087,6,0.0061549,10,0.00649529,-1.29169,0.520867,0.113273,225.895,0.127142,
2,1,0,1,0,11048.7,0.130667,0.130357,51.8248,6,0.00636079,10,0.00675573,-1.28546,0.516082,0.114323,231.361,0.130357,
2,1,0,1,0,11048.7,0.133863,0.133498,52.5626,6,0.00656963,10,0.00701699,-1.27932,0.505773,0.116653,239.458,0.133498,
2,1,0,1,0,11048.7,0.137067,0.136705,53.3489,6,0.00678149,10,0.00729304,-1.27287,0.500559,0.117868,245.524,0.136705,
2,1,0,1,0,11048.7,0.140263,0.139886,54.1386,6,0.00699656,10,0.00757323,-1.26649,0.495684,0.119028,251.594,0.139886,
2,1,0,1,0,11048.7,0.143459,0.143104,54.9546,6,0.00721482,10,0.00786423,-1.26,0.492139,0.119885,257.222,0.1431042,
2,1,0,1,0,11048.7,0.146667,0.146334,55.7921,6,0.0074364,10,0.00816429,-1.25343,0.488757,0.120714,262.901,0.1463342,
2,1,0,1,0,11048.7,0.149863,0.14949,56.6376,6,0.00766134,10,0.00846675,-1.2469,0.487564,0.12101,267.543,0.14949,
2,1,0,1,0,11048.7,0.153064,0.152688,57.5043,6,0.00788971,10,0.00878023,-1.2403,0.491671,0.119999,269.271,0.152688,
2,1,0,1,0,11048.7,0.156266,0.155917,58.3826,6,0.00812157,10,0.00910284,-1.23372,0.498686,0.118311,269.416,0.155917,
2,1,0,1,0,11048.7,0.159462,0.159128,59.2371,6,0.00835691,10,0.00942628,-1.22741,0.512089,0.115214,266.17,0.159128,
2,1,0,1,0,11048.7,0.16267,0.162323,60.095,6,0.00859564,10,0.0097548,-1.22116,0.525175,0.112344,263.277,0.162323,
2,1,0,1,0,11048.7,0.165866,0.165519,60.9196,6,0.00883777,10,0.0100833,-1.21524,0.543082,0.108639,258.105,0.165519,
2,1,0,1,0,11048.7,0.169062,0.168691,61.7456,6,0.00908316,10,0.0104159,-1.20939,0.567054,0.104047,250.464,0.168691,
2,1,0,1,0,11048.7,0.172266,0.171944,62.545,6,0.00933185,10,0.0107542,-1.20381,0.597934,0.0986732,240.486,0.171944,
2,1,0,1,0,11048.7,0.175462,0.1751,63.2951,6,0.00958361,10,0.011083,-1.19863,0.638989,0.0923333,227.724,0.1751,
2,1,0,1,0,11048.7,0.178667,0.178347,64.0044,6,0.00983829,10,0.011415,-1.19379,0.686305,0.0859676,214.404,0.178347,
2,1,0,1,0,11048.7,0.181863,0.181524,64.668,6,0.0100957,10,0.0117388,-1.18931,0.750759,0.0785871,197.996,0.181524,
2,1,0,1,0,11048.7,0.185059,0.184722,65.2846,6,0.0103557,10,0.0120595,-1.18519,0.841898,0.0700797,178.141,0.184722,
2,1,0,1,0,11048.7,0.188266,0.187927,65.8348,6,0.0106181,10,0.0123721,-1.18154,0.984258,0.0599436,153.57,0.187927,
2,1,0,1,0,11048.7,0.191463,0.191102,66.2767,6,0.0108824,10,0.0126656,-1.17864,1.2486,0.0472528,121.827,0.191102,
2,1,0,1,0,11048.8,0.194664,0.194307,66.6311,6,0.0111482,10,0.0129469,-1.17632,1.78821,0.0329939,85.4753,0.194307,
2,1,0,1,0,11048.8,0.197866,0.197538,66.846,6,0.0114153,10,0.0132046,-1.17492,3.48106,0.0169488,44.0258,0.197538,
2,1,0,1,0,11048.8,0.201062,0.200739,66.93,6,0.0116829,10,0.0134355,-1.17438,-31.5748,-0.00186858,-4.85679,0.200739,
2,1,0,1,0,11048.8,0.204269,0.203921,66.8411,6,0.0119504,10,0.0136303,-1.17496,-2.51027,-0.0235035,-60.9575,0.203921,
2,1,0,1,0,11048.8,0.207465,0.207154,66.5687,6,0.0122173,10,0.01379,-1.17673,-1.26048,-0.0468075,-120.846,0.207154,
2,1,0,1,0,11048.8,0.210662,0.210319,66.0669,6,0.0124825,10,0.0138951,-1.18002,-0.820977,-0.0718656,-184.14,0.2103191,
2,1,0,1,0,11048.8,0.213866,0.213544,65.3826,6,0.0127454,10,0.013962,-1.18454,-0.604973,-0.097525,-247.275,0.213544,
2,1,0,1,0,11048.8,0.217062,0.216732,64.4819,6,0.0130051,10,0.0139753,-1.19056,-0.477409,-0.123584,-308.989,0.216732,
2,1,0,1,0,11048.8,0.220267,0.219995,63.3933,6,0.0132608,10,0.0139462,-1.19796,-0.390693,-0.151014,-371.164,0.219995,
2,1,0,1,0,11048.8,0.223463,0.223147,62.1032,6,0.0135117,10,0.0138581,-1.20689,-0.336004,-0.175593,-422.977,0.223147,
2,1,0,1,0,11048.8,0.226659,0.226342,60.6324,6,0.0137571,10,0.0137237,-1.2173,-0.294446,-0.200376,-471.764,0.226342,
2,1,0,1,0,11048.8,0.229866,0.22959,59.0435,6,0.0139964,10,0.0135558,-1.22883,-0.266999,-0.220975,-507.071,0.22959,
2,1,0,1,0,11048.8,0.233062,0.23278,57.3622,6,0.014229,10,0.0133527,-1.24137,-0.247963,-0.237938,-530.811,0.23278,
2,1,0,1,0,11048.8,0.236264,0.235948,55.6121,6,0.0144548,10,0.0131216,-1.25483,-0.231996,-0.254314,-550.38,0.235948,
2,1,0,1,0,11048.8,0.239466,0.239161,53.8278,6,0.0146735,10,0.0128735,-1.26899,-0.223152,-0.264394,-554.506,0.239161,
2,1,0,1,0,11048.8,0.242662,0.242366,52.012,6,0.014885,10,0.0126059,-1.2839,-0.217513,-0.271248,-550.549,0.242366,
2,1,0,1,0,11048.8,0.245869,0.245566,50.272,6,0.0150894,10,0.0123451,-1.29867,-0.21486,-0.274597,-539.086,0.245566,
2,1,0,1,0,11048.8,0.249065,0.248754,48.5621,6,0.0152869,10,0.01208,-1.3137,-0.216657,-0.27232,-516.762,0.248754,
2,1,0,1,0,11048.8,0.252261,0.251944,46.9366,6,0.0154777,10,0.0118254,-1.32849,-0.218261,-0.270319,-496.063,0.2519443,
2,1,0,1,0,11048.8,0.255466,0.255188,45.3858,6,0.0156622,10,0.0115819,-1.34308,-0.223167,-0.264376,-469.354,0.255188,
2,1,0,1,0,11048.8,0.258662,0.258382,43.9144,6,0.0158406,10,0.0113467,-1.35739,-0.230351,-0.256131,-440.326,0.258382,
2,1,0,1,0,11048.8,0.261866,0.261562,42.5503,6,0.0160134,10,0.0111295,-1.3711,-0.238046,-0.247851,-412.939,0.261562,
2,1,0,1,0,11048.8,0.265063,0.26478,41.2849,6,0.0161809,10,0.0109314,-1.38421,-0.250296,-0.235721,-381.108,0.26478,
2,1,0,1,0,11048.8,0.268259,0.267979,40.1041,6,0.0163435,10,0.010747,-1.39681,-0.261482,-0.225637,-354.335,0.267979,
2,1,0,1,0,11048.8,0.271466,0.271183,39.0358,6,0.0165017,10,0.0105859,-1.40854,-0.274745,-0.214744,-328.125,0.271183,
2,1,0,1,0,11048.9,0.274662,0.274371,38.0117,6,0.0166557,10,0.0104293,-1.42008,-0.289542,-0.20377,-303.293,0.274371,
2,1,0,1,0,11048.9,0.277869,0.277552,37.0939,6,0.0168058,10,0.0102955,-1.4307,-0.307026,-0.192166,-279.135,0.277552,
2,1,0,1,0,11048.9,0.281065,0.280728,36.2373,6,0.0169523,10,0.0101728,-1.44084,-0.326914,-0.180475,-256.057,0.280728,
2,1,0,1,0,11048.9,0.284262,0.28399,35.461,6,0.0170956,10,0.0100706,-1.45025,-0.347075,-0.169992,-235.907,0.28399,
2,1,0,1,0,11048.9,0.287469,0.287126,34.7455,6,0.017236,10,0.00997636,-1.4591,-0.366972,-0.160775,-218.48,0.287126,
2,1,0,1,0,11048.9,0.290665,0.290383,34.067,6,0.0173735,10,0.00989248,-1.46767,-0.392819,-0.150196,-200.241,0.290383,
2,1,0,1,0,11048.9,0.293861,0.29353,33.4403,6,0.0175085,10,0.00981573,-1.47573,-0.414985,-0.142174,-186.413,0.29353,
2,1,0,1,0,11048.9,0.297066,0.296813,32.8932,6,0.017641,10,0.00976315,-1.48289,-0.428675,-0.137633,-178.471,0.296813,
2,1,0,1,0,11048.9,0.299637,0.299317,32.4731,6,0.0177456,10,0.00971974,-1.48848,-0.103449,-0.570331,-701.656,0.299317,
2,1,0,1,0,11048.9,0.300012,0.299727,32.3993,6,0.0177618,10,0.00971095,-1.48946,0.00734019,8.03794,8618.34,0.299727,
2,1,0,1,0,11048.9,0.298983,0.298887,29.6813,6,0.0178011,10,0.00887138,-1.52752,0.025384,2.3243,2185.28,0.298887,
2,1,0,1,0,11048.9,0.295787,0.295629,22.6846,6,0.0179046,10,0.00670623,-1.64427,0.0262144,2.25067,1856.91,0.295629,
2,1,0,1,0,11048.9,0.292579,0.29237,17.2924,6,0.0179837,10,0.00505579,-1.76214,0.025332,2.32907,1584.46,0.2923702,
2,1,0,1,0,11048.9,0.289383,0.289201,12.8521,6,0.0180433,10,0.00371682,-1.89103,0.0220782,2.67231,1302.32,0.289201,
2,1,0,1,0,11048.9,0.286187,0.285917,9.1295,6,0.0180867,10,0.00261027,-2.03955,0.0174834,3.37463,1098.38,0.285917,
2,1,0,1,0,11048.9,0.282983,0.282763,5.92913,6,0.0181164,10,0.00167654,-2.22701,0.0105994,5.56633,937.429,0.282763,
2,1,0,1,0,11048.9,0.279786,0.279528,3.18638,6,0.0181342,10,0.000890682,-2.4967,0.0150969,3.90808,816.153,0.279528,
2,1,0,1,0,11048.9,0.276582,0.276327,0.784231,6,0.0181419,10,0.000216704,-3.10556,0.0464298,1.27074,705.447,0.276327,
2,0,0,1,0,11048.9,0.273386,0.273138,-1.30012,6,0.0181405,10,-0.000355111,-2.88602,-0.0741544,-0.795637,617.329,0.273138,
2,0,0,1,0,11048.9,0.27019,0.269914,-3.1351,6,0.0181314,10,-0.000846208,-2.50375,-0.014308,-4.12357,543.278,0.269914,
2,0,0,1,0,11048.9,0.266982,0.266672,-4.7496,6,0.0181154,10,-0.00126659,-2.32334,-0.0168372,-3.50414,483.037,0.266672,
2,0,0,1,0,11048.9,0.263786,0.263489,-6.19057,6,0.0180933,10,-0.00163115,-2.20827,-0.0290748,-2.02925,430.426,0.263489,
2,0,0,1,0,11048.9,0.260585,0.260342,-7.481,6,0.0180658,10,-0.00194762,-2.12604,-0.0414427,-1.42365,384.427,0.260342,
2,0,0,1,0,11048.9,0.257383,0.257095,-8.65286,6,0.0180334,10,-0.0022246,-2.06284,-0.0545181,-1.08221,346.662,0.257095,
2,0,0,1,0,11048.9,0.254187,0.253884,-9.66584,6,0.0179966,10,-0.002454,-2.01476,-0.0694709,-0.849276,309.347,0.253884,
2,0,0,1,0,11048.9,0.25098,0.250706,-10.622,6,0.017956,10,-0.002663,-1.97379,-0.0847056,-0.69653,281.312,0.250706,
2,0,0,1,0,11048.9,0.247783,0.247451,-11.4686,6,0.0179117,10,-0.00283791,-1.94049,-0.100056,-0.589668,258.662,0.247451,
2,0,0,1,0,11049,0.244587,0.244298,-12.2528,6,0.0178642,10,-0.00299333,-1.91176,-0.118332,-0.498597,234.718,0.244298,
2,0,0,1,0,11049,0.241383,0.241086,-12.9762,6,0.0178136,10,-0.00312838,-1.88685,-0.135412,-0.435708,217.73,0.241086,
2,0,0,1,0,11049,0.238187,0.237901,-13.6274,6,0.0177603,10,-0.00324199,-1.86559,-0.155447,-0.37955,199.873,0.237901,
2,0,0,1,0,11049,0.234982,0.234722,-14.2401,6,0.0177045,10,-0.00334246,-1.84649,-0.1762,-0.334848,184.608,0.234722,
2,0,0,1,0,11049,0.231786,0.231478,-14.815,6,0.0176463,10,-0.00342936,-1.8293,-0.19387,-0.304328,174.773,0.231478,
2,0,0,1,0,11049,0.22859,0.228264,-15.3431,6,0.0175859,10,-0.00350229,-1.81409,-0.217693,-0.271024,161.327,0.228264,
2,0,0,1,0,11049,0.225383,0.22513,-15.8596,6,0.0175234,10,-0.00357046,-1.79971,-0.237486,-0.248436,152.956,0.22513,
2,0,0,1,0,11049,0.222187,0.221883,-16.3114,6,0.0174591,10,-0.00361922,-1.78751,-0.258193,-0.228512,144.928,0.221883,
2,0,0,1,0,11049,0.218979,0.218651,-16.7771,6,0.0173928,10,-0.00366833,-1.77528,-0.283747,-0.207932,135.659,0.218651,
2,0,0,1,0,11049,0.215783,0.215493,-17.1941,6,0.0173249,10,-0.0037052,-1.76462,-0.29932,-0.197114,131.875,0.215493,
2,0,0,1,0,11049,0.212587,0.212262,-17.6052,6,0.0172552,10,-0.00373692,-1.75436,-0.321455,-0.18354,125.858,0.2122618,
2,0,0,1,0,11049,0.20938,0.209064,-18.002,6,0.0171839,10,-0.00376355,-1.74468,-0.341166,-0.172937,121.208,0.2090636,
2,0,0,1,0,11049,0.206184,0.205845,-18.3888,6,0.0171111,10,-0.00378524,-1.73545,-0.356601,-0.165451,118.507,0.205845,
2,0,0,1,0,11049,0.202988,0.202687,-18.7462,6,0.0170368,10,-0.00379962,-1.72709,-0.374751,-0.157438,115.064,0.202687,
2,0,0,1,0,11049,0.199783,0.199464,-19.1219,6,0.016961,10,-0.00381412,-1.71847,-0.386506,-0.15265,113.828,0.199464,
2,0,0,1,0,11049,0.196587,0.196294,-19.4713,6,0.0168838,10,-0.0038221,-1.71061,-0.401484,-0.146955,111.549,0.196294,
2,0,0,1,0,11049,0.193382,0.193066,-19.8434,6,0.0168052,10,-0.00383109,-1.70238,-0.418569,-0.140956,108.98,0.1930663,
2,0,0,1,0,11049,0.190186,0.189914,-20.1711,6,0.0167251,10,-0.00383077,-1.69527,-0.423575,-0.13929,109.621,0.189914,
2,0,0,1,0,11049,0.18699,0.186675,-20.5156,6,0.0166437,10,-0.00382975,-1.68792,-0.42911,-0.137494,110.208,0.186675,
2,0,0,1,0,11049,0.183783,0.18348,-20.8759,6,0.0165608,10,-0.00383032,-1.68035,-0.426636,-0.138291,112.722,0.18348,
2,0,0,1,0,11049,0.180587,0.180307,-21.2495,6,0.0164766,10,-0.00383144,-1.67265,-0.425914,-0.138526,114.844,0.180307,
2,0,0,1,0,11049,0.17738,0.177085,-21.6172,6,0.0163908,10,-0.00382808,-1.6652,-0.425442,-0.138679,116.977,0.177085,
2,0,0,1,0,11049,0.174183,0.173859,-21.9874,6,0.0163036,10,-0.00382271,-1.65783,-0.416123,-0.141785,121.85,0.173859,
2,0,0,1,0,11049,0.170987,0.170724,-22.3682,6,0.0162148,10,-0.00381877,-1.65037,-0.407674,-0.144724,126.634,0.170724,
2,0,0,1,0,11049,0.16778,0.167497,-22.8105,6,0.0161244,10,-0.00382068,-1.64187,-0.387325,-0.152327,135.798,0.167497,
2,0,0,1,0,11049.1,0.164584,0.164241,-23.2436,6,0.0160323,10,-0.00381757,-1.6337,-0.37193,-0.158632,144.113,0.164241,
2,0,0,1,0,11049.1,0.161382,0.161098,-23.7203,6,0.0159383,10,-0.0038213,-1.62488,-0.359551,-0.164094,152.241,0.161098,
2,0,0,1,0,11049.1,0.158183,0.157927,-24.2124,6,0.0158424,10,-0.00382378,-1.61596,-0.338294,-0.174405,165.272,0.157927,
2,0,0,1,0,11049.1,0.154987,0.154684,-24.7611,6,0.0157445,10,-0.00383015,-1.60623,-0.322761,-0.182798,177.224,0.154684,
2,0,0,1,0,11049.1,0.151783,0.151496,-25.35,6,0.0156442,10,-0.00384044,-1.59602,-0.302673,-0.19493,193.496,0.151496,
2,0,0,1,0,11049.1,0.148587,0.148243,-25.9986,6,0.0155415,10,-0.00385411,-1.58505,-0.283984,-0.207758,211.544,0.148243,
2,0,0,1,0,11049.1,0.145385,0.145082,-26.6978,6,0.015436,10,-0.00387336,-1.57352,-0.268939,-0.219381,229.388,0.145082,
2,0,0,1,0,11049.1,0.142183,0.141896,-27.4663,6,0.0153276,10,-0.00389736,-1.5612,-0.250315,-0.235703,253.726,0.141896,
2,0,0,1,0,11049.1,0.138987,0.138689,-28.2879,6,0.015216,10,-0.00392322,-1.5484,-0.237964,-0.247937,275.008,0.138689,
2,0,0,1,0,11049.1,0.13578,0.135507,-29.2299,6,0.0151009,10,-0.00396087,-1.53417,-0.225058,-0.262155,300.185,0.135507,
2,0,0,1,0,11049.1,0.132584,0.132285,-30.2171,6,0.014982,10,-0.00399726,-1.51975,-0.214187,-0.275461,326.002,0.132285,
2,0,0,1,0,11049.1,0.129388,0.129131,-31.2982,6,0.0148588,10,-0.00404157,-1.50448,-0.206452,-0.285781,350.474,0.129131,
2,0,0,1,0,11049.1,0.12618,0.1259,-32.457,6,0.0147312,10,-0.00408634,-1.48869,-0.197912,-0.298112,379.06,0.1259,
2,0,0,1,0,11049.1,0.122984,0.122682,-33.7249,6,0.0145988,10,-0.00413744,-1.47205,-0.193008,-0.305686,403.532,0.122682,
2,0,0,1,0,11049.1,0.119783,0.119495,-35.0651,6,0.0144611,10,-0.00419011,-1.45513,-0.189553,-0.311259,426.547,0.1194953,
2,0,0,1,0,11049.1,0.116584,0.116279,-36.4844,6,0.0143179,10,-0.00424237,-1.43789,-0.189034,-0.312113,444.456,0.1162791,
2,0,0,1,0,11049.1,0.113387,0.113111,-37.9124,6,0.014169,10,-0.00428829,-1.42122,-0.191782,-0.307641,454.972,0.113111,
2,0,0,1,0,11049.1,0.110183,0.109917,-39.3985,6,0.0140142,10,-0.00433055,-1.40452,-0.196083,-0.300893,462.275,0.109917,
2,0,0,1,0,11049.1,0.106987,0.106731,-40.8724,6,0.0138535,10,-0.00436236,-1.38857,-0.201389,-0.292965,466.771,0.106731,
2,0,0,1,0,11049.1,0.103785,0.103491,-42.3962,6,0.0136868,10,-0.00438761,-1.37267,-0.21113,-0.279449,460.924,0.103491,
2,0,0,1,0,11049.1,0.100583,0.10032,-43.8827,6,0.0135141,10,-0.00440231,-1.35771,-0.220118,-0.268038,457.35,0.10032,
2,0,0,1,0,11049.1,0.0973873,0.0971918,-45.2637,6,0.0133356,10,-0.00439926,-1.34425,-0.229663,-0.256898,453.35,0.0971918,
2,0,0,1,0,11049.1,0.0941801,0.0939915,-46.6989,6,0.0131516,10,-0.0043893,-1.33069,-0.243535,-0.242265,440.946,0.0939915,
2,0,0,1,0,11049.1,0.0909839,0.0907731,-48.1617,6,0.0129617,10,-0.00437179,-1.3173,-0.25381,-0.232457,435.514,0.0907731,
2,0,0,1,0,11049.1,0.0877878,0.0875707,-49.5044,6,0.0127662,10,-0.00433514,-1.30536,-0.269718,-0.218747,421.3,0.0875707,
2,0,0,1,0,11049.2,0.0845806,0.0843492,-50.8568,6,0.0125653,10,-0.00428973,-1.29365,-0.291898,-0.202125,399.811,0.0843492,
2,0,0,1,0,11049.2,0.0813844,0.0811733,-52.0992,6,0.0123593,10,-0.00422906,-1.28317,-0.311228,-0.189571,384.108,0.0811733,
2,0,0,1,0,11049.2,0.0781828,0.077939,-53.2929,6,0.0121484,10,-0.0041536,-1.27333,-0.337147,-0.174998,362.927,0.077939,
2,0,0,1,0,11049.2,0.0749838,0.0748034,-54.4084,6,0.0119328,10,-0.00406994,-1.26433,-0.363634,-0.162251,343.679,0.0748034,
2,0,0,1,0,11049.2,0.0717877,0.0715808,-55.4908,6,0.0117129,10,-0.00397208,-1.25578,-0.389807,-0.151357,326.993,0.0715808,
2,0,0,1,0,11049.2,0.0685832,0.068336,-56.5111,6,0.0114887,10,-0.00386174,-1.24787,-0.424311,-0.139049,305.807,0.068336,
2,0,0,1,0,11049.2,0.0653871,0.0651537,-57.4736,6,0.0112607,10,-0.00374462,-1.24053,-0.467341,-0.126246,282.254,0.0651537,
2,0,0,1,0,11049.2,0.0621854,0.0619364,-58.3432,6,0.0110289,10,-0.00361357,-1.23401,-0.522166,-0.112991,256.374,0.0619364,
2,0,0,1,0,11049.2,0.0589837,0.0587149,-59.1223,6,0.0107939,10,-0.00347136,-1.22825,-0.592787,-0.0995299,228.918,0.0587149,
2,0,0,1,0,11049.2,0.0557876,0.0555157,-59.7979,6,0.0105559,10,-0.00331972,-1.22331,-0.688037,-0.0857512,199.51,0.0555157,
2,0,0,1,0,11049.2,0.0525804,0.052292,-60.4179,6,0.0103154,10,-0.00315937,-1.21883,-0.813255,-0.0725479,170.472,0.052292,
2,0,0,1,0,11049.2,0.0493842,0.0490886,-60.9065,6,0.0100727,10,-0.00298981,-1.21534,-0.977015,-0.060388,143.084,0.0490886,
2,0,0,1,0,11049.2,0.0461881,0.045883,-61.3098,6,0.00982821,10,-0.00281307,-1.21247,-1.22578,-0.0481325,114.87,0.045883,
2,0,0,1,0,11049.2,0.0429808,0.0426667,-61.6364,6,0.00958225,10,-0.00262982,-1.21016,-1.56234,-0.0377638,90.6155,0.0426667,
2,0,0,1,0,11049.2,0.0397847,0.0394728,-61.8904,6,0.00933518,10,-0.00244299,-1.20838,-2.11473,-0.0278996,67.225,0.0394728,
2,0,0,1,0,11049.2,0.036583,0.0362979,-62.0655,6,0.00908724,10,-0.00225285,-1.20715,-3.26649,-0.0180622,43.6449,0.0362979,
2,0,0,1,0,11049.2,0.0333841,0.0330414,-62.173,6,0.00883875,10,-0.00205429,-1.2064,-5.88927,-0.0100182,24.2583,0.0330414,
2,0,0,1,0,11049.2,0.030188,0.0298613,-62.1953,6,0.00859,10,-0.00185723,-1.20624,-21.001,-0.00280938,6.80974,0.0298613,
2,0,0,1,0,11049.2,0.0269835,0.0267331,-62.1995,6,0.0083412,10,-0.00166278,-1.20621,20.1266,0.00293144,-7.1077,0.0267331,
2,0,0,1,0,11049.2,0.0237874,0.0234819,-62.1528,6,0.00809248,10,-0.00145946,-1.20654,8.13557,0.00725211,-17.5712,0.0234819,
2,0,0,1,0,11049.2,0.0205857,0.020255,-62.0821,6,0.00784399,10,-0.00125748,-1.20703,5.00097,0.0117977,-28.5537,0.020255,
2,0,0,1,0,11049.2,0.017384,0.0170919,-61.9709,6,0.00759586,10,-0.0010592,-1.20781,3.80849,0.0154917,-37.4318,0.0170919,
2,0,0,1,0,11049.2,0.0141879,0.0138693,-61.8322,6,0.00734826,10,-0.000857567,-1.20879,3.0991,0.0190378,-45.9088,0.0138693,
2,0,0,1,0,11049.2,0.0109806,0.0106531,-61.6726,6,0.00710125,10,-0.000657002,-1.20991,2.67025,0.0220953,-53.1444,0.0106531,
2,0,0,1,0,11049.2,0.00778448,0.00752911,-61.4979,6,0.00685492,10,-0.000463024,-1.21114,2.71752,0.021711,-52.1066,0.00752911,
2,0,0,1,0,11049.3,0.00458834,0.00429805,-61.291,6,0.00660933,10,-0.000263432,-1.2126,2.31235,0.0255152,-61.0206,0.004298049,
2,0,0,1,0,11049.3,0.0013811,0.00100443,-61.1618,6,0.00636448,10,-6.14325e-05,-1.21352,2.08468,0.0283017,-67.4447,0.00100443,
2,0,0,1,0,11049.3,-0.00181504,-0.00220861,-60.8878,6,0.00612043,10,0.000134477,-1.21547,1.85772,0.0317594,-75.3674,-0.00220861,
2,0,0,1,0,11049.3,-0.0050195,-0.00536544,-60.6282,6,0.00587745,10,0.000325297,-1.21732,1.55058,0.0380504,-89.969,-0.00536544,
2,0,0,1,0,11049.3,-0.00821564,-0.008535,-60.3238,6,0.00563557,10,0.000514863,-1.21951,1.44165,0.0409253,-96.2642,-0.008535,
2,0,0,1,0,11049.3,-0.0114118,-0.0117618,-60.0132,6,0.00539493,10,0.000705865,-1.22175,1.28647,0.0458619,-107.279,-0.0117618,
2,0,0,1,0,11049.3,-0.0146162,-0.014978,-59.6585,6,0.00515561,10,0.000893567,-1.22433,1.17831,0.0500716,-116.417,-0.014978,
2,0,0,1,0,11049.3,-0.0178124,-0.0181953,-59.2519,6,0.00491781,10,0.00107811,-1.2273,1.06762,0.055263,-127.658,-0.0181953,
2,0,0,1,0,11049.3,-0.0210196,-0.0213543,-58.8314,6,0.00468168,10,0.0012563,-1.23039,0.961676,0.0613513,-140.68,-0.0213543,
2,0,0,1,0,11049.3,-0.0242158,-0.0246002,-58.3743,6,0.00444732,10,0.00143602,-1.23378,0.898803,0.0656429,-149.332,-0.0246002,
2,0,0,1,0,11049.3,-0.0274119,-0.0277559,-57.8609,6,0.00421487,10,0.00160598,-1.23761,0.818196,0.0721098,-162.615,-0.0277559,
2,0,0,1,0,11049.3,-0.0306191,-0.0309965,-57.3403,6,0.0039845,10,0.00177735,-1.24154,0.769574,0.0766658,-171.359,-0.0309965,
2,0,0,1,0,11049.3,-0.0338153,-0.0341672,-56.7479,6,0.00375637,10,0.00193891,-1.24605,0.73583,0.0801816,-177.472,-0.0341672,
2,0,0,1,0,11049.3,-0.037017,-0.0373876,-56.1831,6,0.00353057,10,0.00210055,-1.25039,0.707769,0.0833606,-182.71,-0.0373876,
2,0,0,1,0,11049.3,-0.0402187,-0.0405943,-55.5825,6,0.00330709,10,0.00225633,-1.25506,0.700541,0.0842207,-182.648,-0.04059428,
2,0,0,1,0,11049.3,-0.0434148,-0.0438126,-54.9986,6,0.003086,10,0.00240963,-1.25965,0.68567,0.0860472,-184.683,-0.0438126,
2,0,0,1,0,11049.3,-0.0466193,-0.0469864,-54.4064,6,0.00286727,10,0.00255636,-1.26435,0.686315,0.0859663,-182.538,-0.0469864,
2,0,0,1,0,11049.3,-0.0498154,-0.050157,-53.8248,6,0.00265088,10,0.00269969,-1.26902,0.70557,0.0836203,-175.797,-0.050157,
2,0,0,1,0,11049.3,-0.0530115,-0.0533732,-53.2499,6,0.00243679,10,0.00284212,-1.27368,0.731743,0.0806294,-167.806,-0.05337324,
2,0,0,1,0,11049.3,-0.056216,-0.0565799,-52.7542,6,0.00222485,10,0.00298483,-1.27774,0.786334,0.0750317,-154.693,-0.0565799,
2,0,0,1,0,11049.3,-0.0594121,-0.0597622,-52.2626,6,0.00201487,10,0.00312333,-1.28181,0.841018,0.0701531,-143.266,-0.0597622,
2,0,0,1,0,11049.3,-0.0626194,-0.0629657,-51.8434,6,0.00180672,10,0.00326435,-1.28531,0.898952,0.065632,-132.928,-0.0629657,
2,0,0,1,0,11049.3,-0.0658155,-0.0661692,-51.4166,6,0.00160024,10,0.0034022,-1.2889,0.997333,0.0591578,-118.896,-0.06616918,
2,0,0,1,0,11049.3,-0.0690117,-0.0694151,-51.048,6,0.00139536,10,0.0035435,-1.29202,1.11384,0.0529699,-105.761,-0.0694151,
2,0,0,1,0,11049.3,-0.0722189,-0.0725603,-50.741,6,0.00119182,10,0.00368178,-1.29464,1.29,0.0457364,-90.7349,-0.0725603,
2,0,0,1,0,11049.4,-0.075415,-0.0758263,-50.4832,6,0.000989391,10,0.00382796,-1.29685,1.50227,0.0392739,-77.4814,-0.0758263,
2,0,0,1,0,11049.4,-0.0786167,-0.0789768,-50.2545,6,0.000787965,10,0.00396894,-1.29882,1.73075,0.0340892,-66.9346,-0.0789768,
2,0,0,1,0,11049.4,-0.0818184,-0.0822036,-50.0572,6,0.000587361,10,0.00411488,-1.30053,2.1605,0.0273085,-53.439,-0.0822036,
2,0,0,1,0,11049.4,-0.0850146,-0.0853456,-49.8852,6,0.000387491,10,0.00425748,-1.30203,2.7813,0.0212131,-41.3854,-0.0853456,
2,0,0,1,0,11049.4,-0.088219,-0.0885872,-49.8013,6,0.000188147,10,0.00441176,-1.30276,4.02294,0.0146659,-28.5463,-0.0885872,
2,0,0,1,0,11049.4,-0.0914152,-0.09176,-49.7255,6,-1.08851e-05,10,0.00456281,-1.30342,6.81567,0.00865653,-16.8166,-0.09176,
2,0,0,1,0,11049.4,-0.0946141,-0.0949889,-49.6922,6,-0.000209703,10,0.00472021,-1.30371,12.7449,0.00462929,-8.98708,-0.09498892,
2,0,0,1,0,11049.4,-0.0978158,-0.0981882,-49.6692,6,-0.000408446,10,0.00487693,-1.30391,-63.6479,-0.000926975,1.79933,-0.0981882,
2,0,0,1,0,11049.4,-0.101012,-0.101353,-49.6866,6,-0.000607156,10,0.00503591,-1.30376,-10.0534,-0.00586869,11.398,-0.101353,
2,0,0,1,0,11049.4,-0.104219,-0.104564,-49.7485,6,-0.000806014,10,0.00520193,-1.30322,-5.24913,-0.01124,21.849,-0.1045644,
2,0,0,1,0,11049.4,-0.107415,-0.107799,-49.8382,6,-0.00100521,10,0.00537249,-1.30244,-3.64134,-0.0162028,31.5466,-0.107799,
2,0,0,1,0,11049.4,-0.110611,-0.110942,-49.9479,6,-0.00120479,10,0.0055413,-1.30148,-3.01039,-0.0195988,38.2383,-0.110942,
2,0,0,1,0,11049.4,-0.113819,-0.114152,-50.0903,6,-0.00140491,10,0.00571788,-1.30025,-2.49406,-0.0236562,46.2844,-0.114152,
2,0,0,1,0,11049.4,-0.117015,-0.117351,-50.2375,6,-0.00160558,10,0.00589541,-1.29897,-2.13131,-0.0276825,54.3376,-0.117351,
2,0,0,1,0,11049.4,-0.120216,-0.120575,-50.4296,6,-0.00180691,10,0.00608057,-1.29731,-1.88479,-0.0313032,61.6748,-0.120575,
2,0,0,1,0,11049.4,-0.123418,-0.123776,-50.6452,6,-0.00200909,10,0.00626865,-1.29546,-1.69531,-0.0348019,68.828,-0.123776,
2,0,0,1,0,11049.4,-0.126614,-0.126957,-50.8801,6,-0.00221215,10,0.00645958,-1.29345,-1.58053,-0.0373293,74.1584,-0.126957,
2,0,0,1,0,11049.4,-0.129819,-0.130119,-51.1163,6,-0.00241618,10,0.00665121,-1.29144,-1.48436,-0.0397478,79.3454,-0.130119,
2,0,0,1,0,11049.4,-0.133015,-0.133395,-51.3802,6,-0.00262119,10,0.00685385,-1.2892,-1.39451,-0.0423088,84.9074,-0.133395,
2,0,0,1,0,11049.4,-0.136214,-0.13654,-51.658,6,-0.00282728,10,0.00705338,-1.28686,-1.31915,-0.0447257,90.2346,-0.13654,
2,0,0,1,0,11049.4,-0.139416,-0.139773,-51.9683,6,-0.00303458,10,0.00726376,-1.28426,-1.25298,-0.0470876,95.5372,-0.139773,
2,0,0,1,0,11049.4,-0.142612,-0.143005,-52.2791,6,-0.0032431,10,0.00747618,-1.28167,-1.23672,-0.0477068,97.3359,-0.143005,
2,0,0,1,0,11049.4,-0.145819,-0.146166,-52.6004,6,-0.00345288,10,0.0076884,-1.27901,-1.2073,-0.0488694,100.332,-0.146166,
2,0,0,1,0,11049.4,-0.149015,-0.149355,-52.9054,6,-0.00366393,10,0.00790168,-1.2765,-1.17727,-0.0501157,103.535,-0.149355,
2,0,0,1,0,11049.4,-0.152211,-0.152544,-53.2495,6,-0.00387627,10,0.00812287,-1.27368,-1.1666,-0.0505745,105.141,-0.152544,
2,0,0,1,0,11049.5,-0.155418,-0.155748,-53.5984,6,-0.00409002,10,0.00834785,-1.27085,-1.15297,-0.0511721,107.018,-0.155748,
2,0,0,1,0,11049.5,-0.158615,-0.158948,-53.9443,6,-0.00430515,10,0.00857436,-1.26805,-1.14425,-0.0515622,108.546,-0.158948,
2,0,0,1,0,11049.5,-0.161816,-0.162153,-54.275,6,-0.00452162,10,0.00880085,-1.2654,-1.16239,-0.0507576,107.529,-0.162153,
2,0,0,1,0,11049.5,-0.165018,-0.165336,-54.6381,6,-0.00473948,10,0.00903367,-1.2625,-1.1473,-0.0514249,109.663,-0.165336,
2,0,0,1,0,11049.5,-0.168214,-0.168524,-54.9722,6,-0.00495873,10,0.00926412,-1.25986,-1.15317,-0.0511635,109.772,-0.168524,
2,0,0,1,0,11049.5,-0.171419,-0.171715,-55.3443,6,-0.00517939,10,0.00950342,-1.25693,-1.17737,-0.0501115,108.201,-0.171715,
2,0,0,1,0,11049.5,-0.174615,-0.174964,-55.6813,6,-0.00540146,10,0.0097422,-1.25429,-1.18289,-0.049878,108.35,-0.174964,
2,0,0,1,0,11049.5,-0.177814,-0.178107,-56.0199,6,-0.0056249,10,0.00997753,-1.25166,-1.21475,-0.0485698,106.191,-0.1781068,
2,0,0,1,0,11049.5,-0.181015,-0.181307,-56.3572,6,-0.00584971,10,0.010218,-1.24905,-1.21249,-0.0486602,107.039,-0.181307,
2,0,0,1,0,11049.5,-0.184211,-0.184532,-56.7053,6,-0.00607586,10,0.0104639,-1.24638,-1.20668,-0.0488946,108.218,-0.184532,
2,0,0,1,0,11049.5,-0.187419,-0.187776,-57.0526,6,-0.00630343,10,0.0107131,-1.24372,-1.23118,-0.0479215,106.675,-0.187776,
2,0,0,1,0,11049.5,-0.190615,-0.190949,-57.4097,6,-0.0065324,10,0.0109623,-1.24101,-1.24181,-0.0475112,106.402,-0.190949,
2,0,0,1,0,11049.5,-0.193811,-0.194137,-57.7259,6,-0.0067627,10,0.0112067,-1.23863,-1.27048,-0.0464391,104.549,-0.194137,
2,0,0,1,0,11049.5,-0.197018,-0.197342,-58.0683,6,-0.00699434,10,0.0114593,-1.23606,-1.43899,-0.041001,92.5701,-0.197342,
2,0,0,1,0,11049.5,-0.199647,-0.199941,-58.3245,6,-0.0071864,10,0.0116614,-1.23415,0.290945,0.202788,-447.352,-0.199941,
2,0,0,1,0,11049.5,-0.200134,-0.200513,-58.295,6,-0.00722141,10,0.0116889,-1.23437,-0.0143469,-4.11239,8518.18,-0.200513,
2,0,0,1,1,11049.5,-0.198935,-0.199467,-55.3417,6,-0.00730574,10,0.0110388,-1.25695,-0.0516255,-1.14285,2235.35,-0.199467,
2,0,0,1,1,11049.5,-0.195739,-0.196204,-48.3763,6,-0.00751197,10,0.0094916,-1.31537,-0.0570655,-1.0339,1908.9,-0.196204,
2,0,0,1,1,11049.5,-0.192535,-0.19296,-42.7202,6,-0.00769334,10,0.00824329,-1.36937,-0.0589065,-1.00159,1698.81,-0.1929599,
2,0,0,1,1,11049.5,-0.189339,-0.189776,-37.798,6,-0.00785373,10,0.00717313,-1.42253,-0.0596063,-0.989829,1472.71,-0.189776,
2,0,0,1,1,11049.5,-0.186137,-0.186559,-33.4147,6,-0.00799559,10,0.00623382,-1.47606,-0.0585067,-1.00843,1320.21,-0.186559,
2,0,0,1,1,11049.5,-0.182935,-0.183341,-29.4332,6,-0.00812077,10,0.00539631,-1.53116,-0.0563541,-1.04695,1201.81,-0.183341,
2,0,0,1,1,11049.5,-0.179739,-0.180135,-25.7891,6,-0.00823075,10,0.00464552,-1.58856,-0.0533332,-1.10625,1107.91,-0.180135,
2,0,0,1,1,11049.5,-0.176532,-0.176939,-22.3713,6,-0.00832666,10,0.00395835,-1.65031,-0.0495424,-1.1909,1031.3,-0.176939,
2,0,0,1,1,11049.5,-0.173336,-0.17374,-19.2122,6,-0.00840945,10,0.00333792,-1.71642,-0.0452864,-1.30282,963.659,-0.17374,
2,0,0,1,1,11049.5,-0.17014,-0.170552,-16.2444,6,-0.00848002,10,0.00277053,-1.7893,-0.0405593,-1.45466,902.704,-0.170552,
2,0,0,1,1,11049.5,-0.166932,-0.167328,-13.4469,6,-0.00853908,10,0.00225004,-1.87138,-0.0350962,-1.6811,853.083,-0.167328,
2,0,0,1,1,11049.6,-0.163736,-0.16414,-10.8175,6,-0.00858731,10,0.00177558,-1.96588,-0.029182,-2.02179,806.935,-0.16414,
2,0,0,1,1,11049.6,-0.160532,-0.16095,-8.30159,6,-0.00862526,10,0.00133614,-2.08084,-0.0225509,-2.61631,766.999,-0.16095,
2,0,0,1,1,11049.6,-0.157336,-0.157755,-5.9181,6,-0.00865343,10,0.000933612,-2.22782,-0.0147906,-3.98902,730.806,-0.157755,
2,0,0,1,1,11049.6,-0.154139,-0.154553,-3.6487,6,-0.0086723,10,0.000563918,-2.43786,-0.0110213,-5.35327,696.048,-0.154553,
2,0,0,1,1,11049.6,-0.150935,-0.151363,-1.48004,6,-0.00868232,10,0.000224024,-2.82973,-0.0351865,-1.67678,664.552,-0.151363,
2,1,0,1,1,11049.6,-0.147739,-0.148194,0.577697,6,-0.00868388,10,-8.56111e-05,-3.2383,0.14426,0.408985,636.823,-0.148194,
2,1,0,1,1,11049.6,-0.144532,-0.144988,2.56646,6,-0.00867739,10,-0.000372107,-2.59067,0.0203023,2.90608,609.164,-0.144988,
2,1,0,1,1,11049.6,-0.141335,-0.141801,4.47237,6,-0.00866308,10,-0.000634184,-2.34946,0.0111609,5.28629,585.38,-0.141801,
2,1,0,1,1,11049.6,-0.138139,-0.138593,6.29926,6,-0.00864134,10,-0.000873033,-2.20071,0.0220804,2.67205,560.405,-0.138593,
2,1,0,1,1,11049.6,-0.134932,-0.135422,8.0539,6,-0.00861242,10,-0.00109068,-2.09399,0.031576,1.86851,538.848,-0.135422,
2,1,0,1,1,11049.6,-0.131736,-0.132212,9.72606,6,-0.00857669,10,-0.00128591,-2.01206,0.0407472,1.44795,521.701,-0.132212,
2,1,0,1,1,11049.6,-0.12854,-0.129015,11.3617,6,-0.00853433,10,-0.00146584,-1.94456,0.0502589,1.17392,502.017,-0.129015,
2,1,0,1,1,11049.6,-0.125333,-0.125828,12.9589,6,-0.00848552,10,-0.00163058,-1.88743,0.0595123,0.991392,486.912,-0.125828,
2,1,0,1,1,11049.6,-0.122136,-0.122607,14.4873,6,-0.00843046,10,-0.00177624,-1.83901,0.0697439,0.845953,467.158,-0.122607,
2,1,0,1,1,11049.6,-0.118932,-0.11942,15.955,6,-0.00836943,10,-0.00190534,-1.7971,0.0801713,0.735924,450.167,-0.11942,
2,1,0,1,1,11049.6,-0.115736,-0.116174,17.3607,6,-0.00830263,10,-0.00201686,-1.76043,0.0907311,0.650273,434.692,-0.116174,
2,1,0,1,1,11049.6,-0.11254,-0.112977,18.744,6,-0.00823029,10,-0.00211763,-1.72714,0.102105,0.577836,417.609,-0.1129766,
2,1,0,1,1,11049.6,-0.109335,-0.109757,20.0731,6,-0.00815248,10,-0.00220316,-1.69739,0.112926,0.522465,404.753,-0.109757,
2,1,0,1,1,11049.6,-0.106139,-0.106519,21.3425,6,-0.0080695,10,-0.00227338,-1.67075,0.124597,0.473526,390.85,-0.106519,
2,1,0,1,1,11049.6,-0.102932,-0.10331,22.5674,6,-0.00798154,10,-0.00233144,-1.64652,0.137349,0.429564,375.425,-0.10331,
2,1,0,1,1,11049.6,-0.0997357,-0.100162,23.7528,6,-0.00788876,10,-0.00237911,-1.62429,0.148972,0.396049,364.775,-0.100162,
2,1,0,1,1,11049.6,-0.0965395,-0.0969337,24.8873,6,-0.00779135,10,-0.00241242,-1.60402,0.161669,0.364944,352.543,-0.0969337,
2,1,0,1,1,11049.6,-0.0933323,-0.0937196,26.0113,6,-0.00768943,10,-0.00243777,-1.58484,0.174975,0.337191,340.475,-0.0937196,
2,1,0,1,1,11049.6,-0.0901362,-0.0905246,27.0748,6,-0.00758314,10,-0.00245093,-1.56743,0.187845,0.314088,330.283,-0.0905246,
2,1,0,1,1,11049.6,-0.0869345,-0.0873476,28.1156,6,-0.00747268,10,-0.00245583,-1.55105,0.202592,0.291226,318.138,-0.0873476,
2,1,0,1,1,11049.7,-0.0837328,-0.084142,29.1122,6,-0.00735811,10,-0.00244956,-1.53592,0.216848,0.27208,307.92,-0.084142,
2,1,0,1,1,11049.7,-0.0805366,-0.080965,30.069,6,-0.00723966,10,-0.00243454,-1.52188,0.233758,0.252398,295.25,-0.080965,
2,1,0,1,1,11049.7,-0.0773322,-0.0777393,31.0116,6,-0.0071174,10,-0.00241082,-1.50848,0.250007,0.235993,284.629,-0.0777393,
2,1,0,1,1,11049.7,-0.074136,-0.0744891,31.9121,6,-0.00699147,10,-0.0023771,-1.49605,0.266344,0.221518,274.986,-0.0744891,
2,1,0,1,1,11049.7,-0.0709371,-0.0712973,32.7682,6,-0.00686201,10,-0.00233628,-1.48455,0.282976,0.208499,265.962,-0.0712973,
2,1,0,1,1,11049.7,-0.0677354,-0.0680768,33.6131,6,-0.00672913,10,-0.00228828,-1.47349,0.298468,0.197676,258.693,-0.0680768,
2,1,0,1,1,11049.7,-0.0645393,-0.0649306,34.4183,6,-0.00659298,10,-0.0022348,-1.46321,0.317221,0.18599,249.222,-0.0649306,
2,1,0,1,1,11049.7,-0.0613321,-0.0617526,35.2069,6,-0.00645366,10,-0.00217412,-1.45337,0.337928,0.174593,239.265,-0.0617526,
2,1,0,1,1,11049.7,-0.0581359,-0.05853,35.9501,6,-0.00631125,10,-0.00210416,-1.4443,0.361095,0.163392,228.709,-0.05853,
2,1,0,1,1,11049.7,-0.0549398,-0.0553414,36.6603,6,-0.00616595,10,-0.00202883,-1.4358,0.384647,0.153387,219.045,-0.0553414,
2,1,0,1,1,11049.7,-0.0517325,-0.0520902,37.355,6,-0.00601782,10,-0.00194583,-1.42765,0.404205,0.145966,212.415,-0.0520902,
2,1,0,1,1,11049.7,-0.0485364,-0.0489471,38.0119,6,-0.00586702,10,-0.00186057,-1.42008,0.430586,0.137023,202.917,-0.0489471,
2,1,0,1,1,11049.7,-0.0453347,-0.0457765,38.6591,6,-0.00571359,10,-0.00176968,-1.41275,0.459669,0.128353,193.233,-0.0457765,
2,1,0,1,1,11049.7,-0.042133,-0.0425263,39.2607,6,-0.00555769,10,-0.00166961,-1.40604,0.486057,0.121385,185.651,-0.0425263,
2,1,0,1,1,11049.7,-0.0389369,-0.0393218,39.8223,6,-0.00539945,10,-0.00156588,-1.39987,0.521676,0.113097,175.558,-0.0393218,
2,1,0,1,1,11049.7,-0.0357324,-0.036131,40.3912,6,-0.00523897,10,-0.00145938,-1.39371,0.553176,0.106657,167.86,-0.036131,
2,1,0,1,1,11049.7,-0.0325363,-0.0329487,40.9111,6,-0.0050763,10,-0.00134797,-1.38816,0.585241,0.100813,160.683,-0.0329487,
2,1,0,1,1,11049.7,-0.0293374,-0.0297092,41.4121,6,-0.00491161,10,-0.00123032,-1.38287,0.63158,0.0934165,150.743,-0.0297092,
2,1,0,1,1,11049.7,-0.0261357,-0.0265418,41.8758,6,-0.00474494,10,-0.00111146,-1.37804,0.677434,0.0870933,142.133,-0.0265418,
2,1,0,1,1,11049.7,-0.0229395,-0.0233425,42.319,6,-0.0045765,10,-0.000987832,-1.37346,0.727687,0.0810788,133.73,-0.0233425,
2,1,0,1,1,11049.7,-0.0197323,-0.0201189,42.7347,6,-0.00440635,10,-0.000859774,-1.36922,0.780768,0.0755667,125.858,-0.0201189,
2,1,0,1,1,11049.7,-0.0165361,-0.0168995,43.1252,6,-0.00423459,10,-0.000728793,-1.36527,0.840693,0.0701802,117.969,-0.0168995,
2,1,0,1,1,11049.7,-0.01334,-0.0137405,43.4869,6,-0.00406132,10,-0.000597534,-1.36164,0.915626,0.0644368,109.211,-0.0137405,
2,1,0,1,1,11049.7,-0.0101328,-0.0105116,43.8326,6,-0.00388663,10,-0.000460751,-1.3582,0.99023,0.0595821,101.785,-0.0105116,
2,1,0,1,1,11049.7,-0.00693663,-0.00735582,44.1285,6,-0.00371065,10,-0.000324602,-1.35528,1.06898,0.055193,94.9483,-0.00735582,
2,1,0,1,1,11049.8,-0.00373494,-0.00411204,44.4268,6,-0.00353351,10,-0.000182684,-1.35236, , , ,-0.00411204,
2,1,0,1,1,11049.8,-0.000774628,-0.00119698,44.6779,6,-0.00336865,10,-5.34785e-05,-1.34991, , , ,-0.00119698,
2,1,0,0,1,11049.8,-0.000125413,-0.000478022,44.7536,6,-0.00333289,10,-2.13932e-05,-1.34917, , , ,-0.000478022,