File: Figure_codes/Fig_3-5/rawdata_trumpetplot_data/after 10th/20221101_1-115_003_TrumpetPlot_ParaChange_from10_every3_05_CV_C01_29.csv
mode,ox/red,error,control changes,counter inc.,time/s,control/V,Ewe/V,<I>/mA,cycle number,(Q-Qo)/C,I Range,P/W,log(|I|),Tafel slope mV/dec,alpha_eff,dI/d(E-IR),E-IR/V,
2,0,0,1,0,58253.8,2.44065e-05,-0.000401673,-0.746238,30,0.0000000E+000,10,2.99744e-07,-3.12712, , , ,-0.000401673,
2,0,0,1,0,58253.9,0.00129787,0.000896011,-0.0253752,30,-1.7937e-05,10,-2.27365e-08,-4.59559, , , ,0.000896011,
2,1,0,1,0,58253.9,0.00279606,0.00243918,0.32052,30,-4.18351e-06,10,7.81806e-07,-3.49415,0.0107676,5.47941,179.613,0.00243918,
2,1,0,1,0,58254,0.00429425,0.0039461,0.472417,30,2.71867e-05,10,1.8642e-06,-3.32567,0.0099441,5.93317,89.1978,0.0039461,
2,1,0,1,0,58254.1,0.00579244,0.00546861,0.562052,30,6.74849e-05,10,3.07365e-06,-3.25022,0.0228671,2.58012,53.5593,0.00546861,
2,1,0,1,0,58254.2,0.00729063,0.00693225,0.628946,30,0.000113401,10,4.36001e-06,-3.20139,0.0371042,1.59012,37.9432,0.00693225,
2,1,0,1,0,58254.2,0.00878882,0.00843806,0.67824,30,0.000163565,10,5.72303e-06,-3.16862,0.0536138,1.10046,28.6276,0.00843806,
2,1,0,1,0,58254.3,0.010287,0.00994171,0.715475,30,0.000216879,10,7.11305e-06,-3.14541,0.0707687,0.833702,22.986,0.00994171,
2,1,0,1,0,58254.4,0.0117852,0.0114094,0.74467,30,0.000272726,10,8.49622e-06,-3.12804,0.0885708,0.666134,19.2739,0.0114094,
2,1,0,1,0,58254.5,0.0132847,0.012896,0.773192,30,0.000330758,10,9.97106e-06,-3.11171,0.0962476,0.613002,18.4577,0.012896,
2,1,0,1,0,58254.5,0.0147802,0.0144056,0.797563,30,0.000390659,10,1.14894e-05,-3.09823,0.109963,0.536545,16.6538,0.0144056,
2,1,0,1,0,58254.6,0.0162798,0.0159409,0.82083,30,0.000452576,10,1.30848e-05,-3.08575,0.134834,0.437576,13.9865,0.0159409,
2,1,0,1,0,58254.7,0.017778,0.0174337,0.841495,30,0.000515994,10,1.46703e-05,-3.07495,0.148352,0.397702,13.0359,0.0174337,
2,1,0,1,0,58254.8,0.0192761,0.0189317,0.859583,30,0.000580787,10,1.62733e-05,-3.06571,0.155992,0.378224,12.6761,0.0189317,
2,1,0,1,0,58254.8,0.0207743,0.0203972,0.878682,30,0.000647042,10,1.79226e-05,-3.05617,0.148608,0.397018,13.6129,0.02039717,
2,1,0,1,0,58254.9,0.0222725,0.0219274,0.898747,30,0.000714787,10,1.97072e-05,-3.04636,0.16262,0.362809,12.7176,0.02192742,
2,1,0,1,0,58255,0.0237707,0.0234111,0.915088,30,0.000783958,10,2.14232e-05,-3.03854,0.177309,0.332753,11.8909,0.0234111,
2,1,0,1,0,58255.1,0.0252689,0.0249019,0.93174,30,0.000854373,10,2.32021e-05,-3.03071,0.182129,0.323946,11.8338,0.0249019,
2,1,0,1,0,58255.1,0.0267671,0.0263997,0.952853,30,0.0009261,10,2.5155e-05,-3.02097,0.170783,0.345468,12.8569,0.0263997,
2,1,0,1,0,58255.2,0.0282653,0.0279241,0.972199,30,0.00099926,10,2.71478e-05,-3.01224,0.181222,0.325568,12.3314,0.0279241,
2,1,0,1,0,58255.3,0.0297644,0.0294223,0.987067,30,0.00107395,10,2.90417e-05,-3.00565,0.195964,0.301075,11.5862,0.0294223,
2,1,0,1,0,58255.4,0.0312599,0.0308851,1.00326,30,0.0011497,10,3.09858e-05,-2.99859,0.195457,0.301857,11.839,0.03088508,
2,1,0,1,0,58255.4,0.0327599,0.0323469,1.02432,30,0.00122689,10,3.31336e-05,-2.98956,0.195815,0.301305,12.0556,0.0323469,
2,1,0,1,0,58255.5,0.034258,0.0338634,1.04016,30,0.00130537,10,3.52235e-05,-2.9829,0.189918,0.310661,12.6364,0.0338634,
2,1,0,1,0,58255.6,0.0357562,0.0354115,1.06088,30,0.00138525,10,3.75675e-05,-2.97433,0.227626,0.259197,10.6972,0.0354115,
2,1,0,1,0,58255.7,0.0372544,0.0369067,1.07602,30,0.00146643,10,3.97123e-05,-2.96818,0.214015,0.275681,11.6022,0.0369067,
2,1,0,1,0,58255.7,0.0387526,0.0384253,1.09359,30,0.00154873,10,4.20217e-05,-2.96114,0.203518,0.289901,12.4119,0.0384253,
2,1,0,1,0,58255.8,0.0402508,0.0399088,1.11165,30,0.00163251,10,4.43644e-05,-2.95403,0.197587,0.298603,12.9572,0.0399088,
2,1,0,1,0,58255.9,0.041749,0.0413993,1.13209,30,0.00171782,10,4.68678e-05,-2.94612,0.225151,0.262047,11.5581,0.0413993,
2,1,0,1,0,58256,0.0432472,0.0428545,1.15038,30,0.00180441,10,4.92991e-05,-2.93916,0.233486,0.252691,11.3283,0.0428545,
2,1,0,1,0,58256,0.0447449,0.0443832,1.16552,30,0.00189208,10,5.17294e-05,-2.93348,0.239824,0.246013,11.1854,0.0443832,
2,1,0,1,0,58256.1,0.0462445,0.0459136,1.18324,30,0.00198119,10,5.4327e-05,-2.92693,0.219184,0.269181,12.4119,0.0459136,
2,1,0,1,0,58256.2,0.04774,0.0473527,1.19825,30,0.00207145,10,5.67405e-05,-2.92145,0.235887,0.25012,11.7095,0.0473527,
2,1,0,1,0,58256.3,0.0492399,0.0488648,1.21629,30,0.00216322,10,5.9434e-05,-2.91496,0.289733,0.203636,9.67239,0.0488648,
2,1,0,1,0,58256.3,0.0507381,0.0503886,1.23191,30,0.00225604,10,6.20744e-05,-2.90942,0.261026,0.226031,10.8676,0.0503886,
2,1,0,1,0,58256.4,0.0522363,0.0518976,1.24758,30,0.00235005,10,6.47466e-05,-2.90393,0.249149,0.236806,11.5476,0.0518976,
2,1,0,1,0,58256.5,0.0537345,0.0533458,1.26734,30,0.00244541,10,6.76073e-05,-2.89711,0.268028,0.220127,10.8552,0.0533458,
2,1,0,1,0,58256.6,0.0552327,0.054872,1.28295,30,0.00254203,10,7.0398e-05,-2.89179,0.291765,0.202218,10.1021,0.054872,
2,1,0,1,0,58256.6,0.0567309,0.0563683,1.29494,30,0.00263967,10,7.29935e-05,-2.88775,0.316099,0.18665,9.43742,0.0563683,
2,1,0,1,0,58256.7,0.0582291,0.0578654,1.31161,30,0.0027383,10,7.58966e-05,-2.8822,0.311104,0.189647,9.69718,0.0578654,
2,1,0,1,0,58256.8,0.0597291,0.059376,1.32657,30,0.00283832,10,7.87662e-05,-2.87727,0.299061,0.197284,10.1975,0.059376,
2,1,0,1,0,58256.9,0.0612246,0.0608615,1.34044,30,0.00293918,10,8.15808e-05,-2.87275,0.359923,0.163924,8.55801,0.0608615,
2,1,0,1,0,58256.9,0.0627241,0.0623726,1.35484,30,0.00304138,10,8.45048e-05,-2.86811,0.330122,0.178722,9.44761,0.0623726,
2,1,0,1,0,58257,0.0642218,0.0638842,1.36816,30,0.00314431,10,8.74037e-05,-2.86386,0.336481,0.175344,9.36663,0.0638842,
2,1,0,1,0,58257.1,0.06572,0.0653371,1.38149,30,0.00324841,10,9.02624e-05,-2.85965,0.311667,0.189305,10.1887,0.0653371,
2,1,0,1,0,58257.2,0.0672182,0.0668766,1.39785,30,0.00335367,10,9.34838e-05,-2.85454,0.386149,0.152791,8.31033,0.0668766,
2,1,0,1,0,58257.2,0.0687164,0.0683795,1.40927,30,0.00345985,10,9.6365e-05,-2.85101,0.480985,0.122665,6.73477,0.0683795,
2,1,0,1,0,58257.3,0.0702146,0.0698612,1.41797,30,0.00356668,10,9.9061e-05,-2.84833,0.444774,0.132652,7.35162,0.0698612,
2,1,0,1,0,58257.4,0.0717128,0.0713467,1.43027,30,0.00367442,10,0.000102045,-2.84458,0.389163,0.151608,8.45009,0.0713467,
2,1,0,1,0,58257.5,0.073211,0.0728089,1.44014,30,0.00378307,10,0.000104855,-2.8416,0.490748,0.120225,6.76332,0.0728089,
2,1,0,1,0,58257.5,0.0747092,0.0743485,1.45238,30,0.00389255,10,0.000107982,-2.83792,0.51955,0.11356,6.4283,0.0743485,
2,1,0,1,0,58257.6,0.0762087,0.0758006,1.45691,30,0.00400283,10,0.000110435,-2.83657,0.538209,0.109623,6.25654,0.0758006,
2,1,0,1,0,58257.7,0.0777042,0.077309,1.47024,30,0.00411353,10,0.000113663,-2.83261,0.429477,0.137376,7.88645,0.077309,
2,1,0,1,0,58257.8,0.0792037,0.078836,1.48327,30,0.00422539,10,0.000116935,-2.82878,0.46558,0.126724,7.31801,0.078836,
2,1,0,1,0,58257.8,0.0807019,0.0803526,1.49187,30,0.00433791,10,0.000119876,-2.82627,0.627322,0.0940506,5.46795,0.0803526,
2,1,0,1,0,58257.9,0.0822001,0.0818519,1.49744,30,0.00445106,10,0.000122568,-2.82465,0.573139,0.102942,6.0268,0.0818519,
2,1,0,1,0,58258,0.0836983,0.0833152,1.50797,30,0.00456479,10,0.000125637,-2.82161,0.617465,0.0955519,5.62934,0.0833152,
2,1,0,1,0,58258.1,0.0851965,0.0848137,1.51803,30,0.0046793,10,0.00012875,-2.81872,0.486538,0.121265,7.19732,0.0848137,
2,1,0,1,0,58258.1,0.0866947,0.0862932,1.52998,30,0.00479455,10,0.000132027,-2.81531,0.523554,0.112691,6.72792,0.0862932,
2,1,0,1,0,58258.2,0.0881929,0.0878335,1.54148,30,0.00491069,10,0.000135393,-2.81206,0.456128,0.12935,7.78593,0.0878335,
2,1,0,1,0,58258.3,0.0896911,0.0893387,1.55291,30,0.00502759,10,0.000138735,-2.80885,0.412115,0.143164,8.683,0.0893387,
2,1,0,1,0,58258.4,0.0911893,0.0908059,1.56854,30,0.0051455,10,0.000142432,-2.80451,0.331562,0.177945,10.8867,0.0908059,
2,1,0,1,0,58258.4,0.0926883,0.0923428,1.585,30,0.00526477,10,0.000146364,-2.79997,0.333403,0.176963,10.9285,0.0923428,
2,1,0,1,0,58258.5,0.0941839,0.093872,1.60011,30,0.00538496,10,0.000150205,-2.79585,0.308696,0.191127,11.9341,0.093872,
2,1,0,1,0,58258.6,0.0956838,0.0953085,1.61473,30,0.00550665,10,0.000153897,-2.7919,0.285816,0.206427,13.0452,0.0953085,
2,1,0,1,0,58258.7,0.097182,0.0967887,1.63705,30,0.00562963,10,0.000158448,-2.78594,0.244983,0.240833,15.4028,0.09678866,
2,1,0,1,0,58258.7,0.0986802,0.0983166,1.66085,30,0.00575425,10,0.000163289,-2.77967,0.234211,0.25191,16.348,0.09831664,
2,1,0,1,0,58258.8,0.100178,0.0998397,1.68614,30,0.00588071,10,0.000168344,-2.77311,0.229295,0.25731,16.9352,0.09983968,
2,1,0,1,0,58258.9,0.101677,0.101355,1.70756,30,0.00600905,10,0.00017307,-2.76762,0.223818,0.263607,17.6238,0.101355,
2,1,0,1,0,58259,0.103175,0.102774,1.7385,30,0.00613937,10,0.000178672,-2.75983,0.205102,0.287661,19.5496,0.102774,
2,1,0,1,0,58259,0.104673,0.104297,1.77334,30,0.00627193,10,0.000184953,-2.75121,0.200581,0.294145,20.3245,0.104297,
2,1,0,1,0,58259.1,0.106171,0.105854,1.80234,30,0.00640687,10,0.000190785,-2.74416,0.210341,0.280497,19.6746,0.105854,
2,1,0,1,0,58259.2,0.107669,0.107294,1.82879,30,0.00654413,10,0.000196219,-2.73784,0.211339,0.279173,19.9361,0.107294,
2,1,0,1,0,58259.3,0.109168,0.108822,1.86011,30,0.00668354,10,0.000202421,-2.73046,0.218144,0.270464,19.664,0.108822,
2,1,0,1,0,58259.3,0.110664,0.110292,1.889,30,0.00682492,10,0.000208342,-2.72377,0.216723,0.272237,20.0603,0.110292,
2,1,0,1,0,58259.4,0.112164,0.111775,1.91755,30,0.00696892,10,0.000214335,-2.71725,0.254238,0.232066,17.3427,0.111775,
2,1,0,1,0,58259.5,0.113662,0.113306,1.94423,30,0.00711476,10,0.000220293,-2.71125,0.280931,0.210016,15.909,0.113306,
2,1,0,1,0,58259.6,0.11516,0.114774,1.96749,30,0.0072623,10,0.000225818,-2.70609,0.293031,0.201344,15.4574,0.114774,
2,1,0,1,0,58259.6,0.116658,0.11629,1.99182,30,0.0074116,10,0.000231628,-2.70075,0.303252,0.194558,15.085,0.11629,
2,1,0,1,0,58259.7,0.118157,0.117778,2.01142,30,0.00756266,10,0.000236901,-2.6965,0.381769,0.154544,12.102,0.1177783,
2,1,0,1,0,58259.8,0.119655,0.1193,2.0289,30,0.00771508,10,0.000242049,-2.69274,0.473061,0.12472,9.86035,0.1193,
2,1,0,1,0,58259.9,0.121153,0.120804,2.04109,30,0.0078685,10,0.000246571,-2.69014,0.553184,0.106655,8.4949,0.120804,
2,1,0,1,0,58259.9,0.122653,0.12225,2.05246,30,0.00802308,10,0.000250912,-2.68773,0.546492,0.107961,8.64582,0.1222496,
2,1,0,1,0,58260,0.124149,0.123772,2.06487,30,0.00817828,10,0.000255572,-2.68511,0.611722,0.096449,7.76623,0.123772,
2,1,0,1,0,58260.1,0.125648,0.125274,2.07525,30,0.00833471,10,0.000259974,-2.68293,0.817696,0.072154,5.83941,0.125274,
2,1,0,1,0,58260.2,0.127146,0.126771,2.07913,30,0.00849162,10,0.000263572,-2.68212,1.1147,0.0529292,4.30192,0.126771,
2,1,0,1,0,58260.2,0.128644,0.128292,2.08869,30,0.00864894,10,0.000267963,-2.68013,1.19707,0.049287,4.02075,0.128292,
2,1,0,1,0,58260.3,0.130142,0.129759,2.09779,30,0.00880692,10,0.000272206,-2.67824,1.42111,0.0415168,3.39233,0.129759,
2,1,0,1,0,58260.4,0.13164,0.131288,2.10239,30,0.00896546,10,0.000276019,-2.67729,2.73765,0.0215514,1.76477,0.131288,
2,1,0,1,0,58260.5,0.133139,0.132805,2.10688,30,0.0091242,10,0.000279805,-2.67636,32.8366,0.00179678,0.14735,0.132805,
2,1,0,1,0,58260.5,0.134637,0.134252,2.10329,30,0.00928283,10,0.00028237,-2.6771,-1.85419,-0.0318198,-2.60913,0.134252,
2,1,0,1,0,58260.6,0.136135,0.135764,2.09935,30,0.00944137,10,0.000285016,-2.67792,-1.1088,-0.0532105,-4.34649,0.135764,
2,1,0,1,0,58260.7,0.137633,0.137281,2.09084,30,0.00959944,10,0.000287033,-2.67968,-0.529244,-0.11148,-9.05836,0.137281,
2,1,0,1,0,58260.8,0.139133,0.138745,2.0751,30,0.00975666,10,0.000287909,-2.68296,-0.310625,-0.18994,-15.2967,0.138745,
2,1,0,1,0,58260.8,0.140628,0.140251,2.04612,30,0.00991172,10,0.000286971,-2.68907,-0.244349,-0.241458,-19.2129,0.140251,
2,1,0,1,0,58260.9,0.142128,0.141751,2.01172,30,0.010065,10,0.000285163,-2.69643,-0.194871,-0.302764,-23.6839,0.141751,
2,1,0,1,0,58261,0.143626,0.143239,1.97344,30,0.0102155,10,0.000282674,-2.70478,-0.15149,-0.389463,-29.8559,0.143239,
2,1,0,1,0,58261.1,0.145124,0.144774,1.9231,30,0.0103625,10,0.000278416,-2.716,-0.120916,-0.487943,-36.4698,0.144774,
2,1,0,1,0,58261.1,0.146622,0.146253,1.86199,30,0.0105054,10,0.000272321,-2.73002,-0.105072,-0.561518,-40.7085,0.1462526,
2,1,0,1,0,58261.2,0.14812,0.147817,1.79957,30,0.0106437,10,0.000266006,-2.74483,-0.0946282,-0.623493,-43.6905,0.147817,
2,1,0,1,0,58261.3,0.149619,0.149257,1.73473,30,0.0107771,10,0.000258921,-2.76077,-0.0879019,-0.671203,-45.328,0.149257,
2,1,0,1,0,58261.4,0.151117,0.150728,1.66378,30,0.0109054,10,0.000250778,-2.7789,-0.0827653,-0.712859,-46.2363,0.150728,
2,1,0,1,0,58261.4,0.152615,0.152257,1.59433,30,0.0110285,10,0.000242747,-2.79742,-0.0819113,-0.720292,-44.8707,0.152257,
2,1,0,1,0,58261.5,0.154113,0.153736,1.53208,30,0.0111465,10,0.000235536,-2.81472,-0.0824216,-0.715832,-42.8054,0.153736,
2,1,0,1,0,58261.6,0.155613,0.155242,1.47003,30,0.01126,10,0.000228211,-2.83267,-0.0874752,-0.674477,-38.719,0.155242,
2,1,0,1,0,58261.7,0.157108,0.156756,1.41279,30,0.0113689,10,0.000221464,-2.84992,-0.089053,-0.662526,-36.5169,0.156756,
2,1,0,1,0,58261.7,0.158608,0.158263,1.35924,30,0.0114739,10,0.000215117,-2.8667,-0.0910606,-0.64792,-34.4376,0.158263,
2,1,0,1,0,58261.8,0.160106,0.159759,1.31111,30,0.0115748,10,0.000209462,-2.88236,-0.100171,-0.58899,-30.2468,0.1597589,
2,1,0,1,0,58261.9,0.161604,0.161241,1.26938,30,0.0116725,10,0.000204677,-2.89641,-0.107412,-0.549286,-27.2701,0.161241,
2,1,0,1,0,58262,0.163102,0.162751,1.23349,30,0.0117672,10,0.000200752,-2.90886,-0.117432,-0.502417,-24.2012,0.162751,
2,1,0,1,0,58262,0.164601,0.164216,1.199,30,0.0118593,10,0.000196895,-2.92118,-0.128033,-0.46082,-21.6018,0.164216,
2,1,0,1,0,58262.1,0.166099,0.165715,1.16737,30,0.0119489,10,0.000193451,-2.93279,-0.140412,-0.420192,-19.203,0.165715,
2,1,0,1,0,58262.2,0.167597,0.167262,1.14193,30,0.0120365,10,0.000191002,-2.94236,-0.171555,-0.343913,-15.3784,0.167262,
2,1,0,1,0,58262.3,0.169095,0.168704,1.12089,30,0.0121224,10,0.000189099,-2.95044,-0.189104,-0.311997,-13.6859,0.168704,
2,1,0,1,0,58262.3,0.170593,0.170254,1.10083,30,0.0122067,10,0.00018742,-2.95828,-0.19056,-0.309614,-13.3251,0.170254,
2,1,0,1,0,58262.4,0.172092,0.171704,1.08102,30,0.0122897,10,0.000185616,-2.96616,-0.234118,-0.25201,-10.6824,0.171704,
2,1,0,1,0,58262.5,0.173588,0.173195,1.0685,30,0.0123711,10,0.000185059,-2.97123,-0.27079,-0.217881,-9.09944,0.173195,
2,1,0,1,0,58262.6,0.175088,0.174722,1.05636,30,0.0124518,10,0.000184569,-2.97619,-0.301118,-0.195936,-8.07847,0.174722,
2,1,0,1,0,58262.6,0.176586,0.176232,1.0447,30,0.0125315,10,0.00018411,-2.98101,-0.319583,-0.184616,-7.50773,0.1762315,
2,1,0,1,0,58262.7,0.178084,0.177771,1.03208,30,0.0126104,10,0.000183475,-2.98629,-0.325401,-0.181315,-7.31508,0.177771,
2,1,0,1,0,58262.8,0.179582,0.179231,1.02319,30,0.0126884,10,0.000183388,-2.99004,-0.368024,-0.160316,-6.42041,0.179231,
2,1,0,1,0,58262.9,0.181081,0.180741,1.0148,30,0.0127659,10,0.000183415,-2.99362,-0.447659,-0.131797,-5.23474,0.180741,
2,1,0,1,0,58262.9,0.182579,0.182204,1.00668,30,0.0128428,10,0.000183421,-2.99711,-0.403333,-0.146281,-5.75265,0.182204,
2,1,0,1,0,58263,0.184077,0.18374,1.00105,30,0.0129191,10,0.000183933,-2.99954,-0.434005,-0.135943,-5.30692,0.18374,
2,1,0,1,0,58263.1,0.185577,0.185232,0.992964,30,0.0129949,10,0.000183929,-3.00307,-0.593458,-0.0994173,-3.85922,0.185232,
2,1,0,1,0,58263.2,0.187073,0.186722,0.988738,30,0.0130701,10,0.000184619,-3.00492,-0.658561,-0.0895892,-3.45668,0.1867222,
2,1,0,1,0,58263.2,0.188572,0.188209,0.984647,30,0.0131453,10,0.00018532,-3.00672,-0.870109,-0.0678076,-2.60374,0.188209,
2,1,0,1,0,58263.3,0.19007,0.189696,0.97829,30,0.0132199,10,0.000185578,-3.00953,-0.664656,-0.0887677,-3.39382,0.189696,
2,1,0,1,0,58263.4,0.191568,0.191214,0.973597,30,0.0132941,10,0.000186165,-3.01162,-0.735448,-0.0802232,-3.05775,0.191214,
2,1,0,1,0,58263.5,0.193066,0.192674,0.970841,30,0.013368,10,0.000187056,-3.01285,-1.20735,-0.0488675,-1.85023,0.1926738,
2,1,0,1,0,58263.5,0.194564,0.194193,0.967644,30,0.0134417,10,0.00018791,-3.01428,-1.11446,-0.0529404,-1.99678,0.194193,
2,1,0,1,0,58263.6,0.196063,0.195689,0.962574,30,0.0135152,10,0.000188365,-3.01657,-0.866325,-0.0681038,-2.56371,0.195689,
2,1,0,1,0,58263.7,0.197561,0.19721,0.959111,30,0.0135883,10,0.000189147,-3.01813,-0.964091,-0.0611976,-2.2965,0.19721,
2,1,0,1,0,58263.8,0.199059,0.198716,0.95985,30,0.0136612,10,0.000190738,-3.0178,-1.06125,-0.0555948,-2.08084,0.198716,
2,1,0,1,0,58263.8,0.200557,0.200191,0.95677,30,0.0137339,10,0.000191536,-3.01919,-1.38689,-0.0425412,-1.58213,0.200191,
2,1,0,1,0,58263.9,0.202057,0.20169,0.954041,30,0.0138066,10,0.00019242,-3.02043,-0.992431,-0.05945,-2.20741,0.20169,
2,1,0,1,0,58264,0.203552,0.203175,0.94899,30,0.0138788,10,0.000192811,-3.02274,-1.6487,-0.0357858,-1.32812,0.203175,
2,1,0,1,0,58264,0.205052,0.204714,0.945678,30,0.0139509,10,0.000193593,-3.02426,5.34391,0.0110406,0.410291,0.204714,
2,1,0,1,0,58264.1,0.20655,0.206193,0.94491,30,0.0140229,10,0.000194834,-3.02461,-7.46233,-0.00790637,-0.291968,0.206193,
2,1,0,1,0,58264.2,0.208048,0.207683,0.944024,30,0.0140949,10,0.000196058,-3.02502,-1.26214,-0.0467459,-1.71995,0.207683,
2,1,0,1,0,58264.3,0.209546,0.20922,0.943517,30,0.0141667,10,0.000197403,-3.02525,-0.962338,-0.061309,-2.25595,0.20922,
2,1,0,1,0,58264.3,0.211044,0.210706,0.940718,30,0.0142382,10,0.000198215,-3.02654,-0.882497,-0.0668558,-2.45171,0.210706,
2,1,0,1,0,58264.4,0.212543,0.212165,0.939961,30,0.0143095,10,0.000199427,-3.02689,-3.19804,-0.0184488,-0.675109,0.212165,
2,1,0,1,0,58264.5,0.214041,0.21373,0.936038,30,0.0143808,10,0.000200059,-3.02871,-1.94826,-0.0302835,-1.10657,0.21373,
2,1,0,1,0,58264.6,0.215539,0.215186,0.936074,30,0.0144519,10,0.00020143,-3.02869,-1.2048,-0.0489709,-1.78734,0.215186,
2,1,0,1,0,58264.6,0.217037,0.21665,0.932541,30,0.0145229,10,0.000202035,-3.03033,-2.45277,-0.0240544,-0.876034,0.21665,
2,1,0,1,0,58264.7,0.218536,0.218202,0.930511,30,0.0145938,10,0.000203039,-3.03128,4.75841,0.0123991,0.450799,0.218202,
2,1,0,1,0,58264.8,0.220032,0.219715,0.930716,30,0.0146645,10,0.000204492,-3.03118,54.5027,0.00108252,0.0393286,0.219715,
2,1,0,1,0,58264.9,0.221532,0.221213,0.928925,30,0.0147354,10,0.00020549,-3.03202,-2.77331,-0.0212742,-0.770124,0.221213,
2,1,0,1,0,58264.9,0.22303,0.222677,0.924454,30,0.0148059,10,0.000205855,-3.03411,-3.09766,-0.0190467,-0.689034,0.222677,
2,1,0,1,0,58265,0.224528,0.224192,0.926424,30,0.0148763,10,0.000207696,-3.03319,-1.9497,-0.0302611,-1.09269,0.224192,
2,1,0,1,0,58265.1,0.226026,0.225694,0.925866,30,0.0149467,10,0.000208962,-3.03345,-2.72055,-0.0216868,-0.782068,0.2256936,
2,1,0,1,0,58265.2,0.227525,0.227134,0.924456,30,0.015017,10,0.000209975,-3.03411,-1.33095,-0.0443294,-1.59673,0.227134,
2,1,0,1,0,58265.2,0.229023,0.228725,0.922364,30,0.0150872,10,0.000210968,-3.0351,-1.81804,-0.0324525,-1.16791,0.228725,
2,1,0,1,0,58265.3,0.230521,0.230209,0.921154,30,0.0151572,10,0.000212058,-3.03567,-3.47226,-0.0169918,-0.611512,0.230209,
2,1,0,1,0,58265.4,0.232019,0.231651,0.919475,30,0.0152272,10,0.000212998,-3.03646,-3.57475,-0.0165046,-0.593238,0.231651,
2,1,0,1,0,58265.5,0.233517,0.233203,0.921009,30,0.0152972,10,0.000214782,-3.03574,-2.47535,-0.023835,-0.855169,0.233203,
2,1,0,1,0,58265.5,0.235016,0.234636,0.918761,30,0.0153672,10,0.000215575,-3.0368,-1.59916,-0.0368943,-1.32275,0.234636,
2,1,0,1,0,58265.6,0.236512,0.236148,0.915727,30,0.0154367,10,0.000216247,-3.03823,-3.55304,-0.0166055,-0.593599,0.236148,
2,1,0,1,0,58265.7,0.238012,0.237682,0.91584,30,0.0155065,10,0.000217678,-3.03818,3.59934,0.0163919,0.584708,0.237682,
2,1,0,1,0,58265.8,0.23951,0.239155,0.916893,30,0.0155761,10,0.000219279,-3.03768,-2.26993,-0.0259919,-0.928205,0.239155,
2,1,0,1,0,58265.8,0.241008,0.24068,0.914218,30,0.0156457,10,0.000220034,-3.03895,-1.54876,-0.0380951,-1.35879,0.24068,
2,1,0,1,0,58265.9,0.242506,0.242119,0.909898,30,0.015715,10,0.000220304,-3.04101,-1.79998,-0.0327781,-1.16835,0.242119,
2,1,0,1,0,58266,0.244005,0.243651,0.91024,30,0.0157843,10,0.000221781,-3.04084,72.0478,0.0008189,0.0291315,0.243651,
2,1,0,1,0,58266.1,0.245503,0.245183,0.912871,30,0.0158536,10,0.000223821,-3.03959,-4.98882,-0.0118265,-0.420608,0.245183,
2,1,0,1,0,58266.1,0.247001,0.246663,0.910538,30,0.0159229,10,0.000224596,-3.0407,-1.51004,-0.0390718,-1.3859,0.246663,
2,1,0,1,0,58266.2,0.248501,0.248148,0.906092,30,0.0159922,10,0.000224845,-3.04283,-2.88775,-0.0204311,-0.724366,0.248148,
2,1,0,1,0,58266.3,0.249997,0.249622,0.90614,30,0.0160611,10,0.000226192,-3.0428,-2.59943,-0.0226973,-0.803777,0.249622,
2,1,0,1,0,58266.4,0.251496,0.251109,0.908498,30,0.0161301,10,0.000228132,-3.04168,-60.652,-0.000972763,-0.0344424,0.251109,
2,1,0,1,0,58266.4,0.252994,0.252618,0.90601,30,0.0161991,10,0.000228874,-3.04287,-3.92338,-0.0150381,-0.530646,0.252618,
2,1,0,1,0,58266.5,0.254492,0.254138,0.905005,30,0.016268,10,0.000229996,-3.04335,-1.65089,-0.0357382,-1.26134,0.254138,
2,1,0,1,0,58266.6,0.25599,0.255617,0.901445,30,0.0163367,10,0.000230424,-3.04506,-2.64899,-0.0222726,-0.785691,0.255617,
2,1,0,1,0,58266.7,0.257488,0.257158,0.903515,30,0.0164053,10,0.000232346,-3.04406,-7.2279,-0.00816281,-0.287552,0.257158,
2,1,0,1,0,58266.7,0.258987,0.258685,0.902178,30,0.016474,10,0.00023338,-3.04471,-2.2769,-0.0259124,-0.911427,0.258685,
2,1,0,1,0,58266.8,0.260485,0.260137,0.899893,30,0.0165425,10,0.000234095,-3.04581,-2.19618,-0.0268648,-0.943739,0.260137,
2,1,0,1,0,58266.9,0.261983,0.261628,0.898004,30,0.0166109,10,0.000234943,-3.04672,-2.28668,-0.0258016,-0.905118,0.261628,
2,1,0,1,0,58267,0.263481,0.263139,0.898756,30,0.0166793,10,0.000236498,-3.04636,-4.96657,-0.0118794,-0.416184,0.263139,
2,1,0,1,0,58267,0.264981,0.264631,0.897591,30,0.0167476,10,0.000237531,-3.04692,49.5576,0.00119053,0.0417175,0.264631,
2,1,0,1,0,58267.1,0.266476,0.266085,0.896069,30,0.0168157,10,0.000238431,-3.04766,-2.64699,-0.0222895,-0.779654,0.266085,
2,1,0,1,0,58267.2,0.267976,0.267591,0.891709,30,0.0168839,10,0.000238614,-3.04978,-3.10775,-0.0189848,-0.662946,0.267591,
2,1,0,1,0,58267.3,0.269474,0.269155,0.893736,30,0.0169518,10,0.000240554,-3.04879,-2.45944,-0.0239892,-0.836487,0.269155,
2,1,0,1,0,58267.3,0.270972,0.270638,0.893926,30,0.0170198,10,0.000241931,-3.0487,-5.25459,-0.0112283,-0.390988,0.270638,
2,1,0,1,0,58267.4,0.27247,0.272151,0.890509,30,0.0170877,10,0.000242353,-3.05036,-1.39387,-0.0423282,-1.46908,0.272151,
2,1,0,1,0,58267.5,0.273968,0.273643,0.887744,30,0.0171554,10,0.000242925,-3.05171,-1.38761,-0.042519,-1.47613,0.273643,
2,1,0,1,0,58267.6,0.275467,0.275106,0.888243,30,0.0172229,10,0.000244361,-3.05147,-2.45394,-0.024043,-0.833617,0.275106,
2,1,0,1,0,58267.6,0.276965,0.276618,0.885477,30,0.0172904,10,0.000244938,-3.05282,-1.80342,-0.0327156,-1.13295,0.2766175,
2,1,0,1,0,58267.7,0.278463,0.278136,0.884976,30,0.0173579,10,0.000246144,-3.05307,-1.49955,-0.0393452,-1.3581,0.278136,
2,1,0,1,0,58267.8,0.279961,0.279603,0.883956,30,0.0174252,10,0.000247157,-3.05357,-1.52935,-0.0385785,-1.33212,0.279603,
2,1,0,1,0,58267.9,0.28146,0.281083,0.882303,30,0.0174924,10,0.000248,-3.05438,-2.42072,-0.0243729,-0.841045,0.281083,
2,1,0,1,0,58267.9,0.282956,0.282605,0.881337,30,0.0175594,10,0.00024907,-3.05486,-2.74736,-0.0214751,-0.73837,0.282605,
2,1,0,1,0,58268,0.284456,0.284135,0.881224,30,0.0176266,10,0.000250387,-3.05491,-2.54408,-0.0231911,-0.795924,0.284135,
2,1,0,1,0,58268.1,0.285954,0.285587,0.877651,30,0.0176936,10,0.000250646,-3.05668,-2.61904,-0.0225274,-0.771773,0.285587,
2,1,0,1,0,58268.2,0.287452,0.287093,0.876372,30,0.0177603,10,0.0002516,-3.05731,-2.67449,-0.0220602,-0.755477,0.287093,
2,1,0,1,0,58268.2,0.28895,0.288574,0.873522,30,0.0178269,10,0.000252076,-3.05873,-5.7207,-0.0103134,-0.351872,0.288574,
2,1,0,1,0,58268.3,0.290449,0.290106,0.874776,30,0.0178935,10,0.000253778,-3.0581,-2.09604,-0.0281484,-0.96075,0.290106,
2,1,0,1,0,58268.4,0.291947,0.291575,0.872842,30,0.01796,10,0.000254499,-3.05906,-1.3978,-0.042209,-1.43784,0.291575,
2,1,0,1,0,58268.5,0.293445,0.293104,0.869253,30,0.0180263,10,0.000254782,-3.06085,-1.5627,-0.0377553,-1.28551,0.293104,
2,1,0,1,0,58268.5,0.294943,0.294591,0.87039,30,0.0180924,10,0.000256409,-3.06029,-2.28635,-0.0258053,-0.876572,0.294591,
2,1,0,1,0,58268.6,0.296441,0.296052,0.870055,30,0.0181586,10,0.000257581,-3.06045,-3.25457,-0.0181283,-0.613488,0.296052,
2,1,0,1,0,58268.7,0.29794,0.297619,0.867238,30,0.0182248,10,0.000258106,-3.06186,-1.16494,-0.0506464,-1.71149,0.297619,
2,1,0,1,0,58268.8,0.299436,0.29909,0.864437,30,0.0182906,10,0.000258545,-3.06327,-0.00458722,-12.8618,-287.01,0.29909,
2,1,0,1,0,58268.8,0.299739,0.299408,0.606079,30,0.0183247,10,0.000181465,-3.21747,0.000905866,65.131,692.914,0.299408,
2,1,0,1,0,58268.9,0.298239,0.297921,0.109492,30,0.018346,10,3.262e-05,-3.96062,0.00355954,16.5752,245.603,0.297921,
2,0,0,1,0,58269,0.296741,0.296356,-0.0417183,30,0.0183466,10,-1.23635e-05,-4.37967,0.0233649,2.52515,83.6483,0.296356,
2,0,0,1,0,58269,0.295243,0.294909,-0.115524,30,0.0183393,10,-3.4069e-05,-3.93733,-0.00264224,-22.3295,41.157,0.294909,
2,0,0,1,0,58269.1,0.293745,0.293413,-0.16199,30,0.0183277,10,-4.75299e-05,-3.79051,-0.0120985,-4.87662,26.9964,0.2934134,
2,0,0,1,0,58269.2,0.292246,0.291892,-0.19303,30,0.0183134,10,-5.63439e-05,-3.71438,-0.0211235,-2.7931,20.2013,0.291892,
2,0,0,1,0,58269.3,0.290748,0.290417,-0.222093,30,0.0182967,10,-6.44994e-05,-3.65347,-0.0291638,-2.02305,17.0381,0.290417,
2,0,0,1,0,58269.3,0.28925,0.288889,-0.24401,30,0.0182782,10,-7.04919e-05,-3.61259,-0.0407866,-1.44655,13.5751,0.288889,
2,0,0,1,0,58269.4,0.287752,0.287358,-0.263031,30,0.0182582,10,-7.55841e-05,-3.57999,-0.0498167,-1.18434,11.986,0.287358,
2,0,0,1,0,58269.5,0.286254,0.285893,-0.278835,30,0.0182368,10,-7.97171e-05,-3.55465,-0.0600675,-0.982228,10.6577,0.285893,
2,0,0,1,0,58269.6,0.284754,0.284426,-0.295782,30,0.0182143,10,-8.4128e-05,-3.52903,-0.0646699,-0.912326,10.4763,0.284426,
2,0,0,1,0,58269.6,0.283259,0.282903,-0.309718,30,0.0181906,10,-8.762e-05,-3.50903,-0.0761565,-0.77472,9.31011,0.282903,
2,0,0,1,0,58269.7,0.281759,0.281395,-0.321681,30,0.0181658,10,-9.05194e-05,-3.49257,-0.0867376,-0.680213,8.48628,0.281395,
2,0,0,1,0,58269.8,0.280261,0.279951,-0.330795,30,0.0181401,10,-9.26064e-05,-3.48044,-0.0967415,-0.609872,7.90669,0.279951,
2,0,0,1,0,58269.9,0.278763,0.27841,-0.343962,30,0.0181136,10,-9.57624e-05,-3.46349,-0.110963,-0.531707,7.16537,0.2784099,
2,0,0,1,0,58269.9,0.277264,0.276916,-0.357524,30,0.0180863,10,-9.90041e-05,-3.44669,-0.104384,-0.565222,7.85471,0.276916,
2,0,0,1,0,58270,0.275766,0.275421,-0.367183,30,0.018058,10,-0.00010113,-3.43512,-0.147186,-0.400853,5.7172,0.275421,
2,0,0,1,0,58270.1,0.274268,0.273879,-0.376895,30,0.018029,10,-0.000103224,-3.42378,-0.150426,-0.39222,5.76751,0.273879,
2,0,0,1,0,58270.2,0.27277,0.272374,-0.387009,30,0.0179995,10,-0.000105411,-3.41228,-0.144928,-0.4071,6.15022,0.272374,
2,0,0,1,0,58270.2,0.271272,0.27088,-0.395954,30,0.0179692,10,-0.000107256,-3.40236,-0.146818,-0.401857,6.20261,0.27088,
2,0,0,1,0,58270.3,0.269774,0.269427,-0.405203,30,0.0179381,10,-0.000109173,-3.39233,-0.15157,-0.389258,6.12296,0.269427,
2,0,0,1,0,58270.4,0.268274,0.26793,-0.413789,30,0.0179064,10,-0.000110867,-3.38322,-0.181684,-0.324739,5.23107,0.26793,
2,0,0,1,0,58270.5,0.266779,0.266417,-0.418699,30,0.0178743,10,-0.000111548,-3.3781,-0.182399,-0.323467,5.29671,0.266417,
2,0,0,1,0,58270.5,0.265279,0.264921,-0.429147,30,0.0178415,10,-0.00011369,-3.36739,-0.167435,-0.352375,5.86061,0.264921,
2,0,0,1,0,58270.6,0.263781,0.26337,-0.435851,30,0.017808,10,-0.00011479,-3.36066,-0.168267,-0.350632,5.9454,0.26337,
2,0,0,1,0,58270.7,0.262283,0.261943,-0.442465,30,0.017774,10,-0.000115901,-3.35412,-0.202961,-0.290697,5.01955,0.261943,
2,0,0,1,0,58270.8,0.260784,0.260471,-0.447569,30,0.0177395,10,-0.000116579,-3.34914,-0.24727,-0.238606,4.19793,0.260471,
2,0,0,1,0,58270.8,0.259286,0.258961,-0.456609,30,0.0177045,10,-0.000118244,-3.34046,-0.213938,-0.275781,4.93707,0.258961,
2,0,0,1,0,58270.9,0.257788,0.257403,-0.46639,30,0.0176688,10,-0.00012005,-3.33125,-0.240173,-0.245656,4.43983,0.2574026,
2,0,0,1,0,58271,0.25629,0.255892,-0.473062,30,0.0176326,10,-0.000121053,-3.32508,-0.255309,-0.231092,4.23826,0.2558924,
2,0,0,1,0,58271.1,0.25479,0.254444,-0.47759,30,0.0175959,10,-0.00012152,-3.32094,-0.289053,-0.204115,3.8005,0.254444,
2,0,0,1,0,58271.1,0.253294,0.252905,-0.485007,30,0.0175589,10,-0.000122661,-3.31425,-0.23902,-0.246841,4.66729,0.252905,
2,0,0,1,0,58271.2,0.251795,0.251433,-0.489872,30,0.0175212,10,-0.00012317,-3.30992,-0.229419,-0.257172,4.92905,0.2514326,
2,0,0,1,0,58271.3,0.250297,0.249963,-0.496865,30,0.0174831,10,-0.000124198,-3.30376,-0.303654,-0.1943,3.7687,0.249963,
2,0,0,1,0,58271.4,0.248799,0.248422,-0.50368,30,0.0174445,10,-0.000125125,-3.29784,-0.313271,-0.188335,3.71047,0.248422,
2,0,0,1,0,58271.4,0.247301,0.246938,-0.507697,30,0.0174055,10,-0.00012537,-3.2944,-0.342421,-0.172302,3.43338,0.246938,
2,0,0,1,0,58271.5,0.245802,0.245412,-0.515303,30,0.0173661,10,-0.000126462,-3.28794,-0.26474,-0.22286,4.46705,0.245412,
2,0,0,1,0,58271.6,0.244304,0.243938,-0.522,30,0.0173262,10,-0.000127336,-3.28233,-0.325551,-0.181231,3.68717,0.243938,
2,0,0,1,0,58271.7,0.242806,0.242439,-0.526627,30,0.0172858,10,-0.000127675,-3.2785,-0.403587,-0.146189,3.00688,0.242439,
2,0,0,1,0,58271.7,0.241308,0.240953,-0.530239,30,0.0172451,10,-0.000127763,-3.27553,-0.349823,-0.168657,3.50627,0.240953,
2,0,0,1,0,58271.8,0.23981,0.239375,-0.538202,30,0.017204,10,-0.000128832,-3.26905,-0.29106,-0.202707,4.24374,0.239375,
2,0,0,1,0,58271.9,0.23831,0.237943,-0.545727,30,0.0171623,10,-0.000129852,-3.26302,-0.323393,-0.18244,3.87214,0.237943,
2,0,0,1,0,58272,0.236815,0.236437,-0.550261,30,0.0171204,10,-0.000130102,-3.25943,-0.352912,-0.167181,3.57805,0.236437,
2,0,0,1,0,58272,0.235315,0.235003,-0.55172,30,0.017078,10,-0.000129656,-3.25828,-0.349731,-0.168701,3.6401,0.235003,
2,0,0,1,0,58272.1,0.233817,0.233459,-0.558181,30,0.0170352,10,-0.000130312,-3.25322,-0.320952,-0.183828,4.00817,0.233459,
2,0,0,1,0,58272.2,0.232319,0.231963,-0.565513,30,0.016992,10,-0.000131178,-3.24756,-0.402237,-0.14668,3.23389,0.231963,
2,0,0,1,0,58272.3,0.230821,0.230455,-0.570664,30,0.0169484,10,-0.000131512,-3.24362,-0.467301,-0.126257,2.79898,0.2304545,
2,0,0,1,0,58272.3,0.229322,0.228968,-0.575629,30,0.0169044,10,-0.000131801,-3.23986,-0.394906,-0.149403,3.35322,0.228968,
2,0,0,1,0,58272.4,0.227824,0.227486,-0.578328,30,0.01686,10,-0.000131561,-3.23783,-0.393112,-0.150084,3.40258,0.227486,
2,0,0,1,0,58272.5,0.226326,0.22599,-0.58529,30,0.0168152,10,-0.000132269,-3.23263,-0.362145,-0.162918,3.72726,0.22599,
2,0,0,1,0,58272.6,0.224828,0.224482,-0.589775,30,0.0167701,10,-0.000132394,-3.22931,-0.483728,-0.121969,2.80889,0.224482,
2,0,0,1,0,58272.6,0.22333,0.222944,-0.595849,30,0.0167245,10,-0.000132841,-3.22486,-0.376598,-0.156666,3.63574,0.2229443,
2,0,0,1,0,58272.7,0.22183,0.221514,-0.601781,30,0.0166786,10,-0.000133303,-3.22056,-0.360368,-0.163721,3.8384,0.221514,
2,0,0,1,0,58272.8,0.220335,0.220004,-0.606041,30,0.0166323,10,-0.000133331,-3.2175,-0.337496,-0.174817,4.12773,0.220004,
2,0,0,1,0,58272.9,0.218835,0.218478,-0.612784,30,0.0165855,10,-0.00013388,-3.21269,-0.430633,-0.137007,3.27657,0.218478,
2,0,0,1,0,58272.9,0.217337,0.216981,-0.615379,30,0.0165384,10,-0.000133526,-3.21086,-0.471017,-0.125261,3.01905,0.216981,
2,0,0,1,0,58273,0.215839,0.215487,-0.618005,30,0.016491,10,-0.000133172,-3.20901,-0.42418,-0.139092,3.37763,0.2154875,
2,0,0,1,0,58273.1,0.21434,0.214005,-0.625774,30,0.0164432,10,-0.000133919,-3.20358,-0.366999,-0.160763,3.92334,0.214005,
2,0,0,1,0,58273.2,0.212842,0.212489,-0.632191,30,0.016395,10,-0.000134333,-3.19915,-0.421294,-0.140045,3.4559,0.212489,
2,0,0,1,0,58273.2,0.211344,0.210969,-0.636743,30,0.0163464,10,-0.000134333,-3.19604,-0.470836,-0.125309,3.10931,0.210969,
2,0,0,1,0,58273.3,0.209846,0.209461,-0.638372,30,0.0162975,10,-0.000133714,-3.19493,-0.639914,-0.0921999,2.30426,0.209461,
2,0,0,1,0,58273.4,0.208348,0.207981,-0.647075,30,0.0162482,10,-0.000134579,-3.18905,-0.36886,-0.159952,4.0509,0.207981,
2,0,0,1,0,58273.5,0.20685,0.206523,-0.654346,30,0.0161985,10,-0.000135137,-3.18419,-0.368317,-0.160188,4.06761,0.206523,
2,0,0,1,0,58273.5,0.20535,0.204992,-0.654637,30,0.0161482,10,-0.000134195,-3.184,-0.540278,-0.109203,2.79021,0.204992,
2,0,0,1,0,58273.6,0.203855,0.203488,-0.659165,30,0.0160978,10,-0.000134132,-3.18101,-0.433627,-0.136062,3.52207,0.2034876,
2,0,0,1,0,58273.7,0.202355,0.201979,-0.665708,30,0.0160471,10,-0.000134459,-3.17672,-0.421553,-0.139959,3.64125,0.2019791,
2,0,0,1,0,58273.8,0.200857,0.200485,-0.672512,30,0.0159959,10,-0.000134829,-3.1723,-0.398543,-0.148039,3.87382,0.2004853,
2,0,0,1,0,58273.8,0.199359,0.198919,-0.676379,30,0.0159443,10,-0.000134545,-3.16981,-0.523726,-0.112654,2.96335,0.198919,
2,0,0,1,0,58273.9,0.19786,0.197464,-0.682325,30,0.0158923,10,-0.000134735,-3.16601,-0.549528,-0.107365,2.85007,0.197464,
2,0,0,1,0,58274,0.196362,0.195994,-0.686591,30,0.0158401,10,-0.000134568,-3.1633,-0.427028,-0.138164,3.69823,0.1959942,
2,0,0,1,0,58274.1,0.194864,0.194523,-0.693545,30,0.0157873,10,-0.00013491,-3.15893,-0.375599,-0.157082,4.24174,0.194523,
2,0,0,1,0,58274.1,0.193366,0.192935,-0.69895,30,0.015734,10,-0.000134852,-3.15555,-0.384254,-0.153544,4.1761,0.192935,
2,0,0,1,0,58274.2,0.191866,0.191485,-0.703363,30,0.0156803,10,-0.000134683,-3.15282,-0.449985,-0.131115,3.60653,0.191485,
2,0,0,1,0,58274.3,0.19037,0.189995,-0.70745,30,0.0156264,10,-0.000134412,-3.1503,-0.389359,-0.151531,4.19865,0.189995,
2,0,0,1,0,58274.4,0.188871,0.188477,-0.715287,30,0.0155719,10,-0.000134815,-3.14552,-0.345033,-0.170998,4.76111,0.188477,
2,0,0,1,0,58274.4,0.187373,0.186977,-0.721439,30,0.0155169,10,-0.000134893,-3.1418,-0.406872,-0.145009,4.07442,0.186977,
2,0,0,1,0,58274.5,0.185875,0.185501,-0.728185,30,0.0154615,10,-0.000135079,-3.13776,-0.582254,-0.10133,2.87038,0.185501,
2,0,0,1,0,58274.6,0.184377,0.184004,-0.731839,30,0.0154058,10,-0.000134661,-3.13558,-0.482579,-0.12226,3.49388,0.184004,
2,0,0,1,0,58274.7,0.182878,0.182517,-0.739148,30,0.0153496,10,-0.000134907,-3.13127,-0.3966,-0.148765,4.29244,0.182517,
2,0,0,1,0,58274.7,0.18138,0.180999,-0.744654,30,0.0152929,10,-0.000134781,-3.12805,-0.387247,-0.152358,4.43618,0.180999,
2,0,0,1,0,58274.8,0.179882,0.179584,-0.751776,30,0.0152356,10,-0.000135007,-3.12391,-0.554249,-0.10645,3.12421,0.179584,
2,0,0,1,0,58274.9,0.178384,0.178008,-0.760276,30,0.0151779,10,-0.000135335,-3.11903,-0.54161,-0.108935,3.23353,0.178008,
2,0,0,1,0,58275,0.176886,0.176528,-0.764833,30,0.0151198,10,-0.000135014,-3.11643,-0.374708,-0.157456,4.70846,0.176528,
2,0,0,1,0,58275,0.175386,0.175004,-0.772008,30,0.015061,10,-0.000135104,-3.11238,-0.338673,-0.174209,5.25384,0.175004,
2,0,0,1,0,58275.1,0.173891,0.173504,-0.781139,30,0.0150017,10,-0.000135531,-3.10727,-0.396606,-0.148762,4.52396,0.173504,
2,0,0,1,0,58275.2,0.172391,0.172029,-0.788591,30,0.0149418,10,-0.00013566,-3.10315,-0.327271,-0.180279,5.55549,0.172029,
2,0,0,1,0,58275.3,0.170893,0.170524,-0.794465,30,0.0148814,10,-0.000135476,-3.09993,-0.362287,-0.162855,5.05512,0.170524,
2,0,0,1,0,58275.3,0.169395,0.169016,-0.801226,30,0.0148203,10,-0.00013542,-3.09624,-0.287453,-0.205251,6.43364,0.169016,
2,0,0,1,0,58275.4,0.167897,0.167555,-0.815361,30,0.0147585,10,-0.000136618,-3.08865,-0.283461,-0.208142,6.63201,0.167555,
2,0,0,1,0,58275.5,0.166398,0.166063,-0.823748,30,0.0146959,10,-0.000136794,-3.08421,-0.330515,-0.178509,5.7479,0.166063,
2,0,0,1,0,58275.6,0.1649,0.164573,-0.833003,30,0.0146327,10,-0.00013709,-3.07935,-0.286529,-0.205913,6.70725,0.164573,
2,0,0,1,0,58275.6,0.163402,0.163034,-0.845211,30,0.0145687,10,-0.000137798,-3.07303,-0.251477,-0.234614,7.73479,0.163034,
2,0,0,1,0,58275.7,0.161904,0.161518,-0.858168,30,0.0145038,10,-0.00013861,-3.06643,-0.246142,-0.239699,8.0184,0.161518,
2,0,0,1,0,58275.8,0.160406,0.160056,-0.870986,30,0.014438,10,-0.000139406,-3.05999,-0.232839,-0.253394,8.59935,0.160056,
2,0,0,1,0,58275.9,0.158906,0.158534,-0.881229,30,0.0143712,10,-0.000139705,-3.05491,-0.224766,-0.262495,9.04213,0.158534,
2,0,0,1,0,58275.9,0.157411,0.157054,-0.895896,30,0.0143036,10,-0.000140704,-3.04774,-0.201845,-0.292304,10.2644,0.157054,
2,0,0,1,0,58276,0.155911,0.155518,-0.912806,30,0.0142346,10,-0.000141958,-3.03962,-0.184816,-0.319237,11.3975,0.155518,
2,0,0,1,0,58276.1,0.154413,0.15407,-0.929824,30,0.0141644,10,-0.000143258,-3.0316,-0.186444,-0.316448,11.4824,0.15407,
2,0,0,1,0,58276.2,0.152915,0.152532,-0.94984,30,0.0140929,10,-0.000144881,-3.02235,-0.173676,-0.339714,12.584,0.152532,
2,0,0,1,0,58276.2,0.151417,0.151091,-0.967727,30,0.01402,10,-0.000146215,-3.01425,-0.150971,-0.390805,14.8057,0.151091,
2,0,0,1,0,58276.3,0.149918,0.149559,-0.993643,30,0.0139454,10,-0.000148608,-3.00277,-0.131256,-0.449503,17.4323,0.149559,
2,0,0,1,0,58276.4,0.14842,0.148094,-1.02092,30,0.0138689,10,-0.000151192,-2.99101,-0.135265,-0.436182,17.3876,0.148094,
2,0,0,1,0,58276.5,0.146922,0.14653,-1.04756,30,0.0137904,10,-0.0001535,-2.97982,-0.120777,-0.488502,19.9951,0.14653,
2,0,0,1,0,58276.5,0.145424,0.145091,-1.07857,30,0.0137097,10,-0.000156491,-2.96715,-0.108555,-0.543504,22.9614,0.145091,
2,0,0,1,0,58276.6,0.143926,0.143552,-1.11579,30,0.0136264,10,-0.000160174,-2.95242,-0.0955777,-0.617299,26.8977,0.143552,
2,0,0,1,0,58276.7,0.142426,0.142058,-1.15759,30,0.0135401,10,-0.000164445,-2.93644,-0.0975779,-0.604645,27.3032,0.142058,
2,0,0,1,0,58276.8,0.140931,0.14057,-1.19634,30,0.0134508,10,-0.000168169,-2.92215,-0.0967206,-0.610004,28.5651,0.14057,
2,0,0,1,0,58276.8,0.139431,0.139107,-1.23997,30,0.0133581,10,-0.000172489,-2.90659,-0.0912729,-0.646413,31.3811,0.139107,
2,0,0,1,0,58276.9,0.137933,0.137581,-1.29147,30,0.0132621,10,-0.000177683,-2.88891,-0.0895561,-0.658805,33.2888,0.137581,
2,0,0,1,0,58277,0.136435,0.13606,-1.3469,30,0.0131622,10,-0.000183259,-2.87066,-0.0881609,-0.669231,35.1047,0.13606,
2,0,0,1,0,58277.1,0.134936,0.134581,-1.39773,30,0.0130582,10,-0.000188108,-2.85458,-0.0906059,-0.651171,35.5016,0.134581,
2,0,0,1,0,58277.1,0.133438,0.133063,-1.45247,30,0.0129502,10,-0.000193269,-2.83789,-0.0915686,-0.644326,36.5367,0.133063,
2,0,0,1,0,58277.2,0.13194,0.131599,-1.50773,30,0.0128382,10,-0.000198416,-2.82168,-0.0945083,-0.624284,36.8033,0.131599,
2,0,0,1,0,58277.3,0.130442,0.130074,-1.56451,30,0.012722,10,-0.000203503,-2.80562,-0.0936326,-0.630122,38.4174,0.1300742,
2,0,0,1,0,58277.4,0.128942,0.128604,-1.61869,30,0.0126013,10,-0.00020817,-2.79084,-0.103304,-0.571128,36.0472,0.128604,
2,0,0,1,0,58277.4,0.127446,0.127105,-1.67365,30,0.0124769,10,-0.000212729,-2.77634,-0.107872,-0.546943,35.6557,0.127105,
2,0,0,1,0,58277.5,0.125947,0.125556,-1.72656,30,0.0123483,10,-0.000216781,-2.76282,-0.116166,-0.507893,34.1698,0.125556,
2,0,0,1,0,58277.6,0.124449,0.124077,-1.7775,30,0.012216,10,-0.000220548,-2.75019,-0.118758,-0.496807,34.386,0.124077,
2,0,0,1,0,58277.7,0.122951,0.1226,-1.82528,30,0.0120799,10,-0.000223778,-2.73867,-0.131948,-0.447147,31.7716,0.1226,
2,0,0,1,0,58277.7,0.121453,0.121101,-1.87093,30,0.0119401,10,-0.000226572,-2.72794,-0.151928,-0.388341,28.2961,0.121101,
2,0,0,1,0,58277.8,0.119955,0.119593,-1.90816,30,0.0117974,10,-0.000228203,-2.71939,-0.162806,-0.362395,27.036,0.119593,
2,0,0,1,0,58277.9,0.118456,0.11811,-1.95269,30,0.0116515,10,-0.000230632,-2.70937,-0.165895,-0.355647,27.0274,0.1181102,
2,0,0,1,0,58278,0.116958,0.116609,-1.99199,30,0.0115027,10,-0.000232283,-2.70071,-0.198886,-0.296653,22.969,0.116609,
2,0,0,1,0,58278,0.11546,0.115086,-2.02382,30,0.0113511,10,-0.000232913,-2.69383,-0.244663,-0.241148,18.9821,0.115086,
2,0,0,1,0,58278.1,0.113962,0.11357,-2.04659,30,0.0111975,10,-0.000232431,-2.68897,-0.292027,-0.202036,16.1193,0.11357,
2,0,0,1,0,58278.2,0.112462,0.112094,-2.06997,30,0.0110419,10,-0.000232031,-2.68404,-0.328559,-0.179572,14.4976,0.112094,
2,0,0,1,0,58278.3,0.110967,0.110574,-2.09007,30,0.010885,10,-0.000231107,-2.67984,-0.413888,-0.142551,11.6005,0.110574,
2,0,0,1,0,58278.3,0.109467,0.109075,-2.10424,30,0.0107264,10,-0.00022952,-2.67691,-0.676476,-0.0872166,7.15288,0.109075,
2,0,0,1,0,58278.4,0.107969,0.10759,-2.11662,30,0.0105671,10,-0.000227727,-2.67436,-0.898811,-0.0656423,5.41236,0.10759,
2,0,0,1,0,58278.5,0.106471,0.106092,-2.11984,30,0.0104073,10,-0.000224898,-2.6737,-1.76428,-0.0334413,2.76858,0.106092,
2,0,0,1,0,58278.6,0.104973,0.10462,-2.12344,30,0.0102472,10,-0.000222154,-2.67296,-4.07808,-0.0144676,1.19763,0.10462,
2,0,0,1,0,58278.6,0.103474,0.103132,-2.12316,30,0.0100868,10,-0.000218966,-2.67302,2.11223,0.0279325,-2.31014,0.103132,
2,0,0,1,0,58278.7,0.101976,0.101551,-2.11933,30,0.0099268,10,-0.00021522,-2.6738,0.948804,0.0621835,-5.13499,0.101551,
2,0,0,1,0,58278.8,0.100478,0.100103,-2.10939,30,0.00976742,10,-0.000211156,-2.67584,0.886674,0.0665408,-5.47555,0.100103,
2,0,0,1,0,58278.8,0.0989799,0.0986404,-2.10167,30,0.00960857,10,-0.000207309,-2.67744,0.935799,0.0630477,-5.16669,0.09864039,
2,0,0,1,0,58278.9,0.0974817,0.0970779,-2.09329,30,0.00945039,10,-0.000203213,-2.67917,0.761433,0.0774854,-6.3253,0.0970779,
2,0,0,1,0,58279,0.0959821,0.0956122,-2.08192,30,0.00929274,10,-0.000199057,-2.68154,0.619484,0.0952405,-7.73045,0.09561222,
2,0,0,1,0,58279.1,0.0944866,0.0941359,-2.06482,30,0.00913652,10,-0.000194373,-2.68512,0.576105,0.102412,-8.26945,0.09413594,
2,0,0,1,0,58279.1,0.0929871,0.0926202,-2.05354,30,0.00898081,10,-0.000190199,-2.6875,0.648777,0.0909403,-7.2986,0.0926202,
2,0,0,1,0,58279.2,0.0914889,0.0911494,-2.04563,30,0.00882605,10,-0.000186458,-2.68917,0.616446,0.09571,-7.63468,0.0911494,
2,0,0,1,0,58279.3,0.0899907,0.0896618,-2.03442,30,0.00867212,10,-0.00018241,-2.69156,0.566038,0.104233,-8.2576,0.0896618,
2,0,0,1,0,58279.4,0.0884925,0.0881169,-2.01912,30,0.00851916,10,-0.000177919,-2.69484,0.573695,0.102842,-8.10651,0.0881169,
2,0,0,1,0,58279.4,0.0869943,0.0866584,-2.00894,30,0.00836714,10,-0.000174092,-2.69703,0.650032,0.0907647,-7.12169,0.0866584,
2,0,0,1,0,58279.5,0.0854961,0.0851157,-1.99909,30,0.00821584,10,-0.000170154,-2.69917,0.708386,0.0832879,-6.50499,0.0851157,
2,0,0,1,0,58279.6,0.083998,0.0836792,-1.9886,30,0.00806529,10,-0.000166404,-2.70145,0.567779,0.103914,-8.07332,0.0836792,
2,0,0,1,0,58279.7,0.0824998,0.0821362,-1.98162,30,0.00791545,10,-0.000162763,-2.70298,0.709829,0.0831186,-6.42529,0.0821362,
2,0,0,1,0,58279.7,0.081002,0.0806146,-1.9698,30,0.00776647,10,-0.000158794,-2.70558,0.840769,0.0701738,-5.4018,0.0806146,
2,0,0,1,0,58279.8,0.0795025,0.0791437,-1.96234,30,0.00761785,10,-0.000155307,-2.70723,0.936605,0.0629935,-4.82443,0.0791437,
2,0,0,1,0,58279.9,0.078007,0.0776573,-1.95238,30,0.0074702,10,-0.000151617,-2.70944,0.731285,0.0806799,-6.15264,0.0776573,
2,0,0,1,0,58280,0.076507,0.0761555,-1.94482,30,0.00732279,10,-0.000148109,-2.71112,0.635181,0.0928868,-7.044,0.0761555,
2,0,0,1,0,58280,0.0750088,0.0746759,-1.93232,30,0.00717638,10,-0.000144298,-2.71392,0.654747,0.0901111,-6.80094,0.0746759,
2,0,0,1,0,58280.1,0.0735106,0.073145,-1.92438,30,0.00703072,10,-0.000140759,-2.71571,0.804755,0.0733142,-5.50353,0.073145,
2,0,0,1,0,58280.2,0.0720124,0.0716721,-1.91744,30,0.00688569,10,-0.000137427,-2.71728,0.709519,0.0831549,-6.21931,0.0716721,
2,0,0,1,0,58280.3,0.0705142,0.0701153,-1.90862,30,0.00674133,10,-0.000133824,-2.71928,0.646799,0.0912185,-6.7896,0.07011532,
2,0,0,1,0,58280.3,0.069016,0.0685924,-1.89472,30,0.00659773,10,-0.000129963,-2.72245,0.656147,0.0899189,-6.65763,0.0685924,
2,0,0,1,0,58280.4,0.0675179,0.0671814,-1.88819,30,0.00645493,10,-0.000126852,-2.72395,0.742806,0.0794285,-5.85304,0.0671814,
2,0,0,1,0,58280.5,0.0660179,0.06569,-1.88129,30,0.0063126,10,-0.000123582,-2.72554,0.729856,0.0808379,-5.92229,0.06569,
2,0,0,1,0,58280.6,0.0645224,0.064124,-1.87044,30,0.00617122,10,-0.00011994,-2.72806,0.571419,0.103252,-7.52246,0.064124,
2,0,0,1,0,58280.6,0.0630229,0.0626794,-1.8568,30,0.00603027,10,-0.000116383,-2.73123,0.566364,0.104173,-7.55183,0.0626794,
2,0,0,1,0,58280.7,0.0615251,0.0611666,-1.84666,30,0.00589044,10,-0.000112954,-2.73361,0.651876,0.0905081,-6.53266,0.0611666,
2,0,0,1,0,58280.8,0.0600269,0.0596557,-1.83632,30,0.00575133,10,-0.000109547,-2.73605,0.591184,0.0997997,-7.16284,0.0596557,
2,0,0,1,0,58280.9,0.0585287,0.0582109,-1.82697,30,0.00561291,10,-0.00010635,-2.73827,0.544429,0.10837,-7.72341,0.0582109,
2,0,0,1,0,58280.9,0.0570305,0.0566685,-1.81767,30,0.00547527,10,-0.000103004,-2.74049,0.524899,0.112403,-7.95842,0.0566685,
2,0,0,1,0,58281,0.0555323,0.0551653,-1.80464,30,0.00533862,10,-9.95536e-05,-2.74361,0.573477,0.102881,-7.24876,0.0551653,
2,0,0,1,0,58281.1,0.0540342,0.0536735,-1.79485,30,0.00520275,10,-9.6336e-05,-2.74597,0.588895,0.100188,-7.01244,0.0536735,
2,0,0,1,0,58281.2,0.052536,0.0521606,-1.78475,30,0.00506749,10,-9.30938e-05,-2.74842,0.594764,0.0991989,-6.9031,0.0521606,
2,0,0,1,0,58281.2,0.0510378,0.0506612,-1.77233,30,0.00493314,10,-8.97885e-05,-2.75145,0.488376,0.120809,-8.35789,0.0506612,
2,0,0,1,0,58281.3,0.0495382,0.0491481,-1.75927,30,0.00479962,10,-8.64645e-05,-2.75467,0.566382,0.10417,-7.16424,0.04914806,
2,0,0,1,0,58281.4,0.0480427,0.0476767,-1.74861,30,0.00466732,10,-8.33679e-05,-2.75731,0.638853,0.092353,-6.30392,0.04767672,
2,0,0,1,0,58281.5,0.0465432,0.0461684,-1.73755,30,0.00453542,10,-8.02198e-05,-2.76006,0.572838,0.102996,-6.98108,0.0461684,
2,0,0,1,0,58281.5,0.045045,0.0446389,-1.72731,30,0.00440443,10,-7.7105e-05,-2.76263,0.483523,0.122021,-8.2159,0.0446389,
2,0,0,1,0,58281.6,0.0435468,0.0431813,-1.71131,30,0.00427446,10,-7.38967e-05,-2.76667,0.47107,0.125247,-8.38052,0.0431813,
2,0,0,1,0,58281.7,0.0420486,0.041733,-1.70208,30,0.00414552,10,-7.1033e-05,-2.76902,0.488593,0.120755,-8.02628,0.041733,
2,0,0,1,0,58281.8,0.0405504,0.0402277,-1.69217,30,0.00401733,10,-6.80722e-05,-2.77156,0.490194,0.120361,-7.9321,0.0402277,
2,0,0,1,0,58281.8,0.0390523,0.0386869,-1.67791,30,0.00388992,10,-6.49131e-05,-2.77523,0.405655,0.145444,-9.50628,0.0386869,
2,0,0,1,0,58281.9,0.0375541,0.0372068,-1.66643,30,0.00376358,10,-6.20026e-05,-2.77821,0.410869,0.143598,-9.3366,0.0372068,
2,0,0,1,0,58282,0.0360559,0.0356669,-1.64978,30,0.00363844,10,-5.88424e-05,-2.78258,0.455395,0.129558,-8.35155,0.0356669,
2,0,0,1,0,58282.1,0.0345577,0.0341919,-1.63759,30,0.00351409,10,-5.59923e-05,-2.78579,0.516671,0.114193,-7.30176,0.0341919,
2,0,0,1,0,58282.1,0.0330582,0.03272,-1.62464,30,0.00339045,10,-5.31582e-05,-2.78924,0.417758,0.14123,-8.96258,0.03272,
2,0,0,1,0,58282.2,0.0315626,0.0311723,-1.61539,30,0.00326809,10,-5.03556e-05,-2.79172,0.428974,0.137537,-8.66532,0.0311723,
2,0,0,1,0,58282.3,0.0300631,0.0296674,-1.60031,30,0.00314656,10,-4.74771e-05,-2.7958,0.46754,0.126192,-7.88112,0.0296674,
2,0,0,1,0,58282.4,0.0285649,0.0281747,-1.59037,30,0.003026,10,-4.48082e-05,-2.7985,0.49669,0.118786,-7.3578,0.0281747,
2,0,0,1,0,58282.4,0.0270667,0.0266827,-1.57747,30,0.00290615,10,-4.20913e-05,-2.80204,0.521696,0.113093,-6.96147,0.02668272,
2,0,0,1,0,58282.5,0.0255685,0.0252089,-1.56517,30,0.00278723,10,-3.94563e-05,-2.80544,0.420396,0.140344,-8.58178,0.0252089,
2,0,0,1,0,58282.6,0.0240704,0.0237468,-1.55244,30,0.00266928,10,-3.68655e-05,-2.80899,0.413663,0.142628,-8.66259,0.0237468,
2,0,0,1,0,58282.7,0.0225722,0.0222589,-1.54213,30,0.00255215,10,-3.43262e-05,-2.81188,0.531698,0.110965,-6.67865,0.0222589,
2,0,0,1,0,58282.7,0.021074,0.0207059,-1.53375,30,0.00243579,10,-3.17577e-05,-2.81425,0.561556,0.105065,-6.28636,0.02070592,
2,0,0,1,0,58282.8,0.0195758,0.0192114,-1.52369,30,0.00232023,10,-2.92721e-05,-2.8171,0.466958,0.12635,-7.50854,0.0192114,
2,0,0,1,0,58282.9,0.018078,0.0177372,-1.51021,30,0.00220541,10,-2.67869e-05,-2.82096,0.558152,0.105706,-6.24302,0.0177372,
2,0,0,1,0,58283,0.0165785,0.0162423,-1.50186,30,0.00209125,10,-2.43937e-05,-2.82337,0.678779,0.0869208,-5.10298,0.0162423,
2,0,0,1,0,58283,0.015083,0.0147558,-1.49785,30,0.00197792,10,-2.2102e-05,-2.82453,0.762116,0.077416,-4.52224,0.0147558,
2,0,0,1,0,58283.1,0.013583,0.0131332,-1.48769,30,0.0018648,10,-1.95381e-05,-2.82749,0.557111,0.105904,-6.14754,0.0131332,
2,0,0,1,0,58283.2,0.0120848,0.0117495,-1.48002,30,0.00175245,10,-1.73895e-05,-2.82973,0.609693,0.0967699,-5.59283,0.0117495,
2,0,0,1,0,58283.3,0.0105866,0.0102469,-1.47088,30,0.0016408,10,-1.50719e-05,-2.83242,0.82337,0.0716567,-4.12426,0.0102469,
2,0,0,1,0,58283.3,0.00908846,0.00873913,-1.46885,30,0.00152947,10,-1.28365e-05,-2.83302,0.852071,0.069243,-3.96749,0.008739125,
2,0,0,1,0,58283.4,0.00759027,0.00724075,-1.46387,30,0.00141849,10,-1.05995e-05,-2.8345,0.876038,0.0673487,-3.84634,0.00724075,
2,0,0,1,0,58283.5,0.00609208,0.00569951,-1.45972,30,0.00130795,10,-8.3197e-06,-2.83573,0.881711,0.0669153,-3.81147,0.00569951,
2,0,0,1,0,58283.6,0.00459389,0.00421805,-1.45444,30,0.0011978,10,-6.13491e-06,-2.8373,1.32413,0.0445577,-2.5301,0.00421805,
2,0,0,1,0,58283.6,0.00309391,0.00273316,-1.45315,30,0.00108768,10,-3.97171e-06,-2.83769,-1.82002,-0.0324173,1.84255,0.00273316,
2,0,0,1,0,58283.7,0.0015984,0.00120839,-1.46412,30,0.00097726,10,-1.76924e-06,-2.83442, , , ,0.00120839,
2,0,0,1,0,58283.8,0.000199195,-0.000212493,-1.45737,30,0.000874029,10,3.0968e-07,-2.83643, , , ,-0.000212493,