File: Figure_codes/Fig_3-5/rawdata_trumpetplot_data/after 10th/20221101_1-115_003_TrumpetPlot_ParaChange_from10_every3_05_CV_C01_34.csv
mode,ox/red,error,control changes,counter inc.,time/s,control/V,Ewe/V,<I>/mA,cycle number,(Q-Qo)/C,I Range,P/W,log(|I|),Tafel slope mV/dec,alpha_eff,dI/d(E-IR),E-IR/V,
2,0,0,1,0,68104.5,2.44065e-05,-0.000325324,-0.738606,35,0.0000000E+000,10,2.40286e-07,-3.13159, , , ,-0.000325324,
2,0,0,1,0,68104.5,0.00129787,0.000948037,-0.00867188,35,-1.69922e-05,10,-8.22126e-09,-5.06189, , , ,0.000948037,
2,1,0,1,0,68104.6,0.00279606,0.00244745,0.339067,35,-1.74553e-06,10,8.29849e-07,-3.46971,0.00964735,6.11567,179.93,0.00244745,
2,1,0,1,0,68104.7,0.00429425,0.00398976,0.488429,35,3.10631e-05,10,1.94871e-06,-3.3112,0.0108049,5.46046,85.8704,0.00398976,
2,1,0,1,0,68104.7,0.00579244,0.00549869,0.576518,35,7.25134e-05,10,3.1701e-06,-3.23919,0.0243111,2.42687,51.6229,0.00549869,
2,1,0,1,0,68104.8,0.00729063,0.0069765,0.639932,35,0.000119401,10,4.46449e-06,-3.19387,0.0396766,1.48702,36.054,0.0069765,
2,1,0,1,0,68104.9,0.00878882,0.00848663,0.68474,35,0.000170282,10,5.81114e-06,-3.16447,0.056894,1.03702,27.2781,0.00848663,
2,1,0,1,0,68105,0.010287,0.00998605,0.715758,35,0.000224118,10,7.1476e-06,-3.14523,0.0772915,0.763344,21.1796,0.00998605,
2,1,0,1,0,68105,0.0117852,0.011475,0.749772,35,0.000280432,10,8.60362e-06,-3.12507,0.0911485,0.647295,18.8035,0.011475,
2,1,0,1,0,68105.1,0.0132847,0.0129345,0.773177,35,0.000338723,10,1.00006e-05,-3.11172,0.104657,0.563744,17.0505,0.0129345,
2,1,0,1,0,68105.2,0.0147802,0.0144983,0.798048,35,0.000398752,10,1.15703e-05,-3.09797,0.117527,0.502014,15.5939,0.01449828,
2,1,0,1,0,68105.3,0.0162798,0.0159669,0.818378,35,0.000460777,10,1.3067e-05,-3.08705,0.147488,0.400033,12.7331,0.0159669,
2,1,0,1,0,68105.3,0.017778,0.01739,0.838078,35,0.000524179,10,1.45742e-05,-3.07672,0.157785,0.373926,12.2274,0.01739,
2,1,0,1,0,68105.4,0.0192761,0.0189574,0.857761,35,0.000588775,10,1.62609e-05,-3.06663,0.157533,0.374524,12.5163,0.0189574,
2,1,0,1,0,68105.5,0.0207743,0.0204587,0.875284,35,0.000654876,10,1.79072e-05,-3.05785,0.156842,0.376174,12.8228,0.0204587,
2,1,0,1,0,68105.6,0.0222725,0.0219378,0.8926,35,0.000722439,10,1.95817e-05,-3.04934,0.176141,0.334959,11.6796,0.0219378,
2,1,0,1,0,68105.6,0.0237707,0.0234617,0.910602,35,0.000791271,10,2.13643e-05,-3.04067,0.191678,0.307808,10.9439,0.0234617,
2,1,0,1,0,68105.7,0.0252689,0.0248875,0.926366,35,0.000861236,10,2.30549e-05,-3.03322,0.183486,0.321551,11.6664,0.0248875,
2,1,0,1,0,68105.8,0.0267671,0.0264426,0.943873,35,0.000932511,10,2.49585e-05,-3.02509,0.163618,0.360596,13.2865,0.02644261,
2,1,0,1,0,68105.9,0.0282653,0.027945,0.962982,35,0.00100519,10,2.69106e-05,-3.01638,0.186694,0.316025,11.8638,0.027945,
2,1,0,1,0,68105.9,0.0297644,0.0294502,0.980499,35,0.0010793,10,2.88759e-05,-3.00855,0.199456,0.295804,11.3009,0.0294502,
2,1,0,1,0,68106,0.0312599,0.0309129,0.993338,35,0.00115444,10,3.0707e-05,-3.0029,0.198309,0.297515,11.5874,0.0309129,
2,1,0,1,0,68106.1,0.0327599,0.0324116,1.01468,35,0.00123101,10,3.28874e-05,-2.99367,0.196812,0.299779,11.872,0.0324116,
2,1,0,1,0,68106.2,0.034258,0.0339491,1.03321,35,0.0013089,10,3.50767e-05,-2.98581,0.212506,0.277639,11.1741,0.0339491,
2,1,0,1,0,68106.2,0.0357562,0.0354455,1.04983,35,0.00138807,10,3.72117e-05,-2.97888,0.220715,0.267313,10.9356,0.0354455,
2,1,0,1,0,68106.3,0.0372544,0.0369184,1.06556,35,0.00146849,10,3.93387e-05,-2.97242,0.221841,0.265956,11.067,0.0369184,
2,1,0,1,0,68106.4,0.0387526,0.0383867,1.08197,35,0.00155008,10,4.15331e-05,-2.96579,0.222263,0.265452,11.2356,0.0383867,
2,1,0,1,0,68106.5,0.0402508,0.0399168,1.10026,35,0.00163303,10,4.3919e-05,-2.9585,0.212078,0.2782,11.9564,0.0399168,
2,1,0,1,0,68106.5,0.041749,0.0413962,1.1212,35,0.00171748,10,4.64134e-05,-2.95032,0.219027,0.269374,11.7489,0.04139623,
2,1,0,1,0,68106.6,0.0432472,0.0429626,1.1384,35,0.00180322,10,4.89087e-05,-2.9437,0.229883,0.256652,11.3752,0.0429626,
2,1,0,1,0,68106.7,0.0447449,0.0444095,1.15246,35,0.00189015,10,5.11803e-05,-2.93837,0.23095,0.255466,11.4994,0.0444095,
2,1,0,1,0,68106.8,0.0462445,0.0459441,1.16957,35,0.0019785,10,5.37351e-05,-2.93197,0.231463,0.254901,11.6302,0.0459441,
2,1,0,1,0,68106.8,0.04774,0.0474667,1.18971,35,0.00206791,10,5.64714e-05,-2.92456,0.235491,0.25054,11.6023,0.0474667,
2,1,0,1,0,68106.9,0.0492399,0.0489546,1.20345,35,0.00215884,10,5.89146e-05,-2.91957,0.267482,0.220576,10.3559,0.0489546,
2,1,0,1,0,68107,0.0507381,0.0504436,1.21705,35,0.00225076,10,6.13923e-05,-2.91469,0.268156,0.220021,10.4792,0.0504436,
2,1,0,1,0,68107.1,0.0522363,0.0518827,1.2336,35,0.00234388,10,6.40027e-05,-2.90882,0.233923,0.25222,12.1588,0.0518827,
2,1,0,1,0,68107.1,0.0537345,0.0534237,1.25393,35,0.00243832,10,6.69895e-05,-2.90173,0.256646,0.229888,11.2401,0.0534237,
2,1,0,1,0,68107.2,0.0552327,0.0549216,1.2711,35,0.00253408,10,6.98109e-05,-2.89582,0.294105,0.200609,9.91314,0.0549216,
2,1,0,1,0,68107.3,0.0567309,0.0563989,1.28202,35,0.00263093,10,7.23045e-05,-2.89211,0.317068,0.18608,9.31442,0.0563989,
2,1,0,1,0,68107.4,0.0582291,0.0578604,1.29873,35,0.00272868,10,7.51449e-05,-2.88648,0.317964,0.185556,9.40398,0.0578604,
2,1,0,1,0,68107.4,0.0597291,0.0594222,1.31328,35,0.00282774,10,7.8038e-05,-2.88164,0.303225,0.194575,9.95935,0.05942224,
2,1,0,1,0,68107.5,0.0612246,0.060934,1.32637,35,0.00292768,10,8.0821e-05,-2.87734,0.361912,0.163023,8.43207,0.06093397,
2,1,0,1,0,68107.6,0.0627241,0.0623692,1.34182,35,0.00302897,10,8.3688e-05,-2.87231,0.336665,0.175248,9.16913,0.06236919,
2,1,0,1,0,68107.7,0.0642218,0.0638971,1.35257,35,0.00313099,10,8.64251e-05,-2.86884,0.32054,0.184065,9.73355,0.0638971,
2,1,0,1,0,68107.7,0.06572,0.0654309,1.36945,35,0.00323414,10,8.96042e-05,-2.86345,0.334512,0.176376,9.4044,0.0654309,
2,1,0,1,0,68107.8,0.0672182,0.066881,1.38227,35,0.00333841,10,9.24476e-05,-2.85941,0.372941,0.158202,8.51231,0.066881,
2,1,0,1,0,68107.9,0.0687164,0.0684124,1.39332,35,0.00344362,10,9.53203e-05,-2.85595,0.436719,0.135098,7.33667,0.0684124,
2,1,0,1,0,68108,0.0702146,0.0698886,1.40272,35,0.00354952,10,9.80338e-05,-2.85303,0.431507,0.13673,7.48986,0.0698886,
2,1,0,1,0,68108,0.0717128,0.0713858,1.41731,35,0.00365628,10,0.000101176,-2.84854,0.418993,0.140814,7.77628,0.0713858,
2,1,0,1,0,68108.1,0.073211,0.0728837,1.42615,35,0.00376396,10,0.000103943,-2.84583,0.473499,0.124604,6.93401,0.0728837,
2,1,0,1,0,68108.2,0.0747092,0.0743676,1.43785,35,0.00387245,10,0.00010693,-2.84229,0.484511,0.121772,6.82799,0.0743676,
2,1,0,1,0,68108.3,0.0762087,0.0758953,1.44511,35,0.00398173,10,0.000109677,-2.8401,0.552609,0.106766,6.03176,0.07589528,
2,1,0,1,0,68108.3,0.0777042,0.0773734,1.45407,35,0.00409139,10,0.000112506,-2.83741,0.467246,0.126272,7.17489,0.0773734,
2,1,0,1,0,68108.4,0.0792037,0.078866,1.46587,35,0.00420215,10,0.000115608,-2.8339,0.501473,0.117653,6.72032,0.07886599,
2,1,0,1,0,68108.5,0.0807019,0.0803588,1.47499,35,0.00431355,10,0.000118528,-2.83121,0.69753,0.0845841,4.86123,0.0803588,
2,1,0,1,0,68108.6,0.0822001,0.0818745,1.48183,35,0.00442558,10,0.000121324,-2.8292,0.520591,0.113333,6.5654,0.0818745,
2,1,0,1,0,68108.6,0.0836983,0.0833584,1.49228,35,0.00453815,10,0.000124394,-2.82615,0.539356,0.10939,6.37496,0.0833584,
2,1,0,1,0,68108.7,0.0851965,0.0848636,1.50427,35,0.00465159,10,0.000127658,-2.82267,0.504237,0.117009,6.86349,0.0848636,
2,1,0,1,0,68108.8,0.0866947,0.0863409,1.51548,35,0.00476589,10,0.000130848,-2.81945,0.530856,0.111141,6.56601,0.0863409,
2,1,0,1,0,68108.9,0.0881929,0.0878951,1.52843,35,0.00488091,10,0.000134341,-2.81575,0.515356,0.114484,6.8253,0.0878951,
2,1,0,1,0,68108.9,0.0896911,0.0893638,1.53427,35,0.00499664,10,0.000137108,-2.8141,0.426905,0.138204,8.29439,0.0893638,
2,1,0,1,0,68109,0.0911893,0.0908534,1.54976,35,0.00511331,10,0.000140801,-2.80973,0.36802,0.160317,9.69354,0.0908534,
2,1,0,1,0,68109.1,0.0926884,0.0923347,1.56545,35,0.00523129,10,0.000144546,-2.80536,0.337296,0.174921,10.6765,0.09233474,
2,1,0,1,0,68109.2,0.0941839,0.0938608,1.58032,35,0.00535008,10,0.00014833,-2.80125,0.341934,0.172548,10.6477,0.09386079,
2,1,0,1,0,68109.2,0.0956838,0.0953533,1.59466,35,0.00547031,10,0.000152056,-2.79733,0.292911,0.201426,12.5745,0.0953533,
2,1,0,1,0,68109.3,0.097182,0.0968826,1.61702,35,0.00559186,10,0.000156661,-2.79128,0.240733,0.245085,15.4705,0.0968826,
2,1,0,1,0,68109.4,0.0986802,0.0983489,1.63973,35,0.00571511,10,0.000161265,-2.78523,0.233355,0.252833,16.1969,0.0983489,
2,1,0,1,0,68109.5,0.100178,0.0998713,1.66592,35,0.00584015,10,0.000166378,-2.77835,0.237266,0.248666,16.1554,0.0998713,
2,1,0,1,0,68109.5,0.101677,0.101318,1.68682,35,0.00596698,10,0.000170905,-2.77293,0.219304,0.269033,17.7549,0.101318,
2,1,0,1,0,68109.6,0.103175,0.102848,1.71657,35,0.00609575,10,0.000176546,-2.76534,0.207323,0.284581,19.1084,0.102848,
2,1,0,1,0,68109.7,0.104673,0.104344,1.75434,35,0.00622688,10,0.000183055,-2.75589,0.189864,0.310749,21.2004,0.104344,
2,1,0,1,0,68109.8,0.106171,0.105878,1.78253,35,0.00636033,10,0.00018873,-2.74896,0.213161,0.276786,19.1809,0.105878,
2,1,0,1,0,68109.8,0.107669,0.107368,1.80655,35,0.00649594,10,0.000193966,-2.74315,0.21309,0.276879,19.5333,0.107368,
2,1,0,1,0,68109.9,0.109168,0.108873,1.83649,35,0.00663377,10,0.000199943,-2.73601,0.217939,0.270717,19.4158,0.108873,
2,1,0,1,0,68110,0.110664,0.110338,1.86657,35,0.00677356,10,0.000205953,-2.72896,0.227448,0.2594,18.8931,0.110338,
2,1,0,1,0,68110.1,0.112164,0.111853,1.89653,35,0.00691592,10,0.000212132,-2.72204,0.251329,0.234752,17.3382,0.1118528,
2,1,0,1,0,68110.1,0.113662,0.11332,1.92292,35,0.00706011,10,0.000217906,-2.71604,0.266873,0.221079,16.5654,0.11332,
2,1,0,1,0,68110.2,0.11516,0.114801,1.94538,35,0.0072061,10,0.00022333,-2.711,0.289956,0.203479,15.4243,0.114801,
2,1,0,1,0,68110.3,0.116658,0.116331,1.96997,35,0.00735395,10,0.000229169,-2.70554,0.298934,0.197368,15.1502,0.116331,
2,1,0,1,0,68110.4,0.118157,0.117816,1.9906,35,0.0075035,10,0.000234524,-2.70102,0.360136,0.163827,12.697,0.117816,
2,1,0,1,0,68110.4,0.119655,0.119366,2.00866,35,0.00765447,10,0.000239764,-2.69709,0.477784,0.123487,9.65579,0.119366,
2,1,0,1,0,68110.5,0.121153,0.120847,2.01842,35,0.0078064,10,0.000243921,-2.69499,0.523035,0.112803,8.89303,0.120847,
2,1,0,1,0,68110.6,0.122653,0.122316,2.03121,35,0.00795948,10,0.00024845,-2.69225,0.562304,0.104926,8.31456,0.122316,
2,1,0,1,0,68110.7,0.124149,0.123827,2.04395,35,0.00811313,10,0.000253096,-2.68953,0.591352,0.0997713,7.95267,0.123827,
2,1,0,1,0,68110.7,0.125648,0.125347,2.05212,35,0.00826791,10,0.000257228,-2.6878,0.906976,0.0650514,5.20366,0.125347,
2,1,0,1,0,68110.8,0.127146,0.126795,2.05463,35,0.00842317,10,0.000260516,-2.68727,1.0744,0.0549142,4.41003,0.126795,
2,1,0,1,0,68110.9,0.128644,0.128337,2.06364,35,0.00857867,10,0.000264841,-2.68537,1.45683,0.0404988,3.26561,0.128337,
2,1,0,1,0,68111,0.130142,0.12983,2.06975,35,0.00873475,10,0.000268717,-2.68408,1.22733,0.0480719,3.88012,0.12983,
2,1,0,1,0,68111,0.13164,0.131341,2.07511,35,0.00889135,10,0.000272547,-2.68296,37.8028,0.00156073,0.126171,0.131341,
2,1,0,1,0,68111.1,0.133139,0.132817,2.07526,35,0.00904807,10,0.000275631,-2.68293,-4.54298,-0.0129871,-1.0512,0.132817,
2,1,0,1,0,68111.2,0.134637,0.13432,2.07244,35,0.0092045,10,0.000278369,-2.68352,-1.48115,-0.039834,-3.21925,0.13432,
2,1,0,1,0,68111.3,0.136135,0.135803,2.06596,35,0.00936072,10,0.000280563,-2.68488,-0.890267,-0.0662723,-5.33048,0.135803,
2,1,0,1,0,68111.3,0.137633,0.1373,2.05652,35,0.00951632,10,0.00028236,-2.68687,-0.462858,-0.127469,-10.1887,0.1373,
2,1,0,1,0,68111.4,0.139133,0.138824,2.0395,35,0.00967105,10,0.000283132,-2.69048,-0.315531,-0.186986,-14.7993,0.138824,
2,1,0,1,0,68111.5,0.140628,0.140324,2.01006,35,0.00982347,10,0.00028206,-2.69679,-0.224937,-0.262295,-20.5003,0.140324,
2,1,0,1,0,68111.6,0.142128,0.141845,1.97376,35,0.00997407,10,0.000279967,-2.70471,-0.189377,-0.311548,-23.924,0.141845,
2,1,0,1,0,68111.6,0.143626,0.14337,1.93287,35,0.0101217,10,0.000277115,-2.7138,-0.139883,-0.421782,-31.6789,0.14337,
2,1,0,1,0,68111.7,0.145124,0.144802,1.88169,35,0.0102658,10,0.000272472,-2.72545,-0.114876,-0.513598,-37.5663,0.144802,
2,1,0,1,0,68111.8,0.146622,0.146287,1.81901,35,0.0104057,10,0.000266097,-2.74016,-0.100684,-0.585991,-41.5399,0.146287,
2,1,0,1,0,68111.9,0.14812,0.147815,1.75794,35,0.0105409,10,0.000259849,-2.755,-0.0937814,-0.629122,-43.0229,0.147815,
2,1,0,1,0,68111.9,0.149619,0.149317,1.69149,35,0.0106711,10,0.000252568,-2.77173,-0.086033,-0.685784,-45.1142,0.149317,
2,1,0,1,0,68112,0.151117,0.150818,1.62035,35,0.0107963,10,0.000244378,-2.79039,-0.0804464,-0.733407,-46.3217,0.150818,
2,1,0,1,0,68112.1,0.152615,0.152301,1.55068,35,0.0109163,10,0.00023617,-2.80948,-0.079838,-0.738996,-44.7896,0.152301,
2,1,0,1,0,68112.2,0.154113,0.153813,1.4874,35,0.0110311,10,0.000228783,-2.82757,-0.0807007,-0.731096,-42.5348,0.153813,
2,1,0,1,0,68112.2,0.155613,0.155268,1.42662,35,0.0111415,10,0.000221508,-2.84569,-0.0865489,-0.681695,-38.0202,0.155268,
2,1,0,1,0,68112.3,0.157108,0.156787,1.37103,35,0.0112473,10,0.00021496,-2.86295,-0.0884785,-0.666829,-35.7599,0.156787,
2,1,0,1,0,68112.4,0.158608,0.158304,1.31957,35,0.0113493,10,0.000208894,-2.87957,-0.0954883,-0.617877,-31.9323,0.158304,
2,1,0,1,0,68112.5,0.160106,0.159758,1.2743,35,0.0114475,10,0.000203579,-2.89473,-0.100999,-0.584166,-29.1558,0.159758,
2,1,0,1,0,68112.5,0.161604,0.16126,1.23468,35,0.0115426,10,0.000199105,-2.90845,-0.117943,-0.500243,-24.1427,0.16126,
2,1,0,1,0,68112.6,0.163102,0.162805,1.20137,35,0.0116349,10,0.000195589,-2.92032,-0.128385,-0.459555,-21.575,0.162805,
2,1,0,1,0,68112.7,0.164601,0.164276,1.17091,35,0.0117248,10,0.000192353,-2.93147,-0.138282,-0.426664,-19.4916,0.164276,
2,1,0,1,0,68112.8,0.166099,0.165746,1.1396,35,0.0118124,10,0.000188885,-2.94325,-0.155042,-0.380541,-16.9818,0.165746,
2,1,0,1,0,68112.8,0.167597,0.167223,1.11722,35,0.0118982,10,0.000186826,-2.95186,-0.186576,-0.316225,-13.8256,0.167223,
2,1,0,1,0,68112.9,0.169095,0.16877,1.1,35,0.0119824,10,0.000185648,-2.95861,-0.208957,-0.282355,-12.1266,0.16877,
2,1,0,1,0,68113,0.170593,0.17027,1.08154,35,0.0120652,10,0.000184155,-2.96596,-0.226695,-0.260261,-11.0062,0.1702702,
2,1,0,1,0,68113.1,0.172092,0.171789,1.06372,35,0.0121468,10,0.000182735,-2.97317,-0.246845,-0.239016,-9.95682,0.171789,
2,1,0,1,0,68113.1,0.173588,0.173263,1.05116,35,0.0122271,10,0.000182127,-2.97833,-0.316572,-0.186372,-7.65686,0.173263,
2,1,0,1,0,68113.2,0.175088,0.174772,1.04167,35,0.0123068,10,0.000182055,-2.98227,-0.311286,-0.189536,-7.70362,0.174772,
2,1,0,1,0,68113.3,0.176586,0.17622,1.03048,35,0.0123855,10,0.000181591,-2.98696,-0.334189,-0.176547,-7.09164,0.17622,
2,1,0,1,0,68113.4,0.178084,0.177797,1.01691,35,0.0124634,10,0.000180803,-2.99272,-0.327065,-0.180392,-7.18626,0.177797,
2,1,0,1,0,68113.4,0.179582,0.179264,1.01142,35,0.0125406,10,0.000181312,-2.99507,-0.421619,-0.139937,-5.53057,0.179264,
2,1,0,1,0,68113.5,0.181081,0.180765,1.00338,35,0.0126171,10,0.000181376,-2.99854,-0.486615,-0.121246,-4.75625,0.180765,
2,1,0,1,0,68113.6,0.182579,0.182261,0.997536,35,0.0126933,10,0.000181812,-3.00107,-0.479181,-0.123127,-4.79312,0.182261,
2,1,0,1,0,68113.7,0.184077,0.183793,0.992186,35,0.012769,10,0.000182357,-3.00341,-0.545489,-0.10816,-4.18705,0.1837928,
2,1,0,1,0,68113.7,0.185577,0.185293,0.985535,35,0.0128442,10,0.000182612,-3.00633,-0.681662,-0.0865531,-3.33198,0.185293,
2,1,0,1,0,68113.8,0.187073,0.186764,0.981863,35,0.0129189,10,0.000183377,-3.00795,-0.783257,-0.0753265,-2.88294,0.186764,
2,1,0,1,0,68113.9,0.188572,0.188267,0.977766,35,0.0129935,10,0.000184081,-3.00976,-0.795675,-0.0741509,-2.82424,0.188267,
2,1,0,1,0,68114,0.19007,0.189782,0.971737,35,0.0130677,10,0.000184418,-3.01245,-0.832202,-0.0708963,-2.68936,0.189782,
2,1,0,1,0,68114,0.191568,0.191247,0.968521,35,0.0131415,10,0.000185227,-3.01389,-1.01553,-0.0580977,-2.19615,0.191247,
2,1,0,1,0,68114.1,0.193066,0.192732,0.963449,35,0.013215,10,0.000185688,-3.01617,-1.44715,-0.0407698,-1.53597,0.192732,
2,1,0,1,0,68114.2,0.194564,0.194233,0.961938,35,0.0132883,10,0.00018684,-3.01685,-1.16169,-0.0507881,-1.90596,0.194233,
2,1,0,1,0,68114.3,0.196063,0.195748,0.960569,35,0.0133615,10,0.00018803,-3.01747,-0.797306,-0.0739992,-2.76874,0.195748,
2,1,0,1,0,68114.3,0.197561,0.197175,0.954658,35,0.0134343,10,0.000188235,-3.02015,-1.2095,-0.0487804,-1.8222,0.1971754,
2,1,0,1,0,68114.4,0.199059,0.19871,0.953843,35,0.0135069,10,0.000189538,-3.02052,-1.18986,-0.0495859,-1.84562,0.1987101,
2,1,0,1,0,68114.5,0.200557,0.200269,0.951334,35,0.0135793,10,0.000190523,-3.02167,-1.41259,-0.0417674,-1.54646,0.200269,
2,1,0,1,0,68114.6,0.202057,0.201764,0.949917,35,0.0136518,10,0.000191659,-3.02231,-1.00756,-0.0585571,-2.1648,0.201764,
2,1,0,1,0,68114.6,0.203552,0.203242,0.945288,35,0.0137237,10,0.000192122,-3.02444,-1.01144,-0.0583329,-2.15849,0.203242,
2,1,0,1,0,68114.7,0.205052,0.204734,0.942603,35,0.0137956,10,0.000192983,-3.02567,4.19568,0.0140621,0.519733,0.2047337,
2,1,0,1,0,68114.8,0.20655,0.206228,0.941676,35,0.0138674,10,0.0001942,-3.0261,-1.8005,-0.0327687,-1.20523,0.206228,
2,1,0,1,0,68114.9,0.208048,0.207738,0.940809,35,0.0139392,10,0.000195442,-3.0265,-1.25492,-0.0470151,-1.72348,0.207738,
2,1,0,1,0,68114.9,0.209546,0.20925,0.938986,35,0.0140108,10,0.000196483,-3.02734,-1.34485,-0.0438709,-1.61004,0.20925,
2,1,0,1,0,68115,0.211044,0.210728,0.936398,35,0.014082,10,0.000197325,-3.02854,-1.23793,-0.0476604,-1.74158,0.210728,
2,1,0,1,0,68115.1,0.212543,0.212228,0.936415,35,0.0141532,10,0.000198733,-3.02853,-1.88323,-0.0313292,-1.14086,0.212228,
2,1,0,1,0,68115.2,0.214041,0.21371,0.93389,35,0.0142243,10,0.000199582,-3.0297,-2.24341,-0.0262993,-0.959839,0.21371,
2,1,0,1,0,68115.2,0.215539,0.215246,0.933372,35,0.0142953,10,0.000200904,-3.02995,-2.89756,-0.0203619,-0.740997,0.215246,
2,1,0,1,0,68115.3,0.217037,0.216731,0.932166,35,0.0143662,10,0.00020203,-3.03051,-1.81692,-0.0324725,-1.18046,0.216731,
2,1,0,1,0,68115.4,0.218536,0.218233,0.927165,35,0.014437,10,0.000202338,-3.03284,38.3015,0.00154041,0.0558103,0.218233,
2,1,0,1,0,68115.5,0.220032,0.219714,0.928525,35,0.0145077,10,0.00020401,-3.03221,-19.0325,-0.00309996,-0.112176,0.2197136,
2,1,0,1,0,68115.5,0.221532,0.221263,0.928016,35,0.0145784,10,0.000205335,-3.03244,-1.02126,-0.057772,-2.08934,0.221263,
2,1,0,1,0,68115.6,0.22303,0.222685,0.921505,35,0.0146489,10,0.000205205,-3.0355,-2.13877,-0.0275859,-0.995739,0.222685,
2,1,0,1,0,68115.7,0.224528,0.22429,0.924201,35,0.0147192,10,0.000207289,-3.03423,-2.63069,-0.0224276,-0.807557,0.22429,
2,1,0,1,0,68115.8,0.226026,0.225728,0.922589,35,0.0147895,10,0.000208254,-3.03499,-3.02085,-0.0195309,-0.70385,0.225728,
2,1,0,1,0,68115.8,0.227525,0.227226,0.921982,35,0.0148597,10,0.000209499,-3.03528,-1.2078,-0.048849,-1.75636,0.227226,
2,1,0,1,0,68115.9,0.229023,0.228767,0.921203,35,0.0149298,10,0.000210741,-3.03564,-2.39662,-0.024618,-0.884847,0.228767,
2,1,0,1,0,68116,0.230521,0.230197,0.918043,35,0.0149998,10,0.000211331,-3.03714,-4.05667,-0.014544,-0.521809,0.230197,
2,1,0,1,0,68116,0.232019,0.231688,0.920646,35,0.0150697,10,0.000213303,-3.03591,-4.65476,-0.0126752,-0.453991,0.231688,
2,1,0,1,0,68116.1,0.233517,0.233208,0.917385,35,0.0151396,10,0.000213941,-3.03745,-2.64222,-0.0223297,-0.799609,0.233208,
2,1,0,1,0,68116.2,0.235016,0.234735,0.918615,35,0.0152095,10,0.000215631,-3.03687,-1.70632,-0.0345773,-1.23545,0.234735,
2,1,0,1,0,68116.3,0.236512,0.236191,0.915139,35,0.0152791,10,0.000216148,-3.03851,-5.41244,-0.0109008,-0.389906,0.236191,
2,1,0,1,0,68116.3,0.238012,0.237716,0.91332,35,0.0153488,10,0.000217111,-3.03938,18.7871,0.00314046,0.112034,0.237716,
2,1,0,1,0,68116.4,0.23951,0.239218,0.91311,35,0.0154184,10,0.000218432,-3.03948,-6.568,-0.00898295,-0.320233,0.239218,
2,1,0,1,0,68116.5,0.241008,0.240733,0.912431,35,0.0154879,10,0.000219653,-3.0398,-1.99899,-0.0295149,-1.05149,0.240733,
2,1,0,1,0,68116.6,0.242506,0.242183,0.909012,35,0.0155573,10,0.000220147,-3.04143,-15.8934,-0.00371224,-0.132092,0.242183,
2,1,0,1,0,68116.6,0.244005,0.243674,0.910652,35,0.0156266,10,0.000221902,-3.04065,-124.294,-0.000474681,-0.0168653,0.2436738,
2,1,0,1,0,68116.7,0.245503,0.245205,0.912848,35,0.0156959,10,0.000223835,-3.0396,-2.00581,-0.0294145,-1.04353,0.245205,
2,1,0,1,0,68116.8,0.247001,0.246698,0.911726,35,0.0157652,10,0.000224921,-3.04014,-1.57664,-0.0374214,-1.32505,0.246698,
2,1,0,1,0,68116.9,0.248501,0.248196,0.905433,35,0.0158344,10,0.000224724,-3.04314,-2.14666,-0.0274845,-0.972046,0.248196,
2,1,0,1,0,68116.9,0.249997,0.249695,0.908205,35,0.0159033,10,0.000226775,-3.04182,-3.39456,-0.0173808,-0.615206,0.249695,
2,1,0,1,0,68117,0.251496,0.251204,0.905313,35,0.0159724,10,0.000227418,-3.0432,-2.59539,-0.0227326,-0.804734,0.251204,
2,1,0,1,0,68117.1,0.252994,0.252677,0.904842,35,0.0160413,10,0.000228633,-3.04343,-1.57949,-0.0373539,-1.3165,0.252677,
2,1,0,1,0,68117.2,0.254492,0.254159,0.90259,35,0.0161102,10,0.000229402,-3.04451,-1.95751,-0.0301403,-1.06333,0.254159,
2,1,0,1,0,68117.2,0.25599,0.255708,0.901236,35,0.0161789,10,0.000230453,-3.04516,-165.145,-0.000357261,-0.0126056,0.2557078,
2,1,0,1,0,68117.3,0.257488,0.257196,0.903175,35,0.0162476,10,0.000232293,-3.04423,-4.18561,-0.0140959,-0.495724,0.257196,
2,1,0,1,0,68117.4,0.258987,0.258709,0.902919,35,0.0163163,10,0.000233593,-3.04435,-1.67683,-0.0351853,-1.23452,0.258709,
2,1,0,1,0,68117.5,0.260485,0.260204,0.902589,35,0.0163849,10,0.000234857,-3.04451,-1.59408,-0.037012,-1.30123,0.260204,
2,1,0,1,0,68117.5,0.261983,0.261638,0.898452,35,0.0164533,10,0.00023507,-3.04651,-1.81703,-0.0324706,-1.14021,0.261638,
2,1,0,1,0,68117.6,0.263481,0.263184,0.89587,35,0.0165217,10,0.000235779,-3.04776,-9.19361,-0.0064175,-0.2247,0.263184,
2,1,0,1,0,68117.7,0.264981,0.264691,0.897022,35,0.0165901,10,0.000237433,-3.0472,-9.34209,-0.0063155,-0.220965,0.264691,
2,1,0,1,0,68117.8,0.266476,0.266191,0.894691,35,0.0166583,10,0.000238159,-3.04833,-1.65527,-0.0356438,-1.24603,0.266191,
2,1,0,1,0,68117.8,0.267976,0.267654,0.891359,35,0.0167265,10,0.000238576,-3.04995,-2.58606,-0.0228147,-0.795872,0.267654,
2,1,0,1,0,68117.9,0.269474,0.269215,0.891526,35,0.0167945,10,0.000240012,-3.04987,14.6314,0.00403243,0.140572,0.269215,
2,1,0,1,0,68118,0.270972,0.270639,0.8943,35,0.0168625,10,0.000242032,-3.04852,-2.88121,-0.0204775,-0.712078,0.270639,
2,1,0,1,0,68118.1,0.27247,0.272143,0.893083,35,0.0169305,10,0.000243046,-3.04911,-1.62773,-0.0362468,-1.26012,0.272143,
2,1,0,1,0,68118.1,0.273968,0.273693,0.887153,35,0.0169983,10,0.000242808,-3.052,-1.43246,-0.041188,-1.43119,0.273693,
2,1,0,1,0,68118.2,0.275467,0.275154,0.887707,35,0.0170659,10,0.000244256,-3.05173,-2.69404,-0.0219002,-0.759087,0.275154,
2,1,0,1,0,68118.3,0.276965,0.276697,0.886795,35,0.0171335,10,0.000245373,-3.05218,-2.20385,-0.0267714,-0.927567,0.2766965,
2,1,0,1,0,68118.4,0.278463,0.278146,0.885469,35,0.0172011,10,0.00024629,-3.05283,-2.10417,-0.0280395,-0.968891,0.278146,
2,1,0,1,0,68118.4,0.279961,0.279689,0.885866,35,0.0172685,10,0.000247767,-3.05263,-1.19005,-0.0495775,-1.71209,0.279689,
2,1,0,1,0,68118.5,0.28146,0.281129,0.881328,35,0.0173359,10,0.000247767,-3.05486,-2.38908,-0.0246957,-0.851353,0.281129,
2,1,0,1,0,68118.6,0.282956,0.282625,0.882279,35,0.017403,10,0.000249354,-3.05439,3.09548,0.0190601,0.65504,0.282625,
2,1,0,1,0,68118.7,0.284456,0.284131,0.880181,35,0.0174702,10,0.000250087,-3.05543,-3.97519,-0.0148421,-0.510033,0.284131,
2,1,0,1,0,68118.7,0.285954,0.285587,0.88125,35,0.0175373,10,0.000251673,-3.0549,-1.59117,-0.0370796,-1.27384,0.285587,
2,1,0,1,0,68118.8,0.287452,0.287142,0.875322,35,0.0176041,10,0.000251341,-3.05783,-1.55953,-0.037832,-1.29611,0.287142,
2,1,0,1,0,68118.9,0.28895,0.288674,0.876859,35,0.0176709,10,0.000253126,-3.05707,-19.8929,-0.00296588,-0.101276,0.288674,
2,1,0,1,0,68119,0.290449,0.290153,0.872384,35,0.0177376,10,0.000253125,-3.05929,-2.10807,-0.0279877,-0.956648,0.290153,
2,1,0,1,0,68119,0.291947,0.29163,0.871731,35,0.0178042,10,0.000254223,-3.05962,-3.0475,-0.0193602,-0.660164,0.29163,
2,1,0,1,0,68119.1,0.293445,0.293099,0.870519,35,0.0178707,10,0.000255148,-3.06022,-1.74459,-0.0338188,-1.15171,0.293099,
2,1,0,1,0,68119.2,0.294943,0.29465,0.871893,35,0.017937,10,0.000256903,-3.05954,-2.75447,-0.0214197,-0.728663,0.29465,
2,1,0,1,0,68119.3,0.296441,0.296182,0.872,35,0.0180033,10,0.00025827,-3.05948,-2.86627,-0.0205842,-0.698334,0.296182,
2,1,0,1,0,68119.3,0.29794,0.297642,0.868546,35,0.0180697,10,0.000258516,-3.06121,-1.94779,-0.0302908,-1.02514,0.297642,
2,1,0,1,0,68119.4,0.299436,0.299131,0.866681,35,0.0181357,10,0.000259251,-3.06214,-0.00435646,-13.5431,-300.149,0.299131,
2,1,0,1,0,68119.5,0.299739,0.299469,0.604763,35,0.0181697,10,0.000181108,-3.21841,0.000873698,67.529,678.271,0.299469,
2,1,0,1,0,68119.5,0.298239,0.297949,0.102694,35,0.0181906,10,3.05977e-05,-3.98845,0.00358187,16.4718,249.46,0.297949,
2,0,0,1,0,68119.6,0.296741,0.296451,-0.0458052,35,0.0181907,10,-1.3579e-05,-4.33909,0.0258907,2.27881,82.062,0.296451,
2,0,0,1,0,68119.7,0.295243,0.294904,-0.119674,35,0.0181831,10,-3.52922e-05,-3.922,-0.00332378,-17.7509,41.4805,0.294904,
2,0,0,1,0,68119.8,0.293745,0.293395,-0.164265,35,0.0181713,10,-4.81945e-05,-3.78445,-0.012848,-4.59216,26.0278,0.293395,
2,0,0,1,0,68119.8,0.292246,0.291935,-0.196149,35,0.0181567,10,-5.72628e-05,-3.70741,-0.0219715,-2.68529,19.7087,0.291935,
2,0,0,1,0,68119.9,0.290748,0.290404,-0.223175,35,0.0181398,10,-6.48109e-05,-3.65135,-0.0294253,-2.00508,16.8562,0.290404,
2,0,0,1,0,68120,0.28925,0.288942,-0.242748,35,0.0181212,10,-7.01401e-05,-3.61484,-0.0396831,-1.48678,14.0151,0.288942,
2,0,0,1,0,68120.1,0.287752,0.287421,-0.263997,35,0.018101,10,-7.58783e-05,-3.5784,-0.0525597,-1.12253,11.4215,0.287421,
2,0,0,1,0,68120.1,0.286254,0.285965,-0.278012,35,0.0180797,10,-7.95015e-05,-3.55594,-0.0624375,-0.944944,10.2261,0.285965,
2,0,0,1,0,68120.2,0.284754,0.284409,-0.293639,35,0.0180571,10,-8.35134e-05,-3.53219,-0.0662459,-0.890621,10.1021,0.284409,
2,0,0,1,0,68120.3,0.283259,0.28295,-0.307831,35,0.0180334,10,-8.71008e-05,-3.51169,-0.0750241,-0.786414,9.38381,0.28295,
2,0,0,1,0,68120.4,0.281759,0.281434,-0.320038,35,0.0180088,10,-9.00694e-05,-3.4948,-0.0941417,-0.626715,7.79438,0.281434,
2,0,0,1,0,68120.4,0.280261,0.279918,-0.32939,35,0.0179832,10,-9.22023e-05,-3.48229,-0.0913488,-0.645876,8.36021,0.279918,
2,0,0,1,0,68120.5,0.278763,0.278469,-0.344165,35,0.0179568,10,-9.58394e-05,-3.46323,-0.111596,-0.528691,7.09076,0.2784692,
2,0,0,1,0,68120.6,0.277264,0.276969,-0.356202,35,0.0179294,10,-9.86569e-05,-3.4483,-0.115868,-0.509198,7.04347,0.276969,
2,0,0,1,0,68120.7,0.275766,0.275491,-0.36608,35,0.0179012,10,-0.000100852,-3.43642,-0.153452,-0.384486,5.4806,0.275491,
2,0,0,1,0,68120.7,0.274268,0.273968,-0.373999,35,0.0178723,10,-0.000102464,-3.42713,-0.13377,-0.441056,6.45603,0.273968,
2,0,0,1,0,68120.8,0.27277,0.272445,-0.384978,35,0.0178428,10,-0.000104885,-3.41456,-0.142319,-0.414562,6.21865,0.272445,
2,0,0,1,0,68120.9,0.271272,0.270887,-0.394818,35,0.0178126,10,-0.000106951,-3.4036,-0.15099,-0.390754,6.00476,0.270887,
2,0,0,1,0,68121,0.269774,0.269428,-0.404951,35,0.0177816,10,-0.000109105,-3.3926,-0.157509,-0.374581,5.85913,0.2694279,
2,0,0,1,0,68121,0.268274,0.267975,-0.410857,35,0.01775,10,-0.000110099,-3.38631,-0.197739,-0.298372,4.76305,0.267975,
2,0,0,1,0,68121.1,0.266779,0.266509,-0.415905,35,0.0177179,10,-0.000110842,-3.38101,-0.182182,-0.323852,5.27581,0.266509,
2,0,0,1,0,68121.2,0.265279,0.265003,-0.425191,35,0.0176852,10,-0.000112677,-3.37142,-0.17736,-0.332658,5.51006,0.265003,
2,0,0,1,0,68121.3,0.263781,0.263463,-0.432218,35,0.017652,10,-0.000113873,-3.3643,-0.18514,-0.318678,5.3829,0.263463,
2,0,0,1,0,68121.3,0.262283,0.261987,-0.441347,35,0.0176181,10,-0.000115627,-3.35522,-0.201348,-0.293026,5.03035,0.261987,
2,0,0,1,0,68121.4,0.260784,0.260472,-0.446345,35,0.0175836,10,-0.00011626,-3.35033,-0.244103,-0.241702,4.23741,0.260472,
2,0,0,1,0,68121.5,0.259286,0.258999,-0.454997,35,0.0175486,10,-0.000117844,-3.34199,-0.198727,-0.296889,5.29267,0.258999,
2,0,0,1,0,68121.6,0.257788,0.257496,-0.466197,35,0.017513,10,-0.000120044,-3.33143,-0.231635,-0.254711,4.59418,0.257496,
2,0,0,1,0,68121.6,0.25629,0.25598,-0.469309,35,0.0174768,10,-0.000120134,-3.32854,-0.264058,-0.223436,4.08826,0.2559801,
2,0,0,1,0,68121.7,0.25479,0.254462,-0.474571,35,0.0174402,10,-0.00012076,-3.3237,-0.276897,-0.213075,3.95106,0.254462,
2,0,0,1,0,68121.8,0.253294,0.252978,-0.481486,35,0.0174033,10,-0.000121806,-3.31742,-0.254693,-0.231652,4.36412,0.252978,
2,0,0,1,0,68121.9,0.251795,0.251451,-0.487859,35,0.0173658,10,-0.000122673,-3.31171,-0.21607,-0.273059,5.20832,0.251451,
2,0,0,1,0,68121.9,0.250297,0.249976,-0.495393,35,0.0173277,10,-0.000123837,-3.30505,-0.284816,-0.207151,4.00215,0.249976,
2,0,0,1,0,68122,0.248799,0.248473,-0.502067,35,0.0172892,10,-0.00012475,-3.29924,-0.32356,-0.182346,3.56433,0.248473,
2,0,0,1,0,68122.1,0.247301,0.246978,-0.507529,35,0.0172504,10,-0.000125348,-3.29454,-0.247922,-0.237978,4.71942,0.246978,
2,0,0,1,0,68122.2,0.245802,0.245502,-0.512374,35,0.0172111,10,-0.000125789,-3.29041,-0.275047,-0.214509,4.27877,0.245502,
2,0,0,1,0,68122.2,0.244304,0.243989,-0.51959,35,0.0171712,10,-0.000126774,-3.28434,-0.306123,-0.192733,3.89565,0.243989,
2,0,0,1,0,68122.3,0.242806,0.242468,-0.524968,35,0.0171309,10,-0.000127288,-3.27987,-0.379204,-0.155589,3.18929,0.242468,
2,0,0,1,0,68122.4,0.241308,0.240977,-0.529607,35,0.0170903,10,-0.000127623,-3.27605,-0.356144,-0.165663,3.43166,0.240977,
2,0,0,1,0,68122.5,0.23981,0.239521,-0.536005,35,0.0170493,10,-0.000128384,-3.27083,-0.282738,-0.208674,4.35333,0.239521,
2,0,0,1,0,68122.5,0.23831,0.237998,-0.541602,35,0.0170077,10,-0.0001289,-3.26632,-0.308085,-0.191506,4.05086,0.237998,
2,0,0,1,0,68122.6,0.236815,0.23648,-0.547478,35,0.0169658,10,-0.000129467,-3.26163,-0.342136,-0.172446,3.68117,0.23648,
2,0,0,1,0,68122.7,0.235315,0.235011,-0.551039,35,0.0169234,10,-0.0001295,-3.25882,-0.369736,-0.159573,3.43739,0.235011,
2,0,0,1,0,68122.8,0.233817,0.233486,-0.557226,35,0.0168807,10,-0.000130104,-3.25397,-0.362241,-0.162875,3.54298,0.2334861,
2,0,0,1,0,68122.8,0.232319,0.23203,-0.561673,35,0.0168375,10,-0.000130325,-3.25052,-0.31033,-0.19012,4.16271,0.23203,
2,0,0,1,0,68122.9,0.230821,0.23054,-0.56769,35,0.016794,10,-0.000130875,-3.24589,-0.367071,-0.160732,3.55286,0.23054,
2,0,0,1,0,68123,0.229322,0.228994,-0.570907,35,0.01675,10,-0.000130734,-3.24343,-0.343002,-0.17201,3.84371,0.228994,
2,0,0,1,0,68123.1,0.227824,0.227499,-0.577916,35,0.0167057,10,-0.000131475,-3.23814,-0.431338,-0.136784,3.08939,0.227499,
2,0,0,1,0,68123.1,0.226326,0.226045,-0.58305,35,0.016661,10,-0.000131796,-3.23429,-0.497044,-0.118702,2.70383,0.226045,
2,0,0,1,0,68123.2,0.224828,0.22453,-0.589316,35,0.0166158,10,-0.000132319,-3.22965,-0.467076,-0.126318,2.89817,0.22453,
2,0,0,1,0,68123.3,0.22333,0.223055,-0.596295,35,0.0165703,10,-0.000133006,-3.22454,-0.426284,-0.138405,3.21082,0.223055,
2,0,0,1,0,68123.4,0.22183,0.221544,-0.599396,35,0.0165245,10,-0.000132793,-3.22229,-0.379217,-0.155584,3.63492,0.221544,
2,0,0,1,0,68123.4,0.220335,0.220028,-0.606062,35,0.0164782,10,-0.00013335,-3.21748,-0.28812,-0.204776,4.82876,0.2200276,
2,0,0,1,0,68123.5,0.218835,0.218494,-0.612608,35,0.0164314,10,-0.000133851,-3.21282,-0.416595,-0.141625,3.36549,0.218494,
2,0,0,1,0,68123.6,0.217337,0.217015,-0.614783,35,0.0163843,10,-0.000133417,-3.21128,-0.537206,-0.109828,2.639,0.217015,
2,0,0,1,0,68123.7,0.215839,0.215543,-0.617483,35,0.016337,10,-0.000133094,-3.20938,-0.42959,-0.13734,3.32069,0.215543,
2,0,0,1,0,68123.7,0.21434,0.214039,-0.625467,35,0.0162893,10,-0.000133874,-3.2038,-0.401473,-0.146959,3.57292,0.214039,
2,0,0,1,0,68123.8,0.212842,0.212506,-0.630987,35,0.0162411,10,-0.000134088,-3.19998,-0.489943,-0.120422,2.96543,0.212506,
2,0,0,1,0,68123.9,0.211344,0.21102,-0.634767,35,0.0161926,10,-0.000133948,-3.19739,-0.468005,-0.126067,3.11886,0.21102,
2,0,0,1,0,68124,0.209846,0.209528,-0.635779,35,0.0161437,10,-0.000133213,-3.19669,-0.473827,-0.124518,3.10429,0.209528,
2,0,0,1,0,68124,0.208348,0.20803,-0.645698,35,0.0160946,10,-0.000134324,-3.18997,-0.383749,-0.153746,3.87912,0.20803,
2,0,0,1,0,68124.1,0.20685,0.206508,-0.654595,35,0.0160449,10,-0.000135179,-3.18403,-0.379075,-0.155642,3.94628,0.206508,
2,0,0,1,0,68124.2,0.20535,0.205017,-0.657243,35,0.0159947,10,-0.000134746,-3.18227,-0.541112,-0.109035,2.78131,0.205017,
2,0,0,1,0,68124.3,0.203855,0.203548,-0.658171,35,0.0159443,10,-0.000133969,-3.18166,-0.550813,-0.107114,2.75741,0.203548,
2,0,0,1,0,68124.3,0.202355,0.202011,-0.662845,35,0.0158936,10,-0.000133902,-3.17859,-0.494562,-0.119297,3.09945,0.202011,
2,0,0,1,0,68124.4,0.200857,0.200516,-0.668834,35,0.0158425,10,-0.000134112,-3.17468,-0.388042,-0.152045,3.97068,0.200516,
2,0,0,1,0,68124.5,0.199359,0.199078,-0.674789,35,0.0157909,10,-0.000134336,-3.17083,-0.502377,-0.117442,3.08698,0.199078,
2,0,0,1,0,68124.6,0.19786,0.197481,-0.679134,35,0.015739,10,-0.000134116,-3.16804,-0.536735,-0.109924,2.91316,0.197481,
2,0,0,1,0,68124.6,0.196362,0.196041,-0.686219,35,0.0156867,10,-0.000134527,-3.16354,-0.415358,-0.142046,3.79832,0.196041,
2,0,0,1,0,68124.7,0.194864,0.19454,-0.690218,35,0.0156341,10,-0.000134275,-3.16101,-0.358004,-0.164803,4.44161,0.19454,
2,0,0,1,0,68124.8,0.193366,0.192997,-0.695706,35,0.0155808,10,-0.000134269,-3.15757,-0.397001,-0.148614,4.03865,0.192997,
2,0,0,1,0,68124.9,0.191866,0.19153,-0.704643,35,0.0155271,10,-0.00013496,-3.15203,-0.58283,-0.10123,2.77831,0.19153,
2,0,0,1,0,68124.9,0.19037,0.190055,-0.70362,35,0.0154732,10,-0.000133726,-3.15266,-0.424377,-0.139027,3.84427,0.190055,
2,0,0,1,0,68125,0.188871,0.188512,-0.714079,35,0.0154188,10,-0.000134613,-3.14625,-0.332397,-0.177499,4.9393,0.188512,
2,0,0,1,0,68125.1,0.187373,0.18704,-0.720621,35,0.0153639,10,-0.000134785,-3.14229,-0.38168,-0.15458,4.33062,0.18704,
2,0,0,1,0,68125.2,0.185875,0.18556,-0.724275,35,0.0153085,10,-0.000134397,-3.1401,-0.391249,-0.150799,4.26055,0.18556,
2,0,0,1,0,68125.2,0.184377,0.184068,-0.729097,35,0.0152528,10,-0.000134203,-3.13721,-0.518387,-0.113815,3.25049,0.184068,
2,0,0,1,0,68125.3,0.182878,0.182568,-0.736732,35,0.0151967,10,-0.000134504,-3.13269,-0.421281,-0.140049,4.03065,0.182568,
2,0,0,1,0,68125.4,0.18138,0.181063,-0.744137,35,0.01514,10,-0.000134735,-3.12835,-0.37742,-0.156324,4.54526,0.181063,
2,0,0,1,0,68125.5,0.179882,0.179544,-0.751596,35,0.0150827,10,-0.000134944,-3.12402,-0.408537,-0.144418,4.22988,0.179544,
2,0,0,1,0,68125.5,0.178384,0.178057,-0.757883,35,0.0150251,10,-0.000134946,-3.1204,-0.418144,-0.1411,4.18135,0.178057,
2,0,0,1,0,68125.6,0.176886,0.176577,-0.763001,35,0.014967,10,-0.000134728,-3.11747,-0.391261,-0.150794,4.49965,0.176577,
2,0,0,1,0,68125.7,0.175386,0.175057,-0.771038,35,0.0149082,10,-0.000134975,-3.11292,-0.329918,-0.178833,5.38672,0.175057,
2,0,0,1,0,68125.8,0.173891,0.173599,-0.778023,35,0.014849,10,-0.000135064,-3.10901,-0.324118,-0.182032,5.5312,0.173599,
2,0,0,1,0,68125.8,0.172391,0.172082,-0.785868,35,0.0147891,10,-0.000135234,-3.10465,-0.434622,-0.13575,4.17234,0.172082,
2,0,0,1,0,68125.9,0.170893,0.17057,-0.793304,35,0.0147287,10,-0.000135314,-3.10056,-0.332017,-0.177702,5.5142,0.17057,
2,0,0,1,0,68126,0.169395,0.16908,-0.802087,35,0.0146677,10,-0.000135617,-3.09578,-0.281274,-0.20976,6.57203,0.16908,
2,0,0,1,0,68126.1,0.167897,0.167564,-0.813129,35,0.0146059,10,-0.000136251,-3.08984,-0.3074,-0.191932,6.08945,0.167564,
2,0,0,1,0,68126.1,0.166398,0.166065,-0.822502,35,0.0145433,10,-0.000136589,-3.08486,-0.356053,-0.165706,5.32336,0.166065,
2,0,0,1,0,68126.2,0.1649,0.164587,-0.831219,35,0.0144802,10,-0.000136808,-3.08028,-0.288508,-0.204501,6.657,0.164587,
2,0,0,1,0,68126.3,0.163402,0.163075,-0.843429,35,0.0144163,10,-0.000137542,-3.07395,-0.241827,-0.243976,8.03205,0.163075,
2,0,0,1,0,68126.4,0.161904,0.161579,-0.855544,35,0.0143514,10,-0.000138238,-3.06776,-0.233219,-0.252981,8.45318,0.161579,
2,0,0,1,0,68126.4,0.160406,0.160032,-0.870705,35,0.0142856,10,-0.000139341,-3.06013,-0.256901,-0.22966,7.7634,0.160032,
2,0,0,1,0,68126.5,0.158906,0.158575,-0.877902,35,0.0142189,10,-0.000139214,-3.05655,-0.23594,-0.250063,8.59212,0.158575,
2,0,0,1,0,68126.6,0.157411,0.157081,-0.894732,35,0.0141514,10,-0.000140545,-3.04831,-0.198959,-0.296544,10.3711,0.157081,
2,0,0,1,0,68126.7,0.155911,0.155573,-0.910251,35,0.0140826,10,-0.000141611,-3.04084,-0.180922,-0.326108,11.5901,0.155573,
2,0,0,1,0,68126.7,0.154413,0.154066,-0.926469,35,0.0140125,10,-0.000142737,-3.03317,-0.185154,-0.318654,11.531,0.154066,
2,0,0,1,0,68126.8,0.152915,0.152575,-0.944752,35,0.0139412,10,-0.000144145,-3.02468,-0.173455,-0.340146,12.5511,0.152575,
2,0,0,1,0,68126.9,0.151417,0.1511,-0.96427,35,0.0138684,10,-0.000145701,-3.0158,-0.163556,-0.360732,13.61,0.1511,
2,0,0,1,0,68127,0.149918,0.149582,-0.991862,35,0.013794,10,-0.000148365,-3.00355,-0.141381,-0.417312,16.1138,0.149582,
2,0,0,1,0,68127,0.14842,0.148104,-1.01477,35,0.0137177,10,-0.000150292,-2.99363,-0.131646,-0.44817,17.7846,0.148104,
2,0,0,1,0,68127.1,0.146922,0.146572,-1.04297,35,0.0136395,10,-0.00015287,-2.98173,-0.12734,-0.463326,18.8654,0.146572,
2,0,0,1,0,68127.2,0.145424,0.145104,-1.07255,35,0.013559,10,-0.00015563,-2.96958,-0.110983,-0.531612,22.3534,0.145104,
2,0,0,1,0,68127.3,0.143926,0.143552,-1.11004,35,0.0134761,10,-0.000159349,-2.95466,-0.0961882,-0.613381,26.6101,0.143552,
2,0,0,1,0,68127.3,0.142426,0.142059,-1.15086,35,0.0133901,10,-0.00016349,-2.93898,-0.0972758,-0.606523,27.2434,0.142059,
2,0,0,1,0,68127.4,0.140931,0.140575,-1.1914,35,0.0133012,10,-0.00016748,-2.92394,-0.0981034,-0.601406,28.0052,0.140575,
2,0,0,1,0,68127.5,0.139431,0.13908,-1.23126,35,0.013209,10,-0.000171243,-2.90965,-0.0910302,-0.648137,31.3133,0.13908,
2,0,0,1,0,68127.6,0.137933,0.137586,-1.28479,35,0.0131135,10,-0.00017677,-2.89117,-0.0890515,-0.662538,33.2284,0.137586,
2,0,0,1,0,68127.6,0.136435,0.136143,-1.33608,35,0.0130141,10,-0.000181898,-2.87417,-0.0898797,-0.656433,34.1756,0.136143,
2,0,0,1,0,68127.7,0.134936,0.134597,-1.38745,35,0.0129108,10,-0.000186747,-2.85778,-0.0935115,-0.630939,34.0807,0.134597,
2,0,0,1,0,68127.8,0.133438,0.133128,-1.43783,35,0.0128037,10,-0.000191415,-2.84229,-0.09583,-0.615674,34.593,0.1331279,
2,0,0,1,0,68127.9,0.13194,0.13164,-1.49199,35,0.0126927,10,-0.000196406,-2.82623,-0.0956703,-0.616701,35.9882,0.13164,
2,0,0,1,0,68127.9,0.130442,0.130112,-1.54699,35,0.0125776,10,-0.000201282,-2.81051,-0.0982287,-0.600639,36.2424,0.130112,
2,0,0,1,0,68128,0.128942,0.128614,-1.60307,35,0.0124581,10,-0.000206177,-2.79505,-0.106823,-0.552314,34.4452,0.128614,
2,0,0,1,0,68128.1,0.127446,0.12713,-1.65356,35,0.012335,10,-0.000210217,-2.78158,-0.112746,-0.523302,33.7227,0.12713,
2,0,0,1,0,68128.2,0.125947,0.125632,-1.70437,35,0.0122078,10,-0.000214123,-2.76844,-0.117514,-0.502069,33.356,0.1256317,
2,0,0,1,0,68128.2,0.124449,0.124092,-1.75317,35,0.0120771,10,-0.000217554,-2.75618,-0.120041,-0.491499,33.5889,0.124092,
2,0,0,1,0,68128.3,0.122951,0.122634,-1.80233,35,0.0119426,10,-0.000221027,-2.74417,-0.134308,-0.439289,30.813,0.122634,
2,0,0,1,0,68128.4,0.121453,0.121115,-1.84529,35,0.0118046,10,-0.000223492,-2.73394,-0.150358,-0.392398,28.2069,0.121115,
2,0,0,1,0,68128.5,0.119955,0.119616,-1.88362,35,0.0116636,10,-0.00022531,-2.72501,-0.163776,-0.360248,26.5127,0.119616,
2,0,0,1,0,68128.5,0.118456,0.118156,-1.92451,35,0.0115196,10,-0.000227393,-2.71568,-0.174969,-0.337202,25.3,0.1181559,
2,0,0,1,0,68128.6,0.116958,0.116615,-1.96229,35,0.0113727,10,-0.000228833,-2.70724,-0.202699,-0.291072,22.2187,0.1166155,
2,0,0,1,0,68128.7,0.11546,0.115114,-1.993,35,0.0112232,10,-0.000229422,-2.70049,-0.249384,-0.236583,18.3438,0.115114,
2,0,0,1,0,68128.8,0.113962,0.113626,-2.01617,35,0.0110716,10,-0.000229089,-2.69547,-0.294768,-0.200158,15.7456,0.113626,
2,0,0,1,0,68128.8,0.112462,0.112115,-2.04091,35,0.0109183,10,-0.000228816,-2.69018,-0.364206,-0.161996,12.8734,0.112115,
2,0,0,1,0,68128.9,0.110967,0.110618,-2.05963,35,0.0107636,10,-0.000227831,-2.68621,-0.438445,-0.134566,10.783,0.110618,
2,0,0,1,0,68129,0.109467,0.109119,-2.07191,35,0.0106074,10,-0.000226085,-2.68363,-0.777827,-0.0758524,6.11722,0.1091193,
2,0,0,1,0,68129.1,0.107969,0.107675,-2.07965,35,0.0104505,10,-0.000223926,-2.68201,-1.32982,-0.0443668,3.59472,0.107675,
2,0,0,1,0,68129.1,0.106471,0.10617,-2.08143,35,0.0102935,10,-0.000220986,-2.68164,-4.85085,-0.0121628,0.989128,0.10617,
2,0,0,1,0,68129.2,0.104973,0.104628,-2.08279,35,0.0101361,10,-0.000217918,-2.68135,-8.5549,-0.00689663,0.560051,0.104628,
2,0,0,1,0,68129.3,0.103474,0.103177,-2.08531,35,0.00997859,10,-0.000215155,-2.68083,2.11565,0.0278874,-2.26331,0.103177,
2,0,0,1,0,68129.4,0.101976,0.101645,-2.08107,35,0.00982141,10,-0.00021153,-2.68171,0.956653,0.0616734,-4.99766,0.101645,
2,0,0,1,0,68129.4,0.100478,0.100151,-2.07017,35,0.00966483,10,-0.00020733,-2.68399,0.867184,0.0680363,-5.49379,0.100151,
2,0,0,1,0,68129.5,0.0989799,0.0986527,-2.06201,35,0.00950886,10,-0.000203423,-2.68571,0.917581,0.0642995,-5.16366,0.0986527,
2,0,0,1,0,68129.6,0.0974817,0.0971591,-2.05416,35,0.00935352,10,-0.000199581,-2.68737,0.707279,0.0834183,-6.68043,0.0971591,
2,0,0,1,0,68129.7,0.0959821,0.0956665,-2.04196,35,0.00919874,10,-0.000195347,-2.68995,0.637723,0.0925166,-7.36767,0.09566649,
2,0,0,1,0,68129.7,0.0944866,0.0941669,-2.02605,35,0.00904524,10,-0.000190787,-2.69335,0.648298,0.0910076,-7.2135,0.0941669,
2,0,0,1,0,68129.8,0.0929871,0.0926643,-2.01563,35,0.0088922,10,-0.000186777,-2.69559,0.727089,0.0811454,-6.39683,0.0926643,
2,0,0,1,0,68129.9,0.0914889,0.0911668,-2.01046,35,0.00874005,10,-0.000183287,-2.69671,0.659164,0.0895073,-7.02206,0.0911668,
2,0,0,1,0,68130,0.0899907,0.089681,-1.99892,35,0.00858867,10,-0.000179265,-2.6992,0.637246,0.0925859,-7.22019,0.089681,
2,0,0,1,0,68130,0.0884925,0.0881624,-1.98462,35,0.00843804,10,-0.000174968,-2.70232,0.698551,0.0844606,-6.55392,0.08816237,
2,0,0,1,0,68130.1,0.0869943,0.0866921,-1.97731,35,0.00828829,10,-0.000171417,-2.70392,0.638246,0.0924409,-7.14808,0.0866921,
2,0,0,1,0,68130.2,0.0854962,0.0851829,-1.97195,35,0.00813914,10,-0.000167976,-2.7051,0.785734,0.0750891,-5.77777,0.0851829,
2,0,0,1,0,68130.3,0.083998,0.0837054,-1.96316,35,0.00799058,10,-0.000164327,-2.70704,0.716351,0.0823619,-6.30496,0.0837054,
2,0,0,1,0,68130.3,0.0824998,0.0821821,-1.9555,35,0.00784261,10,-0.000160707,-2.70874,0.824389,0.0715682,-5.45683,0.0821821,
2,0,0,1,0,68130.4,0.081002,0.0806599,-1.94611,35,0.00769544,10,-0.000156973,-2.71083,0.796578,0.0740668,-5.62542,0.0806599,
2,0,0,1,0,68130.5,0.0795025,0.0792361,-1.93738,35,0.00754865,10,-0.000153511,-2.71278,1.09782,0.0537428,-4.06105,0.0792361,
2,0,0,1,0,68130.5,0.078007,0.0776773,-1.93066,35,0.00740274,10,-0.000149968,-2.71429,0.88787,0.0664512,-5.00134,0.0776773,
2,0,0,1,0,68130.6,0.076507,0.0761881,-1.92236,35,0.00725701,10,-0.000146461,-2.71617,0.786618,0.0750047,-5.62094,0.0761881,
2,0,0,1,0,68130.7,0.0750088,0.074705,-1.91124,35,0.00711229,10,-0.000142779,-2.71869,0.704338,0.0837666,-6.24992,0.074705,
2,0,0,1,0,68130.8,0.0735106,0.0732044,-1.90352,35,0.00696824,10,-0.000139346,-2.72044,0.906313,0.0650989,-4.83406,0.0732044,
2,0,0,1,0,68130.8,0.0720124,0.0717383,-1.89271,35,0.00682477,10,-0.00013578,-2.72291,0.763646,0.0772609,-5.70887,0.0717383,
2,0,0,1,0,68130.9,0.0705142,0.0701917,-1.88514,35,0.0066819,10,-0.000132321,-2.72466,0.643287,0.0917165,-6.74681,0.0701917,
2,0,0,1,0,68131,0.069016,0.0686973,-1.87322,35,0.00653983,10,-0.000128685,-2.72741,0.62235,0.0948019,-6.94436,0.0686973,
2,0,0,1,0,68131.1,0.0675179,0.0671749,-1.86913,35,0.00639853,10,-0.000125559,-2.72836,0.809755,0.0728616,-5.31489,0.0671749,
2,0,0,1,0,68131.1,0.0660179,0.0656949,-1.85881,35,0.00625765,10,-0.000122114,-2.73077,0.729756,0.0808489,-5.85569,0.0656949,
2,0,0,1,0,68131.2,0.0645224,0.0642295,-1.84859,35,0.00611768,10,-0.000118734,-2.73316,0.614552,0.0960049,-6.91018,0.0642295,
2,0,0,1,0,68131.3,0.0630228,0.062703,-1.83794,35,0.0059782,10,-0.000115244,-2.73567,0.564986,0.104427,-7.49284,0.062703,
2,0,0,1,0,68131.4,0.0615251,0.0612314,-1.82496,35,0.00583988,10,-0.000111745,-2.73875,0.591932,0.0996736,-7.10928,0.0612314,
2,0,0,1,0,68131.4,0.0600269,0.0597084,-1.81552,35,0.00570219,10,-0.000108402,-2.741,0.616998,0.0956242,-6.77875,0.0597084,
2,0,0,1,0,68131.5,0.0585287,0.0582155,-1.80544,35,0.00556517,10,-0.000105104,-2.74342,0.509124,0.115885,-8.16126,0.0582155,
2,0,0,1,0,68131.6,0.0570305,0.0567023,-1.79645,35,0.00542897,10,-0.000101863,-2.74558,0.529799,0.111363,-7.8091,0.0567023,
2,0,0,1,0,68131.7,0.0555323,0.055274,-1.78324,35,0.00529381,10,-9.8567e-05,-2.74879,0.516997,0.114121,-7.9504,0.055274,
2,0,0,1,0,68131.7,0.0540342,0.0537137,-1.77296,35,0.00515934,10,-9.52321e-05,-2.7513,0.631772,0.0933881,-6.45773,0.0537137,
2,0,0,1,0,68131.8,0.052536,0.0521755,-1.76495,35,0.00502554,10,-9.20871e-05,-2.75327,0.641781,0.0919316,-6.31784,0.0521755,
2,0,0,1,0,68131.9,0.0510378,0.0507078,-1.75587,35,0.00489258,10,-8.90364e-05,-2.75551,0.486673,0.121231,-8.2885,0.0507078,
2,0,0,1,0,68132,0.0495382,0.0492404,-1.73889,35,0.00476051,10,-8.56237e-05,-2.75973,0.516016,0.114338,-7.77394,0.0492404,
2,0,0,1,0,68132,0.0480427,0.0476697,-1.72793,35,0.00462954,10,-8.237e-05,-2.76247,0.629144,0.0937783,-6.31817,0.0476697,
2,0,0,1,0,68132.1,0.0465432,0.0462203,-1.71743,35,0.004499,10,-7.93799e-05,-2.76512,0.4836,0.122002,-8.18272,0.0462203,
2,0,0,1,0,68132.2,0.045045,0.0447134,-1.70788,35,0.00436955,10,-7.63653e-05,-2.76754,0.45224,0.130462,-8.68237,0.0447134,
2,0,0,1,0,68132.3,0.0435468,0.0432425,-1.68997,35,0.00424103,10,-7.30785e-05,-2.77212,0.435546,0.135462,-8.95729,0.0432425,
2,0,0,1,0,68132.3,0.0420486,0.0416999,-1.67988,35,0.00411355,10,-7.00508e-05,-2.77472,0.518474,0.113796,-7.46504,0.0416999,
2,0,0,1,0,68132.4,0.0405504,0.0402369,-1.66951,35,0.00398679,10,-6.7176e-05,-2.77741,0.491561,0.120026,-7.80996,0.0402369,
2,0,0,1,0,68132.5,0.0390523,0.0386973,-1.65858,35,0.0038609,10,-6.41827e-05,-2.78026,0.409892,0.14394,-9.30133,0.0386973,
2,0,0,1,0,68132.6,0.0375541,0.0372273,-1.64348,35,0.00373603,10,-6.11823e-05,-2.78424,0.415533,0.141986,-9.11232,0.0372273,
2,0,0,1,0,68132.6,0.0360559,0.0357324,-1.62983,35,0.0036123,10,-5.82378e-05,-2.78786,0.444967,0.132594,-8.44804,0.0357324,
2,0,0,1,0,68132.7,0.0345577,0.0341896,-1.61716,35,0.00348942,10,-5.529e-05,-2.79125,0.484472,0.121782,-7.69388,0.0341896,
2,0,0,1,0,68132.8,0.0330582,0.0327613,-1.60684,35,0.0033672,10,-5.26421e-05,-2.79403,0.442396,0.133365,-8.35184,0.0327613,
2,0,0,1,0,68132.9,0.0315626,0.0312469,-1.59451,35,0.00324625,10,-4.98234e-05,-2.79737,0.449413,0.131282,-8.15969,0.0312469,
2,0,0,1,0,68132.9,0.0300631,0.0297055,-1.58024,35,0.00312608,10,-4.69417e-05,-2.80128,0.463527,0.127285,-7.85173,0.0297055,
2,0,0,1,0,68133,0.0285649,0.0282273,-1.57028,35,0.00300683,10,-4.43249e-05,-2.80402,0.490679,0.120242,-7.36472,0.0282273,
2,0,0,1,0,68133.1,0.0270667,0.0267152,-1.56002,35,0.00288835,10,-4.16763e-05,-2.80687,0.482908,0.122177,-7.4328,0.0267152,
2,0,0,1,0,68133.2,0.0255685,0.0252502,-1.54699,35,0.00277072,10,-3.90618e-05,-2.81051,0.424194,0.139087,-8.4076,0.0252502,
2,0,0,1,0,68133.2,0.0240704,0.0237511,-1.5344,35,0.00265398,10,-3.64438e-05,-2.81406,0.497644,0.118559,-7.11298,0.0237511,
2,0,0,1,0,68133.3,0.0225722,0.0222538,-1.52643,35,0.00253808,10,-3.39689e-05,-2.81632,0.534317,0.110421,-6.58357,0.0222538,
2,0,0,1,0,68133.4,0.021074,0.0207547,-1.51474,35,0.00242288,10,-3.1438e-05,-2.81966,0.55331,0.106631,-6.31745,0.0207547,
2,0,0,1,0,68133.5,0.0195758,0.0192636,-1.5072,35,0.00230842,10,-2.90341e-05,-2.82183,0.521332,0.113172,-6.65071,0.0192636,
2,0,0,1,0,68133.5,0.018078,0.0177522,-1.49597,35,0.00219465,10,-2.65567e-05,-2.82508,0.542445,0.108767,-6.35487,0.0177522,
2,0,0,1,0,68133.6,0.0165785,0.0162782,-1.48756,35,0.00208146,10,-2.42147e-05,-2.82753,0.677448,0.0870915,-5.07018,0.01627817,
2,0,0,1,0,68133.7,0.015083,0.0147006,-1.48451,35,0.00196914,10,-2.18231e-05,-2.82842,0.806127,0.0731895,-4.2376,0.0147006,
2,0,0,1,0,68133.8,0.013583,0.0132595,-1.47556,35,0.00185693,10,-1.95652e-05,-2.83104,0.613185,0.0962189,-5.53385,0.0132595,
2,0,0,1,0,68133.8,0.0120848,0.0117447,-1.46814,35,0.00174538,10,-1.72429e-05,-2.83323,0.757559,0.0778817,-4.46867,0.0117447,
2,0,0,1,0,68133.9,0.0105866,0.0102701,-1.46101,35,0.00163444,10,-1.50047e-05,-2.83535,0.918691,0.0642218,-3.66991,0.0102701,
2,0,0,1,0,68134,0.00908846,0.00876547,-1.45789,35,0.00152382,10,-1.27791e-05,-2.83627,1.1444,0.0515553,-2.93477,0.00876547,
2,0,0,1,0,68134.1,0.00759027,0.00724493,-1.4521,35,0.00141354,10,-1.05204e-05,-2.838,1.24055,0.0475597,-2.70004,0.00724493,
2,0,0,1,0,68134.1,0.00609208,0.00578355,-1.45079,35,0.00130352,10,-8.39072e-06,-2.83839,1.57232,0.0375243,-2.12489,0.00578355,
2,0,0,1,0,68134.2,0.00459389,0.00429705,-1.44671,35,0.00119388,10,-6.21658e-06,-2.83962,2.9062,0.0203014,-1.14681,0.00429705,
2,0,0,1,0,68134.3,0.00309391,0.00280218,-1.4459,35,0.00108421,10,-4.05167e-06,-2.83986,-1.26531,-0.0466287,2.63887,0.00280218,
2,0,0,1,0,68134.4,0.0015984,0.00125279,-1.45877,35,0.000974029,10,-1.82752e-06,-2.83601, , , ,0.00125279,
2,0,0,1,0,68134.4,0.000199195,-0.000166776,-1.44639,35,0.000871055,10,2.41222e-07,-2.83972, , , ,-0.000166776,