File: Figure_codes/Fig_3-5/rawdata_trumpetplot_data/after 10th/20221101_1-115_003_TrumpetPlot_ParaChange_from10_every3_12_CV_C01_18.csv
mode,ox/red,error,control changes,counter inc.,time/s,control/V,Ewe/V,<I>/mA,cycle number,(Q-Qo)/C,I Range,P/W,log(|I|),Tafel slope mV/dec,alpha_eff,dI/d(E-IR),E-IR/V,
2,1,0,1,0,36658.9,2.44065e-05,-0.000344411,15.5266,19,0.0000000E+000,10,-5.34754e-06,-1.80892, , , ,-0.000344411,
2,1,0,1,0,36658.9,0.00200257,0.0016078,16.4411,19,4.99501e-05,10,2.64339e-05,-1.78407, , , ,0.0016078,
2,1,0,1,0,36658.9,0.004408,0.00407324,17.2381,19,0.000117456,10,7.02151e-05,-1.76351, , , ,0.00407324,
2,1,0,1,0,36658.9,0.0068051,0.00646128,17.8708,19,0.000187763,10,0.000115468,-1.74786,0.156149,0.377844,260.578,0.00646128,
2,1,0,1,0,36658.9,0.00920221,0.00887264,18.4425,19,0.000260461,10,0.000163634,-1.73418,0.180996,0.325974,233.152,0.00887264,
2,1,0,1,0,36658.9,0.0115993,0.0112776,18.9608,19,0.000335332,10,0.000213833,-1.72214,0.202297,0.29165,214.927,0.0112776,
2,1,0,1,0,36658.9,0.0140075,0.0136063,19.4608,19,0.000412231,10,0.000264789,-1.71084,0.22293,0.264657,200.221,0.0136063,
2,1,0,1,0,36658.9,0.0164046,0.0160527,19.9323,19,0.000491079,10,0.000319966,-1.70044,0.241633,0.244172,189.211,0.0160527,
2,1,0,1,0,36658.9,0.0188017,0.0184439,20.3589,19,0.000571717,10,0.000375496,-1.69125,0.2646,0.222978,176.657,0.0184439,
2,1,0,1,0,36658.9,0.0212099,0.0208839,20.7784,19,0.00065403,10,0.000433934,-1.68239,0.28633,0.206056,166.644,0.0208839,
2,1,0,1,0,36658.9,0.023607,0.0232475,21.164,19,0.000737969,10,0.000492009,-1.6744,0.299745,0.196834,162.28,0.0232475,
2,1,0,1,0,36658.9,0.0260041,0.0256599,21.5333,19,0.000823406,10,0.000552543,-1.66689,0.319514,0.184656,155.037,0.0256599,
2,1,0,1,0,36658.9,0.0284012,0.0280056,21.9105,19,0.000910337,10,0.000613616,-1.65935,0.339761,0.173651,148.212,0.0280056,
2,1,0,1,0,36658.9,0.0308067,0.0304763,22.2656,19,0.000998739,10,0.000678573,-1.65237,0.355843,0.165804,143.759,0.0304763,
2,1,0,1,0,36658.9,0.0332038,0.0328749,22.5909,19,0.00108848,10,0.000742673,-1.64607,0.376962,0.156514,137.857,0.0328749,
2,1,0,1,0,36658.9,0.0356009,0.0352651,22.9141,19,0.00117953,10,0.000808068,-1.6399,0.390618,0.151043,135.021,0.0352651,
2,1,0,1,0,36658.9,0.0380091,0.0376521,23.2404,19,0.00127187,10,0.000875048,-1.63376,0.400217,0.14742,133.624,0.0376521,
2,1,0,1,0,36658.9,0.0404062,0.0400433,23.5574,19,0.00136549,10,0.000943314,-1.62787,0.417591,0.141286,129.743,0.0400433,
2,1,0,1,0,36658.9,0.0428033,0.0424621,23.8719,19,0.00146038,10,0.00101365,-1.62211,0.431721,0.136662,127.183,0.0424621,
2,1,0,1,0,36658.9,0.0452032,0.0448406,24.1565,19,0.00155646,10,0.00108319,-1.61697,0.447584,0.131819,124.232,0.0448406,
2,1,0,1,0,36658.9,0.0476058,0.0472583,24.4621,19,0.00165373,10,0.00115604,-1.61151,0.459651,0.128358,122.506,0.0472583,
2,1,0,1,0,36659,0.0500029,0.049641,24.7497,19,0.00175219,10,0.0012286,-1.60643,0.455569,0.129508,125.104,0.049641,
2,1,0,1,0,36659,0.0524,0.0520609,25.0479,19,0.00185182,10,0.00130401,-1.60123,0.47321,0.12468,121.861,0.0520609,
2,1,0,1,0,36659,0.0548082,0.0544372,25.357,19,0.00195264,10,0.00138037,-1.5959,0.478828,0.123217,121.815,0.05443725,
2,1,0,1,0,36659,0.0572053,0.0568836,25.6351,19,0.00205466,10,0.00145821,-1.59117,0.484689,0.121727,121.757,0.0568836,
2,1,0,1,0,36659,0.0596024,0.0592706,25.9227,19,0.0021578,10,0.00153645,-1.58632,0.495826,0.118993,120.428,0.0592706,
2,1,0,1,0,36659,0.0620051,0.0616915,26.2205,19,0.0022621,10,0.00161758,-1.58136,0.48933,0.120573,123.389,0.0616915,
2,1,0,1,0,36659,0.0644077,0.0640647,26.5165,19,0.00236761,10,0.00169877,-1.57648,0.495735,0.119015,123.124,0.0640647,
2,1,0,1,0,36659,0.0668048,0.0664676,26.8176,19,0.0024743,10,0.0017825,-1.57158,0.500097,0.117977,123.421,0.0664676,
2,1,0,1,0,36659,0.0692019,0.0688471,27.1018,19,0.00258218,10,0.00186588,-1.567,0.503709,0.117131,123.903,0.0688471,
2,1,0,1,0,36659,0.0716074,0.0712447,27.3995,19,0.00269122,10,0.00195207,-1.56226,0.509576,0.115783,123.845,0.0712447,
2,1,0,1,0,36659,0.0740045,0.0736306,27.7017,19,0.00280147,10,0.00203969,-1.55749,0.499047,0.118225,127.851,0.0736306,
2,1,0,1,0,36659,0.0764016,0.0760642,28.0061,19,0.00291292,10,0.00213026,-1.55275,0.504786,0.116881,127.763,0.0760642,
2,1,0,1,0,36659,0.0788042,0.0784258,28.3265,19,0.0030256,10,0.00222152,-1.54781,0.511712,0.115299,127.394,0.0784258,
2,1,0,1,0,36659,0.0812069,0.0808562,28.6275,19,0.00313955,10,0.00231471,-1.54322,0.511326,0.115386,128.873,0.0808562,
2,1,0,1,0,36659,0.083604,0.0832686,28.9295,19,0.00325469,10,0.00240892,-1.53866,0.515184,0.114522,129.361,0.0832686,
2,1,0,1,0,36659,0.0860011,0.0856355,29.2396,19,0.00337105,10,0.00250395,-1.53403,0.51525,0.114508,130.709,0.0856355,
2,1,0,1,0,36659,0.0884065,0.088033,29.5693,19,0.00348871,10,0.00260307,-1.52916,0.5123,0.115167,132.851,0.088033,
2,1,0,1,0,36659,0.0908036,0.0904306,29.879,19,0.00360763,10,0.00270197,-1.52463,0.518736,0.113738,132.588,0.0904306,
2,1,0,1,0,36659,0.0932007,0.0927964,30.1953,19,0.00372782,10,0.00280201,-1.52006,0.527273,0.111896,131.87,0.0927964,
2,1,0,1,0,36659,0.0956034,0.095213,30.5095,19,0.00384926,10,0.0029049,-1.51557,0.523271,0.112752,134.297,0.095213,
2,1,0,1,0,36659,0.098006,0.0976234,30.8339,19,0.00397199,10,0.00301011,-1.51097,0.524548,0.112478,135.378,0.0976234,
2,1,0,1,0,36659,0.100403,0.100036,31.1689,19,0.00409604,10,0.00311801,-1.50628,0.523803,0.112638,137.016,0.100036,
2,1,0,1,0,36659,0.1028,0.10239,31.494,19,0.0042214,10,0.00322467,-1.50177,0.528971,0.111537,137.075,0.10239,
2,1,0,1,0,36659,0.105208,0.10491,31.8382,19,0.00434812,10,0.00334016,-1.49705,0.540323,0.109194,135.591,0.10491,
2,1,0,1,0,36659,0.107606,0.107265,32.1555,19,0.00447613,10,0.00344915,-1.49274,0.540092,0.109241,137.061,0.107265,
2,1,0,1,0,36659.1,0.110003,0.109673,32.4756,19,0.00460542,10,0.00356169,-1.48844,0.55052,0.107171,135.856,0.109673,
2,1,0,1,0,36659.1,0.112408,0.11201,32.8126,19,0.00473603,10,0.00367533,-1.48396,0.558543,0.105632,135.205,0.11201,
2,1,0,1,0,36659.1,0.114805,0.114447,33.1337,19,0.00486796,10,0.00379205,-1.47973,0.562992,0.104797,135.444,0.114447,
2,1,0,1,0,36659.1,0.117202,0.116816,33.4469,19,0.00500116,10,0.00390712,-1.47564,0.558555,0.10563,137.985,0.116816,
2,1,0,1,0,36659.1,0.119599,0.119199,33.7659,19,0.00513561,10,0.00402488,-1.47152,0.543534,0.108549,143.255,0.119199,
2,1,0,1,0,36659.1,0.122008,0.121633,34.1404,19,0.00527146,10,0.00415261,-1.46673,0.52846,0.111645,148.829,0.121633,
2,1,0,1,0,36659.1,0.124405,0.124034,34.5071,19,0.00540879,10,0.00428005,-1.46209,0.519134,0.113651,153.02,0.124034,
2,1,0,1,0,36659.1,0.126802,0.126431,34.878,19,0.00554759,10,0.00440967,-1.45745,0.521149,0.113211,154.075,0.126431,
2,1,0,1,0,36659.1,0.129207,0.128856,35.2435,19,0.00568787,10,0.00454132,-1.45292,0.528596,0.111616,153.506,0.128856,
2,1,0,1,0,36659.1,0.131604,0.1312,35.6145,19,0.00582963,10,0.00467262,-1.44837,0.525453,0.112284,156.112,0.1312,
2,1,0,1,0,36659.1,0.134001,0.133645,35.9826,19,0.00597288,10,0.0048089,-1.44391,0.516087,0.114322,160.655,0.133645,
2,1,0,1,0,36659.1,0.136399,0.136071,36.3828,19,0.00611764,10,0.00495062,-1.4391,0.520581,0.113335,160.944,0.1360705,
2,1,0,1,0,36659.1,0.138807,0.138443,36.7837,19,0.00626402,10,0.00509244,-1.43434,0.506412,0.116506,167.223,0.138443,
2,1,0,1,0,36659.1,0.141204,0.140871,37.1709,19,0.00641197,10,0.00523631,-1.4298,0.510565,0.115558,167.674,0.140871,
2,1,0,1,0,36659.1,0.143601,0.143225,37.5845,19,0.00656151,10,0.00538304,-1.42499,0.516269,0.114281,167.635,0.143225,
2,1,0,1,0,36659.1,0.146009,0.145641,37.9874,19,0.00671269,10,0.00553251,-1.42036,0.512293,0.115168,170.723,0.145641,
2,1,0,1,0,36659.1,0.148406,0.148082,38.3996,19,0.00686551,10,0.00568628,-1.41567,0.521872,0.113055,169.395,0.148082,
2,1,0,1,0,36659.1,0.150803,0.15046,38.808,19,0.00701996,10,0.00583907,-1.41108,0.526583,0.112043,169.63,0.15046,
2,1,0,1,0,36659.1,0.153206,0.152834,39.2123,19,0.00717604,10,0.00599299,-1.40658,0.537294,0.109809,167.984,0.152834,
2,1,0,1,0,36659.1,0.155606,0.155206,39.6099,19,0.00733373,10,0.00614768,-1.4022,0.550442,0.107187,165.643,0.155206,
2,1,0,1,0,36659.1,0.158003,0.157654,40.0076,19,0.00749302,10,0.00630735,-1.39786,0.561666,0.105045,163.97,0.157654,
2,1,0,1,0,36659.1,0.1604,0.160057,40.3977,19,0.00765388,10,0.00646593,-1.39364,0.587159,0.100484,158.326,0.160057,
2,1,0,1,0,36659.1,0.162808,0.16247,40.7923,19,0.00781629,10,0.00662754,-1.38942,0.601154,0.0981446,156.08,0.16247,
2,1,0,1,0,36659.1,0.165205,0.164909,41.1463,19,0.0079802,10,0.00678541,-1.38567,0.626373,0.0941931,151.168,0.164909,
2,1,0,1,0,36659.1,0.167603,0.167214,41.4996,19,0.00814553,10,0.0069393,-1.38196,0.660639,0.0893074,144.581,0.1672136,
2,1,0,1,0,36659.2,0.170008,0.169701,41.8556,19,0.00831228,10,0.00710295,-1.37825,0.681884,0.0865249,141.21,0.169701,
2,1,0,1,0,36659.2,0.172405,0.172065,42.1795,19,0.0084804,10,0.00725761,-1.3749,0.730631,0.0807521,132.79,0.172065,
2,1,0,1,0,36659.2,0.174802,0.17447,42.4963,19,0.00864979,10,0.00741433,-1.37165,0.790682,0.0746192,123.605,0.17447,
2,1,0,1,0,36659.2,0.177199,0.176838,42.7776,19,0.00882036,10,0.0075647,-1.36878,0.872563,0.0676169,112.729,0.176838,
2,1,0,1,0,36659.2,0.179607,0.179276,43.039,19,0.00899202,10,0.00771586,-1.36614,0.982628,0.0600431,100.71,0.179276,
2,1,0,1,0,36659.2,0.182005,0.181672,43.2625,19,0.00916466,10,0.0078596,-1.36389,1.12942,0.0522394,88.0756,0.181672,
2,1,0,1,0,36659.2,0.184402,0.18407,43.4631,19,0.00933815,10,0.00800025,-1.36188,1.38019,0.0427477,72.3807,0.18407,
2,1,0,1,0,36659.2,0.18681,0.186483,43.6272,19,0.00951234,10,0.00813574,-1.36024,1.81895,0.0324363,55.0977,0.186483,
2,1,0,1,0,36659.2,0.189207,0.188879,43.7341,19,0.00968708,10,0.00826045,-1.35918,2.72939,0.0216165,36.8152,0.188879,
2,1,0,1,0,36659.2,0.191604,0.19122,43.7886,19,0.00986214,10,0.00837326,-1.35864,5.61213,0.0105129,17.9349,0.19122,
2,1,0,1,0,36659.2,0.194001,0.193651,43.8158,19,0.0100374,10,0.00848497,-1.35837,-41.7619,-0.00141277,-2.41069,0.193651,
2,1,0,1,0,36659.2,0.196407,0.196066,43.799,19,0.0102126,10,0.00858751,-1.35854,-4.55987,-0.012939,-22.0582,0.196066,
2,1,0,1,0,36659.2,0.198804,0.19848,43.711,19,0.0103877,10,0.00867574,-1.35941,-2.35211,-0.0250839,-42.6925,0.19848,
2,1,0,1,0,36659.2,0.201201,0.200841,43.5763,19,0.0105622,10,0.00875193,-1.36075,-1.50079,-0.0393126,-66.7068,0.2008412,
2,1,0,1,0,36659.2,0.203609,0.203244,43.4063,19,0.0107362,10,0.00882207,-1.36245,-1.17178,-0.0503506,-85.0891,0.2032441,
2,1,0,1,0,36659.2,0.206006,0.205652,43.1596,19,0.0109093,10,0.00887586,-1.36492,-0.935146,-0.0630917,-106.038,0.205652,
2,1,0,1,0,36659.2,0.208403,0.208068,42.8951,19,0.0110814,10,0.0089251,-1.36759,-0.771343,-0.07649,-127.735,0.208068,
2,1,0,1,0,36659.2,0.210803,0.210443,42.5582,19,0.0112523,10,0.00895608,-1.37102,-0.666664,-0.0885004,-146.628,0.210443,
2,1,0,1,0,36659.2,0.213206,0.212849,42.1794,19,0.0114218,10,0.00897785,-1.3749,-0.580188,-0.101691,-167.018,0.212849,
2,1,0,1,0,36659.2,0.215603,0.215239,41.7538,19,0.0115896,10,0.00898707,-1.3793,-0.524951,-0.112391,-182.782,0.215239,
2,1,0,1,0,36659.2,0.218,0.21772,41.2831,19,0.0117557,10,0.00898814,-1.38423,-0.475089,-0.124187,-199.717,0.21772,
2,1,0,1,0,36659.2,0.220408,0.220079,40.7969,19,0.0119198,10,0.00897854,-1.38937,-0.437028,-0.135003,-214.469,0.220079,
2,1,0,1,0,36659.2,0.222805,0.222508,40.2502,19,0.0120818,10,0.00895602,-1.39523,-0.401393,-0.146988,-230.451,0.222508,
2,1,0,1,0,36659.2,0.225202,0.224929,39.6756,19,0.0122416,10,0.00892422,-1.40148,-0.376267,-0.156803,-242.447,0.224929,
2,1,0,1,0,36659.2,0.227605,0.227269,39.0825,19,0.0123991,10,0.00888223,-1.40802,-0.35548,-0.165973,-252.817,0.227269,
2,1,0,1,0,36659.3,0.230008,0.229705,38.463,19,0.0125541,10,0.00883516,-1.41496,-0.341618,-0.172707,-258.995,0.229705,
2,1,0,1,0,36659.3,0.232405,0.232059,37.8358,19,0.0127067,10,0.00878013,-1.4221,-0.331053,-0.178219,-262.93,0.232059,
2,1,0,1,0,36659.3,0.234802,0.234483,37.2014,19,0.0128567,10,0.00872308,-1.42944,-0.32084,-0.183892,-266.744,0.234483,
2,1,0,1,0,36659.3,0.237207,0.236897,36.5509,19,0.0130041,10,0.00865881,-1.4371,-0.314233,-0.187759,-267.707,0.236897,
2,1,0,1,0,36659.3,0.239604,0.239306,35.902,19,0.013149,10,0.00859158,-1.44488,-0.309476,-0.190645,-267.099,0.239306,
2,1,0,1,0,36659.3,0.242001,0.241672,35.2622,19,0.0132912,10,0.00852189,-1.45269,-0.307401,-0.191931,-264.165,0.241672,
2,1,0,1,0,36659.3,0.244404,0.244119,34.6277,19,0.0134309,10,0.00845325,-1.46058,-0.301879,-0.195443,-264.144,0.244119,
2,1,0,1,0,36659.3,0.246807,0.246504,34.013,19,0.0135682,10,0.00838436,-1.46836,-0.303896,-0.194146,-257.704,0.246504,
2,1,0,1,0,36659.3,0.249204,0.248819,33.3892,19,0.0137029,10,0.00830789,-1.47639,-0.305584,-0.193073,-251.732,0.248819,
2,1,0,1,0,36659.3,0.251601,0.25126,32.7913,19,0.0138352,10,0.00823915,-1.48424,-0.306039,-0.192786,-246.913,0.25126,
2,1,0,1,0,36659.3,0.254006,0.253692,32.2177,19,0.0139652,10,0.00817338,-1.4919,-0.316074,-0.186665,-234.848,0.253692,
2,1,0,1,0,36659.3,0.256404,0.256074,31.6503,19,0.0140928,10,0.00810479,-1.49962,-0.318155,-0.185444,-229.243,0.256074,
2,1,0,1,0,36659.3,0.258801,0.258515,31.1123,19,0.0142183,10,0.00804299,-1.50707,-0.32074,-0.183949,-223.514,0.258515,
2,1,0,1,0,36659.3,0.261203,0.260887,30.5845,19,0.0143416,10,0.00797909,-1.5145,-0.329852,-0.178868,-213.671,0.260887,
2,1,0,1,0,36659.3,0.263606,0.263275,30.0758,19,0.0144629,10,0.00791821,-1.52178,-0.334019,-0.176637,-207.544,0.263275,
2,1,0,1,0,36659.3,0.266003,0.265712,29.5909,19,0.0145822,10,0.00786264,-1.52884,-0.342921,-0.172051,-198.913,0.265712,
2,1,0,1,0,36659.3,0.2684,0.268099,29.1232,19,0.0146995,10,0.0078079,-1.53576,-0.3546,-0.166385,-189.325,0.268099,
2,1,0,1,0,36659.3,0.270808,0.270443,28.6836,19,0.0148151,10,0.00775729,-1.54237,-0.360923,-0.16347,-183.119,0.270443,
2,1,0,1,0,36659.3,0.273205,0.272891,28.2553,19,0.0149289,10,0.00771061,-1.5489,-0.3721,-0.15856,-174.99,0.272891,
2,1,0,1,0,36659.3,0.275603,0.275307,27.8337,19,0.0150411,10,0.00766283,-1.55543,-0.384566,-0.15342,-166.875,0.275307,
2,1,0,1,0,36659.3,0.278008,0.277658,27.4504,19,0.0151516,10,0.00762183,-1.56145,-0.391876,-0.150558,-161.44,0.277658,
2,1,0,1,0,36659.3,0.280405,0.280095,27.073,19,0.0152606,10,0.007583,-1.56746,-0.406819,-0.145028,-153.338,0.280095,
2,1,0,1,0,36659.3,0.282802,0.282464,26.7098,19,0.0153681,10,0.00754456,-1.57333,-0.418673,-0.140921,-147.044,0.282464,
2,1,0,1,0,36659.3,0.285199,0.284901,26.3627,19,0.0154742,10,0.00751075,-1.57901,-0.42906,-0.13751,-141.621,0.284901,
2,1,0,1,0,36659.3,0.287607,0.287281,26.0354,19,0.015579,10,0.00747947,-1.58444,-0.445205,-0.132523,-134.769,0.2872813,
2,1,0,1,0,36659.4,0.290005,0.289666,25.7175,19,0.0156825,10,0.00744949,-1.58977,-0.461635,-0.127807,-128.402,0.289666,
2,1,0,1,0,36659.4,0.292402,0.292063,25.4162,19,0.0157847,10,0.00742312,-1.59489,-0.475305,-0.124131,-123.238,0.292063,
2,1,0,1,0,36659.4,0.294807,0.294481,25.1325,19,0.0158858,10,0.00740106,-1.59976,-0.493787,-0.119485,-117.317,0.294481,
2,1,0,1,0,36659.4,0.297204,0.296885,24.8518,19,0.0159857,10,0.00737813,-1.60464,-0.498337,-0.118394,-115.401,0.2968854,
2,1,0,1,0,36659.4,0.299421,0.299126,24.6077,19,0.0160772,10,0.0073608,-1.60893,-0.116465,-0.50659,-475.147,0.299126,
2,1,0,0,0,36659.4,0.300012,0.299651,24.5405,19,0.0161018,10,0.00735358,-1.61012,0.00251965,23.416,20047.7,0.299651,
2,1,0,1,0,36659.4,0.299243,0.299041,22.966,19,0.0161321,10,0.00686777,-1.63891,0.0280598,2.10265,1659.98,0.299041,
2,1,0,1,0,36659.4,0.296846,0.296607,19.2607,19,0.0162158,10,0.00571284,-1.71533,0.0322012,1.83223,1341.72,0.296607,
2,1,0,1,0,36659.4,0.294449,0.294183,16.4031,19,0.0162867,10,0.00482553,-1.78507,0.033513,1.76051,1153.76,0.294183,
2,1,0,1,0,36659.4,0.292041,0.291775,13.9735,19,0.0163471,10,0.00407712,-1.8547,0.033592,1.75637,966.316,0.291775,
2,1,0,1,0,36659.4,0.289644,0.289397,11.8387,19,0.0163984,10,0.0034261,-1.92669,0.0322397,1.83004,847.297,0.289397,
2,1,0,1,0,36659.4,0.287247,0.286973,9.95139,19,0.0164418,10,0.00285578,-2.00212,0.0301914,1.9542,755.336,0.286973,
2,1,0,1,0,36659.4,0.284841,0.284561,8.25033,19,0.016478,10,0.00234772,-2.08353,0.027687,2.13097,677.547,0.284561,
2,1,0,1,0,36659.4,0.282444,0.282164,6.71353,19,0.0165077,10,0.00189432,-2.17305,0.0245046,2.40772,615.373,0.282164,
2,1,0,1,0,36659.4,0.280047,0.27977,5.31642,19,0.0165316,10,0.00148738,-2.27438,0.0207554,2.84263,562.635,0.27977,
2,1,0,1,0,36659.4,0.27765,0.277346,4.02757,19,0.0165501,10,0.00111703,-2.39496,0.0166104,3.55198,513.837,0.277346,
2,1,0,1,0,36659.4,0.275242,0.274941,2.83777,19,0.0165636,10,0.000780219,-2.54702,0.0113366,5.20437,476.528,0.274941,
2,1,0,1,0,36659.4,0.272845,0.27254,1.76824,19,0.0165727,10,0.000481916,-2.75246,0.00707659,8.33734,437.241,0.27254,
2,1,0,1,0,36659.4,0.270448,0.270216,0.76356,19,0.0165777,10,0.000206326,-3.11716,0.0218365,2.70189,402.745,0.2702162,
2,1,0,1,0,36659.4,0.26804,0.267732,-0.176354,19,0.0165787,10,-4.72155e-05,-3.75361,-0.610923,-0.0965752,377.345,0.267732,
2,0,0,1,0,36659.4,0.265642,0.265336,-1.03065,19,0.0165762,10,-0.000273469,-2.98689,-0.0182534,-3.23227,346.424,0.265336,
2,0,0,1,0,36659.4,0.263245,0.262996,-1.833,19,0.0165704,10,-0.000482073,-2.73684,-0.00758061,-7.78302,322.414,0.262996,
2,0,0,1,0,36659.4,0.260843,0.26057,-2.57822,19,0.0165615,10,-0.000671807,-2.58868,-0.0165041,-3.57487,302.656,0.26057,
2,0,0,1,0,36659.4,0.258443,0.25811,-3.27867,19,0.0165497,10,-0.000846256,-2.4843,-0.0245663,-2.40166,280.017,0.25811,
2,0,0,1,0,36659.4,0.256046,0.255726,-3.93933,19,0.0165352,10,-0.00100739,-2.40458,-0.0321661,-1.83423,265.585,0.255726,
2,0,0,1,0,36659.4,0.253649,0.253302,-4.54755,19,0.0165181,10,-0.0011519,-2.34222,-0.0402727,-1.46501,249.737,0.253302,
2,0,0,1,0,36659.4,0.25124,0.250951,-5.13288,19,0.0164987,10,-0.0012881,-2.28964,-0.0489608,-1.20505,233.932,0.250951,
2,0,0,1,0,36659.5,0.248843,0.248513,-5.67531,19,0.016477,10,-0.00141039,-2.24601,-0.0571166,-1.03297,223.503,0.248513,
2,0,0,1,0,36659.5,0.246446,0.246164,-6.17611,19,0.0164532,10,-0.00152034,-2.20928,-0.0672843,-0.876876,207.971,0.246164,
2,0,0,1,0,36659.5,0.244041,0.243776,-6.67656,19,0.0164275,10,-0.00162759,-2.17545,-0.0760452,-0.775854,199.187,0.243776,
2,0,0,1,0,36659.5,0.241644,0.241344,-7.13069,19,0.0163998,10,-0.00172095,-2.14687,-0.0863441,-0.683312,187.807,0.2413445,
2,0,0,1,0,36659.5,0.239247,0.238988,-7.57249,19,0.0163703,10,-0.00180974,-2.12076,-0.0975517,-0.604808,176.93,0.238988,
2,0,0,1,0,36659.5,0.236849,0.236525,-7.9864,19,0.0163392,10,-0.00188898,-2.09765,-0.107459,-0.549046,169.681,0.236525,
2,0,0,1,0,36659.5,0.234441,0.234151,-8.37957,19,0.0163064,10,-0.00196208,-2.07678,-0.118913,-0.496161,161.185,0.234151,
2,0,0,1,0,36659.5,0.232044,0.231724,-8.76303,19,0.0162721,10,-0.00203061,-2.05735,-0.129415,-0.455899,154.938,0.231724,
2,0,0,1,0,36659.5,0.229647,0.229363,-9.12394,19,0.0162362,10,-0.0020927,-2.03982,-0.141271,-0.417637,147.858,0.229363,
2,0,0,1,0,36659.5,0.227239,0.226936,-9.47214,19,0.016199,10,-0.00214957,-2.02355,-0.1545,-0.381876,140.356,0.2269357,
2,0,0,1,0,36659.5,0.224842,0.224539,-9.80072,19,0.0161605,10,-0.00220065,-2.00874,-0.166911,-0.353482,134.558,0.224539,
2,0,0,1,0,36659.5,0.222445,0.222169,-10.1042,19,0.0161206,10,-0.00224484,-1.9955,-0.179077,-0.329467,129.637,0.222169,
2,0,0,1,0,36659.5,0.220047,0.219789,-10.4123,19,0.0160795,10,-0.0022885,-1.98245,-0.192043,-0.307223,124.542,0.219789,
2,0,0,1,0,36659.5,0.217642,0.217326,-10.7179,19,0.0160372,10,-0.00232928,-1.96989,-0.204158,-0.288992,120.377,0.217326,
2,0,0,1,0,36659.5,0.215245,0.214937,-10.9966,19,0.0159938,10,-0.00236357,-1.95874,-0.216179,-0.272922,116.809,0.2149372,
2,0,0,1,0,36659.5,0.212848,0.212542,-11.2631,19,0.0159492,10,-0.00239388,-1.94834,-0.232402,-0.253871,111.405,0.212542,
2,0,0,1,0,36659.5,0.21044,0.210131,-11.5403,19,0.0159036,10,-0.00242498,-1.93778,-0.241259,-0.24455,109.914,0.210131,
2,0,0,1,0,36659.5,0.208043,0.207725,-11.7875,19,0.0158569,10,-0.00244856,-1.92858,-0.253682,-0.232575,106.834,0.207725,
2,0,0,1,0,36659.5,0.205645,0.205329,-12.0527,19,0.0158092,10,-0.00247476,-1.91892,-0.271811,-0.217062,101.867,0.205329,
2,0,0,1,0,36659.5,0.203246,0.202909,-12.2922,19,0.0157605,10,-0.0024942,-1.91037,-0.280854,-0.210074,100.545,0.202909,
2,0,0,1,0,36659.5,0.200843,0.200483,-12.5232,19,0.0157108,10,-0.00251068,-1.90229,-0.299642,-0.196902,96.1204,0.200483,
2,0,0,1,0,36659.5,0.198446,0.198124,-12.7528,19,0.0156602,10,-0.00252664,-1.89439,-0.304009,-0.194073,96.5604,0.198124,
2,0,0,1,0,36659.5,0.196049,0.195728,-12.9755,19,0.0156087,10,-0.00253967,-1.88688,-0.314453,-0.187628,94.9926,0.195728,
2,0,0,1,0,36659.5,0.19364,0.193336,-13.2166,19,0.0155564,10,-0.00255524,-1.87888,-0.329077,-0.179289,92.2987,0.193336,
2,0,0,1,0,36659.5,0.191243,0.190907,-13.4328,19,0.015503,10,-0.00256442,-1.87183,-0.336824,-0.175165,91.6867,0.190907,
2,0,0,1,0,36659.6,0.188846,0.188521,-13.6391,19,0.0154489,10,-0.00257127,-1.86521,-0.354889,-0.166249,88.4799,0.188521,
2,0,0,1,0,36659.6,0.186444,0.1861,-13.8582,19,0.0153938,10,-0.00257902,-1.85829,-0.360072,-0.163856,88.5862,0.1861,
2,0,0,1,0,36659.6,0.184041,0.183732,-14.0664,19,0.015338,10,-0.00258444,-1.85182,-0.361809,-0.163069,89.497,0.183732,
2,0,0,1,0,36659.6,0.181644,0.181325,-14.2816,19,0.0152813,10,-0.00258962,-1.84522,-0.373039,-0.15816,88.1227,0.181325,
2,0,0,1,0,36659.6,0.179247,0.178957,-14.4952,19,0.0152237,10,-0.002594,-1.83878,-0.378042,-0.156067,88.2284,0.178957,
2,0,0,1,0,36659.6,0.176841,0.176509,-14.7034,19,0.0151653,10,-0.00259529,-1.83258,-0.38432,-0.153518,88.0651,0.176509,
2,0,0,1,0,36659.6,0.174444,0.174138,-14.9128,19,0.015106,10,-0.00259688,-1.82644,-0.389049,-0.151652,88.2882,0.174138,
2,0,0,1,0,36659.6,0.172047,0.17176,-15.124,19,0.0150459,10,-0.0025977,-1.82033,-0.381996,-0.154452,91.2452,0.17176,
2,0,0,1,0,36659.6,0.169644,0.169302,-15.3476,19,0.014985,10,-0.00259837,-1.81396,-0.389777,-0.151369,90.6436,0.169302,
2,0,0,1,0,36659.6,0.167242,0.166903,-15.58,19,0.0149231,10,-0.00260034,-1.80743,-0.387478,-0.152267,92.506,0.1669029,
2,0,0,1,0,36659.6,0.164845,0.164534,-15.7833,19,0.0148604,10,-0.0025969,-1.8018,-0.382097,-0.154411,95.2095,0.164534,
2,0,0,1,0,36659.6,0.162448,0.162093,-16.0182,19,0.0147967,10,-0.00259644,-1.79538,-0.383845,-0.153708,96.2099,0.162093,
2,0,0,1,0,36659.6,0.160042,0.15972,-16.2599,19,0.0147322,10,-0.00259702,-1.78888,-0.364666,-0.161792,102.738,0.15972,
2,0,0,1,0,36659.6,0.157645,0.157281,-16.5057,19,0.0146666,10,-0.00259603,-1.78237,-0.356875,-0.165324,106.611,0.157281,
2,0,0,1,0,36659.6,0.155248,0.154947,-16.7683,19,0.0146,10,-0.00259819,-1.77551,-0.348267,-0.16941,110.976,0.154947,
2,0,0,1,0,36659.6,0.152845,0.152515,-17.0393,19,0.0145324,10,-0.00259876,-1.76855,-0.335929,-0.175632,116.915,0.152515,
2,0,0,1,0,36659.6,0.150443,0.150152,-17.3217,19,0.0144637,10,-0.00260088,-1.76141,-0.325126,-0.181468,122.871,0.150152,
2,0,0,1,0,36659.6,0.148046,0.147747,-17.6204,19,0.0143938,10,-0.00260335,-1.75398,-0.308516,-0.191238,131.834,0.147747,
2,0,0,1,0,36659.6,0.145648,0.145379,-17.9439,19,0.0143226,10,-0.00260867,-1.74608,-0.295632,-0.199572,140.108,0.145379,
2,0,0,1,0,36659.6,0.14324,0.142924,-18.3038,19,0.0142501,10,-0.00261605,-1.73746,-0.2817,-0.209443,149.84,0.142924,
2,0,0,1,0,36659.6,0.140843,0.140509,-18.6727,19,0.0141761,10,-0.00262368,-1.72879,-0.266876,-0.221077,161.465,0.140509,
2,0,0,1,0,36659.6,0.138446,0.138129,-19.0615,19,0.0141006,10,-0.00263294,-1.71984,-0.253536,-0.232708,173.671,0.138129,
2,0,0,1,0,36659.6,0.136041,0.135703,-19.5063,19,0.0140234,10,-0.00264706,-1.70982,-0.240616,-0.245204,187.115,0.135703,
2,0,0,1,0,36659.6,0.133644,0.133354,-19.9659,19,0.0139444,10,-0.00266252,-1.69971,-0.228267,-0.258469,201.84,0.133354,
2,0,0,1,0,36659.6,0.131246,0.130952,-20.461,19,0.0138635,10,-0.00267941,-1.68907,-0.221703,-0.266121,213.03,0.130952,
2,0,0,1,0,36659.7,0.128849,0.128583,-20.9882,19,0.0137806,10,-0.00269873,-1.67802,-0.212408,-0.277767,228.099,0.128583,
2,0,0,1,0,36659.7,0.126441,0.126106,-21.5507,19,0.0136954,10,-0.00271767,-1.66654,-0.204438,-0.288596,243.354,0.126106,
2,0,0,1,0,36659.7,0.124044,0.123755,-22.1553,19,0.013608,10,-0.00274183,-1.65452,-0.199714,-0.295423,255.962,0.123755,
2,0,0,1,0,36659.7,0.121647,0.121365,-22.7941,19,0.013518,10,-0.0027664,-1.64218,-0.193668,-0.304646,271.396,0.121365,
2,0,0,1,0,36659.7,0.119241,0.11893,-23.459,19,0.0134255,10,-0.00278998,-1.62969,-0.192934,-0.305803,280.178,0.11893,
2,0,0,1,0,36659.7,0.116844,0.11652,-24.1523,19,0.0133302,10,-0.00281422,-1.61704,-0.194024,-0.304086,286.537,0.11652,
2,0,0,1,0,36659.7,0.114447,0.114142,-24.8486,19,0.0132321,10,-0.00283627,-1.6047,-0.193653,-0.304668,295.44,0.114142,
2,0,0,1,0,36659.7,0.11205,0.111755,-25.5475,19,0.0131312,10,-0.00285507,-1.59265,-0.197916,-0.298106,297.265,0.111755,
2,0,0,1,0,36659.7,0.109642,0.10935,-26.2892,19,0.0130275,10,-0.00287474,-1.58022,-0.201307,-0.293084,300.376,0.10935,
2,0,0,1,0,36659.7,0.107245,0.106931,-27.0029,19,0.0129208,10,-0.00288743,-1.56859,-0.206233,-0.286084,301.157,0.106931,
2,0,0,1,0,36659.7,0.104848,0.104564,-27.7258,19,0.0128113,10,-0.00289911,-1.55712,-0.212732,-0.277344,299.782,0.104564,
2,0,0,1,0,36659.7,0.10244,0.102113,-28.4514,19,0.0126988,10,-0.00290526,-1.5459,-0.218078,-0.270546,299.988,0.102113,
2,0,0,1,0,36659.7,0.100042,0.0997983,-29.1528,19,0.0125836,10,-0.0029094,-1.53532,-0.228515,-0.258188,293.309,0.0997983,
2,0,0,1,0,36659.7,0.0976454,0.0973763,-29.869,19,0.0124654,10,-0.00290854,-1.52478,-0.239303,-0.24655,286.703,0.09737628,
2,0,0,1,0,36659.7,0.0952427,0.0949787,-30.5371,19,0.0123446,10,-0.00290038,-1.51517,-0.24956,-0.236417,281.253,0.0949787,
2,0,0,1,0,36659.7,0.0928428,0.0925843,-31.1833,19,0.0122211,10,-0.00288708,-1.50608,-0.259075,-0.227733,277.078,0.0925843,
2,0,0,1,0,36659.7,0.0904457,0.0901984,-31.8528,19,0.0120949,10,-0.00287307,-1.49685,-0.26822,-0.219969,273.256,0.0901984,
2,0,0,1,0,36659.7,0.0880486,0.0878114,-32.5192,19,0.0119661,10,-0.00285556,-1.48786,-0.276825,-0.213131,269.985,0.0878114,
2,0,0,1,0,36659.7,0.0856404,0.0853799,-33.1601,19,0.0118346,10,-0.0028312,-1.47938,-0.293717,-0.200874,259.37,0.0853799,
2,0,0,1,0,36659.7,0.0832433,0.083011,-33.768,19,0.0117007,10,-0.00280311,-1.4715,-0.312421,-0.188848,248.392,0.083011,
2,0,0,1,0,36659.7,0.0808462,0.0805752,-34.3488,19,0.0115644,10,-0.00276766,-1.46409,-0.333595,-0.176861,236.663,0.0805752,
2,0,0,1,0,36659.7,0.0784408,0.0781702,-34.914,19,0.0114259,10,-0.00272924,-1.457,-0.356034,-0.165715,225.351,0.07817021,
2,0,0,1,0,36659.7,0.0760437,0.0757461,-35.44,19,0.0112851,10,-0.00268444,-1.45051,-0.377272,-0.156386,215.901,0.0757461,
2,0,0,1,0,36659.7,0.0736466,0.073356,-35.9437,19,0.0111423,10,-0.00263669,-1.44438,-0.404611,-0.145819,204.208,0.073356,
2,0,0,1,0,36659.7,0.0712495,0.0709775,-36.4209,19,0.0109975,10,-0.00258506,-1.43865,-0.432781,-0.136328,193.431,0.0709775,
2,0,0,1,0,36659.8,0.0688413,0.0685894,-36.8705,19,0.0108508,10,-0.00252893,-1.43332,-0.464977,-0.126888,182.271,0.0685894,
2,0,0,1,0,36659.8,0.0664442,0.0661929,-37.2879,19,0.0107025,10,-0.00246819,-1.42843,-0.49952,-0.118113,171.647,0.0661929,
2,0,0,1,0,36659.8,0.0640471,0.0638049,-37.6846,19,0.0105525,10,-0.00240446,-1.42384,-0.539938,-0.109272,160.509,0.0638049,
2,0,0,1,0,36659.8,0.0616389,0.0613999,-38.0649,19,0.0104009,10,-0.00233718,-1.41948,-0.583202,-0.101166,150.062,0.0613999,
2,0,0,1,0,36659.8,0.0592418,0.0589599,-38.4161,19,0.0102479,10,-0.00226501,-1.41549,-0.639757,-0.0922225,138.011,0.0589599,
2,0,0,1,0,36659.8,0.0568446,0.0565358,-38.7371,19,0.0100936,10,-0.00219003,-1.41187,-0.702907,-0.0839371,126.685,0.0565358,
2,0,0,1,0,36659.8,0.0544475,0.0541743,-39.0137,19,0.00993805,10,-0.00211354,-1.40878,-0.787835,-0.0748888,113.874,0.0541743,
2,0,0,1,0,36659.8,0.0520421,0.051747,-39.2878,19,0.00978138,10,-0.00203302,-1.40574,-0.875959,-0.0673547,103.125,0.051747,
2,0,0,1,0,36659.8,0.049645,0.049325,-39.5133,19,0.00962375,10,-0.00194899,-1.40326,-0.96064,-0.0614174,94.6003,0.049325,
2,0,0,1,0,36659.8,0.0472479,0.0469137,-39.7293,19,0.00946524,10,-0.00186385,-1.40089,-1.11126,-0.0530929,82.2201,0.0469137,
2,0,0,1,0,36659.8,0.0448397,0.0445479,-39.9244,19,0.00930591,10,-0.00177855,-1.39876,-1.2306,-0.047944,74.5999,0.0445479,
2,0,0,1,0,36659.8,0.0424426,0.0421599,-40.076,19,0.00914591,10,-0.0016896,-1.39712,-1.41048,-0.0418298,65.3666,0.0421599,
2,0,0,1,0,36659.8,0.0400455,0.0397485,-40.2277,19,0.00898529,10,-0.00159899,-1.39547,-1.64656,-0.0358324,56.2097,0.0397485,
2,0,0,1,0,36659.8,0.0376456,0.0373467,-40.3547,19,0.0088241,10,-0.00150711,-1.39411,-1.84202,-0.0320301,50.3993,0.0373467,
2,0,0,1,0,36659.8,0.035243,0.0348971,-40.4669,19,0.00866242,10,-0.00141218,-1.3929,-2.23453,-0.0264038,41.6596,0.0348971,
2,0,0,1,0,36659.8,0.0328459,0.0325239,-40.5617,19,0.00850034,10,-0.00131923,-1.39188,-2.57292,-0.0229312,36.2709,0.0325239,
2,0,0,1,0,36659.8,0.0304488,0.030103,-40.6295,19,0.00833794,10,-0.00122307,-1.39116,-3.02214,-0.0195226,30.944,0.030103,
2,0,0,1,0,36659.8,0.0280406,0.0277108,-40.7042,19,0.00817526,10,-0.00112794,-1.39036,-3.87173,-0.0152386,24.1914,0.0277108,
2,0,0,1,0,36659.8,0.0256435,0.0253715,-40.7616,19,0.00801232,10,-0.00103418,-1.38975,-4.49733,-0.0131189,20.853,0.0253715,
2,0,0,1,0,36659.8,0.0232464,0.022958,-40.7931,19,0.00784921,10,-0.000936528,-1.38941,-6.75142,-0.0087389,13.905,0.022958,
2,0,0,1,0,36659.8,0.0208437,0.0205191,-40.8294,19,0.00768597,10,-0.000837782,-1.38903,-12.5968,-0.00468373,7.45743,0.0205191,
2,0,0,1,0,36659.8,0.018441,0.0181257,-40.8375,19,0.00752263,10,-0.00074021,-1.38894,-20.8835,-0.0028252,4.50018,0.0181257,
2,0,0,1,0,36659.8,0.0160439,0.0157292,-40.8335,19,0.00735929,10,-0.00064228,-1.38898,153.589,0.000384142,-0.612064,0.01572923,
2,0,0,1,0,36659.8,0.0136468,0.0133094,-40.8365,19,0.00719594,10,-0.000543509,-1.38895,20.1549,0.00292733,-4.6629,0.0133094,
2,0,0,1,0,36659.8,0.0112414,0.0109394,-40.8235,19,0.0070326,10,-0.000446584,-1.38909,11.298,0.00522214,-8.31389,0.0109394,
2,0,0,1,0,36659.9,0.00884431,0.00853967,-40.7928,19,0.00686935,10,-0.000348357,-1.38942,6.53322,0.00903077,-14.3683,0.00853967,
2,0,0,1,0,36659.9,0.0064472,0.00612407,-40.7537,19,0.00670625,10,-0.000249578,-1.38983,7.08153,0.00833153,-13.253,0.00612407,
2,0,0,1,0,36659.9,0.00404455,0.00373073,-40.6989,19,0.00654336,10,-0.000151837,-1.39042,4.98831,0.0118276,-18.7879,0.00373073,
2,0,0,1,0,36659.9,0.0016419,0.00125574,-40.6952,19,0.00638062,10,-5.11027e-05,-1.39046,3.73258,0.0158068,-25.066,0.00125574,
2,0,0,1,0,36659.9,-0.000755207,-0.00110472,-40.6116,19,0.00621801,10,4.48645e-05,-1.39135,3.27531,0.0180136,-28.5151,-0.00110472,
2,0,0,1,0,36659.9,-0.00315231,-0.003497,-40.5125,19,0.00605576,10,0.000141672,-1.39241,2.22985,0.0264592,-41.8165,-0.003497,
2,0,0,1,0,36659.9,-0.00555774,-0.00590731,-40.424,19,0.00589388,10,0.000238797,-1.39336,2.05067,0.028771,-45.356,-0.005907306,
2,0,0,1,0,36659.9,-0.00795485,-0.00827413,-40.2967,19,0.00573244,10,0.00033342,-1.39473,1.91429,0.0308208,-48.449,-0.00827413,
2,0,0,1,0,36659.9,-0.010352,-0.0106887,-40.1769,19,0.00557151,10,0.000429438,-1.39602,1.65902,0.0355632,-55.7344,-0.0106887,
2,0,0,1,0,36659.9,-0.0127546,-0.0131255,-40.046,19,0.00541108,10,0.000525624,-1.39744,1.5655,0.0376876,-58.8523,-0.0131255,
2,0,0,1,0,36659.9,-0.0151573,-0.0154775,-39.8906,19,0.00525122,10,0.000617407,-1.39913,1.41592,0.0416691,-64.8259,-0.0154775,
2,0,0,1,0,36659.9,-0.0175544,-0.017892,-39.7306,19,0.00509199,10,0.000710862,-1.40087,1.32404,0.0445606,-69.0625,-0.017892,
2,0,0,1,0,36659.9,-0.0199515,-0.0203458,-39.5509,19,0.00493344,10,0.000804694,-1.40284,1.25535,0.0469989,-72.5236,-0.0203458,
2,0,0,1,0,36659.9,-0.0223597,-0.0227561,-39.3809,19,0.0047756,10,0.000896156,-1.40471,1.15842,0.0509312,-78.2225,-0.0227561,
2,0,0,1,0,36659.9,-0.0247568,-0.025141,-39.1898,19,0.00461849,10,0.00098527,-1.40683,1.12073,0.0526443,-80.4626,-0.025141,
2,0,0,1,0,36659.9,-0.0271539,-0.0275025,-38.9789,19,0.00446216,10,0.00107202,-1.40917,1.06551,0.0553726,-84.2299,-0.0275025,
2,0,0,1,0,36659.9,-0.0295593,-0.0299478,-38.7783,19,0.00430667,10,0.00116132,-1.41141,1.03306,0.0571116,-86.4242,-0.0299478,
2,0,0,1,0,36659.9,-0.0319564,-0.0323146,-38.5758,19,0.00415197,10,0.00124656,-1.41369,1.04036,0.0567113,-85.3627,-0.0323146,
2,0,0,1,0,36659.9,-0.0343535,-0.0347164,-38.3623,19,0.00399811,10,0.0013318,-1.4161,1.0273,0.0574324,-85.9913,-0.0347164,
2,0,0,1,0,36659.9,-0.0367506,-0.037079,-38.1614,19,0.00384508,10,0.00141499,-1.41838,1.01084,0.0583675,-86.9166,-0.037079,
2,0,0,1,0,36659.9,-0.0391588,-0.0395275,-37.9545,19,0.00369284,10,0.00150025,-1.42074,1.01637,0.0580496,-85.9724,-0.0395275,
2,0,0,1,0,36659.9,-0.0415559,-0.0419293,-37.7401,19,0.00354147,10,0.00158242,-1.4232,1.04506,0.0564562,-83.1906,-0.0419293,
2,0,0,1,0,36659.9,-0.043953,-0.0443036,-37.538,19,0.00339093,10,0.00166307,-1.42553,1.04703,0.0563501,-82.5962,-0.0443036,
2,0,0,1,0,36659.9,-0.0463585,-0.0467637,-37.3557,19,0.00324116,10,0.00174689,-1.42764,1.09021,0.0541182,-78.908,-0.0467637,
2,0,0,1,0,36659.9,-0.0487556,-0.0490966,-37.1641,19,0.00309214,10,0.00182463,-1.42988,1.11377,0.0529732,-76.8385,-0.0490966,
2,0,0,1,0,36660,-0.0511527,-0.0515154,-36.9837,19,0.00294385,10,0.00190523,-1.43199,1.14833,0.0513789,-74.1898,-0.0515154,
2,0,0,1,0,36660,-0.0535498,-0.0539257,-36.7987,19,0.00279631,10,0.0019844,-1.43417,1.21753,0.0484588,-69.6482,-0.0539257,
2,0,0,1,0,36660,-0.055958,-0.056336,-36.6456,19,0.00264942,10,0.00206447,-1.43598,1.26331,0.0467026,-66.8203,-0.056336,
2,0,0,1,0,36660,-0.0583551,-0.0587315,-36.4931,19,0.00250316,10,0.00214329,-1.43779,1.41856,0.0415915,-59.2697,-0.0587315,
2,0,0,1,0,36660,-0.0607522,-0.0611471,-36.3401,19,0.00235751,10,0.00222209,-1.43961,1.44129,0.0409357,-58.0989,-0.0611471,
2,0,0,1,0,36660,-0.0631604,-0.0634938,-36.2316,19,0.00221237,10,0.00230048,-1.44091,1.55721,0.0378882,-53.5809,-0.0634938,
2,0,0,1,0,36660,-0.0655575,-0.0659168,-36.0889,19,0.00206776,10,0.00237887,-1.44263,1.7975,0.0328233,-46.2674,-0.0659168,
2,0,0,1,0,36660,-0.0679546,-0.0682985,-35.9805,19,0.00192362,10,0.00245741,-1.44393,1.86561,0.031625,-44.4528,-0.0682985,
2,0,0,1,0,36660,-0.0703573,-0.0707088,-35.8977,19,0.00177989,10,0.00253828,-1.44493,2.1535,0.0273973,-38.3906,-0.0707088,
2,0,0,1,0,36660,-0.0727571,-0.0731382,-35.8029,19,0.0016365,10,0.00261856,-1.44608,2.44726,0.0241085,-33.7006,-0.0731382,
2,0,0,1,0,36660,-0.0751543,-0.075488,-35.7215,19,0.00149346,10,0.00269655,-1.44707,2.66997,0.0220976,-30.83,-0.075488,
2,0,0,1,0,36660,-0.0775513,-0.0779195,-35.6562,19,0.00135071,10,0.00277832,-1.44786,3.25704,0.0181146,-25.226,-0.0779195,
2,0,0,1,0,36660,-0.0799595,-0.0803362,-35.6009,19,0.00120821,10,0.00286004,-1.44854,3.91949,0.015053,-20.926,-0.0803362,
2,0,0,1,0,36660,-0.0823567,-0.0826702,-35.5624,19,0.00106589,10,0.00293995,-1.44901,5.13466,0.0114905,-15.9552,-0.08267016,
2,0,0,1,0,36660,-0.0847538,-0.0851282,-35.5198,19,0.000923733,10,0.00302373,-1.44953,7.21514,0.00817725,-11.3441,-0.0851282,
2,0,0,1,0,36660,-0.0871592,-0.0875332,-35.5028,19,0.000781701,10,0.00310768,-1.44974,9.4247,0.00626015,-8.67817,-0.0875332,
2,0,0,1,0,36660,-0.0895563,-0.0898926,-35.4925,19,0.000639717,10,0.00319051,-1.44986,24.3096,0.00242703,-3.36288,-0.0898926,
2,0,0,1,0,36660,-0.0919534,-0.0923124,-35.4787,19,0.000497793,10,0.00327513,-1.45003,-80.3146,-0.000734611,1.01799,-0.09231244,
2,0,0,1,0,36660,-0.0943505,-0.0946899,-35.4876,19,0.00035587,10,0.00336032,-1.44992,-21.3983,-0.00275722,3.82118,-0.0946899,
2,0,0,1,0,36660,-0.0967587,-0.0971468,-35.5126,19,0.000213868,10,0.00344994,-1.44962,-9.45883,-0.00623756,8.6451,-0.0971468,
2,0,0,1,0,36660,-0.0991558,-0.0995285,-35.5293,19,7.17791e-05,10,0.00353618,-1.44941,3.46296,0.0170375,-23.5512,-0.0995285,
2,0,0,1,0,36660,-0.0999548,-0.100324,-35.548,19,2.55864e-05,10,0.00356631,-1.44918,0.0226901,2.60025,-3387.24,-0.1003238,
2,0,0,1,1,36660,-0.0999548,-0.100457,-35.3518,19,4.34931e-06,10,0.00355135,-1.45159,-0.0326068,-1.80944,2220.28,-0.100457,
2,0,0,1,1,36660,-0.0979573,-0.0983812,-31.3317,19,-9.73886e-05,10,0.00308245,-1.50402,-0.0423517,-1.3931,1616.87,-0.0983812,
2,0,0,1,1,36660,-0.0955546,-0.0959931,-27.6797,19,-0.000214843,10,0.00265706,-1.55784,-0.0447015,-1.31987,1446.25,-0.0959931,
2,0,0,1,1,36660,-0.093152,-0.0935531,-24.6007,19,-0.000318976,10,0.00230147,-1.60905,-0.0461981,-1.27711,1241.26,-0.0935531,
2,0,0,1,1,36660.1,-0.0907548,-0.0911397,-21.876,19,-0.000411582,10,0.00199377,-1.66003,-0.0462405,-1.27594,1095.29,-0.0911397,
2,0,0,1,1,36660.1,-0.0883577,-0.0887866,-19.4223,19,-0.000493888,10,0.00172444,-1.7117,-0.0449907,-1.31138,995.043,-0.0887866,
2,0,0,1,1,36660.1,-0.0859523,-0.0863784,-17.1488,19,-0.000566744,10,0.00148129,-1.76577,-0.0430635,-1.37007,915.341,-0.08637841,
2,0,0,1,1,36660.1,-0.0835552,-0.083966,-15.0611,19,-0.000630911,10,0.00126462,-1.82214,-0.0407024,-1.44954,847.267,-0.083966,
2,0,0,1,1,36660.1,-0.0811581,-0.0815599,-13.1072,19,-0.000687025,10,0.00106902,-1.88249,-0.037586,-1.56973,794.835,-0.0815599,
2,0,0,1,1,36660.1,-0.0787555,-0.0791623,-11.268,19,-0.00073557,10,0.000892002,-1.94815,-0.0342603,-1.72211,746.145,-0.0791623,
2,0,0,1,1,36660.1,-0.0763528,-0.076805,-9.53956,19,-0.000776995,10,0.000732686,-2.02047,-0.030574,-1.92975,702.722,-0.076805,
2,0,0,1,1,36660.1,-0.0739557,-0.0743767,-7.90608,19,-0.000811702,10,0.000588029,-2.10204,-0.0265103,-2.22555,664.156,-0.0743767,
2,0,0,1,1,36660.1,-0.0715586,-0.071959,-6.36046,19,-0.000840066,10,0.000457692,-2.19651,-0.0221679,-2.66151,626.179,-0.071959,
2,0,0,1,1,36660.1,-0.0691532,-0.0695731,-4.89924,19,-0.000862432,10,0.000340856,-2.30987,-0.0171954,-3.43116,595.701,-0.0695731,
2,0,0,1,1,36660.1,-0.066756,-0.0671713,-3.50708,19,-0.000879081,10,0.000235575,-2.45505,-0.0113934,-5.17843,567.863,-0.0671713,
2,0,0,1,1,36660.1,-0.0643589,-0.0647726,-2.18491,19,-0.000890305,10,0.000141522,-2.66057,-0.00783149,-7.53369,542.772,-0.0647726,
2,0,0,1,1,36660.1,-0.0619563,-0.0623718,-0.916271,19,-0.000896363,10,5.71495e-05,-3.03798,-0.0246904,-2.38959,513.63,-0.06237185,
2,1,0,1,1,36660.1,-0.0595536,-0.060005,0.294027,19,-0.000897454,10,-1.76431e-05,-3.53161,0.149387,0.394946,491.142,-0.060005,
2,1,0,1,1,36660.1,-0.0571565,-0.0575576,1.43079,19,-0.000893886,10,-8.2353e-05,-2.84442,0.0161639,3.65011,470.16,-0.0575576,
2,1,0,1,1,36660.1,-0.0547594,-0.0551653,2.53364,19,-0.000885833,10,-0.000139769,-2.59626,0.00807611,7.3055,446.37,-0.0551653,
2,1,0,1,1,36660.1,-0.0523512,-0.0527656,3.60019,19,-0.00087343,10,-0.000189966,-2.44367,0.0162394,3.63313,431.896,-0.0527656,
2,1,0,1,1,36660.1,-0.0499541,-0.0503596,4.59947,19,-0.000856924,10,-0.000231627,-2.33729,0.0234352,2.51758,413.248,-0.0503596,
2,1,0,1,1,36660.1,-0.047557,-0.0479694,5.57189,19,-0.00083647,10,-0.00026728,-2.254,0.0305865,1.92895,396.59,-0.0479694,
2,1,0,1,1,36660.1,-0.0451544,-0.045593,6.48937,19,-0.000812258,10,-0.00029587,-2.1878,0.0376972,1.5651,381.572,-0.045593,
2,1,0,1,1,36660.1,-0.0427545,-0.0432209,7.38553,19,-0.000784403,10,-0.000319209,-2.13162,0.045238,1.30421,365.46,-0.0432209,
2,1,0,1,1,36660.1,-0.0403574,-0.0407989,8.24753,19,-0.000753039,10,-0.000336491,-2.08368,0.0527304,1.1189,352.084,-0.04079894,
2,1,0,1,1,36660.1,-0.0379603,-0.0383939,9.07134,19,-0.000718306,10,-0.000348284,-2.04233,0.0610874,0.965829,335.66,-0.0383939,
2,1,0,1,1,36660.1,-0.0355521,-0.0359847,9.87231,19,-0.000680326,10,-0.000355252,-2.00558,0.0694158,0.849951,322.135,-0.0359847,
2,1,0,1,1,36660.1,-0.033155,-0.033585,10.6199,19,-0.000639262,10,-0.00035667,-1.97388,0.0780999,0.755443,309.284,-0.033585,
2,1,0,1,1,36660.2,-0.0307579,-0.0312023,11.339,19,-0.000595275,10,-0.000353801,-1.94543,0.0872664,0.676091,296.346,-0.0312023,
2,1,0,1,1,36660.2,-0.0283524,-0.0287623,12.0503,19,-0.000548433,10,-0.000346593,-1.919,0.0964351,0.611811,285.003,-0.0287623,
2,1,0,1,1,36660.2,-0.0259553,-0.0264103,12.7097,19,-0.000498815,10,-0.000335665,-1.89587,0.106688,0.553014,272.064,-0.0264103,
2,1,0,1,1,36660.2,-0.0235582,-0.0239809,13.3571,19,-0.000446596,10,-0.000320316,-1.87429,0.116807,0.505105,261.478,-0.0239809,
2,1,0,1,1,36660.2,-0.0211611,-0.0215547,13.9637,19,-0.000391876,10,-0.000300984,-1.855,0.127986,0.460987,249.728,-0.0215547,
2,1,0,1,1,36660.2,-0.0187529,-0.019173,14.5576,19,-0.000334747,10,-0.000279114,-1.83691,0.139037,0.424348,239.796,-0.019173,
2,1,0,1,1,36660.2,-0.0163558,-0.016751,15.1218,19,-0.000275321,10,-0.000253306,-1.8204,0.149588,0.394416,231.583,-0.016751,
2,1,0,1,1,36660.2,-0.0139587,-0.0143641,15.6632,19,-0.000213692,10,-0.000224987,-1.80512,0.162968,0.362034,220.337,-0.0143641,
2,1,0,1,1,36660.2,-0.0115505,-0.0119824,16.1805,19,-0.000149949,10,-0.000193881,-1.79101,0.176737,0.333829,209.899,-0.0119824,
2,1,0,1,1,36660.2,-0.0091534,-0.00954238,16.6796,19,-8.41781e-05,10,-0.000159163,-1.77781,0.189377,0.311548,202.027,-0.00954238,
2,1,0,1,1,36660.2,-0.00675629,-0.00712465,17.1424,19,-1.64739e-05,10,-0.000122134,-1.76593,0.202781,0.290955,194.179,-0.00712465,
2,1,0,1,1,36660.2,-0.00435919,-0.00474616,17.6063,19,5.30633e-05,10,-8.35622e-05,-1.75433,0.224306,0.263034,179.495,-0.00474616,
2,1,0,1,1,36660.2,-0.00195376,-0.00232843,18.0551,19,0.000124455,10,-4.20401e-05,-1.7434, , , ,-0.00232843,
2,1,0,0,1,36660.2,-7.54729e-05,-0.00042076,18.3169,19,0.000180888,10,-7.70702e-06,-1.73715, , , ,-0.00042076,