File: Figure_codes/Fig_3-5/rawdata_trumpetplot_data/after 10th/20221101_1-115_003_TrumpetPlot_ParaChange_from10_every3_06_CV_C01_7.csv
mode,ox/red,error,control changes,counter inc.,time/s,control/V,Ewe/V,<I>/mA,cycle number,(Q-Qo)/C,I Range,P/W,log(|I|),Tafel slope mV/dec,alpha_eff,dI/d(E-IR),E-IR/V,
2,0,0,0,0,14940.9,2.44065e-05,-0.000344411,-1.4058,8,0.0000000E+000,10,4.84174e-07,-2.85208, , , ,-0.000344411,
2,0,0,1,0,14941,0.00129787,0.000934951,-0.0230532,8,-1.76918e-05,10,-2.15536e-08,-4.63727, , , ,0.000934951,
2,1,0,1,0,14941,0.00279427,0.00245461,0.716399,8,-2.39779e-06,10,1.75848e-06,-3.14484,0.00952791,6.19234,377.296,0.002454608,
2,1,0,1,0,14941,0.00429425,0.00399745,1.04505,8,3.19394e-05,10,4.17754e-06,-2.98086,0.0106116,5.55996,184.172,0.00399745,
2,1,0,1,0,14941.1,0.00579422,0.00543513,1.23162,8,7.56435e-05,10,6.69399e-06,-2.90952,0.024674,2.39118,107.913,0.00543513,
2,1,0,1,0,14941.1,0.00729063,0.00699552,1.35985,8,0.000124908,10,9.51285e-06,-2.86651,0.0422074,1.39786,72.171,0.00699552,
2,1,0,1,0,14941.1,0.00878703,0.0084603,1.44817,8,0.000178117,10,1.2252e-05,-2.83918,0.0614054,0.960827,53.5923,0.0084603,
2,1,0,1,0,14941.2,0.010287,0.00995152,1.52018,8,0.000234505,10,1.51281e-05,-2.8181,0.0862713,0.683889,40.1096,0.00995152,
2,1,0,1,0,14941.2,0.011787,0.0114621,1.56832,8,0.000293169,10,1.79762e-05,-2.80457,0.101786,0.579648,35.5437,0.0114621,
2,1,0,1,0,14941.3,0.0132825,0.012977,1.61731,8,0.000353537,10,2.09878e-05,-2.79121,0.10885,0.54203,34.4081,0.012977,
2,1,0,1,0,14941.3,0.014778,0.0144754,1.6678,8,0.00041574,10,2.4142e-05,-2.77786,0.129555,0.455405,29.6153,0.0144754,
2,1,0,1,0,14941.3,0.0162816,0.015966,1.71707,8,0.000480153,10,2.74147e-05,-2.76521,0.135968,0.433926,28.892,0.015966,
2,1,0,1,0,14941.4,0.017778,0.0174745,1.75961,8,0.000545789,10,3.07482e-05,-2.75458,0.160208,0.368272,25.1396,0.0174745,
2,1,0,1,0,14941.4,0.0192744,0.0189827,1.79419,8,0.000612761,10,3.40585e-05,-2.74613,0.171139,0.344749,24.0791,0.01898269,
2,1,0,1,0,14941.4,0.0207743,0.0204665,1.83229,8,0.000681361,10,3.75006e-05,-2.737,0.156307,0.377461,26.9545,0.02046646,
2,1,0,1,0,14941.5,0.0222743,0.0219492,1.86892,8,0.000751464,10,4.10214e-05,-2.72841,0.167009,0.353274,25.8048,0.0219492,
2,1,0,1,0,14941.5,0.0237707,0.0234374,1.90243,8,0.000822829,10,4.45878e-05,-2.72069,0.195051,0.302485,22.5505,0.0234374,
2,1,0,1,0,14941.6,0.0252671,0.0249569,1.93838,8,0.000895468,10,4.8376e-05,-2.71256,0.19452,0.303311,23.0686,0.0249569,
2,1,0,1,0,14941.6,0.0267671,0.0264788,1.98139,8,0.000969708,10,5.24649e-05,-2.70303,0.1687,0.349734,27.023,0.0264788,
2,1,0,1,0,14941.6,0.0282671,0.0279498,2.02385,8,0.00104541,10,5.65661e-05,-2.69382,0.188962,0.312231,24.5426,0.02794981,
2,1,0,1,0,14941.7,0.0297626,0.0294717,2.05448,8,0.00112233,10,6.05489e-05,-2.6873,0.207777,0.283959,22.711,0.0294717,
2,1,0,1,0,14941.7,0.0312581,0.0309475,2.08749,8,0.0012005,10,6.46028e-05,-2.68038,0.198862,0.296688,24.2019,0.0309475,
2,1,0,1,0,14941.7,0.0327616,0.0324721,2.12971,8,0.00128043,10,6.91562e-05,-2.67168,0.187383,0.314864,26.1514,0.0324721,
2,1,0,1,0,14941.8,0.034258,0.0339502,2.16227,8,0.00136139,10,7.34096e-05,-2.66509,0.206174,0.286167,24.2014,0.0339502,
2,1,0,1,0,14941.8,0.0357545,0.0354249,2.19927,8,0.00144376,10,7.7909e-05,-2.65772,0.220964,0.267012,22.9623,0.0354249,
2,1,0,1,0,14941.9,0.0372544,0.0369127,2.23819,8,0.00152776,10,8.26177e-05,-2.6501,0.21676,0.27219,23.8082,0.0369127,
2,1,0,1,0,14941.9,0.0387544,0.0384291,2.27641,8,0.00161301,10,8.74803e-05,-2.64275,0.207267,0.284657,25.3155,0.0384291,
2,1,0,1,0,14941.9,0.0402508,0.0399627,2.31536,8,0.00169947,10,9.25281e-05,-2.63538,0.208918,0.282407,25.4639,0.03996272,
2,1,0,1,0,14942,0.0417472,0.0414427,2.35881,8,0.00178748,10,9.77555e-05,-2.62731,0.230039,0.256479,23.4759,0.0414427,
2,1,0,1,0,14942,0.0432472,0.0429552,2.3879,8,0.00187704,10,0.000102573,-2.62198,0.249112,0.236841,22.0352,0.0429552,
2,1,0,1,0,14942,0.0447472,0.0444465,2.42123,8,0.00196782,10,0.000107615,-2.61596,0.241503,0.244303,23.1266,0.0444465,
2,1,0,1,0,14942.1,0.0462427,0.0459149,2.45491,8,0.00205969,10,0.000112717,-2.60996,0.22194,0.265838,25.5228,0.0459149,
2,1,0,1,0,14942.1,0.0477382,0.0474109,2.48914,8,0.00215298,10,0.000118012,-2.60395,0.227418,0.259434,25.2391,0.0474109,
2,1,0,1,0,14942.2,0.0492417,0.0489137,2.5279,8,0.00224809,10,0.000123649,-2.59724,0.250141,0.235867,23.2582,0.04891365,
2,1,0,1,0,14942.2,0.0507381,0.0504383,2.557,8,0.00234388,10,0.000128971,-2.59227,0.263834,0.223626,22.3575,0.0504383,
2,1,0,1,0,14942.2,0.0522345,0.0519042,2.59763,8,0.00244093,10,0.000134828,-2.58542,0.255888,0.23057,23.3204,0.0519042,
2,1,0,1,0,14942.3,0.0537345,0.0534306,2.6337,8,0.00253959,10,0.00014072,-2.57943,0.262475,0.224783,23.0359,0.0534306,
2,1,0,1,0,14942.3,0.0552345,0.0549268,2.66843,8,0.00263957,10,0.000146568,-2.57374,0.297829,0.1981,20.5746,0.0549268,
2,1,0,1,0,14942.3,0.0567309,0.056416,2.68803,8,0.00274046,10,0.000151648,-2.57057,0.305109,0.193374,20.3664,0.056416,
2,1,0,1,0,14942.4,0.0582273,0.0578917,2.72308,8,0.00284243,10,0.000157644,-2.56494,0.303457,0.194426,20.7183,0.0578917,
2,1,0,1,0,14942.4,0.0597309,0.0593873,2.75705,8,0.0029462,10,0.000163734,-2.55956,0.285222,0.206857,22.285,0.0593873,
2,1,0,1,0,14942.5,0.0612264,0.0609187,2.78792,8,0.00305061,10,0.000169837,-2.55472,0.320116,0.184308,20.0326,0.0609187,
2,1,0,1,0,14942.5,0.0627219,0.0624065,2.82316,8,0.00315623,10,0.000176184,-2.54926,0.365274,0.161523,17.7364,0.06240651,
2,1,0,1,0,14942.5,0.0642218,0.0639166,2.84787,8,0.00326304,10,0.000182026,-2.54548,0.345598,0.170719,18.9728,0.0639166,
2,1,0,1,0,14942.6,0.0657218,0.0654134,2.8801,8,0.00337101,10,0.000188397,-2.54059,0.308869,0.19102,21.4219,0.0654134,
2,1,0,1,0,14942.6,0.0672182,0.066892,2.90888,8,0.00347992,10,0.000194581,-2.53627,0.352584,0.167336,18.9666,0.066892,
2,1,0,1,0,14942.6,0.0687146,0.0684325,2.9363,8,0.00358991,10,0.000200938,-2.5322,0.438463,0.134561,15.4066,0.0684325,
2,1,0,1,0,14942.7,0.0702146,0.0699399,2.95219,8,0.00370103,10,0.000206476,-2.52986,0.386136,0.152796,17.6684,0.0699399,
2,1,0,1,0,14942.7,0.0717146,0.0714219,2.9814,8,0.00381307,10,0.000212937,-2.52558,0.370489,0.159249,18.5654,0.0714219,
2,1,0,1,0,14942.8,0.073211,0.0728836,3.01093,8,0.00392588,10,0.000219447,-2.5213,0.376418,0.156741,18.4069,0.0728836,
2,1,0,1,0,14942.8,0.0747074,0.0743945,3.04012,8,0.00403971,10,0.000226168,-2.51711,0.477233,0.123629,14.6302,0.0743945,
2,1,0,1,0,14942.8,0.0762109,0.075858,3.05924,8,0.00415501,10,0.000232068,-2.51439,0.435167,0.13558,16.1915,0.07585796,
2,1,0,1,0,14942.9,0.0777064,0.0773778,3.08106,8,0.00427054,10,0.000238406,-2.5113,0.398311,0.148125,17.8248,0.0773778,
2,1,0,1,0,14942.9,0.079202,0.0788642,3.1131,8,0.00438702,10,0.000245512,-2.50681,0.421761,0.13989,16.9641,0.0788642,
2,1,0,1,0,14942.9,0.0807019,0.0803799,3.13091,8,0.00450476,10,0.000251662,-2.50433,0.490789,0.120214,14.6782,0.0803799,
2,1,0,1,0,14943,0.0822019,0.0819137,3.14886,8,0.0046233,10,0.000257935,-2.50185,0.52968,0.111388,13.7175,0.0819137,
2,1,0,1,0,14943,0.0836983,0.0833867,3.16834,8,0.00474213,10,0.000264197,-2.49917,0.489554,0.120518,14.9477,0.0833867,
2,1,0,1,0,14943.1,0.0851947,0.0848873,3.19996,8,0.00486196,10,0.000271636,-2.49485,0.436135,0.135279,16.8759,0.0848873,
2,1,0,1,0,14943.1,0.0866947,0.0863981,3.22602,8,0.0049831,10,0.000278722,-2.49133,0.493894,0.119459,15.02,0.0863981,
2,1,0,1,0,14943.1,0.0881947,0.0879082,3.25613,8,0.00510522,10,0.00028624,-2.4873,0.410467,0.143739,18.2251,0.0879082,
2,1,0,1,0,14943.2,0.0896911,0.0893587,3.27885,8,0.00522787,10,0.000292993,-2.48428,0.396027,0.14898,19.0902,0.0893587,
2,1,0,1,0,14943.2,0.0911875,0.0909102,3.30382,8,0.00535164,10,0.000300351,-2.48098,0.328072,0.179839,23.2546,0.0909102,
2,1,0,1,0,14943.2,0.0926901,0.0923947,3.3441,8,0.00547744,10,0.000308977,-2.47572,0.313528,0.188181,24.5758,0.0923947,
2,1,0,1,0,14943.3,0.0941856,0.0939096,3.38031,8,0.00560387,10,0.000317444,-2.47104,0.319643,0.184581,24.3947,0.0939096,
2,1,0,1,0,14943.3,0.0956821,0.0953405,3.41178,8,0.00573161,10,0.000325281,-2.46702,0.294401,0.200407,26.766,0.0953405,
2,1,0,1,0,14943.4,0.097182,0.0968286,3.46291,8,0.00586123,10,0.000335309,-2.46056,0.252776,0.233408,31.548,0.0968286,
2,1,0,1,0,14943.4,0.098682,0.0983754,3.51112,8,0.0059926,10,0.000345407,-2.45455,0.243122,0.242677,33.2567,0.0983754,
2,1,0,1,0,14943.4,0.100178,0.0998609,3.56505,8,0.00612552,10,0.00035601,-2.44793,0.236214,0.249774,34.7055,0.0998609,
2,1,0,1,0,14943.5,0.101675,0.101378,3.61503,8,0.00626045,10,0.000366484,-2.44189,0.22125,0.266666,37.6662,0.101378,
2,1,0,1,0,14943.5,0.103175,0.102848,3.67403,8,0.00639779,10,0.000377869,-2.43486,0.202241,0.291732,41.9557,0.102848,
2,1,0,1,0,14943.5,0.104675,0.104392,3.74485,8,0.00653751,10,0.000390933,-2.42657,0.197995,0.297987,43.5674,0.104392,
2,1,0,1,0,14943.6,0.106171,0.105899,3.80546,8,0.00667943,10,0.000402994,-2.41959,0.199208,0.296173,43.9646,0.105899,
2,1,0,1,0,14943.6,0.107667,0.107347,3.87275,8,0.00682375,10,0.000415726,-2.41198,0.212543,0.27759,41.939,0.107347,
2,1,0,1,0,14943.7,0.10917,0.108826,3.93266,8,0.0069711,10,0.000427974,-2.40531,0.207033,0.284978,43.7787,0.1088255,
2,1,0,1,0,14943.7,0.110666,0.110323,4.00211,8,0.00712015,10,0.000441524,-2.39771,0.212831,0.277216,43.2173,0.110323,
2,1,0,1,0,14943.7,0.112162,0.111854,4.06805,8,0.00727171,10,0.000455029,-2.39061,0.240031,0.245801,38.9137,0.111854,
2,1,0,1,0,14943.8,0.113662,0.113346,4.12379,8,0.00742593,10,0.000467414,-2.3847,0.25931,0.227527,36.5644,0.113346,
2,1,0,1,0,14943.8,0.115162,0.114838,4.17492,8,0.00758217,10,0.00047944,-2.37935,0.274763,0.21473,34.9955,0.114838,
2,1,0,1,0,14943.8,0.116658,0.116372,4.22417,8,0.00773997,10,0.000491575,-2.37426,0.280845,0.21008,34.6606,0.116372,
2,1,0,1,0,14943.9,0.118155,0.117824,4.27615,8,0.00789981,10,0.000503834,-2.36895,0.32469,0.181712,30.3194,0.117824,
2,1,0,1,0,14943.9,0.119655,0.119338,4.32672,8,0.00806183,10,0.000516341,-2.36384,0.388978,0.15168,25.5491,0.119338,
2,1,0,1,0,14944,0.121155,0.120824,4.35714,8,0.00822521,10,0.000526449,-2.3608,0.397019,0.148607,25.2747,0.120824,
2,1,0,1,0,14944,0.122651,0.122354,4.39423,8,0.00838947,10,0.00053765,-2.35712,0.424775,0.138897,23.7888,0.122354,
2,1,0,1,0,14944,0.124147,0.123895,4.4304,8,0.00855515,10,0.000548903,-2.35356,0.44256,0.133315,23.0338,0.123895,
2,1,0,1,0,14944.1,0.12565,0.125317,4.46196,8,0.00872294,10,0.000559162,-2.35047,0.49368,0.119511,20.787,0.125317,
2,1,0,1,0,14944.1,0.127146,0.12684,4.48485,8,0.00889099,10,0.00056886,-2.34825,0.525919,0.112185,19.6777,0.12684,
2,1,0,1,0,14944.1,0.128642,0.128345,4.51254,8,0.00906004,10,0.000579161,-2.34558,0.512148,0.115201,20.3528,0.128345,
2,1,0,1,0,14944.2,0.130142,0.129831,4.55112,8,0.0092308,10,0.000590878,-2.34188,0.510448,0.115585,20.532,0.129831,
2,1,0,1,0,14944.2,0.131642,0.131354,4.58865,8,0.00940281,10,0.000602739,-2.33831,0.602322,0.0979543,17.4856,0.131354,
2,1,0,1,0,14944.3,0.133139,0.132764,4.61319,8,0.00957539,10,0.000612464,-2.336,0.679329,0.0868505,15.6013,0.132764,
2,1,0,1,0,14944.3,0.134635,0.134311,4.63169,8,0.00974873,10,0.000622088,-2.33426,0.840915,0.0701617,12.6681,0.134311,
2,1,0,1,0,14944.3,0.136135,0.135769,4.65281,8,0.00992342,10,0.000631705,-2.33228,0.953913,0.0618505,11.207,0.135769,
2,1,0,1,0,14944.4,0.137635,0.137335,4.66326,8,0.0100988,10,0.000640428,-2.33131,2.43547,0.0242253,4.39856,0.137335,
2,1,0,1,0,14944.4,0.13913,0.138782,4.65996,8,0.0102739,10,0.000646718,-2.33162,-1.37916,-0.0427796,-7.76358,0.138782,
2,1,0,1,0,14944.4,0.140626,0.140326,4.63793,8,0.0104486,10,0.000650824,-2.33368,-0.613231,-0.0962117,-17.4077,0.140326,
2,1,0,1,0,14944.5,0.14213,0.141851,4.61018,8,0.0106233,10,0.00065396,-2.33628,-0.411327,-0.143438,-25.7335,0.1418515,
2,1,0,1,0,14944.5,0.143626,0.143321,4.56515,8,0.0107957,10,0.000654279,-2.34055,-0.251751,-0.234359,-41.5387,0.143321,
2,1,0,1,0,14944.6,0.145122,0.144797,4.49327,8,0.0109657,10,0.00065061,-2.34744,-0.175092,-0.336966,-58.7054,0.144797,
2,1,0,1,0,14944.6,0.146622,0.146309,4.39034,8,0.0111329,10,0.000642348,-2.3575,-0.138404,-0.426289,-72.6734,0.146309,
2,1,0,1,0,14944.6,0.148122,0.147781,4.26769,8,0.011296,10,0.000630684,-2.36981,-0.114872,-0.513614,-85.2389,0.147781,
2,1,0,1,0,14944.7,0.149619,0.149279,4.13174,8,0.0114538,10,0.00061678,-2.38387,-0.0981976,-0.600829,-96.5722,0.149279,
2,1,0,1,0,14944.7,0.151115,0.150822,3.97797,8,0.0116062,10,0.000599964,-2.40034,-0.0858832,-0.686979,-106.396,0.150822,
2,1,0,1,0,14944.7,0.152615,0.152289,3.812,8,0.011753,10,0.000580525,-2.41885,-0.0793822,-0.74324,-110.544,0.152289,
2,1,0,1,0,14944.8,0.154115,0.153797,3.64579,8,0.0118935,10,0.000560713,-2.43821,-0.0776249,-0.760065,-108.191,0.153797,
2,1,0,1,0,14944.8,0.155611,0.155291,3.48629,8,0.0120274,10,0.000541389,-2.45764,-0.0733866,-0.803962,-109.23,0.155291,
2,1,0,1,0,14944.9,0.157106,0.156777,3.32695,8,0.0121554,10,0.00052159,-2.47795,-0.0730738,-0.807403,-104.678,0.1567771,
2,1,0,1,0,14944.9,0.15861,0.158296,3.17536,8,0.0122782,10,0.000502648,-2.49821,-0.0766004,-0.770231,-95.5249,0.158296,
2,1,0,1,0,14944.9,0.160106,0.159825,3.02953,8,0.0123947,10,0.000484195,-2.51862,-0.0806196,-0.731832,-86.9856,0.159825,
2,1,0,1,0,14945,0.161602,0.161287,2.90955,8,0.0125065,10,0.000469273,-2.53617,-0.0857325,-0.688187,-78.407,0.161287,
2,1,0,1,0,14945,0.163102,0.162803,2.79379,8,0.0126141,10,0.000454837,-2.55381,-0.0885431,-0.666342,-73.0264,0.162803,
2,1,0,1,0,14945,0.164602,0.164316,2.69309,8,0.0127178,10,0.000442519,-2.56975,-0.0978752,-0.602809,-63.6297,0.164316,
2,1,0,1,0,14945.1,0.166099,0.165771,2.60365,8,0.0128175,10,0.00043161,-2.58442,-0.106489,-0.554047,-56.5345,0.165771,
2,1,0,1,0,14945.1,0.167595,0.167276,2.53302,8,0.012914,10,0.000423713,-2.59636,-0.122397,-0.482039,-47.6222,0.1672758,
2,1,0,1,0,14945.2,0.169095,0.168751,2.46411,8,0.0130082,10,0.00041582,-2.60834,-0.129131,-0.456899,-43.8327,0.168751,
2,1,0,1,0,14945.2,0.170595,0.170276,2.39136,8,0.0130999,10,0.000407192,-2.62135,-0.127665,-0.462147,-43.2317,0.170276,
2,1,0,1,0,14945.2,0.172091,0.171798,2.32685,8,0.0131888,10,0.00039975,-2.63323,-0.147421,-0.400213,-36.5841,0.171798,
2,1,0,1,0,14945.3,0.173586,0.173225,2.28357,8,0.0132758,10,0.000395571,-2.64138,-0.169746,-0.347579,-31.0451,0.173225,
2,1,0,1,0,14945.3,0.17509,0.174728,2.23644,8,0.0133615,10,0.000390769,-2.65044,-0.179464,-0.328757,-28.7862,0.174728,
2,1,0,1,0,14945.3,0.176586,0.17627,2.19726,8,0.0134451,10,0.000387311,-2.65812,-0.173978,-0.339122,-29.092,0.17627,
2,1,0,1,0,14945.4,0.178083,0.177784,2.1582,8,0.0135272,10,0.000383693,-2.66591,-0.202222,-0.291759,-24.591,0.177784,
2,1,0,1,0,14945.4,0.179582,0.179222,2.1275,8,0.013608,10,0.000381295,-2.67213,-0.229746,-0.256805,-21.3194,0.179222,
2,1,0,1,0,14945.5,0.181082,0.180788,2.09549,8,0.0136878,10,0.000378841,-2.67871,-0.251154,-0.234916,-19.2016,0.180788,
2,1,0,1,0,14945.5,0.182579,0.182254,2.06643,8,0.0137663,10,0.000376614,-2.68478,-0.259703,-0.227183,-18.346,0.182254,
2,1,0,1,0,14945.5,0.184075,0.183768,2.04139,8,0.0138438,10,0.000375143,-2.69007,-0.295056,-0.199962,-15.9519,0.183768,
2,1,0,1,0,14945.6,0.185579,0.185251,2.01905,8,0.0139207,10,0.000374032,-2.69485,-0.302839,-0.194823,-15.3861,0.185251,
2,1,0,1,0,14945.6,0.187074,0.186784,1.99384,8,0.0139964,10,0.000372416,-2.70031,-0.374526,-0.157533,-12.3098,0.186784,
2,1,0,1,0,14945.6,0.18857,0.188251,1.97838,8,0.0140715,10,0.000372434,-2.70369,-0.396092,-0.148955,-11.5266,0.188251,
2,1,0,1,0,14945.7,0.19007,0.189775,1.96052,8,0.0141461,10,0.000372059,-2.70763,-0.40906,-0.144233,-11.0365,0.189775,
2,1,0,1,0,14945.7,0.19157,0.191251,1.94482,8,0.01422,10,0.00037195,-2.71112,-0.436789,-0.135077,-10.2483,0.191251,
2,1,0,1,0,14945.8,0.193066,0.19273,1.93452,8,0.0142931,10,0.00037284,-2.71343,-0.608368,-0.0969808,-7.3018,0.19273,
2,1,0,1,0,14945.8,0.194563,0.194234,1.92308,8,0.0143658,10,0.000373528,-2.716,-0.580911,-0.101565,-7.60433,0.194234,
2,1,0,1,0,14945.8,0.196063,0.195776,1.90674,8,0.0144382,10,0.000373294,-2.71971,-0.485977,-0.121405,-9.047,0.195776,
2,1,0,1,0,14945.9,0.197563,0.197236,1.8863,8,0.0145101,10,0.000372047,-2.72439,-0.644201,-0.0915863,-6.78604,0.197236,
2,1,0,1,0,14945.9,0.199059,0.198746,1.88369,8,0.0145813,10,0.000374376,-2.72499,-0.617405,-0.0955612,-7.04684,0.198746,
2,1,0,1,0,14945.9,0.200555,0.200208,1.87841,8,0.0146523,10,0.000376072,-2.72621,-0.651068,-0.0906203,-6.6297,0.200208,
2,1,0,1,0,14946,0.202059,0.201737,1.87091,8,0.0147233,10,0.000377433,-2.72795,-0.625934,-0.0942591,-6.84586,0.201737,
2,1,0,1,0,14946,0.203554,0.203267,1.85302,8,0.0147935,10,0.000376658,-2.73212,-0.697121,-0.0846338,-6.12567,0.203267,
2,1,0,1,0,14946.1,0.20505,0.204701,1.84445,8,0.0148633,10,0.00037756,-2.73413,-1.24609,-0.0473482,-3.42674,0.204701,
2,1,0,1,0,14946.1,0.20655,0.206238,1.84086,8,0.0149331,10,0.000379656,-2.73498,-1.14078,-0.0517192,-3.71839,0.206238,
2,1,0,1,0,14946.1,0.20805,0.207757,1.83337,8,0.0150029,10,0.000380896,-2.73675,-0.795191,-0.074196,-5.30614,0.2077571,
2,1,0,1,0,14946.2,0.209546,0.209271,1.82646,8,0.0150721,10,0.000382226,-2.73839,-0.676887,-0.0871637,-6.22987,0.209271,
2,1,0,1,0,14946.2,0.211043,0.210749,1.8186,8,0.0151408,10,0.000383269,-2.74026,-0.797062,-0.0740218,-5.26604,0.210749,
2,1,0,1,0,14946.2,0.212543,0.212235,1.81509,8,0.0152096,10,0.000385225,-2.7411,-1.29793,-0.0454571,-3.21588,0.212235,
2,1,0,1,0,14946.3,0.214043,0.213712,1.81277,8,0.0152782,10,0.000387411,-2.74166,-0.917076,-0.0643349,-4.53455,0.213712,
2,1,0,1,0,14946.3,0.215539,0.215247,1.80788,8,0.0153464,10,0.00038914,-2.74283,-0.82102,-0.0718618,-5.04026,0.215247,
2,1,0,1,0,14946.4,0.217035,0.216741,1.79517,8,0.0154143,10,0.000389086,-2.7459,-1.68088,-0.0351006,-2.4609,0.216741,
2,1,0,1,0,14946.4,0.218538,0.218222,1.79176,8,0.0154824,10,0.000391001,-2.74672,-3.70131,-0.0159403,-1.11556,0.218222,
2,1,0,1,0,14946.4,0.220034,0.219696,1.78735,8,0.01555,10,0.000392675,-2.74779,-1.40792,-0.0419058,-2.92836,0.219696,
2,1,0,1,0,14946.5,0.22153,0.221249,1.7819,8,0.0156175,10,0.000394242,-2.74912,-0.877302,-0.0672516,-4.68855,0.2212486,
2,1,0,1,0,14946.5,0.22303,0.222726,1.77139,8,0.0156849,10,0.000394534,-2.75169,-1.11293,-0.0530132,-3.67716,0.222726,
2,1,0,1,0,14946.5,0.22453,0.224204,1.77415,8,0.0157521,10,0.00039777,-2.75101,-1.4161,-0.0416636,-2.88616,0.224204,
2,1,0,1,0,14946.6,0.226026,0.225736,1.77793,8,0.0158191,10,0.000401341,-2.75009,-1.29603,-0.0455236,-3.14006,0.225736,
2,1,0,1,0,14946.6,0.227523,0.227229,1.77174,8,0.0158859,10,0.000402592,-2.7516,-0.85705,-0.0688408,-4.73255,0.227229,
2,1,0,1,0,14946.7,0.229023,0.228737,1.76218,8,0.0159528,10,0.000403076,-2.75395,-1.13555,-0.051957,-3.57613,0.228737,
2,1,0,1,0,14946.7,0.230523,0.230242,1.7573,8,0.0160194,10,0.000404604,-2.75515,-2.19509,-0.0268781,-1.84719,0.230242,
2,1,0,1,0,14946.7,0.232019,0.231726,1.75305,8,0.0160857,10,0.000406227,-2.75621,-1.71966,-0.0343091,-2.35121,0.231726,
2,1,0,1,0,14946.8,0.233515,0.233252,1.75377,8,0.016152,10,0.000409072,-2.75603,-2.35505,-0.0250525,-1.71377,0.233252,
2,1,0,1,0,14946.8,0.235018,0.234754,1.7519,8,0.0162185,10,0.000411266,-2.75649,-1.2369,-0.0476999,-3.25653,0.234754,
2,1,0,1,0,14946.8,0.236514,0.236189,1.74282,8,0.0162844,10,0.000411636,-2.75875,-1.75451,-0.0336276,-2.28879,0.236189,
2,1,0,1,0,14946.9,0.23801,0.237714,1.74675,8,0.0163503,10,0.000415226,-2.75777,-3.94817,-0.0149436,-1.01192,0.237714,
2,1,0,1,0,14946.9,0.23951,0.239178,1.74125,8,0.0164162,10,0.000416469,-2.75914,-2.90277,-0.0203254,-1.37748,0.239178,
2,1,0,1,0,14947,0.24101,0.240697,1.73659,8,0.016482,10,0.000417991,-2.7603,-1.79806,-0.0328132,-2.22256,0.240697,
2,1,0,1,0,14947,0.242506,0.242201,1.72244,8,0.0165475,10,0.000417177,-2.76386,-1.70136,-0.0346781,-2.34643,0.242201,
2,1,0,1,0,14947,0.244003,0.243703,1.72374,8,0.0166128,10,0.000420081,-2.76353,-2.62657,-0.0224627,-1.51939,0.243703,
2,1,0,1,0,14947.1,0.245503,0.245207,1.7273,8,0.0166783,10,0.000423547,-2.76263,-2.65093,-0.0222563,-1.49981,0.245207,
2,1,0,1,0,14947.1,0.247003,0.246685,1.72345,8,0.0167437,10,0.000425148,-2.7636,-1.27531,-0.0462631,-3.11068,0.246685,
2,1,0,1,0,14947.1,0.248499,0.248231,1.7184,8,0.0168087,10,0.000426562,-2.76487,-1.26259,-0.0467294,-3.1345,0.248231,
2,1,0,1,0,14947.2,0.249995,0.249671,1.72238,8,0.0168736,10,0.000430029,-2.76387,-1.8427,-0.0320182,-2.14153,0.249671,
2,1,0,1,0,14947.2,0.251498,0.251218,1.71723,8,0.0169387,10,0.000431398,-2.76517,-4.4029,-0.0134002,-0.894812,0.2512176,
2,1,0,1,0,14947.3,0.252994,0.252703,1.7117,8,0.0170035,10,0.000432553,-2.76657,-1.65479,-0.035654,-2.37548,0.252703,
2,1,0,1,0,14947.3,0.25449,0.254157,1.70643,8,0.0170681,10,0.000433702,-2.76791,-1.77497,-0.03324,-2.21789,0.254157,
2,1,0,1,0,14947.3,0.25599,0.255692,1.69956,8,0.0171326,10,0.000434565,-2.76966,-1.50894,-0.0391004,-2.61147,0.255692,
2,1,0,1,0,14947.4,0.25749,0.257232,1.69935,8,0.0171972,10,0.000437128,-2.76972,-1.81775,-0.0324577,-2.15627,0.257232,
2,1,0,1,0,14947.4,0.258987,0.2587,1.70219,8,0.0172615,10,0.000440356,-2.76899,-1.77184,-0.0332988,-2.20981,0.2587,
2,1,0,1,0,14947.4,0.260483,0.260171,1.70102,8,0.0173257,10,0.000442557,-2.76929,-1.074,-0.0549348,-3.63299,0.260171,
2,1,0,1,0,14947.5,0.261983,0.261738,1.69714,8,0.0173899,10,0.000444207,-2.77028,-2.79628,-0.0210995,-1.39062,0.261738,
2,1,0,1,0,14947.5,0.263483,0.263199,1.69328,8,0.017454,10,0.000445669,-2.77127,10.9017,0.00541202,0.356511,0.263199,
2,1,0,1,0,14947.6,0.264978,0.264687,1.68807,8,0.0175178,10,0.00044681,-2.77261,-1.95821,-0.0301296,-1.98691,0.264687,
2,1,0,1,0,14947.6,0.266474,0.266213,1.68367,8,0.0175815,10,0.000448215,-2.77374,-1.40176,-0.04209,-2.76915,0.266213,
2,1,0,1,0,14947.6,0.267977,0.267663,1.67461,8,0.0176455,10,0.000448231,-2.77609,-2.01924,-0.0292189,-1.91915,0.267663,
2,1,0,1,0,14947.7,0.269474,0.269181,1.67698,8,0.0177089,10,0.000451411,-2.77547,-2.15526,-0.0273748,-1.79328,0.269181,
2,1,0,1,0,14947.7,0.27097,0.270637,1.68208,8,0.0177723,10,0.000455234,-2.77415,-1.71016,-0.0344996,-2.25076,0.270637,
2,1,0,1,0,14947.7,0.27247,0.272205,1.677,8,0.0178358,10,0.000456488,-2.77547,-1.14341,-0.0516,-3.35687,0.272205,
2,1,0,1,0,14947.8,0.27397,0.273703,1.67002,8,0.0178992,10,0.000457091,-2.77728,-2.37579,-0.0248339,-1.6142,0.2737031,
2,1,0,1,0,14947.8,0.275467,0.275198,1.665,8,0.0179621,10,0.000458203,-2.77859,-2.05949,-0.0286479,-1.86483,0.275198,
2,1,0,1,0,14947.9,0.276963,0.276645,1.66438,8,0.018025,10,0.000460442,-2.77875,-1.50971,-0.0390803,-2.5373,0.276645,
2,1,0,1,0,14947.9,0.278463,0.278171,1.66157,8,0.0180881,10,0.000462201,-2.77948,-0.990876,-0.0595433,-3.86067,0.278171,
2,1,0,1,0,14947.9,0.279963,0.279696,1.65516,8,0.0181509,10,0.00046294,-2.78116,-1.40488,-0.0419965,-2.72452,0.279696,
2,1,0,1,0,14948,0.281459,0.28113,1.65324,8,0.0182134,10,0.000464776,-2.78166,-1.79129,-0.0329371,-2.12897,0.28113,
2,1,0,1,0,14948,0.282954,0.282648,1.65094,8,0.0182759,10,0.000466635,-2.78227,-3.28587,-0.0179557,-1.15499,0.282648,
2,1,0,1,0,14948,0.284458,0.284164,1.65312,8,0.0183386,10,0.000469758,-2.78169,-1.84458,-0.0319855,-2.05243,0.2841638,
2,1,0,1,0,14948.1,0.285954,0.285623,1.64665,8,0.0184008,10,0.000470322,-2.7834,-1.90838,-0.0309163,-1.98071,0.285623,
2,1,0,1,0,14948.1,0.28745,0.287136,1.63867,8,0.0184628,10,0.000470522,-2.78551,-1.13148,-0.0521441,-3.34067,0.287136,
2,1,0,1,0,14948.2,0.28895,0.288622,1.6352,8,0.0185249,10,0.000471954,-2.78643,-2.22399,-0.0265289,-1.69455,0.288622,
2,1,0,1,0,14948.2,0.29045,0.290164,1.63394,8,0.0185869,10,0.000474112,-2.78676,-1.89213,-0.0311818,-1.99429,0.290164,
2,1,0,1,0,14948.2,0.291947,0.291624,1.62932,8,0.0186486,10,0.000475149,-2.78799,-1.55557,-0.0379281,-2.41714,0.291624,
2,1,0,1,0,14948.3,0.293443,0.293136,1.62238,8,0.0187102,10,0.000475578,-2.78985,-1.26414,-0.0466721,-2.96585,0.293136,
2,1,0,1,0,14948.3,0.294943,0.294617,1.62484,8,0.0187718,10,0.000478706,-2.78919,-5.67783,-0.0103913,-0.658849,0.294617,
2,1,0,1,0,14948.3,0.296443,0.296188,1.62906,8,0.0188333,10,0.000482508,-2.78806,-2.41655,-0.024415,-1.54074,0.296188,
2,1,0,1,0,14948.4,0.297939,0.297673,1.62162,8,0.0188945,10,0.000482713,-2.79005,-1.47151,-0.0400949,-2.5225,0.297673,
2,1,0,1,0,14948.4,0.299434,0.299163,1.61351,8,0.0189557,10,0.000482703,-2.79223,-0.0119131,-4.95253,-252.95,0.299163,
2,1,0,0,0,14948.4,0.299962,0.299842,1.52153,8,0.0189796,10,0.000456219,-2.81772,0.000478273,123.361,1894.44,0.299842,
2,1,0,1,0,14948.5,0.298689,0.298421,0.218977,8,0.0190008,10,6.53473e-05,-3.6596,0.00407891,14.4646,556.082,0.298421,
2,0,0,1,0,14948.5,0.297189,0.296828,-0.176489,8,0.0189994,10,-5.2387e-05,-3.75328,0.0265999,2.21805,216.097,0.296828,
2,0,0,1,0,14948.5,0.295692,0.295414,-0.325498,8,0.0189887,10,-9.61567e-05,-3.48745,-0.00616349,-9.5725,83.7615,0.295414,
2,0,0,1,0,14948.6,0.294196,0.293888,-0.410823,8,0.0189741,10,-0.000120736,-3.38635,-0.018366,-3.21246,47.7348,0.293888,
2,0,0,1,0,14948.6,0.292696,0.292377,-0.468788,8,0.0189569,10,-0.000137063,-3.32902,-0.0314005,-1.87895,33.1411,0.292377,
2,0,0,1,0,14948.7,0.291196,0.290906,-0.514732,8,0.0189379,10,-0.000149739,-3.28842,-0.0403047,-1.46385,28.6059,0.290906,
2,0,0,1,0,14948.7,0.2897,0.289423,-0.55426,8,0.0189173,10,-0.000160415,-3.25629,-0.050321,-1.17247,24.8127,0.289423,
2,0,0,1,0,14948.7,0.288205,0.287884,-0.584684,8,0.0188953,10,-0.000168321,-3.23308,-0.0571509,-1.03235,23.3061,0.287884,
2,0,0,1,0,14948.8,0.286701,0.286382,-0.608889,8,0.018872,10,-0.000174375,-3.21546,-0.0690189,-0.854838,20.4567,0.286382,
2,0,0,1,0,14948.8,0.285205,0.284892,-0.637558,8,0.0188479,10,-0.000181635,-3.19548,-0.0850367,-0.693818,17.4173,0.2848922,
2,0,0,1,0,14948.8,0.283708,0.283407,-0.66682,8,0.0188226,10,-0.000188982,-3.17599,-0.0937295,-0.629471,16.3947,0.2834073,
2,0,0,1,0,14948.9,0.282208,0.281885,-0.695378,8,0.0187963,10,-0.000196017,-3.15778,-0.106215,-0.555478,14.8784,0.281885,
2,0,0,1,0,14948.9,0.280709,0.280394,-0.716735,8,0.0187692,10,-0.000200968,-3.14464,-0.123741,-0.476804,13.1599,0.280394,
2,0,0,1,0,14948.9,0.279212,0.278869,-0.738261,8,0.0187415,10,-0.000205878,-3.13179,-0.121472,-0.485709,13.8706,0.278869,
2,0,0,1,0,14949,0.277716,0.277418,-0.756672,8,0.018713,10,-0.000209914,-3.12109,-0.137016,-0.430608,12.6201,0.277418,
2,0,0,1,0,14949,0.276216,0.275876,-0.774077,8,0.0186836,10,-0.000213549,-3.11122,-0.140889,-0.41877,12.6244,0.275876,
2,0,0,1,0,14949.1,0.274716,0.274389,-0.787153,8,0.0186536,10,-0.000215986,-3.10394,-0.154699,-0.381386,11.7865,0.274389,
2,0,0,1,0,14949.1,0.27322,0.272882,-0.803002,8,0.018623,10,-0.000219125,-3.09528,-0.174206,-0.33868,10.684,0.272882,
2,0,0,1,0,14949.1,0.271725,0.271359,-0.819743,8,0.0185918,10,-0.000222445,-3.08632,-0.149634,-0.394295,12.6571,0.271359,
2,0,0,1,0,14949.2,0.270221,0.269889,-0.839638,8,0.0185598,10,-0.000226609,-3.07591,-0.167071,-0.353143,11.5558,0.269889,
2,0,0,1,0,14949.2,0.268725,0.26843,-0.859021,8,0.0185273,10,-0.000230587,-3.066,-0.240159,-0.245671,8.16809,0.2684297,
2,0,0,1,0,14949.2,0.267228,0.266923,-0.866345,8,0.0184943,10,-0.000231248,-3.06231,-0.197847,-0.298211,10.1042,0.266923,
2,0,0,1,0,14949.3,0.265728,0.265422,-0.887039,8,0.0184608,10,-0.000235439,-3.05206,-0.222575,-0.265079,9.11768,0.265422,
2,0,0,1,0,14949.3,0.264228,0.26386,-0.895267,8,0.0184267,10,-0.000236225,-3.04805,-0.24665,-0.239206,8.37488,0.26386,
2,0,0,1,0,14949.4,0.262732,0.262362,-0.90715,8,0.0183922,10,-0.000238001,-3.04232,-0.286226,-0.206131,7.31218,0.262362,
2,0,0,1,0,14949.4,0.261236,0.260915,-0.918138,8,0.0183572,10,-0.000239556,-3.03709,-0.293025,-0.201348,7.28409,0.260915,
2,0,0,1,0,14949.4,0.259736,0.259422,-0.937778,8,0.0183217,10,-0.00024328,-3.0279,-0.245985,-0.239852,8.7914,0.259422,
2,0,0,1,0,14949.5,0.258236,0.257971,-0.952636,8,0.0182857,10,-0.000245753,-3.02107,-0.241367,-0.244441,9.01655,0.257971,
2,0,0,1,0,14949.5,0.256741,0.256411,-0.96469,8,0.0182492,10,-0.000247357,-3.01561,-0.274083,-0.215263,8.03533,0.256411,
2,0,0,1,0,14949.5,0.255241,0.254915,-0.976303,8,0.0182122,10,-0.000248874,-3.01042,-0.26643,-0.221446,8.41407,0.254915,
2,0,0,1,0,14949.6,0.253741,0.253448,-0.978365,8,0.0181749,10,-0.000247965,-3.0095,-0.353197,-0.167046,6.41129,0.253448,
2,0,0,1,0,14949.6,0.252245,0.251874,-0.991547,8,0.0181372,10,-0.000249745,-3.00369,-0.260439,-0.226541,8.79329,0.251874,
2,0,0,1,0,14949.7,0.250748,0.250454,-1.0035,8,0.0180991,10,-0.000251332,-2.99848,-0.304674,-0.193649,7.61623,0.250454,
2,0,0,1,0,14949.7,0.249248,0.248894,-1.01881,8,0.0180604,10,-0.000253575,-2.99191,-0.341287,-0.172875,6.85864,0.248894,
2,0,0,1,0,14949.7,0.247748,0.247424,-1.02292,8,0.0180214,10,-0.000253095,-2.99016,-0.363649,-0.162244,6.49565,0.247424,
2,0,0,1,0,14949.8,0.246252,0.245944,-1.03852,8,0.0179821,10,-0.000255419,-2.98358,-0.297332,-0.198431,8.00617,0.245944,
2,0,0,1,0,14949.8,0.244756,0.244432,-1.05184,8,0.0179424,10,-0.000257103,-2.97805,-0.29363,-0.200933,8.19631,0.244432,
2,0,0,1,0,14949.8,0.243252,0.242904,-1.06138,8,0.0179019,10,-0.000257813,-2.97413,-0.372493,-0.158392,6.53794,0.242904,
2,0,0,1,0,14949.9,0.241756,0.241449,-1.06227,8,0.0178614,10,-0.000256483,-2.97377,-0.382723,-0.154159,6.4426,0.2414493,
2,0,0,1,0,14949.9,0.240261,0.239931,-1.07344,8,0.0178206,10,-0.000257552,-2.96922,-0.293563,-0.200979,8.47791,0.239931,
2,0,0,1,0,14950,0.238761,0.238445,-1.08754,8,0.0177792,10,-0.000259318,-2.96355,-0.395788,-0.14907,6.35357,0.238445,
2,0,0,1,0,14950,0.237261,0.236946,-1.10258,8,0.0177374,10,-0.000261251,-2.95759,-0.560869,-0.105194,4.51166,0.236946,
2,0,0,1,0,14950,0.235765,0.235434,-1.10876,8,0.0176954,10,-0.000261041,-2.95516,-0.487785,-0.120955,5.22805,0.235434,
2,0,0,1,0,14950.1,0.234268,0.233955,-1.11759,8,0.0176532,10,-0.000261466,-2.95172,-0.433196,-0.136197,5.94561,0.233955,
2,0,0,1,0,14950.1,0.232768,0.23247,-1.13213,8,0.0176104,10,-0.000263187,-2.9461,-0.349053,-0.169029,7.41376,0.23247,
2,0,0,1,0,14950.1,0.231268,0.230949,-1.13463,8,0.0175671,10,-0.000262042,-2.94514,-0.417779,-0.141223,6.26582,0.230949,
2,0,0,1,0,14950.2,0.229772,0.229471,-1.14943,8,0.0175237,10,-0.000263762,-2.93952,-0.611353,-0.0965073,4.31942,0.229471,
2,0,0,1,0,14950.2,0.228275,0.227966,-1.15382,8,0.01748,10,-0.000263032,-2.93786,-0.514898,-0.114586,5.18438,0.227966,
2,0,0,1,0,14950.3,0.226772,0.226443,-1.16429,8,0.0174357,10,-0.000263645,-2.93394,-0.370034,-0.159445,7.256,0.226443,
2,0,0,1,0,14950.3,0.225276,0.224971,-1.17416,8,0.0173912,10,-0.000264152,-2.93027,-0.377663,-0.156224,7.16737,0.224971,
2,0,0,1,0,14950.3,0.223781,0.2235,-1.18523,8,0.0173464,10,-0.0002649,-2.9262,-0.550285,-0.107217,4.94335,0.2235,
2,0,0,1,0,14950.4,0.222281,0.221957,-1.19255,8,0.0173011,10,-0.000264696,-2.92352,-0.406034,-0.145308,6.74888,0.221957,
2,0,0,1,0,14950.4,0.220781,0.220459,-1.20399,8,0.0172555,10,-0.000265431,-2.91938,-0.316261,-0.186555,8.71057,0.2204594,
2,0,0,1,0,14950.4,0.219284,0.218994,-1.21442,8,0.0172096,10,-0.00026595,-2.91563,-0.47445,-0.124355,5.87966,0.218994,
2,0,0,1,0,14950.5,0.217788,0.217466,-1.22096,8,0.0171633,10,-0.000265516,-2.9133,-0.524788,-0.112426,5.35463,0.217466,
2,0,0,1,0,14950.5,0.216288,0.215983,-1.22265,8,0.0171166,10,-0.000264072,-2.9127,-0.427672,-0.137956,6.64344,0.215983,
2,0,0,1,0,14950.6,0.214788,0.214457,-1.23528,8,0.0170697,10,-0.000264914,-2.90823,-0.475891,-0.123978,6.00816,0.214457,
2,0,0,1,0,14950.6,0.213292,0.212923,-1.25268,8,0.0170225,10,-0.000266725,-2.90216,-0.472256,-0.124932,6.08812,0.212923,
2,0,0,1,0,14950.6,0.211796,0.211444,-1.26285,8,0.0169748,10,-0.000267023,-2.89865,-0.470533,-0.12539,6.13059,0.211444,
2,0,0,1,0,14950.7,0.210293,0.210016,-1.27059,8,0.0169266,10,-0.000266844,-2.89599,-0.451197,-0.130763,6.47651,0.210016,
2,0,0,1,0,14950.7,0.208797,0.208494,-1.27803,8,0.0168784,10,-0.000266462,-2.89346,-0.330609,-0.178458,8.92514,0.208494,
2,0,0,1,0,14950.7,0.207301,0.207005,-1.28755,8,0.0168297,10,-0.000266528,-2.89024,-0.394052,-0.149726,7.52953,0.2070047,
2,0,0,1,0,14950.8,0.205801,0.205473,-1.29828,8,0.0167803,10,-0.000266761,-2.88663,-0.535986,-0.110077,5.5783,0.205473,
2,0,0,1,0,14950.8,0.204301,0.203973,-1.30511,8,0.0167307,10,-0.000266206,-2.88435,-0.694547,-0.0849475,4.34704,0.203973,
2,0,0,1,0,14950.9,0.202804,0.202491,-1.31596,8,0.016681,10,-0.000266469,-2.88076,-0.473048,-0.124723,6.41752,0.202491,
2,0,0,1,0,14950.9,0.201308,0.200974,-1.33082,8,0.0166308,10,-0.000267461,-2.87588,-0.375598,-0.157083,8.12367,0.200974,
2,0,0,1,0,14950.9,0.199808,0.199491,-1.33944,8,0.0165801,10,-0.000267208,-2.87308,-0.459337,-0.128446,6.70069,0.199491,
2,0,0,1,0,14951,0.198308,0.198009,-1.35199,8,0.016529,10,-0.000267706,-2.86903,-0.451144,-0.130779,6.85736,0.198009,
2,0,0,1,0,14951,0.196812,0.196479,-1.35732,8,0.0164777,10,-0.000266685,-2.86732,-0.479712,-0.12299,6.53335,0.196479,
2,0,0,1,0,14951,0.195316,0.194962,-1.36749,8,0.016426,10,-0.000266609,-2.86408,-0.355452,-0.165986,8.88018,0.194962,
2,0,0,1,0,14951.1,0.193813,0.193457,-1.38129,8,0.0163735,10,-0.000267219,-2.85972,-0.390983,-0.150902,8.14217,0.193457,
2,0,0,1,0,14951.1,0.192317,0.192037,-1.39072,8,0.0163208,10,-0.000267069,-2.85676,-0.412569,-0.143006,7.78608,0.192037,
2,0,0,1,0,14951.2,0.190821,0.190497,-1.40193,8,0.0162679,10,-0.000267063,-2.85327,-0.444017,-0.132878,7.29885,0.190497,
2,0,0,1,0,14951.2,0.189321,0.188999,-1.41656,8,0.0162143,10,-0.000267729,-2.84876,-0.376436,-0.156733,8.66409,0.188999,
2,0,0,1,0,14951.2,0.187821,0.187516,-1.42981,8,0.0161603,10,-0.000268112,-2.84472,-0.450351,-0.131009,7.30252,0.187516,
2,0,0,1,0,14951.3,0.186324,0.186008,-1.44343,8,0.0161058,10,-0.000268491,-2.8406,-0.434309,-0.135848,7.62298,0.186008,
2,0,0,1,0,14951.3,0.184828,0.184494,-1.45365,8,0.016051,10,-0.00026819,-2.83754,-0.399365,-0.147735,8.40545,0.184494,
2,0,0,1,0,14951.3,0.183328,0.182993,-1.46866,8,0.0159955,10,-0.000268755,-2.83308,-0.38028,-0.155149,8.89614,0.182993,
2,0,0,1,0,14951.4,0.181828,0.181537,-1.47973,8,0.0159394,10,-0.000268626,-2.82982,-0.33813,-0.174489,10.1288,0.181537,
2,0,0,1,0,14951.4,0.180332,0.180016,-1.50198,8,0.0158829,10,-0.00027038,-2.82334,-0.344156,-0.171434,10.0419,0.180016,
2,0,0,1,0,14951.5,0.178836,0.178493,-1.5144,8,0.0158258,10,-0.000270311,-2.81976,-0.332436,-0.177478,10.5038,0.178493,
2,0,0,1,0,14951.5,0.177333,0.17705,-1.53164,8,0.0157678,10,-0.000271176,-2.81484,-0.292715,-0.201561,12.055,0.17705,
2,0,0,1,0,14951.5,0.175837,0.175519,-1.55011,8,0.0157096,10,-0.000272074,-2.80964,-0.249608,-0.236371,14.2568,0.1755195,
2,0,0,1,0,14951.6,0.174341,0.174032,-1.57117,8,0.0156505,10,-0.000273434,-2.80378,-0.243469,-0.242331,14.8254,0.174032,
2,0,0,1,0,14951.6,0.172841,0.172503,-1.58858,8,0.0155906,10,-0.000274034,-2.79899,-0.257165,-0.229425,14.2196,0.172503,
2,0,0,1,0,14951.6,0.171341,0.171008,-1.60106,8,0.0155299,10,-0.000273793,-2.79559,-0.254221,-0.232081,14.6158,0.171008,
2,0,0,1,0,14951.7,0.169844,0.169536,-1.63011,8,0.0154687,10,-0.000276363,-2.78778,-0.245161,-0.240658,15.4005,0.169536,
2,0,0,1,0,14951.7,0.168348,0.168019,-1.65877,8,0.0154065,10,-0.000278705,-2.78021,-0.217888,-0.270782,17.5298,0.168019,
2,0,0,1,0,14951.8,0.166848,0.166511,-1.68522,8,0.015343,10,-0.000280607,-2.77334,-0.220863,-0.267134,17.5445,0.1665107,
2,0,0,1,0,14951.8,0.165348,0.16503,-1.71324,8,0.0152786,10,-0.000282736,-2.76618,-0.214029,-0.275664,18.4247,0.16503,
2,0,0,1,0,14951.8,0.163852,0.163512,-1.74728,8,0.0152135,10,-0.000285702,-2.75764,-0.187448,-0.314754,21.3845,0.1635122,
2,0,0,1,0,14951.9,0.162357,0.162064,-1.77399,8,0.015147,10,-0.0002875,-2.75105,-0.172301,-0.342423,23.7333,0.162064,
2,0,0,1,0,14951.9,0.160853,0.160504,-1.80878,8,0.0150789,10,-0.000290316,-2.74261,-0.174544,-0.338024,23.8925,0.160504,
2,0,0,1,0,14951.9,0.159357,0.159024,-1.84704,8,0.0150097,10,-0.000293724,-2.73352,-0.151734,-0.388838,28.1224,0.159024,
2,0,0,1,0,14952,0.157861,0.157506,-1.88478,8,0.0149392,10,-0.000296864,-2.72474,-0.151026,-0.390662,28.9535,0.157506,
2,0,0,1,0,14952,0.156361,0.15601,-1.9379,8,0.0148667,10,-0.000302332,-2.71267,-0.127032,-0.464451,35.1707,0.15601,
2,0,0,1,0,14952.1,0.154861,0.154515,-1.99263,8,0.0147923,10,-0.00030789,-2.70057,-0.123883,-0.476257,37.0529,0.154515,
2,0,0,1,0,14952.1,0.153364,0.153018,-2.05026,8,0.014716,10,-0.000313728,-2.68819,-0.122513,-0.481581,38.5727,0.153018,
2,0,0,1,0,14952.1,0.151868,0.151552,-2.10599,8,0.0146376,10,-0.000319168,-2.67654,-0.110207,-0.535356,44.1862,0.151552,
2,0,0,1,0,14952.2,0.150368,0.150022,-2.18301,8,0.0145565,10,-0.000327501,-2.66094,-0.0981482,-0.601132,51.2098,0.150022,
2,0,0,1,0,14952.2,0.148868,0.148559,-2.259,8,0.0144726,10,-0.000335596,-2.64608,-0.092784,-0.635885,56.1619,0.148559,
2,0,0,1,0,14952.2,0.147372,0.147053,-2.34533,8,0.0143858,10,-0.000344889,-2.6298,-0.0905094,-0.651866,59.8081,0.147053,
2,0,0,1,0,14952.3,0.145877,0.145553,-2.42768,8,0.0142957,10,-0.000353356,-2.61481,-0.0842872,-0.699988,66.8486,0.145553,
2,0,0,1,0,14952.3,0.144373,0.144069,-2.53832,8,0.0142014,10,-0.000365693,-2.59545,-0.0792477,-0.744501,74.1001,0.144069,
2,0,0,1,0,14952.4,0.142877,0.14257,-2.66241,8,0.0141035,10,-0.00037958,-2.57473,-0.077438,-0.7619,79.0099,0.14257,
2,0,0,1,0,14952.4,0.14138,0.141062,-2.78506,8,0.0140011,10,-0.000392866,-2.55517,-0.0785455,-0.751157,81.2771,0.1410621,
2,0,0,1,0,14952.4,0.13988,0.139504,-2.90592,8,0.0138938,10,-0.000405388,-2.53672,-0.0784805,-0.751779,85.2366,0.139504,
2,0,0,1,0,14952.5,0.13838,0.138014,-3.03489,8,0.0137818,10,-0.000418858,-2.51786,-0.0767315,-0.768915,91.2147,0.138014,
2,0,0,1,0,14952.5,0.136884,0.136578,-3.17361,8,0.0136648,10,-0.000433446,-2.49845,-0.0768452,-0.767778,95.1754,0.136578,
2,0,0,1,0,14952.5,0.135388,0.135049,-3.31827,8,0.0135426,10,-0.00044813,-2.47909,-0.0836418,-0.705389,91.298,0.135049,
2,0,0,1,0,14952.6,0.133888,0.133551,-3.45608,8,0.0134148,10,-0.000461564,-2.46142,-0.0866395,-0.680983,91.7521,0.133551,
2,0,0,1,0,14952.6,0.132389,0.13206,-3.59048,8,0.0132819,10,-0.000474161,-2.44485,-0.0898449,-0.656687,92.0447,0.13206,
2,0,0,1,0,14952.7,0.130893,0.130579,-3.7314,8,0.0131442,10,-0.000487242,-2.42813,-0.0950046,-0.621023,90.1555,0.130579,
2,0,0,1,0,14952.7,0.129393,0.129068,-3.86503,8,0.013001,10,-0.000498852,-2.41285,-0.103299,-0.571155,85.7951,0.129068,
2,0,0,1,0,14952.7,0.127893,0.127597,-3.98744,8,0.0128531,10,-0.000508786,-2.39931,-0.117759,-0.501024,77.7071,0.127597,
2,0,0,1,0,14952.8,0.126397,0.126062,-4.09348,8,0.0127012,10,-0.000516032,-2.38791,-0.12405,-0.475614,75.8435,0.126062,
2,0,0,1,0,14952.8,0.1249,0.124557,-4.20175,8,0.0125452,10,-0.000523357,-2.37657,-0.138308,-0.426583,69.888,0.124557,
2,0,0,1,0,14952.8,0.1234,0.123103,-4.30324,8,0.0123848,10,-0.000529742,-2.3662,-0.158538,-0.372151,62.3826,0.123103,
2,0,0,1,0,14952.9,0.1219,0.121604,-4.3897,8,0.0122209,10,-0.000533804,-2.35756,-0.187299,-0.315004,53.8568,0.121604,
2,0,0,1,0,14952.9,0.120404,0.120072,-4.45942,8,0.0120545,10,-0.000535452,-2.35072,-0.224709,-0.262562,45.6386,0.120072,
2,0,0,1,0,14953,0.118908,0.118622,-4.53699,8,0.0118855,10,-0.000538187,-2.34323,-0.241416,-0.244392,43.1855,0.118622,
2,0,0,1,0,14953,0.117404,0.117085,-4.59824,8,0.0117132,10,-0.000538385,-2.33741,-0.2916,-0.202332,36.1722,0.117085,
2,0,0,1,0,14953,0.115909,0.115551,-4.64707,8,0.0115396,10,-0.000536975,-2.33282,-0.38523,-0.153155,27.6573,0.1155514,
2,0,0,1,0,14953.1,0.114413,0.114055,-4.68158,8,0.0113644,10,-0.000533958,-2.32961,-0.511547,-0.115336,21.0479,0.114055,
2,0,0,1,0,14953.1,0.112913,0.112589,-4.69991,8,0.0111878,10,-0.000529158,-2.32791,-0.696372,-0.0847249,15.5614,0.112589,
2,0,0,1,0,14953.1,0.111413,0.111129,-4.72595,8,0.0110101,10,-0.000525191,-2.32551,-0.932944,-0.0632407,11.6565,0.111129,
2,0,0,1,0,14953.2,0.109917,0.109578,-4.73778,8,0.0108323,10,-0.000519154,-2.32443,-2.30068,-0.0256446,4.73676,0.109578,
2,0,0,1,0,14953.2,0.10842,0.108084,-4.74787,8,0.0106541,10,-0.000513168,-2.3235,4.24143,0.0139104,-2.56829,0.108084,
2,0,0,1,0,14953.3,0.10692,0.106614,-4.73914,8,0.0104757,10,-0.000505259,-2.3243,1.65711,0.0356041,-6.57109,0.106614,
2,0,0,1,0,14953.3,0.10542,0.105091,-4.72703,8,0.0102976,10,-0.000496767,-2.32541,1.10093,0.0535909,-9.85897,0.105091,
2,0,0,1,0,14953.3,0.103924,0.103604,-4.71039,8,0.0101204,10,-0.000488014,-2.32694,0.699391,0.0843592,-15.4679,0.103604,
2,0,0,1,0,14953.4,0.102427,0.102112,-4.67541,8,0.00994415,10,-0.000477414,-2.33018,0.483872,0.121933,-22.2409,0.1021117,
2,0,0,1,0,14953.4,0.100924,0.100623,-4.63813,8,0.00976819,10,-0.000466701,-2.33366,0.438892,0.134429,-24.3532,0.100623,
2,0,0,1,0,14953.4,0.0994284,0.099099,-4.60132,8,0.00959462,10,-0.000455986,-2.33712,0.395724,0.149094,-26.7842,0.09909898,
2,0,0,1,0,14953.5,0.0979329,0.0976306,-4.56145,8,0.00942249,10,-0.000445337,-2.3409,0.380462,0.155074,-27.5893,0.09763062,
2,0,0,1,0,14953.5,0.0964329,0.0961147,-4.51751,8,0.00925154,10,-0.000434199,-2.3451,0.307795,0.191686,-33.7078,0.0961147,
2,0,0,1,0,14953.6,0.094933,0.094614,-4.46437,8,0.00908244,10,-0.000422392,-2.35024,0.293398,0.201092,-34.9905,0.094614,
2,0,0,1,0,14953.6,0.0934366,0.0930989,-4.41502,8,0.0089159,10,-0.000411034,-2.35507,0.289958,0.203477,-35.0233,0.0930989,
2,0,0,1,0,14953.6,0.0919401,0.0916306,-4.36017,8,0.00875119,10,-0.000399525,-2.3605,0.312076,0.189057,-32.1752,0.0916306,
2,0,0,1,0,14953.7,0.0904402,0.090107,-4.31135,8,0.00858781,10,-0.000388483,-2.36539,0.295011,0.199993,-33.6496,0.090107,
2,0,0,1,0,14953.7,0.0889402,0.0885912,-4.26024,8,0.00842632,10,-0.00037742,-2.37057,0.28636,0.206034,-34.3209,0.08859124,
2,0,0,1,0,14953.7,0.0874438,0.0870856,-4.21044,8,0.00826725,10,-0.000366669,-2.37567,0.307883,0.191631,-31.5491,0.08708556,
2,0,0,1,0,14953.8,0.0859483,0.0856116,-4.17077,8,0.00810986,10,-0.000357067,-2.37978,0.360524,0.163651,-26.6052,0.0856116,
2,0,0,1,0,14953.8,0.0844447,0.0841122,-4.13099,8,0.00795318,10,-0.000347467,-2.38395,0.357787,0.164902,-26.5625,0.0841122,
2,0,0,1,0,14953.9,0.0829492,0.082612,-4.09305,8,0.00779882,10,-0.000338135,-2.38795,0.366435,0.161011,-25.676,0.082612,
2,0,0,1,0,14953.9,0.0814528,0.0811288,-4.04909,8,0.00764599,10,-0.000328498,-2.39264,0.414863,0.142215,-22.498,0.0811288,
2,0,0,1,0,14953.9,0.0799528,0.0796502,-4.01965,8,0.00749403,10,-0.000320166,-2.39581,0.484971,0.121657,-19.0811,0.0796502,
2,0,0,1,0,14954,0.0784529,0.0781016,-3.98824,8,0.00734312,10,-0.000311488,-2.39922,0.509175,0.115874,-18.0604,0.0781016,
2,0,0,1,0,14954,0.0769565,0.0765964,-3.95998,8,0.00719361,10,-0.000303321,-2.40231,0.466243,0.126543,-19.5842,0.0765964,
2,0,0,1,0,14954,0.0754601,0.0751275,-3.92833,8,0.00704519,10,-0.000295125,-2.40579,0.478243,0.123368,-18.9782,0.07512752,
2,0,0,1,0,14954.1,0.0739601,0.0736198,-3.91277,8,0.0068974,10,-0.000288057,-2.40752,0.575688,0.102486,-15.6534,0.0736198,
2,0,0,1,0,14954.1,0.0724601,0.072176,-3.89191,8,0.00675044,10,-0.000280903,-2.40984,0.598713,0.0985447,-14.95,0.072176,
2,0,0,1,0,14954.2,0.0709637,0.0706606,-3.87395,8,0.00660466,10,-0.000273735,-2.41185,0.540076,0.109244,-16.4637,0.0706606,
2,0,0,1,0,14954.2,0.0694682,0.0691503,-3.8486,8,0.00645969,10,-0.000266132,-2.4147,0.634156,0.0930371,-13.9596,0.0691503,
2,0,0,1,0,14954.2,0.0679646,0.0676129,-3.82084,8,0.00631492,10,-0.000258338,-2.41784,0.713614,0.0826778,-12.3634,0.0676129,
2,0,0,1,0,14954.3,0.0664691,0.0661802,-3.79871,8,0.00617158,10,-0.000251399,-2.42036,0.693222,0.0851098,-12.6478,0.0661802,
2,0,0,1,0,14954.3,0.0649727,0.0646396,-3.78635,8,0.00602884,10,-0.000244748,-2.42178,0.614538,0.096007,-14.188,0.0646396,
2,0,0,1,0,14954.3,0.0634727,0.0631539,-3.76166,8,0.00588655,10,-0.000237563,-2.42462,0.543628,0.10853,-15.9424,0.0631539,
2,0,0,1,0,14954.4,0.0619728,0.0616469,-3.73618,8,0.00574525,10,-0.000230324,-2.42757,0.568341,0.103811,-15.1537,0.0616469,
2,0,0,1,0,14954.4,0.0604764,0.0601406,-3.72198,8,0.00560504,10,-0.000223842,-2.42923,0.693658,0.0850564,-12.3281,0.0601406,
2,0,0,1,0,14954.5,0.05898,0.0586565,-3.70337,8,0.00546559,10,-0.000217227,-2.4314,0.570883,0.103349,-14.9012,0.0586565,
2,0,0,1,0,14954.5,0.05748,0.0571667,-3.68139,8,0.00532658,10,-0.000210453,-2.43399,0.564074,0.104596,-15.0084,0.0571667,
2,0,0,1,0,14954.5,0.05598,0.055637,-3.65162,8,0.00518849,10,-0.000203165,-2.43751,0.541993,0.108858,-15.5281,0.055637,
2,0,0,1,0,14954.6,0.0544836,0.0542104,-3.62647,8,0.00505155,10,-0.000196592,-2.44052,0.707606,0.0833797,-11.8221,0.0542104,
2,0,0,1,0,14954.6,0.0529881,0.0526723,-3.61026,8,0.00491535,10,-0.000190161,-2.44246,0.579584,0.101797,-14.3606,0.0526723,
2,0,0,1,0,14954.6,0.0514846,0.0511573,-3.58897,8,0.00477918,10,-0.000183602,-2.44503,0.507629,0.116227,-16.2712,0.0511573,
2,0,0,1,0,14954.7,0.049989,0.0496812,-3.56199,8,0.00464468,10,-0.000176964,-2.44831,0.48768,0.120981,-16.824,0.0496812,
2,0,0,1,0,14954.7,0.0484926,0.0481612,-3.54358,8,0.00451119,10,-0.000170663,-2.45056,0.466197,0.126556,-17.4712,0.0481612,
2,0,0,1,0,14954.8,0.0469927,0.0466057,-3.52232,8,0.00437814,10,-0.00016416,-2.45317,0.53031,0.111256,-15.2557,0.0466057,
2,0,0,1,0,14954.8,0.0454927,0.0451707,-3.49586,8,0.00424587,10,-0.00015791,-2.45645,0.451928,0.130552,-17.7825,0.0451707,
2,0,0,1,0,14954.8,0.0439963,0.0436933,-3.46773,8,0.00411489,10,-0.000151516,-2.45995,0.430059,0.13719,-18.5867,0.0436933,
2,0,0,1,0,14954.9,0.0424999,0.0421872,-3.44163,8,0.00398501,10,-0.000145193,-2.46324,0.507068,0.116355,-15.6624,0.0421872,
2,0,0,1,0,14954.9,0.0409999,0.0406953,-3.41484,8,0.00385562,10,-0.000138968,-2.46663,0.486415,0.121296,-16.2069,0.0406953,
2,0,0,1,0,14954.9,0.0394999,0.0391609,-3.39321,8,0.00372712,10,-0.000132881,-2.46939,0.431181,0.136834,-18.1211,0.0391609,
2,0,0,1,0,14955,0.0380044,0.0376647,-3.36873,8,0.00359991,10,-0.000126883,-2.47253,0.404748,0.14577,-19.1254,0.0376647,
2,0,0,1,0,14955,0.0365089,0.0361727,-3.33825,8,0.00347391,10,-0.000120753,-2.47648,0.418852,0.140861,-18.3348,0.0361727,
2,0,0,1,0,14955.1,0.0350054,0.0346789,-3.31025,8,0.00334824,10,-0.000114796,-2.48014,0.404151,0.145985,-18.8141,0.0346789,
2,0,0,1,0,14955.1,0.033509,0.0332152,-3.28618,8,0.00322421,10,-0.000109151,-2.48331,0.420046,0.140461,-17.9865,0.0332152,
2,0,0,1,0,14955.1,0.0320125,0.0317153,-3.24924,8,0.00310133,10,-0.000103051,-2.48822,0.360241,0.163779,-20.8007,0.0317153,
2,0,0,1,0,14955.2,0.0305126,0.0301864,-3.21756,8,0.00297926,10,-9.71266e-05,-2.49247,0.394117,0.149702,-18.8473,0.0301864,
2,0,0,1,0,14955.2,0.0290126,0.0286622,-3.19061,8,0.00285829,10,-9.14498e-05,-2.49613,0.402157,0.146709,-18.2853,0.0286622,
2,0,0,1,0,14955.2,0.0275162,0.0272143,-3.16717,8,0.0027386,10,-8.61921e-05,-2.49933,0.352998,0.16714,-20.6527,0.0272143,
2,0,0,1,0,14955.3,0.0260198,0.0257159,-3.14578,8,0.00261994,10,-8.08967e-05,-2.50227,0.342002,0.172514,-21.0826,0.0257159,
2,0,0,1,0,14955.3,0.0245198,0.0242178,-3.1105,8,0.00250209,10,-7.53295e-05,-2.50717,0.362674,0.162681,-19.7202,0.0242178,
2,0,0,1,0,14955.4,0.0230198,0.0226998,-3.08382,8,0.00238544,10,-7.00021e-05,-2.51091,0.387767,0.152153,-18.2955,0.0226998,
2,0,0,1,0,14955.4,0.0215243,0.0211638,-3.05563,8,0.00226998,10,-6.46686e-05,-2.5149,0.423949,0.139168,-16.5848,0.02116376,
2,0,0,1,0,14955.4,0.0200288,0.0197464,-3.02834,8,0.00215543,10,-5.97986e-05,-2.5188,0.374329,0.157615,-18.6476,0.0197464,
2,0,0,1,0,14955.5,0.0185253,0.0181849,-2.99689,8,0.00204121,10,-5.44982e-05,-2.52333,0.401418,0.146979,-17.259,0.0181849,
2,0,0,1,0,14955.5,0.0170289,0.016707,-2.97669,8,0.00192874,10,-4.97316e-05,-2.52627,0.442394,0.133365,-15.5413,0.01670704,
2,0,0,1,0,14955.5,0.0155325,0.0151722,-2.96145,8,0.00181705,10,-4.49318e-05,-2.5285,0.515248,0.114508,-13.2108,0.0151722,
2,0,0,1,0,14955.6,0.0140325,0.0136831,-2.9433,8,0.00170572,10,-4.02734e-05,-2.53117,0.496931,0.118729,-13.5862,0.0136831,
2,0,0,1,0,14955.6,0.0125325,0.0121989,-2.9206,8,0.00159518,10,-3.5628e-05,-2.53453,0.476101,0.123923,-14.0947,0.0121989,
2,0,0,1,0,14955.7,0.0110361,0.0107351,-2.89592,8,0.00148577,10,-3.1088e-05,-2.53821,0.553571,0.106581,-12.0662,0.0107351,
2,0,0,1,0,14955.7,0.0095397,0.0091759,-2.87843,8,0.00137703,10,-2.64122e-05,-2.54084,0.642358,0.0918491,-10.3303,0.0091759,
2,0,0,1,0,14955.7,0.00803616,0.00771674,-2.86534,8,0.00126829,10,-2.21111e-05,-2.54282,0.697367,0.084604,-9.4836,0.00771674,
2,0,0,1,0,14955.8,0.00654064,0.00620884,-2.85099,8,0.00116066,10,-1.77013e-05,-2.545,0.756132,0.0780287,-8.6991,0.00620884,
2,0,0,1,0,14955.8,0.00504513,0.00475327,-2.83694,8,0.00105353,10,-1.34847e-05,-2.54715,1.0562,0.0558609,-6.19821,0.004753266,
2,0,0,1,0,14955.8,0.00354515,0.00324216,-2.8301,8,0.000946574,10,-9.17564e-06,-2.5482,-2.64717,-0.022288,2.47355,0.00324216,
2,0,0,1,0,14955.9,0.00204518,0.00167152,-2.86682,8,0.000839576,10,-4.79194e-06,-2.5426,5.42464,0.0108763,-1.2,0.00167152,
2,0,0,1,0,14955.9,0.000548773,0.000176571,-2.83164,8,0.000732438,10,-4.99985e-07,-2.54796, , , ,0.000176571,
2,0,0,1,0,14955.9,0.000177222,-0.000175297,-2.82473,8,0.000705932,10,4.95167e-07,-2.54902, , , ,-0.000175297,