File: Figure_codes/Fig_3-5/rawdata_trumpetplot_data/after 10th/20221101_1-115_003_TrumpetPlot_ParaChange_from10_every3_08_CV_C01_28.csv
mode,ox/red,error,control changes,counter inc.,time/s,control/V,Ewe/V,<I>/mA,cycle number,(Q-Qo)/C,I Range,P/W,log(|I|),Tafel slope mV/dec,alpha_eff,dI/d(E-IR),E-IR/V,
2,0,0,0,0,56338.7,2.44065e-05,-0.000325324,-3.97092,29,0.0000000E+000,10,1.29183e-06,-2.40111, , , ,-0.000325324,
2,0,0,1,0,56338.7,0.0012943,0.000879563,-2.58901,29,-4.98332e-05,10,-2.2772e-06,-2.58687, , , ,0.000879563,
2,0,0,1,0,56338.7,0.00279784,0.00241405,-1.52574,29,-8.76389e-05,10,-3.6832e-06,-2.81652,-0.005419,-10.8876,616.788,0.00241405,
2,0,0,1,0,56338.7,0.00429425,0.0039249,-0.769245,29,-0.000108443,10,-3.01921e-06,-3.11394,-0.000862252,-68.4254,453.326,0.0039249,
2,0,0,1,0,56338.7,0.00579065,0.00541689,-0.175814,29,-0.000116742,10,-9.52367e-07,-3.75495,-0.0116367,-5.07017,355.753,0.00541689,
2,1,0,1,0,56338.8,0.00729419,0.00691797,0.309773,29,-0.000115035,10,2.143e-06,-3.50896,0.0107898,5.46814,292.332,0.00691797,
2,1,0,1,0,56338.8,0.00878347,0.00837509,0.703664,29,-0.000105227,10,5.89325e-06,-3.15263,0.00478163,12.3389,238.49,0.008375085,
2,1,0,1,0,56338.8,0.010287,0.00994433,1.03199,29,-8.85657e-05,10,1.02625e-05,-2.98632,0.0106923,5.51797,200.435,0.00994433,
2,1,0,1,0,56338.8,0.0117905,0.0113916,1.31468,29,-6.61858e-05,10,1.49763e-05,-2.88118,0.0168404,3.50348,170.476,0.0113916,
2,1,0,1,0,56338.8,0.013278,0.0129179,1.54885,29,-3.93202e-05,10,2.00079e-05,-2.80999,0.0234554,2.51542,147.775,0.0129179,
2,1,0,1,0,56338.9,0.0147816,0.0144169,1.75811,29,-8.00151e-06,10,2.53465e-05,-2.75495,0.0308352,1.9134,128.318,0.0144169,
2,1,0,1,0,56338.9,0.0162851,0.0159125,1.9436,29,2.70389e-05,10,3.09275e-05,-2.71139,0.0384829,1.53315,114.126,0.0159125,
2,1,0,1,0,56338.9,0.0177744,0.0173942,2.10193,29,6.48474e-05,10,3.65614e-05,-2.67738,0.0467627,1.26169,102.169,0.0173942,
2,1,0,1,0,56338.9,0.0192779,0.0189048,2.24162,29,0.000105814,10,4.23775e-05,-2.64944,0.0570693,1.03383,89.6808,0.0189048,
2,1,0,1,0,56338.9,0.0207743,0.0204114,2.37097,29,0.000149122,10,4.83948e-05,-2.62507,0.0645386,0.914182,83.8728,0.0204114,
2,1,0,1,0,56338.9,0.0222707,0.0218988,2.4858,29,0.000194712,10,5.4436e-05,-2.60453,0.074824,0.788517,76.0712,0.0218988,
2,1,0,1,0,56339,0.0237743,0.023437,2.58822,29,0.000242654,10,6.06601e-05,-2.587,0.0858185,0.687498,69.2586,0.023437,
2,1,0,1,0,56339,0.0252636,0.0249142,2.68162,29,0.000291956,10,6.68106e-05,-2.5716,0.0932267,0.632866,66.3024,0.0249142,
2,1,0,1,0,56339,0.0267671,0.0264051,2.78046,29,0.000343616,10,7.34184e-05,-2.55588,0.101409,0.5818,63.0432,0.0264051,
2,1,0,1,0,56339,0.0282706,0.0279239,2.8681,29,0.000397037,10,8.00886e-05,-2.54241,0.11362,0.519274,58.0639,0.0279239,
2,1,0,1,0,56339,0.0297581,0.0294032,2.95184,29,0.000451465,10,8.67934e-05,-2.52991,0.131393,0.449035,51.6962,0.0294032,
2,1,0,1,0,56339.1,0.0312617,0.0308797,3.02842,29,0.000507971,10,9.35168e-05,-2.51878,0.137342,0.429586,50.7993,0.0308797,
2,1,0,1,0,56339.1,0.0327652,0.0324323,3.10219,29,0.000565907,10,0.000100611,-2.50833,0.145619,0.405166,49.1057,0.0324323,
2,1,0,1,0,56339.1,0.0342545,0.0338972,3.1837,29,0.000624622,10,0.000107919,-2.49707,0.156875,0.376096,46.7058,0.03389721,
2,1,0,1,0,56339.1,0.035758,0.0354058,3.25832,29,0.000685343,10,0.000115363,-2.48701,0.171735,0.343552,43.576,0.0354058,
2,1,0,1,0,56339.1,0.0372544,0.0368752,3.32747,29,0.000747098,10,0.000122701,-2.47789,0.166748,0.353827,45.8727,0.0368752,
2,1,0,1,0,56339.2,0.0387508,0.038396,3.39139,29,0.000810072,10,0.000130216,-2.46962,0.173846,0.339381,44.9427,0.038396,
2,1,0,1,0,56339.2,0.0402544,0.0398405,3.46098,29,0.000874694,10,0.000137887,-2.4608,0.183825,0.320958,43.3036,0.0398405,
2,1,0,1,0,56339.2,0.0417436,0.0414006,3.52954,29,0.0009399,10,0.000146125,-2.45228,0.183431,0.321646,44.2557,0.0414006,
2,1,0,1,0,56339.2,0.0432472,0.0429351,3.59718,29,0.00100701,10,0.000154445,-2.44404,0.192809,0.306002,42.8265,0.0429351,
2,1,0,1,0,56339.2,0.0447507,0.0444344,3.65461,29,0.00107534,10,0.00016239,-2.43716,0.190117,0.310335,44.238,0.0444344,
2,1,0,1,0,56339.2,0.0462382,0.0458752,3.71781,29,0.00114407,10,0.000170555,-2.42971,0.196386,0.300429,43.553,0.0458752,
2,1,0,1,0,56339.3,0.0477418,0.0473926,3.77707,29,0.00121474,10,0.000179005,-2.42285,0.195622,0.301602,44.4602,0.0473926,
2,1,0,1,0,56339.3,0.0492453,0.0488606,3.83718,29,0.0012866,10,0.000187487,-2.41599,0.211062,0.279538,41.8731,0.0488606,
2,1,0,1,0,56339.3,0.0507346,0.0503696,3.89414,29,0.00135882,10,0.000196146,-2.40959,0.218066,0.27056,41.1667,0.0503696,
2,1,0,1,0,56339.3,0.0522381,0.0518884,3.95652,29,0.00143291,10,0.000205297,-2.40269,0.227242,0.259635,40.1419,0.0518884,
2,1,0,1,0,56339.3,0.0537345,0.0534022,4.01826,29,0.00150779,10,0.000214584,-2.39596,0.235346,0.250694,39.3235,0.0534022,
2,1,0,1,0,56339.4,0.0552309,0.0548397,4.07983,29,0.00158376,10,0.000223737,-2.38936,0.269373,0.219028,34.8665,0.0548397,
2,1,0,1,0,56339.4,0.0567345,0.0563882,4.12855,29,0.00166122,10,0.000232801,-2.3842,0.270309,0.218269,35.2137,0.0563882,
2,1,0,1,0,56339.4,0.0582237,0.0578532,4.19068,29,0.00173883,10,0.000242444,-2.37772,0.271515,0.217299,35.5607,0.0578532,
2,1,0,1,0,56339.4,0.0597273,0.059358,4.24952,29,0.00181835,10,0.000252243,-2.37166,0.265548,0.222182,36.8371,0.059358,
2,1,0,1,0,56339.4,0.0612308,0.0609095,4.30513,29,0.00189895,10,0.000262223,-2.36601,0.27541,0.214226,35.9627,0.0609095,
2,1,0,1,0,56339.5,0.0627183,0.0623588,4.359,29,0.00197974,10,0.000271822,-2.36061,0.281203,0.209813,35.6874,0.0623588,
2,1,0,1,0,56339.5,0.0642218,0.063912,4.41568,29,0.00206233,10,0.000282215,-2.355,0.283502,0.208112,35.8398,0.063912,
2,1,0,1,0,56339.5,0.0657254,0.0653221,4.46792,29,0.00214597,10,0.000291854,-2.34989,0.270162,0.218388,37.9972,0.0653221,
2,1,0,1,0,56339.5,0.0672147,0.0668457,4.51896,29,0.00222971,10,0.000302073,-2.34496,0.278363,0.211953,37.3368,0.06684567,
2,1,0,1,0,56339.5,0.0687182,0.0683577,4.57196,29,0.00231534,10,0.000312528,-2.3399,0.303492,0.194404,34.65,0.0683577,
2,1,0,1,0,56339.5,0.0702146,0.069891,4.61687,29,0.00240142,10,0.000322678,-2.33565,0.310676,0.189909,34.208,0.069891,
2,1,0,1,0,56339.6,0.071711,0.0713193,4.66414,29,0.00248842,10,0.000332643,-2.33123,0.306172,0.192702,35.0774,0.0713193,
2,1,0,1,0,56339.6,0.0732146,0.0728725,4.70801,29,0.00257684,10,0.000343085,-2.32716,0.318087,0.185484,34.1155,0.07287249,
2,1,0,1,0,56339.6,0.0747038,0.0743265,4.75778,29,0.00266518,10,0.000353629,-2.3226,0.368048,0.160305,29.7977,0.07432653,
2,1,0,1,0,56339.6,0.0762074,0.0758317,4.79899,29,0.00275533,10,0.000363916,-2.31885,0.365405,0.161465,30.28,0.0758317,
2,1,0,1,0,56339.6,0.0777109,0.0773604,4.84873,29,0.00284632,10,0.0003751,-2.31437,0.366777,0.160861,30.4445,0.0773604,
2,1,0,1,0,56339.7,0.0791984,0.0788605,4.90319,29,0.00293721,10,0.000386668,-2.30952,0.424581,0.138961,26.5439,0.0788605,
2,1,0,1,0,56339.7,0.0807019,0.0803966,4.93873,29,0.00302991,10,0.000397057,-2.30638,0.457846,0.128864,24.824,0.0803966,
2,1,0,1,0,56339.7,0.0822055,0.0818619,4.97458,29,0.00312336,10,0.000407229,-2.30324,0.475634,0.124045,24.0872,0.0818619,
2,1,0,1,0,56339.7,0.0836947,0.0833436,5.01256,29,0.00321649,10,0.000417765,-2.29994,0.462394,0.127597,24.983,0.0833436,
2,1,0,1,0,56339.7,0.0851983,0.0848372,5.05952,29,0.00331137,10,0.000429236,-2.29589,0.480864,0.122696,24.2112,0.0848372,
2,1,0,1,0,56339.8,0.0866947,0.0863531,5.09999,29,0.00340652,10,0.0004404,-2.29243,0.487813,0.120948,24.0202,0.0863531,
2,1,0,1,0,56339.8,0.0881911,0.0878369,5.13723,29,0.00350239,10,0.000451239,-2.28927,0.473791,0.124527,24.9485,0.0878369,
2,1,0,1,0,56339.8,0.0896946,0.0893353,5.16895,29,0.0035994,10,0.00046177,-2.2866,0.473206,0.124681,25.1676,0.0893353,
2,1,0,1,0,56339.8,0.0911839,0.0908135,5.20905,29,0.00369613,10,0.000473052,-2.28324,0.403276,0.146302,29.7381,0.0908135,
2,1,0,1,0,56339.8,0.0926857,0.0923085,5.25077,29,0.00379466,10,0.000484691,-2.27978,0.412283,0.143106,29.3376,0.0923085,
2,1,0,1,0,56339.8,0.0941892,0.0938106,5.28892,29,0.00389396,10,0.000496157,-2.27663,0.406178,0.145257,30.0009,0.0938106,
2,1,0,1,0,56339.9,0.0956785,0.0953274,5.32997,29,0.00399296,10,0.000508092,-2.27328,0.407839,0.144665,30.1182,0.0953274,
2,1,0,1,0,56339.9,0.097182,0.0968663,5.37323,29,0.00409384,10,0.000520485,-2.26976,0.395163,0.149305,31.3255,0.0968663,
2,1,0,1,0,56339.9,0.0986856,0.0983244,5.41873,29,0.00419559,10,0.000532793,-2.2661,0.383898,0.153687,32.5356,0.0983244,
2,1,0,1,0,56339.9,0.100175,0.0997839,5.47248,29,0.00429712,10,0.000546066,-2.26182,0.378742,0.155779,33.2866,0.0997839,
2,1,0,1,0,56339.9,0.101678,0.101336,5.52128,29,0.00440071,10,0.000559505,-2.25796,0.358121,0.164749,35.5563,0.101336,
2,1,0,1,0,56340,0.103175,0.102825,5.5839,29,0.00450478,10,0.000574163,-2.25306,0.324304,0.181928,39.7038,0.102825,
2,1,0,1,0,56340,0.104671,0.104335,5.64777,29,0.00460999,10,0.00058926,-2.24812,0.306183,0.192695,42.5076,0.104335,
2,1,0,1,0,56340,0.106175,0.105823,5.71923,29,0.00471708,10,0.000605228,-2.24266,0.285254,0.206833,46.1354,0.105823,
2,1,0,1,0,56340,0.107662,0.107331,5.79216,29,0.00482431,10,0.000621677,-2.23716,0.281576,0.209535,47.3557,0.107331,
2,1,0,1,0,56340,0.109166,0.108807,5.86829,29,0.00493402,10,0.000638509,-2.23149,0.264622,0.22296,51.051,0.108807,
2,1,0,1,0,56340.1,0.110669,0.110303,5.94496,29,0.0050452,10,0.000655746,-2.22585,0.254693,0.231652,53.7305,0.110303,
2,1,0,1,0,56340.1,0.112159,0.111787,6.0311,29,0.0051567,10,0.000674201,-2.2196,0.257294,0.229309,53.8985,0.111787,
2,1,0,1,0,56340.1,0.113662,0.113309,6.10708,29,0.00527091,10,0.000691987,-2.21417,0.254496,0.231831,55.2099,0.113309,
2,1,0,1,0,56340.1,0.115166,0.114797,6.18912,29,0.00538667,10,0.00071049,-2.20837,0.246966,0.238899,57.6663,0.114797,
2,1,0,1,0,56340.1,0.116655,0.116255,6.27308,29,0.00550273,10,0.000729279,-2.20252,0.248389,0.237531,58.1198,0.116255,
2,1,0,1,0,56340.1,0.118158,0.117788,6.3532,29,0.00562163,10,0.000748333,-2.19701,0.259487,0.227371,56.3833,0.117788,
2,1,0,1,0,56340.2,0.119655,0.119256,6.43433,29,0.00574148,10,0.000767334,-2.1915,0.272996,0.216121,54.2893,0.119256,
2,1,0,1,0,56340.2,0.121151,0.120758,6.51363,29,0.00586282,10,0.000786574,-2.18618,0.284648,0.207274,52.7214,0.120758,
2,1,0,1,0,56340.2,0.122655,0.122309,6.59132,29,0.0059863,10,0.00080618,-2.18103,0.296346,0.199092,51.1888,0.122309,
2,1,0,1,0,56340.2,0.124142,0.123761,6.66537,29,0.0061099,10,0.00082491,-2.17618,0.317631,0.18575,48.3153,0.123761,
2,1,0,1,0,56340.2,0.125646,0.12533,6.7363,29,0.00623616,10,0.000844261,-2.17158,0.360231,0.163784,43.0361,0.12533,
2,1,0,1,0,56340.3,0.127149,0.126781,6.79593,29,0.00636369,10,0.000861594,-2.16775,0.401686,0.146881,38.9535,0.126781,
2,1,0,1,0,56340.3,0.128639,0.128274,6.8584,29,0.00649096,10,0.000879758,-2.16378,0.445504,0.132434,35.4587,0.128274,
2,1,0,1,0,56340.3,0.130142,0.129752,6.91794,29,0.0066207,10,0.000897617,-2.16002,0.477639,0.123524,33.3279,0.129752,
2,1,0,1,0,56340.3,0.131646,0.131263,6.9685,29,0.00675146,10,0.000914704,-2.15686,0.537702,0.109726,29.8139,0.131263,
2,1,0,1,0,56340.3,0.133135,0.132792,7.01641,29,0.00688171,10,0.000931721,-2.15388,0.59218,0.0996318,27.2596,0.132792,
2,1,0,1,0,56340.4,0.134639,0.134288,7.05734,29,0.00701415,10,0.000947713,-2.15136,0.636623,0.0926765,25.5098,0.134288,
2,1,0,1,0,56340.4,0.136135,0.135799,7.10036,29,0.00714667,10,0.000964223,-2.14872,0.619818,0.0951892,26.3431,0.135799,
2,1,0,1,0,56340.4,0.137631,0.13733,7.13308,29,0.00727987,10,0.000979589,-2.14672,0.680629,0.0866845,24.1074,0.13733,
2,1,0,1,0,56340.4,0.139135,0.138775,7.16694,29,0.00741442,10,0.00099459,-2.14467,0.833514,0.0707846,19.7585,0.138775,
2,1,0,1,0,56340.4,0.140622,0.14028,7.17948,29,0.00754804,10,0.00100714,-2.14391,0.947003,0.0623018,17.4543,0.14028,
2,1,0,1,0,56340.4,0.142126,0.141801,7.19763,29,0.00768346,10,0.00102063,-2.14281,1.4047,0.0420019,11.7937,0.1418009,
2,1,0,1,0,56340.5,0.143629,0.143267,7.21096,29,0.00781924,10,0.00103309,-2.14201,3.08195,0.0191437,5.38249,0.143267,
2,1,0,1,0,56340.5,0.145119,0.144788,7.21402,29,0.00795367,10,0.00104451,-2.14182,-3.16208,-0.0186586,-5.2471,0.144788,
2,1,0,1,0,56340.5,0.146622,0.146268,7.19443,29,0.0080894,10,0.00105231,-2.143,-1.21406,-0.0485972,-13.6311,0.146268,
2,1,0,1,0,56340.5,0.148126,0.147765,7.17202,29,0.00822474,10,0.00105977,-2.14436,-0.718665,-0.0820967,-22.9299,0.147765,
2,1,0,1,0,56340.5,0.149615,0.149268,7.13087,29,0.00835799,10,0.00106441,-2.14686,-0.477923,-0.123451,-34.2944,0.149268,
2,1,0,1,0,56340.6,0.151119,0.150762,7.07083,29,0.00849171,10,0.00106601,-2.15053,-0.326617,-0.18064,-49.7148,0.150762,
2,1,0,1,0,56340.6,0.152615,0.152219,6.9924,29,0.00862345,10,0.00106438,-2.15537,-0.266721,-0.221205,-60.204,0.152219,
2,1,0,1,0,56340.6,0.154111,0.153721,6.8983,29,0.00875342,10,0.00106041,-2.16126,-0.217747,-0.270956,-72.7005,0.1537209,
2,1,0,1,0,56340.6,0.155615,0.155291,6.7778,29,0.0088821,10,0.00105253,-2.16891,-0.187983,-0.313858,-82.7701,0.155291,
2,1,0,1,0,56340.6,0.157102,0.156738,6.64764,29,0.00900712,10,0.00104194,-2.17733,-0.157684,-0.374166,-96.6986,0.156738,
2,1,0,1,0,56340.7,0.158606,0.158255,6.49699,29,0.0091308,10,0.00102818,-2.18729,-0.141121,-0.418081,-105.669,0.158255,
2,1,0,1,0,56340.7,0.16011,0.159737,6.32605,29,0.00925146,10,0.00101051,-2.19887,-0.131359,-0.449151,-110.752,0.159737,
2,1,0,1,0,56340.7,0.161599,0.161202,6.15713,29,0.00936772,10,0.000992545,-2.21062,-0.122234,-0.482681,-115.836,0.161202,
2,1,0,1,0,56340.7,0.163102,0.162786,5.98333,29,0.009482,10,0.000974005,-2.22306,-0.116703,-0.505556,-117.873,0.162786,
2,1,0,1,0,56340.7,0.164606,0.164282,5.79821,29,0.00959293,10,0.000952543,-2.23671,-0.112584,-0.524055,-118.522,0.164282,
2,1,0,1,0,56340.7,0.166095,0.165751,5.61748,29,0.00969931,10,0.000931103,-2.25046,-0.113358,-0.520474,-114.276,0.165751,
2,1,0,1,0,56340.8,0.167599,0.167222,5.44581,29,0.00980353,10,0.000910662,-2.26394,-0.112848,-0.522828,-111.228,0.167222,
2,1,0,1,0,56340.8,0.169095,0.168759,5.28351,29,0.00990411,10,0.000891642,-2.27708,-0.115503,-0.510811,-105.434,0.168759,
2,1,0,1,0,56340.8,0.170592,0.170286,5.12878,29,0.0100017,10,0.000873361,-2.28999,-0.113366,-0.520437,-104.281,0.170286,
2,1,0,1,0,56340.8,0.172095,0.171745,4.97139,29,0.0100968,10,0.000853811,-2.30352,-0.117708,-0.501242,-97.5087,0.171745,
2,1,0,1,0,56340.8,0.173583,0.173234,4.83567,29,0.0101883,10,0.0008377,-2.31554,-0.123327,-0.478404,-90.4054,0.173234,
2,1,0,1,0,56340.9,0.175086,0.174748,4.70763,29,0.0102782,10,0.000822647,-2.3272,-0.128273,-0.459957,-84.648,0.174748,
2,1,0,1,0,56340.9,0.17659,0.176266,4.5888,29,0.0103658,10,0.000808851,-2.3383,-0.134639,-0.438208,-78.5529,0.176266,
2,1,0,1,0,56340.9,0.178079,0.177742,4.47788,29,0.0104503,10,0.000795907,-2.34893,-0.140444,-0.420095,-73.5029,0.177742,
2,1,0,1,0,56340.9,0.179582,0.179259,4.37309,29,0.0105337,10,0.000783915,-2.35921,-0.149938,-0.393495,-67.2868,0.179259,
2,1,0,1,0,56340.9,0.181086,0.18074,4.27723,29,0.0106152,10,0.000773068,-2.36884,-0.161916,-0.364387,-60.9597,0.18074,
2,1,0,1,0,56341,0.182575,0.182224,4.19726,29,0.0106942,10,0.000764841,-2.37703,-0.171693,-0.343636,-56.2787,0.182224,
2,1,0,1,0,56341,0.184079,0.183739,4.11761,29,0.0107725,10,0.000756564,-2.38536,-0.183202,-0.322048,-51.7229,0.1837388,
2,1,0,1,0,56341,0.185582,0.185243,4.03687,29,0.0108492,10,0.000747801,-2.39396,-0.201544,-0.292739,-46.1696,0.185243,
2,1,0,1,0,56341,0.18707,0.186707,3.96656,29,0.0109238,10,0.000740584,-2.40159,-0.214336,-0.275269,-42.6462,0.186707,
2,1,0,1,0,56341,0.188573,0.188218,3.89996,29,0.010998,10,0.000734045,-2.40894,-0.23521,-0.250839,-38.2533,0.188218,
2,1,0,1,0,56341,0.19007,0.189752,3.84518,29,0.0110707,10,0.000729633,-2.41508,-0.234332,-0.251779,-37.7929,0.1897524,
2,1,0,1,0,56341.1,0.191566,0.191207,3.78372,29,0.0111422,10,0.000723473,-2.42208,-0.25573,-0.230712,-34.179,0.191207,
2,1,0,1,0,56341.1,0.19307,0.192723,3.73704,29,0.0112132,10,0.000720213,-2.42747,-0.276543,-0.213349,-31.1529,0.1927228,
2,1,0,1,0,56341.1,0.194559,0.194218,3.69499,29,0.0112825,10,0.000717634,-2.43239,-0.293822,-0.200802,-28.9655,0.194218,
2,1,0,1,0,56341.1,0.196063,0.195728,3.6433,29,0.0113518,10,0.000713096,-2.4385,-0.275385,-0.214245,-30.5223,0.195728,
2,1,0,1,0,56341.1,0.197566,0.197157,3.59923,29,0.0114202,10,0.000709613,-2.44379,-0.293516,-0.201011,-28.3333,0.1971568,
2,1,0,1,0,56341.2,0.199055,0.198709,3.5743,29,0.0114871,10,0.000710245,-2.44681,-0.297589,-0.19826,-27.6527,0.1987087,
2,1,0,1,0,56341.2,0.200559,0.200203,3.54114,29,0.0115542,10,0.000708948,-2.45086,-0.331638,-0.177905,-24.5559,0.200203,
2,1,0,1,0,56341.2,0.202062,0.201695,3.5057,29,0.0116205,10,0.000707083,-2.45522,-0.356756,-0.165379,-22.6153,0.201695,
2,1,0,1,0,56341.2,0.20355,0.20315,3.47371,29,0.0116856,10,0.000705684,-2.45921,-0.370307,-0.159327,-21.5882,0.20315,
2,1,0,1,0,56341.2,0.205054,0.204718,3.44577,29,0.0117508,10,0.000705411,-2.46271,-0.461392,-0.127874,-17.2096,0.204718,
2,1,0,1,0,56341.3,0.20655,0.206208,3.42162,29,0.0118151,10,0.000705566,-2.46577,-0.548959,-0.107476,-14.3453,0.206208,
2,1,0,1,0,56341.3,0.208046,0.207693,3.40473,29,0.0118792,10,0.000707139,-2.46792,-0.5511,-0.107059,-14.1933,0.207693,
2,1,0,1,0,56341.3,0.20955,0.209188,3.37258,29,0.011943,10,0.000705502,-2.47204,-0.541903,-0.108875,-14.3383,0.209188,
2,1,0,1,0,56341.3,0.211039,0.21067,3.35474,29,0.0120058,10,0.000706741,-2.47434,-0.586878,-0.100532,-13.1713,0.21067,
2,1,0,1,0,56341.3,0.212543,0.212206,3.32853,29,0.0120688,10,0.000706334,-2.47775,-0.625017,-0.0943974,-12.2764,0.212206,
2,1,0,1,0,56341.3,0.214046,0.213681,3.30952,29,0.0121314,10,0.000707181,-2.48023,-0.782588,-0.0753909,-9.74495,0.213681,
2,1,0,1,0,56341.4,0.215535,0.215185,3.29114,29,0.0121931,10,0.000708204,-2.48265,-0.683539,-0.0863155,-11.0972,0.215185,
2,1,0,1,0,56341.4,0.217039,0.216692,3.26752,29,0.012255,10,0.000708045,-2.48578,-0.65981,-0.0894196,-11.4376,0.216692,
2,1,0,1,0,56341.4,0.218543,0.218198,3.25469,29,0.0123166,10,0.000710167,-2.48749,-1.05227,-0.0560691,-7.13503,0.218198,
2,1,0,1,0,56341.4,0.22003,0.219708,3.24356,29,0.0123774,10,0.000712634,-2.48898,-0.777092,-0.0759241,-9.61397,0.219708,
2,1,0,1,0,56341.4,0.221534,0.221217,3.23152,29,0.0124385,10,0.000714867,-2.49059,-0.664962,-0.0887269,-11.1875,0.221217,
2,1,0,1,0,56341.5,0.22303,0.222672,3.2169,29,0.012499,10,0.000716314,-2.49256,-0.704832,-0.0837078,-10.505,0.222672,
2,1,0,1,0,56341.5,0.224526,0.224169,3.20575,29,0.0125592,10,0.00071863,-2.49407,-0.781343,-0.075511,-9.44852,0.224169,
2,1,0,1,0,56341.5,0.22603,0.225697,3.19191,29,0.0126196,10,0.000720404,-2.49595,-0.891122,-0.0662087,-8.25024,0.225697,
2,1,0,1,0,56341.5,0.227519,0.227204,3.18679,29,0.0126791,10,0.000724051,-2.49665,-0.806025,-0.0731988,-9.08217,0.227204,
2,1,0,1,0,56341.5,0.229023,0.228701,3.17214,29,0.012739,10,0.00072547,-2.49865,-0.801683,-0.0735952,-9.1018,0.228701,
2,1,0,1,0,56341.6,0.230526,0.230181,3.16154,29,0.0127986,10,0.000727724,-2.5001,-1.24877,-0.0472464,-5.82791,0.230181,
2,1,0,1,0,56341.6,0.232016,0.231689,3.1529,29,0.0128574,10,0.00073049,-2.50129,-1.43593,-0.0410883,-5.05127,0.231689,
2,1,0,1,0,56341.6,0.233519,0.233197,3.14348,29,0.0129167,10,0.000733049,-2.50259,-1.59622,-0.0369623,-4.5254,0.233197,
2,1,0,1,0,56341.6,0.235023,0.234724,3.1357,29,0.0129759,10,0.000736023,-2.50367,-1.85881,-0.0317407,-3.87747,0.234724,
2,1,0,1,0,56341.6,0.23651,0.23614,3.11845,29,0.0130342,10,0.000736389,-2.50606,-1.66724,-0.0353878,-4.30976,0.2361396,
2,1,0,1,0,56341.6,0.238014,0.237649,3.1115,29,0.013093,10,0.000739443,-2.50703,-1.44023,-0.0409658,-4.97527,0.2376485,
2,1,0,1,0,56341.7,0.23951,0.23914,3.10218,29,0.0131514,10,0.000741856,-2.50833,-1.94524,-0.0303305,-3.67279,0.23914,
2,1,0,1,0,56341.7,0.241006,0.240662,3.09232,29,0.0132095,10,0.000744205,-2.50972,-1.31922,-0.0447233,-5.40842,0.240662,
2,1,0,1,0,56341.7,0.24251,0.242162,3.08135,29,0.0132679,10,0.000746187,-2.51126,-1.38401,-0.0426297,-5.13567,0.242162,
2,1,0,1,0,56341.7,0.243999,0.243636,3.08148,29,0.0133255,10,0.00075076,-2.51124,-1.20283,-0.0490512,-5.89938,0.243636,
2,1,0,1,0,56341.7,0.245503,0.245168,3.07678,29,0.0133835,10,0.000754327,-2.5119,-1.31278,-0.0449429,-5.39173,0.2451679,
2,1,0,1,0,56341.8,0.247006,0.246672,3.06649,29,0.0134415,10,0.000756419,-2.51336,-1.09476,-0.0538929,-6.45101,0.246672,
2,1,0,1,0,56341.8,0.248496,0.248129,3.06376,29,0.0134988,10,0.000760205,-2.51375,-1.18679,-0.0497141,-5.94294,0.2481285,
2,1,0,1,0,56341.8,0.249999,0.249653,3.05773,29,0.0135564,10,0.000763373,-2.5146,-1.77481,-0.033243,-3.9649,0.249653,
2,1,0,1,0,56341.8,0.251503,0.251172,3.05293,29,0.013614,10,0.000766809,-2.51528,-1.71057,-0.0344914,-4.10407,0.251172,
2,1,0,1,0,56341.8,0.25299,0.252643,3.04804,29,0.0136709,10,0.000770065,-2.51598,-1.5021,-0.0392783,-4.66171,0.252643,
2,1,0,1,0,56341.9,0.254494,0.254149,3.04188,29,0.0137283,10,0.000773089,-2.51686,-1.56493,-0.0377013,-4.46645,0.254149,
2,1,0,1,0,56341.9,0.25599,0.255651,3.03219,29,0.0137852,10,0.000775183,-2.51824,-2.94453,-0.0200372,-2.37044,0.255651,
2,1,0,1,0,56341.9,0.257487,0.257126,3.02859,29,0.013842,10,0.00077873,-2.51876,-4.20387,-0.0140347,-1.65815,0.257126,
2,1,0,1,0,56341.9,0.25899,0.258664,3.02019,29,0.0138991,10,0.000781217,-2.51997,-3.08484,-0.0191258,-2.25337,0.258664,
2,1,0,1,0,56341.9,0.260479,0.260127,3.01599,29,0.0139554,10,0.000784538,-2.52057,-3.21744,-0.0183375,-2.15658,0.260127,
2,1,0,1,0,56341.9,0.261983,0.261626,3.007,29,0.0140123,10,0.000786708,-2.52187,-2.01445,-0.0292884,-3.44101,0.261626,
2,1,0,1,0,56342,0.263486,0.263113,3.0036,29,0.014069,10,0.000790284,-2.52236,-4.99527,-0.0118112,-1.38516,0.263113,
2,1,0,1,0,56342,0.264974,0.264652,2.99959,29,0.014125,10,0.000793848,-2.52294,-1.47713,-0.0399422,-4.67757,0.264652,
2,1,0,1,0,56342,0.266477,0.266118,2.99075,29,0.0141816,10,0.000795891,-2.52422,-1.86136,-0.0316972,-3.70584,0.2661176,
2,1,0,1,0,56342,0.267981,0.267603,2.98195,29,0.0142381,10,0.000797979,-2.5255,-1.6143,-0.0365483,-4.2674,0.267603,
2,1,0,1,0,56342,0.26947,0.269133,2.98417,29,0.0142938,10,0.000803138,-2.52518,-1.74433,-0.0338239,-3.9371,0.269133,
2,1,0,1,0,56342.1,0.270974,0.270653,2.98361,29,0.0143501,10,0.000807524,-2.52526,-1.576,-0.0374365,-4.35269,0.270653,
2,1,0,1,0,56342.1,0.27247,0.272129,2.97943,29,0.014406,10,0.000810789,-2.52587,-1.42257,-0.0414743,-4.8133,0.272129,
2,1,0,1,0,56342.1,0.273967,0.273567,2.97012,29,0.0144618,10,0.000812528,-2.52723,-1.21812,-0.0484354,-5.61192,0.273567,
2,1,0,1,0,56342.1,0.27547,0.275123,2.96412,29,0.0145178,10,0.000815496,-2.5281,-1.56342,-0.0377378,-4.3694,0.2751227,
2,1,0,1,0,56342.1,0.276959,0.276648,2.96298,29,0.0145731,10,0.000819704,-2.52827,-2.32586,-0.025367,-2.93264,0.276648,
2,1,0,1,0,56342.1,0.278463,0.278127,2.96081,29,0.0146289,10,0.000823482,-2.52859,-2.7461,-0.021485,-2.47728,0.278127,
2,1,0,1,0,56342.2,0.279967,0.279629,2.95395,29,0.0146846,10,0.00082601,-2.5296,-2.55009,-0.0231364,-2.66368,0.279629,
2,1,0,1,0,56342.2,0.281454,0.281085,2.94455,29,0.0147396,10,0.000827669,-2.53098,-4.53969,-0.0129965,-1.4945,0.281085,
2,1,0,1,0,56342.2,0.282958,0.282581,2.93905,29,0.0147951,10,0.000830521,-2.53179,-15.4214,-0.00382585,-0.438884,0.282581,
2,1,0,1,0,56342.2,0.284461,0.284126,2.9362,29,0.0148506,10,0.000834253,-2.53221,-4.93507,-0.0119553,-1.36901,0.284126,
2,1,0,1,0,56342.2,0.28595,0.285565,2.92741,29,0.0149053,10,0.000835966,-2.53352,-2.78961,-0.0211499,-2.41847,0.2855652,
2,1,0,1,0,56342.3,0.287454,0.28711,2.91914,29,0.0149606,10,0.000838114,-2.53474,-1.84591,-0.0319625,-3.64892,0.28711,
2,1,0,1,0,56342.3,0.28895,0.2886,2.91635,29,0.0150154,10,0.000841658,-2.53516,-2.55404,-0.0231007,-2.63124,0.2885997,
2,1,0,1,0,56342.3,0.290447,0.290109,2.91351,29,0.0150702,10,0.000845234,-2.53558,-1.97747,-0.0298361,-3.39537,0.290109,
2,1,0,1,0,56342.3,0.29195,0.291638,2.90716,29,0.0151251,10,0.000847836,-2.53653,-1.54388,-0.0382153,-4.33853,0.291638,
2,1,0,1,0,56342.3,0.29344,0.293056,2.90111,29,0.0151794,10,0.000850189,-2.53744,-1.40023,-0.042136,-4.77698,0.293056,
2,1,0,1,0,56342.4,0.294943,0.294603,2.90195,29,0.0152342,10,0.000854922,-2.53731,-1.23282,-0.0478578,-5.41397,0.294603,
2,1,0,1,0,56342.4,0.296447,0.296119,2.90011,29,0.0152889,10,0.000858778,-2.53759,-1.49876,-0.0393659,-4.44865,0.296119,
2,1,0,1,0,56342.4,0.297934,0.297575,2.89594,29,0.0153429,10,0.00086176,-2.53821,-1.61214,-0.0365973,-4.1315,0.297575,
2,1,0,1,0,56342.4,0.299438,0.299058,2.8865,29,0.0153974,10,0.000863231,-2.53963,-0.0376413,-1.56743,-165.11,0.299058,
2,1,0,1,0,56342.4,0.300012,0.29967,2.88614,29,0.0154177,10,0.00086489,-2.53968,0.00211334,27.9179,2212.05,0.29967,
2,1,0,1,0,56342.4,0.298737,0.298392,1.66608,29,0.0154521,10,0.000497146,-2.7783,0.00538872,10.9488,656.598,0.298392,
2,1,0,1,0,56342.5,0.29724,0.296902,0.89105,29,0.0154752,10,0.000264554,-3.0501,0.00431215,13.6823,447.32,0.296902,
2,1,0,1,0,56342.5,0.295744,0.295427,0.379163,29,0.0154865,10,0.000112015,-3.42117,0.00371593,15.8776,297.515,0.295427,
2,1,0,1,0,56342.5,0.29424,0.293897,0.0139503,29,0.0154897,10,4.09993e-06,-4.85542,0.0211361,2.79143,213.766,0.293897,
2,0,0,1,0,56342.5,0.292751,0.292364,-0.255051,29,0.0154871,10,-7.4568e-05,-3.59337,-0.00603514,-9.77607,159.515,0.292364,
2,0,0,1,0,56342.5,0.291248,0.290856,-0.466083,29,0.01548,10,-0.000135563,-3.33154,-0.00682722,-8.64187,125.331,0.2908558,
2,0,0,1,0,56342.5,0.289744,0.289366,-0.626789,29,0.0154694,10,-0.000181372,-3.20288,-0.0133467,-4.42057,100.188,0.289366,
2,0,0,1,0,56342.6,0.288257,0.287894,-0.763888,29,0.0154562,10,-0.000219919,-3.11697,-0.0211574,-2.78863,79.448,0.287894,
2,0,0,1,0,56342.6,0.286753,0.286395,-0.874274,29,0.0154406,10,-0.000250388,-3.05835,-0.0290702,-2.02957,67.4925,0.286395,
2,0,0,1,0,56342.6,0.285249,0.284901,-0.967521,29,0.015423,10,-0.000275648,-3.01434,-0.0375587,-1.57087,58.3556,0.284901,
2,0,0,1,0,56342.6,0.28376,0.283415,-1.04885,29,0.015404,10,-0.000297259,-2.97929,-0.0471662,-1.2509,50.7038,0.283415,
2,0,0,1,0,56342.6,0.282257,0.281847,-1.12475,29,0.0153834,10,-0.000317006,-2.94895,-0.0556793,-1.05964,45.9021,0.281847,
2,0,0,1,0,56342.7,0.28076,0.280411,-1.18829,29,0.0153616,10,-0.000333208,-2.92508,-0.0676973,-0.871526,40.066,0.280411,
2,0,0,1,0,56342.7,0.279264,0.278901,-1.2438,29,0.0153387,10,-0.000346897,-2.90525,-0.0763197,-0.773064,37.2969,0.278901,
2,0,0,1,0,56342.7,0.27776,0.277447,-1.29581,29,0.0153147,10,-0.000359518,-2.88746,-0.0823138,-0.716769,36.0375,0.2774466,
2,0,0,1,0,56342.7,0.276271,0.275919,-1.3441,29,0.01529,10,-0.000370864,-2.87157,-0.0922252,-0.639738,33.3952,0.275919,
2,0,0,1,0,56342.7,0.274767,0.274409,-1.38404,29,0.0152641,10,-0.000379793,-2.85885,-0.111117,-0.530969,28.6383,0.274409,
2,0,0,1,0,56342.8,0.273264,0.272911,-1.42321,29,0.0152375,10,-0.000388411,-2.84673,-0.118974,-0.495907,27.5631,0.272911,
2,0,0,1,0,56342.8,0.271776,0.271419,-1.45736,29,0.0152104,10,-0.000395556,-2.83643,-0.126841,-0.465151,26.5451,0.271419,
2,0,0,1,0,56342.8,0.270273,0.269928,-1.49951,29,0.0151823,10,-0.00040476,-2.82405,-0.146628,-0.402378,23.5654,0.269928,
2,0,0,1,0,56342.8,0.268769,0.268388,-1.53105,29,0.0151535,10,-0.000410916,-2.81501,-0.16729,-0.352681,21.1057,0.268388,
2,0,0,1,0,56342.8,0.26728,0.266951,-1.56043,29,0.0151245,10,-0.000416559,-2.80675,-0.185189,-0.318593,19.4645,0.266951,
2,0,0,1,0,56342.8,0.265777,0.265417,-1.59488,29,0.0150946,10,-0.000423307,-2.79727,-0.187609,-0.314483,19.5812,0.265417,
2,0,0,1,0,56342.9,0.26428,0.263924,-1.62526,29,0.0150642,10,-0.000428945,-2.78908,-0.203426,-0.290031,18.3611,0.263924,
2,0,0,1,0,56342.9,0.262784,0.262384,-1.65699,29,0.0150334,10,-0.000434768,-2.78068,-0.233099,-0.253111,16.3114,0.2623843,
2,0,0,1,0,56342.9,0.26128,0.260913,-1.68113,29,0.0150018,10,-0.000438627,-2.7744,-0.234423,-0.251681,16.4999,0.2609129,
2,0,0,1,0,56342.9,0.259791,0.259453,-1.70767,29,0.0149701,10,-0.000443061,-2.76759,-0.225747,-0.261354,17.4286,0.2594527,
2,0,0,1,0,56342.9,0.258287,0.257938,-1.73282,29,0.0149376,10,-0.00044696,-2.76125,-0.234428,-0.251676,17.0072,0.257938,
2,0,0,1,0,56343,0.256786,0.25644,-1.76023,29,0.0149046,10,-0.000451394,-2.75443,-0.246319,-0.239527,16.3884,0.25644,
2,0,0,1,0,56343,0.255296,0.254943,-1.78206,29,0.0148715,10,-0.000454325,-2.74908,-0.266016,-0.221791,15.3991,0.254943,
2,0,0,1,0,56343,0.253793,0.253411,-1.80212,29,0.0148377,10,-0.000456677,-2.74422,-0.266148,-0.221681,15.5746,0.253411,
2,0,0,1,0,56343,0.252289,0.251916,-1.82106,29,0.0148034,10,-0.000458755,-2.73967,-0.244093,-0.241712,17.206,0.2519156,
2,0,0,1,0,56343,0.2508,0.250436,-1.84519,29,0.0147691,10,-0.000462102,-2.73396,-0.268273,-0.219925,15.8287,0.250436,
2,0,0,1,0,56343.1,0.249296,0.248942,-1.86312,29,0.014734,10,-0.000463807,-2.72976,-0.293344,-0.201129,14.6523,0.248942,
2,0,0,1,0,56343.1,0.2478,0.247422,-1.87989,29,0.0146987,10,-0.000465127,-2.72587,-0.340615,-0.173216,12.7531,0.247422,
2,0,0,1,0,56343.1,0.246304,0.245932,-1.89832,29,0.0146631,10,-0.00046686,-2.72163,-0.321779,-0.183356,13.6214,0.245932,
2,0,0,1,0,56343.1,0.2448,0.244426,-1.92654,29,0.0146269,10,-0.000470898,-2.71522,-0.320792,-0.18392,13.8132,0.244426,
2,0,0,1,0,56343.1,0.243313,0.242935,-1.94492,29,0.0145907,10,-0.000472489,-2.7111,-0.417966,-0.14116,10.7121,0.242935,
2,0,0,1,0,56343.1,0.241809,0.24147,-1.96044,29,0.0145538,10,-0.000473387,-2.70765,-0.442226,-0.133416,10.2231,0.24147,
2,0,0,1,0,56343.2,0.240306,0.239929,-1.98123,29,0.0145166,10,-0.000475354,-2.70306,-0.427672,-0.137956,10.6605,0.239929,
2,0,0,1,0,56343.2,0.238816,0.238467,-2.00111,29,0.0144794,10,-0.000477197,-2.69873,-0.458237,-0.128754,10.0392,0.238467,
2,0,0,1,0,56343.2,0.237313,0.237001,-2.01788,29,0.0144414,10,-0.000478238,-2.69511,-0.470488,-0.125402,9.84026,0.237001,
2,0,0,1,0,56343.2,0.235809,0.235436,-2.03386,29,0.0144032,10,-0.000478843,-2.69168,-0.453928,-0.129976,10.3158,0.235436,
2,0,0,1,0,56343.2,0.23432,0.23397,-2.04834,29,0.0143651,10,-0.000479249,-2.6886,-0.403324,-0.146284,11.7173,0.23397,
2,0,0,1,0,56343.3,0.232816,0.232446,-2.07052,29,0.0143262,10,-0.000481284,-2.68392,-0.387433,-0.152284,12.2683,0.232446,
2,0,0,1,0,56343.3,0.23132,0.23095,-2.08605,29,0.0142872,10,-0.000481772,-2.68068,-0.391048,-0.150876,12.2577,0.23095,
2,0,0,1,0,56343.3,0.229824,0.229475,-2.10274,29,0.0142479,10,-0.000482526,-2.67722,-0.429982,-0.137215,11.2458,0.229475,
2,0,0,1,0,56343.3,0.22832,0.227985,-2.11141,29,0.0142081,10,-0.00048137,-2.67543,-0.383496,-0.153848,12.6966,0.227985,
2,0,0,1,0,56343.3,0.226833,0.226468,-2.12494,29,0.0141684,10,-0.000481232,-2.67265,-0.393578,-0.149907,12.4545,0.226468,
2,0,0,1,0,56343.4,0.225329,0.22496,-2.14683,29,0.014128,10,-0.00048295,-2.6682,-0.434452,-0.135803,11.3818,0.22496,
2,0,0,1,0,56343.4,0.223825,0.223454,-2.16252,29,0.0140873,10,-0.000483224,-2.66504,-0.459206,-0.128483,10.8522,0.223454,
2,0,0,1,0,56343.4,0.222336,0.221999,-2.17272,29,0.0140468,10,-0.000482341,-2.663,-0.46786,-0.126106,10.722,0.221999,
2,0,0,1,0,56343.4,0.220833,0.220459,-2.19111,29,0.0140055,10,-0.000483049,-2.65934,-0.436921,-0.135036,11.5604,0.220459,
2,0,0,1,0,56343.4,0.219329,0.219003,-2.2109,29,0.0139639,10,-0.000484193,-2.65543,-0.542739,-0.108708,9.3788,0.219003,
2,0,0,1,0,56343.4,0.21784,0.217528,-2.22843,29,0.0139224,10,-0.000484746,-2.652,-0.698206,-0.0845023,7.33076,0.2175281,
2,0,0,1,0,56343.5,0.216336,0.215955,-2.23831,29,0.0138803,10,-0.000483375,-2.65008,-0.721449,-0.0817798,7.14041,0.215955,
2,0,0,1,0,56343.5,0.21484,0.214478,-2.2562,29,0.0138381,10,-0.000483906,-2.64662,-0.749811,-0.0786865,6.92412,0.2144784,
2,0,0,1,0,56343.5,0.213343,0.21298,-2.27379,29,0.0137956,10,-0.000484272,-2.64325,-0.523669,-0.112667,9.98766,0.21298,
2,0,0,1,0,56343.5,0.21184,0.211482,-2.29015,29,0.0137526,10,-0.000484326,-2.64014,-0.537198,-0.109829,9.79146,0.211482,
2,0,0,1,0,56343.5,0.210352,0.209995,-2.30246,29,0.0137098,10,-0.000483504,-2.63781,-0.534271,-0.110431,9.92016,0.209995,
2,0,0,1,0,56343.6,0.208849,0.208475,-2.31537,29,0.0136662,10,-0.000482698,-2.63538,-0.406719,-0.145063,13.1215,0.208475,
2,0,0,1,0,56343.6,0.207345,0.20701,-2.33333,29,0.0136224,10,-0.000483021,-2.63202,-0.368974,-0.159903,14.555,0.20701,
2,0,0,1,0,56343.6,0.205856,0.20548,-2.35217,29,0.0135786,10,-0.000483324,-2.62853,-0.420388,-0.140346,12.844,0.20548,
2,0,0,1,0,56343.6,0.204353,0.203968,-2.36379,29,0.0135341,10,-0.000482138,-2.62639,-0.563208,-0.104757,9.66582,0.203968,
2,0,0,1,0,56343.6,0.202849,0.202484,-2.36919,29,0.0134894,10,-0.000479722,-2.6254,-0.547868,-0.10769,9.98881,0.202484,
2,0,0,1,0,56343.7,0.20136,0.200992,-2.38404,29,0.0134449,10,-0.000479172,-2.62269,-0.529272,-0.111474,10.3891,0.200992,
2,0,0,1,0,56343.7,0.199856,0.199512,-2.40078,29,0.0133997,10,-0.000478985,-2.61965,-0.514983,-0.114567,10.7482,0.199512,
2,0,0,1,0,56343.7,0.19836,0.197988,-2.41747,29,0.0133543,10,-0.000478629,-2.61664,-0.65142,-0.0905713,8.55228,0.197988,
2,0,0,1,0,56343.7,0.196863,0.19649,-2.4341,29,0.0133087,10,-0.000478276,-2.61366,-0.607209,-0.0971659,9.23493,0.19649,
2,0,0,1,0,56343.7,0.19536,0.195015,-2.45016,29,0.0132626,10,-0.000477818,-2.61081,-0.556099,-0.106096,10.1604,0.1950153,
2,0,0,1,0,56343.7,0.193872,0.193467,-2.47071,29,0.0132167,10,-0.000477999,-2.60718,-0.557968,-0.105741,10.1903,0.1934665,
2,0,0,1,0,56343.8,0.192369,0.191971,-2.4864,29,0.0131699,10,-0.000477317,-2.60443,-0.714731,-0.0825486,7.9947,0.191971,
2,0,0,1,0,56343.8,0.190865,0.190475,-2.50306,29,0.0131228,10,-0.000476771,-2.60153,-0.70081,-0.0841883,8.21493,0.190475,
2,0,0,1,0,56343.8,0.189376,0.189032,-2.52005,29,0.013076,10,-0.000476372,-2.59859,-0.640971,-0.0920478,9.03216,0.189032,
2,0,0,1,0,56343.8,0.187872,0.187516,-2.53376,29,0.0130284,10,-0.00047512,-2.59624,-0.517995,-0.113901,11.2627,0.187516,
2,0,0,1,0,56343.8,0.186369,0.186005,-2.55035,29,0.0129804,10,-0.000474379,-2.5934,-0.438877,-0.134434,13.3808,0.186005,
2,0,0,1,0,56343.9,0.18488,0.184506,-2.56909,29,0.0129326,10,-0.000474014,-2.59022,-0.436549,-0.135151,13.5383,0.184506,
2,0,0,1,0,56343.9,0.183376,0.18303,-2.58749,29,0.012884,10,-0.000473588,-2.58712,-0.4925,-0.119797,12.0821,0.18303,
2,0,0,1,0,56343.9,0.18188,0.181479,-2.60623,29,0.0128353,10,-0.000472977,-2.58399,-0.422218,-0.139738,14.2044,0.181479,
2,0,0,1,0,56343.9,0.180383,0.18,-2.6207,29,0.0127863,10,-0.000471726,-2.58158,-0.404892,-0.145718,14.8963,0.18,
2,0,0,1,0,56343.9,0.17888,0.17854,-2.64201,29,0.0127366,10,-0.000471705,-2.57807,-0.444334,-0.132783,13.6806,0.17854,
2,0,0,1,0,56344,0.177392,0.177048,-2.65552,29,0.0126871,10,-0.000470155,-2.57585,-0.427504,-0.13801,14.3344,0.177048,
2,0,0,1,0,56344,0.175889,0.175511,-2.67544,29,0.0126367,10,-0.000469569,-2.57261,-0.435147,-0.135586,14.1912,0.175511,
2,0,0,1,0,56344,0.174385,0.17402,-2.69776,29,0.0125859,10,-0.000469465,-2.569,-0.444969,-0.132593,13.9777,0.17402,
2,0,0,1,0,56344,0.172896,0.172523,-2.72154,29,0.0125353,10,-0.000469529,-2.56518,-0.501654,-0.117611,12.5035,0.172523,
2,0,0,1,0,56344,0.171392,0.171036,-2.73963,29,0.0124837,10,-0.000468575,-2.56231,-0.428614,-0.137653,14.7542,0.171036,
2,0,0,1,0,56344,0.169889,0.169509,-2.76854,29,0.0124317,10,-0.000469293,-2.55775,-0.408496,-0.144432,15.6293,0.169509,
2,0,0,1,0,56344.1,0.1684,0.168037,-2.79771,29,0.0123797,10,-0.000470119,-2.5532,-0.394668,-0.149493,16.3054,0.168037,
2,0,0,1,0,56344.1,0.166896,0.166485,-2.82847,29,0.0123267,10,-0.000470897,-2.54845,-0.40366,-0.146163,16.0799,0.166485,
2,0,0,1,0,56344.1,0.165392,0.165013,-2.85367,29,0.0122732,10,-0.000470893,-2.5446,-0.358907,-0.164388,18.2805,0.1650131,
2,0,0,1,0,56344.1,0.163905,0.16354,-2.87564,29,0.0122198,10,-0.000470283,-2.54126,-0.347885,-0.169596,19.0585,0.16354,
2,0,0,1,0,56344.1,0.162401,0.162079,-2.90557,29,0.0121652,10,-0.000470932,-2.53677,-0.290669,-0.20298,23.0482,0.162079,
2,0,0,1,0,56344.2,0.160905,0.160547,-2.943,29,0.0121104,10,-0.000472491,-2.53121,-0.2829,-0.208554,23.9116,0.160547,
2,0,0,1,0,56344.2,0.159409,0.159037,-2.97455,29,0.0120549,10,-0.000473062,-2.52658,-0.273891,-0.215414,24.9917,0.159037,
2,0,0,1,0,56344.2,0.157905,0.157532,-3.00701,29,0.0119985,10,-0.0004737,-2.52186,-0.258401,-0.228327,26.818,0.157532,
2,0,0,1,0,56344.2,0.156416,0.156075,-3.04701,29,0.011942,10,-0.000475564,-2.51613,-0.240593,-0.245228,29.1829,0.156075,
2,0,0,1,0,56344.2,0.154912,0.154534,-3.09526,29,0.0118841,10,-0.000478324,-2.5093,-0.222069,-0.265683,32.1109,0.154534,
2,0,0,1,0,56344.3,0.153409,0.15303,-3.13461,29,0.0118253,10,-0.00047969,-2.50382,-0.229642,-0.256921,31.4892,0.15303,
2,0,0,1,0,56344.3,0.151919,0.151551,-3.18123,29,0.0117663,10,-0.00048212,-2.4974,-0.226129,-0.260913,32.4854,0.151551,
2,0,0,1,0,56344.3,0.150416,0.150024,-3.23615,29,0.0117057,10,-0.000485501,-2.48997,-0.204053,-0.28914,36.6329,0.150024,
2,0,0,1,0,56344.3,0.148912,0.148546,-3.30084,29,0.0116439,10,-0.000490327,-2.48138,-0.188668,-0.312718,40.3114,0.148546,
2,0,0,1,0,56344.3,0.147425,0.14707,-3.36546,29,0.0115818,10,-0.00049496,-2.47296,-0.186382,-0.316555,41.678,0.14707,
2,0,0,1,0,56344.3,0.145921,0.145549,-3.43326,29,0.0115177,10,-0.000499707,-2.46429,-0.164838,-0.357928,48.0591,0.145549,
2,0,0,1,0,56344.4,0.144425,0.144075,-3.51838,29,0.0114525,10,-0.000506913,-2.45366,-0.146866,-0.401728,55.2599,0.144075,
2,0,0,1,0,56344.4,0.142929,0.142527,-3.60863,29,0.0113857,10,-0.000514326,-2.44266,-0.142841,-0.413047,58.1811,0.142527,
2,0,0,1,0,56344.4,0.141425,0.141063,-3.7047,29,0.0113168,10,-0.000522597,-2.43125,-0.132842,-0.444137,64.1638,0.141063,
2,0,0,1,0,56344.4,0.139936,0.139553,-3.80845,29,0.0112468,10,-0.000531482,-2.41925,-0.124604,-0.4735,70.3519,0.139553,
2,0,0,1,0,56344.4,0.138432,0.138091,-3.91219,29,0.0111742,10,-0.000540237,-2.40758,-0.115995,-0.508643,77.8376,0.138091,
2,0,0,1,0,56344.5,0.136929,0.136579,-4.03731,29,0.0110993,10,-0.00055141,-2.39391,-0.109997,-0.53638,84.5287,0.136579,
2,0,0,1,0,56344.5,0.135439,0.135035,-4.16785,29,0.0110229,10,-0.000562807,-2.38009,-0.103483,-0.570141,92.6555,0.135035,
2,0,0,1,0,56344.5,0.133936,0.133537,-4.30118,29,0.0109431,10,-0.000574366,-2.36641,-0.103434,-0.570413,95.7332,0.133537,
2,0,0,1,0,56344.5,0.132432,0.132026,-4.43861,29,0.0108607,10,-0.000586012,-2.35275,-0.105037,-0.561709,97.4929,0.132026,
2,0,0,1,0,56344.5,0.130945,0.130531,-4.58664,29,0.0107765,10,-0.000598697,-2.3385,-0.105707,-0.558146,99.9705,0.130531,
2,0,0,1,0,56344.6,0.129441,0.129095,-4.73728,29,0.0106886,10,-0.00061156,-2.32447,-0.110287,-0.534966,98.9985,0.1290952,
2,0,0,1,0,56344.6,0.127945,0.127577,-4.88874,29,0.0105983,10,-0.000623689,-2.3108,-0.111723,-0.528093,100.731,0.127577,
2,0,0,1,0,56344.6,0.126448,0.126053,-5.0386,29,0.0105052,10,-0.000635132,-2.29769,-0.115652,-0.51015,100.373,0.126053,
2,0,0,1,0,56344.6,0.124945,0.124608,-5.19378,29,0.0104088,10,-0.000647185,-2.28452,-0.120884,-0.488072,98.898,0.124608,
2,0,0,1,0,56344.6,0.123456,0.123109,-5.34193,29,0.0103105,10,-0.000657638,-2.2723,-0.127612,-0.46234,96.4017,0.123109,
2,0,0,1,0,56344.6,0.121952,0.1216,-5.49843,29,0.0102084,10,-0.000668609,-2.25976,-0.13076,-0.45121,96.6118,0.1216,
2,0,0,1,0,56344.7,0.120449,0.120113,-5.63731,29,0.0101036,10,-0.000677113,-2.24893,-0.139881,-0.421787,92.7404,0.120113,
2,0,0,1,0,56344.7,0.118959,0.118608,-5.78149,29,0.00999722,10,-0.000685729,-2.23796,-0.143705,-0.410564,92.4933,0.118608,
2,0,0,1,0,56344.7,0.117456,0.117089,-5.92014,29,0.00988711,10,-0.000693185,-2.22767,-0.149585,-0.394424,90.979,0.117089,
2,0,0,1,0,56344.7,0.115952,0.115598,-6.05286,29,0.00977443,10,-0.000699699,-2.21804,-0.161164,-0.366087,86.2943,0.115598,
2,0,0,1,0,56344.7,0.114465,0.114052,-6.17676,29,0.00966054,10,-0.00070447,-2.20924,-0.171353,-0.344318,82.861,0.114052,
2,0,0,1,0,56344.8,0.112961,0.112603,-6.29396,29,0.00954319,10,-0.00070872,-2.20108,-0.175802,-0.335605,82.4046,0.112603,
2,0,0,1,0,56344.8,0.111465,0.111143,-6.40327,29,0.00942424,10,-0.00071168,-2.1936,-0.186917,-0.315648,78.837,0.1111433,
2,0,0,1,0,56344.8,0.109968,0.109621,-6.51763,29,0.00930314,10,-0.000714469,-2.18591,-0.205603,-0.28696,72.947,0.109621,
2,0,0,1,0,56344.8,0.108465,0.108127,-6.62107,29,0.00917938,10,-0.000715917,-2.17907,-0.231053,-0.255353,65.929,0.108127,
2,0,0,1,0,56344.8,0.106976,0.106578,-6.71378,29,0.0090551,10,-0.000715543,-2.17303,-0.24598,-0.239857,62.8352,0.106578,
2,0,0,1,0,56344.9,0.105472,0.10507,-6.80036,29,0.00892776,10,-0.000714515,-2.16747,-0.268377,-0.21984,58.3802,0.10507,
2,0,0,1,0,56344.9,0.103968,0.103568,-6.88747,29,0.00879872,10,-0.000713319,-2.16194,-0.303385,-0.194472,52.2665,0.103568,
2,0,0,1,0,56344.9,0.102479,0.102087,-6.96592,29,0.00866958,10,-0.00071113,-2.15702,-0.355447,-0.165988,45.0841,0.102087,
2,0,0,1,0,56344.9,0.100976,0.100639,-7.02505,29,0.00853781,10,-0.000706992,-2.15335,-0.435238,-0.135558,37.1487,0.100639,
2,0,0,1,0,56344.9,0.0994721,0.0991356,-7.0808,29,0.00840493,10,-0.00070196,-2.14992,-0.49602,-0.118947,32.8482,0.0991356,
2,0,0,1,0,56344.9,0.0979846,0.0976332,-7.13519,29,0.00827253,10,-0.000696631,-2.14659,-0.591052,-0.099822,27.7367,0.0976332,
2,0,0,1,0,56345,0.0964811,0.0961004,-7.17209,29,0.00813789,10,-0.000689241,-2.14435,-0.7952,-0.0741952,20.73,0.0961004,
2,0,0,1,0,56345,0.0949847,0.0946463,-7.19746,29,0.00800338,10,-0.000681213,-2.14282,-1.23214,-0.047884,13.4304,0.0946463,
2,0,0,1,0,56345,0.0934883,0.0931231,-7.21747,29,0.00786851,10,-0.000672113,-2.14161,-1.67348,-0.0352558,9.91765,0.0931231,
2,0,0,1,0,56345,0.0919847,0.0916285,-7.22051,29,0.00773263,10,-0.000661605,-2.14143,-2.90976,-0.0202766,5.71127,0.0916285,
2,0,0,1,0,56345,0.0904955,0.0901315,-7.231,29,0.00759803,10,-0.000651741,-2.1408,7.51086,0.00785529,-2.21254,0.0901315,
2,0,0,1,0,56345.1,0.0889919,0.0886478,-7.22322,29,0.00746201,10,-0.000640323,-2.14127,2.89272,0.0203961,-5.74237,0.08864782,
2,0,0,1,0,56345.1,0.0874884,0.0871191,-7.20441,29,0.00732629,10,-0.000627642,-2.1424,1.5817,0.0373016,-10.4792,0.0871191,
2,0,0,1,0,56345.1,0.0860009,0.0856157,-7.1816,29,0.00719229,10,-0.000614858,-2.14378,1.39593,0.0422656,-11.8405,0.0856157,
2,0,0,1,0,56345.1,0.0844973,0.0841098,-7.15721,29,0.00705728,10,-0.000601991,-2.14526,1.08562,0.0543468,-15.1778,0.0841098,
2,0,0,1,0,56345.1,0.0829938,0.0826336,-7.12842,29,0.00692273,10,-0.000589047,-2.14701,0.863942,0.0682916,-18.9965,0.0826336,
2,0,0,1,0,56345.2,0.0815045,0.0811516,-7.09564,29,0.00679022,10,-0.000575823,-2.14901,0.709395,0.0831694,-23.0403,0.08115162,
2,0,0,1,0,56345.2,0.080001,0.0796509,-7.05551,29,0.00665693,10,-0.000561978,-2.15147,0.726468,0.0812149,-22.3826,0.0796509,
2,0,0,1,0,56345.2,0.0785046,0.0781522,-7.02964,29,0.00652495,10,-0.000549382,-2.15307,0.70637,0.0835256,-22.9191,0.07815218,
2,0,0,1,0,56345.2,0.0770082,0.0766242,-6.99955,29,0.00639359,10,-0.000536335,-2.15493,0.671538,0.087858,-23.9783,0.0766242,
2,0,0,1,0,56345.2,0.0755046,0.0751395,-6.96144,29,0.00626214,10,-0.000523079,-2.1573,0.617235,0.0955876,-25.9802,0.0751395,
2,0,0,1,0,56345.2,0.0740154,0.0736745,-6.93501,29,0.00613275,10,-0.000510933,-2.15895,0.715746,0.0824315,-22.3084,0.0736745,
2,0,0,1,0,56345.3,0.0725118,0.0721608,-6.90244,29,0.00600258,10,-0.000498086,-2.161,0.744167,0.0792832,-21.354,0.0721608,
2,0,0,1,0,56345.3,0.0710083,0.0706222,-6.87715,29,0.00587295,10,-0.00048568,-2.16259,0.829939,0.0710895,-19.0571,0.0706222,
2,0,0,1,0,56345.3,0.0695208,0.0691655,-6.84126,29,0.00574521,10,-0.000473179,-2.16486,0.863976,0.0682889,-18.2394,0.0691655,
2,0,0,1,0,56345.3,0.0680173,0.0676436,-6.81757,29,0.00561669,10,-0.000461165,-2.16637,1.00721,0.0585777,-15.595,0.06764359,
2,0,0,1,0,56345.3,0.0665137,0.0661636,-6.79257,29,0.00548862,10,-0.000449421,-2.16797,1.04512,0.0564528,-14.9623,0.0661636,
2,0,0,1,0,56345.4,0.0650244,0.0646874,-6.76236,29,0.00536234,10,-0.00043744,-2.1699,1.14441,0.0515551,-13.6159,0.0646874,
2,0,0,1,0,56345.4,0.0635209,0.0632095,-6.7392,29,0.00523517,10,-0.000425982,-2.17139,1.0035,0.0587945,-15.4739,0.0632095,
2,0,0,1,0,56345.4,0.0620245,0.061641,-6.71303,29,0.00510912,10,-0.000413798,-2.17308,1.04505,0.0564564,-14.8017,0.061641,
2,0,0,1,0,56345.4,0.0605281,0.0601716,-6.69399,29,0.00498353,10,-0.000402788,-2.17432,1.07979,0.0546403,-14.275,0.0601716,
2,0,0,1,0,56345.4,0.0590246,0.0586432,-6.67034,29,0.00485768,10,-0.00039117,-2.17585,1.06107,0.0556043,-14.4786,0.0586432,
2,0,0,1,0,56345.5,0.0575353,0.0571561,-6.64825,29,0.0047336,10,-0.000379988,-2.17729,0.848371,0.0695451,-18.0417,0.0571561,
2,0,0,1,0,56345.5,0.0560317,0.055668,-6.61678,29,0.00460867,10,-0.000368343,-2.17935,0.892122,0.0661345,-17.0966,0.055668,
2,0,0,1,0,56345.5,0.0545282,0.0541877,-6.59469,29,0.00448424,10,-0.000357351,-2.18081,0.950216,0.0620911,-15.9892,0.0541877,
2,0,0,1,0,56345.5,0.0530407,0.0526406,-6.57702,29,0.00436152,10,-0.000346218,-2.18197,0.848649,0.0695223,-17.8272,0.0526406,
2,0,0,1,0,56345.5,0.0515372,0.0511702,-6.55459,29,0.00423793,10,-0.0003354,-2.18345,0.73847,0.079895,-20.4093,0.0511702,
2,0,0,1,0,56345.5,0.0500336,0.0496586,-6.51694,29,0.00411486,10,-0.000323622,-2.18596,0.736495,0.0801092,-20.3837,0.04965857,
2,0,0,1,0,56345.6,0.0485444,0.0481906,-6.49834,29,0.00399368,10,-0.000313159,-2.1872,0.722173,0.0816979,-20.7069,0.0481906,
2,0,0,1,0,56345.6,0.0470408,0.0466803,-6.47045,29,0.00387168,10,-0.000302042,-2.18907,0.782889,0.0753619,-19.015,0.0466803,
2,0,0,1,0,56345.6,0.0455444,0.045194,-6.4415,29,0.00375084,10,-0.000291117,-2.19101,0.724631,0.0814208,-20.4512,0.045194,
2,0,0,1,0,56345.6,0.044048,0.0436965,-6.41103,29,0.00363055,10,-0.00028014,-2.19307,0.835264,0.0706364,-17.6639,0.0436965,
2,0,0,1,0,56345.6,0.0425445,0.04219,-6.38255,29,0.00351021,10,-0.00026928,-2.19501,0.793713,0.0743342,-18.5036,0.04219,
2,0,0,1,0,56345.7,0.0410552,0.0406845,-6.34908,29,0.00339171,10,-0.000258309,-2.19729,0.82895,0.0711744,-17.6247,0.0406845,
2,0,0,1,0,56345.7,0.0395516,0.0391537,-6.32088,29,0.00327247,10,-0.000247486,-2.19922,0.751642,0.0784948,-19.336,0.0391537,
2,0,0,1,0,56345.7,0.0380481,0.0376622,-6.28408,29,0.00315383,10,-0.000236672,-2.20176,0.696183,0.0847478,-20.7787,0.0376622,
2,0,0,1,0,56345.7,0.0365606,0.0361734,-6.2418,29,0.00303715,10,-0.000225787,-2.20469,0.680927,0.0866466,-21.1316,0.0361734,
2,0,0,1,0,56345.7,0.0350571,0.0346965,-6.20804,29,0.00291983,10,-0.000215397,-2.20705,0.63633,0.0927192,-22.4745,0.0346965,
2,0,0,1,0,56345.7,0.0335535,0.0331508,-6.1741,29,0.00280312,10,-0.000204676,-2.20943,0.585189,0.100822,-24.3004,0.0331508,
2,0,0,1,0,56345.8,0.0320643,0.0316879,-6.13929,29,0.00268836,10,-0.000194541,-2.21188,0.514216,0.114738,-27.4766,0.0316879,
2,0,0,1,0,56345.8,0.0305607,0.0301793,-6.09635,29,0.00257311,10,-0.000183983,-2.21493,0.50659,0.116465,-27.7267,0.0301793,
2,0,0,1,0,56345.8,0.0290643,0.0287315,-6.05865,29,0.00245922,10,-0.000174074,-2.21762,0.52346,0.112712,-26.6598,0.0287315,
2,0,0,1,0,56345.8,0.0275679,0.0271706,-6.02587,29,0.00234606,10,-0.000163727,-2.21998,0.49435,0.119349,-28.0464,0.0271706,
2,0,0,1,0,56345.8,0.0260644,0.0257013,-5.98701,29,0.00223301,10,-0.000153874,-2.22279,0.452618,0.130353,-30.4061,0.0257013,
2,0,0,1,0,56345.9,0.0245751,0.0242278,-5.93955,29,0.00212194,10,-0.000143902,-2.22625,0.442408,0.133361,-30.9087,0.0242278,
2,0,0,1,0,56345.9,0.0230716,0.022711,-5.89956,29,0.00201056,10,-0.000133985,-2.22918,0.473332,0.124648,-28.6834,0.022711,
2,0,0,1,0,56345.9,0.021568,0.0211953,-5.85504,29,0.00189995,10,-0.000124099,-2.23247,0.483278,0.122083,-27.8809,0.0211953,
2,0,0,1,0,56345.9,0.0200805,0.0197119,-5.81428,29,0.00179131,10,-0.000114611,-2.2355,0.493753,0.119493,-27.0845,0.0197119,
2,0,0,1,0,56345.9,0.018577,0.0181945,-5.77077,29,0.00168229,10,-0.000104996,-2.23877,0.51868,0.11375,-25.6055,0.0181945,
2,0,0,1,0,56346,0.0170735,0.0167176,-5.72524,29,0.00157408,10,-9.57123e-05,-2.24221,0.52979,0.111365,-24.9078,0.0167176,
2,0,0,1,0,56346,0.0155842,0.0152124,-5.68301,29,0.00146782,10,-8.64524e-05,-2.24542,0.501678,0.117605,-26.0945,0.0152124,
2,0,0,1,0,56346,0.0140806,0.0136854,-5.64754,29,0.00136111,10,-7.72891e-05,-2.24814,0.516385,0.114256,-25.1569,0.0136854,
2,0,0,1,0,56346,0.0125842,0.0122032,-5.60596,29,0.0012557,10,-6.84106e-05,-2.25135,0.496647,0.118797,-25.9958,0.0122032,
2,0,0,1,0,56346,0.0110878,0.010759,-5.55935,29,0.00115111,10,-5.98128e-05,-2.25498,0.501121,0.117736,-25.5835,0.010759,
2,0,0,1,0,56346,0.00958429,0.00922992,-5.5274,29,0.00104666,10,-5.10175e-05,-2.25748,0.554814,0.106342,-22.9509,0.00922992,
2,0,0,1,0,56346.1,0.0080968,0.00769714,-5.4905,29,0.000943969,10,-4.22612e-05,-2.26039,0.525875,0.112194,-24.058,0.00769714,
2,0,0,1,0,56346.1,0.00659326,0.00624037,-5.45719,29,0.000840784,10,-3.40549e-05,-2.26303,0.513269,0.114949,-24.5012,0.00624037,
2,0,0,1,0,56346.1,0.00508972,0.00473452,-5.42153,29,0.000738261,10,-2.56684e-05,-2.26588,0.559651,0.105423,-22.344,0.00473452,
2,0,0,1,0,56346.1,0.00360044,0.00323753,-5.40151,29,0.000637436,10,-1.74875e-05,-2.26748,0.963299,0.0612479,-12.9454,0.00323753,
2,0,0,1,0,56346.1,0.0020969,0.0017177,-5.40707,29,0.000535924,10,-9.28774e-06,-2.26704,0.921604,0.0640188,-13.4478,0.0017177,
2,0,0,1,0,56346.2,0.000593362,0.000185603,-5.3699,29,0.000434543,10,-9.9667e-07,-2.27003, , , ,0.000185603,
2,0,0,1,0,56346.2,0.000199195,-0.000187895,-5.35582,29,0.000408224,10,1.00633e-06,-2.27117, , , ,-0.000187895,