File: Figure_codes/Fig_3-5/rawdata_trumpetplot_data/after 10th/20221101_1-115_003_TrumpetPlot_ParaChange_from10_every3_03_CV_C01_33.csv
mode,ox/red,error,control changes,counter inc.,time/s,control/V,Ewe/V,<I>/mA,cycle number,(Q-Qo)/C,I Range,P/W,log(|I|),Tafel slope mV/dec,alpha_eff,dI/d(E-IR),E-IR/V,
2,0,0,1,0,65954.3,2.44065e-05,-0.000363498,-0.110207,34,0.0000000E+000,10,4.00599e-08,-3.95779, , , ,-0.000363498,
2,1,0,0,0,65954.6,0.00129787,0.000934439,0.122323,34,1.81462e-05,10,1.14304e-07,-3.91249, , , ,0.000934439,
2,1,0,0,0,65954.9,0.00279606,0.00243491,0.168341,34,6.69101e-05,10,4.09897e-07,-3.77381,0.0126731,4.65553,23.5799,0.00243491,
2,1,0,1,0,65955.2,0.00429469,0.00398662,0.179553,34,0.000122701,10,7.1581e-07,-3.74581,0.0515706,1.14406,7.88043,0.00398662,
2,1,0,1,0,65955.5,0.00579255,0.00549754,0.188174,34,0.000181898,10,1.0345e-06,-3.72544,0.0624666,0.944505,6.92221,0.00549754,
2,1,0,1,0,65955.8,0.00729041,0.00700193,0.198522,34,0.00024389,10,1.39004e-06,-3.70219,0.0864285,0.682646,5.25514,0.00700193,
2,1,0,1,0,65956.1,0.00878882,0.00846332,0.207097,34,0.000308539,10,1.75273e-06,-3.68383,0.100734,0.5857,4.69265,0.008463324,
2,1,0,1,0,65956.4,0.010287,0.00996274,0.213238,34,0.000375239,10,2.12443e-06,-3.67114,0.127328,0.463371,3.83232,0.00996274,
2,1,0,1,0,65956.7,0.0117852,0.0114537,0.217725,34,0.000443781,10,2.49375e-06,-3.66209,0.12868,0.458502,3.91456,0.0114537,
2,1,0,1,0,65957,0.0132836,0.0129555,0.223899,34,0.000513748,10,2.90072e-06,-3.64995,0.125224,0.471154,4.14661,0.0129555,
2,1,0,1,0,65957.3,0.0147815,0.0144482,0.229404,34,0.000585678,10,3.31448e-06,-3.6394,0.141028,0.418357,3.75117,0.0144482,
2,1,0,1,0,65957.6,0.0162793,0.0159524,0.234966,34,0.00065939,10,3.74826e-06,-3.629,0.169073,0.348961,3.19289,0.0159524,
2,1,0,0,0,65957.9,0.017778,0.0174545,0.239991,34,0.000734534,10,4.18892e-06,-3.61981,0.169799,0.34747,3.25798,0.0174545,
2,1,0,0,0,65958.2,0.0192761,0.018937,0.245394,34,0.0008109,10,4.64702e-06,-3.61014,0.180488,0.326891,3.12106,0.018937,
2,1,0,1,0,65958.5,0.0207747,0.0204357,0.249626,34,0.000888933,10,5.10129e-06,-3.60271,0.165587,0.356308,3.46328,0.0204357,
2,1,0,1,0,65958.8,0.0222725,0.021957,0.254772,34,0.000968406,10,5.59404e-06,-3.59385,0.195095,0.302417,3.01238,0.021957,
2,1,0,1,0,65959.1,0.0237704,0.0234634,0.259112,34,0.00104937,10,6.07965e-06,-3.58651,0.188801,0.312498,3.16559,0.0234634,
2,1,0,1,0,65959.4,0.0252689,0.0249293,0.263921,34,0.0011316,10,6.57938e-06,-3.57853,0.178135,0.33121,3.42346,0.0249293,
2,1,0,1,0,65959.7,0.0267671,0.0264171,0.26877,34,0.00121536,10,7.10011e-06,-3.57062,0.15081,0.391221,4.10098,0.0264171,
2,1,0,1,0,65960,0.0282657,0.027953,0.275105,34,0.00130082,10,7.69e-06,-3.5605,0.17422,0.338651,3.6315,0.027953,
2,1,0,1,0,65960.3,0.0297635,0.0294233,0.279387,34,0.00138768,10,8.22049e-06,-3.55379,0.21957,0.268707,2.93198,0.02942328,
2,1,0,1,0,65960.6,0.0312613,0.0309572,0.283357,34,0.00147593,10,8.77192e-06,-3.54767,0.201505,0.292796,3.24486,0.0309572,
2,1,0,0,0,65960.9,0.0327599,0.0324412,0.289332,34,0.00156559,10,9.38628e-06,-3.5386,0.185454,0.318138,3.59295,0.0324412,
2,1,0,0,0,65961.2,0.034258,0.0339417,0.295619,34,0.00165695,10,1.00338e-05,-3.52927,0.196642,0.300037,3.44772,0.0339417,
2,1,0,1,0,65961.5,0.0357567,0.0354481,0.300023,34,0.00174987,10,1.06352e-05,-3.52285,0.219631,0.268633,3.13323,0.0354481,
2,1,0,1,0,65961.8,0.0372545,0.0369239,0.304642,34,0.00184419,10,1.12486e-05,-3.51621,0.208314,0.283226,3.36892,0.0369239,
2,1,0,1,0,65962.1,0.0387524,0.0383973,0.309467,34,0.0019398,10,1.18827e-05,-3.50939,0.189442,0.311442,3.76837,0.0383973,
2,1,0,1,0,65962.4,0.0402508,0.0399426,0.313695,34,0.00203704,10,1.25298e-05,-3.50349,0.21818,0.270419,3.32109,0.0399426,
2,1,0,1,0,65962.7,0.041749,0.0414579,0.320107,34,0.00213603,10,1.3271e-05,-3.4947,0.238125,0.247769,3.07704,0.0414579,
2,1,0,1,0,65963,0.0432472,0.042899,0.32425,34,0.00223626,10,1.391e-05,-3.48912,0.261122,0.225948,2.85481,0.042899,
2,1,0,1,0,65963.3,0.0447456,0.0444294,0.328325,34,0.0023376,10,1.45873e-05,-3.4837,0.240607,0.245213,3.14632,0.0444294,
2,1,0,1,0,65963.6,0.0462435,0.0459552,0.333642,34,0.00244046,10,1.53326e-05,-3.47672,0.213072,0.276902,3.59596,0.04595517,
2,1,0,1,0,65963.9,0.0477413,0.0474467,0.337556,34,0.00254479,10,1.60159e-05,-3.47165,0.251104,0.234962,3.09923,0.0474467,
2,1,0,0,0,65964.2,0.0492399,0.0489146,0.342588,34,0.00265062,10,1.67576e-05,-3.46523,0.290452,0.203131,2.71318,0.0489146,
2,1,0,0,0,65964.5,0.0507381,0.0504151,0.345553,34,0.00275747,10,1.74211e-05,-3.46149,0.271991,0.216919,2.94249,0.0504151,
2,1,0,1,0,65964.8,0.0522367,0.0519075,0.351206,34,0.00286572,10,1.82302e-05,-3.45444,0.24564,0.240189,3.28703,0.05190748,
2,1,0,1,0,65965.1,0.0537345,0.0534268,0.356556,34,0.00297547,10,1.90496e-05,-3.44787,0.27053,0.218091,3.02046,0.0534268,
2,1,0,1,0,65965.4,0.0552323,0.0549236,0.359247,34,0.00308652,10,1.97311e-05,-3.44461,0.341784,0.172624,2.41739,0.0549236,
2,1,0,1,0,65965.7,0.0567309,0.0564149,0.362125,34,0.00319865,10,2.04293e-05,-3.44114,0.327374,0.180222,2.55537,0.0564149,
2,1,0,1,0,65966,0.0582291,0.0579175,0.368187,34,0.00331184,10,2.13244e-05,-3.43393,0.319934,0.184413,2.64476,0.0579175,
2,1,0,1,0,65966.3,0.0597277,0.0593792,0.37175,34,0.00342651,10,2.20742e-05,-3.42975,0.337264,0.174937,2.53439,0.0593792,
2,1,0,1,0,65966.6,0.0612255,0.0608929,0.375485,34,0.00354238,10,2.28644e-05,-3.42541,0.436593,0.135137,1.97559,0.0608929,
2,1,0,1,0,65966.9,0.0627233,0.0623941,0.378783,34,0.00365934,10,2.36338e-05,-3.42161,0.366048,0.161181,2.38946,0.0623941,
2,1,0,0,0,65967.2,0.0642218,0.063947,0.38138,34,0.00377712,10,2.43881e-05,-3.41864,0.328678,0.179507,2.68684,0.06394697,
2,1,0,0,0,65967.5,0.06572,0.0654156,0.386714,34,0.00389624,10,2.52971e-05,-3.41261,0.349789,0.168673,2.54266,0.0654156,
2,1,0,1,0,65967.8,0.0672187,0.0668955,0.390777,34,0.00401668,10,2.61412e-05,-3.40807,0.398714,0.147976,2.24457,0.0668955,
2,1,0,1,0,65968.1,0.0687165,0.0683965,0.393188,34,0.00413791,10,2.68926e-05,-3.4054,0.488339,0.120818,1.85232,0.0683965,
2,1,0,1,0,65968.4,0.0702144,0.0698702,0.395182,34,0.00425973,10,2.76114e-05,-3.4032,0.374706,0.157457,2.43546,0.0698702,
2,1,0,1,0,65968.7,0.0717128,0.0713794,0.399426,34,0.00438267,10,2.85108e-05,-3.39856,0.35628,0.1656,2.57621,0.0713794,
2,1,0,1,0,65969,0.073211,0.0728873,0.402821,34,0.00450674,10,2.93605e-05,-3.39489,0.443629,0.132994,2.08766,0.0728873,
2,1,0,1,0,65969.3,0.0747092,0.0744185,0.404714,34,0.00463157,10,3.01182e-05,-3.39285,0.536991,0.109871,1.73494,0.0744185,
2,1,0,1,0,65969.6,0.0762076,0.0758522,0.407001,34,0.00475703,10,3.08719e-05,-3.3904,0.434755,0.135709,2.16002,0.0758522,
2,1,0,1,0,65969.9,0.0777054,0.0773514,0.410415,34,0.00488331,10,3.17462e-05,-3.38678,0.410859,0.143602,2.29804,0.0773514,
2,1,0,1,0,65970.2,0.0792033,0.0788822,0.414903,34,0.00501075,10,3.27284e-05,-3.38205,0.468264,0.125997,2.03202,0.0788822,
2,1,0,0,0,65970.5,0.0807019,0.0803949,0.416307,34,0.00513903,10,3.3469e-05,-3.38059,0.562547,0.10488,1.70424,0.0803949,
2,1,0,0,0,65970.8,0.0822001,0.0819209,0.41856,34,0.00526815,10,3.42888e-05,-3.37824,0.454437,0.129831,2.12551,0.0819209,
2,1,0,1,0,65971.1,0.0836987,0.0833696,0.422393,34,0.00539797,10,3.52148e-05,-3.37428,0.436283,0.135233,2.2357,0.0833696,
2,1,0,1,0,65971.4,0.0851965,0.0849122,0.425257,34,0.00552885,10,3.61095e-05,-3.37135,0.411489,0.143382,2.38728,0.0849122,
2,1,0,1,0,65971.7,0.0866944,0.0863435,0.429913,34,0.00566101,10,3.71202e-05,-3.36662,0.424932,0.138846,2.32598,0.0863435,
2,1,0,1,0,65972,0.0881929,0.087875,0.434246,34,0.0057943,10,3.81593e-05,-3.36226,0.459268,0.128465,2.17845,0.087875,
2,1,0,1,0,65972.3,0.0896911,0.0893957,0.439081,34,0.00592851,10,3.92519e-05,-3.35746,0.351944,0.16764,2.87229,0.0893957,
2,1,0,1,0,65972.6,0.0911897,0.0908828,0.443377,34,0.0060643,10,4.02953e-05,-3.35323,0.275123,0.214449,3.70698,0.0908828,
2,1,0,1,0,65972.9,0.0926875,0.0923742,0.449059,34,0.00620194,10,4.14815e-05,-3.3477,0.269123,0.219231,3.83966,0.0923742,
2,1,0,1,0,65973.2,0.0941853,0.0938735,0.455085,34,0.00634113,10,4.27204e-05,-3.34191,0.28748,0.205232,3.64809,0.0938735,
2,1,0,0,0,65973.4,0.0956838,0.0953774,0.459432,34,0.00648182,10,4.38194e-05,-3.33778,0.249586,0.236391,4.25525,0.0953774,
2,1,0,0,0,65973.7,0.097182,0.0968493,0.46741,34,0.00662463,10,4.52684e-05,-3.3303,0.204474,0.288545,5.25816,0.0968493,
2,1,0,1,0,65974,0.0986807,0.0983702,0.474819,34,0.00676962,10,4.6708e-05,-3.32347,0.224522,0.262781,4.8664,0.0983702,
2,1,0,1,0,65974.3,0.100179,0.0998566,0.481946,34,0.00691688,10,4.81255e-05,-3.317,0.221312,0.266592,5.00583,0.0998566,
2,1,0,1,0,65974.6,0.101676,0.101346,0.487638,34,0.0070662,10,4.94203e-05,-3.3119,0.215453,0.273841,5.23513,0.101346,
2,1,0,1,0,65974.9,0.103175,0.102856,0.497199,34,0.00721774,10,5.11402e-05,-3.30347,0.220109,0.268049,5.20576,0.102856,
2,1,0,1,0,65975.2,0.104673,0.104345,0.506367,34,0.0073719,10,5.2837e-05,-3.29553,0.22064,0.267404,5.26394,0.104345,
2,1,0,1,0,65975.5,0.106171,0.105852,0.513627,34,0.00752852,10,5.43685e-05,-3.28935,0.261018,0.226038,4.51714,0.105852,
2,1,0,1,0,65975.8,0.10767,0.107339,0.519367,34,0.00768734,10,5.57482e-05,-3.28453,0.233508,0.252668,5.13063,0.107339,
2,1,0,1,0,65976.1,0.109167,0.108859,0.526908,34,0.00784798,10,5.73588e-05,-3.27827,0.265329,0.222365,4.58423,0.108859,
2,1,0,1,0,65976.4,0.110665,0.110342,0.534833,34,0.008011,10,5.90147e-05,-3.27178,0.28113,0.209867,4.37912,0.110342,
2,1,0,0,0,65976.7,0.112164,0.111814,0.541607,34,0.00817619,10,6.05591e-05,-3.26632,0.334092,0.176598,3.72137,0.111814,
2,1,0,0,0,65977,0.113662,0.11331,0.548048,34,0.00834314,10,6.20993e-05,-3.26118,0.370481,0.159253,3.39702,0.11331,
2,1,0,1,0,65977.3,0.115161,0.114879,0.552556,34,0.00851139,10,6.34769e-05,-3.25762,0.393456,0.149953,3.23217,0.114879,
2,1,0,1,0,65977.6,0.116658,0.116313,0.557165,34,0.00868147,10,6.48056e-05,-3.25402,0.367498,0.160545,3.47737,0.116313,
2,1,0,1,0,65977.9,0.118156,0.117815,0.561841,34,0.00885314,10,6.61933e-05,-3.25039,0.484364,0.121809,2.66812,0.117815,
2,1,0,1,0,65978.2,0.119655,0.119319,0.565777,34,0.00902585,10,6.75081e-05,-3.24735,0.726211,0.0812436,1.79369,0.119319,
2,1,0,1,0,65978.5,0.121153,0.120842,0.567225,34,0.00919927,10,6.85446e-05,-3.24624,0.680413,0.0867121,1.9239,0.120842,
2,1,0,1,0,65978.8,0.122652,0.122335,0.571182,34,0.00937378,10,6.98758e-05,-3.24323,0.565202,0.104388,2.32438,0.122335,
2,1,0,1,0,65979.1,0.124149,0.123791,0.574165,34,0.00954922,10,7.10765e-05,-3.24096,0.665633,0.0886375,1.98518,0.123791,
2,1,0,1,0,65979.4,0.125647,0.125333,0.576476,34,0.00972541,10,7.22512e-05,-3.23922,1.12058,0.0526511,1.18281,0.125333,
2,1,0,0,0,65979.7,0.127146,0.126842,0.575816,34,0.00990219,10,7.30375e-05,-3.23972,1.19559,0.0493479,1.1118,0.1268418,
2,1,0,0,0,65980,0.128644,0.128318,0.578664,34,0.0100791,10,7.4253e-05,-3.23757,2.50373,0.0235649,0.531774,0.128318,
2,1,0,1,0,65980.3,0.130143,0.129818,0.579876,34,0.0102566,10,7.52782e-05,-3.23666,-6.33922,-0.00930714,-0.209971,0.129818,
2,1,0,1,0,65980.6,0.13164,0.131292,0.577442,34,0.0104339,10,7.58138e-05,-3.23849,-0.636691,-0.0926666,-2.08044,0.131292,
2,1,0,1,0,65980.9,0.133138,0.132805,0.573815,34,0.0106104,10,7.62057e-05,-3.24123,-0.430104,-0.137176,-3.06743,0.132805,
2,1,0,1,0,65981.2,0.134637,0.134301,0.568547,34,0.0107854,10,7.63562e-05,-3.24523,-0.301386,-0.195762,-4.338,0.134301,
2,1,0,1,0,65981.5,0.136135,0.135837,0.562212,34,0.0109587,10,7.63692e-05,-3.2501,-0.237646,-0.248268,-5.42859,0.135837,
2,1,0,1,0,65981.8,0.137633,0.137343,0.553441,34,0.0111295,10,7.60112e-05,-3.25693,-0.161876,-0.364477,-7.81415,0.137343,
2,1,0,1,0,65982.1,0.139132,0.138834,0.540435,34,0.011297,10,7.50308e-05,-3.26726,-0.135386,-0.435791,-9.13335,0.138834,
2,1,0,1,0,65982.4,0.140629,0.140297,0.525953,34,0.0114601,10,7.37897e-05,-3.27905,-0.112422,-0.524806,-10.7007,0.140297,
2,1,0,1,0,65982.7,0.142127,0.141826,0.508516,34,0.0116186,10,7.21209e-05,-3.2937,-0.104108,-0.566718,-11.1835,0.141826,
2,1,0,0,0,65983,0.143626,0.143313,0.489789,34,0.0117721,10,7.01932e-05,-3.30999,-0.086683,-0.680641,-12.9698,0.143313,
2,1,0,0,0,65983.3,0.145124,0.144809,0.469725,34,0.0119195,10,6.80205e-05,-3.32816,-0.079512,-0.742027,-13.6028,0.144809,
2,1,0,1,0,65983.6,0.146623,0.146307,0.447813,34,0.0120606,10,6.55182e-05,-3.3489,-0.0777907,-0.758445,-13.2952,0.146307,
2,1,0,1,0,65983.9,0.14812,0.147774,0.428904,34,0.0121957,10,6.3381e-05,-3.36764,-0.0835713,-0.705984,-11.8341,0.147774,
2,1,0,1,0,65984.2,0.149618,0.149312,0.411452,34,0.0123253,10,6.14349e-05,-3.38568,-0.0807756,-0.730419,-11.7473,0.149312,
2,1,0,1,0,65984.5,0.151117,0.150839,0.394165,34,0.0124497,10,5.94554e-05,-3.40432,-0.081694,-0.722207,-11.1338,0.150839,
2,1,0,1,0,65984.8,0.152615,0.152288,0.377368,34,0.0125692,10,5.74687e-05,-3.42324,-0.0934257,-0.631518,-9.37714,0.152288,
2,1,0,1,0,65985.1,0.154114,0.153771,0.36631,34,0.0126844,10,5.6328e-05,-3.43615,-0.111066,-0.531218,-7.65041,0.153771,
2,1,0,1,0,65985.4,0.155612,0.155318,0.356682,34,0.0127963,10,5.53991e-05,-3.44772,-0.126127,-0.467784,-6.52433,0.155318,
2,1,0,1,0,65985.7,0.157109,0.156828,0.346457,34,0.0129053,10,5.43344e-05,-3.46035,-0.131808,-0.447622,-6.07395,0.156828,
2,1,0,0,0,65986,0.158608,0.15831,0.339499,34,0.0130117,10,5.37462e-05,-3.46916,-0.156928,-0.375968,-5.00285,0.15831,
2,1,0,0,0,65986.3,0.160106,0.159792,0.332538,34,0.0131157,10,5.31368e-05,-3.47816,-0.206806,-0.285292,-3.72036,0.159792,
2,1,0,1,0,65986.6,0.161605,0.161292,0.327634,34,0.0132183,10,5.28446e-05,-3.48461,-0.251588,-0.23451,-3.00228,0.161292,
2,1,0,1,0,65986.9,0.163102,0.162782,0.323652,34,0.0133195,10,5.26849e-05,-3.48992,-0.268657,-0.219611,-2.77286,0.162782,
2,1,0,1,0,65987.2,0.1646,0.164271,0.320354,34,0.0134194,10,5.26249e-05,-3.49437,-0.2742,-0.215172,-2.68632,0.164271,
2,1,0,1,0,65987.5,0.166099,0.165783,0.315534,34,0.0135181,10,5.23103e-05,-3.50095,-0.346148,-0.170448,-2.1049,0.165783,
2,1,0,1,0,65987.8,0.167597,0.167252,0.313595,34,0.0136159,10,5.24494e-05,-3.50363,-0.558161,-0.105704,-1.29266,0.167252,
2,1,0,1,0,65988.1,0.169095,0.168752,0.310678,34,0.013713,10,5.24276e-05,-3.50769,-0.437805,-0.134763,-1.63898,0.168752,
2,1,0,1,0,65988.4,0.170594,0.170242,0.308078,34,0.0138094,10,5.24479e-05,-3.51134,-0.36198,-0.162992,-1.96423,0.170242,
2,1,0,1,0,65988.7,0.172091,0.171779,0.305488,34,0.0139049,10,5.24764e-05,-3.51501,-0.654563,-0.0901364,-1.08006,0.171779,
2,1,0,1,0,65989,0.173589,0.173281,0.305002,34,0.0139999,10,5.28511e-05,-3.5157,-0.756151,-0.0780267,-0.926801,0.173281,
2,1,0,0,0,65989.3,0.175088,0.174769,0.303725,34,0.0140944,10,5.30817e-05,-3.51752,-0.613129,-0.0962278,-1.1366,0.174769,
2,1,0,0,0,65989.6,0.176586,0.176282,0.301676,34,0.0141886,10,5.318e-05,-3.52046,-0.562676,-0.104856,-1.23327,0.1762822,
2,1,0,1,0,65989.9,0.178085,0.17776,0.298998,34,0.0142822,10,5.31498e-05,-3.52433,-0.716798,-0.0823105,-0.96549,0.17776,
2,1,0,1,0,65990.2,0.179582,0.17925,0.298954,34,0.0143754,10,5.35876e-05,-3.5244,-1.21247,-0.0486611,-0.569471,0.1792503,
2,1,0,1,0,65990.5,0.18108,0.180713,0.297137,34,0.0144684,10,5.36967e-05,-3.52704,-0.877589,-0.0672296,-0.782217,0.180713,
2,1,0,1,0,65990.8,0.182579,0.182249,0.297257,34,0.0145612,10,5.41749e-05,-3.52687,-0.844363,-0.0698752,-0.809919,0.1822491,
2,1,0,1,0,65991.1,0.184077,0.183722,0.297207,34,0.0146537,10,5.46035e-05,-3.52694,-0.875044,-0.0674252,-0.780542,0.183722,
2,1,0,1,0,65991.4,0.185576,0.185278,0.294899,34,0.0147458,10,5.46384e-05,-3.53033,-2.21642,-0.0266196,-0.307049,0.185278,
2,1,0,1,0,65991.7,0.187074,0.186774,0.295832,34,0.0148378,10,5.52537e-05,-3.52896,-1.60692,-0.0367162,-0.422856,0.186774,
2,1,0,1,0,65992,0.188571,0.188234,0.294187,34,0.0149297,10,5.53759e-05,-3.53138,-4.57346,-0.0129005,-0.148157,0.188234,
2,1,0,0,0,65992.3,0.19007,0.18975,0.292933,34,0.0150213,10,5.55842e-05,-3.53323,-1.11061,-0.0531238,-0.608394,0.18975,
2,1,0,0,0,65992.6,0.191568,0.191231,0.293707,34,0.0151126,10,5.61659e-05,-3.53208,-1.42093,-0.0415221,-0.475513,0.191231,
2,1,0,1,0,65992.9,0.193067,0.192739,0.292292,34,0.0152038,10,5.6336e-05,-3.53418,-337.763,-0.000174678,-0.00198851,0.192739,
2,1,0,1,0,65993.2,0.194564,0.194279,0.292636,34,0.0152951,10,5.6853e-05,-3.53367,-2.24361,-0.026297,-0.299136,0.194279,
2,1,0,1,0,65993.5,0.196062,0.195758,0.291906,34,0.015386,10,5.71431e-05,-3.53476,-1.34431,-0.0438887,-0.499786,0.195758,
2,1,0,1,0,65993.8,0.197561,0.19724,0.289589,34,0.0154767,10,5.71186e-05,-3.53822,-2.20088,-0.0268074,-0.304601,0.19724,
2,1,0,1,0,65994.1,0.199059,0.198704,0.291443,34,0.0155673,10,5.7911e-05,-3.53545,-2.04479,-0.0288538,-0.326994,0.198704,
2,1,0,1,0,65994.4,0.200557,0.200219,0.290017,34,0.0156578,10,5.80668e-05,-3.53758,-6.09187,-0.00968504,-0.109626,0.200219,
2,1,0,1,0,65994.7,0.202056,0.201755,0.290402,34,0.0157483,10,5.85903e-05,-3.537,-2.06869,-0.0285205,-0.322456,0.201755,
2,1,0,1,0,65995,0.203553,0.203237,0.289044,34,0.0158386,10,5.87442e-05,-3.53904,-2.72619,-0.0216419,-0.245078,0.203237,
2,1,0,1,0,65995.3,0.205051,0.204715,0.288358,34,0.0159287,10,5.9031e-05,-3.54007,1.72502,0.0342024,0.388022,0.204715,
2,1,0,0,0,65995.6,0.20655,0.206237,0.288939,34,0.0160188,10,5.95897e-05,-3.53919,-5.47651,-0.0107733,-0.121438,0.206237,
2,1,0,0,0,65995.9,0.208048,0.207719,0.28868,34,0.0161091,10,5.99642e-05,-3.53958,-1.07143,-0.0550668,-0.619134,0.207719,
2,1,0,1,0,65996.2,0.209547,0.209244,0.288416,34,0.016199,10,6.03493e-05,-3.53998,-1.6802,-0.0351148,-0.39548,0.209244,
2,1,0,1,0,65996.5,0.211044,0.21072,0.288423,34,0.0162886,10,6.07765e-05,-3.53997,-2.86512,-0.0205925,-0.231338,0.21072,
2,1,0,1,0,65996.8,0.212542,0.212228,0.287629,34,0.0163782,10,6.10431e-05,-3.54117,4.19375,0.0140686,0.157311,0.212228,
2,1,0,1,0,65997.1,0.214041,0.213752,0.287337,34,0.0164678,10,6.14187e-05,-3.54161,-2.60817,-0.0226212,-0.253323,0.213752,
2,1,0,1,0,65997.4,0.215539,0.215207,0.286278,34,0.0165572,10,6.1609e-05,-3.54321,-2.45479,-0.0240346,-0.268984,0.215207,
2,1,0,1,0,65997.7,0.217038,0.21669,0.285734,34,0.0166463,10,6.19158e-05,-3.54404,-2.96291,-0.0199129,-0.222825,0.21669,
2,1,0,1,0,65998,0.218535,0.218229,0.285086,34,0.0167355,10,6.22139e-05,-3.54502,4.11071,0.0143527,0.159953,0.218229,
2,1,0,1,0,65998.3,0.220033,0.219723,0.28618,34,0.0168246,10,6.28803e-05,-3.54336,-2.31493,-0.0254868,-0.284663,0.219723,
2,1,0,0,0,65998.6,0.221532,0.221226,0.28566,34,0.0169137,10,6.31955e-05,-3.54415,-2.19068,-0.0269322,-0.300284,0.221226,
2,1,0,0,0,65998.9,0.22303,0.222788,0.284216,34,0.0170026,10,6.332e-05,-3.54635,-1.75522,-0.033614,-0.373452,0.222788,
2,1,0,1,0,65999.2,0.224529,0.224183,0.285512,34,0.0170914,10,6.4007e-05,-3.54438,-2.56418,-0.0230093,-0.255586,0.224183,
2,1,0,1,0,65999.5,0.226026,0.22573,0.285603,34,0.0171801,10,6.44693e-05,-3.54424,-2.29632,-0.0256932,-0.285443,0.22573,
2,1,0,1,0,65999.8,0.227524,0.22716,0.28447,34,0.0172688,10,6.46202e-05,-3.54596,-1.02076,-0.0578003,-0.640517,0.22716,
2,1,0,1,0,66000.1,0.229023,0.228701,0.283662,34,0.0173573,10,6.48739e-05,-3.5472,-1.17,-0.0504273,-0.56022,0.228701,
2,1,0,1,0,66000.4,0.230521,0.230211,0.282891,34,0.0174456,10,6.51246e-05,-3.54838,109.17,0.000540444,0.0059988,0.230211,
2,1,0,1,0,66000.7,0.232019,0.23174,0.283015,34,0.0175339,10,6.5586e-05,-3.54819,-4.18862,-0.0140858,-0.155988,0.23174,
2,1,0,1,0,66001,0.233518,0.233171,0.283113,34,0.0176222,10,6.60138e-05,-3.54804,-2.64085,-0.0223413,-0.246464,0.233171,
2,1,0,1,0,66001.3,0.235015,0.234684,0.282586,34,0.0177103,10,6.63184e-05,-3.54885,-10.8187,-0.00545354,-0.0601415,0.234684,
2,1,0,1,0,66001.6,0.236513,0.236203,0.283249,34,0.0177981,10,6.69043e-05,-3.54783,-2.64303,-0.0223228,-0.245914,0.236203,
2,1,0,0,0,66001.9,0.238012,0.237747,0.282356,34,0.0178861,10,6.71292e-05,-3.5492,5.34063,0.0110474,0.121342,0.237747,
2,1,0,0,0,66002.2,0.23951,0.239204,0.281729,34,0.0179739,10,6.73905e-05,-3.55017,-2.15256,-0.0274093,-0.301891,0.239204,
2,1,0,1,0,66002.5,0.241009,0.240645,0.280983,34,0.0180616,10,6.76171e-05,-3.55132,-2.90668,-0.020298,-0.223194,0.240645,
2,1,0,1,0,66002.8,0.242506,0.242187,0.281096,34,0.0181492,10,6.8078e-05,-3.55114,-3.33024,-0.0177165,-0.194622,0.242187,
2,1,0,1,0,66003.1,0.244004,0.243668,0.280935,34,0.0182366,10,6.84551e-05,-3.55139,-10.048,-0.00587179,-0.0642879,0.243668,
2,1,0,1,0,66003.4,0.245503,0.245173,0.281305,34,0.0183241,10,6.89682e-05,-3.55082,-3.57223,-0.0165163,-0.180863,0.245173,
2,1,0,1,0,66003.7,0.247001,0.246701,0.280204,34,0.0184115,10,6.91264e-05,-3.55253,-2.34108,-0.025202,-0.275072,0.246701,
2,1,0,1,0,66004,0.2485,0.24817,0.279403,34,0.0184988,10,6.93397e-05,-3.55377,-4.98966,-0.0118244,-0.12895,0.24817,
2,1,0,1,0,66004.3,0.249997,0.249692,0.280623,34,0.0185858,10,7.00693e-05,-3.55188,-3.35471,-0.0175872,-0.192122,0.249692,
2,1,0,1,0,66004.6,0.251495,0.251185,0.279459,34,0.0186729,10,7.01958e-05,-3.55368,-2.40453,-0.024537,-0.267754,0.251185,
2,1,0,0,0,66004.9,0.252994,0.252677,0.278999,34,0.0187599,10,7.04967e-05,-3.5544,-0.922925,-0.0639272,-0.695676,0.252677,
2,1,0,0,0,66005.2,0.254492,0.254171,0.278583,34,0.0188467,10,7.08077e-05,-3.55505,-1.7543,-0.0336317,-0.366055,0.254171,
2,1,0,1,0,66005.5,0.255991,0.255674,0.277995,34,0.0189334,10,7.10763e-05,-3.55596,21.8253,0.00270328,0.0294492,0.255674,
2,1,0,1,0,66005.8,0.257488,0.25724,0.277785,34,0.01902,10,7.14575e-05,-3.55629,-5.51591,-0.0106963,-0.116067,0.25724,
2,1,0,1,0,66006.1,0.258986,0.25869,0.278681,34,0.0191067,10,7.20921e-05,-3.55489,-4.52576,-0.0130365,-0.141241,0.2586903,
2,1,0,1,0,66006.4,0.260485,0.260173,0.277509,34,0.0191932,10,7.22004e-05,-3.55672,-1.54157,-0.0382727,-0.414634,0.260173,
2,1,0,1,0,66006.7,0.261983,0.261681,0.277584,34,0.0192795,10,7.26385e-05,-3.5566,-1.72567,-0.0341896,-0.369538,0.261681,
2,1,0,1,0,66007,0.263481,0.263178,0.277074,34,0.0193658,10,7.29199e-05,-3.5574,3.28121,0.0179812,0.193637,0.263178,
2,1,0,1,0,66007.3,0.26498,0.264682,0.276159,34,0.0194521,10,7.30945e-05,-3.55884,-7.07844,-0.00833517,-0.0900756,0.264682,
2,1,0,1,0,66007.6,0.266477,0.266196,0.276561,34,0.0195382,10,7.36196e-05,-3.55821,-6.21109,-0.00949914,-0.102586,0.266196,
2,1,0,0,0,66007.9,0.267976,0.267651,0.275105,34,0.0196241,10,7.36322e-05,-3.5605,16.9178,0.00348744,0.0376453,0.267651,
2,1,0,0,0,66008.2,0.269474,0.269159,0.275123,34,0.01971,10,7.40517e-05,-3.56047,47.7525,0.00123554,0.0132755,0.269159,
2,1,0,0,0,66008.5,0.270972,0.270668,0.276395,34,0.0197958,10,7.48112e-05,-3.55847,-2.15994,-0.0273156,-0.292845,0.270668,
2,1,0,1,0,66008.8,0.27247,0.272199,0.274914,34,0.0198816,10,7.48312e-05,-3.5608,-9.40018,-0.00627647,-0.0671687,0.272199,
2,1,0,1,0,66009.1,0.273968,0.273683,0.273594,34,0.0199671,10,7.4878e-05,-3.56289,-1.961,-0.0300867,-0.321876,0.273683,
2,1,0,1,0,66009.4,0.275466,0.275191,0.274511,34,0.0200525,10,7.5543e-05,-3.56144,-1.96392,-0.030042,-0.321439,0.275191,
2,1,0,1,0,66009.7,0.276965,0.276706,0.273715,34,0.0201379,10,7.57386e-05,-3.5627,-12.5471,-0.00470228,-0.0502141,0.276706,
2,1,0,1,0,66010,0.278463,0.278144,0.273971,34,0.0202232,10,7.62034e-05,-3.56229,-0.800174,-0.073734,-0.785995,0.278144,
2,1,0,1,0,66010.3,0.279962,0.279673,0.272449,34,0.0203083,10,7.61967e-05,-3.56471,-1.50375,-0.0392353,-0.417873,0.279673,
2,1,0,1,0,66010.6,0.281459,0.281145,0.27199,34,0.0203931,10,7.64686e-05,-3.56545,-3.67645,-0.0160481,-0.170996,0.281145,
2,1,0,1,0,66010.9,0.282957,0.282651,0.2729,34,0.0204781,10,7.71354e-05,-3.564,-16.9867,-0.00347331,-0.0368297,0.282651,
2,1,0,0,0,66011.2,0.284456,0.284136,0.271959,34,0.020563,10,7.72733e-05,-3.5655,-2.59771,-0.0227123,-0.241268,0.284136,
2,1,0,0,0,66011.5,0.285954,0.285603,0.271711,34,0.0206477,10,7.76015e-05,-3.56589,-2.6565,-0.0222096,-0.23498,0.285603,
2,1,0,0,0,66011.8,0.287452,0.287153,0.270751,34,0.0207321,10,7.77471e-05,-3.56743,-5.70627,-0.0103395,-0.10945,0.287153,
2,1,0,1,0,66012.1,0.28895,0.288626,0.271219,34,0.0208165,10,7.82809e-05,-3.56668,5.85234,0.0100814,0.106123,0.288626,
2,1,0,1,0,66012.4,0.290448,0.290149,0.270206,34,0.0209009,10,7.84001e-05,-3.56831,35.1665,0.00167774,0.0177239,0.290149,
2,1,0,1,0,66012.7,0.291947,0.291622,0.270168,34,0.0209851,10,7.87869e-05,-3.56837,-3.989,-0.0147907,-0.155918,0.291622,
2,1,0,1,0,66013,0.293445,0.293129,0.268422,34,0.0210692,10,7.86825e-05,-3.57118,-3.58018,-0.0164796,-0.173712,0.293129,
2,1,0,1,0,66013.3,0.294943,0.294624,0.270757,34,0.0211532,10,7.97713e-05,-3.56742,4.7796,0.0123441,0.129948,0.294624,
2,1,0,1,0,66013.6,0.296442,0.296168,0.270475,34,0.0212373,10,8.01059e-05,-3.56787,-6.23363,-0.0094648,-0.099459,0.296168,
2,1,0,1,0,66013.9,0.297939,0.29762,0.269601,34,0.0213213,10,8.02386e-05,-3.56928,-3.16303,-0.018653,-0.196053,0.29762,
2,1,0,1,0,66014.2,0.299437,0.299151,0.269142,34,0.0214051,10,8.05141e-05,-3.57002,-0.00292946,-20.1402,-113.243,0.299151,
2,1,0,1,0,66014.4,0.299737,0.299427,0.138228,34,0.0214451,10,4.13894e-05,-3.8594,0.00101837,57.9355,209.847,0.299427,
2,1,0,1,0,66014.7,0.29824,0.297906,0.0269721,34,0.0214602,10,8.03513e-06,-4.56909,0.00137354,42.9545,71.8129,0.297906,
2,1,0,0,0,66015,0.296741,0.296427,0.00647582,34,0.0214615,10,1.91961e-06,-5.1887,0.00654361,9.01643,12.5562,0.296427,
2,1,0,0,0,66015.3,0.295243,0.29493,-0.00692059,34,0.021458,10,-2.04109e-06,-5.15986,-0.0239044,-2.46816,7.52218,0.29493,
2,0,0,1,0,66015.6,0.293744,0.293445,-0.0164046,34,0.0214514,10,-4.81384e-06,-4.78504,-0.0042857,-13.7667,5.74731,0.293445,
2,0,0,1,0,66015.9,0.292246,0.291933,-0.0235013,34,0.0214424,10,-6.8608e-06,-4.62891,-0.00945986,-6.23688,5.08018,0.2919333,
2,0,0,1,0,66016.2,0.290749,0.290434,-0.0303909,34,0.0214311,10,-8.82656e-06,-4.51726,-0.014151,-4.16932,4.57989,0.290434,
2,0,0,1,0,66016.5,0.28925,0.288902,-0.0354051,34,0.0214178,10,-1.02286e-05,-4.45093,-0.0206525,-2.8568,3.94654,0.2889016,
2,0,0,1,0,66016.8,0.287752,0.287462,-0.0414989,34,0.0214028,10,-1.19293e-05,-4.38196,-0.0278732,-2.11673,3.44599,0.287462,
2,0,0,1,0,66017.1,0.286253,0.285949,-0.0467807,34,0.0213863,10,-1.33769e-05,-4.32993,-0.0332416,-1.77488,3.25292,0.285949,
2,0,0,1,0,66017.4,0.284755,0.284455,-0.05159,34,0.0213682,10,-1.4675e-05,-4.28743,-0.0360785,-1.63532,3.26056,0.284455,
2,0,0,1,0,66017.7,0.283257,0.282951,-0.0570267,34,0.0213487,10,-1.61358e-05,-4.24392,-0.0461669,-1.27797,2.79055,0.282951,
2,0,0,0,0,66018,0.281759,0.281433,-0.0603267,34,0.0213279,10,-1.69779e-05,-4.21949,-0.0531914,-1.1092,2.59339,0.281433,
2,0,0,0,0,66018.3,0.280261,0.279923,-0.0630681,34,0.021306,10,-1.76542e-05,-4.20019,-0.0514935,-1.14578,2.84884,0.279923,
2,0,0,0,0,66018.6,0.278763,0.278447,-0.0676508,34,0.021283,10,-1.88372e-05,-4.16973,-0.0648175,-0.910248,2.41649,0.278447,
2,0,0,1,0,66018.9,0.277264,0.276947,-0.0729108,34,0.0212587,10,-2.01924e-05,-4.13721,-0.0719342,-0.820194,2.28288,0.276947,
2,0,0,1,0,66019.2,0.275766,0.275451,-0.0756232,34,0.0212333,10,-2.08305e-05,-4.12135,-0.0887968,-0.664438,1.92544,0.275451,
2,0,0,1,0,66019.5,0.274269,0.273925,-0.077901,34,0.021207,10,-2.1339e-05,-4.10846,-0.0818746,-0.720614,2.21469,0.273925,
2,0,0,1,0,66019.8,0.27277,0.272455,-0.0806311,34,0.0211799,10,-2.19683e-05,-4.0935,-0.0846995,-0.69658,2.22461,0.272455,
2,0,0,1,0,66020.1,0.271272,0.27097,-0.0847329,34,0.0211517,10,-2.29601e-05,-4.07195,-0.101136,-0.583373,1.92253,0.27097,
2,0,0,1,0,66020.4,0.269773,0.269432,-0.087628,34,0.0211225,10,-2.36098e-05,-4.05736,-0.106995,-0.551428,1.87972,0.269432,
2,0,0,1,0,66020.7,0.268275,0.267909,-0.0904533,34,0.0210925,10,-2.42332e-05,-4.04358,-0.116503,-0.506426,1.78093,0.267909,
2,0,0,1,0,66021,0.266778,0.266456,-0.0933474,34,0.0210618,10,-2.4873e-05,-4.0299,-0.103972,-0.56746,2.06336,0.266456,
2,0,0,0,0,66021.3,0.265279,0.264968,-0.0958296,34,0.0210301,10,-2.53918e-05,-4.0185,-0.107628,-0.548185,2.02798,0.264968,
2,0,0,0,0,66021.6,0.263781,0.263477,-0.0981264,34,0.0209977,10,-2.58541e-05,-4.00821,-0.131503,-0.448659,1.72149,0.2634773,
2,0,0,1,0,66021.9,0.262282,0.261954,-0.101119,34,0.0209644,10,-2.64886e-05,-3.99517,-0.12813,-0.460471,1.80744,0.2619541,
2,0,0,1,0,66022.2,0.260784,0.260476,-0.10275,34,0.0209305,10,-2.6764e-05,-3.98822,-0.123153,-0.479077,1.92767,0.260476,
2,0,0,1,0,66022.5,0.259287,0.258972,-0.10534,34,0.0208958,10,-2.72802e-05,-3.97741,-0.121712,-0.484752,2.00276,0.258972,
2,0,0,1,0,66022.8,0.257788,0.257517,-0.109335,34,0.0208602,10,-2.81556e-05,-3.96124,-0.143891,-0.410033,1.73079,0.257517,
2,0,0,1,0,66023.1,0.25629,0.255958,-0.110991,34,0.0208239,10,-2.84091e-05,-3.95471,-0.173787,-0.339497,1.46253,0.255958,
2,0,0,1,0,66023.4,0.254791,0.254468,-0.111722,34,0.0207871,10,-2.84297e-05,-3.95186,-0.169301,-0.348493,1.5251,0.254468,
2,0,0,1,0,66023.7,0.253293,0.252994,-0.115113,34,0.0207496,10,-2.9123e-05,-3.93887,-0.17899,-0.329628,1.47797,0.252994,
2,0,0,1,0,66024,0.251795,0.251466,-0.11703,34,0.0207114,10,-2.9429e-05,-3.9317,-0.173804,-0.339463,1.5545,0.251466,
2,0,0,0,0,66024.3,0.250297,0.249966,-0.118853,34,0.0206726,10,-2.97093e-05,-3.92499,-0.194981,-0.302593,1.40128,0.249966,
2,0,0,0,0,66024.6,0.248799,0.24849,-0.121233,34,0.0206331,10,-3.0125e-05,-3.91638,-0.190519,-0.30968,1.46038,0.24849,
2,0,0,0,0,66024.9,0.247301,0.246986,-0.124023,34,0.0205931,10,-3.0632e-05,-3.9065,-0.19128,-0.308449,1.49193,0.246986,
2,0,0,1,0,66025.2,0.245802,0.245518,-0.126101,34,0.0205525,10,-3.09601e-05,-3.89928,-0.198539,-0.297171,1.44873,0.245518,
2,0,0,1,0,66025.5,0.244304,0.244034,-0.127486,34,0.0205111,10,-3.11109e-05,-3.89454,-0.271257,-0.217506,1.07928,0.244034,
2,0,0,1,0,66025.8,0.242806,0.242471,-0.129946,34,0.0204692,10,-3.1508e-05,-3.88624,-0.226627,-0.260339,1.31729,0.242471,
2,0,0,1,0,66026.1,0.241308,0.240989,-0.131358,34,0.020427,10,-3.16558e-05,-3.88154,-0.355403,-0.166009,0.851714,0.240989,
2,0,0,1,0,66026.4,0.23981,0.239487,-0.13289,34,0.020384,10,-3.18254e-05,-3.87651,-0.218372,-0.270182,1.39925,0.239487,
2,0,0,1,0,66026.7,0.238311,0.237973,-0.135298,34,0.0203405,10,-3.21972e-05,-3.86871,-0.24212,-0.243681,1.2812,0.237973,
2,0,0,1,0,66027,0.236813,0.236481,-0.136897,34,0.0202964,10,-3.23734e-05,-3.86361,-0.254653,-0.231688,1.23247,0.236481,
2,0,0,1,0,66027.3,0.235316,0.234995,-0.138533,34,0.0202519,10,-3.25546e-05,-3.85845,-0.285083,-0.206957,1.11523,0.234995,
2,0,0,0,0,66027.6,0.233817,0.233485,-0.139736,34,0.0202069,10,-3.26263e-05,-3.85469,-0.25953,-0.227334,1.24547,0.233485,
2,0,0,0,0,66027.9,0.232319,0.23203,-0.142122,34,0.0201613,10,-3.29764e-05,-3.84734,-0.305409,-0.193184,1.06397,0.23203,
2,0,0,1,0,66028.2,0.23082,0.230516,-0.143428,34,0.020115,10,-3.30626e-05,-3.84337,-0.360537,-0.163645,0.910593,0.230516,
2,0,0,1,0,66028.5,0.229322,0.228974,-0.144863,34,0.0200683,10,-3.31698e-05,-3.83904,-0.316183,-0.186601,1.05681,0.228974,
2,0,0,1,0,66028.8,0.227825,0.227499,-0.147037,34,0.0200212,10,-3.34507e-05,-3.83257,-0.328854,-0.179411,1.03125,0.2274991,
2,0,0,1,0,66029.1,0.226326,0.226017,-0.14889,34,0.0199735,10,-3.36517e-05,-3.82714,-0.311352,-0.189496,1.09867,0.226017,
2,0,0,1,0,66029.4,0.224828,0.224526,-0.149888,34,0.0199251,10,-3.36538e-05,-3.82423,-0.455396,-0.129558,0.758889,0.224526,
2,0,0,1,0,66029.7,0.223329,0.223019,-0.15207,34,0.0198763,10,-3.39144e-05,-3.81796,-0.338378,-0.174361,1.03776,0.223019,
2,0,0,1,0,66030,0.221831,0.221486,-0.15426,34,0.0198272,10,-3.41664e-05,-3.81175,-0.240112,-0.245719,1.4714,0.221486,
2,0,0,1,0,66030.3,0.220333,0.219997,-0.155771,34,0.0197773,10,-3.42691e-05,-3.80751,-0.231044,-0.255362,1.54937,0.219997,
2,0,0,0,0,66030.6,0.218835,0.218526,-0.157628,34,0.0197267,10,-3.44457e-05,-3.80237,-0.315496,-0.187007,1.14831,0.2185256,
2,0,0,0,0,66030.9,0.217337,0.217006,-0.159093,34,0.0196758,10,-3.45241e-05,-3.79835,-0.398045,-0.148225,0.922539,0.217006,
2,0,0,0,0,66031.2,0.215839,0.215515,-0.159881,34,0.0196245,10,-3.44569e-05,-3.7962,-0.312017,-0.189092,1.188,0.215515,
2,0,0,1,0,66031.5,0.21434,0.214048,-0.16289,34,0.0195726,10,-3.48664e-05,-3.7881,-0.242576,-0.243222,1.53873,0.214048,
2,0,0,1,0,66031.7,0.212842,0.212521,-0.163781,34,0.0195201,10,-3.48068e-05,-3.78574,-0.298666,-0.197545,1.26755,0.2125206,
2,0,0,1,0,66032,0.211344,0.211054,-0.165968,34,0.0194671,10,-3.50283e-05,-3.77997,-0.452901,-0.130271,0.84265,0.211054,
2,0,0,1,0,66032.3,0.209846,0.209542,-0.166102,34,0.0194137,10,-3.48054e-05,-3.77962,-0.345879,-0.17058,1.11804,0.209542,
2,0,0,1,0,66032.6,0.208348,0.20803,-0.169997,34,0.0193599,10,-3.53643e-05,-3.76956,-0.279853,-0.210825,1.39489,0.20803,
2,0,0,1,0,66032.9,0.206849,0.206499,-0.172914,34,0.0193052,10,-3.57067e-05,-3.76217,-0.371655,-0.158749,1.06042,0.206499,
2,0,0,1,0,66033.2,0.205351,0.205008,-0.173179,34,0.01925,10,-3.5503e-05,-3.76151,-0.441518,-0.13363,0.897245,0.205008,
2,0,0,1,0,66033.5,0.203854,0.203563,-0.17382,34,0.0191945,10,-3.53833e-05,-3.7599,-0.348986,-0.169061,1.15165,0.203563,
2,0,0,0,0,66033.8,0.202355,0.202051,-0.174786,34,0.0191386,10,-3.53157e-05,-3.75749,-0.356616,-0.165444,1.13846,0.202051,
2,0,0,0,0,66034.1,0.200857,0.200581,-0.177021,34,0.0190821,10,-3.55071e-05,-3.75198,-0.314725,-0.187465,1.30322,0.2005814,
2,0,0,1,0,66034.4,0.199358,0.199046,-0.180298,34,0.0190249,10,-3.58875e-05,-3.74401,-0.420819,-0.140203,0.98007,0.1990456,
2,0,0,1,0,66034.7,0.19786,0.197537,-0.181151,34,0.0189673,10,-3.57841e-05,-3.74196,-0.311936,-0.189141,1.3384,0.197537,
2,0,0,1,0,66035,0.196362,0.196053,-0.183509,34,0.0189092,10,-3.59774e-05,-3.73634,-0.32844,-0.179637,1.2805,0.196053,
2,0,0,1,0,66035.3,0.194864,0.194511,-0.185905,34,0.0188503,10,-3.61604e-05,-3.73071,-0.318539,-0.185221,1.334,0.194511,
2,0,0,1,0,66035.6,0.193366,0.193016,-0.18689,34,0.0187908,10,-3.60728e-05,-3.72841,-0.313079,-0.188451,1.37604,0.193016,
2,0,0,1,0,66035.9,0.191867,0.191556,-0.189202,34,0.0187308,10,-3.62428e-05,-3.72307,-0.422665,-0.13959,1.03504,0.191556,
2,0,0,1,0,66036.2,0.190369,0.190027,-0.190509,34,0.0186704,10,-3.62019e-05,-3.72008,-0.352077,-0.167577,1.24653,0.190027,
2,0,0,1,0,66036.5,0.188871,0.18854,-0.192567,34,0.0186094,10,-3.63065e-05,-3.71542,-0.24649,-0.239361,1.7929,0.18854,
2,0,0,0,0,66036.8,0.187373,0.187043,-0.194404,34,0.0185476,10,-3.6362e-05,-3.71129,-0.252574,-0.233595,1.77977,0.187043,
2,0,0,0,0,66037.1,0.185875,0.185575,-0.196835,34,0.0184852,10,-3.65276e-05,-3.7059,-0.37923,-0.155578,1.195,0.185575,
2,0,0,0,0,66037.4,0.184377,0.184067,-0.198652,34,0.0184222,10,-3.65651e-05,-3.70191,-0.356364,-0.165561,1.28427,0.184067,
2,0,0,1,0,66037.7,0.182878,0.182576,-0.201924,34,0.0183586,10,-3.68666e-05,-3.69481,-0.292061,-0.202013,1.58709,0.182576,
2,0,0,1,0,66038,0.181381,0.181069,-0.203812,34,0.0182943,10,-3.69041e-05,-3.69077,-0.354456,-0.166452,1.32434,0.181069,
2,0,0,1,0,66038.3,0.179882,0.179571,-0.206012,34,0.0182291,10,-3.69937e-05,-3.68611,-0.409932,-0.143926,1.15334,0.179571,
2,0,0,1,0,66038.6,0.178384,0.178076,-0.208172,34,0.0181634,10,-3.70705e-05,-3.68158,-0.339617,-0.173725,1.41369,0.1780764,
2,0,0,1,0,66038.9,0.176886,0.176559,-0.210845,34,0.0180971,10,-3.72266e-05,-3.67604,-0.290154,-0.20334,1.67555,0.176559,
2,0,0,1,0,66039.2,0.175387,0.175068,-0.213196,34,0.0180299,10,-3.73238e-05,-3.67122,-0.265697,-0.222057,1.84896,0.175068,
2,0,0,1,0,66039.5,0.173889,0.173562,-0.216481,34,0.0179618,10,-3.7573e-05,-3.66458,-0.285044,-0.206986,1.74487,0.173562,
2,0,0,1,0,66039.8,0.172392,0.172095,-0.219692,34,0.0178928,10,-3.78079e-05,-3.65819,-0.287564,-0.205172,1.75604,0.172095,
2,0,0,0,0,66040.1,0.170893,0.170555,-0.221699,34,0.0178232,10,-3.78119e-05,-3.65424,-0.274294,-0.215098,1.86176,0.170555,
2,0,0,0,0,66040.4,0.169395,0.169098,-0.224516,34,0.0177526,10,-3.79651e-05,-3.64875,-0.187215,-0.315145,2.76221,0.169098,
2,0,0,1,0,66040.7,0.167896,0.167598,-0.227871,34,0.017681,10,-3.81908e-05,-3.64231,-0.239076,-0.246783,2.19664,0.167598,
2,0,0,1,0,66041,0.166398,0.166041,-0.231833,34,0.0176084,10,-3.84936e-05,-3.63483,-0.268458,-0.219774,1.99017,0.166041,
2,0,0,1,0,66041.3,0.164901,0.164575,-0.233525,34,0.0175349,10,-3.84322e-05,-3.63167,-0.194014,-0.304101,2.79214,0.164575,
2,0,0,1,0,66041.6,0.163402,0.163113,-0.238999,34,0.0174603,10,-3.89838e-05,-3.6216,-0.198472,-0.297271,2.77075,0.163113,
2,0,0,1,0,66041.9,0.161904,0.161602,-0.243346,34,0.0173844,10,-3.93252e-05,-3.61378,-0.194614,-0.303164,2.86538,0.161602,
2,0,0,1,0,66042.2,0.160405,0.160085,-0.246946,34,0.0173073,10,-3.95323e-05,-3.6074,-0.204833,-0.28804,2.77482,0.1600848,
2,0,0,1,0,66042.5,0.158907,0.158582,-0.249527,34,0.0172291,10,-3.95705e-05,-3.60288,-0.177788,-0.331855,3.26068,0.158582,
2,0,0,1,0,66042.8,0.157409,0.15706,-0.255656,34,0.0171496,10,-4.01535e-05,-3.59234,-0.1649,-0.357792,3.5786,0.15706,
2,0,0,0,0,66043.1,0.155911,0.155583,-0.261272,34,0.0170684,10,-4.06494e-05,-3.58291,-0.157644,-0.374262,3.82942,0.155583,
2,0,0,0,0,66043.4,0.154413,0.154114,-0.26666,34,0.0169854,10,-4.10962e-05,-3.57404,-0.189368,-0.311563,3.24289,0.1541144,
2,0,0,0,0,66043.7,0.152915,0.15259,-0.273165,34,0.0169009,10,-4.16821e-05,-3.56358,-0.157358,-0.374941,4.00572,0.15259,
2,0,0,1,0,66044,0.151416,0.151063,-0.279827,34,0.0168146,10,-4.22716e-05,-3.55311,-0.132489,-0.44532,4.87069,0.151063,
2,0,0,1,0,66044.3,0.149919,0.149564,-0.287191,34,0.0167261,10,-4.29533e-05,-3.54183,-0.129323,-0.456221,5.11148,0.149564,
2,0,0,1,0,66044.6,0.14842,0.148142,-0.294766,34,0.0166351,10,-4.36673e-05,-3.53052,-0.123244,-0.478725,5.51839,0.148142,
2,0,0,1,0,66044.9,0.146922,0.146616,-0.303809,34,0.0165415,10,-4.45434e-05,-3.5174,-0.111207,-0.530544,6.30143,0.146616,
2,0,0,1,0,66045.2,0.145424,0.145118,-0.314061,34,0.0164454,10,-4.55758e-05,-3.50299,-0.0983086,-0.600151,7.37095,0.145118,
2,0,0,1,0,66045.5,0.143925,0.143595,-0.324817,34,0.0163457,10,-4.6642e-05,-3.48836,-0.0865891,-0.681379,8.65705,0.143595,
2,0,0,1,0,66045.8,0.142427,0.142079,-0.338536,34,0.0162422,10,-4.80989e-05,-3.47039,-0.0862263,-0.684246,9.04126,0.142079,
2,0,0,1,0,66046.1,0.14093,0.140596,-0.350972,34,0.0161349,10,-4.93452e-05,-3.45473,-0.088796,-0.664444,9.14542,0.140596,
2,0,0,0,0,66046.4,0.139431,0.139117,-0.364839,34,0.0160235,10,-5.07553e-05,-3.4379,-0.0886241,-0.665733,9.50619,0.139117,
2,0,0,0,0,66046.7,0.137933,0.137602,-0.382022,34,0.0159078,10,-5.25669e-05,-3.41791,-0.0862456,-0.684093,10.173,0.137602,
2,0,0,1,0,66047,0.136434,0.136095,-0.397097,34,0.0157873,10,-5.40428e-05,-3.4011,-0.0840732,-0.701769,10.8571,0.136095,
2,0,0,1,0,66047.3,0.134936,0.1346,-0.413894,34,0.015662,10,-5.571e-05,-3.38311,-0.0900339,-0.655308,10.5445,0.1346,
2,0,0,1,0,66047.6,0.133439,0.133111,-0.428886,34,0.0155318,10,-5.70896e-05,-3.36766,-0.087491,-0.674355,11.3105,0.1331113,
2,0,0,1,0,66047.9,0.13194,0.131614,-0.445375,34,0.0153967,10,-5.86174e-05,-3.35127,-0.0918817,-0.64213,11.2103,0.131614,
2,0,0,1,0,66048.2,0.130442,0.130098,-0.462833,34,0.0152564,10,-6.02138e-05,-3.33458,-0.0953425,-0.618822,11.1893,0.1300983,
2,0,0,1,0,66048.5,0.128943,0.128621,-0.480745,34,0.0151108,10,-6.18337e-05,-3.31809,-0.107683,-0.547906,10.2296,0.128621,
2,0,0,1,0,66048.8,0.127445,0.127122,-0.49589,34,0.0149606,10,-6.30383e-05,-3.30461,-0.116388,-0.506925,9.78756,0.127122,
2,0,0,1,0,66049.1,0.125947,0.125636,-0.510924,34,0.0148062,10,-6.41906e-05,-3.29164,-0.125746,-0.469201,9.3214,0.1256364,
2,0,0,0,0,66049.4,0.124449,0.124084,-0.524874,34,0.0146472,10,-6.51283e-05,-3.27994,-0.142258,-0.414739,8.44329,0.124084,
2,0,0,0,0,66049.7,0.122951,0.122658,-0.535869,34,0.0144843,10,-6.57289e-05,-3.27094,-0.167633,-0.35196,7.34003,0.122658,
2,0,0,0,0,66050,0.121453,0.12108,-0.546254,34,0.0143181,10,-6.61401e-05,-3.26261,-0.208855,-0.282492,6.0104,0.12108,
2,0,0,1,0,66050.3,0.119954,0.119591,-0.553209,34,0.0141492,10,-6.61587e-05,-3.25711,-0.245383,-0.240441,5.19702,0.119591,
2,0,0,1,0,66050.6,0.118456,0.118147,-0.562081,34,0.0139778,10,-6.6408e-05,-3.2502,-0.245542,-0.240285,5.25339,0.118147,
2,0,0,1,0,66050.9,0.116958,0.116609,-0.569592,34,0.013804,10,-6.64195e-05,-3.24444,-0.359024,-0.164334,3.63962,0.116609,
2,0,0,1,0,66051.2,0.11546,0.115161,-0.572437,34,0.0136287,10,-6.59226e-05,-3.24227,-0.665289,-0.0886833,1.98058,0.115161,
2,0,0,1,0,66051.5,0.113962,0.113606,-0.573409,34,0.0134526,10,-6.51425e-05,-3.24154,-0.879722,-0.0670666,1.50362,0.113606,
2,0,0,1,0,66051.8,0.112463,0.112149,-0.577999,34,0.0132759,10,-6.48218e-05,-3.23807,-0.96152,-0.0613612,1.38056,0.112149,
2,0,0,1,0,66052.1,0.110965,0.110605,-0.579161,34,0.0130986,10,-6.40581e-05,-3.2372,-1.2923,-0.045655,1.02845,0.110605,
2,0,0,1,0,66052.4,0.109468,0.109104,-0.57833,34,0.0129209,10,-6.30981e-05,-3.23782,2.77998,0.0212231,-0.478279,0.109104,
2,0,0,0,0,66052.7,0.107969,0.107659,-0.578328,34,0.0127432,10,-6.22622e-05,-3.23783,3.49835,0.0168651,-0.381072,0.107659,
2,0,0,0,0,66053,0.106471,0.106172,-0.576053,34,0.0125663,10,-6.11609e-05,-3.23954,7.25533,0.00813195,-0.183778,0.106172,
2,0,0,1,0,66053.3,0.104972,0.104683,-0.577242,34,0.012389,10,-6.04275e-05,-3.23864,7.87659,0.00749055,-0.168748,0.104683,
2,0,0,1,0,66053.6,0.103474,0.103165,-0.576294,34,0.0122118,10,-5.94533e-05,-3.23936,1.19948,0.0491878,-1.10522,0.103165,
2,0,0,1,0,66053.9,0.101977,0.101644,-0.576692,34,0.0120351,10,-5.8617e-05,-3.23906,1.4996,0.0393437,-0.881726,0.101644,
2,0,0,1,0,66054.2,0.100478,0.100139,-0.573229,34,0.0118591,10,-5.74024e-05,-3.24167,1.2369,0.0476999,-1.06593,0.100139,
2,0,0,1,0,66054.5,0.0989798,0.0986806,-0.571484,34,0.0116836,10,-5.63944e-05,-3.243,1.69444,0.0348197,-0.774893,0.0986806,
2,0,0,1,0,66054.8,0.0974812,0.097206,-0.57016,34,0.0115083,10,-5.5423e-05,-3.244,1.33202,0.0442936,-0.984542,0.097206,
2,0,0,1,0,66055.1,0.0959834,0.0956721,-0.568461,34,0.0113336,10,-5.43858e-05,-3.2453,0.764226,0.0772023,-1.71179,0.0956721,
2,0,0,1,0,66055.4,0.0944855,0.0941562,-0.564154,34,0.0111599,10,-5.31185e-05,-3.2486,0.77563,0.0760672,-1.68248,0.0941562,
2,0,0,0,0,66055.7,0.0929871,0.0926278,-0.563247,34,0.0109866,10,-5.21723e-05,-3.2493,1.37321,0.0429649,-0.943372,0.0926278,
2,0,0,0,0,66056,0.0914889,0.0911369,-0.563503,34,0.0108139,10,-5.13559e-05,-3.2491,0.710586,0.0830301,-1.81743,0.09113685,
2,0,0,0,0,66056.3,0.0899907,0.0896905,-0.559228,34,0.0106419,10,-5.01574e-05,-3.25241,0.600943,0.098179,-2.13436,0.0896905,
2,0,0,1,0,66056.6,0.0884923,0.0881845,-0.55372,34,0.0104708,10,-4.88295e-05,-3.25671,0.649076,0.0908985,-1.96904,0.0881845,
2,0,0,1,0,66056.9,0.0869946,0.0866697,-0.552699,34,0.0103009,10,-4.79023e-05,-3.25751,0.758294,0.0778062,-1.68026,0.0866697,
2,0,0,1,0,66057.2,0.0854961,0.0851424,-0.550251,34,0.0101317,10,-4.68497e-05,-3.25944,0.631677,0.0934022,-2.00685,0.0851424,
2,0,0,1,0,66057.5,0.083998,0.0836196,-0.547222,34,0.00996308,10,-4.57585e-05,-3.26184,0.520661,0.113318,-2.41825,0.0836196,
2,0,0,1,0,66057.8,0.0824998,0.0821923,-0.543858,34,0.00979554,10,-4.4701e-05,-3.26451,0.581909,0.10139,-2.1524,0.0821923,
2,0,0,1,0,66058.1,0.0810014,0.0806926,-0.540465,34,0.00962927,10,-4.36115e-05,-3.26723,0.692067,0.0852518,-1.80305,0.0806926,
2,0,0,1,0,66058.4,0.0795035,0.0791681,-0.537012,34,0.0094639,10,-4.25142e-05,-3.27002,0.665796,0.0886157,-1.85811,0.0791681,
2,0,0,1,0,66058.7,0.0780056,0.0776861,-0.535596,34,0.0092992,10,-4.16084e-05,-3.27116,0.609873,0.0967415,-2.01665,0.0776861,
2,0,0,0,0,66059,0.076507,0.076165,-0.531406,34,0.00913551,10,-4.04745e-05,-3.27457,0.541494,0.108958,-2.25972,0.076165,
2,0,0,0,0,66059.3,0.0750088,0.0746974,-0.527845,34,0.00897314,10,-3.94287e-05,-3.27749,0.617583,0.0955337,-1.97198,0.0746974,
2,0,0,1,0,66059.6,0.0735103,0.0732422,-0.525457,34,0.00881152,10,-3.84856e-05,-3.27946,0.712814,0.0827706,-1.69506,0.07324215,
2,0,0,1,0,66059.9,0.0720124,0.0716975,-0.521649,34,0.00865063,10,-3.7401e-05,-3.28262,0.63089,0.0935186,-1.90818,0.0716975,
2,0,0,1,0,66060.2,0.0705146,0.0701932,-0.518831,34,0.00849084,10,-3.64184e-05,-3.28497,0.547042,0.107853,-2.18902,0.0701932,
2,0,0,1,0,66060.5,0.069016,0.0686912,-0.514565,34,0.00833196,10,-3.53461e-05,-3.28856,0.839821,0.0702531,-1.41656,0.0686912,
2,0,0,1,0,66060.8,0.0675179,0.0671971,-0.51265,34,0.00817395,10,-3.44486e-05,-3.29018,0.673195,0.0876418,-1.75328,0.0671971,
2,0,0,1,0,66061.1,0.0660192,0.0656952,-0.512696,34,0.00801662,10,-3.36816e-05,-3.29014,0.546496,0.107961,-2.14927,0.0656952,
2,0,0,1,0,66061.4,0.0645214,0.0642204,-0.507302,34,0.00786021,10,-3.25792e-05,-3.29473,0.511498,0.115347,-2.27614,0.0642204,
2,0,0,1,0,66061.7,0.0630235,0.062699,-0.502112,34,0.00770492,10,-3.14819e-05,-3.2992,0.505707,0.116668,-2.29217,0.062699,
2,0,0,0,0,66062,0.0615251,0.0612313,-0.499962,34,0.00755074,10,-3.06133e-05,-3.30106,0.562005,0.104981,-2.05122,0.0612313,
2,0,0,0,0,66062.3,0.0600269,0.0596873,-0.496849,34,0.00739739,10,-2.96556e-05,-3.30378,0.557288,0.10587,-2.05813,0.0596873,
2,0,0,0,0,66062.6,0.0585287,0.0581688,-0.494532,34,0.00724493,10,-2.87663e-05,-3.30581,0.441398,0.133666,-2.57474,0.0581688,
2,0,0,1,0,66062.9,0.0570303,0.0566883,-0.491858,34,0.00709324,10,-2.78826e-05,-3.30816,0.507498,0.116257,-2.22682,0.0566883,
2,0,0,1,0,66063.2,0.0555325,0.0552231,-0.488154,34,0.00694292,10,-2.69573e-05,-3.31144,0.577142,0.102228,-1.94814,0.0552231,
2,0,0,1,0,66063.5,0.0540342,0.0537427,-0.484585,34,0.00679341,10,-2.60429e-05,-3.31463,0.61072,0.0966073,-1.82722,0.0537427,
2,0,0,1,0,66063.8,0.052536,0.0522433,-0.48195,34,0.00664457,10,-2.51786e-05,-3.317,0.502322,0.117455,-2.20977,0.0522433,
2,0,0,1,0,66064.1,0.0510378,0.0506866,-0.478322,34,0.00649692,10,-2.42445e-05,-3.32028,0.436424,0.13519,-2.52663,0.0506866,
2,0,0,1,0,66064.4,0.0495394,0.0492293,-0.474341,34,0.00635042,10,-2.33515e-05,-3.32391,0.478281,0.123359,-2.28736,0.0492293,
2,0,0,1,0,66064.7,0.0480415,0.0477556,-0.471497,34,0.0062048,10,-2.25166e-05,-3.32652,0.631409,0.0934418,-1.71857,0.04775561,
2,0,0,1,0,66065,0.0465436,0.0462354,-0.468526,34,0.00606011,10,-2.16625e-05,-3.32927,0.498321,0.118398,-2.16715,0.0462354,
2,0,0,0,0,66065.3,0.045045,0.0447409,-0.465243,34,0.00591639,10,-2.08154e-05,-3.33232,0.502912,0.117317,-2.12743,0.0447409,
2,0,0,0,0,66065.6,0.0435468,0.0432542,-0.459535,34,0.00577387,10,-1.98768e-05,-3.33768,0.45632,0.129295,-2.32607,0.0432542,
2,0,0,1,0,66065.9,0.0420483,0.0417183,-0.457884,34,0.00563233,10,-1.91022e-05,-3.33924,0.540633,0.109131,-1.94878,0.0417183,
2,0,0,1,0,66066.2,0.0405504,0.0402268,-0.456561,34,0.00549165,10,-1.8366e-05,-3.3405,0.444563,0.132715,-2.35264,0.0402268,
2,0,0,1,0,66066.5,0.0390526,0.0387118,-0.451404,34,0.00535187,10,-1.74746e-05,-3.34544,0.342242,0.172393,-3.03176,0.0387118,
2,0,0,1,0,66066.8,0.0375541,0.0372343,-0.447027,34,0.00521333,10,-1.66447e-05,-3.34967,0.443525,0.133025,-2.32813,0.0372343,
2,0,0,1,0,66067.1,0.0360559,0.0357253,-0.443858,34,0.00507591,10,-1.5857e-05,-3.35276,0.512992,0.115012,-1.99627,0.03572531,
2,0,0,1,0,66067.4,0.0345572,0.0342563,-0.440498,34,0.00493924,10,-1.50898e-05,-3.35606,0.424137,0.139106,-2.39483,0.0342563,
2,0,0,1,0,66067.7,0.0330594,0.0327328,-0.438256,34,0.00480349,10,-1.43454e-05,-3.35827,0.395597,0.149142,-2.54773,0.0327328,
2,0,0,1,0,66068,0.0315615,0.0312273,-0.435473,34,0.00466884,10,-1.35986e-05,-3.36104,0.506785,0.11642,-1.98046,0.0312273,
2,0,0,0,0,66068.3,0.0300631,0.0297595,-0.431569,34,0.00453531,10,-1.28433e-05,-3.36495,0.556841,0.105955,-1.7863,0.0297595,
2,0,0,0,0,66068.6,0.0285649,0.0282346,-0.431133,34,0.00440238,10,-1.21729e-05,-3.36539,0.603755,0.0977218,-1.63501,0.0282346,
2,0,0,0,0,66068.9,0.0270667,0.026715,-0.427609,34,0.00427016,10,-1.14236e-05,-3.36895,0.671222,0.0878993,-1.46447,0.02671504,
2,0,0,1,0,66069.2,0.0255683,0.02524,-0.424455,34,0.0041388,10,-1.07133e-05,-3.37217,0.586441,0.100607,-1.66988,0.02524,
2,0,0,1,0,66069.5,0.0240706,0.023759,-0.421491,34,0.00400846,10,-1.00142e-05,-3.37521,0.643009,0.0917562,-1.51268,0.02375898,
2,0,0,1,0,66069.8,0.0225722,0.0222571,-0.419311,34,0.00387861,10,-9.33264e-06,-3.37746,0.8621,0.0684375,-1.12015,0.0222571,
2,0,0,1,0,66070.1,0.021074,0.0207789,-0.417656,34,0.00374936,10,-8.67842e-06,-3.37918,0.935043,0.0630987,-1.03035,0.0207789,
2,0,0,1,0,66070.4,0.0195758,0.019288,-0.415851,34,0.00362074,10,-8.02091e-06,-3.38106,0.661189,0.0892332,-1.44752,0.019288,
2,0,0,1,0,66070.7,0.0180774,0.0177652,-0.412208,34,0.00349267,10,-7.32295e-06,-3.38488,0.871084,0.0677317,-1.09477,0.0177652,
2,0,0,1,0,66071,0.0165795,0.0162703,-0.413305,34,0.00336525,10,-6.7246e-06,-3.38373,1.00637,0.0586267,-0.945626,0.0162703,
2,0,0,1,0,66071.3,0.0150817,0.0147423,-0.412185,34,0.00323796,10,-6.07655e-06,-3.38491,1.36846,0.0431141,-0.693307,0.0147423,
2,0,0,0,0,66071.6,0.013583,0.0132468,-0.411456,34,0.00311085,10,-5.45048e-06,-3.38568,0.916706,0.0643609,-1.03147,0.0132468,
2,0,0,0,0,66071.9,0.0120848,0.0117633,-0.409673,34,0.00298422,10,-4.81911e-06,-3.38756,1.08843,0.0542065,-0.869563,0.01176331,
2,0,0,1,0,66072.2,0.0105863,0.0102561,-0.4095,34,0.00285795,10,-4.19988e-06,-3.38775,2.49398,0.0236569,-0.377402,0.0102561,
2,0,0,1,0,66072.5,0.00908846,0.00878681,-0.4092,34,0.00273164,10,-3.59556e-06,-3.38806,20.3529,0.00289884,-0.0462712,0.00878681,
2,0,0,1,0,66072.8,0.0075906,0.00727368,-0.409282,34,0.00260538,10,-2.97699e-06,-3.38798,2.84063,0.02077,-0.330915,0.00727368,
2,0,0,1,0,66073.1,0.00609208,0.00574975,-0.409142,34,0.00247914,10,-2.35246e-06,-3.38813,3.96757,0.0148706,-0.237162,0.00574975,
2,0,0,1,0,66073.4,0.00459389,0.00425033,-0.410263,34,0.00235304,10,-1.74376e-06,-3.38694,-1.39452,-0.0423084,0.675873,0.00425033,
2,0,0,1,0,66073.7,0.00309525,0.00278761,-0.409874,34,0.00222652,10,-1.14257e-06,-3.38735,-0.643196,-0.0917294,1.47015,0.00278761,
2,0,0,1,0,66074,0.00159739,0.00123546,-0.415615,34,0.00209818,10,-5.13475e-07,-3.38131, , , ,0.00123546,
2,0,0,0,0,66074.3,0.000199195,-0.000163081,-0.412414,34,0.00197895,10,6.72571e-08,-3.38467, , , ,-0.000163081,