File: Figure_codes/Fig_3-5/rawdata_trumpetplot_data/after 10th/20221101_1-115_003_TrumpetPlot_ParaChange_from10_every3_04_CV_C01_24.csv
mode,ox/red,error,control changes,counter inc.,time/s,control/V,Ewe/V,<I>/mA,cycle number,(Q-Qo)/C,I Range,P/W,log(|I|),Tafel slope mV/dec,alpha_eff,dI/d(E-IR),E-IR/V,
2,0,0,1,0,48343.1,2.44065e-05,-0.000344411,-0.388152,25,0.0000000E+000,10,1.33684e-07,-3.411, , , ,-0.000344411,
2,1,0,1,0,48343.3,0.00129787,0.000945044,0.109681,25,-5.24885e-06,10,1.03653e-07,-3.95987, , , ,0.000945044,
2,1,0,1,0,48343.4,0.00279606,0.00246991,0.253892,25,2.62505e-05,10,6.2709e-07,-3.59535,0.00242431,24.3369,75.1165,0.00246991,
2,1,0,1,0,48343.6,0.00429425,0.00398099,0.296553,25,6.99665e-05,10,1.18058e-06,-3.5279,0.0238308,2.47579,26.7387,0.00398099,
2,1,0,1,0,48343.7,0.00579244,0.00551221,0.324147,25,0.000118885,10,1.78677e-06,-3.48926,0.0421774,1.39885,17.4041,0.00551221,
2,1,0,1,0,48343.9,0.00729063,0.00701163,0.348405,25,0.000171499,10,2.44288e-06,-3.45792,0.0567338,1.03994,13.931,0.00701163,
2,1,0,1,0,48344,0.00878882,0.0085015,0.366376,25,0.000227355,10,3.11474e-06,-3.43607,0.0730813,0.80732,11.4492,0.008501499,
2,1,0,1,0,48344.2,0.010287,0.0100073,0.38169,25,0.000285708,10,3.81968e-06,-3.41829,0.0960131,0.614499,9.10773,0.0100073,
2,1,0,1,0,48344.3,0.0117852,0.0115003,0.395216,25,0.000346301,10,4.54512e-06,-3.40317,0.104792,0.563019,8.68637,0.0115003,
2,1,0,1,0,48344.5,0.0132838,0.0129165,0.409016,25,0.000408742,10,5.28306e-06,-3.38826,0.106752,0.552681,8.8398,0.0129165,
2,1,0,1,0,48344.6,0.0147814,0.0144663,0.420631,25,0.000473126,10,6.08497e-06,-3.3761,0.116777,0.505237,8.30341,0.0144663,
2,1,0,1,0,48344.8,0.0162789,0.0159868,0.431462,25,0.000539424,10,6.89769e-06,-3.36506,0.146381,0.403057,6.76776,0.0159868,
2,1,0,1,0,48344.9,0.017778,0.0174853,0.443174,25,0.000607282,10,7.749e-06,-3.35343,0.149506,0.394634,6.83094,0.0174853,
2,1,0,1,0,48345.1,0.0192761,0.018956,0.452879,25,0.000676333,10,8.58479e-06,-3.34402,0.14809,0.398406,7.03678,0.018956,
2,1,0,1,0,48345.2,0.0207743,0.0204714,0.463989,25,0.000747222,10,9.49849e-06,-3.33349,0.145636,0.405119,7.30475,0.0204714,
2,1,0,1,0,48345.4,0.0222725,0.0219793,0.473482,25,0.000819705,10,1.04068e-05,-3.3247,0.153319,0.384818,7.11141,0.0219793,
2,1,0,1,0,48345.5,0.0237707,0.0234469,0.482563,25,0.000893719,10,1.13146e-05,-3.31645,0.174472,0.338162,6.40009,0.0234469,
2,1,0,1,0,48345.7,0.0252689,0.0249251,0.492596,25,0.000969015,10,1.2278e-05,-3.30751,0.173512,0.340033,6.56929,0.0249251,
2,1,0,1,0,48345.8,0.0267671,0.0264489,0.504235,25,0.00104591,10,1.33365e-05,-3.29737,0.147575,0.399797,7.85729,0.0264489,
2,1,0,1,0,48346,0.0282662,0.0279259,0.515787,25,0.00112449,10,1.44038e-05,-3.28753,0.162585,0.362888,7.28038,0.02792591,
2,1,0,1,0,48346.1,0.0297635,0.0294511,0.525202,25,0.00120458,10,1.54677e-05,-3.27967,0.186074,0.317078,6.48006,0.0294511,
2,1,0,1,0,48346.3,0.031261,0.030919,0.532404,25,0.00128603,10,1.64614e-05,-3.27376,0.179817,0.328112,6.84635,0.03091904,
2,1,0,1,0,48346.4,0.0327599,0.0324635,0.545153,25,0.00136894,10,1.76976e-05,-3.26348,0.185052,0.31883,6.78037,0.0324635,
2,1,0,1,0,48346.6,0.034258,0.0339512,0.556104,25,0.00145346,10,1.88804e-05,-3.25484,0.188515,0.312973,6.7644,0.0339512,
2,1,0,1,0,48346.7,0.0357562,0.0354252,0.565168,25,0.00153954,10,2.00212e-05,-3.24782,0.216717,0.272244,5.99896,0.03542522,
2,1,0,1,0,48346.9,0.0372544,0.0369268,0.575174,25,0.00162707,10,2.12393e-05,-3.2402,0.197286,0.299059,6.71446,0.0369268,
2,1,0,1,0,48347,0.0387526,0.0384219,0.583739,25,0.00171595,10,2.24284e-05,-3.23378,0.19528,0.302131,6.91413,0.0384219,
2,1,0,1,0,48347.2,0.0402508,0.0399616,0.594222,25,0.00180645,10,2.37461e-05,-3.22605,0.205275,0.287419,6.68239,0.03996164,
2,1,0,1,0,48347.3,0.041749,0.0414271,0.606825,25,0.0018987,10,2.5139e-05,-3.21694,0.208231,0.283339,6.68908,0.0414271,
2,1,0,1,0,48347.5,0.0432472,0.0429053,0.615894,25,0.00199234,10,2.64251e-05,-3.21049,0.242557,0.243242,5.8372,0.0429053,
2,1,0,1,0,48347.6,0.0447458,0.0444295,0.624724,25,0.00208733,10,2.77562e-05,-3.20431,0.226537,0.260443,6.34668,0.0444295,
2,1,0,1,0,48347.8,0.0462433,0.0459411,0.634738,25,0.00218378,10,2.91605e-05,-3.19741,0.191953,0.307367,7.59303,0.0459411,
2,1,0,1,0,48347.9,0.0477409,0.0473995,0.644275,25,0.00228179,10,3.05384e-05,-3.19093,0.219888,0.268318,6.74148,0.0473995,
2,1,0,1,0,48348.1,0.0492399,0.0489422,0.653785,25,0.00238131,10,3.19977e-05,-3.18456,0.258651,0.228107,5.82009,0.0489422,
2,1,0,1,0,48348.2,0.0507381,0.0504512,0.661044,25,0.00248203,10,3.33504e-05,-3.17977,0.260184,0.226763,5.8702,0.0504512,
2,1,0,1,0,48348.4,0.0522363,0.0519018,0.670269,25,0.00258406,10,3.47882e-05,-3.17375,0.242436,0.243364,6.37533,0.0519018,
2,1,0,1,0,48348.5,0.0537345,0.0534341,0.683962,25,0.00268767,10,3.65469e-05,-3.16497,0.285357,0.206758,5.4942,0.0534341,
2,1,0,1,0,48348.7,0.0552327,0.0549091,0.688075,25,0.00279258,10,3.77816e-05,-3.16236,0.333697,0.176807,4.7463,0.0549091,
2,1,0,1,0,48348.8,0.0567309,0.0563619,0.695961,25,0.00289862,10,3.92257e-05,-3.15742,0.31149,0.189412,5.16183,0.05636188,
2,1,0,1,0,48349,0.0582291,0.0579058,0.705095,25,0.0030057,10,4.08291e-05,-3.15175,0.308812,0.191055,5.25751,0.0579058,
2,1,0,1,0,48349.1,0.0597282,0.0594389,0.714595,25,0.00311424,10,4.24748e-05,-3.14594,0.296368,0.199077,5.53986,0.0594389,
2,1,0,1,0,48349.3,0.0612255,0.0609375,0.721152,25,0.0032239,10,4.39452e-05,-3.14197,0.359351,0.164185,4.60284,0.0609375,
2,1,0,1,0,48349.4,0.062723,0.0624385,0.729506,25,0.00333473,10,4.55493e-05,-3.13697,0.341114,0.172963,4.91623,0.0624385,
2,1,0,1,0,48349.6,0.0642218,0.0638992,0.733719,25,0.0034464,10,4.68841e-05,-3.13447,0.311725,0.18927,5.43808,0.0638992,
2,1,0,1,0,48349.7,0.06572,0.0653944,0.742739,25,0.00355932,10,4.8571e-05,-3.12916,0.329042,0.179308,5.19416,0.0653944,
2,1,0,1,0,48349.9,0.0672182,0.0669394,0.750271,25,0.00367357,10,5.02227e-05,-3.12478,0.350449,0.168355,4.92432,0.0669394,
2,1,0,1,0,48350,0.0687164,0.0684378,0.758501,25,0.00378875,10,5.19101e-05,-3.12004,0.442183,0.133429,3.94597,0.0684378,
2,1,0,1,0,48350.2,0.0702146,0.0699245,0.762838,25,0.00390474,10,5.33411e-05,-3.11757,0.401112,0.147091,4.38326,0.0699245,
2,1,0,1,0,48350.3,0.0717128,0.0713868,0.770992,25,0.0040217,10,5.50386e-05,-3.11295,0.343855,0.171584,5.14879,0.0713868,
2,1,0,1,0,48350.5,0.073211,0.0728671,0.776666,25,0.00413975,10,5.65934e-05,-3.10977,0.451363,0.130715,3.95515,0.0728671,
2,1,0,1,0,48350.6,0.0747092,0.0743782,0.781446,25,0.00425865,10,5.81226e-05,-3.1071,0.492068,0.119902,3.65219,0.0743782,
2,1,0,1,0,48350.8,0.0762078,0.0759111,0.784991,25,0.00437833,10,5.95895e-05,-3.10514,0.441748,0.13356,4.10729,0.07591109,
2,1,0,1,0,48350.9,0.0777053,0.0773912,0.792475,25,0.00449875,10,6.13306e-05,-3.10101,0.453064,0.130224,4.03041,0.0773912,
2,1,0,1,0,48351.1,0.0792029,0.0788822,0.799864,25,0.00462021,10,6.30951e-05,-3.09698,0.486047,0.121387,3.78458,0.0788822,
2,1,0,1,0,48351.2,0.0807019,0.0804002,0.80517,25,0.00474261,10,6.47358e-05,-3.09411,0.669537,0.0881206,2.76091,0.0804002,
2,1,0,1,0,48351.4,0.0822001,0.0818466,0.80719,25,0.00486558,10,6.60658e-05,-3.09302,0.541012,0.109055,3.44577,0.08184664,
2,1,0,1,0,48351.5,0.0836983,0.0833842,0.813415,25,0.00498912,10,6.7826e-05,-3.08969,0.496524,0.118826,3.7823,0.0833842,
2,1,0,1,0,48351.7,0.0851965,0.0848762,0.820414,25,0.0051138,10,6.96336e-05,-3.08597,0.445366,0.132475,4.24477,0.0848762,
2,1,0,1,0,48351.8,0.0866947,0.0863618,0.82774,25,0.00523939,10,7.14852e-05,-3.08211,0.500969,0.117772,3.8028,0.0863618,
2,1,0,1,0,48352,0.0881929,0.0878825,0.834404,25,0.00536609,10,7.33295e-05,-3.07862,0.397892,0.148281,4.83045,0.0878825,
2,1,0,1,0,48352.1,0.0896911,0.0893713,0.842861,25,0.00549358,10,7.53275e-05,-3.07424,0.337564,0.174782,5.75525,0.0893713,
2,1,0,1,0,48352.3,0.0911902,0.0908343,0.851255,25,0.00562262,10,7.73232e-05,-3.06994,0.287187,0.205441,6.82013,0.0908343,
2,1,0,1,0,48352.4,0.0926875,0.0923497,0.862588,25,0.00575325,10,7.96598e-05,-3.0642,0.270279,0.218293,7.3388,0.0923497,
2,1,0,1,0,48352.6,0.094185,0.0938276,0.871352,25,0.00588526,10,8.17568e-05,-3.05981,0.267849,0.220273,7.50526,0.0938276,
2,1,0,1,0,48352.7,0.0956838,0.0953414,0.88119,25,0.0060188,10,8.40139e-05,-3.05493,0.244316,0.241491,8.33362,0.09534137,
2,1,0,1,0,48352.9,0.097182,0.0968588,0.894712,25,0.00615432,10,8.66607e-05,-3.04832,0.198161,0.297737,10.4097,0.0968588,
2,1,0,1,0,48353,0.0986802,0.0983943,0.909953,25,0.00629184,10,8.95342e-05,-3.04098,0.223812,0.263615,9.372,0.0983943,
2,1,0,1,0,48353.2,0.100178,0.099882,0.924099,25,0.00643161,10,9.23009e-05,-3.03428,0.230487,0.255979,9.23271,0.099882,
2,1,0,1,0,48353.3,0.101677,0.101358,0.937497,25,0.00657341,10,9.50229e-05,-3.02803,0.215872,0.27331,10.0273,0.101358,
2,1,0,1,0,48353.5,0.103175,0.102817,0.95527,25,0.00671748,10,9.82183e-05,-3.01987,0.203229,0.290313,10.8415,0.102817,
2,1,0,1,0,48353.6,0.104673,0.104379,0.975143,25,0.0068641,10,0.000101785,-3.01093,0.208638,0.282787,10.7275,0.104379,
2,1,0,1,0,48353.8,0.106171,0.105855,0.990514,25,0.00701334,10,0.000104851,-3.00414,0.216873,0.272049,10.4817,0.105855,
2,1,0,1,0,48353.9,0.10767,0.107327,1.00315,25,0.00716507,10,0.000107665,-2.99863,0.217103,0.27176,10.6437,0.107327,
2,1,0,1,0,48354.1,0.109167,0.108839,1.01904,25,0.00731887,10,0.000110911,-2.99181,0.221968,0.265804,10.597,0.108839,
2,1,0,1,0,48354.2,0.110665,0.110377,1.03514,25,0.00747505,10,0.000114256,-2.985,0.235218,0.250831,10.1253,0.110377,
2,1,0,1,0,48354.4,0.112164,0.11186,1.0497,25,0.00763363,10,0.00011742,-2.97894,0.287674,0.205093,8.39384,0.11186,
2,1,0,1,0,48354.5,0.113662,0.113296,1.06195,25,0.00779412,10,0.000120315,-2.97389,0.30431,0.193881,8.02229,0.113296,
2,1,0,1,0,48354.7,0.11516,0.114823,1.07492,25,0.00795618,10,0.000123426,-2.96862,0.353846,0.166739,6.98445,0.114823,
2,1,0,1,0,48354.8,0.116658,0.116309,1.0853,25,0.00812004,10,0.00012623,-2.96445,0.345789,0.170625,7.20449,0.116309,
2,1,0,1,0,48355,0.118157,0.117855,1.09615,25,0.00828561,10,0.000129186,-2.96013,0.442238,0.133412,5.69223,0.117855,
2,1,0,1,0,48355.1,0.119655,0.119325,1.10316,25,0.00845253,10,0.000131634,-2.95736,0.583899,0.101045,4.34593,0.119325,
2,1,0,1,0,48355.3,0.121153,0.12086,1.10817,25,0.0086203,10,0.000133933,-2.9554,0.55938,0.105474,4.57144,0.12086,
2,1,0,1,0,48355.4,0.122652,0.122371,1.11682,25,0.00878921,10,0.000136666,-2.95202,0.474935,0.124228,5.4036,0.122371,
2,1,0,1,0,48355.6,0.124149,0.123846,1.12347,25,0.00895917,10,0.000139137,-2.94944,0.549686,0.107334,4.69742,0.123846,
2,1,0,1,0,48355.7,0.125647,0.125338,1.12774,25,0.00913008,10,0.000141349,-2.94779,0.824329,0.0715733,3.14688,0.125338,
2,1,0,1,0,48355.9,0.127146,0.12685,1.13116,25,0.00930183,10,0.000143488,-2.94648,0.838335,0.0703776,3.11166,0.12685,
2,1,0,1,0,48356,0.128644,0.128329,1.13715,25,0.00947393,10,0.000145928,-2.94418,1.14112,0.0517037,2.29452,0.1283285,
2,1,0,1,0,48356.2,0.130142,0.129836,1.14265,25,0.00964687,10,0.000148357,-2.94209,1.3899,0.042449,1.88613,0.129836,
2,1,0,1,0,48356.3,0.13164,0.131349,1.14377,25,0.00982022,10,0.000150232,-2.94166,-3.01345,-0.0195789,-0.86934,0.131349,
2,1,0,1,0,48356.5,0.133139,0.132829,1.14162,25,0.00999366,10,0.00015164,-2.94248,-1.09746,-0.0537603,-2.39029,0.132829,
2,1,0,1,0,48356.6,0.134637,0.134319,1.136,25,0.0101663,10,0.000152586,-2.94462,-0.617888,-0.0954865,-4.22759,0.134319,
2,1,0,1,0,48356.8,0.136135,0.135806,1.12989,25,0.0103383,10,0.000153447,-2.94696,-0.384845,-0.153309,-6.7283,0.135806,
2,1,0,1,0,48356.9,0.137633,0.137301,1.11798,25,0.0105089,10,0.0001535,-2.95157,-0.23695,-0.248997,-10.7926,0.1373006,
2,1,0,1,0,48357.1,0.139132,0.138801,1.09865,25,0.0106771,10,0.000152493,-2.95914,-0.175778,-0.33565,-14.2982,0.138801,
2,1,0,1,0,48357.2,0.140629,0.140294,1.07197,25,0.0108417,10,0.000150392,-2.96982,-0.137701,-0.428466,-17.8742,0.140294,
2,1,0,1,0,48357.4,0.142127,0.141811,1.0455,25,0.0110025,10,0.000148263,-2.98068,-0.12094,-0.487844,-19.7925,0.141811,
2,1,0,1,0,48357.5,0.143626,0.143307,1.01204,25,0.0111589,10,0.000145033,-2.9948,-0.0973493,-0.606065,-23.8317,0.143307,
2,1,0,1,0,48357.7,0.145124,0.144783,0.973948,25,0.0113098,10,0.000141011,-3.01146,-0.0836454,-0.705359,-26.7215,0.144783,
2,1,0,1,0,48357.8,0.146622,0.146274,0.929025,25,0.0114545,10,0.000135892,-3.03197,-0.0776903,-0.759426,-27.572,0.146274,
2,1,0,1,0,48358,0.14812,0.147773,0.890068,25,0.0115931,10,0.000131528,-3.05058,-0.0744284,-0.792708,-27.5131,0.147773,
2,1,0,1,0,48358.1,0.149619,0.149242,0.850098,25,0.0117256,10,0.00012687,-3.07053,-0.0738164,-0.79928,-26.5035,0.149242,
2,1,0,1,0,48358.3,0.151117,0.150809,0.812293,25,0.011852,10,0.000122501,-3.09029,-0.0740802,-0.796434,-25.2257,0.150809,
2,1,0,1,0,48358.4,0.152615,0.152258,0.771272,25,0.0119728,10,0.000117432,-3.11279,-0.0766635,-0.769597,-23.3056,0.152258,
2,1,0,1,0,48358.6,0.154114,0.153799,0.740199,25,0.0120883,10,0.000113842,-3.13065,-0.0844682,-0.698488,-20.3236,0.1537991,
2,1,0,1,0,48358.7,0.155612,0.155323,0.713717,25,0.0121994,10,0.000110857,-3.14647,-0.0976231,-0.604365,-16.8993,0.155323,
2,1,0,1,0,48358.9,0.157109,0.156821,0.689651,25,0.0123065,10,0.000108152,-3.16137,-0.102047,-0.578164,-15.5879,0.156821,
2,1,0,1,0,48359,0.158608,0.158321,0.66809,25,0.0124105,10,0.000105773,-3.17516,-0.121942,-0.483838,-12.6803,0.158321,
2,1,0,1,0,48359.2,0.160106,0.159775,0.651262,25,0.0125112,10,0.000104055,-3.18624,-0.134762,-0.437809,-11.1784,0.159775,
2,1,0,1,0,48359.3,0.161604,0.161301,0.634713,25,0.0126098,10,0.00010238,-3.19742,-0.162237,-0.363665,-9.03495,0.161301,
2,1,0,1,0,48359.5,0.163102,0.162798,0.623353,25,0.0127062,10,0.000101481,-3.20527,-0.180932,-0.32609,-7.94319,0.162798,
2,1,0,1,0,48359.6,0.164601,0.164282,0.612994,25,0.0128009,10,0.000100704,-3.21254,-0.210874,-0.279788,-6.68871,0.164282,
2,1,0,1,0,48359.8,0.166099,0.165762,0.602499,25,0.0128938,10,9.98715e-05,-3.22004,-0.218671,-0.269811,-6.36361,0.165762,
2,1,0,1,0,48359.9,0.167597,0.167293,0.594313,25,0.0129854,10,9.94246e-05,-3.22598,-0.311673,-0.189301,-4.38994,0.167293,
2,1,0,1,0,48360.1,0.169095,0.168769,0.587798,25,0.013076,10,9.92023e-05,-3.23077,-0.292559,-0.201669,-4.63312,0.168769,
2,1,0,1,0,48360.2,0.170594,0.170291,0.579192,25,0.0131655,10,9.86313e-05,-3.23718,-0.332107,-0.177654,-4.03104,0.170291,
2,1,0,1,0,48360.4,0.172091,0.171762,0.574244,25,0.013254,10,9.8633e-05,-3.2409,-0.40963,-0.144032,-3.24078,0.171762,
2,1,0,1,0,48360.5,0.173589,0.173268,0.570491,25,0.0133419,10,9.8848e-05,-3.24375,-0.467041,-0.126327,-2.81081,0.173268,
2,1,0,1,0,48360.7,0.175088,0.174744,0.565409,25,0.0134291,10,9.88016e-05,-3.24764,-0.519216,-0.113633,-2.50901,0.174744,
2,1,0,1,0,48360.8,0.176586,0.176322,0.562041,25,0.0135156,10,9.91004e-05,-3.25023,-0.441675,-0.133582,-2.92528,0.176322,
2,1,0,1,0,48361,0.178084,0.177778,0.556096,25,0.0136015,10,9.88618e-05,-3.25485,-0.510054,-0.115674,-2.51706,0.177778,
2,1,0,1,0,48361.1,0.179582,0.179285,0.554932,25,0.0136868,10,9.94912e-05,-3.25576,-0.600185,-0.098303,-2.13399,0.179285,
2,1,0,1,0,48361.3,0.181081,0.180802,0.553048,25,0.0137718,10,9.9992e-05,-3.25724,-0.707248,-0.0834219,-1.80015,0.180802,
2,1,0,1,0,48361.4,0.182579,0.182277,0.548784,25,0.0138564,10,0.000100031,-3.2606,-0.514826,-0.114602,-2.45738,0.182277,
2,1,0,1,0,48361.6,0.184077,0.183772,0.547698,25,0.0139407,10,0.000100651,-3.26146,-0.673746,-0.0875702,-1.86986,0.183772,
2,1,0,1,0,48361.7,0.185576,0.185293,0.546524,25,0.0140244,10,0.000101267,-3.26239,-0.956301,-0.061696,-1.31157,0.185293,
2,1,0,1,0,48361.9,0.187074,0.186772,0.543701,25,0.0141079,10,0.000101548,-3.26464,-1.66038,-0.0355341,-0.751947,0.186772,
2,1,0,1,0,48362,0.188571,0.188229,0.541107,25,0.0141911,10,0.000101852,-3.26672,-1.96394,-0.0300416,-0.633155,0.188229,
2,1,0,1,0,48362.2,0.19007,0.189764,0.538846,25,0.0142741,10,0.000102254,-3.26854,-1.72224,-0.0342576,-0.720715,0.189764,
2,1,0,1,0,48362.3,0.191568,0.191252,0.537215,25,0.0143566,10,0.000102743,-3.26985,-1.71961,-0.0343101,-0.719898,0.191252,
2,1,0,1,0,48362.4,0.193066,0.192743,0.535227,25,0.014439,10,0.000103161,-3.27146,-2.76382,-0.0213472,-0.44562,0.192743,
2,1,0,1,0,48362.6,0.194564,0.194313,0.535003,25,0.0145212,10,0.000103958,-3.27164,-2.22021,-0.0265741,-0.554632,0.194313,
2,1,0,1,0,48362.7,0.196063,0.195744,0.532174,25,0.0146032,10,0.00010417,-3.27395,-0.76103,-0.0775265,-1.61271,0.195744,
2,1,0,1,0,48362.9,0.197561,0.197212,0.528734,25,0.0146849,10,0.000104273,-3.27676,-0.805674,-0.0732306,-1.51871,0.197212,
2,1,0,1,0,48363,0.199059,0.198754,0.530198,25,0.0147663,10,0.000105379,-3.27556,-1.18148,-0.0499373,-1.03353,0.198754,
2,1,0,1,0,48363.2,0.200557,0.200223,0.529716,25,0.0148477,10,0.000106061,-3.27596,-1.69734,-0.0347603,-0.717235,0.200223,
2,1,0,1,0,48363.3,0.202056,0.201789,0.529352,25,0.0149289,10,0.000106817,-3.27626,-1.10592,-0.0533492,-1.09699,0.201789,
2,1,0,1,0,48363.5,0.203553,0.203246,0.526442,25,0.0150099,10,0.000106997,-3.27865,-1.49186,-0.0395478,-0.813318,0.203246,
2,1,0,1,0,48363.6,0.205051,0.204683,0.524814,25,0.0150906,10,0.000107421,-3.27999,2.85043,0.0206986,0.426802,0.204683,
2,1,0,1,0,48363.8,0.20655,0.206265,0.524135,25,0.0151713,10,0.000108111,-3.28056,-2.13276,-0.0276637,-0.566806,0.206265,
2,1,0,1,0,48363.9,0.208048,0.207725,0.52372,25,0.0152522,10,0.00010879,-3.2809,-1.08048,-0.0546055,-1.11487,0.207725,
2,1,0,1,0,48364.1,0.209546,0.209252,0.523361,25,0.0153326,10,0.000109514,-3.2812,-0.842808,-0.070004,-1.42888,0.209252,
2,1,0,1,0,48364.2,0.211044,0.210723,0.522963,25,0.0154127,10,0.0001102,-3.28153,-1.72171,-0.0342682,-0.696993,0.210723,
2,1,0,1,0,48364.4,0.212543,0.212245,0.520943,25,0.0154928,10,0.000110567,-3.28321,-5.84158,-0.0101,-0.205202,0.212245,
2,1,0,1,0,48364.5,0.214041,0.213704,0.519524,25,0.0155728,10,0.000111024,-3.28439,-1.88925,-0.0312294,-0.633864,0.213704,
2,1,0,1,0,48364.7,0.215539,0.21525,0.519865,25,0.0156527,10,0.000111901,-3.28411,-1.42679,-0.0413516,-0.838382,0.21525,
2,1,0,1,0,48364.8,0.217038,0.216703,0.516916,25,0.0157323,10,0.000112018,-3.28658,-1.37569,-0.0428875,-0.867615,0.216703,
2,1,0,1,0,48365,0.218535,0.218235,0.518205,25,0.0158119,10,0.000113091,-3.2855,-10.8681,-0.00542871,-0.109492,0.218235,
2,1,0,1,0,48365.1,0.220033,0.21972,0.517511,25,0.0158915,10,0.000113708,-3.28608,-4.83469,-0.0122035,-0.245799,0.21972,
2,1,0,1,0,48365.3,0.221532,0.221238,0.517006,25,0.015971,10,0.000114381,-3.2865,-1.33677,-0.0441361,-0.889565,0.221238,
2,1,0,1,0,48365.4,0.22303,0.222688,0.51339,25,0.0160502,10,0.000114326,-3.28955,-1.45355,-0.0405903,-0.8154,0.222688,
2,1,0,1,0,48365.6,0.224528,0.224213,0.515917,25,0.0161293,10,0.000115675,-3.28742,-2.16054,-0.0273079,-0.548702,0.224213,
2,1,0,1,0,48365.7,0.226026,0.225683,0.513225,25,0.0162084,10,0.000115826,-3.28969,-3.87876,-0.0152111,-0.305061,0.225683,
2,1,0,1,0,48365.9,0.227524,0.227226,0.513776,25,0.0162874,10,0.000116743,-3.28923,-1.10396,-0.0534437,-1.06928,0.227226,
2,1,0,1,0,48366,0.229023,0.228743,0.510572,25,0.0163662,10,0.00011679,-3.29194,-1.3184,-0.0447514,-0.896287,0.228743,
2,1,0,1,0,48366.2,0.230521,0.230208,0.51342,25,0.0164449,10,0.000118193,-3.28953,-2.60801,-0.0226226,-0.452439,0.2302081,
2,1,0,1,0,48366.3,0.232019,0.231714,0.510335,25,0.0165234,10,0.000118252,-3.29214,-2.83921,-0.0207804,-0.4148,0.231714,
2,1,0,1,0,48366.5,0.233518,0.233186,0.510921,25,0.0166021,10,0.00011914,-3.29165,-7.93018,-0.00743993,-0.147922,0.233186,
2,1,0,1,0,48366.6,0.235015,0.23468,0.511355,25,0.0166806,10,0.000120005,-3.29128,-1.85478,-0.0318097,-0.632713,0.23468,
2,1,0,1,0,48366.8,0.236513,0.236165,0.509255,25,0.0167588,10,0.000120269,-3.29306,-2.69868,-0.0218626,-0.434225,0.236165,
2,1,0,1,0,48366.9,0.238012,0.23773,0.508576,25,0.016837,10,0.000120903,-3.29364,-5.07918,-0.0116161,-0.230259,0.23773,
2,1,0,1,0,48367.1,0.23951,0.239211,0.507212,25,0.0169152,10,0.000121331,-3.29481,-14.5901,-0.00404384,-0.0802363,0.239211,
2,1,0,1,0,48367.2,0.241008,0.240691,0.506294,25,0.0169932,10,0.00012186,-3.2956,-3.0227,-0.0195189,-0.386829,0.2406913,
2,1,0,1,0,48367.4,0.242506,0.242184,0.505572,25,0.0170711,10,0.000122442,-3.29622,-1.61162,-0.0366091,-0.725041,0.242184,
2,1,0,1,0,48367.5,0.244005,0.243689,0.505949,25,0.017149,10,0.000123294,-3.29589,-6.24961,-0.00944059,-0.18606,0.243689,
2,1,0,1,0,48367.7,0.245503,0.245219,0.507825,25,0.0172268,10,0.000124528,-3.29429,-1.99462,-0.0295796,-0.583117,0.245219,
2,1,0,1,0,48367.8,0.247001,0.246688,0.505069,25,0.0173045,10,0.000124594,-3.29665,-1.94417,-0.0303471,-0.597017,0.246688,
2,1,0,1,0,48368,0.2485,0.248195,0.501452,25,0.0173822,10,0.000124458,-3.29977,-1.68063,-0.0351058,-0.689696,0.248195,
2,1,0,1,0,48368.1,0.249997,0.249663,0.504467,25,0.0174596,10,0.000125947,-3.29717,-3.49695,-0.0168719,-0.331423,0.249663,
2,1,0,1,0,48368.3,0.251495,0.251207,0.501646,25,0.0175369,10,0.000126017,-3.2996,-4.51401,-0.0130704,-0.256544,0.251207,
2,1,0,1,0,48368.4,0.252994,0.252661,0.502003,25,0.0176143,10,0.000126837,-3.29929,-1.00031,-0.0589816,-1.1544,0.252661,
2,1,0,1,0,48368.6,0.254492,0.254193,0.501102,25,0.0176915,10,0.000127377,-3.30007,-1.43869,-0.0410096,-0.802398,0.254193,
2,1,0,1,0,48368.7,0.25599,0.255672,0.500561,25,0.0177684,10,0.000127979,-3.30054,-2.86772,-0.0205739,-0.403255,0.255672,
2,1,0,1,0,48368.9,0.257488,0.257166,0.500493,25,0.0178454,10,0.00012871,-3.3006,-19.2231,-0.00306923,-0.0598527,0.257166,
2,1,0,1,0,48369,0.258987,0.258669,0.499377,25,0.0179224,10,0.000129174,-3.30157,-2.90615,-0.0203018,-0.395137,0.258669,
2,1,0,1,0,48369.2,0.260485,0.260219,0.499277,25,0.0179992,10,0.000129921,-3.30166,-1.39697,-0.0422342,-0.820978,0.260219,
2,1,0,1,0,48369.3,0.261983,0.261645,0.497445,25,0.0180757,10,0.000130154,-3.30325,-2.51453,-0.0234636,-0.456447,0.2616449,
2,1,0,1,0,48369.5,0.263481,0.263171,0.497715,25,0.0181523,10,0.000130984,-3.30302,7.23288,0.00815719,0.157899,0.263171,
2,1,0,1,0,48369.6,0.26498,0.264698,0.498677,25,0.0182288,10,0.000131999,-3.30218,-2.34499,-0.0251601,-0.488514,0.264698,
2,1,0,1,0,48369.8,0.266477,0.266181,0.496167,25,0.0183052,10,0.00013207,-3.30437,-5.04394,-0.0116972,-0.226416,0.266181,
2,1,0,1,0,48369.9,0.267976,0.267687,0.49458,25,0.0183815,10,0.000132393,-3.30576,-3.52897,-0.0167188,-0.323364,0.267687,
2,1,0,1,0,48370.1,0.269474,0.269172,0.494716,25,0.0184576,10,0.000133163,-3.30564,12.0703,0.00488804,0.0943081,0.269172,
2,1,0,1,0,48370.2,0.270972,0.270672,0.495702,25,0.0185337,10,0.000134173,-3.30478,-2.11954,-0.0278362,-0.535872,0.270672,
2,1,0,1,0,48370.4,0.27247,0.272144,0.494009,25,0.0186097,10,0.000134442,-3.30627,-1.53744,-0.0383755,-0.737044,0.272144,
2,1,0,1,0,48370.5,0.273968,0.273667,0.491694,25,0.0186856,10,0.00013456,-3.3083,-3.40508,-0.017327,-0.333401,0.273667,
2,1,0,1,0,48370.7,0.275467,0.275135,0.490982,25,0.0187612,10,0.000135086,-3.30893,-1.45202,-0.0406332,-0.780632,0.2751354,
2,1,0,1,0,48370.8,0.276965,0.276655,0.490802,25,0.0188368,10,0.000135783,-3.30909,-2.61888,-0.0225287,-0.432045,0.276655,
2,1,0,1,0,48371,0.278463,0.278146,0.491061,25,0.0189123,10,0.000136587,-3.30886,-1.26955,-0.0464732,-0.887677,0.278146,
2,1,0,1,0,48371.1,0.279962,0.279626,0.490023,25,0.0189877,10,0.000137023,-3.30978,-2.47813,-0.0238083,-0.455627,0.279626,
2,1,0,1,0,48371.3,0.281459,0.28119,0.488228,25,0.0190629,10,0.000137285,-3.31138,-17.7518,-0.00332361,-0.063365,0.28119,
2,1,0,1,0,48371.4,0.282957,0.282649,0.487597,25,0.0191379,10,0.000137819,-3.31194,125.709,0.000469337,0.00892205,0.282649,
2,1,0,1,0,48371.6,0.284456,0.284146,0.486827,25,0.019213,10,0.00013833,-3.31263,-28.0522,-0.00210322,-0.0398904,0.284146,
2,1,0,1,0,48371.7,0.285954,0.285689,0.4864,25,0.0192879,10,0.000138959,-3.31301,-2.39521,-0.0246325,-0.467338,0.285689,
2,1,0,1,0,48371.9,0.287452,0.287119,0.483959,25,0.0193625,10,0.000138954,-3.31519,-3.17675,-0.0185725,-0.351014,0.287119,
2,1,0,1,0,48372,0.28895,0.288578,0.484292,25,0.0194371,10,0.000139756,-3.31489,-6.62874,-0.00890063,-0.168092,0.288578,
2,1,0,1,0,48372.2,0.290449,0.290155,0.483394,25,0.0195115,10,0.000140259,-3.3157,-1.99174,-0.0296223,-0.558031,0.290155,
2,1,0,1,0,48372.3,0.291947,0.29162,0.482864,25,0.0195858,10,0.000140813,-3.31618,-1.40356,-0.042036,-0.791837,0.29162,
2,1,0,1,0,48372.5,0.293445,0.293146,0.479557,25,0.01966,10,0.00014058,-3.31916,-2.54887,-0.0231475,-0.434949,0.2931464,
2,1,0,1,0,48372.6,0.294943,0.294621,0.481868,25,0.019734,10,0.000141969,-3.31707,-2.02784,-0.029095,-0.545897,0.294621,
2,1,0,1,0,48372.8,0.296442,0.296162,0.481347,25,0.019808,10,0.000142557,-3.31754,-2.40947,-0.0244867,-0.458195,0.296162,
2,1,0,1,0,48372.9,0.297939,0.297656,0.479727,25,0.0198819,10,0.000142794,-3.31901,-0.932039,-0.0633021,-1.1821,0.297656,
2,1,0,1,0,48373.1,0.299437,0.299138,0.476888,25,0.0199556,10,0.000142655,-3.32158,-0.00296746,-19.8823,-198.782,0.299138,
2,1,0,1,0,48373.2,0.299738,0.299454,0.270045,25,0.0199916,10,8.0866e-05,-3.56856,0.000396669,148.739,401.999,0.299454,
2,1,0,1,0,48373.3,0.29824,0.297909,0.0210647,25,0.0200049,10,6.27537e-06,-4.67644,0.00358613,16.4523,129.819,0.297909,
2,0,0,1,0,48373.5,0.296741,0.296419,-0.0262121,25,0.0200019,10,-7.76976e-06,-4.5815,-0.124394,-0.474299,27.0563,0.296419,
2,0,0,1,0,48373.6,0.295243,0.294944,-0.0515061,25,0.0199939,10,-1.51914e-05,-4.28814,-0.00574713,-10.266,14.0865,0.294944,
2,0,0,1,0,48373.8,0.293745,0.293397,-0.0700954,25,0.0199828,10,-2.05657e-05,-4.15431,-0.0129504,-4.55583,11.2526,0.293397,
2,0,0,1,0,48373.9,0.292246,0.291951,-0.0834903,25,0.0199695,10,-2.43751e-05,-4.07836,-0.0200469,-2.94309,9.21933,0.291951,
2,0,0,1,0,48374.1,0.290748,0.290443,-0.0963876,25,0.0199539,10,-2.79951e-05,-4.01598,-0.0253902,-2.32373,8.43653,0.290443,
2,0,0,1,0,48374.2,0.28925,0.288943,-0.107721,25,0.0199366,10,-3.11253e-05,-3.9677,-0.0356251,-1.65614,6.80288,0.288943,
2,0,0,1,0,48374.4,0.287752,0.287434,-0.116735,25,0.0199178,10,-3.35535e-05,-3.9328,-0.0436106,-1.35288,6.13971,0.287434,
2,0,0,1,0,48374.5,0.286253,0.285975,-0.124792,25,0.0198977,10,-3.56875e-05,-3.90381,-0.0496443,-1.18845,5.80963,0.2859751,
2,0,0,1,0,48374.7,0.284755,0.284458,-0.135831,25,0.0198762,10,-3.86383e-05,-3.867,-0.0531043,-1.11102,5.78763,0.2844584,
2,0,0,1,0,48374.8,0.283258,0.282908,-0.142604,25,0.0198534,10,-4.0344e-05,-3.84587,-0.060435,-0.976256,5.38079,0.282908,
2,0,0,1,0,48375,0.281759,0.281437,-0.150992,25,0.0198296,10,-4.24948e-05,-3.82105,-0.077177,-0.764477,4.45118,0.281437,
2,0,0,1,0,48375.1,0.280261,0.279933,-0.154455,25,0.0198047,10,-4.3237e-05,-3.8112,-0.0851272,-0.693081,4.18848,0.279933,
2,0,0,1,0,48375.3,0.278763,0.278434,-0.162635,25,0.019779,10,-4.52832e-05,-3.78879,-0.0877596,-0.672291,4.26508,0.278434,
2,0,0,1,0,48375.4,0.277264,0.276956,-0.168651,25,0.0197522,10,-4.67089e-05,-3.77301,-0.0979499,-0.602349,3.93332,0.276956,
2,0,0,1,0,48375.6,0.275766,0.275455,-0.174799,25,0.0197245,10,-4.81492e-05,-3.75746,-0.120801,-0.488407,3.31146,0.275455,
2,0,0,1,0,48375.7,0.274268,0.27395,-0.179522,25,0.0196959,10,-4.91801e-05,-3.74588,-0.121837,-0.484255,3.4011,0.27395,
2,0,0,1,0,48375.9,0.27277,0.272413,-0.184846,25,0.0196667,10,-5.03545e-05,-3.73319,-0.134117,-0.439915,3.17952,0.272413,
2,0,0,1,0,48376,0.271272,0.270939,-0.190529,25,0.0196366,10,-5.16219e-05,-3.72004,-0.116913,-0.504647,3.74852,0.270939,
2,0,0,1,0,48376.2,0.269773,0.269408,-0.197038,25,0.0196055,10,-5.30836e-05,-3.70545,-0.126328,-0.467038,3.56105,0.269408,
2,0,0,1,0,48376.3,0.268275,0.267928,-0.200508,25,0.0195737,10,-5.37217e-05,-3.69787,-0.152307,-0.387377,3.02811,0.267928,
2,0,0,1,0,48376.5,0.266778,0.266427,-0.204801,25,0.0195413,10,-5.45646e-05,-3.68867,-0.142691,-0.413482,3.31703,0.266427,
2,0,0,1,0,48376.6,0.265279,0.264966,-0.209307,25,0.0195081,10,-5.54592e-05,-3.67922,-0.148508,-0.397284,3.2337,0.2649661,
2,0,0,1,0,48376.8,0.263781,0.263421,-0.21469,25,0.0194742,10,-5.65537e-05,-3.66819,-0.170152,-0.34675,2.89439,0.263421,
2,0,0,1,0,48376.9,0.262283,0.261995,-0.218674,25,0.0194396,10,-5.72913e-05,-3.6602,-0.174126,-0.338836,2.89134,0.261995,
2,0,0,1,0,48377.1,0.260784,0.260494,-0.221515,25,0.0194045,10,-5.77034e-05,-3.6546,-0.189649,-0.311101,2.70332,0.260494,
2,0,0,1,0,48377.2,0.259286,0.258983,-0.227425,25,0.0193687,10,-5.88993e-05,-3.64316,-0.174652,-0.337816,2.99472,0.258983,
2,0,0,1,0,48377.4,0.257788,0.257439,-0.233791,25,0.0193322,10,-6.0187e-05,-3.63117,-0.198871,-0.296674,2.67591,0.257439,
2,0,0,1,0,48377.5,0.25629,0.255976,-0.23635,25,0.0192951,10,-6.04999e-05,-3.62644,-0.213951,-0.275763,2.52678,0.255976,
2,0,0,1,0,48377.7,0.254791,0.254486,-0.237599,25,0.0192575,10,-6.04656e-05,-3.62416,-0.200109,-0.294839,2.7549,0.254486,
2,0,0,1,0,48377.8,0.253293,0.252965,-0.243924,25,0.0192193,10,-6.17042e-05,-3.61275,-0.206583,-0.285599,2.71832,0.252965,
2,0,0,1,0,48378,0.251796,0.251492,-0.246377,25,0.0191807,10,-6.1962e-05,-3.6084,-0.230975,-0.255439,2.46475,0.251492,
2,0,0,1,0,48378.1,0.250297,0.249986,-0.250304,25,0.0191413,10,-6.25725e-05,-3.60153,-0.318052,-0.185504,1.8057,0.249986,
2,0,0,1,0,48378.3,0.248799,0.248483,-0.254333,25,0.0191015,10,-6.31974e-05,-3.5946,-0.235572,-0.250454,2.47809,0.248483,
2,0,0,1,0,48378.4,0.247301,0.246981,-0.256373,25,0.0190613,10,-6.33192e-05,-3.59113,-0.218109,-0.270507,2.71759,0.246981,
2,0,0,1,0,48378.6,0.245802,0.245432,-0.260831,25,0.0190205,10,-6.40164e-05,-3.58364,-0.22754,-0.259295,2.63885,0.245432,
2,0,0,1,0,48378.7,0.244304,0.244051,-0.263219,25,0.018979,10,-6.42389e-05,-3.57968,-0.271796,-0.217074,2.2365,0.244051,
2,0,0,1,0,48378.9,0.242806,0.242426,-0.26799,25,0.0189372,10,-6.49677e-05,-3.57188,-0.358112,-0.164753,1.7197,0.242426,
2,0,0,1,0,48379,0.241308,0.240979,-0.270369,25,0.0188949,10,-6.51531e-05,-3.56804,-0.270118,-0.218423,2.31029,0.240979,
2,0,0,1,0,48379.2,0.23981,0.239518,-0.273137,25,0.0188522,10,-6.54213e-05,-3.56362,-0.219214,-0.269144,2.86992,0.239518,
2,0,0,1,0,48379.3,0.238311,0.238015,-0.276805,25,0.0188088,10,-6.58838e-05,-3.55783,-0.319216,-0.184828,1.99835,0.238015,
2,0,0,1,0,48379.5,0.236814,0.236557,-0.279384,25,0.018765,10,-6.60903e-05,-3.5538,-0.325432,-0.181298,1.98064,0.236557,
2,0,0,1,0,48379.6,0.235316,0.23496,-0.281,25,0.0187209,10,-6.60236e-05,-3.55129,-0.303416,-0.194452,2.15227,0.23496,
2,0,0,1,0,48379.8,0.233817,0.233452,-0.284815,25,0.0186762,10,-6.64906e-05,-3.54544,-0.343618,-0.171702,1.91917,0.2334519,
2,0,0,1,0,48379.9,0.232319,0.232022,-0.289588,25,0.018631,10,-6.7191e-05,-3.53822,-0.275188,-0.214399,2.41848,0.232022,
2,0,0,1,0,48380.1,0.230821,0.230519,-0.292129,25,0.0185853,10,-6.73413e-05,-3.53442,-0.43073,-0.136977,1.556,0.230519,
2,0,0,1,0,48380.2,0.229322,0.229017,-0.294488,25,0.0185393,10,-6.74428e-05,-3.53093,-0.337036,-0.175056,2.01742,0.229017,
2,0,0,1,0,48380.4,0.227824,0.227498,-0.297506,25,0.0184929,10,-6.7682e-05,-3.5265,-0.268817,-0.21948,2.56228,0.227498,
2,0,0,1,0,48380.5,0.226326,0.226018,-0.301311,25,0.0184459,10,-6.81017e-05,-3.52099,-0.283589,-0.208048,2.44635,0.226018,
2,0,0,1,0,48380.7,0.224828,0.224471,-0.303319,25,0.0183985,10,-6.80864e-05,-3.5181,-0.443484,-0.133037,1.57591,0.224471,
2,0,0,1,0,48380.8,0.223329,0.22303,-0.309046,25,0.0183506,10,-6.89266e-05,-3.50998,-0.3915,-0.150702,1.81024,0.22303,
2,0,0,1,0,48381,0.221831,0.221503,-0.310008,25,0.0183024,10,-6.86679e-05,-3.50863,-0.407306,-0.144854,1.74803,0.221503,
2,0,0,1,0,48381.1,0.220334,0.220004,-0.312902,25,0.0182536,10,-6.88397e-05,-3.50459,-0.27421,-0.215164,2.62631,0.220004,
2,0,0,1,0,48381.3,0.218835,0.218533,-0.315595,25,0.0182043,10,-6.89679e-05,-3.50087,-0.323138,-0.182585,2.24457,0.218533,
2,0,0,1,0,48381.4,0.217337,0.217041,-0.31952,25,0.0181546,10,-6.93489e-05,-3.4955,-0.507254,-0.116313,1.45099,0.217041,
2,0,0,1,0,48381.6,0.215839,0.215547,-0.320933,25,0.0181045,10,-6.91762e-05,-3.49359,-0.364769,-0.161746,2.03552,0.215547,
2,0,0,1,0,48381.7,0.21434,0.214023,-0.322444,25,0.018054,10,-6.90105e-05,-3.49155,-0.314408,-0.187654,2.38035,0.214023,
2,0,0,1,0,48381.9,0.212842,0.21248,-0.327055,25,0.0180031,10,-6.94928e-05,-3.48538,-0.434759,-0.135707,1.73174,0.21248,
2,0,0,1,0,48382,0.211344,0.211047,-0.330939,25,0.0179516,10,-6.98436e-05,-3.48025,-0.467753,-0.126135,1.62332,0.211047,
2,0,0,1,0,48382.2,0.209846,0.209528,-0.331404,25,0.0178997,10,-6.94385e-05,-3.47964,-0.421878,-0.139851,1.81771,0.209528,
2,0,0,1,0,48382.3,0.208348,0.20804,-0.336728,25,0.0178475,10,-7.0053e-05,-3.47272,-0.306547,-0.192466,2.53849,0.2080403,
2,0,0,1,0,48382.5,0.206849,0.206516,-0.342722,25,0.0177947,10,-7.07775e-05,-3.46506,-0.347433,-0.169817,2.24494,0.206516,
2,0,0,1,0,48382.6,0.205352,0.205027,-0.341828,25,0.0177412,10,-7.00839e-05,-3.46619,-0.438028,-0.134695,1.79774,0.205027,
2,0,0,1,0,48382.8,0.203854,0.203525,-0.344896,25,0.0176875,10,-7.01949e-05,-3.46231,-0.343672,-0.171675,2.31475,0.203525,
2,0,0,1,0,48382.9,0.202355,0.202054,-0.347697,25,0.0176335,10,-7.02536e-05,-3.4588,-0.310076,-0.190276,2.5936,0.202054,
2,0,0,1,0,48383.1,0.200857,0.200553,-0.351198,25,0.0175789,10,-7.04337e-05,-3.45445,-0.369076,-0.159859,2.19522,0.200553,
2,0,0,1,0,48383.2,0.199359,0.199027,-0.355273,25,0.0175238,10,-7.07089e-05,-3.44944,-0.457032,-0.129094,1.79057,0.199027,
2,0,0,1,0,48383.4,0.19786,0.197527,-0.358892,25,0.0174682,10,-7.0891e-05,-3.44504,-0.369487,-0.159681,2.22724,0.197527,
2,0,0,1,0,48383.5,0.196362,0.19604,-0.361336,25,0.0174124,10,-7.08362e-05,-3.44209,-0.390627,-0.151039,2.1285,0.19604,
2,0,0,1,0,48383.7,0.194864,0.194574,-0.364896,25,0.0173558,10,-7.09994e-05,-3.43783,-0.307141,-0.192094,2.73012,0.194574,
2,0,0,1,0,48383.8,0.193366,0.193038,-0.368229,25,0.0172987,10,-7.10821e-05,-3.43388,-0.415741,-0.141915,2.03851,0.193038,
2,0,0,1,0,48384,0.191867,0.191492,-0.372697,25,0.0172412,10,-7.13683e-05,-3.42864,-0.503709,-0.117131,1.70295,0.191492,
2,0,0,1,0,48384.1,0.190369,0.190056,-0.373202,25,0.0171833,10,-7.09294e-05,-3.42806,-0.388181,-0.151991,2.22147,0.190056,
2,0,0,1,0,48384.3,0.188872,0.18854,-0.378013,25,0.0171249,10,-7.12706e-05,-3.42249,-0.305101,-0.193379,2.84277,0.18854,
2,0,0,1,0,48384.4,0.187373,0.18704,-0.381613,25,0.0170659,10,-7.13768e-05,-3.41838,-0.367942,-0.160351,2.38857,0.18704,
2,0,0,1,0,48384.6,0.185875,0.185598,-0.385014,25,0.0170063,10,-7.14577e-05,-3.41452,-0.428951,-0.137545,2.05768,0.185598,
2,0,0,1,0,48384.7,0.184377,0.183982,-0.3861,25,0.0169463,10,-7.10354e-05,-3.4133,-0.464775,-0.126943,1.92613,0.183982,
2,0,0,1,0,48384.9,0.182878,0.182571,-0.392608,25,0.0168858,10,-7.1679e-05,-3.40604,-0.432892,-0.136293,2.09351,0.182571,
2,0,0,1,0,48385,0.18138,0.181109,-0.39698,25,0.0168246,10,-7.18968e-05,-3.40123,-0.336754,-0.175202,2.7139,0.181109,
2,0,0,1,0,48385.2,0.179882,0.179565,-0.39971,25,0.0167628,10,-7.1774e-05,-3.39825,-0.534332,-0.110418,1.72567,0.179565,
2,0,0,1,0,48385.3,0.178384,0.178039,-0.405252,25,0.0167004,10,-7.21507e-05,-3.39228,-0.367757,-0.160432,2.53694,0.178039,
2,0,0,1,0,48385.5,0.176886,0.176545,-0.408682,25,0.0166375,10,-7.21509e-05,-3.38861,-0.347586,-0.169742,2.71769,0.176545,
2,0,0,1,0,48385.6,0.175387,0.175113,-0.414353,25,0.0165738,10,-7.25585e-05,-3.38263,-0.301652,-0.195589,3.15004,0.175113,
2,0,0,1,0,48385.8,0.17389,0.173585,-0.418159,25,0.0165094,10,-7.25859e-05,-3.37866,-0.285578,-0.206599,3.37026,0.173585,
2,0,0,1,0,48385.9,0.172392,0.172056,-0.422055,25,0.0164443,10,-7.26172e-05,-3.37463,-0.290847,-0.202856,3.34569,0.172056,
2,0,0,1,0,48386.1,0.170893,0.170588,-0.427507,25,0.0163786,10,-7.29275e-05,-3.36906,-0.30137,-0.195772,3.27501,0.170588,
2,0,0,1,0,48386.2,0.169395,0.169051,-0.43266,25,0.016312,10,-7.31417e-05,-3.36385,-0.214615,-0.274911,4.63602,0.169051,
2,0,0,1,0,48386.4,0.167897,0.16759,-0.439489,25,0.0162444,10,-7.36539e-05,-3.35705,-0.256498,-0.230022,3.94738,0.16759,
2,0,0,1,0,48386.5,0.166398,0.166034,-0.444297,25,0.0161759,10,-7.37686e-05,-3.35233,-0.279313,-0.211232,3.68162,0.166034,
2,0,0,1,0,48386.7,0.1649,0.164564,-0.450033,25,0.0161067,10,-7.40591e-05,-3.34676,-0.227775,-0.259028,4.57288,0.164564,
2,0,0,1,0,48386.8,0.163402,0.163088,-0.458463,25,0.0160363,10,-7.47697e-05,-3.3387,-0.209248,-0.281963,5.03551,0.163088,
2,0,0,1,0,48387,0.161904,0.161557,-0.467394,25,0.0159649,10,-7.5511e-05,-3.33032,-0.201091,-0.2934,5.35099,0.161557,
2,0,0,1,0,48387.1,0.160405,0.160112,-0.47505,25,0.0158922,10,-7.60614e-05,-3.32326,-0.200582,-0.294143,5.43574,0.1601125,
2,0,0,1,0,48387.3,0.158907,0.158545,-0.482981,25,0.0158183,10,-7.6574e-05,-3.31607,-0.179547,-0.328604,6.19425,0.158545,
2,0,0,1,0,48387.4,0.15741,0.157078,-0.492384,25,0.0157432,10,-7.73429e-05,-3.3077,-0.157339,-0.374987,7.23391,0.1570783,
2,0,0,1,0,48387.6,0.155911,0.155588,-0.502906,25,0.0156664,10,-7.82464e-05,-3.29851,-0.149739,-0.39402,7.75005,0.155588,
2,0,0,1,0,48387.7,0.154413,0.154058,-0.514346,25,0.0155879,10,-7.92392e-05,-3.28874,-0.162078,-0.364022,7.29879,0.1540582,
2,0,0,1,0,48387.9,0.152915,0.152603,-0.526858,25,0.0155077,10,-8.04002e-05,-3.27831,-0.141986,-0.415534,8.56096,0.152603,
2,0,0,1,0,48388,0.151417,0.151055,-0.541039,25,0.0154258,10,-8.17267e-05,-3.26677,-0.133826,-0.44087,9.31702,0.151055,
2,0,0,1,0,48388.2,0.149918,0.149559,-0.556598,25,0.0153414,10,-8.32442e-05,-3.25446,-0.116312,-0.507255,11.0153,0.1495589,
2,0,0,1,0,48388.3,0.14842,0.148114,-0.574298,25,0.0152546,10,-8.50613e-05,-3.24086,-0.112356,-0.525118,11.7761,0.148114,
2,0,0,1,0,48388.5,0.146922,0.146604,-0.592593,25,0.015165,10,-8.68762e-05,-3.22724,-0.103623,-0.569372,13.1912,0.146604,
2,0,0,1,0,48388.6,0.145424,0.145099,-0.61344,25,0.0150725,10,-8.90095e-05,-3.21223,-0.0942685,-0.625872,15.0424,0.145099,
2,0,0,1,0,48388.8,0.143925,0.14359,-0.636931,25,0.0149766,10,-9.14571e-05,-3.19591,-0.0842039,-0.70068,17.4443,0.14359,
2,0,0,1,0,48388.9,0.142428,0.142073,-0.664328,25,0.0148768,10,-9.43829e-05,-3.17762,-0.0842929,-0.69994,18.1939,0.142073,
2,0,0,1,0,48389.1,0.14093,0.140604,-0.689569,25,0.014773,10,-9.6956e-05,-3.16142,-0.0860529,-0.685625,18.5631,0.140604,
2,0,0,1,0,48389.2,0.139431,0.139101,-0.718268,25,0.0146649,10,-9.99119e-05,-3.14371,-0.0801541,-0.736082,20.7303,0.139101,
2,0,0,1,0,48389.4,0.137933,0.137564,-0.751259,25,0.0145524,10,-0.000103346,-3.12421,-0.0826099,-0.7142,20.9796,0.137564,
2,0,0,1,0,48389.5,0.136435,0.136086,-0.784554,25,0.014435,10,-0.000106767,-3.10538,-0.0831467,-0.709589,21.7193,0.136086,
2,0,0,1,0,48389.7,0.134936,0.134608,-0.817577,25,0.0143127,10,-0.000110053,-3.08747,-0.08534,-0.691353,22.011,0.134608,
2,0,0,1,0,48389.8,0.133438,0.133129,-0.852526,25,0.0141852,10,-0.000113496,-3.06929,-0.0879639,-0.67073,22.2858,0.133129,
2,0,0,1,0,48390,0.13194,0.131631,-0.885064,25,0.014053,10,-0.000116502,-3.05303,-0.0953546,-0.618743,21.3837,0.131631,
2,0,0,1,0,48390.1,0.130442,0.130147,-0.917384,25,0.0139157,10,-0.000119395,-3.03745,-0.0973483,-0.606071,21.7131,0.130147,
2,0,0,1,0,48390.3,0.128943,0.128618,-0.949509,25,0.0137734,10,-0.000122124,-3.0225,-0.106348,-0.554782,20.4502,0.128618,
2,0,0,1,0,48390.4,0.127445,0.127072,-0.980118,25,0.0136266,10,-0.000124545,-3.00872,-0.117541,-0.501954,19.1307,0.127072,
2,0,0,1,0,48390.6,0.125948,0.125629,-1.00743,25,0.0134758,10,-0.000126563,-2.99678,-0.129127,-0.456914,17.9124,0.125629,
2,0,0,1,0,48390.7,0.124449,0.124121,-1.03467,25,0.0133206,10,-0.000128424,-2.9852,-0.135463,-0.435542,17.5229,0.124121,
2,0,0,1,0,48390.9,0.122951,0.122628,-1.05783,25,0.0131615,10,-0.00012972,-2.97558,-0.155095,-0.380412,15.6623,0.122628,
2,0,0,1,0,48391,0.121453,0.12114,-1.0812,25,0.012999,10,-0.000130977,-2.96609,-0.193863,-0.304338,12.8028,0.12114,
2,0,0,1,0,48391.2,0.119955,0.11966,-1.09397,25,0.0128337,10,-0.000130904,-2.961,-0.215771,-0.273438,11.6968,0.11966,
2,0,0,1,0,48391.3,0.118456,0.118141,-1.11314,25,0.0126657,10,-0.000131507,-2.95345,-0.249857,-0.236135,10.2441,0.118141,
2,0,0,1,0,48391.5,0.116958,0.116618,-1.12803,25,0.0124955,10,-0.000131549,-2.94768,-0.359559,-0.16409,7.20058,0.116618,
2,0,0,1,0,48391.6,0.11546,0.115165,-1.13663,25,0.0123235,10,-0.000130899,-2.94438,-0.566149,-0.104213,4.61185,0.1151646,
2,0,0,1,0,48391.7,0.113962,0.113636,-1.14123,25,0.0121504,10,-0.000129684,-2.94263,-0.808993,-0.0729301,3.24679,0.1136355,
2,0,0,1,0,48391.9,0.112463,0.112125,-1.14763,25,0.0119766,10,-0.000128678,-2.9402,-1.09838,-0.0537155,2.40284,0.112125,
2,0,0,1,0,48392,0.110966,0.11062,-1.15162,25,0.0118022,10,-0.000127392,-2.93869,-2.18933,-0.0269489,1.20667,0.11062,
2,0,0,1,0,48392.2,0.109468,0.109142,-1.14991,25,0.0116276,10,-0.000125503,-2.93934,2.71214,0.0217541,-0.974255,0.109142,
2,0,0,1,0,48392.3,0.107969,0.107621,-1.14725,25,0.011453,10,-0.000123468,-2.94034,2.33096,0.0253115,-1.13447,0.107621,
2,0,0,1,0,48392.5,0.106471,0.106138,-1.14411,25,0.0112791,10,-0.000121435,-2.94153,1.24212,0.0474993,-2.12428,0.106138,
2,0,0,1,0,48392.6,0.104973,0.104674,-1.14244,25,0.0111056,10,-0.000119584,-2.94217,1.24598,0.0473523,-2.10999,0.104674,
2,0,0,1,0,48392.8,0.103474,0.10314,-1.13934,25,0.0109323,10,-0.000117511,-2.94335,0.903014,0.0653368,-2.89894,0.10314,
2,0,0,1,0,48392.9,0.101976,0.101624,-1.13485,25,0.0107598,10,-0.000115328,-2.94506,0.662506,0.0890557,-3.94338,0.101624,
2,0,0,1,0,48393.1,0.100478,0.100131,-1.12765,25,0.0105883,10,-0.000112913,-2.94783,0.648903,0.0909227,-4.00432,0.100131,
2,0,0,1,0,48393.2,0.0989798,0.0987029,-1.12329,25,0.0104175,10,-0.000110872,-2.94951,0.954043,0.0618421,-2.70888,0.0987029,
2,0,0,1,0,48393.4,0.0974808,0.0971548,-1.11928,25,0.0102473,10,-0.000108744,-2.95106,0.623372,0.0946465,-4.12604,0.0971548,
2,0,0,1,0,48393.5,0.0959833,0.0956487,-1.1114,25,0.0100779,10,-0.000106304,-2.95413,0.585716,0.100731,-4.37029,0.0956487,
2,0,0,1,0,48393.7,0.0944857,0.0942006,-1.10268,25,0.00990973,10,-0.000103873,-2.95755,0.609418,0.0968136,-4.18368,0.0942006,
2,0,0,1,0,48393.8,0.0929871,0.0926713,-1.10006,25,0.00974227,10,-0.000101944,-2.95858,0.937928,0.0629046,-2.70268,0.0926713,
2,0,0,1,0,48394,0.0914889,0.0911421,-1.09553,25,0.00957557,10,-9.98491e-05,-2.96037,0.747203,0.0789612,-3.37579,0.0911421,
2,0,0,1,0,48394.1,0.0899907,0.0896809,-1.09037,25,0.00940955,10,-9.77851e-05,-2.96243,0.589623,0.100064,-4.24651,0.0896809,
2,0,0,1,0,48394.3,0.0884925,0.0881815,-1.08102,25,0.0092445,10,-9.53261e-05,-2.96617,0.54382,0.108492,-4.58507,0.0881815,
2,0,0,1,0,48394.4,0.0869943,0.086681,-1.07753,25,0.00908056,10,-9.34018e-05,-2.96757,0.599851,0.0983577,-4.13874,0.086681,
2,0,0,1,0,48394.6,0.0854961,0.0851668,-1.07224,25,0.00891734,10,-9.1319e-05,-2.96971,0.605716,0.0974054,-4.07128,0.0851668,
2,0,0,1,0,48394.7,0.083998,0.0836387,-1.06794,25,0.00875489,10,-8.9321e-05,-2.97145,0.508505,0.116026,-4.82289,0.08363872,
2,0,0,1,0,48394.9,0.0824998,0.0822135,-1.0598,25,0.00859339,10,-8.71296e-05,-2.97478,0.522272,0.112968,-4.66841,0.0822135,
2,0,0,1,0,48395,0.0810011,0.0807127,-1.05195,25,0.00843297,10,-8.49059e-05,-2.978,0.667529,0.0883856,-3.63624,0.0807127,
2,0,0,1,0,48395.2,0.0795036,0.0791691,-1.04753,25,0.00827345,10,-8.29318e-05,-2.97984,0.68526,0.0860987,-3.51695,0.0791691,
2,0,0,1,0,48395.3,0.0780061,0.0776716,-1.04264,25,0.00811461,10,-8.09838e-05,-2.98186,0.631865,0.0933744,-3.79608,0.07767164,
2,0,0,1,0,48395.5,0.076507,0.0761788,-1.0349,25,0.00795661,10,-7.88374e-05,-2.9851,0.548006,0.107663,-4.34755,0.0761788,
2,0,0,1,0,48395.6,0.0750088,0.0746666,-1.02851,25,0.00779992,10,-7.67954e-05,-2.98779,0.534696,0.110343,-4.43151,0.0746666,
2,0,0,1,0,48395.8,0.0735106,0.0731746,-1.02249,25,0.007644,10,-7.48202e-05,-2.99034,0.762193,0.0774082,-3.08522,0.0731746,
2,0,0,1,0,48395.9,0.0720124,0.0716805,-1.01758,25,0.00748887,10,-7.29404e-05,-2.99243,0.55848,0.105644,-4.19506,0.0716805,
2,0,0,1,0,48396.1,0.0705142,0.0701875,-1.01012,25,0.00733472,10,-7.08978e-05,-2.99563,0.497947,0.118486,-4.67721,0.0701875,
2,0,0,1,0,48396.2,0.069016,0.0687283,-1.00207,25,0.00718163,10,-6.88704e-05,-2.9991,0.56537,0.104356,-4.09624,0.0687283,
2,0,0,1,0,48396.4,0.0675179,0.0671748,-0.999638,25,0.00702942,10,-6.71505e-05,-3.00016,0.720579,0.0818786,-3.19351,0.0671748,
2,0,0,1,0,48396.5,0.0660188,0.0657043,-0.997179,25,0.00687785,10,-6.5519e-05,-3.00123,0.519238,0.113628,-4.40325,0.0657043,
2,0,0,1,0,48396.7,0.0645213,0.0642385,-0.986972,25,0.00672708,10,-6.34016e-05,-3.0057,0.602286,0.09796,-3.76791,0.0642385,
2,0,0,1,0,48396.8,0.0630237,0.062694,-0.979719,25,0.00657753,10,-6.14225e-05,-3.0089,0.552995,0.106692,-4.09067,0.062694,
2,0,0,1,0,48397,0.0615251,0.0612292,-0.974627,25,0.00642891,10,-5.96756e-05,-3.01116,0.567386,0.103986,-3.95626,0.0612292,
2,0,0,1,0,48397.1,0.0600269,0.0596979,-0.967972,25,0.0062811,10,-5.77859e-05,-3.01414,0.618465,0.0953975,-3.60598,0.0596979,
2,0,0,1,0,48397.3,0.0585287,0.0582314,-0.961473,25,0.00613414,10,-5.59879e-05,-3.01706,0.43584,0.135371,-5.08322,0.05823138,
2,0,0,1,0,48397.4,0.0570305,0.0567023,-0.956791,25,0.00598814,10,-5.42522e-05,-3.01918,0.44868,0.131497,-4.90997,0.0567023,
2,0,0,1,0,48397.6,0.0555323,0.0551923,-0.948723,25,0.00584338,10,-5.23622e-05,-3.02286,0.530041,0.111312,-4.12812,0.0551923,
2,0,0,1,0,48397.7,0.0540342,0.05373,-0.94408,25,0.00569947,10,-5.07254e-05,-3.02499,0.499542,0.118108,-4.34023,0.05373,
2,0,0,1,0,48397.9,0.052536,0.0521902,-0.939996,25,0.00555618,10,-4.90586e-05,-3.02687,0.494243,0.119375,-4.36393,0.05219024,
2,0,0,1,0,48398,0.0510378,0.0507226,-0.931244,25,0.00541402,10,-4.72352e-05,-3.03094,0.402128,0.146719,-5.32736,0.0507226,
2,0,0,1,0,48398.2,0.0495391,0.049241,-0.922858,25,0.00527297,10,-4.54425e-05,-3.03486,0.525186,0.112341,-4.05282,0.049241,
2,0,0,1,0,48398.3,0.0480416,0.0477313,-0.917033,25,0.00513302,10,-4.37712e-05,-3.03761,0.602261,0.0979642,-3.50112,0.0477313,
2,0,0,1,0,48398.5,0.0465441,0.0462011,-0.909961,25,0.00499388,10,-4.20412e-05,-3.04098,0.488319,0.120823,-4.2936,0.04620108,
2,0,0,1,0,48398.6,0.045045,0.0447335,-0.903901,25,0.00485565,10,-4.04346e-05,-3.04388,0.495166,0.119152,-4.19774,0.0447335,
2,0,0,1,0,48398.8,0.0435468,0.043251,-0.895146,25,0.0047186,10,-3.8716e-05,-3.04811,0.442784,0.133248,-4.66552,0.043251,
2,0,0,1,0,48398.9,0.0420486,0.0417474,-0.888727,25,0.00458271,10,-3.7102e-05,-3.05123,0.453063,0.130225,-4.52425,0.0417474,
2,0,0,1,0,48399.1,0.0405504,0.0402013,-0.88666,25,0.00444766,10,-3.56449e-05,-3.05224,0.449797,0.13117,-4.52626,0.0402013,
2,0,0,1,0,48399.2,0.0390523,0.0387284,-0.876955,25,0.00431352,10,-3.3963e-05,-3.05702,0.380292,0.155144,-5.3033,0.0387284,
2,0,0,1,0,48399.4,0.0375541,0.0371887,-0.869838,25,0.00418048,10,-3.23481e-05,-3.06056,0.397363,0.148479,-5.05322,0.0371887,
2,0,0,1,0,48399.5,0.0360559,0.0357582,-0.861861,25,0.00404871,10,-3.08186e-05,-3.06456,0.400616,0.147273,-4.96141,0.03575819,
2,0,0,1,0,48399.7,0.0345568,0.0342302,-0.857696,25,0.00391766,10,-2.93591e-05,-3.06667,0.410605,0.14369,-4.80687,0.03423018,
2,0,0,1,0,48399.8,0.0330593,0.0326882,-0.848561,25,0.00378775,10,-2.7738e-05,-3.07132,0.406582,0.145112,-4.80712,0.0326882,
2,0,0,1,0,48400,0.0315618,0.0312264,-0.843887,25,0.00365878,10,-2.63516e-05,-3.07372,0.434198,0.135883,-4.47222,0.0312264,
2,0,0,1,0,48400.1,0.0300631,0.0297467,-0.835601,25,0.00353096,10,-2.48564e-05,-3.078,0.470225,0.125472,-4.08874,0.0297467,
2,0,0,1,0,48400.3,0.0285649,0.0282388,-0.829064,25,0.00340398,10,-2.34118e-05,-3.08141,0.537089,0.109851,-3.55411,0.0282388,
2,0,0,1,0,48400.4,0.0270667,0.0267999,-0.823773,25,0.00327787,10,-2.2077e-05,-3.08419,0.468152,0.126027,-4.04966,0.0267999,
2,0,0,1,0,48400.6,0.0255685,0.0252337,-0.817215,25,0.0031527,10,-2.06213e-05,-3.08766,0.424915,0.138851,-4.429,0.0252337,
2,0,0,1,0,48400.7,0.0240704,0.0237173,-0.81021,25,0.00302857,10,-1.9216e-05,-3.0914,0.484039,0.121891,-3.86391,0.0237173,
2,0,0,1,0,48400.9,0.0225722,0.0222613,-0.806049,25,0.0029053,10,-1.79437e-05,-3.09364,0.552734,0.106742,-3.35714,0.0222613,
2,0,0,1,0,48401,0.021074,0.0207662,-0.800852,25,0.00278269,10,-1.66306e-05,-3.09645,0.610364,0.0966636,-3.02203,0.0207662,
2,0,0,1,0,48401.2,0.0195758,0.019236,-0.797277,25,0.00266085,10,-1.53364e-05,-3.09839,0.525361,0.112304,-3.48593,0.019236,
2,0,0,1,0,48401.3,0.0180772,0.0177284,-0.789528,25,0.00253967,10,-1.39971e-05,-3.10263,0.612396,0.0963429,-2.97739,0.0177284,
2,0,0,1,0,48401.5,0.0165796,0.0162427,-0.787608,25,0.00241944,10,-1.27929e-05,-3.10369,0.926239,0.0636984,-1.95913,0.0162427,
2,0,0,1,0,48401.6,0.0150821,0.014759,-0.785787,25,0.00229945,10,-1.15975e-05,-3.1047,0.836103,0.0705655,-2.1597,0.014759,
2,0,0,1,0,48401.8,0.013583,0.0132627,-0.781895,25,0.00217979,10,-1.03701e-05,-3.10685,0.65606,0.0899308,-2.74033,0.0132627,
2,0,0,1,0,48401.9,0.0120848,0.0117676,-0.778638,25,0.00206075,10,-9.16266e-06,-3.10866,0.841621,0.0701028,-2.1326,0.0117676,
2,0,0,1,0,48402.1,0.0105866,0.0103021,-0.77655,25,0.00194235,10,-8.00007e-06,-3.10983,1.08749,0.0542535,-1.64529,0.0103021,
2,0,0,1,0,48402.2,0.00908846,0.0087719,-0.77362,25,0.00182407,10,-6.78612e-06,-3.11147,1.97276,0.0299073,-0.903798,0.0087719,
2,0,0,1,0,48402.4,0.00759027,0.00724174,-0.77254,25,0.00170601,10,-5.59453e-06,-3.11208,1.40784,0.0419082,-1.26334,0.00724174,
2,0,0,1,0,48402.5,0.00609207,0.00579852,-0.772119,25,0.00158819,10,-4.47715e-06,-3.11232,2.22167,0.0265566,-0.800076,0.00579852,
2,0,0,1,0,48402.7,0.00459389,0.00427472,-0.770508,25,0.00147068,10,-3.29371e-06,-3.11322,-24.2178,-0.00243622,0.0732964,0.00427472,
2,0,0,1,0,48402.8,0.0030948,0.00280261,-0.772873,25,0.00135297,10,-2.16606e-06,-3.11189,-0.863726,-0.0683087,2.05994,0.00280261,
2,0,0,1,0,48403,0.00159728,0.00120899,-0.78095,25,0.00123402,10,-9.44161e-07,-3.10738, , , ,0.00120899,
2,0,0,1,0,48403.1,0.000199195,-0.000155446,-0.774367,25,0.00112335,10,1.20373e-07,-3.11105, , , ,-0.0001554464,