File: Figure_codes/Fig_3-5/rawdata_trumpetplot_data/after 10th/20221101_1-115_003_TrumpetPlot_ParaChange_from10_every3_03_CV_C01_22.csv
mode,ox/red,error,control changes,counter inc.,time/s,control/V,Ewe/V,<I>/mA,cycle number,(Q-Qo)/C,I Range,P/W,log(|I|),Tafel slope mV/dec,alpha_eff,dI/d(E-IR),E-IR/V,
2,0,0,1,0,44282.9,2.44065e-05,-0.000325324,-0.105118,23,0.0000000E+000,10,3.41975e-08,-3.97832, , , ,-0.000325324,
2,1,0,0,0,44283.1,0.00129787,0.000917473,0.129407,23,2.11038e-05,10,1.18727e-07,-3.88804, , , ,0.000917473,
2,1,0,0,0,44283.4,0.00279606,0.00246991,0.169988,23,7.17753e-05,10,4.19854e-07,-3.76958,0.0148791,3.96529,21.2363,0.00246991,
2,1,0,1,0,44283.7,0.00429469,0.00396012,0.180341,23,0.000128593,10,7.14171e-07,-3.74391,0.0585065,1.00843,7.09544,0.00396012,
2,1,0,1,0,44284,0.00579255,0.00548594,0.190009,23,0.000188691,10,1.04238e-06,-3.72123,0.0685406,0.860804,6.37829,0.00548594,
2,1,0,1,0,44284.3,0.00729041,0.00694458,0.199628,23,0.000251664,10,1.38634e-06,-3.69978,0.08363,0.705488,5.50041,0.00694458,
2,1,0,1,0,44284.6,0.00878882,0.00845484,0.208685,23,0.000317283,10,1.7644e-06,-3.68051,0.0900948,0.654866,5.31413,0.00845484,
2,1,0,1,0,44284.9,0.010287,0.00997759,0.215707,23,0.000385111,10,2.15223e-06,-3.66614,0.124644,0.473348,3.94868,0.00997759,
2,1,0,1,0,44285.2,0.0117852,0.011459,0.221093,23,0.000454925,10,2.53349e-06,-3.65543,0.122137,0.483065,4.15031,0.011459,
2,1,0,1,0,44285.5,0.0132836,0.0129288,0.227568,23,0.000526273,10,2.94218e-06,-3.64289,0.128306,0.459836,4.09584,0.0129288,
2,1,0,1,0,44285.8,0.0147815,0.0144311,0.232314,23,0.000599537,10,3.35256e-06,-3.63392,0.137739,0.428345,3.89205,0.0144311,
2,1,0,1,0,44286.1,0.0162793,0.0159259,0.238822,23,0.000674686,10,3.80346e-06,-3.62193,0.187966,0.313886,2.90825,0.0159259,
2,1,0,0,0,44286.4,0.017778,0.0174418,0.243125,23,0.000751308,10,4.24054e-06,-3.61417,0.165889,0.355659,3.37648,0.0174418,
2,1,0,0,0,44286.7,0.0192761,0.0189635,0.248645,23,0.000828976,10,4.71517e-06,-3.60442,0.187156,0.315244,3.05302,0.0189635,
2,1,0,1,0,44287,0.0207747,0.020457,0.254278,23,0.000908505,10,5.20176e-06,-3.59469,0.15035,0.392417,3.87103,0.02045696,
2,1,0,1,0,44287.3,0.0222725,0.0219667,0.259154,23,0.000989713,10,5.69276e-06,-3.58644,0.163761,0.360282,3.6424,0.0219667,
2,1,0,1,0,44287.6,0.0237704,0.0234877,0.265553,23,0.00107249,10,6.23724e-06,-3.57585,0.172396,0.342234,3.53792,0.0234877,
2,1,0,1,0,44287.9,0.0252689,0.0249516,0.268949,23,0.00115664,10,6.71071e-06,-3.57033,0.166162,0.355075,3.74778,0.0249516,
2,1,0,1,0,44288.2,0.0267671,0.0264213,0.274899,23,0.00124248,10,7.26319e-06,-3.56083,0.155724,0.378875,4.05348,0.0264213,
2,1,0,1,0,44288.5,0.0282657,0.0279351,0.28069,23,0.0013301,10,7.84111e-06,-3.55177,0.178346,0.330817,3.61673,0.0279351,
2,1,0,1,0,44288.8,0.0297635,0.0294564,0.286078,23,0.0014192,10,8.42684e-06,-3.54352,0.211777,0.278595,3.09494,0.0294564,
2,1,0,1,0,44289.1,0.0312613,0.03095,0.288526,23,0.00150967,10,8.9299e-06,-3.53981,0.182997,0.32241,3.66228,0.03095,
2,1,0,0,0,44289.4,0.0327599,0.03242,0.295449,23,0.00160159,10,9.57847e-06,-3.52952,0.193624,0.304714,3.51761,0.03242,
2,1,0,0,0,44289.7,0.034258,0.033946,0.301958,23,0.00169526,10,1.02503e-05,-3.52005,0.2187,0.269776,3.17503,0.033946,
2,1,0,1,0,44290,0.0357567,0.0354063,0.305983,23,0.00179058,10,1.08337e-05,-3.5143,0.235063,0.250996,2.99371,0.0354063,
2,1,0,1,0,44290.3,0.0372545,0.0369512,0.312121,23,0.00188739,10,1.15333e-05,-3.50568,0.227372,0.259486,3.15461,0.0369512,
2,1,0,1,0,44290.6,0.0387524,0.0384068,0.316066,23,0.00198545,10,1.21391e-05,-3.50022,0.192505,0.306485,3.80183,0.0384068,
2,1,0,1,0,44290.9,0.0402508,0.039898,0.322042,23,0.00208537,10,1.28488e-05,-3.49209,0.203754,0.289565,3.64015,0.039898,
2,1,0,1,0,44291.2,0.041749,0.0414123,0.327601,23,0.00218706,10,1.35667e-05,-3.48465,0.236125,0.249868,3.18506,0.0414123,
2,1,0,1,0,44291.5,0.0432472,0.0428778,0.333324,23,0.00229012,10,1.42922e-05,-3.47713,0.254525,0.231804,3.0048,0.0428778,
2,1,0,1,0,44291.8,0.0447456,0.0444326,0.337193,23,0.00239443,10,1.49824e-05,-3.47212,0.244514,0.241295,3.16803,0.0444326,
2,1,0,1,0,44292.1,0.0462435,0.0458754,0.342531,23,0.00250042,10,1.57137e-05,-3.4653,0.208757,0.282626,3.76166,0.0458754,
2,1,0,1,0,44292.4,0.0477413,0.0474679,0.347497,23,0.00260797,10,1.6495e-05,-3.45905,0.257718,0.228932,3.09867,0.0474679,
2,1,0,0,0,44292.7,0.0492399,0.048904,0.35117,23,0.00271692,10,1.71736e-05,-3.45448,0.284743,0.207205,2.84328,0.048904,
2,1,0,0,0,44293,0.0507381,0.0503929,0.35478,23,0.00282695,10,1.78784e-05,-3.45004,0.255006,0.231367,3.21173,0.0503929,
2,1,0,1,0,44293.3,0.0522367,0.0519244,0.360427,23,0.00293848,10,1.8715e-05,-3.44318,0.234962,0.251104,3.52509,0.0519244,
2,1,0,1,0,44293.6,0.0537345,0.0533992,0.365564,23,0.00305156,10,1.95208e-05,-3.43704,0.252412,0.233744,3.32597,0.0533992,
2,1,0,1,0,44293.9,0.0552323,0.0548897,0.369841,23,0.00316597,10,2.03005e-05,-3.43198,0.324848,0.181623,2.61423,0.0548897,
2,1,0,1,0,44294.2,0.0567309,0.0564054,0.372095,23,0.00328165,10,2.09882e-05,-3.42935,0.301348,0.195787,2.84955,0.0564054,
2,1,0,1,0,44294.5,0.0582291,0.0578984,0.376814,23,0.00339838,10,2.18169e-05,-3.42387,0.341419,0.172808,2.54899,0.05789841,
2,1,0,1,0,44294.8,0.0597277,0.0593856,0.382796,23,0.0035166,10,2.27326e-05,-3.41703,0.349499,0.168813,2.51477,0.0593856,
2,1,0,1,0,44295.1,0.0612255,0.0608972,0.386166,23,0.00363619,10,2.35164e-05,-3.41323,0.399366,0.147734,2.22469,0.0608972,
2,1,0,1,0,44295.4,0.0627233,0.0623889,0.389988,23,0.00375685,10,2.43309e-05,-3.40895,0.353363,0.166967,2.54248,0.0623889,
2,1,0,0,0,44295.7,0.0642218,0.0638706,0.393189,23,0.00387839,10,2.51132e-05,-3.4054,0.310398,0.190078,2.92936,0.0638706,
2,1,0,0,0,44296,0.06572,0.0653806,0.397313,23,0.00400131,10,2.59766e-05,-3.40087,0.335201,0.176014,2.72439,0.06538064,
2,1,0,1,0,44296.3,0.0672187,0.0669178,0.402752,23,0.0041256,10,2.69513e-05,-3.39496,0.358057,0.164778,2.57376,0.0669178,
2,1,0,1,0,44296.6,0.0687165,0.0684251,0.405376,23,0.00425078,10,2.77379e-05,-3.39214,0.437757,0.134778,2.12554,0.0684251,
2,1,0,1,0,44296.9,0.0702144,0.0698594,0.407037,23,0.00437674,10,2.84354e-05,-3.39037,0.504597,0.116925,1.85775,0.0698594,
2,1,0,1,0,44297.2,0.0717128,0.0714112,0.410022,23,0.00450375,10,2.92801e-05,-3.38719,0.399585,0.147653,2.36442,0.0714112,
2,1,0,1,0,44297.5,0.073211,0.0728904,0.413987,23,0.00463171,10,3.01757e-05,-3.38301,0.424995,0.138825,2.24071,0.0728904,
2,1,0,1,0,44297.8,0.0747092,0.0744142,0.417917,23,0.00476066,10,3.1099e-05,-3.37891,0.492432,0.119813,1.95061,0.0744142,
2,1,0,1,0,44298.1,0.0762076,0.0758408,0.41825,23,0.00489019,10,3.17204e-05,-3.37856,0.469882,0.125563,2.06004,0.0758408,
2,1,0,1,0,44298.4,0.0777054,0.0774077,0.423758,23,0.00502081,10,3.28021e-05,-3.37288,0.344306,0.171359,2.82781,0.0774077,
2,1,0,1,0,44298.7,0.0792033,0.0788739,0.426917,23,0.00515245,10,3.36726e-05,-3.36966,0.448617,0.131515,2.18916,0.0788739,
2,1,0,0,0,44299,0.0807019,0.0803313,0.429229,23,0.00528514,10,3.44806e-05,-3.36731,0.483828,0.121944,2.03704,0.0803313,
2,1,0,0,0,44299.3,0.0822001,0.0818954,0.431042,23,0.00541858,10,3.53003e-05,-3.36548,0.460821,0.128032,2.15833,0.0818954,
2,1,0,1,0,44299.6,0.0836986,0.0834091,0.436194,23,0.00555275,10,3.63825e-05,-3.36032,0.47096,0.125276,2.1333,0.0834091,
2,1,0,1,0,44299.9,0.0851965,0.0848795,0.439191,23,0.00568822,10,3.72783e-05,-3.35735,0.374985,0.15734,2.70086,0.0848795,
2,1,0,1,0,44300.2,0.0866944,0.0863562,0.443536,23,0.00582495,10,3.83021e-05,-3.35307,0.492731,0.119741,2.06915,0.0863562,
2,1,0,1,0,44300.5,0.0881929,0.087874,0.448011,23,0.00596295,10,3.93686e-05,-3.34871,0.373241,0.158075,2.7655,0.08787398,
2,1,0,1,0,44300.8,0.0896911,0.0893628,0.451691,23,0.00610176,10,4.03643e-05,-3.34516,0.297434,0.198363,3.51204,0.0893628,
2,1,0,1,0,44301.1,0.0911897,0.0908457,0.457712,23,0.00624238,10,4.15811e-05,-3.33941,0.277374,0.212709,3.78989,0.0908457,
2,1,0,1,0,44301.4,0.0926875,0.0923435,0.464181,23,0.00638503,10,4.28641e-05,-3.33331,0.271282,0.217486,3.93527,0.0923435,
2,1,0,1,0,44301.7,0.0941853,0.0938851,0.470054,23,0.00652923,10,4.41311e-05,-3.32785,0.282948,0.208519,3.83629,0.0938851,
2,1,0,0,0,44302,0.0956838,0.0953732,0.47557,23,0.00667507,10,4.53566e-05,-3.32279,0.236275,0.249709,4.65232,0.0953732,
2,1,0,0,0,44302.3,0.097182,0.0968281,0.483183,23,0.00682327,10,4.67857e-05,-3.31589,0.191314,0.308394,5.8066,0.0968281,
2,1,0,1,0,44302.6,0.0986807,0.0983736,0.491283,23,0.0069739,10,4.83293e-05,-3.30867,0.223238,0.264292,5.0722,0.0983736,
2,1,0,1,0,44302.9,0.100179,0.0998832,0.498379,23,0.0071268,10,4.97797e-05,-3.30244,0.217632,0.2711,5.28098,0.0998832,
2,1,0,1,0,44303.2,0.101676,0.101371,0.505641,23,0.00728187,10,5.12571e-05,-3.29616,0.212959,0.277048,5.48967,0.101371,
2,1,0,1,0,44303.5,0.103175,0.10284,0.51585,23,0.00743945,10,5.30498e-05,-3.28748,0.211001,0.27962,5.63518,0.1028395,
2,1,0,1,0,44303.8,0.104673,0.10435,0.526876,23,0.00759976,10,5.49793e-05,-3.27829,0.209447,0.281694,5.7643,0.10435,
2,1,0,1,0,44304.1,0.106171,0.105871,0.533404,23,0.00776273,10,5.64721e-05,-3.27294,0.251414,0.234673,4.86867,0.105871,
2,1,0,1,0,44304.4,0.10767,0.107346,0.53952,23,0.00792784,10,5.79156e-05,-3.26799,0.258357,0.228366,4.8165,0.107346,
2,1,0,1,0,44304.7,0.109167,0.108843,0.547089,23,0.00809491,10,5.95469e-05,-3.26194,0.26178,0.22538,4.82029,0.108843,
2,1,0,1,0,44305,0.110665,0.110312,0.554218,23,0.0082645,10,6.11367e-05,-3.25632,0.28566,0.206539,4.46756,0.110312,
2,1,0,0,0,44305.3,0.112164,0.111838,0.562069,23,0.00843624,10,6.28607e-05,-3.25021,0.376535,0.156692,3.42524,0.111838,
2,1,0,0,0,44305.6,0.113662,0.113387,0.567736,23,0.00860978,10,6.4374e-05,-3.24585,0.373752,0.157859,3.48867,0.113387,
2,1,0,1,0,44305.9,0.115161,0.114829,0.572321,23,0.00878448,10,6.57189e-05,-3.24236,0.381013,0.154851,3.45404,0.1148288,
2,1,0,1,0,44306.2,0.116658,0.116365,0.577335,23,0.00896108,10,6.71816e-05,-3.23857,0.342753,0.172136,3.87061,0.116365,
2,1,0,1,0,44306.5,0.118156,0.117829,0.582536,23,0.00913936,10,6.86395e-05,-3.23468,0.417646,0.141268,3.20647,0.117829,
2,1,0,1,0,44306.8,0.119655,0.119355,0.586195,23,0.00931908,10,6.99655e-05,-3.23196,0.584822,0.100885,2.31107,0.119355,
2,1,0,1,0,44307.1,0.121153,0.120834,0.588311,23,0.00949944,10,7.10877e-05,-3.23039,0.576711,0.102304,2.35865,0.120834,
2,1,0,1,0,44307.4,0.122652,0.122329,0.593112,23,0.00968126,10,7.25549e-05,-3.22686,0.469885,0.125563,2.90739,0.122329,
2,1,0,1,0,44307.7,0.124149,0.123843,0.597418,23,0.00986432,10,7.3986e-05,-3.22372,0.560639,0.105237,2.45321,0.123843,
2,1,0,1,0,44308,0.125647,0.125325,0.601548,23,0.0100485,10,7.53891e-05,-3.22073,0.869852,0.0678277,1.59103,0.125325,
2,1,0,0,0,44308.3,0.127146,0.126842,0.60136,23,0.0102334,10,7.62776e-05,-3.22087,0.838731,0.0703443,1.6538,0.1268418,
2,1,0,0,0,44308.6,0.128644,0.128348,0.605784,23,0.0104189,10,7.77509e-05,-3.21768,1.59655,0.0369546,0.872488,0.128348,
2,1,0,1,0,44308.9,0.130143,0.129791,0.607963,23,0.0106053,10,7.89084e-05,-3.21612,39.2532,0.00150306,0.0354891,0.129791,
2,1,0,1,0,44309.2,0.131641,0.131325,0.606191,23,0.0107918,10,7.96082e-05,-3.21739,-0.695926,-0.0847791,-1.99752,0.131325,
2,1,0,1,0,44309.5,0.133138,0.132831,0.603762,23,0.0109775,10,8.0198e-05,-3.21913,-0.490691,-0.120239,-2.82497,0.132831,
2,1,0,1,0,44309.8,0.134637,0.13432,0.597831,23,0.011162,10,8.03005e-05,-3.22342,-0.323069,-0.182623,-4.25958,0.13432,
2,1,0,1,0,44310.1,0.136135,0.135806,0.591815,23,0.0113448,10,8.03723e-05,-3.22781,-0.228862,-0.257798,-5.92672,0.135806,
2,1,0,1,0,44310.4,0.137633,0.137318,0.582664,23,0.0115251,10,8.00099e-05,-3.23458,-0.165576,-0.356332,-8.03934,0.137318,
2,1,0,1,0,44310.7,0.139132,0.138836,0.568899,23,0.011702,10,7.89838e-05,-3.24496,-0.131286,-0.4494,-9.92349,0.138836,
2,1,0,1,0,44311,0.140629,0.140314,0.552928,23,0.0118741,10,7.75836e-05,-3.25733,-0.109503,-0.538798,-11.5655,0.140314,
2,1,0,1,0,44311.3,0.142127,0.141772,0.534763,23,0.0120412,10,7.58143e-05,-3.27184,-0.09991,-0.590532,-12.2568,0.141772,
2,1,0,0,0,44311.6,0.143626,0.1433,0.515711,23,0.0122031,10,7.39015e-05,-3.28759,-0.0870563,-0.677722,-13.5627,0.1433,
2,1,0,0,0,44311.9,0.145124,0.144809,0.492865,23,0.0123585,10,7.13714e-05,-3.30727,-0.0759739,-0.776583,-14.9657,0.144809,
2,1,0,1,0,44312.2,0.146623,0.146296,0.469427,23,0.0125071,10,6.86755e-05,-3.32843,-0.075229,-0.784272,-14.4062,0.146296,
2,1,0,1,0,44312.5,0.14812,0.147839,0.449272,23,0.0126492,10,6.64198e-05,-3.34749,-0.0784646,-0.751932,-13.2104,0.1478388,
2,1,0,1,0,44312.8,0.149618,0.149278,0.429814,23,0.0127853,10,6.41615e-05,-3.36672,-0.0797445,-0.739863,-12.4443,0.149278,
2,1,0,1,0,44313.1,0.151117,0.150794,0.410902,23,0.0129156,10,6.19617e-05,-3.38626,-0.0814966,-0.723957,-11.6629,0.150794,
2,1,0,1,0,44313.4,0.152615,0.152249,0.393716,23,0.0130407,10,5.99429e-05,-3.40482,-0.0904898,-0.652007,-10.0938,0.152249,
2,1,0,1,0,44313.7,0.154114,0.153765,0.381694,23,0.0131612,10,5.8691e-05,-3.41829,-0.0995154,-0.592873,-8.87355,0.1537648,
2,1,0,1,0,44314,0.155612,0.155309,0.370614,23,0.013278,10,5.75599e-05,-3.43108,-0.118232,-0.49902,-7.22591,0.155309,
2,1,0,1,0,44314.3,0.157109,0.156835,0.359313,23,0.0133917,10,5.63528e-05,-3.44453,-0.122656,-0.48102,-6.77261,0.156835,
2,1,0,0,0,44314.6,0.158608,0.158298,0.350304,23,0.0135024,10,5.54523e-05,-3.45555,-0.155468,-0.379499,-5.23104,0.158298,
2,1,0,0,0,44314.9,0.160106,0.159791,0.344048,23,0.0136106,10,5.49757e-05,-3.46338,-0.180799,-0.326329,-4.39363,0.159791,
2,1,0,1,0,44315.2,0.161605,0.161286,0.338353,23,0.013717,10,5.45717e-05,-3.47063,-0.214245,-0.275386,-3.64766,0.161286,
2,1,0,1,0,44315.5,0.163102,0.1628,0.333888,23,0.0138217,10,5.4357e-05,-3.4764,-0.259173,-0.227647,-2.96587,0.1628,
2,1,0,1,0,44315.8,0.1646,0.164259,0.328444,23,0.013925,10,5.39498e-05,-3.48354,-0.277674,-0.212479,-2.72691,0.164259,
2,1,0,1,0,44316.1,0.166099,0.1658,0.324546,23,0.0140267,10,5.38098e-05,-3.48872,-0.331219,-0.17813,-2.26015,0.1658,
2,1,0,1,0,44316.4,0.167597,0.167331,0.320877,23,0.0141276,10,5.36928e-05,-3.49366,-0.430957,-0.136904,-1.71669,0.167331,
2,1,0,1,0,44316.7,0.169095,0.168805,0.318947,23,0.0142276,10,5.384e-05,-3.49628,-0.372979,-0.158186,-1.96749,0.168805,
2,1,0,1,0,44317,0.170594,0.170304,0.315683,23,0.0143267,10,5.37621e-05,-3.50075,-0.40364,-0.14617,-1.80564,0.170304,
2,1,0,1,0,44317.3,0.172091,0.171772,0.311903,23,0.0144249,10,5.35762e-05,-3.50598,-0.424126,-0.139109,-1.70292,0.171772,
2,1,0,1,0,44317.6,0.173589,0.173277,0.310569,23,0.0145224,10,5.38143e-05,-3.50784,-0.690922,-0.0853932,-1.03563,0.173277,
2,1,0,0,0,44317.9,0.175088,0.17474,0.310919,23,0.0146194,10,5.433e-05,-3.50735,-0.815832,-0.0723188,-0.872629,0.17474,
2,1,0,0,0,44318.2,0.176586,0.176273,0.308076,23,0.0147158,10,5.43053e-05,-3.51134,-0.474902,-0.124236,-1.49174,0.176273,
2,1,0,1,0,44318.5,0.178085,0.177781,0.305156,23,0.0148118,10,5.42509e-05,-3.51548,-0.601547,-0.0980805,-1.17011,0.177781,
2,1,0,1,0,44318.8,0.179582,0.179288,0.304589,23,0.0149072,10,5.46094e-05,-3.51629,-1.08331,-0.0544625,-0.649604,0.179288,
2,1,0,1,0,44319.1,0.18108,0.180734,0.304134,23,0.0150023,10,5.49673e-05,-3.51693,-0.656673,-0.0898468,-1.0659,0.180734,
2,1,0,1,0,44319.4,0.182579,0.182271,0.301946,23,0.0150972,10,5.50362e-05,-3.52007,-0.585608,-0.10075,-1.1879,0.182271,
2,1,0,1,0,44319.7,0.184077,0.183791,0.301396,23,0.0151916,10,5.53938e-05,-3.52086,-0.906268,-0.0651022,-0.766695,0.183791,
2,1,0,1,0,44320,0.185576,0.185263,0.300781,23,0.0152855,10,5.57237e-05,-3.52175,-1.16966,-0.0504421,-0.59214,0.1852631,
2,1,0,1,0,44320.3,0.187074,0.186775,0.299676,23,0.0153793,10,5.5972e-05,-3.52335,-1.22579,-0.0481322,-0.559733,0.186775,
2,1,0,1,0,44320.6,0.188571,0.188262,0.298836,23,0.0154729,10,5.62595e-05,-3.52457,-1.18204,-0.0499135,-0.580529,0.188262,
2,1,0,0,0,44320.9,0.19007,0.189755,0.297636,23,0.0155661,10,5.64777e-05,-3.52632,-1.07017,-0.0551315,-0.640361,0.189755,
2,1,0,0,0,44321.2,0.191568,0.191225,0.296478,23,0.0156589,10,5.66942e-05,-3.52801,-2.23573,-0.0263896,-0.305512,0.191225,
2,1,0,1,0,44321.5,0.193067,0.192746,0.295877,23,0.0157516,10,5.70293e-05,-3.52889,7.28176,0.00810244,0.0934397,0.192746,
2,1,0,1,0,44321.8,0.194564,0.194255,0.294217,23,0.0158443,10,5.71533e-05,-3.53133,-1.55683,-0.0378975,-0.436924,0.194255,
2,1,0,1,0,44322.1,0.196062,0.195693,0.293771,23,0.0159366,10,5.74888e-05,-3.53199,-1.8172,-0.0324675,-0.373305,0.195693,
2,1,0,1,0,44322.4,0.197561,0.19725,0.292104,23,0.0160286,10,5.76174e-05,-3.53446,-1.3764,-0.0428653,-0.491217,0.19725,
2,1,0,1,0,44322.7,0.199059,0.19877,0.293244,23,0.0161204,10,5.82881e-05,-3.53277,-2.24375,-0.0262953,-0.300337,0.19877,
2,1,0,1,0,44323,0.200557,0.200231,0.292868,23,0.0162121,10,5.86415e-05,-3.53333,-1.47052,-0.0401219,-0.457009,0.200231,
2,1,0,1,0,44323.3,0.202056,0.20173,0.292556,23,0.0163037,10,5.90174e-05,-3.53379,-1.71765,-0.0343493,-0.390986,0.20173,
2,1,0,1,0,44323.6,0.203553,0.203191,0.290498,23,0.0163949,10,5.90266e-05,-3.53686,-4.49522,-0.0131251,-0.149256,0.203191,
2,1,0,1,0,44323.9,0.205051,0.204707,0.290373,23,0.0164861,10,5.94414e-05,-3.53704,3.76065,0.0156888,0.17927,0.204707,
2,1,0,0,0,44324.2,0.20655,0.20625,0.291102,23,0.0165772,10,6.00398e-05,-3.53596,-1.45619,-0.0405166,-0.460046,0.20625,
2,1,0,0,0,44324.5,0.208048,0.207799,0.289757,23,0.0166685,10,6.02111e-05,-3.53797,-1.07141,-0.0550679,-0.622976,0.207799,
2,1,0,1,0,44324.8,0.209547,0.209246,0.289281,23,0.0167594,10,6.05309e-05,-3.53868,-1.56972,-0.0375863,-0.424617,0.209246,
2,1,0,1,0,44325.1,0.211044,0.210672,0.289525,23,0.0168499,10,6.09948e-05,-3.53831,-1.88237,-0.0313435,-0.353859,0.210672,
2,1,0,1,0,44325.4,0.212542,0.212274,0.288942,23,0.0169404,10,6.13349e-05,-3.53919,4.1858,0.0140953,0.158493,0.212274,
2,1,0,1,0,44325.7,0.214041,0.213723,0.288412,23,0.0170309,10,6.16402e-05,-3.53999,-5.94358,-0.00992667,-0.111562,0.213723,
2,1,0,1,0,44326,0.215539,0.215203,0.287798,23,0.0171212,10,6.1935e-05,-3.54091,-1.31555,-0.0448481,-0.50324,0.215203,
2,1,0,1,0,44326.3,0.217038,0.216699,0.286829,23,0.0172112,10,6.21555e-05,-3.54238,-1.39635,-0.0422531,-0.473902,0.216699,
2,1,0,1,0,44326.6,0.218535,0.218211,0.2872,23,0.0173012,10,6.26702e-05,-3.54181,2.26724,0.0260228,0.290291,0.218211,
2,1,0,1,0,44326.9,0.220033,0.219708,0.285789,23,0.0173911,10,6.279e-05,-3.54395,-2.83788,-0.0207902,-0.232704,0.219708,
2,1,0,0,0,44327.2,0.221532,0.221231,0.285891,23,0.0174809,10,6.32479e-05,-3.5438,-1.7462,-0.0337877,-0.376567,0.221231,
2,1,0,0,0,44327.5,0.22303,0.22267,0.283921,23,0.0175704,10,6.32206e-05,-3.5468,-2.20162,-0.0267984,-0.298193,0.22267,
2,1,0,1,0,44327.8,0.224529,0.224231,0.28541,23,0.0176599,10,6.39979e-05,-3.54453,-3.69263,-0.0159778,-0.177668,0.224231,
2,1,0,1,0,44328.1,0.226026,0.225692,0.284609,23,0.0177492,10,6.4234e-05,-3.54575,-1.88698,-0.0312669,-0.347839,0.225692,
2,1,0,1,0,44328.4,0.227524,0.227227,0.284199,23,0.0178384,10,6.45776e-05,-3.54638,-1.14584,-0.0514905,-0.570506,0.227227,
2,1,0,1,0,44328.7,0.229023,0.228709,0.283347,23,0.0179276,10,6.48039e-05,-3.54768,-3.00152,-0.0196567,-0.217519,0.228709,
2,1,0,1,0,44329,0.230521,0.230196,0.283226,23,0.0180164,10,6.51977e-05,-3.54787,-2.34064,-0.0252067,-0.279932,0.230196,
2,1,0,1,0,44329.3,0.232019,0.231766,0.282349,23,0.0181052,10,6.54388e-05,-3.54921,-1.65265,-0.0357002,-0.394411,0.231766,
2,1,0,1,0,44329.6,0.233518,0.233214,0.283131,23,0.0181941,10,6.60301e-05,-3.54801,-0.883943,-0.0667464,-0.735971,0.233214,
2,1,0,1,0,44329.9,0.235015,0.234724,0.283323,23,0.0182828,10,6.65027e-05,-3.54772,-4.5871,-0.0128622,-0.141708,0.234724,
2,1,0,1,0,44330.2,0.236513,0.236208,0.282636,23,0.0183713,10,6.67609e-05,-3.54877,-1.83302,-0.0321874,-0.354918,0.236208,
2,1,0,0,0,44330.5,0.238012,0.237731,0.282123,23,0.0184599,10,6.70694e-05,-3.54956,-2.53926,-0.0232351,-0.255662,0.237731,
2,1,0,0,0,44330.8,0.23951,0.239226,0.282708,23,0.0185483,10,6.7631e-05,-3.54866,-1.38353,-0.0426445,-0.469075,0.239226,
2,1,0,1,0,44331.1,0.241009,0.240686,0.281227,23,0.0186365,10,6.76875e-05,-3.55094,-1.49108,-0.0395685,-0.435409,0.2406863,
2,1,0,1,0,44331.4,0.242506,0.242165,0.280584,23,0.0187245,10,6.79477e-05,-3.55194,-50.5034,-0.00116824,-0.0127981,0.242165,
2,1,0,1,0,44331.7,0.244004,0.243696,0.280236,23,0.0188124,10,6.82924e-05,-3.55248,-7.33132,-0.00804767,-0.087912,0.243696,
2,1,0,1,0,44332,0.245503,0.245213,0.280114,23,0.0189004,10,6.86875e-05,-3.55267,-44.4907,-0.00132612,-0.0144998,0.245213,
2,1,0,1,0,44332.3,0.247001,0.246698,0.280243,23,0.0189882,10,6.91356e-05,-3.55246,-3.2195,-0.0183258,-0.19998,0.246698,
2,1,0,1,0,44332.6,0.2485,0.248159,0.278054,23,0.0190759,10,6.90014e-05,-3.55587,-2.10249,-0.0280619,-0.305761,0.248159,
2,1,0,1,0,44332.9,0.249997,0.249689,0.279291,23,0.0191634,10,6.97357e-05,-3.55394,-21.8204,-0.00270389,-0.0294379,0.2496887,
2,1,0,1,0,44333.2,0.251495,0.251174,0.279035,23,0.0192509,10,7.00864e-05,-3.55434,-1.61817,-0.036461,-0.396495,0.251174,
2,1,0,0,0,44333.5,0.252994,0.252682,0.278126,23,0.0193383,10,7.02776e-05,-3.55576,-1.51083,-0.0390513,-0.42433,0.252682,
2,1,0,0,0,44333.8,0.254492,0.25416,0.277914,23,0.0194255,10,7.06345e-05,-3.55609,-1.92545,-0.0306422,-0.333011,0.25416,
2,1,0,1,0,44334.1,0.255991,0.255693,0.277229,23,0.0195125,10,7.08855e-05,-3.55716,3.84676,0.0153376,0.166525,0.255693,
2,1,0,1,0,44334.4,0.257488,0.257156,0.277429,23,0.0195997,10,7.13426e-05,-3.55685,-2.86086,-0.0206232,-0.222873,0.257156,
2,1,0,1,0,44334.7,0.258986,0.258684,0.277876,23,0.0196867,10,7.1882e-05,-3.55615,-1.56309,-0.0377459,-0.407714,0.258684,
2,1,0,1,0,44335,0.260485,0.26018,0.276384,23,0.0197735,10,7.19098e-05,-3.55849,-1.32916,-0.044389,-0.478549,0.26018,
2,1,0,1,0,44335.3,0.261983,0.261684,0.276245,23,0.01986,10,7.22888e-05,-3.55871,-4.77332,-0.0123604,-0.133228,0.261684,
2,1,0,1,0,44335.6,0.263481,0.263131,0.276072,23,0.0199465,10,7.2643e-05,-3.55898,-4.76698,-0.0123768,-0.132941,0.263131,
2,1,0,1,0,44335.9,0.26498,0.264641,0.275547,23,0.0200331,10,7.2921e-05,-3.5598,-3.34828,-0.017621,-0.189592,0.264641,
2,1,0,1,0,44336.2,0.266477,0.266177,0.274798,23,0.0201194,10,7.3145e-05,-3.56099,-21.1146,-0.00279428,-0.0299865,0.266177,
2,1,0,0,0,44336.5,0.267976,0.267685,0.273908,23,0.0202056,10,7.33211e-05,-3.5624,-1.64669,-0.0358294,-0.384443,0.267685,
2,1,0,0,0,44336.8,0.269474,0.269168,0.274925,23,0.0202917,10,7.40013e-05,-3.56079,21.6146,0.00272963,0.0292539,0.2691685,
2,1,0,0,0,44337.1,0.270972,0.270693,0.275464,23,0.0203778,10,7.45663e-05,-3.55993,-1.35826,-0.0434378,-0.463322,0.270693,
2,1,0,1,0,44337.4,0.27247,0.272169,0.274342,23,0.0204638,10,7.46673e-05,-3.56171,-3.61849,-0.0163051,-0.173859,0.272169,
2,1,0,1,0,44337.7,0.273968,0.273704,0.27326,23,0.0205496,10,7.47922e-05,-3.56342,-4.79066,-0.0123156,-0.131286,0.273704,
2,1,0,1,0,44338,0.275466,0.275154,0.272894,23,0.0206352,10,7.50879e-05,-3.56401,-2.76373,-0.021348,-0.227899,0.275154,
2,1,0,1,0,44338.3,0.276965,0.276653,0.272774,23,0.0207209,10,7.54638e-05,-3.5642,-57.8066,-0.00102064,-0.0108805,0.276653,
2,1,0,1,0,44338.6,0.278463,0.278123,0.271885,23,0.0208064,10,7.56174e-05,-3.56561,-0.900857,-0.0654932,-0.695546,0.278123,
2,1,0,1,0,44338.9,0.279962,0.279678,0.272056,23,0.0208918,10,7.60883e-05,-3.56534,-7.84843,-0.00751742,-0.0798689,0.279678,
2,1,0,1,0,44339.2,0.281459,0.281162,0.271322,23,0.0209768,10,7.62854e-05,-3.56651,-2.11341,-0.0279169,-0.296545,0.281162,
2,1,0,1,0,44339.5,0.282957,0.282645,0.271391,23,0.0210619,10,7.67072e-05,-3.56641,7.52134,0.00784435,0.0829373,0.282645,
2,1,0,0,0,44339.8,0.284456,0.284142,0.2712,23,0.021147,10,7.70596e-05,-3.56671,-2.05908,-0.0286536,-0.302996,0.284142,
2,1,0,0,0,44340.1,0.285954,0.285646,0.270059,23,0.0212319,10,7.71414e-05,-3.56854,-1.58405,-0.0372464,-0.39242,0.285646,
2,1,0,0,0,44340.4,0.287452,0.287113,0.269144,23,0.0213164,10,7.72746e-05,-3.57002,-2.04801,-0.0288084,-0.302906,0.287113,
2,1,0,1,0,44340.7,0.28895,0.288629,0.269265,23,0.0214009,10,7.77178e-05,-3.56982,1.54103,0.038286,0.402684,0.288629,
2,1,0,1,0,44341,0.290448,0.290114,0.268724,23,0.0214853,10,7.79608e-05,-3.57069,2.12828,0.0277219,0.291645,0.290114,
2,1,0,1,0,44341.3,0.291947,0.29163,0.269135,23,0.0215699,10,7.84878e-05,-3.57003,-5.50835,-0.010711,-0.112356,0.29163,
2,1,0,1,0,44341.6,0.293445,0.29309,0.267833,23,0.0216543,10,7.84993e-05,-3.57214,-3.08566,-0.0191207,-0.201059,0.29309,
2,1,0,1,0,44341.9,0.294943,0.294613,0.269453,23,0.0217385,10,7.93842e-05,-3.56952,-5.53347,-0.0106624,-0.111388,0.294613,
2,1,0,1,0,44342.2,0.296442,0.29616,0.269405,23,0.0218228,10,7.97872e-05,-3.56959,-3.47907,-0.0169586,-0.177277,0.29616,
2,1,0,1,0,44342.5,0.297939,0.29763,0.268565,23,0.0219069,10,7.9933e-05,-3.57095,-1.21158,-0.0486969,-0.508233,0.29763,
2,1,0,1,0,44342.8,0.299437,0.299152,0.267569,23,0.0219908,10,8.00439e-05,-3.57256,-0.00272292,-21.6679,-115.633,0.299152,
2,1,0,1,0,44342.9,0.299737,0.299458,0.12521,23,0.0220302,10,3.74952e-05,-3.90236,0.00100886,58.4819,206.943,0.299458,
2,1,0,1,0,44343.2,0.29824,0.297955,0.0256429,23,0.0220429,10,7.64042e-06,-4.59103,0.00110823,53.2382,70.1877,0.297955,
2,1,0,0,0,44343.5,0.296741,0.296453,0.00610481,23,0.0220435,10,1.80979e-06,-5.21433,0.00712214,8.28403,11.6731,0.296453,
2,1,0,0,0,44343.8,0.295243,0.294969,-0.00599158,23,0.0220395,10,-1.76733e-06,-5.22246,-0.0195718,-3.01454,7.14145,0.294969,
2,0,0,1,0,44344.1,0.293744,0.29345,-0.0163843,23,0.0220325,10,-4.80799e-06,-4.78557,-0.00414461,-14.2354,5.67889,0.29345,
2,0,0,1,0,44344.4,0.292246,0.291892,-0.0233473,23,0.022023,10,-6.81488e-06,-4.63176,-0.00977645,-6.03491,4.74577,0.291892,
2,0,0,1,0,44344.7,0.290749,0.29046,-0.0304917,23,0.0220112,10,-8.85661e-06,-4.51582,-0.0152547,-3.86767,4.32373,0.2904596,
2,0,0,1,0,44345,0.28925,0.288938,-0.036262,23,0.0219976,10,-1.04775e-05,-4.44055,-0.0220757,-2.67262,3.6605,0.2889376,
2,0,0,1,0,44345.3,0.287752,0.287419,-0.0405066,23,0.0219821,10,-1.16424e-05,-4.39247,-0.027684,-2.13119,3.41787,0.287419,
2,0,0,1,0,44345.6,0.286253,0.285978,-0.0455481,23,0.0219653,10,-1.30257e-05,-4.34153,-0.0339603,-1.73732,3.11672,0.285978,
2,0,0,1,0,44345.9,0.284755,0.284418,-0.0510689,23,0.021947,10,-1.45249e-05,-4.29184,-0.0339303,-1.73886,3.44675,0.284418,
2,0,0,1,0,44346.2,0.283257,0.282932,-0.0566076,23,0.0219271,10,-1.60161e-05,-4.24713,-0.0399694,-1.47613,3.15721,0.282932,
2,0,0,0,0,44346.5,0.281759,0.281417,-0.0597112,23,0.0219058,10,-1.68038e-05,-4.22394,-0.0491338,-1.2008,2.76188,0.281417,
2,0,0,0,0,44346.8,0.280261,0.279954,-0.0630534,23,0.0218835,10,-1.7652e-05,-4.20029,-0.0586096,-1.00666,2.48869,0.2799539,
2,0,0,0,0,44347.1,0.278763,0.278434,-0.0674553,23,0.0218601,10,-1.87819e-05,-4.17098,-0.0581685,-1.01429,2.65793,0.278434,
2,0,0,1,0,44347.4,0.277264,0.276965,-0.0709878,23,0.0218355,10,-1.96612e-05,-4.14882,-0.0771641,-0.764604,2.11297,0.276965,
2,0,0,1,0,44347.7,0.275766,0.275437,-0.0745397,23,0.0218098,10,-2.0531e-05,-4.12761,-0.0869347,-0.678671,1.95173,0.275437,
2,0,0,1,0,44348,0.274269,0.273986,-0.0768914,23,0.0217832,10,-2.10672e-05,-4.11412,-0.0854458,-0.690496,2.09114,0.273986,
2,0,0,1,0,44348.3,0.27277,0.272473,-0.0808284,23,0.0217556,10,-2.20235e-05,-4.09244,-0.0767702,-0.768528,2.4472,0.272473,
2,0,0,1,0,44348.6,0.271272,0.270989,-0.0838157,23,0.0217271,10,-2.27131e-05,-4.07667,-0.120089,-0.491301,1.60386,0.270989,
2,0,0,1,0,44348.9,0.269773,0.269487,-0.0875665,23,0.0216974,10,-2.35981e-05,-4.05766,-0.11058,-0.533551,1.79094,0.269487,
2,0,0,1,0,44349.2,0.268275,0.26799,-0.0903129,23,0.021667,10,-2.4203e-05,-4.04425,-0.130873,-0.450818,1.56766,0.26799,
2,0,0,1,0,44349.5,0.266778,0.266489,-0.0920465,23,0.021636,10,-2.45294e-05,-4.03599,-0.123149,-0.479096,1.71873,0.266489,
2,0,0,0,0,44349.8,0.265279,0.265018,-0.0942837,23,0.021604,10,-2.49869e-05,-4.02556,-0.108194,-0.545316,2.02816,0.265018,
2,0,0,0,0,44350.1,0.263781,0.263462,-0.0974948,23,0.0215712,10,-2.56862e-05,-4.01102,-0.125854,-0.468798,1.79515,0.263462,
2,0,0,1,0,44350.4,0.262282,0.261968,-0.100153,23,0.0215374,10,-2.6237e-05,-3.99933,-0.131654,-0.448145,1.75721,0.261968,
2,0,0,1,0,44350.7,0.260784,0.260492,-0.102131,23,0.0215033,10,-2.66042e-05,-3.99084,-0.124539,-0.473749,1.89636,0.260492,
2,0,0,1,0,44351,0.259286,0.258982,-0.104872,23,0.0214683,10,-2.71599e-05,-3.97934,-0.135297,-0.436078,1.78085,0.258982,
2,0,0,1,0,44351.3,0.257788,0.257524,-0.108412,23,0.0214324,10,-2.79187e-05,-3.96492,-0.141968,-0.415587,1.74163,0.257524,
2,0,0,1,0,44351.6,0.25629,0.255942,-0.11041,23,0.0213958,10,-2.82585e-05,-3.95699,-0.175863,-0.335488,1.4323,0.255942,
2,0,0,1,0,44351.9,0.254791,0.254495,-0.110975,23,0.0213587,10,-2.82426e-05,-3.95478,-0.140458,-0.420053,1.82645,0.254495,
2,0,0,1,0,44352.2,0.253293,0.252957,-0.113896,23,0.021321,10,-2.88107e-05,-3.94349,-0.195736,-0.301427,1.34577,0.252957,
2,0,0,1,0,44352.5,0.251795,0.251496,-0.115604,23,0.0212826,10,-2.90739e-05,-3.93703,-0.200451,-0.294336,1.34455,0.251496,
2,0,0,0,0,44352.8,0.250297,0.250005,-0.118881,23,0.0212434,10,-2.97209e-05,-3.92489,-0.251509,-0.234584,1.07837,0.250005,
2,0,0,0,0,44353.1,0.248799,0.248465,-0.119681,23,0.0212036,10,-2.97365e-05,-3.92198,-0.247297,-0.23858,1.12404,0.248465,
2,0,0,0,0,44353.4,0.247301,0.246988,-0.122496,23,0.0211635,10,-3.02551e-05,-3.91188,-0.207006,-0.285016,1.36483,0.246988,
2,0,0,1,0,44353.7,0.245802,0.245484,-0.124759,23,0.0211225,10,-3.06265e-05,-3.90393,-0.212401,-0.277776,1.34348,0.245484,
2,0,0,1,0,44354,0.244304,0.244021,-0.126063,23,0.0210809,10,-3.0762e-05,-3.89941,-0.290713,-0.20295,0.992927,0.244021,
2,0,0,1,0,44354.3,0.242806,0.242523,-0.128535,23,0.0210387,10,-3.11727e-05,-3.89098,-0.203651,-0.289711,1.4607,0.2425226,
2,0,0,1,0,44354.6,0.241308,0.241038,-0.131711,23,0.0209961,10,-3.17473e-05,-3.88038,-0.248826,-0.237114,1.20664,0.241038,
2,0,0,1,0,44354.9,0.23981,0.239475,-0.132108,23,0.0209526,10,-3.16367e-05,-3.87907,-0.18893,-0.312285,1.60679,0.239475,
2,0,0,1,0,44355.2,0.238311,0.238029,-0.133824,23,0.0209086,10,-3.1854e-05,-3.87347,-0.205046,-0.287741,1.50762,0.238029,
2,0,0,1,0,44355.5,0.236813,0.236509,-0.135282,23,0.0208641,10,-3.19954e-05,-3.86876,-0.22622,-0.260809,1.38254,0.236509,
2,0,0,1,0,44355.8,0.235316,0.234988,-0.136705,23,0.0208191,10,-3.21241e-05,-3.86421,-0.223518,-0.263961,1.42651,0.234988,
2,0,0,0,0,44356.1,0.233817,0.233526,-0.139891,23,0.0207736,10,-3.26682e-05,-3.85421,-0.316999,-0.18612,1.01389,0.2335261,
2,0,0,0,0,44356.4,0.232319,0.231983,-0.142787,23,0.0207274,10,-3.31242e-05,-3.84531,-0.31605,-0.186679,1.02788,0.231983,
2,0,0,1,0,44356.7,0.23082,0.23049,-0.143846,23,0.0206805,10,-3.3155e-05,-3.8421,-0.38636,-0.152707,0.849607,0.23049,
2,0,0,1,0,44357,0.229322,0.228974,-0.144726,23,0.0206333,10,-3.31384e-05,-3.83945,-0.315734,-0.186866,1.06064,0.228974,
2,0,0,1,0,44357.3,0.227825,0.227513,-0.147043,23,0.0205857,10,-3.34541e-05,-3.83256,-0.316122,-0.186637,1.07241,0.227513,
2,0,0,1,0,44357.6,0.226326,0.226034,-0.148476,23,0.0205374,10,-3.35607e-05,-3.82834,-0.276584,-0.213317,1.23698,0.226034,
2,0,0,1,0,44357.9,0.224828,0.224521,-0.150465,23,0.0204885,10,-3.37826e-05,-3.82256,-0.345262,-0.170885,0.99264,0.224521,
2,0,0,1,0,44358.2,0.223329,0.223011,-0.152897,23,0.0204391,10,-3.40978e-05,-3.8156,-0.339885,-0.173588,1.02854,0.223011,
2,0,0,1,0,44358.5,0.221831,0.22155,-0.153444,23,0.0203895,10,-3.39955e-05,-3.81405,-0.309911,-0.190377,1.13659,0.22155,
2,0,0,1,0,44358.8,0.220333,0.22005,-0.154635,23,0.0203391,10,-3.40273e-05,-3.81069,-0.29513,-0.199912,1.20723,0.22005,
2,0,0,0,0,44359.1,0.218835,0.218517,-0.15679,23,0.0202881,10,-3.42613e-05,-3.80468,-0.334294,-0.176492,1.08028,0.218517,
2,0,0,0,0,44359.4,0.217337,0.217,-0.158866,23,0.0202367,10,-3.44739e-05,-3.79897,-0.36009,-0.163848,1.01741,0.217,
2,0,0,0,0,44359.7,0.215839,0.215481,-0.159234,23,0.020185,10,-3.43119e-05,-3.79796,-0.341525,-0.172755,1.08594,0.215481,
2,0,0,1,0,44360,0.21434,0.21399,-0.161867,23,0.0201325,10,-3.46379e-05,-3.79084,-0.276673,-0.213248,1.34831,0.21399,
2,0,0,1,0,44360.3,0.212842,0.212501,-0.163862,23,0.0200795,10,-3.48209e-05,-3.78552,-0.367931,-0.160356,1.02919,0.212501,
2,0,0,1,0,44360.6,0.211344,0.211019,-0.165808,23,0.020026,10,-3.49886e-05,-3.78039,-0.431014,-0.136886,0.884521,0.211019,
2,0,0,1,0,44360.9,0.209846,0.209524,-0.165845,23,0.0199721,10,-3.47484e-05,-3.7803,-0.325819,-0.181082,1.17916,0.209524,
2,0,0,1,0,44361.2,0.208348,0.208036,-0.169299,23,0.0199176,10,-3.52202e-05,-3.77135,-0.283984,-0.207758,1.37104,0.208036,
2,0,0,1,0,44361.5,0.206849,0.206519,-0.172703,23,0.0198623,10,-3.56665e-05,-3.7627,-0.370581,-0.15921,1.06264,0.206519,
2,0,0,1,0,44361.8,0.205351,0.205042,-0.172444,23,0.0198063,10,-3.53581e-05,-3.76335,-0.604299,-0.0976338,0.655272,0.205042,
2,0,0,1,0,44362.1,0.203854,0.203546,-0.17362,23,0.0197501,10,-3.53396e-05,-3.7604,-0.343695,-0.171664,1.17023,0.2035457,
2,0,0,0,0,44362.4,0.202355,0.202029,-0.175846,23,0.0196934,10,-3.5526e-05,-3.75487,-0.26608,-0.221738,1.52858,0.202029,
2,0,0,0,0,44362.7,0.200857,0.200459,-0.1783,23,0.019636,10,-3.5742e-05,-3.74885,-0.375032,-0.15732,1.09349,0.200459,
2,0,0,1,0,44363,0.199358,0.199031,-0.179812,23,0.019578,10,-3.57882e-05,-3.74518,-0.376329,-0.156778,1.09835,0.199031,
2,0,0,1,0,44363.3,0.19786,0.197525,-0.182444,23,0.0195195,10,-3.60373e-05,-3.73887,-0.340077,-0.17349,1.2321,0.1975255,
2,0,0,1,0,44363.6,0.196363,0.196038,-0.18399,23,0.0194606,10,-3.6069e-05,-3.73521,-0.312078,-0.189056,1.35423,0.196038,
2,0,0,1,0,44363.9,0.194864,0.194551,-0.186513,23,0.019401,10,-3.62862e-05,-3.72929,-0.363494,-0.162314,1.17462,0.194551,
2,0,0,1,0,44364.2,0.193366,0.193027,-0.187935,23,0.0193406,10,-3.62765e-05,-3.72599,-0.271765,-0.217099,1.59364,0.193027,
2,0,0,1,0,44364.5,0.191867,0.19156,-0.189672,23,0.0192798,10,-3.63336e-05,-3.722,-0.517355,-0.114042,0.84847,0.19156,
2,0,0,1,0,44364.8,0.190369,0.190062,-0.191407,23,0.0192185,10,-3.63793e-05,-3.71804,-0.349206,-0.168955,1.26588,0.190062,
2,0,0,1,0,44365.1,0.188871,0.188533,-0.193965,23,0.0191563,10,-3.65688e-05,-3.71228,-0.243233,-0.242566,1.83307,0.188533,
2,0,0,0,0,44365.4,0.187373,0.187086,-0.196243,23,0.0190935,10,-3.67143e-05,-3.70721,-0.36842,-0.160143,1.22682,0.187086,
2,0,0,0,0,44365.7,0.185875,0.185564,-0.198153,23,0.0190301,10,-3.677e-05,-3.703,-0.314212,-0.187772,1.45062,0.185564,
2,0,0,0,0,44366,0.184377,0.184041,-0.19857,23,0.0189661,10,-3.65451e-05,-3.70209,-0.280623,-0.210246,1.63481,0.184041,
2,0,0,1,0,44366.3,0.182878,0.182556,-0.202373,23,0.0189014,10,-3.69445e-05,-3.69385,-0.352609,-0.167324,1.32062,0.182556,
2,0,0,1,0,44366.6,0.181381,0.1811,-0.205385,23,0.018836,10,-3.71952e-05,-3.68743,-0.314514,-0.187591,1.4972,0.1811,
2,0,0,1,0,44366.9,0.179882,0.179578,-0.207143,23,0.0187697,10,-3.71982e-05,-3.68373,-0.337918,-0.174599,1.41084,0.179578,
2,0,0,1,0,44367.2,0.178384,0.178098,-0.209154,23,0.0187028,10,-3.72498e-05,-3.67953,-0.295004,-0.199997,1.64542,0.178098,
2,0,0,1,0,44367.5,0.176886,0.176583,-0.212262,23,0.0186352,10,-3.74819e-05,-3.67313,-0.24636,-0.239487,1.99441,0.176583,
2,0,0,1,0,44367.8,0.175387,0.175113,-0.216103,23,0.0185666,10,-3.78426e-05,-3.66534,-0.244193,-0.241612,2.03343,0.175113,
2,0,0,1,0,44368.1,0.173889,0.173552,-0.21889,23,0.0184971,10,-3.79888e-05,-3.65977,-0.246558,-0.239294,2.0431,0.173552,
2,0,0,1,0,44368.4,0.172392,0.172066,-0.223142,23,0.0184268,10,-3.83953e-05,-3.65142,-0.30189,-0.195436,1.69341,0.172066,
2,0,0,0,0,44368.7,0.170893,0.170563,-0.225194,23,0.0183557,10,-3.84099e-05,-3.64744,-0.230289,-0.2562,2.24957,0.170563,
2,0,0,0,0,44369,0.169395,0.169095,-0.228341,23,0.0182834,10,-3.86112e-05,-3.64142,-0.192416,-0.306627,2.72973,0.169095,
2,0,0,1,0,44369.3,0.167896,0.167568,-0.231542,23,0.0182099,10,-3.8799e-05,-3.63537,-0.21162,-0.278801,2.5362,0.1675684,
2,0,0,1,0,44369.6,0.166398,0.166044,-0.234937,23,0.0181355,10,-3.90099e-05,-3.62905,-0.223316,-0.2642,2.43763,0.166044,
2,0,0,1,0,44369.9,0.164901,0.164553,-0.238516,23,0.0180601,10,-3.92486e-05,-3.62248,-0.215448,-0.273848,2.56956,0.1645532,
2,0,0,1,0,44370.2,0.163402,0.163113,-0.243463,23,0.0179833,10,-3.97119e-05,-3.61357,-0.182624,-0.323068,3.07063,0.163113,
2,0,0,1,0,44370.5,0.161904,0.161607,-0.248215,23,0.0179052,10,-4.01134e-05,-3.60517,-0.179687,-0.328349,3.18595,0.161607,
2,0,0,1,0,44370.8,0.160405,0.160088,-0.25243,23,0.0178257,10,-4.0411e-05,-3.59786,-0.174558,-0.337997,3.33148,0.1600883,
2,0,0,1,0,44371.1,0.158907,0.158602,-0.257178,23,0.0177447,10,-4.07888e-05,-3.58977,-0.165023,-0.357525,3.60898,0.158602,
2,0,0,1,0,44371.4,0.157409,0.157086,-0.263773,23,0.0176623,10,-4.1435e-05,-3.57877,-0.156184,-0.37776,3.90326,0.157086,
2,0,0,0,0,44371.7,0.155911,0.155526,-0.269375,23,0.0175779,10,-4.18948e-05,-3.56964,-0.144388,-0.408621,4.31622,0.155526,
2,0,0,0,0,44372,0.154413,0.154067,-0.276192,23,0.0174916,10,-4.25519e-05,-3.55879,-0.162039,-0.36411,3.92339,0.154067,
2,0,0,0,0,44372.3,0.152915,0.152569,-0.283662,23,0.0174032,10,-4.32781e-05,-3.5472,-0.131308,-0.449325,4.98494,0.152569,
2,0,0,1,0,44372.6,0.151416,0.151131,-0.292248,23,0.0173128,10,-4.41678e-05,-3.53425,-0.115735,-0.509783,5.81488,0.151131,
2,0,0,1,0,44372.9,0.149919,0.149612,-0.301541,23,0.0172195,10,-4.51142e-05,-3.52065,-0.104038,-0.567099,6.65718,0.149612,
2,0,0,1,0,44373.2,0.14842,0.148087,-0.311926,23,0.0171233,10,-4.61922e-05,-3.50595,-0.101264,-0.582638,7.09626,0.148087,
2,0,0,1,0,44373.5,0.146922,0.146588,-0.322591,23,0.0170239,10,-4.72879e-05,-3.49135,-0.0968486,-0.609198,7.65171,0.146588,
2,0,0,1,0,44373.8,0.145424,0.145134,-0.334439,23,0.0169212,10,-4.85384e-05,-3.47568,-0.0872027,-0.676585,8.85803,0.145134,
2,0,0,1,0,44374.1,0.143925,0.14365,-0.347757,23,0.0168144,10,-4.99553e-05,-3.45872,-0.0784702,-0.751878,10.1972,0.14365,
2,0,0,1,0,44374.4,0.142427,0.142173,-0.363579,23,0.0167031,10,-5.16912e-05,-3.4394,-0.0806935,-0.731161,10.3941,0.142173,
2,0,0,1,0,44374.7,0.14093,0.140597,-0.378706,23,0.0165873,10,-5.32448e-05,-3.4217,-0.0836347,-0.705449,10.473,0.1405969,
2,0,0,0,0,44375,0.139431,0.13912,-0.393172,23,0.0164667,10,-5.46981e-05,-3.40542,-0.079211,-0.744846,11.5215,0.13912,
2,0,0,0,0,44375.3,0.137933,0.137589,-0.414116,23,0.016341,10,-5.69779e-05,-3.38288,-0.0765281,-0.770959,12.4397,0.137589,
2,0,0,1,0,44375.6,0.136434,0.136124,-0.432236,23,0.0162096,10,-5.88379e-05,-3.36428,-0.0817519,-0.721696,12.1475,0.136124,
2,0,0,1,0,44375.9,0.134936,0.134629,-0.450071,23,0.0160725,10,-6.05928e-05,-3.34672,-0.0831043,-0.709951,12.4593,0.134629,
2,0,0,1,0,44376.2,0.133439,0.133091,-0.468975,23,0.0159299,10,-6.24164e-05,-3.32885,-0.0845245,-0.698023,12.7839,0.133091,
2,0,0,1,0,44376.5,0.13194,0.131625,-0.489248,23,0.0157817,10,-6.43974e-05,-3.31047,-0.0886334,-0.665663,12.7078,0.131625,
2,0,0,1,0,44376.8,0.130442,0.130113,-0.506416,23,0.0156277,10,-6.58914e-05,-3.29549,-0.0983512,-0.599891,11.8273,0.130113,
2,0,0,1,0,44377.1,0.128943,0.128608,-0.524489,23,0.0154682,10,-6.74534e-05,-3.28026,-0.115128,-0.512474,10.4447,0.128608,
2,0,0,1,0,44377.4,0.127445,0.127121,-0.539806,23,0.0153039,10,-6.86205e-05,-3.26776,-0.12159,-0.485238,10.2104,0.127121,
2,0,0,1,0,44377.7,0.125947,0.125606,-0.555365,23,0.0151354,10,-6.9757e-05,-3.25542,-0.144048,-0.409587,8.84278,0.125606,
2,0,0,0,0,44378,0.124449,0.12411,-0.568051,23,0.0149624,10,-7.05009e-05,-3.24561,-0.153718,-0.383819,8.47227,0.12411,
2,0,0,0,0,44378.3,0.122951,0.122615,-0.579931,23,0.0147855,10,-7.11082e-05,-3.23662,-0.188812,-0.312479,7.03551,0.122615,
2,0,0,0,0,44378.6,0.121453,0.121146,-0.589743,23,0.0146056,10,-7.14452e-05,-3.22934,-0.250792,-0.235255,5.39365,0.121146,
2,0,0,1,0,44378.9,0.119954,0.11964,-0.593668,23,0.0144235,10,-7.10267e-05,-3.22646,-0.305855,-0.192902,4.48418,0.11964,
2,0,0,1,0,44379.2,0.118456,0.11814,-0.601521,23,0.0142393,10,-7.10638e-05,-3.22075,-0.361281,-0.163308,3.82328,0.11814,
2,0,0,1,0,44379.5,0.116958,0.116593,-0.606877,23,0.0140533,10,-7.07576e-05,-3.2169,-0.707076,-0.0834423,1.96743,0.116593,
2,0,0,1,0,44379.8,0.11546,0.115135,-0.607924,23,0.0138664,10,-6.99932e-05,-3.21615,-1.66634,-0.0354069,0.838972,0.115135,
2,0,0,1,0,44380.1,0.113962,0.113648,-0.608421,23,0.0136793,10,-6.9146e-05,-3.2158,-2.55325,-0.0231078,0.549434,0.113648,
2,0,0,1,0,44380.4,0.112463,0.112142,-0.609851,23,0.013492,10,-6.83901e-05,-3.21478,-25.6076,-0.00230401,0.0547845,0.112142,
2,0,0,1,0,44380.7,0.110965,0.110635,-0.610094,23,0.0133044,10,-6.74975e-05,-3.2146,5.13754,0.0114841,-0.272994,0.110635,
2,0,0,1,0,44381,0.109468,0.10914,-0.609068,23,0.013117,10,-6.64735e-05,-3.21533,1.2055,0.0489423,-1.16014,0.10914,
2,0,0,0,0,44381.3,0.107969,0.10767,-0.607341,23,0.0129299,10,-6.53922e-05,-3.21657,1.67487,0.0352266,-0.834857,0.10767,
2,0,0,0,0,44381.6,0.106471,0.106165,-0.605698,23,0.0127436,10,-6.43038e-05,-3.21774,1.56347,0.0377365,-0.893925,0.106165,
2,0,0,1,0,44381.9,0.104972,0.104637,-0.604188,23,0.0125575,10,-6.32202e-05,-3.21883,1.32354,0.0445774,-1.0493,0.1046367,
2,0,0,1,0,44382.2,0.103474,0.103161,-0.601573,23,0.0123718,10,-6.20587e-05,-3.22071,0.733284,0.0804599,-1.88674,0.103161,
2,0,0,1,0,44382.5,0.101977,0.101653,-0.600088,23,0.0121871,10,-6.10009e-05,-3.22178,0.915605,0.0644382,-1.50751,0.101653,
2,0,0,1,0,44382.8,0.100478,0.100174,-0.596643,23,0.0120034,10,-5.97679e-05,-3.22429,0.905328,0.0651697,-1.51581,0.100174,
2,0,0,1,0,44383.1,0.0989798,0.0986732,-0.594476,23,0.0118202,10,-5.86588e-05,-3.22587,1.17437,0.0502399,-1.16258,0.09867315,
2,0,0,1,0,44383.4,0.0974812,0.0971479,-0.592672,23,0.0116377,10,-5.75769e-05,-3.22719,0.681191,0.086613,-1.99929,0.0971479,
2,0,0,1,0,44383.7,0.0959834,0.0956539,-0.58841,23,0.0114562,10,-5.62837e-05,-3.23032,0.705558,0.0836218,-1.9202,0.0956539,
2,0,0,1,0,44384,0.0944855,0.0941944,-0.583322,23,0.011276,10,-5.49457e-05,-3.23409,0.649054,0.0909015,-2.07637,0.0941944,
2,0,0,0,0,44384.3,0.0929871,0.0926755,-0.581408,23,0.0110965,10,-5.38822e-05,-3.23552,0.86438,0.068257,-1.54681,0.0926755,
2,0,0,0,0,44384.6,0.0914889,0.0911358,-0.580068,23,0.0109177,10,-5.28649e-05,-3.23652,0.672582,0.0877217,-1.9802,0.0911358,
2,0,0,0,0,44384.9,0.0899907,0.0896799,-0.576205,23,0.0107401,10,-5.1674e-05,-3.23942,0.402561,0.146561,-3.28258,0.08967986,
2,0,0,1,0,44385.2,0.0884923,0.0882015,-0.569218,23,0.0105638,10,-5.02059e-05,-3.24472,0.527187,0.111915,-2.48912,0.0882015,
2,0,0,1,0,44385.5,0.0869946,0.0866472,-0.566318,23,0.0103889,10,-4.90699e-05,-3.24694,0.546195,0.10802,-2.39115,0.0866472,
2,0,0,1,0,44385.8,0.0854961,0.0851827,-0.562492,23,0.0102149,10,-4.79145e-05,-3.24988,0.501597,0.117624,-2.58503,0.0851827,
2,0,0,1,0,44386.1,0.083998,0.0836663,-0.56018,23,0.0100419,10,-4.68682e-05,-3.25167,0.373183,0.158099,-3.44783,0.0836663,
2,0,0,1,0,44386.4,0.0824998,0.0821658,-0.555187,23,0.00987018,10,-4.56174e-05,-3.25556,0.439682,0.134188,-2.90925,0.0821658,
2,0,0,1,0,44386.7,0.0810014,0.0807011,-0.551369,23,0.00969997,10,-4.44961e-05,-3.25856,0.510085,0.115667,-2.49526,0.0807011,
2,0,0,1,0,44387,0.0795035,0.0791745,-0.547946,23,0.00953065,10,-4.33834e-05,-3.26126,0.624914,0.094413,-2.0158,0.0791745,
2,0,0,1,0,44387.3,0.0780056,0.0777158,-0.545081,23,0.00936215,10,-4.23614e-05,-3.26354,0.488881,0.120684,-2.56198,0.0777158,
2,0,0,0,0,44387.6,0.076507,0.0762212,-0.540222,23,0.00919488,10,-4.11763e-05,-3.26743,0.443841,0.132931,-2.80028,0.0762212,
2,0,0,0,0,44387.9,0.0750088,0.0747006,-0.537115,23,0.00902912,10,-4.01228e-05,-3.26993,0.532473,0.110804,-2.32495,0.0747006,
2,0,0,1,0,44388.2,0.0735103,0.0732178,-0.533382,23,0.00886422,10,-3.90531e-05,-3.27296,0.549478,0.107375,-2.2321,0.0732178,
2,0,0,1,0,44388.5,0.0720124,0.071672,-0.530636,23,0.00870023,10,-3.80317e-05,-3.2752,0.56386,0.104636,-2.16648,0.071672,
2,0,0,1,0,44388.8,0.0705146,0.0702196,-0.526027,23,0.00853736,10,-3.69374e-05,-3.27899,0.46944,0.125682,-2.58302,0.0702196,
2,0,0,1,0,44389.1,0.069016,0.06874,-0.521189,23,0.00837568,10,-3.58266e-05,-3.283,0.57419,0.102754,-2.10041,0.06874001,
2,0,0,1,0,44389.4,0.0675179,0.0671664,-0.519495,23,0.00821498,10,-3.48926e-05,-3.28442,0.781645,0.0754818,-1.53164,0.0671664,
2,0,0,1,0,44389.7,0.0660192,0.0656717,-0.520175,23,0.00805496,10,-3.41608e-05,-3.28385,0.541625,0.108931,-2.1934,0.06567169,
2,0,0,1,0,44390,0.0645214,0.0641865,-0.513958,23,0.00789581,10,-3.29891e-05,-3.28907,0.469382,0.125697,-2.51236,0.0641865,
2,0,0,1,0,44390.3,0.0630235,0.0627331,-0.509056,23,0.00773794,10,-3.19347e-05,-3.29323,0.609381,0.0968195,-1.92811,0.0627331,
2,0,0,0,0,44390.6,0.0615251,0.0612164,-0.505671,23,0.00758128,10,-3.09554e-05,-3.29613,0.575183,0.102576,-2.03138,0.0612164,
2,0,0,0,0,44390.9,0.0600269,0.0597212,-0.503603,23,0.00742531,10,-3.00758e-05,-3.29791,0.517471,0.114016,-2.24429,0.0597212,
2,0,0,0,0,44391.2,0.0585287,0.0581837,-0.500197,23,0.00727041,10,-2.91033e-05,-3.30086,0.388993,0.151674,-2.95719,0.0581837,
2,0,0,1,0,44391.5,0.0570303,0.0567021,-0.49782,23,0.00711645,10,-2.82275e-05,-3.30293,0.604837,0.0975469,-1.89237,0.0567021,
2,0,0,1,0,44391.8,0.0555325,0.055186,-0.49346,23,0.00696385,10,-2.7232e-05,-3.30675,0.619632,0.0952178,-1.83575,0.055186,
2,0,0,1,0,44392.1,0.0540342,0.0537215,-0.490395,23,0.00681193,10,-2.63447e-05,-3.30945,0.541741,0.108908,-2.08165,0.0537215,
2,0,0,1,0,44392.4,0.052536,0.0521743,-0.487139,23,0.00666084,10,-2.54162e-05,-3.31235,0.534794,0.110323,-2.09541,0.0521743,
2,0,0,1,0,44392.7,0.0510378,0.0507311,-0.482851,23,0.00651097,10,-2.44956e-05,-3.31619,0.421831,0.139866,-2.64218,0.0507311,
2,0,0,1,0,44393,0.0495394,0.0492549,-0.480119,23,0.00636226,10,-2.36482e-05,-3.31865,0.509764,0.11574,-2.16802,0.0492549,
2,0,0,1,0,44393.3,0.0480415,0.0477059,-0.47502,23,0.00621462,10,-2.26613e-05,-3.32329,0.750795,0.0785834,-1.46052,0.04770593,
2,0,0,1,0,44393.6,0.0465436,0.0462301,-0.474178,23,0.00606776,10,-2.19213e-05,-3.32406,0.564398,0.104536,-1.93123,0.0462301,
2,0,0,0,0,44393.9,0.045045,0.0447186,-0.470003,23,0.00592181,10,-2.10179e-05,-3.3279,0.392108,0.150469,-2.75617,0.0447186,
2,0,0,0,0,44394.2,0.0435468,0.0432181,-0.463577,23,0.00577732,10,-2.00349e-05,-3.33388,0.405597,0.145464,-2.64679,0.0432181,
2,0,0,1,0,44394.5,0.0420483,0.0417331,-0.462718,23,0.00563386,10,-1.93107e-05,-3.33468,0.625632,0.0943047,-1.70109,0.0417331,
2,0,0,1,0,44394.8,0.0405504,0.0402161,-0.461585,23,0.00549122,10,-1.85631e-05,-3.33575,0.453435,0.130118,-2.33421,0.0402161,
2,0,0,1,0,44395.1,0.0390526,0.0387467,-0.456185,23,0.00534944,10,-1.76756e-05,-3.34086,0.392426,0.150347,-2.6697,0.0387467,
2,0,0,1,0,44395.4,0.0375541,0.0372205,-0.451656,23,0.00520884,10,-1.68108e-05,-3.34519,0.405327,0.145562,-2.57016,0.0372205,
2,0,0,1,0,44395.7,0.0360559,0.0357349,-0.448386,23,0.00506956,10,-1.6023e-05,-3.34835,0.410781,0.143629,-2.51672,0.0357349,
2,0,0,1,0,44396,0.0345572,0.0342256,-0.445713,23,0.00493105,10,-1.52548e-05,-3.35094,0.544668,0.108323,-1.88481,0.0342256,
2,0,0,1,0,44396.3,0.0330594,0.0327348,-0.442582,23,0.00479351,10,-1.44878e-05,-3.35401,0.385774,0.152939,-2.63326,0.0327348,
2,0,0,1,0,44396.6,0.0315615,0.0312285,-0.43825,23,0.00465689,10,-1.36859e-05,-3.35828,0.430697,0.136987,-2.34921,0.0312285,
2,0,0,0,0,44396.9,0.0300631,0.0297605,-0.435752,23,0.00452168,10,-1.29682e-05,-3.36076,0.452313,0.130441,-2.22096,0.02976053,
2,0,0,0,0,44397.2,0.0285649,0.0282314,-0.433208,23,0.00438708,10,-1.22301e-05,-3.3633,0.699841,0.0843048,-1.42125,0.02823142,
2,0,0,0,0,44397.5,0.0270667,0.0267988,-0.42923,23,0.00425318,10,-1.15029e-05,-3.36731,0.568234,0.103831,-1.74009,0.0267988,
2,0,0,1,0,44397.8,0.0255683,0.0253034,-0.427453,23,0.00412021,10,-1.0816e-05,-3.36911,0.457561,0.128945,-2.15244,0.0253034,
2,0,0,1,0,44398.1,0.0240706,0.0237662,-0.424322,23,0.00398827,10,-1.00845e-05,-3.3723,0.504237,0.117008,-1.93938,0.0237662,
2,0,0,1,0,44398.4,0.0225722,0.0222454,-0.421388,23,0.00385692,10,-9.37396e-06,-3.37532,1.04407,0.0565096,-0.931861,0.0222454,
2,0,0,1,0,44398.7,0.021074,0.0207534,-0.419239,23,0.00372635,10,-8.70064e-06,-3.37754,0.644707,0.0915144,-1.50389,0.0207534,
2,0,0,1,0,44399,0.0195758,0.0192561,-0.417925,23,0.00359634,10,-8.04763e-06,-3.3789,0.756441,0.0779969,-1.2742,0.0192561,
2,0,0,1,0,44399.3,0.0180774,0.0177344,-0.415127,23,0.00346683,10,-7.36201e-06,-3.38182,1.00067,0.0589604,-0.957296,0.01773436,
2,0,0,1,0,44399.6,0.0165795,0.0163073,-0.414403,23,0.00333805,10,-6.75781e-06,-3.38258,1.42425,0.0414254,-0.671839,0.0163073,
2,0,0,1,0,44399.9,0.0150817,0.0147786,-0.414855,23,0.00320953,10,-6.13099e-06,-3.3821,1.3698,0.0430721,-0.694947,0.0147786,
2,0,0,0,0,44400.2,0.013583,0.0132436,-0.412473,23,0.00308116,10,-5.46265e-06,-3.3846,0.921511,0.0640252,-1.02738,0.0132436,
2,0,0,0,0,44400.5,0.0120848,0.0117644,-0.411415,23,0.00295332,10,-4.84004e-06,-3.38572,1.29182,0.0456719,-0.734423,0.0117644,
2,0,0,1,0,44400.8,0.0105863,0.0102827,-0.410889,23,0.00282594,10,-4.22506e-06,-3.38628,4.72618,0.0124836,-0.200585,0.01028274,
2,0,0,1,0,44401.1,0.00908846,0.0088015,-0.410454,23,0.00269847,10,-3.61261e-06,-3.38674,-17.4784,-0.0033756,0.0540065,0.0088015,
2,0,0,1,0,44401.4,0.0075906,0.00724333,-0.411085,23,0.00257101,10,-2.97763e-06,-3.38607,3.99818,0.0147567,-0.236271,0.00724333,
2,0,0,1,0,44401.7,0.00609207,0.00574232,-0.41069,23,0.00244359,10,-2.35832e-06,-3.38649,-4.75822,-0.0123996,0.198742,0.00574232,
2,0,0,1,0,44402,0.00459389,0.00427366,-0.410742,23,0.00231642,10,-1.75537e-06,-3.38643,-5.02521,-0.0117408,0.188315,0.00427366,
2,0,0,1,0,44402.3,0.00309525,0.00276312,-0.41094,23,0.00218881,10,-1.13548e-06,-3.38622,-0.648739,-0.0909457,1.46288,0.00276312,
2,0,0,1,0,44402.6,0.00159739,0.00122932,-0.417414,23,0.00205922,10,-5.13133e-07,-3.37943, , , ,0.00122932,
2,0,0,0,0,44402.8,0.000199195,-0.000159264,-0.413941,23,0.00193905,10,6.59258e-08,-3.38306, , , ,-0.000159264,