File: Figure_codes/Fig_3-5/rawdata_trumpetplot_data/after 10th/20221101_1-115_003_TrumpetPlot_ParaChange_from10_every3_06_CV_C01_4.csv
mode,ox/red,error,control changes,counter inc.,time/s,control/V,Ewe/V,<I>/mA,cycle number,(Q-Qo)/C,I Range,P/W,log(|I|),Tafel slope mV/dec,alpha_eff,dI/d(E-IR),E-IR/V,
2,0,0,0,0,9030.54,2.44065e-05,-0.000229887,-1.41852,5,0.0000000E+000,10,3.261e-07,-2.84816, , , ,-0.000229887,
2,0,0,1,0,9030.57,0.00129787,0.000969035,0.0700185,5,-1.57139e-05,10,6.78504e-08,-4.15479, , , ,0.0009690352,
2,1,0,1,0,9030.61,0.00279427,0.00252414,0.816519,5,3.23459e-06,10,2.06101e-06,-3.08803,0.0075451,7.81964,380.282,0.00252414,
2,1,0,1,0,9030.65,0.00429425,0.00400365,1.13234,5,4.09913e-05,10,4.53347e-06,-2.94602,0.0121535,4.85458,177.404,0.00400365,
2,1,0,1,0,9030.68,0.00579422,0.00547773,1.29925,5,8.75294e-05,10,7.11694e-06,-2.88631,0.0281947,2.09259,100.722,0.005477732,
2,1,0,1,0,9030.72,0.00729063,0.00700148,1.41712,5,0.000139143,10,9.9219e-06,-2.84859,0.0483416,1.22048,65.8112,0.00700148,
2,1,0,1,0,9030.76,0.00878703,0.00846848,1.49693,5,0.000194407,10,1.26767e-05,-2.8248,0.0716009,0.824012,47.5781,0.00846848,
2,1,0,1,0,9030.8,0.010287,0.00998585,1.55998,5,0.000252511,10,1.55777e-05,-2.80688,0.0936854,0.629767,38.1323,0.00998585,
2,1,0,1,0,9030.83,0.011787,0.0114737,1.61308,5,0.000312758,10,1.8508e-05,-2.79235,0.109684,0.537906,33.7907,0.0114737,
2,1,0,1,0,9030.87,0.0132825,0.0129623,1.65951,5,0.000374609,10,2.15112e-05,-2.78002,0.1188,0.496634,32.2755,0.0129623,
2,1,0,1,0,9030.91,0.014778,0.0144777,1.71206,5,0.000438324,10,2.47868e-05,-2.76648,0.125966,0.46838,31.1256,0.0144777,
2,1,0,1,0,9030.95,0.0162816,0.0159875,1.75633,5,0.000504183,10,2.80793e-05,-2.75539,0.151614,0.389145,26.4894,0.0159875,
2,1,0,1,0,9030.98,0.017778,0.0174501,1.79012,5,0.000571138,10,3.12378e-05,-2.74712,0.169599,0.347879,24.2923,0.0174501,
2,1,0,1,0,9031.02,0.0192744,0.0189595,1.82434,5,0.000639316,10,3.45887e-05,-2.73889,0.173898,0.339279,24.2101,0.0189595,
2,1,0,1,0,9031.06,0.0207743,0.0204529,1.86484,5,0.000709216,10,3.81415e-05,-2.72936,0.161051,0.366344,26.6482,0.0204529,
2,1,0,1,0,9031.1,0.0222743,0.0220326,1.89836,5,0.00078057,10,4.18257e-05,-2.72162,0.169343,0.348406,25.9091,0.0220326,
2,1,0,1,0,9031.13,0.0237707,0.0234914,1.93638,5,0.000853095,10,4.54883e-05,-2.71301,0.204798,0.288088,21.8061,0.0234914,
2,1,0,1,0,9031.17,0.0252671,0.0249804,1.97333,5,0.000926939,10,4.92945e-05,-2.7048,0.193838,0.304377,23.4724,0.0249804,
2,1,0,1,0,9031.21,0.0267671,0.0264776,2.01246,5,0.00100224,10,5.32852e-05,-2.69627,0.171399,0.344226,26.9772,0.02647762,
2,1,0,1,0,9031.25,0.0282671,0.0279462,2.05304,5,0.00107903,10,5.73747e-05,-2.6876,0.178528,0.33048,26.3654,0.0279462,
2,1,0,1,0,9031.28,0.0297626,0.0294918,2.08977,5,0.0011571,10,6.16311e-05,-2.6799,0.188331,0.313279,25.4925,0.0294918,
2,1,0,1,0,9031.32,0.0312581,0.030932,2.11656,5,0.0012365,10,6.54696e-05,-2.67437,0.202542,0.291298,24.1659,0.03093203,
2,1,0,1,0,9031.36,0.0327616,0.0324539,2.15327,5,0.00131757,10,6.9882e-05,-2.6669,0.205931,0.286504,24.1855,0.03245391,
2,1,0,1,0,9031.4,0.034258,0.0339494,2.19127,5,0.00139967,10,7.43921e-05,-2.6593,0.197813,0.298262,25.5635,0.0339494,
2,1,0,1,0,9031.43,0.0357545,0.0354774,2.23462,5,0.00148321,10,7.92786e-05,-2.6508,0.222514,0.265152,23.0912,0.03547737,
2,1,0,1,0,9031.47,0.0372544,0.0369554,2.27134,5,0.0015684,10,8.39384e-05,-2.64372,0.217083,0.271785,24.0743,0.0369554,
2,1,0,1,0,9031.51,0.0387544,0.0384414,2.31108,5,0.00165486,10,8.88412e-05,-2.63618,0.202858,0.290843,26.1964,0.03844136,
2,1,0,1,0,9031.55,0.0402508,0.0399257,2.34827,5,0.00174249,10,9.37565e-05,-2.62925,0.213533,0.276305,25.2993,0.0399257,
2,1,0,1,0,9031.58,0.0417472,0.0414399,2.38646,5,0.00183169,10,9.8895e-05,-2.62225,0.224726,0.262541,24.3948,0.0414399,
2,1,0,1,0,9031.62,0.0432472,0.0429438,2.42369,5,0.00192257,10,0.000104082,-2.61552,0.241069,0.244743,23.1234,0.0429438,
2,1,0,1,0,9031.66,0.0447472,0.0444142,2.45287,5,0.00201467,10,0.000108942,-2.61033,0.23499,0.251074,24.1101,0.0444142,
2,1,0,1,0,9031.7,0.0462427,0.0459333,2.49372,5,0.00210791,10,0.000114545,-2.60315,0.22624,0.260785,25.3771,0.0459333,
2,1,0,1,0,9031.73,0.0477382,0.0474768,2.532,5,0.00220257,10,0.000120211,-2.59654,0.236215,0.249773,24.6669,0.0474768,
2,1,0,1,0,9031.77,0.0492417,0.0489075,2.56558,5,0.00229908,10,0.000125476,-2.59081,0.259081,0.227728,22.7698,0.0489075,
2,1,0,1,0,9031.81,0.0507381,0.0504369,2.59761,5,0.00239627,10,0.000131015,-2.58543,0.246471,0.239379,24.2904,0.0504369,
2,1,0,1,0,9031.85,0.0522345,0.0519025,2.63815,5,0.0024948,10,0.000136927,-2.5787,0.238047,0.24785,25.4552,0.0519025,
2,1,0,1,0,9031.88,0.0537345,0.0534493,2.67799,5,0.00259501,10,0.000143137,-2.57219,0.247283,0.238593,24.8729,0.0534493,
2,1,0,1,0,9031.92,0.0552345,0.0548909,2.70821,5,0.00269661,10,0.000148656,-2.56732,0.270989,0.217721,22.9733,0.0548909,
2,1,0,1,0,9031.96,0.0567309,0.0563826,2.7357,5,0.00279917,10,0.000154246,-2.56293,0.295579,0.199608,21.3852,0.0563826,
2,1,0,1,0,9031.99,0.0582273,0.0579529,2.77353,5,0.00290287,10,0.000160734,-2.55697,0.279387,0.211177,22.8827,0.0579529,
2,1,0,1,0,9032.03,0.0597309,0.059435,2.80844,5,0.00300851,10,0.00016692,-2.55153,0.27927,0.211265,23.141,0.059435,
2,1,0,1,0,9032.07,0.0612264,0.0609753,2.84089,5,0.00311484,10,0.000173224,-2.54655,0.338186,0.17446,19.3231,0.0609753,
2,1,0,1,0,9032.11,0.0627219,0.0624181,2.87515,5,0.00322237,10,0.000179461,-2.54134,0.324984,0.181548,20.3238,0.0624181,
2,1,0,1,0,9032.14,0.0642218,0.063898,2.90696,5,0.00333122,10,0.000185749,-2.53656,0.292087,0.201995,22.88,0.063898,
2,1,0,1,0,9032.18,0.0657218,0.0654286,2.93578,5,0.00344133,10,0.000192084,-2.53228,0.294124,0.200595,22.9541,0.0654286,
2,1,0,1,0,9032.22,0.0672182,0.0669242,2.96397,5,0.00355246,10,0.000198362,-2.52813,0.323392,0.182441,21.1125,0.0669242,
2,1,0,1,0,9032.26,0.0687146,0.0684016,2.99644,5,0.00366468,10,0.000204962,-2.52339,0.405926,0.145347,17.0128,0.0684016,
2,1,0,1,0,9032.29,0.0702146,0.0699152,3.01889,5,0.00377814,10,0.000211066,-2.52015,0.394511,0.149552,17.6747,0.0699152,
2,1,0,1,0,9032.33,0.0717146,0.0714127,3.05335,5,0.00389266,10,0.000218048,-2.51522,0.351431,0.167885,19.9922,0.07141266,
2,1,0,1,0,9032.37,0.073211,0.0728993,3.08078,5,0.00400804,10,0.000224587,-2.51134,0.344336,0.171344,20.6087,0.0728993,
2,1,0,1,0,9032.41,0.0747074,0.0743937,3.11489,5,0.00412458,10,0.000231728,-2.50656,0.383987,0.153651,18.5992,0.0743937,
2,1,0,1,0,9032.44,0.0762109,0.0758731,3.13388,5,0.00424275,10,0.000237777,-2.50392,0.413758,0.142595,17.4543,0.0758731,
2,1,0,1,0,9032.48,0.0777064,0.0773706,3.16107,5,0.0043611,10,0.000244574,-2.50017,0.413274,0.142763,17.6298,0.0773706,
2,1,0,1,0,9032.52,0.079202,0.0789082,3.1872,5,0.00448057,10,0.000251496,-2.49659,0.405068,0.145655,18.1356,0.0789082,
2,1,0,1,0,9032.56,0.0807019,0.0803866,3.21371,5,0.0046014,10,0.000258339,-2.49299,0.471186,0.125216,15.7096,0.0803866,
2,1,0,1,0,9032.59,0.0822019,0.0818815,3.2333,5,0.00472312,10,0.000264747,-2.49035,0.425235,0.138747,17.5511,0.0818815,
2,1,0,1,0,9032.63,0.0836983,0.0833811,3.26369,5,0.00484532,10,0.00027213,-2.48629,0.393288,0.150017,19.13,0.0833811,
2,1,0,1,0,9032.67,0.0851947,0.0848566,3.29617,5,0.00496872,10,0.000279702,-2.48199,0.418396,0.141015,18.1135,0.0848566,
2,1,0,1,0,9032.71,0.0866947,0.0863909,3.32942,5,0.00509357,10,0.000287631,-2.47763,0.464825,0.12693,16.4463,0.0863909,
2,1,0,1,0,9032.74,0.0881947,0.0878383,3.35428,5,0.00521945,10,0.000294634,-2.4744,0.417038,0.141474,18.5041,0.0878383,
2,1,0,1,0,9032.78,0.0896911,0.0893972,3.3771,5,0.00534588,10,0.000301903,-2.47146,0.3777,0.156209,20.6445,0.08939717,
2,1,0,1,0,9032.82,0.0911875,0.0908635,3.41523,5,0.00547357,10,0.000310319,-2.46658,0.31847,0.185261,24.7115,0.0908635,
2,1,0,1,0,9032.86,0.0926901,0.0924056,3.4519,5,0.00560336,10,0.000318975,-2.46194,0.303738,0.194247,26.1811,0.0924056,
2,1,0,1,0,9032.89,0.0941856,0.0938817,3.49,5,0.00573389,10,0.000327647,-2.45717,0.317539,0.185804,25.3195,0.0938817,
2,1,0,1,0,9032.93,0.0956821,0.09537,3.52465,5,0.00586574,10,0.000336146,-2.45288,0.292535,0.201685,27.8379,0.09537,
2,1,0,1,0,9032.97,0.097182,0.0968464,3.57791,5,0.0059995,10,0.000346507,-2.44637,0.236833,0.249121,34.7613,0.0968464,
2,1,0,1,0,9033.01,0.098682,0.0983713,3.63166,5,0.00613525,10,0.000357251,-2.4399,0.232021,0.254287,35.9864,0.0983713,
2,1,0,1,0,9033.04,0.100178,0.0998804,3.68034,5,0.00627265,10,0.000367594,-2.43411,0.230668,0.255778,36.7495,0.0998804,
2,1,0,1,0,9033.08,0.101675,0.101351,3.73227,5,0.00641206,10,0.00037827,-2.42803,0.222732,0.264892,38.6782,0.101351,
2,1,0,1,0,9033.12,0.103175,0.102843,3.79572,5,0.00655399,10,0.000390362,-2.42071,0.21228,0.277934,41.286,0.102843,
2,1,0,1,0,9033.16,0.104675,0.10439,3.86657,5,0.00669838,10,0.000403631,-2.41267,0.198018,0.297953,45.0084,0.10439,
2,1,0,1,0,9033.19,0.106171,0.105893,3.93591,5,0.00684496,10,0.000416783,-2.40496,0.205779,0.286715,43.9754,0.105893,
2,1,0,1,0,9033.23,0.107667,0.107399,4.00403,5,0.00699405,10,0.000430027,-2.3975,0.205918,0.286522,44.7231,0.107399,
2,1,0,1,0,9033.27,0.10917,0.108874,4.06939,5,0.0071463,10,0.000443049,-2.39047,0.211606,0.27882,44.2253,0.108874,
2,1,0,1,0,9033.31,0.110666,0.110371,4.13458,5,0.00730033,10,0.000456336,-2.38357,0.216276,0.2728,43.9707,0.110371,
2,1,0,1,0,9033.34,0.112162,0.111829,4.19787,5,0.00745692,10,0.000469445,-2.37697,0.224608,0.262679,43.0102,0.1118292,
2,1,0,1,0,9033.38,0.113662,0.11336,4.26555,5,0.00761633,10,0.000483542,-2.37002,0.244818,0.240996,40.0679,0.11336,
2,1,0,1,0,9033.42,0.115162,0.114828,4.3152,5,0.00777794,10,0.000495508,-2.365,0.254564,0.231769,39.0906,0.114828,
2,1,0,1,0,9033.46,0.116658,0.116397,4.37704,5,0.00794129,10,0.000509475,-2.35882,0.264565,0.223008,38.0988,0.116397,
2,1,0,1,0,9033.49,0.118155,0.117866,4.43845,5,0.00810684,10,0.000523143,-2.35277,0.307003,0.192181,33.2317,0.117866,
2,1,0,1,0,9033.53,0.119655,0.119346,4.48329,5,0.00827474,10,0.000535062,-2.3484,0.365976,0.161213,28.159,0.119346,
2,1,0,1,0,9033.57,0.121155,0.120836,4.52447,5,0.00844425,10,0.00054672,-2.34443,0.366818,0.160843,28.3657,0.1208362,
2,1,0,1,0,9033.61,0.122651,0.122325,4.56766,5,0.0086148,10,0.000558739,-2.34031,0.381584,0.154619,27.5189,0.122325,
2,1,0,1,0,9033.64,0.124147,0.123869,4.60589,5,0.00878697,10,0.000570526,-2.33669,0.373153,0.158112,28.3979,0.1238687,
2,1,0,1,0,9033.68,0.12565,0.125339,4.64602,5,0.00896154,10,0.000582326,-2.33292,0.437411,0.134885,24.4405,0.125339,
2,1,0,1,0,9033.72,0.127146,0.126788,4.67114,5,0.00913662,10,0.000592244,-2.33058,0.416538,0.141644,25.8876,0.126788,
2,1,0,1,0,9033.76,0.128642,0.128344,4.71297,5,0.00931296,10,0.000604881,-2.32671,0.442303,0.133393,24.5872,0.128344,
2,1,0,1,0,9033.79,0.130142,0.129823,4.75776,5,0.00949127,10,0.000617669,-2.3226,0.454464,0.129823,24.0954,0.129823,
2,1,0,1,0,9033.83,0.131642,0.131312,4.79589,5,0.00967109,10,0.000629759,-2.31913,0.518543,0.11378,21.2465,0.131312,
2,1,0,1,0,9033.87,0.133139,0.13285,4.83538,5,0.00985174,10,0.000642381,-2.31557,0.517906,0.11392,21.4355,0.13285,
2,1,0,1,0,9033.91,0.134635,0.134302,4.85881,5,0.0100334,10,0.00065255,-2.31347,0.579111,0.10188,19.308,0.134302,
2,1,0,1,0,9033.94,0.136135,0.135817,4.88769,5,0.0102168,10,0.00066383,-2.3109,0.706904,0.0834625,15.8874,0.135817,
2,1,0,1,0,9033.98,0.137635,0.137313,4.90509,5,0.0104011,10,0.000673534,-2.30935,1.26912,0.0464889,8.88335,0.137313,
2,1,0,1,0,9034.02,0.13913,0.138808,4.91523,5,0.0105854,10,0.000682275,-2.30846,14.3458,0.00411271,0.786825,0.138808,
2,1,0,1,0,9034.05,0.140626,0.140329,4.904,5,0.0107697,10,0.000688173,-2.30945,-1.02759,-0.0574157,-10.9602,0.140329,
2,1,0,1,0,9034.09,0.14213,0.141809,4.88178,5,0.0109544,10,0.00069228,-2.31142,-0.548226,-0.10762,-20.436,0.141809,
2,1,0,1,0,9034.13,0.143626,0.143349,4.84168,5,0.011137,10,0.000694051,-2.315,-0.297352,-0.198418,-37.2959,0.143349,
2,1,0,1,0,9034.17,0.145122,0.144854,4.77932,5,0.0113176,10,0.000692303,-2.32063,-0.199298,-0.296039,-54.8326,0.144854,
2,1,0,1,0,9034.2,0.146622,0.146278,4.67904,5,0.0114955,10,0.000684439,-2.32984,-0.151666,-0.389013,-70.6832,0.146278,
2,1,0,1,0,9034.24,0.148122,0.147819,4.56503,5,0.0116695,10,0.000674799,-2.34056,-0.12581,-0.46896,-83.247,0.147819,
2,1,0,1,0,9034.28,0.149619,0.149314,4.42862,5,0.0118382,10,0.000661256,-2.35373,-0.105777,-0.557778,-96.0719,0.1493143,
2,1,0,1,0,9034.32,0.151115,0.150792,4.27226,5,0.0120017,10,0.000644221,-2.36934,-0.0907129,-0.650403,-108.127,0.150792,
2,1,0,1,0,9034.35,0.152615,0.152288,4.10217,5,0.0121596,10,0.00062471,-2.38699,-0.0826175,-0.714134,-114.242,0.152288,
2,1,0,1,0,9034.39,0.154115,0.1538,3.93545,5,0.0123108,10,0.000605274,-2.40501,-0.0785486,-0.751128,-115.247,0.1538,
2,1,0,1,0,9034.43,0.155611,0.155315,3.76585,5,0.0124553,10,0.000584893,-2.42414,-0.0781024,-0.755418,-110.764,0.155315,
2,1,0,1,0,9034.47,0.157106,0.156809,3.59376,5,0.0125935,10,0.000563534,-2.44445,-0.0751584,-0.785009,-109.838,0.156809,
2,1,0,1,0,9034.5,0.15861,0.158328,3.431,5,0.0127261,10,0.000543223,-2.46458,-0.0758419,-0.777934,-104.201,0.158328,
2,1,0,1,0,9034.54,0.160106,0.159784,3.27578,5,0.012852,10,0.000523418,-2.48469,-0.079433,-0.742764,-95.3191,0.159784,
2,1,0,1,0,9034.58,0.161602,0.161289,3.14133,5,0.0129726,10,0.000506661,-2.50289,-0.0854332,-0.690598,-84.9235,0.161289,
2,1,0,1,0,9034.62,0.163102,0.162826,3.01739,5,0.0130887,10,0.000491309,-2.52037,-0.0896922,-0.657805,-77.7436,0.162826,
2,1,0,1,0,9034.65,0.164602,0.164289,2.90843,5,0.0132004,10,0.000477822,-2.53634,-0.0959128,-0.615142,-70.0051,0.164289,
2,1,0,1,0,9034.69,0.166099,0.165792,2.80378,5,0.0133078,10,0.000464845,-2.55226,-0.100329,-0.588063,-64.5444,0.165792,
2,1,0,1,0,9034.73,0.167595,0.167276,2.71801,5,0.0134117,10,0.000454657,-2.56575,-0.109863,-0.537033,-57.025,0.167276,
2,1,0,1,0,9034.77,0.169095,0.168751,2.64363,5,0.0135128,10,0.000446115,-2.5778,-0.122431,-0.481904,-49.6642,0.168751,
2,1,0,1,0,9034.8,0.170595,0.170307,2.56539,5,0.013611,10,0.000436904,-2.59085,-0.12558,-0.469821,-47.0851,0.170307,
2,1,0,1,0,9034.84,0.172091,0.171787,2.4933,5,0.0137062,10,0.000428317,-2.60322,-0.1344,-0.438987,-42.8648,0.171787,
2,1,0,1,0,9034.88,0.173586,0.173276,2.43146,5,0.0137991,10,0.000421313,-2.61413,-0.147934,-0.398827,-38.0393,0.173276,
2,1,0,1,0,9034.92,0.17509,0.174765,2.3758,5,0.0138903,10,0.000415207,-2.62419,-0.161485,-0.36536,-34.046,0.174765,
2,1,0,1,0,9034.95,0.176586,0.176279,2.32684,5,0.013979,10,0.000410173,-2.63323,-0.157481,-0.374649,-34.0995,0.176279,
2,1,0,1,0,9034.99,0.178083,0.177762,2.28485,5,0.0140661,10,0.000406159,-2.64114,-0.174976,-0.337189,-30.08,0.177762,
2,1,0,1,0,9035.03,0.179582,0.179301,2.24962,5,0.0141515,10,0.000403359,-2.64789,-0.192917,-0.305831,-26.8115,0.179301,
2,1,0,1,0,9035.07,0.181082,0.180767,2.20545,5,0.0142356,10,0.000398672,-2.6565,-0.215022,-0.274391,-23.6218,0.180767,
2,1,0,1,0,9035.1,0.182579,0.18228,2.17128,5,0.0143182,10,0.000395781,-2.66328,-0.214458,-0.275112,-23.2905,0.18228,
2,1,0,1,0,9035.14,0.184075,0.183771,2.13938,5,0.0143995,10,0.000393157,-2.66971,-0.225524,-0.261613,-21.9015,0.183771,
2,1,0,1,0,9035.18,0.185579,0.185254,2.10526,5,0.0144799,10,0.000390007,-2.67669,-0.263566,-0.223853,-18.4818,0.185254,
2,1,0,1,0,9035.22,0.187074,0.186758,2.0797,5,0.0145589,10,0.000388402,-2.682,-0.30298,-0.194733,-15.8622,0.186758,
2,1,0,1,0,9035.25,0.18857,0.188265,2.05792,5,0.014637,10,0.000387434,-2.68657,-0.331609,-0.177921,-14.3092,0.1882647,
2,1,0,1,0,9035.29,0.19007,0.189776,2.03921,5,0.0147145,10,0.000386993,-2.69054,-0.321798,-0.183345,-14.5814,0.189776,
2,1,0,1,0,9035.33,0.19157,0.191245,2.01877,5,0.0147911,10,0.00038608,-2.69491,-0.367856,-0.160389,-12.6231,0.191245,
2,1,0,1,0,9035.37,0.193066,0.192755,2.00069,5,0.0148668,10,0.000385643,-2.69882,-0.44041,-0.133966,-10.4315,0.192755,
2,1,0,1,0,9035.4,0.194563,0.194239,1.98235,5,0.014942,10,0.000385051,-2.70282,-0.422805,-0.139544,-10.7952,0.194239,
2,1,0,1,0,9035.44,0.196063,0.195787,1.96529,5,0.0150167,10,0.000384778,-2.70657,-0.396811,-0.148685,-11.4217,0.195787,
2,1,0,1,0,9035.48,0.197563,0.197253,1.9438,5,0.0150908,10,0.000383422,-2.71135,-0.476642,-0.123783,-9.44884,0.197253,
2,1,0,1,0,9035.52,0.199059,0.198749,1.93503,5,0.0151641,10,0.000384585,-2.71331,-0.555055,-0.106296,-8.05922,0.1987489,
2,1,0,1,0,9035.55,0.200555,0.200272,1.92703,5,0.015237,10,0.00038593,-2.71511,-0.575518,-0.102516,-7.70687,0.200272,
2,1,0,1,0,9035.59,0.202059,0.20176,1.91591,5,0.0153098,10,0.000386553,-2.71763,-0.520891,-0.113267,-8.45007,0.20176,
2,1,0,1,0,9035.63,0.203554,0.203276,1.90428,5,0.0153819,10,0.000387094,-2.72027,-0.629042,-0.0937934,-6.96721,0.203276,
2,1,0,1,0,9035.67,0.20505,0.204761,1.89459,5,0.0154534,10,0.000387938,-2.72249,-1.34584,-0.0438387,-3.2494,0.204761,
2,1,0,1,0,9035.7,0.20655,0.206213,1.88517,5,0.0155248,10,0.000388747,-2.72465,-0.92924,-0.0634927,-4.66978,0.206213,
2,1,0,1,0,9035.74,0.20805,0.207713,1.88019,5,0.0155962,10,0.000390541,-2.7258,-0.638606,-0.0923888,-6.75798,0.207713,
2,1,0,1,0,9035.78,0.209546,0.209244,1.86327,5,0.0156669,10,0.000389878,-2.72972,-0.584923,-0.100868,-7.36871,0.2092437,
2,1,0,1,0,9035.82,0.211043,0.210778,1.85343,5,0.0157371,10,0.000390662,-2.73202,-0.693138,-0.0851201,-6.18731,0.210778,
2,1,0,1,0,9035.85,0.212543,0.212249,1.8551,5,0.0158073,10,0.000393745,-2.73163,-0.964143,-0.0611943,-4.4136,0.212249,
2,1,0,1,0,9035.89,0.214043,0.213788,1.84797,5,0.0158773,10,0.000395074,-2.7333,-0.85804,-0.0687613,-4.94685,0.2137877,
2,1,0,1,0,9035.93,0.215539,0.215207,1.84306,5,0.0159468,10,0.000396639,-2.73446,-0.872255,-0.0676408,-4.84749,0.215207,
2,1,0,1,0,9035.97,0.217035,0.216741,1.82592,5,0.016016,10,0.000395752,-2.73852,-1.17846,-0.0500652,-3.57614,0.216741,
2,1,0,1,0,9036,0.218538,0.218265,1.825,5,0.0160853,10,0.000398333,-2.73874,-2.84577,-0.0207325,-1.47705,0.218265,
2,1,0,1,0,9036.04,0.220034,0.219758,1.82019,5,0.0161541,10,0.000400001,-2.73988,-2.42666,-0.0243133,-1.72872,0.219758,
2,1,0,1,0,9036.08,0.22153,0.221253,1.81249,5,0.0162228,10,0.000401018,-2.74172,-0.775107,-0.0761185,-5.3863,0.221253,
2,1,0,1,0,9036.11,0.22303,0.222692,1.79637,5,0.0162913,10,0.000400037,-2.7456,-1.09766,-0.0537507,-3.79082,0.222692,
2,1,0,1,0,9036.15,0.22453,0.224204,1.80044,5,0.0163595,10,0.000403665,-2.74462,-1.50706,-0.039149,-2.75211,0.224204,
2,1,0,1,0,9036.19,0.226026,0.225747,1.8007,5,0.0164274,10,0.000406502,-2.74456,-2.48219,-0.0237694,-1.66542,0.225747,
2,1,0,1,0,9036.23,0.227523,0.227236,1.79617,5,0.0164952,10,0.000408154,-2.74565,-0.797685,-0.073964,-5.16293,0.227236,
2,1,0,1,0,9036.26,0.229023,0.228749,1.78813,5,0.016563,10,0.000409033,-2.7476,-1.31346,-0.0449196,-3.13375,0.228749,
2,1,0,1,0,9036.3,0.230523,0.230235,1.78318,5,0.0166305,10,0.000410552,-2.7488,-2.48404,-0.0237517,-1.65382,0.230235,
2,1,0,1,0,9036.34,0.232019,0.231731,1.77704,5,0.0166978,10,0.000411796,-2.7503,-2.78886,-0.0211556,-1.47051,0.231731,
2,1,0,1,0,9036.38,0.233515,0.233201,1.77351,5,0.0167649,10,0.000413584,-2.75117,-1.17014,-0.0504213,-3.49977,0.233201,
2,1,0,1,0,9036.41,0.235018,0.234659,1.76993,5,0.0168323,10,0.00041533,-2.75204,-1.82807,-0.0322744,-2.23235,0.234659,
2,1,0,1,0,9036.45,0.236514,0.236237,1.76177,5,0.016899,10,0.000416195,-2.75405,-1.61581,-0.0365142,-2.51727,0.236237,
2,1,0,1,0,9036.49,0.23801,0.23771,1.76315,5,0.0169656,10,0.000419117,-2.75371,-3.58361,-0.0164639,-1.13178,0.23771,
2,1,0,1,0,9036.53,0.23951,0.239174,1.76298,5,0.0170323,10,0.00042166,-2.75375,-2.598,-0.0227098,-1.55768,0.239174,
2,1,0,1,0,9036.56,0.24101,0.240712,1.75759,5,0.0170988,10,0.000423074,-2.75508,-1.07844,-0.0547085,-3.74458,0.240712,
2,1,0,1,0,9036.6,0.242506,0.242197,1.74485,5,0.017165,10,0.000422597,-2.75824,-1.14441,-0.0515547,-3.52515,0.2421966,
2,1,0,1,0,9036.64,0.244003,0.243694,1.74253,5,0.017231,10,0.000424645,-2.75882,-3.44402,-0.0171312,-1.16932,0.243694,
2,1,0,1,0,9036.68,0.245503,0.245218,1.74617,5,0.0172971,10,0.000428194,-2.75791,-2.37894,-0.0248009,-1.6895,0.245218,
2,1,0,1,0,9036.71,0.247003,0.246699,1.74132,5,0.0173632,10,0.000429583,-2.75912,-1.12817,-0.0522971,-3.54934,0.246699,
2,1,0,1,0,9036.75,0.248499,0.24817,1.73219,5,0.0174289,10,0.000429878,-2.7614,-1.65225,-0.0357089,-2.41936,0.24817,
2,1,0,1,0,9036.79,0.249995,0.249695,1.73927,5,0.0174943,10,0.000434287,-2.75963,-1.38244,-0.0426781,-2.88304,0.249695,
2,1,0,1,0,9036.83,0.251498,0.251221,1.73425,5,0.0175601,10,0.000435681,-2.76089,-3.55115,-0.0166143,-1.11752,0.251221,
2,1,0,1,0,9036.86,0.252994,0.252674,1.72606,5,0.0176253,10,0.00043613,-2.76294,-0.938018,-0.0628986,-4.23226,0.252674,
2,1,0,1,0,9036.9,0.25449,0.254182,1.71946,5,0.0176905,10,0.000437055,-2.76461,-1.39042,-0.0424332,-2.85532,0.254182,
2,1,0,1,0,9036.94,0.25599,0.255684,1.71318,5,0.0177555,10,0.000438033,-2.7662,-2.86072,-0.0206242,-1.38658,0.255684,
2,1,0,1,0,9036.98,0.25749,0.257156,1.71171,5,0.0178205,10,0.000440176,-2.76657,-6.09285,-0.00968348,-0.648746,0.257156,
2,1,0,1,0,9037.01,0.258987,0.258703,1.71269,5,0.0178853,10,0.000443078,-2.76632,-1.99663,-0.0295498,-1.97126,0.2587032,
2,1,0,1,0,9037.05,0.260483,0.260183,1.7093,5,0.01795,10,0.000444731,-2.76718,-1.19714,-0.049284,-3.28476,0.260183,
2,1,0,1,0,9037.09,0.261983,0.261701,1.71048,5,0.0180146,10,0.000447636,-2.76688,-1.5216,-0.038775,-2.5716,0.261701,
2,1,0,1,0,9037.13,0.263483,0.263198,1.70543,5,0.0180791,10,0.000448865,-2.76817,-8.21567,-0.0071814,-0.475743,0.2631976,
2,1,0,1,0,9037.16,0.264978,0.264719,1.69932,5,0.0181434,10,0.000449842,-2.76973,-3.48359,-0.0169366,-1.12196,0.264719,
2,1,0,1,0,9037.2,0.266474,0.266184,1.69038,5,0.0182075,10,0.00044995,-2.77202,-1.63775,-0.036025,-2.38474,0.266184,
2,1,0,1,0,9037.24,0.267977,0.267713,1.68573,5,0.0182718,10,0.000451292,-2.77321,-1.23622,-0.0477261,-3.15754,0.267713,
2,1,0,1,0,9037.28,0.269474,0.269186,1.68169,5,0.0183356,10,0.000452689,-2.77425,-2.70223,-0.0218338,-1.44098,0.269186,
2,1,0,1,0,9037.31,0.27097,0.270685,1.68892,5,0.0183993,10,0.000457165,-2.77239,-1.76696,-0.0333907,-2.19345,0.270685,
2,1,0,1,0,9037.35,0.27247,0.272144,1.68539,5,0.0184632,10,0.000458668,-2.7733,-1.25532,-0.0469999,-3.07586,0.2721436,
2,1,0,1,0,9037.39,0.27397,0.273649,1.67751,5,0.0185268,10,0.000459049,-2.77534,-1.45234,-0.0406242,-2.6558,0.273649,
2,1,0,1,0,9037.43,0.275467,0.275175,1.67634,5,0.0185901,10,0.000461287,-2.77564,-1.42808,-0.0413142,-2.6988,0.275175,
2,1,0,1,0,9037.46,0.276963,0.276666,1.67089,5,0.0186533,10,0.000462279,-2.77705,-4.14648,-0.0142289,-0.927955,0.276666,
2,1,0,1,0,9037.5,0.278463,0.278211,1.66679,5,0.0187166,10,0.00046372,-2.77812,-1.12361,-0.0525094,-3.41465,0.2782107,
2,1,0,1,0,9037.54,0.279963,0.279697,1.66193,5,0.0187797,10,0.000464837,-2.77939,-1.2438,-0.0474351,-3.08592,0.279697,
2,1,0,1,0,9037.58,0.281459,0.281209,1.65568,5,0.0188425,10,0.000465592,-2.78102,-1.29987,-0.0453891,-2.94657,0.281209,
2,1,0,1,0,9037.61,0.282954,0.282677,1.65924,5,0.0189052,10,0.000469029,-2.78009,-2.16863,-0.0272061,-1.75868,0.282677,
2,1,0,1,0,9037.65,0.284458,0.284192,1.65693,5,0.0189681,10,0.000470887,-2.7807,-1.83005,-0.0322395,-2.07555,0.284192,
2,1,0,1,0,9037.69,0.285954,0.285666,1.6518,5,0.0190306,10,0.000471865,-2.78204,-1.80076,-0.032764,-2.1074,0.285666,
2,1,0,1,0,9037.73,0.28745,0.287169,1.64669,5,0.0190928,10,0.000472878,-2.78339,-1.12548,-0.0524222,-3.36644,0.287169,
2,1,0,1,0,9037.76,0.28895,0.288652,1.64326,5,0.0191551,10,0.000474331,-2.78429,-2.37469,-0.0248453,-1.5906,0.2886523,
2,1,0,1,0,9037.8,0.29045,0.290176,1.63677,5,0.0192173,10,0.00047495,-2.78601,-1.72053,-0.0342917,-2.19908,0.2901758,
2,1,0,1,0,9037.84,0.291947,0.291674,1.62987,5,0.0192792,10,0.00047539,-2.78785,-0.964931,-0.0611443,-3.91098,0.291674,
2,1,0,1,0,9037.88,0.293443,0.293108,1.62566,5,0.019341,10,0.000476492,-2.78897,-1.8901,-0.0312153,-1.98906,0.293108,
2,1,0,1,0,9037.91,0.294943,0.294644,1.63046,5,0.0194027,10,0.000480403,-2.78769,-1.3475,-0.0437849,-2.78147,0.294644,
2,1,0,1,0,9037.95,0.296443,0.296104,1.6345,5,0.0194644,10,0.000483982,-2.78662,-2.57511,-0.0229116,-1.45001,0.296104,
2,1,0,1,0,9037.99,0.297939,0.297691,1.62962,5,0.0195259,10,0.000485122,-2.78791,-1.15968,-0.0508759,-3.20374,0.297691,
2,1,0,1,0,9038.03,0.299434,0.299136,1.61805,5,0.0195871,10,0.000484017,-2.79101,-0.0107677,-5.47936,-275.477,0.299136,
2,1,0,0,0,9038.04,0.299962,0.299632,1.51263,5,0.0196112,10,0.000453232,-2.82027,0.000500816,117.808,2084.52,0.299632,
2,1,0,1,0,9038.07,0.298689,0.298367,0.143212,5,0.0196304,10,4.27298e-05,-3.84402,0.00449237,13.1334,572.83,0.298367,
2,0,0,1,0,9038.11,0.297189,0.296896,-0.231692,5,0.0196266,10,-6.87882e-05,-3.63509,0.0793987,0.743085,212.246,0.296896,
2,0,0,1,0,9038.15,0.295692,0.295364,-0.364586,5,0.0196142,10,-0.000107686,-3.4382,-0.00877535,-6.72338,75.0968,0.295364,
2,0,0,1,0,9038.18,0.294196,0.293912,-0.441379,5,0.0195983,10,-0.000129726,-3.35519,-0.0225061,-2.62151,42.9016,0.293912,
2,0,0,1,0,9038.22,0.292696,0.292391,-0.492987,5,0.01958,10,-0.000144145,-3.30716,-0.0342759,-1.72133,32.4465,0.292391,
2,0,0,1,0,9038.26,0.291196,0.290886,-0.543902,5,0.0195599,10,-0.000158214,-3.26448,-0.041452,-1.42333,29.4634,0.290886,
2,0,0,1,0,9038.3,0.2897,0.28942,-0.585329,5,0.0195382,10,-0.000169406,-3.2326,-0.0496092,-1.1893,26.3556,0.28942,
2,0,0,1,0,9038.33,0.288205,0.287919,-0.615876,5,0.0195151,10,-0.000177322,-3.21051,-0.0642635,-0.918095,21.6522,0.287919,
2,0,0,1,0,9038.37,0.286701,0.286373,-0.635664,5,0.0194908,10,-0.000182037,-3.19677,-0.0788441,-0.748312,18.6347,0.286373,
2,0,0,1,0,9038.41,0.285205,0.284919,-0.665247,5,0.0194656,10,-0.000189542,-3.17702,-0.0830518,-0.7104,18.5682,0.284919,
2,0,0,1,0,9038.45,0.283708,0.28342,-0.691042,5,0.0194394,10,-0.000195855,-3.1605,-0.0968042,-0.609478,16.5222,0.28342,
2,0,0,1,0,9038.48,0.282208,0.281937,-0.717573,5,0.0194121,10,-0.00020231,-3.14413,-0.122575,-0.481336,13.4392,0.281937,
2,0,0,1,0,9038.52,0.280709,0.280359,-0.742612,5,0.019384,10,-0.000208198,-3.12924,-0.120871,-0.488124,14.044,0.280359,
2,0,0,1,0,9038.56,0.279212,0.278924,-0.762571,5,0.0193553,10,-0.000212699,-3.11772,-0.130726,-0.451325,13.3604,0.278924,
2,0,0,1,0,9038.6,0.277716,0.277436,-0.78585,5,0.0193257,10,-0.000218023,-3.10466,-0.136731,-0.431503,13.0348,0.277436,
2,0,0,1,0,9038.63,0.276216,0.275888,-0.80175,5,0.0192954,10,-0.000221193,-3.09596,-0.149217,-0.395398,12.3456,0.275888,
2,0,0,1,0,9038.67,0.274716,0.274401,-0.814518,5,0.0192643,10,-0.000223505,-3.0891,-0.157244,-0.375213,11.9657,0.274401,
2,0,0,1,0,9038.71,0.27322,0.2729,-0.828627,5,0.0192328,10,-0.000226132,-3.08164,-0.174418,-0.338267,11.0221,0.2729,
2,0,0,1,0,9038.75,0.271725,0.271401,-0.848221,5,0.0192006,10,-0.000230208,-3.07149,-0.145405,-0.405763,13.4497,0.2714012,
2,0,0,1,0,9038.78,0.270221,0.269919,-0.865547,5,0.0191676,10,-0.000233627,-3.06271,-0.189307,-0.311663,10.5292,0.269919,
2,0,0,1,0,9038.82,0.268725,0.268388,-0.882026,5,0.0191342,10,-0.000236725,-3.05452,-0.25814,-0.228558,7.83268,0.268388,
2,0,0,1,0,9038.86,0.267228,0.266955,-0.891275,5,0.0191003,10,-0.00023793,-3.04999,-0.222207,-0.265518,9.23155,0.2669549,
2,0,0,1,0,9038.9,0.265728,0.265414,-0.909268,5,0.0190659,10,-0.000241333,-3.04131,-0.218742,-0.269725,9.53222,0.265414,
2,0,0,1,0,9038.93,0.264228,0.263889,-0.92151,5,0.0190309,10,-0.000243177,-3.0355,-0.265449,-0.222265,7.98992,0.263889,
2,0,0,1,0,9038.97,0.262732,0.262442,-0.93251,5,0.0189954,10,-0.00024473,-3.03035,-0.311212,-0.189582,6.91859,0.262442,
2,0,0,1,0,9039.01,0.261236,0.260959,-0.942435,5,0.0189595,10,-0.000245937,-3.02575,-0.286339,-0.20605,7.64858,0.260959,
2,0,0,1,0,9039.05,0.259736,0.259447,-0.959117,5,0.0189231,10,-0.00024884,-3.01813,-0.228167,-0.258583,9.7303,0.259447,
2,0,0,1,0,9039.08,0.258236,0.257936,-0.976309,5,0.0188861,10,-0.000251826,-3.01041,-0.222083,-0.265666,10.0693,0.257936,
2,0,0,1,0,9039.12,0.256741,0.25642,-0.985882,5,0.0188487,10,-0.0002528,-3.00617,-0.36128,-0.163308,6.25034,0.2564199,
2,0,0,1,0,9039.16,0.255241,0.254921,-0.997943,5,0.0188108,10,-0.000254397,-3.00089,-0.320357,-0.18417,7.14525,0.254921,
2,0,0,1,0,9039.2,0.253741,0.253455,-1.00889,5,0.0187726,10,-0.000255709,-2.99615,-0.303926,-0.194126,7.61337,0.253455,
2,0,0,1,0,9039.23,0.252245,0.251926,-1.01811,5,0.018734,10,-0.000256489,-2.99221,-0.274116,-0.215237,8.53411,0.251926,
2,0,0,1,0,9039.27,0.250748,0.250463,-1.02988,5,0.018695,10,-0.000257947,-2.98721,-0.32681,-0.180533,7.26698,0.2504631,
2,0,0,1,0,9039.31,0.249248,0.248922,-1.03817,5,0.0186554,10,-0.000258424,-2.98373,-0.401979,-0.146774,5.97603,0.248922,
2,0,0,1,0,9039.35,0.247748,0.247452,-1.04587,5,0.0186155,10,-0.000258803,-2.98052,-0.383319,-0.153919,6.33302,0.247452,
2,0,0,1,0,9039.38,0.246252,0.245943,-1.06186,5,0.0185753,10,-0.000261158,-2.97393,-0.283342,-0.208229,8.61347,0.245943,
2,0,0,1,0,9039.42,0.244756,0.244432,-1.07915,5,0.0185346,10,-0.000263779,-2.96692,-0.340805,-0.173119,7.24389,0.2444322,
2,0,0,1,0,9039.46,0.243252,0.242899,-1.0879,5,0.0184933,10,-0.000264251,-2.96341,-0.435283,-0.135544,5.70443,0.242899,
2,0,0,1,0,9039.5,0.241756,0.241432,-1.08946,5,0.0184518,10,-0.000263031,-2.96279,-0.419492,-0.140646,5.98511,0.241432,
2,0,0,1,0,9039.53,0.240261,0.23995,-1.10341,5,0.0184101,10,-0.000264764,-2.95726,-0.321299,-0.183629,7.91293,0.23995,
2,0,0,1,0,9039.57,0.238761,0.238426,-1.11025,5,0.0183678,10,-0.000264711,-2.95458,-0.395935,-0.149014,6.47726,0.238426,
2,0,0,1,0,9039.61,0.237261,0.236993,-1.11852,5,0.0183251,10,-0.000265082,-2.95136,-0.519449,-0.113582,4.97816,0.236993,
2,0,0,1,0,9039.64,0.235765,0.235474,-1.12858,5,0.0182822,10,-0.000265751,-2.94747,-0.471773,-0.12506,5.528,0.235474,
2,0,0,1,0,9039.68,0.234268,0.233974,-1.14085,5,0.0182391,10,-0.000266928,-2.94277,-0.360184,-0.163805,7.31092,0.233974,
2,0,0,1,0,9039.72,0.232768,0.23241,-1.15327,5,0.0181953,10,-0.000268031,-2.93807,-0.384779,-0.153335,6.87727,0.23241,
2,0,0,1,0,9039.76,0.231268,0.230958,-1.16484,5,0.0181512,10,-0.00026903,-2.93373,-0.485901,-0.121424,5.47234,0.230958,
2,0,0,1,0,9039.79,0.229772,0.229483,-1.17426,5,0.0181068,10,-0.000269473,-2.93024,-0.419536,-0.140632,6.42861,0.229483,
2,0,0,1,0,9039.83,0.228275,0.227981,-1.17989,5,0.0180622,10,-0.000268994,-2.92816,-0.36493,-0.161675,7.45146,0.227981,
2,0,0,1,0,9039.87,0.226772,0.226487,-1.18914,5,0.0180169,10,-0.000269325,-2.92477,-0.324166,-0.182005,8.45651,0.226487,
2,0,0,1,0,9039.91,0.225276,0.224931,-1.19797,5,0.0179715,10,-0.000269461,-2.92155,-0.446578,-0.132116,6.21813,0.224931,
2,0,0,1,0,9039.94,0.223781,0.22345,-1.20585,5,0.0179258,10,-0.000269447,-2.91871,-0.404997,-0.14568,6.8801,0.22345,
2,0,0,1,0,9039.98,0.222281,0.221984,-1.21734,5,0.0178796,10,-0.00027023,-2.91459,-0.459729,-0.128336,6.0916,0.221984,
2,0,0,1,0,9040.02,0.220781,0.220464,-1.22945,5,0.017833,10,-0.000271051,-2.91029,-0.316474,-0.186429,8.91072,0.220464,
2,0,0,1,0,9040.06,0.219284,0.218974,-1.24455,5,0.0177862,10,-0.000272524,-2.90499,-0.399069,-0.147844,7.11317,0.218974,
2,0,0,1,0,9040.09,0.217788,0.217475,-1.24779,5,0.0177389,10,-0.000271363,-2.90386,-0.564429,-0.104531,5.07265,0.217475,
2,0,0,1,0,9040.13,0.216288,0.21597,-1.24772,5,0.0176912,10,-0.00026947,-2.90388,-0.457991,-0.128823,6.32664,0.21597,
2,0,0,1,0,9040.17,0.214788,0.214491,-1.26294,5,0.0176433,10,-0.00027089,-2.89862,-0.589545,-0.100077,4.95875,0.214491,
2,0,0,1,0,9040.21,0.213292,0.212993,-1.27668,5,0.0175951,10,-0.000271924,-2.89392,-0.361603,-0.163162,8.13577,0.212993,
2,0,0,1,0,9040.24,0.211796,0.211502,-1.28726,5,0.0175465,10,-0.000272258,-2.89033,-0.643666,-0.0916624,4.58433,0.211502,
2,0,0,1,0,9040.28,0.210293,0.209978,-1.29208,5,0.0174972,10,-0.000271309,-2.88871,-0.433082,-0.136233,6.87606,0.209978,
2,0,0,1,0,9040.32,0.208797,0.208445,-1.30645,5,0.0174479,10,-0.000272323,-2.88391,-0.31048,-0.190028,9.71106,0.208445,
2,0,0,1,0,9040.36,0.207301,0.206995,-1.31925,5,0.0173982,10,-0.000273077,-2.87967,-0.416311,-0.141721,7.27524,0.206995,
2,0,0,1,0,9040.39,0.205801,0.205448,-1.33146,5,0.0173477,10,-0.000273547,-2.87567,-0.461917,-0.127729,6.60555,0.205448,
2,0,0,1,0,9040.43,0.204301,0.203932,-1.34099,5,0.0172969,10,-0.00027347,-2.87258,-0.612779,-0.0962827,5.03984,0.203932,
2,0,0,1,0,9040.47,0.202804,0.20248,-1.34238,5,0.017246,10,-0.000271805,-2.87213,-0.421734,-0.139899,7.37588,0.20248,
2,0,0,1,0,9040.51,0.201308,0.201005,-1.35698,5,0.0171948,10,-0.000272759,-2.86743,-0.371059,-0.159004,8.44516,0.2010048,
2,0,0,1,0,9040.54,0.199808,0.199485,-1.37088,5,0.0171429,10,-0.00027347,-2.863,-0.464142,-0.127116,6.81378,0.199485,
2,0,0,1,0,9040.58,0.198308,0.197995,-1.38604,5,0.0170906,10,-0.000274429,-2.85822,-0.470154,-0.125491,6.74832,0.197995,
2,0,0,1,0,9040.62,0.196812,0.196484,-1.39081,5,0.0170381,10,-0.000273271,-2.85673,-0.425498,-0.138661,7.50782,0.196484,
2,0,0,1,0,9040.66,0.195316,0.194976,-1.40549,5,0.0169852,10,-0.000274037,-2.85217,-0.338286,-0.174409,9.52671,0.194976,
2,0,0,1,0,9040.69,0.193813,0.193477,-1.4181,5,0.0169315,10,-0.000274368,-2.84829,-0.322392,-0.183007,10.1198,0.193477,
2,0,0,1,0,9040.73,0.192317,0.192034,-1.43103,5,0.0168775,10,-0.000274807,-2.84435,-0.368979,-0.159901,8.90151,0.192034,
2,0,0,1,0,9040.77,0.190821,0.190518,-1.43283,5,0.016823,10,-0.000272979,-2.84381,-0.351886,-0.167668,9.46461,0.190518,
2,0,0,1,0,9040.81,0.189321,0.18902,-1.45118,5,0.0167681,10,-0.000274303,-2.83828,-0.359324,-0.164197,9.3476,0.18902,
2,0,0,1,0,9040.84,0.187821,0.187494,-1.4678,5,0.0167126,10,-0.000275203,-2.83333,-0.361281,-0.163308,9.35773,0.187494,
2,0,0,1,0,9040.88,0.186324,0.186009,-1.48542,5,0.0166566,10,-0.000276302,-2.82815,-0.501454,-0.117658,6.78652,0.186009,
2,0,0,1,0,9040.92,0.184828,0.184497,-1.50295,5,0.0166001,10,-0.000277289,-2.82306,-0.369731,-0.159576,9.32213,0.184497,
2,0,0,1,0,9040.96,0.183328,0.183027,-1.51395,5,0.0165431,10,-0.000277094,-2.81989,-0.34257,-0.172228,10.176,0.183027,
2,0,0,1,0,9040.99,0.181828,0.181517,-1.5285,5,0.0164853,10,-0.000277449,-2.81574,-0.296173,-0.199208,11.8916,0.181517,
2,0,0,1,0,9041.03,0.180332,0.180021,-1.54972,5,0.0164269,10,-0.000278982,-2.80975,-0.286761,-0.205746,12.4382,0.180021,
2,0,0,1,0,9041.07,0.178836,0.178506,-1.56597,5,0.0163679,10,-0.000279535,-2.80522,-0.298512,-0.197647,12.1132,0.178506,
2,0,0,1,0,9041.11,0.177333,0.177044,-1.58242,5,0.016308,10,-0.000280157,-2.80068,-0.251224,-0.23485,14.5802,0.177044,
2,0,0,1,0,9041.14,0.175837,0.175556,-1.60647,5,0.0162476,10,-0.000282025,-2.79413,-0.236522,-0.249448,15.6184,0.175556,
2,0,0,1,0,9041.18,0.174341,0.174013,-1.63204,5,0.0161864,10,-0.000283997,-2.78727,-0.219816,-0.268406,17.0329,0.174013,
2,0,0,1,0,9041.22,0.172841,0.172533,-1.65381,5,0.0161241,10,-0.000285337,-2.78151,-0.240648,-0.245172,15.7878,0.172533,
2,0,0,1,0,9041.26,0.171341,0.171026,-1.67466,5,0.016061,10,-0.000286411,-2.77607,-0.222274,-0.265438,17.3807,0.171026,
2,0,0,1,0,9041.29,0.169844,0.169542,-1.70563,5,0.015997,10,-0.000289176,-2.76812,-0.205868,-0.286592,19.0886,0.169542,
2,0,0,1,0,9041.33,0.168348,0.168091,-1.73584,5,0.015932,10,-0.00029178,-2.76049,-0.191749,-0.307694,20.8514,0.168091,
2,0,0,1,0,9041.37,0.166848,0.166524,-1.76422,5,0.0158655,10,-0.000293785,-2.75345,-0.192507,-0.306483,21.1728,0.166524,
2,0,0,1,0,9041.41,0.165348,0.165018,-1.79953,5,0.0157979,10,-0.000296955,-2.74484,-0.177324,-0.332724,23.4289,0.165018,
2,0,0,1,0,9041.44,0.163852,0.163532,-1.83713,5,0.0157292,10,-0.00030043,-2.73586,-0.163413,-0.361049,25.9221,0.163532,
2,0,0,1,0,9041.48,0.162357,0.162036,-1.8757,5,0.0156591,10,-0.00030393,-2.72684,-0.145124,-0.40655,29.7564,0.162036,
2,0,0,1,0,9041.52,0.160853,0.160522,-1.92171,5,0.015587,10,-0.000308476,-2.71631,-0.150893,-0.391005,29.2643,0.160522,
2,0,0,1,0,9041.56,0.159357,0.159051,-1.9691,5,0.0155135,10,-0.000313188,-2.70573,-0.137328,-0.429628,33.0185,0.159051,
2,0,0,1,0,9041.59,0.157861,0.157516,-2.01627,5,0.0154384,10,-0.000317594,-2.69545,-0.127383,-0.463169,36.5894,0.157516,
2,0,0,1,0,9041.63,0.156361,0.156003,-2.07478,5,0.0153608,10,-0.000323671,-2.68303,-0.111621,-0.528574,42.9258,0.156003,
2,0,0,1,0,9041.67,0.154861,0.154557,-2.14244,5,0.015281,10,-0.000331129,-2.66909,-0.11242,-0.524817,43.9833,0.154557,
2,0,0,1,0,9041.7,0.153364,0.153022,-2.2135,5,0.0151988,10,-0.000338715,-2.65492,-0.108857,-0.541998,46.8925,0.153022,
2,0,0,1,0,9041.74,0.151868,0.151543,-2.2896,5,0.0151139,10,-0.000346973,-2.64024,-0.0980535,-0.601712,53.8599,0.151543,
2,0,0,1,0,9041.78,0.150368,0.15008,-2.37523,5,0.0150259,10,-0.000356474,-2.62429,-0.0878973,-0.671238,62.2427,0.15008,
2,0,0,1,0,9041.82,0.148868,0.148552,-2.47416,5,0.0149343,10,-0.00036754,-2.60657,-0.084382,-0.699201,67.4076,0.148552,
2,0,0,1,0,9041.85,0.147372,0.147051,-2.57419,5,0.0148394,10,-0.000378538,-2.58936,-0.0833246,-0.708074,71.0615,0.147051,
2,0,0,1,0,9041.89,0.145877,0.145559,-2.67302,5,0.0147405,10,-0.000389083,-2.573,-0.0788517,-0.74824,78.5203,0.145559,
2,0,0,1,0,9041.93,0.144373,0.144057,-2.79817,5,0.0146368,10,-0.000403095,-2.55313,-0.0758124,-0.778237,85.3766,0.144057,
2,0,0,1,0,9041.97,0.142877,0.142527,-2.93635,5,0.0145288,10,-0.00041851,-2.53219,-0.0735165,-0.802541,92.0019,0.1425274,
2,0,0,1,0,9042,0.14138,0.141049,-3.07436,5,0.0144155,10,-0.000433636,-2.51225,-0.076813,-0.768099,92.063,0.141049,
2,0,0,1,0,9042.04,0.13988,0.139588,-3.21861,5,0.0142967,10,-0.00044928,-2.49233,-0.0761153,-0.77514,97.2405,0.139588,
2,0,0,1,0,9042.08,0.13838,0.138094,-3.37075,5,0.0141726,10,-0.000465482,-2.47227,-0.0774546,-0.761736,100.056,0.138094,
2,0,0,1,0,9042.12,0.136884,0.136586,-3.52206,5,0.014043,10,-0.000481065,-2.4532,-0.07911,-0.745797,102.35,0.136586,
2,0,0,1,0,9042.15,0.135388,0.135019,-3.67506,5,0.0139077,10,-0.000496204,-2.43474,-0.0842993,-0.699887,100.143,0.135019,
2,0,0,1,0,9042.19,0.133888,0.133577,-3.82444,5,0.0137663,10,-0.000510855,-2.41743,-0.0895505,-0.658846,98.2417,0.133577,
2,0,0,1,0,9042.23,0.132389,0.132084,-3.96316,5,0.0136195,10,-0.00052347,-2.40196,-0.0954571,-0.618079,95.5079,0.132084,
2,0,0,1,0,9042.27,0.130893,0.130557,-4.10381,5,0.0134677,10,-0.000535783,-2.38681,-0.10081,-0.585259,93.7309,0.130557,
2,0,0,1,0,9042.3,0.129393,0.129069,-4.24377,5,0.0133104,10,-0.000547738,-2.37225,-0.111995,-0.526809,87.0604,0.129069,
2,0,0,1,0,9042.34,0.127893,0.127572,-4.37023,5,0.013148,10,-0.000557518,-2.3595,-0.12575,-0.469186,79.7083,0.127572,
2,0,0,1,0,9042.38,0.126397,0.126089,-4.47675,5,0.0129818,10,-0.000564468,-2.34904,-0.145222,-0.406275,70.8304,0.126089,
2,0,0,1,0,9042.42,0.1249,0.124573,-4.58417,5,0.0128115,10,-0.000571065,-2.33874,-0.156712,-0.376488,67.1612,0.1245734,
2,0,0,1,0,9042.45,0.1234,0.123123,-4.67539,5,0.0126371,10,-0.000575649,-2.33018,-0.181377,-0.32529,59.229,0.123123,
2,0,0,1,0,9042.49,0.1219,0.121603,-4.75875,5,0.0124594,10,-0.000578678,-2.32251,-0.22799,-0.258783,47.9488,0.121603,
2,0,0,1,0,9042.53,0.120404,0.12013,-4.81526,5,0.0122793,10,-0.000578456,-2.31738,-0.278817,-0.211609,39.7768,0.12013,
2,0,0,1,0,9042.57,0.118908,0.118599,-4.87834,5,0.0120972,10,-0.000578564,-2.31173,-0.325163,-0.181447,34.5448,0.118599,
2,0,0,1,0,9042.6,0.117404,0.117083,-4.92646,5,0.0119121,10,-0.000576807,-2.30746,-0.379986,-0.155269,29.7941,0.117083,
2,0,0,1,0,9042.64,0.115909,0.115547,-4.96934,5,0.0117263,10,-0.000574191,-2.3037,-0.592444,-0.0995874,19.2312,0.115547,
2,0,0,1,0,9042.68,0.114413,0.114114,-4.99188,5,0.0115393,10,-0.000569645,-2.30174,-0.893909,-0.0660022,12.8222,0.114114,
2,0,0,1,0,9042.72,0.112913,0.112613,-5.0032,5,0.0113512,10,-0.000563427,-2.30075,-1.54238,-0.0382527,7.45992,0.112613,
2,0,0,1,0,9042.75,0.111413,0.111107,-5.01263,5,0.0111627,10,-0.000556936,-2.29993,-4.39326,-0.0134297,2.62322,0.1111066,
2,0,0,1,0,9042.79,0.109917,0.109617,-5.00867,5,0.0109745,10,-0.000549036,-2.30028,2.19759,0.0268476,-5.2434,0.109617,
2,0,0,1,0,9042.83,0.10842,0.108111,-5.00122,5,0.0107865,10,-0.000540685,-2.30092,1.12098,0.0526326,-10.2559,0.108111,
2,0,0,1,0,9042.87,0.10692,0.106595,-4.97642,5,0.0105988,10,-0.000530462,-2.30308,0.704571,0.0837389,-16.2524,0.106595,
2,0,0,1,0,9042.9,0.10542,0.105114,-4.9558,5,0.0104118,10,-0.000520923,-2.30489,0.715546,0.0824545,-15.9152,0.105114,
2,0,0,1,0,9042.94,0.103924,0.103595,-4.92989,5,0.0102263,10,-0.00051071,-2.30716,0.495033,0.119184,-22.8459,0.103595,
2,0,0,1,0,9042.98,0.102427,0.102137,-4.88681,5,0.0100421,10,-0.000499124,-2.31097,0.392703,0.150241,-28.5979,0.102137,
2,0,0,1,0,9043.02,0.100924,0.100637,-4.83386,5,0.0098586,10,-0.000486466,-2.31571,0.345462,0.170786,-32.241,0.100637,
2,0,0,1,0,9043.05,0.0994284,0.0991327,-4.78603,5,0.00967788,10,-0.000474453,-2.32002,0.340219,0.173418,-32.3802,0.0991327,
2,0,0,1,0,9043.09,0.0979329,0.0975688,-4.73449,5,0.00949902,10,-0.000461938,-2.32473,0.300008,0.196661,-36.3579,0.0975688,
2,0,0,1,0,9043.13,0.0964329,0.096114,-4.67658,5,0.00932174,10,-0.000449485,-2.33007,0.264653,0.222933,-40.6605,0.096114,
2,0,0,1,0,9043.17,0.094933,0.0946324,-4.61291,5,0.00914669,10,-0.00043653,-2.33603,0.256485,0.230033,-41.4507,0.09463238,
2,0,0,1,0,9043.2,0.0934366,0.0931161,-4.55348,5,0.00897457,10,-0.000424003,-2.34166,0.261105,0.225963,-40.1839,0.0931161,
2,0,0,1,0,9043.24,0.0919401,0.0916249,-4.50247,5,0.00880454,10,-0.000412539,-2.34655,0.278868,0.21157,-37.1172,0.0916249,
2,0,0,1,0,9043.28,0.0904402,0.0901122,-4.44588,5,0.00863611,10,-0.000400628,-2.35204,0.262048,0.225149,-38.9926,0.0901122,
2,0,0,1,0,9043.32,0.0889402,0.0886398,-4.39005,5,0.0084698,10,-0.000389133,-2.35753,0.268957,0.219366,-37.557,0.0886398,
2,0,0,1,0,9043.35,0.0874438,0.0871375,-4.32739,5,0.00830624,10,-0.000377078,-2.36377,0.284138,0.207646,-35.1528,0.08713755,
2,0,0,1,0,9043.39,0.0859483,0.0856344,-4.27954,5,0.00814456,10,-0.000366476,-2.3686,0.326862,0.180505,-30.191,0.08563441,
2,0,0,1,0,9043.43,0.0844447,0.0841523,-4.23296,5,0.00798369,10,-0.000356213,-2.37336,0.349611,0.168759,-27.9151,0.0841523,
2,0,0,1,0,9043.47,0.0829492,0.0826394,-4.19524,5,0.00782531,10,-0.000346692,-2.37724,0.345732,0.170652,-27.9515,0.0826394,
2,0,0,1,0,9043.5,0.0814528,0.0811201,-4.14901,5,0.00766867,10,-0.000336568,-2.38206,0.354909,0.16624,-26.956,0.0811201,
2,0,0,1,0,9043.54,0.0799528,0.0796134,-4.11081,5,0.00751296,10,-0.000327275,-2.38607,0.450048,0.131097,-21.0554,0.0796134,
2,0,0,1,0,9043.58,0.0784529,0.0781113,-4.08338,5,0.00735852,10,-0.000318958,-2.38898,0.45739,0.128993,-20.5494,0.0781113,
2,0,0,1,0,9043.62,0.0769565,0.0766417,-4.0525,5,0.00720563,10,-0.000310591,-2.39228,0.419016,0.140806,-22.2619,0.0766417,
2,0,0,1,0,9043.65,0.0754601,0.07514,-4.01459,5,0.00705399,10,-0.000301656,-2.39636,0.439347,0.13429,-21.0912,0.07514,
2,0,0,1,0,9043.69,0.0739601,0.0736114,-3.99174,5,0.0069031,10,-0.000293837,-2.39884,0.504855,0.116865,-18.2329,0.0736114,
2,0,0,1,0,9043.73,0.0724601,0.0721649,-3.96507,5,0.0067532,10,-0.000286139,-2.40175,0.538533,0.109557,-16.9636,0.0721649,
2,0,0,1,0,9043.76,0.0709637,0.0706538,-3.94253,5,0.00660458,10,-0.000278555,-2.40422,0.533915,0.110505,-16.9817,0.0706538,
2,0,0,1,0,9043.8,0.0694682,0.0691407,-3.91876,5,0.00645687,10,-0.000270946,-2.40685,0.557368,0.105855,-16.165,0.0691407,
2,0,0,1,0,9043.84,0.0679646,0.0676354,-3.89306,5,0.00630948,10,-0.000263309,-2.40971,0.563385,0.104724,-15.9085,0.06763541,
2,0,0,1,0,9043.88,0.0664691,0.0661567,-3.8691,5,0.00616368,10,-0.000255967,-2.41239,0.62184,0.0948796,-14.3177,0.0661567,
2,0,0,1,0,9043.91,0.0649727,0.0646764,-3.85016,5,0.00601854,10,-0.000249015,-2.41452,0.581404,0.101478,-15.2238,0.0646764,
2,0,0,1,0,9043.95,0.0634727,0.0631569,-3.82049,5,0.00587394,10,-0.000241291,-2.41788,0.534818,0.110318,-16.4706,0.06315691,
2,0,0,1,0,9043.99,0.0619728,0.0616756,-3.79041,5,0.00573041,10,-0.000233776,-2.42131,0.513918,0.114804,-17.0319,0.0616756,
2,0,0,1,0,9044.03,0.0604764,0.0601389,-3.77265,5,0.00558811,10,-0.000226883,-2.42335,0.549177,0.107433,-15.8124,0.0601389,
2,0,0,1,0,9044.06,0.05898,0.0586724,-3.75403,5,0.00544665,10,-0.000220258,-2.4255,0.573146,0.102941,-15.0694,0.05867238,
2,0,0,1,0,9044.1,0.05748,0.0571509,-3.73384,5,0.00530572,10,-0.000213392,-2.42784,0.50397,0.11707,-17.0099,0.0571509,
2,0,0,1,0,9044.14,0.05598,0.0556479,-3.70132,5,0.00516573,10,-0.000205971,-2.43164,0.512445,0.115134,-16.6103,0.0556479,
2,0,0,1,0,9044.18,0.0544836,0.0541494,-3.67744,5,0.0050271,10,-0.000199131,-2.43445,0.600873,0.0981904,-14.0742,0.0541494,
2,0,0,1,0,9044.21,0.0529881,0.0526532,-3.65363,5,0.00488926,10,-0.000192375,-2.43728,0.488451,0.12079,-17.2234,0.0526532,
2,0,0,1,0,9044.25,0.0514846,0.0511675,-3.62484,5,0.00475156,10,-0.000185474,-2.44071,0.445255,0.132508,-18.7604,0.0511675,
2,0,0,1,0,9044.29,0.049989,0.0497015,-3.59408,5,0.00461566,10,-0.000178631,-2.44441,0.438637,0.134508,-18.9145,0.0497015,
2,0,0,1,0,9044.33,0.0484926,0.0481911,-3.57276,5,0.00448084,10,-0.000172175,-2.447,0.453203,0.130185,-18.162,0.0481911,
2,0,0,1,0,9044.36,0.0469927,0.0466846,-3.55205,5,0.00434655,10,-0.000165826,-2.44952,0.467738,0.126139,-17.4648,0.0466846,
2,0,0,1,0,9044.4,0.0454927,0.0452468,-3.52438,5,0.00421323,10,-0.000159467,-2.45292,0.395542,0.149162,-20.4627,0.0452468,
2,0,0,1,0,9044.44,0.0439963,0.0436561,-3.49666,5,0.00408124,10,-0.00015265,-2.45635,0.377096,0.156459,-21.3098,0.0436561,
2,0,0,1,0,9044.48,0.0424999,0.0422038,-3.4629,5,0.00395053,10,-0.000146147,-2.46056,0.424769,0.138899,-18.7973,0.0422038,
2,0,0,1,0,9044.51,0.0409999,0.0407112,-3.43135,5,0.00382052,10,-0.000139694,-2.46454,0.398878,0.147915,-19.8507,0.0407112,
2,0,0,1,0,9044.55,0.0394999,0.0391999,-3.40556,5,0.00369144,10,-0.000133498,-2.46781,0.373012,0.158172,-21.0232,0.0391999,
2,0,0,1,0,9044.59,0.0380044,0.0376866,-3.37309,5,0.00356384,10,-0.00012712,-2.47197,0.353532,0.166887,-21.9864,0.03768656,
2,0,0,1,0,9044.63,0.0365089,0.0362017,-3.33653,5,0.00343762,10,-0.000120788,-2.47671,0.349883,0.168628,-21.9904,0.0362017,
2,0,0,1,0,9044.66,0.0350054,0.0347239,-3.30986,5,0.00331185,10,-0.000114931,-2.48019,0.370788,0.15912,-20.5441,0.0347239,
2,0,0,1,0,9044.7,0.033509,0.0331801,-3.28451,5,0.00318786,10,-0.00010898,-2.48353,0.360795,0.163528,-20.913,0.03318008,
2,0,0,1,0,9044.74,0.0320125,0.0316921,-3.24878,5,0.00306508,10,-0.000102961,-2.48828,0.333731,0.176789,-22.3808,0.0316921,
2,0,0,1,0,9044.78,0.0305126,0.0302156,-3.20899,5,0.00294325,10,-9.69614e-05,-2.49363,0.346329,0.170358,-21.3536,0.0302156,
2,0,0,1,0,9044.81,0.0290126,0.0287073,-3.17968,5,0.00282269,10,-9.12803e-05,-2.49762,0.349137,0.168988,-20.9985,0.0287073,
2,0,0,1,0,9044.85,0.0275162,0.0271965,-3.15152,5,0.00270351,10,-8.57104e-05,-2.50148,0.363509,0.162307,-19.9729,0.0271965,
2,0,0,1,0,9044.89,0.0260198,0.0257236,-3.11882,5,0.00258544,10,-8.02273e-05,-2.50601,0.336642,0.17526,-21.3598,0.0257236,
2,0,0,1,0,9044.93,0.0245198,0.0241953,-3.08319,5,0.00246825,10,-7.45989e-05,-2.511,0.347048,0.170005,-20.5072,0.0241953,
2,0,0,1,0,9044.96,0.0230198,0.0227078,-3.0641,5,0.00235234,10,-6.95789e-05,-2.5137,0.357221,0.165164,-19.7326,0.0227078,
2,0,0,1,0,9045,0.0215243,0.0212096,-3.03526,5,0.0022377,10,-6.43767e-05,-2.5178,0.393723,0.149852,-17.7193,0.0212096,
2,0,0,1,0,9045.04,0.0200288,0.0197295,-3.00834,5,0.002124,10,-5.9353e-05,-2.52167,0.384924,0.153277,-17.9562,0.01972948,
2,0,0,1,0,9045.08,0.0185253,0.018218,-2.97984,5,0.00201071,10,-5.42868e-05,-2.52581,0.386241,0.152754,-17.7793,0.018218,
2,0,0,1,0,9045.11,0.0170289,0.0167036,-2.95227,5,0.0018991,10,-4.93137e-05,-2.52984,0.46983,0.125577,-14.5195,0.01670363,
2,0,0,1,0,9045.15,0.0155325,0.0152361,-2.93023,5,0.0017883,10,-4.46453e-05,-2.5331,0.515947,0.114353,-13.108,0.0152361,
2,0,0,1,0,9045.19,0.0140325,0.0137069,-2.91495,5,0.00167784,10,-3.99548e-05,-2.53537,0.516236,0.114289,-12.9983,0.0137069,
2,0,0,1,0,9045.23,0.0125325,0.0122421,-2.89207,5,0.00156816,10,-3.54051e-05,-2.53879,0.456023,0.129379,-14.6194,0.0122421,
2,0,0,1,0,9045.26,0.0110361,0.010754,-2.8756,5,0.00145964,10,-3.09242e-05,-2.54127,0.540988,0.10906,-12.2427,0.010754,
2,0,0,1,0,9045.3,0.0095397,0.00921646,-2.86534,5,0.00135172,10,-2.64083e-05,-2.54282,0.828637,0.0712012,-7.93566,0.00921646,
2,0,0,1,0,9045.34,0.00803616,0.00769186,-2.84725,5,0.00124371,10,-2.19006e-05,-2.54558,0.755378,0.0781066,-8.67372,0.00769186,
2,0,0,1,0,9045.38,0.00654064,0.0062385,-2.83242,5,0.00113682,10,-1.767e-05,-2.54784,0.815274,0.0723683,-8.0069,0.0062385,
2,0,0,1,0,9045.41,0.00504513,0.00468953,-2.81548,5,0.0010304,10,-1.32033e-05,-2.55045,1.14017,0.0517468,-5.70608,0.00468953,
2,0,0,1,0,9045.45,0.00354515,0.00322609,-2.80789,5,0.000924051,10,-9.05851e-06,-2.55162,-2.43723,-0.0242079,2.6784,0.00322609,
2,0,0,1,0,9045.49,0.00204518,0.00169674,-2.8541,5,0.000817582,10,-4.84267e-06,-2.54453,3.088,0.0191062,-2.10194,0.00169674,
2,0,0,1,0,9045.53,0.000548773,0.000151519,-2.81931,5,0.00071086,10,-4.27178e-07,-2.54986, , , ,0.0001515186,
2,0,0,1,0,9045.53,0.000177222,-0.000231796,-2.81475,5,0.000684484,10,6.52447e-07,-2.55056, , , ,-0.0002317957,