File: Figure_codes/Fig_3-5/rawdata_trumpetplot_data/after 10th/20221101_1-115_003_TrumpetPlot_ParaChange_from10_every3_14_CV_C01_8.csv
mode,ox/red,error,control changes,counter inc.,time/s,control/V,Ewe/V,<I>/mA,cycle number,(Q-Qo)/C,I Range,P/W,log(|I|),Tafel slope mV/dec,alpha_eff,dI/d(E-IR),E-IR/V,
2,1,0,1,0,16960.2,2.44065e-05,-0.000115363,43.8511,9,0.0000000E+000,10,-5.05879e-06,-1.35802, , , ,-0.000115363,
2,1,0,1,0,16960.2,0.00332042,0.00295451,45.2977,9,0.000138774,10,0.000133833,-1.34392, , , ,0.00295451,
2,1,0,1,0,16960.2,0.0073156,0.0069427,46.4397,9,0.000322437,10,0.000322417,-1.33311, , , ,0.0069427,
2,1,0,1,0,16960.2,0.0113108,0.0109426,47.4078,9,0.000510257,10,0.000518762,-1.32415,0.466374,0.126508,232.724,0.0109426,
2,1,0,1,0,16960.2,0.0153059,0.0149424,48.2723,9,0.000701697,10,0.000721305,-1.3163,0.531706,0.110964,208.274,0.0149424,
2,1,0,1,0,16960.2,0.0193011,0.0189698,49.0249,9,0.000896404,10,0.000929994,-1.30958,0.60223,0.0979692,186.93,0.01896983,
2,1,0,1,0,16960.2,0.0233462,0.0230153,49.7872,9,0.00109417,10,0.00114587,-1.30288,0.66965,0.0881057,170.64,0.0230153,
2,1,0,1,0,16960.2,0.0273414,0.0269727,50.4043,9,0.00129462,10,0.00135954,-1.29753,0.72908,0.0809239,158.812,0.02697272,
2,1,0,1,0,16960.2,0.0313366,0.0309588,51.0054,9,0.00149752,10,0.00157906,-1.29238,0.815456,0.0723522,143.784,0.03095879,
2,1,0,1,0,16960.2,0.0353317,0.0349809,51.5676,9,0.00170273,10,0.00180388,-1.28762,0.876196,0.0673365,135.282,0.0349809,
2,1,0,1,0,16960.2,0.0393269,0.0389034,52.0716,9,0.00191008,10,0.00202576,-1.2834,0.943581,0.0625278,126.925,0.0389034,
2,1,0,1,0,16960.2,0.0433221,0.0429647,52.5677,9,0.00211943,10,0.00225856,-1.27928,1.00072,0.0589574,120.854,0.0429647,
2,1,0,1,0,16960.2,0.0473173,0.0469391,53.0337,9,0.00233068,10,0.00248935,-1.27545,1.02552,0.0575316,119.043,0.0469391,
2,1,0,1,0,16960.2,0.0513124,0.050905,53.4921,9,0.00254379,10,0.00272302,-1.27171,1.05859,0.0557347,116.351,0.050905,
2,1,0,1,0,16960.2,0.0553076,0.0549219,53.9785,9,0.00275877,10,0.0029646,-1.26778,1.0451,0.056454,118.935,0.0549219,
2,1,0,1,0,16960.2,0.0593028,0.0589281,54.4251,9,0.00297563,10,0.00320716,-1.2642,1.06616,0.055339,117.553,0.0589281,
2,1,0,1,0,16960.2,0.0633479,0.0629873,54.9424,9,0.00319435,10,0.00346067,-1.26009,1.10245,0.053517,114.647,0.0629873,
2,1,0,1,0,16960.2,0.0673431,0.0669585,55.3793,9,0.00341503,10,0.00370811,-1.25665,1.11526,0.0529024,114.238,0.0669585,
2,1,0,1,0,16960.2,0.0713382,0.0709446,55.8155,9,0.00363748,10,0.00395981,-1.25325,1.0989,0.05369,117.067,0.0709446,
2,1,0,1,0,16960.2,0.0753334,0.0748829,56.2477,9,0.00386164,10,0.00421199,-1.2499,1.04977,0.0562028,123.619,0.0748829,
2,1,0,1,0,16960.2,0.0793286,0.078921,56.8077,9,0.00408779,10,0.00448332,-1.24559,0.992633,0.0594379,131.911,0.078921,
2,1,0,1,0,16960.2,0.0833238,0.0829007,57.35,9,0.00431616,10,0.00475435,-1.24147,0.94396,0.0625027,139.924,0.0829007,
2,1,0,1,0,16960.2,0.0873189,0.0869769,57.9304,9,0.0045468,10,0.0050386,-1.23709,0.939737,0.0627835,141.971,0.0869769,
2,1,0,1,0,16960.2,0.0913141,0.090928,58.4928,9,0.0047797,10,0.00531863,-1.2329,0.920857,0.0640708,146.317,0.090928,
2,1,0,1,0,16960.2,0.0953093,0.0949978,59.0901,9,0.00501493,10,0.00561343,-1.22849,0.898936,0.0656332,151.468,0.0949978,
2,1,0,1,0,16960.2,0.0993045,0.0989383,59.6966,9,0.00525256,10,0.00590628,-1.22405,0.862274,0.0684238,159.593,0.0989383,
2,1,0,1,0,16960.3,0.103319,0.102975,60.3536,9,0.00549269,10,0.00621493,-1.2193,0.839927,0.0702442,165.589,0.102975,
2,1,0,1,0,16960.3,0.107345,0.106979,61.0545,9,0.00573562,10,0.00653157,-1.21428,0.823917,0.0716092,170.619,0.106979,
2,1,0,1,0,16960.3,0.11134,0.11097,61.7349,9,0.00598125,10,0.0068507,-1.20947,0.810706,0.0727761,175.374,0.11097,
2,1,0,1,0,16960.3,0.115335,0.114939,62.4266,9,0.00622965,10,0.00717523,-1.20463,0.810737,0.0727733,177.404,0.114939,
2,1,0,1,0,16960.3,0.11933,0.118983,63.161,9,0.0064809,10,0.00751509,-1.19955,0.799208,0.0738231,182.027,0.118983,
2,1,0,1,0,16960.3,0.123325,0.122986,63.8942,9,0.00673507,10,0.0078581,-1.19454,0.780169,0.0756247,188.682,0.122986,
2,1,0,1,0,16960.3,0.127321,0.126972,64.6478,9,0.00699225,10,0.00820847,-1.18945,0.765132,0.0771108,194.716,0.126972,
2,1,0,1,0,16960.3,0.131316,0.131,65.457,9,0.00725255,10,0.00857484,-1.18404,0.747376,0.0789429,201.777,0.131,
2,1,0,1,0,16960.3,0.135311,0.134948,66.2695,9,0.00751608,10,0.00894291,-1.17869,0.730963,0.0807154,208.86,0.134948,
2,1,0,1,0,16960.3,0.139306,0.138965,67.1184,9,0.00778295,10,0.00932714,-1.17316,0.707037,0.0834469,218.813,0.138965,
2,1,0,1,0,16960.3,0.143301,0.142958,67.9865,9,0.00805321,10,0.00971921,-1.16758,0.692765,0.0851659,226.237,0.142958,
2,1,0,1,0,16960.3,0.147346,0.14697,68.9516,9,0.00832723,10,0.0101338,-1.16146,0.682999,0.0863838,232.507,0.14697,
2,1,0,1,0,16960.3,0.151342,0.150977,69.8959,9,0.00860501,10,0.0105526,-1.15555,0.672812,0.0876916,239.175,0.150977,
2,1,0,1,0,16960.3,0.155337,0.15501,70.849,9,0.00888659,10,0.0109823,-1.14967,0.676385,0.0872284,241.236,0.15501,
2,1,0,1,0,16960.3,0.159332,0.158992,71.8216,9,0.00917204,10,0.0114191,-1.14375,0.68101,0.086636,242.823,0.158992,
2,1,0,1,0,16960.3,0.163327,0.162963,72.8097,9,0.00946138,10,0.0118653,-1.13781,0.6845,0.0861943,244.836,0.162963,
2,1,0,1,0,16960.3,0.167322,0.166943,73.7729,9,0.00975464,10,0.0123159,-1.1321,0.699226,0.084379,242.828,0.166943,
2,1,0,1,0,16960.3,0.171317,0.170956,74.753,9,0.0100518,10,0.0127795,-1.12637,0.728435,0.0809956,236.057,0.170956,
2,1,0,1,0,16960.3,0.175313,0.17493,75.6917,9,0.0103528,10,0.0132408,-1.12095,0.761458,0.0774829,228.565,0.17493,
2,1,0,1,0,16960.3,0.179308,0.178927,76.578,9,0.0106574,10,0.0137019,-1.1159,0.79769,0.0739636,220.85,0.178927,
2,1,0,1,0,16960.3,0.183303,0.182934,77.4279,9,0.0109656,10,0.0141642,-1.1111,0.863023,0.0683643,206.334,0.182934,
2,1,0,1,0,16960.3,0.187348,0.186986,78.2933,9,0.011277,10,0.0146397,-1.10628,0.9466,0.0623283,189.961,0.186986,
2,1,0,1,0,16960.3,0.191343,0.190974,79.0021,9,0.0115917,10,0.0150874,-1.10236,1.0804,0.0546094,167.874,0.190974,
2,1,0,1,0,16960.3,0.195338,0.194989,79.6291,9,0.0119091,10,0.0155268,-1.09893,1.33073,0.0443365,137.367,0.194989,
2,1,0,1,0,16960.3,0.199334,0.198996,80.1243,9,0.0122287,10,0.0159444,-1.09624,1.72848,0.034134,106.374,0.198996,
2,1,0,1,0,16960.4,0.203329,0.203007,80.494,9,0.01255,10,0.0163408,-1.09424,2.67672,0.0220419,68.9728,0.203007,
2,1,0,1,0,16960.4,0.207324,0.207001,80.707,9,0.0128724,10,0.0167064,-1.09309,6.95809,0.00847934,26.585,0.2070011,
2,1,0,1,0,16960.4,0.211319,0.210999,80.7334,9,0.0131954,10,0.0170346,-1.09295,-8.09489,-0.00728855,-22.8444,0.210999,
2,1,0,1,0,16960.4,0.215314,0.214946,80.5483,9,0.013518,10,0.0173135,-1.09394,-2.40604,-0.0245216,-76.6487,0.214946,
2,1,0,1,0,16960.4,0.219309,0.219014,80.1283,9,0.0138394,10,0.0175492,-1.09621,-1.3796,-0.0427659,-132.966,0.219014,
2,1,0,1,0,16960.4,0.223305,0.222994,79.4812,9,0.0141586,10,0.0177238,-1.09974,-0.971999,-0.0606997,-187.229,0.222994,
2,1,0,1,0,16960.4,0.227314,0.226967,78.6101,9,0.0144747,10,0.0178419,-1.10452,-0.738062,-0.0799391,-243.826,0.226967,
2,1,0,1,0,16960.4,0.231345,0.231002,77.542,9,0.014787,10,0.0179124,-1.11046,-0.594691,-0.0992111,-298.363,0.231002,
2,1,0,1,0,16960.4,0.23534,0.235066,76.2145,9,0.0150945,10,0.0179154,-1.11796,-0.498436,-0.11837,-349.969,0.235066,
2,1,0,1,0,16960.4,0.239335,0.239067,74.6857,9,0.0153962,10,0.0178549,-1.12676,-0.428894,-0.137563,-398.88,0.239067,
2,1,0,1,0,16960.4,0.24333,0.243072,72.974,9,0.0156914,10,0.0177379,-1.13683,-0.381044,-0.154838,-439.029,0.243072,
2,1,0,1,0,16960.4,0.247326,0.247039,71.1454,9,0.0159795,10,0.0175757,-1.14785,-0.346971,-0.170043,-470.322,0.247039,
2,1,0,1,0,16960.4,0.251321,0.251034,69.2038,9,0.01626,10,0.0173725,-1.15987,-0.324135,-0.182023,-490.047,0.251034,
2,1,0,1,0,16960.4,0.255316,0.255005,67.1897,9,0.0165326,10,0.0171337,-1.1727,-0.305574,-0.193079,-505.102,0.255005,
2,1,0,1,0,16960.4,0.259311,0.259054,65.1419,9,0.0167971,10,0.0168753,-1.18614,-0.294035,-0.200656,-509.328,0.259054,
2,1,0,1,0,16960.4,0.263306,0.263008,63.0796,9,0.0170533,10,0.0165904,-1.20011,-0.289174,-0.204029,-502.253,0.263008,
2,1,0,1,0,16960.4,0.267302,0.26705,61.0468,9,0.0173013,10,0.0163025,-1.21434,-0.2844,-0.207454,-494.601,0.26705,
2,1,0,1,0,16960.4,0.271347,0.271043,59.1343,9,0.0175415,10,0.0160279,-1.22816,-0.282477,-0.208867,-482.112,0.271043,
2,1,0,1,0,16960.4,0.275342,0.275092,57.2097,9,0.017774,10,0.0157379,-1.24253,-0.284745,-0.207203,-463.037,0.275092,
2,1,0,1,0,16960.4,0.279337,0.278985,55.3768,9,0.0179989,10,0.0154493,-1.25667,-0.285558,-0.206613,-447.42,0.278985,
2,1,0,1,0,16960.4,0.283332,0.283058,53.6345,9,0.0182168,10,0.0151817,-1.27056,-0.293516,-0.201011,-421.834,0.283058,
2,1,0,1,0,16960.4,0.287327,0.287003,51.9934,9,0.0184278,10,0.0149223,-1.28405,-0.303744,-0.194243,-395.296,0.287003,
2,1,0,1,0,16960.4,0.291322,0.291056,50.4753,9,0.0186326,10,0.0146912,-1.29692,-0.313196,-0.18838,-372.491,0.291056,
2,1,0,1,0,16960.4,0.295318,0.295011,49.0418,9,0.0188314,10,0.0144679,-1.30943,-0.323487,-0.182388,-353.754,0.2950106,
2,1,0,1,0,16960.4,0.299013,0.298697,47.8092,9,0.0190106,10,0.0142804,-1.32049,-0.122698,-0.480857,-882.446,0.298697,
2,1,0,0,0,16960.5,0.300012,0.299785,47.472,9,0.0190582,10,0.0142314,-1.32356,0.00282181,20.9085,33648.2,0.299785,
2,1,0,1,0,16960.5,0.298714,0.298699,43.7314,9,0.019116,10,0.0130625,-1.35921,0.0330578,1.78476,2540.27,0.298699,
2,1,0,1,0,16960.5,0.294718,0.294573,34.3056,9,0.0192703,10,0.0101055,-1.46464,0.0376236,1.56816,1990.24,0.294573,
2,1,0,1,0,16960.5,0.290723,0.290538,27.0837,9,0.019392,10,0.00786885,-1.56729,0.0369585,1.59638,1717.95,0.290538,
2,1,0,1,0,16960.5,0.286728,0.286532,21.0952,9,0.0194875,10,0.00604444,-1.67582,0.0340699,1.73174,1414.72,0.2865316,
2,1,0,1,0,16960.5,0.282733,0.282552,15.992,9,0.0195609,10,0.00451857,-1.7961,0.0294344,2.00445,1208.69,0.282552,
2,1,0,1,0,16960.5,0.278738,0.278516,11.5898,9,0.0196155,10,0.00322796,-1.93592,0.0234789,2.51289,1042.88,0.278516,
2,1,0,1,0,16960.5,0.274742,0.274542,7.74917,9,0.0196536,10,0.00212747,-2.11074,0.0150971,3.90804,908.185,0.274542,
2,1,0,1,0,16960.5,0.270747,0.270505,4.38099,9,0.0196774,10,0.00118508,-2.35843,0.0165259,3.57016,798.93,0.270505,
2,1,0,1,0,16960.5,0.266702,0.266455,1.37302,9,0.0196885,10,0.000365848,-2.86232,0.0477534,1.23551,704.085,0.266455,
2,0,0,1,0,16960.5,0.262707,0.26246,-1.23747,9,0.0196884,10,-0.000324786,-2.90747,-0.143809,-0.410265,626.386,0.26246,
2,0,0,1,0,16960.5,0.258712,0.258466,-3.56955,9,0.0196785,10,-0.000922606,-2.44739,-0.0216495,-2.72523,556.432,0.2584658,
2,0,0,1,0,16960.5,0.254717,0.254469,-5.6634,9,0.0196598,10,-0.00144116,-2.24692,-0.0183785,-3.21026,497.697,0.254469,
2,0,0,1,0,16960.5,0.250722,0.25045,-7.53252,9,0.0196331,10,-0.00188652,-2.12306,-0.033453,-1.76367,448.244,0.25045,
2,0,0,1,0,16960.5,0.246726,0.246438,-9.21193,9,0.0195994,10,-0.00227017,-2.03565,-0.0484139,-1.21866,404.057,0.246438,
2,0,0,1,0,16960.5,0.242731,0.242452,-10.7478,9,0.0195593,10,-0.00260583,-1.96868,-0.0639007,-0.923308,367.276,0.242452,
2,0,0,1,0,16960.5,0.238736,0.23843,-12.1439,9,0.0195134,10,-0.00289548,-1.91564,-0.08041,-0.73374,334.836,0.2384305,
2,0,0,1,0,16960.5,0.234741,0.234433,-13.4154,9,0.0194621,10,-0.003145,-1.8724,-0.0973003,-0.60637,309.355,0.234433,
2,0,0,1,0,16960.5,0.230746,0.230394,-14.584,9,0.019406,10,-0.00336007,-1.83612,-0.116126,-0.50807,283.314,0.230394,
2,0,0,1,0,16960.5,0.226701,0.226411,-15.7101,9,0.0193453,10,-0.00355694,-1.80382,-0.135953,-0.433974,261.039,0.226411,
2,0,0,1,0,16960.5,0.222705,0.22245,-16.6714,9,0.0192804,10,-0.00370855,-1.77803,-0.156252,-0.377596,242.354,0.22245,
2,0,0,1,0,16960.5,0.21871,0.218406,-17.599,9,0.0192118,10,-0.00384373,-1.75451,-0.180372,-0.327101,222.462,0.218406,
2,0,0,1,0,16960.5,0.214715,0.214401,-18.46,9,0.0191396,10,-0.00395784,-1.73377,-0.201712,-0.292496,208.859,0.214401,
2,0,0,1,0,16960.5,0.21072,0.210438,-19.2635,9,0.019064,10,-0.00405377,-1.71526,-0.224,-0.263393,196.579,0.210438,
2,0,0,1,0,16960.5,0.206725,0.206398,-20.0241,9,0.0189854,10,-0.00413293,-1.69845,-0.245563,-0.240264,186.722,0.206398,
2,0,0,1,0,16960.5,0.20273,0.202459,-20.7338,9,0.0189038,10,-0.00419774,-1.68332,-0.267788,-0.220324,177.595,0.202459,
2,0,0,1,0,16960.6,0.198734,0.198436,-21.4409,9,0.0188193,10,-0.00425465,-1.66876,-0.287002,-0.205573,171.38,0.198436,
2,0,0,1,0,16960.6,0.194739,0.19441,-22.11,9,0.0187322,10,-0.0042984,-1.65541,-0.305362,-0.193213,166.17,0.19441,
2,0,0,1,0,16960.6,0.190744,0.190451,-22.757,9,0.0186424,10,-0.0043341,-1.64289,-0.321282,-0.183639,162.818,0.190451,
2,0,0,1,0,16960.6,0.186735,0.186453,-23.3936,9,0.01855,10,-0.0043618,-1.6309,-0.33608,-0.175553,160.103,0.186453,
2,0,0,1,0,16960.6,0.182704,0.182442,-24.045,9,0.018455,10,-0.00438683,-1.61897,-0.348402,-0.169345,158.637,0.182442,
2,0,0,1,0,16960.6,0.178709,0.178399,-24.6734,9,0.0183575,10,-0.00440171,-1.60777,-0.360185,-0.163805,157.486,0.178399,
2,0,0,1,0,16960.6,0.174713,0.174458,-25.2941,9,0.0182575,10,-0.00441276,-1.59698,-0.368649,-0.160044,157.958,0.174458,
2,0,0,1,0,16960.6,0.170718,0.170414,-25.9195,9,0.018155,10,-0.00441704,-1.58637,-0.369773,-0.159557,161.532,0.170414,
2,0,0,1,0,16960.6,0.166723,0.166419,-26.576,9,0.0180499,10,-0.00442275,-1.57551,-0.36445,-0.161888,168.167,0.166419,
2,0,0,1,0,16960.6,0.162728,0.162446,-27.2503,9,0.0179422,10,-0.0044267,-1.56463,-0.354001,-0.166666,177.668,0.162446,
2,0,0,1,0,16960.6,0.158733,0.158451,-27.9859,9,0.0178317,10,-0.0044344,-1.55306,-0.342841,-0.172091,188.437,0.158451,
2,0,0,1,0,16960.6,0.154737,0.154429,-28.7594,9,0.0177182,10,-0.0044413,-1.54122,-0.327308,-0.180258,202.915,0.154429,
2,0,0,1,0,16960.6,0.150742,0.150411,-29.5924,9,0.0176014,10,-0.00445104,-1.52882,-0.307445,-0.191904,222.711,0.150411,
2,0,0,1,0,16960.6,0.146747,0.146437,-30.4987,9,0.0174811,10,-0.00446615,-1.51572,-0.289987,-0.203458,243.527,0.146437,
2,0,0,1,0,16960.6,0.142702,0.142406,-31.5593,9,0.0173569,10,-0.00449425,-1.50087,-0.272515,-0.216502,267.725,0.142406,
2,0,0,1,0,16960.6,0.138707,0.138401,-32.6627,9,0.0172284,10,-0.00452056,-1.48595,-0.256871,-0.229688,294.023,0.138401,
2,0,0,1,0,16960.6,0.134712,0.134414,-33.8753,9,0.0170952,10,-0.00455332,-1.47012,-0.245309,-0.240513,319.612,0.134414,
2,0,0,1,0,16960.6,0.130717,0.130396,-35.2151,9,0.0169569,10,-0.00459192,-1.45327,-0.231968,-0.254345,351.251,0.130396,
2,0,0,1,0,16960.6,0.126721,0.126419,-36.6692,9,0.0168131,10,-0.00463567,-1.4357,-0.221386,-0.266503,383.183,0.126419,
2,0,0,1,0,16960.6,0.122726,0.122476,-38.2564,9,0.0166631,10,-0.00468549,-1.4173,-0.214279,-0.275342,412.738,0.122476,
2,0,0,1,0,16960.6,0.118731,0.118491,-39.9768,9,0.0165065,10,-0.00473689,-1.39819,-0.210273,-0.280588,438.736,0.118491,
2,0,0,1,0,16960.6,0.114736,0.114463,-41.7915,9,0.0163428,10,-0.00478357,-1.37891,-0.209483,-0.281646,459.67,0.114463,
2,0,0,1,0,16960.6,0.110741,0.110472,-43.6654,9,0.0161717,10,-0.00482382,-1.35986,-0.209771,-0.281259,479.736,0.110472,
2,0,0,1,0,16960.6,0.106745,0.106506,-45.5972,9,0.015993,10,-0.00485639,-1.34106,-0.214861,-0.274596,488.609,0.106506,
2,0,0,1,0,16960.6,0.102703,0.102479,-47.6584,9,0.0158063,10,-0.00488398,-1.32186,-0.222271,-0.265442,492.042,0.102479,
2,0,0,1,0,16960.7,0.0987052,0.098442,-49.6194,9,0.0156116,10,-0.00488463,-1.30435,-0.232796,-0.253441,488.773,0.098442,
2,0,0,1,0,16960.7,0.09471,0.0944538,-51.5472,9,0.015409,10,-0.00486883,-1.28779,-0.248821,-0.237118,475.409,0.0944538,
2,0,0,1,0,16960.7,0.0907148,0.0904561,-53.4421,9,0.0151989,10,-0.00483417,-1.27212,-0.265109,-0.22255,462.181,0.0904561,
2,0,0,1,0,16960.7,0.0867197,0.0864541,-55.2767,9,0.0149812,10,-0.0047789,-1.25746,-0.283155,-0.208366,447.353,0.0864541,
2,0,0,1,0,16960.7,0.0827245,0.0825232,-56.9767,9,0.0147565,10,-0.0047019,-1.2443,-0.302693,-0.194917,432.117,0.0825232,
2,0,0,1,0,16960.7,0.0787293,0.078623,-58.6292,9,0.0145252,10,-0.0046096,-1.23189,-0.326095,-0.180929,413.053,0.078623,
2,0,0,1,0,16960.7,0.0747342,0.0745712,-60.3063,9,0.014287,10,-0.00449711,-1.21964,-0.351373,-0.167913,393.649,0.0745712,
2,0,0,1,0,16960.7,0.070739,0.0705639,-61.8402,9,0.0140426,10,-0.00436369,-1.20873,-0.38232,-0.154321,370.752,0.0705639,
2,0,0,1,0,16960.7,0.0667438,0.0665248,-63.2745,9,0.0137922,10,-0.00420932,-1.19877,-0.421139,-0.140096,344.639,0.0665248,
2,0,0,1,0,16960.7,0.0627403,0.0625568,-64.5857,9,0.0135363,10,-0.00404028,-1.18986,-0.467624,-0.12617,316.87,0.0625568,
2,0,0,1,0,16960.7,0.0587035,0.0585071,-65.8426,9,0.0132752,10,-0.00385226,-1.18149,-0.51963,-0.113542,290.567,0.0585071,
2,0,0,1,0,16960.7,0.0547083,0.0544977,-66.9311,9,0.0130095,10,-0.00364759,-1.17437,-0.583695,-0.10108,263.033,0.0544977,
2,0,0,1,0,16960.7,0.0507132,0.0505137,-67.9268,9,0.0127396,10,-0.00343123,-1.16796,-0.67186,-0.0878159,231.96,0.0505137,
2,0,0,1,0,16960.7,0.046718,0.046481,-68.8142,9,0.012466,10,-0.00319855,-1.16232,-0.775143,-0.0761149,203.64,0.046481,
2,0,0,1,0,16960.7,0.0427228,0.0424971,-69.5563,9,0.0121892,10,-0.00295594,-1.15766,-0.918617,-0.064227,173.736,0.0424971,
2,0,0,1,0,16960.7,0.0387276,0.0384357,-70.202,9,0.0119095,10,-0.00269826,-1.15365,-1.11659,-0.0528394,144.28,0.0384357,
2,0,0,1,0,16960.7,0.0347325,0.0344602,-70.7158,9,0.0116276,10,-0.00243688,-1.15048,-1.36593,-0.043194,118.856,0.03446025,
2,0,0,1,0,16960.7,0.0307373,0.0304328,-71.1296,9,0.0113439,10,-0.00216468,-1.14795,-1.72753,-0.0341529,94.573,0.0304328,
2,0,0,1,0,16960.7,0.0267421,0.0264192,-71.4672,9,0.0110586,10,-0.00188811,-1.14589,-2.08816,-0.0282545,78.6723,0.0264192,
2,0,0,1,0,16960.7,0.022747,0.0224777,-71.7112,9,0.0107722,10,-0.0016119,-1.14441,-2.7114,-0.02176,60.8176,0.0224777,
2,0,0,1,0,16960.7,0.0187018,0.0183877,-71.9803,9,0.0104848,10,-0.00132355,-1.14279,-3.8102,-0.0154847,43.3986,0.01838767,
2,0,0,1,0,16960.7,0.0147067,0.0144175,-72.1036,9,0.0101966,10,-0.00103955,-1.14204,-5.66461,-0.0104155,29.2449,0.0144175,
2,0,0,1,0,16960.7,0.0107115,0.0104219,-72.1615,9,0.00990805,10,-0.00075206,-1.14169,-14.259,-0.00413773,11.6386,0.0104219,
2,0,0,1,0,16960.7,0.00671632,0.00641886,-72.1808,9,0.00961935,10,-0.000463319,-1.14158,-62.3436,-0.000946368,2.66385,0.006418861,
2,0,0,1,0,16960.7,0.00272115,0.00239992,-72.1664,9,0.00933065,10,-0.000173194,-1.14167,20.1046,0.00293465,-8.25708,0.002399921,
2,0,0,1,0,16960.8,-0.00127403,-0.00164659,-72.1464,9,0.00904194,10,0.000118796,-1.14179,8.17086,0.00722078,-20.295,-0.00164659,
2,0,0,1,0,16960.8,-0.0052692,-0.00562948,-72.0289,9,0.0087536,10,0.000405485,-1.14249,5.15362,0.0114483,-32.1281,-0.00562948,
2,0,0,1,0,16960.8,-0.00926438,-0.009606,-71.8556,9,0.00846583,10,0.000690245,-1.14354,3.48479,0.0169307,-47.4207,-0.009606,
2,0,0,1,0,16960.8,-0.0132596,-0.0136122,-71.6519,9,0.00817881,10,0.000975342,-1.14477,3.03202,0.019459,-54.3696,-0.0136122,
2,0,0,1,0,16960.8,-0.0172547,-0.0175941,-71.3902,9,0.00789274,10,0.00125604,-1.14636,2.49727,0.0236258,-65.7661,-0.0175941,
2,0,0,1,0,16960.8,-0.0212915,-0.0216204,-71.1595,9,0.00760771,10,0.0015385,-1.14777,2.05342,0.0287326,-79.6285,-0.0216204,
2,0,0,1,0,16960.8,-0.025295,-0.0256553,-70.8001,9,0.00732381,10,0.0018164,-1.14997,1.76234,0.0334783,-92.304,-0.0256553,
2,0,0,1,0,16960.8,-0.0292902,-0.0296413,-70.3755,9,0.00704148,10,0.00208603,-1.15258,1.48064,0.0398476,-109.294,-0.0296413,
2,0,0,1,0,16960.8,-0.0332854,-0.0336412,-69.909,9,0.00676095,10,0.00235182,-1.15547,1.32993,0.0443631,-120.901,-0.0336412,
2,0,0,1,0,16960.8,-0.0372805,-0.0376485,-69.4078,9,0.00648237,10,0.0026131,-1.15859,1.22996,0.0479691,-129.795,-0.0376485,
2,0,0,1,0,16960.8,-0.0412757,-0.0416282,-68.869,9,0.00620586,10,0.00286689,-1.16198,1.14345,0.0515983,-138.538,-0.0416282,
2,0,0,1,0,16960.8,-0.0452709,-0.0456408,-68.2989,9,0.00593158,10,0.00311721,-1.16559,1.07627,0.054819,-145.988,-0.0456408,
2,0,0,1,0,16960.8,-0.0492661,-0.0496077,-67.697,9,0.00565964,10,0.0033583,-1.16943,1.04579,0.0564166,-148.994,-0.0496077,
2,0,0,1,0,16960.8,-0.0532612,-0.0535885,-67.0807,9,0.00539014,10,0.00359475,-1.1734,1.03097,0.0572277,-149.849,-0.0535885,
2,0,0,1,0,16960.8,-0.0572564,-0.0576223,-66.4859,9,0.00512306,10,0.00383107,-1.17727,1.06479,0.0554101,-143.883,-0.0576223,
2,0,0,1,0,16960.8,-0.0612544,-0.0616243,-65.9038,9,0.00485834,10,0.00406127,-1.18109,1.08733,0.0542614,-139.659,-0.06162427,
2,0,0,1,0,16960.8,-0.0652967,-0.0656549,-65.3881,9,0.00459572,10,0.00429305,-1.1845,1.10694,0.0533002,-136.018,-0.0656549,
2,0,0,1,0,16960.8,-0.0692919,-0.0696929,-64.8316,9,0.00433532,10,0.0045183,-1.18821,1.15276,0.0511813,-129.561,-0.06969291,
2,0,0,1,0,16960.8,-0.0732871,-0.0736641,-64.304,9,0.00407711,10,0.00473689,-1.19176,1.1994,0.0491913,-123.624,-0.0736641,
2,0,0,1,0,16960.8,-0.0772822,-0.0775982,-63.8342,9,0.00382088,10,0.00495342,-1.19495,1.29902,0.0454189,-113.304,-0.0775982,
2,0,0,1,0,16960.8,-0.0812774,-0.0816426,-63.4116,9,0.00356646,10,0.00517709,-1.19783,1.43661,0.041069,-101.761,-0.0816426,
2,0,0,1,0,16960.8,-0.0852726,-0.085687,-63.0194,9,0.00331365,10,0.00539994,-1.20053,1.60975,0.0366517,-90.2723,-0.085687,
2,0,0,1,0,16960.8,-0.0892678,-0.0896031,-62.682,9,0.00306227,10,0.0056165,-1.20286,1.81227,0.0325558,-79.7549,-0.0896031,
2,0,0,1,0,16960.8,-0.0932629,-0.0935849,-62.391,9,0.00281218,10,0.00583886,-1.20488,2.15043,0.0274364,-66.9055,-0.09358494,
2,0,0,1,0,16960.8,-0.0972581,-0.0976304,-62.1365,9,0.00256317,10,0.00606641,-1.20665,2.75891,0.0213853,-51.9652,-0.0976304,
2,0,0,1,0,16960.9,-0.101253,-0.101639,-61.9521,9,0.00231503,10,0.00629673,-1.20794,3.41376,0.017283,-41.8561,-0.101639,
2,0,0,1,0,16960.9,-0.105298,-0.105674,-61.8469,9,0.00206746,10,0.00653558,-1.20868,4.57922,0.0128843,-31.1186,-0.105674,
2,0,0,1,0,16960.9,-0.109294,-0.109613,-61.7201,9,0.00182034,10,0.00676533,-1.20957,6.08004,0.00970388,-23.3912,-0.109613,
2,0,0,1,0,16960.9,-0.113289,-0.113682,-61.637,9,0.00157367,10,0.00700701,-1.21016,8.54485,0.00690475,-16.6302,-0.113682,
2,0,0,1,0,16960.9,-0.117284,-0.117611,-61.5785,9,0.00132726,10,0.00724228,-1.21057,18.8303,0.00313325,-7.53983,-0.117611,
2,0,0,1,0,16960.9,-0.121279,-0.121605,-61.5819,9,0.00108094,10,0.00748868,-1.21055,-130.851,-0.000450894,1.08478,-0.121605,
2,0,0,1,0,16960.9,-0.125274,-0.125608,-61.5995,9,0.000834586,10,0.00773741,-1.21042,-14.951,-0.00394623,9.49532,-0.125608,
2,0,0,1,0,16960.9,-0.129269,-0.129643,-61.6543,9,0.000588058,10,0.00799306,-1.21004,-8.95053,-0.00659179,15.8751,-0.129643,
2,0,0,1,0,16960.9,-0.133265,-0.133597,-61.7303,9,0.000341294,10,0.008247,-1.2095,-5.84778,-0.0100893,24.3316,-0.133597,
2,0,0,1,0,16960.9,-0.13726,-0.137629,-61.8363,9,9.41725e-05,10,0.00851047,-1.20876,-4.2983,-0.0137263,33.1697,-0.137629,
2,0,0,1,0,16960.9,-0.141255,-0.1416,-61.9887,9,-0.000153491,10,0.0087776,-1.20769,-3.67213,-0.016067,38.9029,-0.1416,
2,0,0,1,0,16960.9,-0.145286,-0.14562,-62.1843,9,-0.000401776,10,0.00905529,-1.20632,-3.2621,-0.0180865,43.8948,-0.14562,
2,0,0,1,0,16960.9,-0.149295,-0.149636,-62.3543,9,-0.000650917,10,0.00933044,-1.20513,-3.11243,-0.0189563,46.1322,-0.149636,
2,0,0,1,0,16960.9,-0.15329,-0.153604,-62.5375,9,-0.000900708,10,0.00960601,-1.20386,-3.02491,-0.0195047,47.6249,-0.153604,
2,0,0,1,0,16960.9,-0.157286,-0.157615,-62.7275,9,-0.00115124,10,0.00988682,-1.20254,-2.80299,-0.021049,51.5602,-0.157615,
2,0,0,1,0,16960.9,-0.161281,-0.161641,-62.9473,9,-0.00140263,10,0.0101748,-1.20102,-2.68802,-0.0219493,53.9384,-0.161641,
2,0,0,1,0,16960.9,-0.165276,-0.165619,-63.1784,9,-0.00165489,10,0.0104636,-1.19943,-2.54703,-0.0231642,57.1197,-0.165619,
2,0,0,1,0,16960.9,-0.169271,-0.169573,-63.3989,9,-0.00190807,10,0.0107507,-1.19792,-2.46857,-0.0239004,59.1537,-0.169573,
2,0,0,1,0,16960.9,-0.173266,-0.173623,-63.6418,9,-0.00216218,10,0.0110497,-1.19626,-2.39602,-0.0246242,61.1817,-0.173623,
2,0,0,1,0,16960.9,-0.177261,-0.177594,-63.891,9,-0.00241726,10,0.0113466,-1.19456,-2.29986,-0.0256537,63.9859,-0.177594,
2,0,0,1,0,16960.9,-0.181257,-0.181545,-64.1527,9,-0.00267338,10,0.0116466,-1.19278,-2.13712,-0.0276073,69.1618,-0.181545,
2,0,0,1,0,16960.9,-0.185252,-0.1856,-64.4244,9,-0.00293056,10,0.0119571,-1.19095,-2.1209,-0.0278184,69.9712,-0.1856,
2,0,0,1,0,16960.9,-0.189297,-0.18957,-64.7447,9,-0.00318901,10,0.0122736,-1.1888,-2.08946,-0.028237,71.3253,-0.18957,
2,0,0,1,0,16960.9,-0.193292,-0.193622,-65.0125,9,-0.00344857,10,0.0125878,-1.187,-2.04606,-0.028836,73.1017,-0.193622,
2,0,0,1,0,16960.9,-0.197287,-0.197594,-65.2974,9,-0.0037092,10,0.0129024,-1.1851,-4.0041,-0.0147349,37.3499,-0.1975939,
2,0,0,0,0,16961,-0.199984,-0.200227,-65.4936,9,-0.00388576,10,0.0131136,-1.1838,0.0588081,1.00326,-2377.09,-0.200227,
2,0,0,0,1,16961,-0.199984,-0.20057,-65.1556,9,-0.0039249,10,0.0130683,-1.18605,-0.0350938,-1.68121,3716.34,-0.2005704,
2,0,0,1,1,16961,-0.196688,-0.197159,-56.6034,9,-0.0041103,10,0.0111599,-1.24716,-0.0583121,-1.0118,2094.75,-0.197159,
2,0,0,1,1,16961,-0.192693,-0.193151,-48.7853,9,-0.00431981,10,0.00942291,-1.31171,-0.0616445,-0.9571,1849.46,-0.193151,
2,0,0,1,1,16961,-0.188698,-0.18915,-42.2901,9,-0.00450105,10,0.00799918,-1.37376,-0.0633995,-0.930607,1557.76,-0.18915,
2,0,0,1,1,16961,-0.184653,-0.185131,-36.6009,9,-0.0046581,10,0.00677596,-1.43651,-0.0627142,-0.940775,1353.3,-0.185131,
2,0,0,1,1,16961,-0.180657,-0.181106,-31.5959,9,-0.00479385,10,0.0057222,-1.50037,-0.0602152,-0.979819,1208.67,-0.181106,
2,0,0,1,1,16961,-0.176662,-0.177094,-27.0558,9,-0.0049106,10,0.00479142,-1.56774,-0.0563853,-1.04637,1096.84,-0.177094,
2,0,0,1,1,16961,-0.172667,-0.173105,-22.897,9,-0.00500999,10,0.00396358,-1.64022,-0.0515415,-1.14471,1008.02,-0.173105,
2,0,0,1,1,16961,-0.168672,-0.169104,-19.0218,9,-0.00509336,10,0.00321666,-1.72075,-0.0455077,-1.29648,939.905,-0.169104,
2,0,0,1,1,16961,-0.164677,-0.165081,-15.4425,9,-0.00516187,10,0.00254926,-1.81128,-0.0390963,-1.50909,873.289,-0.165081,
2,0,0,1,1,16961,-0.160681,-0.161167,-12.0856,9,-0.00521651,10,0.0019478,-1.91773,-0.0316327,-1.86516,818.098,-0.1611668,
2,0,0,1,1,16961,-0.156686,-0.157102,-8.92207,9,-0.00525816,10,0.00140168,-2.04953,-0.0227847,-2.58946,775.247,-0.157102,
2,0,0,1,1,16961,-0.152691,-0.153112,-5.9388,9,-0.00528754,10,0.000909302,-2.2263,-0.0105499,-5.59248,730.7,-0.153112,
2,0,0,1,1,16961,-0.148696,-0.149139,-3.08341,9,-0.00530525,10,0.000459855,-2.51097,-0.0262548,-2.24721,695.848,-0.149139,
2,0,0,1,1,16961,-0.14467,-0.145126,-0.364584,9,-0.0053119,10,5.29106e-05,-3.4382,-0.14845,-0.397441,662.651,-0.145126,
2,1,0,1,1,16961,-0.140656,-0.141123,2.19707,9,-0.00530791,10,-0.000310057,-2.65816,0.0450508,1.30963,630.121,-0.141123,
2,1,0,1,1,16961,-0.136661,-0.137153,4.63653,9,-0.00529398,10,-0.000635914,-2.33381,0.0113706,5.18884,599.957,-0.137153,
2,1,0,1,1,16961,-0.132665,-0.133187,6.96809,9,-0.0052705,10,-0.000928058,-2.15689,0.0223669,2.63783,573.726,-0.133187,
2,1,0,1,1,16961,-0.12867,-0.129185,9.19939,9,-0.00523791,10,-0.00118842,-2.03624,0.034592,1.7056,550.247,-0.129185,
2,1,0,1,1,16961,-0.124675,-0.125174,11.3472,9,-0.00519658,10,-0.00142038,-1.94511,0.0463609,1.27263,528.784,-0.125174,
2,1,0,1,1,16961,-0.12068,-0.121181,13.425,9,-0.0051468,10,-0.00162686,-1.87209,0.0581935,1.01386,508.38,-0.121181,
2,1,0,1,1,16961,-0.116685,-0.117173,15.4362,9,-0.00508885,10,-0.0018087,-1.81146,0.0700373,0.842408,491.194,-0.117173,
2,1,0,1,1,16961,-0.112689,-0.113144,17.3542,9,-0.00502309,10,-0.00196353,-1.7606,0.0822879,0.716995,474.104,-0.113144,
2,1,0,1,1,16961,-0.108694,-0.109141,19.2227,9,-0.00494971,10,-0.00209798,-1.71619,0.0948829,0.621819,458.207,-0.1091411,
2,1,0,1,1,16961,-0.104699,-0.105144,21.028,9,-0.00486901,10,-0.00221098,-1.6772,0.107811,0.547256,442.164,-0.105144,
2,1,0,1,1,16961,-0.100654,-0.101092,22.8046,9,-0.00478108,10,-0.00230536,-1.64198,0.121468,0.485724,425.887,-0.101092,
2,1,0,1,1,16961.1,-0.0966588,-0.0970811,24.4567,9,-0.00468636,10,-0.00237428,-1.6116,0.13568,0.434845,410.163,-0.0970811,
2,1,0,1,1,16961.1,-0.0926636,-0.093094,26.0569,9,-0.00458516,10,-0.00242574,-1.58408,0.150566,0.391854,395.06,-0.093094,
2,1,0,1,1,16961.1,-0.0886685,-0.0891015,27.6082,9,-0.00447765,10,-0.00245993,-1.55896,0.165134,0.357285,382.003,-0.0891015,
2,1,0,1,1,16961.1,-0.0846733,-0.0851102,29.1182,9,-0.00436402,10,-0.00247826,-1.53583,0.180332,0.327174,369.104,-0.0851102,
2,1,0,1,1,16961.1,-0.0806781,-0.0810986,30.562,9,-0.0042445,10,-0.00247854,-1.51482,0.195843,0.301261,357.16,-0.0810986,
2,1,0,1,1,16961.1,-0.076683,-0.0771062,31.9581,9,-0.0041193,10,-0.00246416,-1.49542,0.211934,0.278388,345.484,-0.0771062,
2,1,0,1,1,16961.1,-0.0726878,-0.0730904,33.3267,9,-0.00398859,10,-0.00243587,-1.47721,0.22876,0.257912,333.839,-0.0730904,
2,1,0,1,1,16961.1,-0.0686926,-0.0691288,34.6396,9,-0.00385251,10,-0.00239459,-1.46043,0.242968,0.24283,327.137,-0.0691288,
2,1,0,1,1,16961.1,-0.0646974,-0.0650632,35.9153,9,-0.00371126,10,-0.00233676,-1.44472,0.261749,0.225406,314.824,-0.0650632,
2,1,0,1,1,16961.1,-0.0606523,-0.06104,37.2139,9,-0.00356491,10,-0.00227154,-1.42929,0.281719,0.209428,302.591,-0.06104,
2,1,0,1,1,16961.1,-0.0566571,-0.0570783,38.3677,9,-0.00341362,10,-0.00218997,-1.41603,0.298683,0.197534,294.616,-0.0570783,
2,1,0,1,1,16961.1,-0.052662,-0.0530307,39.5107,9,-0.00325775,10,-0.00209528,-1.40329,0.325258,0.181394,278.925,-0.0530307,
2,1,0,1,1,16961.1,-0.0486668,-0.0491146,40.614,9,-0.00309739,10,-0.00199474,-1.39132,0.345364,0.170834,269.934,-0.0491146,
2,1,0,1,1,16961.1,-0.0446716,-0.0450607,41.6709,9,-0.00293269,10,-0.00187772,-1.38017,0.368408,0.160148,259.676,-0.0450607,
2,1,0,1,1,16961.1,-0.0406764,-0.0410895,42.6837,9,-0.00276387,10,-0.00175385,-1.36974,0.395446,0.149199,247.877,-0.0410895,
2,1,0,1,1,16961.1,-0.0366813,-0.037078,43.6532,9,-0.00259109,10,-0.00161857,-1.35998,0.418944,0.14083,239.389,-0.037078,
2,1,0,1,1,16961.1,-0.0326861,-0.0330802,44.5886,9,-0.00241449,10,-0.001475,-1.35078,0.447507,0.131842,228.915,-0.0330802,
2,1,0,1,1,16961.1,-0.0286909,-0.0290804,45.4965,9,-0.00223422,10,-0.00132305,-1.34202,0.472479,0.124873,221.264,-0.0290804,
2,1,0,1,1,16961.1,-0.0246957,-0.0250922,46.3457,9,-0.00205044,10,-0.00116292,-1.33399,0.50102,0.11776,212.645,-0.0250922,
2,1,0,1,1,16961.1,-0.0206756,-0.0210605,47.1973,9,-0.00186328,10,-0.000994,-1.32608,0.540494,0.109159,200.597,-0.0210605,
2,1,0,1,1,16961.1,-0.0166554,-0.0170745,47.9921,9,-0.00167278,10,-0.000819439,-1.31883,0.573075,0.102953,192.334,-0.0170745,
2,1,0,1,1,16961.1,-0.0126603,-0.0130417,48.7138,9,-0.00147929,10,-0.000635311,-1.31235,0.622046,0.0948483,179.983,-0.0130417,
2,1,0,1,1,16961.1,-0.0086651,-0.00908216,49.425,9,-0.00128294,10,-0.000448886,-1.30605,0.67033,0.0880163,169.372,-0.00908216,
2,1,0,1,1,16961.1,-0.00466992,-0.00506534,50.0762,9,-0.00108386,10,-0.000253653,-1.30037, , , ,-0.00506534,
2,1,0,1,1,16961.1,-0.000974387,-0.0013974,50.6474,9,-0.000897483,10,-7.07744e-05,-1.29544, , , ,-0.001397395,
2,1,0,0,1,16961.2,-0.000175352,-0.000516197,50.7463,9,-0.000856938,10,-2.61951e-05,-1.2946, , , ,-0.000516197,