File: Figure_codes/Fig_3-5/rawdata_trumpetplot_data/after 10th/20221101_1-115_003_TrumpetPlot_ParaChange_from10_every3_11_CV_C01_2.csv
mode,ox/red,error,control changes,counter inc.,time/s,control/V,Ewe/V,<I>/mA,cycle number,(Q-Qo)/C,I Range,P/W,log(|I|),Tafel slope mV/dec,alpha_eff,dI/d(E-IR),E-IR/V,
2,1,0,1,0,5134.78,2.44065e-05,-0.000306236,10.1846,3,0.0000000E+000,10,-3.11889e-06,-1.99206, , , ,-0.000306236,
2,1,0,1,0,5134.79,0.00214129,0.00176156,11.6209,3,5.61732e-05,10,2.04709e-05,-1.93476, , , ,0.00176156,
2,1,0,1,0,5134.79,0.00454949,0.0042111,12.8766,3,0.000129984,10,5.42248e-05,-1.8902,0.0619564,0.952283,467.062,0.0042111,
2,1,0,1,0,5134.8,0.0069466,0.00659383,13.8349,3,0.000210292,10,9.12247e-05,-1.85903,0.0839299,0.702968,374.61,0.00659383,
2,1,0,1,0,5134.8,0.0093437,0.00898823,14.6468,3,0.000295875,10,0.000131649,-1.83426,0.105682,0.558277,316.392,0.00898823,
2,1,0,1,0,5134.81,0.0117408,0.0114113,15.3409,3,0.000385967,10,0.00017506,-1.81415,0.128964,0.457491,272.244,0.0114113,
2,1,0,1,0,5134.82,0.0141462,0.0138163,15.9686,3,0.000479999,10,0.000220626,-1.79673,0.152193,0.387665,240.219,0.0138163,
2,1,0,1,0,5134.82,0.0165433,0.0162085,16.4964,3,0.000577479,10,0.000267382,-1.78261,0.183408,0.321687,206.25,0.0162085,
2,1,0,1,0,5134.83,0.0189404,0.0185923,16.9574,3,0.000677928,10,0.000315278,-1.77064,0.206566,0.285623,188.724,0.0185923,
2,1,0,1,0,5134.83,0.0213486,0.0210334,17.4078,3,0.000781065,10,0.000366144,-1.75926,0.237507,0.248414,168.267,0.0210334,
2,1,0,1,0,5134.84,0.0237457,0.0234299,17.7882,3,0.000886716,10,0.000416776,-1.74987,0.26828,0.219919,152.289,0.0234299,
2,1,0,1,0,5134.85,0.0261429,0.0257893,18.1175,3,0.0009945,10,0.000467239,-1.7419,0.291357,0.202501,143.196,0.0257893,
2,1,0,1,0,5134.85,0.02854,0.0282431,18.461,3,0.00110428,10,0.000521396,-1.73374,0.311183,0.189599,136.471,0.0282431,
2,1,0,1,0,5134.86,0.0309482,0.0306057,18.7914,3,0.00121609,10,0.000575124,-1.72604,0.34276,0.172132,125.956,0.0306057,
2,1,0,1,0,5134.86,0.0333453,0.0329937,19.0658,3,0.00132968,10,0.000629051,-1.71974,0.36503,0.161631,120.263,0.0329937,
2,1,0,1,0,5134.87,0.0357424,0.0354305,19.3512,3,0.00144496,10,0.000685622,-1.71329,0.374301,0.157627,119.034,0.0354305,
2,1,0,1,0,5134.88,0.0381478,0.0377486,19.6479,3,0.00156199,10,0.000741681,-1.70668,0.383923,0.153676,117.752,0.0377486,
2,1,0,1,0,5134.88,0.0405449,0.0402002,19.9192,3,0.00168071,10,0.000800757,-1.70073,0.406231,0.145238,112.869,0.0402002,
2,1,0,1,0,5134.89,0.042942,0.0426063,20.1939,3,0.00180109,10,0.000860389,-1.69478,0.395578,0.149149,117.602,0.04260629,
2,1,0,1,0,5134.89,0.0453391,0.0450399,20.4682,3,0.00192308,10,0.000921887,-1.68892,0.406312,0.145208,116.028,0.0450399,
2,1,0,1,0,5134.9,0.0477473,0.0474555,20.7611,3,0.00204684,10,0.000985228,-1.68275,0.407367,0.144833,117.242,0.0474555,
2,1,0,1,0,5134.91,0.0501444,0.0498425,21.0259,3,0.00217224,10,0.00104798,-1.67725,0.406757,0.14505,119.131,0.0498425,
2,1,0,1,0,5134.91,0.0525415,0.0521849,21.3246,3,0.00229929,10,0.00111282,-1.67112,0.394563,0.149532,124.528,0.0521849,
2,1,0,1,0,5134.92,0.0549469,0.0546027,21.6407,3,0.00242821,10,0.00118164,-1.66473,0.398095,0.148206,125.039,0.0546027,
2,1,0,1,0,5134.92,0.057344,0.0569674,21.9213,3,0.00255894,10,0.0012488,-1.65913,0.400004,0.147499,126.259,0.0569674,
2,1,0,1,0,5134.93,0.0597411,0.0594106,22.2274,3,0.00269141,10,0.00132054,-1.65311,0.386226,0.15276,132.652,0.0594106,
2,1,0,1,0,5134.94,0.0621438,0.0618124,22.5683,3,0.00282582,10,0.001395,-1.6465,0.382568,0.154221,135.769,0.0618124,
2,1,0,1,0,5134.94,0.0645465,0.0642047,22.8867,3,0.00296224,10,0.00146943,-1.64042,0.385997,0.152851,136.497,0.0642047,
2,1,0,1,0,5134.95,0.0669436,0.0666022,23.2158,3,0.00310057,10,0.00154622,-1.63422,0.390742,0.150995,136.815,0.0666022,
2,1,0,1,0,5134.95,0.0693407,0.0689956,23.5494,3,0.00324089,10,0.00162481,-1.62802,0.386848,0.152515,140.17,0.0689956,
2,1,0,1,0,5134.96,0.0717489,0.0714027,23.8941,3,0.00338325,10,0.0017061,-1.62171,0.394586,0.149524,139.317,0.0714027,
2,1,0,1,0,5134.97,0.074146,0.0738003,24.2133,3,0.00352759,10,0.00178695,-1.61595,0.410937,0.143574,135.676,0.0738003,
2,1,0,1,0,5134.97,0.0765431,0.0761523,24.5315,3,0.00367384,10,0.00186813,-1.61028,0.390437,0.151113,144.848,0.07615225,
2,1,0,1,0,5134.98,0.0789485,0.0786081,24.901,3,0.00382213,10,0.00195742,-1.60378,0.384621,0.153398,149.073,0.0786081,
2,1,0,1,0,5134.98,0.0813456,0.0809888,25.2624,3,0.00397267,10,0.00204597,-1.59753,0.387606,0.152216,149.975,0.0809888,
2,1,0,1,0,5134.99,0.0837427,0.08338,25.603,3,0.00412532,10,0.00213478,-1.59171,0.388484,0.151873,151.849,0.08338,
2,1,0,1,0,5135,0.0861398,0.0857988,25.9829,3,0.00428014,10,0.0022293,-1.58531,0.399948,0.147519,149.5,0.0857988,
2,1,0,1,0,5135,0.088548,0.0881985,26.34,3,0.00443717,10,0.00232314,-1.57938,0.416943,0.141506,145.366,0.0881985,
2,1,0,1,0,5135.01,0.0909451,0.0905844,26.6799,3,0.00459624,10,0.00241678,-1.57382,0.425609,0.138625,144.407,0.0905844,
2,1,0,1,0,5135.01,0.0933422,0.0930435,27.0439,3,0.00475742,10,0.00251625,-1.56793,0.423411,0.139345,146.996,0.0930435,
2,1,0,1,0,5135.02,0.0957477,0.0954124,27.3979,3,0.00492076,10,0.0026141,-1.56228,0.432148,0.136527,145.909,0.0954124,
2,1,0,1,0,5135.03,0.0981447,0.0978323,27.7323,3,0.00508617,10,0.00271312,-1.55701,0.436091,0.135293,146.437,0.09783227,
2,1,0,1,0,5135.03,0.100542,0.100223,28.0859,3,0.00525366,10,0.00281486,-1.55151,0.440786,0.133852,146.724,0.100223,
2,1,0,1,0,5135.04,0.102939,0.102611,28.4341,3,0.00542326,10,0.00291766,-1.54616,0.440495,0.13394,148.638,0.1026115,
2,1,0,1,0,5135.04,0.105347,0.105028,28.7937,3,0.00559501,10,0.00302415,-1.5407,0.454155,0.129912,145.93,0.105028,
2,1,0,1,0,5135.05,0.107744,0.107424,29.1374,3,0.00576887,10,0.00313005,-1.53555,0.450297,0.131025,149.091,0.107424,
2,1,0,1,0,5135.06,0.110141,0.109812,29.5075,3,0.00594483,10,0.00324027,-1.53007,0.441614,0.133601,153.909,0.109812,
2,1,0,1,0,5135.06,0.11255,0.112219,29.8857,3,0.00612306,10,0.00335373,-1.52454,0.436933,0.135032,157.5,0.112219,
2,1,0,1,0,5135.07,0.114947,0.114557,30.2606,3,0.00630355,10,0.00346657,-1.51912,0.428314,0.137749,162.807,0.114557,
2,1,0,1,0,5135.07,0.117344,0.117009,30.6702,3,0.00648634,10,0.00358867,-1.51328,0.412712,0.142957,171.208,0.117009,
2,1,0,1,0,5135.08,0.119744,0.119405,31.0945,3,0.00667166,10,0.00371285,-1.50732,0.398196,0.148168,179.798,0.119405,
2,1,0,1,0,5135.09,0.122146,0.121853,31.5201,3,0.00685954,10,0.00384081,-1.50141,0.390224,0.151195,186.106,0.121853,
2,1,0,1,0,5135.09,0.124543,0.124216,31.9813,3,0.00705007,10,0.0039726,-1.4951,0.375683,0.157047,196.072,0.124216,
2,1,0,1,0,5135.1,0.126941,0.126621,32.4575,3,0.00724344,10,0.00410981,-1.48869,0.362977,0.162545,205.964,0.126621,
2,1,0,1,0,5135.1,0.129349,0.128985,32.9526,3,0.00743972,10,0.00425039,-1.48211,0.359305,0.164206,211.284,0.128985,
2,1,0,1,0,5135.11,0.131746,0.131376,33.4657,3,0.00763906,10,0.00439659,-1.4754,0.358094,0.164761,215.274,0.131376,
2,1,0,1,0,5135.12,0.134143,0.133808,34.0004,3,0.00784152,10,0.00454951,-1.46852,0.352685,0.167288,222.026,0.1338076,
2,1,0,1,0,5135.12,0.13654,0.136183,34.5296,3,0.00804716,10,0.00470235,-1.46181,0.358793,0.16444,221.6,0.136183,
2,1,0,1,0,5135.13,0.138945,0.138587,35.0766,3,0.00825606,10,0.00486115,-1.45498,0.359648,0.164049,224.534,0.138587,
2,1,0,1,0,5135.13,0.141343,0.141024,35.6152,3,0.00846816,10,0.00502258,-1.44836,0.364406,0.161907,225.043,0.141024,
2,1,0,1,0,5135.14,0.14374,0.14341,36.1658,3,0.00868356,10,0.00518653,-1.4417,0.371769,0.158701,223.848,0.14341,
2,1,0,1,0,5135.15,0.146148,0.145847,36.694,3,0.00890222,10,0.00535172,-1.43541,0.386455,0.15267,218.579,0.145847,
2,1,0,1,0,5135.15,0.148545,0.148225,37.2159,3,0.00912397,10,0.00551633,-1.42927,0.399306,0.147756,214.595,0.148225,
2,1,0,1,0,5135.16,0.150942,0.150624,37.7356,3,0.00934891,10,0.00568387,-1.42325,0.408797,0.144326,212.401,0.150624,
2,1,0,1,0,5135.16,0.153345,0.153036,38.2195,3,0.00957685,10,0.00584896,-1.41771,0.430395,0.137083,204.459,0.153036,
2,1,0,1,0,5135.17,0.155747,0.155426,38.7014,3,0.00980771,10,0.0060152,-1.41227,0.454813,0.129724,195.84,0.1554261,
2,1,0,1,0,5135.18,0.158144,0.157811,39.1739,3,0.0100414,10,0.00618207,-1.407,0.48665,0.121237,185.201,0.157811,
2,1,0,1,0,5135.18,0.160542,0.160192,39.5966,3,0.0102777,10,0.00634304,-1.40234,0.527327,0.111885,172.759,0.1601916,
2,1,0,1,0,5135.19,0.162947,0.162615,39.997,3,0.0105166,10,0.0065041,-1.39797,0.57659,0.102326,159.579,0.1626146,
2,1,0,1,0,5135.19,0.165344,0.165042,40.3635,3,0.0107577,10,0.00666167,-1.39401,0.671621,0.0878472,138.221,0.165042,
2,1,0,1,0,5135.2,0.167741,0.167414,40.6791,3,0.0110009,10,0.00681025,-1.39063,0.78123,0.0755219,119.736,0.167414,
2,1,0,1,0,5135.21,0.170149,0.169847,40.9429,3,0.0112458,10,0.00695402,-1.38782,1.07785,0.0547386,87.284,0.169847,
2,1,0,1,0,5135.21,0.172547,0.172243,41.0973,3,0.011492,10,0.00707873,-1.38619,1.80959,0.032604,52.1927,0.1722431,
2,1,0,1,0,5135.22,0.174944,0.174589,41.1835,3,0.0117389,10,0.00719017,-1.38528,19.9875,0.00295185,4.73133,0.174589,
2,1,0,1,0,5135.22,0.177341,0.177029,41.1309,3,0.0119859,10,0.00728136,-1.38583,-1.92073,-0.0307174,-49.1633,0.177029,
2,1,0,1,0,5135.23,0.179746,0.179432,40.9432,3,0.0122322,10,0.00734651,-1.38782,-0.879232,-0.067104,-106.891,0.1794316,
2,1,0,1,0,5135.24,0.182143,0.181801,40.6189,3,0.0124769,10,0.00738454,-1.39127,-0.51761,-0.113985,-179.927,0.181801,
2,1,0,1,0,5135.24,0.18454,0.184259,40.0922,3,0.0127191,10,0.00738733,-1.39694,-0.357797,-0.164898,-256.958,0.184259,
2,1,0,1,0,5135.25,0.186949,0.186635,39.4039,3,0.0129575,10,0.00735415,-1.40446,-0.279238,-0.211289,-323.529,0.186635,
2,1,0,1,0,5135.25,0.189346,0.189058,38.5181,3,0.0131913,10,0.00728216,-1.41433,-0.220261,-0.267865,-400.858,0.189058,
2,1,0,1,0,5135.26,0.191743,0.191446,37.4674,3,0.0134192,10,0.00717298,-1.42635,-0.183568,-0.321407,-468.141,0.191446,
2,1,0,1,0,5135.27,0.19414,0.193825,36.26,3,0.0136403,10,0.00702808,-1.44057,-0.161419,-0.365509,-515.51,0.1938245,
2,1,0,1,0,5135.27,0.196548,0.196259,34.9594,3,0.0138539,10,0.00686111,-1.45644,-0.142099,-0.415202,-564.587,0.1962592,
2,1,0,1,0,5135.28,0.198945,0.198635,33.5573,3,0.0140593,10,0.00666564,-1.47421,-0.129997,-0.453857,-593.078,0.198635,
2,1,0,1,0,5135.28,0.201342,0.201039,32.1153,3,0.0142562,10,0.00645644,-1.49329,-0.123614,-0.477291,-597.586,0.201039,
2,1,0,1,0,5135.29,0.203748,0.203445,30.6835,3,0.0144445,10,0.00624239,-1.5131,-0.120981,-0.48768,-583.994,0.2034445,
2,1,0,1,0,5135.3,0.206145,0.205831,29.2854,3,0.0146242,10,0.00602786,-1.53335,-0.118616,-0.497403,-569.071,0.205831,
2,1,0,1,0,5135.3,0.208542,0.208253,27.966,3,0.0147958,10,0.00582401,-1.55337,-0.121526,-0.485493,-530.646,0.208253,
2,1,0,1,0,5135.31,0.210939,0.210661,26.7045,3,0.0149597,10,0.00562559,-1.57342,-0.124781,-0.472827,-494.221,0.210661,
2,1,0,1,0,5135.31,0.213347,0.213054,25.5809,3,0.0151164,10,0.00545012,-1.59208,-0.130235,-0.453028,-453.124,0.2130539,
2,1,0,1,0,5135.32,0.215744,0.215419,24.538,3,0.0152666,10,0.00528594,-1.61016,-0.134812,-0.437646,-420.048,0.215419,
2,1,0,1,0,5135.33,0.218141,0.217833,23.5814,3,0.0154108,10,0.00513681,-1.62743,-0.147434,-0.40018,-369.744,0.217833,
2,1,0,1,0,5135.33,0.220547,0.220225,22.7647,3,0.0155497,10,0.00501337,-1.64274,-0.159402,-0.370132,-329.46,0.220225,
2,1,0,1,0,5135.34,0.222944,0.222723,22.0095,3,0.0156839,10,0.00490201,-1.65739,-0.171599,-0.343826,-296.003,0.222723,
2,1,0,1,0,5135.34,0.225341,0.22501,21.3305,3,0.0158138,10,0.00479957,-1.671,-0.186834,-0.315788,-263.849,0.22501,
2,1,0,1,0,5135.35,0.227744,0.227436,20.7546,3,0.01594,10,0.00472034,-1.68289,-0.208446,-0.283047,-229.829,0.2274362,
2,1,0,1,0,5135.36,0.230146,0.229831,20.2378,3,0.0160629,10,0.00465127,-1.69384,-0.227402,-0.259452,-205.304,0.229831,
2,1,0,1,0,5135.36,0.232543,0.232223,19.7693,3,0.0161829,10,0.00459089,-1.70401,-0.242859,-0.242939,-187.847,0.232223,
2,1,0,1,0,5135.37,0.234941,0.234606,19.3606,3,0.0163002,10,0.0045421,-1.71308,-0.277486,-0.212623,-161.014,0.234606,
2,1,0,1,0,5135.37,0.237349,0.237041,19.0065,3,0.0164153,10,0.00450534,-1.7211,-0.308041,-0.191533,-142.233,0.237041,
2,1,0,1,0,5135.38,0.239746,0.239441,18.6777,3,0.0165282,10,0.00447221,-1.72868,-0.318567,-0.185204,-135.102,0.239441,
2,1,0,1,0,5135.39,0.242143,0.241787,18.3582,3,0.0166393,10,0.00443877,-1.73617,-0.36329,-0.162405,-116.642,0.241787,
2,1,0,1,0,5135.39,0.244548,0.244233,18.1046,3,0.0167486,10,0.00442174,-1.74221,-0.396161,-0.148929,-105.349,0.244233,
2,1,0,1,0,5135.4,0.246946,0.246628,17.8675,3,0.0168566,10,0.00440664,-1.74794,-0.423318,-0.139375,-97.1673,0.246628,
2,1,0,1,0,5135.4,0.249343,0.249025,17.6251,3,0.016963,10,0.00438909,-1.75387,-0.441746,-0.133561,-92.057,0.249025,
2,1,0,1,0,5135.41,0.25174,0.251391,17.4152,3,0.0170681,10,0.00437803,-1.75907,-0.492371,-0.119828,-81.5546,0.251391,
2,1,0,1,0,5135.42,0.254148,0.253833,17.2471,3,0.0171721,10,0.00437789,-1.76328,-0.520961,-0.113252,-76.2097,0.253833,
2,1,0,1,0,5135.42,0.256545,0.25628,17.0515,3,0.017275,10,0.00436995,-1.76824,-0.517795,-0.113945,-75.9231,0.25628,
2,1,0,1,0,5135.43,0.258942,0.258626,16.8899,3,0.0173768,10,0.00436817,-1.77237,-0.587719,-0.100388,-66.2495,0.258626,
2,1,0,1,0,5135.43,0.261348,0.261065,16.7397,3,0.0174777,10,0.00437015,-1.77625,-0.620447,-0.0950927,-62.1279,0.261065,
2,1,0,1,0,5135.44,0.263745,0.263436,16.5988,3,0.0175777,10,0.00437271,-1.77992,-0.629435,-0.0937349,-60.7215,0.263436,
2,1,0,1,0,5135.45,0.266142,0.265843,16.4492,3,0.0176768,10,0.00437291,-1.78386,-0.68419,-0.0862334,-55.3973,0.265843,
2,1,0,1,0,5135.45,0.268539,0.2682,16.3078,3,0.017775,10,0.00437375,-1.7876,-0.761668,-0.0774616,-49.3657,0.2682,
2,1,0,1,0,5135.46,0.270947,0.270659,16.2121,3,0.0178726,10,0.00438796,-1.79016,-0.751811,-0.0784772,-49.5926,0.270659,
2,1,0,1,0,5135.46,0.273344,0.273012,16.0798,3,0.0179695,10,0.00438998,-1.79372,-0.733489,-0.0804375,-50.5025,0.273012,
2,1,0,1,0,5135.47,0.275741,0.275419,15.9571,3,0.0180656,10,0.00439487,-1.79705,-0.82762,-0.0712887,-44.4604,0.275419,
2,1,0,1,0,5135.48,0.278149,0.277872,15.8662,3,0.018161,10,0.00440879,-1.79953,-0.846539,-0.0696956,-43.1238,0.277872,
2,1,0,1,0,5135.48,0.280547,0.28022,15.7527,3,0.0182559,10,0.00441423,-1.80264,-0.818898,-0.0720481,-44.3009,0.28022,
2,1,0,1,0,5135.49,0.282944,0.282637,15.6452,3,0.0183501,10,0.0044219,-1.80562,-0.878112,-0.0671896,-41.0805,0.282637,
2,1,0,1,0,5135.49,0.285344,0.285015,15.5591,3,0.0184437,10,0.00443458,-1.80802,-0.88758,-0.0664729,-40.3386,0.285015,
2,1,0,1,0,5135.5,0.287746,0.287424,15.4651,3,0.0185368,10,0.00444505,-1.81065,-0.911978,-0.0646946,-39.0326,0.287424,
2,1,0,1,0,5135.51,0.290143,0.289871,15.3629,3,0.0186292,10,0.00445325,-1.81353,-0.885622,-0.0666199,-39.9609,0.2898708,
2,1,0,1,0,5135.51,0.29254,0.292256,15.2713,3,0.0187211,10,0.00446312,-1.81612,-1.01155,-0.0583265,-34.7918,0.2922557,
2,1,0,1,0,5135.52,0.294949,0.294632,15.2019,3,0.0188125,10,0.00447898,-1.8181,-1.01817,-0.0579473,-34.3513,0.294632,
2,1,0,1,0,5135.52,0.297346,0.297061,15.1106,3,0.0189035,10,0.00448879,-1.82072,-1.03725,-0.0568812,-33.5709,0.297061,
2,1,0,1,0,5135.53,0.299621,0.299331,15.0166,3,0.0189893,10,0.00449495,-1.82343,-0.0665326,-0.886783,-497.578,0.299331,
2,1,0,1,0,5135.53,0.299962,0.299689,14.897,3,0.0190073,10,0.00446446,-1.8269,0.00712919,8.27583,3718.88,0.2996892,
2,1,0,1,0,5135.54,0.297903,0.297657,10.0281,3,0.0190691,10,0.00298494,-1.99878,0.0112178,5.25948,1880.76,0.297657,
2,1,0,1,0,5135.54,0.295506,0.295292,6.12771,3,0.0191166,10,0.00180946,-2.2127,0.00965121,6.11322,1422.54,0.2952916,
2,1,0,1,0,5135.55,0.293101,0.292799,3.27271,3,0.0191441,10,0.000958243,-2.48509,0.00579231,10.1859,1041.5,0.292799,
2,1,0,1,0,5135.55,0.290704,0.290424,1.15687,3,0.0191569,10,0.000335985,-2.93671,0.0101481,5.81388,794.482,0.290424,
2,0,0,1,0,5135.56,0.288307,0.288059,-0.485465,3,0.0191585,10,-0.000139842,-3.31384,-0.0789746,-0.747075,616.183,0.288059,
2,0,0,1,0,5135.57,0.28591,0.285637,-1.77915,3,0.0191514,10,-0.000508192,-2.74979,-0.0025412,-23.2174,490.553,0.2856366,
2,0,0,1,0,5135.57,0.283501,0.283232,-2.82656,3,0.0191374,10,-0.00080057,-2.54874,-0.0142559,-4.13863,391.627,0.283232,
2,0,0,1,0,5135.58,0.281104,0.280819,-3.65266,3,0.0191178,10,-0.00102574,-2.43739,-0.0247531,-2.38354,318.95,0.280819,
2,0,0,1,0,5135.58,0.278707,0.278419,-4.34915,3,0.0190937,10,-0.00121089,-2.3616,-0.0362885,-1.62586,265.947,0.278419,
2,0,0,1,0,5135.59,0.276302,0.27601,-4.93373,3,0.0190657,10,-0.00136176,-2.30682,-0.0496656,-1.18795,222.662,0.27601,
2,0,0,1,0,5135.6,0.273905,0.273614,-5.4092,3,0.0190346,10,-0.00148003,-2.26687,-0.0644682,-0.915179,190.724,0.273614,
2,0,0,1,0,5135.6,0.271508,0.271194,-5.83831,3,0.0190008,10,-0.00158331,-2.23371,-0.0788457,-0.748297,169.057,0.271194,
2,0,0,1,0,5135.61,0.269105,0.268808,-6.21594,3,0.0189646,10,-0.00167089,-2.20649,-0.0971967,-0.607017,145.787,0.268808,
2,0,0,1,0,5135.61,0.266702,0.266409,-6.5318,3,0.0189263,10,-0.00174013,-2.18497,-0.114284,-0.516256,130.981,0.266409,
2,0,0,1,0,5135.62,0.264305,0.26397,-6.83158,3,0.0188861,10,-0.00180333,-2.16548,-0.136043,-0.433685,115.045,0.26397,
2,0,0,1,0,5135.63,0.261908,0.261621,-7.10624,3,0.0188443,10,-0.00185914,-2.14836,-0.151478,-0.389496,107.402,0.261621,
2,0,0,1,0,5135.63,0.2595,0.259188,-7.34532,3,0.0188009,10,-0.00190382,-2.13399,-0.172869,-0.341299,97.503,0.259188,
2,0,0,1,0,5135.64,0.257103,0.256798,-7.57132,3,0.0187562,10,-0.0019443,-2.12083,-0.196091,-0.30088,88.6936,0.256798,
2,0,0,1,0,5135.64,0.254706,0.254412,-7.77485,3,0.0187101,10,-0.00197801,-2.10931,-0.20853,-0.282932,85.7236,0.254412,
2,0,0,1,0,5135.65,0.2523,0.251969,-7.98152,3,0.0186628,10,-0.00201109,-2.09791,-0.233555,-0.252617,78.5022,0.251969,
2,0,0,1,0,5135.66,0.249903,0.249594,-8.15923,3,0.0186144,10,-0.0020365,-2.08835,-0.250535,-0.235496,74.8633,0.249594,
2,0,0,1,0,5135.66,0.247506,0.247198,-8.33219,3,0.0185649,10,-0.0020597,-2.07924,-0.262302,-0.224931,73.1717,0.247198,
2,0,0,1,0,5135.67,0.245109,0.244776,-8.51074,3,0.0185144,10,-0.00208322,-2.07003,-0.281275,-0.209759,69.5376,0.244776,
2,0,0,1,0,5135.67,0.242701,0.242389,-8.67819,3,0.0184628,10,-0.0021035,-2.06157,-0.300842,-0.196116,66.2719,0.242389,
2,0,0,1,0,5135.68,0.240304,0.240007,-8.816,3,0.0184103,10,-0.0021159,-2.05473,-0.324111,-0.182037,62.6983,0.240007,
2,0,0,1,0,5135.69,0.237906,0.237604,-8.98002,3,0.0183569,10,-0.00213369,-2.04672,-0.32551,-0.181254,63.4291,0.237604,
2,0,0,1,0,5135.69,0.235501,0.235162,-9.1249,3,0.0183026,10,-0.00214583,-2.03977,-0.350995,-0.168093,59.7695,0.235162,
2,0,0,1,0,5135.7,0.233104,0.232764,-9.26069,3,0.0182474,10,-0.00215555,-2.03336,-0.375596,-0.157084,56.7893,0.232764,
2,0,0,1,0,5135.7,0.230707,0.230434,-9.41051,3,0.0181914,10,-0.0021685,-2.02639,-0.362256,-0.162868,59.758,0.230434,
2,0,0,1,0,5135.71,0.22831,0.227994,-9.53857,3,0.0181345,10,-0.00217474,-2.02052,-0.391872,-0.150559,56.0516,0.227994,
2,0,0,1,0,5135.72,0.225902,0.225564,-9.67471,3,0.0180768,10,-0.00218226,-2.01436,-0.39986,-0.147552,55.7136,0.225564,
2,0,0,1,0,5135.72,0.223504,0.223185,-9.81294,3,0.0180184,10,-0.0021901,-2.0082,-0.41378,-0.142588,54.5687,0.223185,
2,0,0,1,0,5135.73,0.221107,0.220793,-9.93351,3,0.0179591,10,-0.00219325,-2.0029,-0.415881,-0.141868,55.0347,0.220793,
2,0,0,1,0,5135.73,0.218699,0.218391,-10.0786,3,0.0178991,10,-0.00220107,-1.9966,-0.424059,-0.139132,54.6654,0.218391,
2,0,0,1,0,5135.74,0.216302,0.215997,-10.1949,3,0.0178382,10,-0.00220207,-1.99162,-0.449225,-0.131337,52.2961,0.215997,
2,0,0,1,0,5135.75,0.213905,0.21362,-10.3315,3,0.0177766,10,-0.00220702,-1.98584,-0.440898,-0.133818,53.9636,0.21362,
2,0,0,1,0,5135.75,0.211505,0.211182,-10.4543,3,0.0177143,10,-0.00220777,-1.9807,-0.46256,-0.127551,52.0218,0.211182,
2,0,0,1,0,5135.76,0.209102,0.20882,-10.5788,3,0.0176511,10,-0.00220907,-1.97556,-0.440464,-0.13395,55.3945,0.20882,
2,0,0,1,0,5135.76,0.206705,0.206403,-10.7268,3,0.0175872,10,-0.00221405,-1.96953,-0.442065,-0.133465,55.8032,0.206403,
2,0,0,1,0,5135.77,0.204308,0.20399,-10.8542,3,0.0175224,10,-0.00221414,-1.9644,-0.44598,-0.132293,56.0167,0.20399,
2,0,0,1,0,5135.78,0.2019,0.201579,-10.9896,3,0.0174569,10,-0.00221528,-1.95902,-0.455256,-0.129597,55.6092,0.201579,
2,0,0,1,0,5135.78,0.199503,0.19921,-11.1236,3,0.0173906,10,-0.00221593,-1.95375,-0.442846,-0.133229,57.8124,0.1992103,
2,0,0,1,0,5135.79,0.197106,0.196834,-11.256,3,0.0173234,10,-0.00221555,-1.94862,-0.440026,-0.134083,58.9297,0.196834,
2,0,0,1,0,5135.79,0.194709,0.194402,-11.3885,3,0.0172555,10,-0.00221395,-1.94353,-0.430273,-0.137122,61.0697,0.1944024,
2,0,0,1,0,5135.8,0.192303,0.191993,-11.5527,3,0.0171866,10,-0.00221803,-1.93732,-0.421059,-0.140123,63.1292,0.191993,
2,0,0,1,0,5135.81,0.189906,0.189596,-11.7037,3,0.0171168,10,-0.00221897,-1.93168,-0.427524,-0.138004,63.0448,0.1895956,
2,0,0,1,0,5135.81,0.187509,0.187204,-11.8578,3,0.0170462,10,-0.00221983,-1.926,-0.407632,-0.144738,66.9871,0.187204,
2,0,0,1,0,5135.82,0.185101,0.184785,-12.0226,3,0.0169745,10,-0.00222159,-1.92,-0.396531,-0.14879,69.85,0.184785,
2,0,0,1,0,5135.82,0.182704,0.182357,-12.1973,3,0.0169018,10,-0.00222426,-1.91374,-0.385788,-0.152934,72.8547,0.182357,
2,0,0,1,0,5135.83,0.180307,0.179989,-12.3819,3,0.0168281,10,-0.00222862,-1.90721,-0.365317,-0.161504,78.0408,0.179989,
2,0,0,1,0,5135.84,0.177904,0.177623,-12.5682,3,0.0167532,10,-0.0022324,-1.90073,-0.351409,-0.167895,82.4295,0.177623,
2,0,0,1,0,5135.84,0.175501,0.175159,-12.7691,3,0.0166772,10,-0.00223663,-1.89384,-0.33142,-0.178022,88.8539,0.175159,
2,0,0,1,0,5135.85,0.173104,0.172776,-12.9909,3,0.0165999,10,-0.00224452,-1.88636,-0.316095,-0.186653,94.6872,0.172776,
2,0,0,1,0,5135.85,0.170707,0.170402,-13.2131,3,0.0165213,10,-0.00225155,-1.87899,-0.293496,-0.201025,103.909,0.170402,
2,0,0,1,0,5135.86,0.168302,0.168004,-13.484,3,0.0164412,10,-0.00226536,-1.87018,-0.278577,-0.211791,111.503,0.168004,
2,0,0,1,0,5135.87,0.165905,0.165608,-13.7622,3,0.0163594,10,-0.00227914,-1.86131,-0.265806,-0.221966,119.251,0.165608,
2,0,0,1,0,5135.87,0.163507,0.163203,-14.0431,3,0.0162759,10,-0.00229188,-1.85254,-0.252561,-0.233607,128.332,0.163203,
2,0,0,1,0,5135.88,0.161099,0.160793,-14.3795,3,0.0161907,10,-0.00231213,-1.84225,-0.233886,-0.252259,141.728,0.160793,
2,0,0,1,0,5135.88,0.158702,0.158428,-14.7284,3,0.0161034,10,-0.00233339,-1.83184,-0.218377,-0.270176,155.454,0.158428,
2,0,0,1,0,5135.89,0.156305,0.155967,-15.1138,3,0.0160138,10,-0.00235725,-1.82063,-0.210484,-0.280307,165.632,0.155967,
2,0,0,1,0,5135.9,0.153908,0.153565,-15.531,3,0.0159219,10,-0.00238502,-1.8088,-0.195084,-0.302433,183.687,0.153565,
2,0,0,1,0,5135.9,0.151503,0.151222,-16.0019,3,0.0158273,10,-0.00241983,-1.79583,-0.181026,-0.325921,203.894,0.1512216,
2,0,0,1,0,5135.91,0.149105,0.148808,-16.5051,3,0.0157297,10,-0.0024561,-1.78238,-0.172789,-0.341457,220.228,0.148808,
2,0,0,1,0,5135.91,0.146708,0.146365,-17.0531,3,0.015629,10,-0.00249597,-1.7682,-0.163209,-0.361501,241.167,0.146365,
2,0,0,1,0,5135.92,0.1443,0.14402,-17.6574,3,0.0155249,10,-0.00254302,-1.75307,-0.153109,-0.385345,266.193,0.14402,
2,0,0,1,0,5135.93,0.141903,0.141608,-18.3261,3,0.0154169,10,-0.00259512,-1.73693,-0.148556,-0.397156,284.225,0.141608,
2,0,0,1,0,5135.93,0.139506,0.139185,-19.022,3,0.0153047,10,-0.00264758,-1.72074,-0.143832,-0.410201,305.181,0.139185,
2,0,0,1,0,5135.94,0.137109,0.136824,-19.783,3,0.0151883,10,-0.00270679,-1.70371,-0.138495,-0.426007,329.752,0.136824,
2,0,0,1,0,5135.94,0.134701,0.134407,-20.6245,3,0.015067,10,-0.00277207,-1.68562,-0.133306,-0.442591,356.427,0.134407,
2,0,0,1,0,5135.95,0.132303,0.132014,-21.4971,3,0.0149406,10,-0.00283792,-1.66762,-0.134302,-0.439308,368.71,0.132014,
2,0,0,1,0,5135.96,0.129906,0.12959,-22.4039,3,0.0148089,10,-0.00290333,-1.64968,-0.134554,-0.438486,383.465,0.12959,
2,0,0,1,0,5135.96,0.127501,0.127193,-23.3612,3,0.0146715,10,-0.00297138,-1.6315,-0.133388,-0.442319,403.023,0.1271928,
2,0,0,1,0,5135.97,0.125104,0.124809,-24.3256,3,0.0145284,10,-0.00303605,-1.61394,-0.138039,-0.427415,405.429,0.124809,
2,0,0,1,0,5135.97,0.122707,0.122417,-25.2947,3,0.0143794,10,-0.00309649,-1.59697,-0.142469,-0.414125,408.682,0.122417,
2,0,0,1,0,5135.98,0.12031,0.120033,-26.2589,3,0.0142246,10,-0.00315193,-1.58072,-0.147085,-0.401128,411.29,0.120033,
2,0,0,1,0,5135.99,0.117901,0.117626,-27.2857,3,0.0140638,10,-0.00320951,-1.56406,-0.156641,-0.376656,399.994,0.117626,
2,0,0,1,0,5135.99,0.115504,0.115211,-28.2376,3,0.0138971,10,-0.00325329,-1.54917,-0.16574,-0.35598,391.564,0.115211,
2,0,0,1,0,5136,0.113107,0.11286,-29.1199,3,0.013725,10,-0.00328648,-1.53581,-0.173441,-0.340174,387.086,0.11286,
2,0,0,1,0,5136,0.110702,0.110482,-30.0909,3,0.0135473,10,-0.0033245,-1.52156,-0.179077,-0.329467,386.042,0.110482,
2,0,0,1,0,5136.01,0.108305,0.108078,-31.0152,3,0.0133638,10,-0.00335206,-1.50843,-0.192614,-0.306312,369.847,0.1080779,
2,0,0,1,0,5136.02,0.105908,0.105642,-31.8457,3,0.0131752,10,-0.00336425,-1.49695,-0.209071,-0.282201,350.535,0.105642,
2,0,0,1,0,5136.02,0.103505,0.103287,-32.6877,3,0.0129815,10,-0.00337622,-1.48562,-0.222799,-0.264812,337.2,0.103287,
2,0,0,1,0,5136.03,0.101102,0.100882,-33.4663,3,0.0127829,10,-0.00337614,-1.47539,-0.245383,-0.240441,313.406,0.100882,
2,0,0,1,0,5136.03,0.0987052,0.0984621,-34.1807,3,0.0125798,10,-0.00336551,-1.46622,-0.267495,-0.220565,293.903,0.09846215,
2,0,0,1,0,5136.04,0.0963081,0.0960762,-34.8521,3,0.0123726,10,-0.00334846,-1.45777,-0.293723,-0.200869,273,0.0960762,
2,0,0,1,0,5136.05,0.0938999,0.0936065,-35.5068,3,0.0121614,10,-0.00332367,-1.44969,-0.317655,-0.185736,256.964,0.0936065,
2,0,0,1,0,5136.05,0.0915028,0.0912535,-36.0964,3,0.0119465,10,-0.00329393,-1.44254,-0.358536,-0.164558,231.479,0.0912535,
2,0,0,1,0,5136.06,0.0891057,0.0888464,-36.6317,3,0.0117283,10,-0.00325459,-1.43614,-0.4009,-0.147169,210.151,0.0888464,
2,0,0,1,0,5136.06,0.0867002,0.0864382,-37.1346,3,0.011507,10,-0.00320985,-1.43022,-0.452575,-0.130365,188.574,0.0864382,
2,0,0,1,0,5136.07,0.0843031,0.083977,-37.5661,3,0.0112828,10,-0.00315469,-1.4252,-0.5394,-0.109381,159.989,0.083977,
2,0,0,1,0,5136.08,0.081906,0.0816091,-37.8914,3,0.0110564,10,-0.00309228,-1.42146,-0.665449,-0.0886619,130.969,0.0816091,
2,0,0,1,0,5136.08,0.0795089,0.0792094,-38.1766,3,0.0108281,10,-0.00302395,-1.4182,-0.838072,-0.0703997,104.768,0.0792094,
2,0,0,1,0,5136.09,0.0771007,0.0768203,-38.4215,3,0.0105982,10,-0.00295155,-1.41543,-1.17122,-0.0503748,75.3587,0.0768203,
2,0,0,1,0,5136.09,0.0747036,0.0744461,-38.541,3,0.0103673,10,-0.00286923,-1.41408,-2.08512,-0.0282957,42.5084,0.0744461,
2,0,0,1,0,5136.1,0.0723065,0.0719955,-38.6183,3,0.0101358,10,-0.00278034,-1.41321,-4.81886,-0.0122436,18.4285,0.0719955,
2,0,0,1,0,5136.11,0.0699011,0.0695618,-38.6493,3,0.00990397,10,-0.00268852,-1.41286,8.44242,0.00698852,-10.5188,0.0695618,
2,0,0,1,0,5136.11,0.067504,0.0671961,-38.576,3,0.00967229,10,-0.00259216,-1.41368,2.38619,0.0247256,-37.1612,0.0671961,
2,0,0,1,0,5136.12,0.0651069,0.0648176,-38.453,3,0.00944121,10,-0.00249243,-1.41507,1.4258,0.0413803,-62.0167,0.06481757,
2,0,0,1,0,5136.12,0.0627098,0.0623755,-38.2654,3,0.00921106,10,-0.00238682,-1.41719,1.05007,0.0561865,-83.8338,0.0623755,
2,0,0,1,0,5136.13,0.0603016,0.0599948,-38.0579,3,0.00898208,10,-0.00228327,-1.41956,0.859221,0.0686669,-101.863,0.0599948,
2,0,0,1,0,5136.14,0.0579045,0.0576376,-37.7812,3,0.00875459,10,-0.00217762,-1.42272,0.752922,0.0783614,-115.478,0.0576376,
2,0,0,1,0,5136.14,0.0555074,0.0551997,-37.4869,3,0.0085288,10,-0.00206926,-1.42612,0.72142,0.0817831,-119.649,0.0551997,
2,0,0,1,0,5136.15,0.0530992,0.0527724,-37.2078,3,0.00830477,10,-0.00196354,-1.42937,0.659845,0.0894149,-129.719,0.0527724,
2,0,0,1,0,5136.15,0.0507021,0.050377,-36.8799,3,0.00808252,10,-0.0018579,-1.43321,0.641418,0.0919837,-132.372,0.050377,
2,0,0,1,0,5136.16,0.048305,0.0480112,-36.5553,3,0.00786229,10,-0.00175506,-1.43705,0.636764,0.092656,-132.255,0.0480112,
2,0,0,1,0,5136.17,0.0459051,0.0455775,-36.2478,3,0.0076439,10,-0.00165209,-1.44072,0.643719,0.091655,-129.634,0.0455775,
2,0,0,1,0,5136.17,0.0435024,0.043216,-35.9328,3,0.00742732,10,-0.00155287,-1.44451,0.63561,0.0928243,-130.197,0.043216,
2,0,0,1,0,5136.18,0.0411053,0.0407845,-35.6239,3,0.00721269,10,-0.0014529,-1.44826,0.645002,0.0914726,-127.244,0.0407845,
2,0,0,1,0,5136.18,0.0387082,0.0383933,-35.3349,3,0.00699984,10,-0.00135662,-1.4518,0.668729,0.0882271,-121.655,0.0383933,
2,0,0,1,0,5136.19,0.0363,0.0359915,-35.0508,3,0.00678873,10,-0.00126153,-1.4553,0.65641,0.0898828,-122.918,0.0359915,
2,0,0,1,0,5136.2,0.0339029,0.0335907,-34.7479,3,0.00657941,10,-0.00116721,-1.45907,0.65673,0.089839,-121.823,0.0335907,
2,0,0,1,0,5136.2,0.0315058,0.0312048,-34.4629,3,0.00637182,10,-0.00107541,-1.46265,0.675216,0.0873794,-117.526,0.0312048,
2,0,0,1,0,5136.21,0.0291087,0.0287701,-34.1576,3,0.006166,10,-0.000982717,-1.46651,0.651,0.0906298,-120.838,0.0287701,
2,0,0,1,0,5136.21,0.0267033,0.0263916,-33.8771,3,0.00596185,10,-0.000894071,-1.47009,0.633525,0.0931298,-123.084,0.02639162,
2,0,0,1,0,5136.22,0.0243062,0.0239993,-33.5726,3,0.00575951,10,-0.000805719,-1.47402,0.607722,0.0970838,-127.221,0.0239993,
2,0,0,1,0,5136.23,0.0219091,0.0215593,-33.2769,3,0.00555899,10,-0.000717429,-1.47786,0.608986,0.0968824,-125.808,0.0215593,
2,0,0,1,0,5136.23,0.0195009,0.0191798,-32.9708,3,0.00536024,10,-0.000632373,-1.48187,0.576235,0.102389,-131.678,0.0191798,
2,0,0,1,0,5136.24,0.0171038,0.0167854,-32.6356,3,0.00516343,10,-0.000547801,-1.48631,0.530322,0.111253,-141.723,0.0167854,
2,0,0,1,0,5136.24,0.0147067,0.0143921,-32.3115,3,0.00496862,10,-0.000465029,-1.49064,0.527103,0.111933,-141.065,0.0143921,
2,0,0,1,0,5136.25,0.012304,0.0120199,-31.9705,3,0.00477581,10,-0.000384283,-1.49525,0.493885,0.119461,-148.899,0.0120199,
2,0,0,1,0,5136.26,0.00990136,0.00957569,-31.5831,3,0.0045852,10,-0.00030243,-1.50055,0.460651,0.12808,-157.832,0.00957569,
2,0,0,1,0,5136.26,0.00750426,0.00715266,-31.1995,3,0.00439688,10,-0.000223159,-1.50585,0.429487,0.137373,-167.152,0.00715266,
2,0,0,1,0,5136.27,0.00510715,0.00479644,-30.7761,3,0.00421096,10,-0.000147616,-1.51179,0.427713,0.137943,-165.802,0.00479644,
2,0,0,1,0,5136.27,0.00270173,0.00239144,-30.3594,3,0.00402754,10,-7.26026e-05,-1.51771,0.407917,0.144637,-171.438,0.00239144,
2,0,0,1,0,5136.28,0.000304623,-7.82488e-05,-29.9689,3,0.00384646,10,2.34503e-06,-1.52333,0.383159,0.153983,-179.844,-7.82488e-05,
2,0,0,1,0,5136.29,-0.00209248,-0.00244614,-29.5013,3,0.00366806,10,7.21643e-05,-1.53016,0.357328,0.165114,-190.158,-0.00244614,
2,0,0,1,0,5136.29,-0.00450068,-0.00483735,-29.0629,3,0.00349243,10,0.000140587,-1.53666,0.351188,0.168001,-190.48,-0.00483735,
2,0,0,1,0,5136.3,-0.00689779,-0.00727417,-28.6032,3,0.00331949,10,0.000208065,-1.54359,0.359718,0.164017,-183.146,-0.00727417,
2,0,0,1,0,5136.3,-0.00929489,-0.00967599,-28.1689,3,0.00314926,10,0.000272562,-1.55023,0.366325,0.161059,-177.162,-0.00967599,
2,0,0,1,0,5136.31,-0.011692,-0.0120693,-27.7476,3,0.00298155,10,0.000334895,-1.55677,0.377704,0.156207,-169.229,-0.0120693,
2,0,0,1,0,5136.32,-0.0140974,-0.0144807,-27.3463,3,0.00281629,10,0.000395993,-1.5631,0.390359,0.151143,-161.461,-0.0144807,
2,0,0,1,0,5136.32,-0.0164945,-0.0168496,-26.9774,3,0.00265337,10,0.00045456,-1.569,0.419096,0.140779,-148.388,-0.0168496,
2,0,0,1,0,5136.33,-0.0188916,-0.0192483,-26.6463,3,0.00249254,10,0.000512896,-1.57436,0.453367,0.130137,-135.406,-0.0192483,
2,0,0,1,0,5136.33,-0.0212998,-0.0216692,-26.319,3,0.00233371,10,0.000570311,-1.57973,0.491882,0.119948,-123.393,-0.0216692,
2,0,0,1,0,5136.34,-0.0236969,-0.0241113,-26.0482,3,0.00217664,10,0.000628055,-1.58422,0.557997,0.105735,-107.579,-0.0241113,
2,0,0,1,0,5136.35,-0.026094,-0.0264877,-25.8113,3,0.00202109,10,0.000683681,-1.58819,0.629086,0.0937868,-94.5531,-0.0264877,
2,0,0,1,0,5136.35,-0.0284912,-0.0288397,-25.5824,3,0.00186694,10,0.000737787,-1.59206,0.705321,0.0836498,-83.6326,-0.0288397,
2,0,0,1,0,5136.36,-0.0308994,-0.0312585,-25.4066,3,0.00171399,10,0.000794172,-1.59505,0.825414,0.0714793,-70.9386,-0.0312585,
2,0,0,1,0,5136.36,-0.0332965,-0.0336762,-25.2515,3,0.00156204,10,0.000850375,-1.59771,0.983135,0.0600121,-59.2023,-0.0336762,
2,0,0,1,0,5136.37,-0.0356936,-0.0360292,-25.1277,3,0.00141095,10,0.000905331,-1.59985,1.19608,0.0493276,-48.4137,-0.0360292,
2,0,0,1,0,5136.38,-0.038099,-0.0384098,-25.0262,3,0.00126052,10,0.000961252,-1.60161,1.52242,0.038754,-37.875,-0.0384098,
2,0,0,1,0,5136.38,-0.0404961,-0.0408647,-24.9418,3,0.00111065,10,0.00101924,-1.60307,2.01564,0.0292711,-28.5194,-0.04086468,
2,0,0,1,0,5136.39,-0.0428932,-0.0432453,-24.8843,3,0.000961169,10,0.00107613,-1.60407,2.96184,0.01992,-19.3559,-0.0432453,
2,0,0,1,0,5136.39,-0.0452903,-0.0456418,-24.8438,3,0.000811983,10,0.00113391,-1.60478,4.89832,0.012045,-11.6893,-0.0456418,
2,0,0,1,0,5136.4,-0.0476985,-0.0480161,-24.8257,3,0.000662983,10,0.00119203,-1.6051,58.2873,0.00101223,-0.981711,-0.0480161,
2,0,0,1,0,5136.41,-0.0500956,-0.0504455,-24.8401,3,0.000513981,10,0.00125307,-1.60485,-20.4842,-0.00288026,2.79243,-0.0504455,
2,0,0,1,0,5136.41,-0.0524927,-0.0528155,-24.8401,3,0.000364905,10,0.00131194,-1.60485,-6.61661,-0.00891696,8.65353,-0.0528155,
2,0,0,1,0,5136.42,-0.0548981,-0.0552491,-24.8795,3,0.000215752,10,0.00137457,-1.60416,-3.92924,-0.0150156,14.5919,-0.0552491,
2,0,0,1,0,5136.42,-0.0572953,-0.0576541,-24.9328,3,6.63238e-05,10,0.00143748,-1.60323,-2.86513,-0.0205924,20.033,-0.0576541,
2,0,0,1,0,5136.43,-0.0596924,-0.060005,-24.9758,3,-8.33969e-05,10,0.00149867,-1.60248,-2.10141,-0.0280764,27.3911,-0.060005,
2,0,0,1,0,5136.44,-0.062095,-0.0624408,-25.0485,3,-0.000233442,10,0.00156405,-1.60122,-1.77698,-0.0332024,32.4735,-0.0624408,
2,0,0,1,0,5136.44,-0.0644977,-0.0649094,-25.1441,3,-0.00038403,10,0.00163209,-1.59956,-1.4972,-0.0394069,38.6649,-0.0649094,
2,0,0,1,0,5136.45,-0.0668948,-0.0672359,-25.2302,3,-0.000535134,10,0.00169638,-1.59808,-1.5272,-0.0386328,38.04,-0.0672359,
2,0,0,1,0,5136.45,-0.0692919,-0.0696356,-25.3195,3,-0.000686799,10,0.00176314,-1.59655,-1.31646,-0.0448171,44.3143,-0.0696356,
2,0,0,1,0,5136.46,-0.0717001,-0.0719898,-25.4325,3,-0.000839078,10,0.00183088,-1.59461,-1.16958,-0.0504454,50.0989,-0.0719898,
2,0,0,1,0,5136.47,-0.0740972,-0.0744425,-25.5605,3,-0.000992074,10,0.00190279,-1.59243,-1.17815,-0.0500785,49.9698,-0.0744425,
2,0,0,1,0,5136.47,-0.0764943,-0.0768528,-25.6908,3,-0.00114584,10,0.00197441,-1.59022,-1.07851,-0.0547049,54.859,-0.0768528,
2,0,0,1,0,5136.48,-0.0788997,-0.0792143,-25.8287,3,-0.00130036,10,0.002046,-1.5879,-0.973155,-0.0606275,61.1495,-0.0792143,
2,0,0,1,0,5136.48,-0.0812968,-0.0816289,-25.9836,3,-0.00145579,10,0.00212101,-1.5853,-0.94947,-0.0621399,62.9836,-0.0816289,
2,0,0,1,0,5136.49,-0.0836939,-0.0840741,-26.1344,3,-0.00161219,10,0.00219723,-1.58279,-0.905749,-0.0651395,66.4446,-0.08407414,
2,0,0,1,0,5136.5,-0.086091,-0.0864431,-26.2827,3,-0.00176944,10,0.00227196,-1.58033,-0.859046,-0.0686808,70.5271,-0.0864431,
2,0,0,1,0,5136.5,-0.0884992,-0.0888046,-26.4853,3,-0.00192775,10,0.00235202,-1.577,-0.798068,-0.0739285,76.3771,-0.0888046,
2,0,0,1,0,5136.51,-0.0908963,-0.0912086,-26.6482,3,-0.00208718,10,0.00243055,-1.57433,-0.805083,-0.0732843,76.233,-0.0912086,
2,0,0,1,0,5136.51,-0.0932935,-0.0936772,-26.8465,3,-0.00224767,10,0.0025149,-1.57111,-0.747617,-0.0789174,82.7348,-0.0936772,
2,0,0,1,0,5136.52,-0.0956989,-0.0960493,-27.0545,3,-0.00240932,10,0.00259856,-1.56776,-0.717381,-0.0822436,86.8394,-0.0960493,
2,0,0,1,0,5136.53,-0.098096,-0.0984649,-27.2618,3,-0.0025723,10,0.00268433,-1.56445,-0.738168,-0.0799276,84.7887,-0.0984649,
2,0,0,0,0,5136.53,-0.0999548,-0.1004,-27.4036,3,-0.00270082,10,0.00275133,-1.56219,0.0248407,2.37514,-2356.14,-0.1004,
2,0,0,1,1,5136.53,-0.0994555,-0.099906,-25.7927,3,-0.0027457,10,0.00257684,-1.5885,-0.0197304,-2.9903,2656.62,-0.09990602,
2,0,0,1,1,5136.54,-0.0970583,-0.0974788,-20.2253,3,-0.00288238,10,0.00197154,-1.69411,-0.0224631,-2.62653,2076.03,-0.0974788,
2,0,0,1,1,5136.55,-0.0946501,-0.0950727,-15.8485,3,-0.00298983,10,0.00150676,-1.80001,-0.0214774,-2.74708,1697.52,-0.0950727,
2,0,0,1,1,5136.55,-0.092253,-0.0926836,-12.1362,3,-0.00307316,10,0.00112483,-1.91592,-0.018971,-3.11001,1454.42,-0.0926836,
2,0,0,1,1,5136.56,-0.0898559,-0.0902818,-8.91677,3,-0.00313577,10,0.000805022,-2.04979,-0.015758,-3.74413,1261.9,-0.09028177,
2,0,0,1,1,5136.56,-0.0874588,-0.0878407,-6.08555,3,-0.00318033,10,0.000534559,-2.2157,-0.0115292,-5.11745,1122.54,-0.0878407,
2,0,0,1,1,5136.57,-0.0850534,-0.0854548,-3.56124,3,-0.00320886,10,0.000304325,-2.4484,-0.00614504,-9.60124,986.057,-0.0854548,
2,0,0,1,1,5136.58,-0.0826563,-0.0830413,-1.31789,3,-0.00322316,10,0.000109439,-2.88012,-0.0122784,-4.8052,894.92,-0.0830413,
2,1,0,1,1,5136.58,-0.0802592,-0.0806618,0.701476,3,-0.0032247,10,-5.65823e-05,-3.15399,0.0358665,1.64499,802.214,-0.0806618,
2,1,0,1,1,5136.59,-0.077851,-0.0782514,2.52918,3,-0.00321476,10,-0.000197912,-2.59702,0.00327688,18.005,726.809,-0.0782514,
2,1,0,1,1,5136.59,-0.0754539,-0.0758464,4.16594,3,-0.00319447,10,-0.000315972,-2.38029,0.0128357,4.59656,652.499,-0.0758464,
2,1,0,1,1,5136.6,-0.0730568,-0.073452,5.66097,3,-0.00316474,10,-0.00041581,-2.24711,0.020499,2.87819,596.872,-0.073452,
2,1,0,1,1,5136.61,-0.0706597,-0.0710555,6.99519,3,-0.00312657,10,-0.000497047,-2.1552,0.0286373,2.06025,544.865,-0.0710555,
2,1,0,1,1,5136.61,-0.0682542,-0.0687216,8.25538,3,-0.0030806,10,-0.000567323,-2.08326,0.0370065,1.59431,501.772,-0.0687216,
2,1,0,1,1,5136.62,-0.0658571,-0.0662805,9.40744,3,-0.00302741,10,-0.00062353,-2.02653,0.0470343,1.2544,451.911,-0.0662805,
2,1,0,1,1,5136.62,-0.06346,-0.0639328,10.4367,3,-0.00296771,10,-0.000667249,-1.98144,0.0570906,1.03344,415.959,-0.0639328,
2,1,0,1,1,5136.63,-0.0610518,-0.0614705,11.4065,3,-0.00290204,10,-0.000701163,-1.94285,0.0684269,0.862233,379.493,-0.0614705,
2,1,0,1,1,5136.64,-0.0586547,-0.0590804,12.271,3,-0.00283089,10,-0.000724975,-1.91112,0.0818983,0.720406,342.163,-0.0590804,
2,1,0,1,1,5136.64,-0.0562576,-0.0566457,13.0628,3,-0.00275479,10,-0.000739952,-1.88396,0.0954569,0.61808,313.049,-0.0566457,
2,1,0,1,1,5136.65,-0.053855,-0.0542258,13.7941,3,-0.00267414,10,-0.000747997,-1.86031,0.109909,0.536808,287.071,-0.05422581,
2,1,0,1,1,5136.65,-0.0514523,-0.0518049,14.4317,3,-0.00258936,10,-0.000747633,-1.84068,0.126482,0.466468,261.538,-0.0518049,
2,1,0,1,1,5136.66,-0.0490552,-0.0494402,15.0304,3,-0.00250088,10,-0.000743104,-1.82303,0.146045,0.403984,236.002,-0.04944019,
2,1,0,1,1,5136.67,-0.0466581,-0.0470416,15.566,3,-0.00240901,10,-0.000732251,-1.80782,0.167711,0.351795,212.988,-0.0470416,
2,1,0,1,1,5136.67,-0.0442527,-0.0446408,16.0414,3,-0.0023141,10,-0.000716102,-1.79476,0.188478,0.313034,195.571,-0.0446408,
2,1,0,1,1,5136.68,-0.0418556,-0.042239,16.5011,3,-0.00221639,10,-0.00069699,-1.78249,0.216257,0.272824,175.078,-0.042239,
2,1,0,1,1,5136.68,-0.0394585,-0.0398191,16.8967,3,-0.00211613,10,-0.000672811,-1.7722,0.244581,0.241229,158.692,-0.0398191,
2,1,0,1,1,5136.69,-0.0370558,-0.0374056,17.2545,3,-0.00201366,10,-0.000645416,-1.7631,0.272087,0.216842,145.769,-0.0374056,
2,1,0,1,1,5136.7,-0.0346532,-0.0350123,17.591,3,-0.00190905,10,-0.000615902,-1.75471,0.310673,0.18991,130.044,-0.0350123,
2,1,0,1,1,5136.7,-0.0322561,-0.0325977,17.873,3,-0.00180259,10,-0.000582619,-1.7478,0.364825,0.161721,112.642,-0.0325977,
2,1,0,1,1,5136.71,-0.0298589,-0.030232,18.1267,3,-0.00169455,10,-0.000548005,-1.74168,0.404895,0.145717,103.029,-0.030232,
2,1,0,1,1,5136.71,-0.0274535,-0.027827,18.3784,3,-0.001585,10,-0.000511416,-1.73569,0.454172,0.129907,92.9711,-0.027827,
2,1,0,1,1,5136.72,-0.0250564,-0.0254273,18.5762,3,-0.00147411,10,-0.000472341,-1.73104,0.529983,0.111324,80.6111,-0.0254273,
2,1,0,1,1,5136.73,-0.0226593,-0.0230053,18.753,3,-0.00136211,10,-0.000431419,-1.72693,0.596805,0.0988598,72.2941,-0.0230053,
2,1,0,1,1,5136.73,-0.0202511,-0.0206194,18.9257,3,-0.00124907,10,-0.000390237,-1.72295,0.674757,0.0874388,64.4794,-0.0206194,
2,1,0,1,1,5136.74,-0.017854,-0.0182483,19.0561,3,-0.0011351,10,-0.000347742,-1.71997,0.816875,0.0722265,53.6497,-0.0182483,
2,1,0,1,1,5136.74,-0.0154569,-0.0158274,19.1687,3,-0.00102038,10,-0.00030339,-1.71741,0.968852,0.0608968,45.5361,-0.0158274,
2,1,0,1,1,5136.75,-0.0130598,-0.0134224,19.2613,3,-0.000905037,10,-0.000258533,-1.71531,1.0634,0.0554826,41.7318,-0.0134224,
2,1,0,1,1,5136.76,-0.0106516,-0.0110503,19.3824,3,-0.000789073,10,-0.000214181,-1.71259,1.28779,0.0458147,34.6059,-0.01105028,
2,1,0,1,1,5136.76,-0.00825448,-0.0085965,19.4495,3,-0.000672569,10,-0.000167197,-1.71109,1.72166,0.0342693,25.9901,-0.0085965,
2,1,0,1,1,5136.77,-0.00585738,-0.00621801,19.4957,3,-0.000555736,10,-0.000121224,-1.71006,1.817,0.0324712,24.7195,-0.006218005,
2,1,0,1,1,5136.77,-0.00345195,-0.00381088,19.5685,3,-0.000438553,10,-7.45734e-05,-1.70844,2.03278,0.0290244,22.1446,-0.00381088,
2,1,0,1,1,5136.78,-0.00105485,-0.00144723,19.6097,3,-0.000320991,10,-2.83798e-05,-1.70753, , , ,-0.00144723,
2,1,0,0,1,5136.78,-7.54729e-05,-0.000478022,19.6227,3,-0.000271949,10,-9.38008e-06,-1.70724, , , ,-0.000478022,