File: Figure_codes/Fig_3-5/rawdata_trumpetplot_data/after 10th/20221101_1-115_003_TrumpetPlot_ParaChange_from10_every3_14_CV_C01_3.csv
mode,ox/red,error,control changes,counter inc.,time/s,control/V,Ewe/V,<I>/mA,cycle number,(Q-Qo)/C,I Range,P/W,log(|I|),Tafel slope mV/dec,alpha_eff,dI/d(E-IR),E-IR/V,
2,1,0,1,0,7109.5,2.44065e-05,-0.0002108,46.0008,4,0.0000000E+000,10,-9.69696e-06,-1.33723, , , ,-0.0002108,
2,1,0,1,0,7109.5,0.00332042,0.00290786,47.3241,4,0.000145175,10,0.000137612,-1.32492, , , ,0.00290786,
2,1,0,1,0,7109.51,0.0073156,0.00696603,48.3793,4,0.000336764,10,0.000337012,-1.31534, , , ,0.00696603,
2,1,0,1,0,7109.51,0.0113108,0.010951,49.2832,4,0.000532218,10,0.000539702,-1.3073,0.530961,0.111119,212.525,0.010951,
2,1,0,1,0,7109.51,0.0153059,0.0149668,50.0527,4,0.000730986,10,0.000749129,-1.30057,0.609477,0.0968043,188.426,0.0149668,
2,1,0,1,0,7109.52,0.0193011,0.0189306,50.7293,4,0.000932664,10,0.000960336,-1.29474,0.703662,0.0838471,165.576,0.0189306,
2,1,0,1,0,7109.52,0.0233462,0.0230036,51.4012,4,0.00113705,10,0.00118241,-1.28903,0.793618,0.0743431,148.646,0.0230036,
2,1,0,1,0,7109.53,0.0273414,0.0269897,51.9388,4,0.00134378,10,0.00140181,-1.28451,0.883517,0.0667786,135.01,0.0269897,
2,1,0,1,0,7109.53,0.0313366,0.0309694,52.4315,4,0.0015526,10,0.00162377,-1.28041,1.01099,0.0583588,119.222,0.0309694,
2,1,0,1,0,7109.53,0.0353317,0.0349661,52.8943,4,0.0017633,10,0.0018495,-1.27659,1.10092,0.0535913,110.468,0.0349661,
2,1,0,1,0,7109.54,0.0393269,0.0389543,53.3028,4,0.00197573,10,0.00207637,-1.27325,1.17968,0.0500137,103.955,0.0389543,
2,1,0,1,0,7109.54,0.0433221,0.0429891,53.7062,4,0.00218978,10,0.00230878,-1.26998,1.24734,0.0473008,99.0982,0.0429891,
2,1,0,1,0,7109.55,0.0473173,0.0469709,54.0949,4,0.00240541,10,0.00254089,-1.26684,1.2779,0.0461697,97.4415,0.0469709,
2,1,0,1,0,7109.55,0.0513124,0.0509559,54.4788,4,0.00262262,10,0.00277602,-1.26377,1.30943,0.0450577,95.7729,0.0509559,
2,1,0,1,0,7109.55,0.0553076,0.0549494,54.8614,4,0.00284135,10,0.0030146,-1.26073,1.28194,0.0460239,98.571,0.0549494,
2,1,0,1,0,7109.56,0.0593028,0.0588878,55.2289,4,0.00306158,10,0.00325231,-1.25783,1.31088,0.0450079,97.0474,0.0588878,
2,1,0,1,0,7109.56,0.0633479,0.0629459,55.6696,4,0.00328336,10,0.00350417,-1.25438,1.25588,0.0469791,102.073,0.0629459,
2,1,0,1,0,7109.57,0.0673431,0.0669214,56.0282,4,0.00350678,10,0.00374949,-1.25159,1.18019,0.0499918,109.461,0.0669214,
2,1,0,1,0,7109.57,0.0713383,0.0709213,56.4917,4,0.00373181,10,0.00400646,-1.24802,1.13159,0.0521389,115.141,0.0709213,
2,1,0,1,0,7109.57,0.0753334,0.0749688,56.9892,4,0.00395881,10,0.00427241,-1.24421,1.04291,0.0565726,125.911,0.0749688,
2,1,0,1,0,7109.58,0.0793286,0.0789432,57.5115,4,0.00418785,10,0.00454015,-1.24025,1.00411,0.0587587,131.96,0.0789432,
2,1,0,1,0,7109.58,0.0833238,0.0829081,58.0411,4,0.00441903,10,0.00481208,-1.23626,0.957965,0.0615889,139.64,0.0829081,
2,1,0,1,0,7109.59,0.0873189,0.0869801,58.6108,4,0.00465238,10,0.00509797,-1.23202,0.922822,0.0639343,146.402,0.0869801,
2,1,0,1,0,7109.59,0.0913141,0.0909195,59.2165,4,0.00488807,10,0.00538393,-1.22756,0.880115,0.0670367,155.073,0.0909195,
2,1,0,1,0,7109.59,0.0953093,0.0949384,59.8533,4,0.00512627,10,0.00568237,-1.22291,0.83833,0.070378,164.569,0.09493842,
2,1,0,1,0,7109.6,0.0993045,0.0989128,60.523,4,0.00536709,10,0.0059865,-1.21808,0.801627,0.0736003,174.09,0.0989128,
2,1,0,1,0,7109.6,0.103319,0.102968,61.2419,4,0.00561065,10,0.00630595,-1.21295,0.76935,0.0766881,183.506,0.1029678,
2,1,0,1,0,7109.61,0.107345,0.10703,62.0212,4,0.00585731,10,0.00663815,-1.20746,0.747555,0.0789239,191.107,0.10703,
2,1,0,1,0,7109.61,0.11134,0.110988,62.7984,4,0.00610701,10,0.00696985,-1.20205,0.72896,0.0809373,198.418,0.110988,
2,1,0,1,0,7109.61,0.115335,0.114971,63.5918,4,0.00635987,10,0.00731118,-1.1966,0.724979,0.0813817,202.05,0.114971,
2,1,0,1,0,7109.62,0.11933,0.118966,64.4163,4,0.00661596,10,0.00766336,-1.191,0.714446,0.0825815,207.691,0.118966,
2,1,0,1,0,7109.62,0.123325,0.122954,65.2387,4,0.00687534,10,0.00802138,-1.18549,0.698483,0.0844687,215.258,0.122954,
2,1,0,1,0,7109.63,0.127321,0.126956,66.1149,4,0.00713815,10,0.00839371,-1.1797,0.689864,0.0855241,220.844,0.126956,
2,1,0,1,0,7109.63,0.131316,0.130965,67.0346,4,0.00740454,10,0.00877917,-1.1737,0.671317,0.087887,230.016,0.130965,
2,1,0,1,0,7109.63,0.135311,0.134952,67.9466,4,0.0076746,10,0.00916952,-1.16783,0.661571,0.0891817,236.644,0.134952,
2,1,0,1,0,7109.64,0.139306,0.138945,68.9169,4,0.00794843,10,0.00957567,-1.16167,0.640783,0.0920748,247.946,0.138945,
2,1,0,1,0,7109.64,0.143301,0.142966,69.9036,4,0.00822614,10,0.00999386,-1.1555,0.624356,0.0944973,258.14,0.142966,
2,1,0,1,0,7109.65,0.147346,0.146977,71.0048,4,0.0085081,10,0.0104361,-1.14871,0.61323,0.0962119,266.711,0.146977,
2,1,0,1,0,7109.65,0.151342,0.150986,72.0857,4,0.00879437,10,0.0108839,-1.14215,0.600602,0.0982347,276.384,0.150986,
2,1,0,1,0,7109.65,0.155337,0.15496,73.188,4,0.00908501,10,0.0113412,-1.13556,0.601878,0.0980265,280.133,0.15496,
2,1,0,1,0,7109.66,0.159332,0.158962,74.3244,4,0.00938016,10,0.0118147,-1.12887,0.596783,0.0988635,286.886,0.158962,
2,1,0,1,0,7109.66,0.163327,0.162988,75.49,4,0.00967989,10,0.012304,-1.12211,0.593035,0.0994882,293.183,0.162988,
2,1,0,1,0,7109.67,0.167322,0.16697,76.6712,4,0.00998433,10,0.0128018,-1.11537,0.597919,0.0986755,295.234,0.1669697,
2,1,0,1,0,7109.67,0.171317,0.170963,77.8801,4,0.0102936,10,0.0133146,-1.10857,0.606591,0.0972649,295.411,0.1709632,
2,1,0,1,0,7109.67,0.175313,0.174977,79.0527,4,0.0106075,10,0.0138324,-1.10208,0.624858,0.0944214,291.033,0.174977,
2,1,0,1,0,7109.68,0.179308,0.178942,80.2029,4,0.0109262,10,0.0143516,-1.09581,0.642073,0.0918898,287.467,0.178942,
2,1,0,1,0,7109.68,0.183303,0.182983,81.3315,4,0.0112494,10,0.0148823,-1.08974,0.67298,0.0876697,278.007,0.182983,
2,1,0,1,0,7109.69,0.187348,0.186979,82.4839,4,0.0115771,10,0.0154227,-1.08363,0.720678,0.0818673,262.953,0.186979,
2,1,0,1,0,7109.69,0.191343,0.190955,83.4947,4,0.0119091,10,0.0159437,-1.07834,0.786449,0.0750208,243.803,0.190955,
2,1,0,1,0,7109.69,0.195338,0.195035,84.4349,4,0.0122451,10,0.0164678,-1.07348,0.901638,0.0654365,215.009,0.195035,
2,1,0,1,0,7109.7,0.199334,0.199017,85.2408,4,0.0125846,10,0.0169644,-1.06935,1.06106,0.0556048,184.375,0.1990173,
2,1,0,1,0,7109.7,0.203329,0.20298,85.9244,4,0.012927,10,0.0174409,-1.06588,1.35673,0.043487,145.258,0.20298,
2,1,0,1,0,7109.71,0.207324,0.206964,86.4464,4,0.0132718,10,0.0178913,-1.06325,2.00846,0.0293758,98.6238,0.206964,
2,1,0,1,0,7109.71,0.211319,0.210995,86.753,4,0.0136183,10,0.0183044,-1.06172,5.05619,0.0116689,39.2727,0.210995,
2,1,0,1,0,7109.71,0.215314,0.214986,86.8157,4,0.0139655,10,0.0186642,-1.0614,-6.89682,-0.00855466,-28.784,0.214986,
2,1,0,1,0,7109.72,0.219309,0.218966,86.5522,4,0.0143123,10,0.018952,-1.06272,-1.90888,-0.0309082,-103.641,0.218966,
2,1,0,1,0,7109.72,0.223305,0.222995,85.9849,4,0.0146575,10,0.0191742,-1.06558,-1.07459,-0.0549049,-182.87,0.222995,
2,1,0,1,0,7109.73,0.227314,0.227026,85.0916,4,0.0149996,10,0.019318,-1.07011,-0.733733,-0.0804108,-264.875,0.227026,
2,1,0,1,0,7109.73,0.231345,0.231001,83.8869,4,0.0153376,10,0.019378,-1.07631,-0.549499,-0.10737,-348.42,0.231001,
2,1,0,1,0,7109.73,0.23534,0.23505,82.2919,4,0.0156699,10,0.0193427,-1.08464,-0.4358,-0.135383,-431.081,0.23505,
2,1,0,1,0,7109.74,0.239335,0.239095,80.3753,4,0.0159951,10,0.0192174,-1.09488,-0.364704,-0.161775,-503.681,0.239095,
2,1,0,1,0,7109.74,0.24333,0.243051,78.1835,4,0.0163121,10,0.0190026,-1.10688,-0.316408,-0.186468,-565.356,0.243051,
2,1,0,1,0,7109.75,0.247326,0.247048,75.8043,4,0.0166199,10,0.0187273,-1.12031,-0.28376,-0.207922,-611.813,0.247048,
2,1,0,1,0,7109.75,0.251321,0.251027,73.2591,4,0.0169178,10,0.01839,-1.13514,-0.264184,-0.223329,-635.901,0.251027,
2,1,0,1,0,7109.75,0.255316,0.255026,70.6288,4,0.0172053,10,0.0180122,-1.15102,-0.247722,-0.23817,-654.733,0.255026,
2,1,0,1,0,7109.76,0.259311,0.259107,67.9731,4,0.0174822,10,0.0176123,-1.16766,-0.238391,-0.247493,-655.669,0.259107,
2,1,0,1,0,7109.76,0.263306,0.263041,65.3331,4,0.0177486,10,0.0171853,-1.18487,-0.236626,-0.249339,-636.287,0.263041,
2,1,0,1,0,7109.77,0.267302,0.267016,62.7757,4,0.0180045,10,0.0167621,-1.20221,-0.234065,-0.252067,-618.772,0.267016,
2,1,0,1,0,7109.77,0.271347,0.27108,60.4135,4,0.0182506,10,0.0163769,-1.21887,-0.237061,-0.248881,-587.694,0.2710804,
2,1,0,1,0,7109.77,0.275342,0.275086,58.0862,4,0.0184874,10,0.0159787,-1.23593,-0.242683,-0.243115,-552.486,0.275086,
2,1,0,1,0,7109.78,0.279337,0.279055,55.9223,4,0.0187151,10,0.0156054,-1.25242,-0.247083,-0.238787,-523.136,0.279055,
2,1,0,1,0,7109.78,0.283332,0.283065,53.9088,4,0.0189346,10,0.0152597,-1.26834,-0.258585,-0.228165,-482.139,0.283065,
2,1,0,1,0,7109.79,0.287327,0.287038,52.0653,4,0.0191463,10,0.0149447,-1.28345,-0.271641,-0.217199,-443.336,0.287038,
2,1,0,1,0,7109.79,0.291322,0.291055,50.3866,4,0.019351,10,0.0146653,-1.29769,-0.287105,-0.2055,-406.303,0.291055,
2,1,0,1,0,7109.79,0.295318,0.29503,48.84,4,0.0195493,10,0.0144092,-1.31122,-0.298491,-0.197661,-382.522,0.29503,
2,1,0,1,0,7109.8,0.299013,0.298724,47.5467,4,0.0197275,10,0.0142033,-1.32288,-0.11634,-0.507136,-926.153,0.298724,
2,1,0,0,0,7109.8,0.300012,0.299785,47.1896,4,0.0197749,10,0.0141467,-1.32615,0.00258945,22.7848,36067.2,0.299785,
2,1,0,1,0,7109.8,0.298714,0.298623,43.3774,4,0.0198323,10,0.0129535,-1.36274,0.0302087,1.95308,2693.28,0.298623,
2,1,0,1,0,7109.8,0.294718,0.294598,33.2744,4,0.0199838,10,0.00980258,-1.47789,0.0333784,1.76761,2135.15,0.2945981,
2,1,0,1,0,7109.81,0.290723,0.290507,25.4171,4,0.0200999,10,0.00738384,-1.59487,0.0316478,1.86427,1862.73,0.290507,
2,1,0,1,0,7109.81,0.286728,0.286558,18.9489,4,0.0201877,10,0.00542996,-1.72242,0.0280518,2.10325,1516,0.286558,
2,1,0,1,0,7109.82,0.282733,0.282588,13.5076,4,0.0202518,10,0.00381708,-1.86942,0.022427,2.63075,1281.44,0.282588,
2,1,0,1,0,7109.82,0.278738,0.278509,8.88272,4,0.0202959,10,0.00247391,-2.05145,0.0146733,4.02091,1084.92,0.278509,
2,1,0,1,0,7109.82,0.274742,0.274511,4.9189,4,0.020323,10,0.00135029,-2.30813,0.0167306,3.52648,930.253,0.274511,
2,1,0,1,0,7109.83,0.270747,0.270497,1.52411,4,0.0203354,10,0.000412268,-2.81698,0.0467703,1.26148,805.748,0.2704972,
2,0,0,1,0,7109.83,0.266702,0.266485,-1.47255,4,0.0203351,10,-0.000392412,-2.83193,-0.151127,-0.390401,696.885,0.266485,
2,0,0,1,0,7109.84,0.262707,0.262477,-4.03442,4,0.0203237,10,-0.00105894,-2.39422,-0.0218786,-2.6967,609.204,0.262477,
2,0,0,1,0,7109.84,0.258712,0.258435,-6.28406,4,0.0203028,10,-0.00162402,-2.20176,-0.0192428,-3.06608,532.954,0.258435,
2,0,0,1,0,7109.84,0.254717,0.254445,-8.25509,4,0.0202734,10,-0.00210046,-2.08328,-0.0349942,-1.68599,470.389,0.254445,
2,0,0,1,0,7109.85,0.250722,0.250469,-10.008,4,0.0202366,10,-0.00250669,-1.99965,-0.0508038,-1.16133,418.094,0.250469,
2,0,0,1,0,7109.85,0.246726,0.246479,-11.5599,4,0.0201933,10,-0.00284927,-1.93705,-0.0675003,-0.87407,374.28,0.246479,
2,0,0,1,0,7109.86,0.242731,0.242456,-12.9649,4,0.0201441,10,-0.00314342,-1.88723,-0.0858958,-0.686879,335.022,0.2424558,
2,0,0,1,0,7109.86,0.238736,0.238486,-14.2283,4,0.0200895,10,-0.00339324,-1.84685,-0.104835,-0.562788,304.188,0.238486,
2,0,0,1,0,7109.86,0.234741,0.234466,-15.3696,4,0.0200302,10,-0.00360363,-1.81334,-0.124415,-0.47422,279.206,0.234466,
2,0,0,1,0,7109.87,0.230746,0.230491,-16.4232,4,0.0199665,10,-0.00378539,-1.78454,-0.147182,-0.400864,253.115,0.230491,
2,0,0,1,0,7109.87,0.226701,0.226473,-17.4273,4,0.0198987,10,-0.00394682,-1.75877,-0.168918,-0.349282,234.16,0.226473,
2,0,0,1,0,7109.88,0.222705,0.222396,-18.3008,4,0.0198271,10,-0.00407002,-1.73753,-0.19354,-0.304847,215.317,0.222396,
2,0,0,1,0,7109.88,0.21871,0.218437,-19.1229,4,0.0197522,10,-0.00417715,-1.71845,-0.220215,-0.26792,198.391,0.218437,
2,0,0,1,0,7109.88,0.214715,0.214422,-19.8832,4,0.0196741,10,-0.00426338,-1.70151,-0.242673,-0.243125,187.507,0.214422,
2,0,0,1,0,7109.89,0.21072,0.210435,-20.6092,4,0.019593,10,-0.0043369,-1.68594,-0.267562,-0.22051,176.43,0.210435,
2,0,0,1,0,7109.89,0.206725,0.20641,-21.2982,4,0.0195092,10,-0.00439617,-1.67166,-0.287995,-0.204865,169.579,0.20641,
2,0,0,1,0,7109.9,0.202729,0.202445,-21.9444,4,0.0194226,10,-0.00444252,-1.65868,-0.309648,-0.190539,162.745,0.202445,
2,0,0,1,0,7109.9,0.198734,0.198432,-22.5947,4,0.0193335,10,-0.00448351,-1.64599,-0.327943,-0.179909,158.251,0.198432,
2,0,0,1,0,7109.9,0.194739,0.194431,-23.2137,4,0.0192418,10,-0.00451347,-1.63425,-0.34191,-0.17256,156.042,0.194431,
2,0,0,1,0,7109.91,0.190744,0.190434,-23.8264,4,0.0191476,10,-0.00453737,-1.62294,-0.35128,-0.167957,156.151,0.190434,
2,0,0,1,0,7109.91,0.186735,0.186441,-24.4416,4,0.0190511,10,-0.00455692,-1.61187,-0.361134,-0.163374,155.82,0.186441,
2,0,0,1,0,7109.92,0.182704,0.18243,-25.0934,4,0.0189518,10,-0.00457779,-1.60044,-0.367443,-0.160569,157.048,0.18243,
2,0,0,1,0,7109.92,0.178709,0.178438,-25.7058,4,0.0188502,10,-0.00458689,-1.58997,-0.37224,-0.1585,158.945,0.178438,
2,0,0,1,0,7109.92,0.174713,0.174439,-26.3384,4,0.018746,10,-0.00459445,-1.57941,-0.374519,-0.157536,162.113,0.174439,
2,0,0,1,0,7109.93,0.170718,0.1704,-26.9912,4,0.0186393,10,-0.00459931,-1.56878,-0.368499,-0.160109,168.94,0.1704,
2,0,0,1,0,7109.93,0.166723,0.166445,-27.6848,4,0.0185299,10,-0.004608,-1.55776,-0.355876,-0.165788,179.522,0.166445,
2,0,0,1,0,7109.94,0.162728,0.162415,-28.4127,4,0.0184176,10,-0.00461465,-1.54649,-0.338087,-0.174511,194.157,0.162415,
2,0,0,1,0,7109.94,0.158733,0.158483,-29.2029,4,0.0183023,10,-0.00462817,-1.53457,-0.324159,-0.182009,208.227,0.158483,
2,0,0,1,0,7109.94,0.154737,0.15449,-30.0803,4,0.0181837,10,-0.00464711,-1.52172,-0.306362,-0.192583,226.869,0.15449,
2,0,0,1,0,7109.95,0.150742,0.150493,-31.0064,4,0.0180615,10,-0.00466625,-1.50855,-0.285723,-0.206494,251.258,0.1504931,
2,0,0,1,0,7109.95,0.146747,0.146471,-32.0299,4,0.0179353,10,-0.00469145,-1.49444,-0.270446,-0.218158,274.436,0.146471,
2,0,0,1,0,7109.96,0.142702,0.142414,-33.2404,4,0.0178047,10,-0.0047339,-1.47833,-0.253921,-0.232355,302.673,0.142414,
2,0,0,1,0,7109.96,0.138707,0.138433,-34.4869,4,0.0176692,10,-0.00477413,-1.46235,-0.23868,-0.247193,334.149,0.1384331,
2,0,0,1,0,7109.96,0.134712,0.134434,-35.867,4,0.0175283,10,-0.00482175,-1.44531,-0.228427,-0.258288,363.502,0.134434,
2,0,0,1,0,7109.97,0.130717,0.130455,-37.3818,4,0.0173817,10,-0.00487663,-1.42734,-0.217316,-0.271494,398.081,0.1304546,
2,0,0,1,0,7109.97,0.126721,0.126467,-39.037,4,0.0172288,10,-0.00493691,-1.40852,-0.209431,-0.281716,431.034,0.126467,
2,0,0,1,0,7109.98,0.122726,0.122492,-40.8327,4,0.0170689,10,-0.00500168,-1.38899,-0.204412,-0.288633,461.419,0.122492,
2,0,0,1,0,7109.98,0.118731,0.118482,-42.7431,4,0.0169016,10,-0.00506427,-1.36913,-0.201709,-0.292501,488.884,0.118482,
2,0,0,1,0,7109.98,0.114736,0.114454,-44.7647,4,0.0167264,10,-0.0051235,-1.34906,-0.201091,-0.2934,512.978,0.114454,
2,0,0,1,0,7109.99,0.110741,0.110478,-46.8542,4,0.0165429,10,-0.00517634,-1.32925,-0.202331,-0.291602,533.572,0.110478,
2,0,0,1,0,7109.99,0.106745,0.10654,-49.0156,4,0.016351,10,-0.00522214,-1.30967,-0.206427,-0.285816,546.447,0.10654,
2,0,0,1,0,7110,0.102703,0.102468,-51.2873,4,0.0161502,10,-0.00525533,-1.28999,-0.215005,-0.274412,547.36,0.102468,
2,0,0,1,0,7110,0.0987052,0.0985215,-53.471,4,0.0159405,10,-0.00526805,-1.27188,-0.225593,-0.261533,543.59,0.0985215,
2,0,0,1,0,7110,0.09471,0.0944697,-55.6162,4,0.0157221,10,-0.00525405,-1.2548,-0.240887,-0.244928,529.609,0.0944697,
2,0,0,1,0,7110.01,0.0907148,0.0904953,-57.7375,4,0.0154952,10,-0.00522497,-1.23854,-0.258647,-0.22811,511.477,0.0904953,
2,0,0,1,0,7110.01,0.0867197,0.0865114,-59.7383,4,0.01526,10,-0.00516804,-1.22375,-0.272824,-0.216257,502.296,0.0865114,
2,0,0,1,0,7110.02,0.0827245,0.0825709,-61.6294,4,0.015017,10,-0.0050888,-1.21021,-0.294579,-0.200286,480.617,0.0825709,
2,0,0,1,0,7110.02,0.0787293,0.0785912,-63.592,4,0.0147664,10,-0.00499777,-1.1966,-0.31505,-0.187272,463.123,0.0785912,
2,0,0,1,0,7110.02,0.0747341,0.0745606,-65.396,4,0.0145083,10,-0.00487596,-1.18445,-0.337908,-0.174604,443.684,0.0745606,
2,0,0,1,0,7110.03,0.070739,0.0705321,-67.1387,4,0.014243,10,-0.00473543,-1.17303,-0.372903,-0.158218,412.739,0.0705321,
2,0,0,1,0,7110.03,0.0667438,0.0665853,-68.722,4,0.0139711,10,-0.00457587,-1.1629,-0.404564,-0.145836,389.699,0.0665853,
2,0,0,1,0,7110.04,0.0627403,0.0625737,-70.203,4,0.0136931,10,-0.00439286,-1.15364,-0.448447,-0.131565,359.299,0.0625737,
2,0,0,1,0,7110.04,0.0587035,0.05854,-71.6392,4,0.0134091,10,-0.00419376,-1.14485,-0.497657,-0.118555,330.111,0.05854,
2,0,0,1,0,7110.04,0.0547083,0.0545168,-72.893,4,0.0131199,10,-0.00397389,-1.13731,-0.561398,-0.105095,297.674,0.0545168,
2,0,0,1,0,7110.05,0.0507132,0.050483,-74.0375,4,0.0128259,10,-0.00373763,-1.13055,-0.656971,-0.0898061,258.288,0.050483,
2,0,0,1,0,7110.05,0.046718,0.0464492,-75.0029,4,0.0125277,10,-0.00348382,-1.12492,-0.774404,-0.0761876,221.994,0.0464492,
2,0,0,1,0,7110.06,0.0427228,0.0424748,-75.7886,4,0.0122259,10,-0.00321911,-1.1204,-0.953172,-0.0618986,182.359,0.0424748,
2,0,0,1,0,7110.06,0.0387276,0.0384612,-76.4572,4,0.0119213,10,-0.00294063,-1.11658,-1.20101,-0.0491252,146.022,0.0384612,
2,0,0,1,0,7110.06,0.0347325,0.0344624,-76.959,4,0.0116144,10,-0.00265219,-1.11374,-1.56619,-0.0376711,112.745,0.03446237,
2,0,0,1,0,7110.07,0.0307373,0.0304646,-77.3369,4,0.0113057,10,-0.00235604,-1.11161,-2.2005,-0.026812,80.6768,0.03046464,
2,0,0,1,0,7110.07,0.0267421,0.0264595,-77.5943,4,0.0109958,10,-0.0020531,-1.11017,-3.02793,-0.0194852,58.8817,0.0264595,
2,0,0,1,0,7110.08,0.022747,0.0224787,-77.7466,4,0.0106851,10,-0.00174764,-1.10932,-5.20663,-0.0113317,34.3233,0.0224787,
2,0,0,1,0,7110.08,0.0187018,0.0184216,-77.9035,4,0.0103738,10,-0.00143511,-1.10844,-12.819,-0.00460253,13.9578,0.0184216,
2,0,0,1,0,7110.08,0.0147067,0.0144058,-77.8881,4,0.0100622,10,-0.00112204,-1.10853,62.8775,0.000938333,-2.84626,0.0144058,
2,0,0,1,0,7110.09,0.0107115,0.0104092,-77.8183,4,0.00975074,10,-0.000810024,-1.10892,7.97311,0.00739988,-22.4461,0.01040917,
2,0,0,1,0,7110.09,0.00671632,0.00641356,-77.7009,4,0.00943971,10,-0.000498339,-1.10957,5.77146,0.0102227,-30.9752,0.00641356,
2,0,0,1,0,7110.1,0.00272115,0.00240416,-77.544,4,0.00912925,10,-0.000186428,-1.11045,4.16288,0.0141729,-42.8526,0.00240416,
2,0,0,1,0,7110.1,-0.00127403,-0.00161478,-77.3919,4,0.00881931,10,0.000124971,-1.1113,3.25452,0.0181287,-54.6642,-0.00161478,
2,0,0,1,0,7110.1,-0.0052692,-0.00563796,-77.1307,4,0.0085103,10,0.00043486,-1.11277,2.66524,0.0221368,-66.532,-0.00563796,
2,0,0,1,0,7110.11,-0.00926438,-0.00956359,-76.8275,4,0.00820241,10,0.000734747,-1.11448,2.15899,0.0273276,-81.8372,-0.00956359,
2,0,0,1,0,7110.11,-0.0132596,-0.0135878,-76.48,4,0.00789583,10,0.0010392,-1.11645,1.9561,0.0301621,-89.942,-0.0135878,
2,0,0,1,0,7110.12,-0.0172547,-0.0176534,-76.0793,4,0.00759075,10,0.00134306,-1.11873,1.706,0.0345838,-102.575,-0.0176534,
2,0,0,1,0,7110.12,-0.0212915,-0.0216618,-75.6894,4,0.0072873,10,0.00163957,-1.12096,1.46465,0.0402825,-118.732,-0.0216618,
2,0,0,1,0,7110.12,-0.025295,-0.0256701,-75.1754,4,0.00698559,10,0.00192976,-1.12392,1.27162,0.0463974,-135.789,-0.0256701,
2,0,0,1,0,7110.13,-0.0292902,-0.0296138,-74.5772,4,0.00668613,10,0.00220851,-1.12739,1.1087,0.0532155,-154.611,-0.0296138,
2,0,0,1,0,7110.13,-0.0332854,-0.0336115,-73.9124,4,0.00638919,10,0.00248431,-1.13128,0.993973,0.0593577,-170.965,-0.0336115,
2,0,0,1,0,7110.14,-0.0372805,-0.0376654,-73.2151,4,0.006095,10,0.00275768,-1.1354,0.917719,0.0642898,-183.41,-0.0376654,
2,0,0,1,0,7110.14,-0.0412757,-0.0416409,-72.4449,4,0.00580374,10,0.00301667,-1.13999,0.860313,0.0685797,-193.651,-0.0416409,
2,0,0,1,0,7110.14,-0.0452709,-0.0456142,-71.6426,4,0.00551563,10,0.00326792,-1.14483,0.806491,0.0731565,-204.346,-0.0456142,
2,0,0,1,0,7110.15,-0.0492661,-0.0495971,-70.8168,4,0.00523081,10,0.00351231,-1.14986,0.787809,0.0748913,-206.88,-0.0495971,
2,0,0,1,0,7110.15,-0.0532612,-0.053615,-69.9559,4,0.00494934,10,0.00375069,-1.15518,0.781012,0.075543,-206.318,-0.053615,
2,0,0,1,0,7110.16,-0.0572564,-0.0575915,-69.1451,4,0.00467123,10,0.00398217,-1.16024,0.806051,0.0731963,-197.728,-0.0575915,
2,0,0,1,0,7110.16,-0.0612544,-0.0615978,-68.3449,4,0.00439637,10,0.00420989,-1.16529,0.834957,0.0706623,-188.716,-0.0615978,
2,0,0,1,0,7110.16,-0.0652967,-0.0656517,-67.6423,4,0.00412436,10,0.00444083,-1.16978,0.865055,0.0682037,-180.177,-0.0656517,
2,0,0,1,0,7110.17,-0.0692919,-0.0696515,-66.9295,4,0.0038553,10,0.00466174,-1.17438,0.926704,0.0636665,-166.479,-0.0696515,
2,0,0,1,0,7110.17,-0.0732871,-0.0736238,-66.2564,4,0.00358901,10,0.00487805,-1.17877,0.983632,0.0599818,-155.425,-0.0736238,
2,0,0,1,0,7110.18,-0.0772822,-0.0776301,-65.6758,4,0.00332522,10,0.00509842,-1.18259,1.08915,0.0541705,-139.135,-0.07763005,
2,0,0,1,0,7110.18,-0.0812774,-0.0816002,-65.1635,4,0.00306363,10,0.00531736,-1.186,1.24789,0.04728,-120.471,-0.0816002,
2,0,0,1,0,7110.18,-0.0852726,-0.0856138,-64.7086,4,0.00280393,10,0.00553995,-1.18904,1.42405,0.0414312,-104.832,-0.0856138,
2,0,0,1,0,7110.19,-0.0892678,-0.0896021,-64.3315,4,0.00254589,10,0.00576424,-1.19158,1.66809,0.0353698,-88.9655,-0.0896021,
2,0,0,1,0,7110.19,-0.0932629,-0.0936221,-63.9994,4,0.0022893,10,0.00599175,-1.19382,2.0552,0.0287077,-71.8511,-0.0936221,
2,0,0,1,0,7110.2,-0.0972581,-0.0975731,-63.7425,4,0.00203385,10,0.00621956,-1.19557,2.79521,0.0211075,-52.6449,-0.0975731,
2,0,0,1,0,7110.2,-0.101253,-0.101631,-63.5577,4,0.00177929,10,0.00645946,-1.19683,3.85277,0.0153137,-38.0664,-0.101631,
2,0,0,1,0,7110.2,-0.105298,-0.105654,-63.4864,4,0.00152523,10,0.00670763,-1.19732,5.75229,0.0102568,-25.4338,-0.105654,
2,0,0,1,0,7110.21,-0.109294,-0.109635,-63.3898,4,0.00127148,10,0.00694976,-1.19798,10.2339,0.00576518,-14.2746,-0.109635,
2,0,0,1,0,7110.21,-0.113289,-0.113596,-63.335,4,0.00101808,10,0.00719459,-1.19836,25.4264,0.00232042,-5.74509,-0.113596,
2,0,0,1,0,7110.22,-0.117284,-0.117644,-63.3292,4,0.000764756,10,0.00745033,-1.1984,-30.0487,-0.00196348,4.86044,-0.1176445,
2,0,0,1,0,7110.22,-0.121279,-0.121639,-63.3946,4,0.000511317,10,0.00771126,-1.19795,-9.3975,-0.00627827,15.5489,-0.121639,
2,0,0,1,0,7110.22,-0.125274,-0.125636,-63.4676,4,0.000257609,10,0.00797379,-1.19745,-5.70723,-0.0103378,25.6326,-0.125636,
2,0,0,1,0,7110.23,-0.129269,-0.129592,-63.5837,4,3.48007e-06,10,0.00823995,-1.19665,-4.46604,-0.0132108,32.8196,-0.129592,
2,0,0,1,0,7110.23,-0.133265,-0.133604,-63.7382,4,-0.000251176,10,0.00851566,-1.1956,-3.40539,-0.0173255,43.1464,-0.133604,
2,0,0,1,0,7110.24,-0.13726,-0.137606,-63.9186,4,-0.000506497,10,0.00879556,-1.19437,-2.74308,-0.0215087,53.7331,-0.137606,
2,0,0,1,0,7110.24,-0.141255,-0.141587,-64.1558,4,-0.000762661,10,0.00908366,-1.19276,-2.43848,-0.0241954,60.6434,-0.141587,
2,0,0,1,0,7110.24,-0.145286,-0.145588,-64.4432,4,-0.00101981,10,0.00938218,-1.19082,-2.22344,-0.0265354,66.7443,-0.145588,
2,0,0,1,0,7110.25,-0.149295,-0.149614,-64.7091,4,-0.00127819,10,0.00968137,-1.18903,-2.13385,-0.0276496,69.8306,-0.149614,
2,0,0,1,0,7110.25,-0.15329,-0.15358,-64.9848,4,-0.0015376,10,0.00998034,-1.18719,-2.06978,-0.0285054,72.335,-0.15358,
2,0,0,1,0,7110.26,-0.157286,-0.157602,-65.2741,4,-0.00179814,10,0.0102873,-1.18526,-1.93802,-0.0304434,77.6148,-0.1576017,
2,0,0,1,0,7110.26,-0.161281,-0.161628,-65.6035,4,-0.00205992,10,0.0106034,-1.18307,-1.86246,-0.0316786,81.14,-0.161628,
2,0,0,1,0,7110.26,-0.165276,-0.165564,-65.9471,4,-0.00232304,10,0.0109185,-1.1808,-1.7773,-0.0331964,85.4459,-0.1655643,
2,0,0,1,0,7110.27,-0.169271,-0.169546,-66.2803,4,-0.00258752,10,0.0112376,-1.17862,-1.72393,-0.0342242,88.5602,-0.169546,
2,0,0,1,0,7110.27,-0.173266,-0.173552,-66.637,4,-0.0028534,10,0.011565,-1.17628,-1.69139,-0.0348826,90.7629,-0.173552,
2,0,0,1,0,7110.28,-0.177261,-0.177511,-67.0101,4,-0.00312071,10,0.011895,-1.17386,-1.62017,-0.0364159,95.278,-0.177511,
2,0,0,1,0,7110.28,-0.181257,-0.181567,-67.3996,4,-0.00338957,10,0.0122375,-1.17134,-1.51663,-0.0389021,102.413,-0.181567,
2,0,0,1,0,7110.28,-0.185252,-0.185568,-67.8068,4,-0.00366003,10,0.0125828,-1.16873,-1.50465,-0.0392117,103.821,-0.185568,
2,0,0,1,0,7110.29,-0.189297,-0.189601,-68.2806,4,-0.0039323,10,0.012946,-1.1657,-1.45764,-0.0404763,107.826,-0.189601,
2,0,0,1,0,7110.29,-0.193292,-0.193628,-68.6833,4,-0.00420626,10,0.013299,-1.16315,-1.425,-0.0414036,110.877,-0.193628,
2,0,0,1,0,7110.3,-0.197287,-0.197569,-69.1251,4,-0.00448193,10,0.013657,-1.16036,-2.04901,-0.0287944,77.2021,-0.197569,
2,0,0,0,0,7110.3,-0.199984,-0.200265,-69.4364,4,-0.00466898,10,0.0139057,-1.15841,0.0652118,0.904744,-2277.69,-0.200265,
2,0,0,0,1,7110.3,-0.199984,-0.200494,-69.1216,4,-0.0047105,10,0.0138585,-1.16039,-0.0360439,-1.63689,3849.24,-0.200494,
2,0,0,1,1,7110.3,-0.196688,-0.19722,-60.5028,4,-0.00490823,10,0.0119323,-1.21822,-0.0592776,-0.995316,2189.99,-0.19722,
2,0,0,1,1,7110.31,-0.192693,-0.193167,-52.1778,4,-0.00513232,10,0.010079,-1.28251,-0.061214,-0.963832,1973.78,-0.1931667,
2,0,0,1,1,7110.31,-0.188698,-0.189139,-45.0711,4,-0.00532587,10,0.00852472,-1.3461,-0.0615762,-0.958163,1698.87,-0.189139,
2,0,0,1,1,7110.31,-0.184653,-0.185101,-38.7396,4,-0.00549268,10,0.00717074,-1.41185,-0.0592889,-0.995127,1507.37,-0.185101,
2,0,0,1,1,7110.32,-0.180657,-0.181089,-33.0986,4,-0.00563564,10,0.00599377,-1.48019,-0.0555621,-1.06188,1365.05,-0.181089,
2,0,0,1,1,7110.32,-0.176662,-0.177095,-27.9521,4,-0.00575712,10,0.00495018,-1.55359,-0.0509463,-1.15808,1245.98,-0.177095,
2,0,0,1,1,7110.33,-0.172667,-0.173123,-23.208,4,-0.00585884,10,0.00401783,-1.63436,-0.0453274,-1.30164,1151.11,-0.173123,
2,0,0,1,1,7110.33,-0.168672,-0.169085,-18.7835,4,-0.00594231,10,0.00317601,-1.72622,-0.0388593,-1.5183,1070.36,-0.169085,
2,0,0,1,1,7110.33,-0.164677,-0.165095,-14.6876,4,-0.00600877,10,0.00242485,-1.83305,-0.0315415,-1.87055,1000,-0.165095,
2,0,0,1,1,7110.34,-0.160682,-0.161106,-10.8383,4,-0.00605933,10,0.00174611,-1.96504,-0.0231277,-2.55105,935.55,-0.161106,
2,0,0,1,1,7110.34,-0.156686,-0.157143,-7.22758,4,-0.00609506,10,0.00113576,-2.14101,-0.0114408,-5.15699,883.411,-0.157143,
2,0,0,1,1,7110.35,-0.152691,-0.153093,-3.82219,4,-0.00611676,10,0.000585151,-2.41769,-0.024993,-2.36067,835.227,-0.153093,
2,0,0,1,1,7110.35,-0.148696,-0.149139,-0.591965,4,-0.00612521,10,8.82849e-05,-3.2277,-0.127001,-0.464565,789.499,-0.149139,
2,1,0,1,1,7110.35,-0.14467,-0.145147,2.49123,4,-0.00612112,10,-0.000361596,-2.60359,0.0484853,1.21686,750.735,-0.145147,
2,1,0,1,1,7110.36,-0.140656,-0.141139,5.4073,4,-0.00610494,10,-0.00076318,-2.26702,0.012682,4.65227,710.011,-0.141139,
2,1,0,1,1,7110.36,-0.136661,-0.137142,8.15252,4,-0.00607751,10,-0.00111805,-2.08871,0.0219656,2.68602,674.867,-0.1371422,
2,1,0,1,1,7110.37,-0.132665,-0.133174,10.7429,4,-0.00603942,10,-0.00143068,-1.96888,0.034549,1.70772,642.83,-0.133174,
2,1,0,1,1,7110.37,-0.12867,-0.129204,13.2508,4,-0.00599116,10,-0.00171205,-1.87776,0.0465346,1.26787,614.611,-0.129204,
2,1,0,1,1,7110.37,-0.124675,-0.125174,15.6697,4,-0.00593304,10,-0.00196145,-1.80494,0.0585463,1.00775,588.383,-0.125174,
2,1,0,1,1,7110.38,-0.12068,-0.121169,17.9696,4,-0.0058655,10,-0.00217737,-1.74546,0.0713565,0.826834,560.332,-0.121169,
2,1,0,1,1,7110.38,-0.116685,-0.117171,20.1592,4,-0.00578901,10,-0.00236206,-1.69553,0.084324,0.699682,536.881,-0.117171,
2,1,0,1,1,7110.39,-0.112689,-0.113139,22.2526,4,-0.00570396,10,-0.00251763,-1.65262,0.0980436,0.601773,512.568,-0.113139,
2,1,0,1,1,7110.39,-0.108694,-0.109138,24.2794,4,-0.00561065,10,-0.00264981,-1.61476,0.111705,0.528176,492.655,-0.109138,
2,1,0,1,1,7110.39,-0.104699,-0.10512,26.196,4,-0.00550948,10,-0.00275372,-1.58177,0.126664,0.465799,469.778,-0.10512,
2,1,0,1,1,7110.4,-0.100654,-0.101098,28.0775,4,-0.00540066,10,-0.00283857,-1.55164,0.142541,0.413915,447.788,-0.101098,
2,1,0,1,1,7110.4,-0.0966588,-0.0970758,29.7987,4,-0.0052847,10,-0.00289273,-1.5258,0.158316,0.372672,429.056,-0.0970758,
2,1,0,1,1,7110.41,-0.0926637,-0.0930759,31.4718,4,-0.00516197,10,-0.00292927,-1.50208,0.1764,0.334467,407.703,-0.0930759,
2,1,0,1,1,7110.41,-0.0886685,-0.0890962,33.0711,4,-0.00503271,10,-0.00294651,-1.48055,0.192105,0.307124,393.599,-0.0890962,
2,1,0,1,1,7110.41,-0.0846733,-0.085054,34.6186,4,-0.00489715,10,-0.00294445,-1.46069,0.210844,0.279828,375.5,-0.085054,
2,1,0,1,1,7110.42,-0.0806781,-0.0811241,36.0772,4,-0.00475561,10,-0.00292673,-1.44277,0.230547,0.255913,358.275,-0.08112409,
2,1,0,1,1,7110.42,-0.076683,-0.0771009,37.4704,4,-0.00460836,10,-0.002889,-1.42631,0.249723,0.236262,343.908,-0.0771009,
2,1,0,1,1,7110.43,-0.0726878,-0.0730289,38.8276,4,-0.00445561,10,-0.00283554,-1.41086,0.27041,0.218187,329.157,-0.0730289,
2,1,0,1,1,7110.43,-0.0686926,-0.06908,40.1122,4,-0.00429758,10,-0.00277095,-1.39672,0.287751,0.205038,319.962,-0.06908,
2,1,0,1,1,7110.43,-0.0646974,-0.0650939,41.3537,4,-0.00413449,10,-0.00269187,-1.38349,0.3112,0.189588,304.989,-0.06509392,
2,1,0,1,1,7110.44,-0.0606523,-0.0610368,42.6103,4,-0.00396647,10,-0.0026008,-1.37049,0.335757,0.175722,290.783,-0.0610368,
2,1,0,1,1,7110.44,-0.0566571,-0.0570242,43.7089,4,-0.00379371,10,-0.00249246,-1.35943,0.363068,0.162504,276.114,-0.0570242,
2,1,0,1,1,7110.45,-0.052662,-0.0530424,44.7757,4,-0.00361662,10,-0.00237501,-1.34896,0.397316,0.148496,258.785,-0.0530424,
2,1,0,1,1,7110.45,-0.0486668,-0.0490044,45.7962,4,-0.00343539,10,-0.00224422,-1.33917,0.420401,0.140342,250.153,-0.0490044,
2,1,0,1,1,7110.45,-0.0446716,-0.0449939,46.762,4,-0.00325013,10,-0.002104,-1.33011,0.453293,0.130159,236.929,-0.0449939,
2,1,0,1,1,7110.46,-0.0406764,-0.0410937,47.6939,4,-0.0030611,10,-0.00195992,-1.32154,0.4848,0.1217,225.945,-0.0410937,
2,1,0,1,1,7110.46,-0.0366813,-0.0370674,48.5606,4,-0.00286849,10,-0.00180001,-1.31372,0.517774,0.113949,215.476,-0.0370674,
2,1,0,1,1,7110.47,-0.0326861,-0.0330877,49.3925,4,-0.00267247,10,-0.00163428,-1.30634,0.564058,0.104599,201.198,-0.0330877,
2,1,0,1,1,7110.47,-0.0286909,-0.029109,50.1848,4,-0.00247324,10,-0.00146083,-1.29943,0.59789,0.0986803,192.888,-0.029109,
2,1,0,1,1,7110.47,-0.0246957,-0.0250848,50.9149,4,-0.00227094,10,-0.00127719,-1.29316,0.645986,0.0913332,181.196,-0.0250848,
2,1,0,1,1,7110.48,-0.0206756,-0.0210945,51.6416,4,-0.00206576,10,-0.00108935,-1.287,0.705478,0.0836313,168.163,-0.0210945,
2,1,0,1,1,7110.48,-0.0166554,-0.0170204,52.3039,4,-0.00185776,10,-0.000890231,-1.28147,0.758398,0.0777956,158.415,-0.0170204,
2,1,0,1,1,7110.49,-0.0126603,-0.0130576,52.884,4,-0.00164729,10,-0.00069054,-1.27668,0.841678,0.0700981,144.431,-0.01305763,
2,1,0,1,1,7110.49,-0.0086651,-0.00902066,53.4597,4,-0.00143453,10,-0.000482242,-1.27197,0.920989,0.0640616,133.362,-0.009020661,
2,1,0,1,1,7110.49,-0.00466992,-0.00500702,53.9651,4,-0.00121964,10,-0.000270204,-1.26789, , , ,-0.00500702,
2,1,0,1,1,7110.5,-0.000974387,-0.0013449,54.3944,4,-0.00101915,10,-7.31553e-05,-1.26445, , , ,-0.001344905,
2,1,0,0,1,7110.5,-0.000175352,-0.000649808,54.476,4,-0.000975611,10,-3.53989e-05,-1.2638, , , ,-0.000649808,