File: Figure_codes/Fig_3-5/rawdata_trumpetplot_data/after 10th/20221101_1-115_003_TrumpetPlot_ParaChange_from10_every3_12_CV_C01_4.csv
mode,ox/red,error,control changes,counter inc.,time/s,control/V,Ewe/V,<I>/mA,cycle number,(Q-Qo)/C,I Range,P/W,log(|I|),Tafel slope mV/dec,alpha_eff,dI/d(E-IR),E-IR/V,
2,1,0,1,0,9077.04,2.44065e-05,-0.000153538,19.035,5,0.0000000E+000,10,-2.92259e-06,-1.72045, , , ,-0.000153538,
2,1,0,1,0,9077.05,0.00200257,0.00161204,20.1146,5,6.10956e-05,10,3.24255e-05,-1.69649, , , ,0.00161204,
2,1,0,1,0,9077.05,0.004408,0.00407324,21.1269,5,0.000143768,10,8.6055e-05,-1.67516, , , ,0.00407324,
2,1,0,1,0,9077.05,0.0068051,0.00650794,21.9013,5,0.000229927,10,0.000142532,-1.65953,0.155217,0.380112,320.844,0.00650794,
2,1,0,1,0,9077.06,0.00920221,0.00886098,22.5944,5,0.000319018,10,0.000200208,-1.646,0.185785,0.317572,278.04,0.00886098,
2,1,0,1,0,9077.06,0.0115993,0.0112776,23.2157,5,0.000410721,10,0.000261819,-1.63422,0.210826,0.279852,252.142,0.0112776,
2,1,0,1,0,9077.07,0.0140075,0.0136636,23.7934,5,0.000504809,10,0.000325102,-1.62354,0.240073,0.245758,226.956,0.0136636,
2,1,0,1,0,9077.07,0.0164046,0.0160739,24.3132,5,0.000601067,10,0.000390808,-1.61416,0.267054,0.220929,208.696,0.0160739,
2,1,0,1,0,9077.07,0.0188017,0.0184237,24.7647,5,0.000699299,10,0.000456258,-1.60617,0.297355,0.198416,191.29,0.0184237,
2,1,0,1,0,9077.08,0.0212099,0.020887,25.2212,5,0.000799303,10,0.000526796,-1.59823,0.325722,0.181136,177.832,0.020887,
2,1,0,1,0,9077.08,0.023607,0.0232952,25.6358,5,0.000901054,10,0.000597193,-1.59115,0.347597,0.169737,169.383,0.0232952,
2,1,0,1,0,9077.09,0.0260041,0.0256599,26.0179,5,0.0010044,10,0.000667619,-1.58473,0.376621,0.156656,158.83,0.0256599,
2,1,0,1,0,9077.09,0.0284012,0.0280342,26.3926,5,0.00110925,10,0.000739894,-1.57852,0.400428,0.147342,151.547,0.0280342,
2,1,0,1,0,9077.09,0.0308067,0.030523,26.7516,5,0.0012156,10,0.000816539,-1.57265,0.41951,0.14064,146.635,0.030523,
2,1,0,1,0,9077.1,0.0332038,0.0328675,27.0865,5,0.0013233,10,0.000890265,-1.56725,0.436495,0.135168,142.816,0.0328675,
2,1,0,1,0,9077.1,0.0356009,0.0352577,27.4253,5,0.00143234,10,0.000966953,-1.56185,0.448008,0.131694,140.916,0.0352577,
2,1,0,1,0,9077.11,0.0380091,0.0376478,27.7655,5,0.00154275,10,0.00104531,-1.55649,0.460795,0.12804,138.651,0.0376478,
2,1,0,1,0,9077.11,0.0404062,0.0400528,28.0946,5,0.00165449,10,0.00112527,-1.55138,0.474488,0.124345,136.245,0.0400528,
2,1,0,1,0,9077.11,0.0428033,0.0424695,28.4178,5,0.00176754,10,0.00120689,-1.54641,0.479464,0.123054,136.464,0.0424695,
2,1,0,1,0,9077.12,0.0452032,0.0448798,28.7363,5,0.00188187,10,0.00128968,-1.54157,0.486002,0.121399,136.208,0.0448798,
2,1,0,1,0,9077.12,0.0476058,0.0472509,29.076,5,0.00199754,10,0.00137387,-1.53647,0.484554,0.121761,138.161,0.0472509,
2,1,0,1,0,9077.13,0.0500029,0.0497375,29.4137,5,0.00211455,10,0.00146296,-1.53145,0.473466,0.124613,143.05,0.0497375,
2,1,0,1,0,9077.13,0.0524,0.0520492,29.7413,5,0.0022329,10,0.00154801,-1.52664,0.482082,0.122386,142.112,0.0520492,
2,1,0,1,0,9077.13,0.0548082,0.0544362,30.1033,5,0.0023526,10,0.00163871,-1.52139,0.478063,0.123415,144.976,0.0544362,
2,1,0,1,0,9077.14,0.0572053,0.056855,30.4409,5,0.00247373,10,0.00173072,-1.51654,0.473019,0.124731,148.22,0.056855,
2,1,0,1,0,9077.14,0.0596024,0.0592791,30.797,5,0.00259622,10,0.00182562,-1.51149,0.478505,0.123301,148.279,0.0592791,
2,1,0,1,0,9077.15,0.0620051,0.0616692,31.1672,5,0.00272017,10,0.00192206,-1.5063,0.468869,0.125835,153.062,0.0616692,
2,1,0,1,0,9077.15,0.0644077,0.0640986,31.5361,5,0.00284561,10,0.00202142,-1.50119,0.467985,0.126072,155.156,0.0640986,
2,1,0,1,0,9077.15,0.0668048,0.0664262,31.9059,5,0.00297251,10,0.00211939,-1.49613,0.46471,0.126961,158.149,0.0664262,
2,1,0,1,0,9077.16,0.0692019,0.0688598,32.2835,5,0.00310093,10,0.00222304,-1.49102,0.462608,0.127538,160.752,0.0688598,
2,1,0,1,0,9077.16,0.0716074,0.0712351,32.6801,5,0.00323087,10,0.00232797,-1.48572,0.46536,0.126784,161.678,0.07123515,
2,1,0,1,0,9077.17,0.0740045,0.0736349,33.069,5,0.00336241,10,0.00243503,-1.48058,0.457991,0.128823,166.283,0.0736349,
2,1,0,1,0,9077.17,0.0764016,0.0760239,33.4576,5,0.00349551,10,0.00254358,-1.47551,0.456146,0.129345,169.041,0.0760239,
2,1,0,1,0,9077.17,0.0788042,0.078447,33.8777,5,0.00363021,10,0.0026576,-1.47009,0.457431,0.128981,170.572,0.078447,
2,1,0,1,0,9077.18,0.0812069,0.0808626,34.3075,5,0.00376663,10,0.00277419,-1.46461,0.454734,0.129746,173.631,0.0808626,
2,1,0,1,0,9077.18,0.083604,0.0832888,34.7157,5,0.00390471,10,0.00289143,-1.45947,0.458588,0.128656,174.293,0.0832888,
2,1,0,1,0,9077.19,0.0860011,0.0856927,35.1364,5,0.00404445,10,0.00301094,-1.45424,0.467569,0.126185,172.998,0.0856927,
2,1,0,1,0,9077.19,0.0884065,0.0881062,35.5612,5,0.0041859,10,0.00313316,-1.44902,0.469022,0.125794,174.473,0.0881062,
2,1,0,1,0,9077.19,0.0908036,0.0904402,35.9644,5,0.00432898,10,0.00325263,-1.44413,0.478662,0.12326,172.942,0.0904402,
2,1,0,1,0,9077.2,0.0932007,0.0927996,36.3751,5,0.00447369,10,0.00337559,-1.4392,0.472627,0.124834,177.329,0.0927996,
2,1,0,1,0,9077.2,0.0956034,0.0951876,36.7785,5,0.00462002,10,0.00350085,-1.43441,0.46722,0.126279,181.495,0.0951876,
2,1,0,1,0,9077.21,0.098006,0.0976212,37.2485,5,0.00476815,10,0.00363624,-1.42889,0.469192,0.125748,182.806,0.09762124,
2,1,0,1,0,9077.21,0.100403,0.100026,37.7042,5,0.00491809,10,0.00377141,-1.42361,0.458915,0.128564,189.082,0.100026,
2,1,0,1,0,9077.21,0.1028,0.102446,38.1385,5,0.00506981,10,0.00390714,-1.41864,0.472518,0.124863,185.84,0.102446,
2,1,0,1,0,9077.22,0.105208,0.104852,38.6059,5,0.00522335,10,0.00404791,-1.41335,0.484495,0.121776,183.358,0.104852,
2,1,0,1,0,9077.22,0.107606,0.107254,39.0386,5,0.00537868,10,0.00418705,-1.40851,0.483073,0.122135,186.013,0.107254,
2,1,0,1,0,9077.23,0.110003,0.109664,39.4714,5,0.00553573,10,0.00432861,-1.40372,0.501838,0.117568,181.1,0.109664,
2,1,0,1,0,9077.23,0.112408,0.112049,39.9248,5,0.00569456,10,0.00447354,-1.39876,0.496738,0.118775,185.048,0.112049,
2,1,0,1,0,9077.23,0.114805,0.114466,40.3469,5,0.00585516,10,0.00461834,-1.39419,0.491841,0.119958,189.01,0.114466,
2,1,0,1,0,9077.24,0.117202,0.116856,40.8155,5,0.00601753,10,0.00476953,-1.38918,0.488416,0.120799,192.544,0.116856,
2,1,0,1,0,9077.24,0.119599,0.119278,41.2885,5,0.00618179,10,0.00492481,-1.38417,0.474438,0.124358,200.442,0.119278,
2,1,0,1,0,9077.25,0.122008,0.121647,41.7728,5,0.00634798,10,0.00508153,-1.37911,0.47673,0.12376,201.791,0.121647,
2,1,0,1,0,9077.25,0.124405,0.124052,42.2683,5,0.0065161,10,0.00524347,-1.37398,0.463954,0.127168,209.865,0.124052,
2,1,0,1,0,9077.25,0.126802,0.126481,42.7578,5,0.00668619,10,0.00540806,-1.36898,0.456382,0.129278,215.96,0.126481,
2,1,0,1,0,9077.26,0.129207,0.128863,43.3001,5,0.00685835,10,0.00557977,-1.36351,0.44933,0.131306,222.024,0.128863,
2,1,0,1,0,9077.26,0.131604,0.131275,43.8522,5,0.0070327,10,0.00575671,-1.35801,0.433727,0.13603,232.849,0.131275,
2,1,0,1,0,9077.27,0.134001,0.13366,44.4016,5,0.00720928,10,0.00593473,-1.3526,0.432355,0.136462,236.619,0.13366,
2,1,0,1,0,9077.27,0.136399,0.136034,44.9822,5,0.00738812,10,0.00611913,-1.34696,0.42604,0.138485,243.233,0.136034,
2,1,0,1,0,9077.27,0.138807,0.138495,45.5791,5,0.00756931,10,0.00631246,-1.34123,0.421124,0.140101,249.262,0.138495,
2,1,0,1,0,9077.28,0.141204,0.140834,46.1771,5,0.00775287,10,0.0065033,-1.33557,0.419519,0.140637,253.519,0.140834,
2,1,0,1,0,9077.28,0.143601,0.143263,46.7953,5,0.00793886,10,0.00670405,-1.3298,0.421596,0.139944,255.552,0.143263,
2,1,0,1,0,9077.29,0.146009,0.145646,47.4189,5,0.00812736,10,0.00690638,-1.32405,0.428421,0.137715,254.718,0.145646,
2,1,0,1,0,9077.29,0.148406,0.148061,48.0237,5,0.00831829,10,0.00711041,-1.31854,0.436015,0.135316,253.514,0.148061,
2,1,0,1,0,9077.29,0.150803,0.150463,48.6299,5,0.00851167,10,0.00731703,-1.3131,0.443926,0.132905,252.188,0.150463,
2,1,0,1,0,9077.3,0.153206,0.15289,49.2357,5,0.00870745,10,0.00752763,-1.30772,0.454564,0.129795,249.309,0.15289,
2,1,0,1,0,9077.3,0.155606,0.155254,49.842,5,0.00890568,10,0.00773819,-1.3024,0.469604,0.125638,244.163,0.155254,
2,1,0,1,0,9077.31,0.158003,0.157714,50.4305,5,0.00910629,10,0.00795362,-1.29731,0.485865,0.121433,238.741,0.157714,
2,1,0,1,0,9077.31,0.1604,0.160092,50.9809,5,0.00930917,10,0.00816162,-1.29259,0.508422,0.116045,230.71,0.160092,
2,1,0,1,0,9077.31,0.162808,0.162519,51.5347,5,0.00951425,10,0.00837538,-1.2879,0.532119,0.110877,222.785,0.162519,
2,1,0,1,0,9077.32,0.165205,0.164858,52.0578,5,0.00972149,10,0.00858217,-1.28351,0.557705,0.105791,214.697,0.164858,
2,1,0,1,0,9077.32,0.167602,0.167244,52.5536,5,0.00993073,10,0.0087893,-1.2794,0.601494,0.0980891,200.929,0.167244,
2,1,0,1,0,9077.33,0.170008,0.169661,53.0353,5,0.010142,10,0.00899802,-1.27543,0.659398,0.0894755,184.863,0.169661,
2,1,0,1,0,9077.33,0.172405,0.172065,53.4527,5,0.010355,10,0.00919734,-1.27203,0.730407,0.0807769,168.205,0.172065,
2,1,0,1,0,9077.33,0.174802,0.174455,53.8319,5,0.0105696,10,0.00939124,-1.26896,0.850562,0.0693659,145.466,0.174455,
2,1,0,1,0,9077.34,0.177199,0.176841,54.1678,5,0.0107857,10,0.00957909,-1.26626,1.01056,0.0583837,123.141,0.176841,
2,1,0,1,0,9077.34,0.179607,0.179315,54.4396,5,0.0110029,10,0.00976184,-1.26408,1.33145,0.0443125,93.8763,0.179315,
2,1,0,1,0,9077.35,0.182005,0.181703,54.6396,5,0.0112212,10,0.00992817,-1.26249,2.15879,0.0273301,58.0741,0.181703,
2,1,0,1,0,9077.35,0.184402,0.184098,54.7372,5,0.01144,10,0.010077,-1.26172,7.05946,0.00835758,17.7843,0.184098,
2,1,0,1,0,9077.35,0.18681,0.186484,54.7279,5,0.0116589,10,0.0102059,-1.26179,-4.1193,-0.0143228,-30.4609,0.186484,
2,1,0,1,0,9077.36,0.189207,0.188866,54.6095,5,0.0118776,10,0.0103139,-1.26273,-1.55624,-0.0379119,-80.4163,0.188866,
2,1,0,1,0,9077.36,0.191604,0.191238,54.3491,5,0.0120955,10,0.0103936,-1.26481,-0.920926,-0.064066,-135.207,0.191238,
2,1,0,1,0,9077.37,0.194001,0.193687,53.9661,5,0.0123122,10,0.0104525,-1.26788,-0.630391,-0.0935928,-196.006,0.193687,
2,1,0,1,0,9077.37,0.196407,0.19608,53.4305,5,0.012527,10,0.0104766,-1.27221,-0.477002,-0.123689,-256.341,0.19608,
2,1,0,1,0,9077.37,0.198804,0.198483,52.7245,5,0.0127393,10,0.0104649,-1.27799,-0.378696,-0.155798,-318.729,0.198483,
2,1,0,1,0,9077.38,0.201201,0.200883,51.8768,5,0.0129484,10,0.0104212,-1.28503,-0.31421,-0.187772,-378.028,0.200883,
2,1,0,1,0,9077.38,0.203609,0.203295,50.9036,5,0.0131539,10,0.0103485,-1.29325,-0.270715,-0.217942,-430.514,0.203295,
2,1,0,1,0,9077.39,0.206006,0.205726,49.7838,5,0.0133552,10,0.0102418,-1.30291,-0.235627,-0.250396,-483.862,0.205726,
2,1,0,1,0,9077.39,0.208403,0.208148,48.5634,5,0.0135518,10,0.0101084,-1.31369,-0.212087,-0.278187,-524.712,0.208148,
2,1,0,1,0,9077.39,0.210803,0.210497,47.2247,5,0.0137432,10,0.00994066,-1.32583,-0.195017,-0.302538,-555.527,0.210497,
2,1,0,1,0,9077.4,0.213206,0.212935,45.8454,5,0.0139293,10,0.00976209,-1.3387,-0.179865,-0.328025,-585.134,0.212935,
2,1,0,1,0,9077.4,0.215603,0.215385,44.4184,5,0.0141097,10,0.00956705,-1.35244,-0.172994,-0.341051,-590.051,0.215385,
2,1,0,1,0,9077.41,0.218,0.217715,42.9654,5,0.0142843,10,0.00935423,-1.36688,-0.166427,-0.35451,-593.822,0.217715,
2,1,0,1,0,9077.41,0.220408,0.220101,41.5578,5,0.0144532,10,0.00914692,-1.38135,-0.161337,-0.365695,-592.623,0.220101,
2,1,0,1,0,9077.41,0.222805,0.222572,40.1227,5,0.0146164,10,0.00893019,-1.39661,-0.161656,-0.364972,-571.901,0.222572,
2,1,0,1,0,9077.42,0.225202,0.224937,38.7576,5,0.014774,10,0.00871801,-1.41164,-0.161026,-0.366399,-555.268,0.224937,
2,1,0,1,0,9077.42,0.227605,0.227338,37.4625,5,0.0149263,10,0.00851663,-1.4264,-0.162888,-0.362212,-530.596,0.227338,
2,1,0,1,0,9077.43,0.230008,0.229701,36.2272,5,0.0150735,10,0.00832144,-1.44096,-0.166894,-0.353517,-500.988,0.229701,
2,1,0,1,0,9077.43,0.232405,0.232112,35.0611,5,0.015216,10,0.00813809,-1.45517,-0.172524,-0.341981,-469.396,0.232112,
2,1,0,1,0,9077.43,0.234802,0.234489,33.9721,5,0.0153539,10,0.00796608,-1.46888,-0.179958,-0.327855,-436.204,0.234489,
2,1,0,1,0,9077.44,0.237207,0.236901,32.9733,5,0.0154877,10,0.00781141,-1.48184,-0.188431,-0.313111,-404.307,0.2369014,
2,1,0,1,0,9077.44,0.239604,0.239298,32.0411,5,0.0156176,10,0.00766738,-1.49429,-0.200293,-0.294569,-369.721,0.239298,
2,1,0,1,0,9077.45,0.242002,0.241693,31.1871,5,0.0157439,10,0.00753772,-1.50602,-0.211316,-0.279203,-341.101,0.241693,
2,1,0,1,0,9077.45,0.244404,0.244111,30.4146,5,0.015867,10,0.00742454,-1.51692,-0.223604,-0.263859,-314.124,0.244111,
2,1,0,1,0,9077.45,0.246807,0.246521,29.6919,5,0.0159871,10,0.00731968,-1.52736,-0.237892,-0.248012,-288.286,0.246521,
2,1,0,1,0,9077.46,0.249204,0.248922,29.0179,5,0.0161045,10,0.00722321,-1.53733,-0.252672,-0.233504,-265.446,0.248922,
2,1,0,1,0,9077.46,0.251601,0.251277,28.4242,5,0.0162193,10,0.00714236,-1.54631,-0.269632,-0.218817,-243.476,0.251277,
2,1,0,1,0,9077.47,0.254006,0.253663,27.879,5,0.0163318,10,0.00707188,-1.55472,-0.289331,-0.203919,-222.345,0.253663,
2,1,0,1,0,9077.47,0.256404,0.256092,27.3618,5,0.0164422,10,0.00700712,-1.56286,-0.310427,-0.190061,-203.489,0.256092,
2,1,0,1,0,9077.47,0.258801,0.258508,26.8865,5,0.0165507,10,0.00695039,-1.57047,-0.33227,-0.177566,-186.884,0.258508,
2,1,0,1,0,9077.48,0.261203,0.260898,26.4664,5,0.0166573,10,0.00690505,-1.5773,-0.357018,-0.165258,-171.11,0.260898,
2,1,0,1,0,9077.48,0.263606,0.263305,26.077,5,0.0167623,10,0.00686622,-1.58374,-0.380014,-0.155257,-158.271,0.263305,
2,1,0,1,0,9077.49,0.266003,0.265705,25.7168,5,0.0168659,10,0.00683308,-1.58978,-0.40607,-0.145295,-146.063,0.2657052,
2,1,0,1,0,9077.49,0.2684,0.268092,25.3697,5,0.016968,10,0.00680141,-1.59569,-0.433995,-0.135946,-134.891,0.268092,
2,1,0,1,0,9077.49,0.270808,0.270499,25.0641,5,0.0170689,10,0.00677982,-1.60095,-0.457689,-0.128909,-126.301,0.270499,
2,1,0,1,0,9077.5,0.273205,0.272898,24.7831,5,0.0171685,10,0.00676325,-1.60584,-0.499513,-0.118115,-114.384,0.272898,
2,1,0,1,0,9077.5,0.275603,0.275314,24.5032,5,0.017267,10,0.00674607,-1.61078,-0.522475,-0.112924,-108.145,0.275314,
2,1,0,1,0,9077.51,0.278008,0.277737,24.2665,5,0.0173645,10,0.00673969,-1.61499,-0.535307,-0.110217,-104.439,0.2777366,
2,1,0,1,0,9077.51,0.280405,0.280144,24.0211,5,0.0174611,10,0.00672936,-1.61941,-0.57915,-0.101873,-95.5893,0.280144,
2,1,0,1,0,9077.51,0.282802,0.282465,23.7839,5,0.0175567,10,0.00671812,-1.62372,-0.602602,-0.0979087,-91.0492,0.282465,
2,1,0,1,0,9077.52,0.285199,0.284887,23.5881,5,0.0176514,10,0.00671995,-1.62731,-0.638711,-0.0923736,-85.1227,0.2848869,
2,1,0,1,0,9077.52,0.287608,0.287306,23.3952,5,0.0177453,10,0.00672158,-1.63087,-0.68609,-0.0859945,-78.5469,0.287306,
2,1,0,1,0,9077.53,0.290005,0.289699,23.2077,5,0.0178385,10,0.00672325,-1.63437,-0.70142,-0.0841151,-76.2271,0.289699,
2,1,0,1,0,9077.53,0.292402,0.292081,23.0286,5,0.017931,10,0.00672622,-1.63773,-0.722955,-0.0816095,-73.3856,0.292081,
2,1,0,1,0,9077.53,0.294807,0.294481,22.8568,5,0.0180227,10,0.00673089,-1.64099,-0.750417,-0.078623,-70.1895,0.294481,
2,1,0,1,0,9077.54,0.297204,0.296903,22.6909,5,0.0181137,10,0.006737,-1.64415,-0.752634,-0.0783914,-69.6415,0.2969034,
2,1,0,1,0,9077.54,0.299421,0.299137,22.5452,5,0.0181974,10,0.00674412,-1.64694,-0.0942384,-0.626072,-527.97,0.2991372,
2,1,0,0,0,9077.54,0.300012,0.29967,22.5001,5,0.0182199,10,0.00674261,-1.64782,0.00154912,38.086,27631.3,0.29967,
2,1,0,1,0,9077.54,0.299243,0.299123,20.4062,5,0.018247,10,0.00610397,-1.69024,0.0156888,3.76064,2356.42,0.299123,
2,1,0,1,0,9077.55,0.296846,0.296626,15.0152,5,0.0183168,10,0.00445389,-1.82347,0.0168049,3.51089,1888.56,0.296626,
2,1,0,1,0,9077.55,0.294449,0.294216,10.9498,5,0.0183681,10,0.0032216,-1.9606,0.0158578,3.72057,1587.48,0.294216,
2,1,0,1,0,9077.56,0.292041,0.29182,7.67429,5,0.0184048,10,0.00223951,-2.11496,0.0130191,4.5318,1275.92,0.29182,
2,1,0,1,0,9077.56,0.289644,0.289402,4.97469,5,0.0184297,10,0.00143969,-2.30323,0.00859516,6.86433,1048.81,0.2894021,
2,1,0,1,0,9077.56,0.287247,0.287003,2.73812,5,0.0184448,10,0.00078585,-2.56255,0.00991443,5.95092,879.861,0.287003,
2,1,0,1,0,9077.57,0.284841,0.284562,0.824548,5,0.0184517,10,0.000234635,-3.08378,0.0274119,2.15235,745.555,0.284562,
2,0,0,1,0,9077.57,0.282444,0.28217,-0.816096,5,0.0184515,10,-0.000230278,-3.08826,-0.0984847,-0.599078,641.292,0.28217,
2,0,0,1,0,9077.58,0.280047,0.279761,-2.21335,5,0.0184452,10,-0.000619209,-2.65495,-0.0130445,-4.52299,553.476,0.2797609,
2,0,0,1,0,9077.58,0.27765,0.277388,-3.42838,5,0.0184338,10,-0.000950992,-2.46491,-0.0116857,-5.04892,478.087,0.277388,
2,0,0,1,0,9077.58,0.275242,0.274964,-4.48816,5,0.0184178,10,-0.00123408,-2.34793,-0.0213279,-2.76632,419.268,0.274964,
2,0,0,1,0,9077.59,0.272845,0.272579,-5.4016,5,0.0183979,10,-0.00147236,-2.26748,-0.0312074,-1.89058,368.798,0.272579,
2,0,0,1,0,9077.59,0.270448,0.270166,-6.23604,5,0.0183745,10,-0.00168477,-2.20509,-0.0418662,-1.40925,325.618,0.270166,
2,0,0,1,0,9077.6,0.268039,0.267738,-6.98716,5,0.0183479,10,-0.00187073,-2.1557,-0.0529103,-1.11509,292.013,0.267738,
2,0,0,1,0,9077.6,0.265642,0.265317,-7.62923,5,0.0183186,10,-0.00202417,-2.11752,-0.0653486,-0.90285,261.353,0.265317,
2,0,0,1,0,9077.6,0.263245,0.262946,-8.21449,5,0.0182869,10,-0.00215997,-2.08542,-0.0795092,-0.742052,233.222,0.262946,
2,0,0,1,0,9077.61,0.260843,0.260589,-8.73918,5,0.0182529,10,-0.00227733,-2.05853,-0.0929977,-0.634425,213.25,0.260589,
2,0,0,1,0,9077.61,0.258443,0.258153,-9.2226,5,0.018217,10,-0.00238084,-2.03515,-0.107686,-0.547891,194.923,0.258153,
2,0,0,1,0,9077.62,0.256046,0.255712,-9.67754,5,0.0181791,10,-0.00247466,-2.01424,-0.124264,-0.474794,177.401,0.255712,
2,0,0,1,0,9077.62,0.253649,0.253369,-10.0812,5,0.0181395,10,-0.00255426,-1.99649,-0.139523,-0.422869,164.947,0.253369,
2,0,0,1,0,9077.62,0.25124,0.250888,-10.4601,5,0.0180984,10,-0.00262431,-1.98047,-0.157564,-0.374452,151.764,0.250888,
2,0,0,1,0,9077.63,0.248843,0.248535,-10.809,5,0.0180558,10,-0.00268643,-1.96621,-0.17312,-0.340804,143.028,0.248535,
2,0,0,1,0,9077.63,0.246446,0.246166,-11.1262,5,0.0180119,10,-0.0027389,-1.95365,-0.191296,-0.308422,133.419,0.246166,
2,0,0,1,0,9077.64,0.244041,0.243762,-11.4553,5,0.0179667,10,-0.00279237,-1.94099,-0.211043,-0.279564,124.31,0.243762,
2,0,0,1,0,9077.64,0.241644,0.241349,-11.7328,5,0.0179203,10,-0.0028317,-1.9306,-0.226419,-0.260579,118.859,0.241349,
2,0,0,1,0,9077.64,0.239247,0.238964,-11.9988,5,0.0178728,10,-0.00286729,-1.92086,-0.24814,-0.237769,111.172,0.238964,
2,0,0,1,0,9077.65,0.236849,0.236562,-12.2678,5,0.0178242,10,-0.00290209,-1.91123,-0.262353,-0.224887,107.454,0.236562,
2,0,0,1,0,9077.65,0.234441,0.23417,-12.5217,5,0.0177746,10,-0.0029322,-1.90234,-0.279963,-0.210742,102.704,0.23417,
2,0,0,1,0,9077.66,0.232044,0.231713,-12.7682,5,0.017724,10,-0.00295856,-1.89387,-0.296717,-0.198842,98.8419,0.231713,
2,0,0,1,0,9077.66,0.229647,0.229322,-12.9891,5,0.0176725,10,-0.00297869,-1.88642,-0.316629,-0.186338,94.3205,0.229322,
2,0,0,1,0,9077.66,0.227239,0.226947,-13.2181,5,0.0176201,10,-0.00299982,-1.87883,-0.337459,-0.174836,90.0268,0.226947,
2,0,0,1,0,9077.67,0.224842,0.224551,-13.429,5,0.0175668,10,-0.00301548,-1.87196,-0.349121,-0.168996,88.4411,0.224551,
2,0,0,1,0,9077.67,0.222445,0.22215,-13.6291,5,0.0175126,10,-0.00302771,-1.86553,-0.359073,-0.164312,87.4215,0.22215,
2,0,0,1,0,9077.68,0.220047,0.219713,-13.8389,5,0.0174577,10,-0.00304059,-1.8589,-0.379856,-0.155322,83.8143,0.219713,
2,0,0,1,0,9077.68,0.217642,0.217362,-14.0561,5,0.0174018,10,-0.00305526,-1.85214,-0.389534,-0.151463,82.8935,0.217362,
2,0,0,1,0,9077.68,0.215245,0.214965,-14.2324,5,0.0173452,10,-0.00305947,-1.84672,-0.393883,-0.149791,83.2019,0.214965,
2,0,0,1,0,9077.69,0.212848,0.212549,-14.425,5,0.0172879,10,-0.00306602,-1.84088,-0.421657,-0.139924,78.8088,0.212549,
2,0,0,1,0,9077.69,0.21044,0.210161,-14.6337,5,0.0172298,10,-0.00307543,-1.83465,-0.410499,-0.143727,82.0206,0.2101611,
2,0,0,1,0,9077.7,0.208042,0.207744,-14.814,5,0.0171709,10,-0.00307753,-1.82933,-0.429185,-0.13747,79.4151,0.207744,
2,0,0,1,0,9077.7,0.205645,0.205368,-15.0195,5,0.0171112,10,-0.00308453,-1.82334,-0.447809,-0.131753,77.1394,0.2053681,
2,0,0,1,0,9077.7,0.203246,0.202962,-15.1864,5,0.0170508,10,-0.00308225,-1.81855,-0.448307,-0.131606,77.9937,0.202962,
2,0,0,1,0,9077.71,0.200843,0.200528,-15.3767,5,0.0169896,10,-0.00308347,-1.81314,-0.466619,-0.126441,75.9007,0.2005284,
2,0,0,1,0,9077.71,0.198446,0.198149,-15.5624,5,0.0169277,10,-0.00308368,-1.80792,-0.441549,-0.133621,81.2071,0.198149,
2,0,0,1,0,9077.72,0.196049,0.19576,-15.7488,5,0.016865,10,-0.00308298,-1.80275,-0.452303,-0.130444,80.2232,0.19576,
2,0,0,1,0,9077.72,0.19364,0.193373,-15.9651,5,0.0168016,10,-0.00308721,-1.79683,-0.454539,-0.129802,80.7824,0.193373,
2,0,0,1,0,9077.72,0.191243,0.190934,-16.1464,5,0.0167373,10,-0.0030829,-1.79192,-0.446011,-0.132284,83.3607,0.190934,
2,0,0,1,0,9077.73,0.188846,0.188556,-16.3373,5,0.0166724,10,-0.00308051,-1.78682,-0.461822,-0.127755,81.548,0.1885564,
2,0,0,1,0,9077.73,0.186444,0.186127,-16.5518,5,0.0166066,10,-0.00308074,-1.78115,-0.445891,-0.132319,85.483,0.186127,
2,0,0,1,0,9077.74,0.184041,0.183711,-16.7529,5,0.01654,10,-0.0030777,-1.77591,-0.43888,-0.134433,87.9118,0.183711,
2,0,0,1,0,9077.74,0.181644,0.181329,-16.9675,5,0.0164725,10,-0.0030767,-1.77038,-0.434824,-0.135687,89.9155,0.181329,
2,0,0,1,0,9077.74,0.179247,0.178945,-17.1823,5,0.0164042,10,-0.00307468,-1.76492,-0.418539,-0.140967,94.6387,0.178945,
2,0,0,1,0,9077.75,0.176841,0.176526,-17.4151,5,0.016335,10,-0.00307422,-1.75907,-0.405623,-0.145455,98.9743,0.176526,
2,0,0,1,0,9077.75,0.174444,0.174128,-17.6598,5,0.0162648,10,-0.00307508,-1.75301,-0.389714,-0.151393,104.46,0.1741285,
2,0,0,1,0,9077.76,0.172047,0.17179,-17.9116,5,0.0161936,10,-0.00307703,-1.74687,-0.374047,-0.157734,110.444,0.17179,
2,0,0,1,0,9077.76,0.169644,0.169327,-18.187,5,0.0161214,10,-0.00307955,-1.74024,-0.362394,-0.162806,115.69,0.169327,
2,0,0,1,0,9077.76,0.167242,0.166904,-18.4778,5,0.0160481,10,-0.00308401,-1.73335,-0.347251,-0.169906,122.639,0.166904,
2,0,0,1,0,9077.77,0.164845,0.164555,-18.7674,5,0.0159736,10,-0.00308827,-1.7266,-0.326467,-0.180723,132.719,0.164555,
2,0,0,1,0,9077.77,0.162448,0.162171,-19.0912,5,0.0158978,10,-0.00309605,-1.71917,-0.315156,-0.187209,139.839,0.162171,
2,0,0,1,0,9077.78,0.160042,0.15972,-19.462,5,0.0158207,10,-0.00310847,-1.71081,-0.297096,-0.198589,151.005,0.15972,
2,0,0,1,0,9077.78,0.157645,0.157323,-19.8175,5,0.0157421,10,-0.00311776,-1.70295,-0.28013,-0.210617,163.308,0.157323,
2,0,0,1,0,9077.78,0.155248,0.154948,-20.2181,5,0.015662,10,-0.00313276,-1.69426,-0.267767,-0.220341,174.449,0.154948,
2,0,0,1,0,9077.79,0.152845,0.152533,-20.6652,5,0.0155802,10,-0.00315213,-1.68476,-0.249945,-0.236052,190.888,0.152533,
2,0,0,1,0,9077.79,0.150443,0.150135,-21.1341,5,0.0154966,10,-0.00317297,-1.67502,-0.236684,-0.249277,206.154,0.1501347,
2,0,0,1,0,9077.8,0.148046,0.147718,-21.6511,5,0.0154109,10,-0.00319825,-1.66452,-0.224286,-0.263056,222.909,0.147718,
2,0,0,1,0,9077.8,0.145648,0.145364,-22.1939,5,0.0153232,10,-0.00322619,-1.65377,-0.212486,-0.277666,241.345,0.145364,
2,0,0,1,0,9077.8,0.14324,0.142978,-22.7952,5,0.0152332,10,-0.00325921,-1.64216,-0.202426,-0.291464,260.207,0.142978,
2,0,0,1,0,9077.81,0.140843,0.140542,-23.4492,5,0.0151406,10,-0.00329561,-1.62987,-0.191791,-0.307627,282.493,0.140542,
2,0,0,1,0,9077.81,0.138446,0.138133,-24.1451,5,0.0150454,10,-0.00333524,-1.61717,-0.182706,-0.322924,305.321,0.138133,
2,0,0,1,0,9077.82,0.136041,0.13572,-24.9184,5,0.0149472,10,-0.00338191,-1.60348,-0.176261,-0.334731,326.32,0.13572,
2,0,0,1,0,9077.82,0.133644,0.133409,-25.7168,5,0.0148459,10,-0.00343085,-1.58978,-0.168957,-0.349202,351.422,0.1334089,
2,0,0,1,0,9077.82,0.131246,0.130964,-26.5749,5,0.0147412,10,-0.00348035,-1.57553,-0.163192,-0.361537,376.114,0.130964,
2,0,0,1,0,9077.83,0.128849,0.128586,-27.5001,5,0.014633,10,-0.00353613,-1.56067,-0.162395,-0.363312,390.781,0.128586,
2,0,0,1,0,9077.83,0.126441,0.126267,-28.4736,5,0.014521,10,-0.00359528,-1.54556,-0.158996,-0.371079,412.9,0.126267,
2,0,0,1,0,9077.84,0.124044,0.123752,-29.4906,5,0.0144049,10,-0.00364952,-1.53032,-0.15975,-0.369326,425.219,0.123752,
2,0,0,1,0,9077.84,0.121647,0.121363,-30.5391,5,0.0142848,10,-0.00370631,-1.51514,-0.162049,-0.364087,433.833,0.121363,
2,0,0,1,0,9077.84,0.119241,0.118951,-31.597,5,0.0141604,10,-0.00375851,-1.50035,-0.162331,-0.363454,447.952,0.118951,
2,0,0,1,0,9077.85,0.116844,0.116555,-32.6871,5,0.0140318,10,-0.00380984,-1.48562,-0.165838,-0.355768,453.486,0.116555,
2,0,0,1,0,9077.85,0.114447,0.114206,-33.7667,5,0.0138988,10,-0.00385636,-1.47151,-0.169733,-0.347606,457.781,0.114206,
2,0,0,1,0,9077.86,0.11205,0.111791,-34.8796,5,0.0137614,10,-0.00389924,-1.45743,-0.178052,-0.331363,449.81,0.111791,
2,0,0,1,0,9077.86,0.109642,0.10936,-35.9878,5,0.0136195,10,-0.00393562,-1.44385,-0.185049,-0.318834,446.136,0.10936,
2,0,0,1,0,9077.86,0.107245,0.107043,-36.9656,5,0.0134735,10,-0.00395691,-1.4322,-0.191439,-0.308192,444.539,0.107043,
2,0,0,1,0,9077.87,0.104848,0.104659,-38.0259,5,0.0133234,10,-0.00397976,-1.41992,-0.2014,-0.29295,434.726,0.104659,
2,0,0,1,0,9077.87,0.10244,0.102252,-39.1202,5,0.013169,10,-0.00400012,-1.4076,-0.207949,-0.283723,431.927,0.102252,
2,0,0,1,0,9077.88,0.100042,0.0998184,-40.1357,5,0.0130104,10,-0.00400628,-1.39647,-0.218878,-0.269557,421.015,0.0998184,
2,0,0,1,0,9077.88,0.0976454,0.0974155,-41.1239,5,0.0128478,10,-0.00400611,-1.38591,-0.234768,-0.251312,402.358,0.0974155,
2,0,0,1,0,9077.88,0.0952427,0.0950201,-42.0841,5,0.0126812,10,-0.00399883,-1.37588,-0.248845,-0.237096,388.419,0.0950201,
2,0,0,1,0,9077.89,0.0928428,0.0926384,-42.9883,5,0.012511,10,-0.00398237,-1.36665,-0.265666,-0.222083,371.646,0.0926384,
2,0,0,1,0,9077.89,0.0904457,0.0901941,-43.874,5,0.0123372,10,-0.00395718,-1.35779,-0.28373,-0.207944,355.128,0.0901941,
2,0,0,1,0,9077.9,0.0880486,0.0878358,-44.6842,5,0.01216,10,-0.00392487,-1.34985,-0.304696,-0.193635,336.922,0.0878358,
2,0,0,1,0,9077.9,0.0856404,0.0854594,-45.4793,5,0.0119795,10,-0.00388664,-1.34219,-0.326994,-0.180431,319.531,0.0854594,
2,0,0,1,0,9077.9,0.0832433,0.0830491,-46.2192,5,0.0117961,10,-0.00383846,-1.33518,-0.35117,-0.16801,302.448,0.0830491,
2,0,0,1,0,9077.91,0.0808462,0.0806791,-46.9143,5,0.0116097,10,-0.00378501,-1.32869,-0.380121,-0.155214,283.728,0.0806791,
2,0,0,1,0,9077.91,0.0784408,0.0781957,-47.5998,5,0.0114206,10,-0.0037221,-1.32239,-0.41468,-0.142279,263.66,0.0781957,
2,0,0,1,0,9077.92,0.0760437,0.07578,-48.2256,5,0.0112289,10,-0.00365454,-1.31672,-0.46079,-0.128041,240.227,0.07578,
2,0,0,1,0,9077.92,0.0736466,0.0733729,-48.7704,5,0.0110349,10,-0.00357843,-1.31184,-0.516249,-0.114286,216.92,0.0733729,
2,0,0,1,0,9077.92,0.0712495,0.0709467,-49.2523,5,0.0108388,10,-0.00349429,-1.30757,-0.597629,-0.0987234,189.298,0.0709467,
2,0,0,1,0,9077.93,0.0688413,0.0685894,-49.6836,5,0.0106408,10,-0.00340777,-1.30379,-0.692421,-0.0852082,164.816,0.0685894,
2,0,0,1,0,9077.93,0.0664442,0.0661484,-50.0489,5,0.0104413,10,-0.00331065,-1.30061,-0.808539,-0.0729712,142.2,0.0661484,
2,0,0,1,0,9077.94,0.0640471,0.0637063,-50.3636,5,0.0102404,10,-0.00320848,-1.29788,-1.02046,-0.0578172,113.336,0.0637063,
2,0,0,1,0,9077.94,0.0616389,0.0613352,-50.6191,5,0.0100385,10,-0.00310473,-1.29569,-1.32869,-0.0444046,87.4578,0.0613352,
2,0,0,1,0,9077.94,0.0592417,0.0589429,-50.7769,5,0.00983564,10,-0.00299294,-1.29433,-1.94233,-0.0303759,60.0447,0.0589429,
2,0,0,1,0,9077.95,0.0568446,0.0565612,-50.8874,5,0.00963229,10,-0.00287825,-1.29339,-3.231,-0.0182606,36.1979,0.0565612,
2,0,0,1,0,9077.95,0.0544475,0.0541435,-50.9378,5,0.00942863,10,-0.00275795,-1.29296,-7.91477,-0.00745442,14.7929,0.0541435,
2,0,0,1,0,9077.96,0.0520421,0.0517131,-50.9674,5,0.00922478,10,-0.00263568,-1.29271,19.942,0.00295858,-5.8724,0.0517131,
2,0,0,1,0,9077.96,0.049645,0.049307,-50.9195,5,0.00902099,10,-0.00251069,-1.29312,5.56237,0.010607,-21.0441,0.049307,
2,0,0,1,0,9077.96,0.0472479,0.0469274,-50.8308,5,0.00881749,10,-0.00238536,-1.29387,2.8252,0.0208835,-41.3784,0.0469274,
2,0,0,1,0,9077.97,0.0448397,0.0445055,-50.735,5,0.00861437,10,-0.00225798,-1.29469,2.20355,0.026775,-52.9424,0.0445055,
2,0,0,1,0,9077.97,0.0424426,0.0421864,-50.5732,5,0.00841179,10,-0.0021335,-1.29608,1.85309,0.0318387,-62.7851,0.0421864,
2,0,0,1,0,9077.98,0.0400455,0.0397241,-50.4121,5,0.00820984,10,-0.00200258,-1.29746,1.55517,0.0379379,-74.589,0.0397241,
2,0,0,1,0,9077.98,0.0376456,0.0373233,-50.2278,5,0.00800859,10,-0.00187467,-1.29906,1.46034,0.0404016,-79.1378,0.0373233,
2,0,0,1,0,9077.98,0.035243,0.034947,-50.022,5,0.00780811,10,-0.00174812,-1.30084,1.33181,0.0443007,-86.4395,0.034947,
2,0,0,1,0,9077.99,0.0328459,0.032542,-49.8099,5,0.00760846,10,-0.00162091,-1.30268,1.29664,0.0455022,-88.4409,0.032542,
2,0,0,1,0,9077.99,0.0304488,0.0301295,-49.5828,5,0.00740968,10,-0.00149391,-1.30467,1.25935,0.0468495,-90.661,0.0301295,
2,0,0,1,0,9078,0.0280406,0.0277489,-49.381,5,0.00721179,10,-0.00137027,-1.30644,1.19773,0.04926,-94.8829,0.0277489,
2,0,0,1,0,9078,0.0256435,0.0253397,-49.151,5,0.00701476,10,-0.00124547,-1.30847,1.18764,0.0496783,-95.2442,0.0253397,
2,0,0,1,0,9078,0.0232463,0.0229782,-48.9025,5,0.00681868,10,-0.00112369,-1.31067,1.14144,0.0516889,-98.6528,0.0229782,
2,0,0,1,0,9078.01,0.0208437,0.0205594,-48.6713,5,0.00662357,10,-0.00100065,-1.31273,1.1013,0.0535732,-101.744,0.0205594,
2,0,0,1,0,9078.01,0.018441,0.0181194,-48.431,5,0.00642937,10,-0.000877541,-1.31488,1.11509,0.0529106,-99.9814,0.0181194,
2,0,0,1,0,9078.02,0.0160439,0.0157801,-48.1784,5,0.00623617,10,-0.000760261,-1.31715,1.07041,0.0551191,-103.622,0.01578013,
2,0,0,1,0,9078.02,0.0136468,0.0133327,-47.9381,5,0.00604396,10,-0.000639145,-1.31932,1.01137,0.0583365,-109.07,0.0133327,
2,0,0,1,0,9078.02,0.0112414,0.0109415,-47.6747,5,0.00585275,10,-0.000521632,-1.32171,0.990163,0.0595861,-110.785,0.0109415,
2,0,0,1,0,9078.03,0.00884431,0.00855134,-47.3874,5,0.00566266,10,-0.000405226,-1.32434,0.927002,0.0636461,-117.668,0.00855134,
2,0,0,1,0,9078.03,0.0064472,0.00609544,-47.1055,5,0.0054737,10,-0.000287128,-1.32693,0.948581,0.0621982,-114.378,0.00609544,
2,0,0,1,0,9078.04,0.00404455,0.00374876,-46.8104,5,0.00528591,10,-0.000175481,-1.32966,0.891479,0.0661822,-120.882,0.003748758,
2,0,0,1,0,9078.04,0.0016419,0.00127377,-46.5689,5,0.00509924,10,-5.9318e-05,-1.3319,0.822416,0.0717399,-130.123,0.00127377,
2,0,0,1,0,9078.04,-0.000755207,-0.00110896,-46.2197,5,0.00491369,10,5.1256e-05,-1.33517,0.781217,0.0755232,-136.025,-0.00110896,
2,0,0,1,0,9078.05,-0.00315231,-0.00353624,-45.8522,5,0.00472959,10,0.000162144,-1.33864,0.692416,0.0852089,-152.403,-0.00353624,
2,0,0,1,0,9078.05,-0.00555774,-0.00591049,-45.4965,5,0.00454691,10,0.000268906,-1.34202,0.654364,0.0901639,-159.923,-0.00591049,
2,0,0,1,0,9078.06,-0.00795485,-0.00837593,-45.0982,5,0.00436574,10,0.00037774,-1.34584,0.621893,0.0948716,-166.796,-0.00837593,
2,0,0,1,0,9078.06,-0.010352,-0.0107046,-44.6851,5,0.00418623,10,0.000478336,-1.34984,0.58594,0.100693,-175.458,-0.0107046,
2,0,0,1,0,9078.06,-0.0127546,-0.0131106,-44.2552,5,0.0040084,10,0.000580214,-1.35404,0.555604,0.106191,-183.259,-0.01311065,
2,0,0,1,0,9078.07,-0.0151573,-0.0155125,-43.8117,5,0.0038323,10,0.000679629,-1.35841,0.536794,0.109912,-187.783,-0.0155125,
2,0,0,1,0,9078.07,-0.0175544,-0.0179016,-43.3526,5,0.00365803,10,0.000776079,-1.36299,0.521928,0.113042,-191.162,-0.0179016,
2,0,0,1,0,9078.08,-0.0199515,-0.0203076,-42.8818,5,0.00348562,10,0.000870829,-1.36773,0.50745,0.116268,-194.527,-0.0203076,
2,0,0,1,0,9078.08,-0.0223597,-0.0227148,-42.4193,5,0.00331506,10,0.000963543,-1.37244,0.499041,0.118227,-195.651,-0.0227148,
2,0,0,1,0,9078.08,-0.0247568,-0.0251208,-41.9427,5,0.00314639,10,0.00105363,-1.37734,0.502202,0.117483,-192.336,-0.0251208,
2,0,0,1,0,9078.09,-0.0271539,-0.0275311,-41.4685,5,0.00297961,10,0.00114168,-1.38228,0.505713,0.116667,-188.98,-0.0275311,
2,0,0,1,0,9078.09,-0.0295593,-0.0299351,-41.0301,5,0.00281467,10,0.00122824,-1.3869,0.512696,0.115078,-184.37,-0.0299351,
2,0,0,1,0,9078.1,-0.0319564,-0.0323178,-40.6045,5,0.00265143,10,0.00131225,-1.39143,0.527809,0.111783,-177.188,-0.0323178,
2,0,0,1,0,9078.1,-0.0343535,-0.0347133,-40.1741,5,0.00248994,10,0.00139457,-1.39605,0.552816,0.106726,-167.533,-0.0347133,
2,0,0,1,0,9078.1,-0.0367506,-0.0370886,-39.7751,5,0.00233009,10,0.0014752,-1.40039,0.575443,0.10253,-159.399,-0.0370886,
2,0,0,1,0,9078.11,-0.0391588,-0.0395169,-39.4249,5,0.00217172,10,0.00155795,-1.40423,0.622839,0.0947275,-145.914,-0.0395169,
2,0,0,1,0,9078.11,-0.0415559,-0.0419018,-39.0768,5,0.00201478,10,0.00163739,-1.40808,0.677548,0.0870787,-132.981,-0.04190176,
2,0,0,1,0,9078.12,-0.043953,-0.0443184,-38.7726,5,0.00185912,10,0.00171834,-1.41148,0.714748,0.0825466,-125.072,-0.04431843,
2,0,0,1,0,9078.12,-0.0463585,-0.0467309,-38.4928,5,0.00170462,10,0.0017988,-1.41462,0.799198,0.073824,-111.041,-0.0467309,
2,0,0,1,0,9078.12,-0.0487556,-0.0490807,-38.2287,5,0.00155122,10,0.00187629,-1.41761,0.867292,0.0680279,-101.647,-0.0490807,
2,0,0,1,0,9078.13,-0.0511527,-0.051509,-38.01,5,0.00139876,10,0.00195786,-1.4201,1.01128,0.0583417,-86.6973,-0.051509,
2,0,0,1,0,9078.13,-0.0535498,-0.0538462,-37.8041,5,0.00124717,10,0.00203561,-1.42246,1.16162,0.0507912,-75.0592,-0.05384618,
2,0,0,1,0,9078.14,-0.055958,-0.0562883,-37.6642,5,0.00109623,10,0.00212005,-1.42407,1.32551,0.0445111,-65.4821,-0.0562883,
2,0,0,1,0,9078.14,-0.0583551,-0.0587092,-37.506,5,0.000945918,10,0.00220195,-1.4259,1.65538,0.0356414,-52.2334,-0.0587092,
2,0,0,1,0,9078.14,-0.0607522,-0.0610856,-37.3829,5,0.000796167,10,0.00228356,-1.42733,1.84732,0.0319382,-46.6662,-0.0610856,
2,0,0,1,0,9078.15,-0.0631604,-0.0634874,-37.3005,5,0.000646824,10,0.00236811,-1.42829,2.5329,0.0232934,-33.947,-0.0634874,
2,0,0,1,0,9078.15,-0.0655575,-0.0659062,-37.2154,5,0.000497791,10,0.00245272,-1.42928,3.66413,0.016102,-23.4209,-0.0659062,
2,0,0,1,0,9078.16,-0.0679546,-0.0683239,-37.1796,5,0.000348992,10,0.00254026,-1.4297,4.98446,0.0118368,-17.1928,-0.0683239,
2,0,0,1,0,9078.16,-0.0703573,-0.0707247,-37.1572,5,0.00020034,10,0.00262793,-1.42996,11.4464,0.00515444,-7.47908,-0.0707247,
2,0,0,1,0,9078.16,-0.0727571,-0.0731265,-37.1348,5,5.17539e-05,10,0.00271554,-1.43022,64.1398,0.000919866,-1.3345,-0.0731265,
2,0,0,1,0,9078.17,-0.0751542,-0.0755209,-37.1435,5,-9.67799e-05,10,0.00280511,-1.43012,-11.2802,-0.00523043,7.59223,-0.0755209,
2,0,0,1,0,9078.17,-0.0775514,-0.07791,-37.1668,5,-0.000245398,10,0.00289567,-1.42984,-5.56646,-0.0105992,15.3913,-0.07791,
2,0,0,1,0,9078.18,-0.0799595,-0.0803405,-37.2302,5,-0.000394187,10,0.00299109,-1.42911,-4.36157,-0.0135272,19.6587,-0.0803405,
2,0,0,1,0,9078.18,-0.0823567,-0.0826585,-37.2815,5,-0.0005432,10,0.00308163,-1.42851,-3.12216,-0.0188972,27.5077,-0.0826585,
2,0,0,1,0,9078.18,-0.0847538,-0.0850996,-37.3318,5,-0.000692448,10,0.00317692,-1.42792,-2.67456,-0.0220597,32.1846,-0.0850996,
2,0,0,1,0,9078.19,-0.0871592,-0.087512,-37.4309,5,-0.00084196,10,0.00327566,-1.42677,-2.22528,-0.0265135,38.7694,-0.087512,
2,0,0,1,0,9078.19,-0.0895563,-0.0899096,-37.5381,5,-0.000991917,10,0.00337504,-1.42553,-1.80849,-0.032624,47.823,-0.0899096,
2,0,0,1,0,9078.2,-0.0919534,-0.0922849,-37.6547,5,-0.00114232,10,0.00347496,-1.42418,-1.6884,-0.0349442,51.3825,-0.0922849,
2,0,0,1,0,9078.2,-0.0943505,-0.0947005,-37.7909,5,-0.00129321,10,0.00357882,-1.42261,-1.56011,-0.0378179,55.7958,-0.0947005,
2,0,0,1,0,9078.2,-0.0967587,-0.0971108,-37.9241,5,-0.00144466,10,0.00368284,-1.42108,-1.40732,-0.0419237,62.0089,-0.0971108,
2,0,0,1,0,9078.21,-0.0991558,-0.0994723,-38.0717,5,-0.00159666,10,0.00378708,-1.4194,-3.57893,-0.0164854,24.3581,-0.0994723,
2,0,0,1,0,9078.21,-0.0999548,-0.10019,-38.1449,5,-0.00164618,10,0.00382175,-1.41856,0.0194884,3.02744,-4150.58,-0.10019,
2,0,0,1,1,9078.21,-0.0999548,-0.100381,-37.9293,5,-0.00166896,10,0.00380738,-1.42103,-0.024187,-2.43933,3080.89,-0.100381,
2,0,0,1,1,9078.21,-0.0979573,-0.0984236,-32.4753,5,-0.00177606,10,0.00319634,-1.48845,-0.0295861,-1.99418,2321.17,-0.0984236,
2,0,0,1,1,9078.22,-0.0955546,-0.0959613,-27.2547,5,-0.00189474,10,0.0026154,-1.56456,-0.0304283,-1.93898,2067.04,-0.09596131,
2,0,0,1,1,9078.22,-0.0931519,-0.0935849,-22.8129,5,-0.00199427,10,0.00213495,-1.64182,-0.0296539,-1.98962,1776.95,-0.0935849,
2,0,0,1,1,9078.23,-0.0907548,-0.0911725,-18.8949,5,-0.00207716,10,0.00172269,-1.72366,-0.027379,-2.15494,1575.36,-0.0911725,
2,0,0,1,1,9078.23,-0.0883578,-0.0888131,-15.398,5,-0.0021453,10,0.00136755,-1.81253,-0.024703,-2.38837,1404.72,-0.0888131,
2,0,0,1,1,9078.23,-0.0859523,-0.086407,-12.2033,5,-0.0022001,10,0.00105445,-1.91352,-0.0211673,-2.78732,1275.9,-0.086407,
2,0,0,1,1,9078.24,-0.0835552,-0.0839766,-9.31596,5,-0.00224277,10,0.000782322,-2.03077,-0.0170123,-3.46807,1163.98,-0.0839766,
2,0,0,1,1,9078.24,-0.0811581,-0.081579,-6.65459,5,-0.00227437,10,0.000542875,-2.17688,-0.0119228,-4.9485,1071.72,-0.081579,
2,0,0,1,1,9078.25,-0.0787555,-0.0791719,-4.17586,5,-0.00229573,10,0.000330611,-2.37925,-0.00566469,-10.4154,990.381,-0.0791719,
2,0,0,1,1,9078.25,-0.0763528,-0.0768019,-1.90926,5,-0.00230763,10,0.000146635,-2.71914,-0.019512,-3.02378,916.091,-0.0768019,
2,0,0,1,1,9078.25,-0.0739557,-0.0743799,0.18841,5,-0.00231083,10,-1.40139e-05,-3.7249,-0.434525,-0.135781,851.106,-0.0743799,
2,1,0,1,1,9078.26,-0.0715586,-0.071976,2.14269,5,-0.00230594,10,-0.000154222,-2.66904,0.0202956,2.90703,789.774,-0.071976,
2,1,0,1,1,9078.26,-0.0691532,-0.0696017,3.96937,5,-0.00229351,10,-0.000276275,-2.40128,0.00602422,9.7938,739.05,-0.0696017,
2,1,0,1,1,9078.27,-0.0667561,-0.0671935,5.67917,5,-0.00227401,10,-0.000381603,-2.24572,0.0156905,3.76023,688.19,-0.0671935,
2,1,0,1,1,9078.27,-0.0643589,-0.064832,7.2448,5,-0.00224795,10,-0.000469695,-2.13997,0.0236215,2.49772,641.215,-0.064832,
2,1,0,1,1,9078.27,-0.0619563,-0.0624037,8.73025,5,-0.00221582,10,-0.000544799,-2.05897,0.0314957,1.87327,601.276,-0.0624037,
2,1,0,1,1,9078.28,-0.0595536,-0.0599838,10.1365,5,-0.00217793,10,-0.000608027,-1.99411,0.0394873,1.49415,566.272,-0.0599838,
2,1,0,1,1,9078.28,-0.0571565,-0.0576191,11.436,5,-0.00213463,10,-0.000658934,-1.94172,0.0478745,1.23239,533.656,-0.0576191,
2,1,0,1,1,9078.29,-0.0547594,-0.05523,12.6821,5,-0.00208624,10,-0.000700434,-1.89681,0.0572449,1.03066,497.749,-0.05523,
2,1,0,1,1,9078.29,-0.0523512,-0.0528027,13.8538,5,-0.00203301,10,-0.000731521,-1.85843,0.0667195,0.8843,468.13,-0.0528027,
2,1,0,1,1,9078.29,-0.0499541,-0.0503733,14.9201,5,-0.00197532,10,-0.000751576,-1.82623,0.0776452,0.759867,435.454,-0.0503733,
2,1,0,1,1,9078.3,-0.047557,-0.0479938,15.9419,5,-0.00191348,10,-0.000765114,-1.79746,0.0882888,0.668262,410.498,-0.0479938,
2,1,0,1,1,9078.3,-0.0451544,-0.0455761,16.886,5,-0.00184771,10,-0.000769596,-1.77247,0.0999218,0.590462,384.818,-0.04557607,
2,1,0,1,1,9078.31,-0.0427545,-0.0432145,17.7898,5,-0.00177823,10,-0.000768777,-1.74983,0.113923,0.517895,355.745,-0.0432145,
2,1,0,1,1,9078.31,-0.0403574,-0.0407724,18.6147,5,-0.0017053,10,-0.000758967,-1.73014,0.127124,0.464115,334.136,-0.0407724,
2,1,0,1,1,9078.31,-0.0379603,-0.0383547,19.371,5,-0.00162923,10,-0.000742968,-1.71285,0.143446,0.411304,308.872,-0.0383547,
2,1,0,1,1,9078.32,-0.0355521,-0.0359508,20.1021,5,-0.00155019,10,-0.000722687,-1.69676,0.158866,0.371383,289.465,-0.0359508,
2,1,0,1,1,9078.32,-0.033155,-0.0335617,20.7713,5,-0.00146835,10,-0.000697119,-1.68254,0.174583,0.337949,272.411,-0.0335617,
2,1,0,1,1,9078.33,-0.0307579,-0.0311757,21.3926,5,-0.00138396,10,-0.000666931,-1.66974,0.194246,0.303739,252.363,-0.0311757,
2,1,0,1,1,9078.33,-0.0283524,-0.0287294,21.993,5,-0.00129712,10,-0.000631846,-1.65771,0.216303,0.272765,232.852,-0.0287294,
2,1,0,1,1,9078.33,-0.0259553,-0.0263604,22.5224,5,-0.00120801,10,-0.0005937,-1.64739,0.23765,0.248265,217.251,-0.0263604,
2,1,0,1,1,9078.34,-0.0235582,-0.0239257,23.015,5,-0.00111689,10,-0.000550652,-1.63799,0.261169,0.225908,202.341,-0.0239257,
2,1,0,1,1,9078.34,-0.0211611,-0.0215451,23.4849,5,-0.00102381,10,-0.000505985,-1.62921,0.286463,0.20596,188.24,-0.0215451,
2,1,0,1,1,9078.35,-0.0187529,-0.0191316,23.935,5,-0.000928915,10,-0.000457917,-1.62097,0.311113,0.189642,176.523,-0.0191316,
2,1,0,1,1,9078.35,-0.0163558,-0.0167118,24.3386,5,-0.000832335,10,-0.000406742,-1.6137,0.343489,0.171767,162.634,-0.01671179,
2,1,0,1,1,9078.35,-0.0139587,-0.0143428,24.7066,5,-0.000734187,10,-0.000354363,-1.60719,0.380909,0.154893,148.977,-0.0143428,
2,1,0,1,1,9078.36,-0.0115505,-0.0118975,25.0539,5,-0.000634638,10,-0.00029808,-1.60112,0.415175,0.142109,138.619,-0.0118975,
2,1,0,1,1,9078.36,-0.0091534,-0.00951163,25.3682,5,-0.000533752,10,-0.000241293,-1.59571,0.456121,0.129352,127.798,-0.00951163,
2,1,0,1,1,9078.37,-0.00675629,-0.00717131,25.6611,5,-0.000431647,10,-0.000184024,-1.59072,0.497514,0.11859,118.556,-0.00717131,
2,1,0,1,1,9078.37,-0.00435919,-0.00473556,25.9344,5,-0.000328426,10,-0.000122814,-1.58612,0.588515,0.100252,101.059,-0.004735556,
2,1,0,1,1,9078.37,-0.00195376,-0.00234222,26.1867,5,-0.000224122,10,-6.13351e-05,-1.58192, , , ,-0.00234222,
2,1,0,0,1,9078.38,-7.54729e-05,-0.000325324,26.2966,5,-0.000142689,10,-8.55489e-06,-1.5801, , , ,-0.000325324,