File: Figure_codes/Fig_3-5/rawdata_trumpetplot_data/after 10th/20221101_1-115_003_TrumpetPlot_ParaChange_from10_every3_03_CV_C01_26.csv
mode,ox/red,error,control changes,counter inc.,time/s,control/V,Ewe/V,<I>/mA,cycle number,(Q-Qo)/C,I Range,P/W,log(|I|),Tafel slope mV/dec,alpha_eff,dI/d(E-IR),E-IR/V,
2,0,0,1,0,52163.4,2.44065e-05,-0.000401673,-0.098758,27,0.0000000E+000,10,3.96684e-08,-4.00543, , , ,-0.000401673,
2,1,0,0,0,52163.7,0.00129787,0.00093656,0.125305,27,1.94703e-05,10,1.17355e-07,-3.90203, , , ,0.00093656,
2,1,0,0,0,52164,0.00279606,0.0024943,0.167027,27,6.87375e-05,10,4.16614e-07,-3.77721,0.0137493,4.29112,22.215,0.0024943,
2,1,0,1,0,52164.3,0.00429469,0.00398575,0.179394,27,0.000124656,10,7.1502e-07,-3.74619,0.0543781,1.085,7.4941,0.00398575,
2,1,0,1,0,52164.6,0.00579255,0.00542746,0.188529,27,0.000183787,10,1.02323e-06,-3.72462,0.0651107,0.906149,6.63726,0.00542746,
2,1,0,1,0,52164.9,0.00729041,0.00700408,0.198545,27,0.000245889,10,1.39062e-06,-3.70214,0.0809031,0.729268,5.58226,0.00700408,
2,1,0,1,0,52165.2,0.00878882,0.00848029,0.206467,27,0.000310583,10,1.7509e-06,-3.68515,0.0982147,0.600725,4.79151,0.00848029,
2,1,0,1,0,52165.5,0.010287,0.00993517,0.212593,27,0.000377384,10,2.11215e-06,-3.67245,0.120577,0.489315,4.04656,0.00993517,
2,1,0,1,0,52165.8,0.0117852,0.0114134,0.217871,27,0.000446037,10,2.48665e-06,-3.6618,0.132768,0.444384,3.78298,0.0114134,
2,1,0,1,0,52166.1,0.0132836,0.0129543,0.22408,27,0.000516281,10,2.90281e-06,-3.6496,0.130994,0.450402,3.95048,0.0129543,
2,1,0,1,0,52166.4,0.0147815,0.0144153,0.22946,27,0.000588334,10,3.30774e-06,-3.63929,0.144971,0.406979,3.65219,0.0144153,
2,1,0,1,0,52166.7,0.0162793,0.0159408,0.235325,27,0.000662273,10,3.75128e-06,-3.62833,0.162976,0.362016,3.30403,0.0159408,
2,1,0,0,0,52167,0.017778,0.0174524,0.240444,27,0.000737629,10,4.19633e-06,-3.61899,0.185156,0.31865,2.98541,0.0174524,
2,1,0,0,0,52167.3,0.0192761,0.0189507,0.245644,27,0.000814137,10,4.65514e-06,-3.60969,0.160971,0.366526,3.50524,0.0189507,
2,1,0,1,0,52167.6,0.0207747,0.0204197,0.250921,27,0.000892477,10,5.12371e-06,-3.60046,0.152943,0.385764,3.76062,0.0204197,
2,1,0,1,0,52167.9,0.0222725,0.0219262,0.25653,27,0.000972384,10,5.62473e-06,-3.59086,0.176368,0.334529,3.33399,0.0219262,
2,1,0,1,0,52168.2,0.0237704,0.0234264,0.261089,27,0.00105392,10,6.11638e-06,-3.58321,0.179931,0.327903,3.34014,0.0234264,
2,1,0,1,0,52168.5,0.0252689,0.024941,0.265479,27,0.00113672,10,6.62131e-06,-3.57597,0.186419,0.316492,3.3,0.024941,
2,1,0,1,0,52168.8,0.0267671,0.0264255,0.270723,27,0.00122116,10,7.15402e-06,-3.56747,0.163,0.361963,3.82249,0.02642555,
2,1,0,1,0,52169.1,0.0282657,0.0279232,0.276359,27,0.00130734,10,7.71682e-06,-3.55853,0.180823,0.326287,3.51444,0.0279232,
2,1,0,1,0,52169.4,0.0297635,0.0294308,0.281787,27,0.00139498,10,8.29323e-06,-3.55008,0.20785,0.283858,3.11244,0.0294308,
2,1,0,1,0,52169.7,0.0312613,0.0309054,0.284218,27,0.00148405,10,8.78388e-06,-3.54635,0.200296,0.294564,3.28612,0.0309054,
2,1,0,0,0,52170,0.0327599,0.0324115,0.29091,27,0.00157449,10,9.42885e-06,-3.53624,0.202429,0.29146,3.32041,0.0324115,
2,1,0,0,0,52170.3,0.034258,0.0339322,0.296633,27,0.00166658,10,1.00654e-05,-3.52778,0.200723,0.293938,3.39611,0.0339322,
2,1,0,1,0,52170.6,0.0357567,0.0354225,0.301725,27,0.00176038,10,1.06878e-05,-3.52039,0.212875,0.277158,3.25697,0.0354225,
2,1,0,1,0,52170.9,0.0372545,0.0368918,0.306171,27,0.00185565,10,1.12952e-05,-3.51404,0.216348,0.272708,3.27029,0.0368918,
2,1,0,1,0,52171.2,0.0387524,0.0384227,0.311346,27,0.00195218,10,1.19627e-05,-3.50676,0.194299,0.303656,3.71026,0.0384227,
2,1,0,1,0,52171.5,0.0402508,0.0399245,0.316964,27,0.00205048,10,1.26546e-05,-3.49899,0.211578,0.278857,3.4558,0.0399245,
2,1,0,1,0,52171.8,0.041749,0.041443,0.32317,27,0.00215057,10,1.33931e-05,-3.49057,0.236374,0.249604,3.13198,0.041443,
2,1,0,1,0,52172,0.0432472,0.0429403,0.328256,27,0.00225195,10,1.40954e-05,-3.48379,0.243886,0.241916,3.09123,0.0429403,
2,1,0,1,0,52172.3,0.0447456,0.044404,0.332347,27,0.00235448,10,1.47575e-05,-3.47841,0.246971,0.238894,3.09025,0.044404,
2,1,0,1,0,52172.6,0.0462435,0.0459434,0.336626,27,0.00245864,10,1.54657e-05,-3.47285,0.218354,0.270204,3.54194,0.0459434,
2,1,0,1,0,52172.9,0.0477413,0.0473743,0.341757,27,0.00256419,10,1.61905e-05,-3.46628,0.263477,0.223929,2.98293,0.0473743,
2,1,0,0,0,52173.2,0.0492399,0.0488786,0.346051,27,0.00267114,10,1.69145e-05,-3.46086,0.276398,0.21346,2.88296,0.0488786,
2,1,0,0,0,52173.5,0.0507381,0.0504278,0.349636,27,0.00277929,10,1.76314e-05,-3.45638,0.271531,0.217286,2.96653,0.0504278,
2,1,0,1,0,52173.8,0.0522367,0.0518736,0.356044,27,0.00288894,10,1.84693e-05,-3.4485,0.257209,0.229385,3.17289,0.0518736,
2,1,0,1,0,52174.1,0.0537345,0.0533969,0.360269,27,0.003,10,1.92373e-05,-3.44337,0.281802,0.209367,2.93537,0.0533969,
2,1,0,1,0,52174.4,0.0552323,0.0549066,0.364409,27,0.00311242,10,2.00084e-05,-3.43841,0.331118,0.178184,2.52159,0.0549066,
2,1,0,1,0,52174.7,0.0567309,0.0563629,0.365576,27,0.003226,10,2.06049e-05,-3.43702,0.312266,0.188941,2.71161,0.0563629,
2,1,0,1,0,52175,0.0582291,0.0578974,0.372,27,0.00334051,10,2.15378e-05,-3.42946,0.305854,0.192902,2.79648,0.0578974,
2,1,0,1,0,52175.3,0.0597277,0.0594248,0.375902,27,0.00345656,10,2.23379e-05,-3.42492,0.320763,0.183937,2.69144,0.0594248,
2,1,0,1,0,52175.6,0.0612255,0.0609068,0.378595,27,0.00357388,10,2.3059e-05,-3.42182,0.398727,0.147971,2.18643,0.0609068,
2,1,0,1,0,52175.9,0.0627233,0.0623878,0.383328,27,0.00369236,10,2.3915e-05,-3.41643,0.380122,0.155213,2.32406,0.0623878,
2,1,0,0,0,52176.2,0.0642218,0.0639099,0.386505,27,0.0038117,10,2.47015e-05,-3.41285,0.348913,0.169097,2.56071,0.0639099,
2,1,0,0,0,52176.5,0.06572,0.0654167,0.391605,27,0.00393248,10,2.56175e-05,-3.40715,0.353806,0.166758,2.53973,0.0654167,
2,1,0,1,0,52176.8,0.0672187,0.0668825,0.395203,27,0.00405451,10,2.64322e-05,-3.40318,0.449132,0.131365,2.02063,0.0668825,
2,1,0,1,0,52177.1,0.0687165,0.0684039,0.398507,27,0.00417746,10,2.72594e-05,-3.39956,0.462991,0.127432,1.97379,0.0684039,
2,1,0,1,0,52177.4,0.0702144,0.0698637,0.401045,27,0.00430099,10,2.80185e-05,-3.39681,0.576061,0.10242,1.60086,0.0698637,
2,1,0,1,0,52177.7,0.0717128,0.0714006,0.403835,27,0.00442574,10,2.88341e-05,-3.3938,0.328723,0.179482,2.82209,0.07140056,
2,1,0,1,0,52178,0.073211,0.0728523,0.406354,27,0.00455141,10,2.96038e-05,-3.3911,0.473596,0.124579,1.97682,0.0728523,
2,1,0,1,0,52178.3,0.0747092,0.0743644,0.409678,27,0.004678,10,3.04655e-05,-3.38756,0.548943,0.107479,1.72239,0.0743644,
2,1,0,1,0,52178.6,0.0762076,0.0758832,0.410367,27,0.00480533,10,3.11399e-05,-3.38683,0.5502,0.107234,1.72525,0.0758832,
2,1,0,1,0,52178.9,0.0777054,0.0773378,0.415278,27,0.00493341,10,3.21167e-05,-3.38166,0.472971,0.124744,2.02402,0.0773378,
2,1,0,1,0,52179.2,0.0792033,0.0788588,0.419508,27,0.00506251,10,3.30819e-05,-3.37726,0.477769,0.123491,2.01527,0.0788588,
2,1,0,0,0,52179.5,0.0807019,0.0803589,0.422164,27,0.00519276,10,3.39246e-05,-3.37452,0.495251,0.119132,1.95577,0.0803589,
2,1,0,0,0,52179.8,0.0822001,0.0818795,0.423985,27,0.00532363,10,3.47157e-05,-3.37265,0.45473,0.129747,2.15255,0.0818795,
2,1,0,1,0,52180.1,0.0836986,0.083358,0.427964,27,0.00545536,10,3.56742e-05,-3.36859,0.394184,0.149676,2.50024,0.08335796,
2,1,0,1,0,52180.4,0.0851965,0.0848488,0.432622,27,0.00558831,10,3.67075e-05,-3.36389,0.400209,0.147423,2.48212,0.0848488,
2,1,0,1,0,52180.7,0.0866944,0.0863447,0.435746,27,0.00572245,10,3.76243e-05,-3.36077,0.537257,0.109817,1.86646,0.0863447,
2,1,0,1,0,52181,0.0881929,0.0878931,0.438929,27,0.0058577,10,3.85788e-05,-3.35761,0.397014,0.148609,2.55383,0.0878931,
2,1,0,1,0,52181.3,0.0896911,0.0893448,0.443568,27,0.0059938,10,3.96305e-05,-3.35304,0.337118,0.175013,3.04161,0.08934477,
2,1,0,1,0,52181.6,0.0911897,0.090872,0.449605,27,0.00613179,10,4.08565e-05,-3.34717,0.271924,0.216972,3.79548,0.090872,
2,1,0,1,0,52181.9,0.0926875,0.0923531,0.455761,27,0.00627158,10,4.2091e-05,-3.34126,0.276974,0.213016,3.78096,0.09235315,
2,1,0,1,0,52182.2,0.0941853,0.0938798,0.461925,27,0.00641287,10,4.33655e-05,-3.33543,0.275072,0.214489,3.86527,0.0938798,
2,1,0,0,0,52182.5,0.0956838,0.0953202,0.466746,27,0.00655581,10,4.44903e-05,-3.33092,0.227324,0.259542,4.7448,0.0953202,
2,1,0,0,0,52182.8,0.097182,0.0968291,0.473663,27,0.00670106,10,4.58644e-05,-3.32453,0.207713,0.284045,5.25209,0.0968291,
2,1,0,1,0,52183.1,0.0986807,0.0983374,0.482317,27,0.00684857,10,4.74298e-05,-3.31667,0.227841,0.258952,4.87709,0.0983374,
2,1,0,1,0,52183.4,0.100179,0.099864,0.489014,27,0.00699831,10,4.88349e-05,-3.31068,0.213386,0.276494,5.28474,0.099864,
2,1,0,1,0,52183.7,0.101676,0.101352,0.495396,27,0.00715022,10,5.02092e-05,-3.30505,0.214912,0.274531,5.32887,0.101352,
2,1,0,1,0,52184,0.103175,0.102834,0.505156,27,0.00730464,10,5.19473e-05,-3.29657,0.198625,0.297043,5.85692,0.102834,
2,1,0,1,0,52184.3,0.104673,0.104378,0.515263,27,0.00746158,10,5.37822e-05,-3.28797,0.214523,0.275029,5.50685,0.104378,
2,1,0,1,0,52184.6,0.106171,0.105835,0.522161,27,0.00762116,10,5.5263e-05,-3.2822,0.24475,0.241062,4.89908,0.105835,
2,1,0,1,0,52184.9,0.10767,0.107362,0.528732,27,0.00778285,10,5.6766e-05,-3.27676,0.264584,0.222992,4.60536,0.1073625,
2,1,0,1,0,52185.2,0.109167,0.108813,0.535917,27,0.00794647,10,5.83145e-05,-3.2709,0.257753,0.228901,4.79576,0.108813,
2,1,0,1,0,52185.5,0.110665,0.110363,0.543988,27,0.0081125,10,6.0036e-05,-3.26441,0.267912,0.220222,4.6742,0.110363,
2,1,0,0,0,52185.8,0.112164,0.111836,0.549548,27,0.00828071,10,6.14593e-05,-3.25999,0.317954,0.185562,3.97755,0.111836,
2,1,0,0,0,52186.1,0.113662,0.113327,0.555785,27,0.00845069,10,6.29854e-05,-3.25509,0.319109,0.18489,4.00627,0.113327,
2,1,0,1,0,52186.4,0.115161,0.114826,0.5622,27,0.00862212,10,6.4555e-05,-3.25011,0.341258,0.17289,3.78435,0.114826,
2,1,0,1,0,52186.7,0.116658,0.116316,0.566461,27,0.00879537,10,6.58886e-05,-3.24683,0.358154,0.164733,3.63548,0.116316,
2,1,0,1,0,52187,0.118156,0.117814,0.571229,27,0.00897035,10,6.72989e-05,-3.24319,0.435775,0.135391,3.0188,0.117814,
2,1,0,1,0,52187.3,0.119655,0.11932,0.574992,27,0.00914647,10,6.86083e-05,-3.24034,0.664751,0.088755,1.99483,0.11932,
2,1,0,1,0,52187.6,0.121153,0.120839,0.576924,27,0.0093234,10,6.97148e-05,-3.23888,0.56248,0.104893,2.37147,0.120839,
2,1,0,1,0,52187.9,0.122652,0.122337,0.582278,27,0.00950151,10,7.1234e-05,-3.23487,0.466997,0.126339,2.8674,0.122337,
2,1,0,1,0,52188.2,0.124149,0.123812,0.586479,27,0.0096808,10,7.26132e-05,-3.23175,0.561448,0.105085,2.40248,0.123812,
2,1,0,1,0,52188.5,0.125647,0.125329,0.589302,27,0.00986102,10,7.38569e-05,-3.22966,1.1397,0.0517681,1.18767,0.125329,
2,1,0,0,0,52188.8,0.127146,0.126789,0.588723,27,0.010042,10,7.46435e-05,-3.23009,0.791688,0.0745243,1.71666,0.126789,
2,1,0,0,0,52189.1,0.128644,0.128302,0.593,27,0.0102232,10,7.60831e-05,-3.22695,1.44127,0.040936,0.946002,0.128302,
2,1,0,1,0,52189.4,0.130143,0.129807,0.595087,27,0.0104054,10,7.72465e-05,-3.22542,-7.15647,-0.00824429,-0.190497,0.129807,
2,1,0,1,0,52189.7,0.131641,0.131307,0.593584,27,0.0105875,10,7.7942e-05,-3.22652,-0.849439,-0.0694576,-1.59926,0.131307,
2,1,0,1,0,52190,0.133138,0.13281,0.590146,27,0.010769,10,7.8377e-05,-3.22904,-0.580927,-0.101562,-2.33541,0.13281,
2,1,0,1,0,52190.3,0.134637,0.134321,0.585795,27,0.0109491,10,7.86844e-05,-3.23225,-0.357673,-0.164955,-3.76047,0.134321,
2,1,0,1,0,52190.6,0.136135,0.135797,0.577856,27,0.0111277,10,7.84711e-05,-3.23818,-0.248814,-0.237125,-5.32661,0.135797,
2,1,0,1,0,52190.9,0.137633,0.137316,0.56955,27,0.0113038,10,7.82086e-05,-3.24447,-0.168276,-0.350614,-7.74162,0.137316,
2,1,0,1,0,52191.2,0.139132,0.138783,0.557093,27,0.0114766,10,7.73152e-05,-3.25407,-0.137889,-0.427879,-9.25535,0.138783,
2,1,0,1,0,52191.5,0.140629,0.140293,0.542126,27,0.0116448,10,7.60564e-05,-3.2659,-0.114441,-0.51555,-10.8506,0.140293,
2,1,0,1,0,52191.8,0.142127,0.141813,0.524068,27,0.0118085,10,7.43199e-05,-3.28061,-0.100371,-0.587817,-11.9673,0.141813,
2,1,0,0,0,52192.1,0.143626,0.143279,0.50505,27,0.0119669,10,7.23631e-05,-3.29667,-0.0855475,-0.689675,-13.5484,0.143279,
2,1,0,0,0,52192.4,0.145124,0.144761,0.48357,27,0.012119,10,7.00019e-05,-3.31554,-0.0767209,-0.769021,-14.5129,0.144761,
2,1,0,1,0,52192.7,0.146623,0.146281,0.460697,27,0.0122646,10,6.7391e-05,-3.33659,-0.0786522,-0.750138,-13.5343,0.146281,
2,1,0,1,0,52193,0.14812,0.147836,0.442107,27,0.0124038,10,6.53591e-05,-3.35447,-0.0786775,-0.749896,-12.9187,0.147836,
2,1,0,1,0,52193.3,0.149618,0.149299,0.421254,27,0.0125372,10,6.28928e-05,-3.37546,-0.0807678,-0.730489,-12.0507,0.149299,
2,1,0,1,0,52193.6,0.151117,0.150795,0.404243,27,0.0126649,10,6.0958e-05,-3.39336,-0.0797245,-0.740048,-11.7012,0.150795,
2,1,0,1,0,52193.9,0.152615,0.152339,0.386539,27,0.0127876,10,5.8885e-05,-3.41281,-0.0918932,-0.642049,-9.76318,0.152339,
2,1,0,1,0,52194.2,0.154114,0.153773,0.374217,27,0.0129058,10,5.75446e-05,-3.42688,-0.106696,-0.552975,-8.13518,0.153773,
2,1,0,1,0,52194.5,0.155612,0.155244,0.364809,27,0.0130204,10,5.66343e-05,-3.43793,-0.126077,-0.467969,-6.66971,0.155244,
2,1,0,1,0,52194.8,0.157109,0.156748,0.355079,27,0.0131322,10,5.56581e-05,-3.44967,-0.126717,-0.465604,-6.44862,0.156748,
2,1,0,0,0,52195.1,0.158608,0.158238,0.345404,27,0.0132412,10,5.46562e-05,-3.46167,-0.156703,-0.376509,-5.10828,0.158238,
2,1,0,0,0,52195.4,0.160106,0.159781,0.339259,27,0.0133475,10,5.42072e-05,-3.46947,-0.188871,-0.312382,-4.15173,0.159781,
2,1,0,1,0,52195.7,0.161605,0.161273,0.334016,27,0.0134522,10,5.38677e-05,-3.47623,-0.208366,-0.283155,-3.68617,0.161273,
2,1,0,1,0,52196,0.163102,0.162723,0.328633,27,0.0135553,10,5.34761e-05,-3.48329,-0.248578,-0.23735,-3.04626,0.162723,
2,1,0,1,0,52196.3,0.1646,0.164274,0.324331,27,0.0136569,10,5.32793e-05,-3.48901,-0.255579,-0.230849,-2.92068,0.164274,
2,1,0,1,0,52196.6,0.166099,0.165787,0.320178,27,0.0137572,10,5.30814e-05,-3.49461,-0.29857,-0.197608,-2.47381,0.165787,
2,1,0,1,0,52196.9,0.167597,0.167278,0.317573,27,0.0138565,10,5.31231e-05,-3.49816,-0.467008,-0.126336,-1.56176,0.167278,
2,1,0,1,0,52197.2,0.169095,0.168772,0.314157,27,0.013955,10,5.3021e-05,-3.50285,-0.455857,-0.129427,-1.58765,0.168772,
2,1,0,1,0,52197.5,0.170594,0.170272,0.312264,27,0.0140527,10,5.31698e-05,-3.50548,-0.385609,-0.153005,-1.86273,0.1702722,
2,1,0,1,0,52197.8,0.172091,0.17175,0.307853,27,0.0141495,10,5.28737e-05,-3.51166,-0.542913,-0.108673,-1.3122,0.17175,
2,1,0,1,0,52198.1,0.173589,0.173269,0.307401,27,0.0142456,10,5.32633e-05,-3.51229,-0.584015,-0.101025,-1.21125,0.173269,
2,1,0,0,0,52198.4,0.175088,0.174782,0.305648,27,0.0143412,10,5.34216e-05,-3.51478,-0.755205,-0.0781245,-0.932575,0.174782,
2,1,0,0,0,52198.7,0.176586,0.176245,0.304086,27,0.0144364,10,5.35936e-05,-3.517,-0.474223,-0.124414,-1.47206,0.176245,
2,1,0,1,0,52199,0.178085,0.177737,0.301847,27,0.0145312,10,5.36493e-05,-3.52021,-0.651457,-0.0905662,-1.06852,0.177737,
2,1,0,1,0,52199.3,0.179582,0.179257,0.301024,27,0.0146252,10,5.39606e-05,-3.5214,-0.836792,-0.0705073,-0.831494,0.179257,
2,1,0,1,0,52199.6,0.18108,0.180751,0.299507,27,0.0147192,10,5.41363e-05,-3.52359,-0.982537,-0.0600486,-0.704658,0.180751,
2,1,0,1,0,52199.9,0.182579,0.182228,0.298516,27,0.0148128,10,5.43979e-05,-3.52503,-0.66142,-0.089202,-1.03918,0.182228,
2,1,0,1,0,52200.2,0.184077,0.183754,0.298032,27,0.0149061,10,5.47644e-05,-3.52574,-1.00638,-0.0586261,-0.682451,0.1837538,
2,1,0,1,0,52200.5,0.185576,0.185263,0.296885,27,0.0149989,10,5.50019e-05,-3.52741,-1.00721,-0.0585778,-0.67875,0.185263,
2,1,0,1,0,52200.8,0.187074,0.186759,0.29662,27,0.0150915,10,5.53964e-05,-3.5278,-8.00625,-0.00736925,-0.0850978,0.186759,
2,1,0,1,0,52201.1,0.188571,0.188216,0.296566,27,0.015184,10,5.58185e-05,-3.52788,-2.25591,-0.0261535,-0.301273,0.188216,
2,1,0,0,0,52201.4,0.19007,0.189764,0.295732,27,0.0152763,10,5.61193e-05,-3.5291,-0.970876,-0.0607698,-0.698484,0.1897642,
2,1,0,0,0,52201.7,0.191568,0.191235,0.293379,27,0.0153683,10,5.61044e-05,-3.53257,-1.51444,-0.0389583,-0.447409,0.191235,
2,1,0,1,0,52202,0.193067,0.192707,0.293195,27,0.01546,10,5.65009e-05,-3.53284,-5.88715,-0.0100218,-0.114657,0.192707,
2,1,0,1,0,52202.3,0.194564,0.194213,0.292689,27,0.0155517,10,5.68439e-05,-3.53359,-1.53548,-0.0384246,-0.439566,0.194213,
2,1,0,1,0,52202.6,0.196062,0.195708,0.292076,27,0.0156432,10,5.71616e-05,-3.5345,-1.20733,-0.0488683,-0.557512,0.195708,
2,1,0,1,0,52202.9,0.197561,0.197182,0.290386,27,0.0157343,10,5.72588e-05,-3.53702,-1.49059,-0.0395815,-0.451944,0.197182,
2,1,0,1,0,52203.2,0.199059,0.198728,0.291836,27,0.0158252,10,5.7996e-05,-3.53486,-2.18448,-0.0270087,-0.306401,0.198728,
2,1,0,1,0,52203.5,0.200557,0.20024,0.290303,27,0.0159161,10,5.81302e-05,-3.53715,-3.21377,-0.0183585,-0.207741,0.20024,
2,1,0,1,0,52203.8,0.202056,0.201744,0.289859,27,0.0160068,10,5.84772e-05,-3.53781,-1.0939,-0.0539354,-0.60938,0.201744,
2,1,0,1,0,52204.1,0.203553,0.203212,0.288643,27,0.0160973,10,5.86557e-05,-3.53964,-2.20543,-0.0267522,-0.302059,0.203212,
2,1,0,1,0,52204.4,0.205051,0.204724,0.288483,27,0.0161875,10,5.90594e-05,-3.53988,2.69935,0.0218571,0.248087,0.204724,
2,1,0,0,0,52204.7,0.20655,0.206225,0.288266,27,0.0162777,10,5.94476e-05,-3.54021,-1.81555,-0.0324971,-0.366322,0.206225,
2,1,0,0,0,52205,0.208048,0.207743,0.288313,27,0.0163681,10,5.98951e-05,-3.54014,-1.52625,-0.0386569,-0.435191,0.207743,
2,1,0,1,0,52205.3,0.209547,0.209235,0.28712,27,0.016458,10,6.00755e-05,-3.54194,-1.38726,-0.0425299,-0.47788,0.209235,
2,1,0,1,0,52205.6,0.211044,0.210719,0.287075,27,0.0165477,10,6.04922e-05,-3.542,-5.1637,-0.0114259,-0.12772,0.210719,
2,1,0,1,0,52205.9,0.212542,0.2122,0.287897,27,0.0166374,10,6.10916e-05,-3.54076,-3.73087,-0.015814,-0.177052,0.2122,
2,1,0,1,0,52206.2,0.214041,0.213719,0.287144,27,0.0167269,10,6.13681e-05,-3.5419,-2.05897,-0.0286551,-0.319787,0.213719,
2,1,0,1,0,52206.5,0.215539,0.215215,0.286214,27,0.0168164,10,6.15974e-05,-3.54331,-3.44863,-0.0171082,-0.190856,0.215215,
2,1,0,1,0,52206.8,0.217038,0.216679,0.285524,27,0.0169055,10,6.1867e-05,-3.54436,-2.56754,-0.0229792,-0.256215,0.216679,
2,1,0,1,0,52207.1,0.218535,0.218237,0.284909,27,0.0169947,10,6.21778e-05,-3.54529,-2.55503,-0.0230917,-0.2564,0.218237,
2,1,0,1,0,52207.4,0.220033,0.219716,0.285741,27,0.0170838,10,6.27818e-05,-3.54403,-9.97592,-0.00591424,-0.0657932,0.219716,
2,1,0,0,0,52207.7,0.221532,0.221213,0.284509,27,0.0171728,10,6.29369e-05,-3.5459,-1.29983,-0.0453906,-0.503883,0.221213,
2,1,0,0,0,52208,0.22303,0.222729,0.282734,27,0.0172616,10,6.29732e-05,-3.54862,-2.88744,-0.0204333,-0.226559,0.222729,
2,1,0,1,0,52208.3,0.224529,0.224196,0.283794,27,0.0173503,10,6.36254e-05,-3.547,-2.39232,-0.0246622,-0.272951,0.224196,
2,1,0,1,0,52208.6,0.226026,0.225676,0.283438,27,0.0174389,10,6.39652e-05,-3.54754,-2.47181,-0.0238692,-0.263367,0.225676,
2,1,0,1,0,52208.9,0.227524,0.227176,0.282598,27,0.0175274,10,6.41996e-05,-3.54883,-1.38704,-0.0425365,-0.469413,0.227176,
2,1,0,1,0,52209.2,0.229023,0.228679,0.282416,27,0.0176158,10,6.45827e-05,-3.54911,-2.22015,-0.0265748,-0.293423,0.228679,
2,1,0,1,0,52209.5,0.230521,0.2302,0.281604,27,0.0177039,10,6.48251e-05,-3.55036,-1.17433,-0.0502413,-0.553428,0.2302,
2,1,0,1,0,52209.8,0.232019,0.231699,0.281454,27,0.017792,10,6.52127e-05,-3.55059,-1.98668,-0.0296978,-0.326694,0.231699,
2,1,0,1,0,52210.1,0.233518,0.233196,0.281777,27,0.0178802,10,6.57091e-05,-3.55009,-1.41526,-0.0416884,-0.457809,0.233196,
2,1,0,1,0,52210.4,0.235015,0.234688,0.281336,27,0.0179681,10,6.60263e-05,-3.55077,-11.8263,-0.00498889,-0.054809,0.234688,
2,1,0,1,0,52210.7,0.236513,0.236168,0.280093,27,0.0180558,10,6.61491e-05,-3.5527,-3.93187,-0.0150056,-0.164165,0.236168,
2,1,0,0,0,52211,0.238012,0.237655,0.28079,27,0.0181435,10,6.67311e-05,-3.55162,4.57988,0.0128824,0.140606,0.237655,
2,1,0,0,0,52211.3,0.23951,0.239197,0.280046,27,0.0182312,10,6.69862e-05,-3.55277,-3.57481,-0.0165044,-0.180123,0.239197,
2,1,0,1,0,52211.6,0.241009,0.240682,0.28003,27,0.0183188,10,6.73983e-05,-3.5528,-1.94083,-0.0303994,-0.332663,0.2406822,
2,1,0,1,0,52211.9,0.242506,0.242161,0.278452,27,0.0184061,10,6.74303e-05,-3.55525,-1.80709,-0.0326493,-0.356236,0.242161,
2,1,0,1,0,52212.2,0.244004,0.243672,0.279272,27,0.0184933,10,6.80507e-05,-3.55397,12.3962,0.00475952,0.0518071,0.243672,
2,1,0,1,0,52212.5,0.245503,0.245197,0.279781,27,0.0185807,10,6.86015e-05,-3.55318,-14.1769,-0.00416171,-0.0453214,0.245197,
2,1,0,1,0,52212.8,0.247001,0.246716,0.278187,27,0.0186679,10,6.86332e-05,-3.55566,-1.55193,-0.0380171,-0.412024,0.246716,
2,1,0,1,0,52213.1,0.2485,0.248209,0.277206,27,0.018755,10,6.8805e-05,-3.5572,-1.7493,-0.0337278,-0.365761,0.248209,
2,1,0,1,0,52213.4,0.249997,0.249675,0.278748,27,0.018842,10,6.95965e-05,-3.55479,-4.20725,-0.0140234,-0.151862,0.249675,
2,1,0,1,0,52213.7,0.251495,0.251153,0.278075,27,0.0189289,10,6.98393e-05,-3.55584,-1.93665,-0.0304649,-0.330193,0.251153,
2,1,0,0,0,52214,0.252994,0.252654,0.27715,27,0.0190158,10,7.0023e-05,-3.55729,-1.34491,-0.0438693,-0.473618,0.252654,
2,1,0,0,0,52214.3,0.254492,0.254155,0.27658,27,0.0191025,10,7.02943e-05,-3.55818,-1.31564,-0.0448451,-0.484974,0.254155,
2,1,0,1,0,52214.6,0.255991,0.255687,0.276388,27,0.0191889,10,7.06687e-05,-3.55848,26.4985,0.00222654,0.0240366,0.255687,
2,1,0,1,0,52214.9,0.257488,0.257151,0.277013,27,0.0192754,10,7.12341e-05,-3.5575,6.87963,0.00857604,0.0922899,0.257151,
2,1,0,1,0,52215.2,0.258986,0.258673,0.276602,27,0.0193619,10,7.15497e-05,-3.55814,-2.43407,-0.0242392,-0.260497,0.258673,
2,1,0,1,0,52215.5,0.260485,0.260139,0.275333,27,0.0194482,10,7.1625e-05,-3.56014,-1.66543,-0.0354262,-0.381104,0.260139,
2,1,0,1,0,52215.8,0.261983,0.261661,0.275,27,0.0195342,10,7.19568e-05,-3.56067,-21.9394,-0.00268922,-0.0288987,0.261661,
2,1,0,1,0,52216.1,0.263481,0.263204,0.275183,27,0.0196202,10,7.24291e-05,-3.56038,-49.2959,-0.00119685,-0.0128029,0.263204,
2,1,0,1,0,52216.4,0.26498,0.264644,0.274575,27,0.0197063,10,7.26646e-05,-3.56134,1.75792,0.0335624,0.3606,0.264644,
2,1,0,1,0,52216.7,0.266477,0.266155,0.275091,27,0.0197923,10,7.32169e-05,-3.56052,-2.06634,-0.0285529,-0.306545,0.266155,
2,1,0,0,0,52217,0.267976,0.26767,0.273366,27,0.0198782,10,7.3172e-05,-3.56326,-10.3895,-0.00567879,-0.0607697,0.26767,
2,1,0,0,0,52217.3,0.269474,0.269097,0.273011,27,0.0199638,10,7.34667e-05,-3.56382,-4.75532,-0.0124072,-0.132596,0.269097,
2,1,0,0,0,52217.6,0.270972,0.270665,0.274043,27,0.0200494,10,7.41739e-05,-3.56218,-1.47419,-0.0400221,-0.426641,0.270665,
2,1,0,1,0,52217.9,0.27247,0.272142,0.273024,27,0.0201349,10,7.43013e-05,-3.5638,-1.16416,-0.0506801,-0.539698,0.2721422,
2,1,0,1,0,52218.2,0.273968,0.27367,0.272156,27,0.0202202,10,7.44808e-05,-3.56518,-2.15307,-0.0274027,-0.291315,0.2736699,
2,1,0,1,0,52218.5,0.275466,0.27517,0.271462,27,0.0203052,10,7.46982e-05,-3.56629,-1.81791,-0.0324548,-0.345258,0.27517,
2,1,0,1,0,52218.8,0.276965,0.276638,0.270651,27,0.0203902,10,7.48724e-05,-3.56759,-1.62566,-0.0362929,-0.385605,0.276638,
2,1,0,1,0,52219.1,0.278463,0.278188,0.270959,27,0.0204752,10,7.53776e-05,-3.5671,-0.790175,-0.074667,-0.789369,0.278188,
2,1,0,1,0,52219.4,0.279962,0.279657,0.271209,27,0.02056,10,7.58456e-05,-3.5667,-2.14183,-0.0275466,-0.291543,0.279657,
2,1,0,1,0,52219.7,0.281459,0.281138,0.270877,27,0.0206445,10,7.61539e-05,-3.56723,-1.62974,-0.036202,-0.382867,0.281138,
2,1,0,1,0,52220,0.282957,0.28265,0.270102,27,0.020729,10,7.63444e-05,-3.56847,-1.6926,-0.0348576,-0.367875,0.28265,
2,1,0,0,0,52220.3,0.284456,0.284104,0.269936,27,0.0208136,10,7.66899e-05,-3.56874,-2.23029,-0.0264539,-0.278373,0.284104,
2,1,0,0,0,52220.6,0.285954,0.285633,0.270332,27,0.0208979,10,7.72158e-05,-3.5681,-2.15824,-0.0273371,-0.287835,0.285633,
2,1,0,0,0,52220.9,0.287452,0.287131,0.269248,27,0.0209821,10,7.73093e-05,-3.56985,-1.52109,-0.038788,-0.407829,0.287131,
2,1,0,1,0,52221.2,0.28895,0.288653,0.270069,27,0.0210663,10,7.79565e-05,-3.56852,1.21224,0.0486704,0.510089,0.288653,
2,1,0,1,0,52221.5,0.290448,0.290164,0.269457,27,0.0211504,10,7.81869e-05,-3.56951,-2.03147,-0.029043,-0.303818,0.2901642,
2,1,0,1,0,52221.8,0.291947,0.291643,0.268098,27,0.0212344,10,7.81889e-05,-3.57171,-1.67823,-0.0351561,-0.367378,0.291643,
2,1,0,1,0,52222.1,0.293445,0.293094,0.267175,27,0.0213181,10,7.83076e-05,-3.5732,11.703,0.00504143,0.0526996,0.293094,
2,1,0,1,0,52222.4,0.294943,0.294608,0.26708,27,0.0214016,10,7.86838e-05,-3.57336,-3.37973,-0.017457,-0.182246,0.294608,
2,1,0,1,0,52222.7,0.296442,0.296122,0.268321,27,0.0214853,10,7.94558e-05,-3.57135,-2.53107,-0.0233103,-0.242953,0.296122,
2,1,0,1,0,52223,0.297939,0.29767,0.267151,27,0.0215689,10,7.95229e-05,-3.57324,-1.05912,-0.0557064,-0.578671,0.29767,
2,1,0,1,0,52223.3,0.299437,0.299119,0.265348,27,0.0216523,10,7.93708e-05,-3.57618,-0.00279088,-21.1403,-114.98,0.299119,
2,1,0,1,0,52223.5,0.299737,0.299442,0.130924,27,0.0216917,10,3.9204e-05,-3.88298,0.00101789,57.963,206.644,0.299442,
2,1,0,1,0,52223.8,0.29824,0.2979,0.0257078,27,0.0217055,10,7.65836e-06,-4.58993,0.00115782,50.9576,68.9269,0.2979,
2,1,0,0,0,52224.1,0.296741,0.296408,0.00598113,27,0.0217064,10,1.77286e-06,-5.22322,0.00716278,8.23703,12.0513,0.296408,
2,1,0,0,0,52224.4,0.295243,0.294895,-0.00751687,27,0.0217026,10,-2.21669e-06,-5.12396,-0.0183833,-3.20944,7.34132,0.294895,
2,0,0,1,0,52224.7,0.293744,0.29342,-0.0168706,27,0.0216957,10,-4.95017e-06,-4.77287,-0.00402991,-14.6405,6.02097,0.29342,
2,0,0,1,0,52225,0.292246,0.291926,-0.0234819,27,0.0216864,10,-6.85498e-06,-4.62927,-0.00957382,-6.16264,5.04327,0.291926,
2,0,0,1,0,52225.3,0.290749,0.290426,-0.0302259,27,0.0216749,10,-8.77838e-06,-4.51962,-0.0149568,-3.94469,4.42888,0.290426,
2,0,0,1,0,52225.6,0.28925,0.288911,-0.0357202,27,0.0216614,10,-1.032e-05,-4.44709,-0.0217662,-2.71063,3.77268,0.288911,
2,0,0,1,0,52225.9,0.287752,0.287389,-0.0421821,27,0.0216461,10,-1.21227e-05,-4.37487,-0.0283747,-2.07931,3.34589,0.287389,
2,0,0,1,0,52226.2,0.286253,0.285937,-0.0453754,27,0.0216296,10,-1.29745e-05,-4.34318,-0.033689,-1.75131,3.1774,0.285937,
2,0,0,1,0,52226.5,0.284755,0.28443,-0.0516512,27,0.0216114,10,-1.46911e-05,-4.28692,-0.0367781,-1.60421,3.14898,0.2844297,
2,0,0,1,0,52226.8,0.283257,0.282888,-0.0564655,27,0.0215917,10,-1.59734e-05,-4.24822,-0.0455073,-1.2965,2.81553,0.282888,
2,0,0,0,0,52227.1,0.281759,0.281397,-0.060175,27,0.0215708,10,-1.69331e-05,-4.22058,-0.0592465,-0.99584,2.3259,0.281397,
2,0,0,0,0,52227.4,0.280261,0.279942,-0.0630239,27,0.0215487,10,-1.76431e-05,-4.20049,-0.0601641,-0.980651,2.42856,0.279942,
2,0,0,0,0,52227.7,0.278763,0.278411,-0.0679955,27,0.0215255,10,-1.89307e-05,-4.16752,-0.0596015,-0.989908,2.59839,0.278411,
2,0,0,1,0,52228,0.277264,0.276926,-0.0721983,27,0.021501,10,-1.99936e-05,-4.14147,-0.0754335,-0.782146,2.17479,0.276926,
2,0,0,1,0,52228.3,0.275766,0.275443,-0.0750803,27,0.0214756,10,-2.06804e-05,-4.12447,-0.0975641,-0.604731,1.74271,0.275443,
2,0,0,1,0,52228.6,0.274269,0.273932,-0.0771978,27,0.0214491,10,-2.1147e-05,-4.1124,-0.0774516,-0.761766,2.31425,0.2739324,
2,0,0,1,0,52228.9,0.27277,0.272404,-0.0807945,27,0.0214217,10,-2.20087e-05,-4.09262,-0.0793583,-0.743464,2.38435,0.272404,
2,0,0,1,0,52229.2,0.271272,0.270958,-0.0845739,27,0.0213933,10,-2.2916e-05,-4.07276,-0.107724,-0.547696,1.79739,0.270958,
2,0,0,1,0,52229.5,0.269773,0.269464,-0.0877667,27,0.0213638,10,-2.365e-05,-4.05667,-0.104482,-0.564692,1.91797,0.269464,
2,0,0,1,0,52229.8,0.268275,0.267944,-0.0905574,27,0.0213335,10,-2.42643e-05,-4.04308,-0.117705,-0.501251,1.76331,0.267944,
2,0,0,1,0,52230.1,0.266778,0.266455,-0.0928389,27,0.0213025,10,-2.47373e-05,-4.03227,-0.123207,-0.478868,1.73398,0.266455,
2,0,0,0,0,52230.3,0.265279,0.264954,-0.0962036,27,0.0212706,10,-2.54896e-05,-4.01681,-0.101155,-0.583261,2.16579,0.264954,
2,0,0,0,0,52230.6,0.263781,0.263454,-0.098253,27,0.0212378,10,-2.58851e-05,-4.00765,-0.128173,-0.460317,1.77116,0.263454,
2,0,0,1,0,52230.9,0.262282,0.262008,-0.10072,27,0.0212043,10,-2.63894e-05,-3.99689,-0.144307,-0.40885,1.60804,0.262008,
2,0,0,1,0,52231.2,0.260784,0.260475,-0.101366,27,0.0211703,10,-2.64033e-05,-3.99411,-0.138115,-0.427182,1.71359,0.260475,
2,0,0,1,0,52231.5,0.259286,0.258989,-0.105614,27,0.0211354,10,-2.73529e-05,-3.97628,-0.146763,-0.402009,1.65429,0.258989,
2,0,0,1,0,52231.8,0.257788,0.257456,-0.107951,27,0.0210999,10,-2.77927e-05,-3.96677,-0.192187,-0.306992,1.28867,0.2574563,
2,0,0,1,0,52232.1,0.25629,0.255957,-0.109964,27,0.0210635,10,-2.8146e-05,-3.95875,-0.18839,-0.313179,1.33922,0.255957,
2,0,0,1,0,52232.4,0.254791,0.254489,-0.111014,27,0.0210267,10,-2.82519e-05,-3.95462,-0.183128,-0.32218,1.40525,0.254489,
2,0,0,1,0,52232.7,0.253293,0.252977,-0.115143,27,0.0209891,10,-2.91286e-05,-3.93876,-0.196223,-0.300678,1.34086,0.252977,
2,0,0,1,0,52233,0.251795,0.251479,-0.116605,27,0.0209509,10,-2.93237e-05,-3.93328,-0.222676,-0.264959,1.21346,0.251479,
2,0,0,0,0,52233.3,0.250297,0.249957,-0.118312,27,0.020912,10,-2.95728e-05,-3.92697,-0.258774,-0.227998,1.04742,0.249957,
2,0,0,0,0,52233.6,0.248799,0.248481,-0.120981,27,0.0208724,10,-3.00614e-05,-3.91728,-0.208722,-0.282673,1.33263,0.248481,
2,0,0,0,0,52233.9,0.247301,0.246989,-0.122321,27,0.0208325,10,-3.0212e-05,-3.9125,-0.229146,-0.257477,1.23419,0.246989,
2,0,0,1,0,52234.2,0.245802,0.245507,-0.125554,27,0.0207918,10,-3.08244e-05,-3.90117,-0.208638,-0.282787,1.36866,0.245507,
2,0,0,1,0,52234.5,0.244304,0.243993,-0.126567,27,0.0207504,10,-3.08814e-05,-3.89768,-0.25558,-0.230847,1.13537,0.243993,
2,0,0,1,0,52234.8,0.242806,0.242501,-0.128856,27,0.0207085,10,-3.12478e-05,-3.88989,-0.244184,-0.241621,1.21274,0.242501,
2,0,0,1,0,52235.1,0.241308,0.240993,-0.130549,27,0.0206661,10,-3.14615e-05,-3.88423,-0.20253,-0.291315,1.48447,0.2409935,
2,0,0,1,0,52235.4,0.23981,0.239475,-0.131586,27,0.0206232,10,-3.15115e-05,-3.88079,-0.201768,-0.292415,1.49831,0.239475,
2,0,0,1,0,52235.7,0.238311,0.238016,-0.133701,27,0.0205795,10,-3.1823e-05,-3.87386,-0.18872,-0.312633,1.63968,0.238016,
2,0,0,1,0,52236,0.236813,0.2365,-0.136167,27,0.0205354,10,-3.22033e-05,-3.86593,-0.241198,-0.244613,1.30107,0.2364995,
2,0,0,1,0,52236.3,0.235316,0.234958,-0.136384,27,0.0204907,10,-3.20444e-05,-3.86524,-0.227772,-0.25903,1.39425,0.234958,
2,0,0,0,0,52236.6,0.233817,0.233469,-0.139825,27,0.0204455,10,-3.26447e-05,-3.85442,-0.243509,-0.242291,1.31821,0.233469,
2,0,0,0,0,52236.9,0.232319,0.231978,-0.142906,27,0.0203996,10,-3.31511e-05,-3.84495,-0.326025,-0.180968,0.995721,0.231978,
2,0,0,1,0,52237.2,0.23082,0.230488,-0.143218,27,0.0203532,10,-3.30101e-05,-3.844,-0.433915,-0.135971,0.758899,0.230488,
2,0,0,1,0,52237.5,0.229322,0.229026,-0.144248,27,0.0203065,10,-3.30365e-05,-3.84089,-0.330049,-0.178761,1.00696,0.229026,
2,0,0,1,0,52237.8,0.227825,0.227525,-0.146324,27,0.0202593,10,-3.32922e-05,-3.83469,-0.257394,-0.229221,1.31385,0.227525,
2,0,0,1,0,52238.1,0.226326,0.226025,-0.148525,27,0.0202114,10,-3.35702e-05,-3.8282,-0.236983,-0.248963,1.44159,0.226025,
2,0,0,1,0,52238.4,0.224828,0.224507,-0.150511,27,0.020163,10,-3.37908e-05,-3.82243,-0.466399,-0.126501,0.738551,0.224507,
2,0,0,1,0,52238.7,0.223329,0.223027,-0.151623,27,0.0201139,10,-3.38159e-05,-3.81924,-0.325613,-0.181197,1.07148,0.223027,
2,0,0,1,0,52239,0.221831,0.2215,-0.15424,27,0.0200646,10,-3.41641e-05,-3.8118,-0.293402,-0.201089,1.20426,0.2215,
2,0,0,1,0,52239.3,0.220333,0.220015,-0.156452,27,0.0200146,10,-3.44218e-05,-3.80562,-0.270568,-0.21806,1.31849,0.220015,
2,0,0,0,0,52239.6,0.218835,0.218514,-0.156716,27,0.019964,10,-3.42447e-05,-3.80489,-0.290584,-0.203039,1.24247,0.218514,
2,0,0,0,0,52239.9,0.217337,0.216993,-0.158692,27,0.0199128,10,-3.44352e-05,-3.79944,-0.469117,-0.125768,0.78077,0.2169933,
2,0,0,0,0,52240.2,0.215839,0.215496,-0.15996,27,0.0198614,10,-3.44708e-05,-3.79599,-0.312997,-0.1885,1.18563,0.215496,
2,0,0,1,0,52240.5,0.21434,0.214017,-0.162388,27,0.0198094,10,-3.47536e-05,-3.78945,-0.243682,-0.242119,1.53072,0.214017,
2,0,0,1,0,52240.8,0.212842,0.212504,-0.164808,27,0.0197567,10,-3.50222e-05,-3.78302,-0.325123,-0.18147,1.16237,0.212504,
2,0,0,1,0,52241.1,0.211344,0.210957,-0.165571,27,0.0197036,10,-3.49284e-05,-3.78102,-0.35327,-0.167011,1.08235,0.210957,
2,0,0,1,0,52241.4,0.209846,0.209513,-0.165767,27,0.01965,10,-3.47303e-05,-3.7805,-0.314909,-0.187356,1.22008,0.2095132,
2,0,0,1,0,52241.7,0.208348,0.208013,-0.169386,27,0.019596,10,-3.52343e-05,-3.77112,-0.285215,-0.206861,1.36555,0.208013,
2,0,0,1,0,52242,0.206849,0.206525,-0.17304,27,0.0195412,10,-3.57369e-05,-3.76185,-0.242061,-0.24374,1.62928,0.206525,
2,0,0,1,0,52242.3,0.205351,0.205014,-0.172646,27,0.0194857,10,-3.53949e-05,-3.76284,-0.414609,-0.142303,0.957848,0.205014,
2,0,0,1,0,52242.6,0.203854,0.203525,-0.174067,27,0.0194298,10,-3.5427e-05,-3.75928,-0.518523,-0.113785,0.775156,0.203525,
2,0,0,0,0,52242.9,0.202355,0.202014,-0.175858,27,0.0193737,10,-3.55257e-05,-3.75484,-0.324775,-0.181664,1.25122,0.202014,
2,0,0,0,0,52243.2,0.200857,0.200494,-0.177887,27,0.0193168,10,-3.56653e-05,-3.74986,-0.440585,-0.133913,0.93152,0.200494,
2,0,0,1,0,52243.5,0.199358,0.198991,-0.180248,27,0.0192594,10,-3.58678e-05,-3.74413,-0.400075,-0.147472,1.03389,0.198991,
2,0,0,1,0,52243.8,0.19786,0.197527,-0.182384,27,0.0192014,10,-3.60258e-05,-3.73901,-0.384614,-0.153401,1.08872,0.197527,
2,0,0,1,0,52244.1,0.196363,0.196044,-0.183467,27,0.0191429,10,-3.59676e-05,-3.73644,-0.284839,-0.207134,1.47972,0.196044,
2,0,0,1,0,52244.4,0.194864,0.19451,-0.18594,27,0.0190838,10,-3.61671e-05,-3.73063,-0.262446,-0.224808,1.62628,0.19451,
2,0,0,1,0,52244.7,0.193366,0.193025,-0.188188,27,0.0190238,10,-3.6325e-05,-3.72541,-0.326534,-0.180685,1.32038,0.193025,
2,0,0,1,0,52245,0.191867,0.191499,-0.189584,27,0.0189633,10,-3.63052e-05,-3.7222,-0.558331,-0.105672,0.785639,0.191499,
2,0,0,1,0,52245.3,0.190369,0.190031,-0.190604,27,0.0189025,10,-3.62207e-05,-3.71987,-0.376076,-0.156883,1.17621,0.190031,
2,0,0,1,0,52245.6,0.188871,0.188493,-0.193302,27,0.0188409,10,-3.6436e-05,-3.71376,-0.241136,-0.244675,1.83851,0.188493,
2,0,0,0,0,52245.9,0.187373,0.187067,-0.195637,27,0.0187786,10,-3.6597e-05,-3.70855,-0.28574,-0.206481,1.57853,0.187067,
2,0,0,0,0,52246.2,0.185875,0.185542,-0.197414,27,0.0187158,10,-3.66284e-05,-3.70462,-0.37779,-0.156171,1.20273,0.185542,
2,0,0,0,0,52246.5,0.184377,0.184035,-0.199002,27,0.0186523,10,-3.66233e-05,-3.70114,-0.304872,-0.193524,1.50637,0.184035,
2,0,0,1,0,52246.8,0.182878,0.182576,-0.20183,27,0.0185882,10,-3.68494e-05,-3.69501,-0.280116,-0.210627,1.66182,0.182576,
2,0,0,1,0,52247.1,0.181381,0.181047,-0.204879,27,0.0185232,10,-3.70927e-05,-3.6885,-0.319945,-0.184407,1.47658,0.181047,
2,0,0,1,0,52247.4,0.179882,0.179537,-0.207168,27,0.0184575,10,-3.71942e-05,-3.68368,-0.515213,-0.114516,0.921182,0.179537,
2,0,0,1,0,52247.7,0.178384,0.178068,-0.209668,27,0.0183911,10,-3.73351e-05,-3.67847,-0.297021,-0.198639,1.62853,0.178068,
2,0,0,1,0,52248,0.176886,0.176527,-0.211147,27,0.0183242,10,-3.72732e-05,-3.67541,-0.236355,-0.249625,2.06641,0.176527,
2,0,0,1,0,52248.3,0.175387,0.175022,-0.215098,27,0.0182563,10,-3.76469e-05,-3.66736,-0.288107,-0.204785,1.71234,0.175022,
2,0,0,1,0,52248.6,0.173889,0.173554,-0.218197,27,0.0181875,10,-3.7869e-05,-3.66115,-0.253573,-0.232674,1.96885,0.173554,
2,0,0,1,0,52248.9,0.172392,0.17208,-0.220608,27,0.0181179,10,-3.79623e-05,-3.65638,-0.22599,-0.261074,2.24231,0.17208,
2,0,0,0,0,52249.2,0.170893,0.17056,-0.222434,27,0.0180476,10,-3.79384e-05,-3.6528,-0.265586,-0.22215,1.93593,0.17056,
2,0,0,0,0,52249.5,0.169395,0.169052,-0.225462,27,0.0179763,10,-3.81149e-05,-3.64693,-0.209371,-0.281797,2.48864,0.169052,
2,0,0,1,0,52249.8,0.167896,0.167566,-0.229213,27,0.0179038,10,-3.84085e-05,-3.63976,-0.194886,-0.302742,2.72295,0.167566,
2,0,0,1,0,52250.1,0.166398,0.166042,-0.233905,27,0.0178305,10,-3.88379e-05,-3.63096,-0.255591,-0.230838,2.11198,0.166042,
2,0,0,1,0,52250.4,0.164901,0.164576,-0.236405,27,0.017756,10,-3.89065e-05,-3.62634,-0.205184,-0.287547,2.66628,0.164576,
2,0,0,1,0,52250.7,0.163402,0.163091,-0.240971,27,0.0176804,10,-3.93002e-05,-3.61803,-0.192889,-0.305876,2.87358,0.163091,
2,0,0,1,0,52251,0.161904,0.161565,-0.24574,27,0.0176036,10,-3.9703e-05,-3.60952,-0.199435,-0.295836,2.82346,0.1615648,
2,0,0,1,0,52251.3,0.160405,0.160063,-0.249781,27,0.0175254,10,-3.99807e-05,-3.60244,-0.196419,-0.300378,2.92547,0.160063,
2,0,0,1,0,52251.6,0.158907,0.158602,-0.252592,27,0.017446,10,-4.00615e-05,-3.59758,-0.17373,-0.339607,3.37519,0.158602,
2,0,0,1,0,52251.9,0.157409,0.157083,-0.259091,27,0.0173651,10,-4.06987e-05,-3.58655,-0.147255,-0.400666,4.07969,0.157083,
2,0,0,0,0,52252.2,0.155911,0.155547,-0.26623,27,0.0172824,10,-4.14113e-05,-3.57474,-0.147911,-0.398888,4.13808,0.155547,
2,0,0,0,0,52252.5,0.154413,0.154051,-0.272009,27,0.0171979,10,-4.19032e-05,-3.56542,-0.172238,-0.342548,3.6302,0.154051,
2,0,0,0,0,52252.8,0.152915,0.152552,-0.277921,27,0.0171116,10,-4.23976e-05,-3.55608,-0.14102,-0.41838,4.55774,0.152552,
2,0,0,1,0,52253.1,0.151416,0.15109,-0.285016,27,0.0170233,10,-4.30631e-05,-3.54513,-0.123597,-0.477359,5.33072,0.15109,
2,0,0,1,0,52253.4,0.149919,0.149593,-0.294718,27,0.0169325,10,-4.40879e-05,-3.53059,-0.114945,-0.51329,5.88345,0.149593,
2,0,0,1,0,52253.7,0.14842,0.148094,-0.303013,27,0.016839,10,-4.48745e-05,-3.51854,-0.109329,-0.539654,6.38798,0.148094,
2,0,0,1,0,52254,0.146922,0.146571,-0.312584,27,0.0167426,10,-4.58156e-05,-3.50503,-0.0982485,-0.600518,7.34867,0.146571,
2,0,0,1,0,52254.3,0.145424,0.145092,-0.325528,27,0.0166431,10,-4.72317e-05,-3.48741,-0.0928093,-0.635712,8.08037,0.145092,
2,0,0,1,0,52254.6,0.143925,0.143594,-0.337291,27,0.0165398,10,-4.84329e-05,-3.47199,-0.0828123,-0.712454,9.37725,0.1435937,
2,0,0,1,0,52254.9,0.142427,0.142076,-0.351254,27,0.0164323,10,-4.99047e-05,-3.45438,-0.083829,-0.703814,9.68497,0.142076,
2,0,0,1,0,52255.2,0.14093,0.14061,-0.365406,27,0.0163207,10,-5.13796e-05,-3.43722,-0.0843838,-0.699186,9.99919,0.14061,
2,0,0,0,0,52255.5,0.139431,0.1391,-0.380351,27,0.0162046,10,-5.29068e-05,-3.41982,-0.0835535,-0.706134,10.5176,0.1391,
2,0,0,0,0,52255.8,0.137933,0.13759,-0.39857,27,0.0160838,10,-5.48393e-05,-3.39949,-0.0808992,-0.729303,11.3442,0.13759,
2,0,0,1,0,52256.1,0.136434,0.136084,-0.416175,27,0.0159578,10,-5.66347e-05,-3.38072,-0.0826706,-0.713676,11.5699,0.136084,
2,0,0,1,0,52256.4,0.134936,0.134606,-0.433199,27,0.0158265,10,-5.83113e-05,-3.36331,-0.0874554,-0.67463,11.3788,0.134606,
2,0,0,1,0,52256.7,0.133439,0.133098,-0.450072,27,0.0156899,10,-5.99036e-05,-3.34672,-0.0865289,-0.681853,12.0157,0.133098,
2,0,0,1,0,52257,0.13194,0.13159,-0.46826,27,0.0155481,10,-6.16185e-05,-3.32951,-0.089202,-0.66142,12.1199,0.13159,
2,0,0,1,0,52257.3,0.130442,0.130105,-0.486727,27,0.0154006,10,-6.33255e-05,-3.31271,-0.0973515,-0.606051,11.4749,0.130105,
2,0,0,1,0,52257.6,0.128943,0.128642,-0.504198,27,0.0152477,10,-6.4861e-05,-3.2974,-0.111806,-0.527702,10.3374,0.128642,
2,0,0,1,0,52257.9,0.127445,0.127078,-0.519398,27,0.0150903,10,-6.60042e-05,-3.2845,-0.120491,-0.489664,9.90558,0.127078,
2,0,0,1,0,52258.2,0.125947,0.125611,-0.533814,27,0.0149286,10,-6.70529e-05,-3.27261,-0.132186,-0.446342,9.26009,0.125611,
2,0,0,0,0,52258.5,0.124449,0.124101,-0.546523,27,0.0147625,10,-6.78239e-05,-3.26239,-0.151423,-0.389636,8.28386,0.124101,
2,0,0,0,0,52258.8,0.122951,0.122592,-0.559279,27,0.0145925,10,-6.8563e-05,-3.25237,-0.168936,-0.349244,7.58585,0.122592,
2,0,0,0,0,52259.1,0.121453,0.121133,-0.569015,27,0.0144192,10,-6.89262e-05,-3.24488,-0.221433,-0.266446,5.89238,0.121133,
2,0,0,1,0,52259.4,0.119954,0.119629,-0.574457,27,0.0142435,10,-6.87215e-05,-3.24074,-0.264273,-0.223254,5.01691,0.119629,
2,0,0,1,0,52259.7,0.118456,0.118135,-0.582725,27,0.0140655,10,-6.88402e-05,-3.23454,-0.273078,-0.216055,4.89468,0.118135,
2,0,0,1,0,52260,0.116958,0.116592,-0.590162,27,0.0138852,10,-6.88081e-05,-3.22903,-0.486121,-0.121369,2.77918,0.116592,
2,0,0,1,0,52260.3,0.11546,0.115101,-0.59069,27,0.013704,10,-6.79891e-05,-3.22864,-0.912908,-0.0646286,1.48883,0.115101,
2,0,0,1,0,52260.6,0.113962,0.113614,-0.591908,27,0.0135221,10,-6.72492e-05,-3.22775,-1.26219,-0.0467443,1.08064,0.113614,
2,0,0,1,0,52260.9,0.112463,0.112176,-0.594568,27,0.0133399,10,-6.66964e-05,-3.2258,-2.70628,-0.0218012,0.505205,0.112176,
2,0,0,1,0,52261.2,0.110965,0.110608,-0.595168,27,0.0131572,10,-6.58304e-05,-3.22536,-3.84563,-0.0153421,0.355549,0.110608,
2,0,0,1,0,52261.5,0.109468,0.109146,-0.594026,27,0.0129745,10,-6.48356e-05,-3.22619,1.29686,0.0454945,-1.05369,0.109146,
2,0,0,0,0,52261.8,0.107969,0.107682,-0.592356,27,0.012792,10,-6.37863e-05,-3.22742,1.74121,0.0338845,-0.785927,0.107682,
2,0,0,0,0,52262.1,0.106471,0.106133,-0.591518,27,0.0126103,10,-6.27796e-05,-3.22803,1.44939,0.0407068,-0.941869,0.106133,
2,0,0,1,0,52262.4,0.104972,0.104691,-0.590542,27,0.0124286,10,-6.18242e-05,-3.22875,2.09022,0.0282267,-0.650803,0.104691,
2,0,0,1,0,52262.7,0.103474,0.103132,-0.58949,27,0.0122471,10,-6.07954e-05,-3.22952,0.998585,0.0590836,-1.35674,0.1031322,
2,0,0,1,0,52263,0.101977,0.101664,-0.58743,27,0.0120664,10,-5.97204e-05,-3.23104,0.799274,0.073817,-1.69202,0.101664,
2,0,0,1,0,52263.3,0.100478,0.100132,-0.584401,27,0.0118866,10,-5.85174e-05,-3.23329,0.897243,0.065757,-1.50149,0.100132,
2,0,0,1,0,52263.6,0.0989798,0.0986201,-0.583871,27,0.0117072,10,-5.75814e-05,-3.23368,1.16275,0.0507417,-1.15143,0.0986201,
2,0,0,1,0,52263.9,0.0974812,0.0971404,-0.580746,27,0.0115284,10,-5.64139e-05,-3.23601,1.02593,0.0575086,-1.30296,0.0971404,
2,0,0,1,0,52264.2,0.0959834,0.0956382,-0.577895,27,0.0113504,10,-5.52689e-05,-3.23815,0.832512,0.0708699,-1.59937,0.0956382,
2,0,0,1,0,52264.5,0.0944855,0.0941815,-0.573287,27,0.0111735,10,-5.39931e-05,-3.24163,0.753691,0.0782814,-1.75846,0.0941815,
2,0,0,0,0,52264.8,0.0929871,0.0926681,-0.572299,27,0.0109971,10,-5.30338e-05,-3.24238,0.878962,0.0671246,-1.49865,0.0926681,
2,0,0,0,0,52265.1,0.0914889,0.0911379,-0.570265,27,0.0108214,10,-5.19728e-05,-3.24392,0.622887,0.0947202,-2.10338,0.0911379,
2,0,0,0,0,52265.4,0.0899907,0.0896449,-0.566888,27,0.0106467,10,-5.08186e-05,-3.2465,0.478417,0.123323,-2.72294,0.0896449,
2,0,0,1,0,52265.7,0.0884923,0.088123,-0.561285,27,0.0104729,10,-4.94621e-05,-3.25082,0.541726,0.108911,-2.39498,0.088123,
2,0,0,1,0,52266,0.0869946,0.0866708,-0.560837,27,0.0103005,10,-4.86081e-05,-3.25116,0.558688,0.105605,-2.31156,0.0866708,
2,0,0,1,0,52266.3,0.0854961,0.0851572,-0.55675,27,0.0101287,10,-4.74112e-05,-3.25434,0.556862,0.105951,-2.30371,0.0851572,
2,0,0,1,0,52266.6,0.083998,0.0836652,-0.553982,27,0.00995794,10,-4.6349e-05,-3.2565,0.408281,0.144508,-3.11852,0.0836652,
2,0,0,1,0,52266.9,0.0824998,0.082151,-0.550282,27,0.00978829,10,-4.52062e-05,-3.25941,0.501682,0.117604,-2.52615,0.082151,
2,0,0,1,0,52267.2,0.0810014,0.080661,-0.546282,27,0.0096201,10,-4.40637e-05,-3.26258,0.556626,0.105996,-2.26448,0.080661,
2,0,0,1,0,52267.5,0.0795035,0.0791885,-0.543506,27,0.00945268,10,-4.30394e-05,-3.2648,0.639206,0.0923021,-1.95429,0.0791885,
2,0,0,1,0,52267.8,0.0780056,0.0776542,-0.540793,27,0.00928619,10,-4.19949e-05,-3.26697,0.484376,0.121806,-2.56436,0.0776542,
2,0,0,0,0,52268.1,0.076507,0.0761597,-0.535999,27,0.00912074,10,-4.08215e-05,-3.27084,0.491765,0.119976,-2.5091,0.0761597,
2,0,0,0,0,52268.4,0.0750088,0.0746719,-0.532875,27,0.00895672,10,-3.97908e-05,-3.27337,0.536751,0.109921,-2.28552,0.0746719,
2,0,0,1,0,52268.7,0.0735103,0.0731881,-0.528925,27,0.00879348,10,-3.87111e-05,-3.27661,0.739704,0.0797616,-1.64584,0.0731881,
2,0,0,1,0,52269,0.0720124,0.0716943,-0.526658,27,0.00863117,10,-3.77584e-05,-3.27847,0.651433,0.0905695,-1.86197,0.0716943,
2,0,0,1,0,52269.3,0.0705146,0.0701836,-0.523417,27,0.00846979,10,-3.67353e-05,-3.28115,0.541554,0.108946,-2.22618,0.07018356,
2,0,0,1,0,52269.6,0.069016,0.0686976,-0.518174,27,0.00830961,10,-3.55973e-05,-3.28552,0.539426,0.109375,-2.22078,0.0686976,
2,0,0,1,0,52269.9,0.0675179,0.0671441,-0.51674,27,0.00815032,10,-3.4696e-05,-3.28673,0.807382,0.0730757,-1.47389,0.0671441,
2,0,0,1,0,52270.2,0.0660192,0.0657397,-0.515389,27,0.00799179,10,-3.38816e-05,-3.28786,0.493897,0.119458,-2.3935,0.0657397,
2,0,0,1,0,52270.5,0.0645214,0.0642298,-0.511039,27,0.00783407,10,-3.28239e-05,-3.29155,0.48502,0.121644,-2.41841,0.0642298,
2,0,0,1,0,52270.8,0.0630235,0.0627043,-0.506013,27,0.00767761,10,-3.17292e-05,-3.29584,0.485526,0.121518,-2.4052,0.0627043,
2,0,0,0,0,52271.1,0.0615251,0.061209,-0.503781,27,0.00752217,10,-3.08359e-05,-3.29776,0.515253,0.114507,-2.25406,0.061209,
2,0,0,0,0,52271.4,0.0600269,0.0597107,-0.499673,27,0.0073676,10,-2.98358e-05,-3.30131,0.46827,0.125996,-2.46579,0.0597107,
2,0,0,0,0,52271.7,0.0585287,0.0581996,-0.497015,27,0.00721393,10,-2.8926e-05,-3.30363,0.415239,0.142087,-2.74992,0.0581996,
2,0,0,1,0,52272,0.0570303,0.0566968,-0.494117,27,0.00706118,10,-2.80149e-05,-3.30617,0.548755,0.107516,-2.07332,0.0566968,
2,0,0,1,0,52272.3,0.0555325,0.0551904,-0.490249,27,0.00690988,10,-2.70571e-05,-3.30958,0.604952,0.0975284,-1.87089,0.0551904,
2,0,0,1,0,52272.6,0.0540342,0.0536769,-0.487697,27,0.00675916,10,-2.61781e-05,-3.31185,0.627307,0.0940529,-1.78747,0.0536769,
2,0,0,1,0,52272.9,0.052536,0.0521955,-0.485359,27,0.00660914,10,-2.53336e-05,-3.31394,0.475087,0.124188,-2.34446,0.0521955,
2,0,0,1,0,52273.2,0.0510378,0.0507142,-0.481892,27,0.00646023,10,-2.44388e-05,-3.31705,0.420648,0.14026,-2.63264,0.0507142,
2,0,0,1,0,52273.5,0.0495394,0.0491635,-0.476369,27,0.00631269,10,-2.342e-05,-3.32206,0.44339,0.133066,-2.48001,0.0491635,
2,0,0,1,0,52273.8,0.0480415,0.0477154,-0.474395,27,0.00616601,10,-2.2636e-05,-3.32386,0.636174,0.092742,-1.71368,0.0477154,
2,0,0,1,0,52274.1,0.0465436,0.0461941,-0.470295,27,0.0060203,10,-2.17249e-05,-3.32763,0.502824,0.117337,-2.15886,0.0461941,
2,0,0,0,0,52274.4,0.045045,0.0447197,-0.467063,27,0.00587555,10,-2.08869e-05,-3.33062,0.445227,0.132517,-2.41777,0.0447197,
2,0,0,0,0,52274.7,0.0435468,0.0432319,-0.462247,27,0.00573202,10,-1.99838e-05,-3.33513,0.441503,0.133634,-2.41771,0.0432319,
2,0,0,1,0,52275,0.0420483,0.0416813,-0.461131,27,0.00558949,10,-1.92206e-05,-3.33618,0.513958,0.114795,-2.0601,0.0416813,
2,0,0,1,0,52275.3,0.0405504,0.0402383,-0.457995,27,0.00544798,10,-1.8429e-05,-3.33914,0.520061,0.113448,-2.0235,0.0402383,
2,0,0,1,0,52275.6,0.0390526,0.0387087,-0.453603,27,0.00530726,10,-1.75584e-05,-3.34332,0.440627,0.1339,-2.36502,0.0387087,
2,0,0,1,0,52275.9,0.0375541,0.0371919,-0.4493,27,0.00516763,10,-1.67103e-05,-3.34746,0.452387,0.130419,-2.29661,0.0371919,
2,0,0,1,0,52276.2,0.0360559,0.0357253,-0.446498,27,0.00502946,10,-1.59513e-05,-3.35018,0.403791,0.146115,-2.55222,0.0357253,
2,0,0,1,0,52276.5,0.0345572,0.0342466,-0.443293,27,0.00489194,10,-1.51813e-05,-3.35331,0.518326,0.113828,-1.9709,0.0342466,
2,0,0,1,0,52276.8,0.0330594,0.0327221,-0.43996,27,0.00475544,10,-1.43964e-05,-3.35659,0.428075,0.137826,-2.36183,0.0327221,
2,0,0,1,0,52277.1,0.0315615,0.0312305,-0.437548,27,0.00461995,10,-1.36648e-05,-3.35897,0.461215,0.127923,-2.18545,0.0312305,
2,0,0,0,0,52277.4,0.0300631,0.0297542,-0.434171,27,0.00448558,10,-1.29184e-05,-3.36234,0.545719,0.108114,-1.83388,0.0297542,
2,0,0,0,0,52277.7,0.0285649,0.0282473,-0.431699,27,0.00435185,10,-1.21943e-05,-3.36482,0.617154,0.0956001,-1.60852,0.0282473,
2,0,0,0,0,52278,0.0270667,0.0267182,-0.429212,27,0.00421888,10,-1.14678e-05,-3.36733,0.520358,0.113383,-1.89609,0.02671822,
2,0,0,1,0,52278.3,0.0255683,0.0252258,-0.425922,27,0.00408667,10,-1.07442e-05,-3.37067,0.527638,0.111819,-1.86142,0.0252258,
2,0,0,1,0,52278.6,0.0240706,0.023743,-0.422224,27,0.0039557,10,-1.00248e-05,-3.37446,0.529206,0.111488,-1.84308,0.023743,
2,0,0,1,0,52278.9,0.0225722,0.022255,-0.420176,27,0.00382531,10,-9.35101e-06,-3.37657,1.14511,0.0515232,-0.846124,0.02225497,
2,0,0,1,0,52279.2,0.021074,0.0207853,-0.418349,27,0.00369549,10,-8.6955e-06,-3.37846,0.702779,0.0839524,-1.37267,0.02078525,
2,0,0,1,0,52279.5,0.0195758,0.0192731,-0.417241,27,0.00356632,10,-8.04152e-06,-3.37961,0.594358,0.0992668,-1.61207,0.0192731,
2,0,0,1,0,52279.8,0.0180774,0.0177427,-0.41357,27,0.00343774,10,-7.33784e-06,-3.38345,0.982085,0.0600763,-0.971351,0.0177427,
2,0,0,1,0,52280.1,0.0165795,0.0162268,-0.413625,27,0.00330983,10,-6.71179e-06,-3.38339,1.23212,0.0478848,-0.773905,0.0162268,
2,0,0,1,0,52280.4,0.0150817,0.0147254,-0.413538,27,0.00318204,10,-6.08952e-06,-3.38348,1.27182,0.04639,-0.746194,0.0147254,
2,0,0,0,0,52280.7,0.013583,0.0132214,-0.411256,27,0.00305443,10,-5.43736e-06,-3.38589,0.785482,0.0751131,-1.20458,0.0132214,
2,0,0,0,0,52281,0.0120848,0.0117135,-0.409551,27,0.0029274,10,-4.79726e-06,-3.38769,1.43002,0.0412583,-0.661483,0.01171347,
2,0,0,1,0,52281.3,0.0105863,0.0102349,-0.40954,27,0.00280068,10,-4.1916e-06,-3.3877,5.06041,0.0116591,-0.186774,0.0102349,
2,0,0,1,0,52281.6,0.00908846,0.0087495,-0.409148,27,0.00267412,10,-3.57984e-06,-3.38812,4.97038,0.0118703,-0.189836,0.0087495,
2,0,0,1,0,52281.9,0.0075906,0.0072354,-0.408853,27,0.00254752,10,-2.95822e-06,-3.38843,5.11087,0.011544,-0.184048,0.0072354,
2,0,0,1,0,52282.2,0.00609207,0.00574868,-0.409432,27,0.00242097,10,-2.35369e-06,-3.38782,-3.24991,-0.0181544,0.290321,0.00574868,
2,0,0,1,0,52282.5,0.00459389,0.00428214,-0.410047,27,0.00229461,10,-1.75588e-06,-3.38717,-13.5815,-0.00434413,0.069416,0.00428214,
2,0,0,1,0,52282.8,0.00309525,0.00275169,-0.411123,27,0.00216773,10,-1.13128e-06,-3.38603,-0.808463,-0.072978,1.169,0.002751688,
2,0,0,1,0,52283.1,0.00159739,0.00124183,-0.415542,27,0.00203903,10,-5.16035e-07,-3.38138, , , ,0.00124183,
2,0,0,0,0,52283.4,0.000199195,-0.000199347,-0.413408,27,0.00191971,10,8.24118e-08,-3.38362, , , ,-0.000199347,