File: Figure_codes/Fig_3-5/rawdata_trumpetplot_data/after 10th/20221101_1-115_003_TrumpetPlot_ParaChange_from10_every3_04_CV_C01_9.csv
mode,ox/red,error,control changes,counter inc.,time/s,control/V,Ewe/V,<I>/mA,cycle number,(Q-Qo)/C,I Range,P/W,log(|I|),Tafel slope mV/dec,alpha_eff,dI/d(E-IR),E-IR/V,
2,0,0,1,0,18791.2,2.44065e-05,-0.000229887,-0.38688,10,0.0000000E+000,10,8.89387e-08,-3.41242, , , ,-0.000229887,
2,1,0,1,0,18791.3,0.00129787,0.000945044,0.173726,10,2.57994e-06,10,1.64178e-07,-3.76014, , , ,0.000945044,
2,1,0,1,0,18791.5,0.00279606,0.00248051,0.294439,10,4.20522e-05,10,7.3036e-07,-3.531,0.00626286,9.42061,64.8694,0.00248051,
2,1,0,1,0,18791.6,0.00429425,0.00399795,0.327201,10,9.12664e-05,10,1.30813e-06,-3.48519,0.033751,1.7481,21.6245,0.00399795,
2,1,0,1,0,18791.8,0.00579244,0.00552918,0.353016,10,0.000145009,10,1.95189e-06,-3.45221,0.0474217,1.24416,16.9861,0.00552918,
2,1,0,1,0,18791.9,0.00729063,0.00699784,0.377244,10,0.000202396,10,2.6399e-06,-3.42338,0.0618077,0.954574,13.9045,0.00699784,
2,1,0,1,0,18792.1,0.00878882,0.00847923,0.398457,10,0.000263081,10,3.37861e-06,-3.39962,0.0741617,0.795559,12.2309,0.008479232,
2,1,0,1,0,18792.2,0.010287,0.00999561,0.411911,10,0.000326309,10,4.1173e-06,-3.3852,0.0998292,0.591009,9.43083,0.00999561,
2,1,0,1,0,18792.4,0.0117852,0.0114738,0.426221,10,0.000391818,10,4.89038e-06,-3.37037,0.114738,0.514213,8.57044,0.01147382,
2,1,0,1,0,18792.5,0.0132838,0.0129762,0.441841,10,0.000459123,10,5.73341e-06,-3.35473,0.105909,0.557083,9.59013,0.0129762,
2,1,0,1,0,18792.7,0.0147814,0.0144705,0.45311,10,0.000528633,10,6.55675e-06,-3.3438,0.117497,0.502143,8.8697,0.0144705,
2,1,0,1,0,18792.8,0.0162789,0.0159479,0.464018,10,0.000600145,10,7.40011e-06,-3.33347,0.146747,0.402052,7.27007,0.0159479,
2,1,0,1,0,18793,0.017778,0.0174333,0.476595,10,0.00067329,10,8.30862e-06,-3.32185,0.157404,0.374832,6.9838,0.0174333,
2,1,0,1,0,18793.1,0.0192761,0.0189539,0.488561,10,0.000747873,10,9.26016e-06,-3.31108,0.151624,0.389119,7.3828,0.0189539,
2,1,0,1,0,18793.3,0.0207743,0.0204777,0.500393,10,0.000824338,10,1.02469e-05,-3.30069,0.152086,0.387939,7.54383,0.0204777,
2,1,0,1,0,18793.4,0.0222725,0.0219644,0.510513,10,0.000902398,10,1.12131e-05,-3.29199,0.156353,0.37735,7.50309,0.0219644,
2,1,0,1,0,18793.6,0.0237707,0.023432,0.521591,10,0.000982133,10,1.22219e-05,-3.28267,0.178402,0.330713,6.71878,0.023432,
2,1,0,1,0,18793.7,0.0252689,0.0249018,0.529371,10,0.0010633,10,1.31823e-05,-3.27624,0.17404,0.339003,7.03547,0.02490175,
2,1,0,1,0,18793.9,0.0267671,0.0264298,0.541647,10,0.00114613,10,1.43156e-05,-3.26628,0.161201,0.366002,7.75007,0.0264298,
2,1,0,1,0,18794,0.0282662,0.027961,0.554015,10,0.00123077,10,1.54908e-05,-3.25648,0.180894,0.326157,7.03016,0.027961,
2,1,0,1,0,18794.2,0.0297635,0.0294254,0.564902,10,0.00131703,10,1.66225e-05,-3.24803,0.20243,0.291459,6.4084,0.0294254,
2,1,0,1,0,18794.3,0.031261,0.0309286,0.569501,10,0.00140467,10,1.76139e-05,-3.24451,0.193135,0.305485,6.84699,0.0309286,
2,1,0,1,0,18794.5,0.0327599,0.0324402,0.585774,10,0.00149384,10,1.90026e-05,-3.23227,0.18514,0.318678,7.27758,0.0324402,
2,1,0,1,0,18794.6,0.034258,0.0339608,0.593975,10,0.00158478,10,2.01719e-05,-3.22623,0.193144,0.305471,7.09745,0.0339608,
2,1,0,1,0,18794.8,0.0357562,0.0354655,0.605144,10,0.00167735,10,2.14617e-05,-3.21814,0.205301,0.287382,6.78145,0.0354655,
2,1,0,1,0,18794.9,0.0372544,0.0369331,0.614381,10,0.00177148,10,2.2691e-05,-3.21156,0.196797,0.299802,7.22747,0.03693312,
2,1,0,1,0,18795.1,0.0387526,0.0384368,0.625885,10,0.00186704,10,2.4057e-05,-3.20351,0.194407,0.303486,7.44781,0.0384368,
2,1,0,1,0,18795.2,0.0402508,0.0399394,0.638135,10,0.00196455,10,2.54867e-05,-3.19509,0.203267,0.290259,7.23228,0.0399394,
2,1,0,1,0,18795.4,0.041749,0.0414473,0.65024,10,0.00206369,10,2.69507e-05,-3.18693,0.222998,0.264576,6.69366,0.0414473,
2,1,0,1,0,18795.5,0.0432472,0.0429403,0.661352,10,0.00216431,10,2.83987e-05,-3.17957,0.223544,0.263931,6.78603,0.0429403,
2,1,0,1,0,18795.7,0.0447458,0.0444412,0.66857,10,0.00226612,10,2.9712e-05,-3.17485,0.237234,0.2487,6.48297,0.0444412,
2,1,0,1,0,18795.8,0.0462433,0.0459655,0.67987,10,0.00236962,10,3.12506e-05,-3.16757,0.219119,0.26926,7.11454,0.0459655,
2,1,0,1,0,18796,0.0477409,0.0474483,0.688277,10,0.00247454,10,3.26576e-05,-3.16224,0.239294,0.246558,6.62184,0.0474483,
2,1,0,1,0,18796.1,0.0492399,0.048938,0.697577,10,0.002581,10,3.4138e-05,-3.15641,0.256379,0.230128,6.26609,0.048938,
2,1,0,1,0,18796.3,0.0507381,0.0504385,0.704064,10,0.00268854,10,3.55119e-05,-3.15239,0.274437,0.214986,5.93043,0.0504385,
2,1,0,1,0,18796.4,0.0522363,0.0519071,0.714282,10,0.0027976,10,3.70763e-05,-3.14613,0.233021,0.253196,7.07118,0.0519071,
2,1,0,1,0,18796.6,0.0537345,0.0534118,0.727403,10,0.00290822,10,3.88519e-05,-3.13822,0.269752,0.21872,6.19662,0.0534118,
2,1,0,1,0,18796.7,0.0552327,0.0548794,0.735165,10,0.00302042,10,4.03455e-05,-3.13362,0.308636,0.191164,5.47729,0.0548794,
2,1,0,1,0,18796.9,0.0567309,0.0564276,0.741363,10,0.0031337,10,4.18334e-05,-3.12997,0.311221,0.189576,5.5099,0.0564276,
2,1,0,1,0,18797,0.0582291,0.0579313,0.754302,10,0.00324818,10,4.36977e-05,-3.12245,0.311791,0.189229,5.56649,0.0579313,
2,1,0,1,0,18797.2,0.0597282,0.0594232,0.762485,10,0.00336422,10,4.53093e-05,-3.11777,0.287262,0.205388,6.10454,0.0594232,
2,1,0,1,0,18797.3,0.0612255,0.0609133,0.769739,10,0.00348164,10,4.68873e-05,-3.11366,0.336709,0.175225,5.25812,0.0609133,
2,1,0,1,0,18797.5,0.062723,0.0624141,0.778485,10,0.0036002,10,4.85884e-05,-3.10875,0.332293,0.177554,5.39642,0.0624141,
2,1,0,1,0,18797.6,0.0642218,0.0639194,0.785273,10,0.00371974,10,5.01942e-05,-3.10498,0.31759,0.185774,5.70047,0.06391941,
2,1,0,1,0,18797.8,0.06572,0.0654156,0.793509,10,0.00384052,10,5.19079e-05,-3.10045,0.294439,0.200381,6.1943,0.0654156,
2,1,0,1,0,18797.9,0.0672182,0.0669055,0.802938,10,0.00396272,10,5.3721e-05,-3.09532,0.367823,0.160403,5.01104,0.0669055,
2,1,0,1,0,18798.1,0.0687164,0.0684389,0.808942,10,0.00408591,10,5.53631e-05,-3.09208,0.473107,0.124708,3.93504,0.0684389,
2,1,0,1,0,18798.2,0.0702146,0.0699128,0.813674,10,0.00420979,10,5.68862e-05,-3.08955,0.455501,0.129528,4.12189,0.0699128,
2,1,0,1,0,18798.4,0.0717128,0.0714122,0.820815,10,0.00433484,10,5.86162e-05,-3.08575,0.397646,0.148373,4.74297,0.0714122,
2,1,0,1,0,18798.5,0.073211,0.0728745,0.829009,10,0.00446099,10,6.04137e-05,-3.08144,0.410069,0.143878,4.65824,0.0728745,
2,1,0,1,0,18798.7,0.0747092,0.0744196,0.836682,10,0.00458812,10,6.22655e-05,-3.07744,0.484863,0.121684,3.96249,0.0744196,
2,1,0,1,0,18798.8,0.0762078,0.0758738,0.836956,10,0.00471612,10,6.3503e-05,-3.0773,0.439606,0.134211,4.41232,0.0758738,
2,1,0,1,0,18799,0.0777053,0.0773695,0.844958,10,0.00484485,10,6.5374e-05,-3.07316,0.413217,0.142782,4.71279,0.0773695,
2,1,0,1,0,18799.1,0.0792029,0.0788768,0.854228,10,0.00497475,10,6.73788e-05,-3.06843,0.416557,0.141637,4.71261,0.0788768,
2,1,0,1,0,18799.3,0.0807019,0.0803886,0.859698,10,0.00510584,10,6.91099e-05,-3.06565,0.46502,0.126876,4.24789,0.0803886,
2,1,0,1,0,18799.4,0.0822001,0.0819007,0.862946,10,0.00523755,10,7.06759e-05,-3.06402,0.543181,0.108619,3.67321,0.0819007,
2,1,0,1,0,18799.6,0.0836983,0.0834171,0.871347,10,0.00537009,10,7.26852e-05,-3.05981,0.411217,0.143477,4.89146,0.08341711,
2,1,0,1,0,18799.7,0.0851965,0.084907,0.88064,10,0.00550384,10,7.47725e-05,-3.0552,0.391009,0.150892,5.18521,0.08490698,
2,1,0,1,0,18799.9,0.0866947,0.0863375,0.888682,10,0.00563894,10,7.67265e-05,-3.05125,0.487569,0.121008,4.18488,0.0863375,
2,1,0,1,0,18800,0.0881929,0.0878634,0.89637,10,0.00577517,10,7.87581e-05,-3.04751,0.388961,0.151686,5.31487,0.0878634,
2,1,0,1,0,18800.2,0.0896911,0.0893893,0.90642,10,0.00591231,10,8.10242e-05,-3.04267,0.323746,0.182242,6.44533,0.0893893,
2,1,0,1,0,18800.3,0.0911902,0.0908334,0.917626,10,0.00605128,10,8.33511e-05,-3.03733,0.260481,0.226504,8.08266,0.0908334,
2,1,0,1,0,18800.5,0.0926875,0.0923552,0.926894,10,0.00619212,10,8.56035e-05,-3.03297,0.255907,0.230552,8.35155,0.0923552,
2,1,0,1,0,18800.6,0.094185,0.0938731,0.939429,10,0.0063345,10,8.81871e-05,-3.02714,0.272818,0.216262,7.9455,0.0938731,
2,1,0,1,0,18800.8,0.0956838,0.0953594,0.951896,10,0.00647869,10,9.07722e-05,-3.02141,0.232642,0.253609,9.45298,0.0953594,
2,1,0,1,0,18800.9,0.097182,0.0968493,0.967579,10,0.00662501,10,9.37093e-05,-3.01431,0.192591,0.306349,11.5588,0.0968493,
2,1,0,1,0,18801.1,0.0986802,0.0983656,0.983786,10,0.0067738,10,9.67707e-05,-3.0071,0.192833,0.305964,11.7614,0.09836565,
2,1,0,1,0,18801.2,0.100178,0.0998248,0.998886,10,0.00692503,10,9.97135e-05,-3.00048,0.210019,0.280927,10.9646,0.0998248,
2,1,0,1,0,18801.4,0.101677,0.101335,1.01492,10,0.00707876,10,0.000102847,-2.99357,0.198578,0.297113,11.8009,0.101335,
2,1,0,1,0,18801.5,0.103175,0.102856,1.03716,10,0.00723501,10,0.000106678,-2.98416,0.188691,0.312681,12.6552,0.102856,
2,1,0,1,0,18801.7,0.104673,0.104382,1.05749,10,0.00739421,10,0.000110383,-2.97573,0.203497,0.28993,11.9069,0.104382,
2,1,0,1,0,18801.8,0.106171,0.105882,1.0726,10,0.0075563,10,0.000113569,-2.96956,0.232823,0.253412,10.5745,0.1058818,
2,1,0,1,0,18802,0.10767,0.107356,1.08866,10,0.00772085,10,0.000116875,-2.96311,0.234784,0.251295,10.6947,0.107356,
2,1,0,1,0,18802.1,0.109167,0.108872,1.10498,10,0.00788756,10,0.000120301,-2.95665,0.216654,0.272323,11.7618,0.108872,
2,1,0,1,0,18802.3,0.110665,0.110323,1.12196,10,0.00805704,10,0.000123778,-2.95002,0.241748,0.244056,10.6914,0.1103233,
2,1,0,1,0,18802.4,0.112164,0.111861,1.13859,10,0.00822912,10,0.000127364,-2.94363,0.288278,0.204663,9.05626,0.111861,
2,1,0,1,0,18802.6,0.113662,0.113333,1.15204,10,0.00840317,10,0.000130565,-2.93853,0.317883,0.185603,8.32028,0.113333,
2,1,0,1,0,18802.7,0.11516,0.114782,1.16208,10,0.00857865,10,0.000133385,-2.93476,0.343731,0.171646,7.77987,0.1147818,
2,1,0,1,0,18802.9,0.116658,0.116344,1.17481,10,0.0087562,10,0.000136682,-2.93003,0.337422,0.174855,7.99287,0.116344,
2,1,0,1,0,18803,0.118157,0.117851,1.18672,10,0.00893566,10,0.000139855,-2.92565,0.412384,0.143071,6.60806,0.117851,
2,1,0,1,0,18803.2,0.119655,0.119316,1.19547,10,0.00911649,10,0.000142638,-2.92246,0.522474,0.112924,5.2701,0.1193161,
2,1,0,1,0,18803.3,0.121153,0.120851,1.20177,10,0.00929847,10,0.000145235,-2.92018,0.446848,0.132036,6.2032,0.120851,
2,1,0,1,0,18803.5,0.122652,0.122332,1.2119,10,0.00948205,10,0.000148253,-2.91653,0.35043,0.168365,7.97217,0.122332,
2,1,0,1,0,18803.6,0.124149,0.12381,1.22304,10,0.00966715,10,0.000151425,-2.91256,0.404834,0.145739,6.95552,0.12381,
2,1,0,1,0,18803.8,0.125647,0.125321,1.23269,10,0.00985388,10,0.000154481,-2.90915,0.455693,0.129473,6.22583,0.125321,
2,1,0,1,0,18803.9,0.127146,0.126833,1.2385,10,0.0100421,10,0.000157084,-2.9071,0.429643,0.137323,6.65455,0.1268333,
2,1,0,1,0,18804.1,0.128644,0.128354,1.25213,10,0.0102313,10,0.000160715,-2.90235,0.524757,0.112433,5.49776,0.128354,
2,1,0,1,0,18804.2,0.130142,0.129833,1.26112,10,0.0104222,10,0.000163735,-2.89924,0.558245,0.105688,5.18859,0.129833,
2,1,0,1,0,18804.4,0.13164,0.131308,1.26753,10,0.0106143,10,0.000166437,-2.89704,1.86778,0.0315883,1.55598,0.131308,
2,1,0,1,0,18804.5,0.133139,0.132802,1.26784,10,0.010807,10,0.000168372,-2.89693,6.95238,0.0084863,0.419685,0.132802,
2,1,0,1,0,18804.7,0.134637,0.134321,1.26759,10,0.0109993,10,0.000170263,-2.89702,-1.24765,-0.0472888,-2.33602,0.134321,
2,1,0,1,0,18804.8,0.136135,0.135809,1.26261,10,0.0111915,10,0.000171474,-2.89873,-0.552121,-0.106861,-5.24166,0.135809,
2,1,0,1,0,18805,0.137633,0.137349,1.25199,10,0.0113824,10,0.00017196,-2.9024,-0.265004,-0.222638,-10.8059,0.137349,
2,1,0,1,0,18805.1,0.139132,0.138845,1.23325,10,0.0115713,10,0.00017123,-2.90895,-0.197438,-0.298828,-14.294,0.138845,
2,1,0,1,0,18805.3,0.140629,0.140343,1.20635,10,0.0117563,10,0.000169303,-2.91853,-0.150516,-0.391984,-18.3984,0.140343,
2,1,0,1,0,18805.4,0.142127,0.141836,1.17691,10,0.0119375,10,0.000166928,-2.92926,-0.127998,-0.460946,-21.0469,0.141836,
2,1,0,1,0,18805.5,0.143626,0.143299,1.1413,10,0.0121139,10,0.000163547,-2.9426,-0.101662,-0.580355,-25.7255,0.143299,
2,1,0,1,0,18805.7,0.145124,0.144797,1.09888,10,0.0122844,10,0.000159114,-2.95905,-0.0859721,-0.686269,-29.3886,0.144797,
2,1,0,1,0,18805.8,0.146622,0.146311,1.05265,10,0.0124481,10,0.000154014,-2.97772,-0.0789304,-0.747494,-30.701,0.146311,
2,1,0,1,0,18806,0.14812,0.14784,1.00838,10,0.0126051,10,0.00014908,-2.99637,-0.0779292,-0.757097,-29.7663,0.14784,
2,1,0,1,0,18806.1,0.149619,0.149335,0.963259,10,0.0127552,10,0.000143848,-3.01626,-0.072303,-0.81601,-30.6411,0.149335,
2,1,0,1,0,18806.3,0.151117,0.150786,0.919061,10,0.0128985,10,0.000138581,-3.03666,-0.0721542,-0.817693,-29.2746,0.150786,
2,1,0,1,0,18806.4,0.152615,0.152292,0.873381,10,0.0130352,10,0.000133009,-3.0588,-0.074142,-0.79577,-27.2362,0.152292,
2,1,0,1,0,18806.6,0.154114,0.153807,0.836586,10,0.0131657,10,0.000128673,-3.07749,-0.081944,-0.720004,-23.6327,0.153807,
2,1,0,1,0,18806.7,0.155612,0.155323,0.804398,10,0.0132909,10,0.000124942,-3.09453,-0.0874831,-0.674416,-21.1932,0.155323,
2,1,0,1,0,18806.9,0.157109,0.156818,0.770425,10,0.0134115,10,0.000120816,-3.11327,-0.086385,-0.682989,-20.603,0.156818,
2,1,0,1,0,18807,0.158608,0.158278,0.744302,10,0.0135276,10,0.000117806,-3.12825,-0.100845,-0.585056,-17.0821,0.158278,
2,1,0,1,0,18807.2,0.160106,0.159767,0.721011,10,0.0136395,10,0.000115194,-3.14206,-0.118497,-0.497902,-14.0522,0.159767,
2,1,0,1,0,18807.3,0.161604,0.161298,0.70193,10,0.0137484,10,0.00011322,-3.15371,-0.130381,-0.452519,-12.4162,0.161298,
2,1,0,1,0,18807.5,0.163102,0.162784,0.684377,10,0.0138546,10,0.000111406,-3.1647,-0.140818,-0.41898,-11.1884,0.162784,
2,1,0,1,0,18807.6,0.164601,0.164282,0.668238,10,0.0139583,10,0.000109779,-3.17507,-0.153128,-0.385298,-10.054,0.164282,
2,1,0,1,0,18807.8,0.166099,0.165766,0.653906,10,0.0140596,10,0.000108396,-3.18448,-0.171029,-0.34497,-8.82283,0.165766,
2,1,0,1,0,18807.9,0.167597,0.167239,0.644263,10,0.0141591,10,0.000107746,-3.19094,-0.214022,-0.275673,-6.90533,0.167239,
2,1,0,1,0,18808.1,0.169095,0.168846,0.631944,10,0.0142571,10,0.000106701,-3.19932,-0.214264,-0.275362,-6.80435,0.168846,
2,1,0,1,0,18808.2,0.170594,0.170282,0.620946,10,0.0143536,10,0.000105736,-3.20695,-0.214839,-0.274625,-6.67605,0.170282,
2,1,0,1,0,18808.4,0.172091,0.171768,0.611491,10,0.0144484,10,0.000105035,-3.21361,-0.281654,-0.209477,-5.02379,0.171768,
2,1,0,1,0,18808.5,0.173589,0.17322,0.604737,10,0.0145421,10,0.000104753,-3.21843,-0.325754,-0.181118,-4.28247,0.1732199,
2,1,0,1,0,18808.7,0.175088,0.174745,0.59944,10,0.014635,10,0.000104749,-3.22225,-0.307894,-0.191624,-4.48423,0.174745,
2,1,0,1,0,18808.8,0.176586,0.17622,0.593056,10,0.0147268,10,0.000104508,-3.2269,-0.345274,-0.170879,-3.943,0.17622,
2,1,0,1,0,18809,0.178084,0.177744,0.586716,10,0.0148176,10,0.000104286,-3.23157,-0.344335,-0.171345,-3.93088,0.177744,
2,1,0,1,0,18809.1,0.179582,0.179275,0.583065,10,0.0149075,10,0.000104529,-3.23428,-0.443219,-0.133117,-3.02906,0.179275,
2,1,0,1,0,18809.3,0.181081,0.180779,0.577947,10,0.0149969,10,0.000104481,-3.23811,-0.478684,-0.123255,-2.78126,0.180779,
2,1,0,1,0,18809.4,0.182579,0.182253,0.573528,10,0.0150857,10,0.000104527,-3.24145,-0.423491,-0.139318,-3.11614,0.182253,
2,1,0,1,0,18809.6,0.184077,0.183737,0.570403,10,0.0151738,10,0.000104804,-3.24382,-0.485488,-0.121527,-2.71019,0.183737,
2,1,0,1,0,18809.7,0.185576,0.185292,0.566791,10,0.0152612,10,0.000105022,-3.24658,-0.561354,-0.105103,-2.32145,0.185292,
2,1,0,1,0,18809.9,0.187074,0.186755,0.564279,10,0.0153481,10,0.000105382,-3.24851,-0.880189,-0.067031,-1.47154,0.186755,
2,1,0,1,0,18810,0.188571,0.18822,0.560806,10,0.0154347,10,0.000105555,-3.25119,-0.855288,-0.0689826,-1.50707,0.18822,
2,1,0,1,0,18810.2,0.19007,0.189761,0.557756,10,0.0155208,10,0.00010584,-3.25356,-0.65884,-0.0895514,-1.94758,0.189761,
2,1,0,1,0,18810.3,0.191568,0.191271,0.55409,10,0.0156063,10,0.000105981,-3.25642,-0.900223,-0.0655393,-1.42003,0.191271,
2,1,0,1,0,18810.5,0.193066,0.192722,0.552276,10,0.0156916,10,0.000106436,-3.25784,-1.94671,-0.0303075,-0.65132,0.192722,
2,1,0,1,0,18810.6,0.194564,0.19422,0.549014,10,0.0157766,10,0.00010663,-3.26042,-0.744206,-0.0792791,-1.70154,0.19422,
2,1,0,1,0,18810.8,0.196063,0.19574,0.5472,10,0.0158612,10,0.000107109,-3.26185,-0.540534,-0.109151,-2.33435,0.19574,
2,1,0,1,0,18810.9,0.197561,0.197216,0.543086,10,0.0159454,10,0.000107105,-3.26513,-0.805204,-0.0732734,-1.55695,0.197216,
2,1,0,1,0,18811.1,0.199059,0.19878,0.544529,10,0.0160293,10,0.000108241,-3.26398,-0.79046,-0.0746401,-1.58088,0.19878,
2,1,0,1,0,18811.2,0.200557,0.200235,0.542593,10,0.0161128,10,0.000108646,-3.26553,-1.36988,-0.0430695,-0.908554,0.200235,
2,1,0,1,0,18811.4,0.202056,0.20172,0.540511,10,0.0161963,10,0.000109032,-3.2672,-0.760914,-0.0775383,-1.62852,0.20172,
2,1,0,1,0,18811.5,0.203553,0.203257,0.535834,10,0.0162794,10,0.000108912,-3.27097,-1.28623,-0.0458706,-0.963729,0.2032565,
2,1,0,1,0,18811.7,0.205051,0.204719,0.535936,10,0.016362,10,0.000109716,-3.27089,176.475,0.000334326,0.00702962,0.204719,
2,1,0,1,0,18811.8,0.20655,0.206237,0.535165,10,0.0164447,10,0.000110371,-3.27151,-1.00975,-0.0584303,-1.2187,0.206237,
2,1,0,1,0,18812,0.208048,0.207711,0.531979,10,0.0165273,10,0.000110498,-3.27411,-1.03121,-0.0572143,-1.18501,0.207711,
2,1,0,1,0,18812.1,0.209546,0.209263,0.531888,10,0.0166095,10,0.000111304,-3.27418,-0.824291,-0.0715767,-1.48768,0.209263,
2,1,0,1,0,18812.3,0.211044,0.210701,0.530819,10,0.0166911,10,0.000111844,-3.27505,-1.06602,-0.0553461,-1.14455,0.210701,
2,1,0,1,0,18812.4,0.212543,0.212233,0.529005,10,0.0167728,10,0.000112272,-3.27654,-1.16385,-0.0506938,-1.04354,0.212233,
2,1,0,1,0,18812.6,0.214041,0.213735,0.527937,10,0.0168543,10,0.000112838,-3.27742,-1.00131,-0.0589228,-1.21239,0.2137347,
2,1,0,1,0,18812.7,0.215539,0.215227,0.527262,10,0.0169356,10,0.000113481,-3.27797,-1.12943,-0.0522386,-1.07144,0.215227,
2,1,0,1,0,18812.9,0.217038,0.216703,0.52496,10,0.0170166,10,0.000113761,-3.27987,-1.38689,-0.0425411,-0.871117,0.216703,
2,1,0,1,0,18813,0.218535,0.218187,0.52213,10,0.0170973,10,0.000113922,-3.28222,2.76031,0.0213744,0.436535,0.218187,
2,1,0,1,0,18813.2,0.220033,0.219784,0.520914,10,0.0171781,10,0.000114488,-3.28323,-2.25854,-0.0261231,-0.53168,0.219784,
2,1,0,1,0,18813.3,0.221532,0.221229,0.520104,10,0.0172587,10,0.000115062,-3.28391,-1.41333,-0.0417452,-0.85016,0.2212286,
2,1,0,1,0,18813.5,0.22303,0.222672,0.517342,10,0.0173389,10,0.000115197,-3.28622,-1.64897,-0.0357798,-0.724163,0.222672,
2,1,0,1,0,18813.6,0.224528,0.22423,0.518137,10,0.017419,10,0.000116182,-3.28556,-1.74176,-0.0338738,-0.685088,0.22423,
2,1,0,1,0,18813.8,0.226026,0.225677,0.517195,10,0.017499,10,0.000116719,-3.28635,-1.36564,-0.0432031,-0.871701,0.225677,
2,1,0,1,0,18813.9,0.227525,0.227207,0.517362,10,0.0175789,10,0.000117548,-3.28621,-1.22582,-0.0481312,-0.969519,0.227207,
2,1,0,1,0,18814.1,0.229023,0.228709,0.514362,10,0.0176586,10,0.000117639,-3.28873,-1.42227,-0.041483,-0.835282,0.2287087,
2,1,0,1,0,18814.2,0.230521,0.230229,0.514188,10,0.017738,10,0.000118381,-3.28888,-2.13554,-0.0276277,-0.557218,0.230229,
2,1,0,1,0,18814.4,0.232019,0.231679,0.511794,10,0.0178174,10,0.000118572,-3.29091,-2.00464,-0.0294316,-0.589817,0.231679,
2,1,0,1,0,18814.5,0.233518,0.233231,0.514444,10,0.0178968,10,0.000119984,-3.28866,-1.42613,-0.0413707,-0.827876,0.233231,
2,1,0,1,0,18814.7,0.235015,0.234695,0.512148,10,0.0179759,10,0.000120198,-3.2906,-1.47099,-0.040109,-0.799693,0.234695,
2,1,0,1,0,18814.8,0.236513,0.236184,0.509227,10,0.0180547,10,0.000120271,-3.29309,-2.30668,-0.0255779,-0.509781,0.236184,
2,1,0,1,0,18815,0.238012,0.237722,0.510466,10,0.0181335,10,0.000121349,-3.29203,-1.78425,-0.0330672,-0.655764,0.237722,
2,1,0,1,0,18815.1,0.23951,0.23919,0.508249,10,0.0182121,10,0.000121568,-3.29392,-4.37785,-0.0134769,-0.267459,0.23919,
2,1,0,1,0,18815.3,0.241008,0.240711,0.506391,10,0.0182905,10,0.000121894,-3.29551,-1.51621,-0.0389128,-0.771264,0.240711,
2,1,0,1,0,18815.4,0.242506,0.242252,0.504904,10,0.0183687,10,0.000122314,-3.29679,-4.07517,-0.0144779,-0.285911,0.242252,
2,1,0,1,0,18815.6,0.244005,0.243688,0.504969,10,0.0184469,10,0.000123055,-3.29674,-15.0508,-0.00392005,-0.0772029,0.243688,
2,1,0,1,0,18815.7,0.245503,0.245234,0.507218,10,0.018525,10,0.000124387,-3.29481,-4.36333,-0.0135218,-0.2662,0.245234,
2,1,0,1,0,18815.9,0.247001,0.246693,0.504386,10,0.0186031,10,0.000124429,-3.29724,-1.20875,-0.0488106,-0.959182,0.246693,
2,1,0,1,0,18816,0.2485,0.248187,0.50054,10,0.0186809,10,0.000124228,-3.30056,-1.16555,-0.0506199,-0.993467,0.248187,
2,1,0,1,0,18816.2,0.249997,0.249665,0.502355,10,0.0187585,10,0.00012542,-3.29899,-5.10746,-0.0115517,-0.226296,0.249665,
2,1,0,1,0,18816.3,0.251495,0.251195,0.501832,10,0.018836,10,0.000126058,-3.29944,61.0205,0.000966889,0.0189187,0.251195,
2,1,0,1,0,18816.5,0.252994,0.252669,0.500025,10,0.0189136,10,0.000126341,-3.30101,-0.776197,-0.0760116,-1.48429,0.252669,
2,1,0,1,0,18816.6,0.254492,0.254168,0.499795,10,0.0189909,10,0.000127032,-3.30121,-1.36516,-0.0432182,-0.843387,0.254168,
2,1,0,1,0,18816.8,0.25599,0.255681,0.498879,10,0.019068,10,0.000127554,-3.302,-2.00263,-0.0294612,-0.574445,0.255681,
2,1,0,1,0,18816.9,0.257488,0.257188,0.498087,10,0.019145,10,0.000128102,-3.30269,-1.97574,-0.0298622,-0.579498,0.257188,
2,1,0,1,0,18817.1,0.258987,0.258716,0.499515,10,0.0192221,10,0.000129233,-3.30145,-4.84968,-0.0121657,-0.236036,0.258716,
2,1,0,1,0,18817.2,0.260485,0.260174,0.497575,10,0.0192989,10,0.000129456,-3.30314,-1.20443,-0.0489857,-0.946265,0.260174,
2,1,0,1,0,18817.4,0.261983,0.261705,0.495187,10,0.0193755,10,0.000129593,-3.30523,-2.54907,-0.0231457,-0.448051,0.261705,
2,1,0,1,0,18817.5,0.263481,0.263187,0.494375,10,0.019452,10,0.000130113,-3.30594,2.86904,0.0205644,0.395737,0.263187,
2,1,0,1,0,18817.7,0.26498,0.264659,0.494459,10,0.0195286,10,0.000130863,-3.30587,13.7943,0.00427714,0.0826474,0.264659,
2,1,0,1,0,18817.8,0.266477,0.266166,0.491789,10,0.019605,10,0.000130897,-3.30822,-2.80175,-0.0210583,-0.406443,0.266166,
2,1,0,1,0,18818,0.267976,0.267632,0.490832,10,0.0196811,10,0.000131362,-3.30907,-10.6309,-0.00554986,-0.106691,0.267632,
2,1,0,1,0,18818.1,0.269474,0.269166,0.491229,10,0.0197572,10,0.000132222,-3.30872,-4.72923,-0.0124756,-0.238351,0.269166,
2,1,0,1,0,18818.3,0.270972,0.270636,0.491971,10,0.0198332,10,0.000133145,-3.30806,-1.29405,-0.0455932,-0.871448,0.270636,
2,1,0,1,0,18818.4,0.27247,0.27219,0.489998,10,0.0199092,10,0.000133372,-3.30981,-1.29628,-0.0455148,-0.86707,0.27219,
2,1,0,1,0,18818.6,0.273968,0.273646,0.486597,10,0.0199848,10,0.000133155,-3.31283,-1.19313,-0.0494496,-0.944969,0.273646,
2,1,0,1,0,18818.7,0.275467,0.275148,0.486597,10,0.0200603,10,0.000133886,-3.31283,-12.0329,-0.00490321,-0.0933984,0.275148,
2,1,0,1,0,18818.9,0.276965,0.276637,0.485867,10,0.0201357,10,0.000134409,-3.31348,-1.74131,-0.0338826,-0.644482,0.276637,
2,1,0,1,0,18819,0.278463,0.278168,0.486041,10,0.0202111,10,0.000135201,-3.31333,-0.802076,-0.0735591,-1.39006,0.278168,
2,1,0,1,0,18819.2,0.279962,0.279624,0.484704,10,0.0202862,10,0.000135535,-3.31452,-1.58063,-0.0373269,-0.707909,0.279624,
2,1,0,1,0,18819.3,0.281459,0.281139,0.485785,10,0.0203611,10,0.000136573,-3.31356,-2.83852,-0.0207855,-0.393324,0.281139,
2,1,0,1,0,18819.5,0.282957,0.282669,0.483044,10,0.020436,10,0.000136542,-3.31601,-3.43142,-0.017194,-0.324677,0.282669,
2,1,0,1,0,18819.6,0.284456,0.284165,0.482566,10,0.0205109,10,0.000137128,-3.31644,-6.98392,-0.00844798,-0.158982,0.284165,
2,1,0,1,0,18819.8,0.285954,0.285624,0.481285,10,0.0205855,10,0.000137467,-3.3176,-1.87336,-0.0314943,-0.591285,0.285624,
2,1,0,1,0,18819.9,0.287452,0.287169,0.479404,10,0.0206598,10,0.00013767,-3.3193,-1.82652,-0.0323019,-0.605527,0.287169,
2,1,0,1,0,18820.1,0.28895,0.288646,0.478874,10,0.0207341,10,0.000138225,-3.31978,15.8188,0.00372975,0.0694931,0.288646,
2,1,0,1,0,18820.2,0.290449,0.290167,0.477808,10,0.0208084,10,0.000138644,-3.32075,-1.92713,-0.0306154,-0.572904,0.290167,
2,1,0,1,0,18820.4,0.291947,0.291591,0.478273,10,0.0208824,10,0.00013946,-3.32032,-1.34471,-0.0438756,-0.81822,0.291591,
2,1,0,1,0,18820.5,0.293445,0.293126,0.475879,10,0.0209562,10,0.000139493,-3.3225,-1.28201,-0.0460214,-0.856339,0.293126,
2,1,0,1,0,18820.7,0.294943,0.294629,0.476541,10,0.0210299,10,0.000140403,-3.3219,-2.4213,-0.0243671,-0.453239,0.294629,
2,1,0,1,0,18820.8,0.296442,0.296166,0.478104,10,0.0211037,10,0.000141598,-3.32048,-3.48587,-0.0169255,-0.313906,0.296166,
2,1,0,1,0,18821,0.297939,0.297676,0.47427,10,0.0211773,10,0.000141179,-3.32397,-1.67344,-0.0352568,-0.651906,0.297676,
2,1,0,1,0,18821.1,0.299437,0.299115,0.472669,10,0.0212508,10,0.000141382,-3.32544,-0.00202255,-29.171,-235.715,0.299115,
2,1,0,1,0,18821.2,0.299738,0.299458,0.214315,10,0.0212853,10,6.41786e-05,-3.66895,0.000910861,64.7739,418.542,0.2994583,
2,1,0,1,0,18821.4,0.29824,0.29794,-0.00464941,10,0.0212918,10,-1.38525e-06,-5.3326,0.00396057,14.8968,141.224,0.2979404,
2,0,0,1,0,18821.5,0.296741,0.296444,-0.0440563,10,0.0212854,10,-1.30602e-05,-4.35599,-0.00666829,-8.84785,22.4051,0.2964443,
2,0,0,1,0,18821.7,0.295243,0.29492,-0.0662733,10,0.0212745,10,-1.95453e-05,-4.17866,-0.00953572,-6.18726,13.6786,0.2949205,
2,0,0,1,0,18821.8,0.293745,0.293452,-0.0839173,10,0.0212607,10,-2.46257e-05,-4.07615,-0.0166692,-3.53947,10.951,0.293452,
2,0,0,1,0,18822,0.292246,0.291918,-0.0986726,10,0.0212447,10,-2.88044e-05,-4.0058,-0.0249537,-2.36438,8.78955,0.291918,
2,0,0,1,0,18822.1,0.290748,0.290438,-0.109462,10,0.0212266,10,-3.17918e-05,-3.96074,-0.0293715,-2.00875,8.44839,0.290438,
2,0,0,1,0,18822.3,0.28925,0.288884,-0.121917,10,0.0212068,10,-3.52199e-05,-3.91393,-0.0434328,-1.35842,6.39511,0.288884,
2,0,0,1,0,18822.4,0.287752,0.287447,-0.130545,10,0.0211856,10,-3.75247e-05,-3.88424,-0.0505998,-1.16601,5.88719,0.287447,
2,0,0,1,0,18822.6,0.286253,0.285974,-0.137471,10,0.021163,10,-3.93133e-05,-3.86179,-0.0561302,-1.05113,5.68364,0.2859742,
2,0,0,1,0,18822.7,0.284755,0.284463,-0.147484,10,0.0211393,10,-4.19537e-05,-3.83125,-0.0609252,-0.9684,5.50918,0.284463,
2,0,0,1,0,18822.9,0.283258,0.282949,-0.15467,10,0.0211142,10,-4.37636e-05,-3.8106,-0.0745793,-0.791104,4.74021,0.282949,
2,0,0,1,0,18823,0.281759,0.281428,-0.1604,10,0.0210881,10,-4.51411e-05,-3.7948,-0.0866007,-0.681288,4.26701,0.281428,
2,0,0,1,0,18823.2,0.280261,0.27996,-0.166004,10,0.0210611,10,-4.64744e-05,-3.77988,-0.0919382,-0.641736,4.20295,0.27996,
2,0,0,1,0,18823.3,0.278763,0.278502,-0.173639,10,0.0210333,10,-4.83588e-05,-3.76035,-0.09809,-0.601488,4.06166,0.2785022,
2,0,0,1,0,18823.5,0.277264,0.276948,-0.178913,10,0.0210043,10,-4.95495e-05,-3.74736,-0.108031,-0.546142,3.81318,0.276948,
2,0,0,1,0,18823.6,0.275766,0.275412,-0.18234,10,0.0209745,10,-5.02187e-05,-3.73912,-0.161576,-0.365154,2.61869,0.275412,
2,0,0,1,0,18823.8,0.274268,0.273986,-0.188718,10,0.020944,10,-5.17061e-05,-3.72419,-0.124648,-0.473332,3.52892,0.273986,
2,0,0,1,0,18823.9,0.27277,0.272445,-0.193809,10,0.0209127,10,-5.28024e-05,-3.71263,-0.118805,-0.496614,3.79189,0.272445,
2,0,0,1,0,18824.1,0.271272,0.27098,-0.200935,10,0.0208806,10,-5.44494e-05,-3.69694,-0.130466,-0.452225,3.53445,0.27098,
2,0,0,1,0,18824.2,0.269773,0.269436,-0.206072,10,0.0208476,10,-5.55232e-05,-3.68598,-0.153139,-0.385271,3.0702,0.269436,
2,0,0,1,0,18824.4,0.268275,0.267922,-0.211737,10,0.0208139,10,-5.67291e-05,-3.6742,-0.16077,-0.366984,3.017,0.267922,
2,0,0,1,0,18824.5,0.266778,0.266493,-0.213828,10,0.0207798,10,-5.69837e-05,-3.66994,-0.140297,-0.420537,3.52197,0.266493,
2,0,0,1,0,18824.7,0.265279,0.264975,-0.219053,10,0.0207448,10,-5.80436e-05,-3.65945,-0.133186,-0.442989,3.78727,0.264975,
2,0,0,1,0,18824.8,0.263781,0.263478,-0.223865,10,0.0207092,10,-5.89836e-05,-3.65001,-0.162327,-0.363465,3.16126,0.263478,
2,0,0,1,0,18825,0.262283,0.261997,-0.227549,10,0.0206729,10,-5.9617e-05,-3.64293,-0.16793,-0.351337,3.10922,0.261997,
2,0,0,1,0,18825.1,0.260784,0.260498,-0.229678,10,0.0206362,10,-5.98304e-05,-3.63888,-0.1947,-0.30303,2.73204,0.260498,
2,0,0,1,0,18825.3,0.259286,0.259013,-0.235293,10,0.0205987,10,-6.09439e-05,-3.62839,-0.177957,-0.331541,3.04076,0.259013,
2,0,0,1,0,18825.4,0.257788,0.257467,-0.241418,10,0.0205606,10,-6.21571e-05,-3.61723,-0.267902,-0.22023,2.05498,0.257467,
2,0,0,1,0,18825.6,0.25629,0.255984,-0.243968,10,0.0205219,10,-6.24519e-05,-3.61267,-0.215174,-0.274197,2.59615,0.255984,
2,0,0,1,0,18825.7,0.254791,0.254466,-0.245497,10,0.0204827,10,-6.24706e-05,-3.60995,-0.2542,-0.232101,2.22832,0.254466,
2,0,0,1,0,18825.9,0.253293,0.252959,-0.250806,10,0.0204431,10,-6.34435e-05,-3.60066,-0.250982,-0.235077,2.30573,0.252959,
2,0,0,1,0,18826,0.251796,0.251483,-0.255062,10,0.0204029,10,-6.41438e-05,-3.59335,-0.224928,-0.262306,2.59666,0.2514827,
2,0,0,1,0,18826.2,0.250297,0.249952,-0.2589,10,0.020362,10,-6.47124e-05,-3.58687,-0.301384,-0.195763,1.96223,0.249952,
2,0,0,1,0,18826.3,0.248799,0.248475,-0.260295,10,0.0203207,10,-6.46768e-05,-3.58453,-0.264884,-0.222739,2.27474,0.248475,
2,0,0,1,0,18826.5,0.247301,0.246985,-0.263967,10,0.0202791,10,-6.51959e-05,-3.57845,-0.225471,-0.261675,2.69979,0.246985,
2,0,0,1,0,18826.6,0.245802,0.245518,-0.267586,10,0.0202368,10,-6.56973e-05,-3.57254,-0.245494,-0.240331,2.50624,0.245518,
2,0,0,1,0,18826.8,0.244304,0.243994,-0.272156,10,0.0201939,10,-6.64046e-05,-3.56518,-0.360834,-0.16351,1.72818,0.243994,
2,0,0,1,0,18826.9,0.242806,0.242486,-0.274753,10,0.0201507,10,-6.66237e-05,-3.56106,-0.293931,-0.200727,2.1495,0.242486,
2,0,0,1,0,18827.1,0.241308,0.241015,-0.277739,10,0.0201071,10,-6.69392e-05,-3.55636,-0.322586,-0.182897,1.97676,0.241015,
2,0,0,1,0,18827.2,0.23981,0.239495,-0.279683,10,0.0200629,10,-6.69826e-05,-3.55333,-0.217486,-0.271281,2.96383,0.239495,
2,0,0,1,0,18827.4,0.238311,0.238011,-0.282942,10,0.0200182,10,-6.73433e-05,-3.5483,-0.330281,-0.178636,1.97507,0.238011,
2,0,0,1,0,18827.5,0.236814,0.236485,-0.286556,10,0.0199731,10,-6.7766e-05,-3.54279,-0.396914,-0.148647,1.66833,0.236485,
2,0,0,1,0,18827.7,0.235316,0.234971,-0.287008,10,0.0199276,10,-6.74386e-05,-3.54211,-0.254637,-0.231702,2.61133,0.234971,
2,0,0,1,0,18827.8,0.233817,0.233503,-0.291337,10,0.0198815,10,-6.80281e-05,-3.5356,-0.303884,-0.194153,2.21356,0.233503,
2,0,0,1,0,18828,0.232319,0.231991,-0.294635,10,0.019835,10,-6.83526e-05,-3.53072,-0.376128,-0.156862,1.80573,0.231991,
2,0,0,1,0,18828.1,0.230821,0.230545,-0.299182,10,0.019788,10,-6.89749e-05,-3.52406,-0.467435,-0.126221,1.46577,0.230545,
2,0,0,1,0,18828.3,0.229322,0.228979,-0.299232,10,0.0197406,10,-6.85178e-05,-3.52399,-0.39738,-0.148472,1.74611,0.228979,
2,0,0,1,0,18828.4,0.227824,0.227532,-0.304609,10,0.0196929,10,-6.93081e-05,-3.51626,-0.31715,-0.186032,2.21958,0.227532,
2,0,0,1,0,18828.6,0.226326,0.226039,-0.306022,10,0.0196446,10,-6.91728e-05,-3.51425,-0.435109,-0.135598,1.62679,0.226039,
2,0,0,1,0,18828.7,0.224828,0.224494,-0.311885,10,0.0195959,10,-7.00161e-05,-3.50601,-0.487818,-0.120947,1.46679,0.224494,
2,0,0,1,0,18828.9,0.223329,0.223041,-0.315458,10,0.0195467,10,-7.03601e-05,-3.50106,-0.450293,-0.131026,1.59899,0.223041,
2,0,0,1,0,18829,0.221831,0.221558,-0.31702,10,0.0194971,10,-7.02383e-05,-3.49891,-0.30746,-0.191895,2.36972,0.221558,
2,0,0,1,0,18829.2,0.220334,0.219995,-0.319003,10,0.019447,10,-7.0179e-05,-3.49621,-0.317552,-0.185796,2.3127,0.219995,
2,0,0,1,0,18829.3,0.218835,0.218514,-0.32386,10,0.0193963,10,-7.0768e-05,-3.48964,-0.300688,-0.196217,2.47701,0.218514,
2,0,0,1,0,18829.5,0.217337,0.217061,-0.325421,10,0.0193452,10,-7.06363e-05,-3.48755,-0.380449,-0.15508,1.97034,0.217061,
2,0,0,1,0,18829.6,0.215839,0.21549,-0.328622,10,0.0192938,10,-7.08146e-05,-3.4833,-0.414901,-0.142203,1.82555,0.21549,
2,0,0,1,0,18829.8,0.21434,0.213989,-0.327977,10,0.0192419,10,-7.01835e-05,-3.48416,-0.277763,-0.212412,2.73308,0.2139892,
2,0,0,1,0,18829.9,0.212842,0.212525,-0.335123,10,0.0191895,10,-7.1222e-05,-3.4748,-0.36547,-0.161436,2.10592,0.212525,
2,0,0,1,0,18830.1,0.211344,0.211007,-0.337835,10,0.0191366,10,-7.12857e-05,-3.47129,-0.470908,-0.12529,1.64788,0.211007,
2,0,0,1,0,18830.2,0.209846,0.209508,-0.338872,10,0.0190834,10,-7.09963e-05,-3.46996,-0.414827,-0.142228,1.89228,0.209508,
2,0,0,1,0,18830.4,0.208348,0.208029,-0.34459,10,0.0190296,10,-7.16846e-05,-3.4627,-0.361465,-0.163225,2.1905,0.208029,
2,0,0,1,0,18830.5,0.206849,0.206496,-0.352471,10,0.0189752,10,-7.27837e-05,-3.45288,-0.331824,-0.177805,2.41129,0.206496,
2,0,0,1,0,18830.7,0.205352,0.20501,-0.351916,10,0.0189202,10,-7.21462e-05,-3.45356,-0.450854,-0.130863,1.7857,0.20501,
2,0,0,1,0,18830.8,0.203854,0.203537,-0.352333,10,0.018865,10,-7.17128e-05,-3.45305,-0.429012,-0.137525,1.90658,0.203537,
2,0,0,1,0,18831,0.202355,0.202008,-0.355217,10,0.0188093,10,-7.17566e-05,-3.44951,-0.309268,-0.190773,2.6645,0.202008,
2,0,0,1,0,18831.1,0.200857,0.200526,-0.360309,10,0.0187531,10,-7.22513e-05,-3.44333,-0.328445,-0.179634,2.53204,0.2005263,
2,0,0,1,0,18831.3,0.199359,0.199065,-0.364101,10,0.0186963,10,-7.24798e-05,-3.43878,-0.437325,-0.134911,1.91279,0.199065,
2,0,0,1,0,18831.4,0.19786,0.197517,-0.367166,10,0.0186391,10,-7.25216e-05,-3.43514,-0.430617,-0.137013,1.96113,0.197517,
2,0,0,1,0,18831.6,0.196362,0.196045,-0.370744,10,0.0185815,10,-7.26825e-05,-3.43093,-0.402821,-0.146467,2.11632,0.196045,
2,0,0,1,0,18831.7,0.194864,0.194517,-0.374496,10,0.0185233,10,-7.28457e-05,-3.42655,-0.334936,-0.176153,2.56769,0.194517,
2,0,0,1,0,18831.9,0.193366,0.19302,-0.379643,10,0.0184643,10,-7.32785e-05,-3.42062,-0.311963,-0.189125,2.79217,0.19302,
2,0,0,1,0,18832,0.191867,0.191538,-0.381944,10,0.0184049,10,-7.3157e-05,-3.418,-0.458368,-0.128718,1.9264,0.191538,
2,0,0,1,0,18832.2,0.190369,0.190059,-0.384406,10,0.0183451,10,-7.30597e-05,-3.41521,-0.312218,-0.188971,2.84624,0.190059,
2,0,0,1,0,18832.3,0.188872,0.188552,-0.387925,10,0.0182846,10,-7.31443e-05,-3.41125,-0.26469,-0.222903,3.37501,0.188552,
2,0,0,1,0,18832.5,0.187373,0.187075,-0.393691,10,0.0182235,10,-7.36498e-05,-3.40484,-0.419517,-0.140638,2.16099,0.187075,
2,0,0,1,0,18832.6,0.185875,0.185553,-0.396795,10,0.0181617,10,-7.36266e-05,-3.40143,-0.326198,-0.180872,2.79736,0.185553,
2,0,0,1,0,18832.8,0.184377,0.184055,-0.399819,10,0.0180995,10,-7.35887e-05,-3.39814,-0.361558,-0.163183,2.55551,0.184055,
2,0,0,1,0,18832.9,0.182878,0.182586,-0.406182,10,0.0180367,10,-7.41633e-05,-3.39128,-0.301917,-0.195418,3.10011,0.182586,
2,0,0,1,0,18833.1,0.18138,0.181049,-0.412057,10,0.017973,10,-7.46024e-05,-3.38504,-0.298787,-0.197465,3.17146,0.181049,
2,0,0,1,0,18833.2,0.179882,0.179549,-0.415808,10,0.0179086,10,-7.46581e-05,-3.38111,-0.429437,-0.137389,2.22058,0.179549,
2,0,0,1,0,18833.4,0.178384,0.177992,-0.421641,10,0.0178434,10,-7.50486e-05,-3.37506,-0.306457,-0.192523,3.16354,0.177992,
2,0,0,1,0,18833.5,0.176886,0.176579,-0.425045,10,0.0177777,10,-7.50541e-05,-3.37156,-0.256105,-0.230374,3.83392,0.176579,
2,0,0,1,0,18833.7,0.175387,0.175065,-0.43126,10,0.017711,10,-7.54986e-05,-3.36526,-0.241996,-0.243805,4.11085,0.175065,
2,0,0,1,0,18833.8,0.17389,0.17357,-0.437962,10,0.0176434,10,-7.6017e-05,-3.35856,-0.236493,-0.249479,4.25389,0.17357,
2,0,0,1,0,18834,0.172392,0.172097,-0.445907,10,0.0175748,10,-7.67392e-05,-3.35076,-0.234095,-0.252034,4.36823,0.172097,
2,0,0,1,0,18834.1,0.170893,0.170565,-0.450183,10,0.0175054,10,-7.67853e-05,-3.34661,-0.219616,-0.268651,4.72764,0.1705645,
2,0,0,1,0,18834.3,0.169395,0.169078,-0.458154,10,0.0174348,10,-7.74637e-05,-3.33899,-0.179251,-0.329148,5.87315,0.1690778,
2,0,0,1,0,18834.4,0.167897,0.167562,-0.465522,10,0.017363,10,-7.8004e-05,-3.33206,-0.195876,-0.301211,5.48271,0.167562,
2,0,0,1,0,18834.6,0.166398,0.166069,-0.47478,10,0.01729,10,-7.88464e-05,-3.32351,-0.221075,-0.266877,4.96225,0.166069,
2,0,0,1,0,18834.7,0.1649,0.164589,-0.479688,10,0.0172158,10,-7.89514e-05,-3.31904,-0.176262,-0.334729,6.31829,0.164589,
2,0,0,1,0,18834.8,0.163402,0.16308,-0.493036,10,0.0171403,10,-8.04044e-05,-3.30712,-0.164043,-0.359662,6.922,0.16308,
2,0,0,1,0,18835,0.161904,0.161552,-0.503993,10,0.0170632,10,-8.14211e-05,-3.29758,-0.15659,-0.376781,7.40119,0.1615521,
2,0,0,1,0,18835.1,0.160405,0.160115,-0.516175,10,0.0169843,10,-8.26471e-05,-3.2872,-0.15582,-0.378641,7.6056,0.160115,
2,0,0,1,0,18835.3,0.158907,0.158549,-0.524818,10,0.0169038,10,-8.32093e-05,-3.27999,-0.129641,-0.455103,9.38088,0.158549,
2,0,0,1,0,18835.4,0.15741,0.157081,-0.540689,10,0.0168214,10,-8.49319e-05,-3.26705,-0.121917,-0.483936,10.259,0.157081,
2,0,0,1,0,18835.6,0.155911,0.155524,-0.555588,10,0.0167365,10,-8.64071e-05,-3.25525,-0.116333,-0.507165,11.0258,0.155524,
2,0,0,1,0,18835.7,0.154413,0.154059,-0.573173,10,0.0166492,10,-8.83026e-05,-3.24171,-0.119315,-0.494487,11.0655,0.154059,
2,0,0,1,0,18835.9,0.152915,0.152596,-0.592077,10,0.0165593,10,-9.03486e-05,-3.22762,-0.104526,-0.564454,13.0826,0.152596,
2,0,0,1,0,18836,0.151417,0.151126,-0.613193,10,0.0164666,10,-9.26695e-05,-3.2124,-0.10049,-0.587121,14.0718,0.151126,
2,0,0,1,0,18836.2,0.149918,0.149581,-0.638643,10,0.0163705,10,-9.5529e-05,-3.19474,-0.0921058,-0.640567,15.9267,0.149581,
2,0,0,1,0,18836.3,0.14842,0.1481,-0.662768,10,0.0162707,10,-9.81558e-05,-3.17864,-0.0844211,-0.698877,18.0833,0.1481,
2,0,0,1,0,18836.5,0.146922,0.146596,-0.690515,10,0.0161669,10,-0.000101227,-3.16083,-0.0809155,-0.729156,19.7028,0.146596,
2,0,0,1,0,18836.6,0.145424,0.145086,-0.721763,10,0.0160588,10,-0.000104718,-3.14161,-0.0783457,-0.753073,21.2847,0.145086,
2,0,0,1,0,18836.8,0.143925,0.143621,-0.756027,10,0.0159456,10,-0.000108581,-3.12146,-0.0708974,-0.832188,24.5435,0.143621,
2,0,0,1,0,18836.9,0.142428,0.142093,-0.794524,10,0.0158269,10,-0.000112896,-3.09989,-0.0710169,-0.830788,25.7516,0.1420932,
2,0,0,1,0,18837.1,0.14093,0.140618,-0.831626,10,0.0157025,10,-0.000116942,-3.08007,-0.0737999,-0.799459,25.9713,0.140618,
2,0,0,1,0,18837.2,0.139431,0.139088,-0.869364,10,0.0155723,10,-0.000120918,-3.0608,-0.0725991,-0.812683,27.6516,0.139088,
2,0,0,1,0,18837.4,0.137933,0.137632,-0.913812,10,0.015436,10,-0.00012577,-3.03914,-0.0746248,-0.790622,28.172,0.1376325,
2,0,0,1,0,18837.5,0.136435,0.13612,-0.95786,10,0.0152933,10,-0.000130384,-3.0187,-0.077642,-0.759898,28.3243,0.13612,
2,0,0,1,0,18837.7,0.134936,0.134562,-1.00076,10,0.015144,10,-0.000134664,-2.99967,-0.0856915,-0.688517,26.7478,0.134562,
2,0,0,1,0,18837.8,0.133438,0.133141,-1.03789,10,0.0149886,10,-0.000138185,-2.98385,-0.0907207,-0.650348,26.3768,0.133141,
2,0,0,1,0,18838,0.13194,0.131642,-1.07792,10,0.0148274,10,-0.0001419,-2.96741,-0.0969188,-0.608757,25.6379,0.131642,
2,0,0,1,0,18838.1,0.130442,0.130121,-1.11619,10,0.0146602,10,-0.000145239,-2.95226,-0.107579,-0.548434,23.8324,0.130121,
2,0,0,1,0,18838.3,0.128943,0.128634,-1.15309,10,0.0144874,10,-0.000148326,-2.93814,-0.127164,-0.463967,20.7679,0.128634,
2,0,0,1,0,18838.4,0.127445,0.127154,-1.18087,10,0.01431,10,-0.000150151,-2.9278,-0.139971,-0.421515,19.3789,0.1271535,
2,0,0,1,0,18838.6,0.125948,0.125631,-1.20773,10,0.0141286,10,-0.000151728,-2.91803,-0.160853,-0.366794,17.245,0.125631,
2,0,0,1,0,18838.7,0.124449,0.124147,-1.23066,10,0.013943,10,-0.000152783,-2.90986,-0.180862,-0.326216,15.6108,0.124147,
2,0,0,1,0,18838.9,0.122951,0.122624,-1.25332,10,0.0137543,10,-0.000153686,-2.90194,-0.24371,-0.242091,11.7962,0.122624,
2,0,0,1,0,18839,0.121453,0.121139,-1.26529,10,0.0135631,10,-0.000153276,-2.89781,-0.336702,-0.175229,8.63505,0.121139,
2,0,0,1,0,18839.2,0.119955,0.119607,-1.27518,10,0.01337,10,-0.00015252,-2.89443,-0.462717,-0.127508,6.34602,0.119607,
2,0,0,1,0,18839.3,0.118456,0.118156,-1.2851,10,0.0131754,10,-0.000151842,-2.89106,-0.569229,-0.103649,5.18777,0.118156,
2,0,0,1,0,18839.5,0.116958,0.116616,-1.29509,10,0.0129795,10,-0.000151029,-2.8877,-1.18345,-0.0498543,2.51059,0.1166163,
2,0,0,1,0,18839.6,0.11546,0.115132,-1.29416,10,0.012783,10,-0.000148999,-2.88801,4.34386,0.0135824,-0.683894,0.115132,
2,0,0,1,0,18839.8,0.113962,0.113641,-1.28808,10,0.0125866,10,-0.000146378,-2.89006,1.6203,0.036413,-1.83533,0.113641,
2,0,0,1,0,18839.9,0.112463,0.112149,-1.28924,10,0.0123907,10,-0.000144587,-2.88967,1.63329,0.0361235,-1.81611,0.112149,
2,0,0,1,0,18840.1,0.110966,0.110648,-1.28527,10,0.0121953,10,-0.000142213,-2.89101,1.13952,0.0517762,-2.59446,0.110648,
2,0,0,1,0,18840.2,0.109468,0.109128,-1.27849,10,0.0120005,10,-0.000139518,-2.8933,0.661724,0.089161,-4.43918,0.109128,
2,0,0,1,0,18840.4,0.107969,0.107638,-1.27188,10,0.0118067,10,-0.000136903,-2.89555,0.574705,0.102661,-5.09174,0.107638,
2,0,0,1,0,18840.5,0.106471,0.106198,-1.26112,10,0.0116144,10,-0.000133928,-2.89924,0.571267,0.103279,-5.09451,0.106198,
2,0,0,1,0,18840.7,0.104973,0.104636,-1.25409,10,0.0114233,10,-0.000131222,-2.90167,0.505691,0.116672,-5.71033,0.104636,
2,0,0,1,0,18840.8,0.103474,0.103202,-1.2466,10,0.0112333,10,-0.000128652,-2.90427,0.403848,0.146094,-7.08897,0.103202,
2,0,0,1,0,18841,0.101976,0.10162,-1.23569,10,0.011045,10,-0.00012557,-2.90809,0.355437,0.165993,-7.98795,0.10162,
2,0,0,1,0,18841.1,0.100478,0.100147,-1.22303,10,0.0108586,10,-0.000122483,-2.91256,0.404588,0.145827,-6.96566,0.100147,
2,0,0,1,0,18841.3,0.0989799,0.098671,-1.21342,10,0.0106737,10,-0.000119729,-2.91599,0.436772,0.135082,-6.39208,0.098671,
2,0,0,1,0,18841.4,0.0974808,0.0972187,-1.20359,10,0.01049,10,-0.000117011,-2.91952,0.443466,0.133043,-6.24071,0.0972187,
2,0,0,1,0,18841.6,0.0959833,0.0956973,-1.19182,10,0.0103082,10,-0.000114054,-2.92379,0.37791,0.156122,-7.26212,0.0956973,
2,0,0,1,0,18841.7,0.0944857,0.0941428,-1.17681,10,0.0101282,10,-0.000110789,-2.92929,0.360553,0.163637,-7.5476,0.0941428,
2,0,0,1,0,18841.9,0.0929871,0.0926872,-1.16691,10,0.00994962,10,-0.000108157,-2.93296,0.518256,0.113843,-5.19247,0.0926872,
2,0,0,1,0,18842,0.0914889,0.0911835,-1.1617,10,0.00977241,10,-0.000105928,-2.93491,0.44038,0.133975,-6.06632,0.0911835,
2,0,0,1,0,18842.2,0.0899907,0.0896491,-1.1509,10,0.00959671,10,-0.000103177,-2.93896,0.34935,0.168885,-7.5697,0.0896491,
2,0,0,1,0,18842.3,0.0884925,0.0882218,-1.13766,10,0.00942261,10,-0.000100367,-2.94399,0.371561,0.15879,-7.06655,0.0882218,
2,0,0,1,0,18842.5,0.0869943,0.0866938,-1.13086,10,0.00925023,10,-9.80381e-05,-2.94659,0.415476,0.142006,-6.26819,0.0866938,
2,0,0,1,0,18842.6,0.0854962,0.0852018,-1.12269,10,0.00907885,10,-9.56549e-05,-2.94974,0.412768,0.142937,-6.25764,0.0852018,
2,0,0,1,0,18842.8,0.083998,0.0836345,-1.1134,10,0.00890893,10,-9.31184e-05,-2.95335,0.345409,0.170812,-7.41502,0.0836345,
2,0,0,1,0,18842.9,0.0824998,0.0821499,-1.10591,10,0.00874031,10,-9.08501e-05,-2.95628,0.409549,0.144061,-6.20697,0.0821499,
2,0,0,1,0,18843.1,0.0810011,0.0806903,-1.09542,10,0.00857308,10,-8.83896e-05,-2.96042,0.529341,0.111459,-4.77227,0.0806903,
2,0,0,1,0,18843.2,0.0795036,0.0792019,-1.0882,10,0.00840707,10,-8.61876e-05,-2.96329,0.559657,0.105422,-4.47985,0.0792019,
2,0,0,1,0,18843.4,0.0780061,0.0776449,-1.08213,10,0.00824197,10,-8.40219e-05,-2.96572,0.575566,0.102508,-4.31995,0.0776449,
2,0,0,1,0,18843.5,0.076507,0.0761618,-1.07365,10,0.00807785,10,-8.17712e-05,-2.96914,0.452204,0.130472,-5.45809,0.0761618,
2,0,0,1,0,18843.7,0.0750088,0.0747112,-1.06323,10,0.00791528,10,-7.94351e-05,-2.97337,0.561557,0.105065,-4.37187,0.0747112,
2,0,0,1,0,18843.8,0.0735106,0.0731852,-1.05779,10,0.00775365,10,-7.74149e-05,-2.9756,0.56771,0.103926,-4.28928,0.0731852,
2,0,0,1,0,18844,0.0720124,0.0717028,-1.0507,10,0.00759301,10,-7.53384e-05,-2.97852,0.497004,0.118711,-4.87222,0.0717028,
2,0,0,1,0,18844.1,0.0705142,0.0702087,-1.04549,10,0.00743347,10,-7.34022e-05,-2.98068,0.451193,0.130764,-5.33363,0.0702087,
2,0,0,1,0,18844.3,0.0690161,0.0686976,-1.03367,10,0.00727513,10,-7.10106e-05,-2.98562,0.561624,0.105052,-4.25165,0.0686976,
2,0,0,1,0,18844.4,0.0675179,0.0671441,-1.03122,10,0.00711789,10,-6.92403e-05,-2.98665,0.567261,0.104009,-4.19063,0.0671441,
2,0,0,1,0,18844.6,0.0660188,0.0656947,-1.02812,10,0.00696127,10,-6.75418e-05,-2.98796,0.564695,0.104481,-4.17314,0.0656947,
2,0,0,1,0,18844.7,0.0645213,0.0641798,-1.0196,10,0.00680559,10,-6.54376e-05,-2.99157,0.467161,0.126295,-5.01386,0.0641798,
2,0,0,1,0,18844.9,0.0630237,0.0627068,-1.00755,10,0.00665117,10,-6.31804e-05,-2.99673,0.56137,0.1051,-4.14699,0.0627068,
2,0,0,1,0,18845,0.0615251,0.0612122,-1.00301,10,0.00649785,10,-6.13966e-05,-2.99869,0.571726,0.103196,-4.04899,0.0612122,
2,0,0,1,0,18845.2,0.0600269,0.0597128,-0.996602,10,0.00634547,10,-5.95099e-05,-3.00148,0.606767,0.0972367,-3.78489,0.0597128,
2,0,0,1,0,18845.3,0.0585287,0.0582038,-0.989786,10,0.00619403,10,-5.76093e-05,-3.00446,0.406493,0.145144,-5.60339,0.0582038,
2,0,0,1,0,18845.5,0.0570305,0.0567192,-0.983888,10,0.00604351,10,-5.58054e-05,-3.00705,0.491928,0.119936,-4.60314,0.0567192,
2,0,0,1,0,18845.6,0.0555323,0.0552241,-0.977195,10,0.00589438,10,-5.39647e-05,-3.01002,0.484972,0.121656,-4.64613,0.0552241,
2,0,0,1,0,18845.8,0.0540342,0.0537151,-0.970378,10,0.00574606,10,-5.2124e-05,-3.01306,0.581521,0.101458,-3.83525,0.0537151,
2,0,0,1,0,18845.9,0.052536,0.0521902,-0.966011,10,0.0055985,10,-5.04164e-05,-3.01502,0.455027,0.129663,-4.87606,0.0521902,
2,0,0,1,0,18846.1,0.0510378,0.0507237,-0.957581,10,0.00545204,10,-4.8572e-05,-3.01882,0.428567,0.137668,-5.14156,0.0507237,
2,0,0,1,0,18846.2,0.0495391,0.0492317,-0.948475,10,0.00530691,10,-4.66951e-05,-3.02297,0.488287,0.120831,-4.48437,0.0492317,
2,0,0,1,0,18846.4,0.0480416,0.0477316,-0.940993,10,0.00516275,10,-4.49151e-05,-3.02641,0.614202,0.0960596,-3.52861,0.0477316,
2,0,0,1,0,18846.5,0.0465441,0.0462135,-0.934882,10,0.00501963,10,-4.32042e-05,-3.02924,0.435933,0.135342,-4.93728,0.0462135,
2,0,0,1,0,18846.7,0.045045,0.0447027,-0.929054,10,0.00487741,10,-4.15312e-05,-3.03196,0.479954,0.122928,-4.44634,0.04470272,
2,0,0,1,0,18846.8,0.0435468,0.0432595,-0.916613,10,0.00473663,10,-3.96522e-05,-3.03781,0.411475,0.143387,-5.14926,0.0432595,
2,0,0,1,0,18847,0.0420486,0.0417463,-0.912446,10,0.00459699,10,-3.80913e-05,-3.03979,0.440755,0.133861,-4.77083,0.0417463,
2,0,0,1,0,18847.1,0.0405504,0.0402183,-0.907034,10,0.0044583,10,-3.64793e-05,-3.04238,0.477687,0.123512,-4.36444,0.04021826,
2,0,0,1,0,18847.3,0.0390523,0.0387104,-0.900591,10,0.00432043,10,-3.48622e-05,-3.04547,0.382854,0.154106,-5.39624,0.0387104,
2,0,0,1,0,18847.4,0.0375541,0.03723,-0.889458,10,0.00418392,10,-3.31145e-05,-3.05087,0.363191,0.162449,-5.65752,0.03723,
2,0,0,1,0,18847.6,0.0360559,0.0357486,-0.882078,10,0.00404875,10,-3.15331e-05,-3.05449,0.400526,0.147306,-5.08652,0.0357486,
2,0,0,1,0,18847.7,0.0345568,0.0341887,-0.877677,10,0.00391437,10,-3.00066e-05,-3.05667,0.425881,0.138536,-4.7398,0.03418868,
2,0,0,1,0,18847.9,0.0330593,0.0327433,-0.871551,10,0.00378103,10,-2.85375e-05,-3.05971,0.354253,0.166547,-5.64746,0.0327433,
2,0,0,1,0,18848,0.0315618,0.0311948,-0.86339,10,0.00364882,10,-2.69333e-05,-3.06379,0.410831,0.143611,-4.83303,0.0311948,
2,0,0,1,0,18848.2,0.0300631,0.0297467,-0.854382,10,0.00351785,10,-2.54151e-05,-3.06835,0.409246,0.144168,-4.81589,0.0297467,
2,0,0,1,0,18848.3,0.0285649,0.0282113,-0.849408,10,0.00338782,10,-2.39629e-05,-3.07088,0.554367,0.106428,-3.52125,0.0282113,
2,0,0,1,0,18848.5,0.0270667,0.0267585,-0.84326,10,0.00325864,10,-2.25644e-05,-3.07404,0.41313,0.142812,-4.68681,0.02675852,
2,0,0,1,0,18848.6,0.0255685,0.0252559,-0.833552,10,0.0031304,10,-2.10521e-05,-3.07907,0.419839,0.14053,-4.57684,0.0252559,
2,0,0,1,0,18848.8,0.0240704,0.023783,-0.82662,10,0.00300344,10,-1.96595e-05,-3.08269,0.404971,0.145689,-4.71608,0.023783,
2,0,0,1,0,18848.9,0.0225722,0.022273,-0.821326,10,0.00287733,10,-1.82934e-05,-3.08548,0.544882,0.10828,-3.4715,0.022273,
2,0,0,1,0,18849.1,0.021074,0.0207513,-0.817015,10,0.00275201,10,-1.69541e-05,-3.08777,0.51177,0.115286,-3.67692,0.0207513,
2,0,0,1,0,18849.2,0.0195758,0.0192487,-0.81208,10,0.00262745,10,-1.56315e-05,-3.0904,0.494569,0.119296,-3.77826,0.01924872,
2,0,0,1,0,18849.4,0.0180772,0.0177522,-0.804164,10,0.00250372,10,-1.42757e-05,-3.09466,0.483054,0.12214,-3.84605,0.0177522,
2,0,0,1,0,18849.5,0.0165796,0.0162682,-0.801438,10,0.00238093,10,-1.3038e-05,-3.09613,0.948462,0.062206,-1.94641,0.0162682,
2,0,0,1,0,18849.7,0.0150821,0.0147704,-0.799797,10,0.00225859,10,-1.18133e-05,-3.09702,0.837783,0.0704239,-2.19243,0.01477036,
2,0,0,1,0,18849.8,0.013583,0.01325,-0.793361,10,0.00213655,10,-1.0512e-05,-3.10053,0.667331,0.0884119,-2.7354,0.01325,
2,0,0,1,0,18850,0.0120848,0.0117676,-0.789713,10,0.00201537,10,-9.29298e-06,-3.10253,0.695418,0.0848411,-2.62072,0.0117676,
2,0,0,1,0,18850.1,0.0105866,0.0102734,-0.786047,10,0.00189487,10,-8.0754e-06,-3.10455,0.850778,0.0693483,-2.13194,0.01027344,
2,0,0,1,0,18850.3,0.00908846,0.00874115,-0.785667,10,0.00177461,10,-6.86763e-06,-3.10476,1.19532,0.0493592,-1.51417,0.00874115,
2,0,0,1,0,18850.4,0.00759027,0.00726931,-0.781918,10,0.00165467,10,-5.684e-06,-3.10684,1.06016,0.055652,-1.69891,0.00726931,
2,0,0,1,0,18850.6,0.00609208,0.0057858,-0.782893,10,0.00153491,10,-4.52966e-06,-3.1063,1.27543,0.0462589,-1.4099,0.0057858,
2,0,0,1,0,18850.7,0.00459389,0.00431289,-0.781341,10,0.00141555,10,-3.36984e-06,-3.10716,1.87527,0.0314621,-0.95869,0.00431289,
2,0,0,1,0,18850.9,0.0030948,0.00276593,-0.780658,10,0.00129611,10,-2.15924e-06,-3.10754,-0.848748,-0.0695141,2.12332,0.00276593,
2,0,0,1,0,18851,0.00159728,0.00125441,-0.789231,10,0.00117524,10,-9.90017e-07,-3.1028, , , ,0.00125441,
2,0,0,1,0,18851.2,0.000199195,-0.000170716,-0.782323,10,0.00106306,10,1.33555e-07,-3.10661, , , ,-0.000170716,