File: Figure_codes/Fig_3-5/rawdata_trumpetplot_data/after 10th/20221101_1-115_003_TrumpetPlot_ParaChange_from10_every3_06_CV_C01_28.csv
mode,ox/red,error,control changes,counter inc.,time/s,control/V,Ewe/V,<I>/mA,cycle number,(Q-Qo)/C,I Range,P/W,log(|I|),Tafel slope mV/dec,alpha_eff,dI/d(E-IR),E-IR/V,
2,0,0,0,0,56313.7,2.44065e-05,-0.000363498,-1.41153,29,0.0000000E+000,10,5.13088e-07,-2.85031, , , ,-0.000363498,
2,0,0,1,0,56313.7,0.00129787,0.000870531,-0.480691,29,-2.68785e-05,10,-4.18457e-07,-3.31813, , , ,0.000870531,
2,1,0,1,0,56313.7,0.00279427,0.00245699,0.123375,29,-3.20125e-05,10,3.03132e-07,-3.90877,-0.0355353,-1.66032,331.892,0.00245699,
2,1,0,1,0,56313.8,0.00429425,0.00390436,0.487396,29,-1.94232e-05,10,1.90297e-06,-3.31212,0.00302585,19.4986,209.326,0.00390436,
2,1,0,1,0,56313.8,0.00579422,0.0054687,0.735284,29,4.38981e-06,10,4.02105e-06,-3.13354,0.00997437,5.91516,146.252,0.0054687,
2,1,0,1,0,56313.9,0.00729063,0.0069512,0.918009,29,3.60726e-05,10,6.38127e-06,-3.03715,0.018569,3.17734,106.811,0.0069512,
2,1,0,1,0,56313.9,0.00878703,0.00839366,1.06088,29,7.36928e-05,10,8.90469e-06,-2.97433,0.0284687,2.07245,82.4758,0.00839366,
2,1,0,1,0,56313.9,0.010287,0.00995738,1.17125,29,0.000115955,10,1.16626e-05,-2.93135,0.0400433,1.47341,65.2475,0.00995738,
2,1,0,1,0,56314,0.011787,0.011426,1.25195,29,0.000161839,10,1.43048e-05,-2.90241,0.0529977,1.11325,53.5823,0.011426,
2,1,0,1,0,56314,0.0132825,0.0129087,1.32028,29,0.000210485,10,1.70431e-05,-2.87933,0.064664,0.912409,46.7896,0.0129087,
2,1,0,1,0,56314,0.014778,0.0144097,1.37935,29,0.000261658,10,1.9876e-05,-2.86033,0.080495,0.732965,39.4211,0.0144097,
2,1,0,1,0,56314.1,0.0162816,0.0159533,1.43842,29,0.000315403,10,2.29475e-05,-2.84211,0.0936902,0.629735,35.313,0.01595326,
2,1,0,1,0,56314.1,0.017778,0.0174455,1.48856,29,0.000370762,10,2.59686e-05,-2.82723,0.11214,0.526129,30.4776,0.01744548,
2,1,0,1,0,56314.2,0.0192744,0.0189183,1.53522,29,0.000427787,10,2.90437e-05,-2.81383,0.122086,0.483266,28.8025,0.01891827,
2,1,0,1,0,56314.2,0.0207743,0.0204174,1.5741,29,0.000486556,10,3.2139e-05,-2.80297,0.131652,0.448151,27.3887,0.0204174,
2,1,0,1,0,56314.2,0.0222743,0.0219298,1.61495,29,0.000546836,10,3.54156e-05,-2.79184,0.143221,0.411951,25.8699,0.0219298,
2,1,0,1,0,56314.3,0.0237707,0.0233946,1.65024,29,0.00060843,10,3.86068e-05,-2.78245,0.155278,0.379964,24.4216,0.0233946,
2,1,0,1,0,56314.3,0.0252671,0.0249125,1.68352,29,0.000671337,10,4.19408e-05,-2.77378,0.167713,0.351791,23.17,0.0249125,
2,1,0,1,0,56314.3,0.0267671,0.0264528,1.71923,29,0.000735741,10,4.54786e-05,-2.76467,0.162388,0.363327,24.4327,0.0264528,
2,1,0,1,0,56314.4,0.0282671,0.0278798,1.75643,29,0.000801515,10,4.89689e-05,-2.75537,0.175066,0.337015,23.1045,0.0278798,
2,1,0,1,0,56314.4,0.0297626,0.0294124,1.78991,29,0.000868434,10,5.26454e-05,-2.74717,0.181216,0.325579,22.7477,0.0294124,
2,1,0,1,0,56314.4,0.0312581,0.0309049,1.8231,29,0.000936566,10,5.63428e-05,-2.73919,0.191087,0.308759,21.973,0.0309049,
2,1,0,1,0,56314.5,0.0327616,0.0324265,1.85877,29,0.00100625,10,6.02733e-05,-2.73077,0.188098,0.313666,22.7012,0.0324265,
2,1,0,1,0,56314.5,0.034258,0.0339052,1.89143,29,0.00107687,10,6.41295e-05,-2.72321,0.193774,0.304478,22.4257,0.0339052,
2,1,0,1,0,56314.6,0.0357545,0.035393,1.92416,29,0.00114876,10,6.81017e-05,-2.71576,0.214148,0.275511,20.6418,0.035393,
2,1,0,1,0,56314.6,0.0372544,0.0369125,1.95577,29,0.00122208,10,7.21922e-05,-2.70868,0.220173,0.267971,20.4538,0.0369125,
2,1,0,1,0,56314.6,0.0387544,0.0383372,1.98324,29,0.00129653,10,7.60321e-05,-2.70262,0.211962,0.278352,21.625,0.0383372,
2,1,0,1,0,56314.7,0.0402508,0.0398942,2.01642,29,0.001372,10,8.04435e-05,-2.69542,0.209851,0.281152,22.2036,0.0398942,
2,1,0,1,0,56314.7,0.0417472,0.0413892,2.05318,29,0.00144876,10,8.49794e-05,-2.68757,0.233589,0.25258,20.2238,0.04138916,
2,1,0,1,0,56314.7,0.0432472,0.0429344,2.08903,29,0.00152696,10,8.96912e-05,-2.68006,0.2371,0.24884,20.2305,0.0429344,
2,1,0,1,0,56314.8,0.0447472,0.0443419,2.11627,29,0.00160624,10,9.38393e-05,-2.67443,0.22354,0.263934,21.7976,0.0443419,
2,1,0,1,0,56314.8,0.0462427,0.0458798,2.14863,29,0.00168656,10,9.85785e-05,-2.66784,0.222563,0.265093,22.1873,0.0458798,
2,1,0,1,0,56314.9,0.0477382,0.047357,2.18147,29,0.00176807,10,0.000103308,-2.66125,0.233562,0.25261,21.5025,0.047357,
2,1,0,1,0,56314.9,0.0492417,0.048867,2.21184,29,0.00185119,10,0.000108086,-2.65525,0.239939,0.245895,21.2176,0.048867,
2,1,0,1,0,56314.9,0.0507381,0.0503808,2.23773,29,0.00193501,10,0.000112738,-2.65019,0.248417,0.237504,20.7916,0.0503808,
2,1,0,1,0,56315,0.0522345,0.0518942,2.26997,29,0.00201998,10,0.000117798,-2.64398,0.256626,0.229907,20.4227,0.0518942,
2,1,0,1,0,56315,0.0537345,0.0533864,2.30597,29,0.00210634,10,0.000123107,-2.63715,0.256424,0.230088,20.691,0.0533864,
2,1,0,1,0,56315,0.0552345,0.0548476,2.33662,29,0.0021939,10,0.000128158,-2.63141,0.286954,0.205608,18.7045,0.0548476,
2,1,0,1,0,56315.1,0.0567309,0.0563337,2.36353,29,0.00228233,10,0.000133146,-2.62644,0.312154,0.189009,17.3965,0.05633368,
2,1,0,1,0,56315.1,0.0582273,0.0578711,2.39409,29,0.00237173,10,0.000138548,-2.62086,0.28802,0.204847,19.1063,0.0578711,
2,1,0,1,0,56315.2,0.0597309,0.0593914,2.42045,29,0.0024627,10,0.000143754,-2.6161,0.295381,0.199742,18.8586,0.0593914,
2,1,0,1,0,56315.2,0.0612264,0.0608199,2.44687,29,0.0025543,10,0.000148818,-2.61139,0.325158,0.18145,17.3215,0.0608199,
2,1,0,1,0,56315.2,0.0627219,0.0624312,2.4732,29,0.00264694,10,0.000154405,-2.60674,0.34497,0.171029,16.5263,0.0624312,
2,1,0,1,0,56315.3,0.0642218,0.0638874,2.49972,29,0.00274074,10,0.000159701,-2.60211,0.326058,0.180949,17.692,0.0638874,
2,1,0,1,0,56315.3,0.0657218,0.0653961,2.52681,29,0.00283555,10,0.000165244,-2.59743,0.336639,0.175262,17.2798,0.0653961,
2,1,0,1,0,56315.3,0.0672182,0.0668818,2.55672,29,0.00293118,10,0.000170998,-2.59232,0.342723,0.17215,17.1427,0.0668818,
2,1,0,1,0,56315.4,0.0687146,0.0683543,2.58349,29,0.00302774,10,0.000176592,-2.58779,0.385168,0.15318,15.4097,0.0683543,
2,1,0,1,0,56315.4,0.0702146,0.0698775,2.60397,29,0.00312543,10,0.000181959,-2.58436,0.379267,0.155563,15.7943,0.0698775,
2,1,0,1,0,56315.5,0.0717146,0.0713564,2.62439,29,0.00322402,10,0.000187267,-2.58097,0.381914,0.154485,15.8168,0.0713564,
2,1,0,1,0,56315.5,0.073211,0.0728764,2.64884,29,0.00332325,10,0.000193038,-2.57694,0.38228,0.154337,15.9627,0.0728764,
2,1,0,1,0,56315.5,0.0747074,0.0743284,2.67091,29,0.0034233,10,0.000198525,-2.57334,0.467156,0.126296,13.1789,0.0743284,
2,1,0,1,0,56315.6,0.0762109,0.0758351,2.68694,29,0.00352467,10,0.000203764,-2.57074,0.442832,0.133233,13.999,0.0758351,
2,1,0,1,0,56315.6,0.0777065,0.0773522,2.71237,29,0.00362621,10,0.000209808,-2.56665,0.46574,0.12668,13.4056,0.0773522,
2,1,0,1,0,56315.6,0.079202,0.0788744,2.73408,29,0.00372858,10,0.000215649,-2.56319,0.478593,0.123278,13.1347,0.0788744,
2,1,0,1,0,56315.7,0.0807019,0.0803661,2.75585,29,0.00383199,10,0.000221477,-2.55974,0.548431,0.10758,11.5336,0.0803661,
2,1,0,1,0,56315.7,0.0822019,0.0818417,2.77033,29,0.00393608,10,0.000226728,-2.55747,0.548244,0.107616,11.6262,0.0818417,
2,1,0,1,0,56315.8,0.0836983,0.0833344,2.78681,29,0.00404047,10,0.000232237,-2.55489,0.548838,0.1075,11.6951,0.0833344,
2,1,0,1,0,56315.8,0.0851947,0.0848486,2.80247,29,0.00414559,10,0.000237786,-2.55246,0.60292,0.0978572,10.7173,0.08484859,
2,1,0,1,0,56315.8,0.0866947,0.0863557,2.82115,29,0.00425169,10,0.000243622,-2.54957,0.571884,0.103168,11.3875,0.0863557,
2,1,0,1,0,56315.9,0.0881947,0.0878448,2.84092,29,0.00435849,10,0.00024956,-2.54654,0.52361,0.112679,12.5097,0.0878448,
2,1,0,1,0,56315.9,0.0896911,0.0893169,2.86261,29,0.00446567,10,0.000255679,-2.54324,0.479788,0.122971,13.742,0.0893169,
2,1,0,1,0,56315.9,0.0911875,0.090866,2.88929,29,0.00457366,10,0.000262539,-2.53921,0.407692,0.144717,16.2802,0.090866,
2,1,0,1,0,56316,0.0926901,0.0923497,2.9136,29,0.00468313,10,0.00026907,-2.53557,0.393684,0.149866,17.0015,0.0923497,
2,1,0,1,0,56316,0.0941856,0.0938677,2.93255,29,0.00479293,10,0.000275272,-2.53275,0.404771,0.145761,16.6767,0.0938677,
2,1,0,1,0,56316.1,0.0956821,0.0953009,2.9558,29,0.00490362,10,0.000281691,-2.52932,0.380965,0.15487,17.9071,0.09530095,
2,1,0,1,0,56316.1,0.097182,0.0967889,2.98378,29,0.00501559,10,0.000288797,-2.52523,0.318522,0.18523,21.6141,0.0967889,
2,1,0,1,0,56316.1,0.098682,0.0983345,3.01768,29,0.00512875,10,0.000296742,-2.52033,0.296906,0.198716,23.4625,0.0983345,
2,1,0,1,0,56316.2,0.100178,0.0998016,3.04918,29,0.00524285,10,0.000304313,-2.51582,0.296441,0.199028,23.7723,0.0998016,
2,1,0,1,0,56316.2,0.101675,0.101327,3.09036,29,0.0053584,10,0.000313138,-2.50999,0.260104,0.226832,27.4032,0.101327,
2,1,0,1,0,56316.2,0.103175,0.102835,3.14157,29,0.00547577,10,0.000323062,-2.50285,0.241362,0.244446,29.9487,0.102835,
2,1,0,1,0,56316.3,0.104675,0.104296,3.18986,29,0.00559489,10,0.00033269,-2.49623,0.233081,0.253131,31.4589,0.104296,
2,1,0,1,0,56316.3,0.106171,0.105815,3.23519,29,0.00571549,10,0.000342333,-2.4901,0.231624,0.254724,32.1252,0.105815,
2,1,0,1,0,56316.4,0.107667,0.107309,3.28149,29,0.00583791,10,0.000352134,-2.48393,0.218333,0.270229,34.6505,0.107309,
2,1,0,1,0,56316.4,0.10917,0.108811,3.33244,29,0.00596278,10,0.000362606,-2.47724,0.230155,0.256349,33.3721,0.108811,
2,1,0,1,0,56316.4,0.110666,0.110284,3.38333,29,0.00608905,10,0.000373127,-2.47066,0.224257,0.263091,34.7762,0.110284,
2,1,0,1,0,56316.5,0.112162,0.111777,3.43816,29,0.00621723,10,0.000384306,-2.46367,0.239205,0.246651,33.0893,0.111777,
2,1,0,1,0,56316.5,0.113662,0.113286,3.48986,29,0.00634768,10,0.000395354,-2.45719,0.240869,0.244946,33.3082,0.113286,
2,1,0,1,0,56316.5,0.115162,0.114813,3.5392,29,0.00647987,10,0.000406348,-2.45109,0.252256,0.233889,32.2618,0.114813,
2,1,0,1,0,56316.6,0.116658,0.116268,3.59016,29,0.00661358,10,0.000417421,-2.44489,0.260498,0.226489,31.6474,0.116268,
2,1,0,1,0,56316.6,0.118155,0.117801,3.63561,29,0.00674914,10,0.000428279,-2.43942,0.291096,0.202682,28.6958,0.117801,
2,1,0,1,0,56316.7,0.119655,0.119312,3.67276,29,0.00688665,10,0.000438203,-2.43501,0.314519,0.187588,26.8747,0.1193118,
2,1,0,1,0,56316.7,0.121155,0.120823,3.70558,29,0.00702558,10,0.000447719,-2.43114,0.355956,0.165751,23.9719,0.120823,
2,1,0,1,0,56316.7,0.122651,0.122284,3.7411,29,0.00716547,10,0.000457478,-2.427,0.396488,0.148806,21.7289,0.122284,
2,1,0,1,0,56316.8,0.124147,0.123772,3.77532,29,0.00730656,10,0.000467278,-2.42305,0.440207,0.134028,19.709,0.123772,
2,1,0,1,0,56316.8,0.12565,0.125288,3.80047,29,0.00744949,10,0.000476155,-2.42016,0.528185,0.111703,16.5404,0.125288,
2,1,0,1,0,56316.8,0.127146,0.126776,3.82249,29,0.0075926,10,0.0004846,-2.41765,0.599746,0.0983749,14.6628,0.126776,
2,1,0,1,0,56316.9,0.128642,0.128276,3.84461,29,0.00773647,10,0.000493171,-2.41515,0.718692,0.0820936,12.3059,0.128276,
2,1,0,1,0,56316.9,0.130142,0.129794,3.86113,29,0.00788153,10,0.000501151,-2.41329,0.746021,0.0790862,11.9121,0.129794,
2,1,0,1,0,56317,0.131642,0.1313,3.87986,29,0.00802727,10,0.000509426,-2.41118,0.981326,0.0601228,9.09385,0.1313,
2,1,0,1,0,56317,0.133139,0.132812,3.89319,29,0.0081732,10,0.000517064,-2.40969,1.09843,0.0537129,8.16137,0.132812,
2,1,0,1,0,56317,0.134635,0.134282,3.9014,29,0.00831949,10,0.000523886,-2.40878,1.49821,0.0393803,6.00317,0.134282,
2,1,0,1,0,56317.1,0.136135,0.135782,3.9128,29,0.00846661,10,0.000531287,-2.40751,1.69387,0.0348314,5.31316,0.135782,
2,1,0,1,0,56317.1,0.137635,0.137268,3.91819,29,0.00861398,10,0.00053784,-2.40691,-73.0737,-0.000807404,-0.123213,0.137268,
2,1,0,1,0,56317.1,0.13913,0.138788,3.91917,29,0.00876106,10,0.000543936,-2.40681,-2.26118,-0.0260926,-3.97919,0.138788,
2,1,0,1,0,56317.2,0.140626,0.140247,3.90872,29,0.00890783,10,0.000548184,-2.40797,-0.96617,-0.0610659,-9.28549,0.140247,
2,1,0,1,0,56317.2,0.14213,0.141798,3.88664,29,0.00905489,10,0.00055112,-2.41043,-0.616706,-0.0956696,-14.4786,0.1417985,
2,1,0,1,0,56317.3,0.143626,0.143272,3.86165,29,0.00920031,10,0.000553265,-2.41323,-0.359352,-0.164185,-24.6506,0.143272,
2,1,0,1,0,56317.3,0.145122,0.144792,3.81354,29,0.00934444,10,0.000552171,-2.41867,-0.260688,-0.226324,-33.5921,0.1447923,
2,1,0,1,0,56317.3,0.146622,0.146264,3.75337,29,0.00948698,10,0.000548984,-2.42558,-0.199817,-0.29527,-43.1816,0.146264,
2,1,0,1,0,56317.4,0.148122,0.147766,3.68623,29,0.0096271,10,0.000544701,-2.43342,-0.165348,-0.356823,-51.1875,0.147766,
2,1,0,1,0,56317.4,0.149619,0.149208,3.60535,29,0.00976397,10,0.000537947,-2.44305,-0.139845,-0.421897,-59.1714,0.149208,
2,1,0,1,0,56317.4,0.151115,0.15078,3.51254,29,0.00989753,10,0.00052962,-2.45438,-0.116079,-0.508273,-69.3118,0.15078,
2,1,0,1,0,56317.5,0.152615,0.15228,3.40439,29,0.0100277,10,0.000518422,-2.46796,-0.107584,-0.548407,-72.6152,0.15228,
2,1,0,1,0,56317.5,0.154115,0.153769,3.28954,29,0.0101536,10,0.000505828,-2.48286,-0.101809,-0.579517,-74.3258,0.153769,
2,1,0,1,0,56317.6,0.155611,0.155278,3.17515,29,0.0102751,10,0.00049303,-2.49824,-0.0991386,-0.595127,-73.6952,0.155278,
2,1,0,1,0,56317.6,0.157106,0.156786,3.0615,29,0.0103923,10,0.00048,-2.51407,-0.0952599,-0.619358,-73.9963,0.156786,
2,1,0,1,0,56317.6,0.15861,0.158256,2.94878,29,0.0105058,10,0.000466663,-2.53036,-0.0942388,-0.626069,-72.1485,0.158256,
2,1,0,1,0,56317.7,0.160106,0.159748,2.83877,29,0.0106145,10,0.000453487,-2.54687,-0.0943131,-0.625576,-69.5213,0.159748,
2,1,0,1,0,56317.7,0.161602,0.161263,2.73859,29,0.0107194,10,0.000441633,-2.56247,-0.0988241,-0.597021,-63.878,0.161263,
2,1,0,1,0,56317.7,0.163102,0.162751,2.64541,29,0.0108208,10,0.000430543,-2.57751,-0.102637,-0.574842,-59.4266,0.162751,
2,1,0,1,0,56317.8,0.164602,0.164288,2.55989,29,0.0109189,10,0.000420558,-2.59178,-0.104377,-0.565258,-56.489,0.164288,
2,1,0,1,0,56317.8,0.166099,0.165738,2.47638,29,0.0110136,10,0.000410431,-2.60618,-0.115388,-0.511318,-49.5493,0.165738,
2,1,0,1,0,56317.9,0.167595,0.167226,2.40677,29,0.0111053,10,0.000402476,-2.61856,-0.121931,-0.483881,-45.544,0.167226,
2,1,0,1,0,56317.9,0.169095,0.16871,2.34094,29,0.0111949,10,0.000394941,-2.63061,-0.133595,-0.441634,-40.4951,0.16871,
2,1,0,1,0,56317.9,0.170595,0.170234,2.28088,29,0.0112821,10,0.000388283,-2.6419,-0.13786,-0.427969,-38.2399,0.170234,
2,1,0,1,0,56318,0.172091,0.171767,2.22678,29,0.011367,10,0.000382488,-2.65232,-0.145581,-0.405273,-35.3106,0.171767,
2,1,0,1,0,56318,0.173586,0.173252,2.18049,29,0.0114499,10,0.000377773,-2.66145,-0.164048,-0.359652,-30.62,0.173252,
2,1,0,1,0,56318,0.17509,0.174731,2.13771,29,0.0115315,10,0.000373525,-2.67005,-0.18075,-0.326417,-27.2296,0.174731,
2,1,0,1,0,56318.1,0.176586,0.176212,2.09878,29,0.0116112,10,0.00036983,-2.67803,-0.182242,-0.323745,-26.4696,0.176212,
2,1,0,1,0,56318.1,0.178083,0.177764,2.05947,29,0.0116895,10,0.000366099,-2.68625,-0.209898,-0.281089,-22.6369,0.1777643,
2,1,0,1,0,56318.2,0.179582,0.179277,2.02634,29,0.0117666,10,0.000363276,-2.69329,-0.227663,-0.259156,-20.5625,0.179277,
2,1,0,1,0,56318.2,0.181082,0.180729,1.99722,29,0.0118426,10,0.000360956,-2.69957,-0.262967,-0.224363,-17.5547,0.180729,
2,1,0,1,0,56318.2,0.182579,0.182227,1.97252,29,0.0119175,10,0.000359446,-2.70498,-0.266143,-0.221685,-17.1036,0.182227,
2,1,0,1,0,56318.3,0.184075,0.183732,1.94957,29,0.0119915,10,0.000358199,-2.71006,-0.273835,-0.215458,-16.4182,0.183732,
2,1,0,1,0,56318.3,0.185579,0.185223,1.92932,29,0.0120648,10,0.000357355,-2.7146,-0.332413,-0.17749,-13.365,0.185223,
2,1,0,1,0,56318.3,0.187074,0.186711,1.91175,29,0.0121371,10,0.000356945,-2.71857,-0.38764,-0.152203,-11.3457,0.186711,
2,1,0,1,0,56318.4,0.18857,0.188215,1.89624,29,0.0122087,10,0.0003569,-2.72211,-0.393663,-0.149874,-11.063,0.188215,
2,1,0,1,0,56318.4,0.19007,0.189747,1.87881,29,0.0122799,10,0.000356498,-2.72612,-0.391806,-0.150585,-11.0163,0.189747,
2,1,0,1,0,56318.5,0.19157,0.191204,1.8565,29,0.0123505,10,0.000354971,-2.7313,-0.432675,-0.136361,-9.91846,0.191204,
2,1,0,1,0,56318.5,0.193066,0.192687,1.84088,29,0.0124203,10,0.000354713,-2.73497,-0.520735,-0.113301,-8.17376,0.192687,
2,1,0,1,0,56318.5,0.194563,0.194191,1.83228,29,0.0124897,10,0.000355812,-2.73701,-0.513312,-0.11494,-8.24852,0.194191,
2,1,0,1,0,56318.6,0.196063,0.195698,1.82477,29,0.0125588,10,0.000357102,-2.73879,-0.587832,-0.100369,-7.14513,0.195698,
2,1,0,1,0,56318.6,0.197563,0.197173,1.81061,29,0.0126275,10,0.000357004,-2.74217,-0.66574,-0.0886232,-6.27056,0.197173,
2,1,0,1,0,56318.6,0.199059,0.198734,1.80313,29,0.0126956,10,0.000358343,-2.74397,-0.618966,-0.0953203,-6.69878,0.198734,
2,1,0,1,0,56318.7,0.200555,0.200142,1.7985,29,0.0127634,10,0.000359957,-2.74509,-0.834543,-0.0706973,-4.94234,0.200142,
2,1,0,1,0,56318.7,0.202059,0.201701,1.78809,29,0.0128312,10,0.000360659,-2.74761,-0.655462,-0.0900128,-6.26347,0.201701,
2,1,0,1,0,56318.8,0.203554,0.203213,1.77705,29,0.0128983,10,0.000361119,-2.7503,-0.950548,-0.0620694,-4.31457,0.203213,
2,1,0,1,0,56318.8,0.20505,0.204657,1.76883,29,0.0129651,10,0.000362005,-2.75231,-1.38048,-0.0427388,-2.96076,0.204657,
2,1,0,1,0,56318.8,0.20655,0.206203,1.76184,29,0.0130319,10,0.000363296,-2.75403,-1.15832,-0.050936,-3.51039,0.206203,
2,1,0,1,0,56318.9,0.20805,0.207708,1.75986,29,0.0130986,10,0.000365537,-2.75452,-1.01793,-0.0579609,-3.97802,0.207708,
2,1,0,1,0,56318.9,0.209546,0.209208,1.75321,29,0.0131648,10,0.000366787,-2.75616,-0.852037,-0.0692459,-4.73594,0.209208,
2,1,0,1,0,56318.9,0.211043,0.210692,1.74996,29,0.0132308,10,0.000368702,-2.75697,-0.834662,-0.0706873,-4.80863,0.210692,
2,1,0,1,0,56319,0.212543,0.21219,1.74168,29,0.0132966,10,0.000369568,-2.75903,-1.22463,-0.0481778,-3.26912,0.21219,
2,1,0,1,0,56319,0.214043,0.213685,1.7349,29,0.0133623,10,0.000370721,-2.76073,-1.17865,-0.0500574,-3.3859,0.2136849,
2,1,0,1,0,56319.1,0.215539,0.215189,1.72828,29,0.0134276,10,0.000371907,-2.76239,-1.07448,-0.0549104,-3.70633,0.215189,
2,1,0,1,0,56319.1,0.217035,0.216693,1.71883,29,0.0134927,10,0.000372458,-2.76477,-1.25391,-0.047053,-3.17516,0.216693,
2,1,0,1,0,56319.1,0.218538,0.21815,1.71721,29,0.0135579,10,0.00037461,-2.76518,-2.21112,-0.0266833,-1.79268,0.21815,
2,1,0,1,0,56319.2,0.220034,0.219685,1.71749,29,0.0136227,10,0.000377307,-2.76511,-1.46867,-0.0401724,-2.69153,0.219685,
2,1,0,1,0,56319.2,0.22153,0.221183,1.71661,29,0.0136874,10,0.000379685,-2.76533,-1.29986,-0.0453897,-3.03008,0.221183,
2,1,0,1,0,56319.2,0.22303,0.222658,1.70606,29,0.0137521,10,0.000379869,-2.768,-1.03223,-0.0571578,-3.80269,0.222658,
2,1,0,1,0,56319.3,0.22453,0.224178,1.7046,29,0.0138165,10,0.000382133,-2.76838,-1.23917,-0.0476124,-3.1621,0.224178,
2,1,0,1,0,56319.3,0.226026,0.225712,1.69939,29,0.0138807,10,0.000383572,-2.76971,-2.54087,-0.0232204,-1.54121,0.225712,
2,1,0,1,0,56319.4,0.227523,0.227171,1.69788,29,0.0139447,10,0.000385708,-2.77009,-1.02637,-0.0574841,-3.80562,0.2271706,
2,1,0,1,0,56319.4,0.229023,0.228685,1.69347,29,0.0140088,10,0.000387272,-2.77122,-1.40455,-0.0420064,-2.77921,0.228685,
2,1,0,1,0,56319.4,0.230523,0.23017,1.68539,29,0.0140727,10,0.000387926,-2.7733,-1.72443,-0.0342142,-2.26207,0.23017,
2,1,0,1,0,56319.5,0.232019,0.231668,1.68879,29,0.0141364,10,0.000391238,-2.77242,-12.6104,-0.00467867,-0.307843,0.231668,
2,1,0,1,0,56319.5,0.233515,0.23315,1.68392,29,0.0141999,10,0.000392606,-2.77368,-2.44849,-0.0240965,-1.58183,0.23315,
2,1,0,1,0,56319.5,0.235018,0.234685,1.68352,29,0.0142638,10,0.000395097,-2.77378,-1.38171,-0.0427007,-2.79834,0.234685,
2,1,0,1,0,56319.6,0.236514,0.236156,1.68014,29,0.014327,10,0.000396775,-2.77465,-1.92217,-0.0306945,-2.00904,0.236156,
2,1,0,1,0,56319.6,0.23801,0.23768,1.676,29,0.0143903,10,0.000398353,-2.77573,-4.07737,-0.0144701,-0.945554,0.23768,
2,1,0,1,0,56319.7,0.23951,0.239179,1.67318,29,0.0144536,10,0.000400189,-2.77646,-3.53158,-0.0167064,-1.09135,0.239179,
2,1,0,1,0,56319.7,0.24101,0.240669,1.66638,29,0.0145168,10,0.000401045,-2.77823,-1.54263,-0.0382464,-2.49335,0.240669,
2,1,0,1,0,56319.7,0.242506,0.24212,1.66238,29,0.0145797,10,0.000402495,-2.77927,-1.92355,-0.0306725,-2.00244,0.24212,
2,1,0,1,0,56319.8,0.244003,0.243655,1.66456,29,0.0146424,10,0.000405576,-2.7787,-2.4535,-0.0240473,-1.56223,0.243655,
2,1,0,1,0,56319.8,0.245503,0.245187,1.66748,29,0.0147054,10,0.000408845,-2.77794,-3.16898,-0.018618,-1.20697,0.245187,
2,1,0,1,0,56319.8,0.247003,0.246666,1.66239,29,0.0147682,10,0.000410055,-2.77927,-1.54207,-0.0382603,-2.4727,0.246666,
2,1,0,1,0,56319.9,0.248499,0.248146,1.65989,29,0.0148308,10,0.000411895,-2.77992,-3.57866,-0.0164866,-1.06598,0.248146,
2,1,0,1,0,56319.9,0.249995,0.249625,1.65467,29,0.0148932,10,0.000413046,-2.78129,-2.2193,-0.0265849,-1.7182,0.249625,
2,1,0,1,0,56320,0.251498,0.251126,1.65238,29,0.0149559,10,0.000414955,-2.78189,-5.18266,-0.0113841,-0.73471,0.251126,
2,1,0,1,0,56320,0.252994,0.252681,1.64794,29,0.0150182,10,0.000416403,-2.78306,-1.54944,-0.0380783,-2.4567,0.252681,
2,1,0,1,0,56320,0.25449,0.254144,1.64532,29,0.0150805,10,0.000418147,-2.78375,-2.52724,-0.0233456,-1.50331,0.254144,
2,1,0,1,0,56320.1,0.25599,0.255648,1.6448,29,0.0151427,10,0.000420492,-2.78389,-2.50948,-0.0235108,-1.51174,0.255648,
2,1,0,1,0,56320.1,0.25749,0.25714,1.64452,29,0.0152049,10,0.000422871,-2.78396,-6.50595,-0.00906863,-0.58111,0.25714,
2,1,0,1,0,56320.1,0.258987,0.258669,1.6472,29,0.0152669,10,0.000426078,-2.78325,-2.04747,-0.028816,-1.84318,0.258669,
2,1,0,1,0,56320.2,0.260483,0.260161,1.64322,29,0.0153288,10,0.000427502,-2.7843,-2.40562,-0.0245259,-1.57175,0.260161,
2,1,0,1,0,56320.2,0.261983,0.261648,1.63712,29,0.0153908,10,0.000428349,-2.78592,-1.85172,-0.0318623,-2.03608,0.261648,
2,1,0,1,0,56320.3,0.263483,0.26311,1.63424,29,0.0154526,10,0.000429984,-2.78669,14.7022,0.004013,0.256314,0.26311,
2,1,0,1,0,56320.3,0.264978,0.264659,1.63212,29,0.0155143,10,0.000431956,-2.78725,-5.76766,-0.0102294,-0.65322,0.264659,
2,1,0,1,0,56320.3,0.266474,0.26613,1.63066,29,0.0155758,10,0.000433966,-2.78764,-2.15522,-0.0273754,-1.74336,0.2661297,
2,1,0,1,0,56320.4,0.267977,0.267618,1.62579,29,0.0156376,10,0.000435091,-2.78893,-2.34618,-0.0251473,-1.59887,0.267618,
2,1,0,1,0,56320.4,0.269474,0.269122,1.6254,29,0.0156989,10,0.00043743,-2.78904,-5.03845,-0.01171,-0.742323,0.269122,
2,1,0,1,0,56320.4,0.27097,0.270621,1.6302,29,0.0157602,10,0.000441167,-2.78776,-2.94404,-0.0200405,-1.26832,0.270621,
2,1,0,1,0,56320.5,0.27247,0.272134,1.62174,29,0.0158217,10,0.000441331,-2.79002,-2.81068,-0.0209913,-1.3261,0.272134,
2,1,0,1,0,56320.5,0.27397,0.273652,1.61831,29,0.015883,10,0.000442853,-2.79094,-11.9651,-0.00493101,-0.31213,0.273652,
2,1,0,1,0,56320.6,0.275467,0.275131,1.61604,29,0.015944,10,0.000444624,-2.79155,-1.56704,-0.0376506,-2.37888,0.275131,
2,1,0,1,0,56320.6,0.276963,0.276631,1.61226,29,0.016005,10,0.000446002,-2.79256,-2.15697,-0.0273532,-1.72502,0.276631,
2,1,0,1,0,56320.6,0.278463,0.278126,1.61104,29,0.016066,10,0.000448073,-2.79289,-1.51042,-0.039062,-2.46227,0.278126,
2,1,0,1,0,56320.7,0.279963,0.279642,1.60722,29,0.0161269,10,0.000449445,-2.79393,-2.74963,-0.0214574,-1.34606,0.279642,
2,1,0,1,0,56320.7,0.281459,0.281089,1.6082,29,0.0161875,10,0.000452049,-2.79366,-2.27141,-0.025975,-1.63066,0.2810894,
2,1,0,1,0,56320.7,0.282954,0.282598,1.60821,29,0.0162481,10,0.000454477,-2.79366,-5.33736,-0.0110542,-0.691596,0.282598,
2,1,0,1,0,56320.8,0.284458,0.284147,1.60256,29,0.0163089,10,0.000455362,-2.79519,-6.02367,-0.00979469,-0.611853,0.284147,
2,1,0,1,0,56320.8,0.285954,0.285578,1.60156,29,0.0163693,10,0.000457369,-2.79546,-1.59266,-0.0370449,-2.31194,0.285578,
2,1,0,1,0,56320.9,0.28745,0.287091,1.59499,29,0.0164296,10,0.000457907,-2.79724,-2.29609,-0.0256959,-1.60057,0.287091,
2,1,0,1,0,56320.9,0.28895,0.288592,1.59265,29,0.0164899,10,0.000459627,-2.79788,-4.01043,-0.0147116,-0.915443,0.288592,
2,1,0,1,0,56320.9,0.29045,0.29008,1.59387,29,0.0165502,10,0.000462349,-2.79755,-8.58712,-0.00687076,-0.427507,0.29008,
2,1,0,1,0,56321,0.291947,0.291604,1.59003,29,0.0166102,10,0.000463659,-2.7986,-1.66839,-0.0353635,-2.19308,0.291604,
2,1,0,1,0,56321,0.293443,0.293109,1.58689,29,0.0166701,10,0.000465131,-2.79945,-1.90927,-0.0309019,-1.9121,0.293109,
2,1,0,1,0,56321,0.294943,0.294618,1.58639,29,0.01673,10,0.00046738,-2.79959,-3.40953,-0.0173045,-1.06839,0.294618,
2,1,0,1,0,56321.1,0.296443,0.296096,1.58417,29,0.0167899,10,0.000469068,-2.8002,-6.2803,-0.00939445,-0.579271,0.296096,
2,1,0,1,0,56321.1,0.297939,0.297594,1.5804,29,0.0168496,10,0.000470319,-2.80123,-2.59288,-0.0227546,-1.40243,0.2975941,
2,1,0,1,0,56321.2,0.299434,0.299103,1.57468,29,0.0169091,10,0.00047099,-2.80281,-0.0201462,-2.9286,-159.846,0.299103,
2,1,0,0,0,56321.2,0.299962,0.299594,1.52249,29,0.0169326,10,0.000456128,-2.81745,0.00139532,42.2842,1485.46,0.299594,
2,1,0,1,0,56321.2,0.298689,0.298333,0.637234,29,0.0169634,10,0.000190108,-3.1957,0.00261312,22.5784,466.162,0.2983329,
2,1,0,1,0,56321.2,0.297189,0.296834,0.187527,29,0.0169773,10,5.56644e-05,-3.72694,0.00440005,13.4089,248.408,0.296834,
2,0,0,1,0,56321.3,0.295692,0.295345,-0.0508919,29,0.0169788,10,-1.50307e-05,-4.29335,0.0359428,1.64149,135.877,0.295345,
2,0,0,1,0,56321.3,0.294196,0.293843,-0.201097,29,0.0169733,10,-5.90908e-05,-3.6966,-0.00297232,-19.8498,83.8279,0.293843,
2,0,0,1,0,56321.4,0.292696,0.292358,-0.296554,29,0.0169633,10,-8.67e-05,-3.5279,-0.0101696,-5.80163,58.3974,0.292358,
2,0,0,1,0,56321.4,0.291196,0.290829,-0.375014,29,0.0169502,10,-0.000109065,-3.42595,-0.017017,-3.46713,47.0219,0.290829,
2,0,0,1,0,56321.4,0.2897,0.28934,-0.429957,29,0.0169345,10,-0.000124404,-3.36657,-0.0269828,-2.18658,35.459,0.28934,
2,0,0,1,0,56321.5,0.288205,0.287843,-0.477226,29,0.016917,10,-0.000137366,-3.32128,-0.0377564,-1.56265,28.5539,0.2878429,
2,0,0,1,0,56321.5,0.286701,0.286345,-0.516756,29,0.0168976,10,-0.00014797,-3.28671,-0.0448689,-1.31494,26.2191,0.286345,
2,0,0,1,0,56321.5,0.285205,0.284853,-0.550777,29,0.0168771,10,-0.00015689,-3.25902,-0.0557783,-1.05776,22.7457,0.284853,
2,0,0,1,0,56321.6,0.283708,0.283357,-0.584542,29,0.0168552,10,-0.000165634,-3.23318,-0.067987,-0.867813,19.6189,0.283357,
2,0,0,1,0,56321.6,0.282208,0.281851,-0.613564,29,0.0168322,10,-0.000172934,-3.21214,-0.0759473,-0.776855,18.4023,0.281851,
2,0,0,1,0,56321.7,0.280709,0.280362,-0.641089,29,0.0168081,10,-0.000179737,-3.19308,-0.097657,-0.604155,14.9698,0.280362,
2,0,0,1,0,56321.7,0.279212,0.278913,-0.660209,29,0.0167832,10,-0.000184141,-3.18032,-0.103389,-0.57066,14.7275,0.278913,
2,0,0,1,0,56321.7,0.277716,0.277382,-0.682263,29,0.0167575,10,-0.000189247,-3.16605,-0.10991,-0.536805,14.2794,0.277382,
2,0,0,1,0,56321.8,0.276216,0.275872,-0.70441,29,0.0167308,10,-0.000194327,-3.15217,-0.117719,-0.501194,13.8034,0.275872,
2,0,0,1,0,56321.8,0.274716,0.274332,-0.724843,29,0.0167034,10,-0.000198848,-3.13976,-0.137791,-0.428186,12.1049,0.274332,
2,0,0,1,0,56321.8,0.27322,0.272838,-0.740041,29,0.0166755,10,-0.000201911,-3.13074,-0.143433,-0.411342,11.9288,0.272838,
2,0,0,1,0,56321.9,0.271725,0.271397,-0.759847,29,0.0166468,10,-0.00020622,-3.11927,-0.129897,-0.454204,13.4222,0.271397,
2,0,0,1,0,56321.9,0.270221,0.269851,-0.777624,29,0.0166173,10,-0.000209843,-3.10923,-0.156867,-0.376115,11.3564,0.269851,
2,0,0,1,0,56322,0.268725,0.268331,-0.79537,29,0.0165873,10,-0.000213422,-3.09943,-0.166874,-0.35356,10.9064,0.268331,
2,0,0,1,0,56322,0.267228,0.266848,-0.80928,29,0.0165568,10,-0.000215954,-3.0919,-0.190292,-0.31005,9.75289,0.2668477,
2,0,0,1,0,56322,0.265728,0.265377,-0.823554,29,0.0165256,10,-0.000218552,-3.08431,-0.185892,-0.317389,10.1977,0.265377,
2,0,0,1,0,56322.1,0.264228,0.263908,-0.83742,29,0.0164939,10,-0.000221002,-3.07706,-0.194315,-0.303631,9.93186,0.263908,
2,0,0,1,0,56322.1,0.262732,0.262373,-0.847858,29,0.0164617,10,-0.000222455,-3.07168,-0.226656,-0.260306,8.64376,0.262373,
2,0,0,1,0,56322.1,0.261236,0.26092,-0.861991,29,0.016429,10,-0.00022491,-3.0645,-0.21935,-0.268977,9.09159,0.26092,
2,0,0,1,0,56322.2,0.259736,0.259372,-0.878949,29,0.0163958,10,-0.000227974,-3.05604,-0.221821,-0.26598,9.1312,0.2593717,
2,0,0,1,0,56322.2,0.258236,0.257877,-0.892174,29,0.0163621,10,-0.000230071,-3.04955,-0.23917,-0.246686,8.54354,0.257877,
2,0,0,1,0,56322.2,0.256741,0.256409,-0.903743,29,0.016328,10,-0.000231728,-3.04395,-0.263199,-0.224165,7.86875,0.256409,
2,0,0,1,0,56322.3,0.255241,0.254855,-0.914664,29,0.0162933,10,-0.000233107,-3.03874,-0.269514,-0.218913,7.80759,0.254855,
2,0,0,1,0,56322.3,0.253741,0.253376,-0.92345,29,0.0162583,10,-0.00023398,-3.03459,-0.294966,-0.200023,7.21388,0.253376,
2,0,0,1,0,56322.4,0.252245,0.251886,-0.93338,29,0.0162229,10,-0.000235106,-3.02994,-0.247583,-0.238304,8.70577,0.251886,
2,0,0,1,0,56322.4,0.250748,0.250407,-0.946537,29,0.0161871,10,-0.00023702,-3.02386,-0.286306,-0.206073,7.62748,0.250407,
2,0,0,1,0,56322.4,0.249248,0.248885,-0.958452,29,0.0161507,10,-0.000238544,-3.01843,-0.312822,-0.188605,7.07069,0.248885,
2,0,0,1,0,56322.5,0.247748,0.247444,-0.96944,29,0.016114,10,-0.000239882,-3.01348,-0.31922,-0.184825,6.97351,0.247444,
2,0,0,1,0,56322.5,0.246252,0.245875,-0.984138,29,0.0160769,10,-0.000241975,-3.00694,-0.267112,-0.220881,8.4261,0.245875,
2,0,0,1,0,56322.5,0.244756,0.244439,-0.99429,29,0.0160395,10,-0.000243043,-3.00249,-0.30155,-0.195656,7.5585,0.244439,
2,0,0,1,0,56322.6,0.243252,0.242909,-1.00166,29,0.0160014,10,-0.000243311,-2.99928,-0.398016,-0.148235,5.77982,0.242909,
2,0,0,1,0,56322.6,0.241756,0.241444,-1.00711,29,0.0159632,10,-0.00024316,-2.99692,-0.413794,-0.142583,5.63203,0.2414435,
2,0,0,1,0,56322.7,0.240261,0.239896,-1.01788,29,0.0159247,10,-0.000244186,-2.9923,-0.32968,-0.178962,7.14494,0.2398964,
2,0,0,1,0,56322.7,0.238761,0.238394,-1.02542,29,0.0158857,10,-0.000244455,-2.9891,-0.366533,-0.160968,6.46574,0.238394,
2,0,0,1,0,56322.7,0.237261,0.23689,-1.0395,29,0.0158463,10,-0.000246247,-2.98318,-0.397028,-0.148604,6.03101,0.23689,
2,0,0,1,0,56322.8,0.235765,0.235389,-1.04927,29,0.0158066,10,-0.000246987,-2.97911,-0.393235,-0.150037,6.14254,0.235389,
2,0,0,1,0,56322.8,0.234268,0.233897,-1.05766,29,0.0157667,10,-0.000247383,-2.97566,-0.394375,-0.149604,6.16849,0.233897,
2,0,0,1,0,56322.8,0.232768,0.232398,-1.06834,29,0.0157262,10,-0.000248281,-2.97129,-0.358888,-0.164397,6.84211,0.232398,
2,0,0,1,0,56322.9,0.231268,0.230866,-1.07808,29,0.0156854,10,-0.000248891,-2.96735,-0.473926,-0.124492,5.22546,0.230866,
2,0,0,1,0,56322.9,0.229772,0.229395,-1.09145,29,0.0156443,10,-0.000250373,-2.962,-0.506974,-0.116377,4.93027,0.229395,
2,0,0,1,0,56323,0.228275,0.227938,-1.0905,29,0.015603,10,-0.000248567,-2.96237,-0.423613,-0.139278,5.96805,0.227938,
2,0,0,1,0,56323,0.226772,0.2264,-1.10157,29,0.0155611,10,-0.000249394,-2.95799,-0.366854,-0.160827,6.9329,0.2264,
2,0,0,1,0,56323,0.225276,0.224942,-1.11561,29,0.015519,10,-0.000250948,-2.95249,-0.429296,-0.137434,5.97335,0.224942,
2,0,0,1,0,56323.1,0.223781,0.223439,-1.1246,29,0.0154766,10,-0.00025128,-2.949,-0.425321,-0.138719,6.06835,0.223439,
2,0,0,1,0,56323.1,0.222281,0.221954,-1.13071,29,0.0154338,10,-0.000250967,-2.94665,-0.480486,-0.122792,5.40467,0.221954,
2,0,0,1,0,56323.1,0.220781,0.220449,-1.14097,29,0.0153907,10,-0.000251527,-2.94272,-0.381597,-0.154613,6.85731,0.220449,
2,0,0,1,0,56323.2,0.219285,0.218966,-1.15089,29,0.0153473,10,-0.000252006,-2.93897,-0.502701,-0.117366,5.25625,0.218966,
2,0,0,1,0,56323.2,0.217788,0.217403,-1.15639,29,0.0153036,10,-0.000251403,-2.93689,-0.486311,-0.121322,5.47606,0.217403,
2,0,0,1,0,56323.3,0.216288,0.215915,-1.16084,29,0.0152595,10,-0.000250643,-2.93523,-0.526866,-0.111983,5.10483,0.2159154,
2,0,0,1,0,56323.3,0.214788,0.214412,-1.16981,29,0.0152151,10,-0.000250822,-2.93188,-0.522773,-0.11286,5.18024,0.214412,
2,0,0,1,0,56323.3,0.213292,0.212954,-1.18226,29,0.0151705,10,-0.000251767,-2.92729,-0.541057,-0.109046,5.02783,0.212954,
2,0,0,1,0,56323.4,0.211796,0.211445,-1.19249,29,0.0151254,10,-0.000252147,-2.92354,-0.509328,-0.115839,5.36925,0.2114452,
2,0,0,1,0,56323.4,0.210293,0.209991,-1.19986,29,0.0150799,10,-0.000251961,-2.92087,-0.474462,-0.124351,5.80973,0.209991,
2,0,0,1,0,56323.4,0.208797,0.208428,-1.20834,29,0.0150343,10,-0.000251852,-2.91781,-0.407701,-0.144714,6.83156,0.208428,
2,0,0,1,0,56323.5,0.207301,0.206948,-1.21944,29,0.0149884,10,-0.000252361,-2.91384,-0.39303,-0.150116,7.12915,0.206948,
2,0,0,1,0,56323.5,0.205801,0.205464,-1.22809,29,0.0149418,10,-0.000252328,-2.91077,-0.484797,-0.1217,5.83453,0.205464,
2,0,0,1,0,56323.6,0.204301,0.203967,-1.23551,29,0.014895,10,-0.000252003,-2.90815,-0.800369,-0.073716,3.55921,0.203967,
2,0,0,1,0,56323.6,0.202804,0.202446,-1.2389,29,0.0148481,10,-0.000250809,-2.90697,-0.514293,-0.114721,5.58298,0.202446,
2,0,0,1,0,56323.6,0.201308,0.200942,-1.25237,29,0.0148008,10,-0.000251653,-2.90227,-0.456257,-0.129313,6.32382,0.200942,
2,0,0,1,0,56323.7,0.199808,0.199474,-1.26292,29,0.0147531,10,-0.00025192,-2.89862,-0.52509,-0.112362,5.5299,0.199474,
2,0,0,1,0,56323.7,0.198308,0.197954,-1.27082,29,0.014705,10,-0.000251563,-2.89592,-0.548114,-0.107642,5.32226,0.197954,
2,0,0,1,0,56323.7,0.196812,0.196477,-1.27903,29,0.0146568,10,-0.000251301,-2.89312,-0.481436,-0.12255,6.10551,0.196477,
2,0,0,1,0,56323.8,0.195316,0.194931,-1.28738,29,0.0146083,10,-0.00025095,-2.89029,-0.419969,-0.140487,7.06261,0.194931,
2,0,0,1,0,56323.8,0.193813,0.193385,-1.29857,29,0.0145591,10,-0.000251124,-2.88653,-0.427999,-0.137851,6.98854,0.193385,
2,0,0,1,0,56323.9,0.192317,0.191957,-1.30678,29,0.0145097,10,-0.000250844,-2.8838,-0.476695,-0.123769,6.30799,0.191957,
2,0,0,1,0,56323.9,0.190821,0.190469,-1.31327,29,0.01446,10,-0.000250137,-2.88165,-0.495173,-0.11915,6.13067,0.190469,
2,0,0,1,0,56323.9,0.189321,0.189004,-1.32233,29,0.0144099,10,-0.000249927,-2.87866,-0.470378,-0.125431,6.49182,0.189004,
2,0,0,1,0,56324,0.187821,0.187418,-1.3352,29,0.0143594,10,-0.000250241,-2.87445,-0.464057,-0.12714,6.63222,0.187418,
2,0,0,1,0,56324,0.186324,0.18598,-1.35137,29,0.0143086,10,-0.000251328,-2.86922,-0.535817,-0.110112,5.77294,0.18598,
2,0,0,1,0,56324,0.184828,0.184469,-1.35508,29,0.0142574,10,-0.00024997,-2.86804,-0.491116,-0.120135,6.35866,0.184469,
2,0,0,1,0,56324.1,0.183328,0.183004,-1.36654,29,0.0142058,10,-0.000250083,-2.86438,-0.416527,-0.141647,7.56328,0.183004,
2,0,0,1,0,56324.1,0.181828,0.18146,-1.37734,29,0.0141538,10,-0.000249932,-2.86096,-0.429014,-0.137525,7.39131,0.18146,
2,0,0,1,0,56324.2,0.180332,0.179994,-1.38863,29,0.0141015,10,-0.000249945,-2.85741,-0.445359,-0.132477,7.18581,0.179994,
2,0,0,1,0,56324.2,0.178836,0.178476,-1.40039,29,0.0140487,10,-0.000249937,-2.85375,-0.496884,-0.11874,6.49118,0.178476,
2,0,0,1,0,56324.2,0.177333,0.176981,-1.4105,29,0.0139953,10,-0.000249632,-2.85063,-0.389042,-0.151655,8.37456,0.176981,
2,0,0,1,0,56324.3,0.175837,0.175468,-1.42428,29,0.0139417,10,-0.000249914,-2.84641,-0.370249,-0.159352,8.8375,0.175468,
2,0,0,1,0,56324.3,0.174341,0.174014,-1.43749,29,0.0138876,10,-0.000250144,-2.84239,-0.399212,-0.147791,8.28251,0.174014,
2,0,0,1,0,56324.3,0.172841,0.17249,-1.45218,29,0.0138328,10,-0.000250486,-2.83798,-0.399291,-0.147762,8.3486,0.1724899,
2,0,0,1,0,56324.4,0.171341,0.170965,-1.46202,29,0.0137776,10,-0.000249953,-2.83505,-0.35911,-0.164295,9.3791,0.1709646,
2,0,0,1,0,56324.4,0.169844,0.169481,-1.47639,29,0.0137221,10,-0.00025022,-2.8308,-0.326303,-0.180813,10.4568,0.169481,
2,0,0,1,0,56324.5,0.168348,0.16799,-1.49435,29,0.0136659,10,-0.000251035,-2.82555,-0.338984,-0.174049,10.1656,0.16799,
2,0,0,1,0,56324.5,0.166848,0.166462,-1.51133,29,0.013609,10,-0.000251579,-2.82064,-0.382649,-0.154188,9.07717,0.166462,
2,0,0,1,0,56324.5,0.165348,0.164992,-1.52345,29,0.0135515,10,-0.000251357,-2.81717,-0.302412,-0.195098,11.6225,0.164992,
2,0,0,1,0,56324.6,0.163852,0.163527,-1.54216,29,0.0134935,10,-0.000252185,-2.81187,-0.280272,-0.21051,12.6966,0.163527,
2,0,0,1,0,56324.6,0.162357,0.161987,-1.56664,29,0.0134349,10,-0.000253776,-2.80503,-0.260669,-0.226341,13.7879,0.161987,
2,0,0,1,0,56324.6,0.160853,0.160545,-1.58565,29,0.0133751,10,-0.000254569,-2.79979,-0.264745,-0.222856,13.7475,0.160545,
2,0,0,1,0,56324.7,0.159357,0.158982,-1.60533,29,0.0133149,10,-0.000255217,-2.79444,-0.25088,-0.235172,14.7197,0.158982,
2,0,0,1,0,56324.7,0.157861,0.157522,-1.62335,29,0.0132539,10,-0.000255713,-2.78959,-0.231053,-0.255353,16.2483,0.157522,
2,0,0,1,0,56324.8,0.156361,0.156018,-1.64947,29,0.0131918,10,-0.000257347,-2.78266,-0.209299,-0.281894,18.2051,0.156018,
2,0,0,1,0,56324.8,0.154861,0.154476,-1.68067,29,0.0131286,10,-0.000259625,-2.77452,-0.203624,-0.28975,19.0585,0.1544764,
2,0,0,1,0,56324.8,0.153364,0.153001,-1.71372,29,0.0130645,10,-0.000262202,-2.76606,-0.196816,-0.299772,20.0127,0.1530014,
2,0,0,1,0,56324.9,0.151868,0.151517,-1.74144,29,0.0129993,10,-0.000263858,-2.75909,-0.180431,-0.326996,22.2867,0.151517,
2,0,0,1,0,56324.9,0.150368,0.150008,-1.77869,29,0.0129327,10,-0.000266817,-2.7499,-0.15781,-0.373866,26.0101,0.150008,
2,0,0,1,0,56324.9,0.148868,0.148493,-1.82399,29,0.0128646,10,-0.000270849,-2.73898,-0.14206,-0.415317,29.5141,0.148493,
2,0,0,1,0,56325,0.147372,0.146997,-1.86543,29,0.012795,10,-0.000274212,-2.72922,-0.13792,-0.427784,31.1334,0.146997,
2,0,0,1,0,56325,0.145877,0.145533,-1.91003,29,0.0127238,10,-0.000277973,-2.71896,-0.128404,-0.459488,34.4238,0.145533,
2,0,0,1,0,56325.1,0.144373,0.144044,-1.96313,29,0.0126503,10,-0.000282778,-2.70705,-0.11729,-0.503026,38.7761,0.144044,
2,0,0,1,0,56325.1,0.142877,0.142513,-2.02722,29,0.012575,10,-0.000288904,-2.6931,-0.107143,-0.550666,43.7071,0.142513,
2,0,0,1,0,56325.1,0.14138,0.141027,-2.09508,29,0.0124972,10,-0.000295464,-2.6788,-0.10399,-0.567361,46.3907,0.141027,
2,0,0,1,0,56325.2,0.13988,0.139522,-2.17002,29,0.0124166,10,-0.000302766,-2.66354,-0.0988891,-0.596628,50.5313,0.139522,
2,0,0,1,0,56325.2,0.13838,0.138029,-2.24518,29,0.0123333,10,-0.0003099,-2.64875,-0.0964171,-0.611925,53.7276,0.138029,
2,0,0,1,0,56325.2,0.136884,0.136519,-2.33139,29,0.0122472,10,-0.000318279,-2.63239,-0.0956084,-0.617101,56.019,0.136519,
2,0,0,1,0,56325.3,0.135388,0.135034,-2.41384,29,0.0121578,10,-0.00032595,-2.61729,-0.0971648,-0.607216,57.2381,0.135034,
2,0,0,1,0,56325.3,0.133888,0.133564,-2.50342,29,0.012065,10,-0.000334366,-2.60147,-0.0942294,-0.626131,61.2249,0.133564,
2,0,0,1,0,56325.4,0.132389,0.132032,-2.59345,29,0.0119688,10,-0.000342419,-2.58612,-0.0940933,-0.627037,63.535,0.1320321,
2,0,0,1,0,56325.4,0.130893,0.130522,-2.69072,29,0.0118693,10,-0.000351198,-2.57013,-0.0956492,-0.616837,64.812,0.130522,
2,0,0,1,0,56325.4,0.129393,0.129042,-2.78917,29,0.0117658,10,-0.000359919,-2.55452,-0.101691,-0.580191,63.0482,0.129042,
2,0,0,1,0,56325.5,0.127893,0.127531,-2.88409,29,0.0116588,10,-0.000367811,-2.53999,-0.11086,-0.532204,59.7612,0.127531,
2,0,0,1,0,56325.5,0.126397,0.126015,-2.97398,29,0.0115487,10,-0.000374767,-2.52666,-0.113081,-0.521752,60.4355,0.126015,
2,0,0,1,0,56325.5,0.1249,0.124535,-3.06649,29,0.0114352,10,-0.000381885,-2.51336,-0.11629,-0.507353,60.6097,0.124535,
2,0,0,1,0,56325.6,0.1234,0.123068,-3.15199,29,0.011318,10,-0.000387908,-2.50142,-0.124161,-0.475189,58.3823,0.123068,
2,0,0,1,0,56325.6,0.1219,0.121572,-3.23467,29,0.0111975,10,-0.000393246,-2.49017,-0.135061,-0.43684,55.1181,0.121572,
2,0,0,1,0,56325.7,0.120404,0.120054,-3.31345,29,0.0110743,10,-0.000397795,-2.47972,-0.14545,-0.405638,52.4501,0.120054,
2,0,0,1,0,56325.7,0.118908,0.118532,-3.39085,29,0.0109483,10,-0.000401926,-2.46969,-0.152966,-0.385706,51.0861,0.118532,
2,0,0,1,0,56325.7,0.117404,0.11701,-3.47102,29,0.0108186,10,-0.000406143,-2.45954,-0.162569,-0.362923,49.0424,0.11701,
2,0,0,1,0,56325.8,0.115908,0.115511,-3.54226,29,0.0106869,10,-0.00040917,-2.45072,-0.184296,-0.320137,44.0862,0.115511,
2,0,0,1,0,56325.8,0.114413,0.114066,-3.60779,29,0.0105527,10,-0.000411525,-2.44276,-0.202252,-0.291716,40.96,0.114066,
2,0,0,1,0,56325.8,0.112913,0.112514,-3.66077,29,0.0104159,10,-0.000411886,-2.43643,-0.222154,-0.265581,37.9006,0.112514,
2,0,0,1,0,56325.9,0.111413,0.111059,-3.71718,29,0.0102769,10,-0.000412825,-2.42979,-0.240401,-0.245424,35.5482,0.111059,
2,0,0,1,0,56325.9,0.109917,0.109506,-3.76269,29,0.0101363,10,-0.000412035,-2.4245,-0.288253,-0.204682,30.0468,0.109506,
2,0,0,1,0,56326,0.10842,0.108052,-3.80823,29,0.00999407,10,-0.000411487,-2.41928,-0.345439,-0.170797,25.3439,0.108052,
2,0,0,1,0,56326,0.10692,0.106579,-3.83772,29,0.00985005,10,-0.000409022,-2.41593,-0.406747,-0.145053,21.7268,0.1065794,
2,0,0,1,0,56326,0.10542,0.105054,-3.87081,29,0.00970482,10,-0.000406645,-2.4122,-0.499822,-0.118042,17.808,0.105054,
2,0,0,1,0,56326.1,0.103924,0.103577,-3.90155,29,0.00955891,10,-0.000404111,-2.40876,-0.661792,-0.0891519,13.5238,0.103577,
2,0,0,1,0,56326.1,0.102427,0.10209,-3.91699,29,0.00941226,10,-0.000399886,-2.40705,-1.18225,-0.0499048,7.59925,0.10209,
2,0,0,1,0,56326.1,0.100924,0.100554,-3.91848,29,0.0092644,10,-0.00039402,-2.40688,-2.38088,-0.0247807,3.78369,0.100554,
2,0,0,1,0,56326.2,0.0994284,0.0990792,-3.92051,29,0.00911723,10,-0.000388441,-2.40666,-69.6303,-0.000847333,0.129581,0.0990792,
2,0,0,1,0,56326.2,0.0979329,0.0976035,-3.9158,29,0.00897002,10,-0.000382196,-2.40718,3.99703,0.014761,-2.25588,0.0976035,
2,0,0,1,0,56326.3,0.0964329,0.0960906,-3.90797,29,0.00882258,10,-0.00037552,-2.40805,1.53944,0.0383255,-5.84593,0.0960906,
2,0,0,1,0,56326.3,0.094933,0.0946114,-3.89336,29,0.00867553,10,-0.000368356,-2.40968,0.830136,0.0710727,-10.8063,0.0946114,
2,0,0,1,0,56326.3,0.0934366,0.0930287,-3.87837,29,0.0085295,10,-0.0003608,-2.41135,0.745288,0.079164,-11.9866,0.0930287,
2,0,0,1,0,56326.4,0.0919401,0.0915813,-3.86562,29,0.00838406,10,-0.000354019,-2.41278,0.732767,0.0805167,-12.1297,0.0915813,
2,0,0,1,0,56326.4,0.0904402,0.090096,-3.84925,29,0.00823886,10,-0.000346802,-2.41462,0.64301,0.0917559,-13.7421,0.090096,
2,0,0,1,0,56326.4,0.0889402,0.0885568,-3.82489,29,0.00809445,10,-0.00033872,-2.41738,0.568844,0.103719,-15.4618,0.0885568,
2,0,0,1,0,56326.5,0.0874438,0.0871067,-3.80021,29,0.00795136,10,-0.000331023,-2.42019,0.571601,0.103219,-15.308,0.0871067,
2,0,0,1,0,56326.5,0.0859483,0.0855865,-3.77266,29,0.00780911,10,-0.000322889,-2.42335,0.638737,0.0923698,-13.6186,0.0855865,
2,0,0,1,0,56326.6,0.0844447,0.0840447,-3.75244,29,0.00766689,10,-0.000315373,-2.42569,0.641991,0.0919016,-13.4775,0.08404471,
2,0,0,1,0,56326.6,0.0829492,0.0826142,-3.73306,29,0.00752623,10,-0.000308404,-2.42794,0.657411,0.089746,-13.0888,0.0826142,
2,0,0,1,0,56326.6,0.0814528,0.0811502,-3.71453,29,0.00738636,10,-0.000301435,-2.4301,0.747492,0.0789306,-11.4456,0.0811502,
2,0,0,1,0,56326.7,0.0799528,0.0795852,-3.69961,29,0.00724686,10,-0.000294434,-2.43184,0.740869,0.0796362,-11.4811,0.0795852,
2,0,0,1,0,56326.7,0.0784529,0.0780601,-3.67877,29,0.00710796,10,-0.000287165,-2.4343,0.855548,0.0689617,-9.89694,0.07806015,
2,0,0,1,0,56326.7,0.0769565,0.0765817,-3.66526,29,0.00697004,10,-0.000280692,-2.43589,0.730734,0.0807407,-11.5345,0.0765817,
2,0,0,1,0,56326.8,0.0754601,0.0751302,-3.64331,29,0.00683274,10,-0.000273723,-2.4385,0.732825,0.0805103,-11.4632,0.0751302,
2,0,0,1,0,56326.8,0.0739601,0.0735851,-3.63058,29,0.0066957,10,-0.000267156,-2.44002,0.831076,0.0709923,-10.0715,0.0735851,
2,0,0,1,0,56326.9,0.0724601,0.0720812,-3.6183,29,0.00655918,10,-0.000260811,-2.4415,0.92627,0.0636963,-8.99794,0.0720812,
2,0,0,1,0,56326.9,0.0709637,0.0705984,-3.60356,29,0.00642352,10,-0.000254405,-2.44327,0.787203,0.0749489,-10.5343,0.0705984,
2,0,0,1,0,56326.9,0.0694682,0.0691223,-3.58836,29,0.00628839,10,-0.000248036,-2.4451,0.84405,0.0699011,-9.78461,0.0691223,
2,0,0,1,0,56327,0.0679647,0.0675788,-3.57332,29,0.00615318,10,-0.000241481,-2.44693,0.93194,0.0633088,-8.83781,0.0675788,
2,0,0,1,0,56327,0.0664691,0.0661152,-3.56184,29,0.00601915,10,-0.000235492,-2.44833,0.947973,0.062238,-8.64397,0.0661152,
2,0,0,1,0,56327,0.0649727,0.0646046,-3.54885,29,0.00588555,10,-0.000229272,-2.44991,0.791699,0.0745233,-10.3114,0.0646046,
2,0,0,1,0,56327.1,0.0634727,0.0630983,-3.53123,29,0.00575217,10,-0.000222815,-2.45207,0.799858,0.0737631,-10.1654,0.0630983,
2,0,0,1,0,56327.1,0.0619728,0.0616117,-3.5134,29,0.00561946,10,-0.000216467,-2.45427,0.723008,0.0816036,-11.2029,0.06161166,
2,0,0,1,0,56327.2,0.0604764,0.060139,-3.49676,29,0.00548769,10,-0.000210291,-2.45633,0.779071,0.0757313,-10.3378,0.060139,
2,0,0,1,0,56327.2,0.05898,0.0586032,-3.48315,29,0.00535649,10,-0.000204124,-2.45803,0.78216,0.0754321,-10.253,0.05860319,
2,0,0,1,0,56327.2,0.05748,0.0571498,-3.46639,29,0.0052256,10,-0.000198104,-2.46012,0.649516,0.0908369,-12.2853,0.0571498,
2,0,0,1,0,56327.3,0.05598,0.0555678,-3.45003,29,0.00509537,10,-0.000191711,-2.46218,0.708637,0.0832584,-11.1987,0.0555678,
2,0,0,1,0,56327.3,0.0544836,0.054135,-3.43126,29,0.00496614,10,-0.000185751,-2.46455,0.648486,0.0909812,-12.1747,0.054135,
2,0,0,1,0,56327.3,0.0529881,0.0525937,-3.41447,29,0.00483751,10,-0.00017958,-2.46668,0.640002,0.0921872,-12.2769,0.0525937,
2,0,0,1,0,56327.4,0.0514846,0.0511332,-3.39491,29,0.00470885,10,-0.000173593,-2.46917,0.602481,0.0979283,-12.9741,0.05113323,
2,0,0,1,0,56327.4,0.049989,0.0496511,-3.37672,29,0.00458158,10,-0.000167657,-2.47151,0.645091,0.09146,-12.0603,0.0496511,
2,0,0,1,0,56327.5,0.0484926,0.0480975,-3.35647,29,0.00445511,10,-0.000161438,-2.47412,0.567844,0.103902,-13.6224,0.0480975,
2,0,0,1,0,56327.5,0.0469927,0.046605,-3.33608,29,0.00432897,10,-0.000155478,-2.47676,0.601225,0.098133,-12.7887,0.046605,
2,0,0,1,0,56327.5,0.0454927,0.0451368,-3.32091,29,0.00420351,10,-0.000149895,-2.47874,0.523201,0.112767,-14.5967,0.04513675,
2,0,0,1,0,56327.6,0.0439963,0.0436408,-3.30124,29,0.0040791,10,-0.000144069,-2.48132,0.519308,0.113613,-14.6232,0.0436408,
2,0,0,1,0,56327.6,0.0424999,0.0421184,-3.27835,29,0.00395557,10,-0.000138079,-2.48434,0.574542,0.102691,-13.1414,0.0421184,
2,0,0,1,0,56327.6,0.0409999,0.0406454,-3.25758,29,0.00383241,10,-0.000132406,-2.48711,0.582989,0.101203,-12.8608,0.0406454,
2,0,0,1,0,56327.7,0.0394999,0.0391958,-3.23803,29,0.00370995,10,-0.000126917,-2.48972,0.520737,0.113301,-14.3033,0.0391958,
2,0,0,1,0,56327.7,0.0380044,0.0376341,-3.21659,29,0.00358864,10,-0.000121053,-2.4926,0.493799,0.119482,-14.9926,0.0376341,
2,0,0,1,0,56327.8,0.0365089,0.0361297,-3.18691,29,0.00346829,10,-0.000115142,-2.49663,0.466554,0.126459,-15.764,0.0361297,
2,0,0,1,0,56327.8,0.0350054,0.0346578,-3.1695,29,0.00334813,10,-0.000109848,-2.49901,0.513054,0.114998,-14.2195,0.0346578,
2,0,0,1,0,56327.8,0.0335089,0.0331499,-3.14769,29,0.0032294,10,-0.000104346,-2.50201,0.471598,0.125107,-15.3495,0.0331499,
2,0,0,1,0,56327.9,0.0320125,0.0316308,-3.12321,29,0.0031115,10,-9.87894e-05,-2.5054,0.459341,0.128445,-15.6533,0.0316308,
2,0,0,1,0,56327.9,0.0305126,0.0301288,-3.09839,29,0.00299429,10,-9.33508e-05,-2.50886,0.448844,0.131449,-15.8875,0.0301288,
2,0,0,1,0,56327.9,0.0290126,0.0286612,-3.07219,29,0.00287796,10,-8.80524e-05,-2.51255,0.453662,0.130053,-15.6033,0.0286612,
2,0,0,1,0,56328,0.0275162,0.0272034,-3.05257,29,0.0027628,10,-8.30401e-05,-2.51533,0.45797,0.128829,-15.3504,0.0272034,
2,0,0,1,0,56328,0.0260198,0.0256641,-3.02895,29,0.00264844,10,-7.77352e-05,-2.51871,0.415639,0.14195,-16.7771,0.0256641,
2,0,0,1,0,56328.1,0.0245198,0.0242084,-3.00121,29,0.00253467,10,-7.26545e-05,-2.5227,0.454749,0.129742,-15.2329,0.0242084,
2,0,0,1,0,56328.1,0.0230198,0.0226677,-2.97843,29,0.00242187,10,-6.75142e-05,-2.52601,0.447277,0.131909,-15.3635,0.0226677,
2,0,0,1,0,56328.1,0.0215243,0.0211682,-2.96415,29,0.00231014,10,-6.27456e-05,-2.5281,0.484574,0.121756,-14.0616,0.0211682,
2,0,0,1,0,56328.2,0.0200288,0.0196271,-2.94092,29,0.0021992,10,-5.77216e-05,-2.53152,0.456995,0.129104,-14.7904,0.0196271,
2,0,0,1,0,56328.2,0.0185253,0.0181238,-2.9179,29,0.0020885,10,-5.28833e-05,-2.53493,0.472299,0.124921,-14.2109,0.0181238,
2,0,0,1,0,56328.2,0.0170289,0.0166661,-2.8995,29,0.00197922,10,-4.83235e-05,-2.53768,0.536908,0.109889,-12.4357,0.0166661,
2,0,0,1,0,56328.3,0.0155325,0.0151862,-2.87857,29,0.00187067,10,-4.37145e-05,-2.54082,0.66346,0.0889277,-9.99259,0.01518619,
2,0,0,1,0,56328.3,0.0140325,0.0136923,-2.86015,29,0.00176238,10,-3.9162e-05,-2.54361,0.588502,0.100255,-11.201,0.0136923,
2,0,0,1,0,56328.4,0.0125325,0.0121353,-2.84246,29,0.00165476,10,-3.44941e-05,-2.54631,0.547585,0.107746,-11.9694,0.0121353,
2,0,0,1,0,56328.4,0.0110361,0.010671,-2.8298,29,0.00154812,10,-3.01968e-05,-2.54824,0.574417,0.102713,-11.3373,0.010671,
2,0,0,1,0,56328.4,0.0095397,0.00916602,-2.81488,29,0.00144206,10,-2.58012e-05,-2.55054,0.670197,0.0880338,-9.66001,0.00916602,
2,0,0,1,0,56328.5,0.00803616,0.00768504,-2.80133,29,0.00133594,10,-2.15283e-05,-2.55264,0.733732,0.0804108,-8.78052,0.00768504,
2,0,0,1,0,56328.5,0.00654064,0.00620799,-2.78837,29,0.00123088,10,-1.73102e-05,-2.55465,0.790968,0.0745922,-8.10305,0.00620799,
2,0,0,1,0,56328.5,0.00504513,0.00470061,-2.77174,29,0.00112629,10,-1.30289e-05,-2.55725,0.841448,0.0701172,-7.58821,0.00470061,
2,0,0,1,0,56328.6,0.00354515,0.00315158,-2.76231,29,0.00102187,10,-8.70565e-06,-2.55873,3.02983,0.0194731,-2.10894,0.00315158,
2,0,0,1,0,56328.6,0.00204518,0.00165004,-2.77816,29,0.000917584,10,-4.58409e-06,-2.55624,2.25675,0.0261438,-2.82081,0.00165004,
2,0,0,1,0,56328.7,0.000548773,0.000130045,-2.75703,29,0.000813407,10,-3.58539e-07,-2.55956, , , ,0.000130045,
2,0,0,1,0,56328.7,0.000177222,-0.000255846,-2.75913,29,0.000787604,10,7.05911e-07,-2.55923, , , ,-0.000255846,