File: Figure_codes/Fig_3-5/rawdata_trumpetplot_data/after 10th/20221101_1-115_003_TrumpetPlot_ParaChange_from10_every3_09_CV_C01_13.csv
mode,ox/red,error,control changes,counter inc.,time/s,control/V,Ewe/V,<I>/mA,cycle number,(Q-Qo)/C,I Range,P/W,log(|I|),Tafel slope mV/dec,alpha_eff,dI/d(E-IR),E-IR/V,
2,0,0,0,0,26794.2,2.44065e-05,-0.000363498,-5.32185,14,0.0000000E+000,10,1.93448e-06,-2.27394, , , ,-0.000363498,
2,0,0,1,0,26794.2,0.00179726,0.00147386,-2.68618,14,-6.7159e-05,10,-3.95907e-06,-2.57086, , , ,0.00147386,
2,0,0,1,0,26794.3,0.00379485,0.003466,-0.919571,14,-0.000101427,10,-3.18723e-06,-3.03641,-0.00387861,-15.2117,732.015,0.003466,
2,1,0,1,0,26794.3,0.00579244,0.00548303,0.248585,14,-0.000107233,10,1.363e-06,-3.60453,0.0512149,1.15201,506.783,0.00548303,
2,1,0,1,0,26794.3,0.00779002,0.0074511,1.10001,14,-9.31545e-05,10,8.19628e-06,-2.9586,0.00465633,12.6709,378.9,0.0074511,
2,1,0,1,0,26794.3,0.00978761,0.00941702,1.73917,14,-6.44451e-05,10,1.63778e-05,-2.75966,0.0131302,4.49346,280.011,0.00941702,
2,1,0,1,0,26794.3,0.0117852,0.0114663,2.22431,14,-2.44961e-05,10,2.55046e-05,-2.6528,0.0228406,2.58312,216.324,0.0114663,
2,1,0,1,0,26794.4,0.0137828,0.0134492,2.61143,14,2.41287e-05,10,3.51217e-05,-2.58312,0.0331662,1.77892,177.989,0.0134492,
2,1,0,1,0,26794.4,0.0157804,0.0154651,2.93605,14,7.98221e-05,10,4.54063e-05,-2.53224,0.0452042,1.30519,147.458,0.0154651,
2,1,0,1,0,26794.4,0.017778,0.017428,3.19813,14,0.000141073,10,5.57368e-05,-2.4951,0.0606273,0.973159,120.433,0.017428,
2,1,0,1,0,26794.4,0.0197755,0.0194686,3.41821,14,0.00020731,10,6.6548e-05,-2.4662,0.0768859,0.767371,101.822,0.0194686,
2,1,0,1,0,26794.4,0.0217731,0.0214741,3.61011,14,0.000277693,10,7.75237e-05,-2.44248,0.0899797,0.655703,92.0785,0.0214741,
2,1,0,1,0,26794.5,0.0237707,0.0234459,3.78443,14,0.000351723,10,8.87292e-05,-2.422,0.104831,0.56281,82.8688,0.0234459,
2,1,0,1,0,26794.5,0.0257683,0.025459,3.94034,14,0.000428679,10,0.000100317,-2.40447,0.12033,0.490319,75.2676,0.025459,
2,1,0,1,0,26794.5,0.0277659,0.027455,4.08619,14,0.000509015,10,0.000112186,-2.38868,0.13365,0.441451,70.2797,0.027455,
2,1,0,1,0,26794.5,0.0297635,0.0294591,4.22147,14,0.00059211,10,0.000124361,-2.37454,0.150851,0.391114,64.3112,0.0294591,
2,1,0,1,0,26794.5,0.0317611,0.0314477,4.34296,14,0.000677774,10,0.000136576,-2.36221,0.159467,0.369983,62.757,0.0314477,
2,1,0,1,0,26794.6,0.0337587,0.0334754,4.47352,14,0.000765545,10,0.000149753,-2.34935,0.166841,0.353629,61.6285,0.0334754,
2,1,0,1,0,26794.6,0.0357562,0.0354613,4.59032,14,0.000856264,10,0.000162779,-2.33816,0.184968,0.318974,57.0946,0.0354613,
2,1,0,1,0,26794.6,0.0377538,0.0374642,4.70126,14,0.000949291,10,0.000176129,-2.32779,0.188887,0.312357,57.3299,0.0374642,
2,1,0,1,0,26794.6,0.0397514,0.0394211,4.81733,14,0.00104456,10,0.000189905,-2.31719,0.178992,0.329623,62.0419,0.0394211,
2,1,0,1,0,26794.6,0.041749,0.0414173,4.94651,14,0.00114172,10,0.000204871,-2.3057,0.196882,0.299672,57.6887,0.0414173,
2,1,0,1,0,26794.7,0.0437466,0.043451,5.04981,14,0.00124173,10,0.000219419,-2.29672,0.225386,0.261773,51.5889,0.043451,
2,1,0,1,0,26794.7,0.0457442,0.0454465,5.15437,14,0.00134382,10,0.000234248,-2.28782,0.223784,0.263647,53.0319,0.0454465,
2,1,0,1,0,26794.7,0.0477418,0.0474103,5.25978,14,0.00144805,10,0.000249368,-2.27903,0.214806,0.274666,56.4442,0.0474103,
2,1,0,1,0,26794.7,0.0497484,0.0494167,5.37847,14,0.00155449,10,0.000265786,-2.26934,0.22751,0.25933,54.3284,0.0494167,
2,1,0,1,0,26794.7,0.0517369,0.0514208,5.47766,14,0.00166256,10,0.000281666,-2.2614,0.23457,0.251524,53.8477,0.0514208,
2,1,0,1,0,26794.8,0.0537345,0.0534221,5.59415,14,0.00177323,10,0.000298851,-2.25227,0.243236,0.242562,52.8408,0.0534221,
2,1,0,1,0,26794.8,0.0557321,0.055391,5.68745,14,0.00188602,10,0.000315033,-2.24508,0.274828,0.21468,47.6594,0.055391,
2,1,0,1,0,26794.8,0.0577206,0.0574017,5.78381,14,0.00200019,10,0.000332001,-2.23779,0.262494,0.224767,50.785,0.0574017,
2,1,0,1,0,26794.8,0.0597273,0.0594332,5.89273,14,0.00211712,10,0.000350224,-2.22968,0.270432,0.218169,50.1048,0.0594332,
2,1,0,1,0,26794.8,0.0617249,0.0614503,5.98667,14,0.00223598,10,0.000367883,-2.22281,0.301717,0.195547,45.6587,0.0614503,
2,1,0,1,0,26794.9,0.0637224,0.0634007,6.07389,14,0.00235665,10,0.000385089,-2.21653,0.300774,0.19616,46.5284,0.0634007,
2,1,0,1,0,26794.9,0.06572,0.0653854,6.16976,14,0.00247919,10,0.000403412,-2.20973,0.275716,0.213988,51.583,0.0653854,
2,1,0,1,0,26794.9,0.0677176,0.0674077,6.28058,14,0.00260322,10,0.000423359,-2.202,0.300319,0.196458,48.0425,0.0674077,
2,1,0,1,0,26794.9,0.0697152,0.0694135,6.36328,14,0.00272969,10,0.000441698,-2.19632,0.33921,0.173933,43.2087,0.0694135,
2,1,0,1,0,26794.9,0.0717128,0.0713509,6.45096,14,0.00285786,10,0.000460282,-2.19038,0.346231,0.170406,42.8835,0.0713509,
2,1,0,1,0,26795,0.0737104,0.0733932,6.53395,14,0.00298774,10,0.000479547,-2.18482,0.352378,0.167434,42.7201,0.0733932,
2,1,0,1,0,26795,0.075708,0.0754296,6.6252,14,0.00311876,10,0.000499737,-2.1788,0.367389,0.160593,41.4678,0.0754296,
2,1,0,1,0,26795,0.0777056,0.0773865,6.69954,14,0.00325201,10,0.000518454,-2.17395,0.398874,0.147916,38.6873,0.0773865,
2,1,0,1,0,26795,0.0797031,0.0794024,6.7789,14,0.00338684,10,0.000538261,-2.16884,0.401164,0.147072,38.9027,0.0794024,
2,1,0,1,0,26795,0.0817007,0.0814235,6.85659,14,0.00352325,10,0.000558287,-2.16389,0.417739,0.141236,37.7786,0.0814235,
2,1,0,1,0,26795.1,0.0836983,0.0833854,6.92937,14,0.00366045,10,0.000577809,-2.15931,0.444663,0.132685,35.8709,0.0833854,
2,1,0,1,0,26795.1,0.0856959,0.0853738,6.99829,14,0.00379981,10,0.000597471,-2.15501,0.462358,0.127607,34.8572,0.0853738,
2,1,0,1,0,26795.1,0.0876935,0.0874116,7.06971,14,0.00394056,10,0.000617975,-2.1506,0.482985,0.122157,33.682,0.0874116,
2,1,0,1,0,26795.1,0.0896911,0.0893506,7.13224,14,0.00408259,10,0.00063727,-2.14677,0.457704,0.128904,35.9243,0.0893506,
2,1,0,1,0,26795.1,0.0916887,0.0913923,7.21272,14,0.00422535,10,0.000659187,-2.1419,0.432853,0.136305,38.3527,0.0913923,
2,1,0,1,0,26795.2,0.0936862,0.0934081,7.28786,14,0.00437045,10,0.000680745,-2.1374,0.452675,0.130336,37.0621,0.0934081,
2,1,0,1,0,26795.2,0.0956838,0.0953715,7.3602,14,0.00451699,10,0.000701953,-2.13311,0.423491,0.139318,40.0545,0.0953715,
2,1,0,1,0,26795.2,0.0976814,0.0973653,7.44636,14,0.00466507,10,0.000725017,-2.12806,0.359906,0.163932,47.6947,0.0973653,
2,1,0,1,0,26795.2,0.099679,0.0993611,7.55048,14,0.00481428,10,0.000750224,-2.12203,0.340479,0.173285,51.0405,0.0993611,
2,1,0,1,0,26795.2,0.101677,0.101337,7.64906,14,0.00496631,10,0.00077513,-2.11639,0.325654,0.181174,54.1463,0.101337,
2,1,0,1,0,26795.3,0.103674,0.103347,7.7663,14,0.00512049,10,0.000802624,-2.10979,0.295593,0.199599,60.5352,0.103347,
2,1,0,1,0,26795.3,0.105672,0.105392,7.89456,14,0.00527714,10,0.000832026,-2.10267,0.274437,0.214985,66.2653,0.105392,
2,1,0,1,0,26795.3,0.107667,0.107342,8.03105,14,0.0054356,10,0.000862072,-2.09523,0.26657,0.22133,69.3808,0.107342,
2,1,0,1,0,26795.3,0.109667,0.109383,8.17144,14,0.00559769,10,0.000893816,-2.0877,0.26151,0.225613,71.9687,0.109383,
2,1,0,1,0,26795.3,0.111665,0.111328,8.3179,14,0.00576264,10,0.000926016,-2.07999,0.240998,0.244815,79.5818,0.1113281,
2,1,0,1,0,26795.4,0.113662,0.113377,8.48933,14,0.00593076,10,0.000962498,-2.07113,0.235786,0.250226,82.84,0.113377,
2,1,0,1,0,26795.4,0.11566,0.115337,8.65003,14,0.0061021,10,0.000997671,-2.06298,0.235865,0.250143,84.4932,0.115337,
2,1,0,1,0,26795.4,0.117657,0.117326,8.82292,14,0.00627606,10,0.00103515,-2.05439,0.249001,0.236947,81.4894,0.117326,
2,1,0,1,0,26795.4,0.119655,0.119343,8.97648,14,0.00645412,10,0.00107128,-2.04689,0.273078,0.216055,75.6553,0.119343,
2,1,0,1,0,26795.4,0.121652,0.121301,9.12366,14,0.00663516,10,0.00110671,-2.03983,0.295903,0.19939,70.9612,0.1213007,
2,1,0,1,0,26795.5,0.12365,0.123386,9.26333,14,0.00681914,10,0.00114296,-2.03323,0.299264,0.19715,71.2965,0.123386,
2,1,0,1,0,26795.5,0.125648,0.125323,9.41044,14,0.00700512,10,0.00117934,-2.02639,0.32065,0.184001,67.4648,0.125323,
2,1,0,1,0,26795.5,0.127645,0.127305,9.52771,14,0.00719457,10,0.00121292,-2.02101,0.381757,0.154548,57.4509,0.127305,
2,1,0,1,0,26795.5,0.129643,0.12933,9.64065,14,0.00738633,10,0.00124683,-2.01589,0.408796,0.144326,54.2781,0.12933,
2,1,0,1,0,26795.5,0.13164,0.131325,9.74592,14,0.0075803,10,0.00127988,-2.01118,0.426455,0.13835,52.6162,0.131325,
2,1,0,1,0,26795.6,0.133638,0.133307,9.84988,14,0.00777541,10,0.00131305,-2.00657,0.470538,0.125388,48.1602,0.133307,
2,1,0,1,0,26795.6,0.135636,0.135312,9.93797,14,0.00797329,10,0.00134473,-2.0027,0.553289,0.106635,41.3354,0.135312,
2,1,0,1,0,26795.6,0.137633,0.137316,10.0156,14,0.00817283,10,0.0013753,-1.99932,0.654863,0.0900951,35.1895,0.137316,
2,1,0,1,0,26795.6,0.139631,0.139303,10.0784,14,0.00837389,10,0.00140396,-1.99661,0.694166,0.0849941,33.443,0.139303,
2,1,0,1,0,26795.6,0.141628,0.141304,10.149,14,0.0085752,10,0.00143409,-1.99358,0.820273,0.0719273,28.4512,0.141304,
2,1,0,1,0,26795.7,0.143626,0.14332,10.1927,14,0.00877864,10,0.00146081,-1.99171,1.57936,0.037357,14.8401,0.14332,
2,1,0,1,0,26795.7,0.145624,0.14534,10.2089,14,0.00898272,10,0.00148376,-1.99102,-18.435,-0.00320043,-1.27278,0.14534,
2,1,0,1,0,26795.7,0.147621,0.147272,10.1876,14,0.00918666,10,0.00150036,-1.99193,-1.3183,-0.0447547,-17.7696,0.147272,
2,1,0,1,0,26795.7,0.149619,0.149306,10.1384,14,0.00938896,10,0.00151372,-1.99403,-0.59231,-0.09961,-39.2936,0.149306,
2,1,0,1,0,26795.7,0.151616,0.151327,10.0283,14,0.00959077,10,0.00151755,-1.99877,-0.328024,-0.179865,-70.1814,0.151327,
2,1,0,1,0,26795.8,0.153614,0.153289,9.85884,14,0.00978975,10,0.00151125,-2.00617,-0.232762,-0.253478,-97.2598,0.153289,
2,1,0,1,0,26795.8,0.155611,0.155343,9.63767,14,0.00998485,10,0.00149715,-2.01603,-0.18536,-0.318299,-119.445,0.155343,
2,1,0,1,0,26795.8,0.157609,0.157331,9.37603,14,0.0101741,10,0.00147514,-2.02798,-0.137541,-0.428964,-156.165,0.157331,
2,1,0,1,0,26795.8,0.159607,0.159264,9.02544,14,0.0103581,10,0.00143743,-2.04453,-0.113537,-0.519653,-182.747,0.159264,
2,1,0,1,0,26795.8,0.161604,0.161274,8.65556,14,0.010535,10,0.00139591,-2.0627,-0.103093,-0.572298,-192.788,0.161274,
2,1,0,1,0,26795.9,0.163602,0.163289,8.24951,14,0.010704,10,0.00134705,-2.08357,-0.0929566,-0.634705,-204.151,0.163289,
2,1,0,1,0,26795.9,0.165606,0.165262,7.84124,14,0.0108648,10,0.00129586,-2.10562,-0.0897389,-0.657463,-201.019,0.165262,
2,1,0,1,0,26795.9,0.167597,0.167349,7.43331,14,0.0110168,10,0.00124396,-2.12882,-0.0874496,-0.674674,-195.918,0.167349,
2,1,0,1,0,26795.9,0.169595,0.16928,7.05411,14,0.0111616,10,0.00119412,-2.15156,-0.0875838,-0.673641,-185.557,0.16928,
2,1,0,1,0,26795.9,0.171592,0.171324,6.69569,14,0.0112991,10,0.00114713,-2.1742,-0.0897231,-0.657579,-172.247,0.171324,
2,1,0,1,0,26795.9,0.173581,0.173189,6.38076,14,0.011429,10,0.00110508,-2.19513,-0.0979618,-0.602275,-150.289,0.173189,
2,1,0,1,0,26796,0.175587,0.175278,6.10139,14,0.0115538,10,0.00106944,-2.21457,-0.107854,-0.547038,-130.487,0.175278,
2,1,0,1,0,26796,0.177585,0.177249,5.85099,14,0.0116732,10,0.00103708,-2.23277,-0.112189,-0.525898,-120.223,0.177249,
2,1,0,1,0,26796,0.179582,0.179279,5.62043,14,0.0117878,10,0.00100763,-2.25023,-0.124454,-0.474071,-104.324,0.179279,
2,1,0,1,0,26796,0.18158,0.181269,5.4316,14,0.0118982,10,0.000984582,-2.26507,-0.143596,-0.410875,-87.3037,0.181269,
2,1,0,1,0,26796,0.183578,0.183266,5.27231,14,0.0120048,10,0.000966237,-2.278,-0.15198,-0.388208,-79.8629,0.183266,
2,1,0,1,0,26796.1,0.185575,0.185244,5.11416,14,0.0121086,10,0.000947367,-2.29123,-0.166316,-0.354746,-71.0144,0.185244,
2,1,0,1,0,26796.1,0.187573,0.187255,4.98907,14,0.0122096,10,0.000934228,-2.30198,-0.193558,-0.304818,-59.4135,0.187255,
2,1,0,1,0,26796.1,0.18957,0.189245,4.87648,14,0.0123083,10,0.000922846,-2.31189,-0.210237,-0.280636,-53.4606,0.189245,
2,1,0,1,0,26796.1,0.191568,0.191261,4.77488,14,0.0124043,10,0.00091325,-2.32104,-0.234004,-0.252133,-47.0452,0.191261,
2,1,0,1,0,26796.1,0.193566,0.193275,4.68685,14,0.012499,10,0.000905852,-2.32912,-0.264153,-0.223356,-40.9017,0.193275,
2,1,0,1,0,26796.2,0.195563,0.195279,4.61056,14,0.012592,10,0.000900345,-2.33625,-0.274062,-0.21528,-38.7353,0.195279,
2,1,0,1,0,26796.2,0.197561,0.197201,4.5348,14,0.0126835,10,0.000894265,-2.34344,-0.30547,-0.193145,-34.2428,0.197201,
2,1,0,1,0,26796.2,0.199558,0.199218,4.47569,14,0.0127731,10,0.000891636,-2.34914,-0.352074,-0.167578,-29.2724,0.199218,
2,1,0,1,0,26796.2,0.201556,0.201209,4.41745,14,0.0128621,10,0.000888833,-2.35483,-0.367153,-0.160696,-27.7151,0.201209,
2,1,0,1,0,26796.2,0.203553,0.203273,4.3633,14,0.0129499,10,0.000886939,-2.36019,-0.402193,-0.146696,-25.0019,0.203273,
2,1,0,1,0,26796.3,0.205551,0.205224,4.31709,14,0.0130367,10,0.000885969,-2.36481,-0.574156,-0.102759,-17.36,0.2052235,
2,1,0,1,0,26796.3,0.207549,0.207241,4.29441,14,0.0131224,10,0.000889977,-2.3671,-0.571949,-0.103156,-17.2407,0.207241,
2,1,0,1,0,26796.3,0.209546,0.209227,4.24808,14,0.0132077,10,0.000888811,-2.37181,-0.446496,-0.13214,-21.9178,0.2092265,
2,1,0,1,0,26796.3,0.211544,0.211271,4.20608,14,0.0132922,10,0.000888623,-2.37612,-0.531235,-0.111062,-18.2517,0.211271,
2,1,0,1,0,26796.3,0.213541,0.213289,4.17394,14,0.013376,10,0.000890254,-2.37945,-0.69234,-0.0852182,-13.8962,0.213289,
2,1,0,1,0,26796.4,0.215539,0.21526,4.15065,14,0.0134588,10,0.000893468,-2.38188,-0.695161,-0.0848724,-13.7353,0.21526,
2,1,0,1,0,26796.4,0.217537,0.21724,4.11967,14,0.0135415,10,0.000894956,-2.38514,-0.60507,-0.0975094,-15.6766,0.21724,
2,1,0,1,0,26796.4,0.219534,0.219227,4.08845,14,0.0136236,10,0.000896301,-2.38844,-0.726417,-0.0812206,-12.9758,0.219227,
2,1,0,1,0,26796.4,0.221532,0.221249,4.06765,14,0.0137053,10,0.000899962,-2.39066,-0.941507,-0.0626655,-9.94998,0.221249,
2,1,0,1,0,26796.4,0.223525,0.22324,4.04853,14,0.013786,10,0.000903793,-2.3927,-1.05417,-0.0559682,-8.8464,0.22324,
2,1,0,1,0,26796.5,0.225527,0.22522,4.03252,14,0.0138668,10,0.000908203,-2.39442,-0.958568,-0.0615502,-9.67876,0.22522,
2,1,0,1,0,26796.5,0.227525,0.227212,4.01008,14,0.0139472,10,0.00091114,-2.39685,-0.81342,-0.0725333,-11.3509,0.227212,
2,1,0,1,0,26796.5,0.229522,0.229205,3.98728,14,0.0140272,10,0.000913905,-2.39932,-0.872838,-0.0675956,-10.5232,0.229205,
2,1,0,1,0,26796.5,0.23152,0.231206,3.96806,14,0.0141068,10,0.000917437,-2.40142,-1.44641,-0.0407906,-6.3271,0.231206,
2,1,0,1,0,26796.5,0.233517,0.233246,3.96172,14,0.0141859,10,0.000924054,-2.40212,-1.4416,-0.0409269,-6.31784,0.233246,
2,1,0,1,0,26796.6,0.235515,0.235192,3.94287,14,0.014265,10,0.000927333,-2.40419,-1.11742,-0.0528003,-8.13045,0.235192,
2,1,0,1,0,26796.6,0.237512,0.237201,3.92956,14,0.0143437,10,0.000932096,-2.40566,-1.50441,-0.0392179,-6.01627,0.237201,
2,1,0,1,0,26796.6,0.23951,0.239207,3.91872,14,0.0144222,10,0.000937385,-2.40686,-1.93098,-0.0305545,-4.67464,0.239207,
2,1,0,1,0,26796.6,0.241508,0.241196,3.91088,14,0.0145001,10,0.000943291,-2.40773,-1.32158,-0.0446435,-6.8038,0.241196,
2,1,0,1,0,26796.6,0.243505,0.243213,3.89146,14,0.0145781,10,0.000946455,-2.40989,-1.38474,-0.0426074,-6.48148,0.243213,
2,1,0,1,0,26796.7,0.245503,0.245211,3.88486,14,0.0146559,10,0.00095261,-2.41062,-2.00079,-0.0294884,-4.46814,0.245211,
2,1,0,1,0,26796.7,0.2475,0.247217,3.87357,14,0.0147335,10,0.000957612,-2.41189,-1.66642,-0.0354053,-5.35325,0.247217,
2,1,0,1,0,26796.7,0.249498,0.249179,3.86362,14,0.0148105,10,0.000962734,-2.41301,-1.52957,-0.0385728,-5.81376,0.249179,
2,1,0,1,0,26796.7,0.251496,0.251194,3.85045,14,0.0148877,10,0.000967211,-2.41449,-1.41384,-0.0417303,-6.27196,0.251194,
2,1,0,1,0,26796.7,0.253493,0.253158,3.83867,14,0.0149647,10,0.000971787,-2.41582,-1.42185,-0.0414952,-6.21552,0.253158,
2,1,0,1,0,26796.8,0.255491,0.255164,3.82577,14,0.0150414,10,0.0009762,-2.41728,-3.20379,-0.0184157,-2.7549,0.255164,
2,1,0,1,0,26796.8,0.257488,0.257173,3.8276,14,0.0151176,10,0.000984356,-2.41707,-3.62224,-0.0162883,-2.42885,0.257173,
2,1,0,1,0,26796.8,0.259486,0.259201,3.81597,14,0.0151941,10,0.000989103,-2.4184,-1.25216,-0.0471187,-7.01265,0.259201,
2,1,0,1,0,26796.8,0.261484,0.261187,3.79945,14,0.0152703,10,0.000992369,-2.42028,-1.47221,-0.0400757,-5.94969,0.2611874,
2,1,0,1,0,26796.8,0.263481,0.263193,3.79222,14,0.0153463,10,0.000998085,-2.42111,-10.3849,-0.00568133,-0.842057,0.263193,
2,1,0,1,0,26796.9,0.265479,0.265201,3.79607,14,0.0154218,10,0.00100672,-2.42067,-2.91215,-0.0202599,-2.99376,0.265201,
2,1,0,1,0,26796.9,0.267476,0.267145,3.78039,14,0.0154976,10,0.00100991,-2.42246,-1.20818,-0.0488337,-7.20723,0.267145,
2,1,0,1,0,26796.9,0.269474,0.26919,3.76733,14,0.0155731,10,0.00101413,-2.42397,-2.30811,-0.025562,-3.76373,0.26919,
2,1,0,1,0,26796.9,0.271471,0.271195,3.76514,14,0.0156484,10,0.00102109,-2.42422,1664.82,3.54392e-05,0.00521054,0.271195,
2,1,0,1,0,26796.9,0.273469,0.273134,3.76735,14,0.0157233,10,0.00102899,-2.42396,-1.97461,-0.0298793,-4.38031,0.2731339,
2,1,0,1,0,26797,0.275467,0.27519,3.74764,14,0.0157983,10,0.00103131,-2.42624,-1.27269,-0.0463586,-6.79116,0.27519,
2,1,0,1,0,26797,0.277464,0.277172,3.73993,14,0.0158732,10,0.0010366,-2.42714,-1.54311,-0.0382344,-5.57575,0.277172,
2,1,0,1,0,26797,0.279462,0.279119,3.72574,14,0.0159479,10,0.00103992,-2.42879,-1.8334,-0.0321806,-4.68526,0.279119,
2,1,0,1,0,26797,0.281464,0.281161,3.72123,14,0.0160224,10,0.00104627,-2.42931,-3.01904,-0.0195426,-2.83725,0.281161,
2,1,0,1,0,26797,0.283457,0.283115,3.7144,14,0.0160964,10,0.0010516,-2.43011,-2.14783,-0.0274696,-3.98086,0.283115,
2,1,0,1,0,26797.1,0.285455,0.28514,3.7054,14,0.0161706,10,0.00105656,-2.43117,-1.39986,-0.042147,-6.08932,0.28514,
2,1,0,1,0,26797.1,0.287452,0.287177,3.68967,14,0.0162445,10,0.00105959,-2.43301,-1.52278,-0.0387449,-5.58602,0.287177,
2,1,0,1,0,26797.1,0.28945,0.289132,3.68309,14,0.0163183,10,0.0010649,-2.43379,-3.50437,-0.0168361,-2.42117,0.289132,
2,1,0,1,0,26797.1,0.291447,0.291151,3.68004,14,0.0163916,10,0.00107145,-2.43415,-1.66305,-0.0354769,-5.08528,0.291151,
2,1,0,1,0,26797.1,0.293445,0.29315,3.66266,14,0.016465,10,0.00107371,-2.4362,-1.29252,-0.0456472,-6.53263,0.29315,
2,1,0,1,0,26797.2,0.295442,0.295143,3.65397,14,0.0165382,10,0.00107844,-2.43724,-2.78831,-0.0211598,-3.01959,0.295143,
2,1,0,1,0,26797.2,0.29744,0.29719,3.65046,14,0.0166113,10,0.00108488,-2.43765,-2.31764,-0.0254569,-3.62301,0.29719,
2,1,0,1,0,26797.2,0.299438,0.299148,3.63946,14,0.0166839,10,0.00108874,-2.43896,-0.0291718,-2.0225,-263.982,0.299148,
2,1,0,1,0,26797.2,0.299737,0.299442,3.05601,14,0.0167134,10,0.000915099,-2.51485,0.00299052,19.729,1558.68,0.299442,
2,1,0,1,0,26797.2,0.29774,0.29744,0.976806,14,0.0167504,10,0.000290541,-3.01019,0.00160949,36.6576,759.98,0.29744,
2,1,0,1,0,26797.3,0.295742,0.295409,-0.00952688,14,0.016759,10,-2.81432e-06,-5.02105,0.0177658,3.32099,386.065,0.295409,
2,0,0,1,0,26797.3,0.293745,0.293409,-0.579329,14,0.0167526,10,-0.00016998,-3.23708,-0.00199895,-29.5156,232.563,0.293409,
2,0,0,1,0,26797.3,0.291747,0.291426,-0.935645,14,0.0167373,10,-0.000272671,-3.02889,-0.0128276,-4.59947,152.2,0.291426,
2,0,0,1,0,26797.3,0.289754,0.289405,-1.18887,14,0.0167161,10,-0.000344065,-2.92486,-0.0247612,-2.38276,105.627,0.289405,
2,0,0,1,0,26797.3,0.287752,0.287382,-1.36282,14,0.0166906,10,-0.00039165,-2.86556,-0.0396878,-1.4866,77.5801,0.287382,
2,0,0,1,0,26797.4,0.285754,0.285428,-1.49735,14,0.016662,10,-0.000427386,-2.82468,-0.0546805,-1.07899,62.4319,0.285428,
2,0,0,1,0,26797.4,0.283757,0.283436,-1.6092,14,0.016631,10,-0.000456104,-2.79339,-0.070425,-0.837771,52.2997,0.283436,
2,0,0,1,0,26797.4,0.281759,0.281431,-1.70639,14,0.0165979,10,-0.000480232,-2.76792,-0.088636,-0.665644,44.0363,0.281431,
2,0,0,1,0,26797.4,0.279761,0.279464,-1.78408,14,0.0165631,10,-0.000498588,-2.74858,-0.107179,-0.550481,38.2609,0.279464,
2,0,0,1,0,26797.4,0.277764,0.277479,-1.85763,14,0.0165267,10,-0.000515452,-2.73104,-0.124696,-0.473152,34.1955,0.277479,
2,0,0,1,0,26797.5,0.275766,0.275452,-1.92129,14,0.016489,10,-0.000529224,-2.71641,-0.154248,-0.382502,28.5818,0.2754519,
2,0,0,1,0,26797.5,0.273769,0.273447,-1.97285,14,0.0164501,10,-0.00053947,-2.70491,-0.157874,-0.373717,28.8513,0.273447,
2,0,0,1,0,26797.5,0.271771,0.271472,-2.03612,14,0.0164102,10,-0.000552749,-2.6912,-0.16374,-0.360327,28.5342,0.271472,
2,0,0,1,0,26797.5,0.269774,0.269467,-2.08642,14,0.016369,10,-0.000562222,-2.6806,-0.199948,-0.295077,23.9998,0.269467,
2,0,0,1,0,26797.5,0.267776,0.267446,-2.13274,14,0.0163268,10,-0.000570394,-2.67106,-0.22178,-0.26603,22.1208,0.267446,
2,0,0,1,0,26797.6,0.265778,0.265443,-2.17545,14,0.0162839,10,-0.000577456,-2.66245,-0.212473,-0.277682,23.6241,0.265443,
2,0,0,1,0,26797.6,0.263781,0.263421,-2.22783,14,0.0162401,10,-0.000586857,-2.65212,-0.232692,-0.253554,21.9585,0.263421,
2,0,0,1,0,26797.6,0.261783,0.261444,-2.26325,14,0.0161953,10,-0.000591713,-2.64527,-0.293455,-0.201053,17.7509,0.261444,
2,0,0,1,0,26797.6,0.259786,0.259519,-2.29708,14,0.0161498,10,-0.000596138,-2.63882,-0.264092,-0.223407,20.0781,0.259519,
2,0,0,1,0,26797.6,0.257788,0.257478,-2.34287,14,0.0161036,10,-0.000603239,-2.63025,-0.286249,-0.206114,18.7818,0.257478,
2,0,0,1,0,26797.7,0.25579,0.255473,-2.37309,14,0.0160567,10,-0.000606259,-2.62469,-0.345696,-0.17067,15.8169,0.255473,
2,0,0,1,0,26797.7,0.253793,0.253441,-2.40674,14,0.016009,10,-0.000609965,-2.61857,-0.352863,-0.167204,15.6884,0.253441,
2,0,0,1,0,26797.7,0.251795,0.25149,-2.43558,14,0.0159606,10,-0.000612522,-2.6134,-0.321288,-0.183636,17.4959,0.25149,
2,0,0,1,0,26797.7,0.249798,0.249475,-2.47612,14,0.0159115,10,-0.000617729,-2.60623,-0.329361,-0.179135,17.2677,0.249475,
2,0,0,1,0,26797.7,0.2478,0.247487,-2.50469,14,0.0158621,10,-0.000619878,-2.60125,-0.406519,-0.145135,14.1857,0.247487,
2,0,0,1,0,26797.8,0.245802,0.245462,-2.53304,14,0.0158118,10,-0.000621766,-2.59636,-0.397293,-0.148505,14.6868,0.245462,
2,0,0,1,0,26797.8,0.243805,0.243467,-2.56373,14,0.0157608,10,-0.000624184,-2.59113,-0.432619,-0.136379,13.6252,0.243467,
2,0,0,1,0,26797.8,0.241807,0.241498,-2.58705,14,0.0157093,10,-0.000624768,-2.58719,-0.372302,-0.158473,16.0533,0.2414981,
2,0,0,1,0,26797.8,0.23981,0.239475,-2.62782,14,0.0156575,10,-0.000629297,-2.58041,-0.37942,-0.155501,15.8921,0.239475,
2,0,0,1,0,26797.8,0.237812,0.2375,-2.6506,14,0.0156048,10,-0.000629516,-2.57666,-0.457642,-0.128922,13.3532,0.2375,
2,0,0,1,0,26797.9,0.235815,0.235547,-2.68027,14,0.0155516,10,-0.00063133,-2.57182,-0.510347,-0.115608,12.0678,0.235547,
2,0,0,1,0,26797.9,0.233817,0.233489,-2.699,14,0.015498,10,-0.000630186,-2.5688,-0.443784,-0.132947,14.0552,0.233489,
2,0,0,1,0,26797.9,0.231815,0.231458,-2.73773,14,0.0154437,10,-0.000633672,-2.56261,-0.38207,-0.154422,16.4624,0.231458,
2,0,0,1,0,26797.9,0.229822,0.22951,-2.76451,14,0.015389,10,-0.000634481,-2.55838,-0.56684,-0.104086,11.2107,0.22951,
2,0,0,1,0,26797.9,0.227824,0.227511,-2.78199,14,0.0153337,10,-0.000632933,-2.55564,-0.588813,-0.100202,10.8956,0.227511,
2,0,0,1,0,26798,0.225827,0.225517,-2.80801,14,0.0152779,10,-0.000633253,-2.5516,-0.493635,-0.119521,13.0988,0.225517,
2,0,0,1,0,26798,0.223829,0.223503,-2.83448,14,0.0152215,10,-0.000633516,-2.54753,-0.458108,-0.128791,14.2568,0.223503,
2,0,0,1,0,26798,0.221831,0.221514,-2.86507,14,0.0151648,10,-0.000634654,-2.54286,-0.48655,-0.121262,13.5405,0.221514,
2,0,0,1,0,26798,0.219834,0.219545,-2.88808,14,0.0151074,10,-0.000634064,-2.53939,-0.555886,-0.106137,11.9668,0.219545,
2,0,0,1,0,26798,0.217836,0.217505,-2.91305,14,0.0150495,10,-0.000633603,-2.53565,-0.654318,-0.0901702,10.2364,0.217505,
2,0,0,1,0,26798.1,0.215839,0.215476,-2.92973,14,0.0149911,10,-0.000631287,-2.53317,-0.506603,-0.116462,13.3618,0.215476,
2,0,0,1,0,26798.1,0.213841,0.213489,-2.96672,14,0.0149324,10,-0.00063336,-2.52772,-0.452752,-0.130314,15.0501,0.2134887,
2,0,0,1,0,26798.1,0.211843,0.211536,-2.98903,14,0.014873,10,-0.000632288,-2.52447,-0.667674,-0.0883665,10.3016,0.211536,
2,0,0,1,0,26798.1,0.209846,0.20952,-3.0076,14,0.014813,10,-0.000630152,-2.52178,-0.56952,-0.103596,12.1837,0.2095198,
2,0,0,1,0,26798.1,0.207848,0.207507,-3.03812,14,0.0147527,10,-0.000630431,-2.51739,-0.395577,-0.149149,17.7106,0.207507,
2,0,0,1,0,26798.2,0.205851,0.205548,-3.07794,14,0.0146918,10,-0.000632665,-2.51174,-0.475193,-0.12416,14.8645,0.205548,
2,0,0,1,0,26798.2,0.203853,0.203522,-3.09734,14,0.0146301,10,-0.000630379,-2.50901,-0.701444,-0.0841122,10.1704,0.203522,
2,0,0,1,0,26798.2,0.201856,0.201547,-3.11863,14,0.0145681,10,-0.000628552,-2.50604,-0.594236,-0.0992871,12.0949,0.201547,
2,0,0,1,0,26798.2,0.199858,0.199538,-3.14553,14,0.0145055,10,-0.000627654,-2.50231,-0.462489,-0.127571,15.6827,0.199538,
2,0,0,1,0,26798.2,0.19786,0.197537,-3.18153,14,0.0144427,10,-0.000628469,-2.49736,-0.507665,-0.116218,14.3967,0.197537,
2,0,0,1,0,26798.3,0.195863,0.195553,-3.2029,14,0.0143789,10,-0.000626338,-2.49446,-0.546437,-0.107972,13.5199,0.195553,
2,0,0,1,0,26798.3,0.193865,0.19354,-3.23556,14,0.0143147,10,-0.000626211,-2.49005,-0.495168,-0.119151,15.0331,0.19354,
2,0,0,1,0,26798.3,0.191868,0.191557,-3.26298,14,0.0142498,10,-0.000625047,-2.48639,-0.486627,-0.121243,15.4558,0.191557,
2,0,0,1,0,26798.3,0.18987,0.189534,-3.29749,14,0.0141847,10,-0.000624984,-2.48182,-0.506318,-0.116528,14.975,0.189534,
2,0,0,1,0,26798.3,0.187872,0.187552,-3.32296,14,0.0141186,10,-0.000623227,-2.47848,-0.518881,-0.113706,14.762,0.187552,
2,0,0,1,0,26798.4,0.185875,0.18558,-3.35586,14,0.0140519,10,-0.000622778,-2.4742,-0.566838,-0.104086,13.6098,0.18558,
2,0,0,1,0,26798.4,0.183877,0.183509,-3.37799,14,0.0139845,10,-0.000619889,-2.47134,-0.401642,-0.146897,19.4606,0.183509,
2,0,0,1,0,26798.4,0.18188,0.18159,-3.4335,14,0.0139169,10,-0.000623488,-2.46426,-0.358507,-0.164571,21.9732,0.18159,
2,0,0,1,0,26798.4,0.179882,0.179561,-3.46474,14,0.013848,10,-0.00062213,-2.46033,-0.53501,-0.110278,14.9056,0.1795606,
2,0,0,1,0,26798.4,0.177885,0.177573,-3.49338,14,0.0137785,10,-0.000620328,-2.45675,-0.422036,-0.139798,19.1105,0.177573,
2,0,0,1,0,26798.5,0.175887,0.17557,-3.541,14,0.0137082,10,-0.000621693,-2.45087,-0.338972,-0.174055,24.0551,0.1755697,
2,0,0,1,0,26798.5,0.173896,0.173575,-3.58953,14,0.0136374,10,-0.000623054,-2.44496,-0.371197,-0.158945,22.2397,0.173575,
2,0,0,1,0,26798.5,0.171892,0.171575,-3.62983,14,0.0135652,10,-0.00062279,-2.44011,-0.364479,-0.161875,22.9646,0.171575,
2,0,0,1,0,26798.5,0.169894,0.169591,-3.68103,14,0.0134922,10,-0.00062427,-2.43403,-0.3194,-0.184721,26.549,0.169591,
2,0,0,1,0,26798.5,0.167897,0.167573,-3.7361,14,0.0134181,10,-0.000626069,-2.42758,-0.307475,-0.191885,27.9874,0.167573,
2,0,0,1,0,26798.6,0.165899,0.165551,-3.7941,14,0.0133429,10,-0.000628117,-2.42089,-0.287025,-0.205557,30.4596,0.165551,
2,0,0,1,0,26798.6,0.163901,0.16356,-3.85833,14,0.0132667,10,-0.000631068,-2.4136,-0.253525,-0.232719,35.0849,0.16356,
2,0,0,1,0,26798.6,0.161904,0.1616,-3.93272,14,0.013189,10,-0.000635527,-2.40531,-0.248826,-0.237113,36.3756,0.1616,
2,0,0,1,0,26798.6,0.159906,0.159545,-4.00436,14,0.0131097,10,-0.000638878,-2.39747,-0.240664,-0.245155,38.3666,0.159545,
2,0,0,1,0,26798.6,0.157909,0.157543,-4.08837,14,0.0130289,10,-0.000644094,-2.38845,-0.203564,-0.289835,46.3153,0.157543,
2,0,0,1,0,26798.7,0.155911,0.15562,-4.18616,14,0.0129465,10,-0.000651451,-2.37818,-0.184432,-0.3199,52.328,0.15562,
2,0,0,1,0,26798.7,0.153913,0.153574,-4.29608,14,0.0128617,10,-0.000659765,-2.36693,-0.18155,-0.324979,54.4651,0.153574,
2,0,0,1,0,26798.7,0.151916,0.151613,-4.40443,14,0.0127748,10,-0.000667767,-2.35611,-0.159409,-0.370117,63.8592,0.151613,
2,0,0,1,0,26798.7,0.149918,0.149624,-4.54831,14,0.0126854,10,-0.000680536,-2.34215,-0.140699,-0.419335,74.4845,0.149624,
2,0,0,1,0,26798.7,0.147921,0.147624,-4.70151,14,0.0125934,10,-0.000694057,-2.32776,-0.137201,-0.430027,78.9735,0.147624,
2,0,0,1,0,26798.8,0.145923,0.145593,-4.86663,14,0.0124977,10,-0.000708548,-2.31277,-0.128073,-0.460674,87.66,0.145593,
2,0,0,1,0,26798.8,0.143926,0.1436,-5.0543,14,0.0123986,10,-0.000725796,-2.29634,-0.110822,-0.532385,105.429,0.1436,
2,0,0,1,0,26798.8,0.141928,0.1416,-5.28765,14,0.0122953,10,-0.00074873,-2.27674,-0.102162,-0.577511,119.176,0.1416,
2,0,0,1,0,26798.8,0.13993,0.139624,-5.52814,14,0.0121877,10,-0.000771859,-2.25742,-0.101933,-0.578812,124.998,0.139624,
2,0,0,1,0,26798.8,0.137933,0.137605,-5.78694,14,0.0120747,10,-0.000796314,-2.23755,-0.0999818,-0.590107,133.307,0.137605,
2,0,0,1,0,26798.9,0.135935,0.135659,-6.05669,14,0.0119563,10,-0.000821644,-2.21776,-0.095903,-0.615205,145.796,0.1356588,
2,0,0,1,0,26798.9,0.133938,0.133626,-6.36717,14,0.0118321,10,-0.000850817,-2.19605,-0.0946716,-0.623207,154.785,0.133626,
2,0,0,1,0,26798.9,0.13194,0.131622,-6.6816,14,0.0117024,10,-0.000879442,-2.17512,-0.0967654,-0.609722,158.976,0.131622,
2,0,0,1,0,26798.9,0.129942,0.129614,-7.00484,14,0.0115656,10,-0.000907929,-2.1546,-0.102035,-0.578235,157.787,0.129614,
2,0,0,1,0,26798.9,0.127945,0.127626,-7.31197,14,0.0114224,10,-0.000933201,-2.13597,-0.106285,-0.555113,158.394,0.127626,
2,0,0,1,0,26799,0.125947,0.12569,-7.62652,14,0.0112731,10,-0.000958574,-2.11767,-0.110422,-0.534315,158.908,0.12569,
2,0,0,1,0,26799,0.12395,0.123689,-7.93762,14,0.0111184,10,-0.000981799,-2.10031,-0.122774,-0.480557,148.57,0.123689,
2,0,0,1,0,26799,0.121952,0.121664,-8.22455,14,0.0109567,10,-0.00100063,-2.08489,-0.138989,-0.424494,136.017,0.121664,
2,0,0,1,0,26799,0.119955,0.119635,-8.48913,14,0.0107895,10,-0.00101559,-2.07114,-0.148213,-0.398075,131.847,0.119635,
2,0,0,1,0,26799,0.117957,0.117646,-8.75441,14,0.0106171,10,-0.00102992,-2.05777,-0.15615,-0.377842,128.949,0.117646,
2,0,0,1,0,26799.1,0.115955,0.115631,-9.00533,14,0.0104395,10,-0.0010413,-2.0455,-0.17751,-0.332376,116.566,0.115631,
2,0,0,1,0,26799.1,0.113962,0.113633,-9.22209,14,0.010258,10,-0.00104794,-2.03517,-0.199018,-0.296456,106.626,0.113633,
2,0,0,1,0,26799.1,0.111964,0.111651,-9.42977,14,0.0100714,10,-0.00105284,-2.0255,-0.219531,-0.268755,98.7835,0.111651,
2,0,0,1,0,26799.1,0.109967,0.109636,-9.61694,14,0.009881,10,-0.00105437,-2.01696,-0.253968,-0.232312,87.07,0.109636,
2,0,0,1,0,26799.1,0.107969,0.107634,-9.77949,14,0.00968704,10,-0.00105261,-2.00968,-0.283455,-0.208146,79.3936,0.107634,
2,0,0,1,0,26799.2,0.105971,0.105669,-9.9319,14,0.00949094,10,-0.0010495,-2.00297,-0.333475,-0.176925,68.4671,0.105669,
2,0,0,1,0,26799.2,0.103974,0.103633,-10.0535,14,0.0092912,10,-0.00104187,-1.99768,-0.430025,-0.137201,53.7544,0.103633,
2,0,0,1,0,26799.2,0.101976,0.101669,-10.1469,14,0.00908927,10,-0.00103163,-1.99367,-0.588824,-0.1002,39.6197,0.101669,
2,0,0,1,0,26799.2,0.0999786,0.0996744,-10.2103,14,0.00888576,10,-0.0010177,-1.99096,-0.792412,-0.0744563,29.6573,0.0996744,
2,0,0,1,0,26799.2,0.0979811,0.0976602,-10.2658,14,0.00868196,10,-0.00100256,-1.98861,-1.23902,-0.0476183,19.0454,0.0976602,
2,0,0,1,0,26799.3,0.0959835,0.0956777,-10.2864,14,0.00847644,10,-0.000984179,-1.98774,-6.29609,-0.00937089,3.75714,0.0956777,
2,0,0,1,0,26799.3,0.0939859,0.0936415,-10.2809,14,0.00827083,10,-0.000962721,-1.98797,3.41892,0.0172569,-6.91832,0.0936415,
2,0,0,1,0,26799.3,0.0919883,0.0916486,-10.2585,14,0.00806552,10,-0.00094018,-1.98891,1.50646,0.0391648,-15.6666,0.0916486,
2,0,0,1,0,26799.3,0.0899907,0.0896766,-10.2188,14,0.00786179,10,-0.000916387,-1.9906,0.785561,0.0751055,-29.8946,0.0896766,
2,0,0,1,0,26799.3,0.0879931,0.0876728,-10.1397,14,0.00765826,10,-0.000888974,-1.99398,0.570702,0.103381,-40.898,0.0876728,
2,0,0,1,0,26799.4,0.0859955,0.0856726,-10.055,14,0.00745641,10,-0.000861441,-1.99762,0.502003,0.117529,-46.0837,0.08567258,
2,0,0,1,0,26799.4,0.083998,0.0836641,-9.95494,14,0.00725635,10,-0.000832871,-2.00196,0.450434,0.130985,-50.8785,0.0836641,
2,0,0,1,0,26799.4,0.0820004,0.0816709,-9.85144,14,0.00705929,10,-0.000804576,-2.0065,0.42479,0.138892,-53.3819,0.08167088,
2,0,0,1,0,26799.4,0.0800028,0.0796754,-9.74202,14,0.00686346,10,-0.000776199,-2.01135,0.411231,0.143472,-54.5505,0.0796754,
2,0,0,1,0,26799.4,0.0780052,0.0776895,-9.63426,14,0.00666981,10,-0.000748481,-2.01618,0.415743,0.141915,-53.3639,0.0776895,
2,0,0,1,0,26799.5,0.0760076,0.0756833,-9.52898,14,0.0064783,10,-0.000721185,-2.02095,0.436189,0.135262,-50.3234,0.0756833,
2,0,0,1,0,26799.5,0.07401,0.0736792,-9.43245,14,0.00628985,10,-0.000694975,-2.02538,0.469653,0.125625,-46.2602,0.0736792,
2,0,0,1,0,26799.5,0.0720124,0.0716595,-9.34284,14,0.00610225,10,-0.000669503,-2.02952,0.478108,0.123403,-44.9918,0.0716595,
2,0,0,1,0,26799.5,0.0700148,0.0696757,-9.25232,14,0.0059164,10,-0.000644662,-2.03375,0.477854,0.123469,-44.5889,0.0696757,
2,0,0,1,0,26799.5,0.0680173,0.0676654,-9.16475,14,0.00573235,10,-0.000620137,-2.03788,0.609849,0.0967453,-34.6723,0.0676654,
2,0,0,1,0,26799.6,0.0660106,0.0656929,-9.11423,14,0.00554977,10,-0.00059874,-2.04028,0.648206,0.0910205,-32.326,0.0656929,
2,0,0,1,0,26799.6,0.0640221,0.063679,-9.03588,14,0.00536928,10,-0.000575396,-2.04403,0.570001,0.103509,-36.5218,0.063679,
2,0,0,1,0,26799.6,0.0620245,0.0616885,-8.96798,14,0.00518934,10,-0.000553221,-2.04731,0.653673,0.0902593,-31.608,0.0616885,
2,0,0,1,0,26799.6,0.0600269,0.0597151,-8.91059,14,0.00501065,10,-0.000532097,-2.05009,0.700325,0.0842467,-29.2941,0.05971507,
2,0,0,1,0,26799.6,0.0580361,0.0577201,-8.85173,14,0.00483407,10,-0.000510922,-2.05297,0.672393,0.0877463,-30.3044,0.05772008,
2,0,0,1,0,26799.7,0.0560317,0.0556855,-8.78848,14,0.00465766,10,-0.000489391,-2.05609,0.662538,0.0890515,-30.5501,0.0556855,
2,0,0,1,0,26799.7,0.0540342,0.0537126,-8.7293,14,0.00448257,10,-0.000468873,-2.05902,0.701009,0.0841644,-28.6804,0.0537126,
2,0,0,1,0,26799.7,0.0520366,0.0517275,-8.67496,14,0.00430852,10,-0.000448734,-2.06173,0.669078,0.0881811,-29.8368,0.0517275,
2,0,0,1,0,26799.7,0.050039,0.0497394,-8.61075,14,0.00413571,10,-0.000428294,-2.06496,0.677372,0.0871013,-29.2877,0.0497394,
2,0,0,1,0,26799.7,0.0480414,0.047698,-8.55694,14,0.0039649,10,-0.000408149,-2.06768,0.710368,0.0830556,-27.7294,0.04769795,
2,0,0,1,0,26799.8,0.0460438,0.0457112,-8.49905,14,0.00379444,10,-0.000388502,-2.07063,0.61418,0.096063,-31.8415,0.0457112,
2,0,0,1,0,26799.8,0.0440462,0.0437062,-8.42984,14,0.00362524,10,-0.000368436,-2.07418,0.559709,0.105412,-34.6784,0.0437062,
2,0,0,1,0,26799.8,0.0420486,0.0417149,-8.36047,14,0.00345743,10,-0.000348756,-2.07777,0.618705,0.0953605,-31.1413,0.0417149,
2,0,0,1,0,26799.8,0.040051,0.0397233,-8.30581,14,0.00329159,10,-0.000329934,-2.08062,0.631263,0.0934635,-30.2729,0.0397233,
2,0,0,1,0,26799.8,0.0380535,0.0376931,-8.23872,14,0.00312615,10,-0.000310543,-2.08414,0.520403,0.113374,-36.4278,0.0376931,
2,0,0,1,0,26799.9,0.0360559,0.0357367,-8.16059,14,0.00296224,10,-0.000291632,-2.08828,0.517826,0.113938,-36.3138,0.0357367,
2,0,0,1,0,26799.9,0.0340583,0.0337308,-8.09483,14,0.00279973,10,-0.000273045,-2.09179,0.541891,0.108878,-34.3834,0.0337308,
2,0,0,1,0,26799.9,0.0320607,0.0317463,-8.02338,14,0.0026394,10,-0.000254713,-2.09564,0.469696,0.125613,-39.2992,0.0317463,
2,0,0,1,0,26799.9,0.0300631,0.0297571,-7.93867,14,0.00247985,10,-0.000236232,-2.10025,0.441932,0.133505,-41.3703,0.0297571,
2,0,0,1,0,26799.9,0.0280655,0.0277364,-7.85749,14,0.002322,10,-0.000217938,-2.10472,0.440719,0.133872,-41.0439,0.0277364,
2,0,0,1,0,26800,0.0260679,0.0257372,-7.77367,14,0.00216578,10,-0.000200072,-2.10937,0.409871,0.143948,-43.6564,0.0257372,
2,0,0,1,0,26800,0.0240704,0.0237911,-7.68525,14,0.00201202,10,-0.00018284,-2.11434,0.393269,0.150025,-44.9893,0.0237911,
2,0,0,1,0,26800,0.0220728,0.021763,-7.59488,14,0.0018593,10,-0.000165288,-2.11948,0.387102,0.152414,-45.167,0.02176304,
2,0,0,1,0,26800,0.0200752,0.0197363,-7.50211,14,0.0017084,10,-0.000148064,-2.12482,0.36859,0.16007,-46.8526,0.0197363,
2,0,0,1,0,26800,0.0180776,0.01773,-7.40592,14,0.00155929,10,-0.000131307,-2.13042,0.398704,0.147979,-42.831,0.01773,
2,0,0,1,0,26800.1,0.01608,0.0157495,-7.33135,14,0.00141275,10,-0.000115465,-2.13482,0.424057,0.139132,-39.7838,0.0157495,
2,0,0,1,0,26800.1,0.0140824,0.0137669,-7.24825,14,0.00126705,10,-9.97862e-05,-2.13977,0.387579,0.152227,-43.0433,0.0137669,
2,0,0,1,0,26800.1,0.0120848,0.0117619,-7.15971,14,0.00112306,10,-8.4212e-05,-2.1451,0.376232,0.156818,-43.8249,0.0117619,
2,0,0,1,0,26800.1,0.0100872,0.00979178,-7.07404,14,0.000980867,10,-6.92675e-05,-2.15033,0.433981,0.135951,-37.5886,0.009791784,
2,0,0,1,0,26800.1,0.00809193,0.00777637,-7.0099,14,0.000840877,10,-5.45116e-05,-2.15429,0.493609,0.119528,-32.6917,0.00777637,
2,0,0,1,0,26800.2,0.00609208,0.00577481,-6.94272,14,0.000701444,10,-4.00929e-05,-2.15847,0.449751,0.131184,-35.5251,0.00577481,
2,0,0,1,0,26800.2,0.00409449,0.0037932,-6.8684,14,0.00056347,10,-2.60532e-05,-2.16314,0.806399,0.0731648,-19.7096,0.0037932,
2,0,0,1,0,26800.2,0.0020969,0.00170878,-6.86258,14,0.000426646,10,-1.17266e-05,-2.16351,0.78663,0.0750035,-19.9855,0.00170878,
2,0,0,1,0,26800.2,9.14991e-05,-0.000278907,-6.78702,14,0.000290311,10,1.89294e-06,-2.16832,0.492112,0.119891,-31.8129,-0.000278907,
2,0,0,1,0,26800.2,-0.00189827,-0.00226933,-6.73603,14,0.000155795,10,1.52862e-05,-2.1716,0.62968,0.0936984,-24.6392,-0.00226933,
2,0,0,1,0,26800.3,-0.00389586,-0.00424735,-6.68924,14,2.16479e-05,10,2.84116e-05,-2.17462,0.802228,0.0735452,-19.2228,-0.00424735,
2,0,0,1,0,26800.3,-0.00589345,-0.00629302,-6.65868,14,-0.000111753,10,4.19032e-05,-2.17661,0.929598,0.0634683,-16.4875,-0.00629302,
2,0,0,1,0,26800.3,-0.00789103,-0.00823121,-6.62355,14,-0.00024451,10,5.45199e-05,-2.17891,1.33756,0.0441101,-11.4236,-0.00823121,
2,0,0,1,0,26800.3,-0.00988862,-0.0102737,-6.61321,14,-0.000376196,10,6.79423e-05,-2.17959,2.08464,0.0283022,-7.29987,-0.0102737,
2,0,0,1,0,26800.3,-0.0118862,-0.0122328,-6.59434,14,-0.00050823,10,8.06671e-05,-2.18083,1.81437,0.0325182,-8.37184,-0.0122328,
2,0,0,1,0,26800.4,-0.0138838,-0.0142001,-6.58034,14,-0.000639994,10,9.34412e-05,-2.18175,4.71169,0.012522,-3.21945,-0.0142001,
2,0,0,1,0,26800.4,-0.0158814,-0.0162715,-6.58134,14,-0.000771563,10,0.000107088,-2.18169,-3.09652,-0.0190536,4.90058,-0.0162715,
2,0,0,1,0,26800.4,-0.017879,-0.0182761,-6.60031,14,-0.000902673,10,0.000120628,-2.18044,-3.23021,-0.0182651,4.69807,-0.0182761,
2,0,0,1,0,26800.4,-0.0198766,-0.0202712,-6.60013,14,-0.00103453,10,0.000133792,-2.18045,-12.3818,-0.00476505,1.22788,-0.0202712,
2,0,0,1,0,26800.4,-0.0218741,-0.0222284,-6.60516,14,-0.00116643,10,0.000146823,-2.18012,-2.31212,-0.0255177,6.58597,-0.0222284,
2,0,0,1,0,26800.5,-0.0238717,-0.0242517,-6.62635,14,-0.0012987,10,0.0001607,-2.17873,-1.09979,-0.0536464,13.8874,-0.0242517,
2,0,0,1,0,26800.5,-0.0258693,-0.026255,-6.66108,14,-0.00143081,10,0.000174887,-2.17646,-1.44507,-0.0408284,10.5922,-0.026255,
2,0,0,1,0,26800.5,-0.0278669,-0.0282496,-6.66869,14,-0.00156393,10,0.000188388,-2.17596,-1.72417,-0.0342193,8.91947,-0.0282496,
2,0,0,1,0,26800.5,-0.0298645,-0.0302499,-6.69671,14,-0.00169754,10,0.000202575,-2.17414,-0.964095,-0.0611973,16.0027,-0.0302499,
2,0,0,1,0,26800.5,-0.0318621,-0.0322129,-6.73212,14,-0.00183177,10,0.000216861,-2.17185,-0.858814,-0.0686994,18.0507,-0.0322129,
2,0,0,1,0,26800.6,-0.0338597,-0.0342248,-6.76846,14,-0.001966,10,0.00023165,-2.16951,-0.882427,-0.0668611,17.6592,-0.0342248,
2,0,0,1,0,26800.6,-0.0358573,-0.0362369,-6.80318,14,-0.00210165,10,0.000246526,-2.16729,-0.817542,-0.0721676,19.1716,-0.0362369,
2,0,0,1,0,26800.6,-0.0378548,-0.0382456,-6.84555,14,-0.0022381,10,0.000261812,-2.16459,-0.818148,-0.0721141,19.2551,-0.0382456,
2,0,0,1,0,26800.6,-0.0398524,-0.0402402,-6.88026,14,-0.00237532,10,0.000276863,-2.1624,-0.682794,-0.0864097,23.242,-0.0402402,
2,0,0,1,0,26800.6,-0.04185,-0.0422545,-6.93872,14,-0.00251271,10,0.000293193,-2.15872,-0.615499,-0.0958571,25.9306,-0.0422545,
2,0,0,1,0,26800.7,-0.0438476,-0.0441993,-6.98292,14,-0.00265188,10,0.00030864,-2.15596,-0.694309,-0.0849766,23.1637,-0.0441993,
2,0,0,1,0,26800.7,-0.0458452,-0.0462282,-7.03077,14,-0.00279195,10,0.00032502,-2.153,-0.647803,-0.091077,24.998,-0.0462282,
2,0,0,1,0,26800.7,-0.0478428,-0.0482063,-7.08309,14,-0.00293295,10,0.00034145,-2.14978,-0.564732,-0.104474,28.9015,-0.0482063,
2,0,0,1,0,26800.7,-0.0498495,-0.0502257,-7.1463,14,-0.00307514,10,0.000358928,-2.14592,-0.554379,-0.106425,29.6648,-0.0502257,
2,0,0,1,0,26800.7,-0.051838,-0.052203,-7.20165,14,-0.00321788,10,0.000375948,-2.14257,-0.59069,-0.0998832,28.0775,-0.052203,
2,0,0,1,0,26800.8,-0.0538355,-0.0542615,-7.25962,14,-0.00336236,10,0.000393918,-2.13909,-0.573957,-0.102795,29.1231,-0.0542615,
2,0,0,1,0,26800.8,-0.0558331,-0.056179,-7.31744,14,-0.00350802,10,0.000411087,-2.13564,-0.533329,-0.110626,31.6101,-0.056179,
2,0,0,1,0,26800.8,-0.0578216,-0.0581929,-7.38389,14,-0.00365423,10,0.00042969,-2.13171,-0.508883,-0.11594,33.4156,-0.0581929,
2,0,0,1,0,26800.8,-0.0598283,-0.0602357,-7.453,14,-0.00380261,10,0.000448936,-2.12767,-0.465446,-0.12676,36.8927,-0.0602357,
2,0,0,1,0,26800.8,-0.0618259,-0.0621969,-7.53161,14,-0.00395235,10,0.000468443,-2.12311,-0.461333,-0.12789,37.5709,-0.0621969,
2,0,0,1,0,26800.9,-0.0638235,-0.0642145,-7.60249,14,-0.00410359,10,0.00048819,-2.11904,-0.490786,-0.120215,35.6685,-0.06421452,
2,0,0,1,0,26800.9,-0.0658211,-0.0661892,-7.67401,14,-0.00425626,10,0.000507936,-2.11498,-0.440432,-0.13396,40.1657,-0.0661892,
2,0,0,1,0,26800.9,-0.0678187,-0.068226,-7.76361,14,-0.0044098,10,0.00052968,-2.10994,-0.426362,-0.13838,41.8925,-0.068226,
2,0,0,1,0,26800.9,-0.0698162,-0.07017,-7.84077,14,-0.00456574,10,0.000550187,-2.10564,-0.462805,-0.127484,39.0079,-0.07017,
2,0,0,1,0,26800.9,-0.0718138,-0.0721729,-7.91757,14,-0.00472329,10,0.000571434,-2.10141,-0.424132,-0.139108,43.0344,-0.07217291,
2,0,0,1,0,26801,-0.0738114,-0.0741854,-8.01357,14,-0.00488255,10,0.00059449,-2.09617,-0.374657,-0.157478,49.2629,-0.0741854,
2,0,0,1,0,26801,-0.075809,-0.0761701,-8.11449,14,-0.005043,10,0.000618082,-2.09074,-0.393117,-0.150083,47.4903,-0.0761701,
2,0,0,1,0,26801,-0.0778066,-0.0781751,-8.20305,14,-0.00520613,10,0.000641274,-2.08602,-0.408079,-0.14458,46.3088,-0.0781751,
2,0,0,1,0,26801,-0.0798042,-0.0801867,-8.30049,14,-0.0053711,10,0.000665589,-2.0809,-0.377674,-0.156219,50.6257,-0.0801867,
2,0,0,1,0,26801,-0.0818018,-0.0821683,-8.4052,14,-0.00553809,10,0.000690641,-2.07545,-0.354828,-0.166278,54.563,-0.0821683,
2,0,0,1,0,26801.1,-0.0837994,-0.0841498,-8.51673,14,-0.0057064,10,0.000716681,-2.06973,-0.379492,-0.155471,51.6258,-0.0841498,
2,0,0,1,0,26801.1,-0.0857969,-0.0861872,-8.61268,14,-0.00587756,10,0.000742303,-2.06486,-0.380949,-0.154876,52.1035,-0.0861872,
2,0,0,1,0,26801.1,-0.0877945,-0.0881378,-8.72452,14,-0.00605091,10,0.00076896,-2.05926,-0.359876,-0.163945,55.8212,-0.0881378,
2,0,0,1,0,26801.1,-0.0897921,-0.0902075,-8.8371,14,-0.00622644,10,0.000797173,-2.05369,-0.375088,-0.157296,54.2231,-0.0902075,
2,0,0,1,0,26801.1,-0.0917897,-0.092151,-8.94212,14,-0.0064032,10,0.000824025,-2.04856,-0.372538,-0.158373,55.288,-0.092151,
2,0,0,1,0,26801.2,-0.0937873,-0.0941309,-9.05402,14,-0.00658306,10,0.000852262,-2.04316,-0.387712,-0.152175,53.745,-0.0941309,
2,0,0,1,0,26801.2,-0.0957849,-0.0961684,-9.15804,14,-0.00676512,10,0.000880714,-2.0382,-0.426546,-0.13832,49.4092,-0.0961684,
2,0,0,1,0,26801.2,-0.0977825,-0.098147,-9.25245,14,-0.0069492,10,0.0009081,-2.03374,-0.399252,-0.147776,53.4216,-0.098147,
2,0,0,1,0,26801.2,-0.0997501,-0.100111,-9.36864,14,-0.00713162,10,0.000937899,-2.02832,0.00825349,7.14849,-2270.15,-0.100111,
2,0,0,1,1,26801.2,-0.0987313,-0.0990884,-7.11543,14,-0.00725739,10,0.000705056,-2.1478,-0.0109845,-5.37121,1456.07,-0.0990884,
2,0,0,1,1,26801.2,-0.0967337,-0.0970981,-4.98231,14,-0.00737664,10,0.000483772,-2.30257,-0.0125799,-4.69001,923.084,-0.0970981,
2,0,0,1,1,26801.3,-0.0947362,-0.0950835,-3.41858,14,-0.00745972,10,0.000325051,-2.46615,-0.0111929,-5.27118,697.771,-0.0950835,
2,0,0,1,1,26801.3,-0.0927386,-0.0930854,-2.18238,14,-0.00751508,10,0.000203147,-2.66107,-0.00867389,-6.80203,556.408,-0.0930854,
2,0,0,1,1,26801.3,-0.090741,-0.0910395,-1.16848,14,-0.00754798,10,0.000106378,-2.93238,-0.00498362,-11.8388,458.472,-0.0910395,
2,0,0,1,1,26801.3,-0.0887434,-0.0890698,-0.341321,14,-0.00756276,10,3.04014e-05,-3.46684,-0.0080624,-7.31792,387.626,-0.0890698,
2,1,0,1,1,26801.3,-0.0867458,-0.0870581,0.374802,14,-0.0075621,10,-3.26296e-05,-3.4262,0.00855925,6.89312,336.697,-0.0870581,
2,1,0,1,1,26801.4,-0.0847482,-0.085132,0.984522,14,-0.00754822,10,-8.38143e-05,-3.00677,0.00643297,9.1715,291.614,-0.085132,
2,1,0,1,1,26801.4,-0.0827529,-0.0831648,1.51016,14,-0.00752327,10,-0.000125592,-2.82098,0.0134522,4.3859,242.909,-0.0831648,
2,1,0,1,1,26801.4,-0.080753,-0.0810916,1.96596,14,-0.00748831,10,-0.000159423,-2.70643,0.0205548,2.87037,213.626,-0.0810916,
2,1,0,1,1,26801.4,-0.0787554,-0.0791495,2.36793,14,-0.00744475,10,-0.000187421,-2.62563,0.0280453,2.10374,190.663,-0.07914947,
2,1,0,1,1,26801.4,-0.0767579,-0.077141,2.7192,14,-0.0073937,10,-0.000209762,-2.56556,0.0372901,1.58219,166.02,-0.077141,
2,1,0,1,1,26801.5,-0.0747603,-0.0751186,3.03714,14,-0.00733602,10,-0.000228146,-2.51754,0.0462987,1.27433,149.688,-0.0751186,
2,1,0,1,1,26801.5,-0.0727627,-0.0731244,3.32044,14,-0.00727258,10,-0.000242805,-2.4788,0.0573269,1.02918,132.238,-0.0731244,
2,1,0,1,1,26801.5,-0.0707651,-0.0711542,3.56138,14,-0.00720365,10,-0.000253407,-2.44838,0.0702741,0.83957,116.144,-0.0711542,
2,1,0,1,1,26801.5,-0.0687675,-0.0691779,3.7788,14,-0.00713014,10,-0.00026141,-2.42265,0.0825979,0.714304,105.032,-0.0691779,
2,1,0,1,1,26801.5,-0.0667699,-0.0671513,3.98181,14,-0.00705241,10,-0.000267384,-2.39992,0.0982625,0.600432,92.9267,-0.0671513,
2,1,0,1,1,26801.6,-0.0647723,-0.0650917,4.15852,14,-0.00697127,10,-0.000270685,-2.38106,0.117257,0.503168,81.3582,-0.0650917,
2,1,0,1,1,26801.6,-0.0627748,-0.0631339,4.30866,14,-0.00688655,10,-0.000272023,-2.36566,0.129818,0.454482,76.393,-0.06313391,
2,1,0,1,1,26801.6,-0.0607772,-0.0611592,4.45893,14,-0.00679883,10,-0.000272705,-2.35077,0.154656,0.381491,66.1162,-0.0611592,
2,1,0,1,1,26801.6,-0.0587796,-0.0590969,4.57557,14,-0.00670851,10,-0.000270402,-2.33955,0.180301,0.327231,58.4368,-0.0590969,
2,1,0,1,1,26801.6,-0.056782,-0.0571242,4.69472,14,-0.00661627,10,-0.000268182,-2.32839,0.202318,0.29162,53.2665,-0.0571242,
2,1,0,1,1,26801.7,-0.0547844,-0.055135,4.78661,14,-0.00652146,10,-0.00026391,-2.31997,0.237915,0.247988,46.3301,-0.055135,
2,1,0,1,1,26801.7,-0.0527868,-0.0531121,4.8806,14,-0.0064248,10,-0.000259219,-2.31153,0.279598,0.211017,40.0797,-0.0531121,
2,1,0,1,1,26801.7,-0.0507892,-0.0511113,4.94788,14,-0.00632655,10,-0.000252892,-2.30558,0.310313,0.19013,36.7591,-0.0511113,
2,1,0,1,1,26801.7,-0.0487916,-0.049103,5.02798,14,-0.00622727,10,-0.000246889,-2.29861,0.324259,0.181953,35.6285,-0.049103,
2,1,0,1,1,26801.7,-0.046794,-0.0471934,5.08747,14,-0.00612611,10,-0.000240095,-2.2935,0.432869,0.1363,27.0285,-0.0471934,
2,1,0,1,1,26801.8,-0.0447965,-0.0451536,5.13472,14,-0.0060239,10,-0.000231851,-2.28948,0.482794,0.122205,24.4957,-0.0451536,
2,1,0,1,1,26801.8,-0.0427989,-0.0432072,5.18511,14,-0.00592073,10,-0.000224034,-2.28524,0.524551,0.112477,22.7381,-0.0432072,
2,1,0,1,1,26801.8,-0.0408013,-0.0411635,5.22545,14,-0.00581713,10,-0.000215098,-2.28188,0.779866,0.075654,15.4015,-0.0411635,
2,1,0,1,1,26801.8,-0.0388037,-0.0391431,5.2477,14,-0.0057123,10,-0.000205412,-2.28003,0.833216,0.07081,14.521,-0.03914313,
2,1,0,1,1,26801.8,-0.0368061,-0.0371415,5.28385,14,-0.00560692,10,-0.00019625,-2.27705,0.781271,0.075518,15.5569,-0.0371415,
2,1,0,1,1,26801.9,-0.0348085,-0.03518,5.30936,14,-0.00550095,10,-0.000186783,-2.27496,0.93087,0.0633816,13.1345,-0.03518,
2,1,0,1,1,26801.9,-0.0328109,-0.0331655,5.33608,14,-0.00539505,10,-0.000176974,-2.27278,1.3055,0.0451936,9.39765,-0.0331655,
2,1,0,1,1,26801.9,-0.0308134,-0.0311687,5.34705,14,-0.00528825,10,-0.000166661,-2.27189,2.30385,0.0256093,5.34378,-0.0311687,
2,1,0,1,1,26801.9,-0.0288158,-0.029181,5.35737,14,-0.0051812,10,-0.000156334,-2.27105,2.29186,0.0257433,5.38295,-0.029181,
2,1,0,1,1,26801.9,-0.0268182,-0.0271487,5.36869,14,-0.00507393,10,-0.000145753,-2.27013,3.39449,0.0173811,3.63898,-0.0271487,
2,1,0,1,1,26802,-0.0248138,-0.0251987,5.37186,14,-0.00496662,10,-0.000135364,-2.26988,5.36015,0.0110071,2.30821,-0.0251987,
2,1,0,1,1,26802,-0.022823,-0.0231977,5.37781,14,-0.00485959,10,-0.000124753,-2.26939,6.45099,0.00914589,1.91879,-0.0231977,
2,1,0,1,1,26802,-0.0208254,-0.0211695,5.37959,14,-0.00475197,10,-0.000113883,-2.26925,-18.8621,-0.00312797,-0.656336,-0.0211695,
2,1,0,1,1,26802,-0.0188278,-0.0192168,5.3752,14,-0.00464446,10,-0.000103294,-2.26961,-11.0657,-0.00533178,-1.11893,-0.0192168,
2,1,0,1,1,26802,-0.0168393,-0.0171734,5.37512,14,-0.00453751,10,-9.23089e-05,-2.26961,8.16923,0.00722222,1.51592,-0.0171734,
2,1,0,1,1,26802.1,-0.0148327,-0.0151796,5.38132,14,-0.00442986,10,-8.16863e-05,-2.26911,-13.9145,-0.00424019,-0.889191,-0.0151796,
2,1,0,1,1,26802.1,-0.0128351,-0.0132067,5.37159,14,-0.00432236,10,-7.09408e-05,-2.2699,-2.87102,-0.0205502,-4.30905,-0.0132067,
2,1,0,1,1,26802.1,-0.0108375,-0.0112329,5.36431,14,-0.00421499,10,-6.02566e-05,-2.27049,-5.47662,-0.0107731,-2.25653,-0.0112329,
2,1,0,1,1,26802.1,-0.00883989,-0.00920614,5.36257,14,-0.00410765,10,-4.93685e-05,-2.27063,-121.923,-0.000483913,-0.101305,-0.00920614,
2,1,0,1,1,26802.1,-0.0068423,-0.00718805,5.3639,14,-0.00400083,10,-3.8556e-05,-2.27052,-6.75563,-0.00873345,-1.82653,-0.00718805,
2,1,0,1,1,26802.2,-0.00484471,-0.00520421,5.35526,14,-0.00389362,10,-2.78699e-05,-2.27122,-7.84015,-0.00752536,-1.57442,-0.00520421,
2,1,0,1,1,26802.2,-0.00284713,-0.00322286,5.35766,14,-0.00378646,10,-1.7267e-05,-2.27102,-19.1058,-0.00308806,-0.645245,-0.00322286,
2,1,0,1,1,26802.2,-0.000849538,-0.00118633,5.35266,14,-0.00367931,10,-6.35001e-06,-2.27143, , , ,-0.00118633,
2,1,0,1,1,26802.2,-2.55332e-05,-0.000382585,5.37557,14,-0.00363595,10,-2.05661e-06,-2.26958, , , ,-0.000382585,