File: Figure_codes/Fig_3-5/rawdata_trumpetplot_data/after 10th/20221101_1-115_003_TrumpetPlot_ParaChange_from10_every3_12_CV_C01_2.csv
mode,ox/red,error,control changes,counter inc.,time/s,control/V,Ewe/V,<I>/mA,cycle number,(Q-Qo)/C,I Range,P/W,log(|I|),Tafel slope mV/dec,alpha_eff,dI/d(E-IR),E-IR/V,
2,1,0,1,0,5136.78,2.44065e-05,-0.000287149,19.1959,3,0.0000000E+000,10,-5.51208e-06,-1.71679, , , ,-0.0002871489,
2,1,0,1,0,5136.79,0.00200257,0.00160674,20.2531,3,6.15551e-05,10,3.25413e-05,-1.69351, , , ,0.00160674,
2,1,0,1,0,5136.79,0.004408,0.004069,21.2479,3,0.000144764,10,8.64578e-05,-1.67268, , , ,0.004069,
2,1,0,1,0,5136.79,0.0068051,0.00648249,22.0532,3,0.000231488,10,0.00014296,-1.65653,0.154747,0.381267,323.978,0.00648249,
2,1,0,1,0,5136.8,0.00920221,0.00884613,22.7527,3,0.000321205,10,0.000201273,-1.64297,0.186126,0.31699,279.117,0.00884613,
2,1,0,1,0,5136.8,0.0115993,0.0112204,23.3677,3,0.00041354,10,0.000262194,-1.63138,0.213835,0.275914,250.14,0.0112204,
2,1,0,1,0,5136.81,0.0140075,0.0136752,23.9292,3,0.000508194,10,0.000327237,-1.62107,0.244723,0.241089,224.062,0.0136752,
2,1,0,1,0,5136.81,0.0164046,0.0160548,24.4476,3,0.00060502,10,0.000392501,-1.61176,0.272752,0.216313,205.546,0.0160548,
2,1,0,1,0,5136.81,0.0188017,0.018463,24.9074,3,0.0007038,10,0.000459865,-1.60367,0.300512,0.196332,190.238,0.01846296,
2,1,0,1,0,5136.82,0.0212099,0.0208902,25.3553,3,0.000804359,10,0.000529677,-1.59593,0.33697,0.17509,172.654,0.0208902,
2,1,0,1,0,5136.82,0.023607,0.0232422,25.7492,3,0.000906618,10,0.000598468,-1.58924,0.365794,0.161293,161.632,0.0232422,
2,1,0,1,0,5136.83,0.0260041,0.0256504,26.1043,3,0.00101036,10,0.000669587,-1.58329,0.396745,0.14871,151.339,0.0256504,
2,1,0,1,0,5136.83,0.0284012,0.0280851,26.4627,3,0.00111552,10,0.000743206,-1.57737,0.425763,0.138575,142.944,0.0280851,
2,1,0,1,0,5136.83,0.0308067,0.0305081,26.8108,3,0.00122213,10,0.000817948,-1.57169,0.442986,0.133187,139.139,0.0305081,
2,1,0,1,0,5136.84,0.0332038,0.0328707,27.1255,3,0.00133004,10,0.000891635,-1.56662,0.466521,0.126468,133.746,0.0328707,
2,1,0,1,0,5136.84,0.0356009,0.0352778,27.4439,3,0.00143922,10,0.000968161,-1.56155,0.486073,0.121381,129.927,0.0352778,
2,1,0,1,0,5136.85,0.0380091,0.0376616,27.7435,3,0.00154962,10,0.00104487,-1.55684,0.493073,0.119658,129.562,0.0376616,
2,1,0,1,0,5136.85,0.0404062,0.040073,28.0536,3,0.00166124,10,0.00112419,-1.55201,0.506731,0.116432,127.464,0.040073,
2,1,0,1,0,5136.85,0.0428033,0.0424939,28.3723,3,0.00177413,10,0.00120565,-1.54711,0.507,0.116371,128.785,0.0424939,
2,1,0,1,0,5136.86,0.0452032,0.0448745,28.6671,3,0.00188824,10,0.00128642,-1.54262,0.515599,0.11443,128.012,0.0448745,
2,1,0,1,0,5136.86,0.0476058,0.0472562,28.9791,3,0.00200358,10,0.00136944,-1.53791,0.521342,0.113169,127.991,0.0472562,
2,1,0,1,0,5136.87,0.0500029,0.0496877,29.2844,3,0.00212014,10,0.00145507,-1.53336,0.504262,0.117003,133.815,0.04968768,
2,1,0,1,0,5136.87,0.0524,0.052045,29.5948,3,0.00223793,10,0.00154026,-1.52878,0.504734,0.116893,135.135,0.052045,
2,1,0,1,0,5136.87,0.0548082,0.0544818,29.9527,3,0.00235704,10,0.00163188,-1.52356,0.497317,0.118637,138.638,0.0544818,
2,1,0,1,0,5136.88,0.0572053,0.0568422,30.2746,3,0.00247754,10,0.00172087,-1.51892,0.486828,0.121193,143.21,0.0568422,
2,1,0,1,0,5136.88,0.0596024,0.0592653,30.6122,3,0.00259936,10,0.00181424,-1.51411,0.492183,0.119874,143.308,0.0592653,
2,1,0,1,0,5136.89,0.0620051,0.061665,30.9725,3,0.00272257,10,0.00190992,-1.50902,0.47757,0.123542,149.404,0.061665,
2,1,0,1,0,5136.89,0.0644077,0.0640392,31.3224,3,0.00284721,10,0.00200586,-1.50415,0.466577,0.126453,154.696,0.06403923,
2,1,0,1,0,5136.89,0.0668048,0.0664591,31.7113,3,0.00297331,10,0.00210751,-1.49879,0.46399,0.127158,157.413,0.0664591,
2,1,0,1,0,5136.9,0.0692019,0.0688323,32.0922,3,0.00310096,10,0.00220898,-1.4936,0.458501,0.12868,161.148,0.0688323,
2,1,0,1,0,5136.9,0.0716074,0.0712383,32.4794,3,0.00323014,10,0.00231378,-1.48839,0.456571,0.129224,163.837,0.0712383,
2,1,0,1,0,5136.91,0.0740045,0.0736242,32.867,3,0.00336087,10,0.00241981,-1.48324,0.447097,0.131962,169.437,0.0736242,
2,1,0,1,0,5136.91,0.0764016,0.0759996,33.2744,3,0.00349321,10,0.00252884,-1.47789,0.43979,0.134155,174.394,0.0759996,
2,1,0,1,0,5136.91,0.0788042,0.078447,33.7212,3,0.00362724,10,0.00264533,-1.4721,0.439271,0.134313,176.701,0.078447,
2,1,0,1,0,5136.92,0.0812069,0.0808318,34.1525,3,0.00376305,10,0.00276061,-1.46658,0.442805,0.133242,177.457,0.0808318,
2,1,0,1,0,5136.92,0.083604,0.0832442,34.5668,3,0.00390053,10,0.00287749,-1.46134,0.445555,0.132419,178.653,0.0832442,
2,1,0,1,0,5136.93,0.0860011,0.0856821,34.9927,3,0.00403968,10,0.00299825,-1.45602,0.454384,0.129846,177.355,0.0856821,
2,1,0,1,0,5136.93,0.0884065,0.0880246,35.4323,3,0.0041806,10,0.00311891,-1.4506,0.452298,0.130445,180.335,0.0880246,
2,1,0,1,0,5136.93,0.0908036,0.0904518,35.8586,3,0.00432323,10,0.00324348,-1.44541,0.448732,0.131482,184.034,0.0904518,
2,1,0,1,0,5136.94,0.0932007,0.0928197,36.2936,3,0.00446758,10,0.00336877,-1.44017,0.446639,0.132098,187.271,0.0928197,
2,1,0,1,0,5136.94,0.0956034,0.0952385,36.7514,3,0.00461371,10,0.00350015,-1.43473,0.440953,0.133801,192.022,0.0952385,
2,1,0,1,0,5136.95,0.098006,0.0976435,37.2337,3,0.00476173,10,0.00363563,-1.42906,0.43619,0.135262,196.544,0.09764351,
2,1,0,1,0,5136.95,0.100403,0.100054,37.7024,3,0.00491165,10,0.00377227,-1.42363,0.438091,0.134675,198.159,0.100054,
2,1,0,1,0,5136.95,0.1028,0.102454,38.1871,3,0.00506347,10,0.0039124,-1.41808,0.446077,0.132264,197.036,0.102454,
2,1,0,1,0,5136.96,0.105208,0.104914,38.6686,3,0.00521723,10,0.00405686,-1.41264,0.453035,0.130233,196.364,0.104914,
2,1,0,1,0,5136.96,0.107606,0.107242,39.125,3,0.00537288,10,0.00419585,-1.40755,0.461057,0.127967,195.37,0.107242,
2,1,0,1,0,5136.97,0.110003,0.109627,39.5823,3,0.00553033,10,0.00433929,-1.4025,0.463422,0.127314,196.75,0.109627,
2,1,0,1,0,5136.97,0.112408,0.112079,40.0676,3,0.00568966,10,0.00449073,-1.39721,0.466778,0.126398,197.665,0.112079,
2,1,0,1,0,5136.97,0.114805,0.114438,40.5425,3,0.00585094,10,0.00463962,-1.39209,0.463288,0.127351,201.514,0.114438,
2,1,0,1,0,5136.98,0.117202,0.116886,41.0311,3,0.00601412,10,0.00479595,-1.38689,0.46122,0.127922,204.877,0.116886,
2,1,0,1,0,5136.98,0.119599,0.119262,41.5238,3,0.00617928,10,0.00495222,-1.3817,0.460605,0.128093,207.633,0.119262,
2,1,0,1,0,5136.99,0.122008,0.121628,42.024,3,0.00634643,10,0.00511128,-1.3765,0.452258,0.130457,214.074,0.121628,
2,1,0,1,0,5136.99,0.124405,0.124071,42.5426,3,0.00651561,10,0.0052783,-1.37118,0.44686,0.132032,219.352,0.124071,
2,1,0,1,0,5136.99,0.126802,0.126454,43.0794,3,0.00668691,10,0.00544755,-1.36573,0.438635,0.134508,226.29,0.1264537,
2,1,0,1,0,5137,0.129207,0.128874,43.6321,3,0.0068604,10,0.00562303,-1.36019,0.43157,0.13671,232.891,0.128874,
2,1,0,1,0,5137,0.131604,0.131287,44.2098,3,0.00703615,10,0.00580417,-1.35448,0.425317,0.13872,239.38,0.131287,
2,1,0,1,0,5137.01,0.134001,0.133667,44.7774,3,0.00721419,10,0.00598523,-1.34894,0.412175,0.143143,250.398,0.133667,
2,1,0,1,0,5137.01,0.136399,0.136038,45.3736,3,0.00739455,10,0.00617252,-1.3432,0.409442,0.144098,255.435,0.136038,
2,1,0,1,0,5137.01,0.138807,0.138467,46.0343,3,0.00757744,10,0.00637424,-1.33692,0.401417,0.146979,264.064,0.138467,
2,1,0,1,0,5137.02,0.141204,0.140857,46.6543,3,0.00776288,10,0.0065716,-1.33111,0.397689,0.148357,270.168,0.140857,
2,1,0,1,0,5137.02,0.143601,0.143281,47.3162,3,0.00795088,10,0.00677953,-1.32499,0.401257,0.147038,271.541,0.143281,
2,1,0,1,0,5137.03,0.146009,0.145663,47.974,3,0.00814151,10,0.00698804,-1.31899,0.40036,0.147367,275.876,0.145663,
2,1,0,1,0,5137.03,0.148406,0.148021,48.6287,3,0.00833477,10,0.00719808,-1.31311,0.404967,0.145691,276.488,0.148021,
2,1,0,1,0,5137.03,0.150803,0.150468,49.3056,3,0.0085307,10,0.0074189,-1.3071,0.412591,0.142999,275.054,0.150468,
2,1,0,1,0,5137.04,0.153206,0.152851,49.9623,3,0.00872929,10,0.00763681,-1.30136,0.420503,0.140308,273.426,0.152851,
2,1,0,1,0,5137.04,0.155606,0.155288,50.6215,3,0.00893054,10,0.00786093,-1.29566,0.432307,0.136477,269.424,0.155288,
2,1,0,1,0,5137.05,0.158003,0.157651,51.2617,3,0.00913437,10,0.00808144,-1.29021,0.440032,0.134081,268.12,0.157651,
2,1,0,1,0,5137.05,0.1604,0.160039,51.8843,3,0.00934073,10,0.00830351,-1.28496,0.453311,0.130154,263.477,0.1600389,
2,1,0,1,0,5137.05,0.162808,0.162452,52.5365,3,0.00954964,10,0.00853468,-1.27954,0.476272,0.123879,253.678,0.162452,
2,1,0,1,0,5137.06,0.165205,0.164849,53.1405,3,0.00976106,10,0.00876016,-1.27457,0.49276,0.119734,247.996,0.164849,
2,1,0,1,0,5137.06,0.167602,0.167263,53.7002,3,0.00997479,10,0.00898208,-1.27002,0.528006,0.111741,233.979,0.167263,
2,1,0,1,0,5137.07,0.170008,0.16969,54.2777,3,0.0101908,10,0.00921036,-1.26538,0.558795,0.105584,223.367,0.16969,
2,1,0,1,0,5137.07,0.172405,0.17207,54.7869,3,0.010409,10,0.00942719,-1.26132,0.593827,0.0993556,212.151,0.17207,
2,1,0,1,0,5137.07,0.174802,0.174461,55.2877,3,0.0106292,10,0.00964557,-1.25737,0.656453,0.089877,193.626,0.174461,
2,1,0,1,0,5137.08,0.177199,0.176869,55.7379,3,0.0108514,10,0.00985829,-1.25385,0.733617,0.0804234,174.573,0.176869,
2,1,0,1,0,5137.08,0.179607,0.179286,56.1359,3,0.0110752,10,0.0100644,-1.25076,0.871357,0.0677105,147.965,0.179286,
2,1,0,1,0,5137.09,0.182005,0.181662,56.4613,3,0.0113004,10,0.0102568,-1.24825,1.09113,0.0540724,118.818,0.181662,
2,1,0,1,0,5137.09,0.184402,0.184046,56.7059,3,0.0115268,10,0.0104365,-1.24637,1.60497,0.0367607,81.0925,0.184046,
2,1,0,1,0,5137.09,0.18681,0.186436,56.8746,3,0.0117539,10,0.0106035,-1.24508,3.57393,0.0165084,36.4893,0.186436,
2,1,0,1,0,5137.1,0.189207,0.188881,56.9139,3,0.0119816,10,0.0107499,-1.24478,-10.2972,-0.00572972,-12.6666,0.188881,
2,1,0,1,0,5137.1,0.191604,0.19128,56.8122,3,0.0122091,10,0.010867,-1.24556,-1.92497,-0.0306498,-67.6406,0.19128,
2,1,0,1,0,5137.11,0.194001,0.193671,56.584,3,0.0124359,10,0.0109587,-1.24731,-0.999933,-0.059004,-129.622,0.193671,
2,1,0,1,0,5137.11,0.196407,0.196082,56.2221,3,0.0126615,10,0.0110242,-1.25009,-0.67027,-0.0880242,-191.972,0.1960821,
2,1,0,1,0,5137.11,0.198804,0.198468,55.6712,3,0.0128853,10,0.011049,-1.25437,-0.489922,-0.120427,-260.007,0.198468,
2,1,0,1,0,5137.12,0.201201,0.200919,54.9618,3,0.0131065,10,0.0110428,-1.25994,-0.375947,-0.156937,-334.414,0.200919,
2,1,0,1,0,5137.12,0.203609,0.203308,54.0783,3,0.0133246,10,0.0109945,-1.26698,-0.309047,-0.190909,-400.228,0.203308,
2,1,0,1,0,5137.13,0.206006,0.205687,53.01,3,0.0135387,10,0.0109035,-1.27564,-0.259717,-0.227171,-467.111,0.205687,
2,1,0,1,0,5137.13,0.208403,0.208115,51.8104,3,0.0137482,10,0.0107825,-1.28558,-0.227822,-0.258974,-520.77,0.208115,
2,1,0,1,0,5137.13,0.210803,0.210522,50.4761,3,0.0139527,10,0.0106263,-1.29691,-0.202946,-0.290717,-569.727,0.210522,
2,1,0,1,0,5137.14,0.213206,0.212953,49.0553,3,0.0141517,10,0.0104465,-1.30931,-0.184071,-0.320529,-610.639,0.212953,
2,1,0,1,0,5137.14,0.215603,0.215324,47.5196,3,0.0143447,10,0.0102321,-1.32313,-0.171784,-0.343454,-634.737,0.215324,
2,1,0,1,0,5137.15,0.218,0.217732,45.9373,3,0.0145314,10,0.010002,-1.33783,-0.16119,-0.366028,-654.946,0.217732,
2,1,0,1,0,5137.15,0.220408,0.22015,44.3645,3,0.0147119,10,0.00976686,-1.35296,-0.155688,-0.378964,-655.208,0.22015,
2,1,0,1,0,5137.15,0.222805,0.222527,42.7852,3,0.014886,10,0.00952085,-1.36871,-0.152331,-0.387314,-646.303,0.222527,
2,1,0,1,0,5137.16,0.225202,0.224921,41.2318,3,0.0150538,10,0.00927389,-1.38477,-0.149345,-0.395059,-635.943,0.224921,
2,1,0,1,0,5137.16,0.227605,0.227341,39.7274,3,0.0152156,10,0.00903166,-1.40091,-0.149756,-0.393975,-611.724,0.227341,
2,1,0,1,0,5137.17,0.230008,0.229719,38.2791,3,0.0153715,10,0.00879345,-1.41704,-0.153046,-0.385506,-577.538,0.229719,
2,1,0,1,0,5137.17,0.232405,0.2321,36.929,3,0.0155217,10,0.00857122,-1.43263,-0.156553,-0.376868,-544.993,0.2321,
2,1,0,1,0,5137.17,0.234802,0.23454,35.6765,3,0.0156668,10,0.00836756,-1.44762,-0.162566,-0.362929,-506.913,0.23454,
2,1,0,1,0,5137.18,0.237207,0.236926,34.5037,3,0.015807,10,0.00817481,-1.46213,-0.168764,-0.349601,-472.284,0.236926,
2,1,0,1,0,5137.18,0.239604,0.239327,33.4091,3,0.0159427,10,0.00799567,-1.47614,-0.176369,-0.334526,-437.851,0.239327,
2,1,0,1,0,5137.19,0.242002,0.241689,32.4001,3,0.0160742,10,0.00783076,-1.48945,-0.186913,-0.315654,-400.982,0.241689,
2,1,0,1,0,5137.19,0.244404,0.24411,31.4862,3,0.0162019,10,0.00768609,-1.50188,-0.198436,-0.297325,-366.969,0.24411,
2,1,0,1,0,5137.19,0.246807,0.246483,30.6713,3,0.0163261,10,0.00755996,-1.51327,-0.213678,-0.276117,-331.674,0.246483,
2,1,0,1,0,5137.2,0.249204,0.248872,29.906,3,0.0164472,10,0.00744279,-1.52424,-0.227293,-0.259576,-304.027,0.248872,
2,1,0,1,0,5137.2,0.251601,0.251299,29.2129,3,0.0165653,10,0.00734117,-1.53442,-0.243061,-0.242737,-277.683,0.251299,
2,1,0,1,0,5137.21,0.254006,0.253659,28.583,3,0.0166808,10,0.00725034,-1.54389,-0.263124,-0.224229,-250.989,0.253659,
2,1,0,1,0,5137.21,0.256404,0.256124,27.9941,3,0.0167939,10,0.00716997,-1.55293,-0.282593,-0.208781,-228.96,0.256124,
2,1,0,1,0,5137.21,0.258801,0.258497,27.4905,3,0.0169048,10,0.00710619,-1.56082,-0.304224,-0.193936,-208.643,0.258497,
2,1,0,1,0,5137.22,0.261203,0.260896,27.0155,3,0.0170138,10,0.00704823,-1.56839,-0.326603,-0.180647,-190.86,0.260896,
2,1,0,1,0,5137.22,0.263606,0.263285,26.5745,3,0.0171209,10,0.00699669,-1.57553,-0.344651,-0.171187,-177.894,0.263285,
2,1,0,1,0,5137.23,0.266003,0.265681,26.1702,3,0.0172264,10,0.00695291,-1.58219,-0.377473,-0.156302,-160.052,0.265681,
2,1,0,1,0,5137.23,0.2684,0.268099,25.7823,3,0.0173302,10,0.00691221,-1.58868,-0.406424,-0.145169,-146.533,0.268099,
2,1,0,1,0,5137.23,0.270808,0.270517,25.4756,3,0.0174327,10,0.00689159,-1.59388,-0.430327,-0.137105,-136.493,0.270517,
2,1,0,1,0,5137.24,0.273205,0.272893,25.1668,3,0.017534,10,0.00686782,-1.59917,-0.468836,-0.125844,-123.695,0.272893,
2,1,0,1,0,5137.24,0.275603,0.275286,24.8591,3,0.017634,10,0.00684337,-1.60451,-0.483175,-0.122109,-118.674,0.275286,
2,1,0,1,0,5137.25,0.278008,0.277668,24.5987,3,0.0177329,10,0.00683026,-1.60909,-0.512161,-0.115198,-110.739,0.2776677,
2,1,0,1,0,5137.25,0.280405,0.280101,24.3382,3,0.0178307,10,0.00681717,-1.61371,-0.556434,-0.106032,-100.854,0.2801013,
2,1,0,1,0,5137.25,0.282802,0.28249,24.1039,3,0.0179276,10,0.00680912,-1.61791,-0.5811,-0.101532,-95.6358,0.2824904,
2,1,0,1,0,5137.26,0.285199,0.284881,23.8915,3,0.0180236,10,0.00680622,-1.62176,-0.6184,-0.0954075,-89.0183,0.284881,
2,1,0,1,0,5137.26,0.287608,0.287294,23.6781,3,0.0181187,10,0.00680256,-1.62565,-0.646325,-0.0912854,-84.423,0.287294,
2,1,0,1,0,5137.27,0.290005,0.289722,23.4818,3,0.018213,10,0.00680319,-1.62927,-0.682804,-0.0864083,-79.2758,0.289722,
2,1,0,1,0,5137.27,0.292402,0.292072,23.295,3,0.0183065,10,0.00680382,-1.63274,-0.722256,-0.0816885,-74.343,0.292072,
2,1,0,1,0,5137.27,0.294807,0.294495,23.1293,3,0.0183994,10,0.00681146,-1.63584,-0.747091,-0.078973,-71.3283,0.294495,
2,1,0,1,0,5137.28,0.297204,0.296896,22.9642,3,0.0184915,10,0.00681798,-1.63895,-0.760107,-0.0776207,-69.7493,0.296896,
2,1,0,1,0,5137.28,0.299421,0.299175,22.8075,3,0.0185762,10,0.00682344,-1.64192,-0.0943898,-0.625067,-533.699,0.299175,
2,1,0,0,0,5137.28,0.300012,0.299785,22.757,3,0.018599,10,0.00682221,-1.64288,0.00130217,45.3089,33244,0.299785,
2,1,0,1,0,5137.28,0.299243,0.299098,20.6725,3,0.0186264,10,0.00618312,-1.68461,0.0155484,3.79459,2394.82,0.299098,
2,1,0,1,0,5137.29,0.296846,0.296662,15.1731,3,0.0186971,10,0.00450129,-1.81892,0.0168176,3.50823,1891.4,0.296662,
2,1,0,1,0,5137.29,0.294449,0.294231,10.9672,3,0.0187486,10,0.00322688,-1.95991,0.0152796,3.86135,1640.77,0.294231,
2,1,0,1,0,5137.3,0.292041,0.291767,7.59214,3,0.0187852,10,0.00221513,-2.11964,0.0123527,4.77629,1309.38,0.291767,
2,1,0,1,0,5137.3,0.289644,0.289437,4.82049,3,0.0188096,10,0.00139523,-2.31691,0.00736748,8.00816,1083.25,0.289437,
2,1,0,1,0,5137.3,0.287247,0.28698,2.49643,3,0.0188239,10,0.000716425,-2.60268,0.0114771,5.14066,903.256,0.28698,
2,1,0,1,0,5137.31,0.284841,0.284607,0.541726,3,0.0188297,10,0.000154179,-3.26622,0.0337365,1.74885,758.199,0.284607,
2,0,0,1,0,5137.31,0.282444,0.282143,-1.10104,3,0.0188284,10,-0.00031065,-2.9582,-0.0560402,-1.05282,643.781,0.282143,
2,0,0,1,0,5137.32,0.280047,0.279788,-2.49511,3,0.018821,10,-0.000698104,-2.60291,-0.0102233,-5.77112,550.7,0.279788,
2,0,0,1,0,5137.32,0.27765,0.27734,-3.70972,3,0.0188084,10,-0.00102885,-2.43066,-0.013414,-4.39839,479.806,0.27734,
2,0,0,1,0,5137.32,0.275242,0.274935,-4.78462,3,0.0187912,10,-0.00131546,-2.32015,-0.0231212,-2.55177,416.995,0.274935,
2,0,0,1,0,5137.33,0.272845,0.27257,-5.6939,3,0.0187702,10,-0.00155199,-2.24459,-0.0330781,-1.78366,367.311,0.27257,
2,0,0,1,0,5137.33,0.270448,0.270156,-6.5119,3,0.0187456,10,-0.00175923,-2.18629,-0.0443925,-1.32905,321.294,0.270156,
2,0,0,1,0,5137.34,0.268039,0.267749,-7.23274,3,0.0187181,10,-0.00193656,-2.1407,-0.0564429,-1.04531,284.569,0.267749,
2,0,0,1,0,5137.34,0.265642,0.265372,-7.85707,3,0.0186878,10,-0.00208505,-2.10474,-0.069254,-0.851937,254.977,0.265372,
2,0,0,1,0,5137.34,0.263245,0.262932,-8.43657,3,0.0186552,10,-0.00221825,-2.07383,-0.0834319,-0.707163,228.577,0.262932,
2,0,0,1,0,5137.35,0.260843,0.260573,-8.95533,3,0.0186203,10,-0.00233351,-2.04792,-0.0977974,-0.603288,207.594,0.260573,
2,0,0,1,0,5137.35,0.258443,0.258141,-9.42875,3,0.0185835,10,-0.00243395,-2.02555,-0.114253,-0.516397,187.591,0.258141,
2,0,0,1,0,5137.36,0.256046,0.255761,-9.85238,3,0.0185448,10,-0.00251985,-2.00646,-0.12941,-0.455914,173.774,0.2557607,
2,0,0,1,0,5137.36,0.253649,0.25333,-10.2378,3,0.0185046,10,-0.00259355,-1.98979,-0.145994,-0.404126,160.534,0.25333,
2,0,0,1,0,5137.36,0.25124,0.250963,-10.6252,3,0.0184628,10,-0.00266653,-1.97366,-0.164563,-0.358526,147.546,0.250963,
2,0,0,1,0,5137.37,0.248843,0.248558,-10.9671,3,0.0184196,10,-0.00272597,-1.95991,-0.178098,-0.331279,140.873,0.248558,
2,0,0,1,0,5137.37,0.246446,0.246159,-11.2691,3,0.0183751,10,-0.00277399,-1.94811,-0.202377,-0.291536,127.751,0.246159,
2,0,0,1,0,5137.38,0.244041,0.243789,-11.582,3,0.0183294,10,-0.00282355,-1.93622,-0.218483,-0.270044,121.617,0.243789,
2,0,0,1,0,5137.38,0.241644,0.241348,-11.8536,3,0.0182825,10,-0.00286084,-1.92615,-0.23424,-0.251878,116.167,0.241348,
2,0,0,1,0,5137.38,0.239247,0.23898,-12.1321,3,0.0182345,10,-0.00289932,-1.91607,-0.256205,-0.230284,108.746,0.2389798,
2,0,0,1,0,5137.39,0.236849,0.236564,-12.3837,3,0.0181854,10,-0.00292954,-1.90715,-0.268422,-0.219803,105.97,0.236564,
2,0,0,1,0,5137.39,0.234441,0.234121,-12.6333,3,0.0181353,10,-0.00295772,-1.89848,-0.290502,-0.203097,99.9298,0.234121,
2,0,0,1,0,5137.4,0.232044,0.231784,-12.8671,3,0.0180843,10,-0.00298239,-1.89052,-0.301521,-0.195674,98.1238,0.231784,
2,0,0,1,0,5137.4,0.229647,0.229342,-13.0952,3,0.0180323,10,-0.00300327,-1.88289,-0.317691,-0.185715,94.8131,0.229342,
2,0,0,1,0,5137.4,0.227239,0.226958,-13.3263,3,0.0179795,10,-0.0030245,-1.87529,-0.340671,-0.173188,89.8609,0.226958,
2,0,0,1,0,5137.41,0.224842,0.224556,-13.5402,3,0.0179257,10,-0.00304053,-1.86838,-0.353644,-0.166835,87.9772,0.224556,
2,0,0,1,0,5137.41,0.222445,0.222154,-13.7324,3,0.0178712,10,-0.00305072,-1.86225,-0.369174,-0.159816,85.6705,0.2221543,
2,0,0,1,0,5137.42,0.220047,0.219766,-13.9376,3,0.0178158,10,-0.00306302,-1.85581,-0.382954,-0.154065,83.805,0.219766,
2,0,0,1,0,5137.42,0.217642,0.217306,-14.1532,3,0.0177596,10,-0.00307557,-1.84915,-0.382906,-0.154085,85.003,0.217306,
2,0,0,1,0,5137.42,0.215245,0.214969,-14.3436,3,0.0177025,10,-0.00308343,-1.84334,-0.390996,-0.150897,84.4493,0.214969,
2,0,0,1,0,5137.43,0.212848,0.212579,-14.5464,3,0.0176447,10,-0.00309225,-1.83725,-0.412531,-0.143019,81.1503,0.212579,
2,0,0,1,0,5137.43,0.21044,0.210143,-14.7503,3,0.0175861,10,-0.00309967,-1.8312,-0.412655,-0.142977,82.2278,0.210143,
2,0,0,1,0,5137.44,0.208042,0.207714,-14.9316,3,0.0175268,10,-0.00310149,-1.82589,-0.428526,-0.137681,80.2169,0.207714,
2,0,0,1,0,5137.44,0.205645,0.20533,-15.1362,3,0.0174666,10,-0.00310792,-1.81998,-0.431709,-0.136666,80.7297,0.20533,
2,0,0,1,0,5137.44,0.203246,0.202959,-15.318,3,0.0174057,10,-0.00310893,-1.8148,-0.431065,-0.13687,81.8438,0.202959,
2,0,0,1,0,5137.45,0.200843,0.200507,-15.5282,3,0.017344,10,-0.00311351,-1.80888,-0.448265,-0.131619,79.7011,0.200507,
2,0,0,1,0,5137.45,0.198446,0.198094,-15.7189,3,0.0172814,10,-0.00311382,-1.80358,-0.433361,-0.136145,83.5071,0.198094,
2,0,0,1,0,5137.46,0.196049,0.195717,-15.9023,3,0.0172182,10,-0.00311236,-1.79854,-0.434679,-0.135732,84.374,0.195717,
2,0,0,1,0,5137.46,0.19364,0.193332,-16.1219,3,0.0171541,10,-0.00311689,-1.79258,-0.436242,-0.135246,85.0989,0.193332,
2,0,0,1,0,5137.46,0.191243,0.190949,-16.3347,3,0.0170892,10,-0.00311908,-1.78689,-0.425722,-0.138588,88.2829,0.190949,
2,0,0,1,0,5137.47,0.188846,0.188526,-16.5332,3,0.0170235,10,-0.00311692,-1.78164,-0.432108,-0.13654,88.142,0.188526,
2,0,0,1,0,5137.47,0.186444,0.186115,-16.75,3,0.0169569,10,-0.00311744,-1.77598,-0.431648,-0.136685,89.401,0.186115,
2,0,0,1,0,5137.48,0.184041,0.183743,-16.9671,3,0.0168894,10,-0.0031176,-1.77039,-0.407765,-0.144691,95.918,0.183743,
2,0,0,1,0,5137.48,0.181644,0.181367,-17.1913,3,0.0168211,10,-0.00311793,-1.76469,-0.393701,-0.14986,100.751,0.181367,
2,0,0,1,0,5137.48,0.179247,0.178995,-17.4473,3,0.0167517,10,-0.00312298,-1.75827,-0.384081,-0.153613,104.712,0.178995,
2,0,0,1,0,5137.49,0.176841,0.176566,-17.7121,3,0.0166814,10,-0.00312736,-1.75173,-0.370549,-0.159223,110.087,0.176566,
2,0,0,1,0,5137.49,0.174444,0.174115,-17.9754,3,0.01661,10,-0.00312977,-1.74532,-0.364969,-0.161658,113.498,0.174115,
2,0,0,1,0,5137.5,0.172047,0.171737,-18.2514,3,0.0165376,10,-0.00313444,-1.7387,-0.347845,-0.169616,121.077,0.1717373,
2,0,0,1,0,5137.5,0.169644,0.169335,-18.5436,3,0.016464,10,-0.0031401,-1.7318,-0.330575,-0.178477,129.461,0.169335,
2,0,0,1,0,5137.5,0.167242,0.166905,-18.8819,3,0.0163891,10,-0.00315148,-1.72395,-0.31433,-0.187701,138.519,0.166905,
2,0,0,1,0,5137.51,0.164845,0.164571,-19.2109,3,0.0163129,10,-0.00316156,-1.71645,-0.299532,-0.196974,147.948,0.164571,
2,0,0,1,0,5137.51,0.162448,0.162124,-19.5831,3,0.0162352,10,-0.00317488,-1.70812,-0.287228,-0.205412,157.312,0.162124,
2,0,0,1,0,5137.52,0.160042,0.159725,-19.9655,3,0.0161561,10,-0.00318899,-1.69972,-0.26971,-0.218754,170.901,0.159725,
2,0,0,1,0,5137.52,0.157645,0.157357,-20.3839,3,0.0160754,10,-0.00320755,-1.69071,-0.255158,-0.231229,184.57,0.157357,
2,0,0,1,0,5137.52,0.155248,0.154992,-20.8479,3,0.0159929,10,-0.00323126,-1.68094,-0.242062,-0.24374,198.854,0.154992,
2,0,0,1,0,5137.53,0.152845,0.152561,-21.3481,3,0.0159084,10,-0.00325688,-1.67064,-0.229243,-0.257368,214.954,0.152561,
2,0,0,1,0,5137.53,0.150443,0.150133,-21.873,3,0.0158219,10,-0.00328385,-1.66009,-0.220507,-0.267565,229.039,0.150133,
2,0,0,1,0,5137.54,0.148046,0.147742,-22.4506,3,0.0157332,10,-0.0033169,-1.64877,-0.207822,-0.283897,249.58,0.147742,
2,0,0,1,0,5137.54,0.145648,0.145347,-23.0571,3,0.0156422,10,-0.00335128,-1.6372,-0.197055,-0.299409,270.46,0.145347,
2,0,0,1,0,5137.54,0.14324,0.14295,-23.7466,3,0.0155485,10,-0.00339459,-1.6244,-0.187832,-0.31411,291.955,0.14295,
2,0,0,1,0,5137.55,0.140843,0.14054,-24.4674,3,0.015452,10,-0.00343865,-1.61141,-0.180479,-0.326907,312.971,0.14054,
2,0,0,1,0,5137.55,0.138446,0.138202,-25.236,3,0.0153525,10,-0.00348766,-1.59798,-0.17516,-0.336836,332.67,0.138202,
2,0,0,1,0,5137.56,0.136041,0.135731,-26.0665,3,0.0152499,10,-0.00353804,-1.58392,-0.168946,-0.349224,356.146,0.135731,
2,0,0,1,0,5137.56,0.133644,0.133372,-26.9332,3,0.0151438,10,-0.00359212,-1.56971,-0.164832,-0.357941,377.337,0.133372,
2,0,0,1,0,5137.56,0.131246,0.130989,-27.8689,3,0.0150341,10,-0.00365053,-1.55488,-0.160177,-0.368343,401.781,0.130989,
2,0,0,1,0,5137.57,0.128849,0.128573,-28.8692,3,0.0149206,10,-0.00371181,-1.53957,-0.157826,-0.373828,421.805,0.128573,
2,0,0,1,0,5137.57,0.126441,0.126138,-29.921,3,0.0148029,10,-0.00377417,-1.52402,-0.156909,-0.376013,439.087,0.126138,
2,0,0,1,0,5137.58,0.124044,0.123766,-30.9851,3,0.014681,10,-0.00383489,-1.50885,-0.158199,-0.372948,451.049,0.123766,
2,0,0,1,0,5137.58,0.121647,0.121416,-32.0725,3,0.0145547,10,-0.0038941,-1.49387,-0.158611,-0.37198,465.834,0.1214157,
2,0,0,1,0,5137.58,0.119241,0.118948,-33.2107,3,0.0144241,10,-0.00395034,-1.47872,-0.162319,-0.363482,470.745,0.118948,
2,0,0,1,0,5137.59,0.116844,0.116613,-34.3579,3,0.0142888,10,-0.00400658,-1.46397,-0.167463,-0.352316,471.633,0.116613,
2,0,0,1,0,5137.59,0.114447,0.114204,-35.4862,3,0.014149,10,-0.00405266,-1.44994,-0.171403,-0.344218,476.14,0.114204,
2,0,0,1,0,5137.6,0.11205,0.111751,-36.6306,3,0.0140046,10,-0.00409351,-1.43616,-0.180166,-0.327475,467.065,0.111751,
2,0,0,1,0,5137.6,0.109642,0.109363,-37.7745,3,0.0138557,10,-0.00413113,-1.4228,-0.187815,-0.314139,461.68,0.109363,
2,0,0,1,0,5137.6,0.107245,0.10705,-38.8243,3,0.0137023,10,-0.00415616,-1.4109,-0.192945,-0.305787,463,0.10705,
2,0,0,1,0,5137.61,0.104848,0.104608,-39.9163,3,0.0135447,10,-0.00417558,-1.39885,-0.203092,-0.290508,452.257,0.104608,
2,0,0,1,0,5137.61,0.10244,0.102212,-41.0473,3,0.0133827,10,-0.00419552,-1.38671,-0.211774,-0.278599,445.001,0.102212,
2,0,0,1,0,5137.62,0.100042,0.0998364,-42.083,3,0.0132163,10,-0.00420141,-1.37589,-0.221477,-0.266393,436.432,0.0998364,
2,0,0,1,0,5137.62,0.0976454,0.0974293,-43.1057,3,0.0130458,10,-0.00419976,-1.36547,-0.237308,-0.248622,417.41,0.0974293,
2,0,0,1,0,5137.62,0.0952427,0.0949967,-44.1111,3,0.0128713,10,-0.00419041,-1.35545,-0.252962,-0.233236,400.394,0.0949967,
2,0,0,1,0,5137.63,0.0928428,0.0926161,-45.0526,3,0.0126929,10,-0.0041726,-1.34628,-0.270405,-0.218191,382.484,0.0926161,
2,0,0,1,0,5137.63,0.0904457,0.0901825,-45.9484,3,0.0125108,10,-0.00414374,-1.33773,-0.288732,-0.204342,365.536,0.0901825,
2,0,0,1,0,5137.64,0.0880486,0.0878263,-46.7787,3,0.0123252,10,-0.0041084,-1.32995,-0.309198,-0.190816,347.747,0.0878263,
2,0,0,1,0,5137.64,0.0856404,0.0854361,-47.6059,3,0.0121364,10,-0.00406726,-1.32234,-0.331912,-0.177758,329.572,0.0854361,
2,0,0,1,0,5137.64,0.0832433,0.0830481,-48.3799,3,0.0119443,10,-0.00401786,-1.31534,-0.354451,-0.166455,313.589,0.0830481,
2,0,0,1,0,5137.65,0.0808462,0.0806187,-49.1003,3,0.0117493,10,-0.0039584,-1.30892,-0.387094,-0.152418,291.495,0.0806187,
2,0,0,1,0,5137.65,0.0784408,0.0781978,-49.7981,3,0.0115514,10,-0.0038941,-1.30279,-0.42644,-0.138355,268.194,0.0781978,
2,0,0,1,0,5137.66,0.0760437,0.0757493,-50.4295,3,0.0113509,10,-0.00382,-1.29732,-0.467767,-0.126131,247.52,0.0757493,
2,0,0,1,0,5137.66,0.0736466,0.0733443,-50.9824,3,0.011148,10,-0.00373927,-1.29258,-0.531856,-0.110932,220.151,0.07334429,
2,0,0,1,0,5137.66,0.0712495,0.0709828,-51.4854,3,0.010943,10,-0.00365458,-1.28832,-0.615176,-0.0959075,192.197,0.0709828,
2,0,0,1,0,5137.67,0.0688413,0.0685661,-51.9185,3,0.0107361,10,-0.00355985,-1.28468,-0.715294,-0.0824836,166.663,0.0685661,
2,0,0,1,0,5137.67,0.0664442,0.0661261,-52.2791,3,0.0105276,10,-0.00345701,-1.28167,-0.877194,-0.0672599,136.872,0.0661261,
2,0,0,1,0,5137.68,0.0640471,0.0638006,-52.573,3,0.0103179,10,-0.00335419,-1.27924,-1.10408,-0.053438,109.366,0.06380064,
2,0,0,1,0,5137.68,0.0616389,0.0613373,-52.8056,3,0.0101071,10,-0.00323895,-1.27732,-1.50576,-0.0391829,80.5352,0.0613373,
2,0,0,1,0,5137.68,0.0592417,0.05898,-52.9669,3,0.00989552,10,-0.00312399,-1.276,-2.33974,-0.0252164,51.9853,0.05898,
2,0,0,1,0,5137.69,0.0568446,0.0565082,-53.0536,3,0.00968344,10,-0.00299797,-1.27528,-4.52426,-0.0130408,26.9408,0.0565082,
2,0,0,1,0,5137.69,0.0544475,0.0541202,-53.0762,3,0.00947115,10,-0.0028725,-1.2751,-232.816,-0.000253419,0.523875,0.0541202,
2,0,0,1,0,5137.7,0.0520421,0.0517194,-53.0647,3,0.00925883,10,-0.00274448,-1.27519,6.06814,0.00972291,-20.0948,0.0517194,
2,0,0,1,0,5137.7,0.049645,0.0493399,-52.9719,3,0.00904675,10,-0.00261363,-1.27595,3.15328,0.0187107,-38.6216,0.0493399,
2,0,0,1,0,5137.7,0.0472479,0.0469126,-52.8608,3,0.00883509,10,-0.00247984,-1.27687,2.0456,0.0288425,-59.411,0.0469126,
2,0,0,1,0,5137.71,0.0448397,0.0445118,-52.7051,3,0.00862399,10,-0.002346,-1.27815,1.65699,0.0356068,-73.1219,0.0445118,
2,0,0,1,0,5137.71,0.0424426,0.0421599,-52.4968,3,0.00841361,10,-0.00221326,-1.27987,1.38257,0.042674,-87.337,0.0421599,
2,0,0,1,0,5137.72,0.0400455,0.0397337,-52.2695,3,0.00820411,10,-0.00207686,-1.28175,1.24488,0.047394,-96.6302,0.0397337,
2,0,0,1,0,5137.72,0.0376456,0.0373244,-52.0234,3,0.00799554,10,-0.00194174,-1.2838,1.18052,0.0499778,-101.438,0.0373244,
2,0,0,1,0,5137.72,0.035243,0.0349692,-51.783,3,0.00778794,10,-0.00181081,-1.28581,1.10462,0.0534119,-107.87,0.0349692,
2,0,0,1,0,5137.73,0.0328459,0.0325303,-51.52,3,0.00758136,10,-0.00167596,-1.28802,1.07195,0.0550398,-110.608,0.0325303,
2,0,0,1,0,5137.73,0.0304488,0.0301126,-51.2317,3,0.00737587,10,-0.00154272,-1.29046,1.02386,0.0576253,-115.206,0.0301126,
2,0,0,1,0,5137.74,0.0280406,0.0277648,-50.966,3,0.00717152,10,-0.00141506,-1.29272,0.985335,0.0598781,-119.06,0.0277648,
2,0,0,1,0,5137.74,0.0256435,0.0253514,-50.675,3,0.00696826,10,-0.00128468,-1.29521,0.98441,0.0599344,-118.499,0.0253514,
2,0,0,1,0,5137.74,0.0232463,0.0229697,-50.3817,3,0.00676618,10,-0.00115725,-1.29773,0.964468,0.0611736,-120.288,0.0229697,
2,0,0,1,0,5137.75,0.0208437,0.0205223,-50.0952,3,0.00656525,10,-0.00102807,-1.3002,0.93289,0.0632443,-123.605,0.0205223,
2,0,0,1,0,5137.75,0.018441,0.0181247,-49.8065,3,0.00636546,10,-0.000902726,-1.30271,0.921852,0.0640016,-124.335,0.0181247,
2,0,0,1,0,5137.76,0.0160439,0.0157398,-49.487,3,0.00616693,10,-0.000778916,-1.30551,0.887044,0.0665131,-128.431,0.0157398,
2,0,0,1,0,5137.76,0.0136468,0.0133041,-49.1799,3,0.00596962,10,-0.000654293,-1.30821,0.847435,0.0696219,-133.575,0.0133041,
2,0,0,1,0,5137.76,0.0112414,0.0109277,-48.863,3,0.00577355,10,-0.000533961,-1.31102,0.823691,0.0716288,-136.489,0.01092771,
2,0,0,1,0,5137.77,0.00884431,0.00849302,-48.5199,3,0.00557881,10,-0.00041208,-1.31408,0.767285,0.0768945,-145.489,0.00849302,
2,0,0,1,0,5137.77,0.0064472,0.00608908,-48.1697,3,0.00538545,10,-0.000293309,-1.31723,0.767865,0.0768364,-144.424,0.00608908,
2,0,0,1,0,5137.78,0.00404455,0.00374346,-47.7889,3,0.00519359,10,-0.000178896,-1.32067,0.719421,0.0820104,-152.938,0.00374346,
2,0,0,1,0,5137.78,0.0016419,0.00127483,-47.4689,3,0.00500316,10,-6.05148e-05,-1.32359,0.670163,0.0880383,-162.808,0.00127483,
2,0,0,1,0,5137.78,-0.000755207,-0.00107927,-47.0559,3,0.00481415,10,5.07862e-05,-1.32739,0.641681,0.091946,-168.546,-0.00107927,
2,0,0,1,0,5137.79,-0.00315231,-0.00349912,-46.6087,3,0.00462686,10,0.000163089,-1.33153,0.570298,0.103455,-187.985,-0.00349912,
2,0,0,1,0,5137.79,-0.00555774,-0.00591579,-46.1609,3,0.00444135,10,0.000273078,-1.33573,0.536927,0.109885,-197.685,-0.00591579,
2,0,0,1,0,5137.8,-0.00795485,-0.0083367,-45.6621,3,0.00425774,10,0.000380671,-1.34044,0.516573,0.114214,-203.366,-0.0083367,
2,0,0,1,0,5137.8,-0.010352,-0.0107141,-45.1513,3,0.00407617,10,0.000483757,-1.34533,0.485428,0.121542,-214.058,-0.01071413,
2,0,0,1,0,5137.8,-0.0127546,-0.0131138,-44.6534,3,0.00389661,10,0.000585577,-1.35015,0.467714,0.126146,-219.587,-0.0131138,
2,0,0,1,0,5137.81,-0.0151573,-0.0154997,-44.1094,3,0.00371913,10,0.000683684,-1.35547,0.453402,0.130127,-223.814,-0.0154997,
2,0,0,1,0,5137.81,-0.0175544,-0.0179016,-43.5617,3,0.00354384,10,0.000779824,-1.36089,0.439965,0.134102,-227.943,-0.0179016,
2,0,0,1,0,5137.82,-0.0199515,-0.0202875,-43.0086,3,0.00337076,10,0.000872537,-1.36644,0.443881,0.132918,-223.17,-0.0202875,
2,0,0,1,0,5137.82,-0.0223597,-0.0226787,-42.4731,3,0.00319985,10,0.000963236,-1.37189,0.43941,0.134271,-222.619,-0.0226787,
2,0,0,1,0,5137.82,-0.0247568,-0.0251664,-41.9521,3,0.00303104,10,0.00105578,-1.37725,0.451229,0.130754,-214.141,-0.0251664,
2,0,0,1,0,5137.83,-0.0271539,-0.027512,-41.4223,3,0.00286436,10,0.00113961,-1.38277,0.456394,0.129274,-209.154,-0.027512,
2,0,0,1,0,5137.83,-0.0295593,-0.0299595,-40.9374,3,0.00269971,10,0.00122646,-1.38788,0.465268,0.126809,-202.783,-0.0299595,
2,0,0,1,0,5137.84,-0.0319564,-0.0323242,-40.4558,3,0.00253698,10,0.0013077,-1.39302,0.497088,0.118691,-187.667,-0.0323242,
2,0,0,1,0,5137.84,-0.0343535,-0.0347281,-40.0131,3,0.0023761,10,0.00138958,-1.3978,0.527801,0.111785,-174.91,-0.03472811,
2,0,0,1,0,5137.84,-0.0367506,-0.0371193,-39.6193,3,0.0022169,10,0.00147064,-1.40209,0.564625,0.104494,-161.789,-0.0371193,
2,0,0,1,0,5137.85,-0.0391588,-0.0395477,-39.2604,3,0.00205917,10,0.00155266,-1.40605,0.607334,0.0971459,-148.987,-0.0395477,
2,0,0,1,0,5137.85,-0.0415559,-0.0419389,-38.9002,3,0.00190292,10,0.00163143,-1.41005,0.661629,0.0891738,-135.602,-0.0419389,
2,0,0,1,0,5137.86,-0.043953,-0.0442834,-38.5895,3,0.00174798,10,0.00170888,-1.41353,0.726732,0.0811854,-122.526,-0.0442834,
2,0,0,1,0,5137.86,-0.0463585,-0.0467277,-38.3164,3,0.00159419,10,0.00179044,-1.41662,0.830574,0.0710352,-106.423,-0.0467277,
2,0,0,1,0,5137.86,-0.0487556,-0.0491178,-38.0878,3,0.00144141,10,0.00187079,-1.41921,0.938042,0.062897,-93.6145,-0.04911783,
2,0,0,1,0,5137.87,-0.0511527,-0.0515165,-37.8809,3,0.00128948,10,0.00195149,-1.42158,1.09364,0.0539484,-79.8634,-0.0515165,
2,0,0,1,0,5137.87,-0.0535498,-0.0539066,-37.6886,3,0.00113835,10,0.00203167,-1.42379,1.27389,0.0463147,-68.249,-0.0539066,
2,0,0,1,0,5137.88,-0.055958,-0.0563212,-37.5502,3,0.00098787,10,0.00211487,-1.42539,1.51112,0.0390439,-57.3025,-0.0563212,
2,0,0,1,0,5137.88,-0.0583551,-0.058741,-37.431,3,0.000837919,10,0.00219874,-1.42677,2.03937,0.0289305,-42.324,-0.058741,
2,0,0,1,0,5137.88,-0.0607522,-0.0610898,-37.3323,3,0.000688427,10,0.00228063,-1.42791,2.44417,0.0241391,-35.2164,-0.0610898,
2,0,0,1,0,5137.89,-0.0631604,-0.0634726,-37.2838,3,0.000539216,10,0.0023665,-1.42848,3.36873,0.017514,-25.5011,-0.0634726,
2,0,0,1,0,5137.89,-0.0655575,-0.0658723,-37.2139,3,0.000390219,10,0.00245136,-1.4293,5.67576,0.0103951,-15.1156,-0.0658723,
2,0,0,1,0,5137.9,-0.0679546,-0.0683324,-37.1864,3,0.000241433,10,0.00254104,-1.42962,9.96373,0.00592147,-8.60657,-0.0683324,
2,0,0,1,0,5137.9,-0.0703573,-0.0707491,-37.1863,3,9.26993e-05,10,0.0026309,-1.42962,-54.56,-0.00108138,1.57085,-0.0707491,
2,0,0,1,0,5137.9,-0.0727571,-0.0731042,-37.2009,3,-5.60635e-05,10,0.00271954,-1.42945,-9.6629,-0.00610583,8.87128,-0.0731042,
2,0,0,1,0,5137.91,-0.0751543,-0.0754997,-37.229,3,-0.000204922,10,0.00281078,-1.42912,-5.35312,-0.0110216,16.0284,-0.0754997,
2,0,0,1,0,5137.91,-0.0775514,-0.0778718,-37.271,3,-0.00035394,10,0.00290236,-1.42863,-3.80303,-0.0155139,22.589,-0.0778718,
2,0,0,1,0,5137.92,-0.0799595,-0.0803521,-37.3403,3,-0.00050316,10,0.00300037,-1.42782,-2.96335,-0.0199099,29.0361,-0.08035212,
2,0,0,1,0,5137.92,-0.0823567,-0.0826744,-37.417,3,-0.000652675,10,0.00309343,-1.42693,-2.31938,-0.0254378,37.1782,-0.0826744,
2,0,0,1,0,5137.92,-0.0847538,-0.0851208,-37.5084,3,-0.000802531,10,0.00319274,-1.42587,-2.04466,-0.0288557,42.2784,-0.0851208,
2,0,0,1,0,5137.93,-0.0871592,-0.0874844,-37.6284,3,-0.000952798,10,0.0032919,-1.42448,-1.84555,-0.0319687,46.9649,-0.0874844,
2,0,0,1,0,5137.93,-0.0895563,-0.0899393,-37.7456,3,-0.00110358,10,0.00339481,-1.42313,-1.63955,-0.0359856,53.0337,-0.0899393,
2,0,0,1,0,5137.94,-0.0919534,-0.0923146,-37.8698,3,-0.00125482,10,0.00349593,-1.42171,-1.47144,-0.0400968,59.3284,-0.0923146,
2,0,0,1,0,5137.94,-0.0943505,-0.0947238,-38.0176,3,-0.0014066,10,0.00360118,-1.42001,-1.35761,-0.0434587,64.5404,-0.0947238,
2,0,0,1,0,5137.94,-0.0967587,-0.0971055,-38.1992,3,-0.00155905,10,0.00370935,-1.41795,-1.22107,-0.0483183,71.9497,-0.0971055,
2,0,0,1,0,5137.95,-0.0991558,-0.0994956,-38.3624,3,-0.00171217,10,0.00381689,-1.41609,-2.34402,-0.0251704,37.451,-0.0994956,
2,0,0,1,0,5137.95,-0.0999548,-0.100267,-38.4419,3,-0.00176207,10,0.00385444,-1.41519,0.0197996,2.97986,-4122.11,-0.100267,
2,0,0,1,1,5137.95,-0.0999548,-0.100457,-38.2324,3,-0.00178504,10,0.00384072,-1.41757,-0.0240898,-2.44917,3120.62,-0.100457,
2,0,0,1,1,5137.95,-0.0979573,-0.0984087,-32.8271,3,-0.00189323,10,0.00323048,-1.48377,-0.0299489,-1.97002,2310.35,-0.0984087,
2,0,0,1,1,5137.96,-0.0955546,-0.0960249,-27.5316,3,-0.00201317,10,0.00264372,-1.56017,-0.0305122,-1.93365,2073.64,-0.09602493,
2,0,0,1,1,5137.96,-0.0931519,-0.0935733,-22.9782,3,-0.00211357,10,0.00215014,-1.63868,-0.029153,-2.02381,1815.96,-0.0935733,
2,0,0,1,1,5137.96,-0.0907548,-0.091163,-18.9591,3,-0.00219693,10,0.00172837,-1.72218,-0.0266775,-2.2116,1615.72,-0.091163,
2,0,0,1,1,5137.97,-0.0883577,-0.0887845,-15.3498,3,-0.00226509,10,0.00136283,-1.8139,-0.0235602,-2.50422,1459.47,-0.0887845,
2,0,0,1,1,5137.97,-0.0859523,-0.0864272,-12.0244,3,-0.00231945,10,0.00103923,-1.91994,-0.0199601,-2.95589,1323,-0.0864272,
2,0,0,1,1,5137.98,-0.0835552,-0.0840158,-9.02932,3,-0.00236118,10,0.000758606,-2.04435,-0.0156202,-3.77715,1210.87,-0.0840158,
2,0,0,1,1,5137.98,-0.0811581,-0.0815726,-6.27109,3,-0.00239144,10,0.00051155,-2.20266,-0.0103225,-5.71567,1101.39,-0.0815726,
2,0,0,1,1,5137.98,-0.0787554,-0.0791888,-3.73075,3,-0.00241114,10,0.000295434,-2.4282,-0.00908866,-6.4916,1019.02,-0.0791888,
2,0,0,1,1,5137.99,-0.0763528,-0.0767785,-1.39746,3,-0.00242112,10,0.000107295,-2.85466,-0.0275482,-2.1417,943.597,-0.0767785,
2,1,0,1,1,5137.99,-0.0739557,-0.0743831,0.786669,3,-0.00242209,10,-5.85149e-05,-3.10421,0.097072,0.607796,876.8,-0.0743831,
2,1,0,1,1,5138,-0.0715586,-0.0719526,2.80632,3,-0.00241468,10,-0.000201922,-2.55186,0.0144867,4.07269,814.762,-0.0719526,
2,1,0,1,1,5138,-0.0691532,-0.0695911,4.68455,3,-0.00239948,10,-0.000326003,-2.32933,0.00948,6.22363,756.548,-0.0695911,
2,1,0,1,1,5138,-0.0667561,-0.0671925,6.4129,3,-0.00237707,10,-0.000430899,-2.19295,0.0178491,3.30549,709.921,-0.0671925,
2,1,0,1,1,5138.01,-0.0643589,-0.0648246,8.01814,3,-0.002348,10,-0.000519772,-2.09593,0.0257143,2.29445,662.099,-0.0648246,
2,1,0,1,1,5138.01,-0.0619563,-0.0624673,9.54016,3,-0.00231271,10,-0.000595948,-2.02044,0.0339535,1.73767,613.714,-0.0624673,
2,1,0,1,1,5138.02,-0.0595536,-0.0600697,10.9887,3,-0.00227146,10,-0.000660085,-1.95906,0.0420948,1.4016,577.071,-0.0600697,
2,1,0,1,1,5138.02,-0.0571565,-0.0575576,12.3259,3,-0.00222466,10,-0.000709452,-1.90918,0.0513349,1.14932,536.121,-0.0575576,
2,1,0,1,1,5138.02,-0.0547594,-0.055212,13.5653,3,-0.00217272,10,-0.000748967,-1.86757,0.0609463,0.968065,501.094,-0.055212,
2,1,0,1,1,5138.03,-0.0523512,-0.0527667,14.7409,3,-0.00211596,10,-0.000777826,-1.83148,0.0704535,0.837432,473.059,-0.0527667,
2,1,0,1,1,5138.03,-0.0499541,-0.0504041,15.832,3,-0.0020547,10,-0.000798,-1.80046,0.0813184,0.725543,441.594,-0.0504041,
2,1,0,1,1,5138.04,-0.047557,-0.0479747,16.8592,3,-0.0019892,10,-0.000808817,-1.77316,0.0929543,0.63472,412.124,-0.0479747,
2,1,0,1,1,5138.04,-0.0451544,-0.0455803,17.8186,3,-0.00191972,10,-0.000812176,-1.74913,0.106589,0.553529,380.316,-0.0455803,
2,1,0,1,1,5138.04,-0.0427545,-0.0431848,18.6898,3,-0.0018466,10,-0.000807115,-1.7284,0.120448,0.489839,353.824,-0.04318485,
2,1,0,1,1,5138.05,-0.0403574,-0.0407438,19.506,3,-0.0017701,10,-0.000794749,-1.70983,0.136045,0.433681,327.705,-0.0407438,
2,1,0,1,1,5138.05,-0.0379603,-0.0383579,20.2619,3,-0.00169047,10,-0.000777203,-1.69332,0.151522,0.389382,305.889,-0.03835788,
2,1,0,1,1,5138.06,-0.0355521,-0.0358967,20.992,3,-0.00160787,10,-0.000753541,-1.67795,0.169185,0.348731,283.652,-0.0358967,
2,1,0,1,1,5138.06,-0.033155,-0.0335383,21.6405,3,-0.00152252,10,-0.000725787,-1.66473,0.187936,0.313936,263.566,-0.03353833,
2,1,0,1,1,5138.06,-0.0307579,-0.0311164,22.2368,3,-0.0014347,10,-0.00069193,-1.65293,0.208787,0.282585,244.166,-0.0311164,
2,1,0,1,1,5138.07,-0.0283524,-0.0286795,22.8128,3,-0.00134454,10,-0.00065426,-1.64182,0.230519,0.255944,226.842,-0.0286795,
2,1,0,1,1,5138.07,-0.0259553,-0.0263265,23.3287,3,-0.00125219,10,-0.000614162,-1.63211,0.252666,0.23351,211.761,-0.0263265,
2,1,0,1,1,5138.08,-0.0235582,-0.0239576,23.8138,3,-0.00115783,10,-0.000570522,-1.62317,0.279487,0.211101,195.513,-0.0239576,
2,1,0,1,1,5138.08,-0.0211611,-0.0215324,24.2663,3,-0.0010616,10,-0.000522513,-1.615,0.310916,0.189762,179.064,-0.0215324,
2,1,0,1,1,5138.08,-0.0187529,-0.0191592,24.6741,3,-0.000963649,10,-0.000472737,-1.60776,0.34388,0.171571,164.712,-0.0191592,
2,1,0,1,1,5138.09,-0.0163558,-0.016716,25.0496,3,-0.00086415,10,-0.000418729,-1.6012,0.379998,0.155264,151.417,-0.016716,
2,1,0,1,1,5138.09,-0.0139587,-0.0143206,25.4012,3,-0.000763214,10,-0.000363759,-1.59515,0.418498,0.14098,139.423,-0.0143206,
2,1,0,1,1,5138.1,-0.0115505,-0.0118997,25.7249,3,-0.000660929,10,-0.000306118,-1.58965,0.463391,0.127322,127.483,-0.0118997,
2,1,0,1,1,5138.1,-0.0091534,-0.00951693,26.0185,3,-0.000557402,10,-0.000247616,-1.58472,0.517315,0.11405,115.513,-0.00951693,
2,1,0,1,1,5138.1,-0.00675629,-0.00712996,26.2716,3,-0.000452784,10,-0.000187315,-1.58051,0.568767,0.103733,106.192,-0.00712996,
2,1,0,1,1,5138.11,-0.00435919,-0.00471541,26.5107,3,-0.000347191,10,-0.000125009,-1.57658,0.688677,0.0856715,88.3289,-0.00471541,
2,1,0,1,1,5138.11,-0.00195376,-0.00231253,26.743,3,-0.000240642,10,-6.18439e-05,-1.57279, , , ,-0.00231253,
2,1,0,0,1,5138.12,-7.54729e-05,-0.00042076,26.8219,3,-0.000157528,10,-1.12856e-05,-1.57151, , , ,-0.00042076,