File: Figure_codes/Fig_3-5/rawdata_trumpetplot_data/after 10th/20221101_1-115_003_TrumpetPlot_ParaChange_from10_every3_08_CV_C01_26.csv
mode,ox/red,error,control changes,counter inc.,time/s,control/V,Ewe/V,<I>/mA,cycle number,(Q-Qo)/C,I Range,P/W,log(|I|),Tafel slope mV/dec,alpha_eff,dI/d(E-IR),E-IR/V,
2,0,0,0,0,52398.4,2.44065e-05,-0.000401673,-3.97156,27,0.0000000E+000,10,1.59527e-06,-2.40104, , , ,-0.000401673,
2,0,0,1,0,52398.4,0.0012943,0.000939211,-2.49433,27,-4.90171e-05,10,-2.3427e-06,-2.60305, , , ,0.000939211,
2,0,0,1,0,52398.4,0.00279784,0.00243518,-1.37362,27,-8.45515e-05,10,-3.345e-06,-2.86213,-0.00437072,-13.4989,652.096,0.00243518,
2,0,0,1,0,52398.5,0.00429425,0.00398282,-0.593147,27,-0.000102312,10,-2.36239e-06,-3.22684,-0.00425216,-13.8753,478.589,0.00398282,
2,0,0,1,0,52398.5,0.00579065,0.00541076,0.0171758,27,-0.000107165,10,9.29343e-08,-4.76508,-0.0381403,-1.54692,372.385,0.00541076,
2,1,0,1,0,52398.5,0.0072942,0.00693297,0.511026,27,-0.000101736,10,3.54293e-06,-3.29156,0.00502021,11.7525,301.93,0.00693297,
2,1,0,1,0,52398.5,0.00878347,0.00847257,0.90946,27,-8.8121e-05,10,7.70546e-06,-3.04122,0.00696972,8.46519,246.053,0.00847257,
2,1,0,1,0,52398.5,0.010287,0.00995899,1.23414,27,-6.76144e-05,10,1.22908e-05,-2.90864,0.0132058,4.46772,199.271,0.00995899,
2,1,0,1,0,52398.6,0.0117905,0.0114587,1.51589,27,-4.14064e-05,10,1.73702e-05,-2.81933,0.0196847,2.99725,169.678,0.0114587,
2,1,0,1,0,52398.6,0.013278,0.0129301,1.74396,27,-1.07894e-05,10,2.25496e-05,-2.75846,0.0267483,2.20575,146.784,0.0129301,
2,1,0,1,0,52398.6,0.0147816,0.0144142,1.949,27,2.42755e-05,10,2.80932e-05,-2.71019,0.0349044,1.69033,126.511,0.0144142,
2,1,0,1,0,52398.6,0.0162851,0.01598,2.1272,27,6.2937e-05,10,3.39927e-05,-2.67219,0.0448648,1.31506,107.816,0.01598,
2,1,0,1,0,52398.6,0.0177744,0.0174126,2.28868,27,0.000104235,10,3.98518e-05,-2.64042,0.0542688,1.08718,95.9447,0.0174126,
2,1,0,1,0,52398.6,0.0192779,0.0189702,2.42147,27,0.000148654,10,4.59359e-05,-2.61592,0.0635587,0.928276,86.9982,0.0189702,
2,1,0,1,0,52398.7,0.0207743,0.020441,2.54513,27,0.000195276,10,5.2025e-05,-2.59429,0.0730938,0.807182,79.6398,0.020441,
2,1,0,1,0,52398.7,0.0222707,0.021909,2.6555,27,0.000244087,10,5.81793e-05,-2.57585,0.0823275,0.71665,73.9362,0.021909,
2,1,0,1,0,52398.7,0.0237743,0.0234517,2.75917,27,0.0002952,10,6.47072e-05,-2.55922,0.0955313,0.617599,66.2234,0.0234517,
2,1,0,1,0,52398.7,0.0252636,0.0249013,2.85027,27,0.000347593,10,7.09755e-05,-2.54511,0.1044,0.565134,62.7798,0.0249013,
2,1,0,1,0,52398.7,0.0267671,0.0264044,2.94011,27,0.000402237,10,7.76318e-05,-2.53164,0.110289,0.534957,61.2714,0.0264044,
2,1,0,1,0,52398.8,0.0282706,0.0279334,3.02782,27,0.000458572,10,8.45775e-05,-2.51887,0.12062,0.489141,57.6013,0.02793345,
2,1,0,1,0,52398.8,0.0297581,0.0294035,3.10182,27,0.000515838,10,9.12043e-05,-2.50838,0.134037,0.440175,53.2328,0.0294035,
2,1,0,1,0,52398.8,0.0312617,0.0309274,3.1725,27,0.000575153,10,9.81173e-05,-2.4986,0.143303,0.411716,51.0315,0.0309274,
2,1,0,1,0,52398.8,0.0327652,0.032449,3.24999,27,0.000635862,10,0.000105459,-2.48812,0.156096,0.377972,47.9589,0.032449,
2,1,0,1,0,52398.8,0.0342545,0.0339129,3.32755,27,0.000697307,10,0.000112847,-2.47788,0.162338,0.36344,47.142,0.0339129,
2,1,0,1,0,52398.9,0.035758,0.035447,3.3958,27,0.000760759,10,0.000120371,-2.46906,0.184179,0.320341,42.4182,0.035447,
2,1,0,1,0,52398.9,0.0372544,0.036917,3.46626,27,0.00082518,10,0.000127964,-2.46014,0.180626,0.326642,44.1204,0.036917,
2,1,0,1,0,52398.9,0.0387508,0.0384001,3.52866,27,0.00089075,10,0.000135501,-2.45239,0.192626,0.306293,42.24,0.0384001,
2,1,0,1,0,52398.9,0.0402544,0.0399656,3.59718,27,0.000957974,10,0.000143763,-2.44404,0.190916,0.309036,43.377,0.0399656,
2,1,0,1,0,52398.9,0.0417436,0.0413927,3.66849,27,0.00102576,10,0.000151849,-2.43551,0.199836,0.295242,42.1982,0.0413927,
2,1,0,1,0,52398.9,0.0432472,0.0429248,3.73537,27,0.00109548,10,0.00016034,-2.42767,0.20544,0.287188,41.75,0.0429248,
2,1,0,1,0,52399,0.0447507,0.0444089,3.79168,27,0.00116638,10,0.000168384,-2.42117,0.206033,0.286362,42.3536,0.0444089,
2,1,0,1,0,52399,0.0462382,0.0458714,3.85887,27,0.00123769,10,0.000177012,-2.41354,0.208044,0.283594,42.6439,0.0458714,
2,1,0,1,0,52399,0.0477418,0.0474301,3.9163,27,0.00131095,10,0.000185751,-2.40712,0.213311,0.276591,42.2775,0.0474301,
2,1,0,1,0,52399,0.0492453,0.0488889,3.9821,27,0.00138538,10,0.00019468,-2.39989,0.220776,0.267239,41.4518,0.0488889,
2,1,0,1,0,52399,0.0507346,0.0504152,4.0291,27,0.00146014,10,0.000203128,-2.39479,0.213972,0.275737,43.4326,0.0504152,
2,1,0,1,0,52399.1,0.0522381,0.0518942,4.09177,27,0.0015368,10,0.000212339,-2.38809,0.224985,0.262239,41.9174,0.0518942,
2,1,0,1,0,52399.1,0.0537345,0.0534018,4.15413,27,0.00161422,10,0.000221838,-2.38152,0.230136,0.25637,41.5801,0.0534018,
2,1,0,1,0,52399.1,0.0552309,0.0548881,4.21642,27,0.00169278,10,0.000231431,-2.37506,0.250182,0.235829,38.7894,0.0548881,
2,1,0,1,0,52399.1,0.0567345,0.056393,4.2685,27,0.00177287,10,0.000240713,-2.36972,0.260132,0.226808,37.8374,0.056393,
2,1,0,1,0,52399.1,0.0582237,0.0578511,4.33141,27,0.00185313,10,0.000250577,-2.36337,0.270923,0.217774,36.8293,0.05785111,
2,1,0,1,0,52399.2,0.0597273,0.0593986,4.38675,27,0.00193532,10,0.000260567,-2.35786,0.275447,0.214197,36.6775,0.0593986,
2,1,0,1,0,52399.2,0.0612308,0.0608846,4.44769,27,0.00201864,10,0.000270796,-2.35187,0.292017,0.202043,35.0152,0.0608846,
2,1,0,1,0,52399.2,0.0627183,0.0623728,4.50114,27,0.00210208,10,0.000280749,-2.34668,0.306588,0.192441,33.8046,0.0623728,
2,1,0,1,0,52399.2,0.0642218,0.0638895,4.55344,27,0.00218738,10,0.000290917,-2.34166,0.300232,0.196515,34.9502,0.0638895,
2,1,0,1,0,52399.2,0.0657254,0.0653899,4.60821,27,0.00227375,10,0.000301331,-2.33647,0.298783,0.197467,35.5145,0.0653899,
2,1,0,1,0,52399.2,0.0672147,0.0668876,4.66873,27,0.00236023,10,0.00031228,-2.3308,0.295276,0.199813,36.3583,0.0668876,
2,1,0,1,0,52399.3,0.0687182,0.0683986,4.72136,27,0.00244864,10,0.000322934,-2.32593,0.31284,0.188595,34.6826,0.0683986,
2,1,0,1,0,52399.3,0.0702146,0.0698745,4.76788,27,0.00253751,10,0.000333154,-2.32167,0.316191,0.186596,34.7168,0.06987454,
2,1,0,1,0,52399.3,0.071711,0.0713857,4.8222,27,0.00262732,10,0.000344236,-2.31675,0.310304,0.190136,35.7257,0.0713857,
2,1,0,1,0,52399.3,0.0732146,0.0728858,4.86688,27,0.00271858,10,0.000354727,-2.31275,0.330638,0.178443,33.8947,0.0728858,
2,1,0,1,0,52399.3,0.0747038,0.0744083,4.91646,27,0.00280981,10,0.000365826,-2.30835,0.339149,0.173965,33.3639,0.0744083,
2,1,0,1,0,52399.4,0.0762074,0.0759053,4.95956,27,0.00290287,10,0.000376457,-2.30456,0.354434,0.166463,32.2323,0.07590533,
2,1,0,1,0,52399.4,0.0777109,0.0773955,5.0005,27,0.00299676,10,0.000387016,-2.30099,0.358252,0.164688,32.1951,0.0773955,
2,1,0,1,0,52399.4,0.0791984,0.0789044,5.04777,27,0.0030905,10,0.000398292,-2.2969,0.385268,0.15314,30.186,0.07890442,
2,1,0,1,0,52399.4,0.0807019,0.0803527,5.09228,27,0.00318611,10,0.000409178,-2.29309,0.438829,0.134449,26.7097,0.0803527,
2,1,0,1,0,52399.4,0.0822055,0.0819069,5.13074,27,0.00328252,10,0.000420243,-2.28982,0.44698,0.131997,26.4421,0.0819069,
2,1,0,1,0,52399.5,0.0836947,0.0833531,5.17542,27,0.00337861,10,0.000431388,-2.28605,0.47736,0.123596,24.9682,0.0833531,
2,1,0,1,0,52399.5,0.0851983,0.0848873,5.21449,27,0.00347654,10,0.000442644,-2.28279,0.489699,0.120482,24.5121,0.0848873,
2,1,0,1,0,52399.5,0.0866947,0.0863482,5.25549,27,0.0035747,10,0.000453803,-2.27939,0.513493,0.114899,23.5732,0.0863482,
2,1,0,1,0,52399.5,0.0881911,0.0878424,5.29801,27,0.00367357,10,0.00046539,-2.27589,0.525606,0.112251,23.2037,0.0878424,
2,1,0,1,0,52399.5,0.0896946,0.0893588,5.335,27,0.00377367,10,0.000476729,-2.27287,0.508304,0.116072,24.1611,0.0893588,
2,1,0,1,0,52399.5,0.0911839,0.0908585,5.37273,27,0.00387342,10,0.000488159,-2.2698,0.443915,0.132908,27.8701,0.0908585,
2,1,0,1,0,52399.6,0.0926857,0.0923494,5.41937,27,0.00397503,10,0.000500476,-2.26605,0.432527,0.136408,28.8078,0.0923494,
2,1,0,1,0,52399.6,0.0941892,0.0938624,5.45327,27,0.00407739,10,0.000511857,-2.26334,0.459851,0.128302,27.2909,0.0938624,
2,1,0,1,0,52399.6,0.0956785,0.0953686,5.49769,27,0.0041794,10,0.000524307,-2.25982,0.405119,0.145636,31.2366,0.0953686,
2,1,0,1,0,52399.6,0.097182,0.09681,5.53866,27,0.00428329,10,0.000536198,-2.2566,0.369294,0.159764,34.5311,0.09681,
2,1,0,1,0,52399.6,0.0986856,0.0983319,5.58329,27,0.00438813,10,0.000549016,-2.25311,0.347377,0.169844,37.0607,0.0983319,
2,1,0,1,0,52399.7,0.100175,0.099866,5.63918,27,0.00449277,10,0.000563162,-2.24878,0.354626,0.166372,36.65,0.099866,
2,1,0,1,0,52399.7,0.101678,0.101307,5.68685,27,0.00459958,10,0.000576118,-2.24513,0.327618,0.180088,40.0635,0.101307,
2,1,0,1,0,52399.7,0.103175,0.102837,5.75432,27,0.00470689,10,0.000591755,-2.24001,0.310401,0.190077,42.7609,0.102837,
2,1,0,1,0,52399.7,0.104671,0.104324,5.82437,27,0.00481541,10,0.000607619,-2.23475,0.304126,0.193999,44.1174,0.104324,
2,1,0,1,0,52399.7,0.106175,0.105857,5.89206,27,0.00492584,10,0.000623716,-2.22973,0.2968,0.198787,45.7264,0.105857,
2,1,0,1,0,52399.8,0.107662,0.107303,5.96586,27,0.00503641,10,0.000640154,-2.22433,0.292343,0.201818,47.0235,0.107303,
2,1,0,1,0,52399.8,0.109166,0.108832,6.04232,27,0.00514948,10,0.0006576,-2.2188,0.286917,0.205634,48.5546,0.108832,
2,1,0,1,0,52399.8,0.110669,0.11036,6.12406,27,0.00526403,10,0.000675854,-2.21296,0.260045,0.226884,54.2358,0.11036,
2,1,0,1,0,52399.8,0.112159,0.11178,6.21306,27,0.00537896,10,0.000694497,-2.20669,0.252562,0.233606,56.5982,0.11178,
2,1,0,1,0,52399.8,0.113662,0.113333,6.30243,27,0.00549674,10,0.000714272,-2.20049,0.249398,0.23657,58.1669,0.113333,
2,1,0,1,0,52399.8,0.115166,0.114802,6.38918,27,0.00561619,10,0.000733487,-2.19456,0.247952,0.23795,59.3104,0.114802,
2,1,0,1,0,52399.9,0.116655,0.116311,6.48047,27,0.00573601,10,0.000753753,-2.18839,0.242221,0.243579,61.5221,0.116311,
2,1,0,1,0,52399.9,0.118158,0.117792,6.5698,27,0.00585884,10,0.00077387,-2.18245,0.248175,0.237736,60.893,0.117792,
2,1,0,1,0,52399.9,0.119655,0.11931,6.65679,27,0.00598268,10,0.000794222,-2.17674,0.25758,0.229055,59.4598,0.11931,
2,1,0,1,0,52399.9,0.121151,0.120794,6.72736,27,0.00610804,10,0.000812622,-2.17216,0.276922,0.213056,55.9703,0.120794,
2,1,0,1,0,52399.9,0.122655,0.122349,6.80972,27,0.00623564,10,0.000833164,-2.16687,0.279297,0.211245,56.1244,0.1223492,
2,1,0,1,0,52400,0.124142,0.12384,6.89374,27,0.00636336,10,0.000853721,-2.16154,0.304977,0.193457,52.0368,0.12384,
2,1,0,1,0,52400,0.125646,0.125305,6.96256,27,0.00649388,10,0.000872442,-2.15723,0.350962,0.168109,45.6605,0.125305,
2,1,0,1,0,52400,0.127149,0.126798,7.02801,27,0.00662573,10,0.000891137,-2.15317,0.375579,0.157091,43.0742,0.1267979,
2,1,0,1,0,52400,0.128639,0.128291,7.0943,27,0.00675734,10,0.000910139,-2.14909,0.410292,0.1438,39.8043,0.128291,
2,1,0,1,0,52400,0.130142,0.1298,7.15333,27,0.00689157,10,0.000928501,-2.14549,0.455881,0.12942,36.1185,0.1298,
2,1,0,1,0,52400.1,0.131646,0.131337,7.21154,27,0.00702689,10,0.000947142,-2.14197,0.552456,0.106796,30.0338,0.131337,
2,1,0,1,0,52400.1,0.133135,0.132808,7.26085,27,0.00716172,10,0.000964302,-2.13901,0.584803,0.100889,28.5753,0.132808,
2,1,0,1,0,52400.1,0.134639,0.134303,7.30958,27,0.00729881,10,0.000981701,-2.13611,0.636673,0.0926692,26.4243,0.1343033,
2,1,0,1,0,52400.1,0.136135,0.135824,7.3501,27,0.007436,10,0.000998317,-2.13371,0.602413,0.0979394,28.0606,0.135824,
2,1,0,1,0,52400.1,0.137631,0.137291,7.39012,27,0.00757395,10,0.0010146,-2.13135,0.745572,0.0791339,22.7803,0.137291,
2,1,0,1,0,52400.1,0.139135,0.138801,7.41857,27,0.00771329,10,0.00102971,-2.12968,0.925696,0.0637358,18.4284,0.138801,
2,1,0,1,0,52400.2,0.140622,0.140299,7.43833,27,0.00785159,10,0.00104359,-2.12852,1.01394,0.0581888,16.8842,0.140299,
2,1,0,1,0,52400.2,0.142126,0.141793,7.46187,27,0.00799186,10,0.00105804,-2.12715,1.11979,0.0526884,15.3231,0.141793,
2,1,0,1,0,52400.2,0.143629,0.143337,7.47076,27,0.00813247,10,0.00107083,-2.12664,2.67657,0.0220431,6.42079,0.143337,
2,1,0,1,0,52400.2,0.145119,0.144781,7.475,27,0.00827176,10,0.00108224,-2.12639,-5.01212,-0.0117715,-3.42754,0.144781,
2,1,0,1,0,52400.2,0.146622,0.146274,7.45648,27,0.00841238,10,0.00109069,-2.12747,-1.28839,-0.0457937,-13.3171,0.146274,
2,1,0,1,0,52400.3,0.148126,0.147769,7.42652,27,0.00855262,10,0.00109741,-2.12921,-0.773595,-0.0762673,-22.0849,0.147769,
2,1,0,1,0,52400.3,0.149615,0.149315,7.39034,27,0.00869072,10,0.00110349,-2.13134,-0.44904,-0.131391,-37.8239,0.149315,
2,1,0,1,0,52400.3,0.151119,0.150786,7.32452,27,0.00882934,10,0.00110443,-2.13522,-0.331457,-0.178002,-50.73,0.150786,
2,1,0,1,0,52400.3,0.152615,0.152281,7.24237,27,0.00896586,10,0.00110287,-2.14012,-0.25926,-0.227571,-64.1576,0.152281,
2,1,0,1,0,52400.3,0.154111,0.153781,7.14057,27,0.00910054,10,0.00109808,-2.14627,-0.209908,-0.281076,-78.128,0.153781,
2,1,0,1,0,52400.4,0.155615,0.15528,7.01456,27,0.00923379,10,0.00108922,-2.154,-0.177276,-0.332814,-90.8498,0.15528,
2,1,0,1,0,52400.4,0.157103,0.156784,6.87187,27,0.00936315,10,0.0010774,-2.16292,-0.150369,-0.392369,-104.9,0.156784,
2,1,0,1,0,52400.4,0.158606,0.158289,6.71171,27,0.009491,10,0.00106239,-2.17317,-0.133206,-0.442922,-115.635,0.158289,
2,1,0,1,0,52400.4,0.16011,0.159803,6.5242,27,0.00961555,10,0.00104259,-2.18547,-0.122318,-0.482348,-122.595,0.159803,
2,1,0,1,0,52400.4,0.161599,0.16126,6.33943,27,0.00973536,10,0.0010223,-2.19795,-0.114105,-0.517065,-127.669,0.1612604,
2,1,0,1,0,52400.4,0.163102,0.162764,6.14243,27,0.00985284,10,0.000999768,-2.21166,-0.109501,-0.538809,-129.02,0.162764,
2,1,0,1,0,52400.5,0.164606,0.164261,5.94555,27,0.00996659,10,0.000976621,-2.22581,-0.105251,-0.560567,-129.913,0.164261,
2,1,0,1,0,52400.5,0.166095,0.165746,5.74403,27,0.0100754,10,0.00095205,-2.24078,-0.104803,-0.562961,-126.334,0.165746,
2,1,0,1,0,52400.5,0.167599,0.167266,5.55955,27,0.0101818,10,0.000929925,-2.25496,-0.104313,-0.565605,-122.713,0.1672661,
2,1,0,1,0,52400.5,0.169095,0.168778,5.37438,27,0.0102842,10,0.000907079,-2.26967,-0.107376,-0.549471,-115.412,0.168778,
2,1,0,1,0,52400.5,0.170592,0.170279,5.20542,27,0.0103833,10,0.000886375,-2.28354,-0.108471,-0.543922,-110.585,0.170279,
2,1,0,1,0,52400.6,0.172095,0.171775,5.03113,27,0.0104798,10,0.000864223,-2.29833,-0.110554,-0.533677,-105.154,0.171775,
2,1,0,1,0,52400.6,0.173583,0.173236,4.88539,27,0.0105723,10,0.000846327,-2.3111,-0.118844,-0.496449,-94.916,0.173236,
2,1,0,1,0,52400.6,0.175086,0.174717,4.75099,27,0.0106631,10,0.000830077,-2.32322,-0.121523,-0.485504,-90.1089,0.174717,
2,1,0,1,0,52400.6,0.17659,0.176254,4.61896,27,0.0107514,10,0.000814108,-2.33546,-0.125105,-0.471605,-85.1439,0.176254,
2,1,0,1,0,52400.6,0.178079,0.177741,4.50062,27,0.0108364,10,0.000799945,-2.34673,-0.131606,-0.448309,-78.8635,0.177741,
2,1,0,1,0,52400.7,0.179582,0.179285,4.39306,27,0.0109202,10,0.000787612,-2.35723,-0.143467,-0.411245,-70.6787,0.1792853,
2,1,0,1,0,52400.7,0.181086,0.180773,4.29455,27,0.0110021,10,0.000776338,-2.36708,-0.15345,-0.38449,-64.546,0.180773,
2,1,0,1,0,52400.7,0.182575,0.182261,4.21142,27,0.0110813,10,0.000767578,-2.37557,-0.161914,-0.36439,-59.8095,0.182261,
2,1,0,1,0,52400.7,0.184079,0.183759,4.12449,27,0.0111598,10,0.000757911,-2.38463,-0.170066,-0.346925,-55.8254,0.183759,
2,1,0,1,0,52400.7,0.185582,0.185276,4.03872,27,0.0112366,10,0.000748278,-2.39376,-0.190497,-0.309716,-48.8658,0.185276,
2,1,0,1,0,52400.7,0.18707,0.186779,3.97534,27,0.0113112,10,0.000742511,-2.40063,-0.21736,-0.271439,-42.0866,0.186779,
2,1,0,1,0,52400.8,0.188573,0.188266,3.90535,27,0.0113854,10,0.000735243,-2.40834,-0.228605,-0.258087,-39.3437,0.188266,
2,1,0,1,0,52400.8,0.19007,0.189734,3.84773,27,0.0114581,10,0.000730044,-2.4148,-0.242744,-0.243055,-36.5034,0.189734,
2,1,0,1,0,52400.8,0.191566,0.191219,3.78486,27,0.0115296,10,0.000723738,-2.42195,-0.25342,-0.232815,-34.4575,0.191219,
2,1,0,1,0,52400.8,0.19307,0.192731,3.73074,27,0.0116005,10,0.00071903,-2.4282,-0.284079,-0.207689,-30.2837,0.192731,
2,1,0,1,0,52400.8,0.194559,0.194226,3.69163,27,0.0116698,10,0.00071701,-2.43278,-0.293439,-0.201064,-28.9957,0.194226,
2,1,0,1,0,52400.9,0.196063,0.195776,3.64611,27,0.011739,10,0.000713819,-2.43817,-0.285363,-0.206754,-29.4481,0.195776,
2,1,0,1,0,52400.9,0.197566,0.197278,3.59871,27,0.0118074,10,0.000709948,-2.44385,-0.303551,-0.194366,-27.3693,0.1972785,
2,1,0,1,0,52400.9,0.199055,0.19875,3.56375,27,0.0118743,10,0.000708297,-2.44809,-0.323692,-0.182272,-25.3981,0.19875,
2,1,0,1,0,52400.9,0.200559,0.200235,3.53305,27,0.0119413,10,0.000707439,-2.45185,-0.339501,-0.173784,-23.991,0.200235,
2,1,0,1,0,52400.9,0.202062,0.201759,3.50543,27,0.0120077,10,0.000707252,-2.45526,-0.353683,-0.166816,-22.8174,0.201759,
2,1,0,1,0,52401,0.20355,0.203284,3.47372,27,0.0120727,10,0.00070615,-2.45921,-0.396287,-0.148882,-20.1986,0.2032835,
2,1,0,1,0,52401,0.205053,0.204735,3.44508,27,0.0121379,10,0.000705327,-2.4628,-0.44677,-0.132059,-17.7989,0.2047345,
2,1,0,1,0,52401,0.20655,0.206245,3.42428,27,0.0122023,10,0.000706242,-2.46543,-0.496925,-0.11873,-15.8612,0.206245,
2,1,0,1,0,52401,0.208046,0.207692,3.39976,27,0.0122664,10,0.000706101,-2.46855,-0.483333,-0.122069,-16.1776,0.207692,
2,1,0,1,0,52401,0.20955,0.209232,3.37816,27,0.0123303,10,0.000706819,-2.47132,-0.480076,-0.122897,-16.2002,0.209232,
2,1,0,1,0,52401,0.211039,0.210697,3.35834,27,0.0123931,10,0.000707593,-2.47388,-0.553997,-0.106499,-13.9541,0.210697,
2,1,0,1,0,52401.1,0.212543,0.212239,3.34036,27,0.0124561,10,0.000708953,-2.47621,-0.683477,-0.0863233,-11.2363,0.212239,
2,1,0,1,0,52401.1,0.214046,0.213702,3.32016,27,0.0125189,10,0.000709527,-2.47884,-0.730123,-0.0808083,-10.4599,0.213702,
2,1,0,1,0,52401.1,0.215535,0.215214,3.29975,27,0.0125806,10,0.000710153,-2.48152,-0.725902,-0.0812782,-10.4639,0.2152141,
2,1,0,1,0,52401.1,0.217039,0.216749,3.27922,27,0.0126427,10,0.000710767,-2.48423,-0.801542,-0.0736081,-9.43244,0.216749,
2,1,0,1,0,52401.1,0.218543,0.218196,3.26042,27,0.0127045,10,0.00071141,-2.48673,-0.996423,-0.0592118,-7.5465,0.218196,
2,1,0,1,0,52401.2,0.22003,0.21972,3.25049,27,0.0127653,10,0.000714197,-2.48805,-0.97908,-0.0602606,-7.65554,0.21972,
2,1,0,1,0,52401.2,0.221534,0.221236,3.23847,27,0.0128266,10,0.000716465,-2.48966,-0.675343,-0.087363,-11.0515,0.221236,
2,1,0,1,0,52401.2,0.22303,0.222731,3.22532,27,0.0128873,10,0.00071838,-2.49143,-0.775332,-0.0760965,-9.5818,0.222731,
2,1,0,1,0,52401.2,0.224526,0.224191,3.21219,27,0.0129477,10,0.000720144,-2.4932,-0.727348,-0.0811166,-10.1739,0.224191,
2,1,0,1,0,52401.2,0.22603,0.225717,3.20241,27,0.0130082,10,0.00072284,-2.49452,-0.875785,-0.0673681,-8.41708,0.225717,
2,1,0,1,0,52401.3,0.227519,0.227193,3.19027,27,0.0130679,10,0.000724806,-2.49617,-0.786636,-0.075003,-9.33801,0.227193,
2,1,0,1,0,52401.3,0.229023,0.228727,3.18264,27,0.013128,10,0.000727956,-2.49721,-0.825394,-0.071481,-8.88093,0.228727,
2,1,0,1,0,52401.3,0.230526,0.230169,3.16984,27,0.0131879,10,0.0007296,-2.49896,-0.99526,-0.059281,-7.34056,0.230169,
2,1,0,1,0,52401.3,0.232016,0.231688,3.16177,27,0.0132469,10,0.000732544,-2.50007,-1.32134,-0.0446516,-5.50716,0.231688,
2,1,0,1,0,52401.3,0.233519,0.233194,3.15725,27,0.0133065,10,0.000736251,-2.50069,-1.14927,-0.0513368,-6.30919,0.233194,
2,1,0,1,0,52401.3,0.235023,0.234712,3.14946,27,0.0133659,10,0.000739218,-2.50176,-1.71189,-0.0344649,-4.22725,0.234712,
2,1,0,1,0,52401.4,0.23651,0.236205,3.13426,27,0.0134245,10,0.000740329,-2.50386,-1.82944,-0.0322503,-3.94526,0.236205,
2,1,0,1,0,52401.4,0.238014,0.237706,3.1243,27,0.0134835,10,0.000742666,-2.50525,-2.64286,-0.0223243,-2.72138,0.237706,
2,1,0,1,0,52401.4,0.23951,0.239189,3.11638,27,0.0135421,10,0.000745405,-2.50635,-2.83259,-0.020829,-2.53571,0.239189,
2,1,0,1,0,52401.4,0.241006,0.240701,3.10966,27,0.0136006,10,0.000748501,-2.50729,-1.40442,-0.0420102,-5.10153,0.240701,
2,1,0,1,0,52401.4,0.24251,0.242189,3.09701,27,0.0136592,10,0.00075006,-2.50906,-1.99323,-0.0296003,-3.587,0.2421886,
2,1,0,1,0,52401.5,0.243999,0.243651,3.0947,27,0.0137171,10,0.000754026,-2.50938,-1.85514,-0.0318036,-3.84811,0.243651,
2,1,0,1,0,52401.5,0.245503,0.245198,3.09233,27,0.0137755,10,0.000758232,-2.50971,-1.72975,-0.034109,-4.11367,0.245198,
2,1,0,1,0,52401.5,0.247006,0.246689,3.08811,27,0.0138338,10,0.000761803,-2.51031,-1.35764,-0.0434578,-5.22402,0.246689,
2,1,0,1,0,52401.5,0.248496,0.248168,3.07373,27,0.0138914,10,0.000762803,-2.51233,-1.15959,-0.0508799,-6.11025,0.248168,
2,1,0,1,0,52401.5,0.249999,0.249712,3.07283,27,0.0139493,10,0.000767322,-2.51246,-1.02921,-0.0573253,-6.87974,0.249712,
2,1,0,1,0,52401.6,0.251503,0.251228,3.06994,27,0.0140073,10,0.000771257,-2.51287,-1.75465,-0.0336249,-4.02456,0.251228,
2,1,0,1,0,52401.6,0.25299,0.252682,3.06739,27,0.0140645,10,0.000775073,-2.51323,-1.27382,-0.0463173,-5.53199,0.252682,
2,1,0,1,0,52401.6,0.254494,0.254181,3.05828,27,0.0141222,10,0.000777356,-2.51452,-1.28018,-0.0460872,-5.4914,0.254181,
2,1,0,1,0,52401.6,0.25599,0.255683,3.04899,27,0.0141794,10,0.000779576,-2.51584,-1.76517,-0.0334245,-3.9816,0.2556833,
2,1,0,1,0,52401.6,0.257487,0.257157,3.04457,27,0.0142366,10,0.000782933,-2.51647,-4.25462,-0.0138673,-1.64586,0.257157,
2,1,0,1,0,52401.6,0.25899,0.258685,3.04223,27,0.014294,10,0.000786982,-2.51681,-3.78115,-0.0156037,-1.84996,0.258685,
2,1,0,1,0,52401.7,0.260479,0.260126,3.03607,27,0.0143507,10,0.00078976,-2.51769,-3.27846,-0.0179963,-2.13038,0.260126,
2,1,0,1,0,52401.7,0.261983,0.261683,3.02554,27,0.0144079,10,0.000791734,-2.5192,-3.73598,-0.0157924,-1.86805,0.2616832,
2,1,0,1,0,52401.7,0.263486,0.263194,3.01885,27,0.014465,10,0.000794544,-2.52016,-6.84846,-0.00861508,-1.016,0.263194,
2,1,0,1,0,52401.7,0.264974,0.264701,3.0173,27,0.0145214,10,0.000798683,-2.52038,-4.34212,-0.0135878,-1.60192,0.264701,
2,1,0,1,0,52401.7,0.266477,0.266176,3.0097,27,0.0145783,10,0.000801108,-2.52148,-2.6622,-0.0221622,-2.60479,0.266176,
2,1,0,1,0,52401.8,0.267981,0.267655,3.00131,27,0.0146351,10,0.000803316,-2.52269,-2.23074,-0.0264486,-3.1064,0.267655,
2,1,0,1,0,52401.8,0.26947,0.269117,2.99805,27,0.0146912,10,0.000806825,-2.52316,-2.64707,-0.0222888,-2.6141,0.269117,
2,1,0,1,0,52401.8,0.270974,0.270665,3.00151,27,0.0147479,10,0.000812403,-2.52266,-2.39954,-0.024588,-2.87793,0.270665,
2,1,0,1,0,52401.8,0.27247,0.272175,2.99644,27,0.0148042,10,0.000815554,-2.52339,-1.4817,-0.0398191,-4.65014,0.272175,
2,1,0,1,0,52401.8,0.273967,0.273701,2.99145,27,0.0148604,10,0.000818761,-2.52412,-1.33435,-0.0442162,-5.15887,0.273701,
2,1,0,1,0,52401.9,0.27547,0.275203,2.98593,27,0.0149167,10,0.000821739,-2.52492,-1.48168,-0.0398196,-4.64191,0.275203,
2,1,0,1,0,52401.9,0.276959,0.276709,2.98454,27,0.0149724,10,0.000825849,-2.52512,-2.82618,-0.0208762,-2.42939,0.276709,
2,1,0,1,0,52401.9,0.278463,0.278113,2.9799,27,0.0150286,10,0.000828751,-2.5258,-1.69152,-0.0348798,-4.04704,0.278113,
2,1,0,1,0,52401.9,0.279967,0.279612,2.97238,27,0.0150847,10,0.000831112,-2.5269,-1.6679,-0.0353737,-4.0999,0.279612,
2,1,0,1,0,52401.9,0.281454,0.281111,2.96732,27,0.0151401,10,0.000834148,-2.52763,-4.95155,-0.0119155,-1.37941,0.281111,
2,1,0,1,0,52401.9,0.282958,0.282597,2.96113,27,0.015196,10,0.000836809,-2.52854,-15.5668,-0.00379013,-0.437892,0.282597,
2,1,0,1,0,52402,0.284461,0.284182,2.96003,27,0.0152518,10,0.000841187,-2.5287,-4.11128,-0.0143508,-1.65453,0.284182,
2,1,0,1,0,52402,0.28595,0.285617,2.94931,27,0.015307,10,0.000842375,-2.53028,-1.98324,-0.0297493,-3.42468,0.285617,
2,1,0,1,0,52402,0.287454,0.287156,2.94429,27,0.0153626,10,0.00084547,-2.53102,-2.4457,-0.024124,-2.77499,0.287156,
2,1,0,1,0,52402,0.28895,0.288609,2.93981,27,0.0154179,10,0.000848456,-2.53168,-2.81083,-0.0209902,-2.40749,0.288609,
2,1,0,1,0,52402,0.290447,0.290121,2.9365,27,0.015473,10,0.000851939,-2.53217,-2.08017,-0.0283631,-3.25193,0.290121,
2,1,0,1,0,52402.1,0.29195,0.291636,2.92875,27,0.0155284,10,0.000854129,-2.53332,-1.5351,-0.0384341,-4.39231,0.291636,
2,1,0,1,0,52402.1,0.29344,0.293118,2.92032,27,0.0155831,10,0.000855998,-2.53457,-1.72045,-0.0342934,-3.91774,0.293118,
2,1,0,1,0,52402.1,0.294943,0.294613,2.92113,27,0.0156382,10,0.000860603,-2.53445,-1.61893,-0.0364438,-4.15569,0.294613,
2,1,0,1,0,52402.1,0.296447,0.296113,2.91736,27,0.0156933,10,0.000863867,-2.53501,-1.59042,-0.0370972,-4.21903,0.296113,
2,1,0,1,0,52402.1,0.297934,0.297589,2.91799,27,0.0157478,10,0.000868361,-2.53492,-2.06961,-0.0285078,-3.24033,0.297589,
2,1,0,1,0,52402.2,0.299438,0.299127,2.91003,27,0.0158027,10,0.00087047,-2.5361,-0.0351826,-1.67697,-177.131,0.299127,
2,1,0,1,0,52402.2,0.300012,0.299727,2.91285,27,0.0158231,10,0.000873062,-2.53568,0.00183811,32.0982,2491.93,0.299727,
2,1,0,1,0,52402.2,0.298737,0.298423,1.60224,27,0.015857,10,0.000478144,-2.79527,0.00457436,12.898,729.846,0.298423,
2,1,0,1,0,52402.2,0.29724,0.296916,0.794203,27,0.0158785,10,0.000235812,-3.10007,0.00331657,17.7894,463.429,0.296916,
2,1,0,1,0,52402.2,0.295744,0.29544,0.267295,27,0.0158879,10,7.89697e-05,-3.57301,0.00579616,10.1792,307.017,0.29544,
2,0,0,1,0,52402.2,0.29424,0.293903,-0.101893,27,0.0158889,10,-2.99466e-05,-3.99186,-0.137697,-0.428477,214.713,0.293903,
2,0,0,1,0,52402.2,0.292751,0.292385,-0.365965,27,0.0158842,10,-0.000107003,-3.43656,-0.00190986,-30.8924,158.874,0.2923848,
2,0,0,1,0,52402.3,0.291248,0.290924,-0.569047,27,0.0158751,10,-0.000165549,-3.24485,-0.0093755,-6.293,122.051,0.2909236,
2,0,0,1,0,52402.3,0.289744,0.289362,-0.731763,27,0.0158625,10,-0.000211744,-3.13563,-0.0165666,-3.56138,95.8352,0.289362,
2,0,0,1,0,52402.3,0.288257,0.287917,-0.860895,27,0.0158474,10,-0.000247866,-3.06505,-0.0250141,-2.35867,76.414,0.287917,
2,0,0,1,0,52402.3,0.286753,0.286449,-0.965828,27,0.0158299,10,-0.000276661,-3.0151,-0.0334629,-1.76315,65.3947,0.286449,
2,0,0,1,0,52402.3,0.285249,0.284915,-1.05887,27,0.0158107,10,-0.000301688,-2.97516,-0.0421951,-1.39827,57.0922,0.284915,
2,0,0,1,0,52402.4,0.28376,0.283415,-1.13865,27,0.01579,10,-0.000322712,-2.94361,-0.0536722,-1.09926,48.1653,0.283415,
2,0,0,1,0,52402.4,0.282257,0.281902,-1.21098,27,0.0157678,10,-0.000341379,-2.91686,-0.0660781,-0.892882,41.5921,0.281902,
2,0,0,1,0,52402.4,0.28076,0.280421,-1.27173,27,0.0157444,10,-0.000356619,-2.89561,-0.0775243,-0.761052,37.4648,0.280421,
2,0,0,1,0,52402.4,0.279264,0.27889,-1.32188,27,0.0157201,10,-0.000368658,-2.87881,-0.0887475,-0.664808,34.1404,0.2788904,
2,0,0,1,0,52402.4,0.27776,0.277413,-1.37543,27,0.0156946,10,-0.000381561,-2.86156,-0.0990713,-0.595531,31.6504,0.2774125,
2,0,0,1,0,52402.5,0.276271,0.275952,-1.41863,27,0.0156685,10,-0.000391473,-2.84813,-0.0993491,-0.593865,32.6952,0.275952,
2,0,0,1,0,52402.5,0.274767,0.274403,-1.45713,27,0.0156414,10,-0.00039984,-2.8365,-0.118018,-0.499926,28.3278,0.274403,
2,0,0,1,0,52402.5,0.273264,0.272909,-1.48884,27,0.0156134,10,-0.000406317,-2.82715,-0.125555,-0.469912,27.3935,0.2729086,
2,0,0,1,0,52402.5,0.271776,0.271478,-1.52678,27,0.0155851,10,-0.000414487,-2.81622,-0.132808,-0.444252,26.5151,0.271478,
2,0,0,1,0,52402.5,0.270273,0.269949,-1.56719,27,0.0155558,10,-0.000423061,-2.80488,-0.153441,-0.384512,23.4531,0.269949,
2,0,0,1,0,52402.5,0.268769,0.268425,-1.59553,27,0.0155258,10,-0.000428281,-2.79709,-0.175606,-0.33598,20.9227,0.268425,
2,0,0,1,0,52402.6,0.26728,0.266932,-1.62004,27,0.0154956,10,-0.000432441,-2.79047,-0.196644,-0.300034,19.056,0.266932,
2,0,0,1,0,52402.6,0.265777,0.265435,-1.65384,27,0.0154645,10,-0.000438987,-2.78151,-0.217189,-0.271653,17.5896,0.265435,
2,0,0,1,0,52402.6,0.26428,0.263943,-1.68622,27,0.0154331,10,-0.000445066,-2.77309,-0.215163,-0.274211,18.0455,0.263943,
2,0,0,1,0,52402.6,0.262784,0.262443,-1.71335,27,0.0154011,10,-0.000449655,-2.76615,-0.250089,-0.235916,15.7539,0.262443,
2,0,0,1,0,52402.6,0.26128,0.260992,-1.73935,27,0.0153684,10,-0.000453956,-2.75961,-0.268745,-0.219539,14.9014,0.260992,
2,0,0,1,0,52402.7,0.259791,0.259442,-1.76753,27,0.0153357,10,-0.000458572,-2.75263,-0.2731,-0.216038,14.8709,0.259442,
2,0,0,1,0,52402.7,0.258287,0.257947,-1.796,27,0.0153021,10,-0.000463273,-2.74569,-0.24961,-0.236369,16.515,0.257947,
2,0,0,1,0,52402.7,0.256786,0.256446,-1.81669,27,0.015268,10,-0.000465882,-2.74072,-0.259304,-0.227532,16.0653,0.256446,
2,0,0,1,0,52402.7,0.255296,0.254953,-1.83627,27,0.0152339,10,-0.000468161,-2.73606,-0.286735,-0.205765,14.7407,0.254953,
2,0,0,1,0,52402.7,0.253793,0.253472,-1.85824,27,0.015199,10,-0.000471012,-2.7309,-0.299454,-0.197026,14.2456,0.253472,
2,0,0,1,0,52402.8,0.252289,0.251966,-1.87679,27,0.0151638,10,-0.000472888,-2.72658,-0.259126,-0.227689,16.6632,0.251966,
2,0,0,1,0,52402.8,0.2508,0.250482,-1.89635,27,0.0151285,10,-0.000475002,-2.72208,-0.284158,-0.207631,15.3738,0.250482,
2,0,0,1,0,52402.8,0.249296,0.248965,-1.91491,27,0.0150924,10,-0.000476745,-2.71785,-0.31514,-0.187218,14.0089,0.248965,
2,0,0,1,0,52402.8,0.2478,0.247481,-1.93326,27,0.0150562,10,-0.000478445,-2.71371,-0.3432,-0.171912,12.9973,0.247481,
2,0,0,1,0,52402.8,0.246304,0.245971,-1.95413,27,0.0150196,10,-0.00048066,-2.70905,-0.300631,-0.196254,14.9894,0.245971,
2,0,0,1,0,52402.8,0.2448,0.244438,-1.97537,27,0.0149825,10,-0.000482856,-2.70435,-0.384279,-0.153534,11.8407,0.244438,
2,0,0,1,0,52402.9,0.243313,0.242987,-1.98975,27,0.0149453,10,-0.000483484,-2.7012,-0.443722,-0.132966,10.3348,0.242987,
2,0,0,1,0,52402.9,0.241809,0.241505,-2.00163,27,0.0149075,10,-0.000483404,-2.69862,-0.444673,-0.132682,10.4084,0.241505,
2,0,0,1,0,52402.9,0.240306,0.239992,-2.02879,27,0.0148693,10,-0.000486893,-2.69276,-0.41245,-0.143048,11.3302,0.239992,
2,0,0,1,0,52402.9,0.238816,0.238498,-2.04812,27,0.0148312,10,-0.000488471,-2.68865,-0.493986,-0.119437,9.54419,0.2384979,
2,0,0,1,0,52402.9,0.237313,0.236987,-2.06543,27,0.0147924,10,-0.000489479,-2.68499,-0.546271,-0.108005,8.69898,0.236987,
2,0,0,1,0,52403,0.235809,0.2354,-2.0855,27,0.0147532,10,-0.000490926,-2.68079,-0.51055,-0.115562,9.39344,0.2354,
2,0,0,1,0,52403,0.23432,0.233944,-2.09884,27,0.0147142,10,-0.000491011,-2.67802,-0.49456,-0.119298,9.78211,0.233944,
2,0,0,1,0,52403,0.232816,0.232483,-2.11643,27,0.0146744,10,-0.000492033,-2.6744,-0.400369,-0.147364,12.1491,0.232483,
2,0,0,1,0,52403,0.23132,0.231016,-2.13401,27,0.0146346,10,-0.00049299,-2.6708,-0.414124,-0.142469,11.8494,0.231016,
2,0,0,1,0,52403,0.229824,0.229473,-2.15163,27,0.0145944,10,-0.000493741,-2.66723,-0.416055,-0.141808,11.868,0.229473,
2,0,0,1,0,52403.1,0.22832,0.227985,-2.16344,27,0.0145537,10,-0.000493233,-2.66485,-0.389639,-0.151422,12.777,0.2279852,
2,0,0,1,0,52403.1,0.226833,0.226516,-2.17625,27,0.0145132,10,-0.000492956,-2.66229,-0.346268,-0.170388,14.4625,0.226516,
2,0,0,1,0,52403.1,0.225329,0.225004,-2.19058,27,0.0144719,10,-0.000492887,-2.65944,-0.38487,-0.153299,13.1308,0.225004,
2,0,0,1,0,52403.1,0.223825,0.223492,-2.20769,27,0.0144303,10,-0.0004934,-2.65606,-0.461514,-0.12784,11.0287,0.223492,
2,0,0,1,0,52403.1,0.222336,0.222038,-2.21743,27,0.0143888,10,-0.000492353,-2.65415,-0.499505,-0.118117,10.258,0.222038,
2,0,0,1,0,52403.1,0.220833,0.220505,-2.23637,27,0.0143467,10,-0.00049313,-2.65046,-0.52639,-0.112084,9.7939,0.220505,
2,0,0,1,0,52403.2,0.219329,0.219008,-2.25415,27,0.0143042,10,-0.000493676,-2.64702,-0.516115,-0.114316,10.0546,0.219008,
2,0,0,1,0,52403.2,0.21784,0.217504,-2.26844,27,0.0142619,10,-0.000493395,-2.64427,-0.655091,-0.0900638,7.97792,0.217504,
2,0,0,1,0,52403.2,0.216336,0.216008,-2.27909,27,0.0142188,10,-0.0004923,-2.64224,-0.743487,-0.0793558,7.08277,0.216008,
2,0,0,1,0,52403.2,0.21484,0.214517,-2.30073,27,0.0141758,10,-0.000493545,-2.63813,-0.646058,-0.0913231,8.21712,0.214517,
2,0,0,1,0,52403.2,0.213343,0.212983,-2.31708,27,0.0141324,10,-0.000493499,-2.63506,-0.490821,-0.120207,10.8737,0.2129833,
2,0,0,1,0,52403.3,0.21184,0.211561,-2.33646,27,0.0140885,10,-0.000494305,-2.63144,-0.655991,-0.0899403,8.18762,0.211561,
2,0,0,1,0,52403.3,0.210352,0.210033,-2.34958,27,0.0140448,10,-0.000493489,-2.62901,-0.495397,-0.119096,10.9106,0.210033,
2,0,0,1,0,52403.3,0.208849,0.20851,-2.36085,27,0.0140004,10,-0.00049226,-2.62693,-0.490593,-0.120263,11.0965,0.20851,
2,0,0,1,0,52403.3,0.207345,0.207045,-2.37998,27,0.0139556,10,-0.000492762,-2.62343,-0.408109,-0.144569,13.4125,0.207045,
2,0,0,1,0,52403.3,0.205856,0.205524,-2.39914,27,0.013911,10,-0.000493082,-2.61994,-0.423891,-0.139187,12.9944,0.205524,
2,0,0,1,0,52403.4,0.204353,0.204023,-2.40992,27,0.0138657,10,-0.000491679,-2.618,-0.620351,-0.0951075,8.93867,0.204023,
2,0,0,1,0,52403.4,0.202849,0.202503,-2.41988,27,0.0138201,10,-0.000490033,-2.61621,-0.438774,-0.134466,12.7238,0.202503,
2,0,0,1,0,52403.4,0.20136,0.201011,-2.43855,27,0.0137747,10,-0.000490175,-2.61287,-0.508333,-0.116066,11.0518,0.201011,
2,0,0,1,0,52403.4,0.199856,0.199531,-2.45446,27,0.0137285,10,-0.00048974,-2.61004,-0.494003,-0.119432,11.4494,0.199531,
2,0,0,1,0,52403.4,0.19836,0.198045,-2.46565,27,0.0136822,10,-0.00048831,-2.60807,-0.55522,-0.106264,10.2436,0.198045,
2,0,0,1,0,52403.4,0.196863,0.196511,-2.48021,27,0.0136357,10,-0.000487389,-2.60551,-0.625551,-0.0943168,9.1533,0.196511,
2,0,0,1,0,52403.5,0.19536,0.194983,-2.49813,27,0.0135887,10,-0.000487093,-2.60238,-0.592903,-0.0995104,9.71272,0.194983,
2,0,0,1,0,52403.5,0.193872,0.193535,-2.51805,27,0.0135418,10,-0.000487331,-2.59894,-0.544818,-0.108293,10.632,0.193535,
2,0,0,1,0,52403.5,0.192369,0.192034,-2.53768,27,0.0134941,10,-0.000487322,-2.59556,-0.638927,-0.0923424,9.12812,0.192034,
2,0,0,1,0,52403.5,0.190865,0.190511,-2.55265,27,0.0134461,10,-0.000486309,-2.59301,-0.590428,-0.0999276,9.9498,0.190511,
2,0,0,1,0,52403.5,0.189376,0.189029,-2.56791,27,0.0133983,10,-0.00048541,-2.59042,-0.563999,-0.10461,10.4869,0.189029,
2,0,0,1,0,52403.6,0.187872,0.187483,-2.58695,27,0.0133497,10,-0.00048501,-2.58721,-0.519894,-0.113485,11.4549,0.187483,
2,0,0,1,0,52403.6,0.186369,0.186028,-2.6064,27,0.0133007,10,-0.000484864,-2.58396,-0.519905,-0.113482,11.5348,0.186028,
2,0,0,1,0,52403.6,0.18488,0.18455,-2.62425,27,0.0132519,10,-0.000484305,-2.58099,-0.515163,-0.114527,11.7038,0.18455,
2,0,0,1,0,52403.6,0.183376,0.183001,-2.6417,27,0.0132023,10,-0.000483433,-2.57812,-0.413825,-0.142572,14.7008,0.1830005,
2,0,0,1,0,52403.6,0.18188,0.181543,-2.66048,27,0.0131526,10,-0.000482991,-2.57504,-0.413684,-0.142621,14.7778,0.181543,
2,0,0,1,0,52403.7,0.180383,0.180042,-2.67985,27,0.0131025,10,-0.000482485,-2.57189,-0.410931,-0.143577,15.0014,0.180042,
2,0,0,1,0,52403.7,0.17888,0.178532,-2.69905,27,0.0130518,10,-0.000481867,-2.56879,-0.444556,-0.132717,13.9802,0.178532,
2,0,0,1,0,52403.7,0.177392,0.177048,-2.71419,27,0.0130012,10,-0.000480542,-2.56636,-0.413548,-0.142668,15.1395,0.177048,
2,0,0,1,0,52403.7,0.175889,0.175534,-2.73427,27,0.0129497,10,-0.000479957,-2.56316,-0.430069,-0.137187,14.6789,0.175534,
2,0,0,1,0,52403.7,0.174385,0.174071,-2.75992,27,0.0128978,10,-0.000480421,-2.5591,-0.424623,-0.138947,14.9868,0.174071,
2,0,0,1,0,52403.7,0.172896,0.172569,-2.78503,27,0.012846,10,-0.000480609,-2.55517,-0.441101,-0.133756,14.5524,0.172569,
2,0,0,1,0,52403.8,0.171392,0.17105,-2.80347,27,0.0127932,10,-0.000479533,-2.5523,-0.465922,-0.126631,13.898,0.17105,
2,0,0,1,0,52403.8,0.169889,0.169574,-2.8349,27,0.01274,10,-0.000480725,-2.54746,-0.413284,-0.142759,15.8175,0.169574,
2,0,0,1,0,52403.8,0.1684,0.168047,-2.86575,27,0.0126868,10,-0.00048158,-2.54276,-0.368651,-0.160043,17.8879,0.168047,
2,0,0,1,0,52403.8,0.166896,0.166527,-2.89269,27,0.0126325,10,-0.000481711,-2.5387,-0.365911,-0.161241,18.1798,0.166527,
2,0,0,1,0,52403.8,0.165392,0.165006,-2.92052,27,0.0125777,10,-0.000481903,-2.53454,-0.370992,-0.159033,18.1116,0.165006,
2,0,0,1,0,52403.9,0.163905,0.163559,-2.95195,27,0.012523,10,-0.000482819,-2.52989,-0.323051,-0.182634,21.0434,0.163559,
2,0,0,1,0,52403.9,0.162401,0.162082,-2.98396,27,0.0124671,10,-0.000483645,-2.52521,-0.279853,-0.210825,24.5482,0.162082,
2,0,0,1,0,52403.9,0.160905,0.160558,-3.02133,27,0.0124108,10,-0.000485099,-2.5198,-0.25741,-0.229206,26.9782,0.160558,
2,0,0,1,0,52403.9,0.159409,0.159075,-3.06013,27,0.0123538,10,-0.000486789,-2.51426,-0.25808,-0.228611,27.2478,0.159075,
2,0,0,1,0,52403.9,0.157905,0.157564,-3.09356,27,0.0122959,10,-0.000487432,-2.50954,-0.238972,-0.246891,29.8431,0.157564,
2,0,0,1,0,52404,0.156416,0.156076,-3.13787,27,0.0122377,10,-0.000489746,-2.50337,-0.220459,-0.267623,32.8236,0.156076,
2,0,0,1,0,52404,0.154912,0.154555,-3.18735,27,0.012178,10,-0.00049262,-2.49657,-0.202773,-0.290966,36.216,0.154555,
2,0,0,1,0,52404,0.153409,0.15308,-3.23692,27,0.0121174,10,-0.00049551,-2.48987,-0.201601,-0.292657,37.032,0.15308,
2,0,0,1,0,52404,0.151919,0.151592,-3.28605,27,0.0120564,10,-0.00049814,-2.48333,-0.199042,-0.29642,38.1472,0.151592,
2,0,0,1,0,52404,0.150416,0.150084,-3.34963,27,0.0119938,10,-0.000502725,-2.475,-0.183959,-0.320724,42.0625,0.150084,
2,0,0,1,0,52404,0.148912,0.148581,-3.4159,27,0.0119299,10,-0.000507539,-2.4665,-0.169304,-0.348487,46.5722,0.148581,
2,0,0,1,0,52404.1,0.147425,0.147089,-3.49366,27,0.0118654,10,-0.000513878,-2.45672,-0.162276,-0.363578,49.6656,0.147089,
2,0,0,1,0,52404.1,0.145921,0.145599,-3.5735,27,0.0117987,10,-0.000520297,-2.44691,-0.147569,-0.399813,55.8754,0.1455989,
2,0,0,1,0,52404.1,0.144425,0.144097,-3.66687,27,0.0117308,10,-0.000528385,-2.4357,-0.140178,-0.420893,60.3392,0.144097,
2,0,0,1,0,52404.1,0.142929,0.142568,-3.76924,27,0.0116612,10,-0.000537374,-2.42375,-0.127889,-0.461337,67.8532,0.142568,
2,0,0,1,0,52404.1,0.141425,0.141099,-3.87653,27,0.0115892,10,-0.000546973,-2.41156,-0.122134,-0.483078,73.0353,0.141099,
2,0,0,1,0,52404.2,0.139936,0.139569,-3.99111,27,0.0115159,10,-0.000557034,-2.39891,-0.116464,-0.506594,79.0051,0.139569,
2,0,0,1,0,52404.2,0.138432,0.138009,-4.11044,27,0.0114396,10,-0.000567279,-2.38611,-0.107807,-0.547273,88.0129,0.138009,
2,0,0,1,0,52404.2,0.136929,0.136619,-4.25268,27,0.0113608,10,-0.000580997,-2.37134,-0.101896,-0.579024,96.0944,0.136619,
2,0,0,1,0,52404.2,0.135439,0.135091,-4.39756,27,0.0112802,10,-0.000594072,-2.35679,-0.100503,-0.587049,100.665,0.135091,
2,0,0,1,0,52404.2,0.133936,0.133577,-4.54309,27,0.011196,10,-0.000606852,-2.34265,-0.102137,-0.577658,102.388,0.133577,
2,0,0,1,0,52404.3,0.132432,0.132099,-4.69531,27,0.011109,10,-0.000620244,-2.32834,-0.104556,-0.564291,103.361,0.132099,
2,0,0,1,0,52404.3,0.130945,0.130638,-4.83767,27,0.01102,10,-0.000631981,-2.31536,-0.104422,-0.565013,107.005,0.130638,
2,0,0,1,0,52404.3,0.129441,0.129111,-5.01049,27,0.0109272,10,-0.000646909,-2.30012,-0.104447,-0.564879,110.478,0.129111,
2,0,0,1,0,52404.3,0.127945,0.127617,-5.17234,27,0.0108317,10,-0.000660079,-2.28631,-0.110986,-0.531599,107.302,0.127617,
2,0,0,1,0,52404.3,0.126448,0.126082,-5.33433,27,0.0107331,10,-0.000672562,-2.27292,-0.115017,-0.512969,106.858,0.126082,
2,0,0,1,0,52404.3,0.124945,0.124634,-5.49394,27,0.0106311,10,-0.000684729,-2.26012,-0.120939,-0.487847,104.6,0.124634,
2,0,0,1,0,52404.4,0.123456,0.123134,-5.6535,27,0.0105271,10,-0.000696139,-2.24768,-0.127196,-0.463852,102.259,0.123134,
2,0,0,1,0,52404.4,0.121952,0.121643,-5.81223,27,0.0104191,10,-0.000707019,-2.23566,-0.134834,-0.437575,99.0917,0.121643,
2,0,0,1,0,52404.4,0.120449,0.120117,-5.959,27,0.0103083,10,-0.000715777,-2.22483,-0.142296,-0.414629,96.3771,0.120117,
2,0,0,1,0,52404.4,0.118959,0.118595,-6.10802,27,0.0101959,10,-0.000724379,-2.2141,-0.150103,-0.393065,93.5515,0.1185948,
2,0,0,1,0,52404.4,0.117456,0.117146,-6.24774,27,0.0100796,10,-0.000731895,-2.20428,-0.157433,-0.374762,91.2108,0.117146,
2,0,0,1,0,52404.5,0.115952,0.115583,-6.38629,27,0.0099607,10,-0.000738147,-2.19475,-0.16642,-0.354524,88.1463,0.115583,
2,0,0,1,0,52404.5,0.114465,0.114101,-6.51379,27,0.00984063,10,-0.000743231,-2.18617,-0.179423,-0.328833,83.431,0.1141011,
2,0,0,1,0,52404.5,0.112961,0.112645,-6.62898,27,0.00971698,10,-0.000746722,-2.17855,-0.187886,-0.314021,81.1563,0.112645,
2,0,0,1,0,52404.5,0.111465,0.111159,-6.74508,27,0.00959174,10,-0.000749779,-2.17101,-0.197319,-0.299008,78.569,0.111159,
2,0,0,1,0,52404.5,0.109968,0.109654,-6.8502,27,0.00946441,10,-0.000751151,-2.1643,-0.222371,-0.265323,70.8561,0.109654,
2,0,0,1,0,52404.6,0.108465,0.10813,-6.95071,27,0.00933442,10,-0.000751582,-2.15797,-0.246507,-0.239344,64.8365,0.10813,
2,0,0,1,0,52404.6,0.106976,0.106658,-7.0388,27,0.00920407,10,-0.000750745,-2.1525,-0.273913,-0.215397,59.1539,0.106658,
2,0,0,1,0,52404.6,0.105472,0.105112,-7.12735,27,0.00907063,10,-0.000749173,-2.14707,-0.293016,-0.201354,55.9697,0.105112,
2,0,0,1,0,52404.6,0.103968,0.103647,-7.20679,27,0.00893562,10,-0.000746963,-2.14226,-0.34801,-0.169535,47.6465,0.103647,
2,0,0,1,0,52404.6,0.102479,0.102151,-7.27797,27,0.00880067,10,-0.000743452,-2.13799,-0.415899,-0.141862,40.2362,0.102151,
2,0,0,1,0,52404.6,0.100976,0.100626,-7.32499,27,0.0086631,10,-0.000737083,-2.13519,-0.544469,-0.108362,30.9781,0.100626,
2,0,0,1,0,52404.7,0.0994721,0.0991424,-7.37982,27,0.00852462,10,-0.000731654,-2.13195,-0.652716,-0.0903916,26.0035,0.0991424,
2,0,0,1,0,52404.7,0.0979846,0.0976448,-7.41787,27,0.0083868,10,-0.000724316,-2.12972,-0.791289,-0.0745619,21.5545,0.0976448,
2,0,0,1,0,52404.7,0.0964811,0.0961287,-7.44586,27,0.0082469,10,-0.000715761,-2.12809,-1.4848,-0.039736,11.5278,0.0961287,
2,0,0,1,0,52404.7,0.0949847,0.0946463,-7.46412,27,0.00810733,10,-0.000706451,-2.12702,-2.86276,-0.0206095,5.99225,0.0946463,
2,0,0,1,0,52404.7,0.0934883,0.0931517,-7.47051,27,0.00796762,10,-0.000695891,-2.12665,-13.142,-0.00448944,1.30704,0.0931517,
2,0,0,1,0,52404.8,0.0919847,0.0916513,-7.46588,27,0.00782709,10,-0.000684258,-2.12692,8.01184,0.0073641,-2.14365,0.0916513,
2,0,0,1,0,52404.8,0.0904955,0.0901486,-7.45969,27,0.00768808,10,-0.00067248,-2.12728,1.83215,0.0322027,-9.35612,0.0901486,
2,0,0,1,0,52404.8,0.0889919,0.0886376,-7.44151,27,0.00754788,10,-0.000659597,-2.12834,1.33262,0.0442738,-12.8434,0.08863759,
2,0,0,1,0,52404.8,0.0874884,0.0871624,-7.41104,27,0.00740813,10,-0.000645964,-2.13012,0.976552,0.0604167,-17.4643,0.08716242,
2,0,0,1,0,52404.8,0.0860009,0.0856378,-7.38106,27,0.00727037,10,-0.000632098,-2.13188,0.920511,0.0640949,-18.4521,0.0856378,
2,0,0,1,0,52404.9,0.0844974,0.0841654,-7.34536,27,0.00713174,10,-0.000618225,-2.13399,0.778248,0.0758113,-21.7344,0.0841654,
2,0,0,1,0,52404.9,0.0829938,0.0826179,-7.30717,27,0.00699377,10,-0.000603704,-2.13625,0.657047,0.0897958,-25.6107,0.0826179,
2,0,0,1,0,52404.9,0.0815045,0.0811823,-7.25854,27,0.00685803,10,-0.000589265,-2.13915,0.628027,0.093945,-26.6513,0.0811823,
2,0,0,1,0,52404.9,0.080001,0.0796495,-7.22209,27,0.00672159,10,-0.000575236,-2.14134,0.630027,0.0936469,-26.4168,0.0796495,
2,0,0,1,0,52404.9,0.0785046,0.078169,-7.1882,27,0.00658654,10,-0.000561894,-2.14338,0.611069,0.0965521,-27.0924,0.078169,
2,0,0,1,0,52404.9,0.0770082,0.076694,-7.14989,27,0.00645226,10,-0.000548354,-2.1457,0.55475,0.106354,-29.6797,0.076694,
2,0,0,1,0,52405,0.0755046,0.0751616,-7.11165,27,0.00631801,10,-0.000534523,-2.14803,0.605799,0.0973921,-27.0315,0.0751616,
2,0,0,1,0,52405,0.0740154,0.0736643,-7.07932,27,0.00618591,10,-0.000521493,-2.15001,0.661687,0.089166,-24.6306,0.0736643,
2,0,0,1,0,52405,0.0725118,0.0721574,-7.04899,27,0.00605305,10,-0.000508636,-2.15187,0.687205,0.085855,-23.5999,0.0721574,
2,0,0,1,0,52405,0.0710083,0.0706723,-7.01261,27,0.00592078,10,-0.000495598,-2.15412,0.757739,0.0778632,-21.2891,0.0706723,
2,0,0,1,0,52405,0.0695208,0.0691842,-6.98044,27,0.0057905,10,-0.000482936,-2.15612,0.846143,0.0697282,-18.9915,0.0691842,
2,0,0,1,0,52405.1,0.0680173,0.0677019,-6.94618,27,0.00565949,10,-0.000470269,-2.15825,0.905854,0.0651319,-17.6706,0.0677019,
2,0,0,1,0,52405.1,0.0665137,0.0662076,-6.92023,27,0.00552894,10,-0.000458172,-2.15988,1.11529,0.052901,-14.2843,0.06620761,
2,0,0,1,0,52405.1,0.0650244,0.0646333,-6.89427,27,0.00540027,10,-0.000445599,-2.16151,1.04942,0.0562214,-15.1297,0.06463325,
2,0,0,1,0,52405.1,0.0635209,0.0631628,-6.86714,27,0.0052707,10,-0.000433748,-2.16322,0.913516,0.0645856,-17.3031,0.0631628,
2,0,0,1,0,52405.1,0.0620245,0.0616755,-6.83217,27,0.00514237,10,-0.000421378,-2.16544,0.941248,0.0626828,-16.7333,0.0616755,
2,0,0,1,0,52405.2,0.0605281,0.0601624,-6.80737,27,0.0050146,10,-0.000409547,-2.16702,0.997922,0.0591229,-15.7174,0.06016238,
2,0,0,1,0,52405.2,0.0590246,0.0586821,-6.78146,27,0.00488658,10,-0.00039795,-2.16868,1.05188,0.0560902,-14.8556,0.0586821,
2,0,0,1,0,52405.2,0.0575353,0.057212,-6.75953,27,0.0047604,10,-0.000386727,-2.17008,0.82833,0.0712276,-18.7882,0.057212,
2,0,0,1,0,52405.2,0.0560317,0.0557069,-6.7223,27,0.00463342,10,-0.000374478,-2.17248,0.795001,0.0742137,-19.4989,0.0557069,
2,0,0,1,0,52405.2,0.0545282,0.054201,-6.70064,27,0.00450699,10,-0.000363182,-2.17388,0.82246,0.071736,-18.7561,0.054201,
2,0,0,1,0,52405.2,0.0530407,0.0526924,-6.67959,27,0.00438238,10,-0.000351964,-2.17525,0.784884,0.0751704,-19.5749,0.0526924,
2,0,0,1,0,52405.3,0.0515372,0.051193,-6.65035,27,0.00425696,10,-0.000340452,-2.17716,0.725897,0.0812787,-21.0761,0.051193,
2,0,0,1,0,52405.3,0.0500336,0.0496783,-6.61398,27,0.00413209,10,-0.000328571,-2.17954,0.697076,0.0846393,-21.8415,0.0496783,
2,0,0,1,0,52405.3,0.0485444,0.0482291,-6.5866,27,0.00400919,10,-0.000317665,-2.18134,0.668162,0.0883019,-22.6881,0.0482291,
2,0,0,1,0,52405.3,0.0470408,0.0467546,-6.55457,27,0.00388553,10,-0.000306456,-2.18346,0.715985,0.082404,-21.0762,0.0467546,
2,0,0,1,0,52405.3,0.0455444,0.0451904,-6.52174,27,0.00376311,10,-0.00029472,-2.18564,0.712706,0.0827831,-21.0614,0.0451904,
2,0,0,1,0,52405.4,0.044048,0.0437439,-6.49033,27,0.00364129,10,-0.000283912,-2.18773,0.667484,0.0883917,-22.377,0.04374389,
2,0,0,1,0,52405.4,0.0425445,0.0422271,-6.4519,27,0.00351949,10,-0.000272445,-2.19031,0.643061,0.0917486,-23.1054,0.0422271,
2,0,0,1,0,52405.4,0.0410552,0.040711,-6.41975,27,0.00339963,10,-0.000261355,-2.19248,0.715508,0.0824589,-20.656,0.040711,
2,0,0,1,0,52405.4,0.0395516,0.0391984,-6.38581,27,0.00327905,10,-0.000250313,-2.19478,0.717271,0.0822562,-20.4839,0.0391984,
2,0,0,1,0,52405.4,0.0380481,0.0376755,-6.35015,27,0.00315915,10,-0.000239245,-2.19722,0.581622,0.10144,-25.1267,0.0376755,
2,0,0,1,0,52405.5,0.0365606,0.0361761,-6.30698,27,0.00304126,10,-0.000228162,-2.20018,0.568511,0.10378,-25.5582,0.0361761,
2,0,0,1,0,52405.5,0.0350571,0.0347309,-6.26572,27,0.00292284,10,-0.000217614,-2.20303,0.581801,0.101409,-24.8149,0.0347309,
2,0,0,1,0,52405.5,0.0335535,0.0332298,-6.23139,27,0.0028051,10,-0.000207068,-2.20541,0.53273,0.11075,-26.9248,0.0332298,
2,0,0,1,0,52405.5,0.0320643,0.031681,-6.18888,27,0.00268934,10,-0.00019607,-2.20839,0.480575,0.12277,-29.6557,0.031681,
2,0,0,1,0,52405.5,0.0305607,0.0302495,-6.1422,27,0.00257317,10,-0.000185798,-2.21168,0.44832,0.131603,-31.5801,0.0302495,
2,0,0,1,0,52405.5,0.0290643,0.0287282,-6.10452,27,0.00245842,10,-0.000175372,-2.21435,0.462521,0.127562,-30.3771,0.0287282,
2,0,0,1,0,52405.6,0.0275679,0.0272153,-6.06471,27,0.00234446,10,-0.000165053,-2.21719,0.442825,0.133235,-31.5133,0.0272153,
2,0,0,1,0,52405.6,0.0260644,0.0257347,-6.02364,27,0.00223072,10,-0.000155016,-2.22014,0.416193,0.141761,-33.2783,0.0257347,
2,0,0,1,0,52405.6,0.0245751,0.0242182,-5.97197,27,0.00211901,10,-0.000144631,-2.22388,0.4522,0.130473,-30.4097,0.0242182,
2,0,0,1,0,52405.6,0.0230716,0.0227257,-5.93167,27,0.00200704,10,-0.000134801,-2.22682,0.425899,0.13853,-32.0372,0.0227257,
2,0,0,1,0,52405.6,0.021568,0.0212188,-5.88636,27,0.00189587,10,-0.000124902,-2.23015,0.491051,0.120151,-27.5747,0.0212188,
2,0,0,1,0,52405.7,0.0200805,0.0197446,-5.83884,27,0.00178672,10,-0.000115286,-2.23367,0.458829,0.128588,-29.2858,0.0197446,
2,0,0,1,0,52405.7,0.018577,0.0182633,-5.78999,27,0.00167725,10,-0.000105745,-2.23732,0.459635,0.128363,-29.0141,0.0182633,
2,0,0,1,0,52405.7,0.0170735,0.0166917,-5.74459,27,0.00156864,10,-9.58869e-05,-2.24074,0.494511,0.11931,-26.764,0.0166917,
2,0,0,1,0,52405.7,0.0155842,0.0151974,-5.70216,27,0.00146197,10,-8.66582e-05,-2.24396,0.498914,0.118257,-26.3346,0.0151974,
2,0,0,1,0,52405.7,0.0140806,0.0136933,-5.66509,27,0.00135488,10,-7.75738e-05,-2.24679,0.491755,0.119978,-26.524,0.0136933,
2,0,0,1,0,52405.8,0.0125842,0.01222,-5.62465,27,0.00124912,10,-6.87331e-05,-2.2499,0.461482,0.127849,-28.0539,0.01221998,
2,0,0,1,0,52405.8,0.0110878,0.0107334,-5.57696,27,0.00114419,10,-5.98597e-05,-2.2536,0.468497,0.125935,-27.4542,0.0107334,
2,0,0,1,0,52405.8,0.00958429,0.00923299,-5.542,27,0.00103943,10,-5.11692e-05,-2.25633,0.529383,0.11145,-24.1106,0.00923299,
2,0,0,1,0,52405.8,0.0080968,0.00776668,-5.5067,27,0.000936427,10,-4.27688e-05,-2.25911,0.520121,0.113435,-24.4067,0.00776668,
2,0,0,1,0,52405.8,0.00659326,0.00621856,-5.47567,27,0.000832978,10,-3.40508e-05,-2.26156,0.533372,0.110617,-23.6473,0.00621856,
2,0,0,1,0,52405.8,0.00508972,0.00466396,-5.4393,27,0.000730167,10,-2.53687e-05,-2.26446,0.563649,0.104675,-22.2503,0.00466396,
2,0,0,1,0,52405.9,0.00360044,0.00330093,-5.41586,27,0.000629069,10,-1.78774e-05,-2.26633,0.933024,0.0632353,-13.3973,0.00330093,
2,0,0,1,0,52405.9,0.0020969,0.00175588,-5.42705,27,0.000527302,10,-9.52922e-06,-2.26544,0.97027,0.0608078,-12.8007,0.00175588,
2,0,0,1,0,52405.9,0.000593362,0.000223096,-5.38312,27,0.000425595,10,-1.20095e-06,-2.26897, , , ,0.000223096,
2,0,0,1,0,52405.9,0.000199195,-0.00019553,-5.3686,27,0.000399198,10,1.04972e-06,-2.27014, , , ,-0.00019553,