File: Figure_codes/Fig_3-5/rawdata_trumpetplot_data/after 10th/20221101_1-115_003_TrumpetPlot_ParaChange_from10_every3_07_CV_C01_0.csv
mode,ox/red,error,control changes,counter inc.,time/s,control/V,Ewe/V,<I>/mA,cycle number,(Q-Qo)/C,I Range,P/W,log(|I|),Tafel slope mV/dec,alpha_eff,dI/d(E-IR),E-IR/V,
2,0,0,1,0,1165.02,2.44065e-05,-0.000248974,-2.63525,1,0.0000000E+000,10,6.5611e-07,-2.57918, , , ,-0.000248974,
2,0,0,1,0,1165.04,0.0013005,0.000943983,-0.483892,1,-2.88503e-05,10,-4.56786e-07,-3.31525, , , ,0.000943983,
2,1,0,1,0,1165.06,0.00279471,0.0024524,0.797815,1,-2.28009e-05,10,1.95656e-06,-3.0981,0.0296572,1.9894,668.987,0.002452397,
2,1,0,1,0,1165.09,0.00429425,0.0039946,1.42262,1,6.2944e-06,10,5.6828e-06,-2.84691,0.00677306,8.71098,342.684,0.0039946,
2,1,0,1,0,1165.11,0.00579379,0.00545659,1.77253,1,4.71174e-05,10,9.67196e-06,-2.75141,0.0191496,3.081,195.156,0.00545659,
2,1,0,1,0,1165.14,0.007288,0.00699617,1.98948,1,9.45706e-05,10,1.39187e-05,-2.70126,0.0353603,1.66854,124.52,0.00699617,
2,1,0,1,0,1165.16,0.00878882,0.00843902,2.13163,1,0.000146715,10,1.79888e-05,-2.67129,0.0582963,1.01207,82.666,0.00843902,
2,1,0,1,0,1165.19,0.0102896,0.00998585,2.23834,1,0.000201836,10,2.23517e-05,-2.65007,0.0932603,0.632638,54.4517,0.00998585,
2,1,0,1,0,1165.21,0.0117838,0.0114985,2.31335,1,0.000258847,10,2.66e-05,-2.63576,0.113888,0.518055,46.3879,0.0114985,
2,1,0,1,0,1165.24,0.0132834,0.012986,2.36687,1,0.000317664,10,3.07362e-05,-2.62583,0.125508,0.470089,43.4192,0.012986,
2,1,0,1,0,1165.26,0.0147816,0.0144632,2.41149,1,0.000377968,10,3.48779e-05,-2.61771,0.148645,0.396918,37.4953,0.0144632,
2,1,0,1,0,1165.29,0.0162811,0.0160016,2.47568,1,0.000439711,10,3.96147e-05,-2.60631,0.192991,0.305713,29.43,0.0160016,
2,1,0,1,0,1165.31,0.0177753,0.0174319,2.52334,1,0.000502384,10,4.39866e-05,-2.59802,0.216659,0.272318,26.6901,0.0174319,
2,1,0,1,0,1165.34,0.0192761,0.0189521,2.55555,1,0.000566153,10,4.84331e-05,-2.59252,0.224452,0.262863,26.2317,0.0189521,
2,1,0,1,0,1165.36,0.020777,0.0204593,2.59468,1,0.000630979,10,5.30852e-05,-2.58592,0.210668,0.280061,28.3704,0.0204593,
2,1,0,1,0,1165.39,0.0222712,0.0220004,2.64081,1,0.00069659,10,5.80988e-05,-2.57826,0.245949,0.239887,24.6845,0.0220004,
2,1,0,1,0,1165.41,0.0237707,0.0234853,2.67704,1,0.000763487,10,6.28713e-05,-2.57234,0.235409,0.250628,26.1625,0.0234853,
2,1,0,1,0,1165.44,0.0252703,0.0250046,2.71352,1,0.000831297,10,6.78505e-05,-2.56647,0.233321,0.25287,26.8512,0.0250046,
2,1,0,1,0,1165.46,0.0267645,0.0264542,2.74723,1,0.000899819,10,7.26758e-05,-2.5611,0.221089,0.266861,28.7482,0.0264542,
2,1,0,1,0,1165.49,0.0282653,0.0279829,2.80478,1,0.000969647,10,7.8486e-05,-2.5521,0.244813,0.241,26.3068,0.0279829,
2,1,0,1,0,1165.51,0.0297648,0.0294479,2.84668,1,0.0010406,10,8.38286e-05,-2.54566,0.236945,0.249003,27.516,0.0294479,
2,1,0,1,0,1165.54,0.031259,0.0309206,2.87105,1,0.00111227,10,8.87745e-05,-2.54196,0.224083,0.263295,29.5757,0.0309206,
2,1,0,1,0,1165.56,0.0327585,0.0324559,2.91719,1,0.00118512,10,9.46799e-05,-2.53504,0.232976,0.253245,28.9473,0.0324559,
2,1,0,1,0,1165.59,0.034258,0.0339369,2.96175,1,0.00125913,10,0.000100513,-2.52845,0.235191,0.25086,29.0655,0.0339369,
2,1,0,1,0,1165.61,0.0357576,0.0354456,3.01656,1,0.00133433,10,0.000106924,-2.52049,0.226202,0.260829,30.6335,0.0354456,
2,1,0,1,0,1165.64,0.0372518,0.0369612,3.06017,1,0.00141039,10,0.000113108,-2.51425,0.20861,0.282824,33.7981,0.0369612,
2,1,0,1,0,1165.66,0.0387526,0.038428,3.10314,1,0.00148782,10,0.000119247,-2.5082,0.21163,0.278789,33.9051,0.038428,
2,1,0,1,0,1165.69,0.0402534,0.039971,3.16062,1,0.00156656,10,0.000126333,-2.50023,0.205808,0.286675,35.3278,0.039971,
2,1,0,1,0,1165.71,0.0417476,0.0414083,3.22085,1,0.0016464,10,0.00013337,-2.49203,0.209205,0.28202,35.3113,0.0414083,
2,1,0,1,0,1165.74,0.0432472,0.0429487,3.27365,1,0.0017279,10,0.000140599,-2.48497,0.204401,0.288648,36.8073,0.0429487,
2,1,0,1,0,1165.76,0.0447467,0.0444571,3.31293,1,0.00181059,10,0.000147284,-2.47979,0.20787,0.283832,36.8405,0.04445713,
2,1,0,1,0,1165.79,0.0462463,0.0459364,3.37574,1,0.00189467,10,0.000155069,-2.47163,0.198609,0.297066,39.1288,0.0459364,
2,1,0,1,0,1165.81,0.0477391,0.0474261,3.43922,1,0.00197993,10,0.000163109,-2.46354,0.199199,0.296187,39.6686,0.0474261,
2,1,0,1,0,1165.84,0.0492399,0.0489305,3.49437,1,0.00206696,10,0.000170981,-2.45663,0.202284,0.291669,39.7426,0.0489305,
2,1,0,1,0,1165.86,0.0507408,0.0504861,3.54081,1,0.00215544,10,0.000178762,-2.4509,0.206909,0.28515,39.5312,0.0504861,
2,1,0,1,0,1165.89,0.052235,0.0519051,3.61156,1,0.00224498,10,0.000187458,-2.4423,0.210531,0.280243,39.5669,0.0519051,
2,1,0,1,0,1165.91,0.0537345,0.0534282,3.68022,1,0.00233649,10,0.000196627,-2.43413,0.197063,0.299397,42.9459,0.0534282,
2,1,0,1,0,1165.94,0.0552341,0.0549446,3.73793,1,0.00242969,10,0.000205379,-2.42737,0.202462,0.291412,42.4826,0.0549446,
2,1,0,1,0,1165.96,0.0567283,0.0563854,3.79043,1,0.002524,10,0.000213725,-2.42131,0.223153,0.264393,39.2537,0.0563854,
2,1,0,1,0,1165.99,0.0582291,0.0579239,3.86326,1,0.00262015,10,0.000223775,-2.41305,0.225763,0.261336,39.4324,0.0579239,
2,1,0,1,0,1166.01,0.0597299,0.0594019,3.93399,1,0.00271795,10,0.000233686,-2.40517,0.206075,0.286303,43.8221,0.0594019,
2,1,0,1,0,1166.04,0.0612228,0.0609424,3.99453,1,0.002817,10,0.000243436,-2.39853,0.217624,0.271109,42.1937,0.0609424,
2,1,0,1,0,1166.06,0.0627223,0.0623791,4.04919,1,0.00291802,10,0.000252585,-2.39263,0.218859,0.26958,42.6905,0.0623791,
2,1,0,1,0,1166.09,0.0642218,0.0639265,4.11282,1,0.00302048,10,0.000262918,-2.38586,0.235846,0.250163,40.1845,0.0639265,
2,1,0,1,0,1166.11,0.0657214,0.0654029,4.17949,1,0.00312461,10,0.000273351,-2.37888,0.219982,0.268203,43.7092,0.0654029,
2,1,0,1,0,1166.14,0.0672156,0.0669793,4.24872,1,0.00322994,10,0.000284576,-2.37174,0.225678,0.261435,43.2691,0.0669793,
2,1,0,1,0,1166.16,0.0687164,0.0684583,4.30019,1,0.00333729,10,0.000294384,-2.36651,0.27239,0.216601,36.3689,0.0684583,
2,1,0,1,0,1166.19,0.0702172,0.0699122,4.35955,1,0.00344597,10,0.000304786,-2.36056,0.280145,0.210605,35.8609,0.06991224,
2,1,0,1,0,1166.21,0.0717114,0.0713852,4.42785,1,0.00355568,10,0.000316083,-2.35381,0.254274,0.232033,39.9493,0.0713852,
2,1,0,1,0,1166.24,0.073211,0.0729336,4.4763,1,0.00366735,10,0.000326473,-2.34908,0.244061,0.241743,42.2307,0.0729336,
2,1,0,1,0,1166.26,0.0747105,0.074434,4.531,1,0.00378041,10,0.00033726,-2.34381,0.28734,0.205332,36.3175,0.07443402,
2,1,0,1,0,1166.29,0.0762101,0.0759357,4.57746,1,0.00389486,10,0.000347592,-2.33938,0.296412,0.199048,35.654,0.0759357,
2,1,0,1,0,1166.31,0.0777042,0.0773591,4.64635,1,0.00401009,10,0.000359437,-2.33289,0.287824,0.204986,37.1326,0.0773591,
2,1,0,1,0,1166.34,0.0792037,0.0789373,4.7034,1,0.00412728,10,0.000371274,-2.32759,0.266332,0.221528,40.5844,0.07893727,
2,1,0,1,0,1166.36,0.0807046,0.0803741,4.74423,1,0.00424589,10,0.000381313,-2.32383,0.331373,0.178047,32.9716,0.0803741,
2,1,0,1,0,1166.39,0.0821988,0.0819188,4.7957,1,0.00436528,10,0.000392858,-2.31915,0.366083,0.161166,30.2107,0.0819188,
2,1,0,1,0,1166.41,0.0836983,0.0834112,4.84818,1,0.00448622,10,0.000404393,-2.31442,0.339172,0.173953,32.9362,0.0834112,
2,1,0,1,0,1166.44,0.0851979,0.0848588,4.89644,1,0.00460848,10,0.000415506,-2.31012,0.306466,0.192517,36.8215,0.08485879,
2,1,0,1,0,1166.46,0.0866921,0.0863688,4.94851,1,0.00473156,10,0.000427396,-2.30553,0.337841,0.174638,33.7497,0.0863688,
2,1,0,1,0,1166.49,0.0881929,0.0878719,4.99963,1,0.00485641,10,0.000439327,-2.30106,0.36,0.163889,31.9937,0.0878719,
2,1,0,1,0,1166.51,0.0896937,0.0893637,5.06273,1,0.00498246,10,0.000452425,-2.29562,0.337638,0.174743,34.4726,0.0893637,
2,1,0,1,0,1166.54,0.0911879,0.0908906,5.11094,1,0.00510934,10,0.000464537,-2.2915,0.292108,0.20198,40.2208,0.0908906,
2,1,0,1,0,1166.56,0.0926861,0.0923952,5.15769,1,0.00523817,10,0.000476546,-2.28754,0.317709,0.185704,37.41,0.0923952,
2,1,0,1,0,1166.59,0.0941856,0.0939237,5.21566,1,0.00536834,10,0.000489874,-2.28269,0.368626,0.160054,32.5791,0.0939237,
2,1,0,1,0,1166.61,0.0956852,0.095379,5.26388,1,0.00549974,10,0.000502064,-2.27869,0.353306,0.166994,34.348,0.095379,
2,1,0,1,0,1166.64,0.0971794,0.0968819,5.32394,1,0.00563198,10,0.000515793,-2.27377,0.274275,0.215112,44.7189,0.0968819,
2,1,0,1,0,1166.66,0.0986802,0.0983752,5.38425,1,0.00576633,10,0.000529677,-2.26887,0.273066,0.216065,45.5013,0.0983752,
2,1,0,1,0,1166.69,0.100181,0.0999218,5.46167,1,0.0059024,10,0.000545739,-2.26267,0.281036,0.209937,44.7701,0.0999218,
2,1,0,1,0,1166.71,0.101675,0.101385,5.53275,1,0.00603971,10,0.000560935,-2.25706,0.256078,0.230399,49.7638,0.101385,
2,1,0,1,0,1166.74,0.103175,0.102871,5.61032,1,0.0061794,10,0.00057714,-2.25101,0.226285,0.260733,57.1991,0.102871,
2,1,0,1,0,1166.76,0.104674,0.104401,5.7008,1,0.00632122,10,0.000595167,-2.24406,0.218499,0.270024,60.141,0.104401,
2,1,0,1,0,1166.79,0.106169,0.105882,5.79289,1,0.00646474,10,0.000613363,-2.2371,0.226599,0.260372,58.8701,0.105882,
2,1,0,1,0,1166.81,0.107668,0.107337,5.88877,1,0.00661119,10,0.000632083,-2.22998,0.215249,0.274101,62.9674,0.107337,
2,1,0,1,0,1166.84,0.109169,0.10885,5.9812,1,0.00675989,10,0.000651052,-2.22321,0.192585,0.306359,71.6188,0.10885,
2,1,0,1,0,1166.86,0.110663,0.110358,6.08633,1,0.00691058,10,0.000671678,-2.21564,0.189284,0.311701,74.1405,0.110358,
2,1,0,1,0,1166.89,0.112163,0.111875,6.20064,1,0.00706467,10,0.000693699,-2.20756,0.195964,0.301076,72.8685,0.111875,
2,1,0,1,0,1166.91,0.113662,0.113362,6.31699,1,0.00722159,10,0.000716109,-2.19949,0.199599,0.295593,72.7811,0.113362,
2,1,0,1,0,1166.94,0.115162,0.114817,6.42773,1,0.00738124,10,0.000738015,-2.19194,0.187921,0.313961,78.7812,0.114817,
2,1,0,1,0,1166.96,0.116656,0.116333,6.54126,1,0.00754313,10,0.000760967,-2.18434,0.188674,0.312708,79.8978,0.116333,
2,1,0,1,0,1166.99,0.118157,0.117851,6.6698,1,0.00770876,10,0.000786041,-2.17589,0.199105,0.296326,77.0924,0.117851,
2,1,0,1,0,1167.01,0.119657,0.119322,6.78893,1,0.00787739,10,0.000810067,-2.1682,0.207703,0.284059,75.1561,0.119322,
2,1,0,1,0,1167.04,0.121152,0.120875,6.89476,1,0.0080481,10,0.000833403,-2.16148,0.212642,0.277462,74.6362,0.120875,
2,1,0,1,0,1167.06,0.122651,0.122336,7.00005,1,0.00822223,10,0.00085636,-2.1549,0.208594,0.282846,77.3007,0.122336,
2,1,0,1,0,1167.09,0.124151,0.123872,7.11126,1,0.00839914,10,0.00088089,-2.14805,0.227665,0.259152,71.9215,0.123872,
2,1,0,1,0,1167.11,0.125649,0.125326,7.22272,1,0.00857884,10,0.000905199,-2.1413,0.245191,0.240629,67.6957,0.125326,
2,1,0,1,0,1167.14,0.127143,0.126804,7.3147,1,0.00876037,10,0.000927533,-2.1358,0.250016,0.235985,67.3945,0.126804,
2,1,0,1,0,1167.16,0.128644,0.128333,7.41218,1,0.00894497,10,0.000951231,-2.13005,0.264473,0.223085,64.5959,0.128333,
2,1,0,1,0,1167.19,0.130145,0.129839,7.51343,1,0.00913204,10,0.000975539,-2.12416,0.285385,0.206738,60.5903,0.129839,
2,1,0,1,0,1167.21,0.131639,0.131337,7.62097,1,0.0093208,10,0.00100091,-2.11799,0.299843,0.196769,58.3134,0.131337,
2,1,0,1,0,1167.24,0.133139,0.132818,7.69333,1,0.00951254,10,0.00102182,-2.11389,0.307127,0.192103,57.6523,0.132818,
2,1,0,1,0,1167.26,0.134638,0.134299,7.76514,1,0.00970621,10,0.00104285,-2.10985,0.337112,0.175016,53.1104,0.134299,
2,1,0,1,0,1167.29,0.136132,0.135882,7.8502,1,0.00990109,10,0.0010667,-2.10512,0.363231,0.162431,49.7461,0.135882,
2,1,0,1,0,1167.31,0.137633,0.137354,7.93676,1,0.0100988,10,0.00109015,-2.10036,0.390261,0.151181,46.6458,0.137354,
2,1,0,1,0,1167.34,0.139133,0.13884,7.99531,1,0.0102982,10,0.00111007,-2.09716,0.446824,0.132043,41.1162,0.1388403,
2,1,0,1,0,1167.36,0.140627,0.140343,8.04095,1,0.0104982,10,0.00112849,-2.09469,0.541816,0.108893,34.1628,0.140343,
2,1,0,1,0,1167.39,0.142126,0.14185,8.09339,1,0.0107003,10,0.00114805,-2.09187,0.670892,0.0879426,27.7463,0.14185,
2,1,0,1,0,1167.41,0.143626,0.143371,8.13703,1,0.0109036,10,0.00116661,-2.08953,1.02898,0.0573384,18.1551,0.143371,
2,1,0,1,0,1167.44,0.145125,0.144774,8.14753,1,0.0111077,10,0.00117955,-2.08897,3.71554,0.0158793,5.0411,0.144774,
2,1,0,1,0,1167.46,0.14662,0.146339,8.1364,1,0.011311,10,0.00119067,-2.08957,-1.64908,-0.0357775,-11.349,0.146339,
2,1,0,1,0,1167.49,0.14812,0.147817,8.1153,1,0.0115147,10,0.00119958,-2.0907,-0.650607,-0.0906846,-28.6483,0.147817,
2,1,0,1,0,1167.51,0.149621,0.149336,8.07789,1,0.0117175,10,0.00120632,-2.0927,-0.4015,-0.146949,-46.0969,0.1493358,
2,1,0,1,0,1167.54,0.151116,0.150795,7.9925,1,0.0119178,10,0.00120523,-2.09732,-0.271834,-0.217044,-67.2982,0.150795,
2,1,0,1,0,1167.56,0.152615,0.152303,7.85225,1,0.0121164,10,0.00119592,-2.10501,-0.196479,-0.300287,-91.7563,0.152303,
2,1,0,1,0,1167.59,0.154115,0.153825,7.69567,1,0.0123113,10,0.00118379,-2.11375,-0.147574,-0.399799,-119.754,0.153825,
2,1,0,1,0,1167.61,0.155614,0.155308,7.51187,1,0.0125019,10,0.00116666,-2.12425,-0.120628,-0.489107,-142.635,0.155308,
2,1,0,1,0,1167.64,0.157107,0.156784,7.27616,1,0.0126865,10,0.00114079,-2.1381,-0.101522,-0.581153,-164.083,0.156784,
2,1,0,1,0,1167.66,0.158608,0.158283,7.00154,1,0.0128655,10,0.00110823,-2.15481,-0.0861474,-0.684872,-186.554,0.158283,
2,1,0,1,0,1167.69,0.160109,0.159825,6.70455,1,0.0130373,10,0.00107156,-2.17363,-0.0760968,-0.775328,-202.465,0.1598253,
2,1,0,1,0,1167.71,0.161603,0.161331,6.40259,1,0.0132009,10,0.00103294,-2.19364,-0.0704159,-0.837879,-208.687,0.161331,
2,1,0,1,0,1167.74,0.163102,0.1628,6.08791,1,0.0133574,10,0.000991108,-2.21553,-0.0678828,-0.869145,-206.122,0.1628,
2,1,0,1,0,1167.76,0.164602,0.164301,5.76871,1,0.013506,10,0.000947806,-2.23892,-0.065981,-0.894197,-201.667,0.164301,
2,1,0,1,0,1167.79,0.166096,0.165772,5.46932,1,0.0136463,10,0.000906662,-2.26207,-0.065477,-0.90108,-193.176,0.165772,
2,1,0,1,0,1167.81,0.167597,0.167291,5.20594,1,0.0137801,10,0.000870906,-2.2835,-0.06957,-0.848067,-172.588,0.167291,
2,1,0,1,0,1167.84,0.169098,0.168813,4.96302,1,0.0139075,10,0.000837824,-2.30425,-0.0751959,-0.784617,-152.072,0.168813,
2,1,0,1,0,1167.86,0.170592,0.17029,4.7336,1,0.0140285,10,0.000806086,-2.32481,-0.0783658,-0.752879,-139.532,0.17029,
2,1,0,1,0,1167.89,0.17209,0.171824,4.51973,1,0.0141446,10,0.000776598,-2.34489,-0.0816353,-0.722727,-128.365,0.1718242,
2,1,0,1,0,1167.91,0.17359,0.173289,4.35555,1,0.014256,10,0.000754769,-2.36096,-0.0885605,-0.666211,-113.485,0.173289,
2,1,0,1,0,1167.94,0.175089,0.174784,4.20597,1,0.0143633,10,0.000735134,-2.37613,-0.0995503,-0.592665,-97.3879,0.174784,
2,1,0,1,0,1167.96,0.176583,0.176277,4.05607,1,0.0144665,10,0.000714993,-2.39189,-0.105268,-0.560474,-88.9987,0.176277,
2,1,0,1,0,1167.99,0.178084,0.177793,3.92997,1,0.0145668,10,0.000698721,-2.40561,-0.109716,-0.537754,-82.8034,0.177793,
2,1,0,1,0,1168.01,0.179585,0.179288,3.82683,1,0.0146641,10,0.000686102,-2.41716,-0.12308,-0.479362,-71.6557,0.179288,
2,1,0,1,0,1168.04,0.181079,0.180792,3.72665,1,0.0147584,10,0.000673747,-2.42868,-0.136161,-0.433311,-63.043,0.180792,
2,1,0,1,0,1168.06,0.182579,0.182302,3.62721,1,0.0148507,10,0.000661246,-2.44043,-0.139179,-0.423914,-60.0691,0.182302,
2,1,0,1,0,1168.09,0.184078,0.18379,3.54161,1,0.0149408,10,0.000650915,-2.4508,-0.141446,-0.417119,-57.7989,0.18379,
2,1,0,1,0,1168.11,0.185578,0.18529,3.46703,1,0.0150287,10,0.000642408,-2.46004,-0.150188,-0.392842,-53.2009,0.18529,
2,1,0,1,0,1168.14,0.187072,0.186785,3.40104,1,0.0151145,10,0.000635265,-2.46839,-0.184817,-0.319234,-42.2544,0.186785,
2,1,0,1,0,1168.16,0.188573,0.188287,3.32883,1,0.0151989,10,0.000626776,-2.47771,-0.195433,-0.301893,-39.277,0.188287,
2,1,0,1,0,1168.19,0.190072,0.18976,3.26457,1,0.0152818,10,0.000619484,-2.48617,-0.178686,-0.330188,-42.1271,0.18976,
2,1,0,1,0,1168.21,0.191567,0.191263,3.21379,1,0.0153628,10,0.00061468,-2.49298,-0.202489,-0.291374,-36.5623,0.191263,
2,1,0,1,0,1168.24,0.193066,0.192783,3.16114,1,0.0154428,10,0.000609412,-2.50016,-0.255623,-0.230809,-28.494,0.1927826,
2,1,0,1,0,1168.26,0.194566,0.19428,3.11377,1,0.0155218,10,0.000604945,-2.50671,-0.262785,-0.224518,-27.328,0.19428,
2,1,0,1,0,1168.29,0.19606,0.195772,3.06975,1,0.0155993,10,0.000600972,-2.5129,-0.225018,-0.262202,-31.5111,0.195772,
2,1,0,1,0,1168.31,0.197561,0.197231,3.02809,1,0.015676,10,0.000597235,-2.51883,-0.243235,-0.242563,-28.7109,0.197231,
2,1,0,1,0,1168.34,0.199062,0.198769,3.00137,1,0.0157516,10,0.000596581,-2.52268,-0.307958,-0.191584,-22.4191,0.1987692,
2,1,0,1,0,1168.36,0.200556,0.200263,2.96251,1,0.0158262,10,0.00059328,-2.52834,-0.371689,-0.158735,-18.3618,0.200263,
2,1,0,1,0,1168.39,0.202055,0.201794,2.9283,1,0.0159003,10,0.000590914,-2.53338,-0.29672,-0.198841,-22.7407,0.201794,
2,1,0,1,0,1168.41,0.203553,0.203221,2.90044,1,0.0159736,10,0.000589429,-2.53754,-0.343553,-0.171735,-19.4496,0.203221,
2,1,0,1,0,1168.44,0.205053,0.204765,2.87441,1,0.0160461,10,0.000588577,-2.54145,-0.55794,-0.105746,-11.9038,0.204765,
2,1,0,1,0,1168.46,0.206547,0.206257,2.84778,1,0.0161178,10,0.000587375,-2.54549,-0.57955,-0.101803,-11.3486,0.206257,
2,1,0,1,0,1168.49,0.208048,0.207729,2.83204,1,0.0161894,10,0.000588298,-2.5479,-0.345906,-0.170567,-18.8366,0.207729,
2,1,0,1,0,1168.51,0.209549,0.209228,2.81364,1,0.0162603,10,0.000588693,-2.55073,-0.364604,-0.161819,-17.7431,0.2092278,
2,1,0,1,0,1168.54,0.211043,0.210743,2.78882,1,0.0163303,10,0.000587724,-2.55458,-0.543795,-0.108497,-11.7961,0.210743,
2,1,0,1,0,1168.56,0.212543,0.212229,2.76479,1,0.0164001,10,0.000586769,-2.55834,-0.679133,-0.0868754,-9.38824,0.212229,
2,1,0,1,0,1168.59,0.214042,0.21376,2.74962,1,0.0164695,10,0.000587761,-2.56073,-0.476656,-0.123779,-13.3091,0.21376,
2,1,0,1,0,1168.61,0.215536,0.21524,2.73655,1,0.0165382,10,0.000589015,-2.5628,-0.465849,-0.12665,-13.5085,0.21524,
2,1,0,1,0,1168.64,0.217036,0.216743,2.71237,1,0.0166067,10,0.000587888,-2.56665,-0.800747,-0.0736812,-7.80415,0.216743,
2,1,0,1,0,1168.66,0.218537,0.218235,2.70048,1,0.0166748,10,0.000589339,-2.56856,-0.939869,-0.0627747,-6.62421,0.218235,
2,1,0,1,0,1168.69,0.220031,0.21976,2.68695,1,0.0167423,10,0.000590484,-2.57074,-0.64017,-0.092163,-9.67639,0.21976,
2,1,0,1,0,1168.71,0.22153,0.221232,2.68749,1,0.0168099,10,0.000594558,-2.57065,-0.568128,-0.10385,-10.8111,0.221232,
2,1,0,1,0,1168.74,0.22303,0.222775,2.65439,1,0.016877,10,0.000591332,-2.57604,-0.869988,-0.067817,-7.04584,0.222775,
2,1,0,1,0,1168.76,0.224529,0.224269,2.64639,1,0.0169438,10,0.000593505,-2.57735,-0.955184,-0.0617682,-6.39989,0.224269,
2,1,0,1,0,1168.78,0.226024,0.225772,2.63718,1,0.0170101,10,0.000595402,-2.57886,-0.702362,-0.0840023,-8.6638,0.225772,
2,1,0,1,0,1168.81,0.227525,0.227205,2.63424,1,0.0170764,10,0.000598511,-2.57935,-0.571922,-0.103161,-10.578,0.227205,
2,1,0,1,0,1168.83,0.229025,0.228728,2.62814,1,0.0171425,10,0.000601129,-2.58035,-1.00373,-0.0587808,-6.00385,0.228728,
2,1,0,1,0,1168.86,0.23052,0.230227,2.60416,1,0.0172079,10,0.000599548,-2.58433,-1.07883,-0.0546889,-5.58343,0.230227,
2,1,0,1,0,1168.88,0.232019,0.231714,2.5991,1,0.0172734,10,0.000602247,-2.58518,-0.798268,-0.07391,-7.5093,0.231714,
2,1,0,1,0,1168.91,0.233519,0.233235,2.59746,1,0.0173388,10,0.000605818,-2.58545,-0.687791,-0.0857818,-8.67517,0.233235,
2,1,0,1,0,1168.93,0.235018,0.234703,2.59493,1,0.017404,10,0.000609038,-2.58587,-1.49695,-0.0394134,-3.97417,0.234703,
2,1,0,1,0,1168.96,0.236511,0.236258,2.57093,1,0.0174685,10,0.000607403,-2.58991,-1.32221,-0.0446224,-4.49038,0.236258,
2,1,0,1,0,1168.98,0.238012,0.237729,2.5587,1,0.0175332,10,0.000608277,-2.59198,-1.26807,-0.0465274,-4.65552,0.237729,
2,1,0,1,0,1169.01,0.239513,0.23921,2.564,1,0.0175977,10,0.000613335,-2.59108,-1.03304,-0.0571131,-5.69922,0.23921,
2,1,0,1,0,1169.03,0.241007,0.240722,2.556,1,0.0176618,10,0.000615287,-2.59244,-0.981316,-0.0601234,-5.98421,0.240722,
2,1,0,1,0,1169.06,0.242506,0.242177,2.5367,1,0.0177258,10,0.00061433,-2.59573,-1.41256,-0.0417682,-4.15187,0.242177,
2,1,0,1,0,1169.08,0.244006,0.243695,2.5327,1,0.0177897,10,0.000617205,-2.59642,-1.32898,-0.0443948,-4.40479,0.243695,
2,1,0,1,0,1169.11,0.2455,0.245204,2.53778,1,0.0178532,10,0.000622275,-2.59555,-1.07388,-0.0549408,-5.4302,0.245204,
2,1,0,1,0,1169.13,0.247001,0.246716,2.52989,1,0.0179169,10,0.000624163,-2.5969,-1.69982,-0.0347095,-3.41109,0.2467158,
2,1,0,1,0,1169.16,0.248502,0.248233,2.51027,1,0.0179804,10,0.00062313,-2.60028,-2.22516,-0.0265149,-2.60847,0.248233,
2,1,0,1,0,1169.18,0.249995,0.249731,2.50615,1,0.0180433,10,0.000625863,-2.60099,-1.19947,-0.0491884,-4.82573,0.249731,
2,1,0,1,0,1169.21,0.251494,0.251195,2.50495,1,0.0181064,10,0.000629232,-2.6012,-1.22345,-0.0482244,-4.71329,0.251195,
2,1,0,1,0,1169.23,0.252994,0.252702,2.49876,1,0.0181694,10,0.000631442,-2.60228,-1.17732,-0.0501139,-4.87487,0.252702,
2,1,0,1,0,1169.26,0.254493,0.254186,2.4844,1,0.0182322,10,0.0006315,-2.60478,-1.23857,-0.0476356,-4.64479,0.254186,
2,1,0,1,0,1169.28,0.255988,0.255655,2.48069,1,0.0182945,10,0.000634202,-2.60543,-1.30883,-0.0450786,-4.38373,0.255655,
2,1,0,1,0,1169.31,0.257488,0.257217,2.48633,1,0.018357,10,0.000639524,-2.60444,-1.40669,-0.0419425,-4.05927,0.257217,
2,1,0,1,0,1169.33,0.258989,0.258726,2.48662,1,0.0184195,10,0.000643352,-2.60439,-2.31539,-0.0254816,-2.45906,0.258726,
2,1,0,1,0,1169.36,0.260483,0.260223,2.47081,1,0.0184816,10,0.000642962,-2.60716,-1.52314,-0.0387357,-3.73631,0.260223,
2,1,0,1,0,1169.38,0.261983,0.261747,2.45553,1,0.0185436,10,0.000642728,-2.60986,-1.10288,-0.0534965,-5.14708,0.261747,
2,1,0,1,0,1169.41,0.263482,0.263208,2.46129,1,0.0186055,10,0.000647831,-2.60884,-1.67032,-0.0353227,-3.38581,0.263208,
2,1,0,1,0,1169.43,0.264982,0.264711,2.45509,1,0.0186673,10,0.000649889,-2.60993,-9.24282,-0.00638334,-0.611429,0.264711,
2,1,0,1,0,1169.46,0.266476,0.266208,2.44426,1,0.0187288,10,0.000650682,-2.61185,-2.48763,-0.0237173,-2.26527,0.266208,
2,1,0,1,0,1169.48,0.267976,0.267691,2.43139,1,0.0187903,10,0.000650862,-2.61414,-1.27903,-0.0461286,-4.40323,0.267691,
2,1,0,1,0,1169.51,0.269477,0.269216,2.43935,1,0.0188516,10,0.000656713,-2.61273,-1.3597,-0.0433919,-4.12113,0.269216,
2,1,0,1,0,1169.53,0.270971,0.270702,2.44348,1,0.0189127,10,0.000661455,-2.61199,-2.68577,-0.0219677,-2.08107,0.270702,
2,1,0,1,0,1169.56,0.27247,0.272237,2.42936,1,0.0189739,10,0.000661361,-2.61451,-1.30827,-0.0450977,-4.26653,0.272237,
2,1,0,1,0,1169.58,0.27397,0.273695,2.41183,1,0.019035,10,0.000660104,-2.61765,-0.931698,-0.0633252,-5.9952,0.273695,
2,1,0,1,0,1169.61,0.275464,0.275188,2.41774,1,0.0190955,10,0.000665333,-2.61659,-0.971578,-0.060726,-5.73337,0.275188,
2,1,0,1,0,1169.63,0.276965,0.276677,2.41706,1,0.0191562,10,0.000668744,-2.61671,-1.49862,-0.0393696,-3.70057,0.276677,
2,1,0,1,0,1169.66,0.278466,0.278206,2.40425,1,0.0192169,10,0.000668876,-2.61902,-2.26757,-0.026019,-2.44008,0.278206,
2,1,0,1,0,1169.68,0.27996,0.279655,2.39868,1,0.0192771,10,0.000670801,-2.62003,-0.897328,-0.0657508,-6.16405,0.279655,
2,1,0,1,0,1169.71,0.281458,0.28116,2.39718,1,0.0193374,10,0.000673991,-2.6203,-1.57083,-0.0375598,-3.51019,0.28116,
2,1,0,1,0,1169.73,0.282958,0.282677,2.39421,1,0.0193976,10,0.00067679,-2.62084,-3.74588,-0.0157507,-1.46675,0.282677,
2,1,0,1,0,1169.76,0.284457,0.284172,2.38106,1,0.0194578,10,0.00067663,-2.62323,-2.66386,-0.0221483,-2.06443,0.284172,
2,1,0,1,0,1169.78,0.285951,0.285643,2.37562,1,0.0195175,10,0.000678578,-2.62422,-1.32629,-0.0444851,-4.13381,0.285643,
2,1,0,1,0,1169.81,0.287452,0.287139,2.37323,1,0.0195773,10,0.000681445,-2.62466,-1.16382,-0.0506949,-4.69769,0.2871387,
2,1,0,1,0,1169.83,0.288953,0.288674,2.37114,1,0.019637,10,0.000684486,-2.62504,-3.5035,-0.0168403,-1.55242,0.288674,
2,1,0,1,0,1169.86,0.290447,0.290199,2.36292,1,0.0196964,10,0.000685716,-2.62655,-3.1679,-0.0186243,-1.72032,0.290199,
2,1,0,1,0,1169.88,0.291947,0.291628,2.3533,1,0.0197558,10,0.000686288,-2.62832,-1.09243,-0.0540082,-4.97147,0.291628,
2,1,0,1,0,1169.91,0.293446,0.29317,2.34724,1,0.0198151,10,0.00068814,-2.62944,-1.03197,-0.0571722,-5.25418,0.29317,
2,1,0,1,0,1169.93,0.29494,0.294676,2.35139,1,0.019874,10,0.000692898,-2.62868,-6.65526,-0.00886516,-0.813072,0.294676,
2,1,0,1,0,1169.96,0.29644,0.296144,2.35186,1,0.0199331,10,0.000696489,-2.62859,-7.82758,-0.00753745,-0.688977,0.296144,
2,1,0,1,0,1169.98,0.297941,0.297684,2.34057,1,0.0199921,10,0.000696752,-2.63068,-0.880816,-0.0669834,-6.1082,0.297684,
2,1,0,1,0,1170.01,0.29944,0.299191,2.33766,1,0.020051,10,0.000699408,-2.63122,-0.00390905,-15.0932,-851.163,0.299191,
2,1,0,1,0,1170.02,0.299736,0.29944,1.64736,1,0.0200803,10,0.000493286,-2.78321,0.00135973,43.3908,2066.19,0.2994397,
2,1,0,1,0,1170.05,0.298238,0.297974,-0.0466764,1,0.0200953,10,-1.39084e-05,-4.3309,0.00701465,8.41097,738.264,0.297974,
2,0,0,1,0,1170.07,0.296744,0.296422,-0.527301,1,0.0200865,10,-0.000156304,-3.27794,-0.00912655,-6.46466,260.26,0.296422,
2,0,0,1,0,1170.1,0.295243,0.294916,-0.726526,1,0.02007,10,-0.000214264,-3.13875,-0.0140942,-4.18613,100.009,0.2949163,
2,0,0,1,0,1170.12,0.293742,0.29345,-0.824889,1,0.0200502,10,-0.000242063,-3.0836,-0.0319423,-1.84708,56.1929,0.29345,
2,0,0,1,0,1170.15,0.292248,0.29195,-0.879792,1,0.0200286,10,-0.000256856,-3.05562,-0.0461668,-1.27798,43.3287,0.29195,
2,0,0,1,0,1170.17,0.290748,0.290427,-0.935956,1,0.0200053,10,-0.000271827,-3.02874,-0.0604237,-0.976438,35.4268,0.290427,
2,0,0,1,0,1170.2,0.289249,0.288957,-0.988756,1,0.0199808,10,-0.000285708,-3.00491,-0.0813996,-0.72482,27.8564,0.288957,
2,0,0,1,0,1170.22,0.287754,0.287442,-1.03234,1,0.0199552,10,-0.000296737,-2.98618,-0.0856457,-0.688884,27.5342,0.287442,
2,0,0,1,0,1170.25,0.286254,0.285976,-1.06549,1,0.0199285,10,-0.000304705,-2.97245,-0.084553,-0.697788,29.001,0.285976,
2,0,0,1,0,1170.27,0.284754,0.284454,-1.09801,1,0.019901,10,-0.000312335,-2.95939,-0.108378,-0.544392,23.4156,0.284454,
2,0,0,1,0,1170.3,0.28326,0.282949,-1.14567,1,0.0198726,10,-0.000324165,-2.94094,-0.128221,-0.460142,20.3908,0.282949,
2,0,0,1,0,1170.32,0.28176,0.281443,-1.17372,1,0.0198433,10,-0.000330336,-2.93043,-0.138755,-0.425211,19.2614,0.281443,
2,0,0,1,0,1170.35,0.280261,0.279977,-1.19198,1,0.0198132,10,-0.000333727,-2.92373,-0.140868,-0.418831,19.5646,0.279977,
2,0,0,1,0,1170.37,0.278761,0.278458,-1.21464,1,0.0197826,10,-0.000338227,-2.91555,-0.16655,-0.354248,16.943,0.278458,
2,0,0,1,0,1170.4,0.277267,0.276998,-1.25067,1,0.0197514,10,-0.000346434,-2.90286,-0.181855,-0.324434,15.8182,0.276998,
2,0,0,1,0,1170.42,0.275766,0.275507,-1.2781,1,0.0197193,10,-0.000352126,-2.89344,-0.206372,-0.285891,14.1606,0.275507,
2,0,0,1,0,1170.45,0.274265,0.273979,-1.298,1,0.0196867,10,-0.000355625,-2.88673,-0.184248,-0.32022,16.2212,0.273979,
2,0,0,1,0,1170.47,0.272771,0.272419,-1.31896,1,0.0196537,10,-0.00035931,-2.87977,-0.200373,-0.294451,15.2154,0.272419,
2,0,0,1,0,1170.5,0.271272,0.270931,-1.34319,1,0.01962,10,-0.000363913,-2.87186,-0.228575,-0.258121,13.5018,0.270931,
2,0,0,1,0,1170.52,0.269772,0.269526,-1.3723,1,0.0195856,10,-0.000369869,-2.86255,-0.222239,-0.26548,14.0906,0.269526,
2,0,0,1,0,1170.55,0.268273,0.267943,-1.38671,1,0.0195508,10,-0.00037156,-2.85801,-0.249041,-0.236908,12.8377,0.267943,
2,0,0,1,0,1170.57,0.26678,0.266453,-1.39128,1,0.0195158,10,-0.00037071,-2.85659,-0.277144,-0.212886,11.6691,0.266453,
2,0,0,1,0,1170.6,0.265279,0.264974,-1.41961,1,0.01948,10,-0.00037616,-2.84783,-0.272047,-0.216874,11.9912,0.264974,
2,0,0,1,0,1170.62,0.263778,0.263459,-1.44617,1,0.0194438,10,-0.000381007,-2.83978,-0.252897,-0.233297,13.0978,0.263459,
2,0,0,1,0,1170.65,0.262284,0.261964,-1.46028,1,0.0194072,10,-0.00038254,-2.83556,-0.26229,-0.224941,12.7748,0.261964,
2,0,0,1,0,1170.67,0.260784,0.260514,-1.46362,1,0.0193701,10,-0.000381293,-2.83457,-0.326891,-0.180488,10.4148,0.260514,
2,0,0,1,0,1170.7,0.259285,0.258987,-1.48533,1,0.0193327,10,-0.000384682,-2.82818,-0.326881,-0.180494,10.5059,0.258987,
2,0,0,1,0,1170.72,0.257791,0.257501,-1.52122,1,0.0192949,10,-0.000391716,-2.81781,-0.307127,-0.192103,11.2877,0.257501,
2,0,0,1,0,1170.75,0.25629,0.255994,-1.5318,1,0.0192564,10,-0.000392132,-2.8148,-0.315211,-0.187176,11.1092,0.255994,
2,0,0,1,0,1170.77,0.254789,0.254469,-1.53215,1,0.0192177,10,-0.000389885,-2.8147,-0.346061,-0.17049,10.2777,0.254469,
2,0,0,1,0,1170.8,0.253296,0.253003,-1.55654,1,0.0191787,10,-0.00039381,-2.80784,-0.341888,-0.172571,10.4878,0.253003,
2,0,0,1,0,1170.82,0.251797,0.25147,-1.57425,1,0.0191391,10,-0.000395878,-2.80293,-0.328311,-0.179708,11.0041,0.25147,
2,0,0,1,0,1170.85,0.250297,0.249951,-1.58829,1,0.0190992,10,-0.000396994,-2.79907,-0.312942,-0.188534,11.6509,0.249951,
2,0,0,1,0,1170.87,0.248797,0.248467,-1.60046,1,0.0190588,10,-0.000397663,-2.79575,-0.333539,-0.176891,11.0781,0.248467,
2,0,0,1,0,1170.9,0.247303,0.247021,-1.61252,1,0.0190183,10,-0.000398327,-2.79249,-0.508229,-0.116089,7.33645,0.247021,
2,0,0,1,0,1170.92,0.245802,0.245477,-1.63912,1,0.0189773,10,-0.000402366,-2.78539,-0.333848,-0.176727,11.2294,0.245477,
2,0,0,1,0,1170.95,0.244302,0.244026,-1.65399,1,0.0189357,10,-0.000403618,-2.78147,-0.28716,-0.205461,13.207,0.244026,
2,0,0,1,0,1170.97,0.242807,0.242478,-1.65874,1,0.018894,10,-0.000402207,-2.78022,-0.524805,-0.112423,7.30972,0.2424777,
2,0,0,1,0,1171,0.241308,0.24099,-1.67835,1,0.0188518,10,-0.000404465,-2.77512,-0.451163,-0.130773,8.55966,0.2409897,
2,0,0,1,0,1171.02,0.239808,0.239551,-1.69167,1,0.0188093,10,-0.000405243,-2.77168,-0.352649,-0.167305,10.9981,0.239551,
2,0,0,1,0,1171.05,0.238309,0.238019,-1.70757,1,0.0187664,10,-0.000406433,-2.76762,-0.343771,-0.171626,11.4267,0.238019,
2,0,0,1,0,1171.07,0.236815,0.23657,-1.71328,1,0.0187233,10,-0.000405311,-2.76617,-0.498741,-0.118298,7.94327,0.23657,
2,0,0,1,0,1171.1,0.235315,0.23503,-1.72651,1,0.0186797,10,-0.000405782,-2.76283,-0.486853,-0.121187,8.19693,0.23503,
2,0,0,1,0,1171.12,0.233814,0.233492,-1.75249,1,0.0186358,10,-0.000409192,-2.75635,-0.378015,-0.156078,10.6384,0.233492,
2,0,0,1,0,1171.15,0.23232,0.232043,-1.76514,1,0.0185917,10,-0.000409588,-2.75322,-0.363484,-0.162318,11.1454,0.232043,
2,0,0,1,0,1171.17,0.230821,0.230539,-1.77253,1,0.018547,10,-0.000408637,-2.75141,-0.527345,-0.111881,7.75244,0.230539,
2,0,0,1,0,1171.2,0.229321,0.229031,-1.78476,1,0.0185019,10,-0.000408765,-2.74842,-0.486039,-0.12139,8.49956,0.229031,
2,0,0,1,0,1171.22,0.227827,0.227503,-1.80848,1,0.0184568,10,-0.000411434,-2.74269,-0.522823,-0.112849,7.96091,0.227503,
2,0,0,1,0,1171.25,0.226326,0.226065,-1.81896,1,0.0184111,10,-0.000411203,-2.74018,-0.369412,-0.159713,11.3209,0.226065,
2,0,0,1,0,1171.27,0.224825,0.224527,-1.83289,1,0.018365,10,-0.000411534,-2.73686,-0.530891,-0.111134,7.95785,0.224527,
2,0,0,1,0,1171.3,0.223331,0.223078,-1.8491,1,0.0183187,10,-0.000412493,-2.73304,-0.65848,-0.0896003,6.44722,0.223078,
2,0,0,1,0,1171.32,0.221831,0.221523,-1.86605,1,0.018272,10,-0.000413373,-2.72908,-0.435222,-0.135563,9.83795,0.221523,
2,0,0,1,0,1171.35,0.220333,0.22004,-1.87911,1,0.0182249,10,-0.000413478,-2.72605,-0.289278,-0.203956,14.9401,0.22004,
2,0,0,1,0,1171.37,0.218834,0.218582,-1.8892,1,0.0181772,10,-0.000412945,-2.72372,-0.384949,-0.153267,11.311,0.218582,
2,0,0,1,0,1171.4,0.217339,0.217047,-1.90511,1,0.0181294,10,-0.000413498,-2.72008,-0.775901,-0.0760407,5.6673,0.217047,
2,0,0,1,0,1171.42,0.215839,0.215532,-1.91915,1,0.0180812,10,-0.000413638,-2.71689,-0.488376,-0.120809,9.05941,0.215532,
2,0,0,1,0,1171.45,0.214338,0.214054,-1.94052,1,0.0180326,10,-0.000415377,-2.71208,-0.317275,-0.185958,14.0332,0.214054,
2,0,0,1,0,1171.47,0.212844,0.212541,-1.94818,1,0.0179837,10,-0.000414069,-2.71037,-0.381869,-0.154503,11.7802,0.212541,
2,0,0,1,0,1171.5,0.211344,0.211062,-1.96909,1,0.0179342,10,-0.000415599,-2.70574,-0.631634,-0.0934085,7.18414,0.211062,
2,0,0,1,0,1171.52,0.209845,0.209579,-1.97929,1,0.0178843,10,-0.000414818,-2.70349,-0.489822,-0.120452,9.33193,0.209579,
2,0,0,1,0,1171.55,0.20835,0.208051,-2.00282,1,0.0178343,10,-0.000416688,-2.69836,-0.282929,-0.208533,16.3282,0.208051,
2,0,0,1,0,1171.57,0.206851,0.206514,-2.0265,1,0.0177835,10,-0.0004185,-2.69325,-0.303038,-0.194695,15.361,0.206514,
2,0,0,1,0,1171.6,0.20535,0.205013,-2.04284,1,0.0177322,10,-0.000418809,-2.68977,-0.569551,-0.10359,8.23395,0.205013,
2,0,0,1,0,1171.62,0.203856,0.203526,-2.06457,1,0.0176806,10,-0.000420193,-2.68517,-0.487451,-0.121038,9.71857,0.203526,
2,0,0,1,0,1171.65,0.202356,0.202034,-2.0751,1,0.0176286,10,-0.000419241,-2.68296,-0.328138,-0.179802,14.5774,0.202034,
2,0,0,1,0,1171.67,0.200857,0.200541,-2.0894,1,0.017576,10,-0.00041901,-2.67998,-0.333167,-0.177089,14.4741,0.200541,
2,0,0,1,0,1171.7,0.199357,0.199055,-2.11305,1,0.0175229,10,-0.000420612,-2.67509,-0.457706,-0.128904,10.654,0.199055,
2,0,0,1,0,1171.72,0.197863,0.197576,-2.14244,1,0.0174696,10,-0.000423295,-2.66909,-0.405041,-0.145664,12.1259,0.197576,
2,0,0,1,0,1171.75,0.196362,0.196054,-2.15749,1,0.0174155,10,-0.000422985,-2.66605,-0.290413,-0.203159,17.1041,0.196054,
2,0,0,1,0,1171.77,0.194861,0.194543,-2.1739,1,0.0173609,10,-0.000422918,-2.66276,-0.260278,-0.22668,19.2875,0.194543,
2,0,0,1,0,1171.8,0.193367,0.193037,-2.21117,1,0.0173058,10,-0.000426838,-2.65538,-0.3176,-0.185768,16.0018,0.193037,
2,0,0,1,0,1171.82,0.191868,0.191538,-2.23993,1,0.0172498,10,-0.000429031,-2.64977,-0.364178,-0.162009,14.1103,0.1915378,
2,0,0,1,0,1171.85,0.190368,0.190103,-2.25051,1,0.0171933,10,-0.000427828,-2.64772,-0.259864,-0.227042,20.0235,0.190103,
2,0,0,1,0,1171.87,0.18887,0.188569,-2.2687,1,0.0171362,10,-0.000427808,-2.64422,-0.223922,-0.263485,23.5279,0.188569,
2,0,0,1,0,1171.89,0.187376,0.187044,-2.31199,1,0.0170785,10,-0.000432444,-2.63601,-0.29967,-0.196883,17.7889,0.187044,
2,0,0,1,0,1171.92,0.185875,0.185541,-2.34823,1,0.0170198,10,-0.000435692,-2.62926,-0.300574,-0.196291,17.9258,0.185541,
2,0,0,1,0,1171.94,0.184374,0.184065,-2.37622,1,0.0169604,10,-0.000437378,-2.62411,-0.223097,-0.264459,24.4821,0.184065,
2,0,0,1,0,1171.97,0.18288,0.182583,-2.40497,1,0.0169005,10,-0.000439107,-2.61889,-0.220692,-0.26734,25.1848,0.182583,
2,0,0,1,0,1171.99,0.18138,0.181101,-2.44485,1,0.0168394,10,-0.000442765,-2.61175,-0.223675,-0.263775,25.2183,0.181101,
2,0,0,1,0,1172.02,0.179881,0.179582,-2.49342,1,0.0167772,10,-0.000447773,-2.6032,-0.223659,-0.263794,25.5825,0.179582,
2,0,0,1,0,1172.04,0.178387,0.178047,-2.52914,1,0.0167143,10,-0.000450306,-2.59703,-0.204035,-0.289166,28.561,0.178047,
2,0,0,1,0,1172.07,0.176886,0.176518,-2.56313,1,0.0166502,10,-0.00045244,-2.59123,-0.188213,-0.313475,31.5578,0.1765184,
2,0,0,1,0,1172.09,0.175385,0.175047,-2.61532,1,0.016585,10,-0.000457804,-2.58247,-0.17682,-0.333672,34.0998,0.175047,
2,0,0,1,0,1172.12,0.173892,0.173575,-2.67895,1,0.0165186,10,-0.000465,-2.57203,-0.172858,-0.34132,35.5505,0.173575,
2,0,0,1,0,1172.14,0.172392,0.172072,-2.7326,1,0.0164507,10,-0.000470204,-2.56342,-0.151267,-0.390039,41.4793,0.172072,
2,0,0,1,0,1172.17,0.170893,0.170539,-2.77672,1,0.0163814,10,-0.00047354,-2.55647,-0.1521,-0.387903,42.2938,0.170539,
2,0,0,1,0,1172.19,0.169393,0.169059,-2.8427,1,0.0163105,10,-0.000480585,-2.54627,-0.138944,-0.424631,47.3567,0.169059,
2,0,0,1,0,1172.22,0.167899,0.167584,-2.93244,1,0.0162381,10,-0.000491431,-2.53277,-0.14014,-0.421007,48.1302,0.167584,
2,0,0,1,0,1172.24,0.166398,0.166116,-2.99867,1,0.0161635,10,-0.000498127,-2.52307,-0.130074,-0.453588,53.1767,0.166116,
2,0,0,1,0,1172.27,0.164898,0.164626,-3.07397,1,0.0160871,10,-0.000506057,-2.5123,-0.123412,-0.478074,57.7134,0.164626,
2,0,0,1,0,1172.29,0.163403,0.163094,-3.17186,1,0.0160088,10,-0.000517313,-2.49869,-0.113472,-0.519951,64.5484,0.163094,
2,0,0,1,0,1172.32,0.161904,0.161625,-3.28198,1,0.0159278,10,-0.00053045,-2.48386,-0.11158,-0.528767,67.6141,0.161625,
2,0,0,1,0,1172.34,0.160404,0.160137,-3.38571,1,0.0158441,10,-0.000542177,-2.47035,-0.10467,-0.563674,74.4648,0.160137,
2,0,0,1,0,1172.37,0.158905,0.15858,-3.49114,1,0.0157576,10,-0.000553623,-2.45703,-0.097134,-0.607409,83.2059,0.15858,
2,0,0,1,0,1172.39,0.157411,0.157111,-3.62144,1,0.0156685,10,-0.000568967,-2.44112,-0.0926293,-0.636947,90.5646,0.157111,
2,0,0,1,0,1172.42,0.155911,0.155557,-3.77585,1,0.0155756,10,-0.00058736,-2.42299,-0.0873801,-0.675211,99.6317,0.155557,
2,0,0,1,0,1172.44,0.15441,0.154114,-3.93329,1,0.0154788,10,-0.000606175,-2.40524,-0.0837072,-0.704838,107.994,0.154114,
2,0,0,1,0,1172.47,0.152916,0.1526,-4.09298,1,0.0153784,10,-0.000624589,-2.38796,-0.0816953,-0.722196,115.509,0.1526,
2,0,0,1,0,1172.49,0.151417,0.151136,-4.26164,1,0.0152736,10,-0.000644088,-2.37042,-0.0834763,-0.706788,118.037,0.151136,
2,0,0,1,0,1172.52,0.149917,0.149611,-4.45869,1,0.015164,10,-0.000667067,-2.35079,-0.0776292,-0.760023,132.272,0.149611,
2,0,0,1,0,1172.54,0.148423,0.148137,-4.66859,1,0.0150499,10,-0.000691591,-2.33081,-0.076428,-0.771968,140.475,0.148137,
2,0,0,1,0,1172.57,0.146922,0.146621,-4.87151,1,0.0149302,10,-0.000714266,-2.31234,-0.0780857,-0.75558,143.887,0.146621,
2,0,0,1,0,1172.59,0.145421,0.145109,-5.08821,1,0.0148053,10,-0.000738347,-2.29344,-0.078929,-0.747507,148.76,0.145109,
2,0,0,1,0,1172.62,0.143927,0.14361,-5.32575,1,0.0146752,10,-0.000764832,-2.27362,-0.0772197,-0.764053,158.605,0.14361,
2,0,0,1,0,1172.64,0.142429,0.142134,-5.56852,1,0.0145385,10,-0.000791475,-2.25426,-0.0805747,-0.73224,158.564,0.142134,
2,0,0,1,0,1172.67,0.140929,0.140604,-5.77948,1,0.0143962,10,-0.000812617,-2.23811,-0.0859577,-0.686384,155.146,0.140604,
2,0,0,1,0,1172.69,0.13943,0.139133,-6.01947,1,0.0142481,10,-0.000837507,-2.22044,-0.0881901,-0.669009,157.285,0.139133,
2,0,0,1,0,1172.72,0.137935,0.137645,-6.27113,1,0.0140946,10,-0.000863188,-2.20265,-0.0927948,-0.635812,155.106,0.137645,
2,0,0,1,0,1172.74,0.136435,0.136158,-6.49907,1,0.0139345,10,-0.000884897,-2.18715,-0.097141,-0.607365,153.6,0.136158,
2,0,0,1,0,1172.77,0.134934,0.134611,-6.71574,1,0.0137688,10,-0.000904013,-2.17291,-0.10679,-0.552487,144.494,0.134611,
2,0,0,1,0,1172.79,0.13344,0.133105,-6.92846,1,0.0135983,10,-0.000922215,-2.15936,-0.118453,-0.49809,134.432,0.133105,
2,0,0,1,0,1172.82,0.13194,0.131649,-7.12177,1,0.0134222,10,-0.000937577,-2.14741,-0.13024,-0.45301,125.785,0.131649,
2,0,0,1,0,1172.84,0.13044,0.130128,-7.31281,1,0.0132412,10,-0.000951603,-2.13592,-0.136635,-0.431807,122.929,0.130128,
2,0,0,1,0,1172.87,0.128941,0.128653,-7.47835,1,0.0130558,10,-0.000962114,-2.12619,-0.159631,-0.369603,107.669,0.128653,
2,0,0,1,0,1172.89,0.127447,0.127175,-7.63661,1,0.012867,10,-0.000971185,-2.1171,-0.18671,-0.315999,93.9638,0.127175,
2,0,0,1,0,1172.92,0.125946,0.125638,-7.77362,1,0.0126741,10,-0.000976662,-2.10938,-0.210942,-0.279698,84.6109,0.1256379,
2,0,0,1,0,1172.94,0.124446,0.124158,-7.89186,1,0.0124778,10,-0.000979839,-2.10282,-0.231186,-0.255205,78.3694,0.124158,
2,0,0,1,0,1172.97,0.122952,0.122647,-7.99188,1,0.0122795,10,-0.000980179,-2.09735,-0.27809,-0.212161,66.0956,0.122647,
2,0,0,1,0,1172.99,0.121453,0.121144,-8.07894,1,0.012078,10,-0.000978718,-2.09265,-0.396541,-0.148787,46.8229,0.121144,
2,0,0,1,0,1173.02,0.119953,0.119637,-8.1502,1,0.0118746,10,-0.000975069,-2.08883,-0.518898,-0.113703,36.1041,0.119637,
2,0,0,1,0,1173.04,0.118459,0.118132,-8.20381,1,0.0116706,10,-0.000969129,-2.08598,-0.583571,-0.101102,32.2858,0.118132,
2,0,0,1,0,1173.07,0.116958,0.116652,-8.232,1,0.0114646,10,-0.000960282,-2.08449,-1.00841,-0.0585082,18.7685,0.116652,
2,0,0,1,0,1173.09,0.115457,0.115115,-8.25383,1,0.011258,10,-0.000950138,-2.08334,-8.68864,-0.00679047,2.18208,0.115115,
2,0,0,1,0,1173.12,0.113963,0.113651,-8.24915,1,0.0110521,10,-0.000937521,-2.08359,2.95636,0.019957,-6.41429,0.113651,
2,0,0,1,0,1173.14,0.112464,0.112123,-8.23962,1,0.0108456,10,-0.000923853,-2.08409,1.61708,0.0364856,-11.7106,0.112123,
2,0,0,1,0,1173.17,0.110965,0.11065,-8.20009,1,0.0106397,10,-0.000907337,-2.08618,0.925179,0.0637714,-20.3901,0.11065,
2,0,0,1,0,1173.19,0.109466,0.10916,-8.15718,1,0.0104345,10,-0.000890434,-2.08846,0.519659,0.113536,-36.1037,0.10916,
2,0,0,1,0,1173.22,0.107972,0.107632,-8.10722,1,0.0102315,10,-0.000872596,-2.09113,0.40641,0.145174,-45.8529,0.107632,
2,0,0,1,0,1173.24,0.106471,0.106172,-8.03634,1,0.0100294,10,-0.000853235,-2.09494,0.36848,0.160117,-50.1334,0.106172,
2,0,0,1,0,1173.27,0.10497,0.104685,-7.94619,1,0.00982921,10,-0.000831847,-2.09984,0.346728,0.170162,-52.7491,0.104685,
2,0,0,1,0,1173.29,0.103476,0.103189,-7.86514,1,0.00963185,10,-0.000811599,-2.10429,0.270347,0.218238,-66.8558,0.103189,
2,0,0,1,0,1173.32,0.101976,0.101653,-7.76727,1,0.00943599,10,-0.000789565,-2.10973,0.248957,0.236989,-71.6844,0.101653,
2,0,0,1,0,1173.34,0.100477,0.100176,-7.65043,1,0.009243,10,-0.000766392,-2.11631,0.228889,0.257767,-76.9087,0.100176,
2,0,0,1,0,1173.37,0.0989825,0.0986833,-7.52587,1,0.00905359,10,-0.000742677,-2.12344,0.231448,0.254916,-74.8837,0.0986833,
2,0,0,1,0,1173.39,0.0974817,0.0971827,-7.4129,1,0.00886634,10,-0.000720406,-2.13001,0.216004,0.273143,-79.0311,0.0971827,
2,0,0,1,0,1173.42,0.0959822,0.0956738,-7.29435,1,0.0086821,10,-0.000697878,-2.13701,0.20209,0.29195,-83.0047,0.0956738,
2,0,0,1,0,1173.44,0.094488,0.0941801,-7.16136,1,0.00850165,10,-0.000674458,-2.145,0.200565,0.294169,-82.2662,0.0941801,
2,0,0,1,0,1173.47,0.0929884,0.092689,-7.03879,1,0.00832365,10,-0.000652418,-2.1525,0.212856,0.277182,-76.2458,0.09268897,
2,0,0,1,0,1173.49,0.0914889,0.0912213,-6.93298,1,0.00814856,10,-0.000632436,-2.15908,0.205218,0.287499,-77.7733,0.0912213,
2,0,0,1,0,1173.52,0.0899894,0.0896954,-6.82318,1,0.00797625,10,-0.000612008,-2.16601,0.20445,0.288579,-76.7282,0.0896954,
2,0,0,1,0,1173.54,0.0884951,0.0881492,-6.70511,1,0.00780743,10,-0.00059105,-2.17359,0.226332,0.260679,-68.2987,0.0881492,
2,0,0,1,0,1173.57,0.0869943,0.0866787,-6.60355,1,0.00764066,10,-0.000572387,-2.18022,0.237449,0.248474,-64.1522,0.0866787,
2,0,0,1,0,1173.59,0.0854935,0.0852213,-6.51082,1,0.00747629,10,-0.00055486,-2.18636,0.2397,0.246141,-62.6242,0.0852213,
2,0,0,1,0,1173.62,0.0839993,0.0837179,-6.42809,1,0.00731474,10,-0.000538147,-2.19192,0.256178,0.230308,-57.7457,0.0837179,
2,0,0,1,0,1173.64,0.0824998,0.0822121,-6.34902,1,0.00715463,10,-0.000521966,-2.19729,0.291773,0.202212,-50.1018,0.0822121,
2,0,0,1,0,1173.67,0.0810002,0.0806686,-6.26586,1,0.00699656,10,-0.000505459,-2.20302,0.32265,0.182861,-44.814,0.0806686,
2,0,0,1,0,1173.69,0.0795007,0.0792236,-6.19825,1,0.00684018,10,-0.000491048,-2.20773,0.350346,0.168405,-40.8162,0.07922364,
2,0,0,1,0,1173.72,0.0780078,0.0777026,-6.14782,1,0.00668598,10,-0.000477702,-2.21128,0.344272,0.171376,-41.1082,0.0777026,
2,0,0,1,0,1173.74,0.076507,0.0761802,-6.09298,1,0.00653257,10,-0.000464164,-2.21517,0.38341,0.153882,-36.5624,0.0761802,
2,0,0,1,0,1173.77,0.0750062,0.0746996,-6.02517,1,0.00638073,10,-0.000450078,-2.22003,0.38555,0.153028,-36.0482,0.0746996,
2,0,0,1,0,1173.79,0.073512,0.073222,-5.97357,1,0.00623083,10,-0.000437396,-2.22377,0.419852,0.140526,-32.8123,0.073222,
2,0,0,1,0,1173.82,0.0720124,0.0716651,-5.93252,1,0.00608152,10,-0.000425155,-2.22676,0.397204,0.148538,-34.3646,0.0716651,
2,0,0,1,0,1173.84,0.0705129,0.0702273,-5.88389,1,0.00593335,10,-0.00041321,-2.23034,0.41409,0.142481,-32.7085,0.0702273,
2,0,0,1,0,1173.87,0.0690187,0.0687376,-5.82339,1,0.00578711,10,-0.000400286,-2.23482,0.43996,0.134103,-30.5669,0.0687376,
2,0,0,1,0,1173.89,0.0675179,0.0672199,-5.78718,1,0.00564148,10,-0.000389014,-2.23753,0.44953,0.131248,-29.678,0.0672199,
2,0,0,1,0,1173.92,0.066017,0.0657206,-5.75713,1,0.00549685,10,-0.000378362,-2.23979,0.439073,0.134374,-30.0979,0.0657206,
2,0,0,1,0,1173.94,0.0645242,0.0641509,-5.70594,1,0.00535375,10,-0.000366041,-2.24367,0.449967,0.131121,-29.137,0.0641509,
2,0,0,1,0,1173.97,0.0630246,0.0627399,-5.64413,1,0.00521134,10,-0.000354112,-2.2484,0.452177,0.13048,-28.8125,0.0627399,
2,0,0,1,0,1173.99,0.0615251,0.0611874,-5.59973,1,0.00507023,10,-0.000342633,-2.25183,0.412044,0.143189,-31.3726,0.0611874,
2,0,0,1,0,1174.02,0.0600256,0.059712,-5.56005,1,0.00493023,10,-0.000332002,-2.25492,0.395362,0.14923,-32.3689,0.059712,
2,0,0,1,0,1174.04,0.0585314,0.0581992,-5.51658,1,0.00479189,10,-0.00032106,-2.25833,0.402556,0.146563,-31.4809,0.0581992,
2,0,0,1,0,1174.07,0.0570305,0.0567116,-5.46128,1,0.00465423,10,-0.000309718,-2.26271,0.368081,0.160291,-34.1548,0.0567116,
2,0,0,1,0,1174.09,0.0555297,0.0552554,-5.40397,1,0.00451798,10,-0.000298599,-2.26729,0.331473,0.177994,-37.5735,0.0552554,
2,0,0,1,0,1174.12,0.0540355,0.0537328,-5.35947,1,0.00438357,10,-0.000287979,-2.27088,0.333949,0.176674,-36.9128,0.0537328,
2,0,0,1,0,1174.14,0.052536,0.0521908,-5.30899,1,0.00424977,10,-0.00027708,-2.27499,0.359647,0.16405,-33.9177,0.0521908,
2,0,0,1,0,1174.17,0.0510364,0.0507108,-5.24286,1,0.00411739,10,-0.00026587,-2.28043,0.312673,0.188695,-38.6441,0.0507108,
2,0,0,1,0,1174.19,0.0495369,0.0492194,-5.17484,1,0.0039866,10,-0.000254703,-2.2861,0.289757,0.203619,-41.2373,0.0492194,
2,0,0,1,0,1174.22,0.0480427,0.0477855,-5.12631,1,0.00385784,10,-0.000244964,-2.29019,0.293777,0.200832,-40.155,0.0477855,
2,0,0,1,0,1174.24,0.0465432,0.0462831,-5.06838,1,0.00373002,10,-0.000234581,-2.29513,0.283989,0.207755,-41.0194,0.0462831,
2,0,0,1,0,1174.27,0.0450424,0.0447087,-4.99938,1,0.00360376,10,-0.000223516,-2.30108,0.275689,0.214009,-41.7437,0.0447087,
2,0,0,1,0,1174.29,0.0435482,0.0432523,-4.92074,1,0.00347971,10,-0.000212833,-2.30797,0.250207,0.235805,-45.3982,0.0432523,
2,0,0,1,0,1174.32,0.0420486,0.0417666,-4.86436,1,0.00335691,10,-0.000203168,-2.31297,0.243795,0.242007,-45.9456,0.0417666,
2,0,0,1,0,1174.34,0.0405491,0.0402491,-4.80854,1,0.00323567,10,-0.00019354,-2.31799,0.266886,0.221068,-41.4026,0.04024915,
2,0,0,1,0,1174.37,0.0390549,0.0386974,-4.73681,1,0.00311643,10,-0.000183302,-2.32451,0.255728,0.230713,-42.5982,0.03869744,
2,0,0,1,0,1174.39,0.0375541,0.0372147,-4.66335,1,0.00299842,10,-0.000173545,-2.3313,0.225518,0.26162,-47.7048,0.0372147,
2,0,0,1,0,1174.42,0.0360532,0.0357701,-4.6064,1,0.00288219,10,-0.000164771,-2.33664,0.242104,0.243697,-43.8092,0.0357701,
2,0,0,1,0,1174.44,0.034559,0.0342828,-4.54786,1,0.00276795,10,-0.000155913,-2.34219,0.271674,0.217172,-38.4588,0.0342828,
2,0,0,1,0,1174.47,0.0330595,0.0327494,-4.48113,1,0.0026547,10,-0.000146754,-2.34861,0.283872,0.20784,-36.3629,0.0327494,
2,0,0,1,0,1174.49,0.0315613,0.0312407,-4.41669,1,0.00254297,10,-0.00013798,-2.3549,0.264352,0.223187,-38.532,0.0312407,
2,0,0,1,0,1174.52,0.0300618,0.0297387,-4.3681,1,0.00243269,10,-0.000129902,-2.35971,0.279681,0.210955,-35.9971,0.0297387,
2,0,0,1,0,1174.54,0.0285676,0.0282557,-4.32314,1,0.00232412,10,-0.000122153,-2.3642,0.344075,0.171474,-28.907,0.0282557,
2,0,0,1,0,1174.57,0.0270667,0.0267684,-4.27228,1,0.00221618,10,-0.000114362,-2.36934,0.369523,0.159665,-26.6475,0.02676837,
2,0,0,1,0,1174.59,0.0255659,0.0252542,-4.22645,1,0.00210937,10,-0.000106736,-2.37402,0.322988,0.182669,-30.2134,0.0252542,
2,0,0,1,0,1174.62,0.0240717,0.023766,-4.1903,1,0.00200411,10,-9.95865e-05,-2.37775,0.325008,0.181534,-29.7062,0.023766,
2,0,0,1,0,1174.64,0.0225722,0.0222532,-4.15466,1,0.00189939,10,-9.24542e-05,-2.38146,0.436661,0.135116,-21.9048,0.0222532,
2,0,0,1,0,1174.67,0.0210726,0.0207613,-4.12127,1,0.00179553,10,-8.55627e-05,-2.38497,0.523839,0.11263,-18.1286,0.0207613,
2,0,0,1,0,1174.69,0.0195784,0.0192954,-4.08874,1,0.00169284,10,-7.88939e-05,-2.38841,0.434496,0.135789,-21.7061,0.0192954,
2,0,0,1,0,1174.72,0.0180789,0.017785,-4.06171,1,0.00159042,10,-7.22375e-05,-2.39129,0.527157,0.111921,-17.7502,0.017785,
2,0,0,1,0,1174.74,0.0165781,0.0163148,-4.04496,1,0.00148873,10,-6.59928e-05,-2.39309,0.851095,0.0693225,-10.955,0.0163148,
2,0,0,1,0,1174.77,0.0150839,0.0147493,-4.02735,1,0.00138786,10,-5.94005e-05,-2.39498,1.07645,0.0548099,-8.60648,0.0147493,
2,0,0,1,0,1174.79,0.0135844,0.013271,-4.00411,1,0.00128688,10,-5.31387e-05,-2.39749,0.757501,0.0778877,-12.1937,0.013271,
2,0,0,1,0,1174.82,0.0120848,0.0117546,-3.99595,1,0.00118637,10,-4.69709e-05,-2.39838,0.780234,0.0756183,-11.8077,0.0117546,
2,0,0,1,0,1174.84,0.0105853,0.0102826,-3.97939,1,0.00108631,10,-4.09184e-05,-2.40018,1.31613,0.0448284,-6.96787,0.0102826,
2,0,0,1,0,1174.87,0.00909108,0.00878887,-3.97005,1,0.000986828,10,-3.48923e-05,-2.4012,7.53027,0.00783504,-1.21561,0.00878887,
2,0,0,1,0,1174.89,0.00759027,0.00729905,-3.96892,1,0.000887125,10,-2.89694e-05,-2.40133,1.58126,0.0373121,-5.78119,0.00729905,
2,0,0,1,0,1174.92,0.00608945,0.00580321,-3.96429,1,0.000787565,10,-2.30056e-05,-2.40183,1.59265,0.0370451,-5.72854,0.00580321,
2,0,0,1,0,1174.94,0.00459524,0.00431083,-3.96468,1,0.00068855,10,-1.70911e-05,-2.40179,-10.9544,-0.00538597,0.831828,0.004310831,
2,0,0,1,0,1174.97,0.0030957,0.00280242,-3.95741,1,0.000589137,10,-1.10903e-05,-2.40259,-0.706638,-0.083494,12.9592,0.00280242,
2,0,0,1,0,1174.99,0.00159616,0.00124138,-4.00312,1,0.000488969,10,-4.9694e-06,-2.3976, , , ,0.001241384,
2,0,0,0,0,1175.01,0.000199195,-0.000172625,-3.98889,1,0.000395393,10,6.88582e-07,-2.39915, , , ,-0.000172625,