File: Figure_codes/Fig_3-5/rawdata_trumpetplot_data/after 10th/20221101_1-115_003_TrumpetPlot_ParaChange_from10_every3_02_CV_C01_32.csv
mode,ox/red,error,control changes,counter inc.,time/s,control/V,Ewe/V,<I>/mA,cycle number,(Q-Qo)/C,I Range,P/W,log(|I|),Tafel slope mV/dec,alpha_eff,dI/d(E-IR),E-IR/V,
2,0,0,1,0,63384.2,2.44065e-05,-0.000439847,-0.393877,33,0.0000000E+000,10,1.73246e-07,-3.40464, , , ,-0.000439847,
2,0,0,1,0,63385.5,0.00129791,0.00092496,-0.179549,33,-0.000270972,10,-1.66076e-07,-3.74582, , , ,0.00092496,
2,0,0,1,0,63387,0.00279612,0.00244243,-0.143821,33,-0.000494638,10,-3.51274e-07,-3.84218,-0.0174549,-3.38014,20.505,0.00244243,
2,0,0,1,0,63388.5,0.00429431,0.00401604,-0.122913,33,-0.000679206,10,-4.93622e-07,-3.9104,-0.0242259,-2.43541,11.9255,0.00401604,
2,0,0,1,0,63390,0.00579242,0.00546657,-0.107799,33,-0.000837381,10,-5.89288e-07,-3.96739,-0.0268948,-2.19374,9.36816,0.00546657,
2,0,0,1,0,63391.5,0.00729061,0.00692784,-0.0952409,33,-0.00097495,10,-6.59813e-07,-4.02118,-0.0296875,-1.98737,7.50902,0.00692784,
2,0,0,1,0,63393,0.00878882,0.00842407,-0.085798,33,-0.00109598,10,-7.22768e-07,-4.06652,-0.0325613,-1.81197,6.12326,0.00842407,
2,0,0,1,0,63394.5,0.010287,0.00994469,-0.0773855,33,-0.00120374,10,-7.69575e-07,-4.11134,-0.0356321,-1.65581,5.04301,0.00994469,
2,0,0,1,0,63396,0.0117852,0.0114335,-0.0706366,33,-0.00130039,10,-8.07626e-07,-4.15097,-0.0366322,-1.6106,4.43885,0.0114335,
2,0,0,1,0,63397.5,0.0132834,0.012933,-0.0642347,33,-0.00138719,10,-8.30746e-07,-4.19223,-0.0377483,-1.56298,3.92983,0.012933,
2,0,0,1,0,63399,0.0147815,0.0144058,-0.0592997,33,-0.00146557,10,-8.54257e-07,-4.22695,-0.0414812,-1.42233,3.29245,0.0144058,
2,0,0,1,0,63400.5,0.0162797,0.0159561,-0.0541847,33,-0.00153625,10,-8.64575e-07,-4.26612,-0.0422215,-1.39739,2.96994,0.0159561,
2,0,0,1,0,63402,0.0177779,0.0174863,-0.0500926,33,-0.00160035,10,-8.75933e-07,-4.30023,-0.0388499,-1.51867,2.94128,0.0174863,
2,0,0,1,0,63403.5,0.0192761,0.0189231,-0.0457744,33,-0.00165839,10,-8.66196e-07,-4.33938,-0.0404433,-1.45883,2.60128,0.0189231,
2,0,0,1,0,63405,0.0207743,0.0204671,-0.0417448,33,-0.00170995,10,-8.54397e-07,-4.3794,-0.0378224,-1.55992,2.54286,0.02046714,
2,0,0,1,0,63406.5,0.0222725,0.0219071,-0.037688,33,-0.00175577,10,-8.25636e-07,-4.4238,-0.0405251,-1.45589,2.1735,0.0219071,
2,0,0,1,0,63407.9,0.0237707,0.0234373,-0.0350386,33,-0.0017965,10,-8.21211e-07,-4.45545,-0.0386196,-1.52772,2.06973,0.0234373,
2,0,0,1,0,63409.4,0.0252689,0.0249219,-0.0320469,33,-0.0018331,10,-7.98669e-07,-4.49421,-0.0365504,-1.61421,1.96966,0.0249219,
2,0,0,1,0,63410.9,0.0267671,0.0264372,-0.0294891,33,-0.00186487,10,-7.79611e-07,-4.53034,-0.0314535,-1.87579,2.09815,0.0264372,
2,0,0,1,0,63412.4,0.0282653,0.0279346,-0.025805,33,-0.00189183,10,-7.20852e-07,-4.5883,-0.0289764,-2.03614,2.01797,0.0279346,
2,0,0,1,0,63413.9,0.0297635,0.0294615,-0.0229444,33,-0.00191435,10,-6.75976e-07,-4.63932,-0.0271613,-2.17221,1.92808,0.0294615,
2,0,0,1,0,63415.4,0.0312617,0.0308846,-0.0206569,33,-0.00193264,10,-6.37979e-07,-4.68494,-0.0228624,-2.58066,2.01569,0.0308846,
2,0,0,1,0,63416.9,0.0327599,0.0324582,-0.0172222,33,-0.0019468,10,-5.59001e-07,-4.76391,-0.0212904,-2.77121,1.84951,0.0324582,
2,0,0,1,0,63418.4,0.0342581,0.0339142,-0.0147495,33,-0.0019566,10,-5.00216e-07,-4.83122,-0.0190772,-3.0927,1.76483,0.03391419,
2,0,0,1,0,63419.9,0.0357563,0.0354359,-0.0124156,33,-0.00196257,10,-4.39956e-07,-4.90603,-0.0179389,-3.28894,1.56464,0.0354359,
2,0,0,1,0,63421.4,0.0372544,0.0369013,-0.00961922,33,-0.00196488,10,-3.54962e-07,-5.01686,-0.0148239,-3.98007,1.47503,0.0369013,
2,0,0,1,0,63422.9,0.0387526,0.0383721,-0.00735885,33,-0.00196373,10,-2.82375e-07,-5.13319,-0.00995385,-5.92735,1.57805,0.0383721,
2,0,0,1,0,63424.4,0.0402508,0.0398641,-0.00544431,33,-0.00195917,10,-2.17032e-07,-5.26406,-0.00805665,-7.32314,1.35941,0.0398641,
2,0,0,1,0,63425.9,0.041749,0.041443,-0.00323651,33,-0.00195091,10,-1.34131e-07,-5.48992,-0.00541825,-10.8891,1.24309,0.041443,
2,0,0,1,0,63427.4,0.0432472,0.0429329,-0.000912834,33,-0.00193994,10,-3.91906e-08,-6.03961,-0.00864753,-6.82276,1.24738,0.0429329,
2,0,0,1,0,63428.9,0.0447454,0.0444642,0.000269823,33,-0.00192641,10,1.19975e-08,-6.56892,0.013959,4.22668,1.30799,0.0444642,
2,0,0,1,0,63430.4,0.0462435,0.0459136,0.00323864,33,-0.00190931,10,1.48698e-07,-5.48964,0.0038446,15.3462,1.50944,0.0459136,
2,1,0,1,0,63431.9,0.0477417,0.0473897,0.00512535,33,-0.00188885,10,2.42889e-07,-5.29028,0.00702629,8.39704,1.31674,0.0473897,
2,0,0,1,0,63433.4,0.0492399,0.0488934,0.00710976,33,-0.00186513,10,3.4762e-07,-5.14815,0.0117255,5.03177,1.32338,0.0488934,
2,1,0,1,0,63434.9,0.0507381,0.0504013,0.00855119,33,-0.00183914,10,4.30991e-07,-5.06797,0.0168037,3.51112,1.19068,0.0504013,
2,1,0,1,0,63436.4,0.0522363,0.051906,0.0105324,33,-0.0018098,10,5.46694e-07,-4.97747,0.0179021,3.29571,1.30841,0.051906,
2,1,0,1,0,63437.9,0.0537345,0.0534097,0.0119245,33,-0.00177781,10,6.36883e-07,-4.92356,0.024844,2.37482,1.13473,0.0534097,
2,1,0,1,0,63439.4,0.0552327,0.054908,0.0140363,33,-0.00174326,10,7.70705e-07,-4.85275,0.0268634,2.1963,1.17964,0.054908,
2,1,0,1,0,63440.9,0.0567309,0.0564001,0.015379,33,-0.00170621,10,8.67377e-07,-4.81307,0.0318799,1.8507,1.14142,0.0564001,
2,0,0,1,0,63442.4,0.0582291,0.0578973,0.0175508,33,-0.00166666,10,1.01614e-06,-4.7557,0.0325576,1.81217,1.23439,0.0578973,
2,1,0,1,0,63443.9,0.0597273,0.0593777,0.0198002,33,-0.00162401,10,1.17569e-06,-4.70333,0.0384125,1.53596,1.14919,0.0593777,
2,1,0,1,0,63445.4,0.0612255,0.0609036,0.0211093,33,-0.00157866,10,1.28564e-06,-4.67553,0.0493329,1.19596,0.977622,0.0609036,
2,1,0,1,0,63446.9,0.0627237,0.0623744,0.0230522,33,-0.0015308,10,1.43787e-06,-4.63729,0.0445576,1.32413,1.19405,0.0623744,
2,1,0,1,0,63448.4,0.0642219,0.0639322,0.0240348,33,-0.00148061,10,1.5366e-06,-4.61916,0.0484197,1.21851,1.16852,0.0639322,
2,1,0,1,0,63449.9,0.0657201,0.0653934,0.0266036,33,-0.00142774,10,1.7397e-06,-4.57506,0.0593519,0.994072,1.01753,0.0653934,
2,1,0,1,0,63451.4,0.0672183,0.0669215,0.0276711,33,-0.00137211,10,1.85179e-06,-4.55797,0.0650833,0.906531,0.972967,0.0669215,
2,1,0,1,0,63452.9,0.0687164,0.0683042,0.0294409,33,-0.0013143,10,2.01094e-06,-4.53105,0.0699434,0.843539,0.952761,0.0683042,
2,1,0,1,0,63454.4,0.0702146,0.0698884,0.0304925,33,-0.00125492,10,2.13107e-06,-4.51581,0.0703672,0.838458,1.0007,0.0698884,
2,1,0,1,0,63455.9,0.0717128,0.0713783,0.0321468,33,-0.00119291,10,2.29459e-06,-4.49286,0.0661538,0.891861,1.11109,0.0713783,
2,1,0,1,0,63457.4,0.073211,0.0728501,0.0331488,33,-0.00112856,10,2.4149e-06,-4.47953,0.0837771,0.704249,0.925725,0.07285013,
2,1,0,1,0,63458.9,0.0747092,0.0743867,0.034969,33,-0.00106226,10,2.60123e-06,-4.45632,0.0841791,0.700887,0.963454,0.0743867,
2,1,0,1,0,63460.4,0.0762074,0.075849,0.0358791,33,-0.000994157,10,2.72139e-06,-4.44516,0.0706314,0.835322,1.19614,0.075849,
2,1,0,1,0,63461.9,0.0777055,0.0773484,0.0380214,33,-0.000923605,10,2.94089e-06,-4.41997,0.083544,0.706215,1.03842,0.0773484,
2,1,0,1,0,63463.4,0.0792037,0.0788583,0.040368,33,-0.000850136,10,3.18335e-06,-4.39396,0.0826611,0.713757,1.09021,0.0788583,
2,1,0,1,0,63464.9,0.0807019,0.0803387,0.0409834,33,-0.000774501,10,3.29255e-06,-4.38739,0.0919539,0.641626,1.02432,0.0803387,
2,1,0,1,0,63466.4,0.0822001,0.0818731,0.042394,33,-0.000696619,10,3.47093e-06,-4.3727,0.100242,0.588573,0.975111,0.0818731,
2,1,0,1,0,63467.9,0.0836983,0.0833821,0.0437264,33,-0.000616768,10,3.646e-06,-4.35926,0.105067,0.561546,0.97353,0.0833821,
2,1,0,1,0,63469.4,0.0851965,0.0848221,0.0451654,33,-0.000534795,10,3.83102e-06,-4.34519,0.108021,0.546191,0.976417,0.0848221,
2,1,0,1,0,63470.9,0.0866947,0.0863205,0.0467701,33,-0.000450294,10,4.03722e-06,-4.33003,0.125892,0.468655,0.857806,0.0863205,
2,1,0,1,0,63472.4,0.0881929,0.0878549,0.0490233,33,-0.000363262,10,4.30694e-06,-4.3096,0.0931339,0.633497,1.20766,0.0878549,
2,1,0,1,0,63473.9,0.0896911,0.0893915,0.0506382,33,-0.00027425,10,4.52662e-06,-4.29552,0.0851421,0.692959,1.37927,0.08939147,
2,1,0,1,0,63475.4,0.0911893,0.0908241,0.0524478,33,-0.000182151,10,4.76352e-06,-4.28027,0.0845665,0.697676,1.42852,0.09082409,
2,1,0,1,0,63476.9,0.0926875,0.0923585,0.0547319,33,-8.63439e-05,10,5.05496e-06,-4.26176,0.0936113,0.630266,1.32948,0.0923585,
2,1,0,1,0,63478.4,0.0941857,0.0938282,0.0566208,33,1.2146e-05,10,5.31263e-06,-4.24702,0.107204,0.550353,1.21334,0.0938282,
2,1,0,1,0,63479.9,0.0956839,0.0953022,0.0580984,33,0.000112516,10,5.53691e-06,-4.23584,0.104882,0.562539,1.28464,0.0953022,
2,1,0,1,0,63481.4,0.0971821,0.0968165,0.0598893,33,0.000216185,10,5.79827e-06,-4.22265,0.0983381,0.599971,1.40219,0.0968165,
2,1,0,1,0,63482.9,0.0986803,0.0983191,0.0614561,33,0.000322684,10,6.0423e-06,-4.21144,0.100746,0.585631,1.41988,0.0983191,
2,1,0,1,0,63484.4,0.100178,0.0998301,0.0638201,33,0.000432081,10,6.37116e-06,-4.19504,0.131533,0.448558,1.11399,0.0998301,
2,1,0,1,0,63485.9,0.101677,0.101315,0.0649758,33,0.000544084,10,6.583e-06,-4.18725,0.104136,0.566566,1.44813,0.101315,
2,1,0,1,0,63487.4,0.103175,0.102874,0.0673019,33,0.000658818,10,6.92365e-06,-4.17197,0.116654,0.505768,1.33682,0.102874,
2,1,0,1,0,63488.9,0.104673,0.104349,0.0701707,33,0.000777002,10,7.32228e-06,-4.15384,0.121804,0.484386,1.31141,0.1043495,
2,1,0,1,0,63490.3,0.106171,0.105821,0.0715831,33,0.0008981,10,7.57503e-06,-4.14519,0.142561,0.413857,1.14902,0.105821,
2,1,0,1,0,63491.8,0.107669,0.107318,0.0729787,33,0.00102175,10,7.8319e-06,-4.1368,0.128586,0.458838,1.30874,0.107318,
2,1,0,1,0,63493.3,0.109167,0.108837,0.0750651,33,0.00114798,10,8.16987e-06,-4.12456,0.125869,0.468742,1.38282,0.108837,
2,1,0,1,0,63494.8,0.110666,0.110301,0.0768613,33,0.00127734,10,8.47792e-06,-4.11429,0.150906,0.390973,1.17781,0.110301,
2,1,0,1,0,63496.3,0.112164,0.111782,0.0788715,33,0.00140958,10,8.81641e-06,-4.10308,0.217896,0.270772,0.827259,0.111782,
2,1,0,1,0,63497.8,0.113662,0.113321,0.0803266,33,0.00154406,10,9.10266e-06,-4.09514,0.185105,0.318738,0.99999,0.113321,
2,1,0,1,0,63499.3,0.11516,0.114773,0.0817932,33,0.00168043,10,9.38768e-06,-4.08728,0.175178,0.3368,1.07339,0.114773,
2,1,0,1,0,63500.8,0.116658,0.116282,0.0834973,33,0.0018196,10,9.70926e-06,-4.07833,0.188587,0.312853,1.01372,0.116282,
2,1,0,1,0,63502.3,0.118157,0.117829,0.0850532,33,0.00196145,10,1.00218e-05,-4.07031,0.193489,0.304926,1.00633,0.117829,
2,1,0,1,0,63503.8,0.119655,0.119286,0.086338,33,0.00210546,10,1.0299e-05,-4.0638,0.234692,0.251393,0.847763,0.1192864,
2,1,0,1,0,63505.3,0.121153,0.12083,0.0873013,33,0.00225065,10,1.05487e-05,-4.05898,0.221026,0.266937,0.916473,0.12083,
2,1,0,1,0,63506.8,0.122651,0.122255,0.0891023,33,0.0023985,10,1.08932e-05,-4.05011,0.205296,0.28739,0.994608,0.122255,
2,1,0,1,0,63508.3,0.124149,0.123824,0.0900347,33,0.00254815,10,1.11484e-05,-4.04559,0.391018,0.150888,0.530046,0.1238239,
2,1,0,1,0,63509.8,0.125648,0.125301,0.091123,33,0.00269933,10,1.14178e-05,-4.04037,0.423237,0.139402,0.49185,0.125301,
2,1,0,1,0,63511.3,0.127146,0.126799,0.0906032,33,0.00285101,10,1.14884e-05,-4.04286,1.75361,0.0336449,0.119435,0.126799,
2,1,0,1,0,63512.8,0.128644,0.128315,0.0915229,33,0.00300308,10,1.17437e-05,-4.03847,-221.69,-0.000266137,-0.000946269,0.128315,
2,1,0,1,0,63514.3,0.130142,0.129814,0.0911634,33,0.00315531,10,1.18343e-05,-4.04018,-0.663702,-0.0888953,-0.315807,0.129814,
2,1,0,1,0,63515.8,0.13164,0.131299,0.0904434,33,0.00330709,10,1.18751e-05,-4.04362,-0.292552,-0.201673,-0.707079,0.131299,
2,1,0,1,0,63517.3,0.133139,0.132797,0.0892905,33,0.0034575,10,1.18575e-05,-4.04919,-0.1916,-0.307933,-1.07434,0.132797,
2,1,0,1,0,63518.8,0.134637,0.134306,0.0877435,33,0.00360517,10,1.17845e-05,-4.05679,-0.170073,-0.34691,-1.18919,0.134306,
2,1,0,1,0,63520.3,0.136135,0.135764,0.0856863,33,0.0037503,10,1.16331e-05,-4.06709,-0.125394,-0.470515,-1.56838,0.135764,
2,1,0,1,0,63521.8,0.137633,0.137276,0.0831833,33,0.00389189,10,1.14191e-05,-4.07996,-0.0945702,-0.623875,-2.00726,0.137276,
2,1,0,1,0,63523.3,0.139131,0.13877,0.0802014,33,0.00402896,10,1.11296e-05,-4.09582,-0.0888264,-0.664217,-2.06481,0.13877,
2,1,0,1,0,63524.8,0.14063,0.14026,0.0768768,33,0.00416079,10,1.07828e-05,-4.1142,-0.0763482,-0.772775,-2.30607,0.14026,
2,1,0,1,0,63526.3,0.142128,0.14181,0.0731711,33,0.00428771,10,1.03764e-05,-4.13566,-0.072639,-0.812236,-2.31477,0.1418104,
2,1,0,1,0,63527.8,0.143626,0.143309,0.0694138,33,0.00440939,10,9.9476e-06,-4.15855,-0.071748,-0.822322,-2.23778,0.143309,
2,1,0,1,0,63529.3,0.145124,0.144763,0.0661698,33,0.00452551,10,9.57891e-06,-4.17934,-0.0695539,-0.848263,-2.21434,0.144763,
2,1,0,1,0,63530.8,0.146622,0.146291,0.0632276,33,0.00463642,10,9.24961e-06,-4.19909,-0.079552,-0.741653,-1.83883,0.146291,
2,1,0,1,0,63532.3,0.14812,0.147769,0.06085,33,0.00474356,10,8.99174e-06,-4.21574,-0.0933839,-0.6318,-1.49388,0.147769,
2,1,0,1,0,63533.8,0.149619,0.149272,0.0580459,33,0.00484687,10,8.66461e-06,-4.23623,-0.105734,-0.558006,-1.28448,0.149272,
2,1,0,1,0,63535.3,0.151117,0.150745,0.0568782,33,0.00494699,10,8.57413e-06,-4.24505,-0.120814,-0.488354,-1.07546,0.150745,
2,1,0,1,0,63536.8,0.152615,0.152268,0.0549706,33,0.00504491,10,8.37028e-06,-4.25987,-0.152424,-0.387077,-0.833271,0.152268,
2,1,0,1,0,63538.3,0.154113,0.153756,0.0537979,33,0.00514015,10,8.27175e-06,-4.26923,-0.164164,-0.359397,-0.756381,0.153756,
2,1,0,1,0,63539.8,0.155611,0.155279,0.053255,33,0.00523406,10,8.26937e-06,-4.27364,-0.184445,-0.319879,-0.658745,0.155279,
2,1,0,1,0,63541.3,0.15711,0.156731,0.0518858,33,0.0053264,10,8.13214e-06,-4.28495,-0.187109,-0.315324,-0.64163,0.1567315,
2,1,0,1,0,63542.8,0.158608,0.158298,0.0512972,33,0.00541731,10,8.12024e-06,-4.28991,-0.37759,-0.156254,-0.313655,0.158298,
2,1,0,1,0,63544.3,0.160106,0.159773,0.0508085,33,0.00550712,10,8.11781e-06,-4.29406,-0.538644,-0.109534,-0.21846,0.159773,
2,1,0,1,0,63545.8,0.161604,0.161271,0.0502066,33,0.00559655,10,8.09687e-06,-4.29924,-1.08803,-0.0542267,-0.106896,0.161271,
2,1,0,1,0,63547.3,0.163102,0.162774,0.0502169,33,0.00568526,10,8.17398e-06,-4.29915,-0.649324,-0.0908637,-0.178499,0.162774,
2,1,0,1,0,63548.8,0.164601,0.164252,0.0501791,33,0.00577383,10,8.24201e-06,-4.29948,0.92551,0.0637487,0.124552,0.164252,
2,1,0,1,0,63550.3,0.166099,0.165748,0.0501197,33,0.00586203,10,8.30724e-06,-4.29999,-1.43288,-0.0411759,-0.0799121,0.1657481,
2,1,0,1,0,63551.8,0.167597,0.167253,0.0498511,33,0.00595021,10,8.33774e-06,-4.30233,-5.04461,-0.0116956,-0.0228462,0.167253,
2,1,0,1,0,63553.3,0.169095,0.168762,0.0496835,33,0.00603815,10,8.38468e-06,-4.30379,1.42957,0.0412711,0.0804725,0.1687618,
2,1,0,1,0,63554.8,0.170593,0.170253,0.0495475,33,0.00612626,10,8.4356e-06,-4.30498,-3.14302,-0.0187717,-0.0365536,0.170253,
2,1,0,1,0,63556.3,0.172091,0.171718,0.0496868,33,0.00621416,10,8.53213e-06,-4.30376,-2.58827,-0.0227952,-0.0445477,0.171718,
2,1,0,1,0,63557.8,0.17359,0.173235,0.050229,33,0.00630222,10,8.70139e-06,-4.29905,0.293578,0.200969,0.391354,0.173235,
2,1,0,1,0,63559.3,0.175088,0.174728,0.0502139,33,0.00639054,10,8.77376e-06,-4.29918,0.352059,0.167586,0.328764,0.174728,
2,1,0,1,0,63560.8,0.176586,0.176211,0.0508007,33,0.00647918,10,8.95164e-06,-4.29413,-10.954,-0.00538615,-0.0106201,0.176211,
2,1,0,1,0,63562.3,0.178084,0.177748,0.0504773,33,0.00656815,10,8.97221e-06,-4.2969,0.81254,0.0726118,0.142562,0.177748,
2,1,0,1,0,63563.8,0.179582,0.179251,0.0507029,33,0.00665694,10,9.08856e-06,-4.29497,4.29817,0.0137268,0.0271809,0.179251,
2,1,0,1,0,63565.3,0.181081,0.18073,0.051016,33,0.0067461,10,9.22011e-06,-4.29229,1.2856,0.045893,0.0912764,0.18073,
2,1,0,1,0,63566.8,0.182579,0.182262,0.0507476,33,0.0068355,10,9.24935e-06,-4.29458,3.11388,0.0189474,0.0377085,0.182262,
2,1,0,1,0,63568.3,0.184077,0.183739,0.0513543,33,0.00692512,10,9.43578e-06,-4.28942,1.22212,0.0482767,0.09658,0.183739,
2,1,0,1,0,63569.8,0.185575,0.185208,0.051161,33,0.00701465,10,9.47541e-06,-4.29106,5.36626,0.0109946,0.0219691,0.185208,
2,1,0,1,0,63571.3,0.187073,0.186703,0.0512904,33,0.00710417,10,9.57606e-06,-4.28996,1.75372,0.0336428,0.0675016,0.186703,
2,1,0,1,0,63572.7,0.188572,0.188227,0.05144,33,0.00719382,10,9.68238e-06,-4.2887,0.764742,0.0771502,0.155427,0.188227,
2,1,0,1,0,63574.2,0.19007,0.189732,0.0517345,33,0.00728382,10,9.81571e-06,-4.28622,1.21455,0.0485778,0.0980445,0.189732,
2,1,0,1,0,63575.7,0.191568,0.191174,0.051875,33,0.0073738,10,9.91713e-06,-4.28504,0.716796,0.0823107,0.166058,0.191174,
2,1,0,1,0,63577.2,0.193066,0.192713,0.052044,33,0.00746427,10,1.00296e-05,-4.28363,0.454003,0.129955,0.263416,0.192713,
2,1,0,1,0,63578.7,0.194564,0.194183,0.0517875,33,0.00755516,10,1.00562e-05,-4.28578,0.650457,0.0907055,0.184506,0.194183,
2,1,0,1,0,63580.2,0.196063,0.195702,0.0521909,33,0.00764615,10,1.02139e-05,-4.28241,9.48539,0.00622009,0.012747,0.195702,
2,1,0,1,0,63581.7,0.197561,0.197202,0.0525289,33,0.0077371,10,1.03588e-05,-4.2796,4.70183,0.0125483,0.025777,0.197202,
2,1,0,1,0,63583.2,0.199059,0.198685,0.0534692,33,0.00782887,10,1.06236e-05,-4.2719,0.788901,0.0747876,0.152644,0.198685,
2,1,0,1,0,63584.7,0.200557,0.200199,0.0528491,33,0.00792084,10,1.05803e-05,-4.27696,1.76638,0.0334016,0.0690056,0.200199,
2,1,0,1,0,63586.2,0.202055,0.201699,0.0534534,33,0.00801285,10,1.07815e-05,-4.27203,4.13641,0.0142636,0.0295309,0.201699,
2,1,0,1,0,63587.7,0.203554,0.203155,0.0529641,33,0.00810514,10,1.07599e-05,-4.27602,0.852999,0.0691677,0.143752,0.203155,
2,1,0,1,0,63589.2,0.205052,0.204718,0.0536258,33,0.00819751,10,1.09782e-05,-4.27063,0.436901,0.135042,0.284081,0.204718,
2,1,0,1,0,63590.7,0.20655,0.206187,0.0538704,33,0.00829053,10,1.11074e-05,-4.26865,1.20024,0.0491569,0.102756,0.206187,
2,1,0,1,0,63592.2,0.208048,0.207677,0.0541923,33,0.00838424,10,1.12545e-05,-4.26606,2.14371,0.0275223,0.0581251,0.207677,
2,1,0,1,0,63593.7,0.209546,0.209221,0.0542418,33,0.00847791,10,1.13485e-05,-4.26567,5.145,0.0114674,0.0242178,0.2092205,
2,1,0,1,0,63595.2,0.211044,0.210742,0.0543306,33,0.00857153,10,1.14498e-05,-4.26496,1.27384,0.0463168,0.0984835,0.210742,
2,1,0,1,0,63596.7,0.212543,0.212203,0.0546411,33,0.0086655,10,1.1595e-05,-4.26248,1.26414,0.046672,0.0989076,0.212203,
2,1,0,1,0,63598.2,0.214041,0.213718,0.0546802,33,0.00876,10,1.16861e-05,-4.26217,-37.8272,-0.00155972,-0.00332099,0.213718,
2,1,0,1,0,63599.7,0.215539,0.215227,0.0546991,33,0.00885433,10,1.17727e-05,-4.26202,2.72118,0.0216818,0.0463781,0.215227,
2,1,0,1,0,63601.2,0.217037,0.216688,0.054535,33,0.0089482,10,1.18171e-05,-4.26332,1.16429,0.0506748,0.109228,0.216688,
2,1,0,1,0,63602.7,0.218535,0.218231,0.0549201,33,0.00904273,10,1.19853e-05,-4.26027,0.370895,0.159075,0.3406,0.218231,
2,1,0,1,0,63604.2,0.220034,0.219693,0.0553344,33,0.00913805,10,1.21566e-05,-4.25701,0.5912,0.0997971,0.215939,0.219693,
2,1,0,1,0,63605.7,0.221532,0.221164,0.0557153,33,0.00923348,10,1.23222e-05,-4.25403,1.73203,0.0340642,0.0736629,0.221164,
2,1,0,1,0,63607.2,0.22303,0.222679,0.055621,33,0.00932883,10,1.23856e-05,-4.25476,0.494294,0.119362,0.260516,0.222679,
2,1,0,1,0,63608.7,0.224528,0.224165,0.05618,33,0.00942456,10,1.25936e-05,-4.25042,0.344488,0.171268,0.372871,0.224165,
2,1,0,1,0,63610.2,0.226026,0.225708,0.0565044,33,0.00952097,10,1.27535e-05,-4.24792,0.746346,0.0790518,0.173191,0.225708,
2,1,0,1,0,63611.7,0.227525,0.22715,0.0567221,33,0.0096177,10,1.28844e-05,-4.24625,1.50556,0.039188,0.0859696,0.22715,
2,1,0,1,0,63613.2,0.229023,0.228684,0.0566573,33,0.0097148,10,1.29566e-05,-4.24674,0.51682,0.11416,0.251629,0.228684,
2,1,0,1,0,63614.7,0.230521,0.230162,0.0566313,33,0.00981171,10,1.30344e-05,-4.24694,3.72341,0.0158457,0.0351787,0.230162,
2,1,0,1,0,63616.2,0.232019,0.231677,0.0567991,33,0.00990903,10,1.3159e-05,-4.24566,0.983736,0.0599754,0.133603,0.231677,
2,1,0,1,0,63617.7,0.233517,0.233172,0.0569173,33,0.0100066,10,1.32715e-05,-4.24476,2.7095,0.0217752,0.048317,0.2331719,
2,1,0,1,0,63619.2,0.235016,0.234645,0.0573618,33,0.0101043,10,1.34597e-05,-4.24138,0.624304,0.0945052,0.211803,0.234645,
2,1,0,1,0,63620.7,0.236514,0.23616,0.057465,33,0.0102021,10,1.35709e-05,-4.2406,0.469166,0.125755,0.282754,0.23616,
2,1,0,1,0,63622.2,0.238012,0.237671,0.0577357,33,0.0103005,10,1.37221e-05,-4.23856,1.45708,0.040492,0.091075,0.2376712,
2,1,0,1,0,63623.7,0.23951,0.239146,0.0581636,33,0.0103993,10,1.39096e-05,-4.23535,3.81916,0.0154484,0.0348821,0.239146,
2,1,0,1,0,63625.2,0.241008,0.240679,0.0580091,33,0.010498,10,1.39616e-05,-4.2365,1.00088,0.0589483,0.134014,0.240679,
2,1,0,1,0,63626.7,0.242506,0.242168,0.058044,33,0.0105967,10,1.40564e-05,-4.23624,1.13328,0.0520613,0.118293,0.242168,
2,1,0,1,0,63628.2,0.244005,0.24372,0.0584672,33,0.010696,10,1.42496e-05,-4.23309,0.501742,0.11759,0.267059,0.24372,
2,1,0,1,0,63629.7,0.245503,0.245178,0.058573,33,0.0107956,10,1.43608e-05,-4.2323,1.80298,0.0327235,0.0745668,0.245178,
2,1,0,1,0,63631.2,0.247001,0.246684,0.058886,33,0.0108952,10,1.45262e-05,-4.22999,0.876124,0.0673421,0.153422,0.2466836,
2,1,0,1,0,63632.7,0.248499,0.248149,0.0582231,33,0.0109946,10,1.4448e-05,-4.2349,3.91255,0.0150797,0.0345539,0.248149,
2,1,0,1,0,63634.2,0.249997,0.249672,0.0589149,33,0.0110942,10,1.47094e-05,-4.22977,0.541048,0.109048,0.250156,0.249672,
2,1,0,1,0,63635.7,0.251496,0.251098,0.0591076,33,0.0111943,10,1.48418e-05,-4.22836,0.41184,0.143259,0.32998,0.251098,
2,1,0,1,0,63637.2,0.252994,0.252657,0.059547,33,0.0112948,10,1.5045e-05,-4.22514,0.642931,0.0917672,0.211877,0.252657,
2,1,0,1,0,63638.7,0.254492,0.254153,0.0599747,33,0.0113959,10,1.52428e-05,-4.22203,0.761247,0.0775044,0.180694,0.254153,
2,1,0,1,0,63640.2,0.25599,0.255641,0.0600668,33,0.0114972,10,1.53555e-05,-4.22137,0.888293,0.0664195,0.155373,0.255641,
2,1,0,1,0,63641.7,0.257488,0.257117,0.0602642,33,0.0115991,10,1.54949e-05,-4.21994,1.65665,0.0356141,0.0834594,0.257117,
2,1,0,1,0,63643.2,0.258987,0.258603,0.060513,33,0.0117012,10,1.56488e-05,-4.21815,2.41375,0.0244433,0.0572905,0.258603,
2,1,0,1,0,63644.7,0.260485,0.260172,0.0604296,33,0.0118032,10,1.57221e-05,-4.21875,1.22853,0.048025,0.113368,0.260172,
2,1,0,1,0,63646.2,0.261983,0.261671,0.060701,33,0.0119051,10,1.58837e-05,-4.2168,2.65497,0.0222224,0.0525851,0.261671,
2,1,0,1,0,63647.7,0.263481,0.263135,0.0609841,33,0.0120075,10,1.6047e-05,-4.21478,0.809284,0.0729039,0.172699,0.263135,
2,1,0,1,0,63649.2,0.264979,0.264649,0.0609938,33,0.0121102,10,1.6142e-05,-4.21471,0.559776,0.105399,0.250711,0.264649,
2,1,0,1,0,63650.7,0.266477,0.266144,0.0608105,33,0.012213,10,1.61844e-05,-4.21602,0.979022,0.0602642,0.144441,0.266144,
2,1,0,1,0,63652.2,0.267976,0.267638,0.0615199,33,0.0123161,10,1.64651e-05,-4.21098,2.0844,0.0283055,0.0677618,0.267638,
2,1,0,1,0,63653.7,0.269474,0.269128,0.0609009,33,0.0124197,10,1.63901e-05,-4.21538,0.966714,0.0610315,0.146469,0.2691282,
2,1,0,1,0,63655.2,0.270972,0.270642,0.0619607,33,0.0125232,10,1.67692e-05,-4.20788,1.5075,0.0391377,0.093957,0.270642,
2,1,0,1,0,63656.6,0.27247,0.272131,0.0619038,33,0.0126273,10,1.6846e-05,-4.20828,1.26333,0.046702,0.112283,0.272131,
2,1,0,1,0,63658.1,0.273968,0.27365,0.0613638,33,0.0127312,10,1.67922e-05,-4.21209,1.68824,0.0349475,0.0847048,0.27365,
2,1,0,1,0,63659.6,0.275467,0.275148,0.0623025,33,0.0128354,10,1.71424e-05,-4.20549,1.05848,0.0557405,0.135059,0.275148,
2,1,0,1,0,63661.1,0.276965,0.276632,0.0620534,33,0.01294,10,1.71659e-05,-4.20723,1.10802,0.0532482,0.129795,0.276632,
2,1,0,1,0,63662.6,0.278463,0.278099,0.0625203,33,0.0130447,10,1.73868e-05,-4.20398,2.08539,0.028292,0.0688452,0.278099,
2,1,0,1,0,63664.1,0.279961,0.279605,0.0625354,33,0.0131498,10,1.74852e-05,-4.20387,0.435465,0.135487,0.333165,0.279605,
2,1,0,1,0,63665.6,0.281459,0.281111,0.0633181,33,0.0132552,10,1.77994e-05,-4.19847,0.856381,0.0688946,0.170422,0.281111,
2,1,0,1,0,63667.1,0.282958,0.282603,0.0640488,33,0.0133617,10,1.81004e-05,-4.19349,1.11775,0.0527845,0.130442,0.282603,
2,1,0,1,0,63668.6,0.284456,0.284139,0.0635266,33,0.0134684,10,1.80504e-05,-4.19704,-5.35102,-0.0110259,-0.0274467,0.284139,
2,1,0,1,0,63670.1,0.285954,0.285621,0.0640142,33,0.013575,10,1.82838e-05,-4.19372,7.8196,0.00754514,0.0187501,0.285621,
2,1,0,1,0,63671.6,0.287452,0.287105,0.0640372,33,0.0136815,10,1.83854e-05,-4.19357,1.28763,0.0458205,0.114716,0.287105,
2,1,0,1,0,63673.1,0.28895,0.28859,0.0641072,33,0.0137885,10,1.85007e-05,-4.19309,0.668229,0.088293,0.220624,0.28859,
2,1,0,1,0,63674.6,0.290448,0.290063,0.0642416,33,0.0138958,10,1.86341e-05,-4.19218,1.56471,0.0377066,0.0944899,0.290063,
2,1,0,1,0,63676.1,0.291947,0.291604,0.0640431,33,0.0140029,10,1.86752e-05,-4.19353,5.98438,0.009859,0.0248376,0.291604,
2,1,0,1,0,63677.6,0.293445,0.293145,0.0643736,33,0.0141102,10,1.88708e-05,-4.19129,1.22576,0.0481334,0.12118,0.293145,
2,1,0,1,0,63679.1,0.294943,0.294607,0.0644559,33,0.0142178,10,1.89891e-05,-4.19074,0.909835,0.0648469,0.163894,0.294607,
2,1,0,1,0,63680.6,0.296441,0.296062,0.0652109,33,0.0143258,10,1.93064e-05,-4.18568,1.6176,0.0364739,0.0925758,0.296062,
2,1,0,1,0,63682.1,0.297939,0.297615,0.065499,33,0.0144344,10,1.94935e-05,-4.18377,35.0088,0.00168529,0.00426713,0.297615,
2,1,0,1,0,63683.6,0.299438,0.299115,0.0648582,33,0.0145428,10,1.94001e-05,-4.18804,-0.00422553,-13.9628,-22.5053,0.299115,
2,1,0,1,0,63684.5,0.299737,0.299405,0.0325129,33,0.0145919,10,9.73451e-06,-4.48794,0.00204029,28.9174,40.4312,0.299405,
2,1,0,1,0,63686,0.298239,0.297911,0.0187925,33,0.0146159,10,5.59849e-06,-4.72602,0.00521304,11.3178,14.3207,0.297911,
2,1,0,1,0,63687.5,0.296741,0.296427,0.0139837,33,0.0146292,10,4.14516e-06,-4.85438,0.0127334,4.6335,2.62388,0.2964274,
2,1,0,1,0,63689,0.295243,0.294875,0.01082,33,0.0146366,10,3.19054e-06,-4.96577,0.0128028,4.60835,1.95733,0.294875,
2,1,0,1,0,63690.5,0.293745,0.293374,0.00794119,33,0.0146399,10,2.32974e-06,-5.10011,0.0128971,4.57469,1.4782,0.293374,
2,1,0,1,0,63692,0.292246,0.291898,0.00599732,33,0.0146398,10,1.75061e-06,-5.22204,0.0108146,5.45556,1.3325,0.291898,
2,1,0,1,0,63693.5,0.290748,0.290405,0.00412857,33,0.0146366,10,1.19896e-06,-5.3842,0.00673817,8.75609,1.28447,0.290405,
2,1,0,1,0,63695,0.28925,0.288916,0.00219997,33,0.0146307,10,6.35606e-07,-5.65758,0.00325831,18.1075,1.17133,0.288916,
2,1,0,1,0,63696.5,0.287752,0.287426,0.000917088,33,0.0146223,10,2.63595e-07,-6.03759,0.010005,5.89707,1.02534,0.2874265,
2,1,0,1,0,63697.9,0.286254,0.285901,-0.000782752,33,0.0146116,10,-2.23789e-07,-6.10638,-0.017387,-3.39334,1.10434,0.285901,
2,1,0,1,0,63699.4,0.284755,0.284411,-0.00185968,33,0.0145987,10,-5.28912e-07,-5.73056,-0.00129953,-45.4009,0.95578,0.284411,
2,0,0,1,0,63700.9,0.283257,0.282885,-0.00343347,33,0.0145834,10,-9.71276e-07,-5.46427,-0.0073764,-7.99848,0.90131,0.282885,
2,0,0,1,0,63702.4,0.281759,0.281372,-0.0046956,33,0.0145664,10,-1.32121e-06,-5.32831,-0.014297,-4.12673,0.717576,0.281372,
2,0,0,1,0,63703.9,0.280261,0.279941,-0.00569568,33,0.0145478,10,-1.59446e-06,-5.24445,-0.0177329,-3.32714,0.689234,0.2799412,
2,1,0,1,0,63705.4,0.278763,0.27843,-0.00693549,33,0.0145275,10,-1.93105e-06,-5.15892,-0.0233657,-2.52507,0.647081,0.2784301,
2,0,0,1,0,63706.9,0.277264,0.276952,-0.00756049,33,0.0145057,10,-2.09389e-06,-5.12145,-0.0307833,-1.91662,0.569795,0.276952,
2,0,0,1,0,63708.4,0.275766,0.275397,-0.00865351,33,0.0144823,10,-2.38315e-06,-5.06281,-0.042412,-1.39112,0.457489,0.275397,
2,0,0,1,0,63709.9,0.274268,0.273883,-0.00973774,33,0.0144575,10,-2.667e-06,-5.01154,-0.03789,-1.55714,0.587963,0.273883,
2,0,0,1,0,63711.4,0.27277,0.272425,-0.010275,33,0.0144317,10,-2.79917e-06,-4.98822,-0.0400681,-1.47249,0.609371,0.272425,
2,0,0,1,0,63712.9,0.271272,0.27093,-0.0115672,33,0.0144042,10,-3.13389e-06,-4.93677,-0.0390288,-1.51171,0.668598,0.27093,
2,0,0,1,0,63714.4,0.269774,0.269451,-0.0123967,33,0.0143752,10,-3.34029e-06,-4.90669,-0.0618274,-0.954269,0.443867,0.269451,
2,0,0,1,0,63715.9,0.268275,0.267913,-0.0133016,33,0.0143449,10,-3.56366e-06,-4.8761,-0.0721793,-0.817409,0.409362,0.267913,
2,0,0,1,0,63717.4,0.266777,0.266443,-0.0136087,33,0.014314,10,-3.62595e-06,-4.86618,-0.0790902,-0.745984,0.39039,0.266443,
2,0,0,1,0,63718.9,0.265279,0.264915,-0.0141201,33,0.014282,10,-3.74064e-06,-4.85016,-0.0710153,-0.830807,0.459591,0.2649152,
2,0,0,1,0,63720.4,0.263781,0.263428,-0.0149046,33,0.0142489,10,-3.92629e-06,-4.82668,-0.0790927,-0.74596,0.43924,0.263428,
2,0,0,1,0,63721.9,0.262283,0.261929,-0.0150598,33,0.0142147,10,-3.9446e-06,-4.82218,-0.0796562,-0.740683,0.450665,0.261929,
2,0,0,1,0,63723.4,0.260784,0.260447,-0.0162772,33,0.0141796,10,-4.23934e-06,-4.78842,-0.0803669,-0.734133,0.466823,0.260447,
2,0,0,1,0,63724.9,0.259286,0.258981,-0.0168594,33,0.0141434,10,-4.36627e-06,-4.77316,-0.0727512,-0.810983,0.544458,0.258981,
2,0,0,1,0,63726.4,0.257788,0.257448,-0.0181006,33,0.0141059,10,-4.65995e-06,-4.74231,-0.08492,-0.694772,0.475805,0.257448,
2,0,0,1,0,63727.9,0.25629,0.255932,-0.0183737,33,0.0140674,10,-4.70244e-06,-4.7358,-0.10242,-0.576059,0.418569,0.255932,
2,0,0,1,0,63729.4,0.254792,0.254424,-0.0189105,33,0.0140278,10,-4.81127e-06,-4.7233,-0.0866875,-0.680606,0.502961,0.2544235,
2,0,0,1,0,63730.9,0.253293,0.252974,-0.0198097,33,0.0139871,10,-5.01135e-06,-4.70312,-0.107204,-0.550352,0.425654,0.252974,
2,0,0,1,0,63732.4,0.251795,0.251432,-0.0205575,33,0.0139453,10,-5.16881e-06,-4.68703,-0.121112,-0.487154,0.387819,0.251432,
2,0,0,1,0,63733.9,0.250297,0.249939,-0.021074,33,0.0139026,10,-5.26722e-06,-4.67625,-0.161209,-0.365984,0.302707,0.249939,
2,0,0,1,0,63735.4,0.248799,0.24843,-0.0218551,33,0.013859,10,-5.42945e-06,-4.66045,-0.134374,-0.439072,0.369528,0.24843,
2,0,0,1,0,63736.9,0.247301,0.246947,-0.0217787,33,0.0138147,10,-5.37817e-06,-4.66197,-0.105438,-0.559572,0.487336,0.246947,
2,0,0,1,0,63738.4,0.245802,0.245443,-0.0230865,33,0.0137694,10,-5.66641e-06,-4.63664,-0.10978,-0.53744,0.483622,0.245443,
2,0,0,1,0,63739.9,0.244304,0.243941,-0.0237626,33,0.0137228,10,-5.79669e-06,-4.62411,-0.130177,-0.453229,0.413682,0.243941,
2,0,0,1,0,63741.4,0.242806,0.242486,-0.0245583,33,0.0136752,10,-5.95504e-06,-4.6098,-0.142421,-0.414265,0.38953,0.242486,
2,0,0,1,0,63742.9,0.241308,0.240984,-0.0246345,33,0.013627,10,-5.93651e-06,-4.60846,-0.243824,-0.241978,0.23111,0.240984,
2,0,0,1,0,63744.4,0.23981,0.239463,-0.0253814,33,0.013578,10,-6.07792e-06,-4.59548,-0.176743,-0.333817,0.32712,0.239463,
2,0,0,1,0,63745.9,0.238312,0.237946,-0.0255207,33,0.0135283,10,-6.07254e-06,-4.59311,-0.152564,-0.386724,0.387538,0.237946,
2,0,0,1,0,63747.4,0.236813,0.236454,-0.0262525,33,0.0134778,10,-6.20751e-06,-4.58083,-0.146744,-0.402061,0.41293,0.236454,
2,0,0,1,0,63748.9,0.235315,0.234947,-0.0263322,33,0.0134264,10,-6.18668e-06,-4.57951,-0.135329,-0.435976,0.453389,0.2349471,
2,0,0,1,0,63750.4,0.233817,0.233443,-0.0272798,33,0.0133742,10,-6.36829e-06,-4.56416,-0.218207,-0.270386,0.288091,0.233443,
2,0,0,1,0,63751.9,0.232319,0.231942,-0.0282948,33,0.0133209,10,-6.56275e-06,-4.54829,-0.20426,-0.288848,0.313352,0.231942,
2,0,0,1,0,63753.4,0.230821,0.230498,-0.0284656,33,0.0132668,10,-6.56125e-06,-4.54568,-0.150702,-0.391501,0.433973,0.230498,
2,0,0,1,0,63754.9,0.229322,0.228993,-0.029048,33,0.0132116,10,-6.65179e-06,-4.53688,-0.159099,-0.370839,0.419738,0.228993,
2,0,0,1,0,63756.4,0.227824,0.227474,-0.0294459,33,0.0131557,10,-6.69819e-06,-4.53098,-0.149367,-0.395001,0.459217,0.227474,
2,0,0,1,0,63757.9,0.226326,0.226031,-0.0301618,33,0.013099,10,-6.8175e-06,-4.52054,-0.25447,-0.231854,0.272755,0.226031,
2,0,0,1,0,63759.4,0.224828,0.224534,-0.0304044,33,0.0130414,10,-6.82681e-06,-4.51706,-0.274831,-0.214677,0.255923,0.224534,
2,0,0,1,0,63760.9,0.22333,0.223004,-0.0314181,33,0.0129832,10,-7.00634e-06,-4.50282,-0.153105,-0.385356,0.467455,0.223004,
2,0,0,1,0,63762.4,0.221831,0.221488,-0.0316301,33,0.0129244,10,-7.00571e-06,-4.4999,-0.180999,-0.325968,0.400446,0.221488,
2,0,0,1,0,63763.9,0.220333,0.219988,-0.0320131,33,0.0128645,10,-7.04249e-06,-4.49467,-0.16943,-0.348226,0.43637,0.219988,
2,0,0,1,0,63765.4,0.218835,0.218479,-0.0329962,33,0.0128036,10,-7.20898e-06,-4.48154,-0.176302,-0.334652,0.427091,0.218479,
2,0,0,1,0,63766.9,0.217337,0.216976,-0.0331756,33,0.0127421,10,-7.19831e-06,-4.47918,-0.227297,-0.259573,0.338897,0.216976,
2,0,0,1,0,63768.4,0.215839,0.215501,-0.0339524,33,0.0126799,10,-7.31679e-06,-4.46913,-0.200192,-0.294718,0.387194,0.215501,
2,0,0,1,0,63769.9,0.21434,0.214021,-0.0342913,33,0.0126163,10,-7.33907e-06,-4.46482,-0.177361,-0.332655,0.443107,0.214021,
2,0,0,1,0,63771.4,0.212842,0.212453,-0.0351358,33,0.0125521,10,-7.46471e-06,-4.45425,-0.370303,-0.159329,0.216853,0.212453,
2,0,0,1,0,63772.9,0.211344,0.210984,-0.0350849,33,0.0124874,10,-7.40236e-06,-4.45488,-0.312904,-0.188556,0.259014,0.210984,
2,0,0,1,0,63774.4,0.209846,0.209486,-0.0350703,33,0.0124223,10,-7.34672e-06,-4.45506,-0.282698,-0.208703,0.289671,0.209486,
2,0,0,1,0,63775.9,0.208348,0.208014,-0.0360569,33,0.0123564,10,-7.50032e-06,-4.44301,-0.258827,-0.227952,0.322153,0.2080138,
2,0,0,1,0,63777.4,0.20685,0.206465,-0.0375718,33,0.012289,10,-7.75726e-06,-4.42514,-0.208196,-0.283387,0.404841,0.206465,
2,0,0,1,0,63778.9,0.205351,0.205012,-0.0374042,33,0.0122208,10,-7.66831e-06,-4.42708,-0.205636,-0.286915,0.418953,0.205012,
2,0,0,1,0,63780.3,0.203853,0.203486,-0.0378137,33,0.0121521,10,-7.69456e-06,-4.42235,-0.278252,-0.212038,0.31215,0.203486,
2,0,0,1,0,63781.8,0.202355,0.202018,-0.038529,33,0.0120823,10,-7.78356e-06,-4.41421,-0.220445,-0.26764,0.40399,0.202018,
2,0,0,1,0,63783.3,0.200857,0.200487,-0.0392702,33,0.0120118,10,-7.87316e-06,-4.40594,-0.236595,-0.249371,0.381659,0.200487,
2,0,0,1,0,63784.8,0.199359,0.199013,-0.0401268,33,0.0119399,10,-7.98576e-06,-4.39657,-0.278839,-0.211592,0.325889,0.199013,
2,0,0,1,0,63786.3,0.19786,0.19749,-0.0404477,33,0.0118674,10,-7.98803e-06,-4.39311,-0.294427,-0.200389,0.313628,0.19749,
2,0,0,1,0,63787.8,0.196362,0.196039,-0.041092,33,0.0117942,10,-8.05562e-06,-4.38624,-0.254362,-0.231953,0.370136,0.1960386,
2,0,0,1,0,63789.3,0.194864,0.194474,-0.0414257,33,0.0117199,10,-8.05624e-06,-4.38273,-0.34959,-0.168769,0.272124,0.194474,
2,0,0,1,0,63790.8,0.193366,0.192966,-0.0417597,33,0.0116447,10,-8.05817e-06,-4.37924,-0.270684,-0.217966,0.357046,0.192966,
2,0,0,1,0,63792.3,0.191868,0.191527,-0.0422678,33,0.0115688,10,-8.09541e-06,-4.37399,-0.293554,-0.200985,0.334822,0.191527,
2,0,0,1,0,63793.8,0.190369,0.190011,-0.0431217,33,0.0114921,10,-8.19361e-06,-4.3653,-0.191959,-0.307357,0.516266,0.1900112,
2,0,0,1,0,63795.3,0.188871,0.188548,-0.0438472,33,0.0114142,10,-8.26729e-06,-4.35806,-0.240055,-0.245777,0.419718,0.188548,
2,0,0,1,0,63796.8,0.187373,0.187024,-0.044465,33,0.0113352,10,-8.31603e-06,-4.35198,-0.220518,-0.267551,0.46433,0.187024,
2,0,0,1,0,63798.3,0.185875,0.18552,-0.0453698,33,0.0112553,10,-8.41703e-06,-4.34323,-0.241052,-0.244761,0.429719,0.18552,
2,0,0,1,0,63799.8,0.184377,0.183988,-0.0452635,33,0.0111743,10,-8.32794e-06,-4.34425,-0.21726,-0.271564,0.483245,0.183988,
2,0,0,1,0,63801.3,0.182878,0.182547,-0.0467248,33,0.0110925,10,-8.52947e-06,-4.33045,-0.283899,-0.207821,0.37566,0.182547,
2,0,0,1,0,63802.8,0.18138,0.181062,-0.0470913,33,0.0110095,10,-8.52647e-06,-4.32706,-0.288494,-0.204511,0.375179,0.181062,
2,0,0,1,0,63804.3,0.179882,0.17949,-0.0474121,33,0.0109256,10,-8.50999e-06,-4.32411,-0.28407,-0.207695,0.38515,0.1794899,
2,0,0,1,0,63805.8,0.178384,0.178,-0.0479571,33,0.0108409,10,-8.53636e-06,-4.31915,-0.252259,-0.233886,0.43963,0.178,
2,0,0,1,0,63807.3,0.176886,0.176523,-0.0488138,33,0.0107553,10,-8.61675e-06,-4.31146,-0.26782,-0.220297,0.421519,0.176523,
2,0,0,1,0,63808.8,0.175388,0.174994,-0.0495793,33,0.0106683,10,-8.67608e-06,-4.3047,-0.185041,-0.318848,0.618354,0.174994,
2,0,0,1,0,63810.3,0.173889,0.173498,-0.0507844,33,0.0105801,10,-8.81097e-06,-4.29427,-0.184404,-0.31995,0.630016,0.1734976,
2,0,0,1,0,63811.8,0.172391,0.172062,-0.0514598,33,0.0104905,10,-8.85427e-06,-4.28853,-0.219625,-0.268639,0.537581,0.172062,
2,0,0,1,0,63813.3,0.170893,0.170524,-0.0524651,33,0.0103995,10,-8.94656e-06,-4.28013,-0.218972,-0.269441,0.547,0.170524,
2,0,0,1,0,63814.8,0.169395,0.16904,-0.0530377,33,0.010307,10,-8.96548e-06,-4.27542,-0.193047,-0.305625,0.634969,0.16904,
2,0,0,1,0,63816.3,0.167897,0.167549,-0.0542055,33,0.0102131,10,-9.08206e-06,-4.26596,-0.179836,-0.328076,0.697062,0.167549,
2,0,0,1,0,63817.8,0.166398,0.16606,-0.0547584,33,0.0101176,10,-9.09318e-06,-4.26155,-0.182297,-0.323647,0.698801,0.16606,
2,0,0,1,0,63819.3,0.1649,0.164575,-0.0563496,33,0.0100208,10,-9.27376e-06,-4.24911,-0.207443,-0.284415,0.626792,0.164575,
2,0,0,1,0,63820.8,0.163402,0.16302,-0.0573138,33,0.00992211,10,-9.34328e-06,-4.24174,-0.168089,-0.351005,0.782506,0.1630197,
2,0,0,1,0,63822.3,0.161904,0.161516,-0.0588298,33,0.00982152,10,-9.50195e-06,-4.2304,-0.164381,-0.358922,0.82365,0.161516,
2,0,0,1,0,63823.8,0.160406,0.160047,-0.05972,33,0.00971908,10,-9.55802e-06,-4.22388,-0.178201,-0.331086,0.772297,0.160047,
2,0,0,1,0,63825.3,0.158907,0.158562,-0.0605512,33,0.00961479,10,-9.60109e-06,-4.21788,-0.156394,-0.377253,0.903458,0.158562,
2,0,0,1,0,63826.8,0.157409,0.157033,-0.0631401,33,0.00950825,10,-9.91505e-06,-4.19969,-0.142164,-0.415013,1.01164,0.157033,
2,0,0,1,0,63828.3,0.155911,0.155565,-0.0645005,33,0.0093993,10,-1.0034e-05,-4.19044,-0.171896,-0.34323,0.8583,0.155565,
2,0,0,1,0,63829.8,0.154413,0.154042,-0.0652491,33,0.00928828,10,-1.00511e-05,-4.18543,-0.168538,-0.35007,0.889402,0.154042,
2,0,0,1,0,63831.3,0.152915,0.152567,-0.0669098,33,0.0091752,10,-1.02082e-05,-4.17451,-0.138364,-0.42641,1.11759,0.152567,
2,0,0,1,0,63832.8,0.151417,0.15103,-0.0684564,33,0.00905996,10,-1.03389e-05,-4.16459,-0.115219,-0.51207,1.37385,0.15103,
2,0,0,1,0,63834.3,0.149918,0.149565,-0.0706176,33,0.00894142,10,-1.05619e-05,-4.15109,-0.114401,-0.515728,1.42032,0.149565,
2,0,0,1,0,63835.8,0.14842,0.148046,-0.0732682,33,0.00881956,10,-1.0847e-05,-4.13508,-0.116672,-0.505692,1.43592,0.148046,
2,0,0,1,0,63837.3,0.146922,0.146552,-0.0752794,33,0.00869431,10,-1.10323e-05,-4.12332,-0.121744,-0.484625,1.42476,0.146552,
2,0,0,1,0,63838.8,0.145424,0.145066,-0.0775317,33,0.00856581,10,-1.12472e-05,-4.11052,-0.103736,-0.568753,1.72232,0.145066,
2,0,0,1,0,63840.3,0.143926,0.143556,-0.0799084,33,0.00843307,10,-1.14713e-05,-4.09741,-0.0833935,-0.707489,2.21207,0.143556,
2,0,0,1,0,63841.8,0.142427,0.142046,-0.0830711,33,0.00829568,10,-1.17999e-05,-4.08055,-0.087228,-0.676389,2.20438,0.142046,
2,0,0,1,0,63843.3,0.140929,0.140543,-0.0864018,33,0.00815348,10,-1.21432e-05,-4.06348,-0.0898397,-0.656726,2.2293,0.140543,
2,0,0,1,0,63844.8,0.139431,0.139114,-0.090109,33,0.00800619,10,-1.25354e-05,-4.04523,-0.0804923,-0.73299,2.57824,0.139114,
2,0,0,1,0,63846.3,0.137933,0.137623,-0.0939474,33,0.00785326,10,-1.29293e-05,-4.02712,-0.0778818,-0.757558,2.77971,0.137623,
2,0,0,1,0,63847.8,0.136435,0.136075,-0.09832,33,0.00769428,10,-1.33789e-05,-4.00736,-0.076116,-0.775133,2.96387,0.136075,
2,0,0,1,0,63849.3,0.134936,0.134606,-0.102849,33,0.00752855,10,-1.3844e-05,-3.9878,-0.0837328,-0.704623,2.81251,0.134606,
2,0,0,1,0,63850.8,0.133438,0.133075,-0.106538,33,0.00735652,10,-1.41776e-05,-3.97249,-0.0889838,-0.663042,2.75591,0.133075,
2,0,0,1,0,63852.3,0.13194,0.131555,-0.110538,33,0.00717848,10,-1.45418e-05,-3.95649,-0.0901332,-0.654587,2.83418,0.131555,
2,0,0,1,0,63853.8,0.130442,0.13009,-0.114493,33,0.00699405,10,-1.48944e-05,-3.94122,-0.100326,-0.588081,2.63891,0.1300898,
2,0,0,1,0,63855.3,0.128944,0.128599,-0.118752,33,0.00680326,10,-1.52714e-05,-3.92536,-0.118463,-0.498045,2.2989,0.128599,
2,0,0,1,0,63856.8,0.127445,0.127078,-0.122399,33,0.00660697,10,-1.55543e-05,-3.91222,-0.137902,-0.427839,2.03373,0.127078,
2,0,0,1,0,63858.3,0.125947,0.125585,-0.125304,33,0.00640642,10,-1.57363e-05,-3.90204,-0.167423,-0.352401,1.71612,0.125585,
2,0,0,1,0,63859.8,0.124449,0.124101,-0.128359,33,0.00620132,10,-1.59295e-05,-3.89157,-0.197673,-0.298473,1.47964,0.124101,
2,0,0,1,0,63861.3,0.122951,0.122581,-0.129942,33,0.00599271,10,-1.59284e-05,-3.88625,-0.21505,-0.274354,1.38575,0.1225811,
2,0,0,1,0,63862.8,0.121453,0.121086,-0.131851,33,0.00578142,10,-1.59653e-05,-3.87992,-0.37414,-0.157695,0.80676,0.1210859,
2,0,0,1,0,63864.2,0.119955,0.119613,-0.13251,33,0.00556822,10,-1.58499e-05,-3.87775,-0.391975,-0.15052,0.779702,0.119613,
2,0,0,1,0,63865.7,0.118456,0.118067,-0.133851,33,0.00535311,10,-1.58034e-05,-3.87338,-0.320799,-0.183916,0.95838,0.118067,
2,0,0,1,0,63867.2,0.116958,0.116616,-0.134584,33,0.0051363,10,-1.56947e-05,-3.87101,-0.789937,-0.0746895,0.391653,0.1166164,
2,0,0,1,0,63868.7,0.11546,0.115083,-0.135369,33,0.00491865,10,-1.55786e-05,-3.86848,-2.30158,-0.0256345,0.135065,0.115083,
2,0,0,1,0,63870.2,0.113962,0.113609,-0.134011,33,0.00470111,10,-1.52248e-05,-3.87286,-1.97954,-0.029805,0.157153,0.113609,
2,0,0,1,0,63871.7,0.112464,0.112113,-0.135091,33,0.0044833,10,-1.51454e-05,-3.86937,-1.45407,-0.0405757,0.21411,0.112113,
2,0,0,1,0,63873.2,0.110965,0.110597,-0.136111,33,0.00426456,10,-1.50535e-05,-3.86611,-5.51595,-0.0106963,0.0565457,0.110597,
2,0,0,1,0,63874.7,0.109467,0.109096,-0.135995,33,0.0040456,10,-1.48365e-05,-3.86648,4.76619,0.0123789,-0.0653433,0.109096,
2,0,0,1,0,63876.2,0.107969,0.10763,-0.135701,33,0.0038267,10,-1.46056e-05,-3.86742,-16.5694,-0.00356078,0.0189177,0.10763,
2,0,0,1,0,63877.7,0.106471,0.106102,-0.135601,33,0.00360834,10,-1.43876e-05,-3.86774,-4.35995,-0.0135323,0.0718994,0.106102,
2,0,0,1,0,63879.2,0.104973,0.104572,-0.135804,33,0.00338914,10,-1.42013e-05,-3.86709,10.9925,0.00536727,-0.0284268,0.1045722,
2,0,0,1,0,63880.7,0.103474,0.103122,-0.135953,33,0.00316976,10,-1.40197e-05,-3.86661,1.17278,0.0503077,-0.265949,0.103122,
2,0,0,1,0,63882.2,0.101976,0.101643,-0.135721,33,0.00295095,10,-1.37952e-05,-3.86735,1.38533,0.0425891,-0.224746,0.101643,
2,0,0,1,0,63883.7,0.100478,0.100127,-0.135298,33,0.00273281,10,-1.3547e-05,-3.86871,1.84948,0.0319009,-0.168698,0.100127,
2,0,0,1,0,63885.2,0.0989798,0.0986392,-0.135339,33,0.0025148,10,-1.33497e-05,-3.86858,1.03204,0.0571683,-0.300817,0.0986392,
2,0,0,1,0,63886.7,0.0974816,0.0971175,-0.134996,33,0.0022972,10,-1.31105e-05,-3.86968,0.980645,0.0601645,-0.315693,0.0971175,
2,0,0,1,0,63888.2,0.0959834,0.0956213,-0.134034,33,0.00208054,10,-1.28165e-05,-3.87279,0.703541,0.0838615,-0.4382,0.0956213,
2,0,0,1,0,63889.7,0.0944852,0.094142,-0.132689,33,0.00186547,10,-1.24916e-05,-3.87716,0.666823,0.0884792,-0.460917,0.094142,
2,0,0,1,0,63891.2,0.0929871,0.0926458,-0.132207,33,0.00165126,10,-1.22485e-05,-3.87874,1.43513,0.0411113,-0.212835,0.0926458,
2,0,0,1,0,63892.7,0.0914889,0.0911983,-0.132525,33,0.00143735,10,-1.20861e-05,-3.8777,0.863204,0.06835,-0.352156,0.0911983,
2,0,0,1,0,63894.2,0.0899907,0.0896088,-0.131658,33,0.00122442,10,-1.17977e-05,-3.88055,0.553951,0.106508,-0.545558,0.0896088,
2,0,0,1,0,63895.7,0.0884925,0.0881645,-0.129903,33,0.001013,10,-1.14528e-05,-3.88638,0.745763,0.0791136,-0.403555,0.0881645,
2,0,0,1,0,63897.2,0.0869943,0.0865972,-0.130307,33,0.000802744,10,-1.12842e-05,-3.88503,0.731903,0.0806117,-0.408822,0.0865972,
2,0,0,1,0,63898.7,0.0854961,0.0851339,-0.129421,33,0.000592874,10,-1.10181e-05,-3.888,0.577926,0.102089,-0.516168,0.0851339,
2,0,0,1,0,63900.2,0.083998,0.0836409,-0.128628,33,0.000384129,10,-1.07586e-05,-3.89066,0.341546,0.172744,-0.864088,0.0836409,
2,0,0,1,0,63901.7,0.0824998,0.0821595,-0.128142,33,0.000176437,10,-1.05281e-05,-3.89231,0.582897,0.101219,-0.505439,0.0821595,
2,0,0,1,0,63903.2,0.0810016,0.0806251,-0.126568,33,-2.91539e-05,10,-1.02046e-05,-3.89767,0.696391,0.0847225,-0.420838,0.08062508,
2,0,0,1,0,63904.7,0.0795034,0.0791267,-0.126388,33,-0.00023408,10,-1.00007e-05,-3.89829,0.735307,0.0802386,-0.39471,0.0791267,
2,0,0,1,0,63906.2,0.0780052,0.0776114,-0.125522,33,-0.000437916,10,-9.74194e-06,-3.90128,0.545895,0.108079,-0.528498,0.0776114,
2,0,0,1,0,63907.7,0.076507,0.0761374,-0.125098,33,-0.000640524,10,-9.52466e-06,-3.90275,0.690917,0.0853938,-0.415088,0.0761374,
2,0,0,1,0,63909.2,0.0750088,0.0746592,-0.124215,33,-0.000841717,10,-9.27381e-06,-3.90582,0.650783,0.0906601,-0.43824,0.0746592,
2,0,0,1,0,63910.7,0.0735106,0.073146,-0.123517,33,-0.00104204,10,-9.03477e-06,-3.90827,0.682891,0.0863974,-0.416177,0.07314603,
2,0,0,1,0,63912.2,0.0720124,0.0716847,-0.122997,33,-0.00124153,10,-8.81699e-06,-3.91011,0.847121,0.0696477,-0.333618,0.07168474,
2,0,0,1,0,63913.7,0.0705142,0.0702055,-0.122331,33,-0.00144031,10,-8.58834e-06,-3.91246,1.32755,0.0444429,-0.212526,0.07020548,
2,0,0,1,0,63915.2,0.069016,0.0686732,-0.121907,33,-0.00163809,10,-8.37174e-06,-3.91397,0.693978,0.0850171,-0.403798,0.0686732,
2,0,0,1,0,63916.7,0.0675178,0.067143,-0.121107,33,-0.0018354,10,-8.13146e-06,-3.91683,1.24563,0.0473655,-0.223815,0.067143,
2,0,0,1,0,63918.2,0.0660196,0.0656393,-0.121022,33,-0.00203146,10,-7.94383e-06,-3.91713,0.575383,0.10254,-0.482493,0.0656393,
2,0,0,1,0,63919.7,0.0645214,0.0641908,-0.119647,33,-0.00222677,10,-7.68021e-06,-3.9221,0.782567,0.0753929,-0.351867,0.0641908,
2,0,0,1,0,63921.2,0.0630233,0.0626618,-0.118299,33,-0.00242062,10,-7.41285e-06,-3.92702,0.58923,0.100131,-0.465595,0.06266176,
2,0,0,1,0,63922.7,0.0615251,0.0611878,-0.118826,33,-0.0026137,10,-7.27071e-06,-3.92509,0.535024,0.110275,-0.509744,0.0611878,
2,0,0,1,0,63924.2,0.0600269,0.0596576,-0.118149,33,-0.0028059,10,-7.04851e-06,-3.92757,0.509399,0.115823,-0.534449,0.0596576,
2,0,0,1,0,63925.7,0.0585287,0.0581391,-0.116961,33,-0.00299711,10,-6.79998e-06,-3.93196,0.430911,0.136919,-0.625713,0.0581391,
2,0,0,1,0,63927.2,0.0570305,0.0566471,-0.116298,33,-0.00318734,10,-6.58792e-06,-3.93443,0.483433,0.122044,-0.556203,0.0566471,
2,0,0,1,0,63928.7,0.0555323,0.0551933,-0.115729,33,-0.00337621,10,-6.38749e-06,-3.93656,0.862358,0.068417,-0.310693,0.0551933,
2,0,0,1,0,63930.2,0.0540342,0.0536908,-0.116037,33,-0.00356465,10,-6.23012e-06,-3.9354,0.66341,0.0889344,-0.400134,0.0536908,
2,0,0,1,0,63931.7,0.052536,0.0521786,-0.115086,33,-0.00375255,10,-6.00501e-06,-3.93898,0.584663,0.100913,-0.451973,0.0521786,
2,0,0,1,0,63933.2,0.0510378,0.0506835,-0.114653,33,-0.00393911,10,-5.811e-06,-3.94062,0.59086,0.0998545,-0.445969,0.0506835,
2,0,0,1,0,63934.7,0.0495396,0.0492095,-0.113457,33,-0.00412428,10,-5.58318e-06,-3.94517,0.621756,0.0948925,-0.420755,0.04920949,
2,0,0,1,0,63936.2,0.0480414,0.0477016,-0.113303,33,-0.00430907,10,-5.40475e-06,-3.94576,1.66971,0.0353355,-0.155719,0.0477016,
2,0,0,1,0,63937.7,0.0465432,0.0461438,-0.112218,33,-0.00449273,10,-5.17817e-06,-3.94994,0.871191,0.0677234,-0.298137,0.0461438,
2,0,0,1,0,63939.2,0.045045,0.0446995,-0.111834,33,-0.00467568,10,-4.99892e-06,-3.95143,2.34866,0.0251207,-0.109974,0.0446995,
2,0,0,1,0,63940.7,0.0435468,0.0432033,-0.111503,33,-0.00485794,10,-4.81728e-06,-3.95271,0.668321,0.0882809,-0.385418,0.0432033,
2,0,0,1,0,63942.2,0.0420486,0.0417198,-0.111099,33,-0.00503958,10,-4.63502e-06,-3.95429,0.768158,0.0768072,-0.333171,0.0417198,
2,0,0,1,0,63943.7,0.0405504,0.0402214,-0.110879,33,-0.00522056,10,-4.45971e-06,-3.95515,0.691761,0.0852896,-0.367826,0.0402214,
2,0,0,1,0,63945.2,0.0390522,0.0387114,-0.110188,33,-0.00540077,10,-4.26551e-06,-3.95787,0.632963,0.0932124,-0.399781,0.03871138,
2,0,0,1,0,63946.6,0.037554,0.0371664,-0.109221,33,-0.00558027,10,-4.05937e-06,-3.96169,1.14203,0.0516625,-0.221007,0.0371664,
2,0,0,1,0,63948.1,0.0360558,0.0356563,-0.10923,33,-0.00575851,10,-3.89475e-06,-3.96166,0.588355,0.10028,-0.428857,0.0356563,
2,0,0,1,0,63949.6,0.0345576,0.0342057,-0.108672,33,-0.00593624,10,-3.71721e-06,-3.96388,0.808379,0.0729856,-0.309798,0.0342057,
2,0,0,1,0,63951.1,0.0330594,0.0327392,-0.108065,33,-0.00611337,10,-3.53797e-06,-3.96631,0.497581,0.118574,-0.499717,0.0327392,
2,0,0,1,0,63952.6,0.0315613,0.03119,-0.10769,33,-0.00628963,10,-3.35886e-06,-3.96782,1.43486,0.0411191,-0.173668,0.03119,
2,0,0,1,0,63954.1,0.0300631,0.029734,-0.107413,33,-0.00646458,10,-3.19381e-06,-3.96894,1.46788,0.040194,-0.168549,0.029734,
2,0,0,1,0,63955.6,0.0285649,0.028207,-0.107337,33,-0.00663991,10,-3.02766e-06,-3.96925,2.49106,0.0236847,-0.0989279,0.028207,
2,0,0,1,0,63957.1,0.0270667,0.0267564,-0.107194,33,-0.00681519,10,-2.86813e-06,-3.96983,1.25969,0.046837,-0.19568,0.02675641,
2,0,0,1,0,63958.6,0.0255685,0.0252284,-0.107022,33,-0.00698989,10,-2.7e-06,-3.97053,0.981182,0.0601316,-0.251218,0.0252284,
2,0,0,1,0,63960.1,0.0240703,0.0237278,-0.106755,33,-0.007164,10,-2.53306e-06,-3.97161,1.90614,0.0309526,-0.129067,0.0237278,
2,0,0,1,0,63961.6,0.0225722,0.0222689,-0.106099,33,-0.00733796,10,-2.3627e-06,-3.97429,3.5837,0.0164634,-0.0684927,0.0222689,
2,0,0,1,0,63963.1,0.021074,0.0206878,-0.10615,33,-0.00751182,10,-2.19602e-06,-3.97408,1.83648,0.0321267,-0.133443,0.0206878,
2,0,0,1,0,63964.6,0.0195758,0.0192001,-0.106002,33,-0.00768532,10,-2.03524e-06,-3.97469,4.37722,0.0134789,-0.0559929,0.0192001,
2,0,0,1,0,63966.1,0.0180776,0.017709,-0.105727,33,-0.00785835,10,-1.87232e-06,-3.97582,46.5967,0.00126618,-0.00524215,0.017709,
2,0,0,1,0,63967.6,0.0165794,0.0162298,-0.106371,33,-0.00803158,10,-1.72637e-06,-3.97318,166.663,0.000354007,-0.00146335,0.0162298,
2,0,0,1,0,63969.1,0.0150812,0.0147229,-0.106605,33,-0.00820492,10,-1.56954e-06,-3.97222,-17.287,-0.00341298,0.014131,0.0147229,
2,0,0,1,0,63970.6,0.013583,0.0131715,-0.106294,33,-0.00837846,10,-1.40005e-06,-3.97349,-1.35984,-0.0433873,0.180012,0.0131715,
2,0,0,1,0,63972.1,0.0120848,0.0117167,-0.106473,33,-0.00855206,10,-1.24751e-06,-3.97276,-1.01106,-0.0583548,0.242677,0.0117167,
2,0,0,1,0,63973.6,0.0105866,0.0102364,-0.106804,33,-0.00872584,10,-1.09328e-06,-3.97141,-1.13948,-0.0517779,0.216538,0.0102364,
2,0,0,1,0,63975.1,0.00908843,0.00874533,-0.107166,33,-0.0089004,10,-9.372e-07,-3.96994,-1.48747,-0.0396646,0.165919,0.008745335,
2,0,0,1,0,63976.6,0.00759024,0.00725127,-0.1074,33,-0.00907536,10,-7.78787e-07,-3.969,-2.55417,-0.0230995,0.0971282,0.00725127,
2,0,0,1,0,63978.1,0.00609203,0.00575501,-0.107919,33,-0.00925066,10,-6.21073e-07,-3.9669,-0.506356,-0.116519,0.490508,0.00575501,
2,0,0,1,0,63979.6,0.00459384,0.00426724,-0.1086,33,-0.00942648,10,-4.63422e-07,-3.96417,-0.675841,-0.0872987,0.37,0.00426724,
2,0,0,1,0,63981.1,0.00309563,0.00274241,-0.109067,33,-0.0096035,10,-2.99106e-07,-3.96231,-0.421122,-0.140102,0.597042,0.00274241,
2,0,0,1,0,63982.6,0.00159744,0.00118568,-0.110395,33,-0.00978366,10,-1.30893e-07,-3.95705, , , ,0.00118568,
2,0,0,1,0,63984,0.000199235,-0.000212656,-0.110675,33,-0.00995122,10,2.35358e-08,-3.95595, , , ,-0.000212656,