File: Figure_codes/Fig_3-5/rawdata_trumpetplot_data/after 10th/20221101_1-115_003_TrumpetPlot_ParaChange_from10_every3_03_CV_C01_18.csv
mode,ox/red,error,control changes,counter inc.,time/s,control/V,Ewe/V,<I>/mA,cycle number,(Q-Qo)/C,I Range,P/W,log(|I|),Tafel slope mV/dec,alpha_eff,dI/d(E-IR),E-IR/V,
2,0,0,1,0,36402.4,2.44065e-05,-0.000268062,-0.105754,19,0.0000000E+000,10,2.83487e-08,-3.9757, , , ,-0.000268062,
2,1,0,0,0,36402.6,0.00129787,0.000937621,0.130551,19,2.13651e-05,10,1.22407e-07,-3.88422, , , ,0.000937621,
2,1,0,0,0,36402.9,0.00279606,0.00244976,0.171887,19,7.23717e-05,10,4.21081e-07,-3.76476,0.0149006,3.95958,21.5142,0.00244976,
2,1,0,1,0,36403.2,0.00429469,0.00396558,0.183934,19,0.000129738,10,7.29405e-07,-3.73534,0.058078,1.01587,7.21293,0.00396558,
2,1,0,1,0,36403.5,0.00579255,0.00545628,0.192298,19,0.000190417,10,1.04923e-06,-3.71602,0.0664943,0.887294,6.66422,0.00545628,
2,1,0,1,0,36403.8,0.00729041,0.00697118,0.203011,19,0.000253853,10,1.41523e-06,-3.69248,0.0876876,0.672843,5.29268,0.00697118,
2,1,0,1,0,36404.1,0.00878882,0.00845484,0.211022,19,0.000319961,10,1.78416e-06,-3.67567,0.0900314,0.655327,5.35602,0.00845484,
2,1,0,1,0,36404.4,0.010287,0.00995214,0.21737,19,0.000388265,10,2.1633e-06,-3.6628,0.121942,0.483838,4.08769,0.00995214,
2,1,0,1,0,36404.7,0.0117852,0.0114865,0.222812,19,0.000458394,10,2.55934e-06,-3.65206,0.129674,0.454988,3.96383,0.0114865,
2,1,0,1,0,36405,0.0132836,0.0129152,0.229952,19,0.000530273,10,2.96987e-06,-3.63836,0.121672,0.484909,4.36843,0.0129152,
2,1,0,1,0,36405.3,0.0147815,0.0144481,0.235979,19,0.000604106,10,3.40946e-06,-3.62713,0.141343,0.417424,3.83503,0.0144481,
2,1,0,1,0,36405.6,0.0162793,0.0159346,0.241818,19,0.000679898,10,3.85328e-06,-3.61651,0.179013,0.329585,3.09011,0.0159346,
2,1,0,0,0,36405.9,0.017778,0.0174757,0.246436,19,0.000757081,10,4.30665e-06,-3.60829,0.161967,0.364271,3.5069,0.0174757,
2,1,0,0,0,36406.2,0.0192761,0.0189423,0.252148,19,0.000835594,10,4.77624e-06,-3.59835,0.15444,0.382026,3.7533,0.0189423,
2,1,0,1,0,36406.5,0.0207747,0.0204643,0.258073,19,0.000915982,10,5.28128e-06,-3.58826,0.162093,0.363989,3.64233,0.0204643,
2,1,0,1,0,36406.8,0.0222725,0.0219729,0.262048,19,0.000998001,10,5.75796e-06,-3.58162,0.152068,0.387984,3.96828,0.0219729,
2,1,0,1,0,36407.1,0.0237704,0.0234816,0.268017,19,0.00108165,10,6.29345e-06,-3.57184,0.188333,0.313276,3.27274,0.0234816,
2,1,0,1,0,36407.4,0.0252689,0.0249643,0.272066,19,0.00116658,10,6.79194e-06,-3.56533,0.198163,0.297734,3.17417,0.0249643,
2,1,0,1,0,36407.7,0.0267671,0.0264213,0.277411,19,0.0012531,10,7.32955e-06,-3.55688,0.148338,0.397741,4.30212,0.0264213,
2,1,0,1,0,36408,0.0282657,0.027951,0.283713,19,0.00134144,10,7.93008e-06,-3.54712,0.187416,0.314808,3.47676,0.027951,
2,1,0,1,0,36408.3,0.0297635,0.0294487,0.288707,19,0.00143141,10,8.50206e-06,-3.53954,0.216555,0.272448,3.0657,0.0294487,
2,1,0,1,0,36408.6,0.0312613,0.0309193,0.291206,19,0.00152262,10,9.00389e-06,-3.5358,0.190182,0.310229,3.55808,0.0309193,
2,1,0,0,0,36408.9,0.0327599,0.0324253,0.299248,19,0.00161539,10,9.70321e-06,-3.52397,0.198938,0.296575,3.45877,0.0324253,
2,1,0,0,0,36409.2,0.034258,0.0339014,0.304258,19,0.00170999,10,1.03148e-05,-3.51676,0.180171,0.327466,3.89452,0.0339014,
2,1,0,1,0,36409.5,0.0357567,0.0353927,0.3088,19,0.00180614,10,1.09293e-05,-3.51032,0.244238,0.241567,2.91424,0.0353927,
2,1,0,1,0,36409.8,0.0372545,0.0369194,0.314645,19,0.00190388,10,1.16165e-05,-3.50218,0.211168,0.279398,3.43664,0.0369194,
2,1,0,1,0,36410.1,0.0387524,0.0384059,0.318646,19,0.00200289,10,1.22379e-05,-3.49669,0.191659,0.307839,3.86411,0.0384059,
2,1,0,1,0,36410.4,0.0402508,0.0399054,0.324534,19,0.00210373,10,1.29507e-05,-3.48874,0.226984,0.25993,3.30046,0.03990544,
2,1,0,1,0,36410.7,0.041749,0.0414271,0.3315,19,0.00220635,10,1.37331e-05,-3.47952,0.262892,0.224427,2.89081,0.0414271,
2,1,0,1,0,36411,0.0432472,0.0428937,0.336364,19,0.00231034,10,1.44279e-05,-3.47319,0.226412,0.260587,3.41037,0.0428937,
2,1,0,1,0,36411.3,0.0447456,0.0443921,0.34072,19,0.00241557,10,1.51253e-05,-3.4676,0.222371,0.265322,3.52728,0.0443921,
2,1,0,1,0,36411.6,0.0462435,0.0459476,0.345776,19,0.00252259,10,1.58876e-05,-3.46121,0.224386,0.262939,3.542,0.0459476,
2,1,0,1,0,36411.9,0.0477413,0.0473988,0.349176,19,0.00263109,10,1.65505e-05,-3.45696,0.236791,0.249165,3.41211,0.0473988,
2,1,0,0,0,36412.2,0.0492399,0.0489242,0.354234,19,0.00274096,10,1.73306e-05,-3.45071,0.263733,0.223711,3.10875,0.0489242,
2,1,0,0,0,36412.5,0.0507381,0.0504332,0.35824,19,0.00285213,10,1.80672e-05,-3.44583,0.269674,0.218783,3.07448,0.0504332,
2,1,0,1,0,36412.8,0.0522367,0.0519202,0.363899,19,0.00296481,10,1.88937e-05,-3.43902,0.241946,0.243856,3.46243,0.0519202,
2,1,0,1,0,36413.1,0.0537345,0.0534151,0.371241,19,0.00307907,10,1.98299e-05,-3.43034,0.291524,0.202385,2.91257,0.0534151,
2,1,0,1,0,36413.4,0.0552323,0.0549139,0.373742,19,0.00319472,10,2.05236e-05,-3.42743,0.315902,0.186767,2.71898,0.0549139,
2,1,0,1,0,36413.7,0.0567309,0.0564032,0.376399,19,0.00331161,10,2.12301e-05,-3.42435,0.317052,0.186089,2.74842,0.0564032,
2,1,0,1,0,36414,0.0582291,0.057892,0.382349,19,0.00342961,10,2.21349e-05,-3.41754,0.321001,0.1838,2.74246,0.057892,
2,1,0,1,0,36414.3,0.0597277,0.0594215,0.386878,19,0.00354909,10,2.29889e-05,-3.41243,0.301105,0.195945,2.95166,0.0594215,
2,1,0,1,0,36414.6,0.0612255,0.0608962,0.389911,19,0.00366988,10,2.37441e-05,-3.40903,0.372033,0.158588,2.40653,0.0608962,
2,1,0,1,0,36414.9,0.0627233,0.06241,0.394218,19,0.00379176,10,2.46032e-05,-3.40426,0.383352,0.153906,2.37407,0.06241,
2,1,0,0,0,36415.2,0.0642218,0.0639247,0.397607,19,0.00391451,10,2.54169e-05,-3.40055,0.303918,0.194131,3.02454,0.0639247,
2,1,0,0,0,36415.5,0.06572,0.0653753,0.401646,19,0.00403868,10,2.62577e-05,-3.39616,0.369719,0.159581,2.49915,0.0653753,
2,1,0,1,0,36415.8,0.0672187,0.0669503,0.405877,19,0.00416434,10,2.71736e-05,-3.39161,0.388103,0.152022,2.40588,0.0669503,
2,1,0,1,0,36416.1,0.0687165,0.0683901,0.409855,19,0.00429069,10,2.803e-05,-3.38737,0.444585,0.132708,2.119,0.0683901,
2,1,0,1,0,36416.4,0.0702144,0.0698894,0.411859,19,0.0044178,10,2.87846e-05,-3.38525,0.368238,0.160222,2.57796,0.0698894,
2,1,0,1,0,36416.7,0.0717128,0.0713974,0.416101,19,0.00454616,10,2.97085e-05,-3.3808,0.309671,0.190525,3.08597,0.0713974,
2,1,0,1,0,36417,0.073211,0.0729212,0.418331,19,0.00467561,10,3.05052e-05,-3.37848,0.445695,0.132377,2.16411,0.0729212,
2,1,0,1,0,36417.3,0.0747092,0.0743676,0.42171,19,0.00480594,10,3.13616e-05,-3.37499,0.566917,0.104072,1.71599,0.0743676,
2,1,0,1,0,36417.6,0.0762076,0.0758947,0.423737,19,0.00493692,10,3.21594e-05,-3.3729,0.478413,0.123324,2.0467,0.0758947,
2,1,0,1,0,36417.9,0.0777054,0.0773546,0.427918,19,0.00506886,10,3.31014e-05,-3.36864,0.370781,0.159124,2.6584,0.0773546,
2,1,0,1,0,36418.2,0.0792033,0.0788633,0.432081,19,0.00520186,10,3.40753e-05,-3.36444,0.379368,0.155522,2.6142,0.0788633,
2,1,0,0,0,36418.5,0.0807019,0.0803578,0.434098,19,0.00533605,10,3.48832e-05,-3.36241,0.619953,0.0951684,1.60986,0.08035782,
2,1,0,0,0,36418.8,0.0822001,0.0818721,0.436447,19,0.00547081,10,3.57328e-05,-3.36007,0.533237,0.110645,1.89003,0.0818721,
2,1,0,1,0,36419.1,0.0836986,0.0833283,0.439413,19,0.00560631,10,3.66156e-05,-3.35713,0.375283,0.157215,2.70546,0.0833283,
2,1,0,1,0,36419.4,0.0851965,0.0848506,0.44442,19,0.0057431,10,3.77094e-05,-3.35221,0.397015,0.148609,2.57587,0.0848506,
2,1,0,1,0,36419.7,0.0866944,0.0863965,0.447542,19,0.00588108,10,3.86661e-05,-3.34917,0.451387,0.130708,2.28273,0.0863965,
2,1,0,1,0,36420,0.0881929,0.0878443,0.452143,19,0.00602022,10,3.97182e-05,-3.34472,0.358488,0.16458,2.90948,0.0878443,
2,1,0,1,0,36420.3,0.0896911,0.0893543,0.457634,19,0.00616041,10,4.08916e-05,-3.33948,0.288277,0.204664,3.65539,0.0893543,
2,1,0,1,0,36420.6,0.0911897,0.0908193,0.463059,19,0.00630249,10,4.20547e-05,-3.33436,0.252948,0.23325,4.20439,0.0908193,
2,1,0,1,0,36420.9,0.0926875,0.0923628,0.469122,19,0.00644642,10,4.33294e-05,-3.32871,0.256645,0.229889,4.20049,0.0923628,
2,1,0,1,0,36421.2,0.0941853,0.0938947,0.474349,19,0.00659211,10,4.45389e-05,-3.3239,0.292926,0.201416,3.73471,0.0938947,
2,1,0,0,0,36421.5,0.0956838,0.0953308,0.480652,19,0.0067395,10,4.58209e-05,-3.31817,0.245736,0.240095,4.52083,0.09533076,
2,1,0,0,0,36421.8,0.097182,0.0968312,0.487743,19,0.00688901,10,4.72287e-05,-3.31181,0.191214,0.308555,5.88979,0.0968312,
2,1,0,1,0,36422.1,0.0986807,0.0983566,0.497194,19,0.007041,10,4.89023e-05,-3.30347,0.205111,0.28765,5.57802,0.0983566,
2,1,0,1,0,36422.4,0.100179,0.099865,0.505129,19,0.00719555,10,5.04447e-05,-3.2966,0.210454,0.280346,5.52472,0.099865,
2,1,0,1,0,36422.7,0.101676,0.101313,0.511959,19,0.00735225,10,5.18683e-05,-3.29076,0.210205,0.280678,5.62926,0.101313,
2,1,0,1,0,36423,0.103175,0.102876,0.522124,19,0.00751154,10,5.37138e-05,-3.28223,0.206427,0.285815,5.81681,0.102876,
2,1,0,1,0,36423.3,0.104673,0.104379,0.532328,19,0.00767362,10,5.5564e-05,-3.27382,0.223375,0.26413,5.45847,0.1043792,
2,1,0,1,0,36423.6,0.106171,0.105857,0.540233,19,0.00783828,10,5.71877e-05,-3.26742,0.26826,0.219936,4.61113,0.105857,
2,1,0,1,0,36423.9,0.10767,0.107355,0.544801,19,0.00800515,10,5.8487e-05,-3.26376,0.249718,0.236266,5.03435,0.1073549,
2,1,0,1,0,36424.2,0.109167,0.108827,0.553368,19,0.0081739,10,6.02216e-05,-3.25699,0.267441,0.220609,4.77633,0.1088275,
2,1,0,1,0,36424.5,0.110665,0.110361,0.56191,19,0.00834523,10,6.20127e-05,-3.25033,0.275965,0.213795,4.68186,0.110361,
2,1,0,0,0,36424.8,0.112164,0.111805,0.567225,19,0.00851878,10,6.34187e-05,-3.24624,0.373215,0.158086,3.49923,0.111805,
2,1,0,0,0,36425.1,0.113662,0.113347,0.574658,19,0.00869411,10,6.51358e-05,-3.24059,0.328249,0.179742,4.02187,0.113347,
2,1,0,1,0,36425.4,0.115161,0.11482,0.57936,19,0.0088708,10,6.65223e-05,-3.23705,0.363607,0.162263,3.66581,0.11482,
2,1,0,1,0,36425.7,0.116658,0.116326,0.584853,19,0.00904954,10,6.80335e-05,-3.23295,0.337777,0.174671,3.97516,0.116326,
2,1,0,1,0,36426,0.118156,0.117814,0.590377,19,0.00922999,10,6.95546e-05,-3.22887,0.42064,0.140263,3.22656,0.117814,
2,1,0,1,0,36426.3,0.119655,0.119347,0.593589,19,0.00941181,10,7.0843e-05,-3.22651,0.605892,0.0973771,2.26163,0.119347,
2,1,0,1,0,36426.6,0.121153,0.120792,0.597317,19,0.00959458,10,7.21512e-05,-3.2238,0.473652,0.124564,2.9125,0.120792,
2,1,0,1,0,36426.9,0.122652,0.122342,0.60153,19,0.00977889,10,7.35924e-05,-3.22074,0.392405,0.150355,3.53362,0.122342,
2,1,0,1,0,36427.2,0.124149,0.123805,0.607589,19,0.00996464,10,7.52224e-05,-3.21639,0.472459,0.124879,2.95819,0.123805,
2,1,0,1,0,36427.5,0.125647,0.125322,0.611624,19,0.0101517,10,7.66498e-05,-3.21352,0.587711,0.100389,2.38996,0.125322,
2,1,0,0,0,36427.8,0.127146,0.126831,0.611798,19,0.0103397,10,7.75951e-05,-3.21339,0.819316,0.0720113,1.72435,0.126831,
2,1,0,0,0,36428.1,0.128644,0.128334,0.617287,19,0.0105285,10,7.92188e-05,-3.20951,0.786918,0.0749761,1.80352,0.128334,
2,1,0,1,0,36428.4,0.130143,0.129807,0.620255,19,0.0107183,10,8.05135e-05,-3.20743,1.5305,0.0385496,0.929392,0.129807,
2,1,0,1,0,36428.7,0.131641,0.131308,0.619538,19,0.0109086,10,8.13505e-05,-3.20793,-1.75646,-0.0335902,-0.808502,0.131308,
2,1,0,1,0,36429,0.133138,0.132853,0.618083,19,0.0110986,10,8.21143e-05,-3.20895,-0.687956,-0.0857614,-2.06419,0.132853,
2,1,0,1,0,36429.3,0.134637,0.134325,0.613403,19,0.0112874,10,8.23954e-05,-3.21225,-0.377745,-0.15619,-3.7325,0.134325,
2,1,0,1,0,36429.6,0.136135,0.135815,0.606956,19,0.0114747,10,8.24337e-05,-3.21684,-0.259645,-0.227233,-5.36051,0.135815,
2,1,0,1,0,36429.9,0.137633,0.137326,0.598603,19,0.0116596,10,8.22037e-05,-3.22286,-0.175718,-0.335765,-7.78596,0.137326,
2,1,0,1,0,36430.2,0.139132,0.138833,0.585925,19,0.0118412,10,8.13458e-05,-3.23216,-0.140801,-0.419031,-9.51211,0.138833,
2,1,0,1,0,36430.5,0.140629,0.140275,0.56766,19,0.012018,10,7.96286e-05,-3.24591,-0.11592,-0.50897,-11.2629,0.140275,
2,1,0,1,0,36430.8,0.142127,0.141806,0.55123,19,0.0121899,10,7.81676e-05,-3.25867,-0.103099,-0.572268,-12.2324,0.1418059,
2,1,0,0,0,36431.1,0.143626,0.143301,0.532016,19,0.0123564,10,7.62387e-05,-3.27408,-0.0879688,-0.670693,-13.8563,0.143301,
2,1,0,0,0,36431.4,0.145124,0.144806,0.508459,19,0.0125165,10,7.36281e-05,-3.29374,-0.0752577,-0.783973,-15.5548,0.144806,
2,1,0,1,0,36431.7,0.146623,0.146293,0.484882,19,0.0126696,10,7.09349e-05,-3.31436,-0.0751636,-0.784955,-14.9005,0.146293,
2,1,0,1,0,36432,0.14812,0.1478,0.464196,19,0.012816,10,6.8608e-05,-3.3333,-0.0762976,-0.773288,-14.0105,0.1478,
2,1,0,1,0,36432.3,0.149618,0.149316,0.44411,19,0.012956,10,6.63126e-05,-3.35251,-0.0800349,-0.737178,-12.7813,0.149316,
2,1,0,1,0,36432.6,0.151117,0.150808,0.425665,19,0.0130901,10,6.41937e-05,-3.37093,-0.0792032,-0.74492,-12.3772,0.150808,
2,1,0,1,0,36432.9,0.152615,0.152266,0.405559,19,0.0132187,10,6.17529e-05,-3.39195,-0.0901004,-0.654825,-10.4501,0.1522661,
2,1,0,1,0,36433.2,0.154114,0.153738,0.392779,19,0.0133425,10,6.03853e-05,-3.40585,-0.0991123,-0.595285,-9.1742,0.153738,
2,1,0,1,0,36433.5,0.155612,0.155293,0.38206,19,0.0134624,10,5.93311e-05,-3.41787,-0.110717,-0.532892,-7.92545,0.155293,
2,1,0,1,0,36433.8,0.157109,0.156821,0.369349,19,0.013579,10,5.79217e-05,-3.43256,-0.116801,-0.505134,-7.29615,0.156821,
2,1,0,0,0,36434.1,0.158608,0.158334,0.359849,19,0.0136923,10,5.69762e-05,-3.44388,-0.146135,-0.403736,-5.70472,0.158334,
2,1,0,0,0,36434.4,0.160106,0.159789,0.352446,19,0.0138029,10,5.63169e-05,-3.45291,-0.163328,-0.361235,-4.98959,0.159789,
2,1,0,1,0,36434.7,0.161605,0.161298,0.345993,19,0.0139116,10,5.5808e-05,-3.46093,-0.19047,-0.30976,-4.18451,0.161298,
2,1,0,1,0,36435,0.163102,0.162802,0.340933,19,0.0140184,10,5.55047e-05,-3.46733,-0.228084,-0.258676,-3.43802,0.162802,
2,1,0,1,0,36435.3,0.1646,0.164292,0.335944,19,0.0141237,10,5.51928e-05,-3.47373,-0.269247,-0.219129,-2.86931,0.164292,
2,1,0,1,0,36435.6,0.166099,0.165782,0.331186,19,0.0142274,10,5.49047e-05,-3.47993,-0.286206,-0.206145,-2.66782,0.165782,
2,1,0,1,0,36435.9,0.167597,0.167253,0.327595,19,0.0143299,10,5.47912e-05,-3.48466,-0.373614,-0.157917,-2.01468,0.167253,
2,1,0,1,0,36436.2,0.169095,0.168788,0.324361,19,0.0144317,10,5.47484e-05,-3.48897,-0.365294,-0.161514,-2.04646,0.1687883,
2,1,0,1,0,36436.5,0.170594,0.170294,0.322017,19,0.0145324,10,5.48376e-05,-3.49212,-0.312837,-0.188597,-2.37393,0.170294,
2,1,0,1,0,36436.8,0.172091,0.171818,0.317596,19,0.0146321,10,5.45686e-05,-3.49813,-0.461831,-0.127752,-1.59068,0.171818,
2,1,0,1,0,36437.1,0.173589,0.173285,0.315169,19,0.014731,10,5.46141e-05,-3.50146,-0.531428,-0.111022,-1.36693,0.173285,
2,1,0,0,0,36437.4,0.175088,0.174789,0.313776,19,0.0148293,10,5.48447e-05,-3.50338,-0.487662,-0.120986,-1.47933,0.174789,
2,1,0,0,0,36437.7,0.176586,0.176263,0.311026,19,0.014927,10,5.48224e-05,-3.5072,-0.466924,-0.126359,-1.53346,0.176263,
2,1,0,1,0,36438,0.178085,0.177795,0.309727,19,0.0150241,10,5.50678e-05,-3.50902,-0.464645,-0.126979,-1.53523,0.177795,
2,1,0,1,0,36438.3,0.179582,0.179231,0.308329,19,0.0151206,10,5.52622e-05,-3.51099,-0.824338,-0.0715726,-0.862283,0.179231,
2,1,0,1,0,36438.6,0.18108,0.180779,0.305809,19,0.0152166,10,5.52839e-05,-3.51455,-0.908761,-0.0649236,-0.777365,0.180779,
2,1,0,1,0,36438.9,0.182579,0.182294,0.304564,19,0.0153123,10,5.55201e-05,-3.51632,-0.544579,-0.108341,-1.28926,0.182294,
2,1,0,1,0,36439.2,0.184077,0.183786,0.303597,19,0.0154075,10,5.57967e-05,-3.5177,-0.692535,-0.0851943,-1.01081,0.183786,
2,1,0,1,0,36439.5,0.185576,0.185286,0.302835,19,0.0155022,10,5.6111e-05,-3.51879,-1.02205,-0.0577272,-0.679928,0.185286,
2,1,0,1,0,36439.8,0.187074,0.186773,0.301326,19,0.0155967,10,5.62796e-05,-3.52096,-0.995565,-0.0592629,-0.696423,0.186773,
2,1,0,1,0,36440.1,0.188571,0.188237,0.300515,19,0.0156908,10,5.6568e-05,-3.52213,-1.02822,-0.0573809,-0.672708,0.188237,
2,1,0,0,0,36440.4,0.19007,0.189758,0.298993,19,0.0157847,10,5.67363e-05,-3.52434,-0.839906,-0.0702459,-0.821847,0.189758,
2,1,0,0,0,36440.7,0.191568,0.191232,0.298454,19,0.0158781,10,5.70739e-05,-3.52512,-1.57527,-0.037454,-0.436523,0.1912318,
2,1,0,1,0,36441,0.193067,0.192708,0.297421,19,0.0159715,10,5.73155e-05,-3.52663,-4.89467,-0.0120539,-0.139863,0.192708,
2,1,0,1,0,36441.3,0.194564,0.194241,0.296937,19,0.0160647,10,5.76775e-05,-3.52734,-0.849663,-0.0694393,-0.803692,0.194241,
2,1,0,1,0,36441.6,0.196062,0.195733,0.296187,19,0.0161575,10,5.79735e-05,-3.52843,-1.16056,-0.0508374,-0.588247,0.195733,
2,1,0,1,0,36441.9,0.197561,0.197245,0.29423,19,0.0162499,10,5.80355e-05,-3.53131,-4.36082,-0.0135296,-0.156154,0.197245,
2,1,0,1,0,36442.2,0.199059,0.198751,0.294516,19,0.0163422,10,5.85353e-05,-3.53089,-1.05053,-0.0561622,-0.644659,0.198751,
2,1,0,1,0,36442.5,0.200557,0.200224,0.294705,19,0.0164343,10,5.9007e-05,-3.53061,-1.10718,-0.0532883,-0.61013,0.200224,
2,1,0,1,0,36442.8,0.202056,0.201741,0.292979,19,0.0165263,10,5.91058e-05,-3.53316,-1.95009,-0.030255,-0.346372,0.201741,
2,1,0,1,0,36443.1,0.203553,0.203259,0.291093,19,0.0166178,10,5.91672e-05,-3.53597,-1.38373,-0.0426384,-0.486471,0.203259,
2,1,0,1,0,36443.4,0.205051,0.204707,0.291647,19,0.0167091,10,5.97022e-05,-3.53514,2.94444,0.0200378,0.229907,0.204707,
2,1,0,0,0,36443.7,0.20655,0.206221,0.29085,19,0.0168004,10,5.99792e-05,-3.53633,-3.44645,-0.0171191,-0.194887,0.206221,
2,1,0,0,0,36444,0.208048,0.207744,0.290951,19,0.0168918,10,6.04435e-05,-3.53618,-1.10978,-0.0531635,-0.602462,0.207744,
2,1,0,1,0,36444.3,0.209547,0.209235,0.291084,19,0.0169827,10,6.09049e-05,-3.53598,-1.32535,-0.0445164,-0.504583,0.209235,
2,1,0,1,0,36444.6,0.211044,0.21073,0.290287,19,0.0170732,10,6.11721e-05,-3.53717,-6.16902,-0.00956392,-0.107844,0.21073,
2,1,0,1,0,36444.9,0.212542,0.212208,0.28859,19,0.0171638,10,6.12411e-05,-3.53972,-2.0854,-0.028292,-0.318976,0.212208,
2,1,0,1,0,36445.2,0.214041,0.2137,0.28826,19,0.0172542,10,6.16011e-05,-3.54022,-1.73413,-0.0340229,-0.382989,0.2137,
2,1,0,1,0,36445.5,0.215539,0.215227,0.287462,19,0.0173443,10,6.18695e-05,-3.54142,-2.29388,-0.0257206,-0.288537,0.215227,
2,1,0,1,0,36445.8,0.217038,0.216771,0.286888,19,0.0174342,10,6.2189e-05,-3.54229,-3.51022,-0.0168081,-0.189007,0.216771,
2,1,0,1,0,36446.1,0.218535,0.21825,0.285969,19,0.017524,10,6.24128e-05,-3.54368,2.75675,0.021402,0.239501,0.21825,
2,1,0,1,0,36446.4,0.220033,0.219711,0.286386,19,0.0176138,10,6.2922e-05,-3.54305,-2.34076,-0.0252055,-0.281515,0.219711,
2,1,0,0,0,36446.7,0.221532,0.221283,0.285538,19,0.0177034,10,6.31845e-05,-3.54434,-1.59308,-0.0370351,-0.413574,0.221283,
2,1,0,0,0,36447,0.22303,0.222745,0.28346,19,0.0177927,10,6.31393e-05,-3.54751,-1.71421,-0.0344181,-0.382743,0.222745,
2,1,0,1,0,36447.3,0.224529,0.224206,0.285256,19,0.017882,10,6.39559e-05,-3.54477,-2.03679,-0.0289671,-0.321731,0.224206,
2,1,0,1,0,36447.6,0.226026,0.225706,0.285065,19,0.0179711,10,6.43408e-05,-3.54506,-1.51092,-0.0390491,-0.433071,0.225706,
2,1,0,1,0,36447.9,0.227524,0.227242,0.28415,19,0.0180602,10,6.45708e-05,-3.54645,-1.87894,-0.0314007,-0.346736,0.227242,
2,1,0,1,0,36448.2,0.229023,0.228712,0.283239,19,0.0181491,10,6.47802e-05,-3.54785,-1.26065,-0.0468012,-0.518067,0.228712,
2,1,0,1,0,36448.5,0.230521,0.230168,0.282676,19,0.0182377,10,6.50628e-05,-3.54871,-178.709,-0.000330145,-0.0036586,0.230168,
2,1,0,1,0,36448.8,0.232019,0.231696,0.281709,19,0.0183264,10,6.52707e-05,-3.5502,-1.24443,-0.0474112,-0.522739,0.231696,
2,1,0,1,0,36449.1,0.233518,0.233176,0.282593,19,0.018415,10,6.5894e-05,-3.54884,-0.737353,-0.080016,-0.879927,0.233176,
2,1,0,1,0,36449.4,0.235015,0.234708,0.281781,19,0.0185034,10,6.61364e-05,-3.55009,-3.45503,-0.0170765,-0.187392,0.234708,
2,1,0,1,0,36449.7,0.236513,0.236221,0.281895,19,0.0185914,10,6.65895e-05,-3.54991,-2.84079,-0.0207689,-0.227763,0.236221,
2,1,0,0,0,36450,0.238012,0.237688,0.280934,19,0.0186796,10,6.67747e-05,-3.5514,13.727,0.00429811,0.0470178,0.237688,
2,1,0,0,0,36450.3,0.23951,0.239208,0.281155,19,0.0187677,10,6.72544e-05,-3.55105,-7.73284,-0.0076298,-0.0835729,0.239208,
2,1,0,1,0,36450.6,0.241009,0.240713,0.280865,19,0.0188557,10,6.76078e-05,-3.5515,-1.65874,-0.0355691,-0.389819,0.240713,
2,1,0,1,0,36450.9,0.242506,0.242175,0.279126,19,0.0189434,10,6.75972e-05,-3.5542,-1.39295,-0.042356,-0.462812,0.242175,
2,1,0,1,0,36451.2,0.244004,0.243693,0.279739,19,0.0190311,10,6.81704e-05,-3.55325,36.6903,0.00160806,0.0174986,0.243693,
2,1,0,1,0,36451.5,0.245503,0.245166,0.280146,19,0.0191188,10,6.86824e-05,-3.55262,-9.12473,-0.00646595,-0.0704425,0.245166,
2,1,0,1,0,36451.8,0.247001,0.246709,0.279746,19,0.0192063,10,6.90158e-05,-3.55324,-1.15392,-0.05113,-0.555733,0.246709,
2,1,0,1,0,36452.1,0.2485,0.248228,0.277985,19,0.0192937,10,6.90036e-05,-3.55598,26.2412,0.00224837,0.0243905,0.248228,
2,1,0,1,0,36452.4,0.249997,0.249666,0.278524,19,0.0193811,10,6.95379e-05,-3.55514,-1.7567,-0.0335856,-0.364274,0.249666,
2,1,0,1,0,36452.7,0.251495,0.251194,0.277405,19,0.0194683,10,6.96826e-05,-3.55689,-1.46701,-0.0402178,-0.436591,0.251194,
2,1,0,0,0,36453,0.252994,0.252635,0.27733,19,0.0195553,10,7.00631e-05,-3.557,-0.879955,-0.0670489,-0.726391,0.252635,
2,1,0,0,0,36453.3,0.254492,0.254187,0.276259,19,0.0196423,10,7.02215e-05,-3.55868,-1.91655,-0.0307845,-0.333314,0.254187,
2,1,0,1,0,36453.6,0.255991,0.255651,0.276308,19,0.019729,10,7.06384e-05,-3.55861,-2.55829,-0.0230622,-0.249599,0.255651,
2,1,0,1,0,36453.9,0.257488,0.257166,0.277069,19,0.0198157,10,7.12527e-05,-3.55741,-1.92324,-0.0306774,-0.330845,0.257166,
2,1,0,1,0,36454.2,0.258986,0.258668,0.276687,19,0.0199024,10,7.15701e-05,-3.55801,7.11916,0.0082875,0.0891435,0.258668,
2,1,0,1,0,36454.5,0.260485,0.260188,0.276323,19,0.019989,10,7.18958e-05,-3.55858,-1.98186,-0.02977,-0.320987,0.260188,
2,1,0,1,0,36454.8,0.261983,0.261698,0.275435,19,0.0200753,10,7.20807e-05,-3.55998,-2.38031,-0.0247867,-0.266382,0.261698,
2,1,0,1,0,36455.1,0.263481,0.263167,0.275009,19,0.0201616,10,7.23733e-05,-3.56065,-3.11691,-0.018929,-0.202884,0.263167,
2,1,0,1,0,36455.4,0.26498,0.264712,0.274757,19,0.0202478,10,7.27315e-05,-3.56105,-5.08039,-0.0116133,-0.124615,0.264712,
2,1,0,1,0,36455.7,0.266477,0.266167,0.274607,19,0.0203338,10,7.30915e-05,-3.56129,-1.89416,-0.0311484,-0.333804,0.2661674,
2,1,0,0,0,36456,0.267976,0.267673,0.272667,19,0.0204196,10,7.29856e-05,-3.56437,-5.7681,-0.0102287,-0.109465,0.267673,
2,1,0,0,0,36456.3,0.269474,0.269142,0.273438,19,0.0205053,10,7.35937e-05,-3.56314,9.48211,0.00622224,0.0662892,0.269142,
2,1,0,0,0,36456.6,0.270972,0.270652,0.274357,19,0.020591,10,7.42553e-05,-3.56168,-11.6179,-0.00507837,-0.0541111,0.270652,
2,1,0,1,0,36456.9,0.27247,0.272133,0.272896,19,0.0206768,10,7.4264e-05,-3.564,-1.53832,-0.0383536,-0.407895,0.272133,
2,1,0,1,0,36457.2,0.273968,0.273625,0.271037,19,0.0207622,10,7.41626e-05,-3.56697,-1.49381,-0.0394964,-0.419686,0.273625,
2,1,0,1,0,36457.5,0.275466,0.275119,0.272457,19,0.0208475,10,7.49582e-05,-3.5647,-2.49669,-0.0236313,-0.250987,0.275119,
2,1,0,1,0,36457.8,0.276965,0.276642,0.271847,19,0.0209328,10,7.52043e-05,-3.56568,-1.19065,-0.0495528,-0.526131,0.2766422,
2,1,0,1,0,36458,0.278463,0.27817,0.271286,19,0.0210179,10,7.54637e-05,-3.56657,-1.07589,-0.0548385,-0.57944,0.27817,
2,1,0,1,0,36458.3,0.279962,0.279682,0.271267,19,0.021103,10,7.58684e-05,-3.5666,-2.69033,-0.0219304,-0.232175,0.279682,
2,1,0,1,0,36458.6,0.281459,0.281147,0.270782,19,0.0211878,10,7.61294e-05,-3.56738,-3.47699,-0.0169687,-0.179401,0.281147,
2,1,0,1,0,36458.9,0.282957,0.282649,0.270549,19,0.0212726,10,7.64705e-05,-3.56775,6.69295,0.00881524,0.0926702,0.282649,
2,1,0,0,0,36459.2,0.284456,0.284141,0.270451,19,0.0213574,10,7.68464e-05,-3.56791,-1.36727,-0.0431517,-0.45435,0.284141,
2,1,0,0,0,36459.5,0.285954,0.285637,0.268762,19,0.0214421,10,7.67684e-05,-3.57063,-1.11985,-0.0526858,-0.554972,0.2856366,
2,1,0,0,0,36459.8,0.287452,0.287151,0.268449,19,0.0215264,10,7.70853e-05,-3.57114,-1.53827,-0.0383547,-0.402799,0.287151,
2,1,0,1,0,36460.1,0.28895,0.288647,0.268007,19,0.0216107,10,7.73594e-05,-3.57185,-3.59561,-0.0164089,-0.171891,0.288647,
2,1,0,1,0,36460.4,0.290448,0.290113,0.268872,19,0.0216951,10,7.80034e-05,-3.57045,-11.6631,-0.00505867,-0.0529724,0.290113,
2,1,0,1,0,36460.7,0.291947,0.291586,0.267632,19,0.0217793,10,7.80375e-05,-3.57246,-1.35595,-0.043512,-0.4548,0.291586,
2,1,0,1,0,36461,0.293445,0.293112,0.26624,19,0.0218632,10,7.80384e-05,-3.57473,-1.26121,-0.0467803,-0.489004,0.293112,
2,1,0,1,0,36461.3,0.294943,0.294643,0.267762,19,0.021947,10,7.88942e-05,-3.57225,-12.5738,-0.00469228,-0.048916,0.294643,
2,1,0,1,0,36461.6,0.296442,0.296164,0.268601,19,0.0220308,10,7.955e-05,-3.57089,-1.80408,-0.0327037,-0.339571,0.296164,
2,1,0,1,0,36461.9,0.297939,0.297652,0.267089,19,0.0221147,10,7.94996e-05,-3.57334,-1.91114,-0.0308717,-0.321049,0.297652,
2,1,0,1,0,36462.2,0.299437,0.299118,0.265632,19,0.0221982,10,7.94553e-05,-3.57572,-0.00268367,-21.9848,-115.685,0.299118,
2,1,0,1,0,36462.4,0.299737,0.299437,0.122174,19,0.0222373,10,3.65836e-05,-3.91302,0.000954601,61.8059,211.274,0.299437,
2,1,0,1,0,36462.7,0.29824,0.297885,0.0237651,19,0.0222495,10,7.07927e-06,-4.62406,0.00165116,35.7325,73.5703,0.297885,
2,1,0,0,0,36463,0.296741,0.296462,0.00398617,19,0.0222497,10,1.18175e-06,-5.39944,0.00843468,6.99493,11.1585,0.2964623,
2,1,0,0,0,36463.3,0.295243,0.294914,-0.00768177,19,0.0222453,10,-2.26546e-06,-5.11454,-0.0146757,-4.02026,7.26477,0.294914,
2,0,0,1,0,36463.6,0.293744,0.293404,-0.017697,19,0.0222378,10,-5.19237e-06,-4.7521,-0.00477474,-12.3567,6.01123,0.293404,
2,0,0,1,0,36463.9,0.292246,0.291922,-0.0248286,19,0.0222279,10,-7.24801e-06,-4.60505,-0.0100782,-5.85421,5.06833,0.291922,
2,0,0,1,0,36464.2,0.290749,0.290413,-0.0312241,19,0.0222158,10,-9.06787e-06,-4.50551,-0.0169012,-3.49089,4.09221,0.290413,
2,0,0,1,0,36464.5,0.28925,0.288949,-0.0379787,19,0.0222016,10,-1.09739e-05,-4.42046,-0.0208661,-2.82756,4.05117,0.288949,
2,0,0,1,0,36464.8,0.287752,0.287446,-0.0427033,19,0.0221858,10,-1.22749e-05,-4.36954,-0.0284473,-2.07401,3.41882,0.287446,
2,0,0,1,0,36465.1,0.286253,0.285906,-0.0469892,19,0.0221686,10,-1.34345e-05,-4.328,-0.0347017,-1.7002,3.14977,0.285906,
2,0,0,1,0,36465.4,0.284755,0.284454,-0.0522095,19,0.0221499,10,-1.48512e-05,-4.28225,-0.0325629,-1.81188,3.65234,0.2844542,
2,0,0,1,0,36465.7,0.283257,0.282943,-0.0572399,19,0.0221297,10,-1.61956e-05,-4.2423,-0.0483018,-1.22149,2.67759,0.282943,
2,0,0,0,0,36466,0.281759,0.281441,-0.0603178,19,0.0221082,10,-1.69759e-05,-4.21955,-0.0542028,-1.0885,2.55406,0.281441,
2,0,0,0,0,36466.3,0.280261,0.27995,-0.0636334,19,0.0220857,10,-1.78142e-05,-4.19631,-0.0543569,-1.08542,2.70759,0.27995,
2,0,0,0,0,36466.6,0.278763,0.278406,-0.0680788,19,0.0220619,10,-1.89535e-05,-4.16699,-0.0573448,-1.02886,2.6928,0.2784057,
2,0,0,1,0,36466.9,0.277264,0.276932,-0.0721613,19,0.022037,10,-1.99837e-05,-4.1417,-0.0760527,-0.775778,2.16599,0.276932,
2,0,0,1,0,36467.2,0.275766,0.275409,-0.0744417,19,0.0220112,10,-2.05019e-05,-4.12818,-0.106068,-0.556246,1.60485,0.275409,
2,0,0,1,0,36467.5,0.274269,0.273957,-0.078276,19,0.0219843,10,-2.14442e-05,-4.10637,-0.0942656,-0.625891,1.90262,0.273957,
2,0,0,1,0,36467.8,0.27277,0.272471,-0.0807342,19,0.0219566,10,-2.19977e-05,-4.09294,-0.0803435,-0.734347,2.35352,0.272471,
2,0,0,1,0,36468.1,0.271272,0.270941,-0.084013,19,0.0219279,10,-2.27626e-05,-4.07565,-0.0860812,-0.685399,2.2519,0.270941,
2,0,0,1,0,36468.4,0.269773,0.269423,-0.0877275,19,0.0218981,10,-2.36358e-05,-4.05686,-0.101119,-0.583471,1.97044,0.269423,
2,0,0,1,0,36468.7,0.268275,0.267952,-0.0908852,19,0.0218675,10,-2.43529e-05,-4.04151,-0.0974468,-0.605458,2.1254,0.267952,
2,0,0,1,0,36469,0.266778,0.266478,-0.0932983,19,0.0218362,10,-2.48619e-05,-4.03013,-0.109684,-0.53791,1.94754,0.266478,
2,0,0,0,0,36469.3,0.265279,0.264936,-0.0948859,19,0.021804,10,-2.51387e-05,-4.0228,-0.114117,-0.517012,1.92241,0.264936,
2,0,0,0,0,36469.6,0.263781,0.263488,-0.0978143,19,0.0217711,10,-2.57729e-05,-4.0096,-0.124291,-0.474693,1.82461,0.263488,
2,0,0,1,0,36469.9,0.262282,0.261969,-0.100808,19,0.0217373,10,-2.64085e-05,-3.99651,-0.128248,-0.460047,1.80859,0.261969,
2,0,0,1,0,36470.2,0.260784,0.260493,-0.103073,19,0.0217029,10,-2.68499e-05,-3.98685,-0.132738,-0.444486,1.79314,0.260493,
2,0,0,1,0,36470.5,0.259286,0.258954,-0.105339,19,0.0216678,10,-2.72779e-05,-3.97741,-0.115329,-0.511579,2.10173,0.258954,
2,0,0,1,0,36470.8,0.257788,0.257467,-0.10911,19,0.0216319,10,-2.80921e-05,-3.96214,-0.158028,-0.373351,1.56977,0.257467,
2,0,0,1,0,36471.1,0.25629,0.255976,-0.110458,19,0.0215953,10,-2.82747e-05,-3.9568,-0.187925,-0.313955,1.35095,0.255976,
2,0,0,1,0,36471.4,0.254791,0.254501,-0.111027,19,0.021558,10,-2.82564e-05,-3.95457,-0.182432,-0.323408,1.41976,0.254501,
2,0,0,1,0,36471.7,0.253293,0.253002,-0.114303,19,0.0215202,10,-2.89188e-05,-3.94194,-0.178321,-0.330864,1.48363,0.253002,
2,0,0,1,0,36472,0.251795,0.251459,-0.116848,19,0.0214816,10,-2.93825e-05,-3.93238,-0.194168,-0.30386,1.39384,0.251459,
2,0,0,0,0,36472.3,0.250297,0.250009,-0.118934,19,0.0214423,10,-2.97347e-05,-3.92469,-0.242796,-0.243003,1.12745,0.250009,
2,0,0,0,0,36472.6,0.248799,0.248513,-0.120424,19,0.0214025,10,-2.9927e-05,-3.91929,-0.223776,-0.263657,1.24992,0.248513,
2,0,0,0,0,36472.9,0.247301,0.246985,-0.123037,19,0.0213621,10,-3.03882e-05,-3.90996,-0.200158,-0.294767,1.42648,0.246985,
2,0,0,1,0,36473.2,0.245802,0.24552,-0.125273,19,0.0213211,10,-3.0757e-05,-3.90214,-0.182494,-0.323299,1.58038,0.24552,
2,0,0,1,0,36473.5,0.244304,0.244018,-0.127273,19,0.0212793,10,-3.1057e-05,-3.89526,-0.219357,-0.268968,1.33886,0.244018,
2,0,0,1,0,36473.8,0.242806,0.242476,-0.129447,19,0.0212369,10,-3.13877e-05,-3.88791,-0.29975,-0.196831,0.999593,0.242476,
2,0,0,1,0,36474.1,0.241308,0.24105,-0.130177,19,0.0211943,10,-3.13791e-05,-3.88547,-0.219787,-0.268442,1.37803,0.24105,
2,0,0,1,0,36474.4,0.23981,0.239498,-0.133158,19,0.0211509,10,-3.18912e-05,-3.87563,-0.212605,-0.277511,1.43237,0.239498,
2,0,0,1,0,36474.7,0.238311,0.237985,-0.1348,19,0.0211069,10,-3.20803e-05,-3.87031,-0.241901,-0.243902,1.28827,0.237985,
2,0,0,1,0,36475,0.236813,0.236484,-0.136062,19,0.0210624,10,-3.21764e-05,-3.86626,-0.292254,-0.201879,1.07603,0.236484,
2,0,0,1,0,36475.3,0.235316,0.235005,-0.137462,19,0.0210174,10,-3.23043e-05,-3.86182,-0.297263,-0.198478,1.06785,0.235005,
2,0,0,0,0,36475.6,0.233817,0.233486,-0.140589,19,0.0209719,10,-3.28255e-05,-3.85205,-0.302248,-0.195204,1.06166,0.2334858,
2,0,0,0,0,36475.9,0.232319,0.231993,-0.142788,19,0.0209257,10,-3.31259e-05,-3.84531,-0.266435,-0.221442,1.223,0.231993,
2,0,0,1,0,36476.2,0.23082,0.230499,-0.143981,19,0.020879,10,-3.31875e-05,-3.8417,-0.506015,-0.116597,0.65139,0.2304994,
2,0,0,1,0,36476.5,0.229322,0.22893,-0.144496,19,0.0208319,10,-3.30796e-05,-3.84014,-0.335369,-0.175925,0.997841,0.22893,
2,0,0,1,0,36476.8,0.227825,0.227476,-0.146335,19,0.0207843,10,-3.32876e-05,-3.83465,-0.325541,-0.181237,1.04198,0.227476,
2,0,0,1,0,36477.1,0.226326,0.226003,-0.148582,19,0.0207361,10,-3.35799e-05,-3.82803,-0.343229,-0.171897,0.99972,0.226003,
2,0,0,1,0,36477.4,0.224828,0.224508,-0.150664,19,0.0206873,10,-3.38253e-05,-3.82199,-0.387538,-0.152243,0.895056,0.224508,
2,0,0,1,0,36477.7,0.223329,0.222972,-0.151918,19,0.020638,10,-3.38736e-05,-3.81839,-0.345936,-0.170552,1.01532,0.222972,
2,0,0,1,0,36478,0.221831,0.221482,-0.153986,19,0.0205885,10,-3.41052e-05,-3.81252,-0.330708,-0.178405,1.06946,0.221482,
2,0,0,1,0,36478.3,0.220333,0.22,-0.156146,19,0.0205382,10,-3.43521e-05,-3.80647,-0.238349,-0.247536,1.50183,0.22,
2,0,0,0,0,36478.6,0.218835,0.218527,-0.157715,19,0.0204871,10,-3.44648e-05,-3.80213,-0.339788,-0.173638,1.06521,0.218527,
2,0,0,0,0,36478.9,0.217337,0.217018,-0.15982,19,0.0204357,10,-3.46838e-05,-3.79637,-0.397565,-0.148404,0.923878,0.2170177,
2,0,0,0,0,36479.2,0.215839,0.215497,-0.160184,19,0.020384,10,-3.45192e-05,-3.79538,-0.322493,-0.18295,1.1478,0.215497,
2,0,0,1,0,36479.5,0.21434,0.214007,-0.16307,19,0.0203316,10,-3.48981e-05,-3.78763,-0.221847,-0.265949,1.68335,0.214007,
2,0,0,1,0,36479.8,0.212842,0.212501,-0.164057,19,0.0202786,10,-3.48622e-05,-3.785,-0.287417,-0.205277,1.31579,0.212501,
2,0,0,1,0,36480.1,0.211344,0.210992,-0.16613,19,0.020225,10,-3.50522e-05,-3.77955,-0.346119,-0.170462,1.10744,0.210992,
2,0,0,1,0,36480.4,0.209846,0.209535,-0.165407,19,0.0201711,10,-3.46587e-05,-3.78145,-0.354982,-0.166206,1.08812,0.209535,
2,0,0,1,0,36480.7,0.208348,0.208045,-0.16988,19,0.0201166,10,-3.53426e-05,-3.76986,-0.29484,-0.200109,1.32549,0.208045,
2,0,0,1,0,36481,0.206849,0.206497,-0.173967,19,0.0200614,10,-3.59237e-05,-3.75953,-0.427573,-0.137988,0.925407,0.206497,
2,0,0,1,0,36481.3,0.205351,0.205013,-0.17308,19,0.0200055,10,-3.54837e-05,-3.76175,-0.423245,-0.139399,0.938707,0.205013,
2,0,0,1,0,36481.6,0.203854,0.20351,-0.174881,19,0.0199493,10,-3.55899e-05,-3.75726,-0.369653,-0.159609,1.09604,0.20351,
2,0,0,0,0,36481.9,0.202355,0.202066,-0.176382,19,0.0198928,10,-3.56408e-05,-3.75355,-0.297877,-0.198068,1.37143,0.202066,
2,0,0,0,0,36482.2,0.200857,0.200542,-0.178517,19,0.0198355,10,-3.58001e-05,-3.74832,-0.257723,-0.228928,1.60199,0.200542,
2,0,0,1,0,36482.5,0.199358,0.199085,-0.180673,19,0.0197776,10,-3.59692e-05,-3.74311,-0.334423,-0.176423,1.24072,0.199085,
2,0,0,1,0,36482.8,0.19786,0.197532,-0.183909,19,0.019719,10,-3.63279e-05,-3.7354,-0.34082,-0.173112,1.23412,0.197532,
2,0,0,1,0,36483.1,0.196363,0.196095,-0.183955,19,0.01966,10,-3.60726e-05,-3.73529,-0.306815,-0.192298,1.38274,0.196095,
2,0,0,1,0,36483.4,0.194864,0.194571,-0.186985,19,0.0196004,10,-3.63819e-05,-3.72819,-0.258283,-0.228432,1.65692,0.194571,
2,0,0,1,0,36483.7,0.193366,0.193071,-0.188706,19,0.0195399,10,-3.64337e-05,-3.72421,-0.269974,-0.218539,1.60454,0.193071,
2,0,0,1,0,36484,0.191867,0.191522,-0.19043,19,0.0194789,10,-3.64716e-05,-3.72026,-0.37223,-0.158504,1.18492,0.191522,
2,0,0,1,0,36484.3,0.190369,0.190034,-0.191713,19,0.0194175,10,-3.64321e-05,-3.71735,-0.340072,-0.173493,1.30865,0.190034,
2,0,0,1,0,36484.6,0.188871,0.188547,-0.194691,19,0.0193553,10,-3.67084e-05,-3.71065,-0.256155,-0.23033,1.7492,0.188547,
2,0,0,0,0,36484.9,0.187373,0.187032,-0.197369,19,0.0192925,10,-3.69143e-05,-3.70472,-0.273941,-0.215374,1.66,0.187032,
2,0,0,0,0,36485.2,0.185875,0.185507,-0.199326,19,0.0192289,10,-3.69763e-05,-3.70044,-0.304193,-0.193956,1.50765,0.185507,
2,0,0,0,0,36485.5,0.184377,0.18406,-0.200644,19,0.0191647,10,-3.69306e-05,-3.69757,-0.262311,-0.224924,1.77153,0.18406,
2,0,0,1,0,36485.8,0.182878,0.182564,-0.205407,19,0.0190998,10,-3.74998e-05,-3.68739,-0.255066,-0.231312,1.84302,0.182564,
2,0,0,1,0,36486.1,0.181381,0.181088,-0.207161,19,0.0190339,10,-3.75144e-05,-3.68369,-0.227451,-0.259396,2.09359,0.181088,
2,0,0,1,0,36486.4,0.179882,0.179552,-0.208955,19,0.0189672,10,-3.75184e-05,-3.67995,-0.36125,-0.163322,1.33692,0.179552,
2,0,0,1,0,36486.7,0.178384,0.178054,-0.212144,19,0.0188999,10,-3.77731e-05,-3.67337,-0.257427,-0.229192,1.90247,0.178054,
2,0,0,1,0,36487,0.176886,0.176536,-0.215847,19,0.0188319,10,-3.81046e-05,-3.66585,-0.288877,-0.204239,1.71689,0.176536,
2,0,0,1,0,36487.3,0.175387,0.175045,-0.21875,19,0.0187628,10,-3.82912e-05,-3.66005,-0.26657,-0.22133,1.88431,0.175045,
2,0,0,1,0,36487.6,0.173889,0.17354,-0.221501,19,0.0186928,10,-3.84393e-05,-3.65462,-0.259788,-0.227108,1.95264,0.17354,
2,0,0,1,0,36487.9,0.172392,0.172063,-0.223937,19,0.0186219,10,-3.85313e-05,-3.64988,-0.278743,-0.211665,1.84868,0.1720634,
2,0,0,0,0,36488.2,0.170893,0.170559,-0.227652,19,0.0185504,10,-3.88281e-05,-3.64273,-0.208518,-0.282949,2.51457,0.170559,
2,0,0,0,0,36488.5,0.169395,0.169069,-0.231291,19,0.0184776,10,-3.91042e-05,-3.63584,-0.188907,-0.312322,2.81059,0.169069,
2,0,0,1,0,36488.8,0.167896,0.167562,-0.23545,19,0.0184035,10,-3.94525e-05,-3.6281,-0.221159,-0.266777,2.44721,0.167562,
2,0,0,1,0,36489.1,0.166398,0.166063,-0.237796,19,0.0183283,10,-3.94892e-05,-3.62379,-0.224456,-0.262858,2.4605,0.166063,
2,0,0,1,0,36489.4,0.164901,0.164577,-0.241613,19,0.0182522,10,-3.97638e-05,-3.61688,-0.183745,-0.321098,3.04918,0.164577,
2,0,0,1,0,36489.7,0.163402,0.163054,-0.246791,19,0.0181747,10,-4.02402e-05,-3.60767,-0.171647,-0.34373,3.31042,0.163054,
2,0,0,1,0,36490,0.161904,0.161589,-0.252067,19,0.0180958,10,-4.07313e-05,-3.59848,-0.189836,-0.310794,3.06001,0.161589,
2,0,0,1,0,36490.3,0.160405,0.160061,-0.257426,19,0.0180154,10,-4.12037e-05,-3.58935,-0.15703,-0.375725,3.7679,0.160061,
2,0,0,1,0,36490.6,0.158907,0.1586,-0.261454,19,0.0179334,10,-4.14665e-05,-3.58261,-0.155661,-0.379028,3.88765,0.1586,
2,0,0,1,0,36490.9,0.157409,0.157067,-0.268695,19,0.0178498,10,-4.22031e-05,-3.57074,-0.140126,-0.42105,4.43288,0.157067,
2,0,0,0,0,36491.2,0.155911,0.155547,-0.274653,19,0.0177642,10,-4.27215e-05,-3.56122,-0.13877,-0.425164,4.57493,0.155547,
2,0,0,0,0,36491.5,0.154413,0.154057,-0.283375,19,0.0176763,10,-4.3656e-05,-3.54764,-0.145113,-0.406579,4.47956,0.154057,
2,0,0,0,0,36491.8,0.152915,0.152571,-0.290748,19,0.0175863,10,-4.43599e-05,-3.53648,-0.125179,-0.471326,5.34404,0.1525715,
2,0,0,1,0,36492.1,0.151416,0.151107,-0.299208,19,0.017494,10,-4.52124e-05,-3.52403,-0.108179,-0.545395,6.38981,0.151107,
2,0,0,1,0,36492.4,0.149919,0.149604,-0.308774,19,0.0173988,10,-4.61937e-05,-3.51036,-0.100697,-0.585916,7.0753,0.149604,
2,0,0,1,0,36492.7,0.14842,0.148076,-0.319121,19,0.0173003,10,-4.72543e-05,-3.49604,-0.0925694,-0.63736,7.96058,0.148076,
2,0,0,1,0,36493,0.146922,0.146589,-0.331818,19,0.0171984,10,-4.86408e-05,-3.4791,-0.0880509,-0.670067,8.68999,0.146589,
2,0,0,1,0,36493.3,0.145424,0.145092,-0.344857,19,0.0170928,10,-5.00361e-05,-3.46236,-0.0840245,-0.702176,9.47565,0.145092,
2,0,0,1,0,36493.6,0.143925,0.143588,-0.359352,19,0.016983,10,-5.15988e-05,-3.44448,-0.0732067,-0.805938,11.321,0.143588,
2,0,0,1,0,36493.9,0.142427,0.142107,-0.376731,19,0.0168682,10,-5.35363e-05,-3.42397,-0.0776401,-0.759917,11.1687,0.142107,
2,0,0,1,0,36494.2,0.14093,0.140601,-0.39277,19,0.0167485,10,-5.52239e-05,-3.40586,-0.0805156,-0.732777,11.2855,0.140601,
2,0,0,0,0,36494.5,0.139431,0.139114,-0.408712,19,0.0166238,10,-5.68575e-05,-3.38858,-0.0794185,-0.7429,11.9545,0.139114,
2,0,0,0,0,36494.8,0.137933,0.137581,-0.430294,19,0.0164935,10,-5.92001e-05,-3.36623,-0.0779862,-0.756544,12.6782,0.137581,
2,0,0,1,0,36495.1,0.136434,0.136065,-0.449481,19,0.0163573,10,-6.11585e-05,-3.34729,-0.0803925,-0.7339,12.8749,0.136065,
2,0,0,1,0,36495.4,0.134936,0.134602,-0.469359,19,0.0162152,10,-6.31767e-05,-3.32849,-0.0823876,-0.716127,13.105,0.134602,
2,0,0,1,0,36495.7,0.133439,0.133128,-0.48897,19,0.0160671,10,-6.50958e-05,-3.31072,-0.0862995,-0.683665,13.0211,0.133128,
2,0,0,1,0,36496,0.13194,0.131622,-0.508268,19,0.0159132,10,-6.68994e-05,-3.29391,-0.0898573,-0.656597,13.0225,0.131622,
2,0,0,1,0,36496.3,0.130442,0.130142,-0.526435,19,0.0157538,10,-6.85112e-05,-3.27866,-0.102824,-0.573797,11.7793,0.130142,
2,0,0,1,0,36496.6,0.128943,0.128625,-0.546351,19,0.0155886,10,-7.02743e-05,-3.26253,-0.118753,-0.496828,10.4951,0.128625,
2,0,0,1,0,36496.9,0.127445,0.127138,-0.559715,19,0.0154186,10,-7.11608e-05,-3.25203,-0.128574,-0.458881,9.9947,0.127138,
2,0,0,1,0,36497.2,0.125947,0.125606,-0.574035,19,0.0152446,10,-7.2102e-05,-3.24106,-0.146453,-0.40286,8.99582,0.125606,
2,0,0,0,0,36497.5,0.124449,0.124089,-0.586408,19,0.0150661,10,-7.27667e-05,-3.2318,-0.165187,-0.357171,8.14076,0.124089,
2,0,0,0,0,36497.8,0.122951,0.122595,-0.598446,19,0.014884,10,-7.33665e-05,-3.22297,-0.20503,-0.287763,6.69001,0.122595,
2,0,0,0,0,36498.1,0.121453,0.121151,-0.606557,19,0.014699,10,-7.34848e-05,-3.21713,-0.27415,-0.215211,5.075,0.121151,
2,0,0,1,0,36498.4,0.119954,0.119657,-0.612318,19,0.0145121,10,-7.32683e-05,-3.21302,-0.363771,-0.16219,3.87318,0.119657,
2,0,0,1,0,36498.7,0.118456,0.118144,-0.618124,19,0.0143232,10,-7.3028e-05,-3.20892,-0.35738,-0.16509,3.9684,0.118144,
2,0,0,1,0,36499,0.116958,0.116636,-0.621812,19,0.014133,10,-7.25259e-05,-3.20634,-0.867582,-0.0680051,1.64659,0.116636,
2,0,0,1,0,36499.3,0.11546,0.115143,-0.622594,19,0.013942,10,-7.16875e-05,-3.2058,-3.73687,-0.0157886,0.383254,0.115143,
2,0,0,1,0,36499.6,0.113962,0.113654,-0.621077,19,0.0137509,10,-7.05876e-05,-3.20685,-6.3705,-0.00926144,0.225109,0.113654,
2,0,0,1,0,36499.9,0.112463,0.112126,-0.623448,19,0.0135599,10,-6.99049e-05,-3.2052,2.72246,0.0216715,-0.526747,0.112126,
2,0,0,1,0,36500.2,0.110965,0.11067,-0.622325,19,0.0133688,10,-6.88725e-05,-3.20598,2.32244,0.0254043,-0.615753,0.11067,
2,0,0,1,0,36500.5,0.109468,0.109161,-0.62107,19,0.0131781,10,-6.77966e-05,-3.20686,0.94016,0.0627552,-1.51806,0.109161,
2,0,0,0,0,36500.8,0.107969,0.107665,-0.618286,19,0.0129879,10,-6.6568e-05,-3.20881,1.04205,0.0566191,-1.36946,0.1076654,
2,0,0,0,0,36501.1,0.106471,0.106166,-0.616224,19,0.0127987,10,-6.54221e-05,-3.21026,1.02014,0.057835,-1.39274,0.106166,
2,0,0,1,0,36501.4,0.104972,0.104677,-0.614493,19,0.0126099,10,-6.43233e-05,-3.21148,1.16564,0.0506158,-1.2136,0.104677,
2,0,0,1,0,36501.7,0.103474,0.103157,-0.61243,19,0.0124217,10,-6.31762e-05,-3.21294,0.886091,0.0665846,-1.5873,0.103157,
2,0,0,1,0,36502,0.101977,0.10163,-0.609525,19,0.0122345,10,-6.1946e-05,-3.21501,0.537481,0.109771,-2.6027,0.10163,
2,0,0,1,0,36502.3,0.100478,0.100149,-0.604461,19,0.0120485,10,-6.05363e-05,-3.21863,0.637774,0.0925093,-2.18398,0.100149,
2,0,0,1,0,36502.6,0.0989798,0.098671,-0.601671,19,0.0118633,10,-5.93675e-05,-3.22064,0.702932,0.0839341,-1.96722,0.098671,
2,0,0,1,0,36502.9,0.0974812,0.0971414,-0.598944,19,0.0116789,10,-5.81823e-05,-3.22261,0.578957,0.101907,-2.37991,0.0971414,
2,0,0,1,0,36503.2,0.0959834,0.0957029,-0.595667,19,0.0114955,10,-5.7007e-05,-3.225,0.483401,0.122052,-2.8333,0.0957029,
2,0,0,1,0,36503.5,0.0944855,0.0941889,-0.590269,19,0.0113136,10,-5.55968e-05,-3.22895,0.62012,0.0951428,-2.19811,0.0941889,
2,0,0,0,0,36503.8,0.0929871,0.0926575,-0.586746,19,0.0111325,10,-5.43664e-05,-3.23155,0.859833,0.068618,-1.57166,0.0926575,
2,0,0,0,0,36504.1,0.0914889,0.0911369,-0.586213,19,0.0109522,10,-5.34256e-05,-3.23194,0.585139,0.100831,-2.29788,0.09113685,
2,0,0,0,0,36504.4,0.0899907,0.0896618,-0.580004,19,0.0107731,10,-5.20042e-05,-3.23657,0.433573,0.136079,-3.07526,0.0896618,
2,0,0,1,0,36504.7,0.0884923,0.0881717,-0.574156,19,0.0105953,10,-5.06243e-05,-3.24097,0.486813,0.121196,-2.72275,0.0881717,
2,0,0,1,0,36505,0.0869946,0.0866506,-0.571571,19,0.0104191,10,-4.95269e-05,-3.24293,0.465421,0.126767,-2.82955,0.08665058,
2,0,0,1,0,36505.3,0.0854961,0.0851699,-0.568323,19,0.0102437,10,-4.84041e-05,-3.2454,0.568925,0.103704,-2.30083,0.0851699,
2,0,0,1,0,36505.6,0.083998,0.0836769,-0.563292,19,0.0100695,10,-4.71346e-05,-3.24927,0.358664,0.164499,-3.61918,0.08367689,
2,0,0,1,0,36505.9,0.0824998,0.0821743,-0.560349,19,0.00989664,10,-4.60463e-05,-3.25154,0.467989,0.126071,-2.75909,0.0821743,
2,0,0,1,0,36506.2,0.0810014,0.0806798,-0.55504,19,0.00972531,10,-4.47805e-05,-3.25568,0.481365,0.122568,-2.66275,0.0806798,
2,0,0,1,0,36506.5,0.0795035,0.0791724,-0.552344,19,0.00955491,10,-4.37304e-05,-3.25779,0.61896,0.0953212,-2.05466,0.0791724,
2,0,0,1,0,36506.8,0.0780056,0.0776501,-0.549178,19,0.0093856,10,-4.26437e-05,-3.26029,0.494957,0.119202,-2.54897,0.0776501,
2,0,0,0,0,36507.1,0.076507,0.0761788,-0.545086,19,0.00921737,10,-4.1524e-05,-3.26353,0.479445,0.123059,-2.61725,0.0761788,
2,0,0,0,0,36507.4,0.0750088,0.0746868,-0.540021,19,0.0090507,10,-4.03325e-05,-3.26759,0.522925,0.112827,-2.38077,0.0746868,
2,0,0,1,0,36507.7,0.0735103,0.0731839,-0.538429,19,0.00888479,10,-3.94043e-05,-3.26887,0.521736,0.113084,-2.36577,0.0731839,
2,0,0,1,0,36508,0.0720124,0.0716849,-0.533328,19,0.00871992,10,-3.82316e-05,-3.27301,0.571127,0.103305,-2.15627,0.0716849,
2,0,0,1,0,36508.3,0.0705146,0.0701897,-0.52973,19,0.00855623,10,-3.71816e-05,-3.27595,0.516706,0.114185,-2.36377,0.07018967,
2,0,0,1,0,36508.6,0.069016,0.0687008,-0.524609,19,0.00839364,10,-3.60411e-05,-3.28016,0.507912,0.116162,-2.39031,0.0687008,
2,0,0,1,0,36508.9,0.0675179,0.067212,-0.524085,19,0.00823205,10,-3.52248e-05,-3.2806,0.719958,0.0819493,-1.67513,0.067212,
2,0,0,1,0,36509.2,0.0660192,0.0656846,-0.52303,19,0.00807118,10,-3.4355e-05,-3.28147,0.546515,0.107957,-2.18927,0.0656846,
2,0,0,1,0,36509.5,0.0645214,0.06425,-0.518258,19,0.0079112,10,-3.32981e-05,-3.28545,0.487937,0.120917,-2.43812,0.06425,
2,0,0,1,0,36509.8,0.0630235,0.0627086,-0.512988,19,0.00775254,10,-3.21688e-05,-3.28989,0.504256,0.117004,-2.34697,0.0627086,
2,0,0,0,0,36510.1,0.0615251,0.0611995,-0.510048,19,0.00759503,10,-3.12147e-05,-3.29239,0.66329,0.0889506,-1.77515,0.0611995,
2,0,0,0,0,36510.4,0.0600269,0.0596969,-0.507039,19,0.00743837,10,-3.02686e-05,-3.29496,0.666355,0.0885414,-1.75474,0.0596969,
2,0,0,0,0,36510.7,0.0585287,0.0582282,-0.502797,19,0.00728249,10,-2.9277e-05,-3.29861,0.417305,0.141383,-2.77565,0.0582282,
2,0,0,1,0,36511,0.0570303,0.056649,-0.501205,19,0.00712763,10,-2.83927e-05,-3.29998,0.531928,0.110917,-2.16812,0.056649,
2,0,0,1,0,36511.3,0.0555325,0.0552155,-0.49717,19,0.00697417,10,-2.74515e-05,-3.3035,0.584125,0.101006,-1.96448,0.0552155,
2,0,0,1,0,36511.6,0.0540342,0.0537257,-0.494483,19,0.00682144,10,-2.65665e-05,-3.30585,0.488473,0.120785,-2.32814,0.0537257,
2,0,0,1,0,36511.9,0.052536,0.0521765,-0.492281,19,0.00666947,10,-2.56855e-05,-3.30779,0.489885,0.120437,-2.30525,0.0521765,
2,0,0,1,0,36512.2,0.0510378,0.0507449,-0.488462,19,0.00651869,10,-2.47869e-05,-3.31117,0.482759,0.122214,-2.32418,0.0507449,
2,0,0,1,0,36512.5,0.0495394,0.0492039,-0.482543,19,0.00636929,10,-2.3743e-05,-3.31646,0.503622,0.117151,-2.21416,0.0492039,
2,0,0,1,0,36512.8,0.0480415,0.0476899,-0.480038,19,0.00622066,10,-2.2893e-05,-3.31872,0.791694,0.0745238,-1.39542,0.0476899,
2,0,0,1,0,36513.1,0.0465436,0.0461951,-0.476485,19,0.00607305,10,-2.20113e-05,-3.32195,0.506697,0.11644,-2.16922,0.0461951,
2,0,0,0,0,36513.4,0.045045,0.0447101,-0.472889,19,0.00592632,10,-2.11429e-05,-3.32524,0.448557,0.131533,-2.42966,0.0447101,
2,0,0,0,0,36513.7,0.0435468,0.0432362,-0.466885,19,0.00578094,10,-2.01863e-05,-3.33079,0.441776,0.133552,-2.44499,0.0432362,
2,0,0,1,0,36514,0.0420483,0.041744,-0.466486,19,0.00563657,10,-1.9473e-05,-3.33116,0.530965,0.111119,-2.02172,0.041744,
2,0,0,1,0,36514.3,0.0405504,0.0402161,-0.464541,19,0.00549302,10,-1.8682e-05,-3.33298,0.423281,0.139387,-2.51659,0.0402161,
2,0,0,1,0,36514.6,0.0390526,0.0387456,-0.459409,19,0.00535041,10,-1.78001e-05,-3.3378,0.39034,0.15115,-2.70427,0.0387456,
2,0,0,1,0,36514.9,0.0375541,0.0372629,-0.455439,19,0.00520897,10,-1.6971e-05,-3.34157,0.427835,0.137904,-2.45812,0.0372629,
2,0,0,1,0,36515.2,0.0360559,0.0357243,-0.451497,19,0.00506887,10,-1.61294e-05,-3.34535,0.413819,0.142575,-2.51903,0.0357243,
2,0,0,1,0,36515.5,0.0345572,0.0342265,-0.448458,19,0.00492945,10,-1.53491e-05,-3.34828,0.517694,0.113967,-1.99558,0.0342265,
2,0,0,1,0,36515.8,0.0330594,0.032754,-0.446544,19,0.00479113,10,-1.46261e-05,-3.35014,0.378123,0.156034,-2.71368,0.032754,
2,0,0,1,0,36516.1,0.0315615,0.031223,-0.442593,19,0.00465375,10,-1.38191e-05,-3.354,0.441555,0.133619,-2.3094,0.031223,
2,0,0,0,0,36516.3,0.0300631,0.0297489,-0.439768,19,0.00451761,10,-1.30826e-05,-3.35678,0.51422,0.114737,-1.96862,0.0297489,
2,0,0,0,0,36516.6,0.0285649,0.0282335,-0.437211,19,0.00438222,10,-1.2344e-05,-3.35931,0.521024,0.113239,-1.92523,0.0282335,
2,0,0,0,0,36516.9,0.0270667,0.0267129,-0.434655,19,0.00424758,10,-1.16109e-05,-3.36186,0.540844,0.109089,-1.84768,0.0267129,
2,0,0,1,0,36517.2,0.0255683,0.0252696,-0.430886,19,0.00411381,10,-1.08883e-05,-3.36564,0.481054,0.122647,-2.06563,0.0252696,
2,0,0,1,0,36517.5,0.0240706,0.023762,-0.427461,19,0.00398115,10,-1.01573e-05,-3.3691,0.569434,0.103612,-1.736,0.023762,
2,0,0,1,0,36517.8,0.0225722,0.0222613,-0.425478,19,0.00384898,10,-9.47171e-06,-3.37112,0.904755,0.065211,-1.08181,0.0222613,
2,0,0,1,0,36518.1,0.021074,0.020746,-0.422712,19,0.00371761,10,-8.76958e-06,-3.37396,0.565106,0.104405,-1.72803,0.020746,
2,0,0,1,0,36518.4,0.0195758,0.0192137,-0.421584,19,0.00358688,10,-8.1002e-06,-3.37512,0.617437,0.0955564,-1.56734,0.0192137,
2,0,0,1,0,36518.7,0.0180774,0.017748,-0.418571,19,0.0034568,10,-7.42882e-06,-3.37823,0.884576,0.0666986,-1.09123,0.017748,
2,0,0,1,0,36519,0.0165795,0.0162416,-0.417419,19,0.00332744,10,-6.77954e-06,-3.37943,0.862559,0.0684011,-1.11538,0.0162416,
2,0,0,1,0,36519.3,0.0150817,0.0147828,-0.417795,19,0.00319837,10,-6.1762e-06,-3.37904,1.04344,0.0565437,-0.918689,0.0147828,
2,0,0,0,0,36519.6,0.013583,0.0132617,-0.414365,19,0.00306952,10,-5.49517e-06,-3.38262,1.01049,0.0583878,-0.94429,0.0132617,
2,0,0,0,0,36519.9,0.0120848,0.0117569,-0.413293,19,0.00294131,10,-4.85907e-06,-3.38374,1.53029,0.0385549,-0.624047,0.0117569,
2,0,0,1,0,36520.2,0.0105863,0.0102763,-0.412812,19,0.00281346,10,-4.24218e-06,-3.38425,3.46803,0.0170126,-0.274142,0.0102763,
2,0,0,1,0,36520.5,0.00908846,0.00873588,-0.412841,19,0.00268565,10,-3.60653e-06,-3.38422,3.2678,0.018055,-0.291045,0.00873588,
2,0,0,1,0,36520.8,0.0075906,0.007278,-0.412486,19,0.00255789,10,-3.00207e-06,-3.38459,2.51874,0.0234245,-0.377057,0.007278,
2,0,0,1,0,36521.1,0.00609207,0.00580489,-0.413541,19,0.00243014,10,-2.40056e-06,-3.38348,2.34549,0.0251547,-0.404966,0.00580489,
2,0,0,1,0,36521.4,0.00459389,0.00426093,-0.413558,19,0.00230259,10,-1.76215e-06,-3.38346,-4.39192,-0.0134337,0.216609,0.00426093,
2,0,0,1,0,36521.7,0.00309525,0.00278982,-0.413925,19,0.00217473,10,-1.15478e-06,-3.38308,-0.707216,-0.0834257,1.3488,0.00278982,
2,0,0,1,0,36522,0.00159739,0.00125771,-0.417774,19,0.002045,10,-5.2544e-07,-3.37906, , , ,0.00125771,
2,0,0,0,0,36522.3,0.000199195,-0.00018026,-0.415878,19,0.00192474,10,7.49662e-08,-3.38103, , , ,-0.00018026,