File: Figure_codes/Fig_3-5/rawdata_trumpetplot_data/after 10th/20221101_1-115_003_TrumpetPlot_ParaChange_from10_every3_13_CV_C01_33.csv
mode,ox/red,error,control changes,counter inc.,time/s,control/V,Ewe/V,<I>/mA,cycle number,(Q-Qo)/C,I Range,P/W,log(|I|),Tafel slope mV/dec,alpha_eff,dI/d(E-IR),E-IR/V,
2,1,0,1,0,66212.2,2.44065e-05,-0.000344411,14.7176,34,0.0000000E+000,10,-5.0689e-06,-1.83216, , , ,-0.000344411,
2,1,0,1,0,66212.2,0.00266289,0.00231615,15.9211,34,4.80119e-05,10,3.68756e-05,-1.79803, , , ,0.00231615,
2,1,0,1,0,66212.2,0.00586735,0.00549525,16.9301,34,0.00011388,10,9.30352e-05,-1.77134, , , ,0.00549525,
2,1,0,1,0,66212.2,0.00906349,0.00867965,17.7993,34,0.000183448,10,0.000154491,-1.7496,0.151136,0.390376,267.862,0.00867965,
2,1,0,1,0,66212.2,0.0122624,0.0118937,18.6009,34,0.000256358,10,0.000221234,-1.73047,0.174222,0.338649,243.845,0.0118937,
2,1,0,1,0,66212.2,0.0154641,0.0151333,19.3543,34,0.000332363,10,0.000292894,-1.71322,0.192179,0.307006,230.52,0.0151333,
2,1,0,1,0,66212.2,0.0186602,0.0183251,20.0586,34,0.000411285,10,0.000367576,-1.6977,0.210386,0.280436,218.537,0.0183251,
2,1,0,1,0,66212.2,0.0218675,0.0215053,20.7558,34,0.000493001,10,0.000446359,-1.68286,0.227405,0.259449,209.192,0.0215053,
2,1,0,1,0,66212.2,0.0250636,0.0247013,21.3998,34,0.00057739,10,0.000528603,-1.66959,0.244977,0.240839,200.342,0.0247013,
2,1,0,1,0,66212.2,0.0282597,0.027891,22.0231,34,0.000664306,10,0.000614248,-1.65712,0.265268,0.222417,190.6,0.027891,
2,1,0,1,0,66212.2,0.031467,0.0311221,22.6224,34,0.000753677,10,0.000704056,-1.64546,0.279419,0.211152,185.983,0.0311221,
2,1,0,1,0,66212.2,0.0346631,0.0343585,23.2056,34,0.000845401,10,0.000797309,-1.63441,0.295645,0.199563,180.38,0.0343585,
2,1,0,1,0,66212.2,0.0378704,0.0375004,23.7802,34,0.000939433,10,0.000891768,-1.62378,0.312893,0.188563,174.579,0.0375004,
2,1,0,1,0,66212.2,0.0410665,0.0407124,24.3359,34,0.0010357,10,0.000990771,-1.61375,0.32744,0.180186,170.758,0.0407124,
2,1,0,1,0,66212.2,0.0442626,0.0439339,24.8591,34,0.00113415,10,0.00109216,-1.60452,0.34664,0.170205,164.883,0.0439339,
2,1,0,1,0,66212.2,0.0474671,0.047166,25.3926,34,0.0012347,10,0.00119767,-1.59529,0.360993,0.163438,161.75,0.047166,
2,1,0,1,0,66212.2,0.0506632,0.0503207,25.8941,34,0.00133734,10,0.00130301,-1.5868,0.371806,0.158685,160.195,0.0503207,
2,1,0,1,0,66212.2,0.0538621,0.0535348,26.4099,34,0.00144199,10,0.00141385,-1.57823,0.387813,0.152135,156.616,0.0535348,
2,1,0,1,0,66212.2,0.0570638,0.0566885,26.9023,34,0.00154868,10,0.00152505,-1.57021,0.399152,0.147813,155.017,0.0566885,
2,1,0,1,0,66212.2,0.06026,0.05991,27.3885,34,0.00165732,10,0.00164085,-1.56243,0.414295,0.14241,152.108,0.05991,
2,1,0,1,0,66212.2,0.0634672,0.0630965,27.8745,34,0.0017679,10,0.00175879,-1.55479,0.427117,0.138135,150.152,0.0630965,
2,1,0,1,0,66212.2,0.0666633,0.0662873,28.3496,34,0.00188039,10,0.00187922,-1.54745,0.434864,0.135675,150.044,0.0662873,
2,1,0,1,0,66212.2,0.0698595,0.0694897,28.8244,34,0.00199481,10,0.002003,-1.54024,0.448912,0.131429,147.778,0.0694897,
2,1,0,1,0,66212.3,0.0730667,0.0726985,29.3074,34,0.00211113,10,0.0021306,-1.53302,0.45722,0.129041,147.503,0.0726985,
2,1,0,1,0,66212.3,0.0762629,0.0759073,29.7677,34,0.00222934,10,0.00225958,-1.52626,0.46988,0.125564,145.802,0.0759073,
2,1,0,1,0,66212.3,0.0794701,0.0791691,30.2497,34,0.0023494,10,0.00239485,-1.51928,0.478076,0.123411,145.599,0.0791691,
2,1,0,1,0,66212.3,0.0826662,0.0823662,30.7018,34,0.00247134,10,0.00252879,-1.51284,0.482768,0.122212,146.4,0.0823662,
2,1,0,1,0,66212.3,0.0858624,0.0855061,31.1721,34,0.00259512,10,0.00266541,-1.50623,0.490824,0.120206,146.228,0.0855061,
2,1,0,1,0,66212.3,0.0890668,0.0887011,31.6407,34,0.00272081,10,0.00280656,-1.49975,0.497054,0.118699,146.503,0.0887011,
2,1,0,1,0,66212.3,0.092263,0.0918844,32.1091,34,0.00284835,10,0.00295032,-1.49337,0.509485,0.115803,145.046,0.0918844,
2,1,0,1,0,66212.3,0.0954674,0.0950975,32.567,34,0.00297774,10,0.00309704,-1.48722,0.519088,0.113661,144.43,0.0950975,
2,1,0,1,0,66212.3,0.0986636,0.0983391,33.0335,34,0.00310899,10,0.00324849,-1.48105,0.524408,0.112508,145.046,0.0983391,
2,1,0,1,0,66212.3,0.10186,0.101552,33.4968,34,0.0032421,10,0.00340167,-1.475,0.533261,0.11064,144.584,0.101552,
2,1,0,1,0,66212.3,0.105067,0.104757,33.9762,34,0.00337709,10,0.00355923,-1.46883,0.535542,0.110169,145.992,0.104757,
2,1,0,1,0,66212.3,0.108263,0.107908,34.4192,34,0.00351394,10,0.00371412,-1.4632,0.544326,0.108391,145.583,0.107908,
2,1,0,1,0,66212.3,0.111465,0.111084,34.8942,34,0.00365262,10,0.00387619,-1.45725,0.551271,0.107025,145.753,0.111084,
2,1,0,1,0,66212.3,0.114666,0.114288,35.3508,34,0.00379318,10,0.00404016,-1.4516,0.551331,0.107014,147.659,0.114288,
2,1,0,1,0,66212.3,0.117863,0.117483,35.831,34,0.00393559,10,0.00420952,-1.44574,0.562284,0.104929,146.711,0.117483,
2,1,0,1,0,66212.3,0.12107,0.120704,36.3087,34,0.0040799,10,0.00438261,-1.43999,0.561526,0.105071,148.825,0.120704,
2,1,0,1,0,66212.3,0.124266,0.123904,36.7751,34,0.00422612,10,0.0045566,-1.43445,0.564545,0.104509,150.027,0.123904,
2,1,0,1,0,66212.3,0.127462,0.12707,37.2531,34,0.00437422,10,0.00473375,-1.42884,0.559483,0.105455,153.43,0.1270698,
2,1,0,1,0,66212.3,0.130667,0.130292,37.7528,34,0.00452427,10,0.0049189,-1.42305,0.550782,0.10712,157.91,0.130292,
2,1,0,1,0,66212.3,0.133863,0.133483,38.2693,34,0.00467636,10,0.00510831,-1.41715,0.553208,0.106651,159.267,0.133483,
2,1,0,1,0,66212.3,0.137067,0.136647,38.7873,34,0.00483052,10,0.00530018,-1.41131,0.554621,0.106379,160.98,0.136647,
2,1,0,1,0,66212.3,0.140263,0.139888,39.2947,34,0.00498675,10,0.00549685,-1.40567,0.558565,0.105628,161.986,0.139888,
2,1,0,1,0,66212.3,0.143459,0.143106,39.8156,34,0.00514502,10,0.00569786,-1.39995,0.569571,0.103587,160.931,0.143106,
2,1,0,1,0,66212.3,0.146667,0.146256,40.3383,34,0.0053054,10,0.00589971,-1.39428,0.569971,0.103514,162.901,0.146256,
2,1,0,1,0,66212.3,0.149863,0.149443,40.8466,34,0.00546783,10,0.00610425,-1.38884,0.561759,0.105027,167.517,0.149443,
2,1,0,1,0,66212.4,0.153064,0.152631,41.3705,34,0.00563228,10,0.00631441,-1.38331,0.571895,0.103166,166.669,0.152631,
2,1,0,1,0,66212.4,0.156266,0.155792,41.9407,34,0.00579898,10,0.00653402,-1.37736,0.572174,0.103116,168.694,0.155792,
2,1,0,1,0,66212.4,0.159462,0.159055,42.4715,34,0.00596786,10,0.0067553,-1.3719,0.586846,0.100537,166.49,0.159055,
2,1,0,1,0,66212.4,0.16267,0.16227,43.0104,34,0.00613888,10,0.00697929,-1.36643,0.61828,0.095426,160.008,0.16227,
2,1,0,1,0,66212.4,0.165866,0.165496,43.5124,34,0.00631199,10,0.00720111,-1.36139,0.641256,0.0920069,156.078,0.165496,
2,1,0,1,0,66212.4,0.169062,0.168694,44.0051,34,0.00648707,10,0.00742339,-1.3565,0.675231,0.0873776,149.924,0.168694,
2,1,0,1,0,66212.4,0.172266,0.171906,44.4773,34,0.00666411,10,0.00764591,-1.35186,0.706773,0.083478,144.759,0.171906,
2,1,0,1,0,66212.4,0.175462,0.175098,44.9335,34,0.00684297,10,0.00786776,-1.34743,0.742241,0.079489,139.263,0.175098,
2,1,0,1,0,66212.4,0.178667,0.178309,45.3671,34,0.00702362,10,0.00808935,-1.34326,0.792062,0.0744891,131.735,0.178309,
2,1,0,1,0,66212.4,0.181863,0.181511,45.79,34,0.00720599,10,0.00831139,-1.33923,0.843831,0.0699192,124.774,0.181511,
2,1,0,1,0,66212.4,0.185059,0.184705,46.1634,34,0.00738996,10,0.00852661,-1.3357,0.923839,0.0638639,114.897,0.184705,
2,1,0,1,0,66212.4,0.188266,0.187875,46.5277,34,0.00757542,10,0.00874138,-1.33229,1.02954,0.0573073,103.887,0.187875,
2,1,0,1,0,66212.4,0.191463,0.191112,46.8382,34,0.00776219,10,0.00895134,-1.3294,1.16105,0.050816,92.7263,0.191112,
2,1,0,1,0,66212.4,0.194664,0.194282,47.1167,34,0.00795013,10,0.00915391,-1.32683,1.37707,0.0428445,78.6413,0.194282,
2,1,0,1,0,66212.4,0.197866,0.197545,47.354,34,0.00813911,10,0.00935457,-1.32464,1.65421,0.0356665,65.781,0.197545,
2,1,0,1,0,66212.4,0.201062,0.200739,47.5395,34,0.00832892,10,0.00954304,-1.32295,2.10099,0.028082,52.0033,0.2007394,
2,1,0,1,0,66212.4,0.204269,0.203916,47.6805,34,0.00851941,10,0.00972283,-1.32166,2.99495,0.0196998,36.5862,0.203916,
2,1,0,1,0,66212.4,0.207465,0.20714,47.7854,34,0.00871035,10,0.00989827,-1.3207,4.72744,0.0124803,23.227,0.20714,
2,1,0,1,0,66212.4,0.210662,0.21032,47.8214,34,0.00890158,10,0.0100578,-1.32038,13.4949,0.00437201,8.14439,0.21032,
2,1,0,1,0,66212.4,0.213866,0.213494,47.8357,34,0.00909293,10,0.0102126,-1.32025,-16.683,-0.00353654,-6.5895,0.213494,
2,1,0,1,0,66212.4,0.217062,0.216676,47.7844,34,0.00928418,10,0.0103537,-1.32071,-5.23978,-0.01126,-20.9558,0.216676,
2,1,0,1,0,66212.4,0.220267,0.219972,47.7008,34,0.00947514,10,0.0104928,-1.32147,-2.9905,-0.0197291,-36.6505,0.219972,
2,1,0,1,0,66212.4,0.223463,0.223127,47.553,34,0.00966566,10,0.0106104,-1.32282,-2.16118,-0.0273,-50.5642,0.223127,
2,1,0,1,0,66212.4,0.226659,0.226327,47.3654,34,0.00985549,10,0.0107201,-1.32454,-1.6652,-0.0354313,-65.381,0.226327,
2,1,0,1,0,66212.4,0.229866,0.229522,47.1349,34,0.0100445,10,0.0108185,-1.32666,-1.37597,-0.0428789,-78.7283,0.229522,
2,1,0,1,0,66212.5,0.233062,0.232729,46.8668,34,0.0102325,10,0.0109072,-1.32913,-1.16608,-0.050597,-92.3548,0.2327287,
2,1,0,1,0,66212.5,0.236264,0.235961,46.5426,34,0.0104193,10,0.0109822,-1.33215,-1.00426,-0.0587496,-106.502,0.235961,
2,1,0,1,0,66212.5,0.239466,0.239158,46.1804,34,0.0106047,10,0.0110444,-1.33554,-0.900217,-0.0655397,-117.934,0.239158,
2,1,0,1,0,66212.5,0.242662,0.242314,45.7725,34,0.0107886,10,0.0110913,-1.3394,-0.808172,-0.0730043,-130.219,0.242314,
2,1,0,1,0,66212.5,0.245869,0.245537,45.3562,34,0.0109709,10,0.0111366,-1.34336,-0.741906,-0.0795249,-140.512,0.245537,
2,1,0,1,0,66212.5,0.249065,0.248748,44.8775,34,0.0111513,10,0.0111632,-1.34797,-0.69041,-0.0854565,-149.44,0.248748,
2,1,0,1,0,66212.5,0.252261,0.251975,44.3794,34,0.0113298,10,0.0111825,-1.35282,-0.640826,-0.0920687,-159.275,0.251975,
2,1,0,1,0,66212.5,0.255466,0.255128,43.8576,34,0.0115062,10,0.0111893,-1.35795,-0.607939,-0.0970492,-165.927,0.255128,
2,1,0,1,0,66212.5,0.258662,0.258359,43.3141,34,0.0116805,10,0.0111906,-1.36337,-0.581643,-0.101437,-171.321,0.258359,
2,1,0,1,0,66212.5,0.261866,0.261526,42.7572,34,0.0118526,10,0.0111821,-1.36899,-0.558427,-0.105654,-176.142,0.2615262,
2,1,0,1,0,66212.5,0.265063,0.264742,42.1921,34,0.0120224,10,0.01117,-1.37477,-0.541495,-0.108958,-179.268,0.264742,
2,1,0,1,0,66212.5,0.268259,0.267951,41.5989,34,0.01219,10,0.0111465,-1.38092,-0.527897,-0.111764,-181.381,0.267951,
2,1,0,1,0,66212.5,0.271466,0.27114,41.0229,34,0.0123552,10,0.0111229,-1.38697,-0.517937,-0.113914,-182.349,0.2711398,
2,1,0,1,0,66212.5,0.274662,0.274345,40.4321,34,0.012518,10,0.0110924,-1.39327,-0.513648,-0.114865,-181.223,0.274345,
2,1,0,1,0,66212.5,0.277869,0.277511,39.8638,34,0.0126786,10,0.0110626,-1.39942,-0.507137,-0.116339,-180.939,0.277511,
2,1,0,1,0,66212.5,0.281065,0.28077,39.2757,34,0.0128368,10,0.0110275,-1.40588,-0.504612,-0.116921,-179.21,0.28077,
2,1,0,1,0,66212.5,0.284262,0.283966,38.702,34,0.0129927,10,0.0109901,-1.41227,-0.504231,-0.11701,-176.788,0.283966,
2,1,0,1,0,66212.5,0.287469,0.287146,38.1382,34,0.0131463,10,0.0109512,-1.41864,-0.502309,-0.117458,-174.873,0.287146,
2,1,0,1,0,66212.5,0.290665,0.290393,37.5864,34,0.0132977,10,0.0109148,-1.42497,-0.508665,-0.11599,-170.211,0.290393,
2,1,0,1,0,66212.5,0.293861,0.293538,37.0431,34,0.0134469,10,0.0108735,-1.43129,-0.514724,-0.114625,-166.019,0.293538,
2,1,0,1,0,66212.5,0.297066,0.296776,36.5217,34,0.013594,10,0.0108388,-1.43745,-0.510427,-0.11559,-166.014,0.296776,
2,1,0,1,0,66212.5,0.299637,0.299393,36.1048,34,0.0137102,10,0.0108095,-1.44243,-0.147599,-0.399733,-554.797,0.299393,
2,1,0,1,0,66212.5,0.300012,0.299785,36.0272,34,0.0137282,10,0.0108004,-1.44337,0.0138751,4.25223,5479.43,0.299785,
2,1,0,1,0,66212.5,0.298983,0.2988,34.1233,34,0.013773,10,0.0101961,-1.46695,0.0516612,1.14206,1379.63,0.2988,
2,1,0,1,0,66212.5,0.295787,0.29554,29.7465,34,0.0138999,10,0.00879127,-1.52656,0.0563399,1.04722,1194.64,0.29554,
2,1,0,1,0,66212.5,0.292579,0.292299,26.3174,34,0.0140116,10,0.00769256,-1.57976,0.0591479,0.9975,1045.19,0.292299,
2,1,0,1,0,66212.5,0.289383,0.289171,23.3477,34,0.0141105,10,0.00675147,-1.63176,0.0605757,0.973988,894.649,0.289171,
2,1,0,1,0,66212.6,0.286187,0.285947,20.6892,34,0.0141982,10,0.00591603,-1.68426,0.0595066,0.991486,803.239,0.285947,
2,1,0,1,0,66212.6,0.282983,0.282697,18.2569,34,0.0142758,10,0.00516118,-1.73857,0.0576524,1.02337,729.634,0.282697,
2,1,0,1,0,66212.6,0.279786,0.279508,16.0435,34,0.0143442,10,0.00448429,-1.7947,0.0551103,1.07058,668.811,0.2795085,
2,1,0,1,0,66212.6,0.276582,0.27634,13.9858,34,0.014404,10,0.00386483,-1.85431,0.0516061,1.14327,620.943,0.27634,
2,1,0,1,0,66212.6,0.273386,0.273092,12.0915,34,0.0144559,10,0.00330209,-1.91752,0.047665,1.2378,578.534,0.273092,
2,1,0,1,0,66212.6,0.27019,0.269925,10.3258,34,0.0145005,10,0.0027872,-1.98607,0.0436902,1.35042,535.674,0.269925,
2,1,0,1,0,66212.6,0.266982,0.26675,8.66209,34,0.0145383,10,0.00231061,-2.06238,0.0388505,1.51864,502.191,0.26675,
2,1,0,1,0,66212.6,0.263786,0.263507,7.11148,34,0.0145696,10,0.00187392,-2.14804,0.0337058,1.75044,469.656,0.263507,
2,1,0,1,0,66212.6,0.260585,0.260287,5.66072,34,0.014595,10,0.00147341,-2.24713,0.0280364,2.10441,439.635,0.260287,
2,1,0,1,0,66212.6,0.257383,0.257083,4.29474,34,0.0146147,10,0.0011041,-2.36706,0.0214359,2.75239,414.584,0.257083,
2,1,0,1,0,66212.6,0.254187,0.253911,3.0179,34,0.0146292,10,0.00076628,-2.52029,0.0136447,4.32401,391.845,0.253911,
2,1,0,1,0,66212.6,0.25098,0.250677,1.79241,34,0.0146387,10,0.000449317,-2.74656,0.0128061,4.60716,370.298,0.250677,
2,1,0,1,0,66212.6,0.247783,0.247514,0.655823,34,0.0146435,10,0.000162325,-3.18321,0.0402405,1.46619,349.187,0.247514,
2,0,0,1,0,66212.6,0.244587,0.244317,-0.432569,34,0.0146438,10,-0.000105684,-3.36394,-0.0976135,-0.604425,329.645,0.244317,
2,0,0,1,0,66212.6,0.241383,0.241113,-1.451,34,0.0146399,10,-0.000349855,-2.83833,-0.0180994,-3.25978,312.549,0.241113,
2,0,0,1,0,66212.6,0.238187,0.237888,-2.4236,34,0.014632,10,-0.000576543,-2.61554,-0.0129561,-4.55384,296.037,0.237888,
2,0,0,1,0,66212.6,0.234982,0.234688,-3.3528,34,0.0146204,10,-0.000786864,-2.47459,-0.0236928,-2.4902,280.812,0.234688,
2,0,0,1,0,66212.6,0.231786,0.231485,-4.2313,34,0.0146051,10,-0.000979483,-2.37353,-0.0333159,-1.77092,269.05,0.231485,
2,0,0,1,0,66212.6,0.22859,0.228259,-5.06062,34,0.0145864,10,-0.00115513,-2.2958,-0.043341,-1.3613,255.007,0.2282591,
2,0,0,1,0,66212.6,0.225383,0.225109,-5.86177,34,0.0145644,10,-0.00131954,-2.23197,-0.0533406,-1.1061,244.048,0.225109,
2,0,0,1,0,66212.6,0.222187,0.221902,-6.61342,34,0.0145394,10,-0.00146753,-2.17957,-0.0635046,-0.929067,233.49,0.221902,
2,0,0,1,0,66212.6,0.218979,0.218651,-7.36344,34,0.0145114,10,-0.00161002,-2.13292,-0.0741711,-0.795458,223.447,0.218651,
2,0,0,1,0,66212.6,0.215783,0.215461,-8.04884,34,0.0144804,10,-0.00173421,-2.09427,-0.0852236,-0.692296,213.608,0.215461,
2,0,0,1,0,66212.6,0.212587,0.212305,-8.72264,34,0.0144468,10,-0.00185186,-2.05935,-0.0966564,-0.61041,205.06,0.212305,
2,0,0,1,0,66212.6,0.20938,0.209057,-9.35716,34,0.0144106,10,-0.00195618,-2.02886,-0.107713,-0.547751,197.8,0.209057,
2,0,0,1,0,66212.7,0.206184,0.205865,-9.9852,34,0.0143719,10,-0.00205561,-2.00064,-0.120382,-0.490108,189.136,0.205865,
2,0,0,1,0,66212.7,0.202988,0.202708,-10.5715,34,0.0143307,10,-0.00214292,-1.97586,-0.132316,-0.445902,182.378,0.202708,
2,0,0,1,0,66212.7,0.199783,0.199454,-11.1532,34,0.0142872,10,-0.00222456,-1.9526,-0.145336,-0.405955,175.369,0.1994542,
2,0,0,1,0,66212.7,0.196587,0.196268,-11.6897,34,0.0142414,10,-0.00229431,-1.9322,-0.158164,-0.373031,169.166,0.196268,
2,0,0,1,0,66212.7,0.193382,0.193073,-12.2287,34,0.0141935,10,-0.00236102,-1.91262,-0.172214,-0.342597,162.662,0.193073,
2,0,0,1,0,66212.7,0.190186,0.189915,-12.7356,34,0.0141435,10,-0.00241868,-1.89498,-0.182361,-0.323533,160.157,0.189915,
2,0,0,1,0,66212.7,0.18699,0.186639,-13.2378,34,0.0140915,10,-0.00247068,-1.87819,-0.195892,-0.301187,155.101,0.186639,
2,0,0,1,0,66212.7,0.183783,0.183506,-13.7336,34,0.0140375,10,-0.0025202,-1.86221,-0.2085,-0.282974,151.114,0.183506,
2,0,0,1,0,66212.7,0.180587,0.180289,-14.2113,34,0.0139816,10,-0.00256216,-1.84736,-0.220486,-0.267591,147.896,0.180289,
2,0,0,1,0,66212.7,0.17738,0.177066,-14.6772,34,0.0139237,10,-0.00259884,-1.83336,-0.233481,-0.252697,144.348,0.177066,
2,0,0,1,0,66212.7,0.174183,0.173857,-15.1282,34,0.0138641,10,-0.00263014,-1.82021,-0.243318,-0.242481,142.972,0.173857,
2,0,0,1,0,66212.7,0.170987,0.170722,-15.5789,34,0.0138026,10,-0.00265966,-1.80746,-0.255139,-0.231246,140.42,0.170722,
2,0,0,1,0,66212.7,0.16778,0.167487,-16.0417,34,0.0137393,10,-0.00268678,-1.79475,-0.263981,-0.223501,139.608,0.167487,
2,0,0,1,0,66212.7,0.164584,0.164256,-16.476,34,0.0136743,10,-0.00270628,-1.78315,-0.27455,-0.214897,137.944,0.164256,
2,0,0,1,0,66212.7,0.161382,0.161052,-16.9159,34,0.0136075,10,-0.00272434,-1.7717,-0.283085,-0.208418,137.528,0.161052,
2,0,0,1,0,66212.7,0.158183,0.157894,-17.3485,34,0.0135389,10,-0.00273922,-1.76074,-0.287845,-0.204971,138.804,0.157894,
2,0,0,1,0,66212.7,0.154987,0.154667,-17.8049,34,0.0134686,10,-0.00275382,-1.74946,-0.290037,-0.203422,141.364,0.154667,
2,0,0,1,0,66212.7,0.151783,0.151417,-18.2581,34,0.0133964,10,-0.00276459,-1.73854,-0.290749,-0.202924,144.601,0.151417,
2,0,0,1,0,66212.7,0.148587,0.148235,-18.7277,34,0.0133224,10,-0.00277611,-1.72752,-0.289658,-0.203688,148.964,0.1482355,
2,0,0,1,0,66212.7,0.145385,0.145086,-19.2005,34,0.0132465,10,-0.00278572,-1.71669,-0.285968,-0.206317,154.823,0.145086,
2,0,0,1,0,66212.7,0.142183,0.141906,-19.7058,34,0.0131686,10,-0.00279637,-1.70541,-0.280459,-0.210369,162.092,0.141906,
2,0,0,1,0,66212.7,0.138987,0.138669,-20.2319,34,0.0130887,10,-0.00280552,-1.69396,-0.273989,-0.215337,170.336,0.138669,
2,0,0,1,0,66212.7,0.13578,0.135484,-20.7946,34,0.0130066,10,-0.00281733,-1.68205,-0.269569,-0.218868,177.906,0.135484,
2,0,0,1,0,66212.7,0.132584,0.132317,-21.3756,34,0.0129222,10,-0.00282835,-1.67008,-0.260161,-0.226783,189.587,0.132317,
2,0,0,1,0,66212.7,0.129388,0.129057,-21.9917,34,0.0128354,10,-0.00283818,-1.65774,-0.252781,-0.233404,200.908,0.129057,
2,0,0,1,0,66212.8,0.12618,0.125885,-22.6554,34,0.012746,10,-0.00285198,-1.64483,-0.245487,-0.240339,213.103,0.125885,
2,0,0,1,0,66212.8,0.122984,0.122679,-23.3673,34,0.0126539,10,-0.00286667,-1.63139,-0.235744,-0.250271,228.75,0.122679,
2,0,0,1,0,66212.8,0.119783,0.119443,-24.1189,34,0.0125589,10,-0.00288085,-1.61764,-0.232837,-0.253396,238.818,0.119443,
2,0,0,1,0,66212.8,0.116584,0.116305,-24.9088,34,0.0124608,10,-0.00289701,-1.60365,-0.229207,-0.257409,250.479,0.116305,
2,0,0,1,0,66212.8,0.113387,0.113105,-25.7075,34,0.0123595,10,-0.00290765,-1.58994,-0.226064,-0.260988,262.277,0.1131053,
2,0,0,1,0,66212.8,0.110183,0.1099,-26.5681,34,0.0122549,10,-0.00291983,-1.57564,-0.227184,-0.259702,269.579,0.1099,
2,0,0,1,0,66212.8,0.106987,0.106732,-27.4528,34,0.0121467,10,-0.00293009,-1.56141,-0.229091,-0.25754,275.809,0.106732,
2,0,0,1,0,66212.8,0.103785,0.103496,-28.3618,34,0.012035,10,-0.00293533,-1.54727,-0.233411,-0.252773,279.364,0.1034959,
2,0,0,1,0,66212.8,0.100583,0.100258,-29.2508,34,0.0119197,10,-0.00293264,-1.53386,-0.240415,-0.245409,279.764,0.100258,
2,0,0,1,0,66212.8,0.0973873,0.0970963,-30.1449,34,0.0118008,10,-0.00292696,-1.52079,-0.248492,-0.237432,279.014,0.0970963,
2,0,0,1,0,66212.8,0.0941801,0.0939045,-31.0415,34,0.0116783,10,-0.00291494,-1.50806,-0.256613,-0.229919,278.072,0.0939045,
2,0,0,1,0,66212.8,0.090984,0.0907063,-31.9302,34,0.0115523,10,-0.00289627,-1.4958,-0.26663,-0.221281,275.243,0.0907063,
2,0,0,1,0,66212.8,0.0877878,0.0875071,-32.7966,34,0.0114228,10,-0.00286993,-1.48417,-0.280899,-0.21004,268.296,0.0875071,
2,0,0,1,0,66212.8,0.0845806,0.0843121,-33.6637,34,0.0112897,10,-0.00283826,-1.47284,-0.298145,-0.19789,259.159,0.0843121,
2,0,0,1,0,66212.8,0.0813844,0.0810916,-34.4791,34,0.0111533,10,-0.00279597,-1.46244,-0.312223,-0.188968,253.603,0.0810916,
2,0,0,1,0,66212.8,0.0781828,0.0779454,-35.2373,34,0.0110138,10,-0.00274659,-1.453,-0.329393,-0.179117,246.191,0.0779454,
2,0,0,1,0,66212.8,0.0749839,0.0747589,-36.0295,34,0.0108712,10,-0.00269353,-1.44334,-0.345606,-0.170715,239.775,0.07475888,
2,0,0,1,0,66212.8,0.0717877,0.0714896,-36.8205,34,0.0107254,10,-0.00263228,-1.43391,-0.361736,-0.163102,233.711,0.0714896,
2,0,0,1,0,66212.8,0.0685832,0.0683169,-37.5422,34,0.0105766,10,-0.00256477,-1.42548,-0.386358,-0.152708,223.148,0.0683169,
2,0,0,1,0,66212.8,0.0653871,0.0651177,-38.2353,34,0.010425,10,-0.00248979,-1.41754,-0.415843,-0.141881,211.264,0.0651177,
2,0,0,1,0,66212.8,0.0621854,0.061929,-38.8925,34,0.0102706,10,-0.00240857,-1.41013,-0.449107,-0.131372,198.937,0.061929,
2,0,0,1,0,66212.8,0.0589837,0.058716,-39.5191,34,0.0101137,10,-0.0023204,-1.40319,-0.48064,-0.122753,188.915,0.058716,
2,0,0,1,0,66212.8,0.0557876,0.0555157,-40.0888,34,0.00995442,10,-0.00222556,-1.39698,-0.520655,-0.113319,176.958,0.0555157,
2,0,0,1,0,66212.8,0.0525804,0.0522963,-40.6575,34,0.00979286,10,-0.00212623,-1.39086,-0.560631,-0.105238,166.642,0.0522963,
2,0,0,1,0,66212.8,0.0493842,0.0491405,-41.1555,34,0.00962917,10,-0.0020224,-1.38557,-0.597586,-0.0987306,158.341,0.0491405,
2,0,0,1,0,66212.9,0.0461881,0.0459466,-41.647,34,0.00946352,10,-0.00191354,-1.38042,-0.642551,-0.0918215,149.081,0.0459466,
2,0,0,1,0,66212.9,0.0429808,0.0427145,-42.1158,34,0.00929593,10,-0.00179895,-1.37555,-0.680872,-0.0866536,142.244,0.0427145,
2,0,0,1,0,66212.9,0.0397847,0.0395269,-42.5611,34,0.00912653,10,-0.00168231,-1.37099,-0.727938,-0.0810509,134.452,0.0395269,
2,0,0,1,0,66212.9,0.036583,0.0363117,-42.9803,34,0.0089554,10,-0.00156069,-1.36673,-0.78845,-0.0748303,125.328,0.0363117,
2,0,0,1,0,66212.9,0.0333841,0.0330902,-43.3756,34,0.00878265,10,-0.00143531,-1.36275,-0.849994,-0.0694122,117.325,0.0330902,
2,0,0,1,0,66212.9,0.030188,0.0298825,-43.724,34,0.0086084,10,-0.00130658,-1.35928,-0.92902,-0.0635078,108.237,0.0298825,
2,0,0,1,0,66212.9,0.0269835,0.0266822,-44.0681,34,0.00843277,10,-0.00117583,-1.35588,-1.01457,-0.058153,99.8895,0.0266822,
2,0,0,1,0,66212.9,0.0237874,0.0234946,-44.3676,34,0.00825585,10,-0.0010424,-1.35293,-1.10305,-0.0534879,92.5006,0.0234946,
2,0,0,1,0,66212.9,0.0205857,0.0202593,-44.6572,34,0.00807776,10,-0.000904724,-1.35011,-1.22408,-0.0481995,83.9037,0.0202593,
2,0,0,1,0,66212.9,0.017384,0.0171035,-44.9061,34,0.00789858,10,-0.000768052,-1.34769,-1.33859,-0.0440761,77.1672,0.0171035,
2,0,0,1,0,66212.9,0.0141878,0.0138555,-45.1443,34,0.00771845,10,-0.000625497,-1.3454,-1.48193,-0.039813,70.0795,0.0138555,
2,0,0,1,0,66212.9,0.0109806,0.0106679,-45.3574,34,0.00753741,10,-0.000483869,-1.34335,-1.65822,-0.0355804,62.9144,0.0106679,
2,0,0,1,0,66212.9,0.00778448,0.00750366,-45.5512,34,0.00735557,10,-0.0003418,-1.3415,-1.76162,-0.033492,59.5034,0.00750366,
2,0,0,1,0,66212.9,0.00458834,0.00428532,-45.7125,34,0.00717302,10,-0.000195893,-1.33996,-2.0694,-0.0285107,50.8301,0.00428532,
2,0,0,1,0,66212.9,0.0013811,0.00106911,-45.9052,34,0.00698979,10,-4.90777e-05,-1.33814,-2.40587,-0.0245234,43.8654,0.00106911,
2,0,0,1,0,66212.9,-0.00181504,-0.00215028,-46.009,34,0.00680595,10,9.89324e-05,-1.33716,-2.86366,-0.020603,36.9466,-0.00215028,
2,0,0,1,0,66212.9,-0.0050195,-0.00537604,-46.1161,34,0.00662169,10,0.000247922,-1.33615,-3.93505,-0.0149934,26.9622,-0.00537604,
2,0,0,1,0,66212.9,-0.00821564,-0.00856575,-46.1873,34,0.00643706,10,0.000395629,-1.33548,-5.00686,-0.0117838,21.2214,-0.00856575,
2,0,0,1,0,66212.9,-0.0114118,-0.0117427,-46.2506,34,0.00625218,10,0.000543108,-1.33488,-7.581,-0.00778261,14.0341,-0.0117427,
2,0,0,1,0,66212.9,-0.0146162,-0.0149812,-46.2813,34,0.0060671,10,0.00069335,-1.33459,-12.693,-0.00464825,8.38842,-0.0149812,
2,0,0,1,0,66212.9,-0.0178124,-0.0181688,-46.2957,34,0.00588194,10,0.000841136,-1.33446,-55.1241,-0.00107031,1.93245,-0.0181688,
2,0,0,1,0,66212.9,-0.0210196,-0.021367,-46.2947,34,0.00569674,10,0.000989178,-1.33447,27.8048,0.00212194,-3.83064,-0.021367,
2,0,0,1,0,66212.9,-0.0242158,-0.024598,-46.2755,34,0.00551159,10,0.00113829,-1.33465,11.9349,0.00494347,-8.92068,-0.024598,
2,0,0,1,0,66212.9,-0.0274119,-0.0277835,-46.2322,34,0.00532656,10,0.00128449,-1.33506,7.0421,0.00837818,-15.1055,-0.0277835,
2,0,0,1,0,66212.9,-0.0306191,-0.0310061,-46.1811,34,0.00514173,10,0.0014319,-1.33554,5.66236,0.0104197,-18.7691,-0.0310061,
2,0,0,1,0,66213,-0.0338153,-0.0341905,-46.101,34,0.00495717,10,0.00157622,-1.33629,4.54217,0.0129894,-23.3609,-0.03419048,
2,0,0,1,0,66213,-0.037017,-0.0373547,-46.036,34,0.00477292,10,0.00171966,-1.3369,3.90747,0.0150993,-27.1116,-0.0373547,
2,0,0,1,0,66213,-0.0402187,-0.0405784,-45.9333,34,0.00458898,10,0.0018639,-1.33787,3.63462,0.0162328,-29.0874,-0.0405784,
2,0,0,1,0,66213,-0.0434148,-0.0437447,-45.8358,34,0.00440544,10,0.00200507,-1.3388,3.22846,0.018275,-32.6838,-0.04374475,
2,0,0,1,0,66213,-0.0466193,-0.047015,-45.728,34,0.00422232,10,0.0021499,-1.33982,3.03534,0.0194377,-34.6762,-0.047015,
2,0,0,1,0,66213,-0.0498154,-0.050192,-45.6165,34,0.00403965,10,0.00228958,-1.34088,2.9507,0.0199952,-35.5896,-0.050192,
2,0,0,1,0,66213,-0.0530115,-0.0533679,-45.4898,34,0.00385745,10,0.0024277,-1.34209,2.8287,0.0208577,-37.0299,-0.0533679,
2,0,0,1,0,66213,-0.056216,-0.0565693,-45.3794,34,0.00367572,10,0.00256708,-1.34314,2.8584,0.0206409,-36.5577,-0.0565693,
2,0,0,1,0,66213,-0.0594122,-0.0598046,-45.2544,34,0.00349445,10,0.00270642,-1.34434,2.83114,0.0208397,-36.8053,-0.0598046,
2,0,0,1,0,66213,-0.0626194,-0.0629784,-45.149,34,0.00331366,10,0.00284341,-1.34535,2.82557,0.0208808,-36.7882,-0.0629784,
2,0,0,1,0,66213,-0.0658155,-0.0661702,-45.0187,34,0.00313333,10,0.00297889,-1.34661,2.97096,0.0198589,-34.9007,-0.0661702,
2,0,0,1,0,66213,-0.0690117,-0.0693557,-44.909,34,0.00295347,10,0.00311469,-1.34767,3.02663,0.0194936,-34.1817,-0.0693557,
2,0,0,1,0,66213,-0.0722189,-0.0725634,-44.8091,34,0.00277404,10,0.0032515,-1.34863,3.22967,0.0182681,-31.9502,-0.0725634,
2,0,0,1,0,66213,-0.075415,-0.0757701,-44.7118,34,0.002595,10,0.00338782,-1.34958,3.44576,0.0171225,-29.8817,-0.0757701,
2,0,0,1,0,66213,-0.0786167,-0.0789439,-44.6105,34,0.00241638,10,0.00352173,-1.35056,3.58742,0.0164464,-28.6427,-0.0789439,
2,0,0,1,0,66213,-0.0818184,-0.0821728,-44.526,34,0.00223811,10,0.00365883,-1.35139,4.04174,0.0145977,-25.3796,-0.0821728,
2,0,0,1,0,66213,-0.0850146,-0.0853922,-44.4416,34,0.00206019,10,0.00379497,-1.35221,4.46174,0.0132235,-22.9463,-0.0853922,
2,0,0,1,0,66213,-0.088219,-0.0885819,-44.3866,34,0.00188256,10,0.00393185,-1.35275,5.05255,0.0116773,-20.2324,-0.0885819,
2,0,0,1,0,66213,-0.0914152,-0.0917621,-44.3164,34,0.00170515,10,0.00406657,-1.35344,5.9291,0.00995092,-17.2161,-0.0917621,
2,0,0,1,0,66213,-0.0946141,-0.0950112,-44.2662,34,0.00152802,10,0.00420579,-1.35393,6.8913,0.00856152,-14.7993,-0.0950112,
2,0,0,1,0,66213,-0.0978158,-0.0982221,-44.2208,34,0.00135103,10,0.00434346,-1.35437,9.52886,0.00619171,-10.6922,-0.0982221,
2,0,0,1,0,66213,-0.101012,-0.101346,-44.1977,34,0.00117419,10,0.00447926,-1.3546,13.4116,0.00439918,-7.59157,-0.101346,
2,0,0,1,0,66213,-0.104219,-0.104581,-44.1793,34,0.000997435,10,0.00462034,-1.35478,21.3765,0.00276004,-4.76,-0.104581,
2,0,0,1,0,66213,-0.107415,-0.107778,-44.1693,34,0.000820728,10,0.0047605,-1.35488,139.46,0.000423061,-0.72966,-0.107778,
2,0,0,1,0,66213,-0.110611,-0.110938,-44.1602,34,0.000644057,10,0.00489907,-1.35497,-47.6554,-0.00123805,2.13529,-0.110938,
2,0,0,1,0,66213.1,-0.113819,-0.114177,-44.1883,34,0.000467339,10,0.00504529,-1.35469,-16.2183,-0.00363786,6.27661,-0.114177,
2,0,0,1,0,66213.1,-0.117015,-0.117372,-44.2066,34,0.000290539,10,0.00518862,-1.35451,-10.0796,-0.0058534,10.1028,-0.117372,
2,0,0,1,0,66213.1,-0.120216,-0.120603,-44.2498,34,0.000113632,10,0.00533666,-1.35409,-7.95592,-0.00741586,12.8126,-0.120603,
2,0,0,1,0,66213.1,-0.123418,-0.123778,-44.2899,34,-6.34591e-05,10,0.00548211,-1.35369,-6.18398,-0.00954079,16.4994,-0.1237779,
2,0,0,1,0,66213.1,-0.126614,-0.126993,-44.3526,34,-0.000240742,10,0.00563247,-1.35308,-5.23976,-0.0112601,19.5,-0.126993,
2,0,0,1,0,66213.1,-0.129819,-0.13014,-44.4173,34,-0.000418278,10,0.00578049,-1.35245,-4.48638,-0.0131509,22.806,-0.13014,
2,0,0,1,0,66213.1,-0.133015,-0.13338,-44.4989,34,-0.000596115,10,0.00593526,-1.35165,-3.8753,-0.0152246,26.4532,-0.13338,
2,0,0,1,0,66213.1,-0.136214,-0.136553,-44.5813,34,-0.000774283,10,0.00608769,-1.35085,-3.65653,-0.0161355,28.0839,-0.136553,
2,0,0,1,0,66213.1,-0.139416,-0.139771,-44.6906,34,-0.000952844,10,0.00624644,-1.34978,-3.31054,-0.0178219,31.0888,-0.139771,
2,0,0,1,0,66213.1,-0.142612,-0.14299,-44.7782,34,-0.00113179,10,0.00640285,-1.34893,-3.06798,-0.0192309,33.6203,-0.14299,
2,0,0,1,0,66213.1,-0.145819,-0.146193,-44.8973,34,-0.00131115,10,0.00656366,-1.34778,-2.95952,-0.0199357,34.944,-0.146193,
2,0,0,1,0,66213.1,-0.149015,-0.149345,-45.0114,34,-0.001491,10,0.00672224,-1.34668,-2.72296,-0.0216676,38.0708,-0.149345,
2,0,0,1,0,66213.1,-0.152211,-0.152556,-45.1373,34,-0.00167131,10,0.00688599,-1.34546,-2.67609,-0.0220471,38.8442,-0.152556,
2,0,0,1,0,66213.1,-0.155418,-0.155782,-45.2652,34,-0.00185216,10,0.0070515,-1.34424,-2.63385,-0.0224006,39.5718,-0.155782,
2,0,0,1,0,66213.1,-0.158615,-0.158978,-45.3939,34,-0.00203349,10,0.00721664,-1.343,-2.53693,-0.0232565,41.2065,-0.158978,
2,0,0,1,0,66213.1,-0.161816,-0.162186,-45.5195,34,-0.00221533,10,0.00738262,-1.3418,-2.5589,-0.0230568,40.9663,-0.162186,
2,0,0,1,0,66213.1,-0.165018,-0.165338,-45.664,34,-0.00239772,10,0.00755002,-1.34043,-2.54412,-0.0231907,41.3224,-0.165338,
2,0,0,1,0,66213.1,-0.168214,-0.168567,-45.789,34,-0.00258065,10,0.00771852,-1.33924,-2.63825,-0.0223633,39.9501,-0.168567,
2,0,0,1,0,66213.1,-0.171419,-0.171738,-45.9212,34,-0.00276409,10,0.00788641,-1.33799,-2.7322,-0.0215943,38.6922,-0.171738,
2,0,0,1,0,66213.1,-0.174615,-0.174944,-46.0292,34,-0.002948,10,0.00805251,-1.33697,-2.77416,-0.0212677,38.2076,-0.174944,
2,0,0,1,0,66213.1,-0.177814,-0.178144,-46.1595,34,-0.0031324,10,0.00822304,-1.33574,-2.90995,-0.0202752,36.5213,-0.1781439,
2,0,0,1,0,66213.1,-0.181015,-0.181348,-46.2773,34,-0.0033173,10,0.00839232,-1.33463,-2.96464,-0.0199013,35.9286,-0.181348,
2,0,0,1,0,66213.1,-0.184211,-0.18455,-46.3891,34,-0.00350265,10,0.0085611,-1.33358,-3.18866,-0.0185031,33.4874,-0.18455,
2,0,0,1,0,66213.1,-0.187419,-0.187755,-46.4895,34,-0.00368844,10,0.00872865,-1.33265,-3.4836,-0.0169365,30.7178,-0.187755,
2,0,0,1,0,66213.1,-0.190615,-0.190966,-46.5889,34,-0.0038746,10,0.00889691,-1.33172,-3.55741,-0.0165851,30.1506,-0.190966,
2,0,0,1,0,66213.2,-0.193811,-0.19413,-46.6699,34,-0.00406114,10,0.00906,-1.33096,-3.93482,-0.0149943,27.3024,-0.19413,
2,0,0,1,0,66213.2,-0.197018,-0.197339,-46.7747,34,-0.00424806,10,0.00923049,-1.32999,-6.51853,-0.00905112,16.4846,-0.197339,
2,0,0,1,0,66213.2,-0.199647,-0.199998,-46.8237,34,-0.00440252,10,0.00936464,-1.32953,0.252133,0.234004,-416.069,-0.199998,
2,0,0,1,0,66213.2,-0.200134,-0.200494,-46.746,34,-0.0044306,10,0.00937229,-1.33026,-0.0160716,-3.67108,6186,-0.200494,
2,0,0,1,1,66213.2,-0.198935,-0.199424,-44.467,34,-0.00449831,10,0.00886779,-1.35196,-0.0631731,-0.933941,1503.93,-0.199424,
2,0,0,1,1,66213.2,-0.195739,-0.196207,-39.7688,34,-0.00466586,10,0.00780291,-1.40046,-0.0718557,-0.821091,1266.8,-0.196207,
2,0,0,1,1,66213.2,-0.192535,-0.192906,-36.1579,34,-0.00481714,10,0.00697507,-1.4418,-0.0778871,-0.757507,1093.43,-0.192906,
2,0,0,1,1,66213.2,-0.189339,-0.189724,-33.102,34,-0.00495525,10,0.00628022,-1.48015,-0.0839561,-0.702749,919.026,-0.189724,
2,0,0,1,1,66213.2,-0.186137,-0.186555,-30.3955,34,-0.00508189,10,0.00567044,-1.51719,-0.0861766,-0.684641,818.354,-0.186555,
2,0,0,1,1,66213.2,-0.182935,-0.18334,-27.9437,34,-0.00519826,10,0.0051232,-1.55372,-0.0871241,-0.677195,741.988,-0.18334,
2,0,0,1,1,66213.2,-0.179739,-0.180117,-25.6924,34,-0.00530526,10,0.00462765,-1.5902,-0.0867724,-0.67994,683.741,-0.180117,
2,0,0,1,1,66213.2,-0.176532,-0.176897,-23.5847,34,-0.00540356,10,0.00417206,-1.62737,-0.08561,-0.689172,635.703,-0.176897,
2,0,0,1,1,66213.2,-0.173336,-0.17374,-21.6334,34,-0.00549376,10,0.00375859,-1.66488,-0.083155,-0.709518,599.163,-0.17374,
2,0,0,1,1,66213.2,-0.17014,-0.170521,-19.7945,34,-0.0055764,10,0.00337537,-1.70346,-0.0802573,-0.735136,566.707,-0.170521,
2,0,0,1,1,66213.2,-0.166932,-0.167336,-18.0344,34,-0.00565185,10,0.00301781,-1.7439,-0.077111,-0.765131,536.802,-0.167336,
2,0,0,1,1,66213.2,-0.163736,-0.164149,-16.3602,34,-0.00572046,10,0.0026855,-1.78621,-0.072883,-0.809517,514.732,-0.164149,
2,0,0,1,1,66213.2,-0.160532,-0.160931,-14.7577,34,-0.00578252,10,0.00237497,-1.83098,-0.0692345,-0.852177,488.205,-0.160931,
2,0,0,1,1,66213.2,-0.157336,-0.157768,-13.2304,34,-0.00583833,10,0.00208733,-1.87843,-0.0644168,-0.91591,468.927,-0.157768,
2,0,0,1,1,66213.2,-0.154139,-0.154502,-11.7688,34,-0.00588817,10,0.0018183,-1.92927,-0.0590214,-0.999638,453.467,-0.154502,
2,0,0,1,1,66213.2,-0.150935,-0.151303,-10.3365,34,-0.00593223,10,0.00156394,-1.98563,-0.0535821,-1.10111,437.224,-0.1513029,
2,0,0,1,1,66213.2,-0.147739,-0.148164,-8.96812,34,-0.00597069,10,0.00132875,-2.0473,-0.0477839,-1.23473,423.214,-0.148164,
2,0,0,1,1,66213.2,-0.144532,-0.144958,-7.62966,34,-0.00600375,10,0.00110598,-2.11749,-0.0415815,-1.4189,410.496,-0.144958,
2,0,0,1,1,66213.2,-0.141335,-0.141699,-6.35021,34,-0.00603156,10,0.000899817,-2.19721,-0.0352344,-1.6745,396.99,-0.141699,
2,0,0,1,1,66213.2,-0.138139,-0.138548,-5.10076,34,-0.00605434,10,0.000706702,-2.29237,-0.0284464,-2.07407,384.05,-0.138548,
2,0,0,1,1,66213.2,-0.134932,-0.135354,-3.88279,34,-0.00607217,10,0.000525553,-2.41086,-0.0207075,-2.84921,377.993,-0.135354,
2,0,0,1,1,66213.2,-0.131736,-0.132119,-2.69868,34,-0.00608521,10,0.000356547,-2.56885,-0.0116618,-5.05924,367.186,-0.132119,
2,0,0,1,1,66213.2,-0.12854,-0.128986,-1.54471,34,-0.00609356,10,0.000199245,-2.81115,-0.016819,-3.50794,356.632,-0.128986,
2,0,0,1,1,66213.3,-0.125333,-0.125771,-0.409283,34,-0.00609734,10,5.14761e-05,-3.38798,-0.0686521,-0.859406,350.858,-0.125771,
2,1,0,1,1,66213.3,-0.122136,-0.122574,0.674975,34,-0.00609668,10,-8.27346e-05,-3.17071,0.0491616,1.20012,340.655,-0.122574,
2,1,0,1,1,66213.3,-0.118932,-0.119406,1.76185,34,-0.0060917,10,-0.000210375,-2.75403,0.0131634,4.48213,332.209,-0.119406,
2,1,0,1,1,66213.3,-0.115736,-0.116197,2.81176,34,-0.00608245,10,-0.000326718,-2.55102,0.014936,3.95019,326.717,-0.116197,
2,1,0,1,1,66213.3,-0.11254,-0.112965,3.84517,34,-0.00606903,10,-0.000434369,-2.41508,0.0246342,2.39505,318.008,-0.112965,
2,1,0,1,1,66213.3,-0.109335,-0.109772,4.8577,34,-0.0060515,10,-0.000533239,-2.31357,0.0332895,1.77233,312.882,-0.109772,
2,1,0,1,1,66213.3,-0.106139,-0.10659,5.83747,34,-0.00603,10,-0.000622214,-2.23378,0.041722,1.41412,308.189,-0.10659,
2,1,0,1,1,66213.3,-0.102932,-0.103388,6.81936,34,-0.00600459,10,-0.000705043,-2.16626,0.0503663,1.17142,301.786,-0.1033884,
2,1,0,1,1,66213.3,-0.0997357,-0.10019,7.78221,34,-0.00597529,10,-0.000779701,-2.1089,0.0585617,1.00749,298.25,-0.1001902,
2,1,0,1,1,66213.3,-0.0965395,-0.0969772,8.71901,34,-0.00594218,10,-0.000845545,-2.05953,0.067395,0.875436,292.083,-0.0969772,
2,1,0,1,1,66213.3,-0.0933323,-0.0938013,9.65164,34,-0.00590534,10,-0.000905336,-2.0154,0.076335,0.772909,286.485,-0.0938013,
2,1,0,1,1,66213.3,-0.0901362,-0.090619,10.5491,34,-0.00586484,10,-0.000955948,-1.97679,0.0851129,0.693197,281.841,-0.09061899,
2,1,0,1,1,66213.3,-0.0869344,-0.0873943,11.448,34,-0.00582077,10,-0.00100049,-1.94127,0.0948211,0.622225,275.003,-0.0873943,
2,1,0,1,1,66213.3,-0.0837328,-0.0841844,12.3245,34,-0.00577314,10,-0.00103753,-1.90923,0.103504,0.570026,271.566,-0.0841844,
2,1,0,1,1,66213.3,-0.0805366,-0.0809682,13.1808,34,-0.00572205,10,-0.00106722,-1.88006,0.113675,0.519022,264.911,-0.0809682,
2,1,0,1,1,66213.3,-0.0773322,-0.0777987,14.0307,34,-0.00566754,10,-0.00109157,-1.85292,0.123174,0.478999,260.353,-0.0777987,
2,1,0,1,1,66213.3,-0.074136,-0.0745284,14.8564,34,-0.00560968,10,-0.00110722,-1.82809,0.13326,0.442743,255.066,-0.0745284,
2,1,0,1,1,66213.3,-0.0709371,-0.0713609,15.6632,34,-0.00554855,10,-0.00111774,-1.80512,0.143622,0.410799,249.805,-0.0713609,
2,1,0,1,1,66213.3,-0.0677354,-0.0680949,16.4643,34,-0.00548419,10,-0.00112114,-1.78346,0.152596,0.386643,247.285,-0.0680949,
2,1,0,1,1,66213.3,-0.0645393,-0.0649412,17.2425,34,-0.00541667,10,-0.00111975,-1.7634,0.163929,0.359911,241.106,-0.06494122,
2,1,0,1,1,66213.3,-0.0613321,-0.0617293,18.0214,34,-0.00534607,10,-0.00111245,-1.74421,0.173532,0.339996,237.995,-0.0617293,
2,1,0,1,1,66213.3,-0.0581359,-0.0585152,18.7604,34,-0.00527242,10,-0.00109777,-1.72676,0.184355,0.320034,233.534,-0.0585152,
2,1,0,1,1,66213.3,-0.0549398,-0.0553679,19.4933,34,-0.00519582,10,-0.0010793,-1.71011,0.196131,0.300819,228.275,-0.0553679,
2,1,0,1,1,66213.3,-0.0517325,-0.0521368,20.2328,34,-0.00511628,10,-0.00105487,-1.69394,0.206495,0.285721,224.852,-0.0521368,
2,1,0,1,1,66213.3,-0.0485364,-0.0489439,20.94,34,-0.00503387,10,-0.00102488,-1.67902,0.219012,0.269392,219.436,-0.0489439,
2,1,0,1,1,66213.4,-0.0453347,-0.0457203,21.6373,34,-0.00494864,10,-0.000989264,-1.6648,0.232436,0.253833,213.721,-0.0457203,
2,1,0,1,1,66213.4,-0.042133,-0.0425147,22.3137,34,-0.00486068,10,-0.000948661,-1.65143,0.242984,0.242814,210.961,-0.0425147,
2,1,0,1,1,66213.4,-0.0389369,-0.0393122,22.9736,34,-0.00477003,10,-0.000903146,-1.63877,0.256501,0.230018,205.824,-0.0393122,
2,1,0,1,1,66213.4,-0.0357324,-0.0361522,23.6385,34,-0.00467676,10,-0.000854585,-1.62638,0.269502,0.218922,201.448,-0.0361522,
2,1,0,1,1,66213.4,-0.0325363,-0.0329318,24.2695,34,-0.00458087,10,-0.000799238,-1.61494,0.283214,0.208323,196.84,-0.0329318,
2,1,0,1,1,66213.4,-0.0293374,-0.0297293,24.8893,34,-0.00448248,10,-0.000739943,-1.60399,0.29878,0.19747,191.458,-0.0297293,
2,1,0,1,1,66213.4,-0.0261357,-0.0265184,25.492,34,-0.00438164,10,-0.000676008,-1.5936,0.312284,0.188931,187.655,-0.0265184,
2,1,0,1,1,66213.4,-0.0229395,-0.0233563,26.0884,34,-0.00427842,10,-0.000609329,-1.58355,0.327317,0.180253,183.213,-0.0233563,
2,1,0,1,1,66213.4,-0.0197323,-0.0201454,26.6689,34,-0.00417285,10,-0.000537256,-1.57399,0.342487,0.17227,178.965,-0.02014539,
2,1,0,1,1,66213.4,-0.0165361,-0.0169313,27.2341,34,-0.00406497,10,-0.000461108,-1.56489,0.358981,0.164354,174.39,-0.0169313,
2,1,0,1,1,66213.4,-0.01334,-0.0137384,27.7792,34,-0.00395487,10,-0.000381642,-1.55628,0.379506,0.155465,168.277,-0.0137384,
2,1,0,1,1,66213.4,-0.0101328,-0.0105699,28.3182,34,-0.00384261,10,-0.000299321,-1.54793,0.3954,0.149216,164.657,-0.0105699,
2,1,0,1,1,66213.4,-0.00693663,-0.00730916,28.829,34,-0.00372826,10,-0.000210716,-1.54017,0.411724,0.1433,160.93,-0.00730916,
2,1,0,1,1,66213.4,-0.00373494,-0.00413006,29.3419,34,-0.00361187,10,-0.000121184,-1.53251, , , ,-0.004130064,
2,1,0,1,1,66213.4,-0.000774629,-0.00120493,29.7962,34,-0.00350243,10,-3.59023e-05,-1.52584, , , ,-0.00120493,
2,1,0,0,1,66213.4,-0.000125413,-0.000382585,29.9041,34,-0.00347857,10,-1.14409e-05,-1.52427, , , ,-0.000382585,