File: Figure_codes/Fig_3-5/rawdata_trumpetplot_data/after 10th/20221101_1-115_003_TrumpetPlot_ParaChange_from10_every3_13_CV_C01_19.csv
mode,ox/red,error,control changes,counter inc.,time/s,control/V,Ewe/V,<I>/mA,cycle number,(Q-Qo)/C,I Range,P/W,log(|I|),Tafel slope mV/dec,alpha_eff,dI/d(E-IR),E-IR/V,
2,1,0,1,0,38630.3,2.44065e-05,-0.000344411,18.8289,20,0.0000000E+000,10,-6.48488e-06,-1.72517, , , ,-0.000344411,
2,1,0,1,0,38630.3,0.00266289,0.00228964,20.1339,20,6.093e-05,10,4.60995e-05,-1.69607, , , ,0.00228964,
2,1,0,1,0,38630.3,0.00586735,0.00551327,21.234,20,0.000143857,10,0.000117069,-1.67297, , , ,0.00551327,
2,1,0,1,0,38630.3,0.00906349,0.00869767,22.1536,20,0.000230754,10,0.000192684,-1.65456,0.177323,0.332726,284.472,0.00869767,
2,1,0,1,0,38630.3,0.0122624,0.0118916,22.9943,20,0.000321153,10,0.00027344,-1.63838,0.204766,0.288133,256.756,0.0118916,
2,1,0,1,0,38630.4,0.0154641,0.0151131,23.7819,20,0.000414798,10,0.000359419,-1.62375,0.227799,0.259,239.065,0.0151131,
2,1,0,1,0,38630.4,0.0186602,0.0182742,24.5104,20,0.000511486,10,0.000447908,-1.61065,0.251934,0.234189,222.975,0.0182742,
2,1,0,1,0,38630.4,0.0218675,0.0215021,25.2146,20,0.000611008,10,0.000542167,-1.59835,0.274424,0.214996,210.622,0.0215021,
2,1,0,1,0,38630.4,0.0250636,0.0247183,25.8543,20,0.000713238,10,0.000639075,-1.58747,0.296201,0.199189,200.339,0.0247183,
2,1,0,1,0,38630.4,0.0282597,0.0278772,26.4703,20,0.000817961,10,0.000737918,-1.57724,0.318249,0.185389,191.153,0.0278772,
2,1,0,1,0,38630.4,0.031467,0.0310744,27.0748,20,0.000925141,10,0.000841332,-1.56744,0.334306,0.176485,186.146,0.0310744,
2,1,0,1,0,38630.4,0.0346631,0.0343118,27.6633,20,0.00103469,10,0.000949176,-1.5581,0.354308,0.166522,179.388,0.0343118,
2,1,0,1,0,38630.4,0.0378703,0.0374941,28.2325,20,0.00114654,10,0.00105855,-1.54925,0.37552,0.157115,172.709,0.0374941,
2,1,0,1,0,38630.4,0.0410665,0.0406848,28.7678,20,0.00126059,10,0.00117041,-1.54109,0.392977,0.150136,168.325,0.0406848,
2,1,0,1,0,38630.4,0.0442626,0.0438851,29.2873,20,0.00137676,10,0.00128528,-1.53332,0.41072,0.14365,164.083,0.0438851,
2,1,0,1,0,38630.4,0.0474671,0.0471183,29.8189,20,0.00149501,10,0.00140502,-1.52551,0.425726,0.138587,161.128,0.0471183,
2,1,0,1,0,38630.4,0.0506632,0.0502677,30.3284,20,0.00161537,10,0.00152454,-1.51815,0.437182,0.134955,159.579,0.0502677,
2,1,0,1,0,38630.4,0.0538621,0.0535348,30.8383,20,0.00173775,10,0.00165092,-1.51091,0.451298,0.130734,157.202,0.0535348,
2,1,0,1,0,38630.4,0.0570638,0.0567033,31.3328,20,0.00186217,10,0.00177668,-1.504,0.464469,0.127027,155.24,0.0567033,
2,1,0,1,0,38630.4,0.06026,0.0598793,31.825,20,0.00198854,10,0.00190565,-1.49723,0.472228,0.12494,155.16,0.0598793,
2,1,0,1,0,38630.4,0.0634672,0.0631082,32.3218,20,0.0021169,10,0.00203977,-1.4905,0.47993,0.122934,155.043,0.0631082,
2,1,0,1,0,38630.4,0.0666633,0.0663382,32.8249,20,0.00224725,10,0.00217754,-1.4838,0.48443,0.121793,155.971,0.0663382,
2,1,0,1,0,38630.4,0.0698595,0.0695141,33.3191,20,0.00237961,10,0.00231614,-1.47731,0.491758,0.119978,155.965,0.0695141,
2,1,0,1,0,38630.4,0.0730667,0.0726911,33.8232,20,0.00251397,10,0.00245865,-1.47079,0.497689,0.118548,156.439,0.0726911,
2,1,0,1,0,38630.4,0.0762629,0.0758956,34.3162,20,0.0026503,10,0.00260445,-1.4645,0.502839,0.117334,157.13,0.0758956,
2,1,0,1,0,38630.4,0.0794701,0.0791012,34.8215,20,0.00278859,10,0.00275442,-1.45815,0.507239,0.116316,158.085,0.07910125,
2,1,0,1,0,38630.4,0.0826662,0.0823047,35.3289,20,0.00292895,10,0.00290773,-1.45187,0.510953,0.11547,159.188,0.0823047,
2,1,0,1,0,38630.4,0.0858624,0.0854849,35.8457,20,0.00307134,10,0.00306427,-1.44556,0.515607,0.114428,160.043,0.0854849,
2,1,0,1,0,38630.4,0.0890668,0.0886862,36.3523,20,0.00321579,10,0.00322395,-1.43947,0.521626,0.113108,160.453,0.08868625,
2,1,0,1,0,38630.4,0.092263,0.0919205,36.8731,20,0.00336228,10,0.0033894,-1.43329,0.522386,0.112943,162.529,0.0919205,
2,1,0,1,0,38630.5,0.0954674,0.095141,37.3885,20,0.00351085,10,0.00355717,-1.42726,0.528666,0.111602,162.837,0.095141,
2,1,0,1,0,38630.5,0.0986636,0.0982426,37.9192,20,0.00366152,10,0.00372529,-1.42114,0.531175,0.111074,164.353,0.09824264,
2,1,0,1,0,38630.5,0.10186,0.101512,38.4408,20,0.00381431,10,0.0039022,-1.41521,0.535917,0.110092,165.123,0.101512,
2,1,0,1,0,38630.5,0.105067,0.104706,38.9744,20,0.0039692,10,0.00408085,-1.40922,0.542625,0.108731,165.357,0.104706,
2,1,0,1,0,38630.5,0.108263,0.107893,39.4942,20,0.0041262,10,0.00426116,-1.40347,0.542777,0.1087,167.576,0.1078934,
2,1,0,1,0,38630.5,0.111465,0.111043,40.0358,20,0.0042853,10,0.00444569,-1.39755,0.545655,0.108127,169.003,0.111043,
2,1,0,1,0,38630.5,0.114666,0.114291,40.5822,20,0.00444659,10,0.00463818,-1.39166,0.542682,0.108719,172.218,0.114291,
2,1,0,1,0,38630.5,0.117863,0.117544,41.1442,20,0.00461008,10,0.00483626,-1.38569,0.547873,0.107689,172.879,0.117544,
2,1,0,1,0,38630.5,0.12107,0.120724,41.7039,20,0.00477583,10,0.00503468,-1.37982,0.551226,0.107034,174.116,0.120724,
2,1,0,1,0,38630.5,0.124266,0.123868,42.2531,20,0.00494378,10,0.00523383,-1.37414,0.549188,0.107431,177.182,0.123868,
2,1,0,1,0,38630.5,0.127462,0.127041,42.8023,20,0.00511394,10,0.00543765,-1.36853,0.560443,0.105274,175.89,0.127041,
2,1,0,1,0,38630.5,0.130667,0.130247,43.3948,20,0.00528639,10,0.00565204,-1.36256,0.551395,0.107001,181.229,0.130247,
2,1,0,1,0,38630.5,0.133863,0.133425,43.9378,20,0.00546112,10,0.00586239,-1.35716,0.540132,0.109233,187.529,0.133425,
2,1,0,1,0,38630.5,0.137067,0.136622,44.5644,20,0.00563813,10,0.00608848,-1.35101,0.534267,0.110432,192.283,0.136622,
2,1,0,1,0,38630.5,0.140263,0.139823,45.1993,20,0.00581774,10,0.00631991,-1.34487,0.516689,0.114189,201.516,0.1398233,
2,1,0,1,0,38630.5,0.143459,0.14306,45.8585,20,0.00599992,10,0.00656051,-1.33858,0.523081,0.112793,201.838,0.14306,
2,1,0,1,0,38630.5,0.146667,0.146264,46.5251,20,0.00618478,10,0.00680496,-1.33231,0.529502,0.111425,202.157,0.1462642,
2,1,0,1,0,38630.5,0.149863,0.149499,47.1636,20,0.00637222,10,0.00705093,-1.32639,0.539609,0.109338,201.151,0.149499,
2,1,0,1,0,38630.5,0.153064,0.152693,47.8011,20,0.00656223,10,0.00729891,-1.32056,0.556795,0.105964,197.593,0.152693,
2,1,0,1,0,38630.5,0.156266,0.155915,48.4444,20,0.00675478,10,0.00755321,-1.31476,0.567456,0.103973,196.453,0.155915,
2,1,0,1,0,38630.5,0.159462,0.159086,49.0586,20,0.00694985,10,0.00780451,-1.30929,0.583683,0.101082,193.425,0.159086,
2,1,0,1,0,38630.5,0.16267,0.162346,49.6874,20,0.0071474,10,0.00806657,-1.30375,0.60673,0.0972426,188.393,0.162346,
2,1,0,1,0,38630.5,0.165866,0.165521,50.2823,20,0.0073474,10,0.00832278,-1.29859,0.631373,0.0934472,183.165,0.165521,
2,1,0,1,0,38630.5,0.169062,0.168726,50.8579,20,0.00754973,10,0.00858103,-1.29364,0.662454,0.0890627,176.584,0.168726,
2,1,0,1,0,38630.5,0.172266,0.171912,51.4079,20,0.00775434,10,0.00883766,-1.28897,0.698964,0.0844107,169.178,0.171912,
2,1,0,1,0,38630.6,0.175462,0.175078,51.9355,20,0.00796108,10,0.00909275,-1.28454,0.74368,0.0793352,160.627,0.175078,
2,1,0,1,0,38630.6,0.178667,0.178294,52.4431,20,0.00816991,10,0.00935028,-1.28031,0.803545,0.0734246,150.042,0.178294,
2,1,0,1,0,38630.6,0.181863,0.181522,52.9132,20,0.00838069,10,0.00960489,-1.27644,0.881804,0.0669083,137.914,0.181522,
2,1,0,1,0,38630.6,0.185059,0.184695,53.326,20,0.00859324,10,0.00984907,-1.27306,1.0046,0.0587298,121.984,0.184695,
2,1,0,1,0,38630.6,0.188266,0.187914,53.7058,20,0.00880737,10,0.0100921,-1.26998,1.1615,0.0507965,106.238,0.187914,
2,1,0,1,0,38630.6,0.191463,0.191106,54.006,20,0.00902285,10,0.0103208,-1.26756,1.41385,0.0417301,87.7582,0.191106,
2,1,0,1,0,38630.6,0.194664,0.194312,54.2721,20,0.00923944,10,0.0105457,-1.26542,1.89485,0.031137,65.7731,0.194312,
2,1,0,1,0,38630.6,0.197866,0.1975,54.4497,20,0.00945694,10,0.0107538,-1.264,2.80997,0.0209966,44.4879,0.1975,
2,1,0,1,0,38630.6,0.201062,0.200729,54.5487,20,0.00967497,10,0.0109495,-1.26322,6.37458,0.00925552,19.6494,0.2007288,
2,1,0,1,0,38630.6,0.204269,0.203947,54.5773,20,0.00989325,10,0.0111309,-1.26299,-24.9762,-0.00236225,-5.01682,0.203947,
2,1,0,1,0,38630.6,0.207465,0.207154,54.5244,20,0.0101114,10,0.0112949,-1.26341,-4.41895,-0.0133516,-28.3294,0.207154,
2,1,0,1,0,38630.6,0.210662,0.210318,54.3854,20,0.0103293,10,0.0114382,-1.26452,-2.28368,-0.0258354,-54.6753,0.210318,
2,1,0,1,0,38630.6,0.213866,0.213504,54.1868,20,0.0105464,10,0.0115691,-1.26611,-1.5891,-0.037128,-78.2761,0.213504,
2,1,0,1,0,38630.6,0.217062,0.216748,53.8773,20,0.0107626,10,0.0116778,-1.26859,-1.20175,-0.0490952,-102.93,0.216748,
2,1,0,1,0,38630.6,0.220267,0.219973,53.521,20,0.0109773,10,0.0117732,-1.27148,-0.961422,-0.0613674,-127.803,0.219973,
2,1,0,1,0,38630.6,0.223463,0.223182,53.0613,20,0.0111905,10,0.0118423,-1.27522,-0.812135,-0.072648,-150.02,0.223182,
2,1,0,1,0,38630.6,0.226659,0.226329,52.5476,20,0.0114017,10,0.0118931,-1.27945,-0.695243,-0.0848624,-173.562,0.226329,
2,1,0,1,0,38630.6,0.229866,0.229527,51.9602,20,0.0116107,10,0.0119263,-1.28433,-0.615714,-0.0958237,-193.779,0.229527,
2,1,0,1,0,38630.6,0.233062,0.232738,51.3054,20,0.0118172,10,0.0119407,-1.28984,-0.554985,-0.106309,-212.321,0.232738,
2,1,0,1,0,38630.6,0.236264,0.235927,50.5916,20,0.0120209,10,0.0119359,-1.29592,-0.505681,-0.116674,-229.828,0.235927,
2,1,0,1,0,38630.6,0.239466,0.239145,49.8265,20,0.0122217,10,0.0119158,-1.30254,-0.471417,-0.125155,-242.911,0.239145,
2,1,0,1,0,38630.6,0.242662,0.24234,49.0155,20,0.0124193,10,0.0118784,-1.30967,-0.439927,-0.134113,-256.105,0.24234,
2,1,0,1,0,38630.6,0.245869,0.245559,48.1912,20,0.0126136,10,0.0118338,-1.31703,-0.416267,-0.141736,-266.087,0.245559,
2,1,0,1,0,38630.6,0.249065,0.248751,47.3071,20,0.0128046,10,0.0117677,-1.32507,-0.398168,-0.148179,-273.21,0.248751,
2,1,0,1,0,38630.6,0.252261,0.251942,46.4214,20,0.0129919,10,0.0116955,-1.33328,-0.383316,-0.15392,-278.638,0.251942,
2,1,0,1,0,38630.7,0.255466,0.25515,45.5157,20,0.0131757,10,0.0116133,-1.34184,-0.375195,-0.157252,-279.229,0.2551499,
2,1,0,1,0,38630.7,0.258662,0.258357,44.6252,20,0.0133559,10,0.0115292,-1.35042,-0.367994,-0.160329,-279.129,0.2583566,
2,1,0,1,0,38630.7,0.261866,0.261536,43.7374,20,0.0135326,10,0.0114389,-1.35915,-0.362637,-0.162697,-277.598,0.261536,
2,1,0,1,0,38630.7,0.265063,0.264752,42.8459,20,0.0137057,10,0.0113435,-1.36809,-0.361159,-0.163363,-273.227,0.264752,
2,1,0,1,0,38630.7,0.268259,0.26792,41.9707,20,0.0138752,10,0.0112448,-1.37705,-0.360802,-0.163524,-268.045,0.2679204,
2,1,0,1,0,38630.7,0.271466,0.271138,41.1331,20,0.0140413,10,0.0111527,-1.38581,-0.366435,-0.161011,-258.692,0.271138,
2,1,0,1,0,38630.7,0.274662,0.274317,40.3115,20,0.0142042,10,0.0110581,-1.39457,-0.369277,-0.159772,-251.531,0.274317,
2,1,0,1,0,38630.7,0.277869,0.277549,39.5354,20,0.0143637,10,0.010973,-1.40301,-0.374132,-0.157698,-243.44,0.277549,
2,1,0,1,0,38630.7,0.281065,0.280722,38.7508,20,0.0145202,10,0.0108782,-1.41172,-0.381866,-0.154504,-233.906,0.280722,
2,1,0,1,0,38630.7,0.284262,0.283934,38.018,20,0.0146737,10,0.0107946,-1.42001,-0.388241,-0.151967,-225.782,0.283934,
2,1,0,1,0,38630.7,0.287469,0.287148,37.3103,20,0.0148243,10,0.0107136,-1.42817,-0.399434,-0.147709,-215.331,0.287148,
2,1,0,1,0,38630.7,0.290665,0.290372,36.6401,20,0.0149721,10,0.0106393,-1.43604,-0.408303,-0.144501,-206.863,0.2903724,
2,1,0,1,0,38630.7,0.293861,0.293539,35.9909,20,0.0151173,10,0.0105647,-1.44381,-0.421429,-0.14,-197.215,0.293539,
2,1,0,1,0,38630.7,0.297066,0.2967,35.3772,20,0.0152599,10,0.0104964,-1.45128,-0.422841,-0.139532,-194.507,0.2967,
2,1,0,1,0,38630.7,0.299638,0.299336,34.9065,20,0.0153724,10,0.0104488,-1.45709,-0.120137,-0.491105,-655.997,0.299336,
2,1,0,1,0,38630.7,0.300012,0.299766,34.813,20,0.0153898,10,0.0104357,-1.45826,0.00970795,6.0775,7364.62,0.299766,
2,1,0,1,0,38630.7,0.298983,0.298828,32.5211,20,0.0154327,10,0.0097182,-1.48784,0.038266,1.54184,1715.02,0.2988281,
2,1,0,1,0,38630.7,0.295786,0.295575,27.091,20,0.0155508,10,0.00800741,-1.56717,0.0418415,1.41008,1450.49,0.295575,
2,1,0,1,0,38630.7,0.292579,0.292354,22.9325,20,0.0156502,10,0.00670441,-1.63955,0.0430524,1.37042,1256.3,0.292354,
2,1,0,1,0,38630.7,0.289383,0.289137,19.3965,20,0.0157344,10,0.00560825,-1.71228,0.0426423,1.3836,1055.23,0.289137,
2,1,0,1,0,38630.7,0.286187,0.285923,16.3083,20,0.0158054,10,0.00466292,-1.78759,0.0406416,1.45171,923.098,0.285923,
2,1,0,1,0,38630.7,0.282983,0.282739,13.5458,20,0.0158647,10,0.00382992,-1.8682,0.0374022,1.57745,826.685,0.282739,
2,1,0,1,0,38630.7,0.279786,0.279513,11.0785,20,0.0159137,10,0.0030966,-1.95552,0.0337045,1.75051,742.999,0.279513,
2,1,0,1,0,38630.7,0.276582,0.276357,8.83145,20,0.0159532,10,0.00244063,-2.05397,0.0291993,2.0206,672.559,0.276357,
2,1,0,1,0,38630.7,0.273386,0.273138,6.80887,20,0.0159842,10,0.00185976,-2.16693,0.0239418,2.46431,611.863,0.273138,
2,1,0,1,0,38630.7,0.27019,0.269937,4.93625,20,0.0160075,10,0.00133248,-2.3066,0.0177116,3.33114,557.543,0.269937,
2,1,0,1,0,38630.7,0.266982,0.266673,3.2226,20,0.0160236,10,0.000859382,-2.49179,0.00852646,6.91964,514.329,0.266673,
2,1,0,1,0,38630.8,0.263786,0.263491,1.65814,20,0.0160331,10,0.000436905,-2.78038,0.0201081,2.93414,471.988,0.263491,
2,1,0,1,0,38630.8,0.260585,0.260314,0.213357,20,0.0160367,10,5.55398e-05,-3.67089,0.0962379,0.613064,438.092,0.260314,
2,0,0,1,0,38630.8,0.257383,0.25708,-1.13235,20,0.0160347,10,-0.000291103,-2.94602,-0.0388839,-1.51734,405.765,0.25708,
2,0,0,1,0,38630.8,0.254187,0.253899,-2.37391,20,0.0160275,10,-0.000602734,-2.62453,-0.00963949,-6.12066,374.932,0.253899,
2,0,0,1,0,38630.8,0.25098,0.250677,-3.54132,20,0.0160155,10,-0.000887727,-2.45084,-0.0183246,-3.21972,351.746,0.250677,
2,0,0,1,0,38630.8,0.247783,0.247449,-4.6101,20,0.0159991,10,-0.00114076,-2.33629,-0.0291272,-2.0256,325.273,0.247449,
2,0,0,1,0,38630.8,0.244587,0.244339,-5.61386,20,0.0159786,10,-0.00137169,-2.25074,-0.0397572,-1.48401,304.21,0.244339,
2,0,0,1,0,38630.8,0.241383,0.24106,-6.54989,20,0.0159541,10,-0.00157892,-2.18377,-0.0502671,-1.17373,286.783,0.24106,
2,0,0,1,0,38630.8,0.238187,0.237854,-7.44235,20,0.015926,10,-0.00177019,-2.12829,-0.0619893,-0.951777,267.287,0.237854,
2,0,0,1,0,38630.8,0.234982,0.234705,-8.26484,20,0.0158945,10,-0.0019398,-2.08277,-0.0734028,-0.803784,252.739,0.234705,
2,0,0,1,0,38630.8,0.231786,0.231483,-9.0502,20,0.0158598,10,-0.00209496,-2.04334,-0.0859693,-0.686291,237.704,0.2314827,
2,0,0,1,0,38630.8,0.22859,0.228283,-9.77909,20,0.015822,10,-0.00223241,-2.0097,-0.0985929,-0.598421,224.949,0.228283,
2,0,0,1,0,38630.8,0.225383,0.225073,-10.4805,20,0.0157814,10,-0.00235886,-1.97962,-0.111464,-0.52932,213.931,0.225073,
2,0,0,1,0,38630.8,0.222187,0.221915,-11.1421,20,0.0157381,10,-0.00247259,-1.95303,-0.125742,-0.469215,201.825,0.221915,
2,0,0,1,0,38630.8,0.218979,0.218714,-11.7817,20,0.0156922,10,-0.00257684,-1.92879,-0.140404,-0.420216,191.24,0.218714,
2,0,0,1,0,38630.8,0.215783,0.215472,-12.3648,20,0.0156438,10,-0.00266427,-1.90781,-0.156212,-0.377692,180.832,0.2154716,
2,0,0,1,0,38630.8,0.212587,0.212278,-12.9273,20,0.0155932,10,-0.00274419,-1.88849,-0.170882,-0.345267,173.298,0.212278,
2,0,0,1,0,38630.8,0.20938,0.209056,-13.4673,20,0.0155403,10,-0.00281542,-1.87072,-0.185087,-0.318769,166.739,0.209056,
2,0,0,1,0,38630.8,0.206184,0.20589,-14.0042,20,0.0154853,10,-0.00288333,-1.85374,-0.199616,-0.295568,160.717,0.20589,
2,0,0,1,0,38630.8,0.202988,0.202682,-14.4974,20,0.0154283,10,-0.00293835,-1.83871,-0.21609,-0.273034,153.75,0.202682,
2,0,0,1,0,38630.8,0.199783,0.199448,-14.9893,20,0.0153692,10,-0.00298959,-1.82422,-0.233077,-0.253136,147.495,0.199448,
2,0,0,1,0,38630.8,0.196587,0.196256,-15.4353,20,0.0153084,10,-0.00302928,-1.81148,-0.248399,-0.237522,142.711,0.196256,
2,0,0,1,0,38630.8,0.193382,0.193065,-15.8958,20,0.0152457,10,-0.00306892,-1.79872,-0.264647,-0.222938,137.954,0.193065,
2,0,0,1,0,38630.8,0.190186,0.189842,-16.3298,20,0.0151812,10,-0.00310008,-1.78702,-0.276285,-0.213547,135.737,0.1898416,
2,0,0,1,0,38630.8,0.18699,0.186649,-16.755,20,0.0151149,10,-0.0031273,-1.77586,-0.293511,-0.201015,131.169,0.186649,
2,0,0,1,0,38630.9,0.183783,0.183481,-17.1693,20,0.015047,10,-0.00315025,-1.76525,-0.305209,-0.19331,129.327,0.183481,
2,0,0,1,0,38630.9,0.180587,0.180282,-17.5725,20,0.0149775,10,-0.00316801,-1.75517,-0.314697,-0.187482,128.495,0.180282,
2,0,0,1,0,38630.9,0.17738,0.177071,-17.9814,20,0.0149063,10,-0.00318399,-1.74518,-0.327447,-0.180182,126.342,0.177071,
2,0,0,1,0,38630.9,0.174183,0.173896,-18.3936,20,0.0148335,10,-0.00319859,-1.73533,-0.331362,-0.178053,127.71,0.173896,
2,0,0,1,0,38630.9,0.170987,0.170663,-18.7888,20,0.0147591,10,-0.00320655,-1.7261,-0.342313,-0.172357,126.322,0.170663,
2,0,0,1,0,38630.9,0.16778,0.167468,-19.209,20,0.0146831,10,-0.0032169,-1.7165,-0.344461,-0.171282,128.36,0.1674681,
2,0,0,1,0,38630.9,0.164584,0.16425,-19.601,20,0.0146054,10,-0.00321946,-1.70772,-0.3456,-0.170718,130.68,0.16425,
2,0,0,1,0,38630.9,0.161382,0.161113,-20.0345,20,0.0145261,10,-0.00322782,-1.69822,-0.345851,-0.170594,133.488,0.161113,
2,0,0,1,0,38630.9,0.158183,0.15785,-20.4632,20,0.0144451,10,-0.00323012,-1.68903,-0.337595,-0.174765,139.699,0.15785,
2,0,0,1,0,38630.9,0.154987,0.154686,-20.9153,20,0.0143623,10,-0.0032353,-1.67954,-0.336604,-0.17528,143.262,0.154686,
2,0,0,1,0,38630.9,0.151783,0.15145,-21.3892,20,0.0142776,10,-0.00323938,-1.66981,-0.323878,-0.182168,152.28,0.15145,
2,0,0,1,0,38630.9,0.148587,0.148244,-21.8782,20,0.0141911,10,-0.00324331,-1.65999,-0.312671,-0.188697,161.55,0.148244,
2,0,0,1,0,38630.9,0.145385,0.145098,-22.4051,20,0.0141025,10,-0.00325094,-1.64965,-0.300745,-0.19618,172.028,0.145098,
2,0,0,1,0,38630.9,0.142183,0.141834,-22.9915,20,0.0140116,10,-0.00326098,-1.63843,-0.283941,-0.20779,186.946,0.141834,
2,0,0,1,0,38630.9,0.138987,0.13869,-23.5842,20,0.0139184,10,-0.00327089,-1.62738,-0.273549,-0.215684,199.124,0.13869,
2,0,0,1,0,38630.9,0.13578,0.135453,-24.2693,20,0.0138227,10,-0.00328736,-1.61494,-0.261344,-0.225756,214.398,0.135453,
2,0,0,1,0,38630.9,0.132584,0.132304,-24.9527,20,0.0137242,10,-0.00330134,-1.60288,-0.247419,-0.238462,233.09,0.132304,
2,0,0,1,0,38630.9,0.129388,0.12907,-25.7281,20,0.0136227,10,-0.00332072,-1.58959,-0.238505,-0.247375,249.344,0.12907,
2,0,0,1,0,38630.9,0.12618,0.125892,-26.5673,20,0.0135181,10,-0.00334461,-1.57565,-0.228696,-0.257984,268.153,0.125892,
2,0,0,1,0,38630.9,0.122984,0.122695,-27.4506,20,0.01341,10,-0.00336804,-1.56145,-0.221082,-0.26687,286.646,0.122695,
2,0,0,1,0,38630.9,0.119783,0.119493,-28.3879,20,0.0132982,10,-0.00339217,-1.54687,-0.216744,-0.27221,302.304,0.1194932,
2,0,0,1,0,38630.9,0.116584,0.116267,-29.3978,20,0.0131826,10,-0.00341801,-1.53168,-0.212479,-0.277674,319.052,0.116267,
2,0,0,1,0,38630.9,0.113387,0.113106,-30.4324,20,0.0130628,10,-0.0034421,-1.51666,-0.21267,-0.277425,329.674,0.113106,
2,0,0,1,0,38630.9,0.110183,0.109919,-31.5268,20,0.0129388,10,-0.00346539,-1.50132,-0.214654,-0.274861,337.998,0.109919,
2,0,0,1,0,38630.9,0.106987,0.106693,-32.6078,20,0.0128104,10,-0.00347903,-1.48668,-0.220492,-0.267583,340.109,0.106693,
2,0,0,1,0,38631,0.103785,0.103482,-33.7193,20,0.0126776,10,-0.00348934,-1.47212,-0.227889,-0.258897,340.069,0.1034821,
2,0,0,1,0,38631,0.100583,0.100258,-34.8021,20,0.0125404,10,-0.0034892,-1.45839,-0.23428,-0.251835,341.508,0.100258,
2,0,0,1,0,38631,0.0973873,0.0971144,-35.8812,20,0.012399,10,-0.00348458,-1.44513,-0.244749,-0.241064,337.102,0.0971144,
2,0,0,1,0,38631,0.0941801,0.093895,-36.9785,20,0.0122531,10,-0.00347209,-1.43205,-0.256968,-0.229601,330.245,0.093895,
2,0,0,1,0,38631,0.0909839,0.0906936,-38.0303,20,0.012103,10,-0.0034491,-1.41987,-0.269656,-0.218797,323.701,0.0906936,
2,0,0,1,0,38631,0.0877878,0.0875845,-38.9876,20,0.0119489,10,-0.00341471,-1.40907,-0.284593,-0.207313,315.167,0.0875845,
2,0,0,1,0,38631,0.0845806,0.0843556,-40.0112,20,0.0117907,10,-0.00337517,-1.39782,-0.300615,-0.196264,306.012,0.0843556,
2,0,0,1,0,38631,0.0813844,0.0811404,-40.9983,20,0.0116286,10,-0.00332662,-1.38723,-0.312838,-0.188596,300.916,0.0811404,
2,0,0,1,0,38631,0.0781828,0.0779284,-41.9366,20,0.0114626,10,-0.00326805,-1.37741,-0.336186,-0.175498,286.446,0.0779284,
2,0,0,1,0,38631,0.0749838,0.0747822,-42.84,20,0.0112929,10,-0.00320367,-1.36815,-0.363096,-0.162492,270.869,0.0747822,
2,0,0,1,0,38631,0.0717877,0.0715236,-43.6869,20,0.0111198,10,-0.00312464,-1.35965,-0.39138,-0.150749,256.259,0.0715236,
2,0,0,1,0,38631,0.0685832,0.0683021,-44.4758,20,0.0109434,10,-0.00303779,-1.35188,-0.426439,-0.138355,239.534,0.0683021,
2,0,0,1,0,38631,0.0653871,0.0651177,-45.2195,20,0.0107639,10,-0.00294459,-1.34467,-0.459537,-0.12839,226.059,0.0651177,
2,0,0,1,0,38631,0.0621854,0.061928,-45.919,20,0.0105815,10,-0.00284367,-1.33801,-0.498353,-0.11839,211.659,0.061928,
2,0,0,1,0,38631,0.0589837,0.0587478,-46.575,20,0.0103964,10,-0.00273618,-1.33185,-0.542524,-0.108751,197.221,0.0587478,
2,0,0,1,0,38631,0.0557876,0.0555729,-47.17,20,0.0102089,10,-0.00262138,-1.32633,-0.593807,-0.0993588,182.552,0.0555729,
2,0,0,1,0,38631,0.0525804,0.0523387,-47.7397,20,0.010019,10,-0.00249864,-1.32112,-0.652663,-0.0903988,168.1,0.0523387,
2,0,0,1,0,38631,0.0493842,0.0491267,-48.2559,20,0.00982693,10,-0.00237066,-1.31645,-0.717091,-0.0822769,154.638,0.0491267,
2,0,0,1,0,38631,0.0461881,0.0458872,-48.7368,20,0.00963289,10,-0.0022364,-1.31214,-0.797069,-0.0740212,140.502,0.0458872,
2,0,0,1,0,38631,0.0429808,0.0426964,-49.1612,20,0.00943703,10,-0.00209901,-1.30838,-0.900975,-0.0654846,125.374,0.0426964,
2,0,0,1,0,38631,0.0397847,0.039494,-49.5444,20,0.00923958,10,-0.00195671,-1.30501,-1.01461,-0.0581504,112.23,0.039494,
2,0,0,1,0,38631,0.036583,0.0362682,-49.868,20,0.00904071,10,-0.00180863,-1.30218,-1.14241,-0.0516453,100.377,0.0362682,
2,0,0,1,0,38631,0.0333841,0.0330626,-50.1761,20,0.00884058,10,-0.00165895,-1.2995,-1.28601,-0.0458782,89.7387,0.0330626,
2,0,0,1,0,38631,0.030188,0.0298867,-50.447,20,0.0086393,10,-0.0015077,-1.29716,-1.45433,-0.0405686,79.7581,0.0298867,
2,0,0,1,0,38631,0.0269835,0.0266217,-50.6996,20,0.00843696,10,-0.00134971,-1.295,-1.66624,-0.035409,69.9566,0.0266217,
2,0,0,1,0,38631.1,0.0237874,0.0234956,-50.8868,20,0.00823374,10,-0.00119562,-1.2934,-1.96235,-0.030066,59.6409,0.0234956,
2,0,0,1,0,38631.1,0.0205857,0.0202381,-51.0733,20,0.00802979,10,-0.00103363,-1.29181,-2.30607,-0.0255847,50.946,0.0202381,
2,0,0,1,0,38631.1,0.017384,0.0170728,-51.2113,20,0.00782519,10,-0.000874318,-1.29063,-2.68151,-0.0220025,43.9367,0.0170728,
2,0,0,1,0,38631.1,0.0141879,0.0139,-51.3477,20,0.00762006,10,-0.000713735,-1.28948,-3.36074,-0.0175557,35.146,0.01390003,
2,0,0,1,0,38631.1,0.0109806,0.0107093,-51.4485,20,0.00741445,10,-0.000550976,-1.28863,-4.47534,-0.0131833,26.4356,0.0107093,
2,0,0,1,0,38631.1,0.00778448,0.00746866,-51.5221,20,0.00720848,10,-0.000384801,-1.28801,-5.24878,-0.0112407,22.5893,0.00746866,
2,0,0,1,0,38631.1,0.00458834,0.00423442,-51.5507,20,0.00700232,10,-0.000218287,-1.28777,-8.66731,-0.00680719,13.6914,0.00423442,
2,0,0,1,0,38631.1,0.0013811,0.00105002,-51.638,20,0.00679597,10,-5.42211e-05,-1.28703,-18.7156,-0.00315245,6.3438,0.00105002,
2,0,0,1,0,38631.1,-0.00181504,-0.00216407,-51.6248,20,0.00658945,10,0.00011172,-1.28714,116.166,0.000507892,-1.02168,-0.00216407,
2,0,0,1,0,38631.1,-0.0050195,-0.00541422,-51.6038,20,0.00638302,10,0.000279394,-1.28732,8.38497,0.0070364,-14.1553,-0.00541422,
2,0,0,1,0,38631.1,-0.00821564,-0.00856257,-51.5376,20,0.00617673,10,0.000441294,-1.28788,5.35038,0.0110272,-22.1561,-0.00856257,
2,0,0,1,0,38631.1,-0.0114118,-0.0117756,-51.4564,20,0.00597076,10,0.00060593,-1.28856,3.96777,0.0148698,-29.8362,-0.0117756,
2,0,0,1,0,38631.1,-0.0146162,-0.0149642,-51.3412,20,0.00576515,10,0.000768282,-1.28953,3.32471,0.0177459,-35.535,-0.0149642,
2,0,0,1,0,38631.1,-0.0178124,-0.0181858,-51.2228,20,0.00556002,10,0.000931525,-1.29054,2.73284,0.0215893,-43.1221,-0.0181858,
2,0,0,1,0,38631.1,-0.0210196,-0.021402,-51.0813,20,0.00535543,10,0.00109324,-1.29174,2.32044,0.0254262,-50.6239,-0.021402,
2,0,0,1,0,38631.1,-0.0242158,-0.0245864,-50.904,20,0.00515146,10,0.00125154,-1.29325,2.02958,0.0290701,-57.6933,-0.0245864,
2,0,0,1,0,38631.1,-0.0274119,-0.0277655,-50.6931,20,0.00494828,10,0.00140752,-1.29505,1.79091,0.0329441,-65.14,-0.0277655,
2,0,0,1,0,38631.1,-0.0306191,-0.0309796,-50.4846,20,0.00474593,10,0.00156399,-1.29684,1.69019,0.0349072,-68.7489,-0.0309796,
2,0,0,1,0,38631.1,-0.0338153,-0.0341565,-50.2505,20,0.00454446,10,0.00171638,-1.29886,1.61318,0.0365737,-71.6988,-0.0341565,
2,0,0,1,0,38631.1,-0.037017,-0.0373325,-50.0277,20,0.00434392,10,0.00186766,-1.30079,1.50261,0.039265,-76.6085,-0.0373325,
2,0,0,1,0,38631.1,-0.0402187,-0.0405932,-49.7734,20,0.00414433,10,0.00202046,-1.303,1.45518,0.0405449,-78.7143,-0.0405932,
2,0,0,1,0,38631.1,-0.0434148,-0.0437776,-49.5042,20,0.0039458,10,0.00216718,-1.30536,1.40208,0.0420803,-81.299,-0.0437776,
2,0,0,1,0,38631.1,-0.0466193,-0.046944,-49.244,20,0.00374834,10,0.00231171,-1.30765,1.38358,0.042643,-81.9588,-0.046944,
2,0,0,1,0,38631.1,-0.0498154,-0.0501645,-48.9845,20,0.00355192,10,0.00245728,-1.30994,1.40438,0.0420115,-80.3188,-0.0501645,
2,0,0,1,0,38631.1,-0.0530115,-0.0533807,-48.7254,20,0.00335653,10,0.00260099,-1.31224,1.39943,0.04216,-80.1726,-0.0533807,
2,0,0,1,0,38631.2,-0.056216,-0.0565969,-48.4746,20,0.00316214,10,0.00274351,-1.31449,1.43975,0.0409792,-77.5417,-0.0565969,
2,0,0,1,0,38631.2,-0.0594121,-0.0598184,-48.2118,20,0.00296879,10,0.00288395,-1.31685,1.47133,0.0400999,-75.4945,-0.0598184,
2,0,0,1,0,38631.2,-0.0626194,-0.0630017,-47.9891,20,0.00277642,10,0.00302339,-1.31886,1.52965,0.0385709,-72.2719,-0.0630017,
2,0,0,1,0,38631.2,-0.0658155,-0.0661925,-47.7581,20,0.00258495,10,0.00316123,-1.32095,1.64418,0.035884,-66.919,-0.0661925,
2,0,0,1,0,38631.2,-0.0690117,-0.0693684,-47.5515,20,0.00239435,10,0.00329858,-1.32284,1.72101,0.0342821,-63.6593,-0.0693684,
2,0,0,1,0,38631.2,-0.0722189,-0.0725603,-47.3591,20,0.00220453,10,0.00343639,-1.3246,1.86001,0.0317203,-58.6564,-0.0725603,
2,0,0,1,0,38631.2,-0.075415,-0.0757955,-47.1746,20,0.00201549,10,0.00357563,-1.32629,2.0474,0.028817,-53.0948,-0.0757955,
2,0,0,1,0,38631.2,-0.0786167,-0.078981,-47.008,20,0.00182714,10,0.00371274,-1.32783,2.25683,0.0261429,-48.0033,-0.078981,
2,0,0,1,0,38631.2,-0.0818184,-0.0821803,-46.8713,20,0.00163941,10,0.0038519,-1.32909,2.66747,0.0221184,-40.4972,-0.0821803,
2,0,0,1,0,38631.2,-0.0850146,-0.0854368,-46.741,20,0.0014522,10,0.0039934,-1.3303,2.96162,0.0199215,-36.3659,-0.0854368,
2,0,0,1,0,38631.2,-0.088219,-0.0886095,-46.6557,20,0.00126543,10,0.00413414,-1.3311,3.48938,0.0169085,-30.7995,-0.0886095,
2,0,0,1,0,38631.2,-0.0914152,-0.0918098,-46.5415,20,0.00107904,10,0.00427297,-1.33216,4.31564,0.0136712,-24.8539,-0.0918098,
2,0,0,1,0,38631.2,-0.0946141,-0.0949688,-46.4774,20,0.000893015,10,0.0044139,-1.33276,5.36807,0.0109909,-19.9578,-0.0949688,
2,0,0,1,0,38631.2,-0.0978158,-0.098167,-46.4246,20,0.000707202,10,0.00455736,-1.33325,9.12459,0.00646605,-11.7258,-0.09816695,
2,0,0,1,0,38631.2,-0.101012,-0.101375,-46.4009,20,0.000521555,10,0.00470388,-1.33347,15.1184,0.00390253,-7.0718,-0.101375,
2,0,0,1,0,38631.2,-0.104219,-0.104611,-46.3914,20,0.000335976,10,0.00485305,-1.33356,51.2896,0.00115033,-2.08358,-0.104611,
2,0,0,1,0,38631.2,-0.107415,-0.107735,-46.3871,20,0.00015041,10,0.00499752,-1.3336,-22.1449,-0.00266427,4.8279,-0.107735,
2,0,0,1,0,38631.2,-0.110611,-0.110951,-46.398,20,-3.51718e-05,10,0.00514791,-1.3335,-11.3507,-0.00519792,9.42309,-0.110951,
2,0,0,1,0,38631.2,-0.113819,-0.114176,-46.4627,20,-0.000220905,10,0.00530492,-1.3329,-6.5342,-0.00902941,16.3834,-0.114176,
2,0,0,1,0,38631.2,-0.117015,-0.117384,-46.5117,20,-0.00040685,10,0.00545972,-1.33244,-4.89053,-0.0120641,21.9116,-0.117384,
2,0,0,1,0,38631.2,-0.120216,-0.120577,-46.5975,20,-0.00059306,10,0.00561857,-1.33164,-4.24604,-0.0138953,25.2837,-0.120577,
2,0,0,1,0,38631.2,-0.123418,-0.123805,-46.6796,20,-0.000779627,10,0.00577919,-1.33087,-3.49277,-0.0168921,30.7924,-0.123805,
2,0,0,1,0,38631.2,-0.126614,-0.126945,-46.7856,20,-0.000966559,10,0.00593921,-1.32989,-3.15621,-0.0186933,34.1543,-0.126945,
2,0,0,1,0,38631.2,-0.129819,-0.130193,-46.9062,20,-0.00115395,10,0.00610687,-1.32877,-2.73883,-0.0215421,39.4559,-0.130193,
2,0,0,1,0,38631.2,-0.133015,-0.1334,-47.0355,20,-0.00134185,10,0.00627454,-1.32757,-2.46851,-0.0239011,43.9025,-0.1334,
2,0,0,1,0,38631.3,-0.136214,-0.136577,-47.1835,20,-0.0015303,10,0.00644419,-1.32621,-2.3703,-0.0248914,45.8505,-0.136577,
2,0,0,1,0,38631.3,-0.139416,-0.13975,-47.3477,20,-0.0017194,10,0.00661683,-1.3247,-2.1526,-0.0274087,50.6576,-0.13975,
2,0,0,1,0,38631.3,-0.142612,-0.142984,-47.4926,20,-0.0019091,10,0.00679069,-1.32337,-2.12115,-0.0278151,51.5757,-0.142984,
2,0,0,1,0,38631.3,-0.145819,-0.146156,-47.6817,20,-0.00209945,10,0.00696895,-1.32165,-2.0345,-0.0289998,53.9764,-0.146156,
2,0,0,1,0,38631.3,-0.149015,-0.149334,-47.8415,20,-0.00229054,10,0.00714434,-1.3202,-1.93514,-0.0304887,56.9425,-0.149334,
2,0,0,1,0,38631.3,-0.152211,-0.152536,-48.0379,20,-0.00248233,10,0.00732752,-1.31842,-1.98028,-0.0297937,55.8571,-0.152536,
2,0,0,1,0,38631.3,-0.155418,-0.155771,-48.2208,20,-0.00267487,10,0.00751142,-1.31677,-1.91813,-0.0307591,57.8752,-0.155771,
2,0,0,1,0,38631.3,-0.158615,-0.158966,-48.3973,20,-0.00286812,10,0.00769354,-1.31518,-1.93382,-0.0305095,57.6355,-0.158966,
2,0,0,1,0,38631.3,-0.161816,-0.162171,-48.5844,20,-0.0030621,10,0.00787898,-1.3135,-1.97314,-0.0299016,56.6939,-0.162171,
2,0,0,1,0,38631.3,-0.165018,-0.165311,-48.7742,20,-0.00325684,10,0.0080629,-1.31181,-1.95261,-0.030216,57.5033,-0.165311,
2,0,0,1,0,38631.3,-0.168214,-0.168559,-48.9458,20,-0.00345229,10,0.00825024,-1.31028,-2.05885,-0.0286568,54.7258,-0.1685589,
2,0,0,1,0,38631.3,-0.171419,-0.171726,-49.131,20,-0.00364846,10,0.00843708,-1.30864,-2.12712,-0.027737,53.1664,-0.171726,
2,0,0,1,0,38631.3,-0.174615,-0.174934,-49.2829,20,-0.0038453,10,0.00862126,-1.3073,-2.19085,-0.0269301,51.7901,-0.174934,
2,0,0,1,0,38631.3,-0.177814,-0.17816,-49.4573,20,-0.00404279,10,0.00881131,-1.30577,-2.31779,-0.0254553,49.121,-0.17816,
2,0,0,1,0,38631.3,-0.181015,-0.18138,-49.6098,20,-0.00424096,10,0.00899824,-1.30443,-2.35382,-0.0250656,48.5132,-0.18138,
2,0,0,1,0,38631.3,-0.184211,-0.184555,-49.7612,20,-0.00443972,10,0.00918368,-1.30311,-2.4723,-0.0238644,46.3378,-0.184555,
2,0,0,1,0,38631.3,-0.187419,-0.187734,-49.9039,20,-0.00463909,10,0.00936867,-1.30187,-2.56276,-0.023022,44.8302,-0.187734,
2,0,0,1,0,38631.3,-0.190615,-0.19096,-50.0504,20,-0.00483901,10,0.00955763,-1.30059,-2.65217,-0.0222459,43.4426,-0.19096,
2,0,0,1,0,38631.3,-0.193811,-0.194159,-50.1827,20,-0.00503949,10,0.00974343,-1.29945,-2.81276,-0.0209758,41.0572,-0.194159,
2,0,0,1,0,38631.3,-0.197018,-0.197334,-50.3163,20,-0.00524051,10,0.00992912,-1.29829,-3.93112,-0.0150084,29.3983,-0.197334,
2,0,0,1,0,38631.3,-0.199647,-0.199945,-50.4052,20,-0.00540673,10,0.0100783,-1.29752,0.2398,0.246039,-469.864,-0.199945,
2,0,0,1,0,38631.3,-0.200134,-0.200513,-50.3313,20,-0.00543697,10,0.0100921,-1.29816,-0.0147327,-4.00471,7201.55,-0.200513,
2,0,0,1,1,38631.3,-0.198935,-0.199433,-47.7049,20,-0.0055097,10,0.00951391,-1.32144,-0.0555638,-1.06184,1813.58,-0.199433,
2,0,0,1,1,38631.3,-0.195739,-0.196191,-42.0842,20,-0.00568818,10,0.00825654,-1.37588,-0.0636385,-0.927111,1507.65,-0.196191,
2,0,0,1,1,38631.3,-0.192535,-0.192958,-37.7328,20,-0.00584713,10,0.00728083,-1.42328,-0.0677895,-0.870341,1312.74,-0.1929578,
2,0,0,1,1,38631.3,-0.189339,-0.189721,-34.0612,20,-0.00599023,10,0.00646214,-1.46774,-0.07226,-0.816496,1099.4,-0.189721,
2,0,0,1,1,38631.4,-0.186137,-0.186568,-30.8167,20,-0.00611956,10,0.0057494,-1.51121,-0.0735071,-0.802643,972.909,-0.1865678,
2,0,0,1,1,38631.4,-0.182935,-0.183279,-27.8893,20,-0.0062366,10,0.00511154,-1.55456,-0.0726059,-0.812606,888.352,-0.183279,
2,0,0,1,1,38631.4,-0.179739,-0.180099,-25.2226,20,-0.00634249,10,0.00454258,-1.59821,-0.0717958,-0.821775,810.417,-0.180099,
2,0,0,1,1,38631.4,-0.176532,-0.17696,-22.725,20,-0.0064381,10,0.00402143,-1.6435,-0.0693845,-0.850334,754.599,-0.1769605,
2,0,0,1,1,38631.4,-0.173336,-0.173753,-20.4312,20,-0.00652414,10,0.00354997,-1.68971,-0.066578,-0.886178,704.989,-0.173753,
2,0,0,1,1,38631.4,-0.17014,-0.170525,-18.2647,20,-0.00660128,10,0.00311459,-1.73839,-0.0632685,-0.932534,661.165,-0.170525,
2,0,0,1,1,38631.4,-0.166932,-0.167313,-16.2084,20,-0.00666998,10,0.00271187,-1.79026,-0.0590866,-0.998534,626.826,-0.167313,
2,0,0,1,1,38631.4,-0.163736,-0.164162,-14.2634,20,-0.00673071,10,0.00234151,-1.84578,-0.054321,-1.08614,598.149,-0.164162,
2,0,0,1,1,38631.4,-0.160532,-0.160946,-12.4037,20,-0.00678383,10,0.00199633,-1.90645,-0.0494615,-1.19285,568.85,-0.160946,
2,0,0,1,1,38631.4,-0.157336,-0.157779,-10.6407,20,-0.00682973,10,0.00167887,-1.97303,-0.0441553,-1.33619,542.158,-0.157779,
2,0,0,1,1,38631.4,-0.154139,-0.154546,-8.94568,20,-0.00686872,10,0.00138252,-2.04839,-0.0381494,-1.54655,521.701,-0.154546,
2,0,0,1,1,38631.4,-0.150935,-0.151321,-7.30122,20,-0.00690103,10,0.00110483,-2.1366,-0.0317191,-1.86008,503.517,-0.1513209,
2,0,0,1,1,38631.4,-0.147739,-0.14816,-5.73305,20,-0.00692691,10,0.000849407,-2.24161,-0.0249638,-2.36342,485.143,-0.14816,
2,0,0,1,1,38631.4,-0.144532,-0.145009,-4.21106,20,-0.00694664,10,0.000610643,-2.37561,-0.0174185,-3.3872,465.869,-0.145009,
2,0,0,1,1,38631.4,-0.141335,-0.141794,-2.75942,20,-0.00696041,10,0.00039127,-2.55918,-0.0057591,-10.2447,450.225,-0.141794,
2,0,0,1,1,38631.4,-0.138139,-0.138543,-1.34838,20,-0.00696847,10,0.000186809,-2.87019,-0.0261785,-2.25376,434.412,-0.138543,
2,0,0,1,1,38631.4,-0.134932,-0.13535,0.034208,20,-0.00697094,10,-4.63006e-06,-4.46587,-0.790096,-0.0746744,422.903,-0.13535,
2,1,0,1,1,38631.4,-0.131736,-0.13218,1.36238,20,-0.006968,10,-0.000180079,-2.8657,0.0276327,2.13516,411.428,-0.13218,
2,1,0,1,1,38631.4,-0.12854,-0.128983,2.6583,20,-0.00695981,10,-0.000342876,-2.5754,0.00586624,10.0576,399.78,-0.128983,
2,1,0,1,1,38631.4,-0.125333,-0.125745,3.91708,20,-0.00694652,10,-0.000492553,-2.40704,0.0191962,3.07353,388.369,-0.125745,
2,1,0,1,1,38631.4,-0.122136,-0.122581,5.13918,20,-0.00692828,10,-0.000629964,-2.28911,0.0283123,2.0839,379.753,-0.122581,
2,1,0,1,1,38631.4,-0.118932,-0.119358,6.34181,20,-0.0069052,10,-0.000756946,-2.19779,0.03689,1.59935,373.053,-0.119358,
2,1,0,1,1,38631.4,-0.115736,-0.116224,7.50391,20,-0.00687739,10,-0.000872131,-2.12471,0.0458578,1.28659,362.032,-0.116224,
2,1,0,1,1,38631.4,-0.11254,-0.113041,8.65622,20,-0.00684495,10,-0.00097851,-2.06267,0.0546087,1.08041,354.386,-0.113041,
2,1,0,1,1,38631.4,-0.109335,-0.109777,9.7744,20,-0.00680795,10,-0.00107301,-2.00991,0.0635484,0.928426,346.237,-0.109777,
2,1,0,1,1,38631.5,-0.106139,-0.106573,10.8728,20,-0.00676653,10,-0.00115874,-1.96366,0.0727102,0.811441,338.188,-0.106573,
2,1,0,1,1,38631.5,-0.102932,-0.103379,11.9512,20,-0.00672078,10,-0.0012355,-1.92259,0.0815643,0.723355,332.304,-0.103379,
2,1,0,1,1,38631.5,-0.0997357,-0.100211,12.9951,20,-0.00667078,10,-0.00130226,-1.88622,0.0908718,0.649266,325.375,-0.100211,
2,1,0,1,1,38631.5,-0.0965395,-0.096992,14.023,20,-0.00661662,10,-0.00136012,-1.85316,0.101201,0.582997,315.79,-0.096992,
2,1,0,1,1,38631.5,-0.0933323,-0.0937854,15.0335,20,-0.00655841,10,-0.00140992,-1.82294,0.110803,0.532475,309.619,-0.09378536,
2,1,0,1,1,38631.5,-0.0901361,-0.0905437,16.0044,20,-0.00649621,10,-0.0014491,-1.79576,0.120592,0.489254,303.438,-0.0905437,
2,1,0,1,1,38631.5,-0.0869345,-0.0873381,16.981,20,-0.00643015,10,-0.00148308,-1.77004,0.130645,0.451606,297.206,-0.0873381,
2,1,0,1,1,38631.5,-0.0837328,-0.0841505,17.9196,20,-0.00636024,10,-0.00150795,-1.74667,0.14099,0.41847,290.747,-0.0841505,
2,1,0,1,1,38631.5,-0.0805366,-0.0809937,18.8352,20,-0.00628663,10,-0.00152553,-1.72503,0.15182,0.388617,284.139,-0.08099366,
2,1,0,1,1,38631.5,-0.0773322,-0.0777265,19.731,20,-0.00620942,10,-0.00153362,-1.70485,0.163695,0.360426,276.238,-0.0777265,
2,1,0,1,1,38631.5,-0.074136,-0.0745835,20.605,20,-0.00612866,10,-0.0015368,-1.68603,0.175065,0.337018,269.946,-0.0745835,
2,1,0,1,1,38631.5,-0.0709371,-0.0713217,21.4634,20,-0.00604443,10,-0.00153081,-1.6683,0.185024,0.318877,266.147,-0.0713217,
2,1,0,1,1,38631.5,-0.0677354,-0.0681193,22.3106,20,-0.00595677,10,-0.00151978,-1.65149,0.19735,0.298961,259.39,-0.0681193,
2,1,0,1,1,38631.5,-0.0645393,-0.0649497,23.1315,20,-0.00586579,10,-0.00150238,-1.6358,0.208926,0.282396,254.031,-0.0649497,
2,1,0,1,1,38631.5,-0.0613321,-0.0617186,23.942,20,-0.00577157,10,-0.00147767,-1.62084,0.221058,0.266899,248.57,-0.06171865,
2,1,0,1,1,38631.5,-0.0581359,-0.0585332,24.7121,20,-0.00567418,10,-0.00144648,-1.60709,0.234824,0.251252,241.731,-0.0585332,
2,1,0,1,1,38631.5,-0.0549398,-0.0553392,25.4874,20,-0.0055737,10,-0.00141045,-1.59368,0.246556,0.239296,237.483,-0.05533924,
2,1,0,1,1,38631.5,-0.0517325,-0.0520965,26.2385,20,-0.00547014,10,-0.00136693,-1.58106,0.260737,0.226282,231.06,-0.0520965,
2,1,0,1,1,38631.5,-0.0485364,-0.0489397,26.9768,20,-0.00536364,10,-0.00132024,-1.56901,0.275788,0.213933,224.623,-0.0489397,
2,1,0,1,1,38631.5,-0.0453347,-0.0457203,27.6727,20,-0.00525427,10,-0.0012652,-1.55795,0.289713,0.20365,219.484,-0.0457203,
2,1,0,1,1,38631.5,-0.042133,-0.0424977,28.3719,20,-0.00514211,10,-0.00120574,-1.54711,0.305128,0.193362,213.734,-0.0424977,
2,1,0,1,1,38631.5,-0.0389369,-0.0393313,29.0403,20,-0.00502722,10,-0.00114219,-1.537,0.319364,0.184742,208.99,-0.0393313,
2,1,0,1,1,38631.5,-0.0357324,-0.0361374,29.7131,20,-0.00490964,10,-0.00107375,-1.52705,0.336337,0.175419,202.938,-0.0361374,
2,1,0,1,1,38631.5,-0.0325363,-0.0329509,30.3413,20,-0.00478948,10,-0.000999773,-1.51797,0.354968,0.166212,196.4,-0.0329509,
2,1,0,1,1,38631.5,-0.0293374,-0.0297855,30.9516,20,-0.00466684,10,-0.000921912,-1.50932,0.378798,0.155756,187.864,-0.0297855,
2,1,0,1,1,38631.6,-0.0261357,-0.0265587,31.5488,20,-0.00454175,10,-0.000837896,-1.50102,0.3954,0.149216,183.472,-0.0265587,
2,1,0,1,1,38631.6,-0.0229395,-0.0232757,32.1294,20,-0.00441434,10,-0.000747834,-1.4931,0.413765,0.142593,178.545,-0.0232757,
2,1,0,1,1,38631.6,-0.0197323,-0.0200977,32.6995,20,-0.00428461,10,-0.000657185,-1.48546,0.438298,0.134612,171.447,-0.0200977,
2,1,0,1,1,38631.6,-0.0165361,-0.0169504,33.2433,20,-0.00415267,10,-0.000563487,-1.4783,0.454821,0.129721,168.015,-0.0169504,
2,1,0,1,1,38631.6,-0.01334,-0.0137437,33.7459,20,-0.00401862,10,-0.000463794,-1.47178,0.484624,0.121744,160.184,-0.0137437,
2,1,0,1,1,38631.6,-0.0101328,-0.0105434,34.2686,20,-0.00388251,10,-0.000361308,-1.4651,0.507046,0.11636,155.442,-0.0105434,
2,1,0,1,1,38631.6,-0.00693663,-0.00730386,34.7489,20,-0.00374442,10,-0.000253801,-1.45906,0.52701,0.111952,151.557,-0.00730386,
2,1,0,1,1,38631.6,-0.00373494,-0.00413749,35.235,20,-0.00360441,10,-0.000145784,-1.45303, , , ,-0.00413749,
2,1,0,1,1,38631.6,-0.000774628,-0.00119698,35.6475,20,-0.00347326,10,-4.26692e-05,-1.44797, , , ,-0.00119698,
2,1,0,0,1,38631.6,-0.000125413,-0.000458935,35.7461,20,-0.00344471,10,-1.64051e-05,-1.44677, , , ,-0.000458935,