File: Figure_codes/Fig_3-5/rawdata_trumpetplot_data/after 10th/20221101_1-115_003_TrumpetPlot_ParaChange_from10_every3_04_CV_C01_13.csv
mode,ox/red,error,control changes,counter inc.,time/s,control/V,Ewe/V,<I>/mA,cycle number,(Q-Qo)/C,I Range,P/W,log(|I|),Tafel slope mV/dec,alpha_eff,dI/d(E-IR),E-IR/V,
2,0,0,1,0,26671.7,2.44065e-05,-0.000325324,-0.381156,14,0.0000000E+000,10,1.23999e-07,-3.4189, , , ,-0.000325324,
2,1,0,1,0,26671.8,0.00129787,0.000920654,0.165201,14,1.71449e-06,10,1.52093e-07,-3.78199, , , ,0.000920654,
2,1,0,1,0,26672,0.00279606,0.00248157,0.291713,14,4.06512e-05,10,7.23906e-07,-3.53504,0.00588835,10.0198,65.3509,0.00248157,
2,1,0,1,0,26672.1,0.00429425,0.00397675,0.325611,14,8.95082e-05,10,1.29487e-06,-3.4873,0.0336553,1.75307,21.3477,0.00397675,
2,1,0,1,0,26672.3,0.00579244,0.00548146,0.347887,14,0.000142725,10,1.90693e-06,-3.45856,0.0491939,1.19933,16.1363,0.00548146,
2,1,0,1,0,26672.4,0.00729063,0.00700103,0.372901,14,0.000199422,10,2.61069e-06,-3.42841,0.0660242,0.893612,12.8166,0.00700103,
2,1,0,1,0,26672.6,0.00878882,0.0084909,0.390604,14,0.000259217,10,3.31658e-06,-3.40826,0.0790901,0.745984,11.2481,0.0084909,
2,1,0,1,0,26672.7,0.010287,0.00999667,0.404841,14,0.000321454,10,4.04706e-06,-3.39272,0.0984054,0.599561,9.41425,0.009996674,
2,1,0,1,0,26672.9,0.0117852,0.0115003,0.419155,14,0.000385888,10,4.82042e-06,-3.37763,0.106541,0.553779,9.03148,0.01150033,
2,1,0,1,0,26673,0.0132838,0.0129434,0.430399,14,0.000452171,10,5.57084e-06,-3.36613,0.108014,0.546224,9.24805,0.01294343,
2,1,0,1,0,26673.2,0.0147814,0.0144554,0.445388,14,0.000520504,10,6.43828e-06,-3.35126,0.118179,0.499242,8.64626,0.0144554,
2,1,0,1,0,26673.3,0.0162789,0.0159827,0.456785,14,0.00059078,10,7.30066e-06,-3.34029,0.143816,0.410247,7.28194,0.0159827,
2,1,0,1,0,26673.5,0.017778,0.0174598,0.467469,14,0.000662734,10,8.16193e-06,-3.33025,0.158246,0.372838,6.80364,0.0174598,
2,1,0,1,0,26673.6,0.0192761,0.0189232,0.477746,14,0.00073598,10,9.04047e-06,-3.3208,0.148644,0.396922,7.41796,0.0189232,
2,1,0,1,0,26673.8,0.0207743,0.0204639,0.490514,14,0.000811161,10,1.00378e-05,-3.30935,0.135259,0.436199,8.3171,0.0204639,
2,1,0,1,0,26673.9,0.0222725,0.0219655,0.500993,14,0.000888021,10,1.10046e-05,-3.30017,0.167797,0.351616,6.87162,0.0219655,
2,1,0,1,0,26674.1,0.0237707,0.023467,0.511126,14,0.000966511,10,1.19946e-05,-3.29147,0.174792,0.337543,6.741,0.023467,
2,1,0,1,0,26674.2,0.0252689,0.0249325,0.520554,14,0.00104634,10,1.29787e-05,-3.28353,0.167989,0.351213,7.17201,0.0249325,
2,1,0,1,0,26674.4,0.0267671,0.0264393,0.532439,14,0.0011278,10,1.40773e-05,-3.27373,0.154517,0.381834,7.93384,0.0264393,
2,1,0,1,0,26674.5,0.0282662,0.0279059,0.544596,14,0.00121107,10,1.51974e-05,-3.26393,0.168878,0.349365,7.38489,0.0279059,
2,1,0,1,0,26674.7,0.0297635,0.0294403,0.554231,14,0.00129593,10,1.63167e-05,-3.25631,0.183575,0.321395,6.93917,0.0294403,
2,1,0,1,0,26674.8,0.031261,0.0309329,0.562178,14,0.0013821,10,1.73898e-05,-3.25013,0.186147,0.316954,6.97694,0.0309329,
2,1,0,1,0,26675,0.0327599,0.0324349,0.575035,14,0.00146988,10,1.86512e-05,-3.24031,0.168888,0.349343,7.84631,0.0324349,
2,1,0,1,0,26675.1,0.034258,0.0339491,0.585815,14,0.00155934,10,1.98879e-05,-3.23224,0.175428,0.336321,7.67036,0.03394914,
2,1,0,1,0,26675.3,0.0357562,0.035456,0.595615,14,0.00165053,10,2.11181e-05,-3.22503,0.222369,0.265325,6.16548,0.035456,
2,1,0,1,0,26675.4,0.0372544,0.0368653,0.607243,14,0.00174321,10,2.23862e-05,-3.21664,0.207931,0.283748,6.725,0.0368653,
2,1,0,1,0,26675.6,0.0387526,0.0384431,0.615255,14,0.00183728,10,2.36524e-05,-3.21094,0.20173,0.29247,7.06642,0.0384431,
2,1,0,1,0,26675.7,0.0402508,0.0399532,0.627378,14,0.00193311,10,2.50657e-05,-3.20247,0.197744,0.298365,7.30084,0.0399532,
2,1,0,1,0,26675.9,0.041749,0.0413911,0.64034,14,0.00203084,10,2.65044e-05,-3.19359,0.214745,0.274745,6.84672,0.0413911,
2,1,0,1,0,26676,0.0432472,0.0429403,0.65002,14,0.0021299,10,2.79121e-05,-3.18707,0.234994,0.25107,6.35689,0.0429403,
2,1,0,1,0,26676.2,0.0447458,0.0444109,0.660058,14,0.00223037,10,2.93138e-05,-3.18042,0.222705,0.264924,6.82009,0.0444109,
2,1,0,1,0,26676.3,0.0462433,0.0459506,0.668159,14,0.0023323,10,3.07023e-05,-3.17512,0.212551,0.277581,7.23112,0.0459506,
2,1,0,1,0,26676.5,0.0477409,0.0474315,0.679095,14,0.00243579,10,3.22105e-05,-3.16807,0.242294,0.243505,6.44916,0.0474315,
2,1,0,1,0,26676.6,0.0492399,0.0489433,0.686397,14,0.00254077,10,3.35945e-05,-3.16342,0.246986,0.23888,6.40649,0.0489433,
2,1,0,1,0,26676.8,0.0507381,0.0503876,0.694489,14,0.00264686,10,3.49936e-05,-3.15833,0.263831,0.223628,6.08049,0.0503876,
2,1,0,1,0,26676.9,0.0522363,0.0518711,0.704206,14,0.00275435,10,3.65279e-05,-3.1523,0.234529,0.251568,6.91988,0.0518711,
2,1,0,1,0,26677.1,0.0537345,0.053433,0.716741,14,0.00286341,10,3.82977e-05,-3.14464,0.267446,0.220605,6.15265,0.053433,
2,1,0,1,0,26677.2,0.0552327,0.0548741,0.723652,14,0.00297389,10,3.97098e-05,-3.14047,0.319579,0.184618,5.19236,0.0548741,
2,1,0,1,0,26677.4,0.0567309,0.0564128,0.729341,14,0.00308551,10,4.11441e-05,-3.13707,0.326394,0.180763,5.1646,0.0564128,
2,1,0,1,0,26677.5,0.0582291,0.0578783,0.740121,14,0.00319811,10,4.28369e-05,-3.1307,0.313047,0.18847,5.44666,0.0578783,
2,1,0,1,0,26677.7,0.0597282,0.0594116,0.750144,14,0.0033124,10,4.45673e-05,-3.12486,0.273796,0.215489,6.30281,0.05941163,
2,1,0,1,0,26677.8,0.0612255,0.0608991,0.75769,14,0.00342799,10,4.61426e-05,-3.12051,0.374872,0.157387,4.64114,0.0608991,
2,1,0,1,0,26678,0.062723,0.0623623,0.765441,14,0.00354482,10,4.77346e-05,-3.11609,0.332984,0.177185,5.30669,0.0623623,
2,1,0,1,0,26678.1,0.0642218,0.0639141,0.771316,14,0.00366241,10,4.9298e-05,-3.11277,0.297858,0.198081,5.9898,0.0639141,
2,1,0,1,0,26678.3,0.06572,0.0653722,0.780223,14,0.00378137,10,5.10049e-05,-3.10778,0.286926,0.205628,6.26307,0.0653722,
2,1,0,1,0,26678.4,0.0672182,0.0669055,0.789431,14,0.00390179,10,5.28173e-05,-3.10269,0.391722,0.150617,4.61781,0.0669055,
2,1,0,1,0,26678.6,0.0687164,0.0683509,0.796566,14,0.00402319,10,5.4446e-05,-3.09878,0.541032,0.109051,3.38568,0.0683509,
2,1,0,1,0,26678.7,0.0702146,0.0698948,0.800026,14,0.00414515,10,5.59176e-05,-3.0969,0.437317,0.134914,4.21685,0.0698948,
2,1,0,1,0,26678.9,0.0717128,0.071356,0.80802,14,0.00426835,10,5.76571e-05,-3.09258,0.329147,0.179251,5.64681,0.071356,
2,1,0,1,0,26679,0.073211,0.0728608,0.814404,14,0.00439248,10,5.93381e-05,-3.08916,0.440758,0.13386,4.25905,0.0728608,
2,1,0,1,0,26679.2,0.0747092,0.0744132,0.820926,14,0.0045176,10,6.10878e-05,-3.0857,0.505025,0.116826,3.74378,0.0744132,
2,1,0,1,0,26679.3,0.0762078,0.0758665,0.823789,14,0.00464347,10,6.2498e-05,-3.08418,0.466452,0.126487,4.07514,0.07586652,
2,1,0,1,0,26679.5,0.0777053,0.0773621,0.831677,14,0.00477006,10,6.43403e-05,-3.08005,0.394636,0.149505,4.85767,0.0773621,
2,1,0,1,0,26679.6,0.0792029,0.0788819,0.838689,14,0.00489764,10,6.61574e-05,-3.0764,0.458985,0.128545,4.19154,0.0788819,
2,1,0,1,0,26679.8,0.0807019,0.0803812,0.843426,14,0.00502639,10,6.77956e-05,-3.07395,0.640275,0.0921479,3.02848,0.0803812,
2,1,0,1,0,26679.9,0.0822001,0.0818816,0.847071,14,0.00515576,10,6.93596e-05,-3.07208,0.462755,0.127497,4.22581,0.0818816,
2,1,0,1,0,26680.1,0.0836983,0.083362,0.855888,14,0.00528584,10,7.13485e-05,-3.06758,0.478693,0.123252,4.11832,0.083362,
2,1,0,1,0,26680.2,0.0851965,0.0848752,0.861312,14,0.00541715,10,7.3104e-05,-3.06484,0.405792,0.145395,4.89211,0.0848752,
2,1,0,1,0,26680.4,0.0866947,0.0863703,0.869939,14,0.0055496,10,7.51369e-05,-3.06051,0.480817,0.122708,4.16419,0.0863703,
2,1,0,1,0,26680.5,0.0881929,0.0878422,0.878558,14,0.00568308,10,7.71744e-05,-3.05623,0.386915,0.152488,5.22923,0.0878422,
2,1,0,1,0,26680.7,0.0896911,0.0893861,0.886479,14,0.00581758,10,7.92389e-05,-3.05233,0.288163,0.204745,7.09898,0.0893861,
2,1,0,1,0,26680.8,0.0911902,0.0908218,0.897607,14,0.00595376,10,8.15223e-05,-3.04691,0.279186,0.211329,7.39436,0.0908218,
2,1,0,1,0,26681,0.0926875,0.0923921,0.910577,14,0.00609182,10,8.41302e-05,-3.04068,0.251469,0.234621,8.33056,0.0923921,
2,1,0,1,0,26681.1,0.094185,0.0938505,0.920818,14,0.00623158,10,8.64192e-05,-3.03583,0.275401,0.214233,7.7011,0.0938505,
2,1,0,1,0,26681.3,0.0956838,0.095299,0.931304,14,0.00637286,10,8.87523e-05,-3.03091,0.246582,0.239272,8.74313,0.095299,
2,1,0,1,0,26681.4,0.097182,0.0968546,0.947358,14,0.00651623,10,9.1756e-05,-3.02349,0.198303,0.297525,10.9863,0.0968546,
2,1,0,1,0,26681.6,0.0986802,0.0983254,0.963948,14,0.00666207,10,9.47806e-05,-3.01595,0.204068,0.28912,10.8806,0.0983254,
2,1,0,1,0,26681.7,0.100178,0.0998184,0.979133,14,0.00681031,10,9.77355e-05,-3.00916,0.215917,0.273253,10.45,0.0998184,
2,1,0,1,0,26681.9,0.101677,0.101355,0.993618,14,0.00696096,10,0.000100708,-3.00278,0.196411,0.30039,11.6989,0.101355,
2,1,0,1,0,26682,0.103175,0.102845,1.01434,14,0.00711419,10,0.000104319,-2.99382,0.196518,0.300227,11.9128,0.1028448,
2,1,0,1,0,26682.2,0.104673,0.104395,1.03594,14,0.00727024,10,0.000108147,-2.98466,0.19005,0.310445,12.5061,0.104395,
2,1,0,1,0,26682.3,0.106171,0.105849,1.05122,14,0.00742913,10,0.00011127,-2.97831,0.227799,0.259,10.5959,0.105849,
2,1,0,1,0,26682.5,0.10767,0.107338,1.06691,14,0.00759057,10,0.000114521,-2.97187,0.227483,0.25936,10.8003,0.107338,
2,1,0,1,0,26682.6,0.109167,0.108872,1.08285,14,0.00775415,10,0.000117892,-2.96543,0.227434,0.259415,10.9737,0.108872,
2,1,0,1,0,26682.8,0.110665,0.11032,1.09752,14,0.00792023,10,0.000121079,-2.95959,0.248343,0.237575,10.185,0.11032,
2,1,0,1,0,26682.9,0.112164,0.111892,1.11251,14,0.0080889,10,0.000124481,-2.9537,0.302053,0.19533,8.469,0.111892,
2,1,0,1,0,26683.1,0.113662,0.113344,1.12763,14,0.00825948,10,0.00012781,-2.94783,0.324072,0.182059,7.99396,0.113344,
2,1,0,1,0,26683.2,0.11516,0.114791,1.13821,14,0.00843155,10,0.000130656,-2.94378,0.34975,0.168692,7.48411,0.114791,
2,1,0,1,0,26683.4,0.116658,0.116355,1.15051,14,0.00860556,10,0.000133868,-2.93911,0.327952,0.179904,8.05169,0.116355,
2,1,0,1,0,26683.5,0.118157,0.117858,1.16155,14,0.00878148,10,0.000136898,-2.93496,0.418089,0.141118,6.38183,0.117858,
2,1,0,1,0,26683.7,0.119655,0.119315,1.16955,14,0.00895865,10,0.000139545,-2.93198,0.608001,0.0970394,4.42729,0.119315,
2,1,0,1,0,26683.8,0.121153,0.120838,1.1749,14,0.00913681,10,0.000141973,-2.93,0.478119,0.1234,5.67773,0.120838,
2,1,0,1,0,26684,0.122652,0.122322,1.18565,14,0.00931633,10,0.000145031,-2.92605,0.404594,0.145825,6.74139,0.122322,
2,1,0,1,0,26684.1,0.124149,0.123834,1.19508,14,0.00949724,10,0.000147991,-2.9226,0.444569,0.132713,6.18185,0.123834,
2,1,0,1,0,26684.3,0.125647,0.125313,1.20408,14,0.00967945,10,0.000150887,-2.91934,0.500062,0.117985,5.53189,0.125313,
2,1,0,1,0,26684.4,0.127146,0.126825,1.20568,14,0.00986294,10,0.00015291,-2.91877,0.611536,0.0964784,4.55113,0.126825,
2,1,0,1,0,26684.6,0.128644,0.128329,1.2171,14,0.0100472,10,0.000156188,-2.91467,0.651284,0.0905903,4.30395,0.1283285,
2,1,0,1,0,26684.7,0.130142,0.129826,1.22536,14,0.0102327,10,0.000159084,-2.91174,0.778654,0.0757717,3.60859,0.129826,
2,1,0,1,0,26684.9,0.13164,0.131319,1.2267,14,0.0104192,10,0.000161089,-2.91126,16.9139,0.00348825,0.1665,0.131319,
2,1,0,1,0,26685,0.133139,0.132853,1.23023,14,0.010606,10,0.000163441,-2.91001,-3.72897,-0.015822,-0.757603,0.132853,
2,1,0,1,0,26685.2,0.134637,0.134258,1.22647,14,0.0107923,10,0.000164664,-2.91134,-0.669454,-0.0881315,-4.20809,0.134258,
2,1,0,1,0,26685.3,0.136135,0.135834,1.21989,14,0.0109781,10,0.000165703,-2.91368,-0.430613,-0.137014,-6.48721,0.135834,
2,1,0,1,0,26685.5,0.137633,0.13735,1.20638,14,0.0111624,10,0.000165697,-2.91851,-0.244477,-0.241332,-11.2907,0.13735,
2,1,0,1,0,26685.6,0.139132,0.13882,1.18916,14,0.0113443,10,0.000165079,-2.92476,-0.178475,-0.330579,-15.2184,0.13882,
2,1,0,1,0,26685.8,0.140629,0.140327,1.15777,14,0.0115224,10,0.000162467,-2.93638,-0.136647,-0.431771,-19.4247,0.140327,
2,1,0,1,0,26685.9,0.142127,0.141816,1.12683,14,0.0116963,10,0.000159802,-2.94814,-0.116715,-0.505507,-22.1287,0.141816,
2,1,0,1,0,26686.1,0.143626,0.143268,1.09096,14,0.0118654,10,0.0001563,-2.96219,-0.0964413,-0.611771,-25.9127,0.143268,
2,1,0,1,0,26686.2,0.145124,0.144791,1.04977,14,0.0120283,10,0.000151997,-2.97891,-0.0805051,-0.732873,-29.9233,0.144791,
2,1,0,1,0,26686.4,0.146622,0.146308,1.00066,14,0.0121844,10,0.000146404,-2.99971,-0.0743288,-0.79377,-31.0585,0.146308,
2,1,0,1,0,26686.5,0.14812,0.147804,0.957349,14,0.0123338,10,0.0001415,-3.01893,-0.0731598,-0.806453,-30.072,0.147804,
2,1,0,1,0,26686.7,0.149619,0.149307,0.910919,14,0.0124763,10,0.000136006,-3.04052,-0.0693333,-0.850962,-30.2884,0.149307,
2,1,0,1,0,26686.8,0.151117,0.150792,0.867483,14,0.0126122,10,0.00013081,-3.06174,-0.0687853,-0.857742,-29.0774,0.150792,
2,1,0,1,0,26687,0.152615,0.152318,0.824719,14,0.0127415,10,0.00012562,-3.08369,-0.0723523,-0.815454,-26.3757,0.152318,
2,1,0,1,0,26687.1,0.154114,0.153825,0.791236,14,0.012865,10,0.000121712,-3.10169,-0.0798437,-0.738944,-22.9142,0.153825,
2,1,0,1,0,26687.3,0.155612,0.155289,0.758773,14,0.0129835,10,0.000117829,-3.11989,-0.0862057,-0.68441,-20.3243,0.155289,
2,1,0,1,0,26687.4,0.157109,0.156778,0.728236,14,0.0130976,10,0.000114171,-3.13773,-0.0917762,-0.642868,-18.3615,0.156778,
2,1,0,1,0,26687.6,0.158608,0.158308,0.704618,14,0.0132077,10,0.000111547,-3.15205,-0.106429,-0.554361,-15.3342,0.158308,
2,1,0,1,0,26687.7,0.160106,0.159788,0.68541,14,0.0133141,10,0.00010952,-3.16405,-0.119572,-0.493425,-13.2483,0.159788,
2,1,0,1,0,26687.9,0.161604,0.16126,0.667584,14,0.0134179,10,0.000107655,-3.17549,-0.137162,-0.43015,-11.2093,0.16126,
2,1,0,1,0,26688,0.163102,0.162781,0.652637,14,0.0135192,10,0.000106237,-3.18533,-0.154004,-0.383107,-9.76215,0.162781,
2,1,0,1,0,26688.2,0.164601,0.164306,0.638683,14,0.0136184,10,0.000104939,-3.19471,-0.17692,-0.333484,-8.3135,0.164306,
2,1,0,1,0,26688.3,0.166099,0.16577,0.625968,14,0.0137156,10,0.000103767,-3.20345,-0.194774,-0.302916,-7.42276,0.16577,
2,1,0,1,0,26688.5,0.167597,0.167278,0.615382,14,0.0138111,10,0.00010294,-3.21086,-0.262254,-0.224972,-5.41012,0.1672783,
2,1,0,1,0,26688.6,0.169095,0.168757,0.60992,14,0.0139054,10,0.000102928,-3.21473,-0.285557,-0.206614,-4.91493,0.168757,
2,1,0,1,0,26688.8,0.170594,0.170278,0.599604,14,0.0139985,10,0.000102099,-3.22214,-0.261147,-0.225927,-5.29432,0.170278,
2,1,0,1,0,26688.9,0.172091,0.171763,0.590992,14,0.0140904,10,0.000101511,-3.22842,-0.324928,-0.181579,-4.21285,0.171763,
2,1,0,1,0,26689.1,0.173589,0.173271,0.58455,14,0.0141811,10,0.000101285,-3.23318,-0.392541,-0.150303,-3.44022,0.1732709,
2,1,0,1,0,26689.2,0.175088,0.174739,0.581993,14,0.0142712,10,0.000101697,-3.23508,-0.371922,-0.158636,-3.59992,0.174739,
2,1,0,1,0,26689.4,0.176586,0.176284,0.576346,14,0.0143604,10,0.000101601,-3.23932,-0.41833,-0.141037,-3.16529,0.176284,
2,1,0,1,0,26689.5,0.178084,0.177765,0.569841,14,0.0144489,10,0.000101298,-3.24425,-0.403842,-0.146097,-3.26735,0.177765,
2,1,0,1,0,26689.7,0.179582,0.179277,0.566461,14,0.0145366,10,0.000101553,-3.24683,-0.445654,-0.13239,-2.93585,0.179277,
2,1,0,1,0,26689.8,0.181081,0.180786,0.564308,14,0.0146239,10,0.000102019,-3.24848,-0.584801,-0.100889,-2.22458,0.180786,
2,1,0,1,0,26690,0.182579,0.182233,0.560831,14,0.0147108,10,0.000102202,-3.25117,-0.415964,-0.141839,-3.09609,0.1822332,
2,1,0,1,0,26690.1,0.184077,0.18376,0.557459,14,0.0147971,10,0.000102439,-3.25379,-0.531596,-0.110987,-2.42126,0.18376,
2,1,0,1,0,26690.3,0.185576,0.185242,0.554696,14,0.0148827,10,0.000102753,-3.25594,-0.561107,-0.105149,-2.27508,0.185242,
2,1,0,1,0,26690.4,0.187074,0.186765,0.554585,14,0.0149681,10,0.000103577,-3.25603,-1.82479,-0.0323325,-0.697554,0.186765,
2,1,0,1,0,26690.6,0.188571,0.188214,0.54927,14,0.0150531,10,0.00010338,-3.26021,-0.807006,-0.0731097,-1.5699,0.188214,
2,1,0,1,0,26690.7,0.19007,0.189758,0.547639,14,0.0151379,10,0.000103919,-3.26151,-0.990074,-0.0595915,-1.27512,0.189758,
2,1,0,1,0,26690.9,0.191568,0.191235,0.544167,14,0.0152221,10,0.000104064,-3.26427,-0.8935,-0.0660324,-1.40628,0.191235,
2,1,0,1,0,26691,0.193066,0.192751,0.542789,14,0.0153061,10,0.000104623,-3.26537,-2.03023,-0.0290608,-0.616271,0.192751,
2,1,0,1,0,26691.2,0.194564,0.194221,0.54339,14,0.01539,10,0.000105538,-3.26489,-0.86,-0.0686047,-1.45278,0.194221,
2,1,0,1,0,26691.3,0.196063,0.195761,0.540866,14,0.0154735,10,0.00010588,-3.26691,-0.818681,-0.0720672,-1.52553,0.195761,
2,1,0,1,0,26691.5,0.197561,0.197251,0.535322,14,0.0155567,10,0.000105593,-3.27139,-0.78868,-0.0748085,-1.56672,0.197251,
2,1,0,1,0,26691.6,0.199059,0.198688,0.538201,14,0.0156395,10,0.000106934,-3.26906,-1.02991,-0.0572865,-1.20136,0.198688,
2,1,0,1,0,26691.8,0.200557,0.20023,0.536047,14,0.0157222,10,0.000107333,-3.2708,-1.4003,-0.0421338,-0.878439,0.20023,
2,1,0,1,0,26691.9,0.202056,0.201749,0.535564,14,0.0158049,10,0.000108049,-3.27119,-0.99012,-0.0595887,-1.23971,0.201749,
2,1,0,1,0,26692.1,0.203553,0.203281,0.530517,14,0.0158871,10,0.000107844,-3.2753,-1.06822,-0.0552322,-1.14746,0.203281,
2,1,0,1,0,26692.2,0.205051,0.204721,0.530593,14,0.015969,10,0.000108623,-3.27524,2.23648,0.0263807,0.550926,0.204721,
2,1,0,1,0,26692.4,0.20655,0.206196,0.528823,14,0.016051,10,0.000109041,-3.27669,-3.27371,-0.0180224,-0.372854,0.206196,
2,1,0,1,0,26692.5,0.208048,0.207742,0.528098,14,0.016133,10,0.000109708,-3.27729,-0.871366,-0.0677098,-1.39466,0.207742,
2,1,0,1,0,26692.7,0.209546,0.209231,0.526862,14,0.0162146,10,0.000110236,-3.2783,-0.669018,-0.088189,-1.81434,0.209231,
2,1,0,1,0,26692.8,0.211044,0.210726,0.526352,14,0.0162957,10,0.000110916,-3.27872,-1.1582,-0.0509411,-1.04424,0.210726,
2,1,0,1,0,26693,0.212543,0.212226,0.525054,14,0.0163769,10,0.00011143,-3.2798,-1.23234,-0.0478762,-0.979136,0.212226,
2,1,0,1,0,26693.1,0.214041,0.21375,0.52458,14,0.0164579,10,0.000112129,-3.28019,-1.06412,-0.0554447,-1.13304,0.21375,
2,1,0,1,0,26693.3,0.215539,0.215226,0.521461,14,0.0165387,10,0.000112232,-3.28278,-0.92225,-0.063974,-1.30376,0.215226,
2,1,0,1,0,26693.4,0.217038,0.216727,0.519942,14,0.0166192,10,0.000112685,-3.28405,-1.29041,-0.045722,-0.931915,0.216727,
2,1,0,1,0,26693.6,0.218535,0.218264,0.518059,14,0.0166996,10,0.000113074,-3.28562,-50.4375,-0.00116976,-0.0237231,0.218264,
2,1,0,1,0,26693.7,0.220033,0.219747,0.517897,14,0.0167799,10,0.000113806,-3.28576,-1.47398,-0.0400277,-0.811431,0.2197466,
2,1,0,1,0,26693.9,0.221532,0.221245,0.51617,14,0.0168602,10,0.0001142,-3.28721,-0.889469,-0.0663317,-1.33934,0.2212445,
2,1,0,1,0,26694,0.22303,0.222713,0.514945,14,0.0169401,10,0.000114685,-3.28824,-1.48945,-0.039612,-0.798289,0.222713,
2,1,0,1,0,26694.2,0.224528,0.224259,0.516476,14,0.0170199,10,0.000115825,-3.28695,-1.2983,-0.0454442,-0.913522,0.224259,
2,1,0,1,0,26694.3,0.226026,0.225734,0.515566,14,0.0170996,10,0.000116381,-3.28772,-2.8518,-0.0206887,-0.415573,0.225734,
2,1,0,1,0,26694.5,0.227525,0.227212,0.513673,14,0.0171792,10,0.000116713,-3.28931,-0.965276,-0.0611224,-1.22414,0.227212,
2,1,0,1,0,26694.6,0.229023,0.22872,0.513287,14,0.0172585,10,0.000117399,-3.28964,-1.04907,-0.0562401,-1.12719,0.22872,
2,1,0,1,0,26694.8,0.230521,0.2302,0.513988,14,0.0173377,10,0.00011832,-3.28905,-2.2397,-0.0263429,-0.527279,0.2302,
2,1,0,1,0,26694.9,0.232019,0.231684,0.511297,14,0.0174168,10,0.000118459,-3.29133,-2.29516,-0.0257063,-0.512979,0.231684,
2,1,0,1,0,26695.1,0.233518,0.233266,0.510871,14,0.017496,10,0.000119169,-3.29169,-1.20167,-0.0490983,-0.976835,0.233266,
2,1,0,1,0,26695.2,0.235015,0.234724,0.510608,14,0.0175749,10,0.000119852,-3.29191,-1.94099,-0.0303968,-0.605109,0.2347241,
2,1,0,1,0,26695.4,0.236513,0.236199,0.509458,14,0.0176535,10,0.000120333,-3.29289,-1.95779,-0.0301361,-0.59821,0.236199,
2,1,0,1,0,26695.5,0.238012,0.237707,0.507159,14,0.0177321,10,0.000120556,-3.29486,-2.64308,-0.0223224,-0.441634,0.237707,
2,1,0,1,0,26695.7,0.23951,0.239237,0.507121,14,0.0178107,10,0.000121322,-3.29489,-2.06329,-0.0285951,-0.565525,0.239237,
2,1,0,1,0,26695.8,0.241008,0.240682,0.505761,14,0.017889,10,0.000121727,-3.29605,-1.86989,-0.0315527,-0.62407,0.240682,
2,1,0,1,0,26696,0.242506,0.242197,0.503125,14,0.0179672,10,0.000121855,-3.29832,-1.32245,-0.0446142,-0.881647,0.242197,
2,1,0,1,0,26696.1,0.244005,0.243715,0.505013,14,0.0180453,10,0.000123079,-3.2967,-10.6207,-0.00555519,-0.109405,0.243715,
2,1,0,1,0,26696.3,0.245503,0.245158,0.506467,14,0.0181234,10,0.000124164,-3.29545,-1.34233,-0.0439533,-0.863956,0.245158,
2,1,0,1,0,26696.4,0.247001,0.246714,0.502852,14,0.0182013,10,0.000124061,-3.29856,-1.17561,-0.0501868,-0.985384,0.2467144,
2,1,0,1,0,26696.6,0.2485,0.248157,0.499836,14,0.0182791,10,0.000124038,-3.30117,-2.28926,-0.0257725,-0.505288,0.248157,
2,1,0,1,0,26696.7,0.249997,0.249681,0.501302,14,0.0183567,10,0.000125165,-3.2999,-2.06535,-0.0285666,-0.559227,0.249681,
2,1,0,1,0,26696.9,0.251495,0.251204,0.500685,14,0.0184343,10,0.000125774,-3.30044,-1.73401,-0.0340252,-0.665189,0.251204,
2,1,0,1,0,26697,0.252994,0.252731,0.499239,14,0.0185118,10,0.000126173,-3.30169,-1.79784,-0.0328172,-0.640645,0.252731,
2,1,0,1,0,26697.2,0.254492,0.254167,0.499942,14,0.0185891,10,0.000127069,-3.30108,-0.987498,-0.059747,-1.16596,0.254167,
2,1,0,1,0,26697.3,0.25599,0.255644,0.496859,14,0.0186662,10,0.000127019,-3.30377,-2.6878,-0.021951,-0.427269,0.255644,
2,1,0,1,0,26697.5,0.257488,0.257154,0.498314,14,0.0187432,10,0.000128143,-3.3025,-1.50043,-0.0393221,-0.763589,0.257154,
2,1,0,1,0,26697.6,0.258987,0.258679,0.498873,14,0.0188202,10,0.000129048,-3.30201,-2.11799,-0.0278566,-0.540311,0.258679,
2,1,0,1,0,26697.8,0.260485,0.260211,0.49764,14,0.0188971,10,0.000129491,-3.30309,-2.24108,-0.0263266,-0.509061,0.260211,
2,1,0,1,0,26697.9,0.261983,0.261681,0.49567,14,0.0189737,10,0.000129707,-3.30481,-1.9592,-0.0301143,-0.581861,0.261681,
2,1,0,1,0,26698.1,0.263481,0.263159,0.495711,14,0.0190503,10,0.000130451,-3.30477,2.19568,0.0268709,0.518258,0.263159,
2,1,0,1,0,26698.2,0.26498,0.264653,0.493423,14,0.0191268,10,0.000130586,-3.30678,-2.36705,-0.0249256,-0.480986,0.264653,
2,1,0,1,0,26698.4,0.266477,0.266207,0.493892,14,0.0192031,10,0.000131477,-3.30637,-2.08935,-0.0282385,-0.543595,0.266207,
2,1,0,1,0,26698.5,0.267976,0.26767,0.490443,14,0.0192793,10,0.000131277,-3.30941,-6.49103,-0.00908947,-0.174548,0.26767,
2,1,0,1,0,26698.7,0.269474,0.269151,0.490496,14,0.0193553,10,0.000132017,-3.30936,-5.92603,-0.00995608,-0.19084,0.2691505,
2,1,0,1,0,26698.8,0.270972,0.270619,0.493025,14,0.0194313,10,0.000133422,-3.30713,-1.73015,-0.0341011,-0.651365,0.270619,
2,1,0,1,0,26699,0.27247,0.272169,0.490941,14,0.0195073,10,0.000133619,-3.30897,-1.52311,-0.0387365,-0.738707,0.272169,
2,1,0,1,0,26699.1,0.273968,0.273688,0.486462,14,0.0195829,10,0.000133139,-3.31295,-1.55083,-0.0380442,-0.725066,0.273688,
2,1,0,1,0,26699.3,0.275467,0.275166,0.488667,14,0.0196585,10,0.000134465,-3.31099,-2.63187,-0.0224175,-0.427153,0.275166,
2,1,0,1,0,26699.4,0.276965,0.276624,0.486974,14,0.0197339,10,0.000134709,-3.31249,-1.18404,-0.0498294,-0.946831,0.276624,
2,1,0,1,0,26699.6,0.278463,0.278119,0.484483,14,0.0198093,10,0.000134744,-3.31472,-0.986819,-0.0597881,-1.13309,0.278119,
2,1,0,1,0,26699.7,0.279962,0.279671,0.486112,14,0.0198845,10,0.000135952,-3.31326,-1.35788,-0.0434502,-0.824142,0.279671,
2,1,0,1,0,26699.9,0.281459,0.281156,0.485742,14,0.0199595,10,0.00013657,-3.31359,-9.05236,-0.00651764,-0.1232,0.281156,
2,1,0,1,0,26700,0.282957,0.282649,0.483818,14,0.0200345,10,0.000136751,-3.31532,-2.88308,-0.0204643,-0.386138,0.282649,
2,1,0,1,0,26700.2,0.284456,0.284136,0.484221,14,0.0201095,10,0.000137585,-3.31496,-1.79176,-0.0329286,-0.621529,0.284136,
2,1,0,1,0,26700.3,0.285954,0.285603,0.481162,14,0.0201842,10,0.000137421,-3.31771,-1.3704,-0.0430532,-0.809341,0.285603,
2,1,0,1,0,26700.5,0.287452,0.287147,0.480511,14,0.0202587,10,0.000137977,-3.3183,-1.56561,-0.0376851,-0.708058,0.287147,
2,1,0,1,0,26700.6,0.28895,0.288635,0.480337,14,0.0203331,10,0.000138642,-3.31845,-2.52428,-0.023373,-0.437211,0.288635,
2,1,0,1,0,26700.8,0.290449,0.290162,0.479424,14,0.0204074,10,0.000139111,-3.31928,-1.29615,-0.0455194,-0.85319,0.290162,
2,1,0,1,0,26700.9,0.291947,0.291649,0.477917,14,0.0204816,10,0.000139384,-3.32065,-1.18203,-0.0499142,-0.932827,0.291649,
2,1,0,1,0,26701.1,0.293445,0.293117,0.476336,14,0.0205556,10,0.000139622,-3.32209,-1.67071,-0.0353144,-0.658027,0.293117,
2,1,0,1,0,26701.2,0.294943,0.294646,0.477694,14,0.0206294,10,0.000140751,-3.32085,-7.79924,-0.00756484,-0.140547,0.294646,
2,1,0,1,0,26701.4,0.296442,0.296152,0.479115,14,0.0207032,10,0.000141891,-3.31956,-2.396,-0.0246244,-0.457494,0.296152,
2,1,0,1,0,26701.5,0.297939,0.297624,0.474585,14,0.020777,10,0.000141248,-3.32369,-1.41514,-0.0416919,-0.769518,0.297624,
2,1,0,1,0,26701.7,0.299437,0.299146,0.471953,14,0.0208505,10,0.000141183,-3.3261,-0.00222933,-26.4654,-220.907,0.299146,
2,1,0,1,0,26701.7,0.299738,0.299427,0.225163,14,0.0208853,10,6.74201e-05,-3.6475,0.000858496,68.7249,414.33,0.299427,
2,1,0,1,0,26701.9,0.29824,0.29794,-0.00085601,14,0.0208925,10,-2.5504e-07,-6.06752,0.00396518,14.8795,137.38,0.29794,
2,0,0,1,0,26702,0.296741,0.29646,-0.041044,14,0.0208865,10,-1.21679e-05,-4.38675,-0.00750329,-7.86322,22.739,0.29646,
2,0,0,1,0,26702.2,0.295243,0.294907,-0.0621921,14,0.020876,10,-1.83409e-05,-4.20626,-0.0090141,-6.5453,13.6315,0.294907,
2,0,0,1,0,26702.3,0.293745,0.293439,-0.0800599,14,0.0208627,10,-2.34927e-05,-4.09659,-0.0170543,-3.45954,10.1181,0.293439,
2,0,0,1,0,26702.5,0.292246,0.291914,-0.0949889,14,0.0208472,10,-2.77286e-05,-4.02233,-0.0232654,-2.53595,9.02497,0.291914,
2,0,0,1,0,26702.6,0.290748,0.290384,-0.10599,14,0.0208297,10,-3.07778e-05,-3.97474,-0.0289946,-2.03486,8.22791,0.290384,
2,0,0,1,0,26702.8,0.28925,0.288986,-0.118033,14,0.0208105,10,-3.411e-05,-3.928,-0.041705,-1.4147,6.3554,0.288986,
2,0,0,1,0,26702.9,0.287752,0.287396,-0.128015,14,0.0207897,10,-3.67911e-05,-3.89274,-0.0486146,-1.21363,5.99333,0.287396,
2,0,0,1,0,26703.1,0.286253,0.285921,-0.13367,14,0.0207678,10,-3.8219e-05,-3.87397,-0.0555069,-1.06293,5.59736,0.285921,
2,0,0,1,0,26703.2,0.284755,0.284438,-0.143279,14,0.0207445,10,-4.07541e-05,-3.84382,-0.0557153,-1.05896,5.86693,0.284438,
2,0,0,1,0,26703.4,0.283258,0.282964,-0.152248,14,0.02072,10,-4.30807e-05,-3.81745,-0.066176,-0.891562,5.22431,0.282964,
2,0,0,1,0,26703.5,0.281759,0.281406,-0.157482,14,0.0206944,10,-4.43163e-05,-3.80277,-0.0794665,-0.742451,4.52937,0.281406,
2,0,0,1,0,26703.7,0.280261,0.279945,-0.162179,14,0.0206679,10,-4.54012e-05,-3.79001,-0.0873999,-0.675058,4.33103,0.279945,
2,0,0,1,0,26703.8,0.278763,0.278442,-0.170238,14,0.0206405,10,-4.74014e-05,-3.76894,-0.0995645,-0.592581,3.92449,0.278442,
2,0,0,1,0,26704,0.277264,0.276951,-0.176442,14,0.020612,10,-4.88658e-05,-3.7534,-0.108448,-0.54404,3.73646,0.276951,
2,0,0,1,0,26704.1,0.275766,0.275434,-0.180632,14,0.0205828,10,-4.97524e-05,-3.7432,-0.142512,-0.413999,2.92137,0.275434,
2,0,0,1,0,26704.3,0.274268,0.273946,-0.186792,14,0.0205526,10,-5.1171e-05,-3.72864,-0.12831,-0.459825,3.37628,0.273946,
2,0,0,1,0,26704.4,0.27277,0.272458,-0.19242,14,0.0205218,10,-5.24262e-05,-3.71575,-0.122246,-0.482632,3.65238,0.272458,
2,0,0,1,0,26704.6,0.271272,0.270913,-0.197826,14,0.0204901,10,-5.35936e-05,-3.70372,-0.134055,-0.440117,3.38969,0.270913,
2,0,0,1,0,26704.7,0.269773,0.269476,-0.204681,14,0.0204574,10,-5.51567e-05,-3.68892,-0.155905,-0.378437,2.97034,0.269476,
2,0,0,1,0,26704.9,0.268275,0.267955,-0.209362,14,0.0204242,10,-5.60996e-05,-3.6791,-0.163631,-0.360567,2.92002,0.267955,
2,0,0,1,0,26705,0.266778,0.266475,-0.21173,14,0.0203904,10,-5.64207e-05,-3.67422,-0.148695,-0.396785,3.26313,0.266475,
2,0,0,1,0,26705.2,0.265279,0.264974,-0.217304,14,0.0203558,10,-5.75799e-05,-3.66293,-0.131682,-0.44805,3.78293,0.264974,
2,0,0,1,0,26705.3,0.263781,0.263469,-0.220744,14,0.0203205,10,-5.81591e-05,-3.65611,-0.165501,-0.356493,3.07445,0.2634688,
2,0,0,1,0,26705.5,0.262283,0.261969,-0.225643,14,0.0202845,10,-5.91117e-05,-3.64658,-0.206893,-0.285171,2.50803,0.261969,
2,0,0,1,0,26705.6,0.260784,0.260445,-0.227602,14,0.0202481,10,-5.92776e-05,-3.64282,-0.203839,-0.289445,2.59107,0.260445,
2,0,0,1,0,26705.8,0.259286,0.258971,-0.234,14,0.020211,10,-6.05992e-05,-3.63078,-0.217104,-0.271759,2.46521,0.258971,
2,0,0,1,0,26705.9,0.257788,0.257486,-0.240381,14,0.0201731,10,-6.18948e-05,-3.6191,-0.232337,-0.253941,2.35005,0.257486,
2,0,0,1,0,26706.1,0.25629,0.255965,-0.24228,14,0.0201347,10,-6.20154e-05,-3.61568,-0.33705,-0.175048,1.63616,0.255965,
2,0,0,1,0,26706.2,0.254791,0.254491,-0.245351,14,0.0200959,10,-6.24396e-05,-3.61021,-0.270187,-0.218367,2.082,0.254491,
2,0,0,1,0,26706.4,0.253293,0.252979,-0.248671,14,0.0200565,10,-6.29086e-05,-3.60437,-0.213563,-0.276265,2.67065,0.252979,
2,0,0,1,0,26706.5,0.251796,0.251494,-0.252809,14,0.0200166,10,-6.358e-05,-3.59721,-0.200036,-0.294946,2.90189,0.251494,
2,0,0,1,0,26706.7,0.250297,0.249941,-0.256556,14,0.0199761,10,-6.41239e-05,-3.59082,-0.323346,-0.182467,1.81401,0.249941,
2,0,0,1,0,26706.8,0.248799,0.248465,-0.25801,14,0.0199351,10,-6.41066e-05,-3.58836,-0.262227,-0.224996,2.27355,0.248465,
2,0,0,1,0,26707,0.247301,0.246964,-0.262077,14,0.0198937,10,-6.47234e-05,-3.58157,-0.234389,-0.251719,2.57231,0.246964,
2,0,0,1,0,26707.1,0.245802,0.245488,-0.2668,14,0.0198517,10,-6.54961e-05,-3.57381,-0.26754,-0.220528,2.28164,0.245488,
2,0,0,1,0,26707.3,0.244304,0.244022,-0.269786,14,0.019809,10,-6.58337e-05,-3.56898,-0.244295,-0.241511,2.5339,0.244022,
2,0,0,1,0,26707.4,0.242806,0.242509,-0.27225,14,0.019766,10,-6.60231e-05,-3.56503,-0.443594,-0.133004,1.4136,0.242509,
2,0,0,1,0,26707.6,0.241308,0.241042,-0.276276,14,0.0197226,10,-6.65941e-05,-3.55866,-0.368128,-0.16027,1.72418,0.2410423,
2,0,0,1,0,26707.7,0.23981,0.239461,-0.277186,14,0.0196787,10,-6.63752e-05,-3.55723,-0.253696,-0.232562,2.52332,0.239461,
2,0,0,1,0,26707.9,0.238311,0.237993,-0.282101,14,0.0196342,10,-6.71381e-05,-3.5496,-0.40624,-0.145234,1.5946,0.237993,
2,0,0,1,0,26708,0.236814,0.236486,-0.283378,14,0.0195894,10,-6.7015e-05,-3.54763,-0.28388,-0.207835,2.30788,0.236486,
2,0,0,1,0,26708.2,0.235316,0.235018,-0.284667,14,0.0195441,10,-6.69018e-05,-3.54566,-0.333813,-0.176746,1.98228,0.235018,
2,0,0,1,0,26708.3,0.233817,0.233488,-0.2898,14,0.0194984,10,-6.76649e-05,-3.5379,-0.323799,-0.182212,2.06199,0.233488,
2,0,0,1,0,26708.5,0.232319,0.232009,-0.295371,14,0.0194521,10,-6.85287e-05,-3.52963,-0.425096,-0.138792,1.58619,0.232009,
2,0,0,1,0,26708.6,0.230821,0.230474,-0.297076,14,0.0194053,10,-6.84684e-05,-3.52713,-0.417995,-0.14115,1.62776,0.230474,
2,0,0,1,0,26708.8,0.229322,0.228973,-0.298298,14,0.0193581,10,-6.83022e-05,-3.52535,-0.394097,-0.149709,1.75143,0.228973,
2,0,0,1,0,26708.9,0.227824,0.227523,-0.302094,14,0.0193106,10,-6.87334e-05,-3.51986,-0.344813,-0.171107,2.01748,0.227523,
2,0,0,1,0,26709.1,0.226326,0.226027,-0.304382,14,0.0192626,10,-6.87985e-05,-3.51658,-0.290482,-0.203111,2.42073,0.226027,
2,0,0,1,0,26709.2,0.224828,0.224543,-0.307674,14,0.0192141,10,-6.90861e-05,-3.51191,-0.582521,-0.101284,1.21184,0.224543,
2,0,0,1,0,26709.4,0.223329,0.223025,-0.311955,14,0.019165,10,-6.95738e-05,-3.50591,-0.471035,-0.125256,1.52353,0.223025,
2,0,0,1,0,26709.5,0.221831,0.221478,-0.314394,14,0.0191158,10,-6.96312e-05,-3.50253,-0.290305,-0.203235,2.49538,0.221478,
2,0,0,1,0,26709.7,0.220334,0.220019,-0.316794,14,0.0190659,10,-6.97008e-05,-3.49922,-0.268835,-0.219466,2.71658,0.220019,
2,0,0,1,0,26709.8,0.218835,0.218535,-0.319953,14,0.0190154,10,-6.99209e-05,-3.49491,-0.346034,-0.170504,2.12724,0.218535,
2,0,0,1,0,26710,0.217337,0.217017,-0.32303,14,0.0189645,10,-7.01029e-05,-3.49076,-0.476809,-0.123739,1.56676,0.217017,
2,0,0,1,0,26710.1,0.215839,0.215511,-0.323946,14,0.0189135,10,-6.98138e-05,-3.48953,-0.481655,-0.122494,1.55704,0.215511,
2,0,0,1,0,26710.3,0.21434,0.214036,-0.327656,14,0.0188619,10,-7.01301e-05,-3.48458,-0.240653,-0.245166,3.13806,0.214036,
2,0,0,1,0,26710.4,0.212842,0.212495,-0.331525,14,0.0188098,10,-7.04475e-05,-3.47948,-0.385013,-0.153242,1.98136,0.212495,
2,0,0,1,0,26710.6,0.211344,0.211036,-0.336289,14,0.0187571,10,-7.09692e-05,-3.47329,-0.553945,-0.106509,1.39657,0.211036,
2,0,0,1,0,26710.7,0.209846,0.209517,-0.335574,14,0.0187042,10,-7.03086e-05,-3.47421,-0.362525,-0.162748,2.14362,0.209517,
2,0,0,1,0,26710.9,0.208348,0.208033,-0.343218,14,0.0186508,10,-7.14007e-05,-3.46443,-0.368447,-0.160131,2.1383,0.208033,
2,0,0,1,0,26711,0.206849,0.206465,-0.348307,14,0.0185967,10,-7.19133e-05,-3.45804,-0.339535,-0.173767,2.33073,0.206465,
2,0,0,1,0,26711.2,0.205352,0.204985,-0.348399,14,0.0185421,10,-7.14165e-05,-3.45792,-0.390283,-0.151172,2.05109,0.204985,
2,0,0,1,0,26711.3,0.203854,0.203483,-0.348662,14,0.0184873,10,-7.09469e-05,-3.4576,-0.409949,-0.14392,1.97329,0.203483,
2,0,0,1,0,26711.5,0.202355,0.202034,-0.353221,14,0.018432,10,-7.13627e-05,-3.45195,-0.34022,-0.173417,2.40893,0.202034,
2,0,0,1,0,26711.6,0.200857,0.2005,-0.355306,14,0.0183763,10,-7.12387e-05,-3.4494,-0.389645,-0.15142,2.11219,0.2005,
2,0,0,1,0,26711.8,0.199359,0.199079,-0.361984,14,0.0183198,10,-7.20633e-05,-3.44131,-0.48222,-0.122351,1.71967,0.199079,
2,0,0,1,0,26711.9,0.19786,0.197487,-0.365367,14,0.018263,10,-7.21554e-05,-3.43727,-0.405409,-0.145532,2.06168,0.197487,
2,0,0,1,0,26712.1,0.196362,0.196032,-0.3683,14,0.0182058,10,-7.21987e-05,-3.4338,-0.383982,-0.153653,2.20815,0.196032,
2,0,0,1,0,26712.2,0.194864,0.194497,-0.371648,14,0.0181481,10,-7.22844e-05,-3.42987,-0.322179,-0.183128,2.64306,0.194497,
2,0,0,1,0,26712.4,0.193366,0.193042,-0.376041,14,0.0180896,10,-7.25918e-05,-3.42476,-0.395346,-0.149236,2.18822,0.193042,
2,0,0,1,0,26712.5,0.191867,0.191548,-0.377548,14,0.0180308,10,-7.23186e-05,-3.42303,-0.415293,-0.142068,2.0963,0.191548,
2,0,0,1,0,26712.7,0.190369,0.190049,-0.381719,14,0.0179715,10,-7.25453e-05,-3.41826,-0.322941,-0.182696,2.72472,0.1900491,
2,0,0,1,0,26712.8,0.188872,0.188526,-0.385107,14,0.0179116,10,-7.26028e-05,-3.41442,-0.250968,-0.23509,3.52819,0.188526,
2,0,0,1,0,26713,0.187373,0.187067,-0.389763,14,0.0178511,10,-7.29117e-05,-3.4092,-0.370097,-0.159418,2.42571,0.187067,
2,0,0,1,0,26713.1,0.185875,0.1856,-0.393417,14,0.01779,10,-7.30183e-05,-3.40515,-0.352593,-0.167332,2.55815,0.1856,
2,0,0,1,0,26713.3,0.184377,0.183995,-0.395116,14,0.0177284,10,-7.26993e-05,-3.40327,-0.306744,-0.192343,2.979,0.183995,
2,0,0,1,0,26713.4,0.182878,0.182512,-0.400337,14,0.0176662,10,-7.30664e-05,-3.39757,-0.278944,-0.211512,3.30342,0.182512,
2,0,0,1,0,26713.6,0.18138,0.181064,-0.406073,14,0.0176033,10,-7.35251e-05,-3.3914,-0.273169,-0.215984,3.41724,0.181064,
2,0,0,1,0,26713.7,0.179882,0.179608,-0.409539,14,0.0175396,10,-7.35564e-05,-3.3877,-0.409861,-0.143951,2.29687,0.179608,
2,0,0,1,0,26713.9,0.178384,0.178074,-0.415293,14,0.0174754,10,-7.3953e-05,-3.38165,-0.338751,-0.174169,2.82409,0.1780743,
2,0,0,1,0,26714,0.176886,0.176544,-0.419527,14,0.0174105,10,-7.40651e-05,-3.37724,-0.274358,-0.215047,3.52299,0.176544,
2,0,0,1,0,26714.2,0.175387,0.175083,-0.425212,14,0.0173447,10,-7.44476e-05,-3.37139,-0.260613,-0.226389,3.74552,0.175083,
2,0,0,1,0,26714.3,0.17389,0.173572,-0.429721,14,0.017278,10,-7.45874e-05,-3.36681,-0.255834,-0.230618,3.86638,0.173572,
2,0,0,1,0,26714.5,0.172392,0.172081,-0.437962,14,0.0172105,10,-7.53648e-05,-3.35856,-0.239984,-0.24585,4.19243,0.172081,
2,0,0,1,0,26714.6,0.170893,0.170624,-0.438932,14,0.0171423,10,-7.48923e-05,-3.3576,-0.230318,-0.256168,4.42383,0.170624,
2,0,0,1,0,26714.8,0.169395,0.169089,-0.448087,14,0.017073,10,-7.57668e-05,-3.34864,-0.191232,-0.308525,5.3992,0.169089,
2,0,0,1,0,26714.9,0.167897,0.167618,-0.455339,14,0.0170026,10,-7.63229e-05,-3.34166,-0.214331,-0.275275,4.89291,0.167618,
2,0,0,1,0,26715.1,0.166398,0.166049,-0.462919,14,0.0169311,10,-7.68673e-05,-3.3345,-0.25037,-0.235652,4.27249,0.166049,
2,0,0,1,0,26715.2,0.1649,0.16458,-0.467889,14,0.0168586,10,-7.7005e-05,-3.32986,-0.204777,-0.288118,5.30557,0.16458,
2,0,0,1,0,26715.4,0.163402,0.163023,-0.480736,14,0.0167848,10,-7.8371e-05,-3.31809,-0.167949,-0.351298,6.58669,0.163023,
2,0,0,1,0,26715.5,0.161904,0.16162,-0.491254,14,0.0167094,10,-7.93965e-05,-3.30869,-0.172407,-0.342213,6.55405,0.16162,
2,0,0,1,0,26715.7,0.160405,0.160089,-0.498807,14,0.0166326,10,-7.98535e-05,-3.30207,-0.166872,-0.353565,6.90327,0.160089,
2,0,0,1,0,26715.8,0.158907,0.158599,-0.509301,14,0.0165543,10,-8.07748e-05,-3.29303,-0.14904,-0.395868,7.91216,0.158599,
2,0,0,1,0,26716,0.15741,0.157091,-0.522264,14,0.0164744,10,-8.20431e-05,-3.28211,-0.13174,-0.44785,9.17663,0.157091,
2,0,0,1,0,26716.1,0.155911,0.155579,-0.535261,14,0.0163923,10,-8.32754e-05,-3.27143,-0.124974,-0.4721,9.91497,0.155579,
2,0,0,1,0,26716.3,0.154413,0.154071,-0.551259,14,0.016308,10,-8.49331e-05,-3.25864,-0.130856,-0.450879,9.70928,0.154071,
2,0,0,1,0,26716.4,0.152915,0.15256,-0.567249,14,0.0162213,10,-8.65394e-05,-3.24623,-0.111105,-0.531027,11.8192,0.15256,
2,0,0,1,0,26716.6,0.151417,0.151074,-0.587225,14,0.0161324,10,-8.87145e-05,-3.2312,-0.10329,-0.571205,13.1398,0.151074,
2,0,0,1,0,26716.7,0.149918,0.14961,-0.60842,14,0.0160402,10,-9.10256e-05,-3.2158,-0.0951931,-0.619793,14.7029,0.1496098,
2,0,0,1,0,26716.9,0.14842,0.14808,-0.632448,14,0.0159447,10,-9.36526e-05,-3.19898,-0.0938088,-0.628939,15.5189,0.14808,
2,0,0,1,0,26717,0.146922,0.146577,-0.656997,14,0.0158457,10,-9.63006e-05,-3.18244,-0.0887079,-0.665104,17.0801,0.146577,
2,0,0,1,0,26717.2,0.145424,0.14507,-0.683466,14,0.015743,10,-9.91505e-05,-3.16528,-0.0789602,-0.747212,20.0254,0.1450702,
2,0,0,1,0,26717.3,0.143925,0.143568,-0.715124,14,0.0156355,10,-0.000102669,-3.14562,-0.0709722,-0.831312,23.1833,0.143568,
2,0,0,1,0,26717.5,0.142428,0.142144,-0.749461,14,0.0155229,10,-0.000106531,-3.12525,-0.0721484,-0.817758,23.9521,0.142144,
2,0,0,1,0,26717.6,0.14093,0.14062,-0.785047,14,0.0154053,10,-0.000110393,-3.1051,-0.0758598,-0.777751,23.8818,0.14062,
2,0,0,1,0,26717.8,0.139431,0.139105,-0.819568,14,0.0152822,10,-0.000114006,-3.08642,-0.0732493,-0.805469,25.8591,0.139105,
2,0,0,1,0,26717.9,0.137933,0.137629,-0.86199,14,0.0151535,10,-0.000118635,-3.0645,-0.0756092,-0.780328,26.1949,0.137629,
2,0,0,1,0,26718.1,0.136435,0.13611,-0.90153,14,0.0150188,10,-0.000122707,-3.04502,-0.0790524,-0.74634,26.2312,0.13611,
2,0,0,1,0,26718.2,0.134936,0.1346,-0.940944,14,0.014878,10,-0.000126651,-3.02644,-0.0864158,-0.682745,25.029,0.1346,
2,0,0,1,0,26718.4,0.133438,0.133128,-0.979303,14,0.0147315,10,-0.000130373,-3.00908,-0.0878827,-0.671349,25.6266,0.1331279,
2,0,0,1,0,26718.5,0.13194,0.131556,-1.01705,14,0.0145792,10,-0.000133799,-2.99266,-0.0956822,-0.616624,24.5031,0.131556,
2,0,0,1,0,26718.7,0.130442,0.130135,-1.05392,14,0.0144213,10,-0.000137152,-2.97719,-0.102985,-0.572897,23.5182,0.130135,
2,0,0,1,0,26718.8,0.128943,0.128607,-1.08924,14,0.0142578,10,-0.000140084,-2.96288,-0.115761,-0.509673,21.5506,0.1286066,
2,0,0,1,0,26719,0.127445,0.127141,-1.11961,14,0.0140897,10,-0.000142348,-2.95093,-0.130668,-0.451524,19.6475,0.1271406,
2,0,0,1,0,26719.1,0.125948,0.125584,-1.14651,14,0.0139174,10,-0.000143984,-2.94062,-0.152806,-0.386111,17.2332,0.125584,
2,0,0,1,0,26719.3,0.124449,0.124136,-1.17069,14,0.013741,10,-0.000145325,-2.93156,-0.166869,-0.353571,16.0999,0.124136,
2,0,0,1,0,26719.4,0.122951,0.122667,-1.19267,14,0.0135612,10,-0.000146301,-2.92348,-0.207291,-0.284623,13.2171,0.122667,
2,0,0,1,0,26719.6,0.121453,0.121143,-1.20952,14,0.0133785,10,-0.000146525,-2.91739,-0.259367,-0.227477,10.7094,0.121143,
2,0,0,1,0,26719.7,0.119955,0.119614,-1.22167,14,0.0131936,10,-0.000146129,-2.91305,-0.33373,-0.176789,8.42835,0.119614,
2,0,0,1,0,26719.9,0.118456,0.118142,-1.23386,14,0.0130068,10,-0.000145771,-2.90874,-0.417004,-0.141485,6.79985,0.118142,
2,0,0,1,0,26720,0.116958,0.116608,-1.24365,14,0.0128183,10,-0.000145019,-2.9053,-0.735367,-0.080232,3.88523,0.116608,
2,0,0,1,0,26720.2,0.11546,0.115117,-1.24611,14,0.0126289,10,-0.000143448,-2.90444,-2.13452,-0.0276408,1.34114,0.115117,
2,0,0,1,0,26720.3,0.113962,0.113658,-1.24609,14,0.0124394,10,-0.000141628,-2.90445,5.6511,0.0104405,-0.507621,0.113658,
2,0,0,1,0,26720.5,0.112463,0.112168,-1.2471,14,0.01225,10,-0.000139886,-2.9041,1.72572,0.0341887,-1.66294,0.112168,
2,0,0,1,0,26720.6,0.110966,0.110632,-1.2466,14,0.0120606,10,-0.000137915,-2.90427,1.66847,0.0353618,-1.71347,0.1106325,
2,0,0,1,0,26720.8,0.109468,0.109171,-1.23797,14,0.0118718,10,-0.000135149,-2.90729,0.612568,0.0963159,-4.64741,0.109171,
2,0,0,1,0,26720.9,0.107969,0.107643,-1.23463,14,0.0116837,10,-0.0001329,-2.90846,0.638102,0.0924617,-4.45332,0.107643,
2,0,0,1,0,26721.1,0.106471,0.106169,-1.22542,14,0.0114971,10,-0.000130102,-2.91171,0.676637,0.087196,-4.17518,0.106169,
2,0,0,1,0,26721.2,0.104973,0.104644,-1.21956,14,0.0113113,10,-0.00012762,-2.9138,0.534862,0.110309,-5.24197,0.104644,
2,0,0,1,0,26721.4,0.103474,0.103159,-1.21087,14,0.0111264,10,-0.000124912,-2.9169,0.411463,0.143391,-6.76278,0.103159,
2,0,0,1,0,26721.5,0.101976,0.101631,-1.20459,14,0.0109429,10,-0.000122423,-2.91916,0.40851,0.144427,-6.77322,0.101631,
2,0,0,1,0,26721.7,0.100478,0.100152,-1.19144,14,0.0107611,10,-0.000119325,-2.92393,0.412552,0.143012,-6.65019,0.100152,
2,0,0,1,0,26721.8,0.0989799,0.0986424,-1.18339,14,0.0105805,10,-0.000116732,-2.92687,0.571193,0.103292,-4.76637,0.0986424,
2,0,0,1,0,26722,0.0974808,0.0971565,-1.17521,14,0.0104012,10,-0.000114179,-2.92989,0.431047,0.136876,-6.27039,0.09715651,
2,0,0,1,0,26722.1,0.0959833,0.0956305,-1.16539,14,0.0102232,10,-0.000111447,-2.93353,0.459836,0.128307,-5.83324,0.0956305,
2,0,0,1,0,26722.3,0.0944857,0.0941471,-1.15059,14,0.010047,10,-0.000108325,-2.93908,0.473459,0.124615,-5.62362,0.0941471,
2,0,0,1,0,26722.4,0.0929871,0.0927126,-1.1457,14,0.00987192,10,-0.000106221,-2.94093,0.570996,0.103328,-4.62637,0.0927126,
2,0,0,1,0,26722.6,0.0914889,0.0911549,-1.14021,14,0.00969804,10,-0.000103936,-2.94302,0.491279,0.120095,-5.33173,0.0911549,
2,0,0,1,0,26722.7,0.0899907,0.089683,-1.13138,14,0.00952537,10,-0.000101465,-2.94639,0.39945,0.147703,-6.50144,0.089683,
2,0,0,1,0,26722.9,0.0884925,0.0881836,-1.1196,14,0.00935405,10,-9.87302e-05,-2.95094,0.489629,0.120499,-5.27617,0.0881836,
2,0,0,1,0,26723,0.0869943,0.0866821,-1.11423,14,0.0091842,10,-9.65841e-05,-2.95302,0.448196,0.131639,-5.72657,0.0866821,
2,0,0,1,0,26723.2,0.0854962,0.0851636,-1.10543,14,0.00901533,10,-9.4142e-05,-2.95647,0.452693,0.130331,-5.6218,0.0851636,
2,0,0,1,0,26723.3,0.083998,0.0836557,-1.09918,14,0.00884754,10,-9.19525e-05,-2.95893,0.379602,0.155426,-6.65535,0.0836557,
2,0,0,1,0,26723.5,0.0824998,0.0821913,-1.09246,14,0.00868097,10,-8.97907e-05,-2.96159,0.4644,0.127046,-5.40899,0.0821913,
2,0,0,1,0,26723.6,0.0810011,0.0806816,-1.08307,14,0.00851569,10,-8.73837e-05,-2.96534,0.618811,0.0953441,-4.03185,0.0806816,
2,0,0,1,0,26723.8,0.0795036,0.0791789,-1.07577,14,0.00835145,10,-8.51779e-05,-2.96828,0.561949,0.104992,-4.40366,0.0791789,
2,0,0,1,0,26723.9,0.0780061,0.0776619,-1.06879,14,0.00818804,10,-8.30044e-05,-2.97111,0.534911,0.110299,-4.59559,0.0776619,
2,0,0,1,0,26724.1,0.076507,0.0761756,-1.06194,14,0.00802571,10,-8.08937e-05,-2.9739,0.507385,0.116283,-4.81645,0.0761756,
2,0,0,1,0,26724.2,0.0750088,0.0746624,-1.05262,14,0.00786485,10,-7.85914e-05,-2.97773,0.518481,0.113794,-4.68466,0.07466238,
2,0,0,1,0,26724.4,0.0735106,0.0732054,-1.04623,14,0.00770492,10,-7.65899e-05,-2.98037,0.677801,0.0870463,-3.55425,0.0732054,
2,0,0,1,0,26724.5,0.0720124,0.0716954,-1.04058,14,0.00754582,10,-7.46048e-05,-2.98272,0.539994,0.10926,-4.44307,0.0716954,
2,0,0,1,0,26724.7,0.0705142,0.070161,-1.03506,14,0.00738772,10,-7.26205e-05,-2.98504,0.47885,0.123212,-4.97313,0.070161,
2,0,0,1,0,26724.8,0.0690161,0.0686265,-1.02509,14,0.00723082,10,-7.03487e-05,-2.98924,0.540819,0.109094,-4.37846,0.0686265,
2,0,0,1,0,26725,0.0675179,0.067178,-1.02061,14,0.00707497,10,-6.85624e-05,-2.99114,0.6591,0.089516,-3.56833,0.067178,
2,0,0,1,0,26725.1,0.0660188,0.065732,-1.0191,14,0.00691969,10,-6.69875e-05,-2.99178,0.604087,0.097668,-3.86747,0.065732,
2,0,0,1,0,26725.3,0.0645213,0.0641766,-1.00953,14,0.0067654,10,-6.47884e-05,-2.99588,0.477191,0.12364,-4.85447,0.0641766,
2,0,0,1,0,26725.4,0.0630237,0.0627152,-0.999897,14,0.00661226,10,-6.27087e-05,-3.00004,0.625327,0.0943506,-3.69208,0.06271518,
2,0,0,1,0,26725.6,0.0615251,0.0611846,-0.994759,14,0.0064602,10,-6.0864e-05,-3.00228,0.505111,0.116806,-4.5383,0.0611846,
2,0,0,1,0,26725.7,0.0600269,0.0596873,-0.989845,14,0.00630884,10,-5.90812e-05,-3.00443,0.512264,0.115175,-4.4509,0.0596873,
2,0,0,1,0,26725.9,0.0585287,0.0581837,-0.98112,14,0.00615857,10,-5.70852e-05,-3.00828,0.398242,0.148151,-5.6749,0.0581837,
2,0,0,1,0,26726,0.0570305,0.0566609,-0.976467,14,0.0060093,10,-5.53275e-05,-3.01034,0.425119,0.138785,-5.28573,0.0566609,
2,0,0,1,0,26726.2,0.0555323,0.055205,-0.966553,14,0.00586133,10,-5.33585e-05,-3.01477,0.502368,0.117444,-4.4387,0.055205,
2,0,0,1,0,26726.3,0.0540342,0.0537151,-0.964091,14,0.00571422,10,-5.17863e-05,-3.01588,0.575606,0.102501,-3.84399,0.05371511,
2,0,0,1,0,26726.5,0.052536,0.0522009,-0.956544,14,0.00556782,10,-4.99324e-05,-3.01929,0.479212,0.123119,-4.58361,0.05220085,
2,0,0,1,0,26726.6,0.0510378,0.0506654,-0.949934,14,0.00542259,10,-4.81288e-05,-3.02231,0.446698,0.13208,-4.89355,0.0506654,
2,0,0,1,0,26726.8,0.0495391,0.0492283,-0.940434,14,0.00527856,10,-4.6296e-05,-3.02667,0.558213,0.105694,-3.87951,0.0492283,
2,0,0,1,0,26726.9,0.0480416,0.0477092,-0.933187,14,0.0051356,10,-4.45216e-05,-3.03003,0.558867,0.105571,-3.84938,0.0477092,
2,0,0,1,0,26727.1,0.0465441,0.0462411,-0.926141,14,0.00499357,10,-4.28258e-05,-3.03332,0.490868,0.120195,-4.34582,0.0462411,
2,0,0,1,0,26727.2,0.045045,0.0447154,-0.919975,14,0.00485256,10,-4.11371e-05,-3.03622,0.455788,0.129446,-4.64735,0.0447154,
2,0,0,1,0,26727.4,0.0435468,0.043251,-0.909478,14,0.00471285,10,-3.93359e-05,-3.04121,0.456661,0.129199,-4.59451,0.043251,
2,0,0,1,0,26727.5,0.0420486,0.0417145,-0.906837,14,0.00457423,10,-3.78282e-05,-3.04247,0.488679,0.120734,-4.26696,0.0417145,
2,0,0,1,0,26727.7,0.0405504,0.0402161,-0.901613,14,0.00443649,10,-3.62594e-05,-3.04498,0.405866,0.145368,-5.09458,0.04021614,
2,0,0,1,0,26727.8,0.0390523,0.0387369,-0.891734,14,0.00429963,10,-3.4543e-05,-3.04976,0.358739,0.164465,-5.71654,0.0387369,
2,0,0,1,0,26728,0.0375541,0.0372523,-0.882535,14,0.00416407,10,-3.28765e-05,-3.05427,0.365364,0.161483,-5.57304,0.0372523,
2,0,0,1,0,26728.1,0.0360559,0.0357168,-0.877273,14,0.00402987,10,-3.13334e-05,-3.05687,0.413927,0.142537,-4.88911,0.0357168,
2,0,0,1,0,26728.3,0.0345568,0.0342185,-0.870828,14,0.00389644,10,-2.97985e-05,-3.06007,0.447647,0.1318,-4.47284,0.0342185,
2,0,0,1,0,26728.4,0.0330593,0.0327137,-0.863976,14,0.00376406,10,-2.82639e-05,-3.0635,0.39544,0.149201,-5.019,0.0327137,
2,0,0,1,0,26728.6,0.0315618,0.031275,-0.85595,14,0.00363273,10,-2.67699e-05,-3.06755,0.434082,0.135919,-4.53742,0.031275,
2,0,0,1,0,26728.7,0.0300631,0.0297033,-0.849214,14,0.00350262,10,-2.52244e-05,-3.07098,0.443129,0.133144,-4.41135,0.0297033,
2,0,0,1,0,26728.9,0.0285649,0.028259,-0.841302,14,0.00337338,10,-2.37743e-05,-3.07505,0.543675,0.108521,-3.55697,0.028259,
2,0,0,1,0,26729,0.0270667,0.02675,-0.836393,14,0.003245,10,-2.23735e-05,-3.07759,0.486346,0.121313,-3.95172,0.02675,
2,0,0,1,0,26729.2,0.0255685,0.025258,-0.829085,14,0.00311762,10,-2.09411e-05,-3.0814,0.446124,0.13225,-4.27941,0.025258,
2,0,0,1,0,26729.3,0.0240704,0.0237194,-0.820846,14,0.00299143,10,-1.947e-05,-3.08574,0.539379,0.109385,-3.52018,0.0237194,
2,0,0,1,0,26729.5,0.0225722,0.022255,-0.815807,14,0.00286602,10,-1.81558e-05,-3.08841,0.568559,0.103771,-3.30802,0.022255,
2,0,0,1,0,26729.6,0.021074,0.0207333,-0.81155,14,0.00274139,10,-1.68261e-05,-3.09068,0.549081,0.107452,-3.40636,0.0207333,
2,0,0,1,0,26729.8,0.0195758,0.0192869,-0.806838,14,0.00261747,10,-1.55614e-05,-3.09321,0.508446,0.11604,-3.64928,0.0192869,
2,0,0,1,0,26729.9,0.0180772,0.0177394,-0.799107,14,0.00249438,10,-1.41757e-05,-3.0974,0.524938,0.112394,-3.51769,0.0177394,
2,0,0,1,0,26730.1,0.0165796,0.0162399,-0.796996,14,0.00237218,10,-1.29431e-05,-3.09854,0.952201,0.0619617,-1.93108,0.0162399,
2,0,0,1,0,26730.2,0.0150821,0.0148127,-0.793959,14,0.00225045,10,-1.17606e-05,-3.1002,0.809122,0.0729185,-2.25789,0.0148127,
2,0,0,1,0,26730.4,0.013583,0.0132776,-0.78945,14,0.002129,10,-1.0482e-05,-3.10268,0.787205,0.0749487,-2.30837,0.0132776,
2,0,0,1,0,26730.5,0.0120848,0.0117357,-0.786211,14,0.00200834,10,-9.22677e-06,-3.10446,0.7175,0.0822299,-2.52925,0.0117357,
2,0,0,1,0,26730.7,0.0105866,0.010266,-0.783234,14,0.00188824,10,-8.0407e-06,-3.10611,1.00555,0.0586746,-1.79696,0.010266,
2,0,0,1,0,26730.8,0.00908846,0.00876766,-0.780873,14,0.00176844,10,-6.84643e-06,-3.10742,1.38308,0.0426584,-1.30153,0.00876766,
2,0,0,1,0,26731,0.00759027,0.00726719,-0.780381,14,0.00164877,10,-5.67118e-06,-3.10769,0.975867,0.0604591,-1.83815,0.00726719,
2,0,0,1,0,26731.1,0.00609208,0.00579004,-0.778941,14,0.00152949,10,-4.5101e-06,-3.1085,1.18148,0.0499374,-1.51932,0.00579004,
2,0,0,1,0,26731.3,0.00459389,0.00427684,-0.77832,14,0.00141053,10,-3.32875e-06,-3.10884,4.71068,0.0125247,-0.380427,0.00427684,
2,0,0,1,0,26731.4,0.0030948,0.00280504,-0.778722,14,0.00129147,10,-2.18435e-06,-3.10862,-0.976201,-0.0604384,1.835,0.00280504,
2,0,0,1,0,26731.6,0.00159728,0.00118321,-0.788747,14,0.00117083,10,-9.33256e-07,-3.10306, , , ,0.00118321,
2,0,0,1,0,26731.7,0.000199195,-0.000176442,-0.780929,14,0.00105897,10,1.37789e-07,-3.10739, , , ,-0.000176442,