File: Figure_codes/Fig_3-5/rawdata_trumpetplot_data/after 10th/20221101_1-115_003_TrumpetPlot_ParaChange_from10_every3_11_CV_C01_3.csv
mode,ox/red,error,control changes,counter inc.,time/s,control/V,Ewe/V,<I>/mA,cycle number,(Q-Qo)/C,I Range,P/W,log(|I|),Tafel slope mV/dec,alpha_eff,dI/d(E-IR),E-IR/V,
2,1,0,1,0,7104.91,2.44065e-05,-0.000248974,10.3582,4,0.0000000E+000,10,-2.57894e-06,-1.98471, , , ,-0.000248974,
2,1,0,1,0,7104.92,0.00214129,0.00177322,11.7715,4,5.69712e-05,10,2.08735e-05,-1.92917, , , ,0.001773221,
2,1,0,1,0,7104.92,0.00454949,0.00422594,13.0074,4,0.000131623,10,5.49686e-05,-1.88581,0.0635399,0.92855,460.565,0.00422594,
2,1,0,1,0,7104.93,0.0069466,0.00660867,13.9727,4,0.000212758,10,9.23413e-05,-1.85472,0.0844083,0.698983,376.178,0.00660867,
2,1,0,1,0,7104.94,0.0093437,0.00900307,14.787,4,0.000299177,10,0.000133128,-1.83012,0.106655,0.553184,316.509,0.009003072,
2,1,0,1,0,7104.94,0.0117408,0.0114187,15.4785,4,0.000390089,10,0.000176744,-1.81027,0.128817,0.458013,275.331,0.0114187,
2,1,0,1,0,7104.95,0.0141462,0.013812,16.1118,4,0.00048497,10,0.000222536,-1.79286,0.151001,0.390727,244.508,0.013812,
2,1,0,1,0,7104.95,0.0165433,0.0162287,16.666,4,0.000583411,10,0.000270467,-1.77817,0.178998,0.329613,213.391,0.0162287,
2,1,0,1,0,7104.96,0.0189404,0.0186358,17.1327,4,0.000684877,10,0.000319281,-1.76617,0.203613,0.289766,193.422,0.0186358,
2,1,0,1,0,7104.97,0.0213486,0.0210101,17.5896,4,0.000789063,10,0.000369559,-1.75474,0.228548,0.258152,176.729,0.0210101,
2,1,0,1,0,7104.97,0.0237457,0.0233928,17.9977,4,0.000895871,10,0.000421016,-1.74478,0.25791,0.228762,160.153,0.0233928,
2,1,0,1,0,7104.98,0.0261429,0.0258307,18.3373,4,0.00100492,10,0.000473665,-1.73666,0.278275,0.21202,151.742,0.0258307,
2,1,0,1,0,7104.98,0.02854,0.0282229,18.6925,4,0.00111605,10,0.000527558,-1.72833,0.301774,0.195511,142.527,0.0282229,
2,1,0,1,0,7104.99,0.0309482,0.0306184,19.0404,4,0.00122935,10,0.000582985,-1.72032,0.320652,0.184,136.461,0.0306184,
2,1,0,1,0,7105,0.0333453,0.0330075,19.3428,4,0.00134452,10,0.000638457,-1.71348,0.356196,0.165639,125.011,0.0330075,
2,1,0,1,0,7105,0.0357424,0.0354125,19.6344,4,0.00146147,10,0.000695303,-1.70698,0.358841,0.164418,126.041,0.0354125,
2,1,0,1,0,7105.01,0.0381478,0.0377974,19.948,4,0.00158027,10,0.000753983,-1.7001,0.365455,0.161442,125.598,0.03779735,
2,1,0,1,0,7105.01,0.0405449,0.0401536,20.2453,4,0.0017009,10,0.000812922,-1.69368,0.39256,0.150295,118.67,0.04015357,
2,1,0,1,0,7105.02,0.042942,0.0425967,20.5206,4,0.00182324,10,0.00087411,-1.68781,0.384145,0.153588,123.118,0.0425967,
2,1,0,1,0,7105.03,0.0453391,0.0450219,20.8117,4,0.00194726,10,0.000936981,-1.68169,0.385265,0.153141,124.467,0.0450219,
2,1,0,1,0,7105.03,0.0477473,0.0474333,21.132,4,0.00207318,10,0.00100236,-1.67506,0.390783,0.150979,124.352,0.0474333,
2,1,0,1,0,7105.04,0.0501444,0.0497757,21.4094,4,0.00220085,10,0.00106567,-1.66939,0.40108,0.147103,122.992,0.0497757,
2,1,0,1,0,7105.04,0.0525415,0.0521977,21.7063,4,0.0023302,10,0.00113302,-1.66342,0.391384,0.150747,127.841,0.0521977,
2,1,0,1,0,7105.05,0.0549469,0.0545899,22.0385,4,0.00246147,10,0.00120308,-1.65682,0.388158,0.152,130.578,0.0545899,
2,1,0,1,0,7105.06,0.057344,0.057014,22.3256,4,0.00259462,10,0.00127287,-1.6512,0.409477,0.144086,125.58,0.057014,
2,1,0,1,0,7105.06,0.0597411,0.0593575,22.6362,4,0.00272952,10,0.00134363,-1.6452,0.38668,0.152581,134.963,0.0593575,
2,1,0,1,0,7105.07,0.0621438,0.0617859,22.9764,4,0.00286635,10,0.00141962,-1.63872,0.38506,0.153223,137.326,0.0617859,
2,1,0,1,0,7105.07,0.0645465,0.0641834,23.3082,4,0.00300528,10,0.001496,-1.63249,0.38686,0.15251,138.641,0.0641834,
2,1,0,1,0,7105.08,0.0669436,0.0666086,23.6313,4,0.00314609,10,0.00157405,-1.62651,0.398638,0.148004,136.507,0.0666086,
2,1,0,1,0,7105.09,0.0693407,0.0689977,23.962,4,0.0032889,10,0.00165333,-1.62048,0.390984,0.150901,141.106,0.0689977,
2,1,0,1,0,7105.09,0.0717489,0.0714175,24.3072,4,0.00343375,10,0.00173596,-1.61426,0.403929,0.146065,138.45,0.0714175,
2,1,0,1,0,7105.1,0.074146,0.0738151,24.6254,4,0.00358058,10,0.00181773,-1.60862,0.424884,0.138861,133.423,0.0738151,
2,1,0,1,0,7105.1,0.0765431,0.0761098,24.9286,4,0.0037293,10,0.00189731,-1.6033,0.408801,0.144324,140.641,0.0761098,
2,1,0,1,0,7105.11,0.0789485,0.0785838,25.2946,4,0.00387997,10,0.00198774,-1.59697,0.407735,0.144702,142.843,0.0785838,
2,1,0,1,0,7105.12,0.0813456,0.0809729,25.6517,4,0.00403289,10,0.00207709,-1.59088,0.400555,0.147296,147.348,0.0809729,
2,1,0,1,0,7105.12,0.0837427,0.0833757,25.9951,4,0.00418785,10,0.00216736,-1.58511,0.416337,0.141712,143.808,0.0833757,
2,1,0,1,0,7105.13,0.0861398,0.0857966,26.3576,4,0.00434492,10,0.0022614,-1.57909,0.421497,0.139977,143.875,0.0857966,
2,1,0,1,0,7105.13,0.088548,0.0882271,26.7005,4,0.00450415,10,0.00235571,-1.57348,0.429545,0.137354,143.04,0.0882271,
2,1,0,1,0,7105.14,0.0909451,0.0905886,27.0329,4,0.00466535,10,0.00244887,-1.56811,0.444207,0.132821,140.18,0.0905886,
2,1,0,1,0,7105.15,0.0933422,0.0930053,27.3756,4,0.00482858,10,0.00254607,-1.56264,0.439966,0.134101,143.258,0.0930053,
2,1,0,1,0,7105.15,0.0957477,0.0953742,27.7263,4,0.00499391,10,0.00264437,-1.55711,0.455254,0.129598,140.119,0.0953742,
2,1,0,1,0,7105.16,0.0981447,0.0977814,28.0445,4,0.00516126,10,0.00274223,-1.55215,0.462263,0.127633,139.67,0.0977814,
2,1,0,1,0,7105.16,0.100542,0.100216,28.3801,4,0.00533057,10,0.00284414,-1.54699,0.465452,0.126758,140.431,0.100216,
2,1,0,1,0,7105.17,0.102939,0.102617,28.7148,4,0.00550186,10,0.00294662,-1.54189,0.463278,0.127353,142.748,0.102617,
2,1,0,1,0,7105.18,0.105347,0.105057,29.0644,4,0.00567528,10,0.00305342,-1.53664,0.470176,0.125485,142.281,0.105057,
2,1,0,1,0,7105.18,0.107744,0.107425,29.3987,4,0.00585071,10,0.00315815,-1.53167,0.47518,0.124163,142.534,0.107425,
2,1,0,1,0,7105.19,0.110141,0.109804,29.7513,4,0.00602818,10,0.00326682,-1.52649,0.454736,0.129746,150.716,0.109804,
2,1,0,1,0,7105.19,0.11255,0.112205,30.1366,4,0.00620786,10,0.00338148,-1.52091,0.450649,0.130922,153.88,0.112205,
2,1,0,1,0,7105.2,0.114947,0.114594,30.4801,4,0.00638971,10,0.00349284,-1.51598,0.441146,0.133742,159.231,0.1145941,
2,1,0,1,0,7105.21,0.117344,0.117044,30.8859,4,0.00657379,10,0.003615,-1.51024,0.419801,0.140543,169.463,0.117044,
2,1,0,1,0,7105.21,0.119744,0.119378,31.2952,4,0.00676036,10,0.00373595,-1.50452,0.412047,0.143188,174.856,0.119378,
2,1,0,1,0,7105.22,0.122146,0.121835,31.7159,4,0.00694944,10,0.00386409,-1.49872,0.405923,0.145348,180.012,0.121835,
2,1,0,1,0,7105.22,0.124543,0.124214,32.1594,4,0.0071411,10,0.00399465,-1.49269,0.38919,0.151597,190.374,0.124214,
2,1,0,1,0,7105.23,0.126941,0.126609,32.6302,4,0.00733554,10,0.00413127,-1.48638,0.376531,0.156693,199.62,0.126609,
2,1,0,1,0,7105.24,0.129349,0.129,33.124,4,0.00753285,10,0.00427299,-1.47986,0.373559,0.15794,204.224,0.129,
2,1,0,1,0,7105.24,0.131746,0.131404,33.6207,4,0.00773313,10,0.00441788,-1.47339,0.365381,0.161475,211.915,0.131404,
2,1,0,1,0,7105.25,0.134143,0.133822,34.1321,4,0.00793643,10,0.00456764,-1.46684,0.366832,0.160837,214.329,0.133822,
2,1,0,1,0,7105.25,0.13654,0.13615,34.6637,4,0.00814285,10,0.00471946,-1.46013,0.367664,0.160473,216.989,0.13615,
2,1,0,1,0,7105.26,0.138945,0.138571,35.1813,4,0.00835246,10,0.00487511,-1.45369,0.373918,0.157788,216.592,0.138571,
2,1,0,1,0,7105.27,0.141343,0.14105,35.7007,4,0.00856513,10,0.00503559,-1.44732,0.379563,0.155442,216.575,0.1410502,
2,1,0,1,0,7105.27,0.14374,0.143363,36.2294,4,0.00878097,10,0.00519395,-1.44094,0.386139,0.152795,215.845,0.143363,
2,1,0,1,0,7105.28,0.146148,0.14581,36.7315,4,0.00899993,10,0.00535584,-1.43496,0.406411,0.145173,208.028,0.14581,
2,1,0,1,0,7105.28,0.148545,0.148255,37.2162,4,0.00922183,10,0.00551747,-1.42927,0.422864,0.139525,202.677,0.148255,
2,1,0,1,0,7105.29,0.150942,0.150653,37.7159,4,0.0094467,10,0.00568203,-1.42347,0.437992,0.134706,198.137,0.150653,
2,1,0,1,0,7105.3,0.153345,0.152971,38.1718,4,0.00967442,10,0.00583919,-1.41826,0.469223,0.12574,187.229,0.152971,
2,1,0,1,0,7105.3,0.155747,0.155376,38.6223,4,0.00990485,10,0.00600099,-1.41316,0.488729,0.120721,181.866,0.155376,
2,1,0,1,0,7105.31,0.158144,0.157829,39.0504,4,0.0101379,10,0.00616328,-1.40837,0.522807,0.112852,171.838,0.157829,
2,1,0,1,0,7105.31,0.160542,0.160233,39.4402,4,0.0103734,10,0.00631962,-1.40406,0.578178,0.102045,156.94,0.160233,
2,1,0,1,0,7105.32,0.162947,0.162636,39.8034,4,0.0106112,10,0.00647346,-1.40008,0.651257,0.0905941,140.551,0.162636,
2,1,0,1,0,7105.33,0.165344,0.164999,40.1103,4,0.010851,10,0.00661818,-1.39674,0.767595,0.0768634,120.216,0.164999,
2,1,0,1,0,7105.33,0.167741,0.167427,40.3781,4,0.0110925,10,0.00676037,-1.39385,0.943984,0.062501,98.3518,0.167427,
2,1,0,1,0,7105.34,0.170149,0.169832,40.5935,4,0.0113355,10,0.00689406,-1.39154,1.46788,0.040194,63.5227,0.169832,
2,1,0,1,0,7105.34,0.172547,0.172214,40.6785,4,0.0115793,10,0.00700543,-1.39063,4.17943,0.0141168,22.3654,0.172214,
2,1,0,1,0,7105.35,0.174944,0.174631,40.6912,4,0.0118235,10,0.00710594,-1.3905,-3.74957,-0.0157352,-24.9211,0.174631,
2,1,0,1,0,7105.36,0.177341,0.177038,40.5717,4,0.0120674,10,0.00718274,-1.39178,-1.11578,-0.0528776,-83.4527,0.177038,
2,1,0,1,0,7105.36,0.179746,0.179408,40.3019,4,0.0123101,10,0.0072305,-1.39467,-0.643349,-0.0917076,-143.781,0.179408,
2,1,0,1,0,7105.37,0.182143,0.181866,39.8823,4,0.0125506,10,0.00725325,-1.39922,-0.430178,-0.137152,-212.631,0.1818663,
2,1,0,1,0,7105.37,0.18454,0.184231,39.2946,4,0.0127882,10,0.00723928,-1.40567,-0.314685,-0.187489,-286.318,0.184231,
2,1,0,1,0,7105.38,0.186949,0.186596,38.5294,4,0.0130217,10,0.00718943,-1.41421,-0.24953,-0.236444,-354.081,0.186596,
2,1,0,1,0,7105.39,0.189346,0.189023,37.5912,4,0.01325,10,0.0071056,-1.42491,-0.204876,-0.287979,-420.758,0.189023,
2,1,0,1,0,7105.39,0.191743,0.19146,36.5028,4,0.0134722,10,0.00698882,-1.43767,-0.176238,-0.334775,-475.288,0.19146,
2,1,0,1,0,7105.4,0.19414,0.193843,35.2918,4,0.0136875,10,0.00684105,-1.45233,-0.156685,-0.376552,-517.065,0.193843,
2,1,0,1,0,7105.4,0.196548,0.196226,33.9927,4,0.0138953,10,0.00667027,-1.46861,-0.142756,-0.413293,-546.855,0.196226,
2,1,0,1,0,7105.41,0.198945,0.198651,32.6235,4,0.0140951,10,0.0064807,-1.48647,-0.130816,-0.451014,-573.42,0.198651,
2,1,0,1,0,7105.42,0.201342,0.201024,31.246,4,0.0142865,10,0.00628119,-1.50521,-0.126034,-0.468127,-570.271,0.201024,
2,1,0,1,0,7105.42,0.203748,0.203419,29.878,4,0.0144698,10,0.00607776,-1.52465,-0.122362,-0.482176,-562.453,0.203419,
2,1,0,1,0,7105.43,0.206145,0.205846,28.5628,4,0.0146449,10,0.00587955,-1.5442,-0.123427,-0.478016,-533.552,0.205846,
2,1,0,1,0,7105.43,0.208542,0.208224,27.3211,4,0.0148124,10,0.0056889,-1.5635,-0.125635,-0.469616,-501.473,0.208224,
2,1,0,1,0,7105.44,0.210939,0.210631,26.1455,4,0.0149727,10,0.00550704,-1.5826,-0.129312,-0.456259,-466.811,0.210631,
2,1,0,1,0,7105.45,0.213347,0.213037,25.0908,4,0.0151263,10,0.00534527,-1.60049,-0.137154,-0.430174,-422.2,0.213037,
2,1,0,1,0,7105.45,0.215744,0.215481,24.1224,4,0.0152738,10,0.00519793,-1.61758,-0.14547,-0.405583,-382.709,0.215481,
2,1,0,1,0,7105.46,0.218141,0.217861,23.2365,4,0.0154157,10,0.00506232,-1.63383,-0.155896,-0.378457,-344.336,0.217861,
2,1,0,1,0,7105.46,0.220547,0.220266,22.4604,4,0.0155527,10,0.00494727,-1.64858,-0.167026,-0.353239,-310.39,0.220266,
2,1,0,1,0,7105.47,0.222944,0.222626,21.767,4,0.0156853,10,0.00484591,-1.6622,-0.182158,-0.323895,-275.775,0.222626,
2,1,0,1,0,7105.48,0.225341,0.225041,21.1397,4,0.0158139,10,0.00475728,-1.6749,-0.199076,-0.296369,-245.262,0.225041,
2,1,0,1,0,7105.48,0.227744,0.227381,20.587,4,0.015939,10,0.0046811,-1.68641,-0.218924,-0.2695,-217.068,0.227381,
2,1,0,1,0,7105.49,0.230146,0.229826,20.1019,4,0.016061,10,0.00461995,-1.69676,-0.239733,-0.246107,-193.435,0.229826,
2,1,0,1,0,7105.49,0.232543,0.232226,19.6663,4,0.0161802,10,0.00456703,-1.70628,-0.262908,-0.224413,-172.477,0.232226,
2,1,0,1,0,7105.5,0.234941,0.234613,19.2666,4,0.016297,10,0.00452021,-1.71519,-0.29349,-0.201029,-151.428,0.234613,
2,1,0,1,0,7105.51,0.237349,0.237028,18.9272,4,0.0164115,10,0.00448628,-1.72291,-0.320063,-0.184339,-136.3,0.237028,
2,1,0,1,0,7105.51,0.239746,0.239409,18.6116,4,0.016524,10,0.00445578,-1.73022,-0.3343,-0.176488,-128.278,0.239409,
2,1,0,1,0,7105.52,0.242143,0.241827,18.3144,4,0.0166347,10,0.00442892,-1.73721,-0.372326,-0.158463,-113.434,0.241827,
2,1,0,1,0,7105.52,0.244548,0.244268,18.059,4,0.0167438,10,0.00441124,-1.74331,-0.409252,-0.144165,-101.715,0.244268,
2,1,0,1,0,7105.53,0.246946,0.24664,17.8232,4,0.0168514,10,0.00439593,-1.74901,-0.434032,-0.135935,-94.6019,0.24664,
2,1,0,1,0,7105.54,0.249343,0.249053,17.5994,4,0.0169577,10,0.00438318,-1.7545,-0.453707,-0.13004,-89.4446,0.249053,
2,1,0,1,0,7105.54,0.25174,0.251413,17.3959,4,0.0170627,10,0.00437355,-1.75955,-0.494698,-0.119265,-81.0695,0.251413,
2,1,0,1,0,7105.55,0.254148,0.253864,17.2331,4,0.0171666,10,0.00437487,-1.76364,-0.53031,-0.111256,-74.7926,0.253864,
2,1,0,1,0,7105.55,0.256545,0.256219,17.0491,4,0.0172694,10,0.0043683,-1.7683,-0.55225,-0.106836,-71.1527,0.256219,
2,1,0,1,0,7105.56,0.258942,0.258632,16.8928,4,0.0173711,10,0.00436902,-1.7723,-0.615345,-0.0958812,-63.2371,0.258632,
2,1,0,1,0,7105.57,0.261348,0.261027,16.7477,4,0.017472,10,0.00437159,-1.77605,-0.6636,-0.088909,-58.1164,0.261027,
2,1,0,1,0,7105.57,0.263745,0.26339,16.6043,4,0.0175721,10,0.00437342,-1.77978,-0.660554,-0.0893189,-57.8657,0.26339,
2,1,0,1,0,7105.58,0.266142,0.265835,16.4638,4,0.0176713,10,0.00437665,-1.78347,-0.687776,-0.0857837,-55.1572,0.2658346,
2,1,0,1,0,7105.58,0.268539,0.26822,16.3196,4,0.0177696,10,0.00437724,-1.78729,-0.732283,-0.08057,-51.4176,0.26822,
2,1,0,1,0,7105.59,0.270947,0.270629,16.2305,4,0.0178673,10,0.00439244,-1.78967,-0.756042,-0.078038,-49.3913,0.270629,
2,1,0,1,0,7105.6,0.273344,0.273023,16.1132,4,0.0179643,10,0.00439928,-1.79282,-0.750319,-0.0786332,-49.4244,0.273023,
2,1,0,1,0,7105.6,0.275741,0.27542,15.9844,4,0.0180606,10,0.00440243,-1.7963,-0.836333,-0.0705461,-44.0766,0.27542,
2,1,0,1,0,7105.61,0.278149,0.277856,15.901,4,0.0181562,10,0.0044182,-1.79858,-0.864549,-0.0682437,-42.2987,0.277856,
2,1,0,1,0,7105.61,0.280547,0.280237,15.7906,4,0.0182512,10,0.00442512,-1.8016,-0.848677,-0.06952,-42.8326,0.280237,
2,1,0,1,0,7105.62,0.282944,0.282676,15.6898,4,0.0183456,10,0.00443512,-1.80438,-0.931341,-0.0633495,-38.8225,0.282676,
2,1,0,1,0,7105.63,0.285344,0.285031,15.5997,4,0.0184395,10,0.00444639,-1.80688,-0.940149,-0.062756,-38.1986,0.285031,
2,1,0,1,0,7105.63,0.287746,0.287422,15.5036,4,0.0185328,10,0.00445607,-1.80957,-0.940237,-0.0627501,-37.961,0.287422,
2,1,0,1,0,7105.64,0.290143,0.289805,15.4063,4,0.0186255,10,0.00446482,-1.8123,-0.906222,-0.0651054,-39.1629,0.289805,
2,1,0,1,0,7105.64,0.29254,0.292256,15.3158,4,0.0187177,10,0.00447613,-1.81486,-1.02977,-0.0572944,-34.2737,0.292256,
2,1,0,1,0,7105.65,0.294949,0.29462,15.2411,4,0.0188094,10,0.00449034,-1.81698,-1.01477,-0.0581414,-34.5755,0.29462,
2,1,0,1,0,7105.66,0.297346,0.297062,15.1596,4,0.0189006,10,0.00450334,-1.81931,-1.07378,-0.0549459,-32.5298,0.297062,
2,1,0,1,0,7105.66,0.299621,0.299347,15.0656,4,0.0189867,10,0.00450983,-1.82201,-0.0665216,-0.886929,-499.333,0.299347,
2,1,0,1,0,7105.66,0.299962,0.299727,14.9447,4,0.0190048,10,0.00447933,-1.82551,0.00706551,8.35042,3778.47,0.299727,
2,1,0,1,0,7105.67,0.297903,0.297687,10.1115,4,0.0190669,10,0.00301007,-1.99518,0.0112649,5.23751,1896.51,0.297687,
2,1,0,1,0,7105.67,0.295506,0.295263,6.24577,4,0.019115,10,0.00184414,-2.20441,0.00999919,5.90048,1403.02,0.295263,
2,1,0,1,0,7105.68,0.293101,0.292836,3.40302,4,0.0191432,10,0.000996526,-2.46814,0.00608875,9.69,1055.2,0.292836,
2,1,0,1,0,7105.69,0.290704,0.290472,1.26549,4,0.0191568,10,0.000367591,-2.89774,0.00921993,6.39918,803.486,0.290472,
2,0,0,1,0,7105.69,0.288307,0.288028,-0.394018,4,0.019159,10,-0.000113488,-3.40448,-0.154881,-0.380936,629.743,0.288028,
2,0,0,1,0,7105.7,0.28591,0.285627,-1.71018,4,0.0191524,10,-0.000488474,-2.76696,-0.00450623,-13.093,492.809,0.285627,
2,0,0,1,0,7105.7,0.283501,0.283231,-2.78893,4,0.0191387,10,-0.000789909,-2.55456,-0.013567,-4.34878,401.199,0.283231,
2,0,0,1,0,7105.71,0.281104,0.280802,-3.63488,4,0.0191193,10,-0.00102068,-2.43951,-0.0241144,-2.44667,324.715,0.280802,
2,0,0,1,0,7105.72,0.278707,0.278398,-4.34533,4,0.0190953,10,-0.00120973,-2.36198,-0.0351875,-1.67673,274.391,0.278398,
2,0,0,1,0,7105.72,0.276302,0.276019,-4.95546,4,0.0190672,10,-0.0013678,-2.30492,-0.048264,-1.22244,229.877,0.276019,
2,0,0,1,0,7105.73,0.273905,0.273591,-5.44998,4,0.0190359,10,-0.00149107,-2.26361,-0.062999,-0.936522,196.34,0.273591,
2,0,0,1,0,7105.73,0.271508,0.271206,-5.88241,4,0.0190019,10,-0.00159534,-2.23044,-0.0774884,-0.761405,173.453,0.271206,
2,0,0,1,0,7105.74,0.269105,0.268839,-6.28336,4,0.0189653,10,-0.00168921,-2.20181,-0.0934516,-0.631343,153.183,0.2688387,
2,0,0,1,0,7105.75,0.266702,0.266416,-6.61794,4,0.0189265,10,-0.00176312,-2.17928,-0.114326,-0.516067,132.384,0.266416,
2,0,0,1,0,7105.75,0.264305,0.263994,-6.91066,4,0.0188859,10,-0.00182437,-2.16048,-0.134665,-0.438123,117.789,0.263994,
2,0,0,1,0,7105.76,0.261908,0.261615,-7.1955,4,0.0188435,10,-0.00188245,-2.14294,-0.14852,-0.397254,111.015,0.261615,
2,0,0,1,0,7105.76,0.2595,0.259225,-7.44744,4,0.0187996,10,-0.00193056,-2.12799,-0.168974,-0.349167,101.118,0.259225,
2,0,0,1,0,7105.77,0.257103,0.256818,-7.67319,4,0.0187542,10,-0.00197061,-2.11502,-0.191519,-0.308064,92.0597,0.256818,
2,0,0,1,0,7105.78,0.254706,0.254409,-7.88057,4,0.0187075,10,-0.00200489,-2.10344,-0.203024,-0.290605,89.3513,0.254409,
2,0,0,1,0,7105.78,0.2523,0.251978,-8.10113,4,0.0186595,10,-0.00204131,-2.09145,-0.229642,-0.256921,80.9279,0.251978,
2,0,0,1,0,7105.79,0.249903,0.249614,-8.28187,4,0.0186104,10,-0.00206727,-2.08187,-0.251773,-0.234338,75.5782,0.249614,
2,0,0,1,0,7105.79,0.247506,0.24721,-8.44618,4,0.0185602,10,-0.00208798,-2.07334,-0.268505,-0.219735,72.4752,0.24721,
2,0,0,1,0,7105.8,0.245109,0.244809,-8.62501,4,0.0185089,10,-0.00211148,-2.06424,-0.282274,-0.209017,70.2934,0.244809,
2,0,0,1,0,7105.81,0.242701,0.242382,-8.80204,4,0.0184566,10,-0.00213345,-2.05542,-0.29728,-0.198466,67.9792,0.242382,
2,0,0,1,0,7105.81,0.240304,0.240003,-8.93847,4,0.0184034,10,-0.00214526,-2.04874,-0.333727,-0.176791,61.7743,0.240003,
2,0,0,1,0,7105.82,0.237906,0.237567,-9.09857,4,0.0183493,10,-0.00216152,-2.04103,-0.331302,-0.178085,63.1862,0.237567,
2,0,0,1,0,7105.82,0.235501,0.235214,-9.25479,4,0.0182942,10,-0.00217686,-2.03363,-0.356525,-0.165486,59.6557,0.235214,
2,0,0,1,0,7105.83,0.233104,0.232828,-9.38557,4,0.0182382,10,-0.00218523,-2.02754,-0.3598,-0.16398,60.0737,0.232828,
2,0,0,1,0,7105.84,0.230707,0.230385,-9.52592,4,0.0181815,10,-0.00219463,-2.02109,-0.370559,-0.159219,59.2271,0.2303852,
2,0,0,1,0,7105.84,0.22831,0.227989,-9.66121,4,0.0181239,10,-0.00220265,-2.01497,-0.385256,-0.153145,57.7075,0.227989,
2,0,0,1,0,7105.85,0.225902,0.225612,-9.80015,4,0.0180655,10,-0.00221104,-2.00877,-0.413885,-0.142552,54.4663,0.2256123,
2,0,0,1,0,7105.85,0.223504,0.223244,-9.92647,4,0.0180063,10,-0.00221603,-2.0032,-0.417534,-0.141306,54.7458,0.2232444,
2,0,0,1,0,7105.86,0.221107,0.22085,-10.0546,4,0.0179464,10,-0.00222056,-1.99764,-0.417117,-0.141447,55.5039,0.22085,
2,0,0,1,0,7105.87,0.218699,0.218387,-10.1988,4,0.0178856,10,-0.00222729,-1.99145,-0.448613,-0.131516,52.2261,0.218387,
2,0,0,1,0,7105.87,0.216302,0.216016,-10.3081,4,0.0178241,10,-0.00222671,-1.98682,-0.464166,-0.12711,51.1959,0.216016,
2,0,0,1,0,7105.88,0.213905,0.213603,-10.4413,4,0.0177618,10,-0.00223029,-1.98125,-0.451447,-0.130691,53.2916,0.2136032,
2,0,0,1,0,7105.88,0.211505,0.211195,-10.5769,4,0.0176988,10,-0.00223379,-1.97564,-0.459595,-0.128374,52.9332,0.211195,
2,0,0,1,0,7105.89,0.209102,0.208848,-10.6856,4,0.0176349,10,-0.00223167,-1.9712,-0.449328,-0.131307,54.8516,0.208848,
2,0,0,1,0,7105.9,0.206705,0.206403,-10.8314,4,0.0175704,10,-0.00223563,-1.96532,-0.458158,-0.128777,54.4185,0.206403,
2,0,0,1,0,7105.9,0.204308,0.203999,-10.9646,4,0.017505,10,-0.00223676,-1.96001,-0.460485,-0.128126,54.7472,0.2039991,
2,0,0,1,0,7105.91,0.2019,0.201554,-11.0883,4,0.0174388,10,-0.00223489,-1.95514,-0.485896,-0.121425,52.5464,0.201554,
2,0,0,1,0,7105.91,0.199503,0.199166,-11.2121,4,0.0173719,10,-0.00223308,-1.95031,-0.476849,-0.123729,54.1792,0.199166,
2,0,0,1,0,7105.92,0.197106,0.196822,-11.3454,4,0.0173042,10,-0.00223302,-1.94518,-0.469571,-0.125647,55.7061,0.196822,
2,0,0,1,0,7105.93,0.194709,0.194377,-11.4867,4,0.0172357,10,-0.00223275,-1.9398,-0.456684,-0.129192,57.9335,0.194377,
2,0,0,1,0,7105.93,0.192303,0.19204,-11.6311,4,0.0171663,10,-0.00223364,-1.93438,-0.45047,-0.130974,59.4455,0.19204,
2,0,0,1,0,7105.94,0.189906,0.189586,-11.7733,4,0.0170961,10,-0.00223205,-1.9291,-0.448127,-0.131659,60.5278,0.189586,
2,0,0,1,0,7105.94,0.187509,0.187179,-11.9291,4,0.017025,10,-0.00223288,-1.92339,-0.429843,-0.137259,63.8921,0.187179,
2,0,0,1,0,7105.95,0.185101,0.184788,-12.0864,4,0.0169529,10,-0.00223342,-1.9177,-0.416959,-0.141501,66.7161,0.184788,
2,0,0,1,0,7105.96,0.182704,0.182396,-12.2403,4,0.01688,10,-0.00223259,-1.91221,-0.408611,-0.144392,69.0478,0.1823965,
2,0,0,1,0,7105.96,0.180307,0.180016,-12.4215,4,0.016806,10,-0.00223607,-1.90583,-0.380565,-0.155033,75.1058,0.180016,
2,0,0,1,0,7105.97,0.177904,0.177607,-12.5901,4,0.016731,10,-0.00223609,-1.89997,-0.374779,-0.157426,77.4262,0.177607,
2,0,0,1,0,7105.97,0.175501,0.175185,-12.7834,4,0.0166548,10,-0.00223945,-1.89336,-0.35412,-0.16661,83.1814,0.175185,
2,0,0,1,0,7105.98,0.173104,0.172849,-12.9925,4,0.0165775,10,-0.00224574,-1.88631,-0.3485,-0.169297,85.8362,0.172849,
2,0,0,1,0,7105.99,0.170707,0.170392,-13.1945,4,0.0164989,10,-0.00224823,-1.87961,-0.324745,-0.181681,93.721,0.170392,
2,0,0,1,0,7105.99,0.168302,0.168041,-13.4419,4,0.016419,10,-0.00225878,-1.87154,-0.307424,-0.191917,100.732,0.168041,
2,0,0,1,0,7106,0.165905,0.165612,-13.688,4,0.0163376,10,-0.0022669,-1.86366,-0.291487,-0.202411,108.255,0.165612,
2,0,0,1,0,7106,0.163507,0.163197,-13.9662,4,0.0162546,10,-0.00227924,-1.85492,-0.27052,-0.218099,119.059,0.163197,
2,0,0,1,0,7106.01,0.161099,0.160803,-14.2628,4,0.0161699,10,-0.0022935,-1.8458,-0.251612,-0.234488,130.671,0.160803,
2,0,0,1,0,7106.02,0.158702,0.15837,-14.5821,4,0.0160834,10,-0.00230936,-1.83618,-0.235747,-0.250269,142.691,0.15837,
2,0,0,1,0,7106.02,0.156305,0.155986,-14.9404,4,0.0159948,10,-0.00233049,-1.82564,-0.22231,-0.265395,154.982,0.155986,
2,0,0,1,0,7106.03,0.153908,0.153601,-15.3177,4,0.015904,10,-0.00235281,-1.81481,-0.207605,-0.284193,170.285,0.153601,
2,0,0,1,0,7106.03,0.151503,0.15125,-15.7401,4,0.0158107,10,-0.00238069,-1.80299,-0.193652,-0.30467,187.621,0.15125,
2,0,0,1,0,7106.04,0.149105,0.148799,-16.2161,4,0.0157148,10,-0.00241293,-1.79005,-0.186215,-0.316839,200.76,0.148799,
2,0,0,1,0,7106.05,0.146708,0.146417,-16.7223,4,0.015616,10,-0.00244843,-1.7767,-0.172574,-0.341882,223.583,0.146417,
2,0,0,1,0,7106.05,0.1443,0.143982,-17.2806,4,0.015514,10,-0.0024881,-1.76244,-0.16424,-0.359231,242.846,0.143982,
2,0,0,1,0,7106.06,0.141903,0.141593,-17.8971,4,0.0154084,10,-0.00253411,-1.74722,-0.155879,-0.378499,264.687,0.1415931,
2,0,0,1,0,7106.06,0.139506,0.139224,-18.5556,4,0.015299,10,-0.00258339,-1.73153,-0.148967,-0.39606,287.39,0.139224,
2,0,0,1,0,7106.07,0.137109,0.136819,-19.261,4,0.0151855,10,-0.00263527,-1.71532,-0.141494,-0.416978,314.271,0.136819,
2,0,0,1,0,7106.08,0.134701,0.134429,-20.0621,4,0.0150675,10,-0.00269693,-1.69762,-0.137077,-0.430416,337.296,0.134429,
2,0,0,1,0,7106.08,0.132303,0.132045,-20.884,4,0.0149446,10,-0.00275763,-1.68019,-0.135323,-0.435994,355.712,0.132045,
2,0,0,1,0,7106.09,0.129906,0.129634,-21.7594,4,0.0148166,10,-0.00282076,-1.66235,-0.134947,-0.437208,371.546,0.129634,
2,0,0,1,0,7106.09,0.127501,0.127208,-22.6788,4,0.0146832,10,-0.00288491,-1.64438,-0.136484,-0.432285,382.652,0.127208,
2,0,0,1,0,7106.1,0.125104,0.124799,-23.617,4,0.0145442,10,-0.00294739,-1.62677,-0.137325,-0.429639,395.788,0.124799,
2,0,0,1,0,7106.11,0.122707,0.12242,-24.5739,4,0.0143995,10,-0.00300833,-1.60953,-0.13982,-0.421971,404.562,0.12242,
2,0,0,1,0,7106.11,0.12031,0.120024,-25.5322,4,0.0142491,10,-0.00306449,-1.59291,-0.144748,-0.407606,406.282,0.120024,
2,0,0,1,0,7106.12,0.117901,0.117639,-26.5309,4,0.0140928,10,-0.00312106,-1.57625,-0.152993,-0.385639,398.281,0.117639,
2,0,0,1,0,7106.12,0.115504,0.115213,-27.4821,4,0.0139306,10,-0.0031663,-1.56095,-0.160812,-0.366888,392.711,0.115213,
2,0,0,1,0,7106.13,0.113107,0.112871,-28.3745,4,0.0137631,10,-0.00320265,-1.54707,-0.168241,-0.350687,388.669,0.112871,
2,0,0,1,0,7106.14,0.110702,0.110444,-29.3326,4,0.0135899,10,-0.0032396,-1.53265,-0.172871,-0.341294,389.942,0.110444,
2,0,0,1,0,7106.14,0.108305,0.108077,-30.2538,4,0.013411,10,-0.00326974,-1.51922,-0.188287,-0.313352,369.034,0.108077,
2,0,0,1,0,7106.15,0.105908,0.105639,-31.1051,4,0.0132268,10,-0.00328591,-1.50717,-0.204218,-0.288908,350.427,0.105639,
2,0,0,1,0,7106.15,0.103505,0.103207,-31.9467,4,0.0130376,10,-0.00329714,-1.49557,-0.217536,-0.271219,337.592,0.103207,
2,0,0,1,0,7106.16,0.101102,0.10083,-32.7439,4,0.0128434,10,-0.00330157,-1.48487,-0.235482,-0.25055,319.582,0.10083,
2,0,0,1,0,7106.17,0.0987052,0.0984526,-33.4877,4,0.0126446,10,-0.00329695,-1.47511,-0.257986,-0.228694,298.374,0.09845259,
2,0,0,1,0,7106.17,0.0963081,0.0960571,-34.166,4,0.0124415,10,-0.00328189,-1.46641,-0.280108,-0.210633,280.638,0.0960571,
2,0,0,1,0,7106.18,0.0938999,0.0936627,-34.839,4,0.0122345,10,-0.00326312,-1.45793,-0.300535,-0.196317,266.578,0.0936627,
2,0,0,1,0,7106.18,0.0915028,0.0912683,-35.466,4,0.0120235,10,-0.00323692,-1.45019,-0.334509,-0.176378,243.627,0.0912683,
2,0,0,1,0,7106.19,0.0891057,0.0888549,-36.0203,4,0.011809,10,-0.00320057,-1.44345,-0.368123,-0.160273,224.993,0.0888549,
2,0,0,1,0,7106.2,0.0867002,0.0864223,-36.5432,4,0.0115913,10,-0.00315815,-1.43719,-0.414156,-0.142458,202.854,0.0864223,
2,0,0,1,0,7106.2,0.0843031,0.0840088,-37.0008,4,0.0113706,10,-0.00310839,-1.43179,-0.483399,-0.122052,175.868,0.0840088,
2,0,0,1,0,7106.21,0.081906,0.0816155,-37.3703,4,0.0111474,10,-0.00304999,-1.42747,-0.579603,-0.101794,148.277,0.0816155,
2,0,0,1,0,7106.21,0.0795089,0.0792136,-37.6944,4,0.0109221,10,-0.00298591,-1.42372,-0.71576,-0.0824299,121.135,0.0792136,
2,0,0,1,0,7106.22,0.0771007,0.0767789,-37.977,4,0.010695,10,-0.00291584,-1.42048,-0.908406,-0.0649489,96.0536,0.0767789,
2,0,0,1,0,7106.23,0.0747036,0.0743782,-38.1578,4,0.0104665,10,-0.00283811,-1.41842,-1.42319,-0.0414562,61.638,0.0743782,
2,0,0,1,0,7106.23,0.0723065,0.0720071,-38.2746,4,0.0102372,10,-0.00275604,-1.41709,-2.47923,-0.0237977,35.4982,0.0720071,
2,0,0,1,0,7106.24,0.0699011,0.0695947,-38.3465,4,0.0100074,10,-0.00266872,-1.41627,-8.55382,-0.0068975,10.3013,0.0695947,
2,0,0,1,0,7106.24,0.067504,0.0672162,-38.3241,4,0.0097774,10,-0.002576,-1.41653,4.87155,0.0121111,-18.081,0.0672162,
2,0,0,1,0,7106.25,0.0651069,0.0647995,-38.2448,4,0.00954768,10,-0.00247825,-1.41743,2.0517,0.0287567,-42.8681,0.06479954,
2,0,0,1,0,7106.26,0.0627098,0.0623967,-38.0995,4,0.00931865,10,-0.00237728,-1.41908,1.36898,0.0430979,-64.0372,0.06239666,
2,0,0,1,0,7106.26,0.0603016,0.0600054,-37.932,4,0.00909051,10,-0.00227613,-1.42099,1.0451,0.0564537,-83.4759,0.0600054,
2,0,0,1,0,7106.27,0.0579045,0.0575898,-37.7023,4,0.00886357,10,-0.00217127,-1.42363,0.860317,0.0685794,-100.842,0.05758984,
2,0,0,1,0,7106.27,0.0555074,0.0551721,-37.4361,4,0.00863817,10,-0.00206543,-1.42671,0.800049,0.0737455,-107.763,0.0551721,
2,0,0,1,0,7106.28,0.0530992,0.052766,-37.1901,4,0.00841432,10,-0.00196237,-1.42957,0.736381,0.0801216,-116.189,0.052766,
2,0,0,1,0,7106.29,0.0507021,0.0504162,-36.9025,4,0.00819207,10,-0.00186048,-1.43294,0.698832,0.0844266,-121.508,0.05041619,
2,0,0,1,0,7106.29,0.048305,0.0480091,-36.5892,4,0.00797165,10,-0.00175661,-1.43665,0.682323,0.0864693,-123.531,0.04800906,
2,0,0,1,0,7106.3,0.0459051,0.0455924,-36.3033,4,0.00775303,10,-0.00165516,-1.44005,0.681722,0.0865455,-122.606,0.0455924,
2,0,0,1,0,7106.3,0.0435024,0.0432309,-36.016,4,0.00753608,10,-0.00155701,-1.4435,0.684387,0.0862086,-121.149,0.0432309,
2,0,0,1,0,7106.31,0.0411053,0.040845,-35.7131,4,0.00732093,10,-0.0014587,-1.44717,0.685287,0.0860953,-120.058,0.040845,
2,0,0,1,0,7106.32,0.0387082,0.0383827,-35.4379,4,0.00710749,10,-0.0013602,-1.45053,0.712245,0.0828367,-114.589,0.03838269,
2,0,0,1,0,7106.32,0.0363,0.0359777,-35.1657,4,0.0068957,10,-0.00126518,-1.45388,0.69999,0.084287,-115.668,0.0359777,
2,0,0,1,0,7106.33,0.0339029,0.0336204,-34.8874,4,0.00668554,10,-0.00117293,-1.45733,0.693233,0.0851085,-115.866,0.03362041,
2,0,0,1,0,7106.33,0.0315058,0.0312281,-34.6079,4,0.00647708,10,-0.00108074,-1.46082,0.698625,0.0844516,-114.116,0.0312281,
2,0,0,1,0,7106.34,0.0291087,0.0287987,-34.3369,4,0.00627029,10,-0.00098886,-1.46424,0.698567,0.0844586,-113.196,0.0287987,
2,0,0,1,0,7106.35,0.0267033,0.0264001,-34.0773,4,0.00606503,10,-0.000899645,-1.46753,0.681766,0.08654,-115.028,0.0264001,
2,0,0,1,0,7106.35,0.0243062,0.0239877,-33.7892,4,0.00586145,10,-0.000810523,-1.47122,0.658878,0.0895461,-118.109,0.0239877,
2,0,0,1,0,7106.36,0.0219091,0.0215912,-33.5128,4,0.00565958,10,-0.00072358,-1.47479,0.668541,0.0882519,-115.432,0.0215912,
2,0,0,1,0,7106.36,0.0195009,0.0192392,-33.2458,4,0.00545932,10,-0.000639622,-1.47826,0.632791,0.0932377,-120.863,0.0192392,
2,0,0,1,0,7106.37,0.0171038,0.016813,-32.9274,4,0.00526083,10,-0.000553607,-1.48244,0.589042,0.100163,-128.742,0.016813,
2,0,0,1,0,7106.38,0.0147067,0.0144218,-32.6239,4,0.00506419,10,-0.000470494,-1.48646,0.585255,0.100811,-128.318,0.01442175,
2,0,0,1,0,7106.38,0.012304,0.0119977,-32.3249,4,0.00486937,10,-0.000387823,-1.49046,0.544455,0.108365,-136.567,0.0119977,
2,0,0,1,0,7106.39,0.00990136,0.00955978,-31.9778,4,0.00467649,10,-0.000305701,-1.49515,0.511981,0.115239,-143.734,0.009559785,
2,0,0,1,0,7106.39,0.00750426,0.00719084,-31.6151,4,0.00448576,10,-0.000227339,-1.50011,0.468859,0.125837,-155.227,0.007190838,
2,0,0,1,0,7106.4,0.00510715,0.00478477,-31.2403,4,0.00429719,10,-0.000149478,-1.50529,0.487201,0.1211,-147.739,0.004784775,
2,0,0,1,0,7106.41,0.00270173,0.00237977,-30.8629,4,0.00411089,10,-7.34467e-05,-1.51056,0.447324,0.131895,-158.851,0.00237977,
2,0,0,1,0,7106.41,0.000304623,-8.6732e-05,-30.4933,4,0.00392673,10,2.64474e-06,-1.5158,0.4163,0.141725,-168.454,-8.6732e-05,
2,0,0,1,0,7106.42,-0.00209248,-0.0025087,-30.0609,4,0.00374511,10,7.54138e-05,-1.522,0.388445,0.151888,-178.183,-0.0025087,
2,0,0,1,0,7106.42,-0.00450068,-0.00488083,-29.6489,4,0.00356607,10,0.000144711,-1.52799,0.372597,0.158348,-183.022,-0.00488083,
2,0,0,1,0,7106.43,-0.00689779,-0.0072519,-29.1932,4,0.0033896,10,0.000211706,-1.53472,0.371791,0.158691,-180.784,-0.007251902,
2,0,0,1,0,7106.44,-0.00929489,-0.00961873,-28.7526,4,0.00321585,10,0.000276564,-1.54132,0.373854,0.157816,-177.255,-0.00961873,
2,0,0,1,0,7106.44,-0.011692,-0.0120396,-28.3474,4,0.00304457,10,0.000341293,-1.54749,0.384344,0.153508,-169.831,-0.0120396,
2,0,0,1,0,7106.45,-0.0140974,-0.0144552,-27.9359,4,0.00287572,10,0.00040382,-1.55384,0.388562,0.151842,-165.656,-0.0144552,
2,0,0,1,0,7106.45,-0.0164945,-0.0168762,-27.5534,4,0.00270929,10,0.000464996,-1.55982,0.405613,0.145459,-156.606,-0.0168762,
2,0,0,1,0,7106.46,-0.0188916,-0.0192493,-27.2018,4,0.00254508,10,0.000523616,-1.5654,0.437586,0.134831,-143.242,-0.0192493,
2,0,0,1,0,7106.47,-0.0212998,-0.021684,-26.8759,4,0.00238289,10,0.000582778,-1.57064,0.467479,0.126209,-132.456,-0.021684,
2,0,0,1,0,7106.47,-0.0236969,-0.0240583,-26.5648,4,0.00222262,10,0.000639104,-1.57569,0.512552,0.11511,-119.469,-0.0240583,
2,0,0,1,0,7106.48,-0.026094,-0.0264431,-26.3044,4,0.00206408,10,0.000695572,-1.57997,0.579242,0.101857,-104.649,-0.0264431,
2,0,0,1,0,7106.48,-0.0284912,-0.0288757,-26.056,4,0.00190705,10,0.000752387,-1.58409,0.658007,0.0896647,-91.2766,-0.0288757,
2,0,0,1,0,7106.49,-0.0308994,-0.0312606,-25.852,4,0.00175134,10,0.000808148,-1.58751,0.732793,0.0805139,-81.2892,-0.03126058,
2,0,0,1,0,7106.5,-0.0332965,-0.0336157,-25.6623,4,0.00159681,10,0.000862658,-1.5907,0.846699,0.0696824,-69.8878,-0.0336157,
2,0,0,1,0,7106.5,-0.0356936,-0.0360388,-25.5169,4,0.00144331,10,0.000919597,-1.59317,1.0149,0.0581338,-57.9555,-0.0360388,
2,0,0,1,0,7106.51,-0.038099,-0.0385106,-25.4,4,0.00129056,10,0.000978169,-1.59517,1.2899,0.0457398,-45.3679,-0.03851058,
2,0,0,1,0,7106.51,-0.0404961,-0.0408339,-25.2839,4,0.00113854,10,0.00103244,-1.59716,1.5192,0.0388362,-38.383,-0.0408339,
2,0,0,1,0,7106.52,-0.0428932,-0.0432411,-25.2167,4,0.000987023,10,0.0010904,-1.59831,2.26735,0.0260216,-25.6228,-0.0432411,
2,0,0,1,0,7106.53,-0.0452903,-0.0456386,-25.1587,4,0.000835886,10,0.00114821,-1.59931,2.93848,0.0200784,-19.7292,-0.0456386,
2,0,0,1,0,7106.53,-0.0476985,-0.0480245,-25.1173,4,0.000685054,10,0.00120625,-1.60003,5.97391,0.00987629,-9.69399,-0.04802455,
2,0,0,1,0,7106.54,-0.0500956,-0.0504804,-25.1181,4,0.00053435,10,0.00126797,-1.60001,15.0934,0.00390899,-3.83235,-0.0504804,
2,0,0,1,0,7106.54,-0.0524927,-0.052824,-25.1099,4,0.000383654,10,0.0013264,-1.60016,-16.959,-0.00347898,3.41226,-0.05282395,
2,0,0,1,0,7106.55,-0.0548981,-0.0552777,-25.1287,4,0.000232957,10,0.00138906,-1.59983,-6.4854,-0.00909736,8.92847,-0.0552777,
2,0,0,1,0,7106.56,-0.0572953,-0.0576605,-25.1605,4,8.20836e-05,10,0.00145077,-1.59928,-3.80424,-0.015509,15.2339,-0.0576605,
2,0,0,1,0,7106.56,-0.0596924,-0.0600199,-25.2057,4,-6.9013e-05,10,0.00151284,-1.5985,-2.5578,-0.0230667,22.704,-0.0600199,
2,0,0,1,0,7106.57,-0.062095,-0.0624323,-25.2681,4,-0.000220401,10,0.00157755,-1.59743,-2.26227,-0.02608,25.7204,-0.0624323,
2,0,0,1,0,7106.57,-0.0644977,-0.0648723,-25.3316,4,-0.000372228,10,0.00164332,-1.59634,-1.81942,-0.0324278,32.069,-0.0648723,
2,0,0,1,0,7106.58,-0.0668948,-0.0672444,-25.4176,4,-0.000524454,10,0.00170919,-1.59487,-1.68226,-0.0350719,34.8031,-0.0672444,
2,0,0,1,0,7106.59,-0.0692919,-0.0696505,-25.5076,4,-0.000677237,10,0.00177661,-1.59333,-1.42527,-0.0413955,41.22,-0.0696505,
2,0,0,1,0,7106.59,-0.0717001,-0.072046,-25.6112,4,-0.000830605,10,0.00184519,-1.59157,-1.25388,-0.0470541,47.0634,-0.072046,
2,0,0,1,0,7106.6,-0.0740972,-0.0744541,-25.7233,4,-0.000984614,10,0.0019152,-1.58967,-1.21414,-0.0485939,48.8156,-0.0744541,
2,0,0,1,0,7106.6,-0.0764943,-0.0768358,-25.8574,4,-0.00113939,10,0.00198678,-1.58741,-1.11971,-0.0526921,53.174,-0.0768358,
2,0,0,1,0,7106.61,-0.0788997,-0.0792832,-25.9761,4,-0.00129487,10,0.00205947,-1.58543,-1.05294,-0.0560334,56.8529,-0.0792832,
2,0,0,1,0,7106.62,-0.0812968,-0.0816363,-26.1255,4,-0.00145119,10,0.00213279,-1.58294,-0.972669,-0.0606578,61.8382,-0.0816363,
2,0,0,1,0,7106.62,-0.0836939,-0.0840498,-26.2799,4,-0.00160843,10,0.00220882,-1.58038,-0.934799,-0.0631152,64.7293,-0.0840498,
2,0,0,1,0,7106.63,-0.086091,-0.0864654,-26.4216,4,-0.00176654,10,0.00228455,-1.57804,-0.88809,-0.0664347,68.5669,-0.0864654,
2,0,0,1,0,7106.63,-0.0884992,-0.088828,-26.6072,4,-0.00192568,10,0.00236346,-1.575,-0.835784,-0.0705924,73.3041,-0.088828,
2,0,0,1,0,7106.64,-0.0908963,-0.0912086,-26.7834,4,-0.00208588,10,0.00244288,-1.57213,-0.849383,-0.0694621,72.6303,-0.09120857,
2,0,0,1,0,7106.65,-0.0932935,-0.0936358,-26.9681,4,-0.00224715,10,0.00252518,-1.56915,-0.796543,-0.07407,77.9975,-0.0936358,
2,0,0,1,0,7106.65,-0.0956989,-0.0960652,-27.172,4,-0.00240955,10,0.00261028,-1.56588,-0.768007,-0.0768223,81.4649,-0.0960652,
2,0,0,1,0,7106.66,-0.098096,-0.098466,-27.3691,4,-0.00257316,10,0.00269493,-1.56274,-0.811748,-0.0726827,77.4085,-0.098466,
2,0,0,0,0,7106.66,-0.0999548,-0.100228,-27.5194,4,-0.00270217,10,0.00275822,-1.56036,0.0246593,2.39261,-2383.81,-0.100228,
2,0,0,1,1,7106.66,-0.0994555,-0.0998838,-25.9035,4,-0.00274722,10,0.00258734,-1.58664,-0.0197807,-2.9827,2664.73,-0.0998838,
2,0,0,1,1,7106.67,-0.0970583,-0.0974872,-20.3627,4,-0.00288463,10,0.0019851,-1.69116,-0.0229273,-2.57335,2049.37,-0.0974872,
2,0,0,1,1,7106.68,-0.0946501,-0.0950462,-16.0168,4,-0.00299298,10,0.00152234,-1.79542,-0.0218284,-2.7029,1690.61,-0.0950462,
2,0,0,1,1,7106.68,-0.092253,-0.0926444,-12.3421,4,-0.00307744,10,0.00114342,-1.90861,-0.0195176,-3.02292,1439.35,-0.0926444,
2,0,0,1,1,7106.69,-0.0898559,-0.0902648,-9.1449,4,-0.0031414,10,0.000825462,-2.03882,-0.0163333,-3.61225,1251.73,-0.0902648,
2,0,0,1,1,7106.69,-0.0874588,-0.087898,-6.33717,4,-0.00318742,10,0.000557024,-2.1981,-0.0121882,-4.84074,1116.61,-0.087898,
2,0,0,1,1,7106.7,-0.0850534,-0.0854569,-3.82435,4,-0.00321746,10,0.000326817,-2.41744,-0.00705385,-8.36423,990.532,-0.0854569,
2,0,0,1,1,7106.71,-0.0826563,-0.0830837,-1.59131,4,-0.00323337,10,0.000132212,-2.79824,-0.00994455,-5.9329,895.465,-0.0830837,
2,1,0,1,1,7106.71,-0.0802592,-0.0806755,0.435509,4,-0.00323654,10,-3.51349e-05,-3.361,0.0734646,0.803108,806.551,-0.0806755,
2,1,0,1,1,7106.72,-0.077851,-0.0782589,2.26488,4,-0.00322817,10,-0.000177247,-2.64496,0.00490134,12.0375,725.968,-0.0782589,
2,1,0,1,1,7106.72,-0.0754539,-0.0758655,3.90178,4,-0.00320943,10,-0.00029601,-2.40874,0.0116844,5.04949,660.407,-0.0758655,
2,1,0,1,1,7106.73,-0.0730568,-0.0734605,5.41278,4,-0.00318125,10,-0.000397625,-2.26658,0.0192386,3.06675,604.39,-0.0734605,
2,1,0,1,1,7106.74,-0.0706597,-0.0710587,6.76604,4,-0.0031445,10,-0.000480786,-2.16967,0.027367,2.15588,548.862,-0.0710587,
2,1,0,1,1,7106.74,-0.0682542,-0.0686919,8.0315,4,-0.00309991,10,-0.000551699,-2.0952,0.0357703,1.64941,504.861,-0.06869188,
2,1,0,1,1,7106.75,-0.0658571,-0.0662922,9.20338,4,-0.00304808,10,-0.000610112,-2.03605,0.0446769,1.32059,464.923,-0.0662922,
2,1,0,1,1,7106.75,-0.06346,-0.0638681,10.2571,4,-0.00298955,10,-0.000655102,-1.98897,0.0551335,1.07013,422.304,-0.0638681,
2,1,0,1,1,7106.76,-0.0610518,-0.0614716,11.2308,4,-0.00292497,10,-0.000690377,-1.94959,0.0662769,0.890205,385.794,-0.0614716,
2,1,0,1,1,7106.77,-0.0586547,-0.0590337,12.1121,4,-0.00285484,10,-0.000715024,-1.91678,0.0784159,0.752398,352.693,-0.0590337,
2,1,0,1,1,7106.77,-0.0562576,-0.0566446,12.9205,4,-0.00277962,10,-0.000731874,-1.88872,0.091694,0.643444,322.288,-0.0566446,
2,1,0,1,1,7106.78,-0.053855,-0.0542396,13.6684,4,-0.00269974,10,-0.000741367,-1.86428,0.106488,0.554053,293.684,-0.0542396,
2,1,0,1,1,7106.78,-0.0514523,-0.05186,14.3295,4,-0.00261562,10,-0.000743129,-1.84377,0.121873,0.48411,269.628,-0.05186,
2,1,0,1,1,7106.79,-0.0490552,-0.0494572,14.9477,4,-0.00252768,10,-0.000739271,-1.82543,0.140911,0.418704,243.298,-0.0494572,
2,1,0,1,1,7106.8,-0.0466581,-0.0470522,15.5091,4,-0.00243619,10,-0.000729735,-1.80941,0.161536,0.365244,220.264,-0.0470522,
2,1,0,1,1,7106.8,-0.0442527,-0.0446344,16.0166,4,-0.00234154,10,-0.00071489,-1.79543,0.182871,0.322632,201.109,-0.0446344,
2,1,0,1,1,7106.81,-0.0418556,-0.0421806,16.4794,4,-0.00224401,10,-0.000695112,-1.78306,0.206998,0.285026,182.773,-0.0421806,
2,1,0,1,1,7106.81,-0.0394585,-0.0397905,16.9016,4,-0.00214381,10,-0.000672521,-1.77207,0.234082,0.252048,165.768,-0.0397905,
2,1,0,1,1,7106.82,-0.0370558,-0.0374226,17.2683,4,-0.00204126,10,-0.000646226,-1.76275,0.258365,0.228359,153.646,-0.0374226,
2,1,0,1,1,7106.83,-0.0346532,-0.0350452,17.6185,4,-0.00193653,10,-0.000617442,-1.75403,0.293508,0.201017,137.922,-0.0350452,
2,1,0,1,1,7106.83,-0.0322561,-0.0326158,17.9257,4,-0.00182981,10,-0.00058466,-1.74652,0.340443,0.173304,121.026,-0.0326158,
2,1,0,1,1,7106.84,-0.0298589,-0.0301949,18.1994,4,-0.00172136,10,-0.000549529,-1.73994,0.386604,0.152611,108.293,-0.0301949,
2,1,0,1,1,7106.84,-0.0274535,-0.0278058,18.4531,4,-0.00161135,10,-0.000513103,-1.73393,0.442363,0.133375,95.9184,-0.0278058,
2,1,0,1,1,7106.85,-0.0250564,-0.0254411,18.6755,4,-0.00149992,10,-0.000475124,-1.72873,0.501994,0.117531,85.5727,-0.0254411,
2,1,0,1,1,7106.86,-0.0226593,-0.0230064,18.8716,4,-0.00138726,10,-0.000434166,-1.72419,0.577965,0.102082,75.0901,-0.0230064,
2,1,0,1,1,7106.86,-0.0202511,-0.0206151,19.054,4,-0.0012735,10,-0.0003928,-1.72001,0.636493,0.0926955,68.8408,-0.0206151,
2,1,0,1,1,7106.87,-0.017854,-0.0182218,19.2039,4,-0.00115874,10,-0.00034993,-1.71661,0.717502,0.0822297,61.5403,-0.0182218,
2,1,0,1,1,7106.87,-0.0154569,-0.0157998,19.3341,4,-0.00104309,10,-0.000305475,-1.71368,0.889485,0.0663305,49.9889,-0.0157998,
2,1,0,1,1,7106.88,-0.0130598,-0.0134086,19.4325,4,-0.000926743,10,-0.000260564,-1.71147,0.960828,0.0614054,46.5861,-0.0134086,
2,1,0,1,1,7106.89,-0.0106516,-0.0110121,19.557,4,-0.000809777,10,-0.000215364,-1.7087,1.09512,0.0538752,41.0897,-0.0110121,
2,1,0,1,1,7106.89,-0.00825448,-0.00860922,19.6438,4,-0.000692158,10,-0.000169118,-1.70677,1.39996,0.0421441,32.2625,-0.00860922,
2,1,0,1,1,7106.9,-0.00585738,-0.00623497,19.7016,4,-0.000574105,10,-0.000122839,-1.7055,1.71012,0.0345005,26.5304,-0.00623497,
2,1,0,1,1,7106.9,-0.00345195,-0.00377695,19.7685,4,-0.000455705,10,-7.46648e-05,-1.70403,1.80353,0.0327136,25.2272,-0.003776948,
2,1,0,1,1,7106.91,-0.00105485,-0.00144299,19.8342,4,-0.000336879,10,-2.86205e-05,-1.70259, , , ,-0.00144299,
2,1,0,0,1,7106.91,-7.54729e-05,-0.00042076,19.8447,4,-0.000287285,10,-8.34984e-06,-1.70236, , , ,-0.00042076,