File: Figure_codes/Fig_3-5/rawdata_trumpetplot_data/after 10th/20221101_1-115_003_TrumpetPlot_ParaChange_from10_every3_12_CV_C01_30.csv
mode,ox/red,error,control changes,counter inc.,time/s,control/V,Ewe/V,<I>/mA,cycle number,(Q-Qo)/C,I Range,P/W,log(|I|),Tafel slope mV/dec,alpha_eff,dI/d(E-IR),E-IR/V,
2,1,0,1,0,60300.4,2.44065e-05,-0.000306236,13.4322,31,0.0000000E+000,10,-4.11342e-06,-1.87185, , , ,-0.000306236,
2,1,0,1,0,60300.4,0.00200257,0.00159189,14.2753,31,4.33218e-05,10,2.27247e-05,-1.84542, , , ,0.00159189,
2,1,0,1,0,60300.4,0.004408,0.00403295,14.9951,31,0.000101993,10,6.04744e-05,-1.82405, , , ,0.00403295,
2,1,0,1,0,60300.4,0.0068051,0.00643795,15.5787,31,0.000163214,10,0.000100295,-1.80747,0.147012,0.401327,241.362,0.00643795,
2,1,0,1,0,60300.4,0.00920221,0.00886416,16.1049,31,0.000226653,10,0.000142756,-1.79304,0.169891,0.347281,217.029,0.00886416,
2,1,0,1,0,60300.5,0.0115993,0.0112384,16.6036,31,0.000292138,10,0.000186598,-1.7798,0.187257,0.315074,203.298,0.0112384,
2,1,0,1,0,60300.5,0.0140075,0.0136211,17.076,31,0.000359533,10,0.000232595,-1.76761,0.204607,0.288358,191.365,0.0136211,
2,1,0,1,0,60300.5,0.0164046,0.0160155,17.5258,31,0.00042879,10,0.000280686,-1.75632,0.222711,0.264918,180.508,0.0160155,
2,1,0,1,0,60300.5,0.0188017,0.0184396,17.9373,31,0.000499765,10,0.000330757,-1.74624,0.240203,0.245626,171.47,0.01843963,
2,1,0,1,0,60300.5,0.0212099,0.0208775,18.3435,31,0.000572366,10,0.000382967,-1.73652,0.25993,0.226984,162.072,0.0208775,
2,1,0,1,0,60300.5,0.023607,0.0232348,18.7245,31,0.000646537,10,0.000435059,-1.72759,0.272135,0.216804,158.092,0.0232348,
2,1,0,1,0,60300.5,0.0260041,0.0256536,19.0879,31,0.000722196,10,0.000489672,-1.71924,0.28877,0.204315,151.992,0.0256536,
2,1,0,1,0,60300.5,0.0284012,0.0280215,19.4521,31,0.000799323,10,0.000545076,-1.71103,0.307043,0.192156,145.608,0.0280215,
2,1,0,1,0,60300.5,0.0308067,0.0304466,19.7979,31,0.000877883,10,0.00060278,-1.70338,0.31845,0.185273,142.889,0.0304466,
2,1,0,1,0,60300.5,0.0332038,0.0328548,20.1252,31,0.000957773,10,0.00066121,-1.69626,0.335608,0.1758,137.974,0.0328548,
2,1,0,1,0,60300.5,0.0356009,0.0351941,20.4511,31,0.00103897,10,0.000719757,-1.68928,0.348596,0.169251,135,0.0351941,
2,1,0,1,0,60300.5,0.0380091,0.0376669,20.7829,31,0.00112145,10,0.000782828,-1.68229,0.359556,0.164091,132.924,0.0376669,
2,1,0,1,0,60300.5,0.0404062,0.0400306,21.0918,31,0.00120522,10,0.000844316,-1.67589,0.378061,0.156059,128.291,0.0400306,
2,1,0,1,0,60300.5,0.0428033,0.0424525,21.401,31,0.00129024,10,0.000908526,-1.66957,0.393072,0.1501,125.22,0.0424525,
2,1,0,1,0,60300.5,0.0452032,0.0448437,21.6891,31,0.00137643,10,0.00097262,-1.66376,0.40626,0.145227,122.852,0.0448437,
2,1,0,1,0,60300.5,0.0476058,0.0472307,21.9805,31,0.0014638,10,0.00103815,-1.65796,0.419782,0.140549,120.52,0.0472307,
2,1,0,1,0,60300.5,0.0500029,0.0496219,22.2701,31,0.00155234,10,0.00110509,-1.65228,0.42312,0.13944,121.165,0.0496219,
2,1,0,1,0,60300.5,0.0524,0.052011,22.553,31,0.00164202,10,0.001173,-1.6468,0.441829,0.133536,117.489,0.052011,
2,1,0,1,0,60300.5,0.0548082,0.0544351,22.8512,31,0.00173285,10,0.00124391,-1.64109,0.447212,0.131929,117.546,0.05443513,
2,1,0,1,0,60300.5,0.0572053,0.0569101,23.1177,31,0.00182483,10,0.00131563,-1.63606,0.456982,0.129108,116.437,0.0569101,
2,1,0,1,0,60300.5,0.0596024,0.059226,23.399,31,0.00191789,10,0.00138583,-1.6308,0.467974,0.126075,115.133,0.05922604,
2,1,0,1,0,60300.5,0.0620051,0.0616332,23.6734,31,0.00201205,10,0.00145906,-1.62574,0.46499,0.126885,117.217,0.0616332,
2,1,0,1,0,60300.5,0.0644077,0.064036,23.9566,31,0.00210734,10,0.00153409,-1.62057,0.481086,0.122639,114.603,0.064036,
2,1,0,1,0,60300.5,0.0668048,0.0664251,24.233,31,0.00220373,10,0.00160968,-1.61559,0.483007,0.122152,115.471,0.0664251,
2,1,0,1,0,60300.5,0.0692019,0.0688174,24.4982,31,0.00230122,10,0.0016859,-1.61087,0.491421,0.12006,114.802,0.0688174,
2,1,0,1,0,60300.6,0.0716074,0.0712076,24.7789,31,0.0023998,10,0.00176445,-1.60592,0.502982,0.1173,113.411,0.0712076,
2,1,0,1,0,60300.6,0.0740045,0.0735945,25.0539,31,0.00249948,10,0.00184383,-1.60112,0.502816,0.117339,114.708,0.0735945,
2,1,0,1,0,60300.6,0.0764016,0.0760314,25.3225,31,0.00260027,10,0.0019253,-1.59649,0.511735,0.115294,113.963,0.0760314,
2,1,0,1,0,60300.6,0.0788042,0.0784873,25.6074,31,0.00270215,10,0.00200986,-1.59163,0.514058,0.114773,114.668,0.07848727,
2,1,0,1,0,60300.6,0.0812069,0.080905,25.8841,31,0.00280516,10,0.00209415,-1.58697,0.518104,0.113877,114.976,0.08090499,
2,1,0,1,0,60300.6,0.083604,0.0831849,26.1536,31,0.00290925,10,0.00217559,-1.58247,0.518603,0.113767,116.141,0.0831849,
2,1,0,1,0,60300.6,0.0860011,0.0856365,26.4268,31,0.00301443,10,0.0022631,-1.57795,0.52406,0.112583,116.144,0.0856365,
2,1,0,1,0,60300.6,0.0884065,0.0880383,26.7167,31,0.00312076,10,0.00235209,-1.57322,0.532165,0.110868,115.559,0.08803834,
2,1,0,1,0,60300.6,0.0908036,0.0904412,26.9916,31,0.00322821,10,0.00244116,-1.56877,0.531869,0.11093,116.811,0.09044122,
2,1,0,1,0,60300.6,0.0932007,0.0928388,27.2692,31,0.00333675,10,0.00253164,-1.56433,0.539507,0.109359,116.398,0.0928388,
2,1,0,1,0,60300.6,0.0956034,0.0952046,27.5445,31,0.00344641,10,0.00262236,-1.55997,0.541349,0.108987,117.182,0.0952046,
2,1,0,1,0,60300.6,0.098006,0.0976573,27.8363,31,0.0035572,10,0.00271842,-1.55539,0.548715,0.107524,116.766,0.0976573,
2,1,0,1,0,60300.6,0.100403,0.100037,28.1161,31,0.00366913,10,0.00281264,-1.55105,0.547433,0.107776,118.233,0.100037,
2,1,0,1,0,60300.6,0.1028,0.102434,28.3897,31,0.00378217,10,0.00290808,-1.54684,0.555165,0.106275,117.768,0.102434,
2,1,0,1,0,60300.6,0.105208,0.104827,28.6821,31,0.00389635,10,0.00300665,-1.54239,0.561609,0.105055,117.563,0.1048267,
2,1,0,1,0,60300.6,0.107606,0.107199,28.96,31,0.00401167,10,0.00310448,-1.5382,0.554838,0.106337,120.184,0.107199,
2,1,0,1,0,60300.6,0.110003,0.109593,29.2396,31,0.00412808,10,0.00320446,-1.53403,0.563474,0.104708,119.519,0.109593,
2,1,0,1,0,60300.6,0.112408,0.111988,29.5378,31,0.00424567,10,0.00330787,-1.52962,0.564852,0.104452,120.393,0.111988,
2,1,0,1,0,60300.6,0.114805,0.114358,29.8213,31,0.00436441,10,0.00341029,-1.52547,0.559165,0.105514,122.815,0.114358,
2,1,0,1,0,60300.6,0.117202,0.116794,30.1153,31,0.00448431,10,0.0035173,-1.52121,0.566097,0.104222,122.527,0.116794,
2,1,0,1,0,60300.6,0.119599,0.119185,30.4175,31,0.00460541,10,0.0036253,-1.51688,0.565268,0.104375,123.9,0.119185,
2,1,0,1,0,60300.6,0.122008,0.121611,30.7169,31,0.00472771,10,0.00373551,-1.51262,0.563216,0.104756,125.577,0.121611,
2,1,0,1,0,60300.6,0.124405,0.12403,31.0196,31,0.00485122,10,0.00384735,-1.50836,0.565349,0.10436,126.344,0.12403,
2,1,0,1,0,60300.6,0.126802,0.126429,31.3252,31,0.00497594,10,0.00396042,-1.50411,0.563434,0.104715,128.036,0.126429,
2,1,0,1,0,60300.6,0.129207,0.128801,31.6326,31,0.00510188,10,0.00407432,-1.49987,0.569839,0.103538,127.78,0.128801,
2,1,0,1,0,60300.7,0.131604,0.13125,31.9511,31,0.00522908,10,0.00419357,-1.49551,0.556448,0.10603,132.226,0.1312499,
2,1,0,1,0,60300.7,0.134001,0.133529,32.2334,31,0.00535749,10,0.00430409,-1.49169,0.540681,0.109122,137.498,0.133529,
2,1,0,1,0,60300.7,0.136399,0.136005,32.5913,31,0.00548715,10,0.00443257,-1.4869,0.535527,0.110172,140.227,0.136005,
2,1,0,1,0,60300.7,0.138807,0.13838,32.9496,31,0.00561829,10,0.00455957,-1.48215,0.520529,0.113346,145.679,0.13838,
2,1,0,1,0,60300.7,0.141204,0.140763,33.285,31,0.00575078,10,0.0046853,-1.47775,0.523246,0.112758,146.494,0.140763,
2,1,0,1,0,60300.7,0.143601,0.143196,33.6418,31,0.00588467,10,0.00481739,-1.47312,0.53872,0.109519,143.769,0.143196,
2,1,0,1,0,60300.7,0.146009,0.145606,33.9978,31,0.00601999,10,0.00495027,-1.46855,0.543718,0.108512,143.874,0.1456057,
2,1,0,1,0,60300.7,0.148406,0.148005,34.3334,31,0.00615668,10,0.00508153,-1.46428,0.559477,0.105456,141.233,0.1480054,
2,1,0,1,0,60300.7,0.150803,0.1504,34.6715,31,0.00629473,10,0.00521459,-1.46003,0.570984,0.10333,139.785,0.1504,
2,1,0,1,0,60300.7,0.153206,0.152813,35,31,0.00643412,10,0.00534847,-1.45593,0.579758,0.101767,139.004,0.152813,
2,1,0,1,0,60300.7,0.155606,0.15519,35.3375,31,0.00657484,10,0.00548401,-1.45176,0.593793,0.0993611,136.987,0.15519,
2,1,0,1,0,60300.7,0.158003,0.157646,35.6734,31,0.00671689,10,0.00562376,-1.44766,0.599934,0.0983442,136.848,0.157646,
2,1,0,1,0,60300.7,0.1604,0.160021,35.9895,31,0.00686025,10,0.00575907,-1.44382,0.626815,0.0941266,132.139,0.160021,
2,1,0,1,0,60300.7,0.162808,0.162452,36.3191,31,0.0070049,10,0.00590013,-1.43986,0.645229,0.0914404,129.505,0.162452,
2,1,0,1,0,60300.7,0.165205,0.164839,36.6126,31,0.00715078,10,0.00603519,-1.43637,0.664212,0.088827,126.875,0.164839,
2,1,0,1,0,60300.7,0.167602,0.167217,36.913,31,0.00729786,10,0.00617247,-1.43282,0.697731,0.0845599,121.771,0.167217,
2,1,0,1,0,60300.7,0.170008,0.169678,37.2148,31,0.00744612,10,0.00631452,-1.42928,0.721897,0.0817291,118.578,0.169678,
2,1,0,1,0,60300.7,0.172405,0.172027,37.485,31,0.00759556,10,0.00644842,-1.42614,0.773086,0.0763175,111.53,0.172027,
2,1,0,1,0,60300.7,0.174802,0.174395,37.7456,31,0.00774605,10,0.00658264,-1.42313,0.834355,0.0707133,104.069,0.174395,
2,1,0,1,0,60300.7,0.177199,0.176821,37.9841,31,0.00789754,10,0.00671638,-1.4204,0.905746,0.0651397,96.4686,0.176821,
2,1,0,1,0,60300.7,0.179607,0.179239,38.2097,31,0.00804994,10,0.00684866,-1.41783,0.994184,0.0593452,88.3979,0.179239,
2,1,0,1,0,60300.7,0.182005,0.181643,38.4126,31,0.0082032,10,0.00697736,-1.41553,1.10566,0.0533618,79.9008,0.181643,
2,1,0,1,0,60300.7,0.184402,0.183973,38.5924,31,0.00835724,10,0.00709997,-1.4135,1.30703,0.0451406,67.8836,0.183973,
2,1,0,1,0,60300.7,0.18681,0.186436,38.7523,31,0.00851193,10,0.00722481,-1.4117,1.59455,0.0370011,55.8543,0.186436,
2,1,0,1,0,60300.7,0.189207,0.188794,38.8584,31,0.00866717,10,0.00733622,-1.41052,2.03532,0.028988,43.8997,0.188794,
2,1,0,1,0,60300.8,0.191604,0.191215,38.9473,31,0.0088228,10,0.00744729,-1.40952,2.80052,0.0210675,31.9884,0.191215,
2,1,0,1,0,60300.8,0.194001,0.193644,39.0169,31,0.00897873,10,0.0075554,-1.40875,4.3882,0.0134452,20.4415,0.193644,
2,1,0,1,0,60300.8,0.196407,0.196052,39.06,31,0.00913491,10,0.0076578,-1.40827,11.9533,0.00493587,7.50944,0.196052,
2,1,0,1,0,60300.8,0.198804,0.198431,39.0554,31,0.00929114,10,0.00774979,-1.40832,-16.5126,-0.00357304,-5.43705,0.198431,
2,1,0,1,0,60300.8,0.201201,0.200848,39.0196,31,0.0094473,10,0.00783699,-1.40872,-4.55053,-0.0129655,-19.7167,0.2008476,
2,1,0,1,0,60300.8,0.203609,0.203256,38.9647,31,0.00960326,10,0.00791979,-1.40933,-2.96156,-0.019922,-30.2519,0.203256,
2,1,0,1,0,60300.8,0.206006,0.205633,38.8711,31,0.00975892,10,0.00799318,-1.41037,-2.09497,-0.0281627,-42.6605,0.205633,
2,1,0,1,0,60300.8,0.208403,0.208052,38.7643,31,0.0099142,10,0.00806499,-1.41157,-1.57328,-0.0375012,-56.6274,0.208052,
2,1,0,1,0,60300.8,0.210803,0.210474,38.6089,31,0.0100689,10,0.00812618,-1.41331,-1.2836,-0.0459646,-69.1318,0.210474,
2,1,0,1,0,60300.8,0.213206,0.212872,38.4201,31,0.010223,10,0.00817855,-1.41544,-1.06493,-0.0554025,-82.9511,0.212872,
2,1,0,1,0,60300.8,0.215603,0.215237,38.2071,31,0.0103762,10,0.00822359,-1.41786,-0.949184,-0.0621586,-92.5783,0.215237,
2,1,0,1,0,60300.8,0.218,0.21766,37.9673,31,0.0105285,10,0.00826397,-1.42059,-0.84043,-0.0702021,-103.888,0.21766,
2,1,0,1,0,60300.8,0.220408,0.220067,37.7208,31,0.0106799,10,0.00830112,-1.42342,-0.749872,-0.0786801,-115.606,0.220067,
2,1,0,1,0,60300.8,0.222805,0.222486,37.4213,31,0.0108302,10,0.00832572,-1.42688,-0.682526,-0.0864435,-126.038,0.222486,
2,1,0,1,0,60300.8,0.225202,0.224849,37.096,31,0.0109792,10,0.00834098,-1.43067,-0.61943,-0.0952489,-137.754,0.224849,
2,1,0,1,0,60300.8,0.227605,0.227246,36.7591,31,0.0111268,10,0.00835337,-1.43464,-0.582251,-0.101331,-145.226,0.2272464,
2,1,0,1,0,60300.8,0.230008,0.229635,36.4028,31,0.0112731,10,0.00835936,-1.43887,-0.556593,-0.106002,-150.438,0.229635,
2,1,0,1,0,60300.8,0.232405,0.232042,36.0336,31,0.011418,10,0.00836129,-1.44329,-0.518359,-0.113821,-159.871,0.232042,
2,1,0,1,0,60300.8,0.234802,0.234506,35.6432,31,0.0115613,10,0.00835853,-1.44802,-0.494706,-0.119263,-165.708,0.234506,
2,1,0,1,0,60300.8,0.237207,0.236797,35.2321,31,0.011703,10,0.00834288,-1.45306,-0.473575,-0.124584,-171.17,0.236797,
2,1,0,1,0,60300.8,0.239604,0.239227,34.8134,31,0.011843,10,0.0083283,-1.45825,-0.454335,-0.12986,-176.356,0.239227,
2,1,0,1,0,60300.8,0.242002,0.241652,34.3886,31,0.0119814,10,0.00831007,-1.46359,-0.452511,-0.130384,-174.942,0.241652,
2,1,0,1,0,60300.8,0.244404,0.244017,33.9659,31,0.0121181,10,0.00828824,-1.46896,-0.438143,-0.134659,-178.395,0.244017,
2,1,0,1,0,60300.8,0.246807,0.24646,33.5418,31,0.0122531,10,0.0082667,-1.47441,-0.42944,-0.137388,-179.708,0.2464599,
2,1,0,1,0,60300.8,0.249204,0.248873,33.0925,31,0.0123863,10,0.00823584,-1.48027,-0.424954,-0.138838,-179.312,0.248873,
2,1,0,1,0,60300.9,0.251601,0.251278,32.6586,31,0.0125177,10,0.00820641,-1.486,-0.415914,-0.141856,-180.845,0.251278,
2,1,0,1,0,60300.9,0.254006,0.253669,32.2352,31,0.0126475,10,0.00817705,-1.49167,-0.416203,-0.141758,-178.314,0.253669,
2,1,0,1,0,60300.9,0.256404,0.256062,31.8053,31,0.0127755,10,0.00814413,-1.4975,-0.414266,-0.14242,-176.772,0.256062,
2,1,0,1,0,60300.9,0.258801,0.258451,31.3847,31,0.0129019,10,0.0081114,-1.50328,-0.412122,-0.143162,-175.364,0.258451,
2,1,0,1,0,60300.9,0.261203,0.260866,30.9639,31,0.0130265,10,0.00807742,-1.50914,-0.413713,-0.142611,-172.387,0.260866,
2,1,0,1,0,60300.9,0.263606,0.263257,30.5538,31,0.0131495,10,0.00804348,-1.51494,-0.416997,-0.141488,-168.771,0.2632567,
2,1,0,1,0,60300.9,0.266003,0.265629,30.1561,31,0.0132709,10,0.00801033,-1.52063,-0.421028,-0.140133,-164.978,0.2656289,
2,1,0,1,0,60300.9,0.2684,0.268087,29.7584,31,0.0133907,10,0.00797784,-1.52639,-0.424979,-0.13883,-161.311,0.268087,
2,1,0,1,0,60300.9,0.270808,0.270452,29.3824,31,0.0135089,10,0.00794652,-1.53191,-0.429312,-0.137429,-157.633,0.270452,
2,1,0,1,0,60300.9,0.273205,0.272859,29.0049,31,0.0136256,10,0.00791423,-1.53753,-0.435783,-0.135389,-153.314,0.272859,
2,1,0,1,0,60300.9,0.275603,0.275262,28.6377,31,0.0137409,10,0.00788284,-1.54306,-0.439683,-0.134187,-150.063,0.275262,
2,1,0,1,0,60300.9,0.278008,0.277691,28.286,31,0.0138547,10,0.00785476,-1.54843,-0.448054,-0.131681,-145.428,0.277691,
2,1,0,1,0,60300.9,0.280405,0.280068,27.9393,31,0.0139671,10,0.00782491,-1.55378,-0.454548,-0.129799,-141.586,0.2800684,
2,1,0,1,0,60300.9,0.282802,0.282494,27.6037,31,0.0140781,10,0.00779786,-1.55903,-0.460565,-0.128104,-138.077,0.282494,
2,1,0,1,0,60300.9,0.285199,0.284893,27.2739,31,0.0141879,10,0.00777016,-1.56425,-0.470157,-0.12549,-133.668,0.284893,
2,1,0,1,0,60300.9,0.287607,0.287284,26.9613,31,0.0142963,10,0.00774557,-1.56926,-0.476155,-0.123909,-130.456,0.287284,
2,1,0,1,0,60300.9,0.290005,0.289662,26.6569,31,0.0144035,10,0.0077215,-1.57419,-0.489472,-0.120538,-125.468,0.289662,
2,1,0,1,0,60300.9,0.292402,0.292023,26.3604,31,0.0145095,10,0.00769787,-1.57905,-0.499538,-0.118109,-121.565,0.292023,
2,1,0,1,0,60300.9,0.294807,0.294426,26.0778,31,0.0146144,10,0.007678,-1.58373,-0.504824,-0.116872,-119.019,0.294426,
2,1,0,1,0,60300.9,0.297204,0.296891,25.7935,31,0.0147181,10,0.00765786,-1.58849,-0.511896,-0.115258,-116.567,0.296891,
2,1,0,1,0,60300.9,0.299421,0.299055,25.5391,31,0.014813,10,0.00763757,-1.5928,-0.134818,-0.437627,-428.407,0.2990545,
2,1,0,0,0,60300.9,0.300012,0.299632,25.4735,31,0.0148385,10,0.00763269,-1.59391,0.0035614,16.5665,15078.1,0.299632,
2,1,0,1,0,60300.9,0.299243,0.299008,24.1149,31,0.0148702,10,0.00721055,-1.61772,0.0356219,1.65628,1414.46,0.299008,
2,1,0,1,0,60300.9,0.296846,0.296574,21.0123,31,0.0149599,10,0.00623168,-1.67753,0.0419951,1.40493,1133.02,0.296574,
2,1,0,1,0,60300.9,0.294449,0.294143,18.5922,31,0.0150387,10,0.00546878,-1.73067,0.0444716,1.32669,982.974,0.2941432,
2,1,0,1,0,60300.9,0.292041,0.291714,16.5021,31,0.0151086,10,0.00481389,-1.78246,0.0459139,1.28501,835.492,0.291714,
2,1,0,1,0,60301,0.289644,0.289369,14.6399,31,0.0151707,10,0.00423634,-1.83446,0.0453137,1.30203,747.8,0.289369,
2,1,0,1,0,60301,0.287247,0.286929,12.9545,31,0.0152256,10,0.00371701,-1.88758,0.044048,1.33945,678.465,0.286929,
2,1,0,1,0,60301,0.284841,0.284553,11.4206,31,0.0152742,10,0.00324976,-1.94231,0.0425835,1.38551,616.755,0.284553,
2,1,0,1,0,60301,0.282444,0.282126,9.99687,31,0.0153169,10,0.00282037,-2.00014,0.0400074,1.47473,573.151,0.282126,
2,1,0,1,0,60301,0.280047,0.279718,8.68774,31,0.0153541,10,0.00243012,-2.06109,0.0373011,1.58172,531.973,0.279718,
2,1,0,1,0,60301,0.27765,0.277351,7.46444,31,0.0153862,10,0.00207027,-2.127,0.0344234,1.71395,493.569,0.2773506,
2,1,0,1,0,60301,0.275242,0.274957,6.31598,31,0.0154136,10,0.00173662,-2.19956,0.0309861,1.90408,461.888,0.274957,
2,1,0,1,0,60301,0.272845,0.272535,5.26338,31,0.0154367,10,0.00143446,-2.27874,0.0274301,2.15092,429.071,0.272535,
2,1,0,1,0,60301,0.270448,0.270141,4.26396,31,0.0154556,10,0.00115187,-2.37019,0.0233433,2.52749,401.897,0.270141,
2,1,0,1,0,60301,0.268039,0.267678,3.31401,31,0.0154707,10,0.000887087,-2.47965,0.0185872,3.17423,381.432,0.267678,
2,1,0,1,0,60301,0.265642,0.26531,2.43866,31,0.0154821,10,0.000646999,-2.61285,0.0134338,4.39192,358.909,0.26531,
2,1,0,1,0,60301,0.263245,0.26294,1.6033,31,0.0154901,10,0.000421571,-2.79499,0.00600099,9.83171,337.888,0.26294,
2,1,0,1,0,60301,0.260843,0.26056,0.825326,31,0.0154948,10,0.000215047,-3.08337,0.0162887,3.62214,317.851,0.2605601,
2,1,0,1,0,60301,0.258443,0.25812,0.0846665,31,0.0154966,10,2.18541e-05,-4.07229,0.10149,0.581337,299.234,0.25812,
2,0,0,1,0,60301,0.256046,0.255673,-0.624474,31,0.0154954,10,-0.000159661,-3.20449,-0.0260961,-2.26087,286.025,0.255673,
2,0,0,1,0,60301,0.253649,0.253278,-1.28771,31,0.0154915,10,-0.00032615,-2.89018,-0.00655273,-9.00387,270.362,0.253278,
2,0,0,1,0,60301,0.25124,0.250919,-1.9323,31,0.015485,10,-0.00048485,-2.71393,-0.0137469,-4.29188,258.594,0.250919,
2,0,0,1,0,60301,0.248843,0.248453,-2.52882,31,0.015476,10,-0.000628295,-2.59708,-0.0211008,-2.79611,247.697,0.248453,
2,0,0,1,0,60301,0.246446,0.246114,-3.09624,31,0.0154647,10,-0.000762027,-2.50917,-0.0287327,-2.05341,233.167,0.246114,
2,0,0,1,0,60301,0.244041,0.243713,-3.6569,31,0.0154511,10,-0.000891235,-2.43689,-0.0358568,-1.64544,224.206,0.243713,
2,0,0,1,0,60301,0.241644,0.241317,-4.17116,31,0.0154354,10,-0.00100657,-2.37974,-0.0436347,-1.35213,212.794,0.241317,
2,0,0,1,0,60301,0.239247,0.238895,-4.6719,31,0.0154177,10,-0.00111609,-2.33051,-0.0520393,-1.13376,201.718,0.238895,
2,0,0,1,0,60301,0.236849,0.236506,-5.14083,31,0.015398,10,-0.00121584,-2.28897,-0.0599071,-0.984859,193.993,0.236506,
2,0,0,1,0,60301,0.234441,0.234089,-5.59828,31,0.0153764,10,-0.0013105,-2.25195,-0.0680976,-0.866404,186.603,0.2340892,
2,0,0,1,0,60301,0.232044,0.231694,-6.03799,31,0.0153531,10,-0.00139896,-2.21911,-0.0761919,-0.774361,180.222,0.231694,
2,0,0,1,0,60301.1,0.229647,0.229301,-6.46208,31,0.0153281,10,-0.00148176,-2.18963,-0.0854861,-0.69017,172.009,0.229301,
2,0,0,1,0,60301.1,0.227239,0.226913,-6.8696,31,0.0153014,10,-0.0015588,-2.16307,-0.0951785,-0.619888,164.399,0.226913,
2,0,0,1,0,60301.1,0.224842,0.224519,-7.24443,31,0.0152731,10,-0.00162651,-2.14,-0.104418,-0.565036,158.609,0.224519,
2,0,0,1,0,60301.1,0.222445,0.222108,-7.61393,31,0.0152434,10,-0.00169111,-2.11839,-0.114367,-0.515884,152.595,0.222108,
2,0,0,1,0,60301.1,0.220047,0.219755,-7.9763,31,0.0152121,10,-0.00175283,-2.0982,-0.123188,-0.478943,148.315,0.219755,
2,0,0,1,0,60301.1,0.217642,0.217303,-8.33611,31,0.0151795,10,-0.00181146,-2.07904,-0.133489,-0.441984,142.832,0.217303,
2,0,0,1,0,60301.1,0.215245,0.214922,-8.66777,31,0.0151454,10,-0.0018629,-2.06209,-0.144116,-0.409394,137.805,0.214922,
2,0,0,1,0,60301.1,0.212848,0.21251,-8.98479,31,0.0151101,10,-0.00190936,-2.04649,-0.155999,-0.378207,132.193,0.21251,
2,0,0,1,0,60301.1,0.21044,0.210091,-9.30797,31,0.0150735,10,-0.00195552,-2.03115,-0.16601,-0.3554,128.652,0.210091,
2,0,0,1,0,60301.1,0.208043,0.207698,-9.60584,31,0.0150356,10,-0.00199511,-2.01746,-0.174986,-0.33717,126.014,0.207698,
2,0,0,1,0,60301.1,0.205645,0.20526,-9.91086,31,0.0149966,10,-0.0020343,-2.00389,-0.187759,-0.314232,121.117,0.2052599,
2,0,0,1,0,60301.1,0.203246,0.202917,-10.1936,31,0.0149563,10,-0.00206845,-1.99167,-0.197374,-0.298925,118.562,0.202917,
2,0,0,1,0,60301.1,0.200843,0.20052,-10.4672,31,0.014915,10,-0.00209888,-1.98017,-0.211615,-0.278808,113.663,0.20052,
2,0,0,1,0,60301.1,0.198446,0.198122,-10.7411,31,0.0148725,10,-0.00212806,-1.96895,-0.219467,-0.268833,112.547,0.198122,
2,0,0,1,0,60301.1,0.196049,0.195676,-11.0002,31,0.014829,10,-0.00215248,-1.9586,-0.230272,-0.256219,109.873,0.195676,
2,0,0,1,0,60301.1,0.19364,0.193272,-11.2791,31,0.0147844,10,-0.00217994,-1.94772,-0.245473,-0.240352,105.457,0.193272,
2,0,0,1,0,60301.1,0.191243,0.190886,-11.5257,31,0.0147388,10,-0.0022001,-1.93833,-0.251413,-0.234674,105.32,0.190886,
2,0,0,1,0,60301.1,0.188846,0.188468,-11.7592,31,0.0146922,10,-0.00221624,-1.92962,-0.268677,-0.219594,100.745,0.188468,
2,0,0,1,0,60301.1,0.186444,0.186052,-12.0138,31,0.0146447,10,-0.00223519,-1.92032,-0.277142,-0.212887,99.6754,0.186052,
2,0,0,1,0,60301.1,0.184041,0.183686,-12.2449,31,0.0145961,10,-0.00224921,-1.91205,-0.281109,-0.209883,100.206,0.183686,
2,0,0,1,0,60301.1,0.181644,0.181301,-12.4811,31,0.0145466,10,-0.00226284,-1.90375,-0.294851,-0.200101,97.4175,0.1813011,
2,0,0,1,0,60301.1,0.179247,0.178875,-12.7205,31,0.0144962,10,-0.00227538,-1.89549,-0.302751,-0.194879,96.6152,0.178875,
2,0,0,1,0,60301.1,0.176841,0.176474,-12.9468,31,0.0144448,10,-0.00228478,-1.88784,-0.310711,-0.189887,95.8661,0.176474,
2,0,0,1,0,60301.1,0.174444,0.17408,-13.173,31,0.0143926,10,-0.00229315,-1.88032,-0.31916,-0.184861,95.0293,0.17408,
2,0,0,1,0,60301.1,0.172047,0.171693,-13.4022,31,0.0143394,10,-0.00230106,-1.87282,-0.32054,-0.184064,96.2763,0.171693,
2,0,0,1,0,60301.2,0.169644,0.169263,-13.6339,31,0.0142853,10,-0.00230772,-1.86538,-0.332546,-0.177419,94.3225,0.169263,
2,0,0,1,0,60301.2,0.167242,0.166899,-13.8687,31,0.0142303,10,-0.00231467,-1.85796,-0.336639,-0.175262,94.7512,0.166899,
2,0,0,1,0,60301.2,0.164845,0.164445,-14.0818,31,0.0141744,10,-0.00231568,-1.85134,-0.338055,-0.174528,95.9609,0.164445,
2,0,0,1,0,60301.2,0.162448,0.162079,-14.3131,31,0.0141176,10,-0.00231986,-1.84427,-0.346992,-0.170033,95.0291,0.162079,
2,0,0,1,0,60301.2,0.160042,0.159684,-14.5532,31,0.0140598,10,-0.00232391,-1.83704,-0.33749,-0.17482,99.2797,0.159684,
2,0,0,1,0,60301.2,0.157645,0.157287,-14.7821,31,0.0140011,10,-0.00232504,-1.83026,-0.337544,-0.174792,100.903,0.157287,
2,0,0,1,0,60301.2,0.155248,0.15488,-15.0314,31,0.0139415,10,-0.00232806,-1.823,-0.33937,-0.173852,102.021,0.15488,
2,0,0,1,0,60301.2,0.152845,0.152489,-15.2808,31,0.0138808,10,-0.00233015,-1.81585,-0.329001,-0.179331,106.988,0.1524888,
2,0,0,1,0,60301.2,0.150443,0.150104,-15.5305,31,0.0138192,10,-0.00233119,-1.80881,-0.329412,-0.179107,108.667,0.150104,
2,0,0,1,0,60301.2,0.148046,0.147746,-15.803,31,0.0137565,10,-0.00233482,-1.80126,-0.318568,-0.185204,114.372,0.147746,
2,0,0,1,0,60301.2,0.145648,0.145299,-16.0725,31,0.0136927,10,-0.00233532,-1.79392,-0.310829,-0.189815,119.243,0.145299,
2,0,0,1,0,60301.2,0.14324,0.142886,-16.3791,31,0.0136278,10,-0.00234034,-1.78571,-0.30538,-0.193202,123.588,0.142886,
2,0,0,1,0,60301.2,0.140843,0.140491,-16.6768,31,0.0135616,10,-0.00234294,-1.77789,-0.287962,-0.204888,133.552,0.140491,
2,0,0,1,0,60301.2,0.138446,0.138115,-16.9932,31,0.0134943,10,-0.00234701,-1.76973,-0.280262,-0.210518,139.996,0.138115,
2,0,0,1,0,60301.2,0.136041,0.13575,-17.3478,31,0.0134256,10,-0.00235496,-1.76076,-0.268416,-0.219808,149.095,0.13575,
2,0,0,1,0,60301.2,0.133644,0.133323,-17.7179,31,0.0133554,10,-0.0023622,-1.75159,-0.25657,-0.229957,159.262,0.133323,
2,0,0,1,0,60301.2,0.131246,0.130923,-18.1033,31,0.0132837,10,-0.00237014,-1.74224,-0.249071,-0.23688,167.743,0.1309233,
2,0,0,1,0,60301.2,0.128849,0.128524,-18.5207,31,0.0132105,10,-0.00238035,-1.73234,-0.238462,-0.247419,179.27,0.128524,
2,0,0,1,0,60301.2,0.126441,0.126104,-18.9659,31,0.0131354,10,-0.00239167,-1.72203,-0.230525,-0.255937,189.803,0.126104,
2,0,0,1,0,60301.2,0.124044,0.123716,-19.4402,31,0.0130586,10,-0.00240505,-1.7113,-0.221486,-0.266382,202.462,0.123716,
2,0,0,1,0,60301.2,0.121647,0.121296,-19.9306,31,0.0129798,10,-0.0024175,-1.70048,-0.215723,-0.273499,213.155,0.121296,
2,0,0,1,0,60301.2,0.119241,0.118939,-20.4613,31,0.012899,10,-0.00243364,-1.68907,-0.212333,-0.277866,222.158,0.1189386,
2,0,0,1,0,60301.2,0.116844,0.11652,-21.0088,31,0.012816,10,-0.00244794,-1.6776,-0.209794,-0.281228,230.691,0.11652,
2,0,0,1,0,60301.2,0.114447,0.114132,-21.5693,31,0.0127308,10,-0.00246174,-1.66616,-0.208586,-0.282857,238.278,0.114132,
2,0,0,1,0,60301.2,0.11205,0.111693,-22.146,31,0.0126433,10,-0.00247354,-1.65471,-0.209699,-0.281356,243.265,0.111693,
2,0,0,1,0,60301.3,0.109642,0.109337,-22.7493,31,0.0125535,10,-0.00248733,-1.64303,-0.212633,-0.277473,246.136,0.1093366,
2,0,0,1,0,60301.3,0.107245,0.106933,-23.341,31,0.0124612,10,-0.00249591,-1.63188,-0.214481,-0.275083,250.402,0.106933,
2,0,0,1,0,60301.3,0.104848,0.104538,-23.9306,31,0.0123666,10,-0.00250167,-1.62105,-0.222755,-0.264865,247.235,0.104538,
2,0,0,1,0,60301.3,0.10244,0.102116,-24.5439,31,0.0122696,10,-0.00250634,-1.61006,-0.227003,-0.259908,248.702,0.1021163,
2,0,0,1,0,60301.3,0.100042,0.099724,-25.1258,31,0.0121702,10,-0.00250565,-1.59988,-0.230945,-0.255472,250.386,0.099724,
2,0,0,1,0,60301.3,0.0976454,0.0973063,-25.7351,31,0.0120685,10,-0.00250419,-1.58947,-0.240818,-0.244999,245.787,0.0973063,
2,0,0,1,0,60301.3,0.0952427,0.0949384,-26.3343,31,0.0119643,10,-0.00250014,-1.57948,-0.248245,-0.237668,243.739,0.0949384,
2,0,0,1,0,60301.3,0.0928428,0.0925154,-26.9037,31,0.0118577,10,-0.00248901,-1.57019,-0.259758,-0.227135,238.018,0.0925154,
2,0,0,1,0,60301.3,0.0904457,0.0901284,-27.4647,31,0.0117489,10,-0.00247535,-1.56123,-0.271025,-0.217692,233.097,0.0901284,
2,0,0,1,0,60301.3,0.0880486,0.0877945,-27.9991,31,0.011638,10,-0.00245816,-1.55286,-0.277376,-0.212708,232.456,0.0877945,
2,0,0,1,0,60301.3,0.0856404,0.0853502,-28.5693,31,0.0115248,10,-0.00243839,-1.5441,-0.288386,-0.204587,227.863,0.0853502,
2,0,0,1,0,60301.3,0.0832433,0.0829367,-29.1303,31,0.0114093,10,-0.00241597,-1.53565,-0.299525,-0.196978,223.4,0.0829367,
2,0,0,1,0,60301.3,0.0808462,0.0805805,-29.6403,31,0.0112918,10,-0.00238843,-1.52812,-0.3153,-0.187123,216.129,0.0805805,
2,0,0,1,0,60301.3,0.0784408,0.0781744,-30.1482,31,0.0111721,10,-0.00235682,-1.52074,-0.336725,-0.175217,205.883,0.0781744,
2,0,0,1,0,60301.3,0.0760437,0.075744,-30.6455,31,0.0110505,10,-0.00232121,-1.51363,-0.353948,-0.166691,198.999,0.075744,
2,0,0,1,0,60301.3,0.0736466,0.0733347,-31.1072,31,0.010927,10,-0.00228124,-1.50714,-0.373276,-0.15806,191.579,0.0733347,
2,0,0,1,0,60301.3,0.0712495,0.0709382,-31.5591,31,0.0108016,10,-0.00223875,-1.50088,-0.399558,-0.147663,181.578,0.07093823,
2,0,0,1,0,60301.3,0.0688413,0.0685905,-31.9843,31,0.0106744,10,-0.00219382,-1.49506,-0.422983,-0.139485,173.832,0.0685905,
2,0,0,1,0,60301.3,0.0664442,0.0661494,-32.3876,31,0.0105457,10,-0.00214242,-1.48962,-0.450252,-0.131038,165.413,0.0661494,
2,0,0,1,0,60301.3,0.0640471,0.0637529,-32.7728,31,0.0104153,10,-0.00208936,-1.48449,-0.482169,-0.122364,156.305,0.0637529,
2,0,0,1,0,60301.3,0.0616389,0.0613553,-33.1442,31,0.0102834,10,-0.00203357,-1.47959,-0.514824,-0.114602,147.996,0.0613553,
2,0,0,1,0,60301.3,0.0592417,0.0589631,-33.4891,31,0.0101501,10,-0.00197462,-1.4751,-0.556885,-0.105946,138.247,0.0589631,
2,0,0,1,0,60301.3,0.0568446,0.0565941,-33.8018,31,0.0100155,10,-0.00191298,-1.47106,-0.586656,-0.10057,132.567,0.0565941,
2,0,0,1,0,60301.3,0.0544475,0.0541032,-34.1069,31,0.00987968,10,-0.00184529,-1.46716,-0.631356,-0.0934497,124.306,0.0541032,
2,0,0,1,0,60301.3,0.0520421,0.0517703,-34.4149,31,0.0097426,10,-0.00178167,-1.46325,-0.668933,-0.0882002,118.307,0.0517703,
2,0,0,1,0,60301.4,0.049645,0.0493335,-34.6861,31,0.00960435,10,-0.00171119,-1.45984,-0.704634,-0.0837314,113.219,0.0493335,
2,0,0,1,0,60301.4,0.0472479,0.0469359,-34.9444,31,0.00946506,10,-0.00164015,-1.45662,-0.783,-0.0753513,102.657,0.0469359,
2,0,0,1,0,60301.4,0.0448397,0.0445076,-35.1933,31,0.00932478,10,-0.00156637,-1.45354,-0.83798,-0.0704074,96.5811,0.0445076,
2,0,0,1,0,60301.4,0.0424426,0.0421037,-35.4072,31,0.00918356,10,-0.00149077,-1.45091,-0.910989,-0.0647648,89.4099,0.0421037,
2,0,0,1,0,60301.4,0.0400455,0.0397103,-35.6155,31,0.00904151,10,-0.0014143,-1.44836,-1.00143,-0.0589156,81.8233,0.0397103,
2,0,0,1,0,60301.4,0.0376456,0.0372894,-35.8069,31,0.00889865,10,-0.00133522,-1.44603,-1.08643,-0.0543065,75.8121,0.0372894,
2,0,0,1,0,60301.4,0.035243,0.0348653,-35.9823,31,0.00875505,10,-0.00125453,-1.44391,-1.20498,-0.0489633,68.6848,0.0348653,
2,0,0,1,0,60301.4,0.0328459,0.0324911,-36.136,31,0.0086108,10,-0.0011741,-1.44206,-1.29652,-0.0455064,64.1392,0.03249108,
2,0,0,1,0,60301.4,0.0304488,0.0301168,-36.2744,31,0.00846595,10,-0.00109247,-1.4404,-1.42096,-0.0415214,58.7607,0.0301168,
2,0,0,1,0,60301.4,0.0280406,0.0276556,-36.4248,31,0.00832056,10,-0.00100735,-1.4386,-1.56664,-0.0376603,53.4863,0.0276556,
2,0,0,1,0,60301.4,0.0256435,0.0253185,-36.5432,31,0.00817462,10,-0.00092522,-1.43719,-1.71773,-0.0343476,48.9399,0.0253185,
2,0,0,1,0,60301.4,0.0232463,0.0229283,-36.6474,31,0.00802822,10,-0.000840265,-1.43596,-2.00804,-0.0293818,41.9985,0.0229283,
2,0,0,1,0,60301.4,0.0208437,0.0204989,-36.7451,31,0.00788143,10,-0.000753237,-1.4348,-2.24037,-0.026335,37.7438,0.0204989,
2,0,0,1,0,60301.4,0.018441,0.0180483,-36.8283,31,0.00773427,10,-0.00066469,-1.43382,-2.50395,-0.0235627,33.85,0.0180483,
2,0,0,1,0,60301.4,0.0160439,0.0157282,-36.9052,31,0.0075868,10,-0.000580452,-1.43291,-2.86608,-0.0205856,29.6344,0.01572817,
2,0,0,1,0,60301.4,0.0136468,0.0132914,-36.9737,31,0.00743903,10,-0.00049143,-1.43211,-3.41711,-0.0172661,24.8967,0.0132914,
2,0,0,1,0,60301.4,0.0112414,0.0109362,-37.0285,31,0.00729101,10,-0.000404951,-1.43146,-4.3647,-0.0135175,19.5187,0.0109362,
2,0,0,1,0,60301.4,0.00884431,0.00846969,-37.0668,31,0.00714281,10,-0.000313944,-1.43102,-5.39417,-0.0109377,15.8152,0.00846969,
2,0,0,1,0,60301.4,0.0064472,0.00610816,-37.093,31,0.00699449,10,-0.00022657,-1.43071,-5.29239,-0.0111481,16.1441,0.00610816,
2,0,0,1,0,60301.4,0.00404455,0.00368407,-37.1256,31,0.00684606,10,-0.000136773,-1.43033,-8.04177,-0.00733669,10.6279,0.003684073,
2,0,0,1,0,60301.4,0.0016419,0.00126847,-37.1846,31,0.00669747,10,-4.71675e-05,-1.42964,-15.8887,-0.00371333,5.37926,0.00126847,
2,0,0,1,0,60301.4,-0.000755208,-0.00118531,-37.1694,31,0.00654877,10,4.40574e-05,-1.42981,-88.0841,-0.000669814,0.970613,-0.00118531,
2,0,0,1,0,60301.4,-0.00315231,-0.00351397,-37.1447,31,0.00640015,10,0.000130525,-1.4301,9.30825,0.00633846,-9.18746,-0.00351397,
2,0,0,1,0,60301.4,-0.00555774,-0.00596457,-37.135,31,0.00625158,10,0.000221494,-1.43022,6.9174,0.00852921,-12.3529,-0.00596457,
2,0,0,1,0,60301.4,-0.00795485,-0.00833139,-37.0964,31,0.00610312,10,0.000309065,-1.43067,6.10297,0.00966742,-13.9889,-0.00833139,
2,0,0,1,0,60301.5,-0.010352,-0.0107279,-37.0515,31,0.00595483,10,0.000397485,-1.43119,4.33718,0.0136033,-19.6645,-0.0107279,
2,0,0,1,0,60301.5,-0.0127546,-0.0131552,-37.0099,31,0.0058067,10,0.000486872,-1.43168,3.72283,0.0158481,-22.8761,-0.0131552,
2,0,0,1,0,60301.5,-0.0151573,-0.0155708,-36.9461,31,0.00565879,10,0.00057528,-1.43243,3.14923,0.0187348,-26.9955,-0.0155708,
2,0,0,1,0,60301.5,-0.0175544,-0.0179514,-36.8763,31,0.00551117,10,0.000661982,-1.43325,2.71237,0.0217522,-31.2905,-0.0179514,
2,0,0,1,0,60301.5,-0.0199515,-0.0203511,-36.7917,31,0.00536384,10,0.000748752,-1.43425,2.45463,0.0240362,-34.5021,-0.0203511,
2,0,0,1,0,60301.5,-0.0223597,-0.022772,-36.709,31,0.00521685,10,0.000835937,-1.43523,2.16956,0.0271945,-38.9391,-0.02277202,
2,0,0,1,0,60301.5,-0.0247568,-0.0251558,-36.6154,31,0.0050702,10,0.000921089,-1.43634,2.08119,0.0283492,-40.4894,-0.0251558,
2,0,0,1,0,60301.5,-0.0271539,-0.0275322,-36.5033,31,0.00492398,10,0.00100501,-1.43767,1.93488,0.0304929,-43.4374,-0.0275322,
2,0,0,1,0,60301.5,-0.0295593,-0.0299849,-36.4017,31,0.00477819,10,0.0010915,-1.43888,1.82283,0.0323672,-45.9732,-0.0299849,
2,0,0,1,0,60301.5,-0.0319564,-0.0323401,-36.2934,31,0.00463281,10,0.00117373,-1.44017,1.84203,0.0320299,-45.3575,-0.0323401,
2,0,0,1,0,60301.5,-0.0343535,-0.0347472,-36.1744,31,0.00448788,10,0.00125696,-1.4416,1.73978,0.0339124,-47.8738,-0.0347472,
2,0,0,1,0,60301.5,-0.0367506,-0.0371299,-36.0679,31,0.00434342,10,0.0013392,-1.44288,1.69326,0.0348441,-49.0324,-0.0371299,
2,0,0,1,0,60301.5,-0.0391588,-0.0395498,-35.9437,31,0.0041994,10,0.00142157,-1.44438,1.69547,0.0347986,-48.8089,-0.0395498,
2,0,0,1,0,60301.5,-0.0415559,-0.0419601,-35.8217,31,0.0040559,10,0.00150308,-1.44585,1.63785,0.0360228,-50.3662,-0.0419601,
2,0,0,1,0,60301.5,-0.043953,-0.044346,-35.7059,31,0.00391286,10,0.00158341,-1.44726,1.66441,0.035448,-49.3972,-0.044346,
2,0,0,1,0,60301.5,-0.0463585,-0.0467181,-35.585,31,0.00377028,10,0.00166247,-1.44873,1.6565,0.0356172,-49.4635,-0.0467181,
2,0,0,1,0,60301.5,-0.0487556,-0.0491359,-35.4702,31,0.00362817,10,0.00174286,-1.45014,1.65556,0.0356376,-49.3309,-0.0491359,
2,0,0,1,0,60301.5,-0.0511527,-0.051526,-35.3485,31,0.00348654,10,0.00182137,-1.45163,1.73569,0.0339922,-46.9078,-0.051526,
2,0,0,1,0,60301.5,-0.0535498,-0.0539342,-35.2329,31,0.00334539,10,0.00190026,-1.45305,1.77444,0.0332499,-45.7429,-0.0539342,
2,0,0,1,0,60301.5,-0.055958,-0.0563286,-35.1342,31,0.00320466,10,0.00197906,-1.45427,1.85923,0.0317336,-43.518,-0.0563286,
2,0,0,1,0,60301.5,-0.0583551,-0.058706,-35.0325,31,0.00306433,10,0.00205662,-1.45553,1.9851,0.0297215,-40.6406,-0.058706,
2,0,0,1,0,60301.5,-0.0607522,-0.0611503,-34.9297,31,0.00292443,10,0.00213596,-1.45681,1.96644,0.0300035,-40.9092,-0.0611503,
2,0,0,1,0,60301.5,-0.0631604,-0.0635616,-34.8416,31,0.0027849,10,0.00221459,-1.4579,2.12039,0.0278251,-37.8441,-0.0635616,
2,0,0,1,0,60301.5,-0.0655575,-0.0659507,-34.7406,31,0.00264573,10,0.00229117,-1.45916,2.30265,0.0256226,-34.761,-0.0659507,
2,0,0,1,0,60301.5,-0.0679546,-0.0683557,-34.6673,31,0.00250693,10,0.00236971,-1.46008,2.38406,0.0247477,-33.4963,-0.0683557,
2,0,0,1,0,60301.6,-0.0703573,-0.0707777,-34.595,31,0.00236843,10,0.00244856,-1.46099,2.65371,0.022233,-30.0186,-0.0707777,
2,0,0,1,0,60301.6,-0.0727571,-0.0731095,-34.5218,31,0.00223021,10,0.00252387,-1.46191,2.79462,0.021112,-28.4509,-0.0731095,
2,0,0,1,0,60301.6,-0.0751542,-0.0755548,-34.4523,31,0.00209228,10,0.00260304,-1.46278,3.14771,0.0187438,-25.2185,-0.0755548,
2,0,0,1,0,60301.6,-0.0775513,-0.0779588,-34.3941,31,0.00195459,10,0.00268132,-1.46352,3.70336,0.0159315,-21.3997,-0.0779588,
2,0,0,1,0,60301.6,-0.0799596,-0.0803182,-34.3544,31,0.00181711,10,0.00275928,-1.46402,4.10032,0.0143891,-19.2951,-0.08031819,
2,0,0,1,0,60301.6,-0.0823567,-0.0827805,-34.3149,31,0.00167978,10,0.0028406,-1.46452,4.91889,0.0119946,-16.0644,-0.0827805,
2,0,0,1,0,60301.6,-0.0847538,-0.0851526,-34.2671,31,0.00154263,10,0.00291793,-1.46512,5.71072,0.0103315,-13.8249,-0.0851526,
2,0,0,1,0,60301.6,-0.0871592,-0.0874939,-34.2409,31,0.00140563,10,0.00299587,-1.46546,6.56092,0.00899265,-12.0228,-0.0874939,
2,0,0,1,0,60301.6,-0.0895563,-0.0899615,-34.2211,31,0.0012687,10,0.00307858,-1.46571,10.5196,0.00560859,-7.4927,-0.0899615,
2,0,0,1,0,60301.6,-0.0919534,-0.0923443,-34.1999,31,0.00113187,10,0.00315816,-1.46598,17.1002,0.00345025,-4.60762,-0.0923443,
2,0,0,1,0,60301.6,-0.0943505,-0.0947588,-34.1951,31,0.000995073,10,0.00324029,-1.46604,21.4705,0.00274795,-3.66812,-0.0947588,
2,0,0,1,0,60301.6,-0.0967587,-0.0971638,-34.1963,31,0.000858292,10,0.00332265,-1.46602,180.997,0.000325972,-0.435057,-0.0971638,
2,0,0,1,0,60301.6,-0.0991558,-0.0995561,-34.1859,31,0.000721533,10,0.00340341,-1.46615,2.42203,0.0243597,-32.4205,-0.0995561,
2,0,0,1,0,60301.6,-0.0999548,-0.100305,-34.1964,31,0.00067709,10,0.00343006,-1.46602,0.025204,2.34089,-2950.19,-0.100305,
2,0,0,1,1,60301.6,-0.0999548,-0.100476,-34.0098,31,0.000656661,10,0.00341718,-1.4684,-0.0363671,-1.62234,1938.9,-0.1004765,
2,0,0,1,1,60301.6,-0.0979573,-0.0984299,-30.461,31,0.000558209,10,0.00299828,-1.51626,-0.0472538,-1.24858,1421.63,-0.0984299,
2,0,0,1,1,60301.6,-0.0955546,-0.0960133,-27.3167,31,0.000443138,10,0.00262277,-1.56357,-0.0510205,-1.1564,1252.82,-0.0960133,
2,0,0,1,1,60301.6,-0.0931519,-0.093604,-24.6705,31,0.000339519,10,0.00230926,-1.60782,-0.0541428,-1.08971,1062.53,-0.093604,
2,0,0,1,1,60301.6,-0.0907548,-0.0911513,-22.327,31,0.000245821,10,0.00203513,-1.65117,-0.0547657,-1.07732,944.791,-0.0911513,
2,0,0,1,1,60301.6,-0.0883577,-0.0887792,-20.2068,31,0.000161011,10,0.00179395,-1.6945,-0.0547962,-1.07672,852.121,-0.0887792,
2,0,0,1,1,60301.6,-0.0859523,-0.0864017,-18.2358,31,8.43514e-05,10,0.00157561,-1.73907,-0.0525977,-1.12172,799.069,-0.0864017,
2,0,0,1,1,60301.6,-0.0835552,-0.0839469,-16.4415,31,1.52139e-05,10,0.00138021,-1.78406,-0.0509543,-1.1579,740.969,-0.0839469,
2,0,0,1,1,60301.6,-0.0811581,-0.0816161,-14.7077,31,-4.692e-05,10,0.00120039,-1.83246,-0.0488336,-1.20818,691.388,-0.0816161,
2,0,0,1,1,60301.6,-0.0787555,-0.0791867,-13.0991,31,-0.000102353,10,0.00103728,-1.88276,-0.0455125,-1.29635,659.978,-0.0791867,
2,0,0,1,1,60301.6,-0.0763528,-0.0767902,-11.5905,31,-0.00015156,10,0.000890041,-1.9359,-0.0431528,-1.36723,613.523,-0.0767902,
2,0,0,1,1,60301.6,-0.0739557,-0.074417,-10.152,31,-0.000194889,10,0.00075548,-1.99345,-0.0395744,-1.49086,583.965,-0.074417,
2,0,0,1,1,60301.6,-0.0715586,-0.071976,-8.79324,31,-0.000232629,10,0.000632902,-2.05585,-0.0358147,-1.64737,555.753,-0.071976,
2,0,0,1,1,60301.7,-0.0691532,-0.0695869,-7.49316,31,-0.000265062,10,0.000521425,-2.12534,-0.0318432,-1.85283,528.668,-0.0695869,
2,0,0,1,1,60301.7,-0.0667561,-0.0671723,-6.24537,31,-0.000292395,10,0.000419516,-2.20444,-0.0272215,-2.16741,509.439,-0.0671723,
2,0,0,1,1,60301.7,-0.0643589,-0.06478,-5.05723,31,-0.000314849,10,0.000327607,-2.29609,-0.022613,-2.60912,486.407,-0.06478,
2,0,0,1,1,60301.7,-0.0619563,-0.0623825,-3.90594,31,-0.000332648,10,0.000243662,-2.40827,-0.0174914,-3.37309,466.876,-0.06238246,
2,0,0,1,1,60301.7,-0.0595536,-0.0599647,-2.81288,31,-0.000345953,10,0.000168674,-2.55085,-0.0116302,-5.07301,448.75,-0.0599647,
2,0,0,1,1,60301.7,-0.0571565,-0.0575788,-1.7664,31,-0.000355004,10,0.000101707,-2.75291,-0.00772184,-7.64066,430.94,-0.0575788,
2,0,0,1,1,60301.7,-0.0547594,-0.0552024,-0.759277,31,-0.000359944,10,4.1914e-05,-3.1196,-0.024691,-2.38953,413.631,-0.0552024,
2,1,0,1,1,60301.7,-0.0523512,-0.0527985,0.224169,31,-0.000360888,10,-1.18358e-05,-3.64942,0.148279,0.397898,398.395,-0.0527985,
2,1,0,1,1,60301.7,-0.0499541,-0.0503818,1.1509,31,-0.000358047,10,-5.79846e-05,-2.93896,0.0163726,3.60357,384.141,-0.0503818,
2,1,0,1,1,60301.7,-0.047557,-0.0480002,2.04969,31,-0.000351544,10,-9.83853e-05,-2.68831,0.00781873,7.54599,368.591,-0.0480002,
2,1,0,1,1,60301.7,-0.0451544,-0.045628,2.91865,31,-0.000341516,10,-0.000133172,-2.53482,0.0160043,3.68652,356.376,-0.04562803,
2,1,0,1,1,60301.7,-0.0427545,-0.0432326,3.75008,31,-0.00032809,10,-0.000162126,-2.42596,0.023039,2.56087,343.381,-0.0432326,
2,1,0,1,1,60301.7,-0.0403574,-0.0408085,4.56261,31,-0.00031137,10,-0.000186193,-2.34079,0.0301714,1.95549,329.25,-0.0408085,
2,1,0,1,1,60301.7,-0.0379603,-0.0384215,5.33882,31,-0.000291481,10,-0.000205125,-2.27255,0.0370203,1.59372,319.478,-0.0384215,
2,1,0,1,1,60301.7,-0.0355521,-0.0359762,6.09651,31,-0.000268518,10,-0.000219329,-2.21492,0.0440965,1.33798,309.203,-0.0359762,
2,1,0,1,1,60301.7,-0.033155,-0.0335966,6.82855,31,-0.000242592,10,-0.000229416,-2.16567,0.0513127,1.14981,299.554,-0.03359665,
2,1,0,1,1,60301.7,-0.0307579,-0.0312224,7.52666,31,-0.000213829,10,-0.000235,-2.1234,0.0587123,1.0049,290.029,-0.0312224,
2,1,0,1,1,60301.7,-0.0283524,-0.0288079,8.21863,31,-0.000182279,10,-0.000236761,-2.0852,0.0669805,0.880854,278.111,-0.0288079,
2,1,0,1,1,60301.7,-0.0259553,-0.0264251,8.8666,31,-0.000148025,10,-0.000234301,-2.05224,0.0749342,0.787357,268.972,-0.0264251,
2,1,0,1,1,60301.7,-0.0235582,-0.0239978,9.49808,31,-0.000111221,10,-0.000227933,-2.02236,0.0840656,0.701833,257.641,-0.0239978,
2,1,0,1,1,60301.7,-0.0211611,-0.021631,10.1065,31,-7.19398e-05,10,-0.000218613,-1.9954,0.0920747,0.640784,250.711,-0.021631,
2,1,0,1,1,60301.7,-0.0187529,-0.0191645,10.7031,31,-3.02451e-05,10,-0.000205121,-1.97049,0.101135,0.583378,241.82,-0.0191645,
2,1,0,1,1,60301.7,-0.0163558,-0.0167956,11.2808,31,1.378e-05,10,-0.000189468,-1.94766,0.110199,0.535393,233.97,-0.0167956,
2,1,0,1,1,60301.7,-0.0139587,-0.0143556,11.8298,31,6.00594e-05,10,-0.000169823,-1.92702,0.119553,0.493504,226.454,-0.0143556,
2,1,0,1,1,60301.7,-0.0115505,-0.0119803,12.3645,31,0.000108507,10,-0.000148129,-1.90782,0.130121,0.453425,217.569,-0.0119803,
2,1,0,1,1,60301.8,-0.0091534,-0.00955405,12.8795,31,0.000159044,10,-0.000123051,-1.8901,0.140016,0.421382,210.754,-0.00955405,
2,1,0,1,1,60301.8,-0.00675629,-0.00720206,13.3681,31,0.000211593,10,-9.62778e-05,-1.87393,0.150295,0.392561,204.053,-0.00720206,
2,1,0,1,1,60301.8,-0.00435919,-0.00474828,13.8545,31,0.000266087,10,-6.57853e-05,-1.85841,0.165999,0.355424,190.462,-0.00474828,
2,1,0,1,1,60301.8,-0.00195376,-0.00238994,14.3214,31,0.0003225,10,-3.42272e-05,-1.84401, , , ,-0.00238994,
2,1,0,0,1,60301.8,-7.54729e-05,-0.00042076,14.619,31,0.000367408,10,-6.1511e-06,-1.83508, , , ,-0.00042076,