File: Figure_codes/Fig_3-5/rawdata_trumpetplot_data/after 10th/20221101_1-115_003_TrumpetPlot_ParaChange_from10_every3_10_CV_C01_17.csv
mode,ox/red,error,control changes,counter inc.,time/s,control/V,Ewe/V,<I>/mA,cycle number,(Q-Qo)/C,I Range,P/W,log(|I|),Tafel slope mV/dec,alpha_eff,dI/d(E-IR),E-IR/V,
2,1,0,0,0,34682.7,-2.44065e-05,-0.000382585,5.08935,18,0.0000000E+000,10,-1.94711e-06,-2.29334, , , ,-0.000382585,
2,1,0,1,0,34682.7,0.00179726,0.00140606,5.85958,18,4.87087e-05,10,8.23889e-06,-2.23213, , , ,0.00140606,
2,1,0,1,0,34682.8,0.00379485,0.00351918,6.47246,18,0.000110698,10,2.27777e-05,-2.18893,0.0572264,1.03099,256.174,0.00351918,
2,1,0,1,0,34682.8,0.00579244,0.00547643,6.9023,18,0.000177701,10,3.77999e-05,-2.16101,0.0765868,0.770368,206.589,0.00547643,
2,1,0,1,0,34682.8,0.00779002,0.00745912,7.28641,18,0.00024873,10,5.43502e-05,-2.13749,0.0946066,0.623635,176.438,0.00745912,
2,1,0,1,0,34682.8,0.00977853,0.00947515,7.60782,18,0.000322544,10,7.20852e-05,-2.11874,0.116273,0.507425,150.126,0.00947515,
2,1,0,1,0,34682.8,0.0117761,0.0114342,7.88317,18,0.000400041,10,9.01377e-05,-2.1033,0.138821,0.425007,130.441,0.0114342,
2,1,0,1,0,34682.8,0.0137737,0.0134496,8.12626,18,0.000480124,10,0.000109295,-2.09011,0.161377,0.365603,115.778,0.0134496,
2,1,0,1,0,34682.8,0.0157713,0.015466,8.34996,18,0.000562504,10,0.00012914,-2.07832,0.181009,0.325951,106.035,0.015466,
2,1,0,1,0,34682.8,0.017778,0.0174302,8.54834,18,0.000647054,10,0.000148999,-2.06812,0.205929,0.286507,95.4728,0.01743022,
2,1,0,1,0,34682.8,0.0197755,0.0194448,8.72983,18,0.000733441,10,0.00016975,-2.05899,0.240826,0.24499,83.3306,0.0194448,
2,1,0,1,0,34682.8,0.0217731,0.0214681,8.88482,18,0.000821555,10,0.00019074,-2.05135,0.256227,0.230264,79.8787,0.0214681,
2,1,0,1,0,34682.9,0.0237707,0.0234479,9.04959,18,0.000911242,10,0.000212194,-2.04337,0.272629,0.216411,76.3206,0.0234479,
2,1,0,1,0,34682.9,0.0257774,0.0254642,9.18981,18,0.00100249,10,0.000234012,-2.03669,0.300001,0.196666,70.5386,0.0254642,
2,1,0,1,0,34682.9,0.027775,0.0274606,9.33264,18,0.00109512,10,0.00025628,-2.03,0.31343,0.18824,68.5173,0.0274606,
2,1,0,1,0,34682.9,0.0297726,0.0294778,9.46481,18,0.00118916,10,0.000279002,-2.02389,0.334644,0.176307,65.1047,0.0294778,
2,1,0,1,0,34682.9,0.0317701,0.0314507,9.59242,18,0.00128445,10,0.000301688,-2.01807,0.334112,0.176588,66.1171,0.0314507,
2,1,0,1,0,34682.9,0.0337586,0.0333972,9.72395,18,0.00138007,10,0.000324752,-2.01216,0.341883,0.172573,65.4725,0.0333972,
2,1,0,1,0,34682.9,0.0357562,0.035403,9.85118,18,0.00147794,10,0.000348761,-2.00651,0.38683,0.152522,58.5816,0.03540295,
2,1,0,1,0,34682.9,0.0377538,0.0374302,9.9602,18,0.00157704,10,0.000372812,-2.00173,0.381624,0.154603,60.1646,0.0374302,
2,1,0,1,0,34682.9,0.0397514,0.0394192,10.0928,18,0.00167733,10,0.000397851,-1.99599,0.341712,0.17266,68.013,0.0394192,
2,1,0,1,0,34682.9,0.0417399,0.041364,10.2278,18,0.00177791,10,0.000423061,-1.99022,0.366266,0.161085,64.2599,0.041364,
2,1,0,1,0,34683,0.0437375,0.0434462,10.3516,18,0.00188082,10,0.000449738,-1.98499,0.403548,0.146203,59.0293,0.0434462,
2,1,0,1,0,34683,0.0457351,0.0453654,10.464,18,0.0019849,10,0.000474701,-1.9803,0.394856,0.149422,61.0704,0.0453654,
2,1,0,1,0,34683,0.0477327,0.0474242,10.5945,18,0.00209019,10,0.000502437,-1.97492,0.369533,0.159661,66.0285,0.0474242,
2,1,0,1,0,34683,0.0497393,0.0494023,10.7305,18,0.00219683,10,0.000530112,-1.96938,0.379763,0.15536,65.0126,0.0494023,
2,1,0,1,0,34683,0.0517369,0.0513753,10.8514,18,0.00230471,10,0.000557493,-1.96451,0.395774,0.149075,63.1558,0.0513753,
2,1,0,1,0,34683,0.0537345,0.0533716,10.9812,18,0.00241388,10,0.000586084,-1.95935,0.388823,0.15174,65.0377,0.0533716,
2,1,0,1,0,34683,0.0557321,0.0554235,11.1147,18,0.00252437,10,0.000616015,-1.9541,0.400382,0.147359,63.8797,0.0554235,
2,1,0,1,0,34683,0.0577297,0.0573453,11.235,18,0.00263616,10,0.000644276,-1.94943,0.387523,0.152249,66.8295,0.0573453,
2,1,0,1,0,34683,0.0597364,0.0594093,11.3811,18,0.00274929,10,0.00067614,-1.94382,0.39247,0.15033,66.7082,0.0594093,
2,1,0,1,0,34683,0.0617339,0.0614152,11.5065,18,0.00286376,10,0.000706675,-1.93906,0.409266,0.144161,64.7592,0.0614152,
2,1,0,1,0,34683.1,0.0637315,0.0634194,11.6407,18,0.00297954,10,0.000738249,-1.93402,0.388505,0.151864,69.0125,0.0634194,
2,1,0,1,0,34683.1,0.0657291,0.0654201,11.7829,18,0.00309669,10,0.000770839,-1.92875,0.36443,0.161897,74.475,0.0654201,
2,1,0,1,0,34683.1,0.0677176,0.0673679,11.9348,18,0.00321413,10,0.000804022,-1.92318,0.407116,0.144922,67.3988,0.0673679,
2,1,0,1,0,34683.1,0.0697152,0.0694038,12.0514,18,0.00333409,10,0.000836414,-1.91896,0.435924,0.135345,63.7158,0.0694038,
2,1,0,1,0,34683.1,0.0717128,0.0713945,12.1914,18,0.00345531,10,0.000870396,-1.91395,0.409275,0.144157,68.5603,0.0713945,
2,1,0,1,0,34683.1,0.0737104,0.0733533,12.3222,18,0.0035779,10,0.000903873,-1.90931,0.409039,0.144241,69.4056,0.07335332,
2,1,0,1,0,34683.1,0.0756989,0.075388,12.4685,18,0.00370062,10,0.000939978,-1.90418,0.442233,0.133414,64.8214,0.075388,
2,1,0,1,0,34683.1,0.0776965,0.0772967,12.5778,18,0.00382587,10,0.000972223,-1.9004,0.458117,0.128788,63.2963,0.0772967,
2,1,0,1,0,34683.1,0.0796941,0.0793425,12.7188,18,0.00395234,10,0.00100915,-1.89555,0.443942,0.1329,65.9279,0.0793425,
2,1,0,1,0,34683.1,0.0816917,0.081351,12.8451,18,0.00408022,10,0.00104496,-1.89126,0.435971,0.13533,67.8913,0.081351,
2,1,0,1,0,34683.2,0.0836983,0.0833535,12.9912,18,0.0042094,10,0.00108286,-1.88635,0.44681,0.132047,66.8828,0.0833535,
2,1,0,1,0,34683.2,0.0856959,0.0853516,13.1127,18,0.00433995,10,0.00111919,-1.88231,0.486836,0.121191,62.03,0.0853516,
2,1,0,1,0,34683.2,0.0876935,0.0873601,13.2397,18,0.00447174,10,0.00115662,-1.87812,0.524898,0.112403,58.0275,0.0873601,
2,1,0,1,0,34683.2,0.0896911,0.0893373,13.3439,18,0.0046047,10,0.00119211,-1.87472,0.501904,0.117552,61.3074,0.0893373,
2,1,0,1,0,34683.2,0.0916978,0.0914092,13.4879,18,0.00473887,10,0.00123292,-1.87005,0.499717,0.118067,62.0563,0.0914092,
2,1,0,1,0,34683.2,0.0936953,0.0933387,13.5923,18,0.00487434,10,0.00126868,-1.86671,0.551734,0.106936,56.7547,0.0933387,
2,1,0,1,0,34683.2,0.0956929,0.0953438,13.7112,18,0.00501088,10,0.00130728,-1.86292,0.544201,0.108416,57.9985,0.0953438,
2,1,0,1,0,34683.2,0.0976905,0.0973263,13.8235,18,0.00514856,10,0.00134539,-1.85938,0.518388,0.113814,61.4492,0.0973263,
2,1,0,1,0,34683.2,0.099679,0.0993598,13.958,18,0.00528604,10,0.00138686,-1.85518,0.554345,0.106432,57.9013,0.0993598,
2,1,0,1,0,34683.2,0.101677,0.10135,14.0565,18,0.00542614,10,0.00142462,-1.85212,0.561263,0.10512,57.7332,0.10135,
2,1,0,1,0,34683.3,0.103674,0.103342,14.1879,18,0.00556736,10,0.00146621,-1.84808,0.505797,0.116647,64.5739,0.103342,
2,1,0,1,0,34683.3,0.105672,0.10533,14.3135,18,0.00570989,10,0.00150765,-1.84425,0.488167,0.12086,67.5547,0.10533,
2,1,0,1,0,34683.3,0.107656,0.107329,14.4572,18,0.00585228,10,0.00155168,-1.83991,0.471885,0.12503,70.5223,0.107329,
2,1,0,1,0,34683.3,0.109658,0.109288,14.5926,18,0.00599752,10,0.0015948,-1.83587,0.458861,0.128579,73.2746,0.109288,
2,1,0,1,0,34683.3,0.111655,0.111299,14.7482,18,0.00614421,10,0.00164146,-1.83126,0.436057,0.135303,77.8861,0.111299,
2,1,0,1,0,34683.3,0.113653,0.11334,14.9082,18,0.00629249,10,0.00168969,-1.82657,0.419889,0.140513,81.7687,0.11334,
2,1,0,1,0,34683.3,0.115651,0.115295,15.0749,18,0.00644235,10,0.00173807,-1.82174,0.388483,0.151873,89.4097,0.115295,
2,1,0,1,0,34683.3,0.117657,0.117306,15.2629,18,0.00659408,10,0.00179043,-1.81636,0.378046,0.156066,92.9481,0.117306,
2,1,0,1,0,34683.3,0.119655,0.119305,15.4477,18,0.00674763,10,0.00184299,-1.81114,0.38783,0.152129,91.7096,0.119305,
2,1,0,1,0,34683.3,0.121652,0.121335,15.6323,18,0.00690309,10,0.00189674,-1.80598,0.374833,0.157403,96.0851,0.121335,
2,1,0,1,0,34683.4,0.12365,0.123357,15.837,18,0.00706045,10,0.0019536,-1.80033,0.353062,0.16711,103.296,0.123357,
2,1,0,1,0,34683.4,0.125657,0.125346,16.0467,18,0.00721995,10,0.0020114,-1.79461,0.353548,0.16688,104.48,0.125346,
2,1,0,1,0,34683.4,0.127654,0.127303,16.2492,18,0.00738142,10,0.00206857,-1.78917,0.366967,0.160777,101.936,0.127303,
2,1,0,1,0,34683.4,0.129652,0.129267,16.4464,18,0.00754494,10,0.00212598,-1.78393,0.380332,0.155128,99.5925,0.129267,
2,1,0,1,0,34683.4,0.131649,0.131357,16.653,18,0.00771045,10,0.00218749,-1.77851,0.383838,0.153711,99.8618,0.131357,
2,1,0,1,0,34683.4,0.133638,0.133298,16.8489,18,0.00787637,10,0.00224592,-1.77343,0.387387,0.152303,100.141,0.133298,
2,1,0,1,0,34683.4,0.135636,0.135261,17.044,18,0.00804583,10,0.00230539,-1.76843,0.419455,0.140659,93.5133,0.135261,
2,1,0,1,0,34683.4,0.137633,0.137293,17.2225,18,0.00821721,10,0.00236454,-1.7639,0.441748,0.13356,89.7801,0.137293,
2,1,0,1,0,34683.4,0.139631,0.13929,17.4056,18,0.00839035,10,0.00242442,-1.75931,0.463041,0.127418,86.5013,0.13929,
2,1,0,1,0,34683.4,0.141619,0.141296,17.5688,18,0.00856346,10,0.00248241,-1.75526,0.496324,0.118874,81.5024,0.141296,
2,1,0,1,0,34683.5,0.143617,0.143284,17.7312,18,0.00873996,10,0.0025406,-1.75126,0.532508,0.110796,76.6296,0.143284,
2,1,0,1,0,34683.5,0.145614,0.145301,17.8756,18,0.00891804,10,0.00259734,-1.74774,0.585018,0.100852,70.3399,0.145301,
2,1,0,1,0,34683.5,0.147612,0.147278,18.0121,18,0.00909742,10,0.00265278,-1.74444,0.626037,0.0942437,66.2307,0.147278,
2,1,0,1,0,34683.5,0.149619,0.14928,18.1392,18,0.00927819,10,0.00270782,-1.74138,0.717408,0.0822405,58.1857,0.14928,
2,1,0,1,0,34683.5,0.151616,0.151294,18.2458,18,0.00946009,10,0.00276048,-1.73884,0.928628,0.0635346,45.1976,0.1512939,
2,1,0,1,0,34683.5,0.153614,0.153222,18.3173,18,0.00964294,10,0.00280661,-1.73714,1.20945,0.0487823,34.8676,0.153222,
2,1,0,1,0,34683.5,0.155611,0.155242,18.3834,18,0.00982649,10,0.00285387,-1.73557,1.63183,0.0361558,25.9212,0.1552415,
2,1,0,1,0,34683.5,0.157618,0.157302,18.4231,18,0.0100106,10,0.00289799,-1.73464,5.94516,0.00992404,7.12558,0.157302,
2,1,0,1,0,34683.5,0.159616,0.159301,18.4124,18,0.0101947,10,0.00293311,-1.73489,-2.65059,-0.0222592,-15.9764,0.159301,
2,1,0,1,0,34683.5,0.161613,0.161317,18.359,18,0.0103786,10,0.00296161,-1.73615,-1.10225,-0.0535267,-38.3053,0.1613165,
2,1,0,1,0,34683.6,0.163611,0.163237,18.2616,18,0.0105617,10,0.00298097,-1.73846,-0.665154,-0.0887012,-63.122,0.163237,
2,1,0,1,0,34683.6,0.165618,0.16526,18.1101,18,0.0107437,10,0.00299287,-1.74208,-0.492267,-0.119854,-84.6161,0.16526,
2,1,0,1,0,34683.6,0.167597,0.16728,17.9195,18,0.010922,10,0.00299758,-1.74667,-0.365121,-0.16159,-112.778,0.16728,
2,1,0,1,0,34683.6,0.169595,0.169265,17.6583,18,0.0110999,10,0.00298894,-1.75305,-0.283146,-0.208373,-143.401,0.169265,
2,1,0,1,0,34683.6,0.171592,0.171242,17.3514,18,0.011275,10,0.00297128,-1.76067,-0.234317,-0.251796,-170.192,0.171242,
2,1,0,1,0,34683.6,0.173572,0.173225,16.9844,18,0.0114449,10,0.00294213,-1.76995,-0.205978,-0.286438,-189.718,0.173225,
2,1,0,1,0,34683.6,0.175578,0.17522,16.5967,18,0.0116128,10,0.00290807,-1.77998,-0.184397,-0.319962,-206.818,0.17522,
2,1,0,1,0,34683.6,0.177576,0.177271,16.1477,18,0.0117765,10,0.00286251,-1.79189,-0.163962,-0.359839,-226.61,0.177271,
2,1,0,1,0,34683.6,0.179573,0.179244,15.6848,18,0.0119356,10,0.00281141,-1.80452,-0.153542,-0.384259,-235.061,0.179244,
2,1,0,1,0,34683.6,0.181571,0.181258,15.2106,18,0.01209,10,0.00275703,-1.81785,-0.149236,-0.395347,-234.635,0.181258,
2,1,0,1,0,34683.7,0.183578,0.183273,14.7394,18,0.0122397,10,0.00270134,-1.83152,-0.142885,-0.41292,-237.349,0.183273,
2,1,0,1,0,34683.7,0.185575,0.185276,14.2567,18,0.0123847,10,0.00264143,-1.84598,-0.140446,-0.42009,-233.884,0.185276,
2,1,0,1,0,34683.7,0.187573,0.18728,13.8024,18,0.0125249,10,0.0025849,-1.86005,-0.140178,-0.420892,-226.703,0.1872796,
2,1,0,1,0,34683.7,0.18957,0.18925,13.3559,18,0.0126607,10,0.0025276,-1.87433,-0.143858,-0.410128,-214.042,0.18925,
2,1,0,1,0,34683.7,0.191577,0.191253,12.9518,18,0.0127921,10,0.00247708,-1.88767,-0.150435,-0.392197,-198.243,0.191253,
2,1,0,1,0,34683.7,0.193575,0.193285,12.5559,18,0.0129196,10,0.00242688,-1.90115,-0.153928,-0.383296,-188.078,0.193285,
2,1,0,1,0,34683.7,0.195572,0.195242,12.2017,18,0.0130434,10,0.00238228,-1.91358,-0.160236,-0.368207,-175.345,0.1952416,
2,1,0,1,0,34683.7,0.19757,0.197282,11.8551,18,0.0131636,10,0.00233879,-1.9261,-0.171273,-0.344479,-159.699,0.197282,
2,1,0,1,0,34683.7,0.199558,0.199248,11.5618,18,0.0132795,10,0.00230367,-1.93697,-0.179923,-0.327918,-147.954,0.199248,
2,1,0,1,0,34683.7,0.201556,0.201223,11.272,18,0.0133936,10,0.00226818,-1.948,-0.186134,-0.316975,-139.586,0.201223,
2,1,0,1,0,34683.8,0.203554,0.203201,11.0101,18,0.013505,10,0.00223726,-1.95821,-0.197602,-0.29858,-128.369,0.203201,
2,1,0,1,0,34683.8,0.205551,0.205177,10.7645,18,0.0136138,10,0.00220862,-1.96801,-0.229205,-0.257411,-108.392,0.205177,
2,1,0,1,0,34683.8,0.20754,0.207242,10.572,18,0.0137193,10,0.00219098,-1.97584,-0.244326,-0.241481,-99.5265,0.207242,
2,1,0,1,0,34683.8,0.209537,0.209246,10.3595,18,0.0138239,10,0.00216768,-1.98466,-0.232056,-0.254249,-102.863,0.209246,
2,1,0,1,0,34683.8,0.211535,0.211211,10.1638,18,0.0139265,10,0.00214671,-1.99294,-0.249386,-0.236581,-93.9267,0.211211,
2,1,0,1,0,34683.8,0.213532,0.213195,9.98856,18,0.0140272,10,0.00212951,-2.0005,-0.286116,-0.20621,-80.4868,0.213195,
2,1,0,1,0,34683.8,0.215539,0.215231,9.84025,18,0.0141263,10,0.00211793,-2.00699,-0.293571,-0.200973,-77.1286,0.215231,
2,1,0,1,0,34683.8,0.217537,0.217192,9.68028,18,0.0142239,10,0.00210248,-2.01411,-0.306404,-0.192556,-72.8529,0.217192,
2,1,0,1,0,34683.8,0.219534,0.219213,9.55019,18,0.01432,10,0.00209352,-2.01999,-0.332488,-0.17745,-66.111,0.219213,
2,1,0,1,0,34683.8,0.221532,0.221226,9.41356,18,0.0144149,10,0.00208253,-2.02625,-0.351043,-0.16807,-61.8219,0.221226,
2,1,0,1,0,34683.9,0.223534,0.223241,9.30116,18,0.0145084,10,0.0020764,-2.03146,-0.377762,-0.156183,-56.6852,0.223241,
2,1,0,1,0,34683.9,0.225536,0.225225,9.18689,18,0.0146008,10,0.00206912,-2.03683,-0.388422,-0.151897,-54.488,0.225225,
2,1,0,1,0,34683.9,0.227534,0.227248,9.0828,18,0.0146921,10,0.00206405,-2.04178,-0.392525,-0.150309,-53.2676,0.227248,
2,1,0,1,0,34683.9,0.229531,0.2292,8.97518,18,0.0147825,10,0.00205711,-2.04696,-0.419245,-0.140729,-49.3504,0.2292,
2,1,0,1,0,34683.9,0.231529,0.231177,8.88892,18,0.0148718,10,0.00205491,-2.05115,-0.486904,-0.121174,-42.0454,0.231177,
2,1,0,1,0,34683.9,0.233517,0.233196,8.80715,18,0.0149594,10,0.00205379,-2.05516,-0.492367,-0.119829,-41.1842,0.233196,
2,1,0,1,0,34683.9,0.235515,0.235166,8.72463,18,0.0150471,10,0.00205174,-2.05925,-0.500317,-0.117925,-40.1647,0.235166,
2,1,0,1,0,34683.9,0.237512,0.237166,8.64769,18,0.0151339,10,0.00205094,-2.0631,-0.533285,-0.110635,-37.3447,0.237166,
2,1,0,1,0,34683.9,0.23951,0.239198,8.57405,18,0.01522,10,0.0020509,-2.06681,-0.584315,-0.100973,-33.8104,0.239198,
2,1,0,1,0,34683.9,0.241499,0.241166,8.51246,18,0.0153046,10,0.00205291,-2.06994,-0.590849,-0.0998562,-33.154,0.241166,
2,1,0,1,0,34684,0.243496,0.243209,8.44108,18,0.0153893,10,0.00205295,-2.0736,-0.572461,-0.103064,-33.9651,0.243209,
2,1,0,1,0,34684,0.245494,0.245169,8.3765,18,0.0154734,10,0.00205366,-2.07694,-0.656058,-0.089931,-29.4202,0.245169,
2,1,0,1,0,34684,0.247491,0.247183,8.32415,18,0.0155568,10,0.00205759,-2.07966,-0.660579,-0.0893155,-28.9965,0.247183,
2,1,0,1,0,34684,0.249498,0.249146,8.26117,18,0.0156398,10,0.00205824,-2.08296,-0.701805,-0.0840689,-27.1351,0.249146,
2,1,0,1,0,34684,0.251496,0.251129,8.21708,18,0.0157221,10,0.00206355,-2.08528,-0.719499,-0.0820015,-26.2686,0.251129,
2,1,0,1,0,34684,0.253493,0.253165,8.15561,18,0.015804,10,0.00206471,-2.08854,-0.687616,-0.0858037,-27.3312,0.253165,
2,1,0,1,0,34684,0.255491,0.255161,8.10689,18,0.0158853,10,0.00206856,-2.09115,-0.843085,-0.069981,-22.1525,0.255161,
2,1,0,1,0,34684,0.257497,0.257176,8.06674,18,0.0159662,10,0.00207457,-2.0933,-0.963057,-0.0612633,-19.2899,0.257176,
2,1,0,1,0,34684,0.259495,0.259185,8.02927,18,0.0160466,10,0.00208107,-2.09532,-0.749823,-0.0786853,-24.621,0.259185,
2,1,0,1,0,34684,0.261493,0.261154,7.96882,18,0.0161266,10,0.00208108,-2.09861,-0.783823,-0.0752721,-23.4496,0.261154,
2,1,0,1,0,34684.1,0.26349,0.263167,7.93589,18,0.0162062,10,0.00208846,-2.1004,-1.13338,-0.0520565,-16.1236,0.263167,
2,1,0,1,0,34684.1,0.265479,0.26517,7.90406,18,0.0162846,10,0.00209592,-2.10215,-1.05872,-0.0557279,-17.1849,0.26517,
2,1,0,1,0,34684.1,0.267476,0.267162,7.86724,18,0.0163634,10,0.00210183,-2.10418,-0.856297,-0.0689013,-21.1413,0.267162,
2,1,0,1,0,34684.1,0.269474,0.269127,7.8204,18,0.0164418,10,0.00210468,-2.10677,-0.95509,-0.0617743,-18.8761,0.269127,
2,1,0,1,0,34684.1,0.271471,0.27114,7.79214,18,0.0165199,10,0.00211276,-2.10834,-1.27608,-0.0462354,-14.0602,0.27114,
2,1,0,1,0,34684.1,0.27346,0.273152,7.76381,18,0.0165968,10,0.0021207,-2.10993,-1.06288,-0.0555097,-16.8077,0.273152,
2,1,0,1,0,34684.1,0.275458,0.27514,7.72491,18,0.0166742,10,0.00212543,-2.11211,-0.962011,-0.0613299,-18.4951,0.27514,
2,1,0,1,0,34684.1,0.277455,0.277108,7.69064,18,0.0167513,10,0.00213114,-2.11404,-1.15043,-0.051285,-15.4001,0.277108,
2,1,0,1,0,34684.1,0.279453,0.279107,7.66382,18,0.016828,10,0.00213903,-2.11555,-1.12614,-0.0523915,-15.6605,0.279107,
2,1,0,1,0,34684.1,0.281455,0.281124,7.62774,18,0.0169044,10,0.00214434,-2.1176,-1.14442,-0.0515545,-15.357,0.281124,
2,1,0,1,0,34684.2,0.283457,0.283163,7.60154,18,0.0169805,10,0.00215247,-2.1191,-1.10822,-0.0532386,-15.783,0.283163,
2,1,0,1,0,34684.2,0.285455,0.285108,7.56486,18,0.0170563,10,0.0021568,-2.1212,-1.04504,-0.0564571,-16.6757,0.285108,
2,1,0,1,0,34684.2,0.287452,0.287134,7.53532,18,0.0171318,10,0.00216365,-2.1229,-1.20134,-0.0491119,-14.4432,0.287134,
2,1,0,1,0,34684.2,0.28945,0.289169,7.50622,18,0.0172071,10,0.00217056,-2.12458,-1.43275,-0.0411796,-12.0713,0.289169,
2,1,0,1,0,34684.2,0.291456,0.291128,7.48711,18,0.017282,10,0.0021797,-2.12569,-1.04702,-0.0563503,-16.4365,0.291128,
2,1,0,1,0,34684.2,0.293454,0.293093,7.44172,18,0.0173567,10,0.00218111,-2.12833,-1.06707,-0.0552915,-16.0862,0.293093,
2,1,0,1,0,34684.2,0.295452,0.295149,7.42242,18,0.017431,10,0.00219072,-2.12945,-1.52428,-0.0387068,-11.2071,0.295149,
2,1,0,1,0,34684.2,0.297449,0.297148,7.39627,18,0.0175051,10,0.00219779,-2.13099,-1.4935,-0.0395044,-11.4085,0.297148,
2,1,0,1,0,34684.2,0.299438,0.299117,7.37715,18,0.0175783,10,0.00220663,-2.13211,-0.066463,-0.887712,-246.082,0.2991173,
2,1,0,1,0,34684.2,0.299746,0.299499,6.81768,18,0.0176093,10,0.00204189,-2.16636,0.00704017,8.38048,1864.12,0.299499,
2,1,0,1,0,34684.2,0.29774,0.297465,4.29788,18,0.0176633,10,0.00127847,-2.36675,0.0102372,5.76327,1005.25,0.297465,
2,1,0,1,0,34684.3,0.295742,0.295437,2.73426,18,0.0176979,10,0.000807801,-2.56316,0.0093424,6.31529,670.103,0.295437,
2,1,0,1,0,34684.3,0.293745,0.293415,1.58398,18,0.0177191,10,0.000464764,-2.80025,0.00685398,8.60814,504.587,0.293415,
2,1,0,1,0,34684.3,0.291747,0.291427,0.710838,18,0.0177303,10,0.000207157,-3.14823,0.00125815,46.8943,397.572,0.291427,
2,1,0,1,0,34684.3,0.289745,0.289434,0.00108455,18,0.0177336,10,3.13904e-07,-5.96475,0.0342439,1.72293,312.778,0.289434,
2,0,0,1,0,34684.3,0.287743,0.287419,-0.542896,18,0.0177308,10,-0.000156038,-3.26528,-0.00134401,-43.8986,251.975,0.287419,
2,0,0,1,0,34684.3,0.285745,0.285447,-1.00346,18,0.0177229,10,-0.000286434,-2.9985,-0.00984598,-5.99229,209.891,0.285447,
2,0,0,1,0,34684.3,0.283748,0.283428,-1.38056,18,0.0177108,10,-0.00039129,-2.85994,-0.0170119,-3.46817,179.819,0.2834276,
2,0,0,1,0,34684.3,0.28175,0.281478,-1.71721,18,0.0176952,10,-0.000483358,-2.76518,-0.025344,-2.32797,151.388,0.281478,
2,0,0,1,0,34684.3,0.279761,0.279409,-1.98895,18,0.0176768,10,-0.000555731,-2.70138,-0.0351031,-1.68076,128.994,0.279409,
2,0,0,1,0,34684.3,0.277764,0.277434,-2.23886,18,0.0176556,10,-0.000621136,-2.64997,-0.0443314,-1.33089,114.755,0.277434,
2,0,0,1,0,34684.4,0.275766,0.275431,-2.44546,18,0.0176321,10,-0.000673556,-2.61164,-0.0560634,-1.05238,99.8789,0.275431,
2,0,0,1,0,34684.4,0.273769,0.273462,-2.63564,18,0.0176066,10,-0.000720745,-2.57911,-0.0656118,-0.899228,92.0629,0.273462,
2,0,0,1,0,34684.4,0.27178,0.271475,-2.8096,18,0.0175796,10,-0.000762737,-2.55136,-0.0764858,-0.771385,84.2996,0.271475,
2,0,0,1,0,34684.4,0.269783,0.269477,-2.9715,18,0.0175507,10,-0.000800751,-2.52702,-0.0922261,-0.639732,73.7831,0.2694774,
2,0,0,1,0,34684.4,0.267785,0.26746,-3.10586,18,0.0175202,10,-0.000830693,-2.50782,-0.106554,-0.55371,67.0669,0.26746,
2,0,0,1,0,34684.4,0.265787,0.265481,-3.23951,18,0.0174885,10,-0.00086003,-2.48952,-0.115376,-0.511369,64.5205,0.265481,
2,0,0,1,0,34684.4,0.263781,0.263467,-3.36347,18,0.0174554,10,-0.000886164,-2.47321,-0.131475,-0.448756,58.7764,0.263467,
2,0,0,1,0,34684.4,0.261783,0.261468,-3.47536,18,0.0174212,10,-0.000908698,-2.459,-0.152034,-0.388072,52.5199,0.261468,
2,0,0,1,0,34684.4,0.259786,0.259456,-3.57417,18,0.0173859,10,-0.000927338,-2.44683,-0.161,-0.366459,51.1539,0.259456,
2,0,0,1,0,34684.4,0.257788,0.257466,-3.68009,18,0.0173496,10,-0.0009475,-2.43414,-0.163849,-0.360087,51.6549,0.257466,
2,0,0,1,0,34684.5,0.255781,0.255487,-3.77916,18,0.0173123,10,-0.000965526,-2.42261,-0.187421,-0.3148,46.3488,0.255487,
2,0,0,1,0,34684.5,0.253784,0.253441,-3.86664,18,0.0172741,10,-0.000979967,-2.41267,-0.224447,-0.262868,39.5859,0.253441,
2,0,0,1,0,34684.5,0.251786,0.251442,-3.93931,18,0.017235,10,-0.000990505,-2.40458,-0.215128,-0.274255,42.2863,0.2514416,
2,0,0,1,0,34684.5,0.249789,0.249434,-4.0361,18,0.0171951,10,-0.00100674,-2.39404,-0.224007,-0.263384,41.3282,0.249434,
2,0,0,1,0,34684.5,0.2478,0.24748,-4.10304,18,0.0171548,10,-0.00101542,-2.38689,-0.24493,-0.240885,38.6564,0.24748,
2,0,0,1,0,34684.5,0.245802,0.245485,-4.18875,18,0.0171134,10,-0.00102828,-2.37792,-0.258283,-0.228431,37.2378,0.245485,
2,0,0,1,0,34684.5,0.243805,0.243483,-4.25186,18,0.0170711,10,-0.00103526,-2.37142,-0.291509,-0.202395,33.6161,0.243483,
2,0,0,1,0,34684.5,0.241807,0.241474,-4.3236,18,0.0170282,10,-0.00104404,-2.36415,-0.284415,-0.207443,34.9839,0.2414736,
2,0,0,1,0,34684.5,0.239819,0.239497,-4.39131,18,0.0169851,10,-0.00105171,-2.35741,-0.290924,-0.202802,34.7618,0.239497,
2,0,0,1,0,34684.5,0.237821,0.237516,-4.46119,18,0.0169409,10,-0.0010596,-2.35055,-0.342411,-0.172308,29.9309,0.237516,
2,0,0,1,0,34684.6,0.235824,0.235495,-4.5111,18,0.016896,10,-0.00106234,-2.34572,-0.362961,-0.162552,28.6615,0.235495,
2,0,0,1,0,34684.6,0.233826,0.233537,-4.57522,18,0.0168505,10,-0.00106848,-2.33959,-0.325105,-0.18148,32.4102,0.233537,
2,0,0,1,0,34684.6,0.231824,0.231468,-4.6416,18,0.0168045,10,-0.00107438,-2.33333,-0.334635,-0.176311,31.9251,0.231468,
2,0,0,1,0,34684.6,0.229822,0.22948,-4.70474,18,0.0167577,10,-0.00107964,-2.32746,-0.406345,-0.145197,26.5988,0.22948,
2,0,0,1,0,34684.6,0.227824,0.227515,-4.74676,18,0.0167104,10,-0.00107996,-2.3236,-0.407365,-0.144833,26.8937,0.2275148,
2,0,0,1,0,34684.6,0.225827,0.225509,-4.81154,18,0.0166626,10,-0.00108504,-2.31772,-0.399117,-0.147826,27.7046,0.225509,
2,0,0,1,0,34684.6,0.223829,0.2235,-4.85798,18,0.0166142,10,-0.00108576,-2.31354,-0.408518,-0.144424,27.4279,0.2235,
2,0,0,1,0,34684.6,0.221822,0.221509,-4.92124,18,0.0165653,10,-0.0010901,-2.30793,-0.40977,-0.143983,27.6075,0.221509,
2,0,0,1,0,34684.6,0.219825,0.219496,-4.96852,18,0.0165158,10,-0.00109057,-2.30377,-0.414907,-0.1422,27.6186,0.219496,
2,0,0,1,0,34684.6,0.217827,0.217482,-5.03247,18,0.0164658,10,-0.00109447,-2.29822,-0.450751,-0.130893,25.6404,0.217482,
2,0,0,1,0,34684.7,0.21583,0.21552,-5.07047,18,0.0164152,10,-0.00109279,-2.29495,-0.424128,-0.139109,27.6164,0.21552,
2,0,0,1,0,34684.7,0.213841,0.213531,-5.14159,18,0.0163646,10,-0.00109789,-2.2889,-0.434845,-0.135681,27.1374,0.213531,
2,0,0,1,0,34684.7,0.211843,0.211494,-5.17974,18,0.016313,10,-0.00109548,-2.28569,-0.528111,-0.111719,22.6161,0.211494,
2,0,0,1,0,34684.7,0.209846,0.209492,-5.23293,18,0.0162609,10,-0.00109626,-2.28126,-0.489446,-0.120545,24.5957,0.209492,
2,0,0,1,0,34684.7,0.207848,0.207544,-5.27688,18,0.0162084,10,-0.00109519,-2.27762,-0.406449,-0.14516,29.9821,0.2075443,
2,0,0,1,0,34684.7,0.20586,0.20551,-5.35232,18,0.0161557,10,-0.00109995,-2.27146,-0.435458,-0.13549,28.2005,0.20551,
2,0,0,1,0,34684.7,0.203862,0.203537,-5.38989,18,0.016102,10,-0.00109704,-2.26842,-0.554067,-0.106485,22.4263,0.203537,
2,0,0,1,0,34684.7,0.201865,0.201568,-5.44072,18,0.0160479,10,-0.00109668,-2.26434,-0.499374,-0.118148,25.0808,0.201568,
2,0,0,1,0,34684.7,0.199867,0.199576,-5.48923,18,0.0159932,10,-0.00109552,-2.26049,-0.466126,-0.126575,27.1476,0.199576,
2,0,0,1,0,34684.7,0.19786,0.197509,-5.55092,18,0.015938,10,-0.00109636,-2.25563,-0.543413,-0.108573,23.4616,0.197509,
2,0,0,1,0,34684.8,0.195863,0.195495,-5.58498,18,0.0158823,10,-0.00109184,-2.25298,-0.516842,-0.114155,24.9477,0.195495,
2,0,0,1,0,34684.8,0.193865,0.193578,-5.64898,18,0.0158261,10,-0.00109352,-2.24803,-0.462625,-0.127533,28.0732,0.193578,
2,0,0,1,0,34684.8,0.191868,0.191538,-5.69607,18,0.0157694,10,-0.00109101,-2.24442,-0.48389,-0.121928,27.1396,0.1915378,
2,0,0,1,0,34684.8,0.189861,0.189554,-5.75818,18,0.0157121,10,-0.00109149,-2.23971,-0.48368,-0.121982,27.3774,0.189554,
2,0,0,1,0,34684.8,0.187863,0.187521,-5.80605,18,0.0156542,10,-0.00108875,-2.23612,-0.502023,-0.117525,26.6553,0.187521,
2,0,0,1,0,34684.8,0.185866,0.185539,-5.86521,18,0.0155958,10,-0.00108823,-2.23172,-0.516673,-0.114192,26.1076,0.185539,
2,0,0,1,0,34684.8,0.183868,0.183512,-5.91072,18,0.0155369,10,-0.00108468,-2.22836,-0.43352,-0.136095,31.4858,0.183512,
2,0,0,1,0,34684.8,0.18188,0.181537,-5.99122,18,0.015478,10,-0.00108763,-2.22248,-0.41594,-0.141847,33.0805,0.181537,
2,0,0,1,0,34684.8,0.179882,0.17957,-6.0411,18,0.0154178,10,-0.0010848,-2.21888,-0.505889,-0.116626,27.5205,0.17957,
2,0,0,1,0,34684.8,0.177885,0.177515,-6.10191,18,0.0153571,10,-0.00108318,-2.21453,-0.451451,-0.13069,31.1283,0.177515,
2,0,0,1,0,34684.9,0.175887,0.175572,-6.16555,18,0.0152957,10,-0.0010825,-2.21003,-0.401046,-0.147115,35.4344,0.175572,
2,0,0,1,0,34684.9,0.173908,0.173562,-6.24199,18,0.0152343,10,-0.00108337,-2.20468,-0.417718,-0.141244,34.3613,0.173562,
2,0,0,1,0,34684.9,0.171901,0.171598,-6.30209,18,0.0151716,10,-0.00108143,-2.20052,-0.412098,-0.14317,35.2721,0.171598,
2,0,0,1,0,34684.9,0.169903,0.169537,-6.38395,18,0.0151081,10,-0.00108232,-2.19491,-0.370732,-0.159145,39.6283,0.169537,
2,0,0,1,0,34684.9,0.167906,0.167628,-6.45942,18,0.0150439,10,-0.00108278,-2.18981,-0.354381,-0.166487,42.0146,0.167628,
2,0,0,1,0,34684.9,0.165908,0.165601,-6.54934,18,0.0149789,10,-0.00108457,-2.1838,-0.367511,-0.16054,40.9932,0.165601,
2,0,0,1,0,34684.9,0.163901,0.163541,-6.62698,18,0.014913,10,-0.00108378,-2.17868,-0.336378,-0.175398,45.4562,0.163541,
2,0,0,1,0,34684.9,0.161904,0.161568,-6.73264,18,0.0148461,10,-0.00108778,-2.17181,-0.30388,-0.194155,50.9775,0.161568,
2,0,0,1,0,34684.9,0.159906,0.15957,-6.82941,18,0.0147783,10,-0.00108977,-2.16562,-0.310877,-0.189786,50.6142,0.15957,
2,0,0,1,0,34684.9,0.157909,0.157561,-6.93544,18,0.0147095,10,-0.00109276,-2.15893,-0.279945,-0.210756,57.1086,0.157561,
2,0,0,1,0,34685,0.155902,0.155563,-7.05822,18,0.0146395,10,-0.001098,-2.1513,-0.250021,-0.235981,65.0689,0.1555634,
2,0,0,1,0,34685,0.153904,0.153544,-7.19687,18,0.0145682,10,-0.00110503,-2.14286,-0.246499,-0.239352,67.1868,0.153544,
2,0,0,1,0,34685,0.151907,0.151539,-7.32858,18,0.0144956,10,-0.00111057,-2.13498,-0.227417,-0.259436,74.3518,0.151539,
2,0,0,1,0,34685,0.149909,0.149575,-7.49194,18,0.0144215,10,-0.00112061,-2.12541,-0.202139,-0.291878,85.3757,0.149575,
2,0,0,1,0,34685,0.147921,0.147613,-7.66384,18,0.0143464,10,-0.00113128,-2.11555,-0.193708,-0.304582,91.2013,0.147613,
2,0,0,1,0,34685,0.145923,0.145585,-7.85582,18,0.0142688,10,-0.00114369,-2.10481,-0.183886,-0.32085,98.4368,0.1455853,
2,0,0,1,0,34685,0.143926,0.143568,-8.06201,18,0.0141892,10,-0.00115744,-2.09356,-0.163679,-0.360462,113.692,0.143568,
2,0,0,1,0,34685,0.141928,0.141573,-8.31198,18,0.0141073,10,-0.00117675,-2.0803,-0.146996,-0.401372,130.274,0.141573,
2,0,0,1,0,34685,0.139939,0.139618,-8.57659,18,0.0140237,10,-0.00119744,-2.06669,-0.141364,-0.417364,139.843,0.139618,
2,0,0,1,0,34685,0.137942,0.13762,-8.86484,18,0.0139365,10,-0.00121998,-2.05233,-0.137494,-0.42911,148.553,0.13762,
2,0,0,1,0,34685.1,0.135944,0.135615,-9.17113,18,0.0138463,10,-0.00124375,-2.03758,-0.130796,-0.451085,161.707,0.135615,
2,0,0,1,0,34685.1,0.133947,0.133605,-9.514,18,0.0137529,10,-0.00127112,-2.02164,-0.12488,-0.472454,175.501,0.133605,
2,0,0,1,0,34685.1,0.13194,0.131611,-9.87399,18,0.0136559,10,-0.00129952,-2.00551,-0.121681,-0.484874,186.99,0.131611,
2,0,0,1,0,34685.1,0.129942,0.129624,-10.2585,18,0.0135552,10,-0.00132974,-1.98892,-0.124582,-0.473583,189.538,0.129624,
2,0,0,1,0,34685.1,0.127945,0.127539,-10.6457,18,0.0134506,10,-0.00135774,-1.97282,-0.125133,-0.471497,195.9,0.127539,
2,0,0,1,0,34685.1,0.125947,0.125617,-11.0434,18,0.0133421,10,-0.00138724,-1.9569,-0.121572,-0.485309,209.265,0.125617,
2,0,0,1,0,34685.1,0.123941,0.123639,-11.4618,18,0.0132296,10,-0.00141713,-1.94075,-0.125483,-0.470184,210.186,0.123639,
2,0,0,1,0,34685.1,0.121943,0.121658,-11.8755,18,0.0131128,10,-0.00144475,-1.92535,-0.138095,-0.427243,197.653,0.121658,
2,0,0,1,0,34685.1,0.119945,0.119626,-12.2549,18,0.012992,10,-0.00146601,-1.91169,-0.144924,-0.407109,194.808,0.119626,
2,0,0,1,0,34685.1,0.117948,0.117656,-12.6552,18,0.0128675,10,-0.00148895,-1.89773,-0.146652,-0.402312,198.618,0.117656,
2,0,0,1,0,34685.2,0.115946,0.115606,-13.0535,18,0.0127389,10,-0.00150906,-1.88427,-0.151158,-0.390319,198.749,0.115606,
2,0,0,1,0,34685.2,0.113962,0.113669,-13.4476,18,0.0126076,10,-0.00152857,-1.87136,-0.163069,-0.36181,189.547,0.113669,
2,0,0,1,0,34685.2,0.111964,0.111662,-13.801,18,0.0124713,10,-0.00154105,-1.86009,-0.177553,-0.332295,178.986,0.111662,
2,0,0,1,0,34685.2,0.109967,0.109678,-14.1619,18,0.0123314,10,-0.00155325,-1.84888,-0.185854,-0.317454,175.277,0.109678,
2,0,0,1,0,34685.2,0.107969,0.107675,-14.4999,18,0.012188,10,-0.00156127,-1.83863,-0.201158,-0.293302,165.862,0.107675,
2,0,0,1,0,34685.2,0.10598,0.105691,-14.8232,18,0.0120428,10,-0.00156668,-1.82906,-0.217732,-0.270975,156.633,0.105691,
2,0,0,1,0,34685.2,0.103983,0.103672,-15.1269,18,0.011893,10,-0.00156823,-1.82025,-0.235137,-0.250918,148.05,0.103672,
2,0,0,1,0,34685.2,0.101985,0.101674,-15.4179,18,0.0117402,10,-0.0015676,-1.81197,-0.257409,-0.229207,137.741,0.101674,
2,0,0,1,0,34685.2,0.0999877,0.0997078,-15.6729,18,0.0115847,10,-0.00156271,-1.80485,-0.278419,-0.211911,129.626,0.0997078,
2,0,0,1,0,34685.2,0.0979811,0.0977028,-15.9327,18,0.0114266,10,-0.00155667,-1.79771,-0.306636,-0.192411,119.496,0.0977028,
2,0,0,1,0,34685.3,0.0959835,0.0956648,-16.156,18,0.0112661,10,-0.00154556,-1.79167,-0.34553,-0.170752,107.595,0.0956648,
2,0,0,1,0,34685.3,0.0939859,0.0937214,-16.3611,18,0.0111035,10,-0.00153338,-1.78619,-0.394691,-0.149484,95.3601,0.0937214,
2,0,0,1,0,34685.3,0.0919883,0.0916669,-16.5373,18,0.0109389,10,-0.00151592,-1.78154,-0.425203,-0.138757,89.578,0.0916669,
2,0,0,1,0,34685.3,0.0899816,0.0896723,-16.7238,18,0.0107725,10,-0.00149966,-1.77667,-0.505326,-0.116756,76.0447,0.0896723,
2,0,0,1,0,34685.3,0.0879841,0.0876698,-16.8412,18,0.0106046,10,-0.00147647,-1.77363,-0.663966,-0.08886,58.4032,0.08766982,
2,0,0,1,0,34685.3,0.0859865,0.08565,-16.9587,18,0.0104356,10,-0.00145251,-1.77061,-0.822621,-0.0717219,47.4047,0.08565,
2,0,0,1,0,34685.3,0.0839889,0.0836719,-17.0307,18,0.0102656,10,-0.00142499,-1.76877,-1.15449,-0.0511046,33.9566,0.0836719,
2,0,0,1,0,34685.3,0.0820004,0.0817096,-17.0925,18,0.0100967,10,-0.00139662,-1.76719,-1.92522,-0.0306458,20.4177,0.0817096,
2,0,0,1,0,34685.3,0.0800028,0.0796776,-17.1123,18,0.00992564,10,-0.00136347,-1.76669,-4.51794,-0.013059,8.72014,0.0796776,
2,0,0,1,0,34685.3,0.0780052,0.0777084,-17.1274,18,0.00975443,10,-0.00133094,-1.76631,23.8314,0.00247573,-1.65306,0.0777084,
2,0,0,1,0,34685.4,0.0760076,0.0756382,-17.1056,18,0.00958327,10,-0.00129384,-1.76686,3.35603,0.0175803,-11.735,0.07563822,
2,0,0,1,0,34685.4,0.0740191,0.0736901,-17.0802,18,0.00941409,10,-0.00125864,-1.76751,1.88455,0.0313071,-20.85,0.0736901,
2,0,0,1,0,34685.4,0.0720215,0.0717163,-17.0238,18,0.00924355,10,-0.00122089,-1.76894,1.41637,0.0416557,-27.677,0.0717163,
2,0,0,1,0,34685.4,0.0700239,0.0696852,-16.9694,18,0.00907357,10,-0.00118252,-1.77033,1.14169,0.051678,-34.1938,0.0696852,
2,0,0,1,0,34685.4,0.0680263,0.0676515,-16.8849,18,0.00890429,10,-0.00114229,-1.7725,1.18698,0.0497061,-32.7917,0.06765154,
2,0,0,1,0,34685.4,0.0660197,0.0657055,-16.8389,18,0.00873576,10,-0.00110641,-1.77369,1.07164,0.0550556,-36.1263,0.0657055,
2,0,0,1,0,34685.4,0.0640221,0.0637083,-16.7424,18,0.00856785,10,-0.00106663,-1.77618,0.867946,0.0679766,-44.4369,0.0637083,
2,0,0,1,0,34685.4,0.0620245,0.0617232,-16.6619,18,0.00840083,10,-0.00102843,-1.77827,0.906253,0.0651032,-42.3233,0.0617232,
2,0,0,1,0,34685.4,0.0600269,0.0597095,-16.5732,18,0.00823464,10,-0.000989575,-1.78059,1.0935,0.0539552,-34.9363,0.0597095,
2,0,0,1,0,34685.4,0.0580248,0.0576845,-16.5208,18,0.00806917,10,-0.000952996,-1.78197,1.0586,0.055734,-35.8907,0.0576845,
2,0,0,1,0,34685.5,0.0560227,0.0556691,-16.4281,18,0.00790441,10,-0.000914539,-1.78441,0.986301,0.0598194,-38.3914,0.0556691,
2,0,0,1,0,34685.5,0.0540251,0.0537291,-16.369,18,0.00774044,10,-0.00087949,-1.78598,1.04131,0.0566596,-36.1667,0.0537291,
2,0,0,1,0,34685.5,0.0520275,0.0516746,-16.2837,18,0.00757719,10,-0.000841452,-1.78825,0.924973,0.0637856,-40.545,0.0516746,
2,0,0,1,0,34685.5,0.0500299,0.0497103,-16.206,18,0.0074147,10,-0.000805607,-1.79032,1.06708,0.0552913,-34.9874,0.0497103,
2,0,0,1,0,34685.5,0.0480414,0.0476984,-16.1446,18,0.00725452,10,-0.000770069,-1.79197,1.16717,0.0505496,-31.8455,0.0476984,
2,0,0,1,0,34685.5,0.0460438,0.0457165,-16.0788,18,0.00709342,10,-0.000735068,-1.79375,1.00052,0.0589693,-36.9849,0.0457165,
2,0,0,1,0,34685.5,0.0440462,0.0437115,-15.9971,18,0.00693304,10,-0.000699257,-1.79596,1.02649,0.0574774,-35.9064,0.0437115,
2,0,0,1,0,34685.5,0.0420486,0.0417216,-15.9354,18,0.00677343,10,-0.000664852,-1.79764,1.07751,0.0547561,-34.04,0.0417216,
2,0,0,1,0,34685.5,0.0400601,0.0397259,-15.8614,18,0.00661607,10,-0.00063011,-1.79966,1.02985,0.0572901,-35.4705,0.0397259,
2,0,0,1,0,34685.5,0.0380625,0.0377261,-15.7937,18,0.00645783,10,-0.000595834,-1.80152,0.892604,0.0660988,-40.7058,0.0377261,
2,0,0,1,0,34685.6,0.036065,0.0357185,-15.6983,18,0.00630039,10,-0.00056072,-1.80415,0.888382,0.0664128,-40.7236,0.0357185,
2,0,0,1,0,34685.6,0.0340674,0.0337204,-15.6306,18,0.00614376,10,-0.000527068,-1.80603,0.972356,0.0606774,-36.9969,0.0337204,
2,0,0,1,0,34685.6,0.0320607,0.0316746,-15.5487,18,0.00598786,10,-0.000492498,-1.80831,0.840436,0.0702017,-42.5917,0.0316746,
2,0,0,1,0,34685.6,0.0300631,0.0297485,-15.4614,18,0.00583281,10,-0.000459953,-1.81075,0.74496,0.0791989,-47.7682,0.0297485,
2,0,0,1,0,34685.6,0.0280655,0.02774,-15.3607,18,0.00567868,10,-0.000426107,-1.81359,0.804422,0.0733446,-44.0026,0.02774,
2,0,0,1,0,34685.6,0.0260679,0.0257193,-15.2841,18,0.00552542,10,-0.000393096,-1.81576,0.770908,0.0765331,-45.6082,0.02571932,
2,0,0,1,0,34685.6,0.0240613,0.0237551,-15.179,18,0.00537307,10,-0.000360578,-1.81876,0.714365,0.0825909,-48.9488,0.0237551,
2,0,0,1,0,34685.6,0.0220637,0.021724,-15.0885,18,0.00522173,10,-0.000327783,-1.82135,0.664886,0.088737,-52.2007,0.021724,
2,0,0,1,0,34685.6,0.0200661,0.0197138,-14.968,18,0.00507143,10,-0.000295076,-1.82483,0.597817,0.0986925,-57.6736,0.0197138,
2,0,0,1,0,34685.6,0.0180685,0.0177521,-14.8595,18,0.00492226,10,-0.000263787,-1.828,0.608797,0.0969125,-56.188,0.0177521,
2,0,0,1,0,34685.7,0.01608,0.0157335,-14.7444,18,0.00477573,10,-0.000231981,-1.83137,0.610313,0.0966717,-55.6377,0.0157335,
2,0,0,1,0,34685.7,0.0140824,0.0137229,-14.6353,18,0.00462885,10,-0.000200839,-1.8346,0.537265,0.109815,-62.657,0.0137229,
2,0,0,1,0,34685.7,0.0120848,0.0117689,-14.496,18,0.00448322,10,-0.000170602,-1.83875,0.502083,0.11751,-66.5081,0.0117689,
2,0,0,1,0,34685.7,0.0100872,0.00973369,-14.37,18,0.00433897,10,-0.000139873,-1.84254,0.496648,0.118796,-66.5897,0.00973369,
2,0,0,1,0,34685.7,0.00810328,0.00778158,-14.2305,18,0.00419743,10,-0.000110736,-1.84678,0.498088,0.118453,-65.824,0.00778158,
2,0,0,1,0,34685.7,0.00610116,0.00576179,-14.1085,18,0.00405574,10,-8.12904e-05,-1.85052,0.474383,0.124372,-68.4077,0.00576179,
2,0,0,1,0,34685.7,0.00410357,0.00378886,-13.9573,18,0.00391539,10,-5.28824e-05,-1.8552,0.571927,0.10316,-56.3417,0.00378886,
2,0,0,1,0,34685.7,0.00210598,0.00172223,-13.8809,18,0.0037764,10,-2.39061e-05,-1.85758,0.556563,0.106008,-57.2626,0.00172223,
2,0,0,1,0,34685.7,0.00010174,-0.000260253,-13.7255,18,0.00363838,10,3.5721e-06,-1.86247,0.455354,0.12957,-69.4858,-0.000260253,
2,0,0,1,0,34685.7,-0.00189827,-0.00228177,-13.6027,18,0.00350171,10,3.10383e-05,-1.86637,0.496667,0.118792,-63.0438,-0.00228177,
2,0,0,1,0,34685.8,-0.00389586,-0.00427466,-13.4724,18,0.00336633,10,5.759e-05,-1.87056,0.519235,0.113629,-59.7883,-0.00427466,
2,0,0,1,0,34685.8,-0.00589345,-0.00629619,-13.3627,18,0.00323219,10,8.4134e-05,-1.87411,0.51344,0.114911,-59.8836,-0.00629619,
2,0,0,1,0,34685.8,-0.00789103,-0.00824743,-13.2345,18,0.0030992,10,0.000109151,-1.87829,0.559801,0.105395,-54.5182,-0.00824743,
2,0,0,1,0,34685.8,-0.0098977,-0.0102585,-13.1467,18,0.00296726,10,0.000134866,-1.88118,0.651154,0.0906084,-46.4709,-0.0102585,
2,0,0,1,0,34685.8,-0.0118953,-0.0122349,-13.0492,18,0.00283625,10,0.000159656,-1.88442,0.641216,0.0920126,-46.8714,-0.0122349,
2,0,0,1,0,34685.8,-0.0138929,-0.0142625,-12.959,18,0.00270623,10,0.000184828,-1.88743,0.672777,0.0876962,-44.3559,-0.0142625,
2,0,0,1,0,34685.8,-0.0158905,-0.016245,-12.8713,18,0.00257705,10,0.000209095,-1.89038,0.83452,0.0706993,-35.5613,-0.016245,
2,0,0,1,0,34685.8,-0.017879,-0.0182253,-12.8181,18,0.00244988,10,0.000233613,-1.89218,0.934834,0.0631128,-31.5467,-0.0182253,
2,0,0,1,0,34685.8,-0.0198766,-0.0202692,-12.7444,18,0.00232207,10,0.000258318,-1.89468,0.926706,0.0636664,-31.6908,-0.0202692,
2,0,0,1,0,34685.8,-0.0218741,-0.0222376,-12.6909,18,0.00219497,10,0.000282215,-1.89651,1.0683,0.0552281,-27.3514,-0.0222376,
2,0,0,1,0,34685.9,-0.0238717,-0.0242505,-12.6355,18,0.00206837,10,0.000306417,-1.89841,1.48224,0.0398046,-19.6536,-0.0242505,
2,0,0,1,0,34685.9,-0.0258602,-0.0262372,-12.6123,18,0.00194341,10,0.000330912,-1.89921,1.55063,0.0380489,-18.7076,-0.0262372,
2,0,0,1,0,34685.9,-0.0278578,-0.0282249,-12.5611,18,0.00181759,10,0.000354537,-1.90097,1.52115,0.0387865,-19.0335,-0.0282249,
2,0,0,1,0,34685.9,-0.0298554,-0.0302586,-12.5358,18,0.00169213,10,0.000379315,-1.90185,2.1382,0.0275933,-13.4977,-0.0302586,
2,0,0,1,0,34685.9,-0.031853,-0.0322324,-12.507,18,0.00156689,10,0.000403132,-1.90285,3.31829,0.0177802,-8.68661,-0.0322324,
2,0,0,1,0,34685.9,-0.0338597,-0.0342539,-12.5011,18,0.00144184,10,0.00042821,-1.90305,6.42982,0.00917599,-4.47569,-0.0342539,
2,0,0,1,0,34685.9,-0.0358573,-0.0362373,-12.4891,18,0.00131687,10,0.000452571,-1.90347,13.9768,0.00422129,-2.05879,-0.0362373,
2,0,0,1,0,34685.9,-0.0378549,-0.0382562,-12.4928,18,0.00119194,10,0.000477928,-1.90334,10.922,0.00540195,-2.63186,-0.0382562,
2,0,0,1,0,34685.9,-0.0398524,-0.0402196,-12.4786,18,0.00106703,10,0.000501885,-1.90383,-7.56616,-0.00779788,3.80422,-0.0402196,
2,0,0,1,0,34685.9,-0.0418591,-0.042261,-12.5081,18,0.000942117,10,0.000528604,-1.90281,-3.67177,-0.0160686,7.83535,-0.042261,
2,0,0,1,0,34686,-0.0438567,-0.0442635,-12.5103,18,0.000817007,10,0.00055375,-1.90273,-5.36722,-0.0109927,5.37062,-0.0442635,
2,0,0,1,0,34686,-0.0458543,-0.0462121,-12.5293,18,0.000691786,10,0.000579005,-1.90207,-3.04135,-0.0193993,9.48548,-0.0462121,
2,0,0,1,0,34686,-0.0478519,-0.0481694,-12.5474,18,0.000566383,10,0.000604399,-1.90145,-1.84133,-0.032042,15.7073,-0.0481694,
2,0,0,1,0,34686,-0.0498585,-0.0502274,-12.5923,18,0.000440684,10,0.000632481,-1.89989,-1.69728,-0.0347615,17.0688,-0.0502274,
2,0,0,1,0,34686,-0.051838,-0.0521991,-12.6161,18,0.00031589,10,0.000658552,-1.89907,-2.0668,-0.0285465,14.0599,-0.05219911,
2,0,0,1,0,34686,-0.0538355,-0.0541818,-12.6479,18,0.000189619,10,0.000685289,-1.89798,-1.81106,-0.0325777,16.0813,-0.0541818,
2,0,0,1,0,34686,-0.0558331,-0.056221,-12.6808,18,6.29557e-05,10,0.000712928,-1.89685,-1.37494,-0.0429109,21.253,-0.05622096,
2,0,0,1,0,34686,-0.0578126,-0.0582163,-12.7337,18,-6.28426e-05,10,0.000741309,-1.89505,-1.36073,-0.0433592,21.5307,-0.0582163,
2,0,0,1,0,34686,-0.0598192,-0.0602066,-12.7666,18,-0.000190389,10,0.000768636,-1.89392,-1.19103,-0.0495369,24.7132,-0.0602066,
2,0,0,1,0,34686,-0.0618168,-0.0622194,-12.8326,18,-0.000318385,10,0.000798439,-1.89168,-1.09006,-0.0541256,27.0816,-0.0622194,
2,0,0,1,0,34686.1,-0.0638144,-0.0641976,-12.8747,18,-0.000446946,10,0.000826526,-1.89026,-1.12188,-0.0525903,26.4461,-0.0641976,
2,0,0,1,0,34686.1,-0.065812,-0.0662052,-12.938,18,-0.000576031,10,0.000856565,-1.88813,-0.960624,-0.0614184,31.0087,-0.0662052,
2,0,0,1,0,34686.1,-0.0678187,-0.0681964,-12.9987,18,-0.000705775,10,0.000886465,-1.8861,-0.902013,-0.0654093,33.1947,-0.0681964,
2,0,0,1,0,34686.1,-0.0698163,-0.0701667,-13.0695,18,-0.000836134,10,0.000917046,-1.88374,-0.955313,-0.0617599,31.4793,-0.0701667,
2,0,0,1,0,34686.1,-0.0718138,-0.0721188,-13.1222,18,-0.000967149,10,0.000946357,-1.88199,-0.865167,-0.068195,34.9714,-0.0721188,
2,0,0,1,0,34686.1,-0.0738114,-0.0742072,-13.2108,18,-0.00109882,10,0.000980338,-1.87907,-0.747068,-0.0789754,40.6995,-0.0742072,
2,0,0,1,0,34686.1,-0.0758181,-0.0761888,-13.2878,18,-0.00123136,10,0.00101238,-1.87655,-0.783203,-0.0753317,39.0692,-0.0761888,
2,0,0,1,0,34686.1,-0.0778157,-0.078219,-13.3676,18,-0.00136465,10,0.0010456,-1.87395,-0.778553,-0.0757816,39.5337,-0.078219,
2,0,0,1,0,34686.1,-0.0798133,-0.0802101,-13.4468,18,-0.00149873,10,0.00107857,-1.87138,-0.701606,-0.0840928,44.1582,-0.0802101,
2,0,0,1,0,34686.1,-0.0818109,-0.0821943,-13.5431,18,-0.00163368,10,0.00111317,-1.86828,-0.650703,-0.0906712,47.9182,-0.0821943,
2,0,0,1,0,34686.2,-0.0837994,-0.084172,-13.6367,18,-0.00176823,10,0.00114782,-1.86529,-0.661631,-0.0891736,47.4624,-0.084172,
2,0,0,1,0,34686.2,-0.085797,-0.0862016,-13.7333,18,-0.00190504,10,0.00118383,-1.86222,-0.665415,-0.0886664,47.5192,-0.0862016,
2,0,0,1,0,34686.2,-0.0877945,-0.0882105,-13.8286,18,-0.00204284,10,0.00121983,-1.85922,-0.589783,-0.100037,54.0311,-0.0882105,
2,0,0,1,0,34686.2,-0.0897921,-0.0901431,-13.9463,18,-0.0021817,10,0.00125716,-1.85554,-0.583567,-0.101102,54.9895,-0.0901431,
2,0,0,1,0,34686.2,-0.0917806,-0.0921475,-14.0451,18,-0.00232021,10,0.00129422,-1.85248,-0.6105,-0.096642,53.0018,-0.0921475,
2,0,0,1,0,34686.2,-0.0937782,-0.0941708,-14.1597,18,-0.00246123,10,0.00133343,-1.84894,-0.573506,-0.102876,56.8404,-0.0941708,
2,0,0,1,0,34686.2,-0.0957758,-0.0961064,-14.2701,18,-0.00260341,10,0.00137145,-1.84557,-0.583634,-0.101091,56.3034,-0.0961064,
2,0,0,1,0,34686.2,-0.0977734,-0.0981392,-14.3832,18,-0.00274668,10,0.00141155,-1.84215,-0.563856,-0.104637,58.7588,-0.0981392,
2,0,0,1,0,34686.2,-0.0997412,-0.100159,-14.5082,18,-0.00288828,10,0.00145314,-1.83839,0.105851,0.557385,-306.33,-0.100159,
2,0,0,1,1,34686.2,-0.0996711,-0.10009,-13.7855,18,-0.0029309,10,0.00137979,-1.86058,-0.0163735,-3.60339,1768.02,-0.10009,
2,0,0,1,1,34686.2,-0.0976826,-0.0980715,-10.8167,18,-0.00305102,10,0.00106081,-1.9659,-0.0199493,-2.95749,1274.34,-0.0980715,
2,0,0,1,1,34686.3,-0.095685,-0.0960896,-8.68704,18,-0.00314786,10,0.000834735,-2.06113,-0.0209495,-2.8163,961.486,-0.0960896,
2,0,0,1,1,34686.3,-0.0936874,-0.0940616,-6.96122,18,-0.00322565,10,0.000654784,-2.15731,-0.0200794,-2.93834,796.809,-0.0940616,
2,0,0,1,1,34686.3,-0.0916898,-0.0920383,-5.45894,18,-0.00328735,10,0.000502432,-2.26289,-0.0178749,-3.30073,701.404,-0.0920383,
2,0,0,1,1,34686.3,-0.0897013,-0.0900774,-4.1667,18,-0.0033347,10,0.000375326,-2.38021,-0.0152264,-3.87485,619.892,-0.0900774,
2,0,0,1,1,34686.3,-0.0877037,-0.0880498,-2.98649,18,-0.00337022,10,0.00026296,-2.52484,-0.0120921,-4.87923,555.716,-0.0880498,
2,0,0,1,1,34686.3,-0.0857062,-0.0860855,-1.94837,18,-0.00339469,10,0.000167726,-2.71033,-0.00842696,-7.00133,496.694,-0.08608555,
2,0,0,1,1,34686.3,-0.0837086,-0.0840562,-1.00289,18,-0.00340924,10,8.42993e-05,-2.99875,-0.00352096,-16.7568,450.738,-0.0840562,
2,0,0,1,1,34686.3,-0.0817019,-0.0820772,-0.141661,18,-0.00341477,10,1.16272e-05,-3.84875,-0.0218213,-2.70379,418.226,-0.08207722,
2,1,0,1,1,34686.3,-0.0797043,-0.0800817,0.659349,18,-0.003412,10,-5.28018e-05,-3.18088,0.00402486,14.6589,379.66,-0.0800817,
2,1,0,1,1,34686.3,-0.0777067,-0.0781253,1.35874,18,-0.00340173,10,-0.000106152,-2.86686,0.00819451,7.19994,343.094,-0.0781253,
2,1,0,1,1,34686.4,-0.0757091,-0.076069,2.03607,18,-0.00338459,10,-0.000154882,-2.69121,0.0137946,4.27704,322.59,-0.076069,
2,1,0,1,1,34686.4,-0.0737025,-0.0741256,2.64899,18,-0.00336105,10,-0.000196358,-2.57692,0.0198626,2.9704,299.395,-0.07412561,
2,1,0,1,1,34686.4,-0.0717049,-0.0721171,3.21926,18,-0.0033316,10,-0.000232164,-2.49224,0.0268303,2.19901,271.123,-0.0721171,
2,1,0,1,1,34686.4,-0.0697073,-0.0701346,3.73104,18,-0.00329676,10,-0.000261675,-2.42817,0.0338125,1.74492,252.168,-0.0701346,
2,1,0,1,1,34686.4,-0.0677097,-0.0680975,4.23288,18,-0.00325682,10,-0.000288248,-2.37336,0.0407446,1.44804,236.718,-0.06809748,
2,1,0,1,1,34686.4,-0.0657212,-0.0661154,4.68247,18,-0.00321263,10,-0.000309583,-2.32953,0.0491503,1.2004,218.014,-0.0661154,
2,1,0,1,1,34686.4,-0.0637236,-0.0641136,5.10143,18,-0.00316365,10,-0.000327071,-2.29231,0.0584768,1.00895,199.772,-0.0641136,
2,1,0,1,1,34686.4,-0.061726,-0.0620951,5.4856,18,-0.00311065,10,-0.000340629,-2.26078,0.067314,0.876489,187.133,-0.0620951,
2,1,0,1,1,34686.4,-0.0597284,-0.0600742,5.85732,18,-0.00305386,10,-0.000351874,-2.2323,0.0763073,0.773189,175.927,-0.0600742,
2,1,0,1,1,34686.4,-0.0577399,-0.0580975,6.18889,18,-0.00299425,10,-0.000359559,-2.20839,0.0866426,0.680959,164.12,-0.0580975,
2,1,0,1,1,34686.5,-0.0557423,-0.0561271,6.50512,18,-0.00293075,10,-0.000365114,-2.18674,0.100305,0.588205,148.793,-0.0561271,
2,1,0,1,1,34686.5,-0.0537448,-0.0541004,6.78363,18,-0.00286425,10,-0.000366997,-2.16854,0.1133,0.520742,137.673,-0.0541004,
2,1,0,1,1,34686.5,-0.0517472,-0.0521639,7.05075,18,-0.00279501,10,-0.000367794,-2.15176,0.12464,0.473365,130.063,-0.0521639,
2,1,0,1,1,34686.5,-0.049745,-0.0501033,7.3035,18,-0.00272323,10,-0.00036593,-2.13647,0.138452,0.426141,121.34,-0.05010334,
2,1,0,1,1,34686.5,-0.0477429,-0.0480749,7.54691,18,-0.00264895,10,-0.000362817,-2.12223,0.15762,0.374319,109.864,-0.0480749,
2,1,0,1,1,34686.5,-0.0457453,-0.0461132,7.74187,18,-0.00257247,10,-0.000357002,-2.11115,0.180661,0.326579,98.6561,-0.0461132,
2,1,0,1,1,34686.5,-0.0437477,-0.044116,7.93748,18,-0.00249403,10,-0.00035017,-2.10032,0.198052,0.297901,92.1622,-0.04411599,
2,1,0,1,1,34686.5,-0.0417501,-0.0420606,8.11536,18,-0.00241373,10,-0.000341337,-2.09069,0.206844,0.285238,90.3563,-0.0420606,
2,1,0,1,1,34686.5,-0.0397435,-0.0401163,8.29887,18,-0.00233157,10,-0.00033292,-2.08098,0.234933,0.251135,81.0888,-0.0401163,
2,1,0,1,1,34686.5,-0.0377459,-0.0381347,8.43371,18,-0.00224789,10,-0.000321617,-2.07398,0.26183,0.225337,74.2859,-0.0381347,
2,1,0,1,1,34686.6,-0.0357483,-0.0361002,8.59721,18,-0.00216274,10,-0.000310361,-2.06564,0.28502,0.207003,69.2428,-0.0361002,
2,1,0,1,1,34686.6,-0.0337507,-0.0341463,8.70988,18,-0.0020762,10,-0.00029741,-2.05999,0.329934,0.178824,60.8385,-0.0341463,
2,1,0,1,1,34686.6,-0.0317622,-0.0321288,8.83883,18,-0.00198928,10,-0.000283981,-2.05361,0.356912,0.165307,56.9265,-0.0321288,
2,1,0,1,1,34686.6,-0.0297646,-0.030123,8.93891,18,-0.0019004,10,-0.000269267,-2.04872,0.392217,0.150427,52.5027,-0.030123,
2,1,0,1,1,34686.6,-0.027767,-0.0281371,9.0484,18,-0.00181046,10,-0.000254596,-2.04343,0.450837,0.130868,46.1159,-0.0281371,
2,1,0,1,1,34686.6,-0.0257694,-0.0261894,9.12031,18,-0.00171962,10,-0.000238856,-2.03999,0.488427,0.120796,43.0607,-0.0261894,
2,1,0,1,1,34686.6,-0.0237809,-0.0241446,9.22032,18,-0.00162882,10,-0.000222621,-2.03525,0.528396,0.111659,40.0931,-0.0241446,
2,1,0,1,1,34686.6,-0.0217833,-0.022176,9.28122,18,-0.00153629,10,-0.00020582,-2.03239,0.672713,0.0877046,31.7763,-0.022176,
2,1,0,1,1,34686.6,-0.0197858,-0.0201518,9.3472,18,-0.0014431,10,-0.000188363,-2.02932,0.749841,0.0786833,28.6768,-0.02015185,
2,1,0,1,1,34686.6,-0.0177882,-0.0181616,9.39634,18,-0.00134936,10,-0.000170652,-2.02704,0.6985,0.0844668,31.0165,-0.0181616,
2,1,0,1,1,34686.7,-0.0157815,-0.0161583,9.47106,18,-0.00125499,10,-0.000153036,-2.0236,0.785582,0.0751036,27.702,-0.01615826,
2,1,0,1,1,34686.7,-0.0137839,-0.0141931,9.50628,18,-0.00116013,10,-0.000134924,-2.02199,1.1421,0.0516593,19.1712,-0.0141931,
2,1,0,1,1,34686.7,-0.0117863,-0.0121907,9.54713,18,-0.00106487,10,-0.000116386,-2.02013,1.11421,0.0529524,19.7266,-0.0121907,
2,1,0,1,1,34686.7,-0.00978874,-0.0102039,9.58497,18,-0.000969202,10,-9.78039e-05,-2.01841,1.04502,0.0564583,21.1314,-0.0102039,
2,1,0,1,1,34686.7,-0.00778207,-0.00809039,9.63377,18,-0.00087313,10,-7.7941e-05,-2.0162,1.49152,0.0395569,14.8435,-0.00809039,
2,1,0,1,1,34686.7,-0.00578449,-0.00614783,9.64518,18,-0.000776776,10,-5.92969e-05,-2.01569,1.95785,0.030135,11.3562,-0.00614783,
2,1,0,1,1,34686.7,-0.0037869,-0.00417489,9.67824,18,-0.000680167,10,-4.04056e-05,-2.0142,2.03219,0.0290327,10.9534,-0.00417489,
2,1,0,1,1,34686.7,-0.00178931,-0.00213862,9.68909,18,-0.000583326,10,-2.07213e-05,-2.01372,2.0854,0.0282919,10.709,-0.00213862,
2,1,0,1,1,34686.7,-2.55332e-05,-0.000306236,9.71967,18,-0.000498913,10,-2.97651e-06,-2.01235, , , ,-0.000306236,