File: Figure_codes/Fig_3-5/rawdata_trumpetplot_data/after 10th/20221101_1-115_003_TrumpetPlot_ParaChange_from10_every3_10_CV_C01_23.csv
mode,ox/red,error,control changes,counter inc.,time/s,control/V,Ewe/V,<I>/mA,cycle number,(Q-Qo)/C,I Range,P/W,log(|I|),Tafel slope mV/dec,alpha_eff,dI/d(E-IR),E-IR/V,
2,1,0,0,0,46503.5,-2.44065e-05,-0.000401673,5.13324,24,0.0000000E+000,10,-2.06188e-06,-2.28961, , , ,-0.000401673,
2,1,0,1,0,46503.5,0.00179726,0.00140844,5.8655,24,4.895e-05,10,8.26121e-06,-2.2317, , , ,0.001408441,
2,1,0,1,0,46503.5,0.00379485,0.00345953,6.43559,24,0.000110777,10,2.22642e-05,-2.19141,0.0607059,0.971899,240.517,0.00345953,
2,1,0,1,0,46503.5,0.00579244,0.00546688,6.84162,24,0.000177312,10,3.74023e-05,-2.16484,0.0814223,0.724617,192.745,0.00546688,
2,1,0,1,0,46503.6,0.00779002,0.0074798,7.21048,24,0.000247638,10,5.39329e-05,-2.14204,0.0974317,0.605552,169.502,0.0074798,
2,1,0,1,0,46503.6,0.00977853,0.0094309,7.51353,24,0.000320629,10,7.08594e-05,-2.12416,0.118894,0.496242,145.196,0.0094309,
2,1,0,1,0,46503.6,0.0117761,0.0114802,7.79132,24,0.000397175,10,8.94458e-05,-2.10839,0.140662,0.419444,127.08,0.0114802,
2,1,0,1,0,46503.6,0.0137737,0.0134028,8.01828,24,0.000476246,10,0.000107467,-2.09592,0.163435,0.361001,112.91,0.0134028,
2,1,0,1,0,46503.6,0.0157713,0.0154651,8.24125,24,0.000557577,10,0.000127452,-2.08401,0.182638,0.323044,103.713,0.0154651,
2,1,0,1,0,46503.6,0.017778,0.0174502,8.43805,24,0.000641057,10,0.000147245,-2.07376,0.205425,0.28721,94.4733,0.0174502,
2,1,0,1,0,46503.6,0.0197755,0.0194569,8.61838,24,0.000726333,10,0.000167687,-2.06457,0.237539,0.24838,83.4029,0.0194569,
2,1,0,1,0,46503.6,0.0217731,0.0214559,8.77214,24,0.000813327,10,0.000188214,-2.05689,0.255766,0.23068,78.9979,0.0214559,
2,1,0,1,0,46503.6,0.0237707,0.0234436,8.93331,24,0.000901883,10,0.000209429,-2.04899,0.273145,0.216002,75.2114,0.0234436,
2,1,0,1,0,46503.6,0.0257774,0.0254634,9.07354,24,0.00099194,10,0.000231043,-2.04222,0.299465,0.197018,69.7519,0.0254634,
2,1,0,1,0,46503.7,0.027775,0.0274302,9.21139,24,0.00108337,10,0.000252671,-2.03567,0.317983,0.185544,66.6627,0.02743024,
2,1,0,1,0,46503.7,0.0297726,0.029457,9.33977,24,0.00117617,10,0.000275121,-2.02966,0.343346,0.171838,62.614,0.029457,
2,1,0,1,0,46503.7,0.0317701,0.0314472,9.46291,24,0.0012702,10,0.000297582,-2.02398,0.349545,0.168791,62.3397,0.0314472,
2,1,0,1,0,46503.7,0.0337586,0.0334441,9.58832,24,0.00136454,10,0.000320673,-2.01826,0.354873,0.166257,62.1992,0.0334441,
2,1,0,1,0,46503.7,0.0357562,0.0354252,9.71034,24,0.00146105,10,0.000343991,-2.01277,0.387752,0.152159,57.6218,0.03542522,
2,1,0,1,0,46503.7,0.0377538,0.0374548,9.81943,24,0.00155875,10,0.000367785,-2.00791,0.388852,0.151729,58.1862,0.0374548,
2,1,0,1,0,46503.7,0.0397514,0.0394264,9.94315,24,0.00165756,10,0.000392023,-2.00248,0.361087,0.163396,63.4145,0.0394264,
2,1,0,1,0,46503.7,0.0417399,0.0414169,10.0707,24,0.00175664,10,0.000417097,-1.99694,0.382305,0.154327,60.6157,0.0414169,
2,1,0,1,0,46503.7,0.0437375,0.0434367,10.1862,24,0.00185795,10,0.000442456,-1.99199,0.408282,0.144508,57.435,0.0434367,
2,1,0,1,0,46503.7,0.0457351,0.0453801,10.2983,24,0.00196039,10,0.000467339,-1.98723,0.391958,0.150526,60.5508,0.0453801,
2,1,0,1,0,46503.8,0.0477327,0.0474502,10.4293,24,0.002064,10,0.000494871,-1.98175,0.38125,0.154754,62.9623,0.0474502,
2,1,0,1,0,46503.8,0.0497393,0.0494197,10.5527,24,0.00216885,10,0.000521509,-1.97664,0.403586,0.146189,60.1799,0.0494197,
2,1,0,1,0,46503.8,0.0517369,0.0514126,10.6677,24,0.00227491,10,0.000548455,-1.97193,0.41943,0.140667,58.5672,0.05141259,
2,1,0,1,0,46503.8,0.0537345,0.0533855,10.7849,24,0.00238221,10,0.000575758,-1.96718,0.405963,0.145334,61.2011,0.0533855,
2,1,0,1,0,46503.8,0.0557321,0.0554305,10.9136,24,0.00249073,10,0.000604947,-1.96203,0.410268,0.143808,61.2148,0.0554305,
2,1,0,1,0,46503.8,0.0577297,0.0573921,11.0302,24,0.00260049,10,0.000633045,-1.95742,0.394716,0.149474,64.4126,0.05739212,
2,1,0,1,0,46503.8,0.0597364,0.0594267,11.171,24,0.00271154,10,0.000663856,-1.95191,0.391767,0.1506,65.5995,0.0594267,
2,1,0,1,0,46503.8,0.0617339,0.0614039,11.2934,24,0.00282386,10,0.000693456,-1.94718,0.424779,0.138896,61.2089,0.0614039,
2,1,0,1,0,46503.8,0.0637315,0.0633864,11.4134,24,0.00293737,10,0.000723454,-1.94259,0.417383,0.141357,62.9974,0.0633864,
2,1,0,1,0,46503.8,0.0657291,0.0654192,11.5463,24,0.0030522,10,0.00075535,-1.93756,0.383382,0.153893,69.3794,0.0654192,
2,1,0,1,0,46503.9,0.0677176,0.0673901,11.6912,24,0.00316725,10,0.000787869,-1.93214,0.408883,0.144296,65.7495,0.0673901,
2,1,0,1,0,46503.9,0.0697152,0.0693641,11.8057,24,0.00328477,10,0.00081889,-1.92791,0.425496,0.138662,63.9518,0.0693641,
2,1,0,1,0,46503.9,0.0717128,0.0713611,11.9451,24,0.00340351,10,0.000852416,-1.92281,0.411635,0.143331,66.7888,0.0713611,
2,1,0,1,0,46503.9,0.0737104,0.0733986,12.0751,24,0.00352363,10,0.000886299,-1.91811,0.425895,0.138532,65.286,0.0733986,
2,1,0,1,0,46503.9,0.0756989,0.0753715,12.2069,24,0.00364384,10,0.000920055,-1.91339,0.437831,0.134755,64.1715,0.0753715,
2,1,0,1,0,46503.9,0.0776965,0.0773679,12.3299,24,0.00376655,10,0.000953934,-1.90904,0.446332,0.132189,63.6302,0.0773679,
2,1,0,1,0,46503.9,0.0796941,0.0793807,12.462,24,0.00389052,10,0.000989246,-1.90441,0.452084,0.130507,63.4426,0.0793807,
2,1,0,1,0,46503.9,0.0816917,0.0813632,12.5833,24,0.00401579,10,0.00102382,-1.9002,0.455406,0.129555,63.6437,0.0813632,
2,1,0,1,0,46503.9,0.0836983,0.0833353,12.7137,24,0.00414228,10,0.0010595,-1.89573,0.486232,0.121341,60.1554,0.0833353,
2,1,0,1,0,46503.9,0.0856959,0.0853507,12.8232,24,0.00427,10,0.00109447,-1.892,0.494193,0.119387,59.7887,0.0853507,
2,1,0,1,0,46504,0.0876935,0.0873097,12.9514,24,0.00439887,10,0.00113078,-1.88768,0.48827,0.120835,61.0384,0.0873097,
2,1,0,1,0,46504,0.0896911,0.0893009,13.0643,24,0.00452901,10,0.00116665,-1.88391,0.486777,0.121205,61.8589,0.0893009,
2,1,0,1,0,46504,0.0916978,0.0913936,13.204,24,0.00466037,10,0.00120676,-1.8793,0.499354,0.118153,60.8118,0.0913936,
2,1,0,1,0,46504,0.0936953,0.093383,13.3126,24,0.00479301,10,0.00124317,-1.87574,0.55649,0.106022,55.086,0.093383,
2,1,0,1,0,46504,0.0956929,0.0953707,13.4231,24,0.00492673,10,0.00128017,-1.87215,0.54244,0.108768,56.991,0.09537068,
2,1,0,1,0,46504,0.0976905,0.0973705,13.5398,24,0.00506158,10,0.00131838,-1.86839,0.508206,0.116095,61.3687,0.0973705,
2,1,0,1,0,46504,0.099679,0.0993486,13.6672,24,0.00519618,10,0.00135782,-1.86432,0.563332,0.104734,55.799,0.0993486,
2,1,0,1,0,46504,0.101677,0.101379,13.7635,24,0.00533337,10,0.00139533,-1.86127,0.575197,0.102573,55.1512,0.101379,
2,1,0,1,0,46504,0.103674,0.103343,13.8875,24,0.00547162,10,0.00143518,-1.85738,0.5172,0.114076,61.8203,0.103343,
2,1,0,1,0,46504,0.105672,0.105351,14.009,24,0.00561112,10,0.00147586,-1.85359,0.501874,0.117559,64.3003,0.1053508,
2,1,0,1,0,46504.1,0.107656,0.10732,14.1432,24,0.00575044,10,0.00151785,-1.84945,0.502401,0.117436,64.7925,0.10732,
2,1,0,1,0,46504.1,0.109658,0.109316,14.2659,24,0.00589251,10,0.00155949,-1.8457,0.481078,0.122641,68.346,0.1093157,
2,1,0,1,0,46504.1,0.111655,0.111322,14.4167,24,0.00603592,10,0.00160489,-1.84113,0.451607,0.130645,73.4867,0.111322,
2,1,0,1,0,46504.1,0.113653,0.113332,14.561,24,0.00618084,10,0.00165023,-1.83681,0.442197,0.133425,75.8467,0.113332,
2,1,0,1,0,46504.1,0.115651,0.115269,14.7161,24,0.00632721,10,0.00169631,-1.83221,0.418435,0.141002,81.0211,0.115269,
2,1,0,1,0,46504.1,0.117657,0.117357,14.8871,24,0.00647533,10,0.0017471,-1.82719,0.391586,0.150669,87.5657,0.117357,
2,1,0,1,0,46504.1,0.119655,0.119297,15.0688,24,0.00662513,10,0.00179765,-1.82192,0.399063,0.147846,86.8967,0.119297,
2,1,0,1,0,46504.1,0.121652,0.121354,15.2345,24,0.0067767,10,0.00184876,-1.81717,0.396863,0.148666,88.4642,0.121354,
2,1,0,1,0,46504.1,0.12365,0.123348,15.4272,24,0.00693003,10,0.00190292,-1.81171,0.364353,0.161931,97.4944,0.123348,
2,1,0,1,0,46504.1,0.125657,0.125324,15.6215,24,0.00708538,10,0.00195775,-1.80628,0.371825,0.158677,96.7196,0.125324,
2,1,0,1,0,46504.2,0.127654,0.127319,15.8112,24,0.00724258,10,0.00201306,-1.80104,0.381768,0.154544,95.3596,0.1273185,
2,1,0,1,0,46504.2,0.129652,0.129305,16.0012,24,0.00740167,10,0.00206904,-1.79585,0.377818,0.15616,97.5437,0.129305,
2,1,0,1,0,46504.2,0.131649,0.131316,16.2012,24,0.0075627,10,0.00212748,-1.79045,0.392939,0.150151,94.8784,0.131316,
2,1,0,1,0,46504.2,0.133638,0.133324,16.3825,24,0.00772406,10,0.00218418,-1.78562,0.407546,0.144769,92.5786,0.133324,
2,1,0,1,0,46504.2,0.135636,0.135323,16.5721,24,0.00788884,10,0.0022426,-1.78062,0.421561,0.139956,90.4546,0.135323,
2,1,0,1,0,46504.2,0.137633,0.137276,16.74,24,0.00805544,10,0.00229799,-1.77625,0.443162,0.133134,86.9954,0.137276,
2,1,0,1,0,46504.2,0.139631,0.139274,16.9158,24,0.00822375,10,0.00235592,-1.77171,0.46488,0.126914,83.745,0.139274,
2,1,0,1,0,46504.2,0.141619,0.141295,17.0765,24,0.00839203,10,0.00241282,-1.7676,0.493559,0.11954,79.6589,0.141295,
2,1,0,1,0,46504.2,0.143617,0.143281,17.235,24,0.00856358,10,0.00246944,-1.76359,0.536458,0.109981,73.9311,0.1432807,
2,1,0,1,0,46504.2,0.145614,0.14531,17.3734,24,0.00873668,10,0.00252453,-1.76012,0.601176,0.098141,66.5219,0.14531,
2,1,0,1,0,46504.3,0.147612,0.147292,17.5018,24,0.00891105,10,0.00257787,-1.75692,0.641881,0.0919173,62.7706,0.147292,
2,1,0,1,0,46504.3,0.149619,0.149299,17.6238,24,0.00908673,10,0.00263122,-1.7539,0.700591,0.0842146,57.9008,0.149299,
2,1,0,1,0,46504.3,0.151616,0.151283,17.7329,24,0.00926355,10,0.00268268,-1.75122,0.867203,0.0680348,47.0423,0.151283,
2,1,0,1,0,46504.3,0.153614,0.153276,17.8108,24,0.00944128,10,0.00272996,-1.74932,1.13142,0.0521468,36.2378,0.1532755,
2,1,0,1,0,46504.3,0.155611,0.155333,17.8797,24,0.00961971,10,0.00277731,-1.74764,1.56443,0.0377133,26.2931,0.155333,
2,1,0,1,0,46504.3,0.157618,0.157341,17.9177,24,0.00979871,10,0.00281919,-1.74672,5.02675,0.0117372,8.1975,0.157341,
2,1,0,1,0,46504.3,0.159616,0.159294,17.9121,24,0.00997788,10,0.0028533,-1.74685,-3.95509,-0.0149175,-10.4194,0.159294,
2,1,0,1,0,46504.3,0.161613,0.16129,17.8766,24,0.0101569,10,0.00288331,-1.74772,-1.55344,-0.0379802,-26.4712,0.16129,
2,1,0,1,0,46504.3,0.163611,0.16332,17.8056,24,0.0103353,10,0.002908,-1.74944,-0.807382,-0.0730757,-50.6961,0.1633198,
2,1,0,1,0,46504.3,0.165618,0.165244,17.6761,24,0.0105128,10,0.00292087,-1.75261,-0.567681,-0.103932,-71.6469,0.165244,
2,1,0,1,0,46504.4,0.167597,0.167265,17.5229,24,0.010687,10,0.00293097,-1.75639,-0.447785,-0.13176,-89.9625,0.167265,
2,1,0,1,0,46504.4,0.169595,0.169255,17.3153,24,0.0108612,10,0.0029307,-1.76157,-0.344357,-0.171334,-115.607,0.169255,
2,1,0,1,0,46504.4,0.171592,0.171288,17.0578,24,0.011033,10,0.0029218,-1.76808,-0.280069,-0.210662,-140.036,0.171288,
2,1,0,1,0,46504.4,0.173572,0.173265,16.7537,24,0.0112004,10,0.00290284,-1.77589,-0.242651,-0.243147,-158.836,0.173265,
2,1,0,1,0,46504.4,0.175578,0.175284,16.4231,24,0.0113663,10,0.0028787,-1.78455,-0.215902,-0.273272,-174.899,0.175284,
2,1,0,1,0,46504.4,0.177576,0.177287,16.0502,24,0.0115286,10,0.0028455,-1.79452,-0.193116,-0.305516,-191.189,0.177287,
2,1,0,1,0,46504.4,0.179573,0.179313,15.6527,24,0.0116871,10,0.00280674,-1.80541,-0.174164,-0.338761,-206.751,0.179313,
2,1,0,1,0,46504.4,0.181571,0.181238,15.2335,24,0.0118415,10,0.00276089,-1.8172,-0.166809,-0.353698,-210.28,0.181238,
2,1,0,1,0,46504.4,0.183578,0.183264,14.8219,24,0.0119917,10,0.00271633,-1.8291,-0.163676,-0.360469,-208.323,0.183264,
2,1,0,1,0,46504.4,0.185575,0.185281,14.3911,24,0.0121377,10,0.0026664,-1.84191,-0.156924,-0.375978,-211.175,0.185281,
2,1,0,1,0,46504.5,0.187573,0.187298,13.9701,24,0.0122794,10,0.00261658,-1.8548,-0.153877,-0.383424,-209.071,0.187298,
2,1,0,1,0,46504.5,0.18957,0.189253,13.5607,24,0.012417,10,0.0025664,-1.86772,-0.154183,-0.382662,-202.58,0.189253,
2,1,0,1,0,46504.5,0.191577,0.191259,13.1676,24,0.0125506,10,0.00251843,-1.88049,-0.15843,-0.372405,-191.436,0.191259,
2,1,0,1,0,46504.5,0.193575,0.193277,12.7904,24,0.0126804,10,0.00247209,-1.89312,-0.16217,-0.363817,-181.768,0.193277,
2,1,0,1,0,46504.5,0.195572,0.195247,12.4428,24,0.0128064,10,0.00242942,-1.90508,-0.16317,-0.361586,-175.567,0.1952468,
2,1,0,1,0,46504.5,0.19757,0.197216,12.0988,24,0.0129291,10,0.00238608,-1.91726,-0.173154,-0.340738,-161.164,0.197216,
2,1,0,1,0,46504.5,0.199558,0.199225,11.8017,24,0.0130474,10,0.0023512,-1.92805,-0.18806,-0.31373,-144.518,0.199225,
2,1,0,1,0,46504.5,0.201556,0.201273,11.5126,24,0.0131639,10,0.00231717,-1.93883,-0.187158,-0.315241,-141.679,0.201273,
2,1,0,1,0,46504.5,0.203554,0.203227,11.2347,24,0.0132775,10,0.0022832,-1.94944,-0.192697,-0.306181,-134.373,0.2032266,
2,1,0,1,0,46504.5,0.205551,0.20522,10.9821,24,0.0133886,10,0.00225375,-1.95931,-0.216131,-0.272983,-117.198,0.20522,
2,1,0,1,0,46504.6,0.20754,0.207193,10.7699,24,0.0134961,10,0.00223145,-1.96779,-0.228615,-0.258076,-108.406,0.207193,
2,1,0,1,0,46504.6,0.209537,0.209232,10.5473,24,0.0136027,10,0.00220682,-1.97686,-0.233132,-0.253076,-104.254,0.209232,
2,1,0,1,0,46504.6,0.211535,0.211279,10.3439,24,0.013707,10,0.00218545,-1.98532,-0.238015,-0.247884,-100.097,0.211279,
2,1,0,1,0,46504.6,0.213532,0.21321,10.1491,24,0.0138095,10,0.00216388,-1.99357,-0.261394,-0.225712,-89.5527,0.21321,
2,1,0,1,0,46504.6,0.215539,0.215224,9.9906,24,0.0139101,10,0.00215022,-2.00041,-0.272656,-0.21639,-84.2911,0.215224,
2,1,0,1,0,46504.6,0.217537,0.217172,9.81508,24,0.0140092,10,0.00213156,-2.00811,-0.286838,-0.205691,-78.9172,0.217172,
2,1,0,1,0,46504.6,0.219534,0.21925,9.6729,24,0.0141066,10,0.00212078,-2.01444,-0.319963,-0.184396,-69.6105,0.21925,
2,1,0,1,0,46504.6,0.221532,0.221236,9.5322,24,0.0142026,10,0.00210886,-2.02081,-0.319472,-0.18468,-68.7249,0.221236,
2,1,0,1,0,46504.6,0.223534,0.223238,9.39886,24,0.0142972,10,0.00209818,-2.02692,-0.340141,-0.173457,-63.6749,0.2232375,
2,1,0,1,0,46504.6,0.225536,0.225177,9.28122,24,0.0143906,10,0.00208992,-2.03239,-0.369882,-0.15951,-57.7889,0.225177,
2,1,0,1,0,46504.7,0.227534,0.227228,9.16823,24,0.0144828,10,0.00208328,-2.03771,-0.367328,-0.160619,-57.4496,0.227228,
2,1,0,1,0,46504.7,0.229531,0.229212,9.04945,24,0.0145739,10,0.00207424,-2.04338,-0.387593,-0.152222,-53.8302,0.229212,
2,1,0,1,0,46504.7,0.231529,0.231189,8.95503,24,0.0146639,10,0.0020703,-2.04793,-0.449131,-0.131365,-45.9214,0.231189,
2,1,0,1,0,46504.7,0.233517,0.233215,8.86561,24,0.0147522,10,0.00206759,-2.05229,-0.460059,-0.128244,-44.3706,0.233215,
2,1,0,1,0,46504.7,0.235515,0.23522,8.77617,24,0.0148404,10,0.00206433,-2.0567,-0.437396,-0.134889,-46.1879,0.23522,
2,1,0,1,0,46504.7,0.237512,0.237177,8.6826,24,0.0149276,10,0.00205932,-2.06135,-0.496262,-0.118889,-40.3479,0.237177,
2,1,0,1,0,46504.7,0.23951,0.239185,8.6162,24,0.0150141,10,0.00206086,-2.06468,-0.562756,-0.104841,-35.2365,0.239185,
2,1,0,1,0,46504.7,0.241499,0.24118,8.54155,24,0.015099,10,0.00206005,-2.06846,-0.529715,-0.111381,-37.1286,0.24118,
2,1,0,1,0,46504.7,0.243496,0.243196,8.46728,24,0.015184,10,0.00205921,-2.07226,-0.553489,-0.106597,-35.2377,0.243196,
2,1,0,1,0,46504.7,0.245494,0.24521,8.39954,24,0.0152683,10,0.00205965,-2.07574,-0.588477,-0.100259,-32.8744,0.24521,
2,1,0,1,0,46504.8,0.247491,0.24717,8.33661,24,0.015352,10,0.00206056,-2.07901,-0.601201,-0.098137,-31.9274,0.24717,
2,1,0,1,0,46504.8,0.249498,0.249169,8.27314,24,0.0154351,10,0.00206141,-2.08233,-0.641147,-0.0920226,-29.7264,0.249169,
2,1,0,1,0,46504.8,0.251496,0.251158,8.21808,24,0.0155175,10,0.00206404,-2.08523,-0.658751,-0.0895635,-28.7159,0.251158,
2,1,0,1,0,46504.8,0.253493,0.253183,8.15789,24,0.0155994,10,0.00206544,-2.08842,-0.680327,-0.086723,-27.6252,0.253183,
2,1,0,1,0,46504.8,0.255491,0.255195,8.10656,24,0.0156807,10,0.00206875,-2.09116,-0.769713,-0.076652,-24.259,0.255195,
2,1,0,1,0,46504.8,0.257497,0.257176,8.06101,24,0.0157616,10,0.0020731,-2.09361,-0.856424,-0.0688911,-21.6773,0.257176,
2,1,0,1,0,46504.8,0.259495,0.259238,8.01892,24,0.015842,10,0.00207881,-2.09588,-0.747464,-0.0789336,-24.6797,0.259238,
2,1,0,1,0,46504.8,0.261493,0.26118,7.96219,24,0.0159219,10,0.00207957,-2.09897,-0.778514,-0.0757854,-23.5781,0.2611804,
2,1,0,1,0,46504.8,0.26349,0.263221,7.925,24,0.0160014,10,0.00208603,-2.101,-0.97172,-0.0607171,-18.7789,0.263221,
2,1,0,1,0,46504.8,0.265479,0.265142,7.8878,24,0.0160796,10,0.00209139,-2.10304,-0.900153,-0.0655444,-20.1711,0.265142,
2,1,0,1,0,46504.9,0.267476,0.267129,7.84617,24,0.0161583,10,0.00209594,-2.10534,-0.843588,-0.0699394,-21.4121,0.2671293,
2,1,0,1,0,46504.9,0.269474,0.269164,7.80168,24,0.0162365,10,0.00209993,-2.10781,-0.944638,-0.0624578,-19.0312,0.269164,
2,1,0,1,0,46504.9,0.271471,0.271177,7.76914,24,0.0163144,10,0.00210681,-2.10963,-1.21811,-0.0484355,-14.6918,0.271177,
2,1,0,1,0,46504.9,0.27346,0.273167,7.74286,24,0.0163911,10,0.0021151,-2.1111,-0.961922,-0.0613355,-18.5083,0.273167,
2,1,0,1,0,46504.9,0.275458,0.275186,7.69493,24,0.0164683,10,0.00211754,-2.1138,-0.889184,-0.066353,-19.9471,0.275186,
2,1,0,1,0,46504.9,0.277455,0.277166,7.6631,24,0.0165451,10,0.00212395,-2.1156,-1.09555,-0.0538544,-16.1059,0.277166,
2,1,0,1,0,46504.9,0.279453,0.279142,7.63123,24,0.0166215,10,0.00213019,-2.11741,-0.975074,-0.0605082,-18.0112,0.2791416,
2,1,0,1,0,46504.9,0.281455,0.28115,7.59134,24,0.0166976,10,0.00213431,-2.11968,-1.07343,-0.0549642,-16.2996,0.28115,
2,1,0,1,0,46504.9,0.283457,0.28314,7.56605,24,0.0167734,10,0.00214225,-2.12113,-1.1421,-0.0516593,-15.2431,0.28314,
2,1,0,1,0,46504.9,0.285455,0.285167,7.53011,24,0.016849,10,0.00214734,-2.1232,-1.11573,-0.0528803,-15.5498,0.285167,
2,1,0,1,0,46505,0.287452,0.287161,7.50353,24,0.0169241,10,0.00215472,-2.12473,-1.11298,-0.0530108,-15.5148,0.287161,
2,1,0,1,0,46505,0.28945,0.289139,7.46849,24,0.016999,10,0.00215943,-2.12677,-1.3023,-0.0453044,-13.2202,0.289139,
2,1,0,1,0,46505,0.291456,0.291152,7.45077,24,0.0170736,10,0.00216931,-2.1278,-1.16576,-0.0506106,-14.6933,0.291152,
2,1,0,1,0,46505,0.293454,0.293149,7.40957,24,0.0171479,10,0.00217211,-2.13021,-1.07285,-0.0549936,-15.9233,0.293149,
2,1,0,1,0,46505,0.295452,0.295109,7.38776,24,0.0172219,10,0.00218019,-2.13149,-1.35859,-0.0434272,-12.5154,0.295109,
2,1,0,1,0,46505,0.297449,0.297152,7.35947,24,0.0172956,10,0.00218688,-2.13315,-1.37363,-0.042952,-12.342,0.297152,
2,1,0,1,0,46505,0.299438,0.299156,7.33781,24,0.0173684,10,0.00219515,-2.13443,-0.0671495,-0.878636,-242.796,0.299156,
2,1,0,1,0,46505,0.299746,0.29942,6.80882,24,0.0173993,10,0.0020387,-2.16693,0.0080452,7.33356,1658.28,0.29942,
2,1,0,1,0,46505,0.29774,0.297435,4.48362,24,0.0174543,10,0.00133359,-2.34837,0.0111027,5.31401,963.696,0.297435,
2,1,0,1,0,46505,0.295742,0.295467,2.9995,24,0.0174911,10,0.000886254,-2.52295,0.0107085,5.50962,645.043,0.295467,
2,1,0,1,0,46505.1,0.293745,0.293409,1.88633,24,0.0175152,10,0.000553464,-2.72438,0.00864313,6.82623,489.167,0.293409,
2,1,0,1,0,46505.1,0.291747,0.291423,1.02134,24,0.0175295,10,0.000297642,-2.99083,0.00496754,11.8771,401.462,0.291423,
2,1,0,1,0,46505.1,0.289745,0.289465,0.303258,24,0.0175359,10,8.77825e-05,-3.51819,0.00694853,8.49101,323.837,0.289465,
2,0,0,1,0,46505.1,0.287743,0.28743,-0.271918,24,0.0175359,10,-7.81573e-05,-3.56556,-0.0101032,-5.83976,263.96,0.28743,
2,0,0,1,0,46505.1,0.285745,0.285443,-0.758453,24,0.0175306,10,-0.000216495,-3.12007,-0.00634277,-9.30193,222.157,0.285443,
2,0,0,1,0,46505.1,0.283748,0.283435,-1.15931,24,0.0175209,10,-0.00032859,-2.9358,-0.0133739,-4.41158,188.386,0.283435,
2,0,0,1,0,46505.1,0.28175,0.281417,-1.51683,24,0.0175074,10,-0.000426864,-2.81906,-0.0203881,-2.89384,165.242,0.281417,
2,0,0,1,0,46505.1,0.279761,0.279462,-1.81587,24,0.0174908,10,-0.000507467,-2.74091,-0.0285127,-2.06926,144.392,0.2794621,
2,0,0,1,0,46505.1,0.277764,0.27745,-2.08968,24,0.0174712,10,-0.000579783,-2.67992,-0.0376616,-1.56658,125.813,0.27745,
2,0,0,1,0,46505.1,0.275766,0.275452,-2.32036,24,0.0174491,10,-0.00063915,-2.63444,-0.0483302,-1.22077,109.704,0.275452,
2,0,0,1,0,46505.1,0.273769,0.27344,-2.52959,24,0.0174248,10,-0.000691692,-2.59695,-0.0582553,-1.01278,99.3204,0.27344,
2,0,0,1,0,46505.2,0.27178,0.271473,-2.7156,24,0.0173988,10,-0.000737211,-2.56613,-0.0674384,-0.874872,92.4667,0.271473,
2,0,0,1,0,46505.2,0.269783,0.269489,-2.89497,24,0.0173707,10,-0.000780162,-2.53836,-0.0823844,-0.716155,80.3693,0.269489,
2,0,0,1,0,46505.2,0.267785,0.267416,-3.04165,24,0.017341,10,-0.000813385,-2.51689,-0.095819,-0.615744,73.0401,0.267416,
2,0,0,1,0,46505.2,0.265787,0.265467,-3.18869,24,0.0173099,10,-0.000846492,-2.49639,-0.10378,-0.56851,70.5457,0.265467,
2,0,0,1,0,46505.2,0.263781,0.263448,-3.3216,24,0.0172773,10,-0.000875068,-2.47865,-0.116384,-0.506941,65.6218,0.263448,
2,0,0,1,0,46505.2,0.261783,0.261509,-3.44842,24,0.0172434,10,-0.000901794,-2.46238,-0.135069,-0.436813,58.5675,0.2615093,
2,0,0,1,0,46505.2,0.259786,0.259512,-3.55209,24,0.0172084,10,-0.000921811,-2.44952,-0.149616,-0.394342,54.7395,0.259512,
2,0,0,1,0,46505.2,0.257788,0.257507,-3.6675,24,0.0171723,10,-0.000944408,-2.43563,-0.158943,-0.371203,53.0266,0.257507,
2,0,0,1,0,46505.2,0.255781,0.255389,-3.77071,24,0.017135,10,-0.000963,-2.42358,-0.177473,-0.332445,48.8554,0.255389,
2,0,0,1,0,46505.2,0.253784,0.253458,-3.86532,24,0.0170968,10,-0.000979697,-2.41281,-0.198689,-0.296947,44.7028,0.2534579,
2,0,0,1,0,46505.3,0.251786,0.251482,-3.94536,24,0.0170578,10,-0.000992189,-2.40391,-0.207707,-0.284054,43.8141,0.251482,
2,0,0,1,0,46505.3,0.249789,0.249458,-4.04057,24,0.0170178,10,-0.00100795,-2.39356,-0.211703,-0.278693,43.8563,0.249458,
2,0,0,1,0,46505.3,0.2478,0.247493,-4.12031,24,0.0169774,10,-0.00101975,-2.38507,-0.23994,-0.245895,39.5251,0.247493,
2,0,0,1,0,46505.3,0.245802,0.24548,-4.19782,24,0.0169358,10,-0.00103048,-2.37698,-0.255327,-0.231076,37.8409,0.24548,
2,0,0,1,0,46505.3,0.243805,0.243464,-4.27277,24,0.0168934,10,-0.00104027,-2.36929,-0.273424,-0.215782,35.9544,0.243464,
2,0,0,1,0,46505.3,0.241807,0.241472,-4.34191,24,0.0168503,10,-0.00104845,-2.36232,-0.270605,-0.21803,36.9797,0.241472,
2,0,0,1,0,46505.3,0.239819,0.239485,-4.41992,24,0.016807,10,-0.0010585,-2.35459,-0.266767,-0.221167,38.1241,0.239485,
2,0,0,1,0,46505.3,0.237821,0.237517,-4.49271,24,0.0167624,10,-0.00106709,-2.34749,-0.326251,-0.180843,31.6407,0.237517,
2,0,0,1,0,46505.3,0.235824,0.23547,-4.54696,24,0.0167172,10,-0.00107067,-2.34228,-0.361567,-0.163179,28.9811,0.23547,
2,0,0,1,0,46505.3,0.233826,0.233491,-4.60938,24,0.0166715,10,-0.00107625,-2.33636,-0.333344,-0.176994,31.841,0.233491,
2,0,0,1,0,46505.4,0.231824,0.231517,-4.67283,24,0.016625,10,-0.00108184,-2.33042,-0.325283,-0.181381,33.0935,0.231517,
2,0,0,1,0,46505.4,0.229822,0.229502,-4.74137,24,0.016578,10,-0.00108816,-2.3241,-0.391906,-0.150546,27.7819,0.229502,
2,0,0,1,0,46505.4,0.227824,0.227489,-4.78474,24,0.0165303,10,-0.00108847,-2.32014,-0.424347,-0.139037,26.0042,0.227489,
2,0,0,1,0,46505.4,0.225827,0.225568,-4.84369,24,0.0164821,10,-0.00109258,-2.31482,-0.390601,-0.151049,28.542,0.225568,
2,0,0,1,0,46505.4,0.223829,0.223479,-4.89919,24,0.0164334,10,-0.00109487,-2.30988,-0.392066,-0.150485,28.7864,0.223479,
2,0,0,1,0,46505.4,0.221822,0.221534,-4.95982,24,0.0163841,10,-0.00109877,-2.30453,-0.41198,-0.143211,27.6836,0.221534,
2,0,0,1,0,46505.4,0.219825,0.219564,-5.00757,24,0.0163342,10,-0.00109948,-2.30037,-0.414939,-0.142189,27.8329,0.219564,
2,0,0,1,0,46505.4,0.217827,0.217507,-5.07189,24,0.0162838,10,-0.00110317,-2.29483,-0.462207,-0.127648,25.2001,0.217507,
2,0,0,1,0,46505.4,0.21583,0.215506,-5.10982,24,0.0162329,10,-0.0011012,-2.29159,-0.447916,-0.131721,26.3438,0.215506,
2,0,0,1,0,46505.4,0.213841,0.213492,-5.17767,24,0.0161819,10,-0.00110539,-2.28587,-0.419726,-0.140568,28.3412,0.2134916,
2,0,0,1,0,46505.5,0.211843,0.211516,-5.22291,24,0.0161299,10,-0.00110473,-2.28209,-0.518402,-0.113811,23.1997,0.211516,
2,0,0,1,0,46505.5,0.209846,0.209558,-5.26893,24,0.0160775,10,-0.00110415,-2.27828,-0.505529,-0.11671,24.0067,0.209558,
2,0,0,1,0,46505.5,0.207848,0.207528,-5.31866,24,0.0160245,10,-0.00110377,-2.2742,-0.411432,-0.143402,29.8229,0.207528,
2,0,0,1,0,46505.5,0.20586,0.205526,-5.38917,24,0.0159715,10,-0.00110762,-2.26848,-0.463389,-0.127323,26.6914,0.205526,
2,0,0,1,0,46505.5,0.203862,0.20355,-5.42483,24,0.0159174,10,-0.00110422,-2.26561,-0.542725,-0.108711,23.0577,0.20355,
2,0,0,1,0,46505.5,0.201865,0.20156,-5.48061,24,0.0158629,10,-0.00110467,-2.26117,-0.522016,-0.113023,24.1417,0.20156,
2,0,0,1,0,46505.5,0.199867,0.199536,-5.52173,24,0.0158079,10,-0.00110178,-2.25793,-0.487319,-0.121071,26.1445,0.199536,
2,0,0,1,0,46505.5,0.19786,0.197523,-5.58618,24,0.0157523,10,-0.0011034,-2.25289,-0.507768,-0.116195,25.2695,0.197523,
2,0,0,1,0,46505.5,0.195863,0.195508,-5.62352,24,0.0156963,10,-0.00109944,-2.24999,-0.514775,-0.114613,25.2103,0.195508,
2,0,0,1,0,46505.5,0.193865,0.193549,-5.68636,24,0.0156397,10,-0.00110059,-2.24517,-0.496829,-0.118753,26.3033,0.1935489,
2,0,0,1,0,46505.6,0.191868,0.191546,-5.72774,24,0.0155827,10,-0.00109712,-2.24202,-0.521379,-0.113161,25.3385,0.191546,
2,0,0,1,0,46505.6,0.189861,0.189504,-5.78884,24,0.0155251,10,-0.00109701,-2.23741,-0.522359,-0.112949,25.4744,0.189504,
2,0,0,1,0,46505.6,0.187863,0.187504,-5.83069,24,0.015467,10,-0.00109328,-2.23428,-0.519444,-0.113583,25.8859,0.187504,
2,0,0,1,0,46505.6,0.185866,0.185568,-5.89074,24,0.0154083,10,-0.00109313,-2.22983,-0.534397,-0.110405,25.3379,0.185568,
2,0,0,1,0,46505.6,0.183868,0.183558,-5.93069,24,0.0153492,10,-0.00108862,-2.22689,-0.448639,-0.131509,30.5447,0.183558,
2,0,0,1,0,46505.6,0.18188,0.181583,-6.01245,24,0.0152901,10,-0.00109176,-2.22095,-0.426978,-0.13818,32.3295,0.181583,
2,0,0,1,0,46505.6,0.179882,0.179565,-6.05976,24,0.0152297,10,-0.00108812,-2.21754,-0.536517,-0.109969,26.0281,0.179565,
2,0,0,1,0,46505.6,0.177885,0.177556,-6.11728,24,0.0151688,10,-0.00108616,-2.21344,-0.483426,-0.122046,29.1384,0.177556,
2,0,0,1,0,46505.6,0.175887,0.175584,-6.17576,24,0.0151074,10,-0.00108437,-2.20931,-0.426867,-0.138216,33.3507,0.175584,
2,0,0,1,0,46505.6,0.173908,0.173616,-6.24868,24,0.0150459,10,-0.00108487,-2.20421,-0.432569,-0.136395,33.2264,0.173616,
2,0,0,1,0,46505.7,0.171901,0.171584,-6.30868,24,0.0149831,10,-0.00108247,-2.20006,-0.45132,-0.130728,32.2099,0.171584,
2,0,0,1,0,46505.7,0.169903,0.169587,-6.37843,24,0.0149196,10,-0.0010817,-2.19529,-0.42343,-0.139338,34.6826,0.169587,
2,0,0,1,0,46505.7,0.167906,0.167578,-6.44761,24,0.0148555,10,-0.00108048,-2.1906,-0.389932,-0.151308,38.1143,0.167578,
2,0,0,1,0,46505.7,0.165908,0.165582,-6.53111,24,0.0147906,10,-0.00108143,-2.18501,-0.38609,-0.152814,38.9178,0.165582,
2,0,0,1,0,46505.7,0.163901,0.163553,-6.60425,24,0.0147249,10,-0.00108015,-2.18018,-0.358559,-0.164547,42.4865,0.163553,
2,0,0,1,0,46505.7,0.161904,0.161567,-6.70167,24,0.0146583,10,-0.00108277,-2.17382,-0.349045,-0.169033,44.1413,0.161567,
2,0,0,1,0,46505.7,0.159906,0.159592,-6.77912,24,0.0145909,10,-0.00108189,-2.16883,-0.340906,-0.173068,45.881,0.159592,
2,0,0,1,0,46505.7,0.157909,0.157574,-6.88486,24,0.0145226,10,-0.00108488,-2.16211,-0.295743,-0.199497,53.6159,0.157574,
2,0,0,1,0,46505.7,0.155902,0.155569,-6.99482,24,0.0144531,10,-0.00108817,-2.15522,-0.270311,-0.218267,59.6574,0.1555686,
2,0,0,1,0,46505.7,0.153904,0.153576,-7.12341,24,0.0143825,10,-0.00109398,-2.14731,-0.271093,-0.217638,60.4228,0.153576,
2,0,0,1,0,46505.8,0.151907,0.151607,-7.23418,24,0.0143107,10,-0.00109675,-2.14061,-0.253016,-0.233187,66.0015,0.151607,
2,0,0,1,0,46505.8,0.149909,0.149641,-7.3831,24,0.0142376,10,-0.00110482,-2.13176,-0.224204,-0.263154,75.8474,0.149641,
2,0,0,1,0,46505.8,0.147921,0.147595,-7.53849,24,0.0141637,10,-0.00111264,-2.12272,-0.214289,-0.275329,81.0873,0.147595,
2,0,0,1,0,46505.8,0.145923,0.145585,-7.71198,24,0.0140875,10,-0.00112275,-2.11283,-0.195927,-0.301133,90.6896,0.145585,
2,0,0,1,0,46505.8,0.143926,0.143633,-7.89782,24,0.0140094,10,-0.00113439,-2.10249,-0.17733,-0.332712,102.772,0.143633,
2,0,0,1,0,46505.8,0.141928,0.141603,-8.12123,24,0.0139293,10,-0.00114999,-2.09038,-0.169811,-0.347446,110.104,0.141603,
2,0,0,1,0,46505.8,0.139939,0.139561,-8.34611,24,0.0138478,10,-0.00116479,-2.07852,-0.159735,-0.369362,120.531,0.139561,
2,0,0,1,0,46505.8,0.137942,0.137578,-8.60639,24,0.0137631,10,-0.00118405,-2.06518,-0.145571,-0.405301,136.206,0.137578,
2,0,0,1,0,46505.8,0.135944,0.135631,-8.88143,24,0.0136756,10,-0.0012046,-2.05152,-0.137677,-0.428539,148.796,0.135631,
2,0,0,1,0,46505.8,0.133947,0.13363,-9.19378,24,0.0135852,10,-0.00122857,-2.03651,-0.132945,-0.443794,159.288,0.13363,
2,0,0,1,0,46505.9,0.13194,0.131624,-9.51963,24,0.0134917,10,-0.00125302,-2.02138,-0.130052,-0.453666,168.714,0.131624,
2,0,0,1,0,46505.9,0.129942,0.129608,-9.87238,24,0.0133947,10,-0.00127954,-2.00558,-0.127858,-0.461451,177.708,0.129608,
2,0,0,1,0,46505.9,0.127945,0.127659,-10.2242,24,0.0132941,10,-0.00130522,-1.99037,-0.132417,-0.445562,177.779,0.127659,
2,0,0,1,0,46505.9,0.125947,0.125609,-10.5833,24,0.01319,10,-0.00132936,-1.97538,-0.133173,-0.443034,183.052,0.125609,
2,0,0,1,0,46505.9,0.123941,0.123649,-10.9583,24,0.0130823,10,-0.00135499,-1.96026,-0.128431,-0.459389,196.584,0.1236494,
2,0,0,1,0,46505.9,0.121943,0.121681,-11.3556,24,0.0129707,10,-0.00138175,-1.94479,-0.136285,-0.432917,191.576,0.121681,
2,0,0,1,0,46505.9,0.119945,0.11963,-11.7284,24,0.0128552,10,-0.00140306,-1.93076,-0.144042,-0.409603,187.522,0.1196298,
2,0,0,1,0,46505.9,0.117948,0.117636,-12.1141,24,0.0127359,10,-0.00142505,-1.91671,-0.147548,-0.399871,188.821,0.117636,
2,0,0,1,0,46505.9,0.115946,0.115658,-12.4783,24,0.0126129,10,-0.00144322,-1.90384,-0.156363,-0.377326,183.721,0.115658,
2,0,0,1,0,46505.9,0.113962,0.113656,-12.8452,24,0.0124874,10,-0.00145994,-1.89126,-0.167664,-0.351895,176.21,0.113656,
2,0,0,1,0,46506,0.111964,0.11162,-13.1898,24,0.0123572,10,-0.00147225,-1.87976,-0.176061,-0.335112,172.484,0.1116202,
2,0,0,1,0,46506,0.109967,0.109641,-13.5378,24,0.0122235,10,-0.0014843,-1.86845,-0.184798,-0.319268,168.447,0.109641,
2,0,0,1,0,46506,0.107969,0.107679,-13.8536,24,0.0120865,10,-0.00149175,-1.85844,-0.198014,-0.297959,161.095,0.107679,
2,0,0,1,0,46506,0.10598,0.105691,-14.1741,24,0.0119477,10,-0.00149808,-1.8485,-0.212485,-0.277666,153.434,0.105691,
2,0,0,1,0,46506,0.103983,0.103669,-14.4689,24,0.0118044,10,-0.00149998,-1.83956,-0.227893,-0.258893,146.149,0.103669,
2,0,0,1,0,46506,0.101985,0.101686,-14.7595,24,0.0116582,10,-0.00150083,-1.83093,-0.247672,-0.238218,137.026,0.101686,
2,0,0,1,0,46506,0.0999877,0.0997044,-15.0122,24,0.0115093,10,-0.00149678,-1.82356,-0.264984,-0.222655,130.501,0.09970437,
2,0,0,1,0,46506,0.0979811,0.0976985,-15.2798,24,0.0113578,10,-0.00149282,-1.81588,-0.288149,-0.204755,121.92,0.0976985,
2,0,0,1,0,46506,0.0959835,0.0956622,-15.505,24,0.0112037,10,-0.00148325,-1.80953,-0.324194,-0.18199,110.092,0.0956622,
2,0,0,1,0,46506,0.0939859,0.093671,-15.7232,24,0.0110476,10,-0.00147281,-1.80346,-0.350895,-0.168142,103.065,0.093671,
2,0,0,1,0,46506.1,0.0919883,0.0917397,-15.9093,24,0.0108893,10,-0.00145952,-1.79835,-0.38472,-0.153358,95.2382,0.0917397,
2,0,0,1,0,46506.1,0.0899816,0.0896783,-16.1035,24,0.0107292,10,-0.00144413,-1.79308,-0.471057,-0.12525,78.5436,0.08967831,
2,0,0,1,0,46506.1,0.087984,0.0876785,-16.2283,24,0.0105675,10,-0.00142287,-1.78973,-0.58066,-0.101609,64.3697,0.0876785,
2,0,0,1,0,46506.1,0.0859865,0.0856561,-16.3624,24,0.0104045,10,-0.00140154,-1.78615,-0.666939,-0.0884639,56.4163,0.0856561,
2,0,0,1,0,46506.1,0.0839889,0.0836788,-16.4539,24,0.0102404,10,-0.00137685,-1.78373,-0.842225,-0.0700526,44.9784,0.0836788,
2,0,0,1,0,46506.1,0.0820004,0.0816674,-16.5418,24,0.010077,10,-0.00135093,-1.78142,-1.22729,-0.0480734,30.9856,0.0816674,
2,0,0,1,0,46506.1,0.0800028,0.079699,-16.5773,24,0.00991144,10,-0.00132119,-1.78049,-2.01539,-0.0292747,18.9419,0.079699,
2,0,0,1,0,46506.1,0.0780052,0.0776997,-16.6169,24,0.00974545,10,-0.00129113,-1.77945,-3.2474,-0.0181684,11.7709,0.0776997,
2,0,0,1,0,46506.1,0.0760076,0.0756828,-16.6245,24,0.00957924,10,-0.00125819,-1.77925,-16.258,-0.00362898,2.35409,0.0756828,
2,0,0,1,0,46506.1,0.0740191,0.0736849,-16.6264,24,0.00941471,10,-0.00122511,-1.7792,8.49708,0.00694356,-4.50257,0.0736849,
2,0,0,1,0,46506.2,0.0720215,0.0716911,-16.6066,24,0.00924854,10,-0.00119054,-1.77972,2.90121,0.0203363,-13.175,0.0716911,
2,0,0,1,0,46506.2,0.0700239,0.0697165,-16.5741,24,0.00908264,10,-0.00115549,-1.78057,1.85994,0.0317215,-20.5082,0.0697165,
2,0,0,1,0,46506.2,0.0680263,0.0677114,-16.5249,24,0.00891712,10,-0.00111893,-1.78186,2.14101,0.027557,-17.7864,0.0677114,
2,0,0,1,0,46506.2,0.0660197,0.0656951,-16.5026,24,0.00875205,10,-0.00108414,-1.78245,1.68207,0.0350757,-22.5584,0.0656951,
2,0,0,1,0,46506.2,0.0640221,0.0636649,-16.4337,24,0.00858737,10,-0.00104625,-1.78427,1.20061,0.0491416,-31.5291,0.0636649,
2,0,0,1,0,46506.2,0.0620245,0.0617206,-16.3773,24,0.00842332,10,-0.00101081,-1.78576,1.24077,0.047551,-30.3844,0.0617206,
2,0,0,1,0,46506.2,0.0600269,0.0596748,-16.3124,24,0.00825986,10,-0.000973441,-1.78748,1.37549,0.0428939,-27.3235,0.0596748,
2,0,0,1,0,46506.2,0.0580248,0.0576871,-16.2671,24,0.00809699,10,-0.0009384,-1.78869,1.27466,0.0462869,-29.3621,0.0576871,
2,0,0,1,0,46506.2,0.0560227,0.0557142,-16.1961,24,0.00793465,10,-0.000902354,-1.79059,1.19336,0.0494404,-31.2671,0.0557142,
2,0,0,1,0,46506.2,0.0540251,0.0537057,-16.1426,24,0.00777296,10,-0.000866948,-1.79203,1.25781,0.0469071,-29.5413,0.0537057,
2,0,0,1,0,46506.3,0.0520275,0.0517267,-16.0783,24,0.00761182,10,-0.000831679,-1.79376,1.19055,0.0495569,-31.1014,0.0517267,
2,0,0,1,0,46506.3,0.0500299,0.0497485,-16.0195,24,0.00745132,10,-0.000796947,-1.79535,1.29357,0.0456103,-28.5182,0.0497485,
2,0,0,1,0,46506.3,0.0480414,0.0477254,-15.9642,24,0.00729297,10,-0.000761899,-1.79685,1.32076,0.0446714,-27.8305,0.0477254,
2,0,0,1,0,46506.3,0.0460438,0.0457284,-15.9076,24,0.00713365,10,-0.00072743,-1.79839,1.1027,0.0535051,-33.1966,0.0457284,
2,0,0,1,0,46506.3,0.0440462,0.0437226,-15.8313,24,0.00697494,10,-0.000692188,-1.80048,1.11983,0.0526866,-32.5757,0.0437226,
2,0,0,1,0,46506.3,0.0420486,0.0417511,-15.7781,24,0.00681695,10,-0.000658751,-1.80195,1.22575,0.0481338,-29.6288,0.0417511,
2,0,0,1,0,46506.3,0.0400601,0.0397528,-15.7137,24,0.00666109,10,-0.000624665,-1.80372,1.08564,0.0543457,-33.3211,0.0397528,
2,0,0,1,0,46506.3,0.0380625,0.0377018,-15.6431,24,0.0065043,10,-0.000589774,-1.80568,0.988411,0.0596918,-36.4345,0.0377018,
2,0,0,1,0,46506.3,0.036065,0.0357072,-15.5663,24,0.00634826,10,-0.00055583,-1.80781,1.02703,0.0574474,-34.9161,0.0357072,
2,0,0,1,0,46506.3,0.0340674,0.0337299,-15.5044,24,0.00619292,10,-0.000522964,-1.80954,0.991497,0.059506,-35.9836,0.0337299,
2,0,0,1,0,46506.4,0.0320607,0.0317266,-15.4231,24,0.00603828,10,-0.000489323,-1.81183,0.858147,0.0687528,-41.3811,0.0317266,
2,0,0,1,0,46506.4,0.0300631,0.0297641,-15.3403,24,0.00588446,10,-0.000456591,-1.81417,0.818851,0.0720522,-43.1276,0.0297641,
2,0,0,1,0,46506.4,0.0280655,0.0277478,-15.2515,24,0.00573145,10,-0.000423195,-1.81669,0.859771,0.0686229,-40.8614,0.0277478,
2,0,0,1,0,46506.4,0.0260679,0.0257106,-15.1747,24,0.00557931,10,-0.000390152,-1.81888,0.794663,0.0742453,-43.9366,0.0257106,
2,0,0,1,0,46506.4,0.0240613,0.0237412,-15.0755,24,0.00542803,10,-0.000357909,-1.82173,0.736759,0.0800805,-47.1347,0.0237412,
2,0,0,1,0,46506.4,0.0220637,0.0217726,-14.9891,24,0.00527772,10,-0.000326351,-1.82422,0.693501,0.0850755,-49.7231,0.0217726,
2,0,0,1,0,46506.4,0.0200661,0.0197407,-14.8765,24,0.00512839,10,-0.000293673,-1.8275,0.624492,0.0944767,-54.8604,0.0197407,
2,0,0,1,0,46506.4,0.0180685,0.0177651,-14.7692,24,0.00498013,10,-0.000262377,-1.83064,0.637496,0.0925497,-53.3485,0.0177651,
2,0,0,1,0,46506.4,0.01608,0.0157605,-14.6642,24,0.00483446,10,-0.000231115,-1.83374,0.645581,0.0913906,-52.2997,0.0157605,
2,0,0,1,0,46506.4,0.0140824,0.0137269,-14.558,24,0.00468841,10,-0.000199837,-1.8369,0.55875,0.105593,-59.938,0.0137269,
2,0,0,1,0,46506.5,0.0120848,0.0117832,-14.4258,24,0.00454352,10,-0.000169982,-1.84086,0.512785,0.115058,-64.7955,0.0117832,
2,0,0,1,0,46506.5,0.0100872,0.00978459,-14.3026,24,0.00439992,10,-0.000139945,-1.84459,0.525346,0.112307,-62.6776,0.00978459,
2,0,0,1,0,46506.5,0.00810328,0.00778679,-14.1753,24,0.00425897,10,-0.00011038,-1.84847,0.539225,0.109416,-60.5566,0.00778679,
2,0,0,1,0,46506.5,0.00610116,0.00578956,-14.0607,24,0.00411779,10,-8.14051e-05,-1.85199,0.496572,0.118815,-65.1282,0.00578956,
2,0,0,1,0,46506.5,0.00410357,0.00381055,-13.9164,24,0.00397793,10,-5.3029e-05,-1.85647,0.604931,0.0975318,-53.1084,0.00381055,
2,0,0,1,0,46506.5,0.00210598,0.0017283,-13.845,24,0.00383932,10,-2.39283e-05,-1.85871,0.591751,0.0997041,-53.7263,0.0017283,
2,0,0,1,0,46506.5,0.00010174,-0.000236828,-13.6989,24,0.0037016,10,3.24428e-06,-1.86331,0.467139,0.126301,-67.5802,-0.000236828,
2,0,0,1,0,46506.5,-0.00189827,-0.00224186,-13.5767,24,0.0035652,10,3.04371e-05,-1.86721,0.523142,0.11278,-59.7597,-0.00224186,
2,0,0,1,0,46506.5,-0.00389586,-0.00429549,-13.4564,24,0.00343004,10,5.78017e-05,-1.87107,0.540938,0.10907,-57.2979,-0.00429549,
2,0,0,1,0,46506.5,-0.00589345,-0.00627536,-13.3456,24,0.00329604,10,8.37483e-05,-1.87466,0.520891,0.113268,-58.9681,-0.00627536,
2,0,0,1,0,46506.6,-0.00789103,-0.00823876,-13.2238,24,0.00316318,10,0.000108948,-1.87864,0.58858,0.100241,-51.8044,-0.00823876,
2,0,0,1,0,46506.6,-0.0098977,-0.0102603,-13.1391,24,0.00303134,10,0.000134811,-1.88143,0.666134,0.0885707,-45.3958,-0.0102603,
2,0,0,1,0,46506.6,-0.0118953,-0.0122341,-13.0425,24,0.00290046,10,0.000159563,-1.88464,0.631131,0.093483,-47.5893,-0.01223408,
2,0,0,1,0,46506.6,-0.0138929,-0.0142452,-12.9495,24,0.00277048,10,0.000184468,-1.88775,0.652219,0.0904605,-45.7192,-0.01424519,
2,0,0,1,0,46506.6,-0.0158905,-0.0162615,-12.8583,24,0.00264142,10,0.000209096,-1.89082,0.846546,0.069695,-35.0309,-0.0162615,
2,0,0,1,0,46506.6,-0.017879,-0.0182563,-12.809,24,0.00251434,10,0.000233844,-1.89249,0.948735,0.0621881,-31.0566,-0.0182563,
2,0,0,1,0,46506.6,-0.0198766,-0.0202525,-12.7344,24,0.00238664,10,0.000257903,-1.89502,0.878397,0.0671678,-33.4018,-0.0202525,
2,0,0,1,0,46506.6,-0.0218741,-0.0222479,-12.6757,24,0.00225964,10,0.000282007,-1.89703,1.0127,0.0582599,-28.8233,-0.0222479,
2,0,0,1,0,46506.6,-0.0238717,-0.0242433,-12.6194,24,0.00213318,10,0.000305935,-1.89896,1.37245,0.0429887,-21.1961,-0.0242433,
2,0,0,1,0,46506.6,-0.0258602,-0.0261808,-12.5923,24,0.00200838,10,0.000329677,-1.8999,1.36768,0.0431387,-21.1749,-0.0261808,
2,0,0,1,0,46506.7,-0.0278578,-0.0282041,-12.5355,24,0.00188275,10,0.000353552,-1.90186,1.4878,0.0396559,-19.4278,-0.0282041,
2,0,0,1,0,46506.7,-0.0298554,-0.0302091,-12.514,24,0.00175753,10,0.000378038,-1.9026,2.15807,0.0273392,-13.3464,-0.0302091,
2,0,0,1,0,46506.7,-0.031853,-0.0322072,-12.4821,24,0.00163253,10,0.000402013,-1.90371,2.64012,0.0223475,-10.8952,-0.0322072,
2,0,0,1,0,46506.7,-0.0338597,-0.0342027,-12.4705,24,0.00150777,10,0.000426526,-1.90412,3.86275,0.0152741,-7.43169,-0.0342027,
2,0,0,1,0,46506.7,-0.0358573,-0.0362121,-12.4523,24,0.00138313,10,0.000450924,-1.90475,7.38674,0.00798729,-3.88485,-0.0362121,
2,0,0,1,0,46506.7,-0.0378549,-0.0382475,-12.4548,24,0.00125856,10,0.000476365,-1.90466,8.2267,0.00717177,-3.48336,-0.0382475,
2,0,0,1,0,46506.7,-0.0398524,-0.0401831,-12.4385,24,0.00113406,10,0.000499817,-1.90523,-8.24602,-0.00715497,3.47977,-0.0401831,
2,0,0,1,0,46506.7,-0.0418591,-0.0422394,-12.4687,24,0.00100958,10,0.00052667,-1.90418,-4.61672,-0.0127796,6.20994,-0.0422394,
2,0,0,1,0,46506.7,-0.0438567,-0.0442288,-12.4636,24,0.000884928,10,0.00055125,-1.90436,-14.17,-0.00416374,2.02679,-0.0442288,
2,0,0,1,0,46506.7,-0.0458543,-0.0462269,-12.4768,24,0.00076021,10,0.000576762,-1.9039,-4.9714,-0.0118679,5.77805,-0.04622687,
2,0,0,1,0,46506.8,-0.0478519,-0.0482189,-12.4867,24,0.00063538,10,0.000602092,-1.90355,-2.16102,-0.0273019,13.3224,-0.0482189,
2,0,0,1,0,46506.8,-0.0498585,-0.0502231,-12.53,24,0.00051031,10,0.000629296,-1.90205,-1.92346,-0.0306739,14.9832,-0.05022306,
2,0,0,1,0,46506.8,-0.051838,-0.0521681,-12.5458,24,0.000386153,10,0.000654492,-1.9015,-2.29206,-0.0257411,12.6127,-0.05216809,
2,0,0,1,0,46506.8,-0.0538356,-0.0541993,-12.5802,24,0.000260578,10,0.000681836,-1.90031,-1.84385,-0.0319983,15.7064,-0.0541993,
2,0,0,1,0,46506.8,-0.0558331,-0.056178,-12.6088,24,0.000134626,10,0.000708338,-1.89933,-1.57972,-0.0373483,18.3903,-0.056178,
2,0,0,1,0,46506.8,-0.0578126,-0.0581998,-12.6537,24,9.60378e-06,10,0.000736445,-1.89778,-1.45085,-0.0406659,20.0746,-0.0581998,
2,0,0,1,0,46506.8,-0.0598192,-0.0601762,-12.6891,24,-0.000117137,10,0.00076358,-1.89657,-1.23698,-0.0476968,23.6412,-0.0601762,
2,0,0,1,0,46506.8,-0.0618168,-0.0621492,-12.7471,24,-0.000244305,10,0.000792222,-1.89459,-1.23693,-0.0476985,23.7103,-0.0621492,
2,0,0,1,0,46506.8,-0.0638144,-0.0642262,-12.7851,24,-0.000371971,10,0.000821138,-1.8933,-1.29937,-0.0454067,22.6695,-0.0642262,
2,0,0,1,0,46506.8,-0.065812,-0.0661644,-12.8381,24,-0.000500092,10,0.000849428,-1.8915,-1.02716,-0.0574398,28.7875,-0.0661644,
2,0,0,1,0,46506.9,-0.0678187,-0.0681756,-12.8988,24,-0.000628841,10,0.000879382,-1.88945,-0.942419,-0.0626049,31.522,-0.0681756,
2,0,0,1,0,46506.9,-0.0698163,-0.0701953,-12.9652,24,-0.000758173,10,0.000910096,-1.88722,-1.04739,-0.0563302,28.482,-0.0701953,
2,0,0,1,0,46506.9,-0.0718138,-0.0721865,-13.013,24,-0.000888109,10,0.000939365,-1.88562,-0.945146,-0.0624242,31.7398,-0.0721865,
2,0,0,1,0,46506.9,-0.0738114,-0.0741785,-13.0916,24,-0.00101867,10,0.000971117,-1.88301,-0.80448,-0.0733393,37.4596,-0.0741785,
2,0,0,1,0,46506.9,-0.0758181,-0.0761801,-13.1626,24,-0.00115001,10,0.00100273,-1.88066,-0.808905,-0.0729381,37.4774,-0.0761801,
2,0,0,1,0,46506.9,-0.0778157,-0.0781513,-13.2405,24,-0.00128205,10,0.00103476,-1.8781,-0.838732,-0.0703443,36.3334,-0.0781513,
2,0,0,1,0,46506.9,-0.0798133,-0.0801546,-13.307,24,-0.00141484,10,0.00106662,-1.87592,-0.766241,-0.0769993,40.0299,-0.0801546,
2,0,0,1,0,46506.9,-0.0818108,-0.082177,-13.4017,24,-0.00154841,10,0.00110131,-1.87284,-0.682594,-0.0864349,45.1936,-0.082177,
2,0,0,1,0,46506.9,-0.0837994,-0.084168,-13.4884,24,-0.00168154,10,0.00113529,-1.87004,-0.680716,-0.0866735,45.6384,-0.084168,
2,0,0,1,0,46506.9,-0.0857969,-0.0861515,-13.583,24,-0.00181684,10,0.0011702,-1.867,-0.693026,-0.0851338,45.1143,-0.0861515,
2,0,0,1,0,46507,-0.0877945,-0.088166,-13.6688,24,-0.00195308,10,0.00120512,-1.86427,-0.658253,-0.0896312,47.848,-0.088166,
2,0,0,1,0,46507,-0.0897921,-0.0901543,-13.7746,24,-0.00209027,10,0.00124184,-1.86092,-0.646698,-0.0912328,49.012,-0.0901543,
2,0,0,1,0,46507,-0.0917806,-0.0921171,-13.8624,24,-0.00222707,10,0.00127697,-1.85816,-0.627135,-0.0940786,50.9459,-0.0921171,
2,0,0,1,0,46507,-0.0937782,-0.0941335,-13.9773,24,-0.00236628,10,0.00131573,-1.85458,-0.599159,-0.0984713,53.6859,-0.0941335,
2,0,0,1,0,46507,-0.0957758,-0.0961229,-14.0775,24,-0.00250655,10,0.00135317,-1.85148,-0.626841,-0.0941227,51.722,-0.0961229,
2,0,0,1,0,46507,-0.0977734,-0.0981323,-14.1841,24,-0.00264783,10,0.00139192,-1.8482,-0.582539,-0.101281,56.0822,-0.09813226,
2,0,0,1,0,46507,-0.0997412,-0.100089,-14.2999,24,-0.00278741,10,0.00143127,-1.84467,0.10404,0.567087,-307.306,-0.100089,
2,0,0,1,1,46507,-0.0996711,-0.100063,-13.5909,24,-0.00282941,10,0.00135994,-1.86675,-0.0167392,-3.52466,1713.97,-0.100063,
2,0,0,1,1,46507,-0.0976826,-0.0980389,-10.7854,24,-0.00294845,10,0.00105738,-1.96717,-0.0212463,-2.77695,1193.48,-0.0980389,
2,0,0,1,1,46507,-0.095685,-0.0960339,-8.78269,24,-0.00304569,10,0.000843436,-2.05637,-0.022499,-2.62233,905.487,-0.0960339,
2,0,0,1,1,46507.1,-0.0936874,-0.0940322,-7.15731,24,-0.00312499,10,0.000673017,-2.14525,-0.021301,-2.76982,772.703,-0.0940322,
2,0,0,1,1,46507.1,-0.0916898,-0.0920837,-5.7303,24,-0.0031891,10,0.000527667,-2.24182,-0.019703,-2.99447,669.56,-0.0920837,
2,0,0,1,1,46507.1,-0.0897013,-0.0900713,-4.50529,24,-0.00323948,10,0.000405797,-2.34628,-0.0173941,-3.39195,588.877,-0.0900713,
2,0,0,1,1,46507.1,-0.0877037,-0.0880819,-3.37376,24,-0.00327864,10,0.000297167,-2.47189,-0.0142309,-4.1459,538.384,-0.0880819,
2,0,0,1,1,46507.1,-0.0857062,-0.086115,-2.37529,24,-0.00330717,10,0.000204548,-2.62428,-0.0108172,-5.45425,484.207,-0.086115,
2,0,0,1,1,46507.1,-0.0837086,-0.0840987,-1.44506,24,-0.00332603,10,0.000121528,-2.84011,-0.00676614,-8.7199,439.846,-0.0840987,
2,0,0,1,1,46507.1,-0.0817019,-0.082085,-0.602698,24,-0.0033361,10,4.94725e-05,-3.2199,-0.00448419,-13.1573,402.357,-0.082085,
2,1,0,1,1,46507.1,-0.0797043,-0.0800566,0.181327,24,-0.00333805,10,-1.45164e-05,-3.74154,0.0241001,2.44812,371.443,-0.0800566,
2,1,0,1,1,46507.1,-0.0777067,-0.0780845,0.883275,24,-0.0033326,10,-6.89701e-05,-3.0539,0.00422396,13.9679,348.394,-0.0780845,
2,1,0,1,1,46507.1,-0.0757091,-0.076115,1.55453,24,-0.00332031,10,-0.000118323,-2.8084,0.0101868,5.79178,322.834,-0.076115,
2,1,0,1,1,46507.2,-0.0737025,-0.0741256,2.16134,24,-0.0033016,10,-0.00016021,-2.66528,0.0163218,3.6148,294.915,-0.0741256,
2,1,0,1,1,46507.2,-0.0717049,-0.0721041,2.73742,24,-0.00327697,10,-0.000197379,-2.56266,0.0226443,2.60551,271.81,-0.0721041,
2,1,0,1,1,46507.2,-0.0697073,-0.0700843,3.25981,24,-0.00324692,10,-0.000228461,-2.48681,0.0288335,2.04623,257.513,-0.0700843,
2,1,0,1,1,46507.2,-0.0677097,-0.0681079,3.76649,24,-0.00321169,10,-0.000256528,-2.42406,0.0346584,1.70233,247.323,-0.0681079,
2,1,0,1,1,46507.2,-0.0657212,-0.0661718,4.22745,24,-0.00317207,10,-0.000279738,-2.37392,0.0431908,1.36603,223.712,-0.0661718,
2,1,0,1,1,46507.2,-0.0637236,-0.0641247,4.65758,24,-0.00312759,10,-0.000298666,-2.33184,0.052764,1.11819,202.012,-0.0641247,
2,1,0,1,1,46507.2,-0.061726,-0.0620728,5.0555,24,-0.00307897,10,-0.000313809,-2.29624,0.0591168,0.998025,196.374,-0.0620728,
2,1,0,1,1,46507.2,-0.0597284,-0.0601076,5.44643,24,-0.00302641,10,-0.000327372,-2.26389,0.0671854,0.878166,185.516,-0.0601076,
2,1,0,1,1,46507.2,-0.0577399,-0.0581296,5.78704,24,-0.00297081,10,-0.000336398,-2.23754,0.0790186,0.74666,168.298,-0.0581296,
2,1,0,1,1,46507.2,-0.0557423,-0.0561193,6.11766,24,-0.00291122,10,-0.000343319,-2.21341,0.0884972,0.666687,158.692,-0.0561193,
2,1,0,1,1,46507.3,-0.0537448,-0.0541264,6.4223,24,-0.00284845,10,-0.000347616,-2.19231,0.101698,0.58015,145.081,-0.0541264,
2,1,0,1,1,46507.3,-0.0517472,-0.052058,6.70687,24,-0.00278276,10,-0.000349147,-2.17348,0.11321,0.521154,136.126,-0.052058,
2,1,0,1,1,46507.3,-0.049745,-0.0500964,6.9709,24,-0.00271433,10,-0.000349217,-2.15671,0.120721,0.48873,132.88,-0.0500964,
2,1,0,1,1,46507.3,-0.0477429,-0.0480974,7.23316,24,-0.00264323,10,-0.000347896,-2.14067,0.136604,0.431907,121.505,-0.0480974,
2,1,0,1,1,46507.3,-0.0457453,-0.0461427,7.45129,24,-0.00256976,10,-0.000343823,-2.12777,0.156138,0.377871,109.87,-0.0461427,
2,1,0,1,1,46507.3,-0.0437477,-0.0441064,7.67164,24,-0.00249411,10,-0.000338369,-2.11511,0.170155,0.346743,103.612,-0.04410645,
2,1,0,1,1,46507.3,-0.0417501,-0.0421422,7.86579,24,-0.00241639,10,-0.000331482,-2.10426,0.184847,0.319184,97.9917,-0.0421422,
2,1,0,1,1,46507.3,-0.0397435,-0.0400946,8.06477,24,-0.00233667,10,-0.000323354,-2.09341,0.209948,0.281022,88.2103,-0.0400946,
2,1,0,1,1,46507.3,-0.0377459,-0.0380957,8.22274,24,-0.00225522,10,-0.000313251,-2.08498,0.230655,0.255793,82.1268,-0.0380957,
2,1,0,1,1,46507.3,-0.0357483,-0.0361219,8.39104,24,-0.00217213,10,-0.0003031,-2.07618,0.250369,0.235652,77.028,-0.0361219,
2,1,0,1,1,46507.4,-0.0337507,-0.034103,8.53029,24,-0.0020875,10,-0.000290908,-2.06904,0.272436,0.216565,72.1168,-0.034103,
2,1,0,1,1,46507.4,-0.0317622,-0.0321717,8.67591,24,-0.0020023,10,-0.000279119,-2.06168,0.301824,0.195478,66.0664,-0.03217173,
2,1,0,1,1,46507.4,-0.0297646,-0.0301564,8.79102,24,-0.00191497,10,-0.000265106,-2.05596,0.344952,0.171038,58.6974,-0.0301564,
2,1,0,1,1,46507.4,-0.027767,-0.0281467,8.91217,24,-0.00182642,10,-0.000250848,-2.05002,0.383904,0.153684,53.37,-0.0281467,
2,1,0,1,1,46507.4,-0.0257694,-0.0261226,9.0063,24,-0.00173681,10,-0.000235268,-2.04545,0.41454,0.142327,50.0597,-0.0261226,
2,1,0,1,1,46507.4,-0.0237809,-0.024129,9.1133,24,-0.00164709,10,-0.000219894,-2.04032,0.4461,0.132257,46.9667,-0.024129,
2,1,0,1,1,46507.4,-0.0217833,-0.0221499,9.19289,24,-0.00155554,10,-0.000203622,-2.03655,0.526388,0.112085,40.2114,-0.0221499,
2,1,0,1,1,46507.4,-0.0197858,-0.0201718,9.27242,24,-0.00146314,10,-0.000187041,-2.03281,0.569437,0.103611,37.4757,-0.0201718,
2,1,0,1,1,46507.4,-0.0177882,-0.0181373,9.34326,24,-0.00137008,10,-0.000169461,-2.0295,0.590962,0.0998373,36.4134,-0.0181373,
2,1,0,1,1,46507.4,-0.0157815,-0.0161452,9.41904,24,-0.00127626,10,-0.000152073,-2.02599,0.695423,0.0848405,31.1436,-0.0161452,
2,1,0,1,1,46507.4,-0.0137839,-0.0141029,9.46891,24,-0.00118182,10,-0.000133539,-2.0237,0.862758,0.0683853,25.2718,-0.0141029,
2,1,0,1,1,46507.5,-0.0117863,-0.0121733,9.51942,24,-0.00108689,10,-0.000115883,-2.02139,0.909355,0.0648811,24.096,-0.0121733,
2,1,0,1,1,46507.5,-0.00978874,-0.0101735,9.56359,24,-0.000991457,10,-9.72954e-05,-2.01938,0.828353,0.0712257,26.6106,-0.0101735,
2,1,0,1,1,46507.5,-0.00778208,-0.00812857,9.62705,24,-0.000895516,10,-7.82542e-05,-2.01651,1.11928,0.0527124,19.7557,-0.00812857,
2,1,0,1,1,46507.5,-0.00578449,-0.0061565,9.64295,24,-0.000799211,10,-5.93668e-05,-2.01579,1.59994,0.0368765,13.8947,-0.0061565,
2,1,0,1,1,46507.5,-0.0037869,-0.00415754,9.68223,24,-0.000702584,10,-4.02542e-05,-2.01402,1.39023,0.0424391,16.0243,-0.00415754,
2,1,0,1,1,46507.5,-0.00178931,-0.00216031,9.70699,24,-0.000605628,10,-2.09701e-05,-2.01292,3.29157,0.0179246,6.78219,-0.00216031,
2,1,0,1,1,46507.5,-2.55332e-05,-0.000325324,9.70822,24,-0.000521083,10,-3.15831e-06,-2.01286, , , ,-0.000325324,