File: Figure_codes/Fig_3-5/rawdata_trumpetplot_data/after 10th/20221101_1-115_003_TrumpetPlot_ParaChange_from10_every3_06_CV_C01_5.csv
mode,ox/red,error,control changes,counter inc.,time/s,control/V,Ewe/V,<I>/mA,cycle number,(Q-Qo)/C,I Range,P/W,log(|I|),Tafel slope mV/dec,alpha_eff,dI/d(E-IR),E-IR/V,
2,0,0,0,0,11000.7,2.44065e-05,-0.000382585,-1.41598,6,0.0000000E+000,10,5.41733e-07,-2.84894, , , ,-0.000382585,
2,0,0,1,0,11000.7,0.00129787,0.000907683,-0.00785182,6,-1.75958e-05,10,-7.12697e-09,-5.10503, , , ,0.000907683,
2,1,0,1,0,11000.7,0.00279427,0.00245682,0.748609,6,-1.52446e-06,10,1.8392e-06,-3.12575,0.00910177,6.48226,387.435,0.00245682,
2,1,0,1,0,11000.8,0.00429425,0.00401587,1.0919,6,3.41256e-05,10,4.38494e-06,-2.96182,0.0106387,5.5458,191.155,0.004015869,
2,1,0,1,0,11000.8,0.00579422,0.0054583,1.27809,6,7.9501e-05,10,6.9762e-06,-2.89344,0.0246137,2.39704,112.447,0.0054583,
2,1,0,1,0,11000.9,0.00729063,0.006957,1.40731,6,0.00013054,10,9.79066e-06,-2.85161,0.0424032,1.3914,74.5251,0.006957,
2,1,0,1,0,11000.9,0.00878703,0.00850273,1.49903,6,0.000185673,10,1.27459e-05,-2.82419,0.0616465,0.95707,55.2188,0.00850273,
2,1,0,1,0,11000.9,0.010287,0.00999037,1.5675,6,0.000243946,10,1.56599e-05,-2.80479,0.0857064,0.688397,41.817,0.00999037,
2,1,0,1,0,11001,0.011787,0.0114885,1.62259,6,0.000304578,10,1.86411e-05,-2.78979,0.104531,0.564424,35.7288,0.0114885,
2,1,0,1,0,11001,0.0132825,0.0129431,1.67917,6,0.000366938,10,2.17337e-05,-2.7749,0.113455,0.520032,34.0754,0.01294309,
2,1,0,1,0,11001,0.014778,0.0144868,1.72768,6,0.000431195,10,2.50285e-05,-2.76254,0.127413,0.463062,31.0699,0.0144868,
2,1,0,1,0,11001.1,0.0162816,0.015932,1.77207,6,0.000497669,10,2.82325e-05,-2.75152,0.146791,0.401932,27.641,0.015932,
2,1,0,1,0,11001.1,0.017778,0.0174729,1.81052,6,0.000565243,10,3.16351e-05,-2.7422,0.154319,0.382324,26.9838,0.0174729,
2,1,0,1,0,11001.2,0.0192744,0.0190011,1.84393,6,0.000634141,10,3.50367e-05,-2.73426,0.171202,0.344622,24.8288,0.0190011,
2,1,0,1,0,11001.2,0.0207743,0.0204517,1.88098,6,0.00070476,10,3.84693e-05,-2.72562,0.165473,0.356554,26.2156,0.0204517,
2,1,0,1,0,11001.2,0.0222743,0.0219901,1.92385,6,0.000776789,10,4.23057e-05,-2.71583,0.174311,0.338475,25.4429,0.0219901,
2,1,0,1,0,11001.3,0.0237707,0.0234614,1.95761,6,0.000850073,10,4.59283e-05,-2.70827,0.185748,0.317634,24.2996,0.0234614,
2,1,0,1,0,11001.3,0.0252671,0.0249366,1.99059,6,0.000924619,10,4.96386e-05,-2.70102,0.18701,0.31549,24.5901,0.0249366,
2,1,0,1,0,11001.3,0.0267671,0.0264279,2.03491,6,0.00100069,10,5.37784e-05,-2.69145,0.179611,0.328487,25.9995,0.0264279,
2,1,0,1,0,11001.4,0.0282671,0.0279433,2.07401,6,0.00107829,10,5.79546e-05,-2.68319,0.184051,0.320563,25.8468,0.0279433,
2,1,0,1,0,11001.4,0.0297626,0.0294604,2.11132,6,0.00115707,10,6.22003e-05,-2.67545,0.21312,0.276839,22.7279,0.0294604,
2,1,0,1,0,11001.5,0.0312581,0.0309757,2.13783,6,0.00123722,10,6.62208e-05,-2.67003,0.208545,0.282913,23.6376,0.03097566,
2,1,0,1,0,11001.5,0.0327616,0.0324483,2.17576,6,0.00131901,10,7.05996e-05,-2.66239,0.193287,0.305246,26.0091,0.0324483,
2,1,0,1,0,11001.5,0.034258,0.0339574,2.2099,6,0.00140183,10,7.50423e-05,-2.65563,0.19707,0.299386,25.9363,0.0339574,
2,1,0,1,0,11001.6,0.0357545,0.0354324,2.25203,6,0.00148617,10,7.97949e-05,-2.64742,0.235796,0.250217,21.9724,0.0354324,
2,1,0,1,0,11001.6,0.0372544,0.0369316,2.29332,6,0.00157211,10,8.46961e-05,-2.63953,0.215555,0.273712,24.4767,0.0369316,
2,1,0,1,0,11001.6,0.0387544,0.038431,2.32627,6,0.00165924,10,8.94008e-05,-2.63334,0.210947,0.279691,25.4383,0.038431,
2,1,0,1,0,11001.7,0.0402508,0.0399235,2.36704,6,0.00174762,10,9.45005e-05,-2.62579,0.210186,0.280704,25.8727,0.0399235,
2,1,0,1,0,11001.7,0.0417472,0.0414686,2.40619,6,0.00183759,10,9.97813e-05,-2.61867,0.215713,0.273511,25.609,0.0414686,
2,1,0,1,0,11001.8,0.0432472,0.0429522,2.44534,6,0.00192909,10,0.000105033,-2.61166,0.2395,0.246346,23.4827,0.0429522,
2,1,0,1,0,11001.8,0.0447472,0.0444412,2.47235,6,0.00202185,10,0.000109874,-2.60689,0.230789,0.255645,24.7149,0.0444412,
2,1,0,1,0,11001.8,0.0462427,0.0459192,2.50948,6,0.00211573,10,0.000115233,-2.60042,0.232882,0.253348,24.841,0.0459192,
2,1,0,1,0,11001.9,0.0477382,0.0474531,2.5452,6,0.00221098,10,0.000120778,-2.59428,0.235259,0.250788,24.9506,0.0474531,
2,1,0,1,0,11001.9,0.0492417,0.0489063,2.58576,6,0.00230809,10,0.00012646,-2.58741,0.256587,0.229941,23.1441,0.0489063,
2,1,0,1,0,11001.9,0.0507381,0.0504227,2.61328,6,0.00240599,10,0.000131769,-2.58281,0.274575,0.214878,21.9288,0.0504227,
2,1,0,1,0,11002,0.0522345,0.0519081,2.65508,6,0.00250507,10,0.00013782,-2.57592,0.253083,0.233126,24.0976,0.0519081,
2,1,0,1,0,11002,0.0537345,0.0534132,2.69484,6,0.0026058,10,0.00014394,-2.56947,0.255655,0.23078,24.1549,0.0534132,
2,1,0,1,0,11002.1,0.0552345,0.0549427,2.72217,6,0.00270796,10,0.000149563,-2.56508,0.273472,0.215744,22.8925,0.0549427,
2,1,0,1,0,11002.1,0.0567309,0.056417,2.75169,6,0.00281108,10,0.000155242,-2.5604,0.313956,0.187924,20.2226,0.056417,
2,1,0,1,0,11002.1,0.0582273,0.0578878,2.7844,6,0.00291527,10,0.000161183,-2.55527,0.306513,0.192488,20.9819,0.0578878,
2,1,0,1,0,11002.2,0.0597309,0.0594308,2.81661,6,0.00302126,10,0.000167393,-2.55027,0.281012,0.209956,23.1067,0.0594308,
2,1,0,1,0,11002.2,0.0612264,0.0609482,2.85142,6,0.00312798,10,0.000173789,-2.54494,0.302828,0.19483,21.6474,0.0609482,
2,1,0,1,0,11002.2,0.0627219,0.0624338,2.88946,6,0.00323592,10,0.0001804,-2.53918,0.335014,0.176112,19.7874,0.0624338,
2,1,0,1,0,11002.3,0.0642218,0.0638729,2.91398,6,0.00334516,10,0.000186124,-2.53551,0.31602,0.186697,21.1963,0.0638729,
2,1,0,1,0,11002.3,0.0657218,0.0653966,2.94323,6,0.00345553,10,0.000192477,-2.53118,0.309885,0.190393,21.8383,0.06539657,
2,1,0,1,0,11002.4,0.0672182,0.0669186,2.9748,6,0.00356689,10,0.000199069,-2.52654,0.322337,0.183039,21.2308,0.0669186,
2,1,0,1,0,11002.4,0.0687146,0.0683953,3.00261,6,0.00367939,10,0.000205364,-2.5225,0.396174,0.148924,17.4616,0.0683953,
2,1,0,1,0,11002.4,0.0702146,0.0698257,3.02487,6,0.00379309,10,0.000211214,-2.51929,0.404132,0.145992,17.2834,0.0698257,
2,1,0,1,0,11002.5,0.0717146,0.0713733,3.05677,6,0.00390783,10,0.000218172,-2.51474,0.334443,0.176413,21.0336,0.0713733,
2,1,0,1,0,11002.5,0.073211,0.0728972,3.08701,6,0.00402339,10,0.000225035,-2.51046,0.36018,0.163807,19.7283,0.0728972,
2,1,0,1,0,11002.5,0.0747074,0.0743872,3.11836,6,0.00413999,10,0.000231966,-2.50607,0.428226,0.137778,16.7324,0.0743872,
2,1,0,1,0,11002.6,0.0762109,0.0758723,3.13676,6,0.00425821,10,0.000237993,-2.50352,0.398967,0.147882,18.1028,0.0758723,
2,1,0,1,0,11002.6,0.0777064,0.0773882,3.16488,6,0.00437668,10,0.000244924,-2.49964,0.416806,0.141553,17.4807,0.0773882,
2,1,0,1,0,11002.6,0.079202,0.0788782,3.19046,6,0.00449613,10,0.000251658,-2.49615,0.429833,0.137263,17.0736,0.0788782,
2,1,0,1,0,11002.7,0.0807019,0.0803936,3.20931,6,0.0046169,10,0.000258008,-2.49359,0.442287,0.133398,16.7158,0.0803936,
2,1,0,1,0,11002.7,0.0822019,0.0818776,3.23281,6,0.00473851,10,0.000264695,-2.49042,0.441395,0.133667,16.9182,0.0818776,
2,1,0,1,0,11002.8,0.0836983,0.0834205,3.25829,6,0.00486062,10,0.000271808,-2.48701,0.425322,0.138719,17.6811,0.0834205,
2,1,0,1,0,11002.8,0.0851947,0.0849151,3.28913,6,0.0049838,10,0.000279297,-2.48292,0.427326,0.138068,17.7289,0.0849151,
2,1,0,1,0,11002.8,0.0866947,0.0863776,3.31694,6,0.00510832,10,0.000286509,-2.47926,0.4814,0.122559,15.8466,0.0863776,
2,1,0,1,0,11002.9,0.0881947,0.0878779,3.34745,6,0.00523387,10,0.000294166,-2.47529,0.425188,0.138762,18.1024,0.0878779,
2,1,0,1,0,11002.9,0.0896911,0.0893586,3.37274,6,0.00536,10,0.000301384,-2.47202,0.404306,0.145929,19.219,0.08935865,
2,1,0,1,0,11002.9,0.0911875,0.0908475,3.40488,6,0.00548728,10,0.000309325,-2.4679,0.338927,0.174079,23.15,0.0908475,
2,1,0,1,0,11003,0.0926901,0.0923791,3.44364,6,0.00561668,10,0.000318121,-2.46298,0.300719,0.196196,26.3513,0.0923791,
2,1,0,1,0,11003,0.0941856,0.0938788,3.47353,6,0.00574676,10,0.00032609,-2.45923,0.318544,0.185218,25.165,0.0938788,
2,1,0,1,0,11003.1,0.0956821,0.0953453,3.51019,6,0.0058781,10,0.00033468,-2.45467,0.291784,0.202204,27.7954,0.0953453,
2,1,0,1,0,11003.1,0.097182,0.0968301,3.55819,6,0.00601135,10,0.000344539,-2.44877,0.248895,0.237048,32.9445,0.0968301,
2,1,0,1,0,11003.1,0.098682,0.0983975,3.61236,6,0.00614644,10,0.000355447,-2.44221,0.239757,0.246082,34.6741,0.0983975,
2,1,0,1,0,11003.2,0.100178,0.0998567,3.66535,6,0.00628314,10,0.00036601,-2.43588,0.239968,0.245866,35.122,0.0998567,
2,1,0,1,0,11003.2,0.101675,0.101351,3.71238,6,0.0064218,10,0.000376252,-2.43035,0.232455,0.253812,36.8467,0.101351,
2,1,0,1,0,11003.2,0.103175,0.102864,3.77692,6,0.00656291,10,0.000388507,-2.42286,0.210891,0.279765,41.3077,0.102864,
2,1,0,1,0,11003.3,0.104675,0.10436,3.84454,6,0.00670648,10,0.000401215,-2.41516,0.198386,0.297399,44.6359,0.10436,
2,1,0,1,0,11003.3,0.106171,0.10586,3.90626,6,0.00685223,10,0.000413517,-2.40824,0.209518,0.281599,42.9527,0.10586,
2,1,0,1,0,11003.4,0.107667,0.107388,3.97435,6,0.00700036,10,0.000426799,-2.40073,0.211888,0.278449,43.219,0.107388,
2,1,0,1,0,11003.4,0.10917,0.108872,4.0422,6,0.00715164,10,0.000440081,-2.39338,0.205888,0.286563,45.2106,0.108872,
2,1,0,1,0,11003.4,0.110666,0.11034,4.10951,6,0.00730468,10,0.000453443,-2.38621,0.219024,0.269377,43.1563,0.11034,
2,1,0,1,0,11003.5,0.112162,0.111838,4.18029,6,0.00746026,10,0.000467514,-2.37879,0.228905,0.257749,41.9018,0.111838,
2,1,0,1,0,11003.5,0.113662,0.113343,4.24014,6,0.00761866,10,0.000480592,-2.37262,0.241848,0.243954,40.2832,0.1133435,
2,1,0,1,0,11003.5,0.115162,0.114833,4.28923,6,0.00777916,10,0.000492544,-2.36762,0.261143,0.22593,37.8375,0.114833,
2,1,0,1,0,11003.6,0.116658,0.116317,4.34476,6,0.0079414,10,0.000505371,-2.36203,0.265558,0.222174,37.7062,0.116317,
2,1,0,1,0,11003.6,0.118155,0.117843,4.40505,6,0.00810578,10,0.000519106,-2.35605,0.299018,0.197313,33.8899,0.1178434,
2,1,0,1,0,11003.7,0.119655,0.119344,4.4463,6,0.0082725,10,0.000530642,-2.352,0.388426,0.151895,26.3656,0.119344,
2,1,0,1,0,11003.7,0.121155,0.120816,4.48894,6,0.00844075,10,0.000542336,-2.34786,0.390885,0.150939,26.4473,0.120816,
2,1,0,1,0,11003.7,0.122651,0.122318,4.53187,6,0.00860999,10,0.00055433,-2.34372,0.354788,0.166297,29.3897,0.122318,
2,1,0,1,0,11003.8,0.124147,0.123865,4.57655,6,0.00878085,10,0.000566874,-2.33946,0.394355,0.149611,26.651,0.123865,
2,1,0,1,0,11003.8,0.12565,0.125362,4.6098,6,0.00895415,10,0.000577894,-2.33632,0.4414,0.133666,24.0227,0.125362,
2,1,0,1,0,11003.8,0.127146,0.126804,4.64013,6,0.00912783,10,0.000588385,-2.33347,0.444457,0.132746,24.0637,0.126804,
2,1,0,1,0,11003.9,0.128642,0.128297,4.6757,6,0.00930275,10,0.000599878,-2.33015,0.45576,0.129454,23.6644,0.128297,
2,1,0,1,0,11003.9,0.130142,0.129831,4.71413,6,0.00947958,10,0.000612041,-2.3266,0.439647,0.134199,24.7127,0.129831,
2,1,0,1,0,11004,0.131642,0.13135,4.75538,6,0.00965786,10,0.000624619,-2.32281,0.481188,0.122613,22.7261,0.13135,
2,1,0,1,0,11004,0.133139,0.132865,4.7927,6,0.00983702,10,0.000636783,-2.31942,0.508641,0.115995,21.6631,0.132865,
2,1,0,1,0,11004,0.134635,0.134303,4.82213,6,0.0100172,10,0.000647625,-2.31676,0.614006,0.0960903,18.0583,0.134303,
2,1,0,1,0,11004.1,0.136135,0.135821,4.84717,6,0.0101991,10,0.000658345,-2.31451,0.741903,0.0795252,15.0071,0.135821,
2,1,0,1,0,11004.1,0.137635,0.137373,4.86972,6,0.0103818,10,0.000668966,-2.3125,1.23708,0.047693,9.03719,0.137373,
2,1,0,1,0,11004.1,0.13913,0.138838,4.87221,6,0.0105646,10,0.000676448,-2.31227,18.4314,0.00320105,0.607089,0.1388381,
2,1,0,1,0,11004.2,0.140626,0.140301,4.86093,6,0.0107474,10,0.000681992,-2.31328,-1.21216,-0.0486734,-9.22599,0.140301,
2,1,0,1,0,11004.2,0.14213,0.141825,4.84296,6,0.0109306,10,0.000686853,-2.31489,-0.586341,-0.100624,-18.9717,0.141825,
2,1,0,1,0,11004.3,0.143626,0.143339,4.81018,6,0.0111119,10,0.000689485,-2.31784,-0.311645,-0.189318,-35.3541,0.143339,
2,1,0,1,0,11004.3,0.145122,0.144782,4.74442,6,0.0112912,10,0.000686905,-2.32382,-0.196101,-0.300865,-55.362,0.144782,
2,1,0,1,0,11004.3,0.146622,0.146331,4.64405,6,0.0114678,10,0.00067957,-2.3331,-0.15382,-0.383564,-69.2347,0.146331,
2,1,0,1,0,11004.4,0.148122,0.147803,4.53359,6,0.0116405,10,0.000670079,-2.34356,-0.127023,-0.464484,-81.7115,0.147803,
2,1,0,1,0,11004.4,0.149619,0.14929,4.39822,6,0.0118082,10,0.00065661,-2.35672,-0.106885,-0.551996,-94.2863,0.14929,
2,1,0,1,0,11004.4,0.151115,0.150812,4.24241,6,0.0119705,10,0.000639808,-2.37239,-0.0902214,-0.653947,-107.882,0.150812,
2,1,0,1,0,11004.5,0.152615,0.152314,4.07165,6,0.0121271,10,0.00062017,-2.39023,-0.0823408,-0.716534,-113.809,0.152314,
2,1,0,1,0,11004.5,0.154115,0.1538,3.89829,6,0.0122772,10,0.000599556,-2.40913,-0.0765527,-0.77071,-117.255,0.1538,
2,1,0,1,0,11004.6,0.155611,0.15529,3.72396,6,0.0124203,10,0.000578295,-2.42899,-0.0739752,-0.797565,-115.84,0.15529,
2,1,0,1,0,11004.6,0.157106,0.156783,3.55131,6,0.012557,10,0.000556786,-2.44961,-0.0715065,-0.8251,-114.16,0.156783,
2,1,0,1,0,11004.6,0.15861,0.158291,3.38288,6,0.0126879,10,0.00053548,-2.47071,-0.0725299,-0.813458,-107.455,0.158291,
2,1,0,1,0,11004.7,0.160106,0.159814,3.22628,6,0.0128119,10,0.000515606,-2.4913,-0.076875,-0.76748,-96.9183,0.159814,
2,1,0,1,0,11004.7,0.161602,0.161298,3.08838,6,0.0129305,10,0.000498149,-2.51027,-0.0809197,-0.729118,-88.0607,0.161298,
2,1,0,1,0,11004.7,0.163102,0.16279,2.96057,6,0.0130445,10,0.000481952,-2.52863,-0.0851524,-0.692875,-80.3494,0.16279,
2,1,0,1,0,11004.8,0.164602,0.164314,2.8487,6,0.0131541,10,0.00046808,-2.54535,-0.0940425,-0.627376,-70.0551,0.164314,
2,1,0,1,0,11004.8,0.166099,0.165757,2.74314,6,0.0132593,10,0.000454696,-2.56175,-0.100584,-0.586572,-63.1755,0.165757,
2,1,0,1,0,11004.9,0.167595,0.16724,2.65872,6,0.013361,10,0.000444643,-2.57533,-0.114355,-0.515937,-53.674,0.16724,
2,1,0,1,0,11004.9,0.169095,0.168805,2.58218,6,0.0134599,10,0.000435885,-2.58801,-0.121167,-0.486932,-49.1193,0.168805,
2,1,0,1,0,11004.9,0.170595,0.170305,2.51566,6,0.013556,10,0.000428429,-2.59935,-0.124669,-0.473252,-46.3779,0.170305,
2,1,0,1,0,11005,0.172091,0.171792,2.4429,6,0.0136492,10,0.000419671,-2.61209,-0.132773,-0.444367,-42.4321,0.171792,
2,1,0,1,0,11005,0.173586,0.173251,2.38629,6,0.0137402,10,0.000413427,-2.62228,-0.153923,-0.383308,-35.7979,0.173251,
2,1,0,1,0,11005,0.17509,0.174799,2.33273,6,0.0138295,10,0.000407759,-2.63214,-0.165703,-0.356059,-32.5115,0.174799,
2,1,0,1,0,11005.1,0.176586,0.176251,2.28427,6,0.0139167,10,0.000402604,-2.64125,-0.170456,-0.34613,-30.9434,0.176251,
2,1,0,1,0,11005.1,0.178083,0.177731,2.23921,6,0.0140021,10,0.000397977,-2.64991,-0.183944,-0.32075,-28.193,0.177731,
2,1,0,1,0,11005.2,0.179582,0.179295,2.20319,6,0.0140862,10,0.000395021,-2.65695,-0.214858,-0.2746,-23.7157,0.179295,
2,1,0,1,0,11005.2,0.181082,0.18077,2.17424,6,0.0141689,10,0.000393038,-2.66269,-0.25236,-0.233793,-19.8355,0.18077,
2,1,0,1,0,11005.2,0.182579,0.182286,2.14664,6,0.0142503,10,0.000391302,-2.66824,-0.241169,-0.244642,-20.4162,0.182286,
2,1,0,1,0,11005.3,0.184075,0.18374,2.11813,6,0.0143305,10,0.000389185,-2.67405,-0.264,-0.223485,-18.4237,0.18374,
2,1,0,1,0,11005.3,0.185579,0.185272,2.08757,6,0.01441,10,0.000386768,-2.68036,-0.296936,-0.198696,-16.1986,0.185272,
2,1,0,1,0,11005.3,0.187074,0.186761,2.06044,6,0.0144882,10,0.00038481,-2.68604,-0.362119,-0.16293,-13.1313,0.186761,
2,1,0,1,0,11005.4,0.18857,0.188254,2.03969,6,0.0145656,10,0.00038398,-2.69043,-0.393096,-0.15009,-11.9775,0.188254,
2,1,0,1,0,11005.4,0.19007,0.189758,2.01972,6,0.0146425,10,0.000383257,-2.69471,-0.377491,-0.156295,-12.3529,0.189758,
2,1,0,1,0,11005.5,0.19157,0.191254,2.00047,6,0.0147186,10,0.0003826,-2.69887,-0.414747,-0.142255,-11.1545,0.191254,
2,1,0,1,0,11005.5,0.193066,0.192764,1.9871,6,0.0147938,10,0.000383041,-2.70178,-0.497777,-0.118527,-9.19299,0.192764,
2,1,0,1,0,11005.5,0.194563,0.194242,1.97864,6,0.0148686,10,0.000384334,-2.70363,-0.494402,-0.119336,-9.19194,0.194242,
2,1,0,1,0,11005.6,0.196063,0.195735,1.96378,6,0.014943,10,0.000384379,-2.70691,-0.449179,-0.131351,-10.04,0.195735,
2,1,0,1,0,11005.6,0.197563,0.197245,1.94271,6,0.0150169,10,0.000383191,-2.71159,-0.523639,-0.112673,-8.56017,0.197245,
2,1,0,1,0,11005.6,0.199059,0.198775,1.93285,6,0.01509,10,0.000384202,-2.7138,-0.525987,-0.11217,-8.46419,0.1987748,
2,1,0,1,0,11005.7,0.200555,0.200221,1.92099,6,0.0151627,10,0.000384623,-2.71647,-0.592902,-0.0995105,-7.46665,0.200221,
2,1,0,1,0,11005.7,0.202059,0.201769,1.91521,6,0.0152355,10,0.000386429,-2.71778,-0.750159,-0.07865,-5.86629,0.2017688,
2,1,0,1,0,11005.8,0.203554,0.203266,1.90173,6,0.0153074,10,0.000386557,-2.72085,-0.771428,-0.0764815,-5.68485,0.203266,
2,1,0,1,0,11005.8,0.20505,0.204733,1.89355,6,0.0153789,10,0.000387672,-2.72272,-1.0249,-0.0575666,-4.26294,0.204733,
2,1,0,1,0,11005.8,0.20655,0.20627,1.88763,6,0.0154504,10,0.000389362,-2.72408,-1.09526,-0.0538687,-3.96197,0.20627,
2,1,0,1,0,11005.9,0.20805,0.207778,1.88137,6,0.0155218,10,0.000390908,-2.72553,-0.644961,-0.0914784,-6.68592,0.207778,
2,1,0,1,0,11005.9,0.209546,0.209242,1.87156,6,0.0155926,10,0.000391608,-2.7278,-0.661123,-0.089242,-6.52141,0.209242,
2,1,0,1,0,11005.9,0.211043,0.210763,1.85706,6,0.0156628,10,0.000391399,-2.73117,-0.706341,-0.0835291,-6.07257,0.210763,
2,1,0,1,0,11006,0.212543,0.212269,1.8496,6,0.0157331,10,0.000392613,-2.73292,-1.05924,-0.0557001,-4.03526,0.212269,
2,1,0,1,0,11006,0.214043,0.213725,1.84457,6,0.0158032,10,0.000394232,-2.7341,-1.15128,-0.0512471,-3.70106,0.213725,
2,1,0,1,0,11006.1,0.215539,0.215282,1.84099,6,0.0158728,10,0.000396333,-2.73495,-0.70723,-0.083424,-5.99245,0.215282,
2,1,0,1,0,11006.1,0.217035,0.216721,1.83007,6,0.0159421,10,0.000396615,-2.73753,-0.910473,-0.0648015,-4.63278,0.216721,
2,1,0,1,0,11006.1,0.218538,0.218248,1.83122,6,0.0160115,10,0.000399659,-2.73726,-1.42648,-0.0413607,-2.94058,0.2182478,
2,1,0,1,0,11006.2,0.220034,0.219734,1.82232,6,0.0160804,10,0.000400426,-2.73938,-1.3978,-0.0422091,-2.99848,0.2197344,
2,1,0,1,0,11006.2,0.22153,0.221245,1.81926,6,0.0161491,10,0.000402501,-2.74011,-0.974129,-0.0605669,-4.29152,0.221245,
2,1,0,1,0,11006.2,0.22303,0.222682,1.80444,6,0.0162177,10,0.000401815,-2.74366,-0.938221,-0.062885,-4.44977,0.222682,
2,1,0,1,0,11006.3,0.22453,0.224279,1.80176,6,0.0162861,10,0.000404097,-2.7443,-1.49498,-0.0394655,-2.78504,0.224279,
2,1,0,1,0,11006.3,0.226026,0.225718,1.80126,6,0.0163542,10,0.000406577,-2.74442,-1.36979,-0.0430722,-3.02959,0.225718,
2,1,0,1,0,11006.4,0.227523,0.227227,1.79563,6,0.0164221,10,0.000408016,-2.74578,-0.79563,-0.074155,-5.19619,0.227227,
2,1,0,1,0,11006.4,0.229023,0.228685,1.79509,6,0.01649,10,0.000410509,-2.74591,-0.960365,-0.061435,-4.29414,0.228685,
2,1,0,1,0,11006.4,0.230523,0.23022,1.79218,6,0.0165576,10,0.000412596,-2.74662,-1.70604,-0.034583,-2.41372,0.23022,
2,1,0,1,0,11006.5,0.232019,0.231708,1.78314,6,0.0166249,10,0.000413168,-2.74881,-2.46326,-0.023952,-1.66395,0.231708,
2,1,0,1,0,11006.5,0.233515,0.233241,1.77867,6,0.0166922,10,0.000414859,-2.7499,-1.10405,-0.0534398,-3.70628,0.233241,
2,1,0,1,0,11006.5,0.235018,0.234739,1.7745,6,0.0167596,10,0.000416545,-2.75092,-1.35552,-0.0435259,-3.01361,0.234739,
2,1,0,1,0,11006.6,0.236514,0.236219,1.7616,6,0.0168264,10,0.000416123,-2.75409,-1.19318,-0.0494476,-3.42071,0.236219,
2,1,0,1,0,11006.6,0.23801,0.237693,1.76343,6,0.0168931,10,0.000419154,-2.75364,-2.73411,-0.0215793,-1.4873,0.237693,
2,1,0,1,0,11006.7,0.23951,0.23923,1.76251,6,0.0169598,10,0.000421645,-2.75387,-1.17724,-0.050117,-3.44969,0.23923,
2,1,0,1,0,11006.7,0.24101,0.24074,1.7602,6,0.0170265,10,0.000423752,-2.75444,-1.17388,-0.0502608,-3.44139,0.24074,
2,1,0,1,0,11006.7,0.242506,0.242201,1.75322,6,0.0170927,10,0.000424633,-2.75616,-1.22279,-0.0482504,-3.29648,0.242201,
2,1,0,1,0,11006.8,0.244003,0.243692,1.74988,6,0.0171587,10,0.000426433,-2.75699,-3.63924,-0.0162122,-1.10513,0.243692,
2,1,0,1,0,11006.8,0.245503,0.245193,1.74795,6,0.0172249,10,0.000428585,-2.75747,-1.69212,-0.0348675,-2.37672,0.245193,
2,1,0,1,0,11006.8,0.247003,0.246682,1.73973,6,0.0172909,10,0.00042916,-2.75952,-1.2788,-0.0461371,-3.13493,0.246682,
2,1,0,1,0,11006.9,0.248499,0.248217,1.73042,6,0.0173566,10,0.000429519,-2.76185,-2.07303,-0.0284607,-1.93132,0.248217,
2,1,0,1,0,11006.9,0.249995,0.249717,1.72972,6,0.017422,10,0.000431938,-2.76203,-1.76181,-0.0334884,-2.26714,0.249717,
2,1,0,1,0,11007,0.251498,0.251192,1.73063,6,0.0174878,10,0.000434721,-2.76179,-7.1684,-0.00823057,-0.555064,0.251192,
2,1,0,1,0,11007,0.252994,0.252694,1.72594,6,0.017553,10,0.000436135,-2.76297,-1.0901,-0.0541235,-3.6394,0.252694,
2,1,0,1,0,11007,0.25449,0.254189,1.72588,6,0.0176182,10,0.000438699,-2.76299,-1.86535,-0.0316294,-2.11853,0.254189,
2,1,0,1,0,11007.1,0.25599,0.255693,1.71796,6,0.0176832,10,0.000439271,-2.76499,-4.09695,-0.0144009,-0.966217,0.255693,
2,1,0,1,0,11007.1,0.25749,0.257192,1.71359,6,0.0177482,10,0.000440722,-2.76609,-2.84221,-0.0207585,-1.38753,0.2571919,
2,1,0,1,0,11007.1,0.258987,0.258667,1.7091,6,0.017813,10,0.000442087,-2.76723,-1.98836,-0.0296726,-1.98407,0.258667,
2,1,0,1,0,11007.2,0.260483,0.260196,1.70633,6,0.0178777,10,0.000443982,-2.76794,-0.842124,-0.070061,-4.67979,0.260196,
2,1,0,1,0,11007.2,0.261983,0.261666,1.69888,6,0.0179423,10,0.000444539,-2.76984,-1.49136,-0.0395611,-2.63569,0.261666,
2,1,0,1,0,11007.3,0.263483,0.263241,1.70139,6,0.0180067,10,0.000447875,-2.7692,-15.7011,-0.00375769,-0.249409,0.263241,
2,1,0,1,0,11007.3,0.264978,0.264705,1.69962,6,0.0180709,10,0.000449898,-2.76965,-2.52731,-0.023345,-1.54611,0.264705,
2,1,0,1,0,11007.3,0.266474,0.266204,1.6962,6,0.018135,10,0.000451535,-2.77052,-1.37468,-0.042919,-2.83144,0.266204,
2,1,0,1,0,11007.4,0.267977,0.267684,1.68629,6,0.0181992,10,0.000451393,-2.77307,-1.63551,-0.0360743,-2.3774,0.267684,
2,1,0,1,0,11007.4,0.269474,0.269184,1.6858,6,0.0182629,10,0.000453792,-2.77319,-3.50622,-0.0168272,-1.10895,0.269184,
2,1,0,1,0,11007.4,0.27097,0.27072,1.68808,6,0.0183266,10,0.000456997,-2.77261,-2.38671,-0.0247203,-1.62449,0.27072,
2,1,0,1,0,11007.5,0.27247,0.272167,1.67957,6,0.0183904,10,0.000457123,-2.7748,-1.06943,-0.0551694,-3.61772,0.272167,
2,1,0,1,0,11007.5,0.27397,0.27371,1.67241,6,0.0184539,10,0.000457755,-2.77666,-1.40697,-0.0419342,-2.74858,0.27371,
2,1,0,1,0,11007.6,0.275467,0.275138,1.67332,6,0.0185171,10,0.000460395,-2.77642,-1.43209,-0.0411987,-2.68987,0.275138,
2,1,0,1,0,11007.6,0.276963,0.276633,1.66873,6,0.0185802,10,0.000461625,-2.77761,-12.1834,-0.00484266,-0.315044,0.276633,
2,1,0,1,0,11007.6,0.278463,0.278176,1.66837,6,0.0186434,10,0.0004641,-2.77771,-0.841301,-0.0701294,-4.54693,0.278176,
2,1,0,1,0,11007.7,0.279963,0.279676,1.66858,6,0.0187065,10,0.000466662,-2.77765,-1.38756,-0.0425207,-2.75231,0.279676,
2,1,0,1,0,11007.7,0.281459,0.281169,1.65427,6,0.0187691,10,0.000465129,-2.78139,-1.02377,-0.0576299,-3.73202,0.281169,
2,1,0,1,0,11007.7,0.282954,0.282647,1.65663,6,0.0188317,10,0.000468243,-2.78077,-9.70999,-0.00607622,-0.392087,0.282647,
2,1,0,1,0,11007.8,0.284458,0.284124,1.65166,6,0.0188945,10,0.000469277,-2.78208,-2.21526,-0.0266335,-1.72029,0.284124,
2,1,0,1,0,11007.8,0.285954,0.28562,1.64695,6,0.0189569,10,0.0004704,-2.78332,-1.34584,-0.0438387,-2.81983,0.28562,
2,1,0,1,0,11007.9,0.28745,0.287125,1.64064,6,0.019019,10,0.000471069,-2.78499,-1.11807,-0.0527695,-3.38679,0.287125,
2,1,0,1,0,11007.9,0.28895,0.288633,1.64238,6,0.0190812,10,0.000474044,-2.78453,-3.96318,-0.014887,-0.9504,0.288633,
2,1,0,1,0,11007.9,0.29045,0.290129,1.63816,6,0.0191433,10,0.000475279,-2.78564,-1.62036,-0.0364116,-2.32421,0.2901293,
2,1,0,1,0,11008,0.291947,0.291647,1.63544,6,0.0192051,10,0.000476971,-2.78637,-1.13749,-0.0518687,-3.30418,0.291647,
2,1,0,1,0,11008,0.293443,0.29315,1.62869,6,0.0192667,10,0.000477452,-2.78816,-1.28856,-0.0457874,-2.91754,0.29315,
2,1,0,1,0,11008,0.294943,0.294603,1.62651,6,0.0193283,10,0.000479175,-2.78874,-2.35079,-0.0250979,-1.59742,0.294603,
2,1,0,1,0,11008.1,0.296443,0.296166,1.6226,6,0.0193899,10,0.000480557,-2.78979,-2.03107,-0.0290487,-1.84078,0.296166,
2,1,0,1,0,11008.1,0.297939,0.29766,1.61809,6,0.0194512,10,0.00048164,-2.791,-0.953265,-0.0618925,-3.89766,0.29766,
2,1,0,1,0,11008.2,0.299434,0.299113,1.61331,6,0.0195124,10,0.000482561,-2.79228,-0.0115738,-5.09772,-260.421,0.299113,
2,1,0,0,0,11008.2,0.299962,0.299785,1.53362,6,0.0195364,10,0.000459755,-2.81428,0.000328717,179.485,1923.28,0.299785,
2,1,0,1,0,11008.2,0.298689,0.298379,0.188738,6,0.0195572,10,5.63154e-05,-3.72414,0.00423165,13.9426,586.578,0.298379,
2,0,0,1,0,11008.2,0.297189,0.296864,-0.217884,6,0.0195546,10,-6.46819e-05,-3.66177,0.0363902,1.62131,225.781,0.2968637,
2,0,0,1,0,11008.3,0.295692,0.295385,-0.367464,6,0.0195426,10,-0.000108543,-3.43479,-0.0072276,-8.16315,84.6371,0.295385,
2,0,0,1,0,11008.3,0.294196,0.293879,-0.44518,6,0.0195265,10,-0.000130829,-3.35146,-0.0202066,-2.91984,47.9787,0.293879,
2,0,0,1,0,11008.4,0.292696,0.292406,-0.502926,6,0.0195079,10,-0.000147059,-3.2985,-0.0321124,-1.8373,35.4568,0.292406,
2,0,0,1,0,11008.4,0.291196,0.290897,-0.551304,6,0.0194874,10,-0.000160373,-3.25861,-0.0419686,-1.40581,29.6487,0.290897,
2,0,0,1,0,11008.4,0.2897,0.289371,-0.591593,6,0.0194653,10,-0.00017119,-3.22798,-0.0560791,-1.05209,23.9937,0.289371,
2,0,0,1,0,11008.5,0.288205,0.287888,-0.62653,6,0.0194419,10,-0.00018037,-3.20306,-0.0699254,-0.843757,20.3454,0.287888,
2,0,0,1,0,11008.5,0.286701,0.286373,-0.650799,6,0.0194171,10,-0.000186371,-3.18655,-0.0755437,-0.781005,19.7336,0.286373,
2,0,0,1,0,11008.5,0.285205,0.284919,-0.681541,6,0.0193915,10,-0.000194184,-3.16651,-0.0881296,-0.669468,17.6982,0.284919,
2,0,0,1,0,11008.6,0.283708,0.283406,-0.706385,6,0.0193648,10,-0.000200194,-3.15096,-0.0937149,-0.629569,17.3371,0.283406,
2,0,0,1,0,11008.6,0.282208,0.281914,-0.729219,6,0.0193371,10,-0.000205577,-3.13714,-0.115061,-0.512773,14.5602,0.281914,
2,0,0,1,0,11008.7,0.280709,0.280386,-0.750235,6,0.0193085,10,-0.000210356,-3.1248,-0.138958,-0.424587,12.5366,0.280386,
2,0,0,1,0,11008.7,0.279212,0.278913,-0.770032,6,0.0192794,10,-0.000214772,-3.11349,-0.128113,-0.460532,13.9202,0.278913,
2,0,0,1,0,11008.7,0.277716,0.277411,-0.79185,6,0.0192494,10,-0.000219668,-3.10136,-0.145722,-0.404881,12.5025,0.277411,
2,0,0,1,0,11008.8,0.276216,0.275917,-0.816222,6,0.0192186,10,-0.000225209,-3.08819,-0.159456,-0.370009,11.6702,0.275917,
2,0,0,1,0,11008.8,0.274716,0.274408,-0.830782,6,0.0191871,10,-0.000227973,-3.08051,-0.16799,-0.351211,11.2957,0.274408,
2,0,0,1,0,11008.8,0.27322,0.272866,-0.847435,6,0.0191552,10,-0.000231236,-3.07189,-0.160547,-0.367494,12.0967,0.272866,
2,0,0,1,0,11008.9,0.271725,0.271415,-0.85612,6,0.0191226,10,-0.000232364,-3.06747,-0.140561,-0.419748,14.092,0.271415,
2,0,0,1,0,11008.9,0.270221,0.269917,-0.875432,6,0.0190891,10,-0.000236294,-3.05778,-0.187027,-0.315462,10.8398,0.2699165,
2,0,0,1,0,11009,0.268725,0.268409,-0.89369,6,0.0190552,10,-0.000239874,-3.04881,-0.283093,-0.208412,7.2942,0.268409,
2,0,0,1,0,11009,0.267228,0.266905,-0.902127,6,0.0190209,10,-0.000240782,-3.04473,-0.21632,-0.272744,9.67169,0.266905,
2,0,0,1,0,11009,0.265728,0.265443,-0.920196,6,0.018986,10,-0.00024426,-3.03612,-0.239566,-0.246279,8.86384,0.265443,
2,0,0,1,0,11009.1,0.264228,0.263873,-0.938806,6,0.0189505,10,-0.000247726,-3.02742,-0.226248,-0.260776,9.49189,0.263873,
2,0,0,1,0,11009.1,0.262732,0.262417,-0.948598,6,0.0189146,10,-0.000248928,-3.02292,-0.310606,-0.189951,6.9898,0.262417,
2,0,0,1,0,11009.1,0.261236,0.260873,-0.959345,6,0.0188783,10,-0.000250267,-3.01803,-0.254581,-0.231753,8.65823,0.260873,
2,0,0,1,0,11009.2,0.259736,0.259465,-0.970283,6,0.0188414,10,-0.000251754,-3.0131,-0.247403,-0.238477,9.07681,0.259465,
2,0,0,1,0,11009.2,0.258236,0.257957,-0.983852,6,0.018804,10,-0.000253791,-3.00707,-0.269534,-0.218896,8.42829,0.257957,
2,0,0,1,0,11009.3,0.256741,0.256408,-0.993368,6,0.0187661,10,-0.000254707,-3.00289,-0.328323,-0.179701,6.99055,0.256408,
2,0,0,1,0,11009.3,0.255241,0.254919,-1.00797,6,0.0187278,10,-0.00025695,-2.99655,-0.304268,-0.193908,7.65145,0.254919,
2,0,0,1,0,11009.3,0.253741,0.253446,-1.0153,6,0.0186892,10,-0.000257325,-2.9934,-0.312762,-0.188642,7.49845,0.253446,
2,0,0,1,0,11009.4,0.252245,0.251918,-1.03283,6,0.0186502,10,-0.000260188,-2.98597,-0.270681,-0.217969,8.72476,0.251918,
2,0,0,1,0,11009.4,0.250748,0.250367,-1.04423,6,0.0186107,10,-0.000261441,-2.9812,-0.351542,-0.167832,6.81031,0.250367,
2,0,0,1,0,11009.4,0.249248,0.248957,-1.05386,6,0.0185707,10,-0.000262365,-2.97722,-0.445914,-0.132312,5.40805,0.248957,
2,0,0,1,0,11009.5,0.247748,0.247447,-1.0603,6,0.0185305,10,-0.000262369,-2.97457,-0.36981,-0.159541,6.62293,0.247447,
2,0,0,1,0,11009.5,0.246252,0.245988,-1.0695,6,0.0184899,10,-0.000263084,-2.97082,-0.300627,-0.196256,8.22284,0.2459885,
2,0,0,1,0,11009.6,0.244756,0.244441,-1.08375,6,0.0184488,10,-0.000264912,-2.96507,-0.269266,-0.219114,9.29833,0.244441,
2,0,0,1,0,11009.6,0.243252,0.24294,-1.09242,6,0.0184071,10,-0.000265391,-2.96161,-0.393686,-0.149866,6.41145,0.2429395,
2,0,0,1,0,11009.6,0.241756,0.24145,-1.09915,6,0.0183653,10,-0.000265391,-2.95894,-0.37801,-0.15608,6.736,0.24145,
2,0,0,1,0,11009.7,0.240261,0.239928,-1.11343,6,0.0183232,10,-0.000267143,-2.95334,-0.400671,-0.147253,6.39362,0.239928,
2,0,0,1,0,11009.7,0.238761,0.238463,-1.12854,6,0.0182805,10,-0.000269115,-2.94748,-0.346564,-0.170243,7.44156,0.238463,
2,0,0,1,0,11009.7,0.237261,0.236907,-1.13258,6,0.0182374,10,-0.000268316,-2.94593,-0.762444,-0.0773827,3.40706,0.2369072,
2,0,0,1,0,11009.8,0.235765,0.235453,-1.1423,6,0.0181942,10,-0.000268959,-2.94222,-0.555894,-0.106135,4.73177,0.235453,
2,0,0,1,0,11009.8,0.234268,0.233936,-1.14662,6,0.0181507,10,-0.000268237,-2.94058,-0.424722,-0.138914,6.26015,0.233936,
2,0,0,1,0,11009.9,0.232768,0.232484,-1.15949,6,0.0181066,10,-0.000269562,-2.93573,-0.357243,-0.165154,7.503,0.232484,
2,0,0,1,0,11009.9,0.231268,0.230946,-1.16972,6,0.0180621,10,-0.000270143,-2.93192,-0.512611,-0.115097,5.25861,0.2309465,
2,0,0,1,0,11009.9,0.229772,0.229431,-1.18411,6,0.0180174,10,-0.000271672,-2.92661,-0.482678,-0.122235,5.63357,0.229431,
2,0,0,1,0,11010,0.228275,0.227979,-1.19072,6,0.0179725,10,-0.000271459,-2.92419,-0.430359,-0.137095,6.34951,0.227979,
2,0,0,1,0,11010,0.226772,0.226449,-1.20126,6,0.0179269,10,-0.000272025,-2.92036,-0.34385,-0.171587,7.98667,0.226449,
2,0,0,1,0,11010,0.225276,0.224963,-1.21066,6,0.0178812,10,-0.000272353,-2.91698,-0.436974,-0.13502,6.35569,0.224963,
2,0,0,1,0,11010.1,0.223781,0.223488,-1.21645,6,0.0178351,10,-0.000271862,-2.91491,-0.465306,-0.126798,6.03079,0.223488,
2,0,0,1,0,11010.1,0.222281,0.221983,-1.21786,6,0.0177886,10,-0.000270343,-2.9144,-0.480405,-0.122813,5.89402,0.221983,
2,0,0,1,0,11010.1,0.220781,0.220478,-1.23186,6,0.0177418,10,-0.000271598,-2.90944,-0.385134,-0.153193,7.40767,0.220478,
2,0,0,1,0,11010.2,0.219284,0.21895,-1.24493,6,0.0176946,10,-0.000272578,-2.90485,-0.460835,-0.128028,6.22376,0.21895,
2,0,0,1,0,11010.2,0.217788,0.217474,-1.25515,6,0.0176471,10,-0.000272962,-2.9013,-0.52635,-0.112093,5.47591,0.217474,
2,0,0,1,0,11010.3,0.216288,0.216001,-1.26103,6,0.0175992,10,-0.000272383,-2.89927,-0.649987,-0.090771,4.47073,0.216001,
2,0,0,1,0,11010.3,0.214788,0.21443,-1.27287,6,0.017551,10,-0.000272942,-2.89522,-0.529903,-0.111341,5.52454,0.21443,
2,0,0,1,0,11010.3,0.213292,0.212967,-1.28691,6,0.0175025,10,-0.00027407,-2.89045,-0.404264,-0.145944,7.30889,0.2129671,
2,0,0,1,0,11010.4,0.211796,0.211473,-1.296,6,0.0174536,10,-0.000274069,-2.8874,-0.606236,-0.0973218,4.89886,0.211473,
2,0,0,1,0,11010.4,0.210293,0.209982,-1.2984,6,0.0174041,10,-0.000272642,-2.88659,-0.472409,-0.124892,6.35537,0.209982,
2,0,0,1,0,11010.4,0.208797,0.208509,-1.30835,6,0.0173546,10,-0.000272804,-2.88327,-0.379441,-0.155492,8.00199,0.208509,
2,0,0,1,0,11010.5,0.207301,0.206985,-1.31854,6,0.0173047,10,-0.000272919,-2.87991,-0.346753,-0.17015,8.78619,0.206985,
2,0,0,1,0,11010.5,0.205801,0.205508,-1.33541,6,0.017254,10,-0.000274438,-2.87439,-0.498134,-0.118442,6.13436,0.205508,
2,0,0,1,0,11010.6,0.204301,0.203949,-1.34438,6,0.0172031,10,-0.000274185,-2.87148,-0.624536,-0.0944702,4.95438,0.203949,
2,0,0,1,0,11010.6,0.202804,0.202485,-1.35369,6,0.0171521,10,-0.000274102,-2.86848,-0.517278,-0.114059,6.00518,0.202485,
2,0,0,1,0,11010.6,0.201308,0.200992,-1.36763,6,0.0171006,10,-0.000274884,-2.86403,-0.406158,-0.145264,7.70785,0.200992,
2,0,0,1,0,11010.7,0.199808,0.199487,-1.37221,6,0.0170486,10,-0.000273738,-2.86258,-0.402714,-0.146506,7.87079,0.199487,
2,0,0,1,0,11010.7,0.198308,0.19801,-1.38317,6,0.0169962,10,-0.000273881,-2.85912,-0.481415,-0.122556,6.62847,0.1980098,
2,0,0,1,0,11010.7,0.196812,0.196502,-1.38889,6,0.0169435,10,-0.00027292,-2.85733,-0.473719,-0.124547,6.81127,0.196502,
2,0,0,1,0,11010.8,0.195316,0.194975,-1.40383,6,0.0168905,10,-0.000273711,-2.85269,-0.382135,-0.154396,8.48345,0.194975,
2,0,0,1,0,11010.8,0.193813,0.193507,-1.42259,6,0.0168367,10,-0.00027528,-2.84692,-0.392819,-0.150196,8.3056,0.193507,
2,0,0,1,0,11010.9,0.192317,0.191992,-1.43328,6,0.0167826,10,-0.000275178,-2.84367,-0.431055,-0.136874,7.61251,0.191992,
2,0,0,1,0,11010.9,0.190821,0.190536,-1.44039,6,0.0167281,10,-0.000274445,-2.84152,-0.379204,-0.155589,8.75342,0.190536,
2,0,0,1,0,11010.9,0.189321,0.18901,-1.45385,6,0.0166732,10,-0.000274791,-2.83748,-0.394727,-0.14947,8.49551,0.1890098,
2,0,0,1,0,11011,0.187821,0.187522,-1.46521,6,0.0166176,10,-0.000274759,-2.8341,-0.35005,-0.168547,9.68531,0.187522,
2,0,0,1,0,11011,0.186324,0.18603,-1.4787,6,0.0165616,10,-0.000275081,-2.83012,-0.479991,-0.122919,7.1236,0.18603,
2,0,0,1,0,11011,0.184828,0.18448,-1.49652,6,0.0165052,10,-0.000276078,-2.82492,-0.422214,-0.13974,8.19809,0.18448,
2,0,0,1,0,11011.1,0.183328,0.182995,-1.50966,6,0.0164481,10,-0.00027626,-2.82112,-0.3742,-0.15767,9.32306,0.182995,
2,0,0,1,0,11011.1,0.181828,0.181538,-1.53353,6,0.0163904,10,-0.000278393,-2.81431,-0.331678,-0.177883,10.617,0.181538,
2,0,0,1,0,11011.2,0.180332,0.179982,-1.55172,6,0.0163321,10,-0.000279282,-2.80919,-0.307419,-0.19192,11.5564,0.179982,
2,0,0,1,0,11011.2,0.178836,0.178548,-1.56589,6,0.0162732,10,-0.000279587,-2.80524,-0.307672,-0.191763,11.6767,0.178548,
2,0,0,1,0,11011.2,0.177333,0.177024,-1.58335,6,0.0162134,10,-0.000280291,-2.80042,-0.275599,-0.214079,13.2223,0.1770238,
2,0,0,1,0,11011.3,0.175837,0.175508,-1.59711,6,0.0161533,10,-0.000280306,-2.79666,-0.243815,-0.241987,15.1169,0.175508,
2,0,0,1,0,11011.3,0.174341,0.174039,-1.61736,6,0.0160923,10,-0.000281484,-2.79119,-0.235807,-0.250204,15.8727,0.1740392,
2,0,0,1,0,11011.3,0.172841,0.172505,-1.64143,6,0.0160303,10,-0.000283155,-2.78478,-0.262806,-0.2245,14.427,0.172505,
2,0,0,1,0,11011.4,0.171341,0.170988,-1.66154,6,0.0159676,10,-0.000284103,-2.77949,-0.24486,-0.240954,15.7107,0.170988,
2,0,0,1,0,11011.4,0.169844,0.169528,-1.69272,6,0.0159041,10,-0.000286963,-2.77142,-0.226921,-0.260002,17.1891,0.169528,
2,0,0,1,0,11011.5,0.168348,0.167997,-1.72959,6,0.0158395,10,-0.000290566,-2.76206,-0.19423,-0.303763,20.3909,0.167997,
2,0,0,1,0,11011.5,0.166848,0.16651,-1.75412,6,0.0157736,10,-0.000292078,-2.75594,-0.194714,-0.303009,20.6747,0.16651,
2,0,0,1,0,11011.5,0.165348,0.165035,-1.78231,6,0.0157066,10,-0.000294144,-2.74902,-0.184226,-0.320258,22.2896,0.165035,
2,0,0,1,0,11011.6,0.163852,0.163541,-1.81117,6,0.0156387,10,-0.000296201,-2.74204,-0.180412,-0.32703,23.2458,0.163541,
2,0,0,1,0,11011.6,0.162357,0.162034,-1.84997,6,0.0155694,10,-0.000299759,-2.73284,-0.157219,-0.375272,27.2366,0.162034,
2,0,0,1,0,11011.6,0.160853,0.160531,-1.8922,6,0.0154982,10,-0.000303757,-2.72303,-0.155549,-0.379301,28.0817,0.160531,
2,0,0,1,0,11011.7,0.159357,0.159067,-1.93732,6,0.0154258,10,-0.000308163,-2.7128,-0.144394,-0.408605,30.932,0.159067,
2,0,0,1,0,11011.7,0.157861,0.15753,-1.98668,6,0.0153519,10,-0.000312961,-2.70187,-0.135321,-0.436001,33.7825,0.15753,
2,0,0,1,0,11011.8,0.156361,0.156012,-2.04237,6,0.0152757,10,-0.000318634,-2.68987,-0.120295,-0.490462,39.0575,0.156012,
2,0,0,1,0,11011.8,0.154861,0.154497,-2.10372,6,0.0151973,10,-0.000325017,-2.67701,-0.114522,-0.515183,42.2724,0.154497,
2,0,0,1,0,11011.8,0.153364,0.153061,-2.16818,6,0.0151168,10,-0.000331864,-2.66391,-0.115282,-0.51179,43.3835,0.153061,
2,0,0,1,0,11011.9,0.151868,0.151533,-2.23397,6,0.0150338,10,-0.000338521,-2.65092,-0.0998251,-0.591034,51.7509,0.151533,
2,0,0,1,0,11011.9,0.150368,0.150051,-2.31268,6,0.0149478,10,-0.000347019,-2.63588,-0.0939993,-0.627664,56.9157,0.1500506,
2,0,0,1,0,11011.9,0.148868,0.148546,-2.4005,6,0.0148587,10,-0.000356586,-2.6197,-0.0885202,-0.666514,62.7289,0.148546,
2,0,0,1,0,11012,0.147372,0.14706,-2.49855,6,0.0147663,10,-0.000367436,-2.60231,-0.0879242,-0.671032,65.5128,0.14706,
2,0,0,1,0,11012,0.145877,0.145579,-2.59915,6,0.0146702,10,-0.000378383,-2.58517,-0.0812954,-0.725749,73.8493,0.145579,
2,0,0,1,0,11012.1,0.144373,0.144026,-2.71859,6,0.0145696,10,-0.000391547,-2.56566,-0.0779785,-0.756619,80.3003,0.144026,
2,0,0,1,0,11012.1,0.142877,0.14257,-2.84729,6,0.014465,10,-0.000405937,-2.54557,-0.0766632,-0.769601,85.3258,0.14257,
2,0,0,1,0,11012.1,0.14138,0.14106,-2.97343,6,0.0143555,10,-0.000419431,-2.52674,-0.0760122,-0.776191,90.0512,0.14106,
2,0,0,1,0,11012.2,0.13988,0.139609,-3.1079,6,0.0142406,10,-0.00043389,-2.50753,-0.0772217,-0.764034,92.8429,0.139609,
2,0,0,1,0,11012.2,0.13838,0.138054,-3.24853,6,0.0141206,10,-0.000448472,-2.48831,-0.0792498,-0.744481,94.7022,0.138054,
2,0,0,1,0,11012.2,0.136884,0.13657,-3.39959,6,0.0139954,10,-0.000464282,-2.46857,-0.0787682,-0.749033,99.4313,0.13657,
2,0,0,1,0,11012.3,0.135388,0.135116,-3.55545,6,0.0138645,10,-0.000480396,-2.44911,-0.0830748,-0.710203,98.3382,0.135116,
2,0,0,1,0,11012.3,0.133888,0.133547,-3.70579,6,0.0137278,10,-0.000494898,-2.43112,-0.0877382,-0.672455,96.8778,0.133547,
2,0,0,1,0,11012.4,0.132389,0.132074,-3.84663,6,0.0135857,10,-0.000508041,-2.41492,-0.0934899,-0.631084,94.3859,0.132074,
2,0,0,1,0,11012.4,0.130893,0.130555,-3.98789,6,0.0134386,10,-0.000520639,-2.39926,-0.0982749,-0.600357,93.1129,0.1305552,
2,0,0,1,0,11012.4,0.129393,0.129056,-4.11737,6,0.0132859,10,-0.000531369,-2.38538,-0.106925,-0.551786,88.5232,0.129056,
2,0,0,1,0,11012.5,0.127893,0.127577,-4.24914,6,0.0131282,10,-0.000542094,-2.3717,-0.118569,-0.497603,82.2546,0.127577,
2,0,0,1,0,11012.5,0.126397,0.126038,-4.3528,6,0.0129664,10,-0.000548618,-2.36123,-0.136886,-0.431016,73.3177,0.126038,
2,0,0,1,0,11012.5,0.1249,0.12459,-4.47077,6,0.0128005,10,-0.000557015,-2.34962,-0.147485,-0.400041,69.6517,0.12459,
2,0,0,1,0,11012.6,0.1234,0.123091,-4.57164,6,0.0126302,10,-0.000562729,-2.33993,-0.169083,-0.348942,62.0535,0.123091,
2,0,0,1,0,11012.6,0.1219,0.121602,-4.65927,6,0.0124564,10,-0.000566575,-2.33168,-0.206878,-0.285193,51.6352,0.121602,
2,0,0,1,0,11012.7,0.120404,0.120076,-4.73215,6,0.0122801,10,-0.000568217,-2.32494,-0.235482,-0.25055,46.1262,0.120076,
2,0,0,1,0,11012.7,0.118908,0.118638,-4.79575,6,0.0121013,10,-0.000568959,-2.31914,-0.278227,-0.212057,39.6002,0.118638,
2,0,0,1,0,11012.7,0.117404,0.117057,-4.85012,6,0.0119193,10,-0.000567741,-2.31425,-0.336718,-0.175221,33.1019,0.117057,
2,0,0,1,0,11012.8,0.115909,0.115598,-4.89217,6,0.0117364,10,-0.000565527,-2.3105,-0.45847,-0.128689,24.5107,0.115598,
2,0,0,1,0,11012.8,0.114413,0.1141,-4.91939,6,0.0115521,10,-0.000561304,-2.30809,-0.637483,-0.0925515,17.764,0.1141,
2,0,0,1,0,11012.8,0.112913,0.112601,-4.93846,6,0.0113665,10,-0.000556076,-2.30641,-0.856071,-0.0689195,13.2897,0.1126011,
2,0,0,1,0,11012.9,0.111413,0.111129,-4.95661,6,0.01118,10,-0.000550822,-2.30482,-1.42234,-0.0414811,8.01423,0.111129,
2,0,0,1,0,11012.9,0.109917,0.109534,-4.9712,6,0.0109937,10,-0.000544517,-2.30354,18.1571,0.00324942,-0.628212,0.109534,
2,0,0,1,0,11013,0.10842,0.108117,-4.9665,6,0.0108074,10,-0.000536964,-2.30395,2.17524,0.0271234,-5.23907,0.108117,
2,0,0,1,0,11013,0.10692,0.106645,-4.94615,6,0.0106209,10,-0.000527481,-2.30573,0.982128,0.0600737,-11.5781,0.106645,
2,0,0,1,0,11013,0.10542,0.105086,-4.92555,6,0.0104351,10,-0.000517606,-2.30755,0.745992,0.0790894,-15.2007,0.105086,
2,0,0,1,0,11013.1,0.103924,0.10361,-4.90461,6,0.0102505,10,-0.000508164,-2.3094,0.595798,0.0990269,-18.9377,0.10361,
2,0,0,1,0,11013.1,0.102427,0.10213,-4.86969,6,0.0100669,10,-0.000497342,-2.3125,0.458642,0.128641,-24.4425,0.10213,
2,0,0,1,0,11013.1,0.100924,0.100615,-4.82288,6,0.00988387,10,-0.000485256,-2.31669,0.376788,0.156587,-29.5154,0.100615,
2,0,0,1,0,11013.2,0.0994284,0.0991164,-4.78344,6,0.00970346,10,-0.000474117,-2.32026,0.362767,0.162639,-30.3028,0.09911637,
2,0,0,1,0,11013.2,0.0979329,0.0976402,-4.73929,6,0.00952469,10,-0.000462745,-2.32429,0.326477,0.180717,-33.3338,0.0976402,
2,0,0,1,0,11013.3,0.0964329,0.0961195,-4.68384,6,0.00934746,10,-0.000450208,-2.3294,0.277879,0.212323,-38.7162,0.0961195,
2,0,0,1,0,11013.3,0.094933,0.0946058,-4.62307,6,0.0091723,10,-0.000437369,-2.33507,0.277314,0.212755,-38.3451,0.0946058,
2,0,0,1,0,11013.3,0.0934366,0.0931136,-4.55981,6,0.00899995,10,-0.00042458,-2.34105,0.267789,0.220323,-39.2641,0.0931136,
2,0,0,1,0,11013.4,0.0919401,0.0916268,-4.50439,6,0.00882968,10,-0.000412723,-2.34636,0.277037,0.212968,-37.4826,0.0916268,
2,0,0,1,0,11013.4,0.0904402,0.0901586,-4.44826,6,0.008661,10,-0.000401049,-2.35181,0.268896,0.219416,-38.1122,0.0901586,
2,0,0,1,0,11013.4,0.0889402,0.0886042,-4.39254,6,0.00849449,10,-0.000389198,-2.35728,0.268916,0.2194,-37.6479,0.0886042,
2,0,0,1,0,11013.5,0.0874438,0.0871595,-4.34033,6,0.00833067,10,-0.000378301,-2.36248,0.291921,0.202109,-34.2318,0.0871595,
2,0,0,1,0,11013.5,0.0859483,0.0856104,-4.29033,6,0.00816876,10,-0.000367297,-2.36751,0.325389,0.181321,-30.3271,0.08561039,
2,0,0,1,0,11013.6,0.0844447,0.0841335,-4.24461,6,0.00800775,10,-0.000357114,-2.37216,0.330704,0.178407,-29.5178,0.0841335,
2,0,0,1,0,11013.6,0.0829492,0.0826225,-4.1992,6,0.00784928,10,-0.000346949,-2.37683,0.348181,0.169452,-27.7807,0.0826225,
2,0,0,1,0,11013.6,0.0814528,0.0811985,-4.15034,6,0.00769245,10,-0.000337002,-2.38192,0.35908,0.164309,-26.6604,0.0811985,
2,0,0,1,0,11013.7,0.0799528,0.0796073,-4.11281,6,0.00753663,10,-0.00032741,-2.38586,0.434598,0.135758,-21.8424,0.07960733,
2,0,0,1,0,11013.7,0.0784529,0.0781147,-4.08439,6,0.00738208,10,-0.000319051,-2.38887,0.446229,0.132219,-21.111,0.0781147,
2,0,0,1,0,11013.7,0.0769565,0.0766221,-4.05356,6,0.0072291,10,-0.000310592,-2.39216,0.43828,0.134617,-21.313,0.0766221,
2,0,0,1,0,11013.8,0.0754601,0.0751352,-4.02016,6,0.00707731,10,-0.000302055,-2.39576,0.459191,0.128487,-20.1804,0.0751352,
2,0,0,1,0,11013.8,0.0739601,0.073678,-3.99624,6,0.0069263,10,-0.000294435,-2.39835,0.491448,0.120054,-18.7285,0.073678,
2,0,0,1,0,11013.9,0.0724601,0.0721395,-3.97391,6,0.00677623,10,-0.000286676,-2.40078,0.543645,0.108527,-16.8157,0.0721395,
2,0,0,1,0,11013.9,0.0709637,0.0706106,-3.95161,6,0.0066274,10,-0.000279026,-2.40323,0.538258,0.109613,-16.8684,0.0706106,
2,0,0,1,0,11013.9,0.0694682,0.069173,-3.91904,6,0.00647948,10,-0.000271091,-2.40682,0.61372,0.0961351,-14.7239,0.069173,
2,0,0,1,0,11014,0.0679646,0.0676092,-3.89733,6,0.00633184,10,-0.000263495,-2.40923,0.61645,0.0957093,-14.5966,0.0676092,
2,0,0,1,0,11014,0.0664691,0.0661744,-3.87097,6,0.00618576,10,-0.000256159,-2.41218,0.641186,0.0920169,-13.9293,0.06617438,
2,0,0,1,0,11014,0.0649727,0.0646401,-3.85494,6,0.00604038,10,-0.000249184,-2.41398,0.586364,0.10062,-15.1265,0.0646401,
2,0,0,1,0,11014.1,0.0634727,0.0631797,-3.83659,6,0.00589543,10,-0.000242394,-2.41606,0.548886,0.10749,-16.0741,0.0631797,
2,0,0,1,0,11014.1,0.0619728,0.0616681,-3.80646,6,0.00575155,10,-0.000234737,-2.41948,0.531352,0.111038,-16.5001,0.0616681,
2,0,0,1,0,11014.2,0.0604764,0.0601263,-3.7907,6,0.00560891,10,-0.000227921,-2.42128,0.587425,0.100438,-14.8128,0.0601263,
2,0,0,1,0,11014.2,0.05898,0.0586265,-3.76595,6,0.00546707,10,-0.000220785,-2.42412,0.569382,0.103621,-15.2059,0.0586265,
2,0,0,1,0,11014.2,0.05748,0.057126,-3.73748,6,0.00532572,10,-0.000213507,-2.42742,0.502555,0.1174,-17.1282,0.057126,
2,0,0,1,0,11014.3,0.05598,0.055661,-3.70653,6,0.00518536,10,-0.000206309,-2.43103,0.528123,0.111716,-16.2085,0.055661,
2,0,0,1,0,11014.3,0.0544836,0.0541083,-3.68828,6,0.00504628,10,-0.000199566,-2.43318,0.660167,0.0893713,-12.8701,0.0541083,
2,0,0,1,0,11014.3,0.0529881,0.0526808,-3.66939,6,0.00490797,10,-0.000193307,-2.43541,0.609546,0.0967933,-13.8549,0.0526808,
2,0,0,1,0,11014.4,0.0514846,0.0511406,-3.64252,6,0.00476977,10,-0.00018628,-2.4386,0.478836,0.123215,-17.499,0.0511406,
2,0,0,1,0,11014.4,0.049989,0.0496298,-3.61549,6,0.0046333,10,-0.000179436,-2.44183,0.48682,0.121195,-17.1018,0.0496298,
2,0,0,1,0,11014.5,0.0484926,0.0481485,-3.59015,6,0.00449792,10,-0.00017286,-2.44489,0.475134,0.124175,-17.386,0.0481485,
2,0,0,1,0,11014.5,0.0469927,0.0466985,-3.56608,6,0.00436301,10,-0.000166531,-2.44781,0.477883,0.123461,-17.1607,0.0466985,
2,0,0,1,0,11014.5,0.0454927,0.0451442,-3.53872,6,0.00422908,10,-0.000159753,-2.45115,0.403923,0.146067,-20.1677,0.0451442,
2,0,0,1,0,11014.6,0.0439963,0.0436554,-3.50758,6,0.0040965,10,-0.000153125,-2.45499,0.414667,0.142283,-19.5076,0.0436554,
2,0,0,1,0,11014.6,0.0424999,0.0422056,-3.47867,6,0.00396512,10,-0.00014682,-2.45859,0.461925,0.127726,-17.3953,0.04220565,
2,0,0,1,0,11014.6,0.0409999,0.0407094,-3.45349,6,0.0038344,10,-0.000140589,-2.46174,0.445621,0.132399,-17.8575,0.0407094,
2,0,0,1,0,11014.7,0.0394999,0.0391856,-3.43477,6,0.00370457,10,-0.000134594,-2.4641,0.405307,0.145569,-19.4277,0.0391856,
2,0,0,1,0,11014.7,0.0380044,0.0376617,-3.4025,6,0.00357616,10,-0.000128144,-2.4682,0.375735,0.157026,-20.7907,0.0376617,
2,0,0,1,0,11014.8,0.0365089,0.0361783,-3.3644,6,0.00344908,10,-0.000121718,-2.47309,0.367853,0.16039,-21.052,0.0361783,
2,0,0,1,0,11014.8,0.0350054,0.0347009,-3.33513,6,0.00332243,10,-0.000115732,-2.47689,0.410321,0.14379,-18.7105,0.0347009,
2,0,0,1,0,11014.8,0.033509,0.033182,-3.30212,6,0.00319754,10,-0.000109571,-2.48121,0.37451,0.157539,-20.3221,0.03318195,
2,0,0,1,0,11014.9,0.0320125,0.0317335,-3.27265,6,0.00307378,10,-0.000103853,-2.4851,0.333627,0.176844,-22.6099,0.0317335,
2,0,0,1,0,11014.9,0.0305126,0.0301784,-3.23329,6,0.00295098,10,-9.75754e-05,-2.49036,0.339487,0.173792,-22.014,0.0301784,
2,0,0,1,0,11014.9,0.0290126,0.0286942,-3.20541,6,0.00282939,10,-9.19768e-05,-2.49412,0.394605,0.149517,-18.7402,0.0286942,
2,0,0,1,0,11015,0.0275162,0.027211,-3.18752,6,0.0027092,10,-8.67357e-05,-2.49655,0.339676,0.173695,-21.5413,0.027211,
2,0,0,1,0,11015,0.0260198,0.0256881,-3.15552,6,0.00259009,10,-8.10593e-05,-2.50093,0.308087,0.191504,-23.498,0.0256881,
2,0,0,1,0,11015.1,0.0245198,0.0242439,-3.11321,6,0.0024719,10,-7.54763e-05,-2.50679,0.362094,0.162941,-19.8168,0.0242439,
2,0,0,1,0,11015.1,0.0230198,0.0226647,-3.09157,6,0.00235499,10,-7.00694e-05,-2.50982,0.380322,0.155132,-18.7117,0.0226647,
2,0,0,1,0,11015.1,0.0215243,0.0212374,-3.06354,6,0.00223932,10,-6.50617e-05,-2.51378,0.386552,0.152632,-18.2285,0.0212374,
2,0,0,1,0,11015.2,0.0200288,0.0197104,-3.03035,6,0.00212461,10,-5.97295e-05,-2.51851,0.389355,0.151532,-17.9528,0.0197104,
2,0,0,1,0,11015.2,0.0185253,0.0182042,-3.00435,6,0.0020103,10,-5.46918e-05,-2.52225,0.388743,0.151771,-17.8256,0.0182042,
2,0,0,1,0,11015.2,0.0170289,0.016722,-2.98007,6,0.00189769,10,-4.98328e-05,-2.52577,0.459579,0.128378,-14.9707,0.016722,
2,0,0,1,0,11015.3,0.0155325,0.0152041,-2.95943,6,0.00178599,10,-4.49954e-05,-2.52879,0.487375,0.121057,-13.9714,0.0152041,
2,0,0,1,0,11015.3,0.0140325,0.0137045,-2.94203,6,0.00167464,10,-4.03191e-05,-2.53135,0.459857,0.128301,-14.6779,0.0137045,
2,0,0,1,0,11015.4,0.0125325,0.0121936,-2.92043,6,0.00156411,10,-3.56105e-05,-2.53455,0.494458,0.119323,-13.582,0.01219357,
2,0,0,1,0,11015.4,0.0110361,0.0106947,-2.89706,6,0.00145479,10,-3.09832e-05,-2.53804,0.506203,0.116554,-13.1899,0.0106947,
2,0,0,1,0,11015.4,0.0095397,0.00922635,-2.87822,6,0.00134606,10,-2.65555e-05,-2.54088,0.741205,0.0796001,-8.95308,0.00922635,
2,0,0,1,0,11015.5,0.00803616,0.00774606,-2.86427,6,0.00123735,10,-2.21868e-05,-2.54299,0.766354,0.076988,-8.62578,0.00774606,
2,0,0,1,0,11015.5,0.00654064,0.0062327,-2.85148,6,0.00112973,10,-1.77725e-05,-2.54493,0.825101,0.0715064,-7.97227,0.0062327,
2,0,0,1,0,11015.5,0.00504513,0.00470487,-2.83485,6,0.00102259,10,-1.33376e-05,-2.54747,0.854908,0.0690132,-7.6537,0.00470487,
2,0,0,1,0,11015.6,0.00354515,0.00321219,-2.83255,6,0.000915635,10,-9.09871e-06,-2.54782,-2.6869,-0.0219584,2.43939,0.00321219,
2,0,0,1,0,11015.6,0.00204518,0.00168737,-2.86854,6,0.00080866,10,-4.84028e-06,-2.54234,4.61174,0.0127934,-1.41136,0.001687366,
2,0,0,1,0,11015.7,0.000548773,0.000169243,-2.83635,6,0.000701486,10,-4.80031e-07,-2.54724, , , ,0.000169243,
2,0,0,1,0,11015.7,0.000177222,-0.000205455,-2.82396,6,0.000674971,10,5.80196e-07,-2.54914, , , ,-0.000205455,