File: Figure_codes/Fig_3-5/rawdata_trumpetplot_data/after 10th/20221101_1-115_003_TrumpetPlot_ParaChange_from10_every3_11_CV_C01_24.csv
mode,ox/red,error,control changes,counter inc.,time/s,control/V,Ewe/V,<I>/mA,cycle number,(Q-Qo)/C,I Range,P/W,log(|I|),Tafel slope mV/dec,alpha_eff,dI/d(E-IR),E-IR/V,
2,1,0,1,0,48477.7,2.44065e-05,-0.000248974,9.53395,25,0.0000000E+000,10,-2.37371e-06,-2.02073, , , ,-0.000248974,
2,1,0,1,0,48477.7,0.00214129,0.00174035,10.5437,25,5.17338e-05,10,1.83497e-05,-1.97701, , , ,0.00174035,
2,1,0,1,0,48477.7,0.00454949,0.0042111,11.3327,25,0.00011756,10,4.77231e-05,-1.94567,0.0862462,0.684088,297.889,0.0042111,
2,1,0,1,0,48477.7,0.0069466,0.0065705,11.9545,25,0.00018752,10,7.85473e-05,-1.92247,0.110565,0.533622,247.006,0.0065705,
2,1,0,1,0,48477.7,0.0093437,0.00897444,12.5026,25,0.000260986,10,0.000112204,-1.903,0.132014,0.446924,216.972,0.00897444,
2,1,0,1,0,48477.7,0.0117408,0.0114335,12.9933,25,0.000337539,10,0.000148559,-1.88628,0.15081,0.391222,197.768,0.0114335,
2,1,0,1,0,48477.7,0.0141462,0.0137855,13.4541,25,0.000416944,10,0.000185471,-1.87115,0.17015,0.346754,181.48,0.0137855,
2,1,0,1,0,48477.7,0.0165433,0.0161916,13.8719,25,0.000498992,10,0.000224608,-1.85786,0.192392,0.306666,165.527,0.0161916,
2,1,0,1,0,48477.7,0.0189404,0.0185764,14.2455,25,0.000583398,10,0.00026463,-1.84632,0.210326,0.280517,155.801,0.0185764,
2,1,0,1,0,48477.7,0.0213486,0.0210154,14.6235,25,0.00067003,10,0.000307318,-1.83495,0.229818,0.256725,146.167,0.0210154,
2,1,0,1,0,48477.7,0.0237457,0.0234129,14.9603,25,0.000758821,10,0.000350263,-1.82506,0.252518,0.233647,136.097,0.0234129,
2,1,0,1,0,48477.7,0.0261429,0.0258042,15.2657,25,0.000849539,10,0.000393919,-1.81628,0.269866,0.218627,130.231,0.0258042,
2,1,0,1,0,48477.7,0.02854,0.0281752,15.5689,25,0.000942077,10,0.000438658,-1.80774,0.285625,0.206565,125.444,0.0281752,
2,1,0,1,0,48477.7,0.0309482,0.0305951,15.878,25,0.00103649,10,0.00048579,-1.7992,0.306662,0.192394,118.971,0.0305951,
2,1,0,1,0,48477.7,0.0333453,0.0329757,16.1438,25,0.00113257,10,0.000532353,-1.79199,0.32895,0.179358,112.963,0.0329757,
2,1,0,1,0,48477.7,0.0357424,0.0354136,16.405,25,0.00123025,10,0.00058096,-1.78502,0.342301,0.172363,110.348,0.0354136,
2,1,0,1,0,48477.7,0.0381478,0.0378186,16.6749,25,0.00132953,10,0.000630619,-1.77794,0.360406,0.163704,106.446,0.0378186,
2,1,0,1,0,48477.8,0.0405449,0.0401843,16.9255,25,0.00143036,10,0.00068014,-1.77146,0.382564,0.154223,101.802,0.0401843,
2,1,0,1,0,48477.8,0.042942,0.0425808,17.1642,25,0.00153265,10,0.000730868,-1.76538,0.384393,0.153489,102.841,0.0425808,
2,1,0,1,0,48477.8,0.0453391,0.0449837,17.4031,25,0.00163638,10,0.000782858,-1.75937,0.395432,0.149204,101.356,0.0449837,
2,1,0,1,0,48477.8,0.0477473,0.0474121,17.6531,25,0.00174162,10,0.00083697,-1.75318,0.413626,0.142641,98.1686,0.0474121,
2,1,0,1,0,48477.8,0.0501444,0.0498202,17.8754,25,0.00184824,10,0.000890555,-1.74775,0.427553,0.137995,96.2817,0.0498202,
2,1,0,1,0,48477.8,0.0525415,0.0521871,18.1018,25,0.0019562,10,0.000944677,-1.74228,0.425417,0.138687,98.0324,0.0521871,
2,1,0,1,0,48477.8,0.0549469,0.0545921,18.3533,25,0.0020656,10,0.00100194,-1.73629,0.434702,0.135725,97.1268,0.0545921,
2,1,0,1,0,48477.8,0.057344,0.0569706,18.5721,25,0.00217642,10,0.00105806,-1.73114,0.452902,0.130271,94.4378,0.0569706,
2,1,0,1,0,48477.8,0.0597411,0.0593883,18.7998,25,0.00228856,10,0.00111649,-1.72585,0.451299,0.130734,95.9958,0.0593883,
2,1,0,1,0,48477.8,0.0621438,0.0618071,19.0471,25,0.00240212,10,0.00117724,-1.72017,0.449265,0.131326,97.5502,0.06180707,
2,1,0,1,0,48477.8,0.0645465,0.064229,19.2783,25,0.00251711,10,0.00123823,-1.71493,0.461905,0.127732,96.0674,0.064229,
2,1,0,1,0,48477.8,0.0669436,0.0666287,19.5049,25,0.00263347,10,0.00129959,-1.70986,0.462706,0.127511,97.0522,0.0666287,
2,1,0,1,0,48477.8,0.0693407,0.0689903,19.7365,25,0.0027512,10,0.00136163,-1.70473,0.459421,0.128422,98.933,0.06899026,
2,1,0,1,0,48477.8,0.0717489,0.071356,19.9786,25,0.00287037,10,0.00142559,-1.69943,0.465514,0.126742,98.7728,0.071356,
2,1,0,1,0,48477.8,0.074146,0.0737791,20.2082,25,0.00299095,10,0.00149094,-1.69447,0.475291,0.124134,97.9249,0.0737791,
2,1,0,1,0,48477.8,0.0765431,0.0761586,20.4401,25,0.00311292,10,0.00155669,-1.68952,0.46665,0.126433,100.914,0.0761586,
2,1,0,1,0,48477.8,0.0789485,0.0786304,20.6911,25,0.00323634,10,0.00162695,-1.68422,0.47188,0.125032,100.95,0.0786304,
2,1,0,1,0,48477.9,0.0813456,0.0810153,20.9285,25,0.00336126,10,0.00169553,-1.67926,0.478575,0.123283,100.682,0.0810153,
2,1,0,1,0,48477.9,0.0837427,0.0833821,21.1741,25,0.0034876,10,0.00176554,-1.6742,0.477403,0.123585,102.164,0.0833821,
2,1,0,1,0,48477.9,0.0861398,0.0857988,21.4245,25,0.00361541,10,0.0018382,-1.66909,0.483871,0.121933,101.909,0.08579877,
2,1,0,1,0,48477.9,0.088548,0.0881932,21.6701,25,0.00374474,10,0.00191115,-1.66414,0.493047,0.119664,101.175,0.0881932,
2,1,0,1,0,48477.9,0.0909451,0.0905865,21.9044,25,0.00387547,10,0.00198425,-1.65947,0.505822,0.116642,99.7579,0.0905865,
2,1,0,1,0,48477.9,0.0933422,0.0929968,22.1519,25,0.00400766,10,0.00206006,-1.65459,0.509649,0.115766,100.038,0.0929968,
2,1,0,1,0,48477.9,0.0957477,0.0953965,22.3941,25,0.00414132,10,0.00213632,-1.64987,0.527467,0.111855,97.6875,0.0953965,
2,1,0,1,0,48477.9,0.0981447,0.0977633,22.6096,25,0.00427635,10,0.00221039,-1.64571,0.525264,0.112325,99.1835,0.0977633,
2,1,0,1,0,48477.9,0.100542,0.100127,22.8644,25,0.00441279,10,0.00228934,-1.64084,0.499303,0.118165,105.474,0.100127,
2,1,0,1,0,48477.9,0.102939,0.10256,23.111,25,0.00455074,10,0.00237025,-1.63618,0.510696,0.115529,104.199,0.10256,
2,1,0,1,0,48477.9,0.105347,0.104995,23.3683,25,0.00469025,10,0.00245357,-1.63137,0.531584,0.110989,101.16,0.104995,
2,1,0,1,0,48477.9,0.107744,0.107427,23.6058,25,0.00483121,10,0.0025359,-1.62698,0.53891,0.10948,100.885,0.107427,
2,1,0,1,0,48477.9,0.110141,0.10979,23.8564,25,0.0049736,10,0.00261921,-1.62239,0.536907,0.109889,102.301,0.10979,
2,1,0,1,0,48477.9,0.11255,0.112185,24.1059,25,0.0051175,10,0.00270432,-1.61788,0.537852,0.109696,103.155,0.112185,
2,1,0,1,0,48477.9,0.114947,0.114542,24.3404,25,0.00526284,10,0.002788,-1.61367,0.53803,0.109659,104.233,0.114542,
2,1,0,1,0,48477.9,0.117344,0.117005,24.6018,25,0.00540968,10,0.00287854,-1.60903,0.519853,0.113494,108.991,0.117005,
2,1,0,1,0,48477.9,0.119744,0.119397,24.8684,25,0.00555811,10,0.0029692,-1.60435,0.524643,0.112457,109.099,0.119397,
2,1,0,1,0,48478,0.122146,0.121813,25.1272,25,0.00570813,10,0.00306083,-1.59986,0.514517,0.114671,112.494,0.121813,
2,1,0,1,0,48478,0.124543,0.124188,25.4005,25,0.00585971,10,0.00315443,-1.59516,0.499035,0.118228,117.239,0.1241876,
2,1,0,1,0,48478,0.126941,0.12655,25.6908,25,0.00601303,10,0.00325118,-1.59022,0.487798,0.120952,121.26,0.12655,
2,1,0,1,0,48478,0.129349,0.129011,25.9798,25,0.00616806,10,0.00335169,-1.58536,0.496055,0.118938,120.619,0.129011,
2,1,0,1,0,48478,0.131746,0.131409,26.2793,25,0.00632486,10,0.00345334,-1.58039,0.483467,0.122035,125.163,0.131409,
2,1,0,1,0,48478,0.134143,0.133799,26.5832,25,0.00648346,10,0.00355681,-1.57539,0.474051,0.124459,129.14,0.133799,
2,1,0,1,0,48478,0.13654,0.136194,26.8962,25,0.00664391,10,0.00366309,-1.57031,0.481328,0.122578,128.634,0.136194,
2,1,0,1,0,48478,0.138945,0.138614,27.2064,25,0.00680626,10,0.0037712,-1.56533,0.48067,0.122745,130.318,0.138614,
2,1,0,1,0,48478,0.141343,0.141012,27.5166,25,0.00697043,10,0.00388017,-1.5604,0.483904,0.121925,130.966,0.141012,
2,1,0,1,0,48478,0.14374,0.14333,27.839,25,0.00713654,10,0.00399017,-1.55535,0.48848,0.120783,131.162,0.14333,
2,1,0,1,0,48478,0.146148,0.145817,28.1463,25,0.00730456,10,0.0041042,-1.55058,0.511346,0.115382,126.735,0.145817,
2,1,0,1,0,48478,0.148545,0.148169,28.4484,25,0.00747439,10,0.00421516,-1.54594,0.517654,0.113976,126.566,0.148169,
2,1,0,1,0,48478,0.150942,0.150593,28.7604,25,0.00764606,10,0.00433112,-1.5412,0.542904,0.108675,121.917,0.150593,
2,1,0,1,0,48478,0.153345,0.152986,29.0474,25,0.00781952,10,0.00444385,-1.53689,0.555544,0.106202,120.374,0.152986,
2,1,0,1,0,48478,0.155747,0.155405,29.3333,25,0.00799469,10,0.00455854,-1.53264,0.582636,0.101264,115.877,0.155405,
2,1,0,1,0,48478,0.158144,0.157784,29.6164,25,0.00817155,10,0.004673,-1.52847,0.615798,0.0958106,110.649,0.157784,
2,1,0,1,0,48478.1,0.160542,0.1602,29.8653,25,0.00835002,10,0.00478443,-1.52483,0.659291,0.0894901,104.251,0.1602,
2,1,0,1,0,48478.1,0.162947,0.162597,30.1081,25,0.00852996,10,0.00489548,-1.52132,0.718655,0.0820978,96.4201,0.162597,
2,1,0,1,0,48478.1,0.165344,0.165029,30.3302,25,0.00871132,10,0.00500536,-1.51813,0.784593,0.0751982,88.958,0.165029,
2,1,0,1,0,48478.1,0.167741,0.167407,30.5374,25,0.00889396,10,0.00511216,-1.51517,0.898072,0.0656963,78.2287,0.167407,
2,1,0,1,0,48478.1,0.170149,0.169789,30.7156,25,0.00907774,10,0.00521518,-1.51264,1.07263,0.0550052,65.8524,0.169789,
2,1,0,1,0,48478.1,0.172547,0.172238,30.8426,25,0.00926244,10,0.00531227,-1.51085,1.3811,0.0427195,51.377,0.172238,
2,1,0,1,0,48478.1,0.174944,0.174603,30.9579,25,0.00944787,10,0.00540533,-1.50923,2.05618,0.028694,34.6168,0.174603,
2,1,0,1,0,48478.1,0.177341,0.177017,31.0132,25,0.00963381,10,0.00548986,-1.50845,4.42412,0.013336,16.1209,0.177017,
2,1,0,1,0,48478.1,0.179746,0.179454,31.0294,25,0.00981995,10,0.00556834,-1.50823,-27.8567,-0.00211798,-2.56173,0.179454,
2,1,0,1,0,48478.1,0.182143,0.181824,31.0031,25,0.0100061,10,0.0056371,-1.50859,-3.15338,-0.0187101,-22.5998,0.181824,
2,1,0,1,0,48478.1,0.18454,0.184202,30.923,25,0.0101919,10,0.00569608,-1.50972,-1.60216,-0.0368252,-44.3726,0.184202,
2,1,0,1,0,48478.1,0.186949,0.186602,30.7936,25,0.010377,10,0.00574615,-1.51154,-1.08336,-0.0544602,-65.366,0.186602,
2,1,0,1,0,48478.1,0.189346,0.188963,30.6163,25,0.0105612,10,0.00578534,-1.51405,-0.828753,-0.0711913,-84.9183,0.188963,
2,1,0,1,0,48478.1,0.191743,0.191368,30.3784,25,0.0107442,10,0.00581343,-1.51744,-0.663214,-0.0889607,-105.325,0.191368,
2,1,0,1,0,48478.1,0.19414,0.193821,30.094,25,0.0109257,10,0.00583285,-1.52152,-0.544729,-0.108311,-127.054,0.193821,
2,1,0,1,0,48478.1,0.196548,0.196216,29.7716,25,0.0111053,10,0.00584165,-1.5262,-0.469439,-0.125682,-145.822,0.196216,
2,1,0,1,0,48478.1,0.198945,0.198623,29.3971,25,0.0112827,10,0.00583894,-1.5317,-0.408916,-0.144284,-165.291,0.198623,
2,1,0,1,0,48478.2,0.201342,0.201032,28.9776,25,0.0114579,10,0.00582544,-1.53794,-0.365293,-0.161514,-182.423,0.201032,
2,1,0,1,0,48478.2,0.203748,0.203398,28.5257,25,0.0116303,10,0.00580206,-1.54476,-0.339992,-0.173533,-193.036,0.203398,
2,1,0,1,0,48478.2,0.206145,0.205798,28.0475,25,0.0118,10,0.0057721,-1.55211,-0.312277,-0.188935,-206.609,0.205798,
2,1,0,1,0,48478.2,0.208542,0.208281,27.5422,25,0.0119668,10,0.00573651,-1.56,-0.29531,-0.19979,-214.511,0.208281,
2,1,0,1,0,48478.2,0.210939,0.210594,26.9969,25,0.0121303,10,0.00568539,-1.56869,-0.278176,-0.212096,-223.473,0.210594,
2,1,0,1,0,48478.2,0.213347,0.21303,26.4674,25,0.0122907,10,0.00563835,-1.57729,-0.267913,-0.220221,-227.265,0.21303,
2,1,0,1,0,48478.2,0.215744,0.215472,25.9211,25,0.0124478,10,0.00558527,-1.58635,-0.261593,-0.225541,-227.966,0.215472,
2,1,0,1,0,48478.2,0.218141,0.217801,25.3495,25,0.0126016,10,0.00552116,-1.59603,-0.255557,-0.230868,-228.506,0.217801,
2,1,0,1,0,48478.2,0.220547,0.220255,24.8164,25,0.012752,10,0.00546594,-1.60526,-0.253351,-0.232878,-225.488,0.220255,
2,1,0,1,0,48478.2,0.222944,0.222641,24.2699,25,0.0128992,10,0.00540348,-1.61493,-0.252,-0.234127,-221.741,0.222641,
2,1,0,1,0,48478.2,0.225341,0.225024,23.7379,25,0.0130432,10,0.0053416,-1.62456,-0.252139,-0.233998,-216.897,0.225024,
2,1,0,1,0,48478.2,0.227744,0.227388,23.2254,25,0.013184,10,0.0052812,-1.63404,-0.255282,-0.231117,-209.555,0.227388,
2,1,0,1,0,48478.2,0.230146,0.229817,22.7305,25,0.0133218,10,0.00522385,-1.64339,-0.259634,-0.227243,-201.626,0.229817,
2,1,0,1,0,48478.2,0.232543,0.232209,22.251,25,0.0134567,10,0.00516689,-1.65265,-0.260085,-0.226848,-197.062,0.2322091,
2,1,0,1,0,48478.2,0.234941,0.23459,21.7871,25,0.0135887,10,0.00511103,-1.6618,-0.268636,-0.219628,-186.91,0.23459,
2,1,0,1,0,48478.2,0.237349,0.237015,21.3567,25,0.0137181,10,0.00506186,-1.67047,-0.280392,-0.21042,-175.468,0.237015,
2,1,0,1,0,48478.2,0.239746,0.239487,20.9391,25,0.0138449,10,0.00501463,-1.67904,-0.278936,-0.211518,-172.891,0.239487,
2,1,0,1,0,48478.3,0.242143,0.241773,20.5297,25,0.0139693,10,0.00496352,-1.68762,-0.292195,-0.20192,-161.99,0.241773,
2,1,0,1,0,48478.3,0.244548,0.24424,20.1541,25,0.0140913,10,0.00492245,-1.69564,-0.308193,-0.191439,-150.718,0.24424,
2,1,0,1,0,48478.3,0.246946,0.246597,19.8109,25,0.0142111,10,0.00488531,-1.7031,-0.314301,-0.187718,-145.091,0.246597,
2,1,0,1,0,48478.3,0.249343,0.249022,19.4587,25,0.0143289,10,0.00484563,-1.71089,-0.322985,-0.182671,-138.847,0.249022,
2,1,0,1,0,48478.3,0.25174,0.251435,19.1266,25,0.0144446,10,0.00480911,-1.71836,-0.340837,-0.173103,-129.376,0.251435,
2,1,0,1,0,48478.3,0.254148,0.253805,18.8441,25,0.0145585,10,0.00478274,-1.72482,-0.354171,-0.166586,-122.486,0.253805,
2,1,0,1,0,48478.3,0.256545,0.256226,18.5453,25,0.0146706,10,0.0047518,-1.73177,-0.359351,-0.164185,-118.92,0.256226,
2,1,0,1,0,48478.3,0.258942,0.258664,18.2672,25,0.014781,10,0.00472506,-1.73833,-0.381378,-0.154702,-110.401,0.2586641,
2,1,0,1,0,48478.3,0.261348,0.261052,18.0188,25,0.0148899,10,0.00470384,-1.74427,-0.400824,-0.147197,-103.54,0.261052,
2,1,0,1,0,48478.3,0.263745,0.263455,17.769,25,0.0149972,10,0.00468132,-1.75034,-0.402206,-0.146691,-101.763,0.263455,
2,1,0,1,0,48478.3,0.266142,0.265823,17.5344,25,0.0151031,10,0.00466104,-1.75611,-0.429536,-0.137357,-94.091,0.265823,
2,1,0,1,0,48478.3,0.268539,0.268239,17.308,25,0.0152076,10,0.00464268,-1.76175,-0.450109,-0.13108,-88.6405,0.268239,
2,1,0,1,0,48478.3,0.270947,0.270636,17.1141,25,0.0153109,10,0.00463168,-1.76665,-0.463626,-0.127258,-84.9572,0.270636,
2,1,0,1,0,48478.3,0.273344,0.273036,16.908,25,0.0154129,10,0.00461648,-1.77191,-0.47179,-0.125056,-82.5584,0.273036,
2,1,0,1,0,48478.3,0.275741,0.275394,16.7102,25,0.0155137,10,0.00460188,-1.77702,-0.503336,-0.117218,-76.5602,0.275394,
2,1,0,1,0,48478.3,0.278149,0.277834,16.551,25,0.0156135,10,0.00459843,-1.78118,-0.52352,-0.112699,-72.744,0.277834,
2,1,0,1,0,48478.4,0.280547,0.280187,16.3661,25,0.0157123,10,0.00458558,-1.78605,-0.538724,-0.109518,-69.9925,0.280187,
2,1,0,1,0,48478.4,0.282944,0.282618,16.1976,25,0.0158099,10,0.00457773,-1.79055,-0.549576,-0.107355,-67.9728,0.282618,
2,1,0,1,0,48478.4,0.285344,0.285026,16.0542,25,0.0159067,10,0.00457586,-1.79441,-0.600643,-0.0982281,-61.5491,0.285026,
2,1,0,1,0,48478.4,0.287746,0.28741,15.905,25,0.0160025,10,0.00457124,-1.79847,-0.592749,-0.0995363,-61.777,0.28741,
2,1,0,1,0,48478.4,0.290143,0.289801,15.7548,25,0.0160975,10,0.00456575,-1.80259,-0.618197,-0.0954388,-58.7073,0.289801,
2,1,0,1,0,48478.4,0.29254,0.292171,15.6174,25,0.0161916,10,0.00456294,-1.80639,-0.662897,-0.0890033,-54.2972,0.292171,
2,1,0,1,0,48478.4,0.294949,0.294621,15.5001,25,0.0162849,10,0.00456666,-1.80967,-0.681377,-0.0865893,-52.3548,0.294621,
2,1,0,1,0,48478.4,0.297346,0.297007,15.3684,25,0.0163775,10,0.00456453,-1.81337,-0.669304,-0.0881513,-52.9312,0.297007,
2,1,0,1,0,48478.4,0.299621,0.299229,15.2439,25,0.0164648,10,0.00456143,-1.8169,-0.0905765,-0.651383,-377.076,0.299229,
2,1,0,1,0,48478.4,0.299962,0.29967,15.1088,25,0.016483,10,0.00452765,-1.82077,0.0130843,4.5092,2312.66,0.29967,
2,1,0,1,0,48478.4,0.297903,0.29763,12.0905,25,0.0165511,10,0.00359849,-1.91756,0.0226829,2.60107,1199.91,0.2976298,
2,1,0,1,0,48478.4,0.295506,0.295188,9.66839,25,0.0166158,10,0.00285399,-2.01465,0.0244767,2.41046,923.364,0.295188,
2,1,0,1,0,48478.4,0.293101,0.292772,7.71701,25,0.0166676,10,0.00225933,-2.11255,0.0237188,2.48748,752.406,0.292772,
2,1,0,1,0,48478.4,0.290704,0.290388,6.08284,25,0.0167087,10,0.00176638,-2.21589,0.0216946,2.71957,642.749,0.290388,
2,1,0,1,0,48478.4,0.288307,0.287988,4.67092,25,0.0167408,10,0.00134517,-2.3306,0.0189604,3.11175,558.093,0.287988,
2,1,0,1,0,48478.4,0.28591,0.285595,3.43776,25,0.0167649,10,0.000981807,-2.46372,0.0158302,3.72705,483.816,0.285595,
2,1,0,1,0,48478.4,0.283501,0.2832,2.34046,25,0.016782,10,0.000662818,-2.6307,0.0115463,5.10985,432.738,0.2832,
2,1,0,1,0,48478.4,0.281104,0.28081,1.37316,25,0.016793,10,0.000385597,-2.86228,0.00605991,9.73612,380.4,0.28081,
2,1,0,1,0,48478.5,0.278707,0.27839,0.503599,25,0.0167986,10,0.000140197,-3.29791,0.0127686,4.62071,348.218,0.27839,
2,0,0,1,0,48478.5,0.276302,0.275992,-0.288154,25,0.0167991,10,-7.95283e-05,-3.54038,-0.035475,-1.66314,305.404,0.275992,
2,0,0,1,0,48478.5,0.273905,0.273588,-0.984008,25,0.0167952,10,-0.000269213,-3.007,-0.00358681,-16.4491,280.928,0.273588,
2,0,0,1,0,48478.5,0.271507,0.271173,-1.62612,25,0.0167873,10,-0.000440959,-2.78885,-0.0127477,-4.62828,258.69,0.271173,
2,0,0,1,0,48478.5,0.269105,0.268806,-2.22568,25,0.0167756,10,-0.000598277,-2.65254,-0.0204354,-2.88715,234.245,0.268806,
2,0,0,1,0,48478.5,0.266702,0.26639,-2.75257,25,0.0167606,10,-0.000733257,-2.56026,-0.0283759,-2.07923,215.84,0.26639,
2,0,0,1,0,48478.5,0.264305,0.263997,-3.24418,25,0.0167425,10,-0.000856454,-2.48889,-0.0372227,-1.58505,196.222,0.2639969,
2,0,0,1,0,48478.5,0.261908,0.261588,-3.70986,25,0.0167216,10,-0.000970455,-2.43064,-0.0459387,-1.28432,182.505,0.261588,
2,0,0,1,0,48478.5,0.2595,0.259201,-4.13039,25,0.016698,10,-0.0010706,-2.38401,-0.0556831,-1.05957,168.401,0.259201,
2,0,0,1,0,48478.5,0.257103,0.256759,-4.51893,25,0.0166721,10,-0.00116027,-2.34496,-0.0670206,-0.880326,153.821,0.256759,
2,0,0,1,0,48478.5,0.254706,0.254382,-4.88218,25,0.0166438,10,-0.00124194,-2.31139,-0.0767787,-0.768442,145.387,0.254382,
2,0,0,1,0,48478.5,0.2523,0.251972,-5.22412,25,0.0166135,10,-0.00131633,-2.28199,-0.0885492,-0.666296,134.906,0.251972,
2,0,0,1,0,48478.5,0.249903,0.249556,-5.53609,25,0.0165812,10,-0.00138157,-2.2568,-0.09943,-0.593382,127.485,0.249556,
2,0,0,1,0,48478.5,0.247506,0.247218,-5.82866,25,0.016547,10,-0.00144095,-2.23443,-0.110056,-0.536091,121.677,0.247218,
2,0,0,1,0,48478.5,0.245109,0.244771,-6.11785,25,0.0165112,10,-0.00149747,-2.2134,-0.12156,-0.485355,115.293,0.244771,
2,0,0,1,0,48478.5,0.242701,0.242337,-6.38505,25,0.0164736,10,-0.00154733,-2.19484,-0.136439,-0.432429,107.282,0.242337,
2,0,0,1,0,48478.5,0.240304,0.239998,-6.62448,25,0.0164346,10,-0.00158986,-2.17885,-0.150924,-0.390926,100.991,0.239998,
2,0,0,1,0,48478.6,0.237906,0.237614,-6.87087,25,0.0163941,10,-0.00163262,-2.16299,-0.161929,-0.364357,97.3658,0.237614,
2,0,0,1,0,48478.6,0.235501,0.235186,-7.09479,25,0.0163521,10,-0.00166859,-2.14906,-0.178729,-0.330109,91.1655,0.235186,
2,0,0,1,0,48478.6,0.233104,0.232749,-7.29959,25,0.0163089,10,-0.00169897,-2.1367,-0.191782,-0.30764,87.6179,0.232749,
2,0,0,1,0,48478.6,0.230707,0.230397,-7.51344,25,0.0162645,10,-0.00173107,-2.12416,-0.205211,-0.287509,84.1855,0.230397,
2,0,0,1,0,48478.6,0.22831,0.227992,-7.69976,25,0.0162188,10,-0.00175548,-2.11352,-0.222766,-0.264852,79.5598,0.227992,
2,0,0,1,0,48478.6,0.225902,0.225646,-7.8946,25,0.016172,10,-0.00178139,-2.10267,-0.235854,-0.250154,76.965,0.225646,
2,0,0,1,0,48478.6,0.223504,0.22317,-8.07887,25,0.016124,10,-0.00180296,-2.09265,-0.253851,-0.23242,73.1728,0.22317,
2,0,0,1,0,48478.6,0.221107,0.220795,-8.24809,25,0.016075,10,-0.00182114,-2.08365,-0.261272,-0.225819,72.6137,0.220795,
2,0,0,1,0,48478.6,0.218699,0.218394,-8.42318,25,0.016025,10,-0.00183957,-2.07452,-0.281064,-0.209917,68.8753,0.218394,
2,0,0,1,0,48478.6,0.216302,0.215945,-8.57356,25,0.015974,10,-0.00185141,-2.06684,-0.297856,-0.198082,66.3059,0.215945,
2,0,0,1,0,48478.6,0.213905,0.213562,-8.73861,25,0.0159221,10,-0.00186623,-2.05856,-0.306282,-0.192633,65.6675,0.213562,
2,0,0,1,0,48478.6,0.211505,0.211195,-8.88886,25,0.0158692,10,-0.00187728,-2.05115,-0.330992,-0.178252,61.7728,0.211195,
2,0,0,1,0,48478.6,0.209102,0.208768,-9.03352,25,0.0158154,10,-0.00188591,-2.04414,-0.334342,-0.176466,62.2275,0.208768,
2,0,0,1,0,48478.6,0.206705,0.206374,-9.18885,25,0.0157607,10,-0.00189634,-2.03674,-0.349008,-0.16905,60.5308,0.206374,
2,0,0,1,0,48478.6,0.204308,0.203963,-9.32906,25,0.0157051,10,-0.00190278,-2.03016,-0.360614,-0.16361,59.506,0.203963,
2,0,0,1,0,48478.6,0.2019,0.201564,-9.46468,25,0.0156488,10,-0.00190774,-2.02389,-0.385624,-0.152999,56.5095,0.2015644,
2,0,0,1,0,48478.7,0.199503,0.199186,-9.60033,25,0.0155916,10,-0.00191225,-2.01771,-0.391178,-0.150827,56.4963,0.199186,
2,0,0,1,0,48478.7,0.197106,0.196803,-9.72962,25,0.0155335,10,-0.00191482,-2.0119,-0.395164,-0.149305,56.7124,0.196803,
2,0,0,1,0,48478.7,0.194709,0.194357,-9.8604,25,0.0154747,10,-0.00191644,-2.00611,-0.418629,-0.140936,54.2611,0.194357,
2,0,0,1,0,48478.7,0.192303,0.191975,-9.99732,25,0.0154151,10,-0.00191924,-2.00012,-0.421778,-0.139884,54.5589,0.191975,
2,0,0,1,0,48478.7,0.189906,0.189579,-10.1295,25,0.0153547,10,-0.00192034,-1.99441,-0.432524,-0.136409,53.9054,0.189579,
2,0,0,1,0,48478.7,0.187509,0.187165,-10.2569,25,0.0152936,10,-0.00191973,-1.98899,-0.446065,-0.132268,52.9394,0.187165,
2,0,0,1,0,48478.7,0.185101,0.184751,-10.3889,25,0.0152316,10,-0.00191936,-1.98343,-0.442558,-0.133316,54.0334,0.184751,
2,0,0,1,0,48478.7,0.182704,0.182376,-10.5157,25,0.0151689,10,-0.00191782,-1.97816,-0.445511,-0.132432,54.3523,0.182376,
2,0,0,1,0,48478.7,0.180307,0.179977,-10.6499,25,0.0151054,10,-0.00191673,-1.97265,-0.4462,-0.132228,54.9058,0.179977,
2,0,0,1,0,48478.7,0.177904,0.177563,-10.7746,25,0.0150411,10,-0.00191317,-1.9676,-0.448755,-0.131475,55.3379,0.177563,
2,0,0,1,0,48478.7,0.175501,0.175176,-10.9155,25,0.0149761,10,-0.00191213,-1.96196,-0.439966,-0.134101,57.1371,0.175176,
2,0,0,1,0,48478.7,0.173104,0.172746,-11.0498,25,0.0149102,10,-0.0019088,-1.95665,-0.44678,-0.132056,56.9131,0.172746,
2,0,0,1,0,48478.7,0.170707,0.17033,-11.1825,25,0.0148434,10,-0.00190471,-1.95146,-0.441709,-0.133572,58.3485,0.17033,
2,0,0,1,0,48478.7,0.168302,0.167971,-11.3279,25,0.0147759,10,-0.00190276,-1.94585,-0.427771,-0.137924,60.9798,0.167971,
2,0,0,1,0,48478.7,0.165905,0.165585,-11.4798,25,0.0147075,10,-0.00190088,-1.94007,-0.419699,-0.140577,62.9578,0.1655848,
2,0,0,1,0,48478.7,0.163507,0.163138,-11.6293,25,0.0146381,10,-0.00189719,-1.93444,-0.41373,-0.142605,64.7598,0.163138,
2,0,0,1,0,48478.7,0.161099,0.160791,-11.7887,25,0.0145679,10,-0.00189551,-1.92854,-0.397751,-0.148334,68.2762,0.1607907,
2,0,0,1,0,48478.8,0.158702,0.158368,-11.9576,25,0.0144966,10,-0.00189369,-1.92236,-0.373053,-0.158155,73.844,0.158368,
2,0,0,1,0,48478.8,0.156305,0.155958,-12.1341,25,0.0144244,10,-0.00189242,-1.91599,-0.362938,-0.162562,77.0528,0.155958,
2,0,0,1,0,48478.8,0.153908,0.153569,-12.3188,25,0.014351,10,-0.00189179,-1.90943,-0.350938,-0.168121,80.9288,0.153569,
2,0,0,1,0,48478.8,0.151503,0.151161,-12.5253,25,0.0142764,10,-0.00189334,-1.90221,-0.327758,-0.180011,88.0969,0.151161,
2,0,0,1,0,48478.8,0.149105,0.14878,-12.747,25,0.0142006,10,-0.0018965,-1.89459,-0.312351,-0.18889,93.9913,0.1487795,
2,0,0,1,0,48478.8,0.146708,0.146384,-12.9761,25,0.0141234,10,-0.00189949,-1.88686,-0.293922,-0.200734,101.814,0.146384,
2,0,0,1,0,48478.8,0.1443,0.14396,-13.2296,25,0.0140448,10,-0.00190454,-1.87845,-0.270708,-0.217947,112.755,0.14396,
2,0,0,1,0,48478.8,0.141903,0.141569,-13.5264,25,0.0139645,10,-0.00191491,-1.86882,-0.252247,-0.233898,123.535,0.141569,
2,0,0,1,0,48478.8,0.139506,0.139183,-13.8258,25,0.0138824,10,-0.00192432,-1.85931,-0.238174,-0.247718,133.906,0.139183,
2,0,0,1,0,48478.8,0.137109,0.136767,-14.1544,25,0.0137984,10,-0.00193586,-1.84911,-0.223505,-0.263976,146.235,0.136767,
2,0,0,1,0,48478.8,0.134701,0.134383,-14.5384,25,0.0137123,10,-0.00195372,-1.83748,-0.208094,-0.283526,161.017,0.134383,
2,0,0,1,0,48478.8,0.132303,0.132023,-14.9343,25,0.0136239,10,-0.00197168,-1.82581,-0.198273,-0.297569,173.718,0.132023,
2,0,0,1,0,48478.8,0.129906,0.129618,-15.3665,25,0.013533,10,-0.00199177,-1.81343,-0.185316,-0.318375,191.326,0.129618,
2,0,0,1,0,48478.8,0.127501,0.127157,-15.8531,25,0.0134393,10,-0.00201583,-1.79989,-0.178984,-0.329639,204.062,0.127157,
2,0,0,1,0,48478.8,0.125104,0.124814,-16.3512,25,0.0133426,10,-0.00204086,-1.78645,-0.176554,-0.334176,213.322,0.124814,
2,0,0,1,0,48478.8,0.122707,0.122374,-16.8605,25,0.013243,10,-0.00206329,-1.77313,-0.17522,-0.336719,221.831,0.122374,
2,0,0,1,0,48478.8,0.12031,0.120017,-17.4078,25,0.0131401,10,-0.00208923,-1.75926,-0.173355,-0.340342,231.455,0.120017,
2,0,0,1,0,48478.9,0.117901,0.117596,-17.9841,25,0.0130338,10,-0.00211486,-1.74511,-0.173494,-0.34007,238.617,0.117596,
2,0,0,1,0,48478.9,0.115504,0.115177,-18.5645,25,0.0129241,10,-0.00213821,-1.73132,-0.178473,-0.330583,239.283,0.115177,
2,0,0,1,0,48478.9,0.113107,0.112796,-19.1275,25,0.012811,10,-0.00215749,-1.71834,-0.183652,-0.321259,239.907,0.112796,
2,0,0,1,0,48478.9,0.110702,0.110381,-19.7186,25,0.0126944,10,-0.00217656,-1.70512,-0.186722,-0.315978,242.955,0.110381,
2,0,0,1,0,48478.9,0.108305,0.108014,-20.3051,25,0.0125743,10,-0.00219324,-1.6924,-0.195955,-0.301089,238.206,0.108014,
2,0,0,1,0,48478.9,0.105908,0.105557,-20.8599,25,0.0124507,10,-0.00220191,-1.68069,-0.206851,-0.28523,232.001,0.105557,
2,0,0,1,0,48478.9,0.103505,0.103266,-21.4088,25,0.0123239,10,-0.0022108,-1.66941,-0.213539,-0.276296,230.764,0.103266,
2,0,0,1,0,48478.9,0.101102,0.100849,-21.9642,25,0.0121937,10,-0.00221507,-1.65828,-0.220289,-0.26783,229.463,0.100849,
2,0,0,1,0,48478.9,0.0987052,0.0984441,-22.5081,25,0.0120602,10,-0.00221579,-1.64766,-0.230543,-0.255917,224.643,0.0984441,
2,0,0,1,0,48478.9,0.0963081,0.0960243,-23.0428,25,0.0119235,10,-0.00221267,-1.63746,-0.242154,-0.243646,218.963,0.0960243,
2,0,0,1,0,48478.9,0.0938999,0.0935981,-23.5665,25,0.0117836,10,-0.00220578,-1.6277,-0.257118,-0.229467,210.816,0.09359806,
2,0,0,1,0,48478.9,0.0915028,0.09121,-24.0682,25,0.0116406,10,-0.00219526,-1.61856,-0.280572,-0.210285,197.221,0.09121,
2,0,0,1,0,48478.9,0.0891057,0.0888379,-24.5223,25,0.0114948,10,-0.00217851,-1.61044,-0.291635,-0.202308,193.526,0.0888379,
2,0,0,1,0,48478.9,0.0867002,0.0864021,-24.9853,25,0.0113463,10,-0.00215879,-1.60231,-0.314511,-0.187593,182.705,0.0864021,
2,0,0,1,0,48478.9,0.0843031,0.084012,-25.4132,25,0.011195,10,-0.00213501,-1.59494,-0.341338,-0.172849,171.131,0.084012,
2,0,0,1,0,48478.9,0.081906,0.0816611,-25.7924,25,0.0110413,10,-0.00210623,-1.58851,-0.369448,-0.159698,160.692,0.0816611,
2,0,0,1,0,48479,0.0795089,0.0792221,-26.169,25,0.0108854,10,-0.00207316,-1.58221,-0.399336,-0.147745,150.835,0.0792221,
2,0,0,1,0,48479,0.0771007,0.0768182,-26.5375,25,0.0107272,10,-0.00203856,-1.57614,-0.433394,-0.136135,140.731,0.0768182,
2,0,0,1,0,48479,0.0747036,0.0744227,-26.8476,25,0.010567,10,-0.00199807,-1.57109,-0.490567,-0.120269,125.907,0.0744227,
2,0,0,1,0,48479,0.0723065,0.0720336,-27.1347,25,0.010405,10,-0.00195461,-1.56647,-0.526135,-0.112139,118.692,0.0720336,
2,0,0,1,0,48479,0.0699011,0.0696456,-27.4266,25,0.0102413,10,-0.00191014,-1.56183,-0.590469,-0.0999205,106.808,0.0696456,
2,0,0,1,0,48479,0.067504,0.0671897,-27.6583,25,0.0100761,10,-0.00185836,-1.55817,-0.672178,-0.0877744,94.6538,0.0671897,
2,0,0,1,0,48479,0.0651069,0.0648027,-27.8679,25,0.00990943,10,-0.00180592,-1.5549,-0.766236,-0.0769998,83.7012,0.0648027,
2,0,0,1,0,48479,0.0627098,0.0623511,-28.0564,25,0.00974162,10,-0.00174935,-1.55197,-0.882475,-0.0668574,73.1555,0.0623511,
2,0,0,1,0,48479,0.0603016,0.059962,-28.2248,25,0.00957273,10,-0.00169242,-1.54937,-1.08969,-0.0541438,59.5677,0.059962,
2,0,0,1,0,48479,0.0579045,0.0575601,-28.3453,25,0.00940298,10,-0.00163156,-1.54752,-1.30948,-0.0450562,49.814,0.0575601,
2,0,0,1,0,48479,0.0555074,0.0551509,-28.4545,25,0.00923258,10,-0.00156929,-1.54585,-1.46024,-0.0404044,44.863,0.0551509,
2,0,0,1,0,48479,0.0530992,0.0527661,-28.5682,25,0.00906152,10,-0.00150743,-1.54412,-1.8304,-0.0322333,35.8894,0.0527661,
2,0,0,1,0,48479,0.0507021,0.0503844,-28.6316,25,0.0088899,10,-0.00144259,-1.54315,-2.49713,-0.0236272,26.3806,0.0503844,
2,0,0,1,0,48479,0.048305,0.047956,-28.6756,25,0.00871798,10,-0.00137517,-1.54249,-3.24372,-0.018189,20.3597,0.047956,
2,0,0,1,0,48479,0.0459051,0.045551,-28.7328,25,0.00854576,10,-0.00130881,-1.54162,-4.24963,-0.0138836,15.5579,0.045551,
2,0,0,1,0,48479,0.0435024,0.0431736,-28.7561,25,0.00837326,10,-0.0012415,-1.54127,-8.6025,-0.00685847,7.69236,0.0431736,
2,0,0,1,0,48479,0.0411053,0.0408078,-28.764,25,0.00820069,10,-0.0011738,-1.54115,-27.6434,-0.00213432,2.39603,0.0408078,
2,0,0,1,0,48479.1,0.0387082,0.0383519,-28.7773,25,0.00802807,10,-0.00110367,-1.54095,-33.7502,-0.00174814,1.96258,0.0383519,
2,0,0,1,0,48479.1,0.0363,0.0359809,-28.7773,25,0.00785543,10,-0.00103543,-1.54095,17.8661,0.00330234,-3.70623,0.0359809,
2,0,0,1,0,48479.1,0.0339029,0.0335483,-28.7535,25,0.00768283,10,-0.000964633,-1.54131,7.54138,0.0078235,-8.77612,0.0335483,
2,0,0,1,0,48479.1,0.0315058,0.0311189,-28.7265,25,0.00751039,10,-0.000893938,-1.54172,6.64238,0.00888235,-9.96033,0.0311189,
2,0,0,1,0,48479.1,0.0291087,0.0287563,-28.7025,25,0.00733811,10,-0.000825377,-1.54208,4.62662,0.0127523,-14.28,0.0287563,
2,0,0,1,0,48479.1,0.0267033,0.0263672,-28.6679,25,0.00716597,10,-0.000755894,-1.5426,3.36211,0.0175485,-19.621,0.0263672,
2,0,0,1,0,48479.1,0.0243062,0.0239813,-28.6022,25,0.00699415,10,-0.000685918,-1.5436,2.81096,0.0209893,-23.4368,0.0239813,
2,0,0,1,0,48479.1,0.0219091,0.0215668,-28.5628,25,0.00682266,10,-0.000616008,-1.5442,2.82209,0.0209065,-23.299,0.0215668,
2,0,0,1,0,48479.1,0.0195009,0.0191247,-28.5095,25,0.00665144,10,-0.000545235,-1.54501,2.30802,0.0255631,-28.4204,0.0191247,
2,0,0,1,0,48479.1,0.0171038,0.0167716,-28.4257,25,0.00648065,10,-0.000476746,-1.54629,2.06538,0.0285662,-31.7016,0.0167716,
2,0,0,1,0,48479.1,0.0147067,0.0143645,-28.356,25,0.00631034,10,-0.00040732,-1.54735,2.02047,0.0292012,-32.3038,0.0143645,
2,0,0,1,0,48479.1,0.012304,0.0119563,-28.2823,25,0.00614043,10,-0.000338152,-1.54848,1.77893,0.033166,-36.5746,0.0119563,
2,0,0,1,0,48479.1,0.00990136,0.00959054,-28.169,25,0.00597109,10,-0.000270156,-1.55023,1.54199,0.0382622,-42.0647,0.00959054,
2,0,0,1,0,48479.1,0.00750426,0.00716645,-28.0677,25,0.00580239,10,-0.000201146,-1.55179,1.41414,0.0417215,-45.6925,0.007166448,
2,0,0,1,0,48479.1,0.00510715,0.00476781,-27.9532,25,0.00563432,10,-0.000133276,-1.55357,1.4779,0.0399215,-43.5647,0.00476781,
2,0,0,1,0,48479.1,0.00270173,0.00235963,-27.8244,25,0.00546698,10,-6.56551e-05,-1.55557,1.25441,0.0470341,-51.0937,0.00235963,
2,0,0,1,0,48479.1,0.000304623,-9.41549e-05,-27.7135,25,0.00530027,10,2.60936e-06,-1.55731,1.14571,0.0514964,-55.654,-9.41549e-05,
2,0,0,1,0,48479.2,-0.00209248,-0.00247689,-27.5677,25,0.00513443,10,6.82822e-05,-1.5596,0.994303,0.059338,-63.8273,-0.00247689,
2,0,0,1,0,48479.2,-0.00450068,-0.00486917,-27.419,25,0.0049695,10,0.000133508,-1.56195,0.89795,0.0657052,-70.2349,-0.00486917,
2,0,0,1,0,48479.2,-0.00689779,-0.00727417,-27.2389,25,0.00480556,10,0.000198141,-1.56481,0.882924,0.0668235,-71.021,-0.00727417,
2,0,0,1,0,48479.2,-0.00929489,-0.009641,-27.0552,25,0.00464272,10,0.000260839,-1.56775,0.851153,0.0693177,-73.2042,-0.009641,
2,0,0,1,0,48479.2,-0.011692,-0.0120672,-26.8859,25,0.00448089,10,0.000324438,-1.57048,0.812201,0.0726421,-76.1785,-0.01206721,
2,0,0,1,0,48479.2,-0.0140974,-0.0144489,-26.6951,25,0.00432015,10,0.000385714,-1.57357,0.761886,0.0774394,-80.6798,-0.0144489,
2,0,0,1,0,48479.2,-0.0164945,-0.0168825,-26.5014,25,0.00416059,10,0.000447411,-1.57673,0.76675,0.0769482,-79.6145,-0.0168825,
2,0,0,1,0,48479.2,-0.0188916,-0.0192493,-26.3143,25,0.00400215,10,0.000506534,-1.57981,0.765236,0.0771004,-79.1698,-0.0192493,
2,0,0,1,0,48479.2,-0.0212998,-0.0216904,-26.128,25,0.00384482,10,0.000566727,-1.58289,0.753149,0.0783378,-79.872,-0.0216904,
2,0,0,1,0,48479.2,-0.0236969,-0.0241071,-25.9291,25,0.00368868,10,0.000625074,-1.58621,0.76075,0.077555,-78.5023,-0.0241071,
2,0,0,1,0,48479.2,-0.026094,-0.0264718,-25.7545,25,0.00353364,10,0.000681767,-1.58915,0.803654,0.0734146,-73.7969,-0.0264718,
2,0,0,1,0,48479.2,-0.0284912,-0.0288534,-25.5711,25,0.0033797,10,0.000737815,-1.59225,0.793212,0.0743811,-74.2497,-0.02885345,
2,0,0,1,0,48479.2,-0.0308994,-0.0312881,-25.4016,25,0.00322679,10,0.000794767,-1.59514,0.828299,0.0712303,-70.6281,-0.0312881,
2,0,0,1,0,48479.2,-0.0332965,-0.0336624,-25.2358,25,0.00307491,10,0.000849499,-1.59798,0.891026,0.0662158,-65.2496,-0.0336624,
2,0,0,1,0,48479.2,-0.0356936,-0.0360483,-25.0892,25,0.00292398,10,0.000904424,-1.60051,0.925745,0.0637324,-62.4069,-0.0360483,
2,0,0,1,0,48479.2,-0.038099,-0.0384236,-24.9433,25,0.00277389,10,0.000958413,-1.60305,0.977717,0.0603446,-58.7471,-0.0384236,
2,0,0,1,0,48479.3,-0.0404961,-0.0408562,-24.7953,25,0.00262471,10,0.00101304,-1.60563,1.03673,0.0569097,-55.1186,-0.0408562,
2,0,0,1,0,48479.3,-0.0428932,-0.0432411,-24.6861,25,0.00247629,10,0.00106745,-1.60755,1.16792,0.0505171,-48.663,-0.0432411,
2,0,0,1,0,48479.3,-0.0452903,-0.045697,-24.5542,25,0.00232857,10,0.00112205,-1.60987,1.24374,0.0474375,-45.4895,-0.045697,
2,0,0,1,0,48479.3,-0.0476985,-0.0480839,-24.4578,25,0.00218153,10,0.00117603,-1.61158,1.41905,0.041577,-39.713,-0.0480839,
2,0,0,1,0,48479.3,-0.0500956,-0.0504433,-24.3708,25,0.00203506,10,0.00122935,-1.61313,1.53046,0.0385505,-36.67,-0.0504433,
2,0,0,1,0,48479.3,-0.0524927,-0.052825,-24.2871,25,0.00188908,10,0.00128297,-1.61462,1.69664,0.0347747,-32.9743,-0.052825,
2,0,0,1,0,48479.3,-0.0548981,-0.0552703,-24.2198,25,0.00174358,10,0.00133864,-1.61583,2.0367,0.0289685,-27.3959,-0.0552703,
2,0,0,1,0,48479.3,-0.0572953,-0.0576933,-24.16,25,0.00159847,10,0.00139387,-1.6169,2.436,0.0242201,-22.8457,-0.05769334,
2,0,0,1,0,48479.3,-0.0596924,-0.0600612,-24.1089,25,0.00145367,10,0.00144801,-1.61782,3.33105,0.0177122,-16.6747,-0.0600612,
2,0,0,1,0,48479.3,-0.062095,-0.062462,-24.0771,25,0.00130914,10,0.0015039,-1.6184,3.85635,0.0152994,-14.3761,-0.062462,
2,0,0,1,0,48479.3,-0.0644977,-0.0648871,-24.0478,25,0.00116479,10,0.00156039,-1.61892,5.78665,0.0101959,-9.56962,-0.0648871,
2,0,0,1,0,48479.3,-0.0668948,-0.0672741,-24.0197,25,0.0010206,10,0.00161591,-1.61943,8.13176,0.0072555,-6.80295,-0.0672741,
2,0,0,1,0,48479.3,-0.0692919,-0.0696812,-24.0091,25,0.000876505,10,0.00167298,-1.61962,14.5421,0.0040572,-3.80282,-0.0696812,
2,0,0,1,0,48479.3,-0.0717001,-0.0720322,-24.0015,25,0.000732462,10,0.00172888,-1.61976,-52.3954,-0.00112605,1.05553,-0.0720322,
2,0,0,1,0,48479.3,-0.0740972,-0.0744457,-24.0157,25,0.000588423,10,0.00178786,-1.61951,-15.0028,-0.00393261,3.68755,-0.07444565,
2,0,0,1,0,48479.3,-0.0764943,-0.0768793,-24.0356,25,0.000444266,10,0.00184784,-1.61914,-6.90809,-0.00854072,8.01131,-0.0768793,
2,0,0,1,0,48479.3,-0.0788997,-0.0792853,-24.0563,25,0.000300029,10,0.00190731,-1.61877,-5.51164,-0.0107046,10.054,-0.0792853,
2,0,0,1,0,48479.4,-0.0812968,-0.081667,-24.0806,25,0.000155627,10,0.00196659,-1.61833,-3.59592,-0.0164075,15.4227,-0.081667,
2,0,0,1,0,48479.4,-0.0836939,-0.0840805,-24.1319,25,1.0988e-05,10,0.00202903,-1.61741,-2.92822,-0.0201488,18.9714,-0.0840805,
2,0,0,1,0,48479.4,-0.086091,-0.0864537,-24.1649,25,-0.000133889,10,0.00208914,-1.61682,-2.58382,-0.0228344,21.5479,-0.0864537,
2,0,0,1,0,48479.4,-0.0884992,-0.088899,-24.2266,25,-0.000279083,10,0.00215372,-1.61571,-2.25009,-0.0262212,24.7965,-0.088899,
2,0,0,1,0,48479.4,-0.0908963,-0.0912605,-24.2789,25,-0.000424623,10,0.0022157,-1.61477,-2.21305,-0.0266601,25.2755,-0.0912605,
2,0,0,1,0,48479.4,-0.0932934,-0.0936517,-24.3581,25,-0.000570548,10,0.00228118,-1.61336,-1.88511,-0.0312978,29.7579,-0.0936517,
2,0,0,1,0,48479.4,-0.0956989,-0.0960377,-24.4314,25,-0.000716879,10,0.00234634,-1.61205,-1.78043,-0.0331381,31.5982,-0.0960377,
2,0,0,1,0,48479.4,-0.098096,-0.098466,-24.511,25,-0.000863707,10,0.0024135,-1.61064,-1.89057,-0.0312075,29.8061,-0.098466,
2,0,0,0,0,48479.4,-0.0999548,-0.100381,-24.5618,25,-0.00097905,10,0.00246554,-1.60974,0.0298305,1.97784,-1790.87,-0.100381,
2,0,0,1,1,48479.4,-0.0994555,-0.0999156,-23.3589,25,-0.00101952,10,0.00233392,-1.63155,-0.0280748,-2.10153,1765.4,-0.0999156,
2,0,0,1,1,48479.4,-0.0970583,-0.0974925,-19.7205,25,-0.00114771,10,0.0019226,-1.70508,-0.0343549,-1.71737,1341.82,-0.0974925,
2,0,0,1,1,48479.4,-0.0946501,-0.0950324,-16.9614,25,-0.00125727,10,0.00161188,-1.77054,-0.0368001,-1.60326,1071.4,-0.0950324,
2,0,0,1,1,48479.4,-0.092253,-0.0926581,-14.6415,25,-0.0013517,10,0.00135665,-1.83442,-0.0369035,-1.59876,916.377,-0.09265814,
2,0,0,1,1,48479.4,-0.0898559,-0.0902616,-12.5777,25,-0.00143302,10,0.00113528,-1.9004,-0.0354341,-1.66506,816.395,-0.0902616,
2,0,0,1,1,48479.4,-0.0874588,-0.0878799,-10.7171,25,-0.00150263,10,0.000941818,-1.96992,-0.0328469,-1.79621,748.269,-0.0878799,
2,0,0,1,1,48479.4,-0.0850534,-0.0854474,-9.00494,25,-0.00156152,10,0.000769448,-2.04552,-0.0301146,-1.95918,684.163,-0.0854474,
2,0,0,1,1,48479.4,-0.0826563,-0.0830286,-7.43185,25,-0.00161064,10,0.000617056,-2.1289,-0.0267503,-2.20558,632.865,-0.0830286,
2,0,0,1,1,48479.4,-0.0802592,-0.0806543,-5.98067,25,-0.00165069,10,0.000482367,-2.22325,-0.0228682,-2.58,590.91,-0.0806543,
2,0,0,1,1,48479.5,-0.077851,-0.0782515,-4.61356,25,-0.00168228,10,0.000361018,-2.33596,-0.0187686,-3.14355,547.966,-0.0782515,
2,0,0,1,1,48479.5,-0.0754539,-0.0758592,-3.35051,25,-0.00170603,10,0.000254167,-2.47489,-0.0139026,-4.24382,517.303,-0.0758592,
2,0,0,1,1,48479.5,-0.0730568,-0.0734574,-2.14152,25,-0.00172233,10,0.00015731,-2.66928,-0.0084401,-6.99044,487.883,-0.0734574,
2,0,0,1,1,48479.5,-0.0706597,-0.0710173,-1.03528,25,-0.00173171,10,7.35228e-05,-2.98494,-0.00760892,-7.75406,459.065,-0.0710173,
2,0,0,1,1,48479.5,-0.0682542,-0.0686261,0.0267523,25,-0.00173456,10,-1.83591e-06,-4.57264,-0.543309,-0.108594,432.178,-0.0686261,
2,1,0,1,1,48479.5,-0.0658571,-0.0662476,1.03331,25,-0.00173123,10,-6.84542e-05,-2.98577,0.00746405,7.90455,402.922,-0.0662476,
2,1,0,1,1,48479.5,-0.06346,-0.0638596,1.9717,25,-0.00172207,10,-0.000125912,-2.70516,0.00989632,5.96181,382.482,-0.0638596,
2,1,0,1,1,48479.5,-0.0610518,-0.0614758,2.87699,25,-0.0017074,10,-0.000176865,-2.54106,0.0167739,3.51738,365.799,-0.06147581,
2,1,0,1,1,48479.5,-0.0586547,-0.0590687,3.72754,25,-0.00168748,10,-0.000220181,-2.42858,0.0239127,2.46731,344.394,-0.0590687,
2,1,0,1,1,48479.5,-0.0562576,-0.0567188,4.52622,25,-0.00166262,10,-0.000256722,-2.34426,0.0309176,1.9083,329.216,-0.0567188,
2,1,0,1,1,48479.5,-0.053855,-0.0542937,5.30221,25,-0.00163303,10,-0.000287877,-2.27554,0.0382885,1.54093,313.102,-0.0542937,
2,1,0,1,1,48479.5,-0.0514523,-0.0518929,6.03372,25,-0.00159891,10,-0.000313107,-2.21941,0.0459783,1.28321,298.364,-0.05189291,
2,1,0,1,1,48479.5,-0.0490552,-0.0495123,6.73533,25,-0.00156051,10,-0.000333482,-2.17164,0.0542172,1.08822,283.034,-0.0495123,
2,1,0,1,1,48479.5,-0.0466581,-0.0470903,7.39818,25,-0.00151801,10,-0.000348383,-2.13087,0.0631213,0.934708,267.568,-0.0470903,
2,1,0,1,1,48479.5,-0.0442527,-0.0446959,8.02181,25,-0.00147167,10,-0.000358542,-2.09573,0.0712371,0.82822,257.639,-0.0446959,
2,1,0,1,1,48479.5,-0.0418556,-0.0422581,8.62876,25,-0.00142164,10,-0.000364635,-2.06405,0.0823638,0.716334,239.61,-0.0422581,
2,1,0,1,1,48479.6,-0.0394585,-0.0398859,9.19155,25,-0.00136808,10,-0.000366613,-2.03661,0.0918402,0.64242,229.476,-0.0398859,
2,1,0,1,1,48479.6,-0.0370558,-0.0374215,9.73447,25,-0.00131126,10,-0.000364279,-2.01169,0.101177,0.583134,220.809,-0.0374215,
2,1,0,1,1,48479.6,-0.0346532,-0.0350526,10.2586,25,-0.00125121,10,-0.00035959,-1.98891,0.112005,0.526764,209.796,-0.03505259,
2,1,0,1,1,48479.6,-0.0322561,-0.0326656,10.7375,25,-0.00118815,10,-0.000350748,-1.9691,0.125748,0.469191,196,-0.0326656,
2,1,0,1,1,48479.6,-0.0298589,-0.0302405,11.1946,25,-0.0011223,10,-0.000338531,-1.95099,0.138215,0.426872,186.135,-0.0302405,
2,1,0,1,1,48479.6,-0.0274535,-0.0277782,11.6421,25,-0.00105372,10,-0.000323398,-1.93397,0.148046,0.398526,180.58,-0.0277782,
2,1,0,1,1,48479.6,-0.0250564,-0.0254633,12.0567,25,-0.000982581,10,-0.000307004,-1.91877,0.164591,0.358465,168.263,-0.0254633,
2,1,0,1,1,48479.6,-0.0226593,-0.0230573,12.4459,25,-0.00090901,10,-0.000286969,-1.90497,0.176934,0.333458,161.664,-0.0230573,
2,1,0,1,1,48479.6,-0.0202511,-0.0206258,12.824,25,-0.000833174,10,-0.000264505,-1.89198,0.193642,0.304686,152.195,-0.0206258,
2,1,0,1,1,48479.6,-0.017854,-0.0182303,13.1791,25,-0.000755128,10,-0.000240259,-1.88011,0.211283,0.279246,143.295,-0.0182303,
2,1,0,1,1,48479.6,-0.0154569,-0.0158051,13.5147,25,-0.000675,10,-0.000213601,-1.8692,0.231186,0.255205,134.315,-0.0158051,
2,1,0,1,1,48479.6,-0.0130598,-0.0134945,13.8183,25,-0.000592973,10,-0.000186472,-1.85954,0.246612,0.239242,128.989,-0.0134945,
2,1,0,1,1,48479.6,-0.0106516,-0.0110482,14.1297,25,-0.000509096,10,-0.000156107,-1.84987,0.26548,0.222239,122.341,-0.0110482,
2,1,0,1,1,48479.6,-0.00825448,-0.00861665,14.421,25,-0.000423412,10,-0.00012426,-1.84101,0.291115,0.202669,113.837,-0.00861665,
2,1,0,1,1,48479.6,-0.00585738,-0.00622755,14.6707,25,-0.00033612,10,-9.13624e-05,-1.83355,0.310176,0.190215,108.88,-0.00622755,
2,1,0,1,1,48479.6,-0.00345195,-0.00380028,14.9328,25,-0.000247286,10,-5.67489e-05,-1.82586,0.33337,0.17698,102.97,-0.00380028,
2,1,0,1,1,48479.6,-0.00105485,-0.00145042,15.1732,25,-0.000156926,10,-2.20074e-05,-1.81892, , , ,-0.00145042,
2,1,0,0,1,48479.7,-7.54729e-05,-0.000439847,15.2659,25,-0.000118887,10,-6.71465e-06,-1.81628, , , ,-0.000439847,