File: Figure_codes/Fig_3-5/rawdata_trumpetplot_data/after 10th/20221101_1-115_003_TrumpetPlot_ParaChange_from10_every3_14_CV_C01_23.csv
mode,ox/red,error,control changes,counter inc.,time/s,control/V,Ewe/V,<I>/mA,cycle number,(Q-Qo)/C,I Range,P/W,log(|I|),Tafel slope mV/dec,alpha_eff,dI/d(E-IR),E-IR/V,
2,1,0,1,0,46512.1,2.44065e-05,-0.000268062,33.1479,24,0.0000000E+000,10,-8.88568e-06,-1.47954, , , ,-0.000268062,
2,1,0,1,0,46512.1,0.00332042,0.00297466,34.4932,24,0.000105444,10,0.000102606,-1.46227, , , ,0.00297466,
2,1,0,1,0,46512.1,0.0073156,0.00699148,35.549,24,0.000245692,10,0.00024854,-1.44917, , , ,0.00699148,
2,1,0,1,0,46512.1,0.0113108,0.0109574,36.4814,24,0.00038989,10,0.000399742,-1.43793,0.368037,0.16031,226.956,0.0109574,
2,1,0,1,0,46512.1,0.0153059,0.0149636,37.3399,24,0.000537633,10,0.00055874,-1.42783,0.406462,0.145155,210.756,0.0149636,
2,1,0,1,0,46512.1,0.0193011,0.0189486,38.1186,24,0.000688643,10,0.000722296,-1.41886,0.449743,0.131186,194.669,0.0189486,
2,1,0,1,0,46512.1,0.0233462,0.0229315,38.9084,24,0.000842822,10,0.000892229,-1.40996,0.487304,0.121074,183.289,0.0229315,
2,1,0,1,0,46512.1,0.0273414,0.0270151,39.6074,24,0.000999911,10,0.00107,-1.40222,0.520712,0.113306,174.683,0.0270151,
2,1,0,1,0,46512.1,0.0313366,0.0309895,40.2772,24,0.00115977,10,0.00124817,-1.39494,0.570112,0.103488,162.356,0.0309895,
2,1,0,1,0,46512.1,0.0353317,0.0349915,40.921,24,0.00132223,10,0.00143189,-1.38805,0.599535,0.0984096,156.879,0.0349915,
2,1,0,1,0,46512.1,0.0393269,0.039002,41.5176,24,0.00148718,10,0.00161927,-1.38177,0.633497,0.0931339,150.737,0.039002,
2,1,0,1,0,46512.1,0.0433221,0.042987,42.113,24,0.00165452,10,0.00181031,-1.37558,0.667152,0.0884356,145.196,0.042987,
2,1,0,1,0,46512.2,0.0473173,0.0469868,42.6886,24,0.00182417,10,0.0020058,-1.36969,0.689457,0.0855746,142.413,0.0469868,
2,1,0,1,0,46512.2,0.0513124,0.0509538,43.2387,24,0.00199609,10,0.00220318,-1.36413,0.726839,0.0811734,136.833,0.0509538,
2,1,0,1,0,46512.2,0.0553076,0.0549388,43.7872,24,0.0021702,10,0.00240562,-1.35865,0.746119,0.0790759,135.05,0.0549388,
2,1,0,1,0,46512.2,0.0593028,0.0589079,44.2915,24,0.0023464,10,0.00260912,-1.35368,0.775329,0.0760967,131.517,0.0589079,
2,1,0,1,0,46512.2,0.0633479,0.062999,44.8511,24,0.00252472,10,0.00282557,-1.34823,0.809262,0.072906,127.475,0.062999,
2,1,0,1,0,46512.2,0.0673431,0.066985,45.3471,24,0.00270515,10,0.00303758,-1.34345,0.82443,0.0715646,126.524,0.066985,
2,1,0,1,0,46512.2,0.0713383,0.0709849,45.8327,24,0.00288757,10,0.00325343,-1.33882,0.863697,0.068311,122.149,0.0709849,
2,1,0,1,0,46512.2,0.0753334,0.07499,46.3263,24,0.00307194,10,0.00347401,-1.33417,0.883166,0.0668051,120.725,0.07499,
2,1,0,1,0,46512.2,0.0793286,0.0789443,46.7988,24,0.00325823,10,0.0036945,-1.32977,0.889074,0.0663612,121.187,0.0789443,
2,1,0,1,0,46512.2,0.0833238,0.0829569,47.2753,24,0.00344643,10,0.00392181,-1.32537,0.898177,0.0656886,121.222,0.0829569,
2,1,0,1,0,46512.2,0.0873189,0.0869419,47.7665,24,0.00363655,10,0.00415291,-1.32088,0.893457,0.0660357,123.124,0.08694189,
2,1,0,1,0,46512.2,0.0913141,0.0909226,48.2577,24,0.00382864,10,0.00438772,-1.31643,0.896302,0.065826,123.974,0.0909226,
2,1,0,1,0,46512.2,0.0953093,0.0949108,48.7646,24,0.00402274,10,0.00462829,-1.3119,0.89561,0.0658769,125.369,0.0949108,
2,1,0,1,0,46512.2,0.0993045,0.0989192,49.2542,24,0.00421882,10,0.00487219,-1.30756,0.893303,0.066047,127.007,0.0989192,
2,1,0,1,0,46512.2,0.103319,0.102955,49.774,24,0.0044169,10,0.00512449,-1.303,0.899434,0.0655968,127.431,0.102955,
2,1,0,1,0,46512.2,0.107345,0.107027,50.3031,24,0.00461715,10,0.00538379,-1.29841,0.914622,0.0645076,126.527,0.107027,
2,1,0,1,0,46512.2,0.11134,0.110906,50.8029,24,0.00481941,10,0.00563435,-1.29411,0.913966,0.0645539,127.95,0.110906,
2,1,0,1,0,46512.2,0.115335,0.114898,51.276,24,0.00502364,10,0.00589153,-1.29009,0.904568,0.0652245,130.675,0.114898,
2,1,0,1,0,46512.2,0.11933,0.118897,51.8138,24,0.0052298,10,0.00616052,-1.28555,0.889049,0.0663631,134.345,0.118897,
2,1,0,1,0,46512.2,0.123325,0.122938,52.3823,24,0.00543825,10,0.0064398,-1.28082,0.85528,0.0689833,141.07,0.122938,
2,1,0,1,0,46512.2,0.127321,0.126931,52.9558,24,0.00564899,10,0.00672172,-1.27609,0.856262,0.0689041,142.387,0.126931,
2,1,0,1,0,46512.2,0.131316,0.130942,53.5393,24,0.00586203,10,0.00701057,-1.27133,0.858762,0.0687036,143.51,0.1309424,
2,1,0,1,0,46512.2,0.135311,0.134965,54.1016,24,0.00607736,10,0.00730179,-1.26679,0.857816,0.0687793,145.255,0.134965,
2,1,0,1,0,46512.2,0.139306,0.138951,54.6802,24,0.00629497,10,0.00759785,-1.26217,0.836263,0.070552,150.717,0.1389506,
2,1,0,1,0,46512.2,0.143301,0.142992,55.2887,24,0.00651495,10,0.00790583,-1.25736,0.815525,0.072346,156.261,0.142992,
2,1,0,1,0,46512.3,0.147346,0.146969,55.9549,24,0.00673753,10,0.00822365,-1.25216,0.800515,0.0737026,160.958,0.146969,
2,1,0,1,0,46512.3,0.151342,0.150989,56.6056,24,0.00696272,10,0.00854685,-1.24714,0.794654,0.0742461,163.979,0.150989,
2,1,0,1,0,46512.3,0.155337,0.154958,57.2568,24,0.00719049,10,0.00887243,-1.24217,0.801187,0.0736407,164.569,0.154958,
2,1,0,1,0,46512.3,0.159332,0.159005,57.9145,24,0.00742092,10,0.0092087,-1.23721,0.802273,0.073541,166.249,0.159005,
2,1,0,1,0,46512.3,0.163327,0.162979,58.5896,24,0.00765399,10,0.0095489,-1.23218,0.803132,0.0734624,167.98,0.162979,
2,1,0,1,0,46512.3,0.167322,0.166982,59.2645,24,0.00788976,10,0.00989612,-1.22721,0.811995,0.0726605,168,0.166982,
2,1,0,1,0,46512.3,0.171317,0.170963,59.9453,24,0.00812826,10,0.0102484,-1.22225,0.839267,0.0702994,164.314,0.1709632,
2,1,0,1,0,46512.3,0.175313,0.174957,60.5944,24,0.00836939,10,0.0106014,-1.21757,0.86794,0.0679771,160.593,0.174957,
2,1,0,1,0,46512.3,0.179308,0.178933,61.2111,24,0.00861308,10,0.0109527,-1.21317,0.903356,0.065312,155.965,0.1789332,
2,1,0,1,0,46512.3,0.183303,0.182905,61.8216,24,0.00885921,10,0.0113075,-1.20886,0.954549,0.0618093,149.028,0.1829055,
2,1,0,1,0,46512.3,0.187348,0.187018,62.4492,24,0.00910775,10,0.0116791,-1.20447,1.01425,0.0581708,141.521,0.187018,
2,1,0,1,0,46512.3,0.191343,0.190975,62.9816,24,0.00935868,10,0.0120279,-1.20079,1.12208,0.0525809,128.977,0.1909752,
2,1,0,1,0,46512.3,0.195338,0.194956,63.4786,24,0.00961166,10,0.0123755,-1.19737,1.28492,0.0459174,113.524,0.194956,
2,1,0,1,0,46512.3,0.199334,0.198975,63.8942,24,0.00986646,10,0.0127133,-1.19454,1.47963,0.0398748,99.2422,0.198975,
2,1,0,1,0,46512.3,0.203329,0.202965,64.2596,24,0.0101228,10,0.0130425,-1.19206,1.79999,0.032778,82.041,0.2029652,
2,1,0,1,0,46512.3,0.207324,0.206984,64.5704,24,0.0103805,10,0.013365,-1.18997,2.267,0.0260256,65.4269,0.206984,
2,1,0,1,0,46512.3,0.211319,0.210972,64.7926,24,0.0106393,10,0.0136695,-1.18847,3.27697,0.0180044,45.4078,0.210972,
2,1,0,1,0,46512.3,0.215314,0.214965,64.9403,24,0.0108988,10,0.0139599,-1.18749,6.08988,0.00968821,24.488,0.214965,
2,1,0,1,0,46512.3,0.219309,0.219,64.9877,24,0.0111587,10,0.0142323,-1.18717,30.1749,0.00195526,4.94721,0.219,
2,1,0,1,0,46512.3,0.223305,0.222975,64.962,24,0.0114186,10,0.0144849,-1.18734,-10.4871,-0.00562598,-14.2334,0.222975,
2,1,0,1,0,46512.3,0.227314,0.227008,64.872,24,0.0116782,10,0.0147264,-1.18794,-4.37161,-0.0134962,-34.0859,0.227008,
2,1,0,1,0,46512.3,0.231345,0.231039,64.7115,24,0.0119375,10,0.0149509,-1.18902,-2.67857,-0.0220267,-55.4604,0.231039,
2,1,0,1,0,46512.3,0.23534,0.235018,64.4417,24,0.0121958,10,0.015145,-1.19083,-1.90423,-0.0309837,-77.691,0.235018,
2,1,0,1,0,46512.3,0.239335,0.239006,64.0729,24,0.0124528,10,0.0153138,-1.19333,-1.48347,-0.0397715,-99.2087,0.239006,
2,1,0,1,0,46512.3,0.24333,0.242963,63.6324,24,0.0127082,10,0.0154603,-1.19632,-1.22622,-0.0481155,-119.215,0.242963,
2,1,0,1,0,46512.4,0.247326,0.246998,63.1284,24,0.0129617,10,0.0155926,-1.19978,-1.05419,-0.0559671,-137.535,0.246998,
2,1,0,1,0,46512.4,0.251321,0.250959,62.5413,24,0.013213,10,0.0156953,-1.20383,-0.927666,-0.0636004,-154.836,0.250959,
2,1,0,1,0,46512.4,0.255316,0.254986,61.8752,24,0.0134618,10,0.0157773,-1.20848,-0.817972,-0.0721296,-173.758,0.254986,
2,1,0,1,0,46512.4,0.259311,0.259027,61.1451,24,0.0137077,10,0.0158382,-1.21364,-0.738777,-0.0798617,-190.139,0.2590268,
2,1,0,1,0,46512.4,0.263306,0.263018,60.3447,24,0.0139506,10,0.0158717,-1.21936,-0.689987,-0.0855089,-201.046,0.263018,
2,1,0,1,0,46512.4,0.267302,0.266981,59.495,24,0.0141902,10,0.015884,-1.22552,-0.633652,-0.093111,-215.85,0.266981,
2,1,0,1,0,46512.4,0.271347,0.27106,58.6434,24,0.0144265,10,0.0158959,-1.23178,-0.594248,-0.0992852,-226.712,0.27106,
2,1,0,1,0,46512.4,0.275342,0.275041,57.6884,24,0.014659,10,0.0158667,-1.23891,-0.562529,-0.104883,-235.695,0.275041,
2,1,0,1,0,46512.4,0.279337,0.279041,56.7121,24,0.0148878,10,0.015825,-1.24632,-0.527202,-0.111912,-247.4,0.279041,
2,1,0,1,0,46512.4,0.283332,0.283045,55.7087,24,0.0151125,10,0.0157681,-1.25408,-0.51087,-0.115489,-250.894,0.283045,
2,1,0,1,0,46512.4,0.287327,0.28703,54.6925,24,0.0153332,10,0.0156984,-1.26207,-0.498526,-0.118349,-252.511,0.28703,
2,1,0,1,0,46512.4,0.291322,0.290977,53.6902,24,0.0155499,10,0.0156226,-1.2701,-0.489177,-0.120611,-252.786,0.290977,
2,1,0,1,0,46512.4,0.295318,0.295015,52.6785,24,0.0157625,10,0.0155409,-1.27837,-0.485208,-0.121597,-251.882,0.295015,
2,1,0,1,0,46512.4,0.299013,0.298716,51.7474,24,0.0159557,10,0.0154578,-1.28611,-0.177836,-0.331767,-662.045,0.298716,
2,1,0,0,0,46512.4,0.300012,0.299727,51.4942,24,0.0160073,10,0.0154342,-1.28824,0.00498751,11.8296,21760.9,0.299727,
2,1,0,1,0,46512.4,0.298714,0.298581,48.6559,24,0.0160713,10,0.0145277,-1.31286,0.0553007,1.06689,1825.4,0.298581,
2,1,0,1,0,46512.4,0.294718,0.294524,41.9952,24,0.0162513,10,0.0123686,-1.3768,0.0649344,0.908609,1458.6,0.294524,
2,1,0,1,0,46512.4,0.290723,0.290518,36.7827,24,0.0164081,10,0.010686,-1.43436,0.0680919,0.866476,1268.69,0.290518,
2,1,0,1,0,46512.4,0.286728,0.286544,32.2654,24,0.0165456,10,0.00924548,-1.49126,0.0689216,0.856045,1086.25,0.286544,
2,1,0,1,0,46512.4,0.282733,0.282477,28.2244,24,0.0166661,10,0.00797275,-1.54937,0.0671947,0.878045,969.976,0.2824766,
2,1,0,1,0,46512.4,0.278738,0.278492,24.5801,24,0.0167712,10,0.00684534,-1.60942,0.0644661,0.91521,877.346,0.278492,
2,1,0,1,0,46512.4,0.274742,0.274498,21.2441,24,0.0168625,10,0.00583147,-1.67276,0.060716,0.971738,801.517,0.274498,
2,1,0,1,0,46512.4,0.270747,0.270509,18.1968,24,0.016941,10,0.0049224,-1.74,0.0561259,1.05121,739.402,0.270509,
2,1,0,1,0,46512.4,0.266702,0.266408,15.3454,24,0.0170077,10,0.00408813,-1.81402,0.0512598,1.151,680.333,0.266408,
2,1,0,1,0,46512.4,0.262707,0.262493,12.7509,24,0.0170636,10,0.00334701,-1.89446,0.045578,1.29449,630.167,0.262493,
2,1,0,1,0,46512.4,0.258712,0.258475,10.3433,24,0.0171095,10,0.00267349,-1.98534,0.0391438,1.50726,586.25,0.258475,
2,1,0,1,0,46512.5,0.254717,0.254484,8.09845,24,0.0171461,10,0.00206093,-2.0916,0.0323702,1.82267,541.321,0.254484,
2,1,0,1,0,46512.5,0.250722,0.250502,6.02043,24,0.0171741,10,0.00150813,-2.22037,0.0241711,2.44093,505.67,0.250502,
2,1,0,1,0,46512.5,0.246726,0.246477,4.08085,24,0.0171941,10,0.00100584,-2.38925,0.0136786,4.3133,470.995,0.246477,
2,1,0,1,0,46512.5,0.242731,0.242476,2.25286,24,0.0172065,10,0.000546265,-2.64727,0.0210823,2.79856,441.443,0.242476,
2,1,0,1,0,46512.5,0.238736,0.238445,0.544341,24,0.0172119,10,0.000129796,-3.26413,0.0783279,0.753244,414.586,0.238445,
2,0,0,1,0,46512.5,0.234741,0.234491,-1.04754,24,0.0172107,10,-0.000245639,-2.97983,-0.0640773,-0.920764,390.212,0.234491,
2,0,0,1,0,46512.5,0.230746,0.230483,-2.5501,24,0.0172033,10,-0.000587753,-2.59344,-0.0161368,-3.65624,367.329,0.230483,
2,0,0,1,0,46512.5,0.226701,0.226424,-4.01099,24,0.0171901,10,-0.000908182,-2.39675,-0.0200974,-2.93571,345.398,0.226424,
2,0,0,1,0,46512.5,0.222705,0.222459,-5.32804,24,0.0171713,10,-0.00118527,-2.27343,-0.0331178,-1.78152,325.933,0.222459,
2,0,0,1,0,46512.5,0.21871,0.218434,-6.59349,24,0.0171473,10,-0.00144025,-2.18088,-0.0461116,-1.2795,306.459,0.218434,
2,0,0,1,0,46512.5,0.214715,0.214444,-7.77761,24,0.0171184,10,-0.00166786,-2.10915,-0.0589064,-1.00159,289.778,0.214444,
2,0,0,1,0,46512.5,0.21072,0.210445,-8.90766,24,0.0170849,10,-0.00187457,-2.05024,-0.0717879,-0.821866,276.214,0.210445,
2,0,0,1,0,46512.5,0.206725,0.206397,-9.98245,24,0.017047,10,-0.00206034,-2.00076,-0.0853498,-0.691272,262.511,0.206397,
2,0,0,1,0,46512.5,0.20273,0.202465,-11.0046,24,0.0170049,10,-0.00222803,-1.95843,-0.0990943,-0.595392,250.695,0.202465,
2,0,0,1,0,46512.5,0.198734,0.198414,-11.9857,24,0.0169589,10,-0.00237813,-1.92134,-0.113456,-0.520025,239.346,0.198414,
2,0,0,1,0,46512.5,0.194739,0.194448,-12.9181,24,0.016909,10,-0.0025119,-1.8888,-0.128007,-0.460913,229.508,0.194448,
2,0,0,1,0,46512.5,0.190744,0.1904,-13.8111,24,0.0168554,10,-0.00262963,-1.85977,-0.141289,-0.417583,223.107,0.1904,
2,0,0,1,0,46512.5,0.186735,0.186404,-14.6907,24,0.0167983,10,-0.0027384,-1.83296,-0.156566,-0.376837,214.267,0.186404,
2,0,0,1,0,46512.5,0.182704,0.182443,-15.5489,24,0.0167377,10,-0.00283679,-1.8083,-0.170656,-0.345724,207.999,0.182443,
2,0,0,1,0,46512.5,0.178709,0.178405,-16.3556,24,0.0166738,10,-0.00291792,-1.78633,-0.186755,-0.315923,200.284,0.178405,
2,0,0,1,0,46512.5,0.174713,0.174394,-17.1405,24,0.0166067,10,-0.00298919,-1.76598,-0.201422,-0.292917,195.11,0.174394,
2,0,0,1,0,46512.5,0.170718,0.170361,-17.9038,24,0.0165365,10,-0.00305011,-1.74705,-0.21293,-0.277086,193.064,0.170361,
2,0,0,1,0,46512.5,0.166723,0.166385,-18.6819,24,0.0164633,10,-0.0031084,-1.72858,-0.223675,-0.263775,191.791,0.166385,
2,0,0,1,0,46512.5,0.162728,0.162428,-19.4402,24,0.016387,10,-0.00315763,-1.7113,-0.231081,-0.255321,193.339,0.162428,
2,0,0,1,0,46512.5,0.158733,0.158415,-20.205,24,0.0163076,10,-0.00320078,-1.69454,-0.240289,-0.245537,193.412,0.158415,
2,0,0,1,0,46512.6,0.154737,0.154431,-20.9836,24,0.0162252,10,-0.00324052,-1.67812,-0.246376,-0.239471,195.966,0.154431,
2,0,0,1,0,46512.6,0.150742,0.15045,-21.7641,24,0.0161396,10,-0.0032744,-1.66226,-0.245515,-0.240311,204.474,0.15045,
2,0,0,1,0,46512.6,0.146747,0.146434,-22.5745,24,0.0160509,10,-0.00330567,-1.64638,-0.246741,-0.239117,211.211,0.146434,
2,0,0,1,0,46512.6,0.142702,0.142392,-23.4814,24,0.0159587,10,-0.00334356,-1.62928,-0.244514,-0.241295,221.256,0.142392,
2,0,0,1,0,46512.6,0.138707,0.138414,-24.3666,24,0.0158629,10,-0.00337268,-1.6132,-0.241285,-0.244524,232.782,0.138414,
2,0,0,1,0,46512.6,0.134712,0.134395,-25.3163,24,0.0157635,10,-0.00340238,-1.5966,-0.23927,-0.246583,244.27,0.134395,
2,0,0,1,0,46512.6,0.130717,0.130402,-26.3065,24,0.0156602,10,-0.00343041,-1.57994,-0.231921,-0.254397,262.141,0.1304016,
2,0,0,1,0,46512.6,0.126721,0.126412,-27.3847,24,0.0155527,10,-0.00346176,-1.56249,-0.226285,-0.260733,279.681,0.126412,
2,0,0,1,0,46512.6,0.122726,0.122454,-28.5504,24,0.0154407,10,-0.00349611,-1.54439,-0.220339,-0.267769,299.126,0.122454,
2,0,0,1,0,46512.6,0.118731,0.118452,-29.7753,24,0.015324,10,-0.00352694,-1.52614,-0.217836,-0.270846,315.251,0.118452,
2,0,0,1,0,46512.6,0.114736,0.114465,-31.0736,24,0.0152021,10,-0.00355683,-1.50761,-0.218788,-0.269668,327.228,0.114465,
2,0,0,1,0,46512.6,0.110741,0.110488,-32.4048,24,0.0150751,10,-0.00358034,-1.48939,-0.219023,-0.269379,340.948,0.110488,
2,0,0,1,0,46512.6,0.106745,0.106468,-33.7814,24,0.0149426,10,-0.00359664,-1.47132,-0.22482,-0.262432,345.859,0.1064682,
2,0,0,1,0,46512.6,0.102703,0.102423,-35.2404,24,0.0148044,10,-0.00360942,-1.45296,-0.230986,-0.255427,350.272,0.102423,
2,0,0,1,0,46512.6,0.0987052,0.0984399,-36.616,24,0.0146606,10,-0.00360447,-1.43633,-0.239941,-0.245894,350.47,0.0984399,
2,0,0,1,0,46512.6,0.09471,0.0944559,-38.0204,24,0.0145112,10,-0.00359125,-1.41998,-0.253002,-0.2332,345.166,0.09445592,
2,0,0,1,0,46512.6,0.0907148,0.0904243,-39.4043,24,0.0143562,10,-0.0035631,-1.40446,-0.265208,-0.222467,341.059,0.0904243,
2,0,0,1,0,46512.6,0.0867196,0.0864764,-40.7445,24,0.0141958,10,-0.00352344,-1.38993,-0.280724,-0.210171,333.238,0.0864764,
2,0,0,1,0,46512.6,0.0827245,0.082432,-42.0756,24,0.01403,10,-0.00346837,-1.37597,-0.297766,-0.198142,324.273,0.082432,
2,0,0,1,0,46512.6,0.0787293,0.0784607,-43.3506,24,0.013859,10,-0.00340132,-1.363,-0.319316,-0.18477,311.412,0.0784607,
2,0,0,1,0,46512.6,0.0747341,0.0744927,-44.5705,24,0.013683,10,-0.00332017,-1.35095,-0.346402,-0.170322,294.959,0.0744927,
2,0,0,1,0,46512.6,0.070739,0.0704907,-45.7226,24,0.0135023,10,-0.00322302,-1.33987,-0.371844,-0.158669,282.136,0.0704907,
2,0,0,1,0,46512.6,0.0667438,0.0665704,-46.7541,24,0.0133172,10,-0.00311244,-1.33018,-0.396266,-0.14889,271.423,0.0665704,
2,0,0,1,0,46512.6,0.0627403,0.0625218,-47.8476,24,0.0131279,10,-0.00299152,-1.32014,-0.42845,-0.137706,256.599,0.0625218,
2,0,0,1,0,46512.6,0.0587035,0.0584721,-48.9188,24,0.0129342,10,-0.00286039,-1.31052,-0.459239,-0.128473,244.142,0.0584721,
2,0,0,1,0,46512.7,0.0547083,0.0544892,-49.8286,24,0.0127366,10,-0.00271512,-1.30252,-0.505083,-0.116812,226.297,0.05448921,
2,0,0,1,0,46512.7,0.0507132,0.0504713,-50.6846,24,0.0125355,10,-0.00255812,-1.29512,-0.564362,-0.104543,206.232,0.0504713,
2,0,0,1,0,46512.7,0.046718,0.0464906,-51.4754,24,0.0123311,10,-0.00239312,-1.2884,-0.617147,-0.0956013,191.584,0.0464906,
2,0,0,1,0,46512.7,0.0427228,0.0425056,-52.2116,24,0.0121236,10,-0.00221928,-1.28223,-0.67258,-0.0877219,178.352,0.0425056,
2,0,0,1,0,46512.7,0.0387276,0.038459,-52.8997,24,0.0119133,10,-0.00203447,-1.27655,-0.730213,-0.0807984,166.465,0.038459,
2,0,0,1,0,46512.7,0.0347325,0.0344963,-53.5337,24,0.0117004,10,-0.00184672,-1.27137,-0.790983,-0.0745907,155.577,0.0344963,
2,0,0,1,0,46512.7,0.0307373,0.0305569,-54.1278,24,0.011485,10,-0.00165398,-1.26658,-0.856028,-0.068923,145.392,0.0305569,
2,0,0,1,0,46512.7,0.0267421,0.0265411,-54.6953,24,0.0112673,10,-0.00145168,-1.26205,-0.912547,-0.0646542,137.861,0.0265411,
2,0,0,1,0,46512.7,0.022747,0.0224946,-55.2208,24,0.0110474,10,-0.00124217,-1.2579,-1.00913,-0.0584662,125.815,0.0224946,
2,0,0,1,0,46512.7,0.0187018,0.0183909,-55.7541,24,0.0108254,10,-0.00102536,-1.25372,-1.13501,-0.0519819,112.799,0.0183909,
2,0,0,1,0,46512.7,0.0147067,0.014374,-56.1638,24,0.0106015,10,-0.000807301,-1.25054,-1.27344,-0.0463312,101.31,0.014374,
2,0,0,1,0,46512.7,0.0107115,0.0103827,-56.518,24,0.0103761,10,-0.000586807,-1.24781,-1.49641,-0.0394276,86.8569,0.0103827,
2,0,0,1,0,46512.7,0.00671632,0.00645386,-56.8459,24,0.0101493,10,-0.000366875,-1.2453,-1.65677,-0.0356114,78.932,0.00645386,
2,0,0,1,0,46512.7,0.00272115,0.00237235,-57.1454,24,0.00992129,10,-0.000135569,-1.24302,-1.89629,-0.0311134,69.299,0.00237235,
2,0,0,1,0,46512.7,-0.00127403,-0.00164341,-57.4281,24,0.00969205,10,9.43779e-05,-1.24088,-2.28597,-0.0258096,57.725,-0.00164341,
2,0,0,1,0,46512.7,-0.0052692,-0.00563054,-57.6277,24,0.00946192,10,0.000324475,-1.23937,-2.80675,-0.0210208,47.1887,-0.00563054,
2,0,0,1,0,46512.7,-0.00926438,-0.00961449,-57.7735,24,0.0092311,10,0.000555462,-1.23827,-3.80461,-0.0155075,34.9241,-0.00961449,
2,0,0,1,0,46512.7,-0.0132596,-0.0135794,-57.8981,24,0.00899972,10,0.000786219,-1.23734,-4.70285,-0.0125456,28.3259,-0.0135794,
2,0,0,1,0,46512.7,-0.0172547,-0.0175707,-57.9844,24,0.00876795,10,0.00101883,-1.23669,-7.04925,-0.00836969,18.9208,-0.0175707,
2,0,0,1,0,46512.7,-0.0212915,-0.0215928,-58.0798,24,0.00853585,10,0.00125411,-1.23597,-16.1595,-0.00365111,8.25944,-0.0215928,
2,0,0,1,0,46512.7,-0.025295,-0.0256659,-58.0772,24,0.00830352,10,0.0014906,-1.23599,83.0977,0.000710007,-1.60635,-0.0256659,
2,0,0,1,0,46512.7,-0.0292902,-0.0296657,-58.031,24,0.00807131,10,0.00172153,-1.23634,10.2902,0.00573363,-12.973,-0.0296657,
2,0,0,1,0,46512.7,-0.0332854,-0.0336507,-57.9585,24,0.00783933,10,0.00195035,-1.23688,6.42744,0.00917939,-20.7463,-0.0336507,
2,0,0,1,0,46512.7,-0.0372805,-0.037622,-57.8719,24,0.00760768,10,0.00217725,-1.23753,4.90545,0.0120274,-27.1376,-0.037622,
2,0,0,1,0,46512.7,-0.0412757,-0.0416504,-57.7455,24,0.00737645,10,0.00240513,-1.23848,3.99103,0.0147832,-33.2848,-0.0416504,
2,0,0,1,0,46512.8,-0.0452709,-0.0456174,-57.5981,24,0.00714577,10,0.00262748,-1.23959,3.37103,0.0175021,-39.3141,-0.0456174,
2,0,0,1,0,46512.8,-0.0492661,-0.0496448,-57.4262,24,0.00691574,10,0.00285091,-1.24089,3.07844,0.0191655,-42.9357,-0.04964485,
2,0,0,1,0,46512.8,-0.0532612,-0.0536267,-57.2427,24,0.00668641,10,0.00306974,-1.24228,2.88343,0.0204617,-45.7039,-0.0536267,
2,0,0,1,0,46512.8,-0.0572564,-0.0575767,-57.0617,24,0.00645783,10,0.00328543,-1.24366,2.94049,0.0200647,-44.6877,-0.0575767,
2,0,0,1,0,46512.8,-0.0612544,-0.0615532,-56.8698,24,0.00623,10,0.00350052,-1.24512,2.79299,0.0211243,-46.8819,-0.0615532,
2,0,0,1,0,46512.8,-0.0652967,-0.0656432,-56.7113,24,0.00600277,10,0.00372271,-1.24633,2.69076,0.0219269,-48.4959,-0.0656432,
2,0,0,1,0,46512.8,-0.0692919,-0.0696325,-56.4923,24,0.0057764,10,0.0039337,-1.24801,2.69587,0.0218854,-48.2416,-0.0696325,
2,0,0,1,0,46512.8,-0.0732871,-0.0736355,-56.2829,24,0.00555087,10,0.00414442,-1.24962,2.58204,0.0228502,-50.2146,-0.0736355,
2,0,0,1,0,46512.8,-0.0772822,-0.0776205,-56.0946,24,0.00532613,10,0.0043541,-1.25108,2.7003,0.0218494,-47.8444,-0.0776205,
2,0,0,1,0,46512.8,-0.0812774,-0.0816289,-55.9085,24,0.00510215,10,0.00456375,-1.25252,2.83556,0.0208071,-45.4093,-0.0816289,
2,0,0,1,0,46512.8,-0.0852726,-0.0856404,-55.7264,24,0.00487889,10,0.00477243,-1.25394,2.92945,0.0201403,-43.8154,-0.0856404,
2,0,0,1,0,46512.8,-0.0892678,-0.0895766,-55.5591,24,0.00465635,10,0.00497679,-1.25525,3.11868,0.0189183,-41.036,-0.0895766,
2,0,0,1,0,46512.8,-0.0932629,-0.0935987,-55.3946,24,0.00443449,10,0.00518486,-1.25653,3.42682,0.0172171,-37.2444,-0.0935987,
2,0,0,1,0,46512.8,-0.0972581,-0.0976071,-55.2529,24,0.00421321,10,0.00539307,-1.25765,4.18564,0.0140958,-30.4293,-0.0976071,
2,0,0,1,0,46512.8,-0.101253,-0.101586,-55.1325,24,0.00399245,10,0.00560068,-1.25859,4.59776,0.0128323,-27.6306,-0.101586,
2,0,0,1,0,46512.8,-0.105298,-0.105639,-55.0703,24,0.00377206,10,0.00581755,-1.25908,5.25918,0.0112185,-24.1061,-0.105639,
2,0,0,1,0,46512.8,-0.109294,-0.10966,-54.9508,24,0.00355204,10,0.00602588,-1.26003,6.05358,0.0097463,-20.9068,-0.10966,
2,0,0,1,0,46512.8,-0.113289,-0.11365,-54.8661,24,0.00333243,10,0.00623553,-1.2607,6.57437,0.00897425,-19.2337,-0.11365,
2,0,0,1,0,46512.8,-0.117284,-0.117626,-54.7972,24,0.00311311,10,0.0064456,-1.26124,8.9149,0.00661813,-14.1637,-0.117626,
2,0,0,1,0,46512.8,-0.121279,-0.121638,-54.7626,24,0.00289399,10,0.00666121,-1.26152,12.0244,0.00490671,-10.4904,-0.121638,
2,0,0,1,0,46512.8,-0.125274,-0.125669,-54.724,24,0.00267505,10,0.00687709,-1.26182,19.659,0.00300116,-6.41217,-0.125669,
2,0,0,1,0,46512.8,-0.129269,-0.129623,-54.6986,24,0.0024562,10,0.00709018,-1.26202,41.7,0.00141487,-3.02254,-0.129623,
2,0,0,1,0,46512.8,-0.133265,-0.133624,-54.6946,24,0.00223743,10,0.0073085,-1.26206,-64.9952,-0.000907759,1.93926,-0.133624,
2,0,0,1,0,46512.8,-0.13726,-0.137643,-54.7142,24,0.00201862,10,0.00753101,-1.2619,-13.9161,-0.00423968,9.06249,-0.137643,
2,0,0,1,0,46512.8,-0.141255,-0.141667,-54.7551,24,0.00179967,10,0.00775698,-1.26158,-10.6926,-0.00551781,11.7984,-0.141667,
2,0,0,1,0,46512.9,-0.145286,-0.145605,-54.8434,24,0.00158052,10,0.00798549,-1.26088,-8.57727,-0.00687864,14.7197,-0.145605,
2,0,0,1,0,46512.9,-0.149295,-0.14964,-54.8836,24,0.00136107,10,0.00821279,-1.26056,-7.38184,-0.00799258,17.1221,-0.14964,
2,0,0,1,0,46512.9,-0.15329,-0.153623,-54.9494,24,0.00114139,10,0.0084415,-1.26004,-7.35735,-0.00801919,17.2071,-0.153623,
2,0,0,1,0,46512.9,-0.157286,-0.157646,-55.0287,24,0.000921443,10,0.00867506,-1.25941,-5.97339,-0.00987714,21.2213,-0.157646,
2,0,0,1,0,46512.9,-0.161281,-0.161616,-55.1189,24,0.000701133,10,0.00890812,-1.2587,-5.72969,-0.0102972,22.1536,-0.1616164,
2,0,0,1,0,46512.9,-0.165276,-0.165575,-55.2217,24,0.000480449,10,0.00914333,-1.25789,-5.4207,-0.0108842,23.4542,-0.165575,
2,0,0,1,0,46512.9,-0.169271,-0.16961,-55.3036,24,0.000259405,10,0.00938003,-1.25725,-5.08622,-0.0116,25.0435,-0.16961,
2,0,0,1,0,46512.9,-0.173266,-0.173592,-55.4026,24,3.79779e-05,10,0.00961743,-1.25647,-5.01729,-0.0117593,25.4362,-0.173592,
2,0,0,1,0,46512.9,-0.177261,-0.177622,-55.5197,24,-0.000183866,10,0.00986154,-1.25555,-4.62138,-0.0127667,27.6646,-0.1776222,
2,0,0,1,0,46512.9,-0.181257,-0.181571,-55.6286,24,-0.000406184,10,0.0101006,-1.2547,-4.23605,-0.0139281,30.2462,-0.181571,
2,0,0,1,0,46512.9,-0.185252,-0.185561,-55.7449,24,-0.000628939,10,0.0103441,-1.25379,-4.41778,-0.0133551,29.0579,-0.185561,
2,0,0,1,0,46512.9,-0.189297,-0.189559,-55.8856,24,-0.000852266,10,0.0105936,-1.2527,-4.44059,-0.0132865,28.9652,-0.189559,
2,0,0,1,0,46512.9,-0.193292,-0.193564,-55.983,24,-0.00107602,10,0.0108363,-1.25194,-4.64536,-0.0127008,27.7328,-0.193564,
2,0,0,1,0,46512.9,-0.197287,-0.19758,-56.0923,24,-0.00130017,10,0.0110827,-1.2511,21.2962,0.00277044,-6.03889,-0.1975801,
2,0,0,0,0,46512.9,-0.199984,-0.200341,-56.1548,24,-0.00145172,10,0.0112501,-1.25061,0.0647856,0.910697,-1868.1,-0.200341,
2,0,0,0,1,46512.9,-0.199984,-0.200437,-55.8199,24,-0.00148525,10,0.0111884,-1.25321,-0.04047,-1.45787,2822.6,-0.2004368,
2,0,0,1,1,46512.9,-0.196688,-0.197152,-49.2814,24,-0.00164541,10,0.00971591,-1.30732,-0.0711801,-0.828883,1523.26,-0.197152,
2,0,0,1,1,46512.9,-0.192693,-0.193171,-43.647,24,-0.00183033,10,0.00843134,-1.36005,-0.0759987,-0.776329,1352.03,-0.193171,
2,0,0,1,1,46512.9,-0.188698,-0.189116,-39.0555,24,-0.00199507,10,0.00738602,-1.40832,-0.0827319,-0.713147,1106.05,-0.189116,
2,0,0,1,1,46512.9,-0.184653,-0.185065,-35.0371,24,-0.00214273,10,0.00648414,-1.45547,-0.0856628,-0.688747,952.307,-0.185065,
2,0,0,1,1,46512.9,-0.180657,-0.181092,-31.5184,24,-0.0022754,10,0.00570772,-1.50144,-0.0853292,-0.69144,855.809,-0.181092,
2,0,0,1,1,46512.9,-0.176662,-0.177069,-28.3127,24,-0.00239468,10,0.0050133,-1.54802,-0.0838812,-0.703376,778.458,-0.177069,
2,0,0,1,1,46512.9,-0.172667,-0.173109,-25.3567,24,-0.00250165,10,0.00438948,-1.59591,-0.0810923,-0.727566,719.148,-0.1731091,
2,0,0,1,1,46512.9,-0.168672,-0.169073,-22.588,24,-0.0025972,10,0.00381902,-1.64612,-0.0769843,-0.76639,673.299,-0.169073,
2,0,0,1,1,46512.9,-0.164677,-0.165082,-20.0048,24,-0.00268208,10,0.00330243,-1.69887,-0.0724808,-0.814009,631.569,-0.165082,
2,0,0,1,1,46512.9,-0.160682,-0.161101,-17.5618,24,-0.00275692,10,0.00282922,-1.75543,-0.0670293,-0.880212,597.132,-0.161101,
2,0,0,1,1,46512.9,-0.156686,-0.157116,-15.256,24,-0.00282229,10,0.00239696,-1.81656,-0.0609593,-0.96786,567.163,-0.157116,
2,0,0,1,1,46513,-0.152691,-0.153094,-13.0462,24,-0.00287866,10,0.0019973,-1.88452,-0.053898,-1.09466,543.818,-0.153094,
2,0,0,1,1,46513,-0.148696,-0.149088,-10.9335,24,-0.00292637,10,0.00163005,-1.96124,-0.046883,-1.25845,518.562,-0.1490877,
2,0,0,1,1,46513,-0.14467,-0.145131,-8.87713,24,-0.00296581,10,0.00128835,-2.05173,-0.0389964,-1.51296,498.322,-0.145131,
2,0,0,1,1,46513,-0.140656,-0.141082,-6.94115,24,-0.0029972,10,0.000979269,-2.15857,-0.0304633,-1.93675,479.762,-0.141082,
2,0,0,1,1,46513,-0.136661,-0.137089,-5.07073,24,-0.00302101,10,0.000695142,-2.29493,-0.0209933,-2.81042,458.083,-0.137089,
2,0,0,1,1,46513,-0.132665,-0.133109,-3.26779,24,-0.00303752,10,0.000434973,-2.48575,-0.00992469,-5.94477,444.469,-0.133109,
2,0,0,1,1,46513,-0.12867,-0.129087,-1.52767,24,-0.00304692,10,0.000197203,-2.81597,-0.0354429,-1.66465,428.982,-0.129087,
2,0,0,1,1,46513,-0.124675,-0.125083,0.169612,24,-0.00304945,10,-2.12156e-05,-3.77054,0.991782,0.0594889,416.516,-0.125083,
2,1,0,1,1,46513,-0.12068,-0.121089,1.79319,24,-0.00304535,10,-0.000217135,-2.74637,0.03129,1.88559,405.518,-0.121089,
2,1,0,1,1,46513,-0.116685,-0.117122,3.39136,24,-0.00303481,10,-0.000397202,-2.46963,0.0100731,5.85718,394.738,-0.117122,
2,1,0,1,1,46513,-0.112689,-0.113131,4.94275,24,-0.00301798,10,-0.00055918,-2.30603,0.0246621,2.39233,385.594,-0.113131,
2,1,0,1,1,46513,-0.108694,-0.109164,6.45339,24,-0.00299501,10,-0.000704481,-2.19021,0.0360452,1.63684,376.814,-0.109164,
2,1,0,1,1,46513,-0.104699,-0.105157,7.9363,24,-0.00296607,10,-0.000834559,-2.10038,0.0470782,1.25323,366.928,-0.105157,
2,1,0,1,1,46513,-0.100654,-0.10114,9.41338,24,-0.00293118,10,-0.000952072,-2.02625,0.0578681,1.01956,359.159,-0.10114,
2,1,0,1,1,46513,-0.0966588,-0.0971097,10.8216,24,-0.00289055,10,-0.00105088,-1.96571,0.0690001,0.855071,350.216,-0.0971097,
2,1,0,1,1,46513,-0.0926636,-0.093147,12.2062,24,-0.00284436,10,-0.00113697,-1.91342,0.0805466,0.732495,341.179,-0.09314698,
2,1,0,1,1,46513,-0.0886685,-0.0891238,13.5514,24,-0.00279271,10,-0.00120776,-1.86801,0.0918782,0.642154,333.527,-0.0891238,
2,1,0,1,1,46513,-0.0846733,-0.0851451,14.8706,24,-0.00273574,10,-0.00126616,-1.82767,0.104158,0.566448,324.013,-0.0851451,
2,1,0,1,1,46513,-0.0806781,-0.0811336,16.15,24,-0.00267357,10,-0.00131031,-1.79183,0.115755,0.509698,317.626,-0.0811336,
2,1,0,1,1,46513,-0.076683,-0.0770702,17.4153,24,-0.0026063,10,-0.0013422,-1.75907,0.128097,0.460589,309.884,-0.0770702,
2,1,0,1,1,46513,-0.0726878,-0.0730555,18.6552,24,-0.00253403,10,-0.00136286,-1.7292,0.139851,0.421878,304.223,-0.0730555,
2,1,0,1,1,46513,-0.0686926,-0.0690853,19.8473,24,-0.0024569,10,-0.00137116,-1.7023,0.151426,0.38963,299.818,-0.0690853,
2,1,0,1,1,46513,-0.0646974,-0.065131,21.0184,24,-0.00237504,10,-0.00136895,-1.6774,0.165483,0.356532,290.77,-0.065131,
2,1,0,1,1,46513,-0.0606523,-0.0610676,22.2132,24,-0.00228849,10,-0.0013565,-1.65339,0.178454,0.330617,284.465,-0.0610676,
2,1,0,1,1,46513,-0.0566571,-0.0570401,23.3119,24,-0.00219733,10,-0.00132972,-1.63242,0.192769,0.306066,276.803,-0.0570401,
2,1,0,1,1,46513.1,-0.052662,-0.0530721,24.4025,24,-0.00210179,10,-0.00129509,-1.61257,0.208681,0.282729,268.066,-0.0530721,
2,1,0,1,1,46513.1,-0.0486668,-0.0490447,25.4711,24,-0.00200193,10,-0.00124922,-1.59395,0.222259,0.265456,262.664,-0.0490447,
2,1,0,1,1,46513.1,-0.0446716,-0.0450681,26.5021,24,-0.00189788,10,-0.0011944,-1.57672,0.237061,0.248881,256.397,-0.0450681,
2,1,0,1,1,46513.1,-0.0406764,-0.0410513,27.5116,24,-0.00178975,10,-0.00112939,-1.56048,0.253191,0.233026,249.325,-0.0410513,
2,1,0,1,1,46513.1,-0.0366813,-0.0371002,28.4976,24,-0.00167764,10,-0.00105727,-1.54519,0.267952,0.220189,244.106,-0.0371002,
2,1,0,1,1,46513.1,-0.0326861,-0.033059,29.4568,24,-0.00156162,10,-0.000973812,-1.53082,0.28359,0.208047,238.455,-0.033059,
2,1,0,1,1,46513.1,-0.0286909,-0.0290984,30.4004,24,-0.00144178,10,-0.000884603,-1.51712,0.30054,0.196314,232.286,-0.0290984,
2,1,0,1,1,46513.1,-0.0246957,-0.0251346,31.307,24,-0.00131827,10,-0.00078689,-1.50436,0.317398,0.185886,226.584,-0.0251346,
2,1,0,1,1,46513.1,-0.0206756,-0.0210945,32.2155,24,-0.00119117,10,-0.000679569,-1.49193,0.33908,0.174,218.123,-0.0210945,
2,1,0,1,1,46513.1,-0.0166554,-0.0170681,33.0801,24,-0.00106046,10,-0.000564613,-1.48043,0.357883,0.164858,212.225,-0.01706809,
2,1,0,1,1,46513.1,-0.0126603,-0.0130311,33.905,24,-0.000926396,10,-0.00044182,-1.46974,0.381256,0.154752,204.3,-0.0130311,
2,1,0,1,1,46513.1,-0.0086651,-0.00903975,34.7228,24,-0.000789052,10,-0.000313885,-1.45939,0.403798,0.146113,197.357,-0.00903975,
2,1,0,1,1,46513.1,-0.00466992,-0.0050558,35.4922,24,-0.000648546,10,-0.000179442,-1.44987, , , ,-0.0050558,
2,1,0,1,1,46513.1,-0.000974387,-0.001329,36.1863,24,-0.000515918,10,-4.80915e-05,-1.44146, , , ,-0.001329,
2,1,0,0,1,46513.1,-0.000175352,-0.000535284,36.3414,24,-0.000486927,10,-1.9453e-05,-1.4396, , , ,-0.000535284,