File: Figure_codes/Fig_3-5/rawdata_trumpetplot_data/after 10th/20221101_1-115_003_TrumpetPlot_ParaChange_from10_every3_05_CV_C01_4.csv
mode,ox/red,error,control changes,counter inc.,time/s,control/V,Ewe/V,<I>/mA,cycle number,(Q-Qo)/C,I Range,P/W,log(|I|),Tafel slope mV/dec,alpha_eff,dI/d(E-IR),E-IR/V,
2,0,0,1,0,9000.54,2.44065e-05,-0.000325324,-0.727158,5,0.0000000E+000,10,2.36561e-07,-3.13837, , , ,-0.000325324,
2,1,0,1,0,9000.6,0.00129787,0.000931314,0.283011,5,-2.94008e-06,10,2.63572e-07,-3.5482, , , ,0.000931314,
2,1,0,1,0,9000.68,0.00279606,0.00251656,0.586792,5,3.32014e-05,10,1.47669e-06,-3.23152,0.00387236,15.2362,153.306,0.00251656,
2,1,0,1,0,9000.75,0.00429425,0.00397929,0.664004,5,8.17651e-05,10,2.64227e-06,-3.17783,0.0282507,2.08845,50.6891,0.00397929,
2,1,0,1,0,9000.83,0.00579244,0.00548131,0.713335,5,0.000135119,10,3.91001e-06,-3.14671,0.0501661,1.17609,32.3741,0.00548131,
2,1,0,1,0,9000.9,0.00729063,0.00699247,0.759041,5,0.00019185,10,5.30757e-06,-3.11973,0.0686833,0.859015,25.2246,0.00699247,
2,1,0,1,0,9000.98,0.00878882,0.00847691,0.793664,5,0.000251472,10,6.72782e-06,-3.10036,0.0844237,0.698856,21.5136,0.008476912,
2,1,0,1,0,9001.05,0.010287,0.00996739,0.821337,5,0.000313499,10,8.18658e-06,-3.08548,0.110565,0.533625,17.0024,0.00996739,
2,1,0,1,0,9001.13,0.0117852,0.0115098,0.847405,5,0.000377557,10,9.75342e-06,-3.07191,0.123496,0.477747,15.768,0.0115098,
2,1,0,1,0,9001.2,0.0132847,0.0129894,0.871234,5,0.000443329,10,1.13168e-05,-3.05986,0.117908,0.500388,17.095,0.0129894,
2,1,0,1,0,9001.28,0.0147802,0.0144682,0.895192,5,0.000510858,10,1.29518e-05,-3.04808,0.128302,0.459853,16.0594,0.0144682,
2,1,0,1,0,9001.35,0.0162798,0.0159899,0.917202,5,0.000580474,10,1.4666e-05,-3.03753,0.155337,0.379819,13.5421,0.0159899,
2,1,0,1,0,9001.43,0.017778,0.0174618,0.937643,5,0.000651443,10,1.63729e-05,-3.02796,0.166574,0.354197,12.9317,0.0174618,
2,1,0,1,0,9001.5,0.0192761,0.0189685,0.95589,5,0.000723663,10,1.81318e-05,-3.01959,0.170035,0.346988,12.9593,0.0189685,
2,1,0,1,0,9001.58,0.0207743,0.0204777,0.979553,5,0.000797539,10,2.0059e-05,-3.00897,0.14911,0.395682,15.062,0.0204777,
2,1,0,1,0,9001.65,0.0222725,0.0219815,0.997429,5,0.000872949,10,2.1925e-05,-3.00112,0.169615,0.347847,13.5243,0.0219815,
2,1,0,1,0,9001.73,0.0237707,0.0235008,1.01607,5,0.000949904,10,2.38785e-05,-2.99308,0.189607,0.311169,12.3311,0.0235008,
2,1,0,1,0,9001.8,0.0252689,0.024969,1.03164,5,0.00102808,10,2.5759e-05,-2.98647,0.192469,0.306542,12.4208,0.024969,
2,1,0,1,0,9001.88,0.0267671,0.0264614,1.05532,5,0.00110773,10,2.79253e-05,-2.97661,0.163234,0.361445,14.8757,0.0264614,
2,1,0,1,0,9001.95,0.0282653,0.0279521,1.07617,5,0.00118899,10,3.00813e-05,-2.96812,0.177673,0.33207,13.9567,0.02795211,
2,1,0,1,0,9002.03,0.0297644,0.0294355,1.09631,5,0.00127199,10,3.22703e-05,-2.96007,0.192147,0.307056,13.0913,0.0294355,
2,1,0,1,0,9002.1,0.0312599,0.0309188,1.10861,5,0.00135608,10,3.42768e-05,-2.95522,0.199391,0.295901,12.8917,0.0309188,
2,1,0,1,0,9002.18,0.0327599,0.0324509,1.13365,5,0.00144172,10,3.67881e-05,-2.94552,0.18877,0.31255,13.8522,0.0324509,
2,1,0,1,0,9002.25,0.034258,0.0339534,1.15458,5,0.00152902,10,3.92019e-05,-2.93758,0.180705,0.3265,14.6969,0.0339534,
2,1,0,1,0,9002.33,0.0357562,0.0354637,1.1743,5,0.00161788,10,4.16449e-05,-2.93022,0.227694,0.259119,11.8672,0.0354637,
2,1,0,1,0,9002.4,0.0372544,0.036912,1.19712,5,0.0017082,10,4.4188e-05,-2.92186,0.232164,0.25413,11.8708,0.036912,
2,1,0,1,0,9002.48,0.0387526,0.0384476,1.21295,5,0.0017997,10,4.66351e-05,-2.91616,0.208065,0.283565,13.4916,0.0384476,
2,1,0,1,0,9002.55,0.0402508,0.0399765,1.23435,5,0.00189297,10,4.93448e-05,-2.90856,0.201275,0.293132,14.1322,0.0399765,
2,1,0,1,0,9002.63,0.041749,0.041442,1.25733,5,0.00198801,10,5.21064e-05,-2.90055,0.223795,0.263634,12.9151,0.041442,
2,1,0,1,0,9002.7,0.0432472,0.0429874,1.28036,5,0.00208443,10,5.50393e-05,-2.89267,0.240563,0.245258,12.238,0.0429874,
2,1,0,1,0,9002.77,0.0447449,0.0444201,1.29528,5,0.00218205,10,5.75365e-05,-2.88764,0.232563,0.253695,12.8397,0.0444201,
2,1,0,1,0,9002.85,0.0462445,0.045911,1.31564,5,0.00228138,10,6.04025e-05,-2.88086,0.212825,0.277223,14.202,0.045911,
2,1,0,1,0,9002.92,0.04774,0.0474473,1.33561,5,0.00238205,10,6.3371e-05,-2.87432,0.226958,0.25996,13.5341,0.0474473,
2,1,0,1,0,9003,0.0492399,0.0489557,1.35262,5,0.00248435,10,6.62184e-05,-2.86882,0.261045,0.226015,11.9413,0.04895566,
2,1,0,1,0,9003.07,0.0507381,0.0504352,1.36911,5,0.00258781,10,6.90515e-05,-2.86356,0.253297,0.232929,12.4683,0.0504352,
2,1,0,1,0,9003.15,0.0522363,0.0519241,1.38815,5,0.00269272,10,7.20784e-05,-2.85756,0.246751,0.239107,12.9724,0.05192408,
2,1,0,1,0,9003.22,0.0537345,0.0534254,1.41508,5,0.00279916,10,7.56012e-05,-2.84922,0.26091,0.226132,12.4354,0.0534254,
2,1,0,1,0,9003.3,0.0552327,0.0549158,1.43028,5,0.00290699,10,7.85452e-05,-2.84458,0.307238,0.192033,10.6897,0.05491576,
2,1,0,1,0,9003.37,0.0567309,0.0564233,1.44048,5,0.00301603,10,8.12767e-05,-2.84149,0.314301,0.187718,10.5823,0.0564233,
2,1,0,1,0,9003.45,0.0582291,0.0579132,1.45997,5,0.00312617,10,8.45517e-05,-2.83566,0.291973,0.202073,11.5336,0.0579132,
2,1,0,1,0,9003.52,0.0597291,0.0594177,1.48017,5,0.00323802,10,8.79481e-05,-2.82969,0.271637,0.217202,12.5361,0.0594177,
2,1,0,1,0,9003.6,0.0612246,0.060915,1.49798,5,0.00335088,10,9.12494e-05,-2.82449,0.346398,0.170324,9.94259,0.060915,
2,1,0,1,0,9003.67,0.0627241,0.0624363,1.51335,5,0.00346528,10,9.44879e-05,-2.82006,0.291329,0.20252,11.9684,0.0624363,
2,1,0,1,0,9003.75,0.0642219,0.0639054,1.52903,5,0.00358059,10,9.77132e-05,-2.81558,0.314875,0.187376,11.1977,0.0639054,
2,1,0,1,0,9003.82,0.06572,0.0654517,1.54685,5,0.00369734,10,0.000101244,-2.81055,0.285269,0.206822,12.4797,0.0654517,
2,1,0,1,0,9003.9,0.0672182,0.0669131,1.56667,5,0.00381535,10,0.000104831,-2.80502,0.385041,0.153231,9.3337,0.06691312,
2,1,0,1,0,9003.97,0.0687164,0.0684221,1.57734,5,0.00393454,10,0.000107925,-2.80207,0.403304,0.146292,9.00406,0.0684221,
2,1,0,1,0,9004.05,0.0702146,0.0699277,1.59011,5,0.00405451,10,0.000111193,-2.79857,0.380987,0.154861,9.63325,0.0699277,
2,1,0,1,0,9004.12,0.0717128,0.071387,1.60917,5,0.00417584,10,0.000114874,-2.7934,0.307267,0.192016,12.0389,0.071387,
2,1,0,1,0,9004.2,0.073211,0.072875,1.6241,5,0.00429841,10,0.000118356,-2.78939,0.366228,0.161102,10.2094,0.072875,
2,1,0,1,0,9004.27,0.0747092,0.0744005,1.63861,5,0.00442212,10,0.000121914,-2.78552,0.429053,0.137512,8.78266,0.0744005,
2,1,0,1,0,9004.35,0.0762087,0.0758704,1.64546,5,0.00454684,10,0.000124842,-2.78371,0.452765,0.13031,8.39105,0.0758704,
2,1,0,1,0,9004.42,0.0777042,0.07738,1.66383,5,0.00467218,10,0.000128747,-2.77889,0.362134,0.162923,10.5801,0.07738,
2,1,0,1,0,9004.5,0.0792037,0.0788913,1.67999,5,0.00479895,10,0.000132537,-2.77469,0.422335,0.139699,9.14854,0.0788913,
2,1,0,1,0,9004.57,0.0807019,0.0804499,1.69277,5,0.00492672,10,0.000136183,-2.7714,0.502949,0.117308,7.73064,0.0804499,
2,1,0,1,0,9004.65,0.0822001,0.081932,1.69993,5,0.00505539,10,0.000139279,-2.76957,0.455016,0.129666,8.61708,0.081932,
2,1,0,1,0,9004.72,0.0836983,0.0833616,1.71742,5,0.00518484,10,0.000143167,-2.76512,0.401246,0.147042,9.86275,0.0833616,
2,1,0,1,0,9004.8,0.0851965,0.0848783,1.73268,5,0.00531559,10,0.000147067,-2.76128,0.378959,0.15569,10.5406,0.0848783,
2,1,0,1,0,9004.87,0.0866947,0.0863523,1.75151,5,0.00544755,10,0.000151247,-2.75659,0.420053,0.140458,9.59456,0.0863523,
2,1,0,1,0,9004.95,0.0881929,0.0879388,1.76771,5,0.00558073,10,0.000155451,-2.75259,0.408532,0.14442,9.95214,0.0879388,
2,1,0,1,0,9005.02,0.0896911,0.0893957,1.78495,5,0.00571496,10,0.000159567,-2.74837,0.315741,0.186862,13.0244,0.0893957,
2,1,0,1,0,9005.1,0.0911893,0.0909323,1.80529,5,0.00585059,10,0.000164159,-2.74345,0.280825,0.210095,14.7841,0.0909323,
2,1,0,1,0,9005.17,0.0926884,0.0923635,1.8276,5,0.0059883,10,0.000168804,-2.73812,0.262957,0.224372,15.9824,0.0923635,
2,1,0,1,0,9005.25,0.0941839,0.0938748,1.846,5,0.00612729,10,0.000173293,-2.73377,0.268805,0.21949,15.8546,0.0938748,
2,1,0,1,0,9005.32,0.0956838,0.0953775,1.86882,5,0.0062682,10,0.000178244,-2.72843,0.232694,0.253552,18.5818,0.0953775,
2,1,0,1,0,9005.4,0.097182,0.0968768,1.90128,5,0.00641092,10,0.00018419,-2.72095,0.210732,0.279977,20.7754,0.0968768,
2,1,0,1,0,9005.47,0.0986802,0.0983817,1.93133,5,0.006556,10,0.000190007,-2.71414,0.209418,0.281733,21.2523,0.0983817,
2,1,0,1,0,9005.55,0.100178,0.0998789,1.96378,5,0.00670346,10,0.00019614,-2.70691,0.215454,0.27384,21.0013,0.09987887,
2,1,0,1,0,9005.62,0.101677,0.101357,1.9935,5,0.00685329,10,0.000202056,-2.70038,0.203694,0.28965,22.6103,0.101357,
2,1,0,1,0,9005.7,0.103175,0.102911,2.03341,5,0.00700553,10,0.000209261,-2.69177,0.196172,0.300756,23.8733,0.102911,
2,1,0,1,0,9005.77,0.104673,0.104366,2.07224,5,0.0071606,10,0.00021627,-2.68356,0.190834,0.309169,24.9741,0.104366,
2,1,0,1,0,9005.85,0.106171,0.105849,2.11006,5,0.00731868,10,0.000223348,-2.67571,0.206254,0.286055,23.4893,0.105849,
2,1,0,1,0,9005.92,0.107669,0.107374,2.13975,5,0.00747944,10,0.000229753,-2.66964,0.209983,0.280976,23.5159,0.107374,
2,1,0,1,0,9006,0.109168,0.108853,2.17838,5,0.00764277,10,0.000237122,-2.66187,0.212039,0.278251,23.6861,0.1088526,
2,1,0,1,0,9006.07,0.110664,0.110393,2.21309,5,0.00780854,10,0.00024431,-2.655,0.211282,0.279248,24.0871,0.110393,
2,1,0,1,0,9006.15,0.112164,0.111888,2.24785,5,0.00797753,10,0.000251508,-2.64823,0.246457,0.239393,20.9547,0.111888,
2,1,0,1,0,9006.22,0.113662,0.113348,2.27916,5,0.00814854,10,0.000258339,-2.64223,0.287567,0.20517,18.2252,0.113348,
2,1,0,1,0,9006.3,0.11516,0.114837,2.30488,5,0.00832139,10,0.000264685,-2.63735,0.30459,0.193703,17.4073,0.114837,
2,1,0,1,0,9006.37,0.116658,0.116378,2.33128,5,0.00849649,10,0.000271309,-2.63241,0.287192,0.205438,18.6522,0.116378,
2,1,0,1,0,9006.45,0.118157,0.117843,2.35803,5,0.00867368,10,0.000277877,-2.62745,0.342484,0.172271,15.8243,0.117843,
2,1,0,1,0,9006.52,0.119655,0.119358,2.38007,5,0.00885267,10,0.00028408,-2.62341,0.443302,0.133092,12.3698,0.1193579,
2,1,0,1,0,9006.6,0.121153,0.120897,2.39615,5,0.009033,10,0.000289688,-2.62049,0.406266,0.145225,13.6091,0.120897,
2,1,0,1,0,9006.67,0.122653,0.122394,2.42141,5,0.00921522,10,0.000296365,-2.61593,0.355126,0.166138,15.6924,0.122394,
2,1,0,1,0,9006.75,0.124149,0.123838,2.44384,5,0.00939864,10,0.000302641,-2.61193,0.370987,0.159035,15.1709,0.123838,
2,1,0,1,0,9006.82,0.125648,0.125323,2.46641,5,0.00958417,10,0.000309097,-2.60794,0.382708,0.154165,14.8235,0.125323,
2,1,0,1,0,9006.89,0.127146,0.126864,2.47863,5,0.00977105,10,0.000314449,-2.60579,0.384049,0.153626,14.8929,0.126864,
2,1,0,1,0,9006.97,0.128644,0.128351,2.50783,5,0.00995946,10,0.000321882,-2.6007,0.391468,0.150715,14.748,0.128351,
2,1,0,1,0,9007.04,0.130142,0.129804,2.53236,5,0.0101496,10,0.00032871,-2.59647,0.427919,0.137877,13.601,0.129804,
2,1,0,1,0,9007.12,0.13164,0.131307,2.54892,5,0.0103413,10,0.000334691,-2.59364,0.5868,0.100545,9.98472,0.131307,
2,1,0,1,0,9007.19,0.133139,0.132819,2.5635,5,0.0105344,10,0.00034048,-2.59117,0.737188,0.0800339,7.99591,0.132819,
2,1,0,1,0,9007.27,0.134637,0.134336,2.57247,5,0.0107281,10,0.000345574,-2.58965,1.44589,0.0408053,4.0943,0.1343357,
2,1,0,1,0,9007.34,0.136135,0.135828,2.58027,5,0.0109226,10,0.000350471,-2.58834,11.7991,0.00500038,0.501647,0.135828,
2,1,0,1,0,9007.42,0.137633,0.137344,2.57757,5,0.0111172,10,0.000354014,-2.58879,-0.888442,-0.0664084,-6.64534,0.137344,
2,1,0,1,0,9007.49,0.139133,0.138844,2.56286,5,0.0113114,10,0.000355839,-2.59127,-0.421375,-0.140018,-13.9365,0.138844,
2,1,0,1,0,9007.57,0.140628,0.140347,2.5349,5,0.0115035,10,0.000355767,-2.59604,-0.269546,-0.218886,-21.5564,0.140347,
2,1,0,1,0,9007.64,0.142128,0.14181,2.49503,5,0.0116936,10,0.000353821,-2.60292,-0.206007,-0.286398,-27.7709,0.14181,
2,1,0,1,0,9007.72,0.143626,0.143336,2.45178,5,0.0118804,10,0.000351428,-2.61052,-0.147359,-0.400383,-38.0493,0.143336,
2,1,0,1,0,9007.79,0.145124,0.144855,2.38016,5,0.0120629,10,0.000344777,-2.62339,-0.113147,-0.521445,-48.2692,0.144855,
2,1,0,1,0,9007.87,0.146622,0.146321,2.3024,5,0.0122399,10,0.00033689,-2.63782,-0.0989532,-0.596242,-53.466,0.146321,
2,1,0,1,0,9007.94,0.14812,0.147831,2.22184,5,0.0124108,10,0.000328457,-2.65329,-0.0890794,-0.662331,-57.2611,0.147831,
2,1,0,1,0,9008.02,0.149619,0.149311,2.13562,5,0.0125753,10,0.000318871,-2.67048,-0.0804202,-0.733647,-60.9059,0.149311,
2,1,0,1,0,9008.09,0.151117,0.150855,2.04191,5,0.012733,10,0.000308032,-2.68996,-0.0734846,-0.802889,-63.757,0.150855,
2,1,0,1,0,9008.17,0.152615,0.152338,1.94502,5,0.0128838,10,0.000296301,-2.71108,-0.0736987,-0.800557,-60.8244,0.152338,
2,1,0,1,0,9008.24,0.154113,0.153811,1.85784,5,0.0130276,10,0.000285755,-2.73099,-0.0754458,-0.782018,-56.8878,0.153811,
2,1,0,1,0,9008.32,0.155613,0.155323,1.77742,5,0.0131653,10,0.000276076,-2.75021,-0.076559,-0.770648,-53.5005,0.155323,
2,1,0,1,0,9008.39,0.157108,0.156821,1.69754,5,0.0132968,10,0.00026621,-2.77018,-0.0755413,-0.78103,-51.78,0.156821,
2,1,0,1,0,9008.47,0.158608,0.158278,1.62634,5,0.0134229,10,0.000257413,-2.78879,-0.081457,-0.724308,-46.1935,0.1582776,
2,1,0,1,0,9008.54,0.160106,0.159825,1.56314,5,0.0135436,10,0.000249829,-2.806,-0.0882994,-0.668181,-40.9129,0.159825,
2,1,0,1,0,9008.62,0.161604,0.161324,1.50517,5,0.0136598,10,0.00024282,-2.82241,-0.0965865,-0.610852,-35.9622,0.161324,
2,1,0,1,0,9008.69,0.163102,0.162796,1.45695,5,0.0137722,10,0.000237185,-2.83656,-0.100274,-0.588386,-33.4566,0.1627959,
2,1,0,1,0,9008.77,0.164601,0.164298,1.41034,5,0.0138809,10,0.000231716,-2.85068,-0.10648,-0.554093,-30.5248,0.164298,
2,1,0,1,0,9008.84,0.166099,0.165745,1.36713,5,0.0139861,10,0.000226596,-2.86419,-0.117012,-0.50422,-26.9901,0.165745,
2,1,0,1,0,9008.92,0.167597,0.167288,1.33047,5,0.0140884,10,0.000222571,-2.876,-0.13651,-0.432203,-22.4574,0.167288,
2,1,0,1,0,9008.99,0.169095,0.168805,1.29826,5,0.0141883,10,0.000219153,-2.88664,-0.147087,-0.401124,-20.3341,0.1688053,
2,1,0,1,0,9009.07,0.170593,0.170323,1.26424,5,0.0142858,10,0.000215329,-2.89817,-0.145281,-0.40611,-20.1257,0.170323,
2,1,0,1,0,9009.14,0.172092,0.171784,1.23601,5,0.014381,10,0.000212328,-2.90798,-0.163005,-0.361951,-17.5567,0.171784,
2,1,0,1,0,9009.22,0.173588,0.173282,1.21565,5,0.0144741,10,0.000210651,-2.91519,-0.186305,-0.316686,-15.035,0.173282,
2,1,0,1,0,9009.29,0.175088,0.174788,1.19302,5,0.0145658,10,0.000208525,-2.92335,-0.212739,-0.277334,-12.8979,0.174788,
2,1,0,1,0,9009.37,0.176586,0.176275,1.17384,5,0.0146559,10,0.000206918,-2.93039,-0.203416,-0.290046,-13.2744,0.176275,
2,1,0,1,0,9009.44,0.178084,0.177814,1.15092,5,0.0147444,10,0.000204651,-2.93895,-0.225684,-0.261428,-11.7869,0.177814,
2,1,0,1,0,9009.52,0.179582,0.179279,1.13771,5,0.0148316,10,0.000203966,-2.94397,-0.270977,-0.217731,-9.69245,0.179279,
2,1,0,1,0,9009.59,0.181081,0.180797,1.12248,5,0.0149178,10,0.000202941,-2.94982,-0.271165,-0.21758,-9.5486,0.1807972,
2,1,0,1,0,9009.67,0.182579,0.182296,1.10934,5,0.015003,10,0.000202228,-2.95494,-0.286656,-0.205822,-8.92708,0.182296,
2,1,0,1,0,9009.74,0.184077,0.183795,1.10152,5,0.0150873,10,0.000202454,-2.95801,-0.354621,-0.166375,-7.15386,0.183795,
2,1,0,1,0,9009.82,0.185577,0.185308,1.08971,5,0.0151706,10,0.000201932,-2.96269,-0.373172,-0.158104,-6.73062,0.185308,
2,1,0,1,0,9009.89,0.187073,0.186772,1.08118,5,0.0152531,10,0.000201934,-2.9661,-0.423559,-0.139296,-5.86198,0.186772,
2,1,0,1,0,9009.97,0.188572,0.188257,1.06937,5,0.0153352,10,0.000201317,-2.97087,-0.418402,-0.141013,-5.89035,0.188257,
2,1,0,1,0,9010.04,0.19007,0.189787,1.06403,5,0.0154164,10,0.000201938,-2.97305,-0.513152,-0.114976,-4.77066,0.189787,
2,1,0,1,0,9010.12,0.191568,0.191261,1.05331,5,0.0154969,10,0.000201458,-2.97744,-0.565143,-0.104398,-4.29775,0.1912614,
2,1,0,1,0,9010.19,0.193066,0.192795,1.04509,5,0.015577,10,0.000201487,-2.98085,-0.793468,-0.0743571,-3.03357,0.192795,
2,1,0,1,0,9010.27,0.194564,0.194246,1.04212,5,0.0156568,10,0.000202427,-2.98208,-0.605789,-0.0973937,-3.95732,0.194246,
2,1,0,1,0,9010.34,0.196063,0.195758,1.03666,5,0.015736,10,0.000202934,-2.98436,-0.488882,-0.120683,-4.88799,0.195758,
2,1,0,1,0,9010.42,0.197561,0.197252,1.02461,5,0.0158146,10,0.000202106,-2.98944,-0.644427,-0.0915542,-3.68352,0.197252,
2,1,0,1,0,9010.49,0.199059,0.198696,1.02551,5,0.0158929,10,0.000203765,-2.98906,-0.769961,-0.0766273,-3.06571,0.198696,
2,1,0,1,0,9010.57,0.200557,0.200245,1.02151,5,0.0159709,10,0.000204553,-2.99076,-0.759295,-0.0777036,-3.08347,0.200245,
2,1,0,1,0,9010.64,0.202057,0.201742,1.01551,5,0.0160487,10,0.00020487,-2.99332,-0.553306,-0.106632,-4.22198,0.201742,
2,1,0,1,0,9010.72,0.203552,0.203283,1.00795,5,0.0161258,10,0.000204899,-2.99656,-1.08076,-0.0545913,-2.15538,0.203283,
2,1,0,1,0,9010.79,0.205052,0.204763,1.00386,5,0.0162027,10,0.000205554,-2.99833,-5.66811,-0.0104091,-0.411266,0.204763,
2,1,0,1,0,9010.87,0.20655,0.206243,1.00077,5,0.0162794,10,0.000206401,-2.99967,-1.01015,-0.0584069,-2.28575,0.206243,
2,1,0,1,0,9010.94,0.208048,0.20778,1.0001,5,0.0163561,10,0.000207801,-2.99996,-0.582385,-0.101308,-3.94358,0.20778,
2,1,0,1,0,9011.01,0.209546,0.209252,0.995256,5,0.0164323,10,0.000208259,-3.00207,-0.664094,-0.0888428,-3.45792,0.209252,
2,1,0,1,0,9011.09,0.211044,0.210733,0.988464,5,0.0165079,10,0.000208302,-3.00504,-0.79842,-0.073896,-2.85464,0.210733,
2,1,0,1,0,9011.16,0.212543,0.212262,0.986702,5,0.0165835,10,0.000209439,-3.00581,-1.30233,-0.0453035,-1.74438,0.212262,
2,1,0,1,0,9011.24,0.214041,0.213732,0.984981,5,0.0166588,10,0.000210522,-3.00657,-1.10719,-0.053288,-2.0485,0.213732,
2,1,0,1,0,9011.31,0.215539,0.215235,0.980764,5,0.0167338,10,0.000211095,-3.00844,-0.907191,-0.0650359,-2.49403,0.215235,
2,1,0,1,0,9011.39,0.217037,0.216759,0.974392,5,0.0168085,10,0.000211209,-3.01127,-1.18398,-0.0498317,-1.90308,0.216759,
2,1,0,1,0,9011.46,0.218536,0.218218,0.97455,5,0.0168832,10,0.000212664,-3.0112,-5.40885,-0.010908,-0.415448,0.218218,
2,1,0,1,0,9011.54,0.220032,0.219756,0.974614,5,0.0169576,10,0.000214177,-3.01117,-1.50935,-0.0390898,-1.4846,0.219756,
2,1,0,1,0,9011.61,0.221532,0.221248,0.969025,5,0.017032,10,0.000214395,-3.01367,-0.689011,-0.0856299,-3.2434,0.221248,
2,1,0,1,0,9011.69,0.22303,0.222712,0.962463,5,0.0171059,10,0.000214352,-3.01662,-1.55834,-0.0378607,-1.42945,0.222712,
2,1,0,1,0,9011.76,0.224528,0.224216,0.966447,5,0.0171796,10,0.000216693,-3.01482,-2.11461,-0.0279011,-1.051,0.224216,
2,1,0,1,0,9011.84,0.226026,0.225747,0.962711,5,0.0172533,10,0.000217329,-3.0165,-0.917325,-0.0643174,-2.41692,0.225747,
2,1,0,1,0,9011.91,0.227525,0.227238,0.957955,5,0.0173267,10,0.000217684,-3.01866,-0.703023,-0.0839233,-3.13662,0.227238,
2,1,0,1,0,9011.99,0.229023,0.228717,0.956593,5,0.0174,10,0.000218789,-3.01927,-0.965215,-0.0611263,-2.28702,0.228717,
2,1,0,1,0,9012.06,0.230521,0.230199,0.953266,5,0.0174729,10,0.000219441,-3.02079,-1.23001,-0.0479669,-1.7921,0.230199,
2,1,0,1,0,9012.14,0.232019,0.231737,0.954978,5,0.0175458,10,0.000221304,-3.02001,-3.31123,-0.0178181,-0.663156,0.231737,
2,1,0,1,0,9012.21,0.233517,0.233212,0.953324,5,0.0176186,10,0.000222327,-3.02076,-1.27125,-0.046411,-1.72222,0.2332121,
2,1,0,1,0,9012.29,0.235016,0.234685,0.94816,5,0.0176913,10,0.000222518,-3.02312,-1.47072,-0.0401163,-1.48652,0.234685,
2,1,0,1,0,9012.36,0.236512,0.23621,0.946953,5,0.0177635,10,0.00022368,-3.02367,-1.69577,-0.0347925,-1.28415,0.23621,
2,1,0,1,0,9012.44,0.238012,0.237736,0.945342,5,0.0178358,10,0.000224742,-3.02441,-7.79581,-0.00756817,-0.278417,0.237736,
2,1,0,1,0,9012.51,0.23951,0.239215,0.942574,5,0.0179079,10,0.000225478,-3.02568,-2.60457,-0.0226525,-0.83273,0.239215,
2,1,0,1,0,9012.59,0.241008,0.240748,0.939423,5,0.0179799,10,0.000226164,-3.02714,-1.30378,-0.0452531,-1.65957,0.2407475,
2,1,0,1,0,9012.66,0.242506,0.242185,0.935796,5,0.0180516,10,0.000226635,-3.02882,-1.71276,-0.0344473,-1.26377,0.242185,
2,1,0,1,0,9012.74,0.244005,0.243709,0.935872,5,0.0181232,10,0.00022808,-3.02878,-2.32919,-0.0253307,-0.925735,0.243709,
2,1,0,1,0,9012.81,0.245503,0.245213,0.938914,5,0.0181948,10,0.000230234,-3.02737,-1.82581,-0.0323145,-1.17737,0.245213,
2,1,0,1,0,9012.89,0.247001,0.246716,0.934374,5,0.0182662,10,0.000230525,-3.02948,-0.847163,-0.0696442,-2.53177,0.246716,
2,1,0,1,0,9012.96,0.248501,0.248206,0.929903,5,0.0183375,10,0.000230807,-3.03156,-2.23315,-0.0264201,-0.959947,0.248206,
2,1,0,1,0,9013.04,0.249997,0.24971,0.929344,5,0.0184084,10,0.000232066,-3.03182,-1.81,-0.0325966,-1.1819,0.24971,
2,1,0,1,0,9013.11,0.251496,0.251238,0.92568,5,0.0184794,10,0.000232566,-3.03354,-1.00541,-0.0586823,-2.12108,0.251238,
2,1,0,1,0,9013.19,0.252994,0.252706,0.923657,5,0.0185503,10,0.000233413,-3.03449,-1.50443,-0.0392176,-1.41411,0.252706,
2,1,0,1,0,9013.26,0.254492,0.254152,0.922735,5,0.0186209,10,0.000234515,-3.03492,-1.08806,-0.0542249,-1.95616,0.254152,
2,1,0,1,0,9013.34,0.25599,0.255747,0.922012,5,0.0186913,10,0.000235801,-3.03526,6.71494,0.00878637,0.316417,0.255747,
2,1,0,1,0,9013.41,0.257488,0.257195,0.919895,5,0.0187616,10,0.000236592,-3.03626,-4.86279,-0.0121329,-0.43499,0.2571947,
2,1,0,1,0,9013.49,0.258987,0.258724,0.920161,5,0.018832,10,0.000238068,-3.03614,-1.21937,-0.0483858,-1.73191,0.258724,
2,1,0,1,0,9013.56,0.260485,0.260237,0.917136,5,0.0189022,10,0.000238673,-3.03757,-1.42083,-0.041525,-1.48856,0.260237,
2,1,0,1,0,9013.64,0.261983,0.261665,0.916411,5,0.018972,10,0.000239793,-3.03791,-1.77776,-0.0331878,-1.18439,0.261665,
2,1,0,1,0,9013.71,0.263481,0.263242,0.914081,5,0.0190419,10,0.000240624,-3.03902,-13.5279,-0.00436137,-0.15495,0.263242,
2,1,0,1,0,9013.79,0.264981,0.264687,0.910977,5,0.0191118,10,0.000241123,-3.04049,-2.57407,-0.0229209,-0.815385,0.264687,
2,1,0,1,0,9013.86,0.266476,0.266143,0.908277,5,0.0191812,10,0.000241732,-3.04178,-0.948413,-0.0622092,-2.20607,0.266143,
2,1,0,1,0,9013.94,0.267976,0.267713,0.903004,5,0.0192507,10,0.000241746,-3.04431,-1.74457,-0.0338191,-1.19969,0.267713,
2,1,0,1,0,9014.01,0.269474,0.269143,0.904131,5,0.0193199,10,0.000243341,-3.04377,63.4926,0.000929243,0.0327758,0.269143,
2,1,0,1,0,9014.09,0.270972,0.270658,0.906755,5,0.0193891,10,0.000245421,-3.04251,-1.52822,-0.0386071,-1.35627,0.2706584,
2,1,0,1,0,9014.16,0.27247,0.272177,0.90418,5,0.0194582,10,0.000246097,-3.04374,-1.29613,-0.0455203,-1.60072,0.272177,
2,1,0,1,0,9014.24,0.273968,0.273684,0.896972,5,0.0195271,10,0.000245487,-3.04722,-1.41674,-0.0416448,-1.46279,0.273684,
2,1,0,1,0,9014.31,0.275467,0.275197,0.893898,5,0.0195957,10,0.000245998,-3.04871,-1.49363,-0.039501,-1.38267,0.275197,
2,1,0,1,0,9014.39,0.276965,0.276674,0.895415,5,0.0196644,10,0.000247738,-3.04798,-1.55619,-0.0379132,-1.32585,0.276674,
2,1,0,1,0,9014.46,0.278463,0.278207,0.896321,5,0.0197328,10,0.000249363,-3.04754,-0.776345,-0.0759971,-2.6512,0.278207,
2,1,0,1,0,9014.54,0.279961,0.279695,0.892601,5,0.0198011,10,0.000249656,-3.04934,-1.13764,-0.0518618,-1.80471,0.279695,
2,1,0,1,0,9014.61,0.28146,0.281164,0.888981,5,0.0198692,10,0.000249949,-3.05111,-2.80362,-0.0210442,-0.730878,0.281164,
2,1,0,1,0,9014.69,0.282956,0.282621,0.887513,5,0.0199371,10,0.00025083,-3.05183,-3.77719,-0.0156201,-0.540621,0.282621,
2,1,0,1,0,9014.76,0.284456,0.284155,0.88657,5,0.0200052,10,0.000251923,-3.05229,-2.62806,-0.0224501,-0.775168,0.284155,
2,1,0,1,0,9014.84,0.285954,0.285677,0.88599,5,0.0200729,10,0.000253107,-3.05257,-1.86356,-0.0316599,-1.09234,0.285677,
2,1,0,1,0,9014.91,0.287452,0.287148,0.881054,5,0.0201404,10,0.000252993,-3.055,-1.39795,-0.0422046,-1.45303,0.287148,
2,1,0,1,0,9014.99,0.28895,0.288647,0.878305,5,0.0202079,10,0.00025352,-3.05635,-4.24596,-0.0138956,-0.476538,0.288647,
2,1,0,1,0,9015.06,0.290449,0.290137,0.880179,5,0.0202752,10,0.000255372,-3.05543,-2.51707,-0.02344,-0.804265,0.290137,
2,1,0,1,0,9015.13,0.291947,0.291645,0.877064,5,0.0203424,10,0.000255791,-3.05697,-1.20745,-0.0488632,-1.67077,0.2916449,
2,1,0,1,0,9015.21,0.293445,0.293136,0.87112,5,0.0204093,10,0.000255356,-3.05992,-1.56843,-0.0376173,-1.28347,0.2931357,
2,1,0,1,0,9015.28,0.294943,0.294642,0.873327,5,0.0204761,10,0.000257319,-3.05882,-2.46033,-0.0239805,-0.816403,0.2946423,
2,1,0,1,0,9015.36,0.296441,0.296145,0.873732,5,0.0205429,10,0.000258751,-3.05862,-1.91168,-0.0308629,-1.0482,0.296145,
2,1,0,1,0,9015.43,0.29794,0.29767,0.868239,5,0.0206096,10,0.000258449,-3.06136,-1.77344,-0.0332687,-1.12938,0.2976698,
2,1,0,1,0,9015.51,0.299436,0.299156,0.864611,5,0.020676,10,0.000258654,-3.06318,-0.00200162,-29.4762,-419.271,0.299156,
2,1,0,1,0,9015.55,0.299739,0.299485,0.430912,5,0.0207081,10,0.000129051,-3.36561,0.00135678,43.4853,772.734,0.299485,
2,0,0,1,0,9015.63,0.298239,0.297952,-0.0672045,5,0.020713,10,-2.00237e-05,-4.1726,0.00520517,11.3349,272.534,0.297952,
2,0,0,1,0,9015.7,0.296741,0.296492,-0.144181,5,0.0207032,10,-4.27486e-05,-3.84109,-0.00345663,-17.0687,46.397,0.296492,
2,0,0,1,0,9015.78,0.295243,0.294933,-0.184939,5,0.020689,10,-5.45447e-05,-3.73297,-0.0160181,-3.68334,24.4426,0.294933,
2,0,0,1,0,9015.85,0.293745,0.293425,-0.220679,5,0.0206723,10,-6.47529e-05,-3.65624,-0.0252447,-2.33712,19.2638,0.293425,
2,0,0,1,0,9015.93,0.292246,0.292009,-0.244097,5,0.0206536,10,-7.12787e-05,-3.61244,-0.033328,-1.77029,16.4542,0.292009,
2,0,0,1,0,9016,0.290748,0.290451,-0.264492,5,0.020633,10,-7.6822e-05,-3.57759,-0.0428747,-1.3761,13.9659,0.290451,
2,0,0,1,0,9016.08,0.28925,0.288962,-0.283724,5,0.020611,10,-8.19854e-05,-3.5471,-0.0597158,-0.988014,10.9123,0.288962,
2,0,0,1,0,9016.15,0.287752,0.28744,-0.300205,5,0.0205875,10,-8.62911e-05,-3.52258,-0.0644848,-0.914944,10.6687,0.28744,
2,0,0,1,0,9016.23,0.286254,0.285959,-0.313288,5,0.0205631,10,-8.95876e-05,-3.50406,-0.0761236,-0.775056,9.55817,0.285959,
2,0,0,1,0,9016.3,0.284754,0.28446,-0.32954,5,0.0205374,10,-9.37408e-05,-3.48209,-0.0769578,-0.766654,9.81162,0.28446,
2,0,0,1,0,9016.38,0.283259,0.282969,-0.345844,5,0.0205106,10,-9.7863e-05,-3.46112,-0.0820267,-0.719278,9.58583,0.282969,
2,0,0,1,0,9016.45,0.281759,0.281456,-0.357654,5,0.0204829,10,-0.000100664,-3.44654,-0.11258,-0.52407,7.23023,0.281456,
2,0,0,1,0,9016.53,0.280261,0.279966,-0.364462,5,0.0204544,10,-0.000102037,-3.43835,-0.117966,-0.500144,7.17273,0.279966,
2,0,0,1,0,9016.6,0.278763,0.278451,-0.377384,5,0.0204251,10,-0.000105083,-3.42322,-0.126195,-0.46753,6.87401,0.278451,
2,0,0,1,0,9016.68,0.277264,0.276965,-0.389327,5,0.0203949,10,-0.00010783,-3.40969,-0.140176,-0.420899,6.38168,0.276965,
2,0,0,1,0,9016.75,0.275766,0.275477,-0.399644,5,0.020364,10,-0.000110093,-3.39833,-0.188651,-0.312746,4.83451,0.275477,
2,0,0,1,0,9016.83,0.274268,0.273948,-0.408472,5,0.0203323,10,-0.0001119,-3.38884,-0.174716,-0.337691,5.37248,0.273948,
2,0,0,1,0,9016.9,0.27277,0.272494,-0.415447,5,0.0203001,10,-0.000113207,-3.38148,-0.178284,-0.330933,5.38381,0.272494,
2,0,0,1,0,9016.98,0.271272,0.270945,-0.42602,5,0.0202672,10,-0.000115428,-3.37057,-0.149199,-0.395444,6.55045,0.270945,
2,0,0,1,0,9017.05,0.269774,0.269496,-0.43777,5,0.0202335,10,-0.000117977,-3.35875,-0.174111,-0.338863,5.71977,0.269496,
2,0,0,1,0,9017.13,0.268274,0.267945,-0.443364,5,0.0201992,10,-0.000118797,-3.35324,-0.201243,-0.293178,5.05796,0.267945,
2,0,0,1,0,9017.2,0.266779,0.266446,-0.447773,5,0.0201645,10,-0.000119307,-3.34894,-0.194346,-0.303583,5.31776,0.266446,
2,0,0,1,0,9017.28,0.265279,0.26501,-0.454526,5,0.020129,10,-0.000120454,-3.34244,-0.172999,-0.341043,6.06047,0.26501,
2,0,0,1,0,9017.35,0.263781,0.263443,-0.463312,5,0.020093,10,-0.000122056,-3.33413,-0.222417,-0.265267,4.80642,0.263443,
2,0,0,1,0,9017.43,0.262283,0.261979,-0.471459,5,0.0200565,10,-0.000123513,-3.32656,-0.230243,-0.256251,4.73016,0.261979,
2,0,0,1,0,9017.5,0.260784,0.260492,-0.474628,5,0.0200195,10,-0.000123637,-3.32365,-0.239704,-0.246137,4.59146,0.260492,
2,0,0,1,0,9017.57,0.259286,0.258979,-0.485665,5,0.0199819,10,-0.000125777,-3.31366,-0.187042,-0.315437,5.96378,0.258979,
2,0,0,1,0,9017.65,0.257788,0.257528,-0.495584,5,0.0199438,10,-0.000127627,-3.30488,-0.245723,-0.240108,4.61418,0.257528,
2,0,0,1,0,9017.72,0.25629,0.255981,-0.499966,5,0.0199052,10,-0.000127982,-3.30106,-0.385812,-0.152924,2.9725,0.255981,
2,0,0,1,0,9017.8,0.25479,0.254471,-0.501269,5,0.019866,10,-0.000127559,-3.29993,-0.243169,-0.24263,4.77697,0.254471,
2,0,0,1,0,9017.87,0.253294,0.253028,-0.511206,5,0.0198267,10,-0.00012935,-3.2914,-0.270684,-0.217967,4.35493,0.253028,
2,0,0,1,0,9017.95,0.251795,0.251493,-0.51827,5,0.0197866,10,-0.000130341,-3.28544,-0.286987,-0.205584,4.15573,0.251493,
2,0,0,1,0,9018.02,0.250297,0.249987,-0.524939,5,0.0197461,10,-0.000131228,-3.27989,-0.341717,-0.172658,3.51442,0.249987,
2,0,0,1,0,9018.1,0.248799,0.248539,-0.528244,5,0.0197052,10,-0.000131289,-3.27717,-0.353846,-0.166739,3.45098,0.248539,
2,0,0,1,0,9018.17,0.247301,0.247017,-0.534089,5,0.0196639,10,-0.000131929,-3.27239,-0.301585,-0.195633,4.08712,0.247017,
2,0,0,1,0,9018.25,0.245802,0.245509,-0.539446,5,0.0196222,10,-0.000132439,-3.26805,-0.336852,-0.175151,3.68428,0.245509,
2,0,0,1,0,9018.32,0.244304,0.243964,-0.547522,5,0.0195799,10,-0.000133576,-3.2616,-0.384366,-0.153499,3.26755,0.243964,
2,0,0,1,0,9018.4,0.242806,0.242491,-0.554111,5,0.0195371,10,-0.000134367,-3.2564,-0.391821,-0.150579,3.24645,0.242491,
2,0,0,1,0,9018.47,0.241308,0.240996,-0.55967,5,0.0194942,10,-0.000134878,-3.25207,-0.409674,-0.144017,3.14715,0.240996,
2,0,0,1,0,9018.55,0.23981,0.239511,-0.562892,5,0.0194507,10,-0.000134819,-3.24957,-0.270073,-0.21846,4.79647,0.239511,
2,0,0,1,0,9018.62,0.23831,0.237981,-0.570934,5,0.0194067,10,-0.000135871,-3.24341,-0.349537,-0.168794,3.75516,0.237981,
2,0,0,1,0,9018.7,0.236815,0.236497,-0.573395,5,0.0193624,10,-0.000135606,-3.24155,-0.384136,-0.153591,3.43514,0.236497,
2,0,0,1,0,9018.77,0.235315,0.235028,-0.575585,5,0.0193176,10,-0.000135278,-3.23989,-0.306334,-0.1926,4.3635,0.2350277,
2,0,0,1,0,9018.85,0.233817,0.233511,-0.586041,5,0.0192725,10,-0.000136847,-3.23207,-0.333867,-0.176717,4.04392,0.2335113,
2,0,0,1,0,9018.92,0.232319,0.231997,-0.592238,5,0.0192269,10,-0.000137398,-3.2275,-0.370877,-0.159083,3.66085,0.231997,
2,0,0,1,0,9019,0.230821,0.230525,-0.596163,5,0.0191808,10,-0.000137431,-3.22463,-0.550175,-0.107239,2.48437,0.230525,
2,0,0,1,0,9019.07,0.229322,0.229027,-0.60086,5,0.0191344,10,-0.000137613,-3.22123,-0.438897,-0.134428,3.16574,0.229027,
2,0,0,1,0,9019.15,0.227824,0.227503,-0.607728,5,0.0190878,10,-0.00013826,-3.21629,-0.473442,-0.124619,2.96493,0.227503,
2,0,0,1,0,9019.22,0.226326,0.225999,-0.613753,5,0.0190406,10,-0.000138708,-3.21201,-0.386234,-0.152757,3.65295,0.225999,
2,0,0,1,0,9019.3,0.224828,0.224517,-0.616985,5,0.018993,10,-0.000138524,-3.20973,-0.481501,-0.122533,2.94902,0.224517,
2,0,0,1,0,9019.37,0.22333,0.223009,-0.626621,5,0.0189449,10,-0.000139742,-3.203,-0.43466,-0.135738,3.30638,0.223009,
2,0,0,1,0,9019.45,0.22183,0.221578,-0.629273,5,0.0188967,10,-0.000139433,-3.20116,-0.413971,-0.142522,3.50633,0.221578,
2,0,0,1,0,9019.52,0.220335,0.220005,-0.63312,5,0.018848,10,-0.00013929,-3.19851,-0.313143,-0.188412,4.64425,0.220005,
2,0,0,1,0,9019.6,0.218835,0.218545,-0.640568,5,0.0187986,10,-0.000139993,-3.19343,-0.45089,-0.130852,3.26381,0.218545,
2,0,0,1,0,9019.67,0.217337,0.21704,-0.646998,5,0.018749,10,-0.000140424,-3.1891,-0.511553,-0.115335,2.90859,0.21704,
2,0,0,1,0,9019.75,0.215839,0.215526,-0.648496,5,0.0186992,10,-0.000139768,-3.18809,-0.475534,-0.124071,3.14171,0.215526,
2,0,0,1,0,9019.82,0.21434,0.214039,-0.654502,5,0.0186489,10,-0.000140089,-3.18409,-0.333819,-0.176742,4.50749,0.214039,
2,0,0,1,0,9019.9,0.212842,0.212551,-0.660661,5,0.018598,10,-0.000140424,-3.18002,-0.42215,-0.139761,3.60511,0.212551,
2,0,0,1,0,9019.97,0.211344,0.211058,-0.668817,5,0.0185468,10,-0.000141159,-3.17469,-0.510422,-0.115591,3.00535,0.211058,
2,0,0,1,0,9020.05,0.209846,0.209555,-0.666221,5,0.0184952,10,-0.00013961,-3.17638,-0.364966,-0.161659,4.23724,0.2095554,
2,0,0,1,0,9020.12,0.208348,0.208044,-0.677747,5,0.0184433,10,-0.000141001,-3.16893,-0.304544,-0.193732,5.13792,0.208044,
2,0,0,1,0,9020.2,0.20685,0.20652,-0.688966,5,0.0183907,10,-0.000142286,-3.1618,-0.418972,-0.140821,3.75524,0.20652,
2,0,0,1,0,9020.27,0.20535,0.205006,-0.690978,5,0.0183375,10,-0.000141655,-3.16054,-0.426685,-0.138275,3.71288,0.205006,
2,0,0,1,0,9020.35,0.203855,0.203513,-0.69456,5,0.0182841,10,-0.000141352,-3.15829,-0.364331,-0.16194,4.41157,0.203513,
2,0,0,1,0,9020.42,0.202355,0.202067,-0.699162,5,0.0182304,10,-0.000141278,-3.15542,-0.372019,-0.158594,4.35278,0.202067,
2,0,0,1,0,9020.5,0.200857,0.20058,-0.707667,5,0.018176,10,-0.000141944,-3.15017,-0.367173,-0.160687,4.4349,0.20058,
2,0,0,1,0,9020.57,0.199359,0.199056,-0.715921,5,0.0181212,10,-0.000142509,-3.14514,-0.46439,-0.127048,3.53658,0.199056,
2,0,0,1,0,9020.65,0.19786,0.197556,-0.72133,5,0.0180659,10,-0.000142503,-3.14187,-0.450222,-0.131046,3.68509,0.197556,
2,0,0,1,0,9020.72,0.196362,0.196041,-0.728567,5,0.0180104,10,-0.000142829,-3.13753,-0.371036,-0.159014,4.51501,0.196041,
2,0,0,1,0,9020.8,0.194864,0.194588,-0.735482,5,0.0179541,10,-0.000143116,-3.13343,-0.330591,-0.178468,5.10294,0.194588,
2,0,0,1,0,9020.87,0.193366,0.193043,-0.744666,5,0.0178972,10,-0.000143753,-3.12804,-0.340299,-0.173377,5.02883,0.1930431,
2,0,0,1,0,9020.95,0.191866,0.191614,-0.75125,5,0.0178398,10,-0.00014395,-3.12422,-0.371346,-0.158882,4.65466,0.191614,
2,0,0,1,0,9021.02,0.19037,0.190069,-0.754504,5,0.0177822,10,-0.000143407,-3.12234,-0.446519,-0.132133,3.90556,0.190069,
2,0,0,1,0,9021.1,0.188871,0.188554,-0.76346,5,0.0177237,10,-0.000143954,-3.11721,-0.244788,-0.241024,7.16745,0.188554,
2,0,0,1,0,9021.17,0.187373,0.18708,-0.77339,5,0.0176647,10,-0.000144686,-3.1116,-0.339952,-0.173554,5.23243,0.18708,
2,0,0,1,0,9021.25,0.185875,0.185564,-0.780405,5,0.0176051,10,-0.000144815,-3.10768,-0.376311,-0.156785,4.76721,0.185564,
2,0,0,1,0,9021.32,0.184377,0.18403,-0.785104,5,0.0175448,10,-0.000144482,-3.10507,-0.302466,-0.195063,6.00327,0.18403,
2,0,0,1,0,9021.4,0.182878,0.182584,-0.79861,5,0.017484,10,-0.000145814,-3.09767,-0.285886,-0.206376,6.4394,0.182584,
2,0,0,1,0,9021.47,0.18138,0.181089,-0.809897,5,0.0174223,10,-0.000146663,-3.09157,-0.277525,-0.212594,6.70843,0.181089,
2,0,0,1,0,9021.55,0.179882,0.179584,-0.817748,5,0.0173598,10,-0.000146855,-3.08738,-0.36191,-0.163024,5.20068,0.179584,
2,0,0,1,0,9021.62,0.178384,0.178087,-0.829603,5,0.0172965,10,-0.000147741,-3.08113,-0.259098,-0.227713,7.37219,0.178087,
2,0,0,1,0,9021.69,0.176886,0.176592,-0.840468,5,0.0172326,10,-0.00014842,-3.07548,-0.256785,-0.229764,7.57138,0.176592,
2,0,0,1,0,9021.77,0.175386,0.175073,-0.854472,5,0.0171676,10,-0.000149595,-3.0683,-0.215304,-0.274032,9.1158,0.175073,
2,0,0,1,0,9021.84,0.173891,0.173561,-0.867393,5,0.0171018,10,-0.000150546,-3.06178,-0.224459,-0.262854,8.90721,0.173561,
2,0,0,1,0,9021.92,0.172391,0.172063,-0.879966,5,0.0170349,10,-0.000151409,-3.05553,-0.206031,-0.286365,9.82833,0.172063,
2,0,0,1,0,9021.99,0.170893,0.170607,-0.892386,5,0.0169671,10,-0.000152247,-3.04945,-0.20187,-0.292267,10.2074,0.170607,
2,0,0,1,0,9022.07,0.169395,0.1691,-0.909628,5,0.0168981,10,-0.000153818,-3.04114,-0.176226,-0.334797,11.88,0.1691,
2,0,0,1,0,9022.14,0.167897,0.167604,-0.928462,5,0.0168277,10,-0.000155614,-3.03224,-0.168754,-0.349622,12.6527,0.167604,
2,0,0,1,0,9022.22,0.166398,0.166075,-0.946017,5,0.016756,10,-0.00015711,-3.0241,-0.18692,-0.315643,11.6587,0.166075,
2,0,0,1,0,9022.29,0.1649,0.164576,-0.962784,5,0.0166829,10,-0.000158451,-3.01647,-0.151932,-0.388332,14.6721,0.164576,
2,0,0,1,0,9022.37,0.163402,0.163068,-0.988516,5,0.0166084,10,-0.000161195,-3.00502,-0.145663,-0.405045,15.6522,0.163068,
2,0,0,1,0,9022.44,0.161904,0.161601,-1.01343,5,0.016532,10,-0.000163771,-2.99421,-0.139846,-0.421892,16.6749,0.161601,
2,0,0,1,0,9022.52,0.160406,0.1601,-1.03675,5,0.0164536,10,-0.000165984,-2.98433,-0.134369,-0.439089,17.7605,0.1601,
2,0,0,1,0,9022.59,0.158906,0.158596,-1.06478,5,0.0163732,10,-0.00016887,-2.97274,-0.119656,-0.49308,20.5825,0.158596,
2,0,0,1,0,9022.67,0.157411,0.157076,-1.10036,5,0.0162908,10,-0.000172839,-2.95847,-0.104876,-0.562571,24.2323,0.157076,
2,0,0,1,0,9022.74,0.155911,0.155581,-1.13582,5,0.0162054,10,-0.000176712,-2.94469,-0.104475,-0.564727,25.0912,0.155581,
2,0,0,1,0,9022.82,0.154413,0.154128,-1.17326,5,0.0161173,10,-0.000180833,-2.9306,-0.103263,-0.571359,26.1686,0.154128,
2,0,0,1,0,9022.89,0.152915,0.152545,-1.21697,5,0.016026,10,-0.000185642,-2.91472,-0.0931614,-0.633309,30.1969,0.152545,
2,0,0,1,0,9022.97,0.151417,0.151063,-1.26486,5,0.0159317,10,-0.000191073,-2.89796,-0.0863539,-0.683235,33.8759,0.1510627,
2,0,0,1,0,9023.04,0.149918,0.149631,-1.31903,5,0.0158335,10,-0.000197367,-2.87975,-0.0814488,-0.724382,37.3204,0.149631,
2,0,0,1,0,9023.12,0.14842,0.148101,-1.37823,5,0.015731,10,-0.000204117,-2.86068,-0.0773766,-0.762505,41.0409,0.148101,
2,0,0,1,0,9023.19,0.146922,0.146584,-1.44197,5,0.015624,10,-0.00021137,-2.84104,-0.0760562,-0.775742,43.667,0.146584,
2,0,0,1,0,9023.27,0.145424,0.145117,-1.5089,5,0.0155122,10,-0.000218967,-2.82134,-0.0730123,-0.808083,47.7367,0.145117,
2,0,0,1,0,9023.34,0.143926,0.143661,-1.58,5,0.015395,10,-0.000226985,-2.80134,-0.0679429,-0.868376,53.7718,0.143661,
2,0,0,1,0,9023.42,0.142426,0.142109,-1.66588,5,0.0152716,10,-0.000236737,-2.77836,-0.0695209,-0.848665,55.1631,0.142109,
2,0,0,1,0,9023.49,0.140931,0.140559,-1.7503,5,0.0151422,10,-0.000246021,-2.75689,-0.0722402,-0.81672,55.7573,0.140559,
2,0,0,1,0,9023.57,0.139431,0.139102,-1.82801,5,0.0150064,10,-0.000254281,-2.73802,-0.0735268,-0.802429,57.4096,0.139102,
2,0,0,1,0,9023.64,0.137933,0.137604,-1.91982,5,0.0148644,10,-0.000264175,-2.71674,-0.0757432,-0.778948,58.3143,0.137604,
2,0,0,1,0,9023.72,0.136435,0.136075,-2.00752,5,0.0147158,10,-0.000273172,-2.69734,-0.0800061,-0.737444,57.5326,0.136075,
2,0,0,1,0,9023.79,0.134936,0.134637,-2.09422,5,0.0145606,10,-0.00028196,-2.67898,-0.0888578,-0.663982,54.0425,0.134637,
2,0,0,1,0,9023.87,0.133438,0.133105,-2.1739,5,0.0143992,10,-0.000289357,-2.66276,-0.0985149,-0.598894,50.669,0.133105,
2,0,0,1,0,9023.94,0.13194,0.131659,-2.24918,5,0.0142322,10,-0.000296125,-2.64798,-0.102922,-0.57325,50.261,0.131659,
2,0,0,1,0,9024.02,0.130442,0.130125,-2.32336,5,0.0140594,10,-0.000302326,-2.63388,-0.115043,-0.512853,46.2787,0.130125,
2,0,0,1,0,9024.09,0.128942,0.12865,-2.38474,5,0.0138812,10,-0.000306798,-2.62256,-0.141994,-0.415511,38.5105,0.12865,
2,0,0,1,0,9024.17,0.127446,0.127082,-2.44438,5,0.013699,10,-0.000310636,-2.61183,-0.160054,-0.368625,35.0363,0.127082,
2,0,0,1,0,9024.24,0.125947,0.125635,-2.48619,5,0.0135129,10,-0.000312351,-2.60447,-0.190126,-0.310321,30.0832,0.125635,
2,0,0,1,0,9024.32,0.124449,0.124104,-2.53078,5,0.0133233,10,-0.000314079,-2.59675,-0.221106,-0.26684,26.2519,0.1241038,
2,0,0,1,0,9024.39,0.122951,0.122631,-2.56829,5,0.0131307,10,-0.000314952,-2.59036,-0.274541,-0.214904,21.4699,0.122631,
2,0,0,1,0,9024.47,0.121453,0.12117,-2.59526,5,0.0129359,10,-0.000314469,-2.58582,-0.401035,-0.147119,14.8561,0.12117,
2,0,0,1,0,9024.54,0.119955,0.119692,-2.60729,5,0.0127395,10,-0.000312072,-2.58381,-0.595069,-0.0991481,10.0944,0.119692,
2,0,0,1,0,9024.62,0.118456,0.118114,-2.62518,5,0.0125418,10,-0.000310069,-2.58084,-0.629641,-0.0937042,9.58452,0.118114,
2,0,0,1,0,9024.69,0.116958,0.116672,-2.63691,5,0.0123431,10,-0.000307652,-2.57891,-1.84065,-0.0320539,3.29069,0.116672,
2,0,0,1,0,9024.77,0.11546,0.115125,-2.63682,5,0.0121441,10,-0.000303565,-2.57892,2.89282,0.0203953,-2.09502,0.115125,
2,0,0,1,0,9024.84,0.113962,0.113643,-2.62603,5,0.0119452,10,-0.000298429,-2.5807,1.27287,0.046352,-4.75208,0.113643,
2,0,0,1,0,9024.92,0.112462,0.112156,-2.62355,5,0.0117469,10,-0.000294247,-2.58111,1.05499,0.0559246,-5.71846,0.112156,
2,0,0,1,0,9024.99,0.110967,0.110655,-2.61472,5,0.0115496,10,-0.000289332,-2.58258,0.822215,0.0717574,-7.30613,0.110655,
2,0,0,1,0,9025.07,0.109467,0.109155,-2.5975,5,0.0113528,10,-0.000283529,-2.58544,0.483582,0.122006,-12.3306,0.109155,
2,0,0,1,0,9025.14,0.107969,0.107674,-2.57824,5,0.0111574,10,-0.000277609,-2.58868,0.421549,0.13996,-14.0681,0.107674,
2,0,0,1,0,9025.22,0.106471,0.106182,-2.55412,5,0.0109639,10,-0.000271202,-2.59276,0.412363,0.143078,-14.2733,0.106182,
2,0,0,1,0,9025.29,0.104973,0.104688,-2.53262,5,0.0107719,10,-0.000265134,-2.59643,0.361324,0.163288,-16.1274,0.104688,
2,0,0,1,0,9025.37,0.103474,0.103158,-2.51,5,0.0105814,10,-0.000258926,-2.60033,0.339017,0.174033,-17.0189,0.103158,
2,0,0,1,0,9025.44,0.101976,0.101677,-2.48065,5,0.0103931,10,-0.000252226,-2.60543,0.289236,0.203985,-19.7274,0.101677,
2,0,0,1,0,9025.52,0.100478,0.10019,-2.44924,5,0.010207,10,-0.000245389,-2.61097,0.28333,0.208238,-19.9111,0.10019,
2,0,0,1,0,9025.59,0.0989799,0.0986777,-2.42439,5,0.010023,10,-0.000239233,-2.6154,0.302727,0.194895,-18.4196,0.0986777,
2,0,0,1,0,9025.67,0.0974817,0.0971536,-2.39266,5,0.00984125,10,-0.000232455,-2.62112,0.294045,0.200649,-18.7501,0.0971536,
2,0,0,1,0,9025.74,0.0959821,0.095653,-2.3638,5,0.00966137,10,-0.000226104,-2.62639,0.286096,0.206225,-19.0305,0.095653,
2,0,0,1,0,9025.81,0.0944866,0.0941876,-2.32878,5,0.00948426,10,-0.000219342,-2.63287,0.289945,0.203487,-18.558,0.0941876,
2,0,0,1,0,9025.89,0.0929871,0.0926798,-2.30684,5,0.00930881,10,-0.000213797,-2.63698,0.322209,0.183111,-16.5035,0.0926798,
2,0,0,1,0,9025.96,0.0914889,0.0911761,-2.28618,5,0.00913545,10,-0.000208445,-2.64089,0.305188,0.193323,-17.2202,0.09117607,
2,0,0,1,0,9026.04,0.0899907,0.0896957,-2.25935,5,0.00896384,10,-0.000202654,-2.64602,0.283631,0.208017,-18.2974,0.0896957,
2,0,0,1,0,9026.11,0.0884925,0.0881912,-2.22747,5,0.0087942,10,-0.000196443,-2.65219,0.31773,0.185692,-16.182,0.0881912,
2,0,0,1,0,9026.19,0.0869943,0.0866725,-2.20851,5,0.00862663,10,-0.000191418,-2.6559,0.31969,0.184554,-15.9392,0.0866725,
2,0,0,1,0,9026.26,0.0854961,0.0852185,-2.18884,5,0.00846053,10,-0.000186529,-2.65979,0.395222,0.149283,-12.7652,0.0852185,
2,0,0,1,0,9026.34,0.083998,0.0836878,-2.16798,5,0.00829582,10,-0.000181433,-2.66395,0.342714,0.172155,-14.5519,0.08368776,
2,0,0,1,0,9026.41,0.0824998,0.082185,-2.1508,5,0.0081325,10,-0.000176764,-2.6674,0.372275,0.158485,-13.3115,0.082185,
2,0,0,1,0,9026.49,0.081002,0.0806604,-2.13333,5,0.00797088,10,-0.000172075,-2.67094,0.474056,0.124458,-10.3759,0.0806604,
2,0,0,1,0,9026.56,0.0795025,0.0791745,-2.11792,5,0.0078102,10,-0.000167685,-2.67409,0.535202,0.110239,-9.10367,0.0791745,
2,0,0,1,0,9026.64,0.078007,0.077698,-2.10126,5,0.0076509,10,-0.000163264,-2.67752,0.512741,0.115068,-9.42962,0.077698,
2,0,0,1,0,9026.71,0.076507,0.0761649,-2.08592,5,0.00749237,10,-0.000158874,-2.6807,0.466688,0.126423,-10.2923,0.0761649,
2,0,0,1,0,9026.79,0.0750088,0.0746911,-2.06605,5,0.00733541,10,-0.000154316,-2.68486,0.485164,0.121608,-9.83559,0.0746911,
2,0,0,1,0,9026.86,0.0735106,0.0732386,-2.05531,5,0.00717946,10,-0.000150528,-2.68712,0.556916,0.105941,-8.49359,0.0732386,
2,0,0,1,0,9026.94,0.0720124,0.0716834,-2.04314,5,0.00702437,10,-0.000146459,-2.6897,0.536111,0.110052,-8.78127,0.0716834,
2,0,0,1,0,9027.01,0.0705142,0.0702128,-2.02949,5,0.00687028,10,-0.000142496,-2.69261,0.492177,0.119876,-9.489,0.0702128,
2,0,0,1,0,9027.09,0.0690161,0.0687239,-2.01232,5,0.00671735,10,-0.000138294,-2.6963,0.476775,0.123748,-9.74767,0.0687239,
2,0,0,1,0,9027.16,0.0675179,0.0671909,-2.00207,5,0.00656555,10,-0.000134521,-2.69852,0.545752,0.108108,-8.45943,0.0671909,
2,0,0,1,0,9027.24,0.0660179,0.0656431,-1.99639,5,0.00641434,10,-0.000131049,-2.69975,0.632656,0.0932577,-7.24568,0.06564308,
2,0,0,1,0,9027.31,0.0645224,0.0641714,-1.98315,5,0.00626419,10,-0.000127261,-2.70264,0.579278,0.101851,-7.85306,0.0641714,
2,0,0,1,0,9027.39,0.0630229,0.0626922,-1.96123,5,0.00611483,10,-0.000122954,-2.70747,0.500304,0.117928,-9.05039,0.0626922,
2,0,0,1,0,9027.46,0.0615251,0.0611795,-1.94906,5,0.00596683,10,-0.000119243,-2.71017,0.513879,0.114813,-8.75331,0.0611795,
2,0,0,1,0,9027.54,0.0600269,0.0597149,-1.93816,5,0.00581968,10,-0.000115737,-2.71261,0.538545,0.109554,-8.29328,0.0597149,
2,0,0,1,0,9027.61,0.0585287,0.058171,-1.92488,5,0.00567342,10,-0.000111972,-2.7156,0.398817,0.147937,-11.0902,0.058171,
2,0,0,1,0,9027.69,0.0570305,0.0567278,-1.9124,5,0.00552826,10,-0.000108486,-2.71842,0.420745,0.140227,-10.4657,0.0567278,
2,0,0,1,0,9027.76,0.0555323,0.0552641,-1.89423,5,0.00538443,10,-0.000104683,-2.72257,0.493578,0.119535,-8.85058,0.0552641,
2,0,0,1,0,9027.84,0.0540342,0.0537541,-1.88404,5,0.0052414,10,-0.000101275,-2.72491,0.568688,0.103747,-7.61814,0.0537541,
2,0,0,1,0,9027.91,0.052536,0.0522452,-1.87325,5,0.00509919,10,-9.78682e-05,-2.7274,0.486448,0.121287,-8.84797,0.0522452,
2,0,0,1,0,9027.99,0.0510378,0.0507351,-1.85835,5,0.0049581,10,-9.42838e-05,-2.73087,0.390915,0.150928,-10.9368,0.0507351,
2,0,0,1,0,9028.06,0.0495382,0.049224,-1.83869,5,0.0048181,10,-9.05074e-05,-2.73549,0.45516,0.129625,-9.31624,0.049224,
2,0,0,1,0,9028.14,0.0480427,0.0477444,-1.82438,5,0.00467954,10,-8.71037e-05,-2.73889,0.495354,0.119107,-8.48295,0.0477444,
2,0,0,1,0,9028.21,0.0465432,0.0462592,-1.81144,5,0.00454156,10,-8.3796e-05,-2.74198,0.428877,0.137569,-9.73367,0.0462592,
2,0,0,1,0,9028.29,0.045045,0.0447437,-1.79601,5,0.0044049,10,-8.03604e-05,-2.74569,0.360502,0.163661,-11.4711,0.04474372,
2,0,0,1,0,9028.36,0.0435468,0.0432951,-1.77401,5,0.00426954,10,-7.6806e-05,-2.75104,0.372504,0.158388,-11.0044,0.0432951,
2,0,0,1,0,9028.44,0.0420486,0.0417602,-1.76293,5,0.00413549,10,-7.36204e-05,-2.75376,0.405043,0.145664,-10.038,0.0417602,
2,0,0,1,0,9028.51,0.0405504,0.0402469,-1.75254,5,0.0040024,10,-7.05345e-05,-2.75633,0.377503,0.15629,-10.6661,0.0402469,
2,0,0,1,0,9028.59,0.0390523,0.0387019,-1.73515,5,0.00387035,10,-6.71537e-05,-2.76066,0.323922,0.182143,-12.3038,0.0387019,
2,0,0,1,0,9028.66,0.0375541,0.0372171,-1.71531,5,0.00373964,10,-6.38391e-05,-2.76566,0.35219,0.167523,-11.24,0.0372171,
2,0,0,1,0,9028.74,0.0360559,0.0357605,-1.69879,5,0.00361041,10,-6.07497e-05,-2.76986,0.360282,0.163761,-10.8773,0.0357605,
2,0,0,1,0,9028.81,0.0345577,0.0342013,-1.68472,5,0.00348217,10,-5.76197e-05,-2.77347,0.365474,0.161434,-10.6058,0.0342013,
2,0,0,1,0,9028.89,0.0330582,0.0327449,-1.66808,5,0.00335497,10,-5.46212e-05,-2.77778,0.325042,0.181515,-11.8016,0.0327449,
2,0,0,1,0,9028.96,0.0315626,0.0312119,-1.65093,5,0.00322935,10,-5.15285e-05,-2.78227,0.342899,0.172062,-11.0905,0.0312119,
2,0,0,1,0,9029.04,0.0300631,0.0297553,-1.63357,5,0.00310481,10,-4.86074e-05,-2.78686,0.382256,0.154347,-9.84948,0.0297553,
2,0,0,1,0,9029.11,0.0285649,0.0282524,-1.61978,5,0.00298141,10,-4.57626e-05,-2.79054,0.492824,0.119718,-7.56925,0.0282524,
2,0,0,1,0,9029.19,0.0270667,0.0267381,-1.60878,5,0.00285898,10,-4.30158e-05,-2.7935,0.392879,0.150173,-9.42014,0.0267381,
2,0,0,1,0,9029.26,0.0255685,0.0252803,-1.59321,5,0.00273763,10,-4.02769e-05,-2.79773,0.336903,0.175125,-10.8954,0.0252803,
2,0,0,1,0,9029.34,0.0240704,0.02377,-1.57327,5,0.0026175,10,-3.73967e-05,-2.8032,0.399516,0.147679,-9.11524,0.02377,
2,0,0,1,0,9029.41,0.0225722,0.0222949,-1.56343,5,0.00249839,10,-3.48565e-05,-2.80592,0.499554,0.118105,-7.2124,0.02229492,
2,0,0,1,0,9029.49,0.021074,0.0207369,-1.55441,5,0.00238009,10,-3.22337e-05,-2.80843,0.467822,0.126116,-7.65404,0.0207369,
2,0,0,1,0,9029.56,0.0195758,0.019292,-1.54193,5,0.00226266,10,-2.97469e-05,-2.81193,0.475554,0.124066,-7.45151,0.019292,
2,0,0,1,0,9029.64,0.018078,0.0177886,-1.52648,5,0.0021461,10,-2.71539e-05,-2.81631,0.496983,0.118716,-7.09339,0.0177886,
2,0,0,1,0,9029.71,0.0165785,0.0162635,-1.5206,5,0.00203038,10,-2.47303e-05,-2.81799,0.597539,0.0987383,-5.86586,0.0162635,
2,0,0,1,0,9029.79,0.015083,0.0148003,-1.51143,5,0.00191553,10,-2.23695e-05,-2.82061,0.707704,0.0833682,-4.92166,0.0148003,
2,0,0,1,0,9029.86,0.013583,0.0133127,-1.50086,5,0.00180091,10,-1.99804e-05,-2.82366,0.56879,0.103729,-6.07652,0.01331265,
2,0,0,1,0,9029.93,0.0120848,0.0117504,-1.49417,5,0.00168706,10,-1.75572e-05,-2.8256,0.708463,0.0832789,-4.87353,0.0117504,
2,0,0,1,0,9030.01,0.0105866,0.0102732,-1.49113,5,0.00157402,10,-1.53187e-05,-2.82648,0.768347,0.0767883,-4.46963,0.01027325,
2,0,0,1,0,9030.08,0.00908846,0.00876218,-1.48436,5,0.00146122,10,-1.30063e-05,-2.82846,0.924575,0.0638131,-3.69217,0.00876218,
2,0,0,1,0,9030.16,0.00759027,0.00729801,-1.47767,5,0.00134876,10,-1.07841e-05,-2.83042,0.968496,0.0609192,-3.51539,0.00729801,
2,0,0,1,0,9030.23,0.00609208,0.00577865,-1.47709,5,0.00123666,10,-8.53561e-06,-2.83059,1.14036,0.0517383,-2.97607,0.00577865,
2,0,0,1,0,9030.31,0.00459389,0.00431059,-1.47289,5,0.001125,10,-6.34904e-06,-2.83183,1.93532,0.0304859,-1.75433,0.00431059,
2,0,0,1,0,9030.38,0.00309391,0.00281701,-1.47198,5,0.00101332,10,-4.1466e-06,-2.8321,-1.13487,-0.0519885,2.99188,0.00281701,
2,0,0,1,0,9030.46,0.0015984,0.00123523,-1.48945,5,0.000900616,10,-1.83982e-06,-2.82697, , , ,0.001235235,
2,0,0,1,0,9030.53,0.000199195,-0.000154153,-1.46792,5,0.00079569,10,2.26285e-07,-2.8333, , , ,-0.000154153,