File: Figure_codes/Fig_3-5/rawdata_trumpetplot_data/after 10th/20221101_1-115_003_TrumpetPlot_ParaChange_from10_every3_08_CV_C01_15.csv
mode,ox/red,error,control changes,counter inc.,time/s,control/V,Ewe/V,<I>/mA,cycle number,(Q-Qo)/C,I Range,P/W,log(|I|),Tafel slope mV/dec,alpha_eff,dI/d(E-IR),E-IR/V,
2,0,0,0,0,30727,2.44065e-05,-0.000306236,-4.0358,16,0.0000000E+000,10,1.23591e-06,-2.39407, , , ,-0.000306236,
2,0,0,1,0,30727,0.0012943,0.000947732,-2.36543,16,-4.83075e-05,10,-2.2418e-06,-2.62609, , , ,0.000947732,
2,0,0,1,0,30727,0.00279784,0.00249483,-1.11068,16,-8.00498e-05,10,-2.77097e-06,-2.95441,-0.00202438,-29.1447,707.04,0.00249483,
2,0,0,1,0,30727,0.00429425,0.00398117,-0.26723,16,-9.22635e-05,10,-1.06389e-06,-3.57312,-0.00926417,-6.36862,507.724,0.00398117,
2,1,0,1,0,30727,0.00579065,0.00548676,0.363694,16,-9.07823e-05,10,1.9955e-06,-3.43926,0.0140228,4.20743,385.489,0.005486764,
2,1,0,1,0,30727.1,0.0072942,0.00697762,0.862252,16,-7.87407e-05,10,6.01647e-06,-3.06437,0.00440836,13.3837,304.672,0.006977621,
2,1,0,1,0,30727.1,0.00878347,0.00844394,1.24885,16,-5.8637e-05,10,1.05452e-05,-2.90349,0.0106256,5.55265,243.127,0.00844394,
2,1,0,1,0,30727.1,0.010287,0.00997228,1.56738,16,-3.16911e-05,10,1.56304e-05,-2.80482,0.0179573,3.28557,190.727,0.00997228,
2,1,0,1,0,30727.1,0.0117905,0.0114468,1.83375,16,7.26995e-07,10,2.09905e-05,-2.73666,0.0255074,2.31305,160.645,0.01144678,
2,1,0,1,0,30727.1,0.013278,0.0129237,2.05216,16,3.71879e-05,10,2.65214e-05,-2.68779,0.0341224,1.72907,136.187,0.0129237,
2,1,0,1,0,30727.2,0.0147816,0.0144442,2.24267,16,7.78316e-05,10,3.23936e-05,-2.64923,0.0440089,1.34064,115.961,0.01444417,
2,1,0,1,0,30727.2,0.0162851,0.0159446,2.4101,16,0.000121876,10,3.8428e-05,-2.61797,0.0546129,1.08033,100.401,0.0159446,
2,1,0,1,0,30727.2,0.0177744,0.0174228,2.55469,16,0.00016829,10,4.45099e-05,-2.59266,0.0663999,0.888556,87.7906,0.0174228,
2,1,0,1,0,30727.2,0.0192779,0.0189529,2.68009,16,0.000217643,10,5.07955e-05,-2.57185,0.0783161,0.753357,78.3132,0.0189529,
2,1,0,1,0,30727.2,0.0207743,0.0204427,2.79643,16,0.000269005,10,5.71665e-05,-2.5534,0.0871666,0.676865,73.4074,0.0204427,
2,1,0,1,0,30727.3,0.0222707,0.0219366,2.90484,16,0.000322422,10,6.37224e-05,-2.53688,0.0963713,0.612216,69.021,0.0219366,
2,1,0,1,0,30727.3,0.0237743,0.0234871,2.99737,16,0.000378065,10,7.03996e-05,-2.52326,0.106485,0.554066,64.6243,0.0234871,
2,1,0,1,0,30727.3,0.0252636,0.0249221,3.08328,16,0.000434826,10,7.68417e-05,-2.51099,0.113794,0.518482,62.4117,0.0249221,
2,1,0,1,0,30727.3,0.0267671,0.0264811,3.17326,16,0.000493877,10,8.40314e-05,-2.49849,0.122496,0.481648,59.531,0.0264811,
2,1,0,1,0,30727.3,0.0282706,0.0279614,3.25686,16,0.000554566,10,9.10664e-05,-2.4872,0.130781,0.451136,57.2831,0.0279614,
2,1,0,1,0,30727.3,0.0297581,0.0294206,3.33277,16,0.000616113,10,9.8052e-05,-2.47719,0.145719,0.40489,52.6436,0.0294206,
2,1,0,1,0,30727.4,0.0312617,0.0309329,3.40564,16,0.000679794,10,0.000105346,-2.4678,0.148985,0.396014,52.7265,0.0309329,
2,1,0,1,0,30727.4,0.0327652,0.0324496,3.4858,16,0.000744869,10,0.000113113,-2.4577,0.162724,0.362578,49.3267,0.0324496,
2,1,0,1,0,30727.4,0.0342545,0.0339252,3.55945,16,0.000810662,10,0.000120755,-2.44862,0.170667,0.345703,48.0497,0.0339252,
2,1,0,1,0,30727.4,0.035758,0.0354859,3.63256,16,0.000878557,10,0.000128905,-2.43979,0.180905,0.326138,46.2226,0.03548589,
2,1,0,1,0,30727.4,0.0372544,0.0369117,3.7042,16,0.000947442,10,0.000136729,-2.43131,0.186903,0.315672,45.6412,0.03691173,
2,1,0,1,0,30727.5,0.0387508,0.0384489,3.77562,16,0.00101757,10,0.000145168,-2.42301,0.19557,0.301682,44.4649,0.0384489,
2,1,0,1,0,30727.5,0.0402544,0.039924,3.84791,16,0.00108946,10,0.000153624,-2.41478,0.196905,0.299637,44.9642,0.039924,
2,1,0,1,0,30727.5,0.0417437,0.0414657,3.92488,16,0.00116192,10,0.000162748,-2.40617,0.199099,0.296335,45.2604,0.0414657,
2,1,0,1,0,30727.5,0.0432472,0.0429078,3.98839,16,0.00123641,10,0.000171133,-2.3992,0.212302,0.277906,43.2018,0.0429078,
2,1,0,1,0,30727.5,0.0447507,0.0444167,4.05293,16,0.00131215,10,0.000180018,-2.39223,0.203089,0.290512,45.9284,0.0444167,
2,1,0,1,0,30727.6,0.0462382,0.0459164,4.12258,16,0.00138834,10,0.000189294,-2.38483,0.204837,0.288034,46.2646,0.0459164,
2,1,0,1,0,30727.6,0.0477418,0.0474151,4.18746,16,0.0014666,10,0.000198549,-2.37805,0.216324,0.272739,44.5275,0.0474151,
2,1,0,1,0,30727.6,0.0492453,0.0489574,4.25018,16,0.00154609,10,0.000208078,-2.37159,0.217574,0.271172,44.9366,0.0489574,
2,1,0,1,0,30727.6,0.0507346,0.050404,4.31321,16,0.00162593,10,0.000217403,-2.3652,0.226094,0.260953,43.9304,0.05040399,
2,1,0,1,0,30727.6,0.0522381,0.0519245,4.37502,16,0.00170784,10,0.00022717,-2.35902,0.219706,0.268541,45.8629,0.0519245,
2,1,0,1,0,30727.6,0.0537345,0.0534334,4.44115,16,0.00179054,10,0.000237306,-2.3525,0.230951,0.255465,44.2501,0.0534334,
2,1,0,1,0,30727.7,0.0552309,0.054912,4.50166,16,0.00187443,10,0.000247195,-2.34663,0.24798,0.237923,41.7979,0.054912,
2,1,0,1,0,30727.7,0.0567345,0.0564093,4.55989,16,0.00195992,10,0.00025722,-2.34105,0.263711,0.22373,39.8468,0.0564093,
2,1,0,1,0,30727.7,0.0582237,0.0578607,4.62545,16,0.00204561,10,0.000267632,-2.33485,0.270549,0.218075,39.3646,0.0578607,
2,1,0,1,0,30727.7,0.0597273,0.0594084,4.68473,16,0.00213337,10,0.000278313,-2.32931,0.278389,0.211934,38.7693,0.05940843,
2,1,0,1,0,30727.7,0.0612308,0.0608744,4.74756,16,0.00222227,10,0.000289005,-2.32353,0.302904,0.194781,36.0567,0.06087441,
2,1,0,1,0,30727.8,0.0627183,0.0624266,4.81586,16,0.00231136,10,0.000300638,-2.31733,0.299338,0.197102,36.9524,0.0624266,
2,1,0,1,0,30727.8,0.0642219,0.0639185,4.86163,16,0.00240242,10,0.000310748,-2.31322,0.296772,0.198806,37.724,0.0639185,
2,1,0,1,0,30727.8,0.0657254,0.065391,4.92007,16,0.00249461,10,0.000321728,-2.30803,0.294912,0.20006,38.3882,0.065391,
2,1,0,1,0,30727.8,0.0672147,0.0669022,4.98549,16,0.0025869,10,0.00033354,-2.30229,0.30634,0.192597,37.3799,0.06690225,
2,1,0,1,0,30727.8,0.0687182,0.0683693,5.03544,16,0.00268124,10,0.000344269,-2.29796,0.331107,0.17819,34.9788,0.0683693,
2,1,0,1,0,30727.9,0.0702146,0.0698604,5.08906,16,0.00277608,10,0.000355524,-2.29336,0.313198,0.188379,37.3743,0.0698604,
2,1,0,1,0,30727.9,0.071711,0.0713755,5.13982,16,0.00287186,10,0.000366857,-2.28905,0.312791,0.188625,37.8297,0.0713755,
2,1,0,1,0,30727.9,0.0732146,0.0728667,5.19,16,0.00296917,10,0.000378178,-2.28483,0.336578,0.175294,35.5002,0.0728667,
2,1,0,1,0,30727.9,0.0747038,0.0743937,5.24187,16,0.00306642,10,0.000389962,-2.28051,0.353612,0.16685,34.1295,0.07439369,
2,1,0,1,0,30727.9,0.0762074,0.075876,5.2827,16,0.0031656,10,0.00040083,-2.27714,0.351595,0.167807,34.6098,0.075876,
2,1,0,1,0,30727.9,0.0777109,0.0774027,5.33521,16,0.00326567,10,0.000412959,-2.27285,0.380018,0.155256,32.3353,0.0774027,
2,1,0,1,0,30728,0.0791984,0.078914,5.3833,16,0.00336557,10,0.000424818,-2.26895,0.404256,0.145947,30.6393,0.078914,
2,1,0,1,0,30728,0.0807019,0.080382,5.42531,16,0.00346746,10,0.000436098,-2.26558,0.449068,0.131383,27.8038,0.080382,
2,1,0,1,0,30728,0.0822055,0.0818824,5.46443,16,0.00357015,10,0.000447441,-2.26246,0.468931,0.125818,26.8667,0.0818824,
2,1,0,1,0,30728,0.0836947,0.083394,5.50851,16,0.00367247,10,0.000459377,-2.25897,0.477166,0.123647,26.6072,0.083394,
2,1,0,1,0,30728,0.0851983,0.0848624,5.55416,16,0.00377672,10,0.000471339,-2.25538,0.506354,0.116519,25.2513,0.0848624,
2,1,0,1,0,30728.1,0.0866947,0.0863512,5.59769,16,0.00388123,10,0.000483367,-2.25199,0.500297,0.11793,25.7475,0.0863512,
2,1,0,1,0,30728.1,0.0881911,0.0878751,5.64333,16,0.00398648,10,0.000495908,-2.24846,0.52689,0.111978,24.6368,0.08787512,
2,1,0,1,0,30728.1,0.0896946,0.0893646,5.6799,16,0.00409302,10,0.000507582,-2.24566,0.488245,0.120841,26.7691,0.0893646,
2,1,0,1,0,30728.1,0.0911839,0.090832,5.72802,16,0.00419919,10,0.000520287,-2.242,0.458855,0.128581,28.7058,0.090832,
2,1,0,1,0,30728.1,0.0926857,0.0923923,5.76807,16,0.00430734,10,0.000532926,-2.23897,0.41175,0.143291,32.2282,0.0923923,
2,1,0,1,0,30728.2,0.0941892,0.0938726,5.81308,16,0.00441636,10,0.000545689,-2.23559,0.431108,0.136857,31.0393,0.0938726,
2,1,0,1,0,30728.2,0.0956785,0.0953713,5.8578,16,0.00452505,10,0.000558666,-2.23227,0.38673,0.152561,34.8908,0.0953713,
2,1,0,1,0,30728.2,0.097182,0.0968724,5.90705,16,0.00463584,10,0.00057223,-2.22863,0.35119,0.168,38.7588,0.0968724,
2,1,0,1,0,30728.2,0.0986856,0.0983714,5.96695,16,0.00474771,10,0.000586978,-2.22425,0.343621,0.171701,39.9857,0.0983714,
2,1,0,1,0,30728.2,0.100175,0.0998374,6.02324,16,0.00485948,10,0.000601345,-2.22017,0.345218,0.170906,40.1994,0.0998374,
2,1,0,1,0,30728.2,0.101678,0.101345,6.07985,16,0.00497357,10,0.000616162,-2.21611,0.319236,0.184816,43.9517,0.101345,
2,1,0,1,0,30728.3,0.103175,0.102851,6.154,16,0.00508826,10,0.000632948,-2.21084,0.293571,0.200974,48.3387,0.102851,
2,1,0,1,0,30728.3,0.104671,0.104353,6.22871,16,0.00520432,10,0.000649986,-2.2056,0.288237,0.204693,49.8072,0.104353,
2,1,0,1,0,30728.3,0.106175,0.105885,6.31529,16,0.0053225,10,0.000668697,-2.19961,0.280995,0.209968,51.703,0.105885,
2,1,0,1,0,30728.3,0.107662,0.107321,6.39138,16,0.00544092,10,0.000685929,-2.19441,0.266618,0.221291,55.2918,0.107321,
2,1,0,1,0,30728.3,0.109166,0.10886,6.48126,16,0.0055621,10,0.000705549,-2.18834,0.253892,0.232382,58.8715,0.10886,
2,1,0,1,0,30728.4,0.110669,0.110318,6.57577,16,0.0056851,10,0.000725424,-2.18205,0.237485,0.248437,63.7958,0.1103177,
2,1,0,1,0,30728.4,0.112159,0.1118,6.68281,16,0.0058086,10,0.000747139,-2.17504,0.244627,0.241184,62.8168,0.1118,
2,1,0,1,0,30728.4,0.113662,0.113351,6.7792,16,0.00593526,10,0.000768428,-2.16882,0.240172,0.245658,64.9289,0.1133509,
2,1,0,1,0,30728.4,0.115166,0.114854,6.86924,16,0.00606368,10,0.00078896,-2.16309,0.248235,0.237678,63.7008,0.114854,
2,1,0,1,0,30728.4,0.116655,0.116334,6.96986,16,0.00619255,10,0.000810832,-2.15678,0.240539,0.245283,66.646,0.116334,
2,1,0,1,0,30728.5,0.118158,0.117834,7.06668,16,0.00632463,10,0.000832697,-2.15078,0.25056,0.235472,64.8647,0.117834,
2,1,0,1,0,30728.5,0.119655,0.119338,7.15618,16,0.00645782,10,0.000854004,-2.14532,0.267867,0.220259,61.4947,0.119338,
2,1,0,1,0,30728.5,0.121151,0.120856,7.24059,16,0.00659265,10,0.000875069,-2.14023,0.281623,0.2095,59.2215,0.120856,
2,1,0,1,0,30728.5,0.122655,0.122322,7.32799,16,0.00672988,10,0.000896372,-2.13501,0.288763,0.20432,58.4049,0.1223216,
2,1,0,1,0,30728.5,0.124142,0.123814,7.40557,16,0.00686721,10,0.000916917,-2.13044,0.318218,0.185407,53.612,0.1238145,
2,1,0,1,0,30728.5,0.125646,0.125312,7.48597,16,0.00700746,10,0.000938078,-2.12575,0.346408,0.170319,49.7284,0.125312,
2,1,0,1,0,30728.6,0.127149,0.126829,7.54909,16,0.00714913,10,0.000957444,-2.12211,0.368526,0.160097,47.1781,0.126829,
2,1,0,1,0,30728.6,0.128639,0.1283,7.62159,16,0.00729056,10,0.000977853,-2.11795,0.414559,0.14232,42.3417,0.1283,
2,1,0,1,0,30728.6,0.130142,0.129804,7.68823,16,0.00743474,10,0.000997964,-2.11417,0.465947,0.126624,37.9784,0.129804,
2,1,0,1,0,30728.6,0.131646,0.131345,7.74969,16,0.00758013,10,0.00101789,-2.11072,0.515717,0.114404,34.5633,0.131345,
2,1,0,1,0,30728.6,0.133135,0.132818,7.80705,16,0.00772499,10,0.00103692,-2.10751,0.559046,0.105537,32.1307,0.132818,
2,1,0,1,0,30728.7,0.134639,0.134294,7.85573,16,0.00787231,10,0.00105498,-2.10481,0.558312,0.105676,32.3734,0.134294,
2,1,0,1,0,30728.7,0.136135,0.135786,7.90193,16,0.00801981,10,0.00107297,-2.10227,0.596644,0.0988864,30.4763,0.135786,
2,1,0,1,0,30728.7,0.137631,0.137271,7.95259,16,0.00816816,10,0.00109166,-2.09949,0.683194,0.086359,26.7571,0.137271,
2,1,0,1,0,30728.7,0.139135,0.138788,7.98771,16,0.00831815,10,0.0011086,-2.09758,0.740515,0.0796742,24.7977,0.138788,
2,1,0,1,0,30728.7,0.140622,0.140352,8.01867,16,0.00846716,10,0.00112544,-2.0959,0.857933,0.0687699,21.4964,0.140352,
2,1,0,1,0,30728.8,0.142126,0.141837,8.04444,16,0.0086183,10,0.001141,-2.0945,1.12053,0.0526537,16.5122,0.141837,
2,1,0,1,0,30728.8,0.143629,0.143309,8.06038,16,0.0087699,10,0.00115512,-2.09364,2.24692,0.0262581,8.24569,0.143309,
2,1,0,1,0,30728.8,0.145119,0.144787,8.05843,16,0.0089201,10,0.00116675,-2.09375,-4.68068,-0.012605,-3.9583,0.1447867,
2,1,0,1,0,30728.8,0.146622,0.146298,8.04151,16,0.00907175,10,0.00117646,-2.09466,-1.20313,-0.0490389,-15.3728,0.146298,
2,1,0,1,0,30728.8,0.148126,0.147804,8.00978,16,0.00922293,10,0.00118387,-2.09638,-0.651793,-0.0905195,-28.2412,0.147804,
2,1,0,1,0,30728.8,0.149615,0.149293,7.95887,16,0.00937174,10,0.0011882,-2.09915,-0.404457,-0.145875,-45.1868,0.149293,
2,1,0,1,0,30728.9,0.151119,0.150812,7.87869,16,0.00952091,10,0.0011882,-2.10355,-0.284322,-0.207512,-63.5861,0.150812,
2,1,0,1,0,30728.9,0.152615,0.152318,7.77073,16,0.0096675,10,0.00118362,-2.10954,-0.215105,-0.274285,-82.8889,0.152318,
2,1,0,1,0,30728.9,0.154111,0.153787,7.63545,16,0.00981176,10,0.00117423,-2.11717,-0.179017,-0.329577,-97.9298,0.153787,
2,1,0,1,0,30728.9,0.155615,0.155321,7.47525,16,0.00995405,10,0.00116106,-2.12637,-0.14836,-0.39768,-115.68,0.155321,
2,1,0,1,0,30728.9,0.157103,0.156777,7.29362,16,0.0100916,10,0.00114347,-2.13706,-0.126971,-0.464674,-131.796,0.156777,
2,1,0,1,0,30729,0.158606,0.158283,7.08721,16,0.0102271,10,0.00112178,-2.14952,-0.112816,-0.522975,-144.234,0.158283,
2,1,0,1,0,30729,0.16011,0.159807,6.86198,16,0.0103583,10,0.00109659,-2.16355,-0.101486,-0.581362,-155.317,0.1598067,
2,1,0,1,0,30729,0.161599,0.161332,6.62994,16,0.0104839,10,0.00106962,-2.17849,-0.0990834,-0.595458,-153.74,0.161332,
2,1,0,1,0,30729,0.163102,0.162803,6.38916,16,0.0106064,10,0.00104017,-2.19456,-0.0921273,-0.640418,-159.437,0.162803,
2,1,0,1,0,30729,0.164606,0.164277,6.14856,16,0.0107244,10,0.00101007,-2.21123,-0.09111,-0.647569,-155.328,0.1642769,
2,1,0,1,0,30729.1,0.166095,0.165779,5.91494,16,0.0108367,10,0.000980575,-2.22805,-0.0927979,-0.63579,-146.918,0.165779,
2,1,0,1,0,30729.1,0.167599,0.167285,5.69038,16,0.0109459,10,0.000951916,-2.24486,-0.0943969,-0.625021,-138.915,0.167285,
2,1,0,1,0,30729.1,0.169095,0.168796,5.4837,16,0.0110506,10,0.000925627,-2.26093,-0.0956405,-0.616894,-132.202,0.168796,
2,1,0,1,0,30729.1,0.170592,0.170271,5.28764,16,0.0111515,10,0.00090033,-2.27674,-0.0981402,-0.601181,-124.292,0.170271,
2,1,0,1,0,30729.1,0.172095,0.171806,5.10146,16,0.0112494,10,0.000876462,-2.29231,-0.102003,-0.578416,-115.534,0.171806,
2,1,0,1,0,30729.1,0.173583,0.1733,4.93907,16,0.011343,10,0.000855941,-2.30635,-0.10914,-0.540591,-104.437,0.1733,
2,1,0,1,0,30729.2,0.175086,0.174779,4.79218,16,0.0114347,10,0.000837574,-2.31947,-0.114376,-0.515843,-96.7028,0.174779,
2,1,0,1,0,30729.2,0.17659,0.17632,4.65277,16,0.0115237,10,0.000820376,-2.33229,-0.1202,-0.490849,-89.2806,0.17632,
2,1,0,1,0,30729.2,0.178079,0.1778,4.5303,16,0.0116094,10,0.000805488,-2.34387,-0.127326,-0.463377,-82.145,0.1778,
2,1,0,1,0,30729.2,0.179582,0.179286,4.41971,16,0.0116936,10,0.000792394,-2.35461,-0.138746,-0.425237,-73.4495,0.179286,
2,1,0,1,0,30729.2,0.181086,0.180748,4.31501,16,0.0117759,10,0.000779928,-2.36502,-0.152,-0.388158,-65.5175,0.180748,
2,1,0,1,0,30729.3,0.182575,0.182256,4.23124,16,0.0118555,10,0.000771168,-2.37353,-0.15938,-0.370185,-61.1205,0.182256,
2,1,0,1,0,30729.3,0.184079,0.183784,4.14797,16,0.0119344,10,0.00076233,-2.38216,-0.164771,-0.358073,-57.8972,0.1837838,
2,1,0,1,0,30729.3,0.185582,0.185253,4.06957,16,0.0120117,10,0.0007539,-2.39045,-0.191038,-0.30884,-49.0494,0.185253,
2,1,0,1,0,30729.3,0.18707,0.186727,3.9953,16,0.0120868,10,0.00074603,-2.39845,-0.215361,-0.273958,-42.7429,0.186727,
2,1,0,1,0,30729.3,0.188573,0.188257,3.93079,16,0.0121615,10,0.00074,-2.40552,-0.239777,-0.246062,-37.7998,0.188257,
2,1,0,1,0,30729.3,0.19007,0.189799,3.87278,16,0.0122346,10,0.00073505,-2.41198,-0.259526,-0.227338,-34.3688,0.189799,
2,1,0,1,0,30729.4,0.191566,0.19124,3.81517,16,0.0123067,10,0.000729614,-2.41849,-0.271344,-0.217436,-32.4509,0.19124,
2,1,0,1,0,30729.4,0.19307,0.192738,3.76473,16,0.0123783,10,0.000725608,-2.42427,-0.304008,-0.194074,-28.5773,0.192738,
2,1,0,1,0,30729.4,0.194559,0.194282,3.72873,16,0.0124482,10,0.000724425,-2.42844,-0.314736,-0.187459,-27.2738,0.194282,
2,1,0,1,0,30729.4,0.196063,0.195774,3.68396,16,0.0125181,10,0.000721225,-2.43368,-0.310757,-0.189859,-27.3294,0.195774,
2,1,0,1,0,30729.4,0.197566,0.197249,3.63954,16,0.0125873,10,0.000717896,-2.43895,-0.323441,-0.182414,-25.9847,0.1972492,
2,1,0,1,0,30729.5,0.199055,0.198765,3.6112,16,0.012655,10,0.000717781,-2.44235,-0.355878,-0.165787,-23.3998,0.198765,
2,1,0,1,0,30729.5,0.200559,0.200242,3.57944,16,0.0127228,10,0.000716753,-2.44619,-0.366499,-0.160983,-22.4983,0.200242,
2,1,0,1,0,30729.5,0.202062,0.201718,3.54814,16,0.0127901,10,0.000715722,-2.45,-0.38316,-0.153983,-21.3294,0.2017177,
2,1,0,1,0,30729.5,0.20355,0.203199,3.52178,16,0.012856,10,0.000715621,-2.45324,-0.396706,-0.148725,-20.4693,0.203199,
2,1,0,1,0,30729.5,0.205053,0.20472,3.4957,16,0.0129222,10,0.000715642,-2.45647,-0.536528,-0.109966,-15.0399,0.2047205,
2,1,0,1,0,30729.6,0.20655,0.206233,3.4773,16,0.0129875,10,0.000717135,-2.45876,-0.553423,-0.106609,-14.4686,0.206233,
2,1,0,1,0,30729.6,0.208046,0.207716,3.46204,16,0.0130526,10,0.000719121,-2.46067,-0.578955,-0.101908,-13.7272,0.207716,
2,1,0,1,0,30729.6,0.20955,0.209253,3.43971,16,0.0131176,10,0.000719771,-2.46348,-0.55409,-0.106481,-14.2664,0.2092531,
2,1,0,1,0,30729.6,0.211039,0.210698,3.41891,16,0.0131814,10,0.000720357,-2.46611,-0.647011,-0.0911886,-12.1532,0.210698,
2,1,0,1,0,30729.6,0.212543,0.212198,3.39347,16,0.0132456,10,0.000720085,-2.46936,-0.714787,-0.0825421,-10.9283,0.212198,
2,1,0,1,0,30729.6,0.214046,0.213753,3.37703,16,0.0133095,10,0.000721849,-2.47146,-0.903522,-0.0653,-8.61242,0.213753,
2,1,0,1,0,30729.7,0.215535,0.215244,3.35911,16,0.0133724,10,0.00072303,-2.47378,-0.775307,-0.0760989,-9.98024,0.2152441,
2,1,0,1,0,30729.7,0.217039,0.216753,3.33283,16,0.0134356,10,0.000722402,-2.47719,-0.749641,-0.0787044,-10.2808,0.216753,
2,1,0,1,0,30729.7,0.218543,0.218241,3.32155,16,0.0134985,10,0.000724899,-2.47866,-1.03207,-0.0571669,-7.42993,0.218241,
2,1,0,1,0,30729.7,0.22003,0.219739,3.31676,16,0.0135605,10,0.000728822,-2.47929,-0.951968,-0.0619769,-8.02216,0.219739,
2,1,0,1,0,30729.7,0.221534,0.221234,3.29898,16,0.013623,10,0.000729847,-2.48162,-0.689697,-0.0855448,-11.0295,0.221234,
2,1,0,1,0,30729.8,0.22303,0.222707,3.28358,16,0.0136849,10,0.000731277,-2.48365,-0.779685,-0.0756716,-9.71182,0.222707,
2,1,0,1,0,30729.8,0.224526,0.224239,3.2761,16,0.0137465,10,0.000734629,-2.48464,-0.779933,-0.0756475,-9.69016,0.224239,
2,1,0,1,0,30729.8,0.22603,0.225768,3.26949,16,0.0138082,10,0.000738145,-2.48552,-0.808597,-0.0729659,-9.30952,0.225768,
2,1,0,1,0,30729.8,0.227519,0.227223,3.25974,16,0.0138692,10,0.000740687,-2.48682,-0.943541,-0.0625304,-7.9461,0.227223,
2,1,0,1,0,30729.8,0.229023,0.228713,3.24829,16,0.0139305,10,0.000742925,-2.48835,-0.876465,-0.0673158,-8.53061,0.228713,
2,1,0,1,0,30729.9,0.230526,0.230246,3.23793,16,0.0139917,10,0.000745521,-2.48973,-0.968669,-0.0609083,-7.70661,0.230246,
2,1,0,1,0,30729.9,0.232016,0.231714,3.23215,16,0.014052,10,0.000748935,-2.49051,-1.44602,-0.0408016,-5.14121,0.231714,
2,1,0,1,0,30729.9,0.233519,0.233232,3.22355,16,0.0141128,10,0.000751837,-2.49166,-1.68486,-0.0350178,-4.39892,0.233232,
2,1,0,1,0,30729.9,0.235023,0.234724,3.21306,16,0.0141735,10,0.000754184,-2.49308,-1.63124,-0.0361687,-4.52985,0.234724,
2,1,0,1,0,30729.9,0.23651,0.236206,3.20191,16,0.0142334,10,0.000756309,-2.49459,-1.62801,-0.0362405,-4.52846,0.236206,
2,1,0,1,0,30729.9,0.238014,0.237735,3.19579,16,0.0142937,10,0.00075975,-2.49542,-4.51936,-0.013055,-1.62765,0.237735,
2,1,0,1,0,30730,0.23951,0.239153,3.18013,16,0.0143536,10,0.000760538,-2.49755,-2.94082,-0.0200624,-2.49534,0.239153,
2,1,0,1,0,30730,0.241006,0.240671,3.18149,16,0.0144133,10,0.000765692,-2.49737,-1.64611,-0.0358421,-4.44607,0.240671,
2,1,0,1,0,30730,0.24251,0.242204,3.16317,16,0.0144732,10,0.000766132,-2.49988,-1.63218,-0.036148,-4.47332,0.242204,
2,1,0,1,0,30730,0.243999,0.243702,3.16257,16,0.0145323,10,0.000770724,-2.49996,-1.9874,-0.029687,-3.66605,0.243702,
2,1,0,1,0,30730,0.245503,0.245205,3.16079,16,0.014592,10,0.000775042,-2.5002,-1.44646,-0.0407891,-5.02924,0.245205,
2,1,0,1,0,30730.1,0.247006,0.246642,3.1521,16,0.0146516,10,0.00077744,-2.5014,-1.03499,-0.0570054,-7.01091,0.246642,
2,1,0,1,0,30730.1,0.248496,0.248227,3.14438,16,0.0147104,10,0.000780519,-2.50247,-0.913208,-0.0646074,-7.93506,0.248227,
2,1,0,1,0,30730.1,0.249999,0.249703,3.13616,16,0.0147696,10,0.000783108,-2.5036,-1.29947,-0.045403,-5.56412,0.249703,
2,1,0,1,0,30730.1,0.251503,0.251187,3.13612,16,0.0148287,10,0.000787752,-2.50361,-1.56116,-0.0377924,-4.62043,0.251187,
2,1,0,1,0,30730.1,0.25299,0.252693,3.1318,16,0.0148872,10,0.000791386,-2.50421,-1.22291,-0.0482455,-5.88517,0.252693,
2,1,0,1,0,30730.2,0.254494,0.254203,3.12609,16,0.0149461,10,0.000794662,-2.505,-1.46298,-0.0403288,-4.91432,0.254203,
2,1,0,1,0,30730.2,0.25599,0.255712,3.11667,16,0.0150046,10,0.000796972,-2.50631,-2.17414,-0.0271371,-3.29832,0.255712,
2,1,0,1,0,30730.2,0.257487,0.257185,3.11226,16,0.015063,10,0.000800427,-2.50692,-3.5947,-0.0164131,-1.99077,0.257185,
2,1,0,1,0,30730.2,0.25899,0.258664,3.10697,16,0.0151216,10,0.000803662,-2.50766,-4.00401,-0.0147352,-1.78268,0.258664,
2,1,0,1,0,30730.2,0.260479,0.260168,3.10266,16,0.0151795,10,0.000807213,-2.50827,-2.25977,-0.0261089,-3.15582,0.260168,
2,1,0,1,0,30730.2,0.261983,0.261679,3.09305,16,0.0152379,10,0.000809387,-2.50961,-3.92748,-0.0150224,-1.81464,0.261679,
2,1,0,1,0,30730.3,0.263486,0.263197,3.08215,16,0.0152962,10,0.000811213,-2.51115,-9.05565,-0.00651527,-0.784325,0.263197,
2,1,0,1,0,30730.3,0.264974,0.264677,3.08403,16,0.0153538,10,0.000816272,-2.51088,-5.93084,-0.009948,-1.19664,0.264677,
2,1,0,1,0,30730.3,0.266477,0.266205,3.07427,16,0.0154119,10,0.000818386,-2.51226,-1.49503,-0.039464,-4.73554,0.266205,
2,1,0,1,0,30730.3,0.267981,0.267696,3.06449,16,0.0154699,10,0.000820353,-2.51364,-1.49213,-0.0395409,-4.735,0.267696,
2,1,0,1,0,30730.3,0.26947,0.269139,3.06484,16,0.0155272,10,0.000824865,-2.51359,-1.89314,-0.0311651,-3.72769,0.269139,
2,1,0,1,0,30730.4,0.270974,0.270638,3.06451,16,0.015585,10,0.000829372,-2.51364,-1.15556,-0.0510575,-6.09712,0.270638,
2,1,0,1,0,30730.4,0.27247,0.272172,3.0589,16,0.0156424,10,0.000832548,-2.51443,-1.31621,-0.0448256,-5.34458,0.272172,
2,1,0,1,0,30730.4,0.273967,0.273717,3.05235,16,0.0156997,10,0.000835481,-2.51537,-1.25709,-0.0469337,-5.59069,0.2737174,
2,1,0,1,0,30730.4,0.27547,0.275136,3.04368,16,0.0157572,10,0.000837426,-2.5166,-1.22582,-0.0481312,-5.71993,0.275136,
2,1,0,1,0,30730.4,0.276959,0.276639,3.0431,16,0.015814,10,0.000841843,-2.51668,-1.38558,-0.0425813,-5.05226,0.276639,
2,1,0,1,0,30730.5,0.278463,0.278161,3.04079,16,0.0158713,10,0.000845829,-2.51701,-1.60012,-0.0368722,-4.36214,0.278161,
2,1,0,1,0,30730.5,0.279967,0.279645,3.03118,16,0.0159285,10,0.000847655,-2.51839,-2.11074,-0.0279523,-3.30471,0.279645,
2,1,0,1,0,30730.5,0.281454,0.281162,3.02147,16,0.015985,10,0.000849525,-2.51978,-4.1043,-0.0143752,-1.6961,0.281162,
2,1,0,1,0,30730.5,0.282958,0.282645,3.02012,16,0.0160419,10,0.000853623,-2.51998,-33.7891,-0.00174613,-0.205556,0.2826452,
2,1,0,1,0,30730.5,0.284461,0.284168,3.01577,16,0.0160989,10,0.000856987,-2.5206,-4.56301,-0.0129301,-1.52013,0.284168,
2,1,0,1,0,30730.5,0.28595,0.285671,3.00787,16,0.0161551,10,0.000859261,-2.52174,-2.34797,-0.0251281,-2.94826,0.285671,
2,1,0,1,0,30730.6,0.287454,0.287224,2.99955,16,0.0162118,10,0.000861543,-2.52294,-2.32443,-0.0253826,-2.97457,0.287224,
2,1,0,1,0,30730.6,0.28895,0.288692,2.99215,16,0.0162681,10,0.00086381,-2.52402,-8.19381,-0.00720055,-0.841506,0.288692,
2,1,0,1,0,30730.6,0.290447,0.29015,2.9908,16,0.0163242,10,0.000867781,-2.52421,-1.67117,-0.0353045,-4.12211,0.29015,
2,1,0,1,0,30730.6,0.29195,0.291647,2.98117,16,0.0163807,10,0.00086945,-2.52561,-1.16586,-0.0506065,-5.89611,0.291647,
2,1,0,1,0,30730.6,0.29344,0.293114,2.97754,16,0.0164364,10,0.000872757,-2.52614,-1.26923,-0.0464848,-5.40725,0.293114,
2,1,0,1,0,30730.7,0.294943,0.294667,2.97248,16,0.0164925,10,0.000875891,-2.52688,-1.21776,-0.0484497,-5.62805,0.294667,
2,1,0,1,0,30730.7,0.296447,0.296169,2.97242,16,0.0165486,10,0.000880338,-2.52689,-1.56659,-0.0376615,-4.3628,0.296169,
2,1,0,1,0,30730.7,0.297934,0.297638,2.96995,16,0.0166041,10,0.000883969,-2.52725,-1.55768,-0.0378769,-4.38874,0.297638,
2,1,0,1,0,30730.7,0.299438,0.299147,2.96036,16,0.01666,10,0.000885582,-2.52866,-0.0300304,-1.96468,-208.915,0.299147,
2,1,0,1,0,30730.7,0.300012,0.299766,2.95674,16,0.0166808,10,0.000886329,-2.52919,0.00162003,36.419,2657.21,0.299766,
2,1,0,1,0,30730.7,0.298737,0.29843,1.43751,16,0.0167134,10,0.000428995,-2.84239,0.0035022,16.8466,795.072,0.29843,
2,1,0,1,0,30730.8,0.29724,0.296934,0.552511,16,0.016731,10,0.000164059,-3.25766,0.00324738,18.1685,503.573,0.296934,
2,1,0,1,0,30730.8,0.295744,0.295425,0.0225935,16,0.0167357,10,6.67469e-06,-4.64602,0.0144989,4.06928,300.358,0.295425,
2,0,0,1,0,30730.8,0.29424,0.293923,-0.326923,16,0.0167324,10,-9.60904e-05,-3.48555,-0.00695227,-8.48644,200.697,0.293923,
2,0,0,1,0,30730.8,0.292751,0.292456,-0.556752,16,0.0167238,10,-0.000162826,-3.25434,-0.00736064,-8.01561,141.14,0.292456,
2,0,0,1,0,30730.8,0.291248,0.290948,-0.742246,16,0.0167112,10,-0.000215955,-3.12945,-0.0150123,-3.93011,104.808,0.290948,
2,0,0,1,0,30730.9,0.289744,0.289402,-0.882758,16,0.0166957,10,-0.000255472,-3.05416,-0.0236605,-2.49361,82.2296,0.289402,
2,0,0,1,0,30730.9,0.288257,0.287895,-0.991616,16,0.0166781,10,-0.000285482,-3.00366,-0.0347902,-1.69588,63.858,0.2878952,
2,0,0,1,0,30730.9,0.286753,0.286451,-1.07495,16,0.0166584,10,-0.00030792,-2.96861,-0.0451387,-1.30708,54.1652,0.286451,
2,0,0,1,0,30730.9,0.285249,0.284947,-1.15508,16,0.0166372,10,-0.000329135,-2.93739,-0.0560094,-1.05339,47.1253,0.284947,
2,0,0,1,0,30730.9,0.28376,0.283432,-1.22422,16,0.0166149,10,-0.000346982,-2.91214,-0.0676853,-0.871681,41.3104,0.2834315,
2,0,0,1,0,30730.9,0.282257,0.281938,-1.2872,16,0.0165911,10,-0.000362911,-2.89035,-0.0805772,-0.732217,36.3652,0.281938,
2,0,0,1,0,30731,0.28076,0.280432,-1.33998,16,0.0165663,10,-0.000375773,-2.8729,-0.0951874,-0.61983,32.2292,0.280432,
2,0,0,1,0,30731,0.279264,0.278963,-1.38106,16,0.0165408,10,-0.000385265,-2.85979,-0.104911,-0.562382,30.2504,0.278963,
2,0,0,1,0,30731,0.27776,0.277401,-1.42989,16,0.0165142,10,-0.000396654,-2.8447,-0.106356,-0.554743,30.8068,0.277401,
2,0,0,1,0,30731,0.276271,0.27593,-1.47428,16,0.0164871,10,-0.000406798,-2.83142,-0.117135,-0.503691,28.7904,0.27593,
2,0,0,1,0,30731,0.274767,0.274423,-1.50654,16,0.0164589,10,-0.000413428,-2.82202,-0.139076,-0.424227,24.8297,0.2744233,
2,0,0,1,0,30731.1,0.273264,0.272964,-1.53625,16,0.0164301,10,-0.000419341,-2.81354,-0.139668,-0.42243,25.3842,0.272964,
2,0,0,1,0,30731.1,0.271776,0.271504,-1.57325,16,0.0164009,10,-0.000427144,-2.8032,-0.145866,-0.404481,24.8436,0.271504,
2,0,0,1,0,30731.1,0.270273,0.269943,-1.60908,16,0.0163707,10,-0.000434359,-2.79342,-0.170853,-0.345326,21.6587,0.269943,
2,0,0,1,0,30731.1,0.268769,0.268449,-1.63332,16,0.01634,10,-0.000438464,-2.78693,-0.21116,-0.279409,17.8764,0.268449,
2,0,0,1,0,30731.1,0.26728,0.266942,-1.66379,16,0.016309,10,-0.000444135,-2.7789,-0.225794,-0.2613,16.9891,0.266942,
2,0,0,1,0,30731.2,0.265777,0.265439,-1.69273,16,0.0162772,10,-0.000449317,-2.77141,-0.238448,-0.247433,16.3723,0.265439,
2,0,0,1,0,30731.2,0.26428,0.263961,-1.72459,16,0.016245,10,-0.000455226,-2.76331,-0.263053,-0.22429,15.0825,0.263961,
2,0,0,1,0,30731.2,0.262784,0.26243,-1.75296,16,0.0162123,10,-0.000460029,-2.75623,-0.261457,-0.225659,15.3993,0.26243,
2,0,0,1,0,30731.2,0.26128,0.260981,-1.77027,16,0.016179,10,-0.000462006,-2.75196,-0.302612,-0.194969,13.5114,0.260981,
2,0,0,1,0,30731.2,0.259791,0.259484,-1.80002,16,0.0161456,10,-0.000467077,-2.74472,-0.268515,-0.219727,15.4619,0.259484,
2,0,0,1,0,30731.2,0.258287,0.25799,-1.82629,16,0.0161114,10,-0.000471165,-2.73843,-0.256548,-0.229976,16.3497,0.25799,
2,0,0,1,0,30731.3,0.256786,0.256494,-1.84898,16,0.0160766,10,-0.000474252,-2.73307,-0.282505,-0.208846,15.0198,0.256494,
2,0,0,1,0,30731.3,0.255296,0.25498,-1.87361,16,0.0160419,10,-0.000477731,-2.72732,-0.30826,-0.191397,13.9518,0.25498,
2,0,0,1,0,30731.3,0.253793,0.25346,-1.89039,16,0.0160064,10,-0.000479137,-2.72345,-0.27848,-0.211864,15.6019,0.25346,
2,0,0,1,0,30731.3,0.252289,0.251969,-1.9107,16,0.0159705,10,-0.000481437,-2.71881,-0.25534,-0.231065,17.2067,0.251969,
2,0,0,1,0,30731.3,0.2508,0.250441,-1.9278,16,0.0159346,10,-0.000482801,-2.71494,-0.303572,-0.194352,14.6595,0.250441,
2,0,0,1,0,30731.4,0.249296,0.248997,-1.94737,16,0.0158979,10,-0.000484891,-2.71055,-0.341458,-0.172788,13.1461,0.248997,
2,0,0,1,0,30731.4,0.2478,0.247455,-1.96788,16,0.0158611,10,-0.000486962,-2.706,-0.316299,-0.186532,14.3477,0.247455,
2,0,0,1,0,30731.4,0.246304,0.245987,-1.98456,16,0.0158239,10,-0.000488178,-2.70233,-0.332612,-0.177384,13.7603,0.245987,
2,0,0,1,0,30731.4,0.2448,0.244483,-2.00649,16,0.0157861,10,-0.000490553,-2.69756,-0.356044,-0.16571,12.9855,0.244483,
2,0,0,1,0,30731.4,0.243313,0.242961,-2.02347,16,0.0157484,10,-0.000491625,-2.6939,-0.472537,-0.124858,9.87282,0.242961,
2,0,0,1,0,30731.5,0.241809,0.241482,-2.04161,16,0.0157099,10,-0.000493012,-2.69003,-0.476414,-0.123842,9.87487,0.241482,
2,0,0,1,0,30731.5,0.240306,0.240013,-2.05997,16,0.0156711,10,-0.000494418,-2.68614,-0.50968,-0.115759,9.31439,0.240013,
2,0,0,1,0,30731.5,0.238816,0.238499,-2.0824,16,0.0156324,10,-0.000496651,-2.68144,-0.474586,-0.124319,10.0957,0.238499,
2,0,0,1,0,30731.5,0.237313,0.237008,-2.10171,16,0.0155929,10,-0.000498122,-2.67743,-0.550502,-0.107175,8.77351,0.237008,
2,0,0,1,0,30731.5,0.235809,0.235476,-2.11644,16,0.0155531,10,-0.000498372,-2.67439,-0.482641,-0.122244,10.0899,0.235476,
2,0,0,1,0,30731.5,0.23432,0.233948,-2.13664,16,0.0155134,10,-0.000499863,-2.67027,-0.393969,-0.149758,12.4747,0.233948,
2,0,0,1,0,30731.6,0.232816,0.232515,-2.15404,16,0.015473,10,-0.000500848,-2.66675,-0.378097,-0.156045,13.0757,0.232515,
2,0,0,1,0,30731.6,0.23132,0.230996,-2.17478,16,0.0154324,10,-0.000502365,-2.66258,-0.384744,-0.153349,12.9534,0.230996,
2,0,0,1,0,30731.6,0.229824,0.22949,-2.18803,16,0.0153915,10,-0.000502132,-2.65995,-0.440017,-0.134086,11.417,0.2294904,
2,0,0,1,0,30731.6,0.22832,0.228019,-2.20254,16,0.0153502,10,-0.000502219,-2.65708,-0.372725,-0.158293,13.5805,0.228019,
2,0,0,1,0,30731.6,0.226833,0.226507,-2.21402,16,0.0153089,10,-0.000501493,-2.65482,-0.357909,-0.164847,14.25,0.226507,
2,0,0,1,0,30731.7,0.225329,0.225023,-2.22784,16,0.015267,10,-0.000501313,-2.65212,-0.406228,-0.145239,12.6585,0.225023,
2,0,0,1,0,30731.7,0.223825,0.223455,-2.24599,16,0.0152246,10,-0.000501877,-2.64859,-0.468563,-0.125917,11.0446,0.223455,
2,0,0,1,0,30731.7,0.222336,0.221991,-2.2558,16,0.0151825,10,-0.000500766,-2.6467,-0.490912,-0.120184,10.6237,0.221991,
2,0,0,1,0,30731.7,0.220833,0.220517,-2.27617,16,0.0151397,10,-0.000501933,-2.6428,-0.464168,-0.127109,11.3121,0.220517,
2,0,0,1,0,30731.7,0.219329,0.218973,-2.2935,16,0.0150964,10,-0.000502214,-2.6395,-0.591878,-0.0996827,8.92676,0.218973,
2,0,0,1,0,30731.8,0.21784,0.217504,-2.31273,16,0.0150534,10,-0.000503028,-2.63587,-0.812376,-0.0726265,6.54682,0.217504,
2,0,0,1,0,30731.8,0.216336,0.216031,-2.3247,16,0.0150095,10,-0.000502208,-2.63363,-0.629457,-0.0937316,8.51438,0.216031,
2,0,0,1,0,30731.8,0.21484,0.214561,-2.34478,16,0.0149657,10,-0.000503099,-2.6299,-0.693814,-0.0850372,7.77474,0.214561,
2,0,0,1,0,30731.8,0.213343,0.212994,-2.36133,16,0.0149216,10,-0.000502948,-2.62684,-0.512413,-0.115141,10.5878,0.2129935,
2,0,0,1,0,30731.8,0.21184,0.211515,-2.37403,16,0.0148769,10,-0.000502141,-2.62451,-0.581548,-0.101453,9.39875,0.211515,
2,0,0,1,0,30731.8,0.210352,0.209993,-2.39443,16,0.0148324,10,-0.000502815,-2.6208,-0.480897,-0.122687,11.4488,0.209993,
2,0,0,1,0,30731.9,0.208849,0.208532,-2.40356,16,0.0147872,10,-0.000501219,-2.61915,-0.422425,-0.13967,13.1402,0.2085322,
2,0,0,1,0,30731.9,0.207345,0.206993,-2.42126,16,0.0147417,10,-0.000501183,-2.61596,-0.375007,-0.15733,14.8773,0.206993,
2,0,0,1,0,30731.9,0.205856,0.20549,-2.44762,16,0.0146962,10,-0.000502963,-2.61126,-0.433311,-0.136161,12.9438,0.20549,
2,0,0,1,0,30731.9,0.204353,0.203986,-2.45651,16,0.0146499,10,-0.000501094,-2.60968,-0.523154,-0.112778,10.8039,0.203986,
2,0,0,1,0,30731.9,0.202849,0.202515,-2.46291,16,0.0146034,10,-0.000498775,-2.60855,-0.550947,-0.107088,10.3247,0.202515,
2,0,0,1,0,30732,0.20136,0.200994,-2.48101,16,0.0145572,10,-0.000498668,-2.60537,-0.439644,-0.1342,13.0184,0.200994,
2,0,0,1,0,30732,0.199856,0.199517,-2.4976,16,0.0145101,10,-0.000498314,-2.60248,-0.517685,-0.113969,11.1284,0.199517,
2,0,0,1,0,30732,0.19836,0.198093,-2.5174,16,0.0144629,10,-0.000498679,-2.59905,-0.674709,-0.0874451,8.60434,0.198093,
2,0,0,1,0,30732,0.196863,0.196517,-2.53207,16,0.0144154,10,-0.000497596,-2.59652,-0.616092,-0.095765,9.48627,0.196517,
2,0,0,1,0,30732,0.19536,0.194994,-2.54937,16,0.0143674,10,-0.00049711,-2.59357,-0.517732,-0.113959,11.3595,0.194994,
2,0,0,1,0,30732.1,0.193872,0.193491,-2.57669,16,0.0143196,10,-0.000498566,-2.58894,-0.536817,-0.109907,11.0365,0.1934907,
2,0,0,1,0,30732.1,0.192369,0.19204,-2.59247,16,0.0142708,10,-0.000497857,-2.58629,-0.597163,-0.0988004,9.98126,0.19204,
2,0,0,1,0,30732.1,0.190865,0.19053,-2.60499,16,0.0142217,10,-0.00049633,-2.58419,-0.560915,-0.105185,10.7115,0.19053,
2,0,0,1,0,30732.1,0.189376,0.189043,-2.6261,16,0.0141729,10,-0.000496447,-2.58069,-0.555926,-0.106129,10.8922,0.189043,
2,0,0,1,0,30732.1,0.187872,0.187526,-2.64548,16,0.0141232,10,-0.000496095,-2.5775,-0.4737,-0.124552,12.8593,0.187526,
2,0,0,1,0,30732.1,0.186369,0.186073,-2.66702,16,0.014073,10,-0.000496259,-2.57397,-0.476935,-0.123707,12.8635,0.186073,
2,0,0,1,0,30732.2,0.18488,0.184558,-2.68978,16,0.0140231,10,-0.00049642,-2.57028,-0.418242,-0.141067,14.7906,0.184558,
2,0,0,1,0,30732.2,0.183376,0.183028,-2.70425,16,0.0139722,10,-0.000494955,-2.56795,-0.435106,-0.135599,14.324,0.183028,
2,0,0,1,0,30732.2,0.18188,0.181542,-2.72786,16,0.0139212,10,-0.000495219,-2.56418,-0.353806,-0.166758,17.7485,0.181542,
2,0,0,1,0,30732.2,0.180383,0.180071,-2.74873,16,0.0138698,10,-0.000494967,-2.56087,-0.392576,-0.150289,16.1246,0.180071,
2,0,0,1,0,30732.2,0.17888,0.178549,-2.77196,16,0.0138177,10,-0.00049493,-2.55721,-0.40064,-0.147264,15.924,0.178549,
2,0,0,1,0,30732.3,0.177392,0.177091,-2.78986,16,0.0137657,10,-0.00049406,-2.55442,-0.406161,-0.145262,15.8545,0.177091,
2,0,0,1,0,30732.3,0.175889,0.175583,-2.81728,16,0.0137128,10,-0.000494667,-2.55017,-0.379445,-0.15549,17.1177,0.175583,
2,0,0,1,0,30732.3,0.174385,0.17404,-2.83884,16,0.0136594,10,-0.000494073,-2.54686,-0.381052,-0.154835,17.1953,0.17404,
2,0,0,1,0,30732.3,0.172896,0.172555,-2.86957,16,0.013606,10,-0.000495159,-2.54218,-0.409975,-0.143911,16.1261,0.172555,
2,0,0,1,0,30732.3,0.171392,0.171068,-2.89731,16,0.0135515,10,-0.000495637,-2.53801,-0.377885,-0.156132,17.6787,0.171068,
2,0,0,1,0,30732.4,0.169889,0.169582,-2.9272,16,0.0134966,10,-0.000496402,-2.53355,-0.350433,-0.168363,19.2586,0.169582,
2,0,0,1,0,30732.4,0.1684,0.168075,-2.97027,16,0.0134416,10,-0.000499228,-2.5272,-0.313556,-0.188164,21.7671,0.168075,
2,0,0,1,0,30732.4,0.166896,0.166559,-2.99904,16,0.0133854,10,-0.000499516,-2.52302,-0.334879,-0.176183,20.6145,0.166559,
2,0,0,1,0,30732.4,0.165392,0.165051,-3.03495,16,0.0133285,10,-0.000500921,-2.51785,-0.294945,-0.200037,23.6867,0.165051,
2,0,0,1,0,30732.4,0.163905,0.163542,-3.0735,16,0.0132716,10,-0.000502648,-2.51237,-0.274313,-0.215083,25.8205,0.163542,
2,0,0,1,0,30732.4,0.162401,0.16208,-3.11156,16,0.0132133,10,-0.000504323,-2.50702,-0.23627,-0.249715,30.3232,0.16208,
2,0,0,1,0,30732.5,0.160905,0.160575,-3.15422,16,0.0131545,10,-0.000506488,-2.50111,-0.238573,-0.247304,30.4451,0.1605745,
2,0,0,1,0,30732.5,0.159409,0.159097,-3.2046,16,0.0130949,10,-0.000509841,-2.49423,-0.215536,-0.273736,34.2307,0.159097,
2,0,0,1,0,30732.5,0.157905,0.157577,-3.24848,16,0.0130341,10,-0.000511885,-2.48832,-0.207895,-0.283797,36.0429,0.157577,
2,0,0,1,0,30732.5,0.156416,0.156111,-3.30434,16,0.0129729,10,-0.000515843,-2.48091,-0.18788,-0.314029,40.5412,0.156111,
2,0,0,1,0,30732.5,0.154912,0.154552,-3.36637,16,0.01291,10,-0.00052028,-2.47284,-0.180722,-0.326468,42.9514,0.154552,
2,0,0,1,0,30732.6,0.153409,0.153094,-3.42886,16,0.0128458,10,-0.000524939,-2.46485,-0.176272,-0.33471,44.9086,0.153094,
2,0,0,1,0,30732.6,0.151919,0.151582,-3.49628,16,0.0127812,10,-0.000529974,-2.45639,-0.158212,-0.372917,51.0702,0.151582,
2,0,0,1,0,30732.6,0.150416,0.150094,-3.57812,16,0.0127144,10,-0.000537053,-2.44635,-0.148509,-0.397283,55.5761,0.150094,
2,0,0,1,0,30732.6,0.148912,0.148541,-3.66883,16,0.0126461,10,-0.000544973,-2.43547,-0.141185,-0.41789,59.9346,0.148541,
2,0,0,1,0,30732.6,0.147425,0.147112,-3.76031,16,0.0125768,10,-0.000553185,-2.42478,-0.137041,-0.430528,63.3361,0.147112,
2,0,0,1,0,30732.7,0.145921,0.145605,-3.86375,16,0.0125049,10,-0.000562581,-2.41299,-0.125391,-0.470529,71.1002,0.145605,
2,0,0,1,0,30732.7,0.144425,0.144071,-3.97991,16,0.0124313,10,-0.000573391,-2.40013,-0.116605,-0.505983,78.7387,0.144071,
2,0,0,1,0,30732.7,0.142929,0.142657,-4.11356,16,0.0123556,10,-0.00058683,-2.38578,-0.109105,-0.540762,86.7763,0.1426574,
2,0,0,1,0,30732.7,0.141425,0.141097,-4.24525,16,0.0122769,10,-0.000598994,-2.3721,-0.106226,-0.55542,91.9861,0.1410974,
2,0,0,1,0,30732.7,0.139936,0.139573,-4.38912,16,0.0121965,10,-0.000612604,-2.35762,-0.0997995,-0.591186,101.341,0.139573,
2,0,0,1,0,30732.7,0.138432,0.138111,-4.54149,16,0.0121124,10,-0.000627227,-2.3428,-0.0976169,-0.604404,107.28,0.138111,
2,0,0,1,0,30732.8,0.136929,0.136605,-4.7141,16,0.0120253,10,-0.000643968,-2.3266,-0.0949404,-0.621443,114.292,0.136605,
2,0,0,1,0,30732.8,0.135439,0.135091,-4.88829,16,0.0119359,10,-0.000660366,-2.31084,-0.0951678,-0.619957,118.151,0.135091,
2,0,0,1,0,30732.8,0.133936,0.133577,-5.06128,16,0.0118422,10,-0.000676073,-2.29574,-0.0966777,-0.610275,120.399,0.133577,
2,0,0,1,0,30732.8,0.132432,0.132125,-5.23766,16,0.0117451,10,-0.000692024,-2.28086,-0.0976285,-0.604332,123.66,0.132125,
2,0,0,1,0,30732.8,0.130945,0.130687,-5.42094,16,0.0116457,10,-0.000708448,-2.26593,-0.0985632,-0.598601,126.85,0.1306873,
2,0,0,1,0,30732.9,0.129441,0.129135,-5.61783,16,0.0115416,10,-0.000725457,-2.25043,-0.0994307,-0.593378,130.023,0.129135,
2,0,0,1,0,30732.9,0.127945,0.127605,-5.80539,16,0.0114344,10,-0.000740798,-2.23617,-0.108085,-0.545868,123.727,0.127605,
2,0,0,1,0,30732.9,0.126448,0.126158,-5.99514,16,0.0113238,10,-0.000756336,-2.2222,-0.114627,-0.514713,120.386,0.126158,
2,0,0,1,0,30732.9,0.124945,0.124606,-6.18165,16,0.0112091,10,-0.000770269,-2.2089,-0.118127,-0.499462,120.373,0.1246056,
2,0,0,1,0,30732.9,0.123456,0.12314,-6.35792,16,0.0110923,10,-0.000782912,-2.19668,-0.128701,-0.458427,113.573,0.12314,
2,0,0,1,0,30732.9,0.121952,0.121639,-6.53205,16,0.0109709,10,-0.000794553,-2.18495,-0.138765,-0.425181,108.16,0.121639,
2,0,0,1,0,30733,0.120449,0.120116,-6.69267,16,0.0108464,10,-0.000803899,-2.1744,-0.144449,-0.408449,106.492,0.120116,
2,0,0,1,0,30733,0.118959,0.11864,-6.8547,16,0.0107204,10,-0.000813244,-2.16401,-0.156783,-0.376317,100.503,0.11864,
2,0,0,1,0,30733,0.117456,0.117123,-7.00254,16,0.01059,10,-0.000820161,-2.15474,-0.162871,-0.362249,98.8057,0.117123,
2,0,0,1,0,30733,0.115952,0.115616,-7.14628,16,0.0104569,10,-0.000826223,-2.14592,-0.182643,-0.323034,89.7956,0.115616,
2,0,0,1,0,30733,0.114465,0.114171,-7.26973,16,0.0103226,10,-0.000829995,-2.13848,-0.192129,-0.307085,87.0126,0.114171,
2,0,0,1,0,30733.1,0.112961,0.112692,-7.38839,16,0.0101847,10,-0.00083261,-2.13145,-0.214484,-0.275079,79.2856,0.112692,
2,0,0,1,0,30733.1,0.111465,0.111169,-7.50477,16,0.0100452,10,-0.000834295,-2.12466,-0.227656,-0.259163,75.7986,0.111169,
2,0,0,1,0,30733.1,0.109968,0.109622,-7.6111,16,0.00990362,10,-0.000834347,-2.11855,-0.259536,-0.227328,67.4275,0.109622,
2,0,0,1,0,30733.1,0.108465,0.108117,-7.70497,16,0.00975939,10,-0.000833037,-2.11323,-0.289152,-0.204045,61.2858,0.108117,
2,0,0,1,0,30733.1,0.106976,0.106641,-7.78337,16,0.00961508,10,-0.000830024,-2.10883,-0.329627,-0.17899,54.3655,0.106641,
2,0,0,1,0,30733.2,0.105472,0.105134,-7.85894,16,0.00946772,10,-0.000826243,-2.10464,-0.384305,-0.153524,47.0843,0.105134,
2,0,0,1,0,30733.2,0.103968,0.103687,-7.9319,16,0.00931897,10,-0.000822434,-2.10062,-0.467179,-0.12629,39.0629,0.103687,
2,0,0,1,0,30733.2,0.102479,0.102197,-7.98744,16,0.00917064,10,-0.000816296,-2.09759,-0.595574,-0.0990641,30.8403,0.102197,
2,0,0,1,0,30733.2,0.100976,0.100665,-8.0236,16,0.00901986,10,-0.000807699,-2.09563,-0.850293,-0.0693879,21.7247,0.100665,
2,0,0,1,0,30733.2,0.0994721,0.0991619,-8.06275,16,0.00886841,10,-0.000799517,-2.09352,-1.14234,-0.0516483,16.2316,0.0991619,
2,0,0,1,0,30733.2,0.0979846,0.0976594,-8.08425,16,0.00871811,10,-0.000789503,-2.09236,-1.94628,-0.0303142,9.55091,0.0976594,
2,0,0,1,0,30733.3,0.0964811,0.0961328,-8.09738,16,0.00856584,10,-0.000778423,-2.09166,-220.917,-0.000267068,0.0841861,0.0961328,
2,0,0,1,0,30733.3,0.0949847,0.0946364,-8.0911,16,0.00841434,10,-0.000765713,-2.09199,3.42858,0.0172083,-5.42572,0.0946364,
2,0,0,1,0,30733.3,0.0934883,0.0931426,-8.07922,16,0.00826307,10,-0.000752519,-2.09263,2.05545,0.0287042,-9.04157,0.0931426,
2,0,0,1,0,30733.3,0.0919847,0.0916892,-8.04881,16,0.0081113,10,-0.000737989,-2.09427,1.16141,0.0508005,-15.9442,0.0916892,
2,0,0,1,0,30733.3,0.0904955,0.0901615,-8.02561,16,0.00796157,10,-0.000723601,-2.09552,0.845721,0.0697629,-21.8139,0.0901615,
2,0,0,1,0,30733.4,0.0889919,0.0886277,-7.9844,16,0.00781094,10,-0.000707639,-2.09776,0.713966,0.082637,-25.7179,0.0886277,
2,0,0,1,0,30733.4,0.0874884,0.0871553,-7.93361,16,0.00766117,10,-0.000691456,-2.10053,0.595825,0.0990224,-30.6434,0.08715526,
2,0,0,1,0,30733.4,0.0860009,0.085647,-7.88185,16,0.00751388,10,-0.000675057,-2.10337,0.56424,0.104565,-32.1531,0.085647,
2,0,0,1,0,30733.4,0.0844973,0.0841725,-7.82631,16,0.007366,10,-0.00065876,-2.10644,0.531427,0.111022,-33.9225,0.0841725,
2,0,0,1,0,30733.4,0.0829938,0.0826513,-7.7684,16,0.00721913,10,-0.000642069,-2.10967,0.466076,0.126589,-38.3792,0.0826513,
2,0,0,1,0,30733.5,0.0815045,0.081168,-7.7078,16,0.0070749,10,-0.000625627,-2.11307,0.444658,0.132686,-39.951,0.081168,
2,0,0,1,0,30733.5,0.080001,0.0796587,-7.65151,16,0.00693025,10,-0.000609509,-2.11625,0.468277,0.125994,-37.6561,0.0796587,
2,0,0,1,0,30733.5,0.0785046,0.0781611,-7.6014,16,0.00678737,10,-0.000594133,-2.11911,0.489162,0.120614,-35.807,0.0781611,
2,0,0,1,0,30733.5,0.0770082,0.0766801,-7.55469,16,0.00664549,10,-0.000579294,-2.12178,0.47386,0.124509,-36.6898,0.0766801,
2,0,0,1,0,30733.5,0.0755046,0.0752097,-7.4917,16,0.00650385,10,-0.000563448,-2.12542,0.486339,0.121315,-35.5126,0.0752097,
2,0,0,1,0,30733.5,0.0740154,0.0737249,-7.45346,16,0.00636468,10,-0.000549506,-2.12764,0.501168,0.117725,-34.2438,0.0737249,
2,0,0,1,0,30733.6,0.0725118,0.0721519,-7.40931,16,0.00622489,10,-0.000534596,-2.13022,0.572814,0.103,-29.7714,0.0721519,
2,0,0,1,0,30733.6,0.0710083,0.0706676,-7.36922,16,0.0060859,10,-0.000520765,-2.13258,0.624483,0.0944781,-27.1376,0.0706676,
2,0,0,1,0,30733.6,0.0695208,0.0691764,-7.32693,16,0.00594916,10,-0.000506851,-2.13508,0.637097,0.0926075,-26.4706,0.0691764,
2,0,0,1,0,30733.6,0.0680173,0.0676576,-7.28095,16,0.00581175,10,-0.000492611,-2.13781,0.74237,0.0794752,-22.5995,0.0676576,
2,0,0,1,0,30733.6,0.0665137,0.0662103,-7.24911,16,0.00567502,10,-0.000479966,-2.13972,0.823694,0.0716285,-20.2619,0.0662103,
2,0,0,1,0,30733.7,0.0650244,0.0647249,-7.21641,16,0.00554032,10,-0.000467082,-2.14168,0.780472,0.0755953,-21.2717,0.0647249,
2,0,0,1,0,30733.7,0.0635209,0.0632095,-7.17941,16,0.00540483,10,-0.000453807,-2.14391,0.731175,0.0806921,-22.6054,0.0632095,
2,0,0,1,0,30733.7,0.0620245,0.0617239,-7.13987,16,0.00527078,10,-0.000440701,-2.14631,0.777024,0.0759307,-21.1733,0.0617239,
2,0,0,1,0,30733.7,0.0605281,0.0601938,-7.10667,16,0.00513736,10,-0.000427777,-2.14833,0.804601,0.0733283,-20.3416,0.0601938,
2,0,0,1,0,30733.7,0.0590246,0.0586599,-7.07367,16,0.00500383,10,-0.000414941,-2.15036,0.761945,0.0774334,-21.3775,0.0586599,
2,0,0,1,0,30733.8,0.0575353,0.0571858,-7.04285,16,0.0048723,10,-0.000402751,-2.15225,0.719502,0.0820012,-22.5435,0.0571858,
2,0,0,1,0,30733.8,0.0560317,0.055696,-7.00136,16,0.00474005,10,-0.000389947,-2.15482,0.645071,0.0914628,-25.0155,0.055696,
2,0,0,1,0,30733.8,0.0545282,0.0541976,-6.96951,16,0.00460847,10,-0.000377731,-2.1568,0.688872,0.0856472,-23.3106,0.0541976,
2,0,0,1,0,30733.8,0.0530407,0.0527064,-6.94121,16,0.0044789,10,-0.000365846,-2.15857,0.657565,0.089725,-24.2951,0.0527064,
2,0,0,1,0,30733.8,0.0515372,0.0512227,-6.90764,16,0.00434856,10,-0.000353828,-2.16067,0.605563,0.09743,-26.2424,0.0512227,
2,0,0,1,0,30733.8,0.0500336,0.0497114,-6.86998,16,0.00421888,10,-0.000341516,-2.16304,0.590765,0.0998704,-26.7625,0.0497114,
2,0,0,1,0,30733.9,0.0485444,0.0482223,-6.83426,16,0.00409129,10,-0.000329564,-2.16531,0.601331,0.0981157,-26.1662,0.0482223,
2,0,0,1,0,30733.9,0.0470408,0.0467038,-6.79732,16,0.00396302,10,-0.00031746,-2.16766,0.615204,0.0959032,-25.4447,0.0467038,
2,0,0,1,0,30733.9,0.0455444,0.0452335,-6.76534,16,0.00383611,10,-0.00030602,-2.16971,0.601911,0.0980212,-25.8507,0.0452335,
2,0,0,1,0,30733.9,0.044048,0.0437551,-6.72755,16,0.00370988,10,-0.000294365,-2.17214,0.62328,0.0946605,-24.8333,0.0437551,
2,0,0,1,0,30733.9,0.0425445,0.0422193,-6.6811,16,0.00358373,10,-0.000282071,-2.17515,0.635132,0.0928941,-24.2321,0.0422193,
2,0,0,1,0,30734,0.0410552,0.0406947,-6.63965,16,0.00345966,10,-0.000270198,-2.17785,0.650138,0.0907499,-23.5264,0.0406947,
2,0,0,1,0,30734,0.0395517,0.0392072,-6.60969,16,0.00333491,10,-0.000259148,-2.17982,0.626159,0.0942252,-24.2691,0.0392072,
2,0,0,1,0,30734,0.0380481,0.0376959,-6.56043,16,0.00321092,10,-0.000247302,-2.18307,0.54892,0.107484,-27.5169,0.0376959,
2,0,0,1,0,30734,0.0365606,0.0362453,-6.51184,16,0.00308909,10,-0.000236024,-2.1863,0.532648,0.110767,-28.1833,0.0362453,
2,0,0,1,0,30734,0.0350571,0.0347071,-6.47151,16,0.00296678,10,-0.000224607,-2.18899,0.536082,0.110058,-27.8008,0.0347071,
2,0,0,1,0,30734.1,0.0335535,0.0332295,-6.4252,16,0.00284526,10,-0.000213506,-2.19211,0.466599,0.126447,-31.7226,0.0332295,
2,0,0,1,0,30734.1,0.0320643,0.031741,-6.38192,16,0.00272588,10,-0.000202569,-2.19505,0.419577,0.140618,-35.0165,0.031741,
2,0,0,1,0,30734.1,0.0305607,0.0302379,-6.32961,16,0.00260613,10,-0.000191394,-2.19862,0.400757,0.147222,-36.3893,0.0302379,
2,0,0,1,0,30734.1,0.0290643,0.0287029,-6.28819,16,0.00248797,10,-0.000180489,-2.20147,0.446079,0.132263,-32.4581,0.0287029,
2,0,0,1,0,30734.1,0.0275679,0.027233,-6.2474,16,0.00237067,10,-0.000170135,-2.2043,0.430285,0.137119,-33.3605,0.027233,
2,0,0,1,0,30734.1,0.0260644,0.0257497,-6.19286,16,0.00225361,10,-0.000159464,-2.20811,0.389851,0.15134,-36.5251,0.0257497,
2,0,0,1,0,30734.2,0.0245751,0.0242816,-6.13987,16,0.00213878,10,-0.000149086,-2.21184,0.39951,0.147681,-35.3651,0.0242816,
2,0,0,1,0,30734.2,0.0230716,0.0227806,-6.08464,16,0.00202377,10,-0.000138612,-2.21576,0.393655,0.149877,-35.582,0.0227806,
2,0,0,1,0,30734.2,0.021568,0.021229,-6.03918,16,0.00190967,10,-0.000128206,-2.21902,0.425948,0.138515,-32.6045,0.021229,
2,0,0,1,0,30734.2,0.0200805,0.0197283,-5.98431,16,0.00179774,10,-0.00011806,-2.22299,0.413488,0.142688,-33.2969,0.0197283,
2,0,0,1,0,30734.2,0.018577,0.0182238,-5.92697,16,0.0016856,10,-0.000108012,-2.22717,0.428617,0.137652,-31.8676,0.0182238,
2,0,0,1,0,30734.3,0.0170735,0.0167633,-5.87329,16,0.00157446,10,-9.84555e-05,-2.23112,0.441805,0.133543,-30.6505,0.0167633,
2,0,0,1,0,30734.3,0.0155842,0.015253,-5.82662,16,0.00146538,10,-8.88733e-05,-2.23458,0.450283,0.131029,-29.8295,0.015253,
2,0,0,1,0,30734.3,0.0140806,0.013756,-5.77867,16,0.001356,10,-7.94914e-05,-2.23817,0.467643,0.126165,-28.4925,0.013756,
2,0,0,1,0,30734.3,0.0125842,0.0122213,-5.73327,16,0.00124805,10,-7.00679e-05,-2.2416,0.426476,0.138343,-30.9898,0.0122213,
2,0,0,1,0,30734.3,0.0110878,0.0107644,-5.68297,16,0.00114101,10,-6.11738e-05,-2.24542,0.417392,0.141354,-31.4158,0.0107644,
2,0,0,1,0,30734.4,0.00958429,0.00928719,-5.64136,16,0.00103425,10,-5.23924e-05,-2.24862,0.451812,0.130585,-28.7895,0.00928719,
2,0,0,1,0,30734.4,0.0080968,0.00773464,-5.60675,16,0.000929373,10,-4.33662e-05,-2.25129,0.46488,0.126914,-27.7891,0.00773464,
2,0,0,1,0,30734.4,0.00659326,0.00622572,-5.57372,16,0.000824086,10,-3.47004e-05,-2.25385,0.47277,0.124796,-27.1358,0.00622572,
2,0,0,1,0,30734.4,0.00508972,0.00476997,-5.53132,16,0.000719535,10,-2.63842e-05,-2.25717,0.511716,0.115298,-24.9072,0.00476997,
2,0,0,1,0,30734.4,0.00360044,0.00325696,-5.50544,16,0.000616747,10,-1.7931e-05,-2.25921,0.986493,0.0598078,-12.8876,0.00325696,
2,0,0,1,0,30734.4,0.0020969,0.0017477,-5.51835,16,0.00051333,10,-9.64439e-06,-2.25819,0.90849,0.064943,-13.9036,0.0017477,
2,0,0,1,0,30734.5,0.000593362,0.00020844,-5.46826,16,0.000409977,10,-1.1398e-06,-2.26215, , , ,0.00020844,
2,0,0,1,0,30734.5,0.000199195,-0.000197439,-5.4579,16,0.000383146,10,1.0776e-06,-2.26297, , , ,-0.000197439,