File: Figure_codes/Fig_3-5/rawdata_trumpetplot_data/after 10th/20221101_1-115_003_TrumpetPlot_ParaChange_from10_every3_09_CV_C01_32.csv
mode,ox/red,error,control changes,counter inc.,time/s,control/V,Ewe/V,<I>/mA,cycle number,(Q-Qo)/C,I Range,P/W,log(|I|),Tafel slope mV/dec,alpha_eff,dI/d(E-IR),E-IR/V,
2,0,0,0,0,64226.7,2.44065e-05,-0.00042076,-5.22517,33,0.0000000E+000,10,2.19855e-06,-2.2819, , , ,-0.00042076,
2,0,0,1,0,64226.7,0.00179726,0.00142283,-3.22273,33,-7.19367e-05,10,-4.58538e-06,-2.49178, , , ,0.00142283,
2,0,0,1,0,64226.7,0.00379485,0.00346641,-1.81652,33,-0.00012108,10,-6.29681e-06,-2.74076,-0.00670315,-8.80183,599.577,0.00346641,
2,0,0,1,0,64226.7,0.00579244,0.00545025,-0.807975,33,-0.00014665,10,-4.40367e-06,-3.0926,-0.0019479,-30.2891,451.367,0.00545025,
2,0,0,1,0,64226.8,0.00779002,0.00745483,-0.0162813,33,-0.000154434,10,-1.21374e-07,-4.78831,-0.034075,-1.73147,351.609,0.00745483,
2,1,0,1,0,64226.8,0.00978761,0.0094964,0.614689,33,-0.000148087,10,5.83733e-06,-3.21134,0.00217038,27.1841,285.68,0.0094964,
2,1,0,1,0,64226.8,0.0117852,0.0114463,1.12401,33,-0.000130389,10,1.28658e-05,-2.94923,0.00979784,6.02173,237.597,0.0114463,
2,1,0,1,0,64226.8,0.0137828,0.0134301,1.54933,33,-0.000103432,10,2.08077e-05,-2.80986,0.0172197,3.42631,198.403,0.0134301,
2,1,0,1,0,64226.8,0.0157804,0.0154234,1.91308,33,-6.86243e-05,10,2.95063e-05,-2.71827,0.0256527,2.29995,167.547,0.0154234,
2,1,0,1,0,64226.9,0.017778,0.0174599,2.22451,33,-2.72793e-05,10,3.88397e-05,-2.65277,0.0354467,1.66447,142.003,0.0174599,
2,1,0,1,0,64226.9,0.0197755,0.0194425,2.4838,33,1.99119e-05,10,4.82913e-05,-2.60488,0.0456761,1.2917,124.097,0.0194425,
2,1,0,1,0,64226.9,0.0217731,0.0214139,2.71519,33,7.20225e-05,10,5.81427e-05,-2.5662,0.0563095,1.04778,110.308,0.0214139,
2,1,0,1,0,64226.9,0.0237707,0.0234264,2.92325,33,0.000128518,10,6.84811e-05,-2.53413,0.0683825,0.862794,97.8626,0.0234264,
2,1,0,1,0,64226.9,0.0257683,0.02541,3.10626,33,0.000188585,10,7.89301e-05,-2.50776,0.0803807,0.734007,88.7116,0.02541,
2,1,0,1,0,64227,0.0277659,0.0274155,3.27713,33,0.000252507,10,8.98442e-05,-2.48451,0.0916579,0.643698,82.0947,0.02741549,
2,1,0,1,0,64227,0.0297635,0.0294153,3.43507,33,0.0003197,10,0.000101044,-2.46406,0.107514,0.548767,73.2752,0.0294153,
2,1,0,1,0,64227,0.0317611,0.0314104,3.56986,33,0.000389801,10,0.000112131,-2.44735,0.119273,0.494662,68.9434,0.0314104,
2,1,0,1,0,64227,0.0337587,0.0334173,3.71098,33,0.000462322,10,0.000124011,-2.43051,0.129063,0.457142,66.0412,0.0334173,
2,1,0,1,0,64227,0.0357562,0.0354514,3.83673,33,0.000537909,10,0.000136017,-2.41604,0.148334,0.39775,59.4336,0.03545136,
2,1,0,1,0,64227.1,0.0377538,0.0374219,3.94899,33,0.000615899,10,0.000147779,-2.40351,0.152745,0.386264,59.5982,0.0374219,
2,1,0,1,0,64227.1,0.0397514,0.0394103,4.07268,33,0.00069616,10,0.000160506,-2.39012,0.153738,0.38377,60.9581,0.0394103,
2,1,0,1,0,64227.1,0.041749,0.041433,4.1935,33,0.000778419,10,0.000173749,-2.37742,0.17342,0.340214,55.5321,0.041433,
2,1,0,1,0,64227.1,0.0437466,0.0433981,4.29413,33,0.000863368,10,0.000186357,-2.36713,0.189502,0.311343,52.2101,0.0433981,
2,1,0,1,0,64227.1,0.0457442,0.0454252,4.40193,33,0.000950357,10,0.000199959,-2.35636,0.194022,0.304089,52.1899,0.0454252,
2,1,0,1,0,64227.2,0.0477418,0.0473973,4.50285,33,0.00103943,10,0.000213423,-2.34651,0.197188,0.299207,52.6207,0.0473973,
2,1,0,1,0,64227.2,0.0497484,0.0494236,4.61233,33,0.00113058,10,0.000227958,-2.33608,0.211541,0.278905,50.0907,0.0494236,
2,1,0,1,0,64227.2,0.0517369,0.051381,4.70239,33,0.00122325,10,0.000241613,-2.32768,0.223997,0.263396,48.398,0.051381,
2,1,0,1,0,64227.2,0.0537345,0.0534121,4.80537,33,0.00131836,10,0.000256665,-2.31827,0.223655,0.263799,49.4161,0.05341211,
2,1,0,1,0,64227.2,0.0557321,0.055354,4.89872,33,0.00141543,10,0.000271164,-2.30992,0.243235,0.242564,46.3554,0.05535404,
2,1,0,1,0,64227.3,0.0577206,0.0573808,4.98934,33,0.00151383,10,0.000286292,-2.30196,0.248869,0.237073,46.1772,0.0573808,
2,1,0,1,0,64227.3,0.0597273,0.0593729,5.0843,33,0.00161469,10,0.00030187,-2.29377,0.252146,0.233991,46.4123,0.0593729,
2,1,0,1,0,64227.3,0.0617249,0.0614165,5.17664,33,0.00171734,10,0.000317931,-2.28595,0.274698,0.214782,43.3448,0.0614165,
2,1,0,1,0,64227.3,0.0637224,0.0633968,5.25872,33,0.00182177,10,0.000333386,-2.27912,0.284829,0.207142,42.5294,0.0633968,
2,1,0,1,0,64227.3,0.06572,0.0653988,5.34601,33,0.0019279,10,0.000349623,-2.27197,0.266911,0.221048,46.1477,0.0653988,
2,1,0,1,0,64227.4,0.0677176,0.0673467,5.441,33,0.0020354,10,0.000366433,-2.26432,0.29183,0.202172,42.8474,0.0673467,
2,1,0,1,0,64227.4,0.0697152,0.0693633,5.51587,33,0.00214505,10,0.000382599,-2.25839,0.326513,0.180697,38.9242,0.0693633,
2,1,0,1,0,64227.4,0.0717128,0.0714031,5.59889,33,0.00225628,10,0.000399778,-2.2519,0.312501,0.188799,41.2505,0.0714031,
2,1,0,1,0,64227.4,0.0737104,0.0733849,5.68177,33,0.00236915,10,0.000416956,-2.24552,0.324205,0.181984,40.3283,0.0733849,
2,1,0,1,0,64227.4,0.075708,0.0753572,5.75835,33,0.00248311,10,0.000433933,-2.2397,0.341112,0.172964,38.8747,0.0753572,
2,1,0,1,0,64227.5,0.0777056,0.077377,5.83696,33,0.00259909,10,0.000451646,-2.23381,0.360257,0.163772,37.2826,0.077377,
2,1,0,1,0,64227.5,0.0797031,0.0793868,5.90858,33,0.00271656,10,0.000469064,-2.22852,0.396332,0.148865,34.3136,0.0793868,
2,1,0,1,0,64227.5,0.0817007,0.0814304,5.97605,33,0.00283547,10,0.000486632,-2.22359,0.391174,0.150828,35.1877,0.0814304,
2,1,0,1,0,64227.5,0.0836983,0.0833394,6.04767,33,0.00295515,10,0.000504009,-2.21841,0.407632,0.144738,34.1342,0.0833394,
2,1,0,1,0,64227.5,0.0856959,0.0853597,6.11017,33,0.00307682,10,0.000521562,-2.21395,0.434108,0.135911,32.422,0.0853597,
2,1,0,1,0,64227.6,0.0876935,0.0873556,6.17788,33,0.00319978,10,0.000539672,-2.20916,0.448088,0.13167,31.723,0.0873556,
2,1,0,1,0,64227.6,0.0896911,0.0893581,6.23701,33,0.00332396,10,0.000557327,-2.20502,0.432027,0.136566,33.279,0.0893581,
2,1,0,1,0,64227.6,0.0916887,0.091345,6.31064,33,0.00344882,10,0.000576446,-2.19993,0.429184,0.13747,33.8248,0.09134499,
2,1,0,1,0,64227.6,0.0936863,0.0933739,6.37284,33,0.00357569,10,0.000595057,-2.19567,0.497839,0.118512,29.4604,0.0933739,
2,1,0,1,0,64227.6,0.0956838,0.0953594,6.42891,33,0.00370381,10,0.000613057,-2.19186,0.451517,0.130671,32.8303,0.0953594,
2,1,0,1,0,64227.7,0.0976814,0.0973401,6.50306,33,0.00383323,10,0.000633009,-2.18688,0.378169,0.156015,39.6217,0.0973401,
2,1,0,1,0,64227.7,0.099679,0.0993337,6.58638,33,0.0039635,10,0.000654249,-2.18135,0.385131,0.153195,39.3477,0.0993337,
2,1,0,1,0,64227.7,0.101677,0.101333,6.66018,33,0.00409604,10,0.000674898,-2.17651,0.384902,0.153286,39.8784,0.101333,
2,1,0,1,0,64227.7,0.103674,0.103348,6.74647,33,0.00423018,10,0.000697236,-2.17092,0.334211,0.176535,46.5217,0.103348,
2,1,0,1,0,64227.7,0.105672,0.105318,6.84553,33,0.00436619,10,0.000720955,-2.16459,0.310013,0.190315,50.8595,0.105318,
2,1,0,1,0,64227.8,0.107667,0.107344,6.94968,33,0.00450348,10,0.000746003,-2.15804,0.299812,0.19679,53.3947,0.107344,
2,1,0,1,0,64227.8,0.109667,0.10934,7.06029,33,0.00464364,10,0.000771969,-2.15118,0.286389,0.206014,56.7757,0.10934,
2,1,0,1,0,64227.8,0.111665,0.111307,7.17471,33,0.00478604,10,0.000798598,-2.1442,0.278125,0.212135,59.433,0.111307,
2,1,0,1,0,64227.8,0.113662,0.11335,7.29862,33,0.00493086,10,0.000827296,-2.13676,0.263195,0.224168,63.8736,0.11335,
2,1,0,1,0,64227.8,0.11566,0.115285,7.4288,33,0.00507816,10,0.000856431,-2.12908,0.258131,0.228566,66.2775,0.115285,
2,1,0,1,0,64227.9,0.117657,0.117339,7.56301,33,0.00522741,10,0.000887435,-2.12131,0.2761,0.21369,63.0092,0.117339,
2,1,0,1,0,64227.9,0.119655,0.119325,7.68335,33,0.00537993,10,0.000916818,-2.11445,0.29013,0.203357,60.9831,0.119325,
2,1,0,1,0,64227.9,0.121652,0.121327,7.80624,33,0.00553492,10,0.00094711,-2.10756,0.298894,0.197394,60.1132,0.121327,
2,1,0,1,0,64227.9,0.12365,0.123333,7.92426,33,0.00569229,10,0.00097732,-2.10104,0.30011,0.196595,60.824,0.123333,
2,1,0,1,0,64227.9,0.125648,0.125337,8.05015,33,0.00585133,10,0.00100898,-2.0942,0.323617,0.182314,57.1872,0.125337,
2,1,0,1,0,64228,0.127645,0.127307,8.15155,33,0.00601342,10,0.00103775,-2.08876,0.364205,0.161996,51.5375,0.127307,
2,1,0,1,0,64228,0.129643,0.129299,8.25433,33,0.00617755,10,0.00106728,-2.08332,0.39482,0.149435,48.097,0.129299,
2,1,0,1,0,64228,0.13164,0.131296,8.3434,33,0.00634365,10,0.00109546,-2.07866,0.450742,0.130895,42.6033,0.131296,
2,1,0,1,0,64228,0.133638,0.133325,8.42586,33,0.00651068,10,0.00112338,-2.07439,0.491344,0.120079,39.4693,0.133325,
2,1,0,1,0,64228,0.135636,0.135306,8.50166,33,0.00668005,10,0.00115032,-2.0705,0.560134,0.105332,34.9207,0.135306,
2,1,0,1,0,64228.1,0.137633,0.137291,8.56435,33,0.00685083,10,0.00117581,-2.06731,0.668313,0.088282,29.4941,0.137291,
2,1,0,1,0,64228.1,0.139631,0.139304,8.61959,33,0.00702283,10,0.00120075,-2.06451,0.73328,0.0804604,27.0641,0.139304,
2,1,0,1,0,64228.1,0.141628,0.141326,8.67354,33,0.007195,10,0.00122579,-2.0618,0.88918,0.0663533,22.4373,0.141326,
2,1,0,1,0,64228.1,0.143626,0.143317,8.70963,33,0.00736893,10,0.00124824,-2.06,1.39321,0.0423481,14.3821,0.143317,
2,1,0,1,0,64228.1,0.145624,0.145302,8.73073,33,0.00754341,10,0.00126859,-2.05895,8.33435,0.00707914,2.40759,0.145302,
2,1,0,1,0,64228.2,0.147621,0.147289,8.7192,33,0.00771798,10,0.00128424,-2.05952,-2.85415,-0.0206717,-7.03222,0.147289,
2,1,0,1,0,64228.2,0.149619,0.149284,8.70273,33,0.00789142,10,0.00129918,-2.06034,-1.06806,-0.0552402,-18.7168,0.149284,
2,1,0,1,0,64228.2,0.151616,0.151272,8.64464,33,0.00806498,10,0.0013077,-2.06325,-0.51923,-0.11363,-38.2494,0.151272,
2,1,0,1,0,64228.2,0.153614,0.153326,8.54812,33,0.008237,10,0.00131065,-2.06813,-0.358322,-0.164657,-54.8407,0.153326,
2,1,0,1,0,64228.2,0.155611,0.155285,8.42459,33,0.00840682,10,0.00130821,-2.07445,-0.285176,-0.20689,-67.9261,0.155285,
2,1,0,1,0,64228.3,0.157609,0.157293,8.27868,33,0.00857307,10,0.00130217,-2.08204,-0.219089,-0.269297,-86.7055,0.157293,
2,1,0,1,0,64228.3,0.159607,0.159285,8.07772,33,0.00873671,10,0.00128666,-2.09271,-0.177502,-0.33239,-104.649,0.159285,
2,1,0,1,0,64228.3,0.161604,0.1613,7.8593,33,0.00889613,10,0.00126771,-2.10462,-0.155374,-0.379729,-116.232,0.1613,
2,1,0,1,0,64228.3,0.163602,0.163282,7.61314,33,0.0090509,10,0.00124309,-2.11844,-0.138659,-0.425505,-126.297,0.163282,
2,1,0,1,0,64228.3,0.165606,0.165276,7.35712,33,0.00920062,10,0.00121596,-2.13329,-0.129658,-0.455042,-130.556,0.165276,
2,1,0,1,0,64228.4,0.167597,0.167243,7.09611,33,0.00934449,10,0.00118677,-2.14898,-0.126781,-0.465368,-128.852,0.167243,
2,1,0,1,0,64228.4,0.169595,0.169301,6.8385,33,0.00948386,10,0.00115777,-2.16504,-0.122839,-0.480305,-128.12,0.169301,
2,1,0,1,0,64228.4,0.171592,0.171268,6.58033,33,0.00961809,10,0.001127,-2.18175,-0.120506,-0.489601,-125.873,0.1712684,
2,1,0,1,0,64228.4,0.173581,0.173239,6.34287,33,0.00974669,10,0.00109883,-2.19771,-0.127669,-0.462133,-114.542,0.173239,
2,1,0,1,0,64228.4,0.175587,0.175228,6.12678,33,0.00987145,10,0.00107358,-2.21277,-0.132209,-0.446262,-106.719,0.1752281,
2,1,0,1,0,64228.5,0.177585,0.177228,5.91719,33,0.00999186,10,0.00104869,-2.22788,-0.135448,-0.435593,-100.677,0.177228,
2,1,0,1,0,64228.5,0.179582,0.179245,5.72236,33,0.0101082,10,0.0010257,-2.24243,-0.145918,-0.404337,-90.4656,0.179245,
2,1,0,1,0,64228.5,0.18158,0.181258,5.55253,33,0.010221,10,0.00100644,-2.25551,-0.158083,-0.373221,-80.9671,0.181258,
2,1,0,1,0,64228.5,0.183578,0.183247,5.39834,33,0.0103301,10,0.000989229,-2.26774,-0.166557,-0.354232,-74.6701,0.183247,
2,1,0,1,0,64228.5,0.185575,0.185273,5.25275,33,0.0104366,10,0.000973194,-2.27961,-0.173721,-0.339625,-69.6926,0.185273,
2,1,0,1,0,64228.6,0.187573,0.187238,5.12017,33,0.0105403,10,0.000958692,-2.29072,-0.188517,-0.312969,-62.6331,0.187238,
2,1,0,1,0,64228.6,0.18957,0.189228,5.00502,33,0.0106416,10,0.000947092,-2.30059,-0.201429,-0.292908,-57.2141,0.189228,
2,1,0,1,0,64228.6,0.191568,0.191232,4.89168,33,0.0107402,10,0.000935445,-2.31054,-0.219943,-0.268252,-51.3126,0.191232,
2,1,0,1,0,64228.6,0.193566,0.19324,4.79917,33,0.0108372,10,0.000927392,-2.31883,-0.240827,-0.244989,-45.8896,0.19324,
2,1,0,1,0,64228.6,0.195563,0.19522,4.70865,33,0.0109324,10,0.000919225,-2.3271,-0.243969,-0.241834,-44.4498,0.19522,
2,1,0,1,0,64228.7,0.197561,0.197243,4.62123,33,0.0110258,10,0.000911507,-2.33524,-0.273775,-0.215505,-38.9395,0.197243,
2,1,0,1,0,64228.7,0.199558,0.199244,4.55198,33,0.0111171,10,0.000906954,-2.3418,-0.302537,-0.195017,-34.641,0.199244,
2,1,0,1,0,64228.7,0.201556,0.20125,4.48245,33,0.0112075,10,0.000902091,-2.34848,-0.304684,-0.193643,-33.8904,0.2012496,
2,1,0,1,0,64228.7,0.203554,0.203209,4.4176,33,0.0112966,10,0.000897696,-2.35481,-0.321463,-0.183536,-31.6553,0.203209,
2,1,0,1,0,64228.7,0.205551,0.205215,4.35693,33,0.0113844,10,0.000894106,-2.36082,-0.399207,-0.147793,-25.1892,0.205215,
2,1,0,1,0,64228.8,0.207549,0.207201,4.31705,33,0.0114708,10,0.000894496,-2.36481,-0.417001,-0.141486,-23.7942,0.207201,
2,1,0,1,0,64228.8,0.209546,0.209214,4.26176,33,0.0115567,10,0.000891622,-2.37041,-0.394054,-0.149726,-24.9288,0.209214,
2,1,0,1,0,64228.8,0.211544,0.211265,4.21574,33,0.0116415,10,0.000890637,-2.37513,-0.429435,-0.13739,-22.6062,0.211265,
2,1,0,1,0,64228.8,0.213541,0.213241,4.17074,33,0.0117254,10,0.000889372,-2.37979,-0.490735,-0.120228,-19.5976,0.213241,
2,1,0,1,0,64228.8,0.215539,0.215236,4.13791,33,0.0118081,10,0.000890628,-2.38322,-0.51985,-0.113494,-18.3122,0.215236,
2,1,0,1,0,64228.9,0.217537,0.217209,4.09807,33,0.0118905,10,0.000890138,-2.38742,-0.494262,-0.11937,-19.1002,0.217209,
2,1,0,1,0,64228.9,0.219534,0.219198,4.06223,33,0.0119722,10,0.000890434,-2.39124,-0.567786,-0.103912,-16.4843,0.219198,
2,1,0,1,0,64228.9,0.221532,0.221235,4.0317,33,0.0120532,10,0.000891955,-2.39451,-0.63494,-0.0929222,-14.625,0.221235,
2,1,0,1,0,64228.9,0.223525,0.223205,4.00364,33,0.0121333,10,0.000893631,-2.39754,-0.662828,-0.0890126,-13.9088,0.223205,
2,1,0,1,0,64228.9,0.225527,0.225235,3.97607,33,0.0122132,10,0.00089555,-2.40055,-0.6819,-0.0865229,-13.4283,0.225235,
2,1,0,1,0,64229,0.227525,0.227204,3.94993,33,0.0122926,10,0.000897441,-2.40341,-0.679612,-0.0868143,-13.3807,0.227204,
2,1,0,1,0,64229,0.229522,0.229223,3.92271,33,0.0123714,10,0.000899175,-2.40641,-0.764291,-0.0771957,-11.8288,0.229223,
2,1,0,1,0,64229,0.23152,0.231189,3.9028,33,0.0124497,10,0.000902283,-2.40862,-1.12319,-0.0525289,-8.00858,0.231189,
2,1,0,1,0,64229,0.233517,0.233253,3.89043,33,0.0125274,10,0.000907456,-2.41,-0.941367,-0.0626748,-9.4997,0.233253,
2,1,0,1,0,64229,0.235515,0.235189,3.8648,33,0.012605,10,0.000908958,-2.41287,-0.775116,-0.0761176,-11.4897,0.235189,
2,1,0,1,0,64229.1,0.237512,0.237189,3.84521,33,0.0126822,10,0.000912042,-2.41508,-0.954054,-0.0618414,-9.28258,0.237189,
2,1,0,1,0,64229.1,0.23951,0.239201,3.82756,33,0.0127591,10,0.000915555,-2.41708,-1.08943,-0.0541566,-8.09303,0.239201,
2,1,0,1,0,64229.1,0.241508,0.241167,3.81302,33,0.0128353,10,0.000919574,-2.41873,-1.07082,-0.0550981,-8.19526,0.241167,
2,1,0,1,0,64229.1,0.243505,0.243187,3.79489,33,0.0129114,10,0.000922868,-2.4208,-1.19143,-0.0495203,-7.34061,0.243187,
2,1,0,1,0,64229.1,0.245503,0.245182,3.78354,33,0.0129873,10,0.000927658,-2.4221,-1.22495,-0.0481652,-7.10679,0.245182,
2,1,0,1,0,64229.2,0.2475,0.247164,3.76662,33,0.013063,10,0.000930975,-2.42405,-1.30434,-0.0452335,-6.65581,0.247164,
2,1,0,1,0,64229.2,0.249498,0.249153,3.75712,33,0.013138,10,0.000936097,-2.42515,-1.59153,-0.0370712,-5.43364,0.249153,
2,1,0,1,0,64229.2,0.251496,0.251183,3.74479,33,0.0132131,10,0.000940627,-2.42657,-1.22904,-0.0480051,-7.01277,0.251183,
2,1,0,1,0,64229.2,0.253493,0.253127,3.72925,33,0.0132879,10,0.000943973,-2.42838,-1.16843,-0.050495,-7.35079,0.253127,
2,1,0,1,0,64229.2,0.255491,0.25517,3.71548,33,0.0133625,10,0.000948078,-2.42998,-2.06148,-0.0286203,-4.15604,0.25517,
2,1,0,1,0,64229.3,0.257488,0.257164,3.71247,33,0.0134365,10,0.000954714,-2.43034,-2.21151,-0.0266787,-3.86044,0.257164,
2,1,0,1,0,64229.3,0.259486,0.259178,3.70001,33,0.0135108,10,0.000958962,-2.4318,-1.20947,-0.0487819,-7.04079,0.259178,
2,1,0,1,0,64229.3,0.261484,0.26119,3.68412,33,0.0135847,10,0.000962257,-2.43367,-1.34528,-0.0438569,-6.3114,0.26119,
2,1,0,1,0,64229.3,0.263481,0.263159,3.67488,33,0.0136584,10,0.000967079,-2.43476,-2.18485,-0.0270041,-3.87449,0.263159,
2,1,0,1,0,64229.3,0.265479,0.265183,3.66865,33,0.0137316,10,0.000972864,-2.43549,-1.7021,-0.034663,-4.95787,0.265183,
2,1,0,1,0,64229.4,0.267476,0.267174,3.65498,33,0.013805,10,0.000976516,-2.43712,-1.53078,-0.0385424,-5.50192,0.267174,
2,1,0,1,0,64229.4,0.269474,0.269149,3.64683,33,0.0138781,10,0.00098154,-2.43808,-1.87043,-0.0315436,-4.48847,0.269149,
2,1,0,1,0,64229.4,0.271471,0.271147,3.63715,33,0.0139511,10,0.0009862,-2.43924,-2.59409,-0.022744,-3.23133,0.271147,
2,1,0,1,0,64229.4,0.273469,0.273121,3.634,33,0.0140235,10,0.000992521,-2.43962,-1.63397,-0.0361085,-5.11098,0.273121,
2,1,0,1,0,64229.4,0.275467,0.275165,3.61661,33,0.0140961,10,0.000995165,-2.4417,-1.36748,-0.043145,-6.09844,0.275165,
2,1,0,1,0,64229.5,0.277464,0.277115,3.60964,33,0.0141686,10,0.00100029,-2.44254,-2.18903,-0.0269525,-3.79628,0.277115,
2,1,0,1,0,64229.5,0.279462,0.279133,3.60155,33,0.0142408,10,0.00100531,-2.44351,-1.86161,-0.0316929,-4.45369,0.279133,
2,1,0,1,0,64229.5,0.281464,0.281101,3.59189,33,0.0143128,10,0.00100968,-2.44468,-1.81861,-0.0324424,-4.54852,0.281101,
2,1,0,1,0,64229.5,0.283457,0.28312,3.58341,33,0.0143844,10,0.00101454,-2.4457,-2.12979,-0.0277023,-3.87482,0.2831201,
2,1,0,1,0,64229.5,0.285455,0.285152,3.57619,33,0.0144562,10,0.00101976,-2.44658,-1.73492,-0.0340073,-4.74334,0.2851516,
2,1,0,1,0,64229.6,0.287452,0.287106,3.5645,33,0.0145277,10,0.00102339,-2.448,-1.52012,-0.0388128,-5.40067,0.287106,
2,1,0,1,0,64229.6,0.28945,0.289142,3.55464,33,0.0145991,10,0.0010278,-2.4492,-1.90856,-0.0309134,-4.29,0.289142,
2,1,0,1,0,64229.6,0.291447,0.291124,3.54727,33,0.0146699,10,0.00103269,-2.45011,-1.81959,-0.0324249,-4.48696,0.291124,
2,1,0,1,0,64229.6,0.293445,0.293096,3.5369,33,0.014741,10,0.00103665,-2.45138,-1.77634,-0.0332144,-4.58618,0.2930958,
2,1,0,1,0,64229.6,0.295442,0.295151,3.5288,33,0.0148118,10,0.00104153,-2.45237,-2.61691,-0.0225457,-3.10652,0.295151,
2,1,0,1,0,64229.7,0.29744,0.297156,3.52429,33,0.0148825,10,0.00104726,-2.45293,-1.93491,-0.0304923,-4.18947,0.297156,
2,1,0,1,0,64229.7,0.299438,0.299106,3.51223,33,0.0149527,10,0.00105053,-2.45442,-0.040556,-1.45478,-187.631,0.299106,
2,1,0,1,0,64229.7,0.299737,0.299446,3.09461,33,0.0149816,10,0.000926667,-2.50939,0.00473952,12.4485,1167.01,0.299446,
2,1,0,1,0,64229.7,0.29774,0.297429,1.55491,33,0.0150258,10,0.000462475,-2.80829,0.00610522,9.66387,602.735,0.297429,
2,1,0,1,0,64229.7,0.295742,0.295448,0.685276,33,0.0150474,10,0.000202464,-3.16413,0.00328252,17.974,367.158,0.295448,
2,1,0,1,0,64229.8,0.293745,0.293454,0.0957087,33,0.0150548,10,2.80861e-05,-4.01905,0.0120271,4.9056,248.057,0.2934542,
2,0,0,1,0,64229.8,0.291747,0.291411,-0.316329,33,0.0150522,10,-9.21817e-05,-3.49986,-0.00491777,-11.9973,181.134,0.291411,
2,0,0,1,0,64229.8,0.289754,0.289401,-0.638446,33,0.0150425,10,-0.000184767,-3.19488,-0.0089672,-6.57953,141.737,0.289401,
2,0,0,1,0,64229.8,0.287752,0.287413,-0.882891,33,0.0150271,10,-0.000253755,-3.05409,-0.0175198,-3.36762,110.04,0.287413,
2,0,0,1,0,64229.8,0.285754,0.285447,-1.07361,33,0.0150074,10,-0.000306457,-2.96915,-0.027593,-2.13822,87.444,0.285447,
2,0,0,1,0,64229.9,0.283757,0.283418,-1.23225,33,0.0149843,10,-0.000349243,-2.9093,-0.0386774,-1.52544,72.2244,0.283418,
2,0,0,1,0,64229.9,0.281759,0.281421,-1.36436,33,0.0149582,10,-0.000383959,-2.86507,-0.050903,-1.15907,61.0832,0.281421,
2,0,0,1,0,64229.9,0.279761,0.279431,-1.47578,33,0.0149297,10,-0.000412379,-2.83098,-0.0628945,-0.938079,53.7575,0.279431,
2,0,0,1,0,64229.9,0.277764,0.277455,-1.57754,33,0.0148991,10,-0.000437696,-2.80202,-0.0773343,-0.762921,46.6598,0.277455,
2,0,0,1,0,64229.9,0.275766,0.275437,-1.66213,33,0.0148666,10,-0.000457813,-2.77933,-0.0952333,-0.619531,40.0359,0.275437,
2,0,0,1,0,64230,0.273769,0.273479,-1.73672,33,0.0148325,10,-0.000474957,-2.76027,-0.107262,-0.550055,37.2538,0.273479,
2,0,0,1,0,64230,0.271771,0.271447,-1.8108,33,0.0147971,10,-0.000491535,-2.74213,-0.119907,-0.492048,34.6887,0.271447,
2,0,0,1,0,64230,0.269774,0.269408,-1.87795,33,0.0147601,10,-0.000505934,-2.72632,-0.13994,-0.42161,30.7992,0.269408,
2,0,0,1,0,64230,0.267776,0.26744,-1.93421,33,0.0147219,10,-0.000517284,-2.7135,-0.16313,-0.361675,27.2674,0.26744,
2,0,0,1,0,64230,0.265778,0.265421,-1.98667,33,0.0146827,10,-0.000527303,-2.70187,-0.169833,-0.3474,26.9425,0.265421,
2,0,0,1,0,64230.1,0.263781,0.263469,-2.04119,33,0.0146425,10,-0.00053779,-2.69012,-0.180473,-0.32692,26.001,0.263469,
2,0,0,1,0,64230.1,0.261783,0.261446,-2.09003,33,0.0146011,10,-0.000546429,-2.67985,-0.21664,-0.272342,22.1666,0.261446,
2,0,0,1,0,64230.1,0.259786,0.259437,-2.13056,33,0.0145588,10,-0.000552747,-2.67151,-0.22969,-0.256868,21.3804,0.259437,
2,0,0,1,0,64230.1,0.257788,0.257421,-2.17607,33,0.0145157,10,-0.000560166,-2.66233,-0.229183,-0.257436,21.8361,0.257421,
2,0,0,1,0,64230.1,0.25579,0.255487,-2.21682,33,0.0144719,10,-0.000566369,-2.65427,-0.255803,-0.230646,19.9378,0.255487,
2,0,0,1,0,64230.2,0.253793,0.253497,-2.25432,33,0.0144271,10,-0.000571462,-2.64698,-0.283501,-0.208112,18.3013,0.2534965,
2,0,0,1,0,64230.2,0.251795,0.251478,-2.2902,33,0.0143816,10,-0.000575934,-2.64013,-0.300601,-0.196274,17.5392,0.251478,
2,0,0,1,0,64230.2,0.249798,0.249438,-2.32551,33,0.0143353,10,-0.000580069,-2.63348,-0.323076,-0.18262,16.5568,0.249438,
2,0,0,1,0,64230.2,0.2478,0.247486,-2.35629,33,0.0142886,10,-0.000583148,-2.62777,-0.321279,-0.183641,16.9066,0.247486,
2,0,0,1,0,64230.2,0.245802,0.24546,-2.39277,33,0.014241,10,-0.000587327,-2.6211,-0.315966,-0.186729,17.4243,0.24546,
2,0,0,1,0,64230.3,0.243805,0.243482,-2.42605,33,0.0141927,10,-0.0005907,-2.6151,-0.37381,-0.157834,14.9234,0.243482,
2,0,0,1,0,64230.3,0.241807,0.24143,-2.45291,33,0.0141438,10,-0.000592204,-2.61032,-0.367869,-0.160383,15.3767,0.24143,
2,0,0,1,0,64230.3,0.23981,0.239486,-2.48749,33,0.0140946,10,-0.000595721,-2.60424,-0.353789,-0.166766,16.1722,0.239486,
2,0,0,1,0,64230.3,0.237812,0.237464,-2.51703,33,0.0140445,10,-0.000597705,-2.59911,-0.421099,-0.140109,13.7527,0.237464,
2,0,0,1,0,64230.3,0.235815,0.235456,-2.54293,33,0.0139938,10,-0.000598746,-2.59467,-0.438458,-0.134562,13.3585,0.235456,
2,0,0,1,0,64230.4,0.233817,0.233453,-2.57062,33,0.0139427,10,-0.000600118,-2.58996,-0.430515,-0.137045,13.7476,0.233453,
2,0,0,1,0,64230.4,0.231815,0.231444,-2.59807,33,0.0138909,10,-0.000601309,-2.58535,-0.431398,-0.136765,13.8669,0.231444,
2,0,0,1,0,64230.4,0.229822,0.229489,-2.62559,33,0.0138388,10,-0.000602543,-2.58077,-0.486117,-0.12137,12.4231,0.229489,
2,0,0,1,0,64230.4,0.227824,0.227461,-2.64755,33,0.0137861,10,-0.000602216,-2.57716,-0.493695,-0.119507,12.3612,0.227461,
2,0,0,1,0,64230.4,0.225827,0.225471,-2.67525,33,0.0137328,10,-0.000603192,-2.57263,-0.466707,-0.126418,13.1904,0.225471,
2,0,0,1,0,64230.5,0.223829,0.223507,-2.69971,33,0.0136789,10,-0.000603405,-2.56868,-0.491675,-0.119998,12.646,0.223507,
2,0,0,1,0,64230.5,0.221831,0.221494,-2.72554,33,0.0136249,10,-0.000603692,-2.56455,-0.507231,-0.116318,12.3672,0.221494,
2,0,0,1,0,64230.5,0.219834,0.21951,-2.74915,33,0.01357,10,-0.000603465,-2.5608,-0.495342,-0.11911,12.7864,0.21951,
2,0,0,1,0,64230.5,0.217836,0.217553,-2.77594,33,0.0135147,10,-0.000603914,-2.55659,-0.53853,-0.109557,11.8566,0.217553,
2,0,0,1,0,64230.5,0.215839,0.215471,-2.79704,33,0.0134588,10,-0.000602679,-2.5533,-0.530283,-0.111261,12.1604,0.215471,
2,0,0,1,0,64230.6,0.213841,0.213499,-2.82524,33,0.0134028,10,-0.000603185,-2.54894,-0.520428,-0.113368,12.4857,0.2134987,
2,0,0,1,0,64230.6,0.211843,0.211459,-2.84713,33,0.013346,10,-0.00060205,-2.54559,-0.657459,-0.0897394,9.96402,0.211459,
2,0,0,1,0,64230.6,0.209846,0.209516,-2.86492,33,0.0132887,10,-0.000600247,-2.54289,-0.578834,-0.101929,11.4155,0.209516,
2,0,0,1,0,64230.6,0.207848,0.207496,-2.89237,33,0.0132311,10,-0.000600154,-2.53875,-0.425857,-0.138544,15.6598,0.2074957,
2,0,0,1,0,64230.6,0.205851,0.205503,-2.92777,33,0.0131731,10,-0.000601665,-2.53346,-0.511314,-0.115389,13.1427,0.205503,
2,0,0,1,0,64230.7,0.203853,0.20351,-2.94475,33,0.0131143,10,-0.000599287,-2.53095,-0.721977,-0.08172,9.39715,0.20351,
2,0,0,1,0,64230.7,0.201856,0.201512,-2.96527,33,0.0130551,10,-0.000597538,-2.52794,-0.651368,-0.0905786,10.4833,0.201512,
2,0,0,1,0,64230.7,0.199858,0.199527,-2.98651,33,0.0129954,10,-0.000595888,-2.52484,-0.510438,-0.115587,13.4994,0.199527,
2,0,0,1,0,64230.7,0.19786,0.197457,-3.02001,33,0.0129356,10,-0.000596322,-2.51999,-0.545919,-0.108075,12.7039,0.197457,
2,0,0,1,0,64230.7,0.195863,0.195507,-3.03758,33,0.0128749,10,-0.000593867,-2.51747,-0.599601,-0.0983987,11.6855,0.1955068,
2,0,0,1,0,64230.8,0.193865,0.193522,-3.06599,33,0.0128138,10,-0.000593337,-2.51343,-0.517531,-0.114003,13.6351,0.193522,
2,0,0,1,0,64230.8,0.191868,0.191525,-3.09188,33,0.0127522,10,-0.00059217,-2.50978,-0.526309,-0.112101,13.531,0.1915246,
2,0,0,1,0,64230.8,0.18987,0.189545,-3.11981,33,0.0126903,10,-0.000591344,-2.50587,-0.576297,-0.102378,12.4523,0.1895449,
2,0,0,1,0,64230.8,0.187872,0.187544,-3.14144,33,0.0126276,10,-0.000589159,-2.50287,-0.566966,-0.104063,12.7735,0.1875442,
2,0,0,1,0,64230.8,0.185875,0.185555,-3.17077,33,0.0125644,10,-0.000588353,-2.49884,-0.570181,-0.103476,12.7893,0.185555,
2,0,0,1,0,64230.9,0.183877,0.183542,-3.19263,33,0.0125007,10,-0.000585981,-2.49585,-0.500246,-0.117942,14.7286,0.183542,
2,0,0,1,0,64230.9,0.18188,0.181596,-3.22909,33,0.0124368,10,-0.000586389,-2.49092,-0.461567,-0.127825,16.0855,0.181596,
2,0,0,1,0,64230.9,0.179882,0.179575,-3.25644,33,0.0123719,10,-0.000584775,-2.48726,-0.575642,-0.102494,13.0225,0.179575,
2,0,0,1,0,64230.9,0.177885,0.177511,-3.28228,33,0.0123064,10,-0.000582641,-2.48382,-0.507532,-0.116249,14.9091,0.177511,
2,0,0,1,0,64230.9,0.175887,0.175566,-3.31621,33,0.0122404,10,-0.000582213,-2.47936,-0.44544,-0.132453,17.1422,0.175566,
2,0,0,1,0,64231,0.173896,0.173541,-3.35033,33,0.012174,10,-0.00058142,-2.47491,-0.455177,-0.12962,16.9477,0.173541,
2,0,0,1,0,64231,0.171892,0.171536,-3.3845,33,0.0121066,10,-0.000580565,-2.47051,-0.473614,-0.124574,16.4479,0.171536,
2,0,0,1,0,64231,0.169894,0.169541,-3.41613,33,0.0120385,10,-0.000579173,-2.46647,-0.439598,-0.134214,17.9141,0.169541,
2,0,0,1,0,64231,0.167897,0.167551,-3.4559,33,0.0119697,10,-0.000579038,-2.46144,-0.389078,-0.151641,20.4575,0.167551,
2,0,0,1,0,64231,0.165899,0.16555,-3.49777,33,0.0119001,10,-0.000579056,-2.45621,-0.36845,-0.16013,21.8676,0.16555,
2,0,0,1,0,64231.1,0.163901,0.163577,-3.54279,33,0.0118299,10,-0.00057952,-2.45065,-0.365316,-0.161504,22.3273,0.163577,
2,0,0,1,0,64231.1,0.161904,0.161541,-3.58728,33,0.0117586,10,-0.000579493,-2.44523,-0.360632,-0.163602,22.9117,0.161541,
2,0,0,1,0,64231.1,0.159906,0.159575,-3.63448,33,0.0116863,10,-0.000579973,-2.43956,-0.336648,-0.175257,24.8738,0.159575,
2,0,0,1,0,64231.1,0.157909,0.157553,-3.68649,33,0.011613,10,-0.000580816,-2.43339,-0.287837,-0.204977,29.5402,0.1575525,
2,0,0,1,0,64231.1,0.155911,0.155613,-3.75153,33,0.0115389,10,-0.000583787,-2.42579,-0.264569,-0.223004,32.6465,0.155613,
2,0,0,1,0,64231.2,0.153913,0.15357,-3.8165,33,0.0114631,10,-0.0005861,-2.41833,-0.26452,-0.223045,33.2359,0.15357,
2,0,0,1,0,64231.2,0.151916,0.151582,-3.88552,33,0.011386,10,-0.000588973,-2.41055,-0.235748,-0.250267,38.0134,0.151582,
2,0,0,1,0,64231.2,0.149918,0.149573,-3.96843,33,0.0113074,10,-0.000593571,-2.40138,-0.202382,-0.291528,45.2247,0.149573,
2,0,0,1,0,64231.2,0.147921,0.147596,-4.06574,33,0.0112274,10,-0.000600089,-2.39086,-0.193669,-0.304644,48.3254,0.147596,
2,0,0,1,0,64231.2,0.145923,0.145561,-4.16234,33,0.011145,10,-0.000605874,-2.38066,-0.180884,-0.326176,53.0858,0.1455607,
2,0,0,1,0,64231.3,0.143926,0.143625,-4.27655,33,0.0110606,10,-0.000614221,-2.36891,-0.159335,-0.370289,61.9114,0.143625,
2,0,0,1,0,64231.3,0.141928,0.141588,-4.40832,33,0.0109737,10,-0.000624164,-2.35573,-0.144579,-0.408081,70.3495,0.141588,
2,0,0,1,0,64231.3,0.13993,0.139582,-4.56099,33,0.0108844,10,-0.000636633,-2.34094,-0.133847,-0.440802,78.5075,0.139582,
2,0,0,1,0,64231.3,0.137933,0.137587,-4.7224,33,0.0107916,10,-0.000649741,-2.32584,-0.125769,-0.469115,86.6193,0.137587,
2,0,0,1,0,64231.3,0.135935,0.135604,-4.9056,33,0.0106952,10,-0.000665217,-2.30931,-0.117619,-0.501622,96.1321,0.1356037,
2,0,0,1,0,64231.4,0.133938,0.133622,-5.1036,33,0.0105951,10,-0.000681951,-2.29212,-0.113861,-0.518174,103.297,0.133622,
2,0,0,1,0,64231.4,0.13194,0.131632,-5.31587,33,0.0104914,10,-0.000699738,-2.27443,-0.113736,-0.518747,107.653,0.131632,
2,0,0,1,0,64231.4,0.129942,0.129593,-5.53731,33,0.0103827,10,-0.000717596,-2.2567,-0.112415,-0.524839,113.46,0.129593,
2,0,0,1,0,64231.4,0.127945,0.127639,-5.76887,33,0.0102696,10,-0.000736335,-2.23891,-0.117611,-0.501656,112.793,0.127639,
2,0,0,1,0,64231.4,0.125947,0.12557,-5.99101,33,0.0101519,10,-0.000752294,-2.2225,-0.119956,-0.491846,115.109,0.12557,
2,0,0,1,0,64231.5,0.12395,0.123629,-6.23055,33,0.0100303,10,-0.000770274,-2.20547,-0.121417,-0.485928,117.988,0.123629,
2,0,0,1,0,64231.5,0.121952,0.121612,-6.45803,33,0.00990331,10,-0.000785376,-2.1899,-0.134248,-0.439485,110.593,0.121612,
2,0,0,1,0,64231.5,0.119955,0.119653,-6.67024,33,0.00977189,10,-0.000798113,-2.17586,-0.141083,-0.418193,108.928,0.119653,
2,0,0,1,0,64231.5,0.117957,0.117599,-6.89517,33,0.00963611,10,-0.000810866,-2.16145,-0.148004,-0.398638,107.132,0.117599,
2,0,0,1,0,64231.5,0.115955,0.115579,-7.10663,33,0.009496,10,-0.00082138,-2.14834,-0.1585,-0.372241,103.102,0.115579,
2,0,0,1,0,64231.6,0.113962,0.113645,-7.30289,33,0.00935242,10,-0.000829934,-2.13651,-0.171049,-0.344931,98.2593,0.113645,
2,0,0,1,0,64231.6,0.111964,0.111624,-7.4953,33,0.00920431,10,-0.000836654,-2.12521,-0.183544,-0.32145,93.9682,0.111624,
2,0,0,1,0,64231.6,0.109967,0.10962,-7.68107,33,0.00905243,10,-0.000841999,-2.11458,-0.200554,-0.294185,88.0641,0.10962,
2,0,0,1,0,64231.6,0.107969,0.107618,-7.84807,33,0.00889707,10,-0.000844593,-2.10524,-0.218093,-0.270527,82.8132,0.107618,
2,0,0,1,0,64231.6,0.105971,0.105663,-8.00876,33,0.00873916,10,-0.00084623,-2.09643,-0.237156,-0.248781,77.6957,0.105663,
2,0,0,1,0,64231.7,0.103974,0.103621,-8.1586,33,0.00857737,10,-0.000845404,-2.08838,-0.269019,-0.219316,69.7438,0.103621,
2,0,0,1,0,64231.7,0.101976,0.101636,-8.28965,33,0.00841279,10,-0.000842524,-2.08146,-0.319345,-0.184753,59.6824,0.101636,
2,0,0,1,0,64231.7,0.0999787,0.0996232,-8.39721,33,0.00824586,10,-0.000836557,-2.07586,-0.365832,-0.161276,52.8434,0.0996232,
2,0,0,1,0,64231.7,0.0979811,0.0976051,-8.50264,33,0.00807756,10,-0.000829901,-2.07045,-0.410814,-0.143617,47.5909,0.0976051,
2,0,0,1,0,64231.7,0.0959835,0.0956723,-8.58524,33,0.00790659,10,-0.000821369,-2.06625,-0.563393,-0.104723,35.036,0.0956723,
2,0,0,1,0,64231.8,0.0939859,0.093603,-8.64286,33,0.00773429,10,-0.000808997,-2.06334,-0.808281,-0.0729944,24.5978,0.093603,
2,0,0,1,0,64231.8,0.0919883,0.0916506,-8.68416,33,0.00756091,10,-0.000795909,-2.06127,-1.00177,-0.0588955,19.9566,0.0916506,
2,0,0,1,0,64231.8,0.0899907,0.0896336,-8.72207,33,0.00738757,10,-0.000781791,-2.05938,-2.08642,-0.0282781,9.60505,0.0896336,
2,0,0,1,0,64231.8,0.0879931,0.0876559,-8.72253,33,0.00721306,10,-0.000764582,-2.05936,10.616,0.00555765,-1.89099,0.0876559,
2,0,0,1,0,64231.8,0.0859955,0.0856813,-8.7146,33,0.00703859,10,-0.000746678,-2.05975,3.65885,0.0161253,-5.48238,0.0856813,
2,0,0,1,0,64231.9,0.083998,0.0836719,-8.70069,33,0.00686434,10,-0.000728003,-2.06045,1.83648,0.0321267,-10.8989,0.0836719,
2,0,0,1,0,64231.9,0.0820004,0.0816514,-8.67068,33,0.0066914,10,-0.000707973,-2.06195,1.16597,0.0506018,-17.1145,0.0816514,
2,0,0,1,0,64231.9,0.0800028,0.0796588,-8.63201,33,0.00651826,10,-0.000687616,-2.06389,1.03293,0.0571188,-19.2423,0.0796588,
2,0,0,1,0,64231.9,0.0780052,0.0776447,-8.59358,33,0.00634594,10,-0.000667246,-2.06583,0.92741,0.063618,-21.324,0.0776447,
2,0,0,1,0,64231.9,0.0760076,0.0755978,-8.54541,33,0.00617451,10,-0.000646014,-2.06827,0.885691,0.0666147,-22.2274,0.0755978,
2,0,0,1,0,64232,0.07401,0.0737092,-8.5061,33,0.00600491,10,-0.000626978,-2.07027,0.826335,0.0713996,-23.6816,0.0737092,
2,0,0,1,0,64232,0.0720124,0.0716586,-8.45213,33,0.00583533,10,-0.000605667,-2.07303,0.790002,0.0746833,-24.6468,0.0716586,
2,0,0,1,0,64232,0.0700148,0.0696644,-8.40641,33,0.00566667,10,-0.000585628,-2.07539,0.827647,0.0712864,-23.3855,0.0696644,
2,0,0,1,0,64232,0.0680173,0.0676988,-8.35953,33,0.00549895,10,-0.00056593,-2.07782,1.04534,0.0564411,-18.4357,0.0676988,
2,0,0,1,0,64232,0.0660106,0.0656691,-8.33276,33,0.00533205,10,-0.000547204,-2.07921,1.17482,0.0502206,-16.3195,0.0656691,
2,0,0,1,0,64232.1,0.0640221,0.0636562,-8.29355,33,0.00516659,10,-0.000527936,-2.08126,0.922204,0.0639771,-20.7018,0.0636562,
2,0,0,1,0,64232.1,0.0620245,0.0616661,-8.24989,33,0.00500117,10,-0.000508739,-2.08355,0.907804,0.064992,-20.9311,0.0616661,
2,0,0,1,0,64232.1,0.0600269,0.0597105,-8.21096,33,0.00483649,10,-0.000490281,-2.08561,1.09189,0.0540346,-17.3251,0.0597105,
2,0,0,1,0,64232.1,0.0580361,0.0577136,-8.18141,33,0.00467332,10,-0.000472178,-2.08717,1.11948,0.052703,-16.8188,0.0577136,
2,0,0,1,0,64232.1,0.0560317,0.0556803,-8.14318,33,0.00450997,10,-0.000453415,-2.08921,1.01834,0.0579376,-18.4146,0.0556803,
2,0,0,1,0,64232.2,0.0540342,0.0536575,-8.10672,33,0.0043474,10,-0.000434986,-2.09115,1.0559,0.0558767,-17.6807,0.0536575,
2,0,0,1,0,64232.2,0.0520366,0.0516889,-8.07261,33,0.00418553,10,-0.000417265,-2.09299,0.95257,0.0619377,-19.5017,0.0516889,
2,0,0,1,0,64232.2,0.050039,0.0496704,-8.02896,33,0.00402442,10,-0.000398802,-2.09534,0.964786,0.0611535,-19.1758,0.0496704,
2,0,0,1,0,64232.2,0.0480414,0.0477399,-7.99688,33,0.00386486,10,-0.00038177,-2.09708,1.01329,0.0582263,-18.1619,0.0477399,
2,0,0,1,0,64232.2,0.0460438,0.045651,-7.95596,33,0.00370531,10,-0.000363198,-2.09931,0.846108,0.069731,-21.6434,0.045651,
2,0,0,1,0,64232.3,0.0440462,0.0436992,-7.90943,33,0.00354661,10,-0.000345635,-2.10185,0.786385,0.0750269,-23.1612,0.0436992,
2,0,0,1,0,64232.3,0.0420486,0.0416966,-7.86437,33,0.00338888,10,-0.000327918,-2.10434,0.88181,0.0669078,-20.5453,0.0416966,
2,0,0,1,0,64232.3,0.040051,0.039686,-7.82698,33,0.00323268,10,-0.000310622,-2.10641,0.814987,0.0723938,-22.0938,0.039686,
2,0,0,1,0,64232.3,0.0380535,0.0376853,-7.77575,33,0.00307659,10,-0.000293032,-2.10926,0.686588,0.0859322,-26.0763,0.0376853,
2,0,0,1,0,64232.3,0.0360559,0.0357441,-7.72419,33,0.00292159,10,-0.000276094,-2.11215,0.700627,0.0842102,-25.3876,0.0357441,
2,0,0,1,0,64232.4,0.0340583,0.0336883,-7.67427,33,0.00276759,10,-0.000258533,-2.11496,0.719999,0.0819445,-24.5438,0.0336883,
2,0,0,1,0,64232.4,0.0320607,0.0317161,-7.62532,33,0.00261534,10,-0.000241845,-2.11774,0.597648,0.0987202,-29.343,0.0317161,
2,0,0,1,0,64232.4,0.0300631,0.0297364,-7.55831,33,0.00246349,10,-0.000224757,-2.12158,0.565048,0.104416,-30.8201,0.0297364,
2,0,0,1,0,64232.4,0.0280655,0.0276932,-7.50134,33,0.00231284,10,-0.000207736,-2.12486,0.576377,0.102364,-29.9554,0.0276932,
2,0,0,1,0,64232.4,0.0260679,0.0257446,-7.43874,33,0.00216337,10,-0.000191508,-2.1285,0.530016,0.111317,-32.31,0.0257446,
2,0,0,1,0,64232.5,0.0240704,0.023736,-7.37348,33,0.0020159,10,-0.000175017,-2.13233,0.530716,0.111171,-31.996,0.023736,
2,0,0,1,0,64232.5,0.0220728,0.0217509,-7.31095,33,0.00186898,10,-0.00015902,-2.13603,0.513046,0.114999,-32.7984,0.0217509,
2,0,0,1,0,64232.5,0.0200752,0.0197489,-7.24271,33,0.00172338,10,-0.000143036,-2.1401,0.485227,0.121592,-34.3666,0.0197489,
2,0,0,1,0,64232.5,0.0180776,0.0177577,-7.17372,33,0.00157913,10,-0.000127389,-2.14426,0.511392,0.115371,-32.3202,0.0177577,
2,0,0,1,0,64232.5,0.01608,0.0157649,-7.11395,33,0.00143697,10,-0.00011215,-2.14789,0.536689,0.109933,-30.5131,0.0157649,
2,0,0,1,0,64232.6,0.0140824,0.0137263,-7.05071,33,0.00129528,10,-9.67799e-05,-2.15177,0.49531,0.119117,-32.7656,0.0137263,
2,0,0,1,0,64232.6,0.0120848,0.0117652,-6.9829,33,0.00115493,10,-8.21555e-05,-2.15596,0.476644,0.123782,-33.7348,0.0117652,
2,0,0,1,0,64232.6,0.0100872,0.00973867,-6.91619,33,0.00101594,10,-6.73545e-05,-2.16013,0.532887,0.110718,-29.9139,0.00973867,
2,0,0,1,0,64232.6,0.00809193,0.00777074,-6.86341,33,0.000878862,10,-5.33337e-05,-2.16346,0.549836,0.107305,-28.7234,0.00777074,
2,0,0,1,0,64232.6,0.00609208,0.00575963,-6.8019,33,0.000742158,10,-3.91764e-05,-2.16737,0.53764,0.109739,-29.1417,0.00575963,
2,0,0,1,0,64232.7,0.00409449,0.00373377,-6.74576,33,0.000606667,10,-2.51871e-05,-2.17097,0.963833,0.0612139,-16.1717,0.00373377,
2,0,0,1,0,64232.7,0.0020969,0.0017283,-6.73671,33,0.00047211,10,-1.1643e-05,-2.17155,0.811768,0.0726809,-19.026,0.0017283,
2,0,0,1,0,64232.7,9.14991e-05,-0.000276304,-6.66947,33,0.000338091,10,1.8428e-06,-2.17591,0.535912,0.110093,-28.695,-0.000276304,
2,0,0,1,0,64232.7,-0.00189827,-0.00231207,-6.62077,33,0.000205761,10,1.53076e-05,-2.17909,0.676543,0.0872081,-22.5464,-0.00231207,
2,0,0,1,0,64232.7,-0.00389586,-0.0042515,-6.57984,33,7.36806e-05,10,2.79742e-05,-2.18178,0.818577,0.0720763,-18.5193,-0.0042515,
2,0,0,1,0,64232.8,-0.00589345,-0.00631169,-6.5467,33,-5.76489e-05,10,4.13207e-05,-2.18398,0.839954,0.070242,-17.9383,-0.00631169,
2,0,0,1,0,64232.8,-0.00789103,-0.00827893,-6.50759,33,-0.000188265,10,5.38759e-05,-2.18658,1.21196,0.0486814,-12.3916,-0.00827893,
2,0,0,1,0,64232.8,-0.00988862,-0.0102481,-6.49792,33,-0.000317753,10,6.65915e-05,-2.18723,1.65988,0.0355447,-9.00235,-0.01024813,
2,0,0,1,0,64232.8,-0.0118862,-0.0122762,-6.47161,33,-0.000447491,10,7.94465e-05,-2.18899,1.2456,0.0473667,-11.9675,-0.01227616,
2,0,0,1,0,64232.8,-0.0138838,-0.0142565,-6.44995,33,-0.000576827,10,9.19535e-05,-2.19044,1.95558,0.0301701,-7.60219,-0.0142565,
2,0,0,1,0,64232.9,-0.0158814,-0.0162446,-6.44144,33,-0.000705804,10,0.000104639,-2.19102,10.1138,0.0058336,-1.46777,-0.0162446,
2,0,0,1,0,64232.9,-0.017879,-0.0182678,-6.44406,33,-0.000834041,10,0.000117719,-2.19084,13.67,0.00431601,-1.08463,-0.0182678,
2,0,0,1,0,64232.9,-0.0198766,-0.0203056,-6.43704,33,-0.000962847,10,0.000130708,-2.19131,5.33439,0.0110603,-2.77918,-0.0203056,
2,0,0,1,0,64232.9,-0.0218741,-0.0222554,-6.43298,33,-0.00109153,10,0.000143169,-2.19159,-15.9019,-0.00371025,0.932347,-0.0222554,
2,0,0,1,0,64232.9,-0.0238717,-0.0242724,-6.44074,33,-0.00122031,10,0.000156332,-2.19106,-2.53762,-0.0232501,5.84773,-0.0242724,
2,0,0,1,0,64233,-0.0258693,-0.0262464,-6.45632,33,-0.00134869,10,0.000169455,-2.19002,-2.64076,-0.0223421,5.6257,-0.02624635,
2,0,0,1,0,64233,-0.0278669,-0.0282536,-6.46313,33,-0.00147786,10,0.000182606,-2.18956,-2.70572,-0.0218056,5.50375,-0.0282536,
2,0,0,1,0,64233,-0.0298645,-0.0302582,-6.4784,33,-0.00160734,10,0.000196024,-2.18853,-1.70515,-0.0346011,8.75128,-0.0302582,
2,0,0,1,0,64233,-0.0318621,-0.0322567,-6.49816,33,-0.00173713,10,0.000209609,-2.18721,-1.28652,-0.0458602,11.6367,-0.0322567,
2,0,0,1,0,64233,-0.0338597,-0.0342734,-6.52512,33,-0.00186671,10,0.000223638,-2.18541,-1.26,-0.0468253,11.918,-0.0342734,
2,0,0,1,0,64233.1,-0.0358573,-0.0362082,-6.54526,33,-0.00199739,10,0.000236992,-2.18407,-1.22029,-0.048349,12.3589,-0.03620825,
2,0,0,1,0,64233.1,-0.0378548,-0.0382713,-6.57453,33,-0.00212865,10,0.000251616,-2.18214,-1.21967,-0.0483737,12.4039,-0.0382713,
2,0,0,1,0,64233.1,-0.0398524,-0.0402502,-6.5954,33,-0.00226044,10,0.000265466,-2.18076,-0.935481,-0.0630691,16.2621,-0.0402502,
2,0,0,1,0,64233.1,-0.04185,-0.0422554,-6.63932,33,-0.00239215,10,0.000280547,-2.17788,-0.808143,-0.0730069,18.8999,-0.0422554,
2,0,0,1,0,64233.1,-0.0438476,-0.0442726,-6.67142,33,-0.0025253,10,0.000295361,-2.17578,-1.03926,-0.0567713,14.7753,-0.04427259,
2,0,0,1,0,64233.2,-0.0458452,-0.0462451,-6.69827,33,-0.00265915,10,0.000309762,-2.17404,-0.838416,-0.0703708,18.422,-0.0462451,
2,0,0,1,0,64233.2,-0.0478428,-0.0482297,-6.74432,33,-0.00279366,10,0.000325277,-2.17106,-0.641187,-0.0920168,24.229,-0.0482297,
2,0,0,1,0,64233.2,-0.0498495,-0.0502686,-6.79575,33,-0.00292902,10,0.000341613,-2.16776,-0.725473,-0.0813262,21.5414,-0.0502686,
2,0,0,1,0,64233.2,-0.051838,-0.0522026,-6.8299,33,-0.00306464,10,0.000356538,-2.16559,-0.788603,-0.0748158,19.9562,-0.0522026,
2,0,0,1,0,64233.2,-0.0538355,-0.054181,-6.87383,33,-0.00320171,10,0.000372431,-2.1628,-0.712514,-0.0828054,22.2171,-0.054181,
2,0,0,1,0,64233.3,-0.0558331,-0.0562616,-6.92008,33,-0.00333971,10,0.000389334,-2.15989,-0.651858,-0.0905104,24.454,-0.0562616,
2,0,0,1,0,64233.3,-0.0578216,-0.0582029,-6.97218,33,-0.003478,10,0.000405801,-2.15663,-0.597485,-0.0987472,26.8727,-0.0582029,
2,0,0,1,0,64233.3,-0.0598283,-0.060214,-7.02629,33,-0.00361801,10,0.000423081,-2.15327,-0.609511,-0.0967989,26.5403,-0.060214,
2,0,0,1,0,64233.3,-0.0618259,-0.0622238,-7.0789,33,-0.00375906,10,0.000440476,-2.15003,-0.589136,-0.100147,27.6776,-0.0622238,
2,0,0,1,0,64233.3,-0.0638235,-0.0642167,-7.13707,33,-0.00390123,10,0.000458319,-2.14648,-0.604991,-0.0975221,27.1481,-0.0642167,
2,0,0,1,0,64233.4,-0.0658211,-0.0662204,-7.1874,33,-0.00404447,10,0.000475953,-2.14343,-0.549834,-0.107305,30.1383,-0.0662204,
2,0,0,1,0,64233.4,-0.0678187,-0.0681853,-7.25668,33,-0.00418828,10,0.000494799,-2.13926,-0.510478,-0.115578,32.713,-0.0681853,
2,0,0,1,0,64233.4,-0.0698162,-0.0702069,-7.31781,33,-0.00433401,10,0.000513761,-2.13562,-0.571647,-0.103211,29.4647,-0.0702069,
2,0,0,1,0,64233.4,-0.0718138,-0.0721551,-7.37365,33,-0.00448096,10,0.000532046,-2.13232,-0.527709,-0.111804,32.2109,-0.0721551,
2,0,0,1,0,64233.4,-0.0738114,-0.0742132,-7.44685,33,-0.00462919,10,0.000552655,-2.12803,-0.466375,-0.126508,36.7695,-0.0742132,
2,0,0,1,0,64233.4,-0.075809,-0.0761827,-7.52174,33,-0.00477816,10,0.000573027,-2.12368,-0.498626,-0.118325,34.7067,-0.0761827,
2,0,0,1,0,64233.5,-0.0778066,-0.0781964,-7.5851,33,-0.00492927,10,0.000593128,-2.12004,-0.506999,-0.116371,34.4745,-0.0781964,
2,0,0,1,0,64233.5,-0.0798042,-0.0802032,-7.66035,33,-0.00508177,10,0.000614384,-2.11575,-0.450928,-0.130841,39.1311,-0.0802032,
2,0,0,1,0,64233.5,-0.0818018,-0.0822052,-7.74197,33,-0.0052358,10,0.00063643,-2.11115,-0.444164,-0.132834,40.1259,-0.0822052,
2,0,0,1,0,64233.5,-0.0837994,-0.0841971,-7.82061,33,-0.00539066,10,0.000658472,-2.10676,-0.452507,-0.130385,39.7961,-0.0841971,
2,0,0,1,0,64233.5,-0.0857969,-0.0861797,-7.90014,33,-0.00554782,10,0.000680831,-2.10237,-0.453385,-0.130132,40.1222,-0.0861797,
2,0,0,1,0,64233.6,-0.0877945,-0.0881764,-7.98026,33,-0.00570665,10,0.000703671,-2.09798,-0.440558,-0.133921,41.7257,-0.0881764,
2,0,0,1,0,64233.6,-0.0897921,-0.0901872,-8.06735,33,-0.00586716,10,0.000727572,-2.09327,-0.432251,-0.136495,42.9659,-0.0901872,
2,0,0,1,0,64233.6,-0.0917897,-0.0921692,-8.15182,33,-0.00602852,10,0.000751347,-2.08875,-0.442739,-0.133261,42.3978,-0.0921692,
2,0,0,1,0,64233.6,-0.0937873,-0.0942046,-8.23768,33,-0.00619246,10,0.000776028,-2.08419,-0.446258,-0.132211,42.4978,-0.0942046,
2,0,0,1,0,64233.6,-0.0957849,-0.0961628,-8.32154,33,-0.00635807,10,0.000800222,-2.0798,-0.450807,-0.130876,42.5029,-0.0961628,
2,0,0,1,0,64233.7,-0.0977825,-0.0981544,-8.40556,33,-0.00652534,10,0.000825042,-2.07543,-0.431955,-0.136588,44.8327,-0.0981544,
2,0,0,1,0,64233.7,-0.0997501,-0.100142,-8.49994,33,-0.00669096,10,0.000851201,-2.07058,0.01044,5.65132,-1670.68,-0.100142,
2,0,0,1,1,64233.7,-0.0987313,-0.0991148,-6.80098,33,-0.00680735,10,0.000674078,-2.16743,-0.0142377,-4.14394,1086.48,-0.0991148,
2,0,0,1,1,64233.7,-0.0967337,-0.0971089,-5.20453,33,-0.00692606,10,0.000505407,-2.28362,-0.0173509,-3.4004,699.71,-0.0971089,
2,0,0,1,1,64233.7,-0.0947362,-0.0951008,-3.99237,33,-0.00701728,10,0.000379678,-2.39877,-0.0167974,-3.51245,547.993,-0.0951008,
2,0,0,1,1,64233.8,-0.0927386,-0.0930741,-2.99349,33,-0.00708658,10,0.000278617,-2.52382,-0.0147427,-4.00199,464.417,-0.0930741,
2,0,0,1,1,64233.8,-0.090741,-0.0911225,-2.14475,33,-0.00713729,10,0.000195435,-2.66862,-0.0121159,-4.86965,400.083,-0.0911225,
2,0,0,1,1,64233.8,-0.0887434,-0.0891233,-1.41283,33,-0.00717251,10,0.000125916,-2.84991,-0.00891257,-6.61986,345.569,-0.0891233,
2,0,0,1,1,64233.8,-0.0867458,-0.0871266,-0.763895,33,-0.00719394,10,6.65556e-05,-3.11697,-0.00463352,-12.7333,303.458,-0.08712659,
2,0,0,1,1,64233.8,-0.0847482,-0.0850971,-0.191059,33,-0.00720316,10,1.62585e-05,-3.71883,-0.0105488,-5.59305,270.658,-0.0850971,
2,1,0,1,1,64233.9,-0.0827529,-0.0831257,0.318978,33,-0.00720171,10,-2.65152e-05,-3.49624,0.0065399,9.02155,242.805,-0.0831257,
2,1,0,1,1,64233.9,-0.0807531,-0.0811333,0.771384,33,-0.00719053,10,-6.25849e-05,-3.11273,0.0070003,8.42821,217.046,-0.0811333,
2,1,0,1,1,64233.9,-0.0787555,-0.079136,1.18492,33,-0.00717064,10,-9.37699e-05,-2.92631,0.0131577,4.48407,195.424,-0.079136,
2,1,0,1,1,64233.9,-0.0767579,-0.0771371,1.55234,33,-0.00714299,10,-0.000119743,-2.80901,0.0196293,3.00571,177.443,-0.07713706,
2,1,0,1,1,64233.9,-0.0747603,-0.075129,1.89594,33,-0.00710827,10,-0.00014244,-2.72218,0.0260679,2.26332,164.49,-0.075129,
2,1,0,1,1,64234,-0.0727627,-0.0731339,2.21081,33,-0.00706708,10,-0.000161685,-2.65545,0.0333918,1.7669,150.223,-0.0731339,
2,1,0,1,1,64234,-0.0707651,-0.0711887,2.48787,33,-0.00701988,10,-0.000177108,-2.60417,0.0423242,1.394,134.277,-0.0711887,
2,1,0,1,1,64234,-0.0687675,-0.0691575,2.74475,33,-0.00696734,10,-0.00018982,-2.5615,0.0514949,1.14574,121.981,-0.0691575,
2,1,0,1,1,64234,-0.0667699,-0.0671289,2.98309,33,-0.00690983,10,-0.000200251,-2.52533,0.0610396,0.966586,111.783,-0.0671289,
2,1,0,1,1,64234,-0.0647723,-0.0651468,3.19308,33,-0.0068481,10,-0.000208019,-2.49579,0.0719816,0.819654,101.799,-0.0651468,
2,1,0,1,1,64234.1,-0.0627748,-0.0631283,3.39035,33,-0.00678204,10,-0.000214027,-2.46976,0.0810996,0.7275,95.9845,-0.0631283,
2,1,0,1,1,64234.1,-0.0607772,-0.0611627,3.57549,33,-0.00671217,10,-0.000218687,-2.44666,0.094726,0.622849,86.5665,-0.06116271,
2,1,0,1,1,64234.1,-0.0587796,-0.0591143,3.73782,33,-0.00663882,10,-0.000220959,-2.42738,0.110448,0.534188,77.7515,-0.0591143,
2,1,0,1,1,64234.1,-0.056782,-0.057145,3.88788,33,-0.00656275,10,-0.000222173,-2.41029,0.124467,0.474019,71.7466,-0.057145,
2,1,0,1,1,64234.1,-0.0547844,-0.0551499,4.02225,33,-0.00648342,10,-0.000221827,-2.39553,0.142816,0.41312,64.7453,-0.0551499,
2,1,0,1,1,64234.2,-0.0527868,-0.0531516,4.14643,33,-0.00640152,10,-0.000220389,-2.38233,0.160488,0.367628,59.3935,-0.0531516,
2,1,0,1,1,64234.2,-0.0507892,-0.0511578,4.25936,33,-0.00631727,10,-0.000217899,-2.37066,0.17489,0.337354,56.0607,-0.0511578,
2,1,0,1,1,64234.2,-0.0487916,-0.0491347,4.37162,33,-0.00623127,10,-0.000214798,-2.35936,0.199091,0.296347,50.4203,-0.0491347,
2,1,0,1,1,64234.2,-0.0467941,-0.0471526,4.4613,33,-0.00614277,10,-0.000210362,-2.35054,0.24013,0.245701,42.7232,-0.0471526,
2,1,0,1,1,64234.2,-0.0447965,-0.0451844,4.54039,33,-0.00605261,10,-0.000205155,-2.34291,0.263774,0.223676,39.6312,-0.0451844,
2,1,0,1,1,64234.3,-0.0427989,-0.043159,4.61957,33,-0.00596085,10,-0.000199376,-2.3354,0.271327,0.21745,39.1906,-0.043159,
2,1,0,1,1,64234.3,-0.0408013,-0.0411983,4.6966,33,-0.00586805,10,-0.000193492,-2.32822,0.338189,0.174459,31.8821,-0.0411983,
2,1,0,1,1,64234.3,-0.0388037,-0.0391842,4.7463,33,-0.00577345,10,-0.00018598,-2.32365,0.405493,0.145502,26.9731,-0.0391842,
2,1,0,1,1,64234.3,-0.0368061,-0.0372207,4.80389,33,-0.00567777,10,-0.000178804,-2.31841,0.399761,0.147588,27.6574,-0.0372207,
2,1,0,1,1,64234.3,-0.0348085,-0.0351618,4.85755,33,-0.00558098,10,-0.0001708,-2.31358,0.457052,0.129088,24.4507,-0.0351618,
2,1,0,1,1,64234.4,-0.0328109,-0.0331616,4.90314,33,-0.00548373,10,-0.000162596,-2.30953,0.55717,0.105892,20.2389,-0.0331616,
2,1,0,1,1,64234.4,-0.0308134,-0.0312216,4.93729,33,-0.00538519,10,-0.00015415,-2.30651,0.686873,0.0858966,16.5469,-0.0312216,
2,1,0,1,1,64234.4,-0.0288158,-0.0291802,4.96902,33,-0.00528596,10,-0.000144997,-2.30373,0.756455,0.0779954,15.1208,-0.0291802,
2,1,0,1,1,64234.4,-0.0268182,-0.0272094,4.99796,33,-0.00518616,10,-0.000135991,-2.30121,0.811805,0.0726775,14.1735,-0.02720939,
2,1,0,1,1,64234.4,-0.0248138,-0.0252169,5.02519,33,-0.00508588,10,-0.00012672,-2.29885,0.998969,0.0590609,11.5736,-0.0252169,
2,1,0,1,1,64234.5,-0.022823,-0.0231895,5.04449,33,-0.00498551,10,-0.000116979,-2.29718,1.28441,0.0459356,9.04155,-0.02318945,
2,1,0,1,1,64234.5,-0.0208254,-0.0211687,5.0618,33,-0.00488427,10,-0.000107152,-2.2957,1.53026,0.0385554,7.613,-0.0211687,
2,1,0,1,1,64234.5,-0.0188278,-0.0192446,5.07452,33,-0.00478281,10,-9.76571e-05,-2.29461,1.98356,0.0297445,5.88949,-0.0192446,
2,1,0,1,1,64234.5,-0.0168393,-0.0171916,5.08522,33,-0.00468161,10,-8.7423e-05,-2.29369,2.03396,0.0290075,5.75788,-0.01719158,
2,1,0,1,1,64234.5,-0.0148327,-0.0152017,5.0978,33,-0.00457958,10,-7.74953e-05,-2.29262,3.63298,0.0162401,3.22711,-0.0152017,
2,1,0,1,1,64234.6,-0.0128351,-0.0131893,5.09814,33,-0.00447746,10,-6.72409e-05,-2.29259,9.21383,0.00640342,1.2746,-0.0131893,
2,1,0,1,1,64234.6,-0.0108375,-0.0112099,5.10288,33,-0.00437529,10,-5.72027e-05,-2.29218,3.94029,0.0149735,2.98265,-0.0112099,
2,1,0,1,1,64234.6,-0.00883989,-0.00922002,5.10997,33,-0.00427296,10,-4.71141e-05,-2.29158,7.8543,0.00751181,1.49685,-0.00922002,
2,1,0,1,1,64234.6,-0.0068423,-0.00721087,5.10887,33,-0.00417106,10,-3.68394e-05,-2.29168,24.8506,0.00237418,0.473563,-0.00721087,
2,1,0,1,1,64234.6,-0.00484471,-0.00520131,5.11188,33,-0.00406867,10,-2.65884e-05,-2.29142,13.0459,0.00452251,0.90203,-0.00520131,
2,1,0,1,1,64234.7,-0.00284713,-0.00321,5.11248,33,-0.00396629,10,-1.64111e-05,-2.29137,-18.4228,-0.00320255,-0.638749,-0.00321,
2,1,0,1,1,64234.7,-0.000849538,-0.00117471,5.10931,33,-0.00386388,10,-6.00195e-06,-2.29164, , , ,-0.00117471,
2,1,0,1,1,64234.7,-2.55332e-05,-0.000325324,5.12116,33,-0.00382247,10,-1.66603e-06,-2.29063, , , ,-0.000325324,