File: Figure_codes/Fig_3-5/rawdata_trumpetplot_data/after 10th/20221101_1-115_003_TrumpetPlot_ParaChange_from10_every3_02_CV_C01_12.csv
mode,ox/red,error,control changes,counter inc.,time/s,control/V,Ewe/V,<I>/mA,cycle number,(Q-Qo)/C,I Range,P/W,log(|I|),Tafel slope mV/dec,alpha_eff,dI/d(E-IR),E-IR/V,
2,0,0,1,0,23981.6,2.44065e-05,-0.0002108,-0.384972,13,0.0000000E+000,10,8.1152e-08,-3.41457, , , ,-0.0002108,
2,0,0,1,0,23982.9,0.00129791,0.000884627,-0.175075,13,-0.000255216,10,-1.54876e-07,-3.75678, , , ,0.000884627,
2,0,0,1,0,23984.4,0.00279612,0.00249432,-0.14124,13,-0.000468624,10,-3.52297e-07,-3.85004,-0.0176262,-3.34729,19.8296,0.00249432,
2,0,0,1,0,23985.9,0.00429431,0.00398533,-0.12101,13,-0.000644727,10,-4.82266e-07,-3.91718,-0.0249855,-2.36137,11.3245,0.00398533,
2,0,0,1,0,23987.4,0.00579242,0.00545917,-0.105778,13,-0.000794905,10,-5.7746e-07,-3.9756,-0.0276925,-2.13054,8.96704,0.00545917,
2,0,0,1,0,23988.9,0.00729061,0.00694482,-0.0939595,13,-0.00092537,10,-6.52531e-07,-4.02706,-0.0306356,-1.92586,7.18409,0.006944818,
2,0,0,1,0,23990.4,0.00878882,0.00846545,-0.0847708,13,-0.00104048,10,-7.17623e-07,-4.07175,-0.0333341,-1.76996,5.92104,0.00846545,
2,0,0,1,0,23991.9,0.010287,0.00995319,-0.0768177,13,-0.00114253,10,-7.64581e-07,-4.11454,-0.0346111,-1.70466,5.16901,0.00995319,
2,0,0,1,0,23993.4,0.0117852,0.0114494,-0.0703246,13,-0.00123365,10,-8.05178e-07,-4.15289,-0.0375333,-1.57194,4.31033,0.01144945,
2,0,0,1,0,23994.9,0.0132834,0.012952,-0.064032,13,-0.00131518,10,-8.29345e-07,-4.1936,-0.0364725,-1.61766,4.0332,0.01295204,
2,0,0,1,0,23996.4,0.0147815,0.0144439,-0.058552,13,-0.00138836,10,-8.45721e-07,-4.23246,-0.041997,-1.40486,3.21976,0.0144439,
2,0,0,1,0,23997.8,0.0162797,0.015971,-0.053947,13,-0.00145355,10,-8.61585e-07,-4.26803,-0.0420955,-1.40158,2.94343,0.015971,
2,0,0,1,0,23999.3,0.0177779,0.0174576,-0.0496759,13,-0.00151238,10,-8.67224e-07,-4.30385,-0.0392324,-1.50386,2.89046,0.0174576,
2,0,0,1,0,24000.8,0.0192761,0.0189221,-0.0449165,13,-0.00156522,10,-8.49912e-07,-4.34759,-0.0405014,-1.45674,2.57611,0.0189221,
2,0,0,1,0,24002.3,0.0207743,0.0204681,-0.0409645,13,-0.00161147,10,-8.38468e-07,-4.38759,-0.0382958,-1.54064,2.51108,0.0204681,
2,0,0,1,0,24003.8,0.0222725,0.0219506,-0.0378877,13,-0.00165255,10,-8.31658e-07,-4.4215,-0.038414,-1.5359,2.26318,0.0219506,
2,0,0,1,0,24005.3,0.0237707,0.0234649,-0.0343062,13,-0.00168821,10,-8.04992e-07,-4.46463,-0.0361751,-1.63096,2.19239,0.0234649,
2,0,0,1,0,24006.8,0.0252689,0.0249749,-0.0315058,13,-0.00171917,10,-7.86855e-07,-4.50161,-0.0347892,-1.69593,2.04585,0.0249749,
2,0,0,1,0,24008.3,0.0267671,0.0264574,-0.0282059,13,-0.0017451,10,-7.46255e-07,-4.54966,-0.0305203,-1.93314,2.13562,0.0264574,
2,0,0,1,0,24009.8,0.0282653,0.0279568,-0.0250985,13,-0.00176633,10,-7.01674e-07,-4.60035,-0.0262568,-2.24703,2.15632,0.02795678,
2,0,0,1,0,24011.3,0.0297635,0.029435,-0.0223763,13,-0.00178324,10,-6.58648e-07,-4.65021,-0.0267966,-2.20177,1.87143,0.029435,
2,0,0,1,0,24012.8,0.0312617,0.0309217,-0.0194179,13,-0.00179539,10,-6.00434e-07,-4.7118,-0.0236788,-2.49168,1.88154,0.0309217,
2,0,0,1,0,24014.3,0.0327599,0.0324508,-0.0166634,13,-0.00180342,10,-5.40743e-07,-4.77824,-0.0243038,-2.4276,1.55498,0.0324508,
2,0,0,1,0,24015.8,0.0342581,0.0338909,-0.0143637,13,-0.00180781,10,-4.86797e-07,-4.84273,-0.0198028,-2.97937,1.67441,0.0338909,
2,0,0,1,0,24017.3,0.0357563,0.0354231,-0.0120158,13,-0.00180813,10,-4.25637e-07,-4.92025,-0.01508,-3.91246,1.74024,0.0354231,
2,0,0,1,0,24018.8,0.0372544,0.0369076,-0.00987075,13,-0.00180511,10,-3.64306e-07,-5.00565,-0.0140559,-4.19752,1.46212,0.0369076,
2,0,0,1,0,24020.3,0.0387526,0.0384007,-0.00728716,13,-0.00179859,10,-2.79832e-07,-5.13744,-0.00732031,-8.05977,1.88147,0.0384007,
2,0,0,1,0,24021.8,0.0402508,0.0398885,-0.00474231,13,-0.00178801,10,-1.89164e-07,-5.32401,-0.00575888,-10.245,1.63742,0.0398885,
2,0,0,1,0,24023.3,0.041749,0.0414388,-0.00213008,13,-0.00177346,10,-8.8268e-08,-5.6716,-0.0036565,-16.1356,1.46925,0.0414388,
2,0,0,1,0,24024.8,0.0432472,0.0429414,0.000107142,13,-0.00175606,10,4.60083e-09,-6.97004,0.21461,0.274917,1.53768,0.0429414,
2,0,0,1,0,24026.3,0.0447454,0.0444249,0.00214634,13,-0.00173546,10,9.53511e-08,-5.6683,0.00658051,8.96588,1.56516,0.0444249,
2,1,0,1,0,24027.8,0.0462435,0.0459381,0.00486526,13,-0.00171088,10,2.23501e-07,-5.31289,0.00453828,13.0005,1.58651,0.0459381,
2,0,0,1,0,24029.3,0.0477417,0.0474131,0.00628577,13,-0.00168309,10,2.98028e-07,-5.20164,0.0087483,6.74417,1.51917,0.0474131,
2,0,0,1,0,24030.8,0.0492399,0.0489051,0.00856888,13,-0.00165238,10,4.19062e-07,-5.06708,0.0121232,4.86669,1.60515,0.0489051,
2,0,0,1,0,24032.3,0.0507381,0.0503726,0.0102868,13,-0.00161875,10,5.18173e-07,-4.98772,0.018126,3.25498,1.32603,0.0503726,
2,1,0,1,0,24033.8,0.0522363,0.0518997,0.0122412,13,-0.00158152,10,6.35313e-07,-4.91218,0.0197056,2.99407,1.4096,0.0518997,
2,1,0,1,0,24035.3,0.0537345,0.0533906,0.014275,13,-0.00154118,10,7.62148e-07,-4.84543,0.0242341,2.43459,1.36022,0.0533906,
2,1,0,1,0,24036.8,0.0552327,0.0548942,0.0160331,13,-0.00149829,10,8.80125e-07,-4.79498,0.0300432,1.96384,1.24956,0.0548942,
2,1,0,1,0,24038.3,0.0567309,0.056417,0.0174932,13,-0.00145262,10,9.86913e-07,-4.75713,0.0364934,1.61673,1.13798,0.056417,
2,1,0,1,0,24039.8,0.0582291,0.0578899,0.0203335,13,-0.00140415,10,1.17711e-06,-4.69179,0.035985,1.63957,1.2749,0.05788992,
2,1,0,1,0,24041.3,0.0597273,0.0594063,0.022429,13,-0.0013525,10,1.33242e-06,-4.64919,0.0363956,1.62108,1.3863,0.0594063,
2,1,0,1,0,24042.8,0.0612255,0.0608898,0.0241332,13,-0.00129767,10,1.46946e-06,-4.61739,0.0553238,1.06645,0.978347,0.0608898,
2,1,0,1,0,24044.3,0.0627237,0.0624413,0.025061,13,-0.00124069,10,1.56484e-06,-4.601,0.0568897,1.0371,1.05591,0.0624413,
2,1,0,1,0,24045.8,0.0642219,0.0639364,0.0271961,13,-0.00118176,10,1.73882e-06,-4.56549,0.057084,1.03356,1.11327,0.0639364,
2,1,0,1,0,24047.3,0.0657201,0.0654178,0.0291346,13,-0.00111939,10,1.90592e-06,-4.53559,0.0571623,1.03215,1.16592,0.0654178,
2,1,0,1,0,24048.8,0.0672183,0.0669321,0.0304041,13,-0.00105456,10,2.03501e-06,-4.51707,0.0601265,0.981265,1.16027,0.0669321,
2,1,0,1,0,24050.3,0.0687164,0.0684282,0.0320001,13,-0.000987798,10,2.18971e-06,-4.49485,0.0961904,0.613367,0.751851,0.0684282,
2,1,0,1,0,24051.8,0.0702146,0.0698937,0.0334801,13,-0.000919001,10,2.34005e-06,-4.47521,0.0826226,0.71409,0.92543,0.06989374,
2,1,0,1,0,24053.3,0.0717128,0.071407,0.0351522,13,-0.000847621,10,2.51011e-06,-4.45405,0.0685006,0.861306,1.1699,0.07140696,
2,1,0,1,0,24054.8,0.073211,0.0728777,0.0367535,13,-0.000773843,10,2.67851e-06,-4.4347,0.0908569,0.649373,0.926618,0.0728777,
2,1,0,1,0,24056.3,0.0747092,0.0743761,0.0378935,13,-0.000697618,10,2.81837e-06,-4.42144,0.0807985,0.730211,1.08943,0.0743761,
2,1,0,1,0,24057.8,0.0762074,0.0758607,0.0391126,13,-0.000619751,10,2.96711e-06,-4.40768,0.0920225,0.641148,0.992757,0.0758607,
2,1,0,1,0,24059.3,0.0777055,0.0773632,0.0412413,13,-0.000538734,10,3.19056e-06,-4.38467,0.0876161,0.673392,1.08272,0.0773632,
2,1,0,1,0,24060.8,0.0792037,0.0788467,0.0431003,13,-0.000455658,10,3.39832e-06,-4.36552,0.124504,0.47388,0.793922,0.0788467,
2,1,0,1,0,24062.3,0.0807019,0.0803928,0.0440987,13,-0.000370021,10,3.54521e-06,-4.35557,0.115974,0.508735,0.87043,0.0803928,
2,1,0,1,0,24063.8,0.0822001,0.0818752,0.0445757,13,-0.000283327,10,3.64965e-06,-4.3509,0.132459,0.445421,0.787452,0.0818752,
2,1,0,1,0,24065.3,0.0836983,0.0833259,0.0465996,13,-0.000194695,10,3.88295e-06,-4.33162,0.0914091,0.64545,1.17895,0.0833259,
2,1,0,1,0,24066.8,0.0851965,0.0848943,0.0476537,13,-0.000103469,10,4.04552e-06,-4.3219,0.0977417,0.603632,1.14429,0.0848943,
2,1,0,1,0,24068.3,0.0866947,0.0863788,0.0496888,13,-9.5549e-06,10,4.29206e-06,-4.30374,0.137573,0.428863,0.829714,0.0863788,
2,1,0,1,0,24069.8,0.0881929,0.0878878,0.0513832,13,8.66296e-05,10,4.51596e-06,-4.28918,0.0985071,0.598942,1.20417,0.0878878,
2,1,0,1,0,24071.3,0.0896911,0.0893427,0.0529997,13,0.000185038,10,4.73514e-06,-4.27573,0.0806632,0.731437,1.53356,0.0893427,
2,1,0,1,0,24072.8,0.0911893,0.0908707,0.0555092,13,0.000286963,10,5.04416e-06,-4.25564,0.0869998,0.678162,1.46835,0.0908707,
2,1,0,1,0,24074.3,0.0926875,0.0923617,0.0574495,13,0.000392416,10,5.30613e-06,-4.24071,0.0844579,0.698573,1.56796,0.0923617,
2,1,0,1,0,24075.8,0.0941857,0.0938452,0.0600723,13,0.000500782,10,5.6375e-06,-4.22133,0.0912576,0.646521,1.49853,0.0938452,
2,1,0,1,0,24077.3,0.0956839,0.095351,0.0617707,13,0.000611951,10,5.88989e-06,-4.20922,0.123248,0.47871,1.15112,0.095351,
2,1,0,1,0,24078.8,0.0971821,0.0968228,0.0635475,13,0.000726549,10,6.15285e-06,-4.1969,0.0874462,0.674701,1.67702,0.0968228,
2,1,0,1,0,24080.3,0.0986803,0.0983329,0.0655464,13,0.0008444,10,6.44536e-06,-4.18345,0.0916924,0.643456,1.66614,0.0983329,
2,1,0,1,0,24081.7,0.100178,0.0998481,0.068493,13,0.000966022,10,6.8389e-06,-4.16435,0.101904,0.578978,1.55333,0.0998481,
2,1,0,1,0,24083.2,0.101677,0.101338,0.070041,13,0.00109062,10,7.09781e-06,-4.15465,0.118231,0.499025,1.3643,0.101338,
2,1,0,1,0,24084.7,0.103175,0.102854,0.0728188,13,0.00121894,10,7.48973e-06,-4.13776,0.10452,0.564486,1.60069,0.102854,
2,1,0,1,0,24086.2,0.104673,0.104371,0.0754221,13,0.00135054,10,7.87185e-06,-4.1225,0.112563,0.524149,1.5318,0.104371,
2,1,0,1,0,24087.7,0.106171,0.105861,0.077365,13,0.00148623,10,8.18991e-06,-4.11146,0.131218,0.449633,1.34594,0.105861,
2,1,0,1,0,24089.2,0.107669,0.107347,0.0792607,13,0.00162484,10,8.50842e-06,-4.10094,0.141739,0.416257,1.2947,0.1073473,
2,1,0,1,0,24090.7,0.109167,0.108849,0.0812507,13,0.00176597,10,8.84403e-06,-4.09017,0.151869,0.388491,1.23793,0.108849,
2,1,0,1,0,24092.2,0.110666,0.110302,0.0827785,13,0.00191078,10,9.1306e-06,-4.08208,0.190479,0.309745,1.00432,0.110302,
2,1,0,1,0,24093.7,0.112164,0.111846,0.0844459,13,0.00205798,10,9.4449e-06,-4.07342,0.287431,0.205267,0.68134,0.111846,
2,1,0,1,0,24095.2,0.113662,0.113332,0.0868303,13,0.0022071,10,9.84066e-06,-4.06133,0.184621,0.319573,1.07969,0.113332,
2,1,0,1,0,24096.7,0.11516,0.114808,0.0886264,13,0.00235862,10,1.0175e-05,-4.05244,0.162872,0.362249,1.24397,0.114808,
2,1,0,1,0,24098.2,0.116658,0.116331,0.0899339,13,0.00251322,10,1.04621e-05,-4.04608,0.163851,0.360083,1.25633,0.116331,
2,1,0,1,0,24099.7,0.118157,0.117835,0.0915603,13,0.00267057,10,1.0789e-05,-4.03829,0.170264,0.34652,1.23702,0.117835,
2,1,0,1,0,24101.2,0.119655,0.119338,0.0937031,13,0.00283052,10,1.11824e-05,-4.02825,0.180939,0.326076,1.19038,0.119338,
2,1,0,1,0,24102.7,0.121153,0.120807,0.094881,13,0.00299258,10,1.14623e-05,-4.02282,0.192215,0.306948,1.14297,0.120807,
2,1,0,1,0,24104.2,0.122651,0.122311,0.0969046,13,0.00315773,10,1.18525e-05,-4.01366,0.146206,0.403541,1.52673,0.122311,
2,1,0,1,0,24105.7,0.124149,0.123843,0.0981428,13,0.00332574,10,1.21543e-05,-4.00814,0.183859,0.320899,1.23677,0.123843,
2,1,0,1,0,24107.2,0.125648,0.125303,0.100586,13,0.00349653,10,1.26037e-05,-3.99746,0.314058,0.187864,0.73311,0.125303,
2,1,0,1,0,24108.7,0.127146,0.126814,0.100682,13,0.00366875,10,1.27679e-05,-3.99705,0.668727,0.0882273,0.347166,0.126814,
2,1,0,1,0,24110.2,0.128644,0.128333,0.102536,13,0.0038423,10,1.31587e-05,-3.98913,0.46705,0.126325,0.50203,0.128333,
2,1,0,1,0,24111.7,0.130142,0.129818,0.103222,13,0.00401726,10,1.34001e-05,-3.98623,0.975815,0.0604623,0.241576,0.129818,
2,1,0,1,0,24113.2,0.13164,0.131273,0.10271,13,0.00419261,10,1.34831e-05,-3.98839,-0.774306,-0.0761973,-0.303556,0.131273,
2,1,0,1,0,24114.7,0.133139,0.132835,0.102448,13,0.00436748,10,1.36086e-05,-3.9895,-0.578777,-0.101939,-0.404511,0.132835,
2,1,0,1,0,24116.2,0.134637,0.134349,0.100756,13,0.00454052,10,1.35366e-05,-3.99673,-0.271978,-0.216929,-0.855223,0.134349,
2,1,0,1,0,24117.7,0.136135,0.135835,0.0993834,13,0.00471205,10,1.34998e-05,-4.00269,-0.145496,-0.405509,-1.56231,0.135835,
2,1,0,1,0,24119.2,0.137633,0.137309,0.097412,13,0.00488063,10,1.33756e-05,-4.01139,-0.106434,-0.554336,-2.07742,0.137309,
2,1,0,1,0,24120.7,0.139131,0.138786,0.0938344,13,0.00504431,10,1.30229e-05,-4.02764,-0.0826766,-0.713624,-2.59597,0.138786,
2,1,0,1,0,24122.2,0.14063,0.140324,0.0903672,13,0.00520177,10,1.26807e-05,-4.04399,-0.0724693,-0.814138,-2.82853,0.140324,
2,1,0,1,0,24123.7,0.142128,0.141785,0.0850614,13,0.0053533,10,1.20604e-05,-4.07027,-0.0734248,-0.803543,-2.66738,0.141785,
2,1,0,1,0,24125.2,0.143626,0.143333,0.0814481,13,0.00549841,10,1.16742e-05,-4.08912,-0.0678274,-0.869854,-2.74635,0.143333,
2,1,0,1,0,24126.7,0.145124,0.144751,0.0763645,13,0.00563693,10,1.10538e-05,-4.11711,-0.0657939,-0.896739,-2.69749,0.144751,
2,1,0,1,0,24128.2,0.146622,0.146319,0.0729248,13,0.00576867,10,1.06703e-05,-4.13712,-0.0629636,-0.93705,-2.67283,0.146319,
2,1,0,1,0,24129.7,0.14812,0.147824,0.069251,13,0.00589479,10,1.0237e-05,-4.15957,-0.0782199,-0.754284,-2.04406,0.147824,
2,1,0,1,0,24131.2,0.149619,0.149297,0.065135,13,0.0060154,10,9.72446e-06,-4.18619,-0.0801405,-0.736207,-1.89451,0.149297,
2,1,0,1,0,24132.7,0.151117,0.150805,0.0638316,13,0.00613176,10,9.62612e-06,-4.19496,-0.0791681,-0.745249,-1.83693,0.150805,
2,1,0,1,0,24134.2,0.152615,0.152306,0.0607156,13,0.00624419,10,9.24738e-06,-4.2167,-0.0910001,-0.648351,-1.55134,0.152306,
2,1,0,1,0,24135.7,0.154113,0.153765,0.0589368,13,0.00635293,10,9.0624e-06,-4.22961,-0.105974,-0.556743,-1.28466,0.153765,
2,1,0,1,0,24137.2,0.155611,0.15528,0.0573196,13,0.00645926,10,8.90058e-06,-4.2417,-0.126374,-0.466868,-1.04561,0.15528,
2,1,0,1,0,24138.7,0.15711,0.156754,0.0557959,13,0.00656321,10,8.74622e-06,-4.2534,-0.126465,-0.466532,-1.01402,0.156754,
2,1,0,1,0,24140.2,0.158608,0.158272,0.0547784,13,0.00666507,10,8.6699e-06,-4.26139,-0.191933,-0.307399,-0.65943,0.1582723,
2,1,0,1,0,24141.7,0.160106,0.15979,0.0533638,13,0.0067649,10,8.52698e-06,-4.27275,-0.195242,-0.302189,-0.639538,0.15979,
2,1,0,1,0,24143.2,0.161604,0.16127,0.0531231,13,0.00686368,10,8.56717e-06,-4.27472,-0.222812,-0.264797,-0.548046,0.16127,
2,1,0,1,0,24144.7,0.163102,0.162809,0.0525809,13,0.00696138,10,8.56063e-06,-4.27917,-0.273417,-0.215788,-0.439286,0.162809,
2,1,0,1,0,24146.2,0.164601,0.164239,0.0519106,13,0.00705778,10,8.52576e-06,-4.28474,-0.362189,-0.162899,-0.330821,0.164239,
2,1,0,1,0,24147.7,0.166099,0.165781,0.0515112,13,0.00715328,10,8.53958e-06,-4.2881,-0.341545,-0.172744,-0.343518,0.165781,
2,1,0,1,0,24149.2,0.167597,0.167269,0.0508952,13,0.00724869,10,8.51317e-06,-4.29332,-0.965087,-0.0611344,-0.121159,0.167269,
2,1,0,1,0,24150.7,0.169095,0.168761,0.0504444,13,0.00734349,10,8.51303e-06,-4.29719,-0.413138,-0.14281,-0.283165,0.168761,
2,1,0,1,0,24152.2,0.170593,0.170279,0.0506588,13,0.00743766,10,8.62614e-06,-4.29535,-0.365575,-0.16139,-0.317679,0.170279,
2,1,0,1,0,24153.7,0.172091,0.171763,0.0501879,13,0.00753117,10,8.6204e-06,-4.2994,-0.926703,-0.0636666,-0.125197,0.171763,
2,1,0,1,0,24155.2,0.17359,0.173245,0.0497025,13,0.00762461,10,8.61072e-06,-4.30362,-1.45008,-0.0406875,-0.0792982,0.173245,
2,1,0,1,0,24156.7,0.175088,0.174736,0.0499165,13,0.00771768,10,8.7222e-06,-4.30176,-0.706436,-0.0835179,-0.162512,0.174736,
2,1,0,1,0,24158.2,0.176586,0.176255,0.0500165,13,0.00781048,10,8.81565e-06,-4.30089,-0.488021,-0.120896,-0.233352,0.1762546,
2,1,0,1,0,24159.7,0.178084,0.177724,0.0490436,13,0.00790296,10,8.71624e-06,-4.30942,-0.885581,-0.0666229,-0.128876,0.177724,
2,1,0,1,0,24161.2,0.179582,0.179291,0.048956,13,0.00799488,10,8.77735e-06,-4.31019,3.64121,0.0162034,0.0313014,0.179291,
2,1,0,1,0,24162.7,0.181081,0.18078,0.049489,13,0.00808696,10,8.94664e-06,-4.30549,0.49472,0.119259,0.231758,0.18078,
2,1,0,1,0,24164.1,0.182579,0.182271,0.0495194,13,0.00817958,10,9.02598e-06,-4.30522,-3.14244,-0.0187752,-0.0363426,0.182271,
2,1,0,1,0,24165.6,0.184077,0.183763,0.0496562,13,0.00827226,10,9.12499e-06,-4.30403,-1.75794,-0.0335619,-0.0650293,0.183763,
2,1,0,1,0,24167.1,0.185575,0.185243,0.0498647,13,0.00836472,10,9.23707e-06,-4.30221,-2.56074,-0.0230402,-0.0449108,0.185243,
2,1,0,1,0,24168.6,0.187073,0.186775,0.0496672,13,0.00845699,10,9.2766e-06,-4.30393,-1.54902,-0.0380886,-0.0739737,0.186775,
2,1,0,1,0,24170.1,0.188572,0.188232,0.0495715,13,0.00854908,10,9.33094e-06,-4.30477,17.657,0.00334144,0.00647995,0.188232,
2,1,0,1,0,24171.6,0.19007,0.189738,0.049719,13,0.00864125,10,9.43358e-06,-4.30348,-16.4651,-0.00358335,-0.00694785,0.189738,
2,1,0,1,0,24173.1,0.191568,0.191249,0.050197,13,0.00873331,10,9.60011e-06,-4.29932,1.03095,0.0572289,0.110824,0.191249,
2,1,0,1,0,24174.6,0.193066,0.192752,0.0500257,13,0.00882561,10,9.64258e-06,-4.30081,0.510225,0.115635,0.225184,0.192752,
2,1,0,1,0,24176.1,0.194564,0.194198,0.0498776,13,0.00891818,10,9.68611e-06,-4.30209,0.341161,0.172939,0.33774,0.1941977,
2,1,0,1,0,24177.6,0.196063,0.195726,0.050484,13,0.00901111,10,9.88102e-06,-4.29685,0.574388,0.102718,0.20147,0.195726,
2,1,0,1,0,24179.1,0.197561,0.197223,0.0499326,13,0.00910427,10,9.84787e-06,-4.30162,0.752441,0.0784114,0.154404,0.1972231,
2,1,0,1,0,24180.6,0.199059,0.198736,0.0506601,13,0.00919735,10,1.0068e-05,-4.29533,0.821074,0.0718571,0.142168,0.198736,
2,1,0,1,0,24182.1,0.200557,0.200221,0.051194,13,0.00929116,10,1.02501e-05,-4.29078,0.732305,0.0805676,0.158407,0.200221,
2,1,0,1,0,24183.6,0.202055,0.201747,0.0507823,13,0.00938515,10,1.02452e-05,-4.29429,-1.25374,-0.0470592,-0.0931344,0.201747,
2,1,0,1,0,24185.1,0.203554,0.203193,0.0505221,13,0.00947883,10,1.02658e-05,-4.29652,5.09427,0.0115817,0.0230464,0.2031932,
2,1,0,1,0,24186.6,0.205052,0.204718,0.0509214,13,0.00957249,10,1.04245e-05,-4.2931,0.691471,0.0853253,0.170369,0.204718,
2,1,0,1,0,24188.1,0.20655,0.206208,0.0512869,13,0.00966652,10,1.05758e-05,-4.28999,1.12816,0.0522977,0.103973,0.206208,
2,1,0,1,0,24189.6,0.208048,0.207759,0.0513844,13,0.00976106,10,1.06756e-05,-4.28917,-1.16536,-0.0506279,-0.100971,0.207759,
2,1,0,1,0,24191.1,0.209546,0.209245,0.0508088,13,0.00985523,10,1.06315e-05,-4.29406,6.65575,0.00886452,0.0177518,0.209245,
2,1,0,1,0,24192.6,0.211044,0.210692,0.051794,13,0.00994943,10,1.09126e-05,-4.28572,0.941395,0.062673,0.125427,0.210692,
2,1,0,1,0,24194.1,0.212543,0.212228,0.0515852,13,0.0100444,10,1.09478e-05,-4.28748,3.33233,0.0177053,0.0356902,0.212228,
2,1,0,1,0,24195.6,0.214041,0.213708,0.0517085,13,0.0101393,10,1.10505e-05,-4.28644,0.953035,0.0619075,0.125571,0.213708,
2,1,0,1,0,24197.1,0.215539,0.21521,0.0519332,13,0.0102344,10,1.11765e-05,-4.28456,2.5632,0.0230181,0.0463598,0.21521,
2,1,0,1,0,24198.6,0.217037,0.216765,0.0519106,13,0.0103295,10,1.12524e-05,-4.28474,0.821295,0.0718377,0.146837,0.216765,
2,1,0,1,0,24200.1,0.218535,0.218202,0.0519185,13,0.0104247,10,1.13287e-05,-4.28468,0.592857,0.0995181,0.201631,0.218202,
2,1,0,1,0,24201.6,0.220034,0.219762,0.0522412,13,0.0105205,10,1.14806e-05,-4.28199,0.794834,0.0742294,0.152194,0.219762,
2,1,0,1,0,24203.1,0.221532,0.221213,0.052636,13,0.0106163,10,1.16437e-05,-4.27872,1.75564,0.033606,0.0692051,0.221213,
2,1,0,1,0,24204.6,0.22303,0.22265,0.052012,13,0.0107124,10,1.15805e-05,-4.2839,0.5544,0.106421,0.219163,0.22265,
2,1,0,1,0,24206.1,0.224528,0.224249,0.053038,13,0.0108084,10,1.18937e-05,-4.27541,0.393282,0.15002,0.3083,0.224249,
2,1,0,1,0,24207.6,0.226026,0.2257,0.0532664,13,0.0109052,10,1.20223e-05,-4.27355,0.571218,0.103288,0.213031,0.2257,
2,1,0,1,0,24209.1,0.227525,0.227211,0.0534867,13,0.0110025,10,1.21528e-05,-4.27175,0.899569,0.065587,0.13647,0.227211,
2,1,0,1,0,24210.6,0.229023,0.228713,0.0537507,13,0.0110998,10,1.22935e-05,-4.26962,0.681334,0.0865949,0.182238,0.228713,
2,1,0,1,0,24212.1,0.230521,0.230161,0.0536433,13,0.0111974,10,1.23466e-05,-4.27048,1.61022,0.0366409,0.0765662,0.230161,
2,1,0,1,0,24213.6,0.232019,0.231693,0.0542533,13,0.0112953,10,1.25701e-05,-4.26557,-2.08822,-0.0282537,-0.0594896,0.231693,
2,1,0,1,0,24215.1,0.233517,0.233203,0.0535872,13,0.011393,10,1.24967e-05,-4.27094,2.16612,0.0272376,0.0572509,0.2332027,
2,1,0,1,0,24216.6,0.235016,0.234706,0.0541498,13,0.0114909,10,1.27093e-05,-4.2664,0.84035,0.0702088,0.147534,0.234706,
2,1,0,1,0,24218.1,0.236514,0.236233,0.0540626,13,0.0115888,10,1.27714e-05,-4.2671,7.23036,0.00816003,0.0172029,0.236233,
2,1,0,1,0,24219.6,0.238012,0.237684,0.0543696,13,0.0116872,10,1.29228e-05,-4.26464,0.59644,0.0989202,0.209627,0.237684,
2,1,0,1,0,24221.1,0.23951,0.239224,0.0544044,13,0.0117859,10,1.30148e-05,-4.26437,0.649253,0.0908737,0.194616,0.239224,
2,1,0,1,0,24222.6,0.241008,0.240705,0.0550895,13,0.011885,10,1.32603e-05,-4.25893,0.614124,0.0960717,0.206235,0.240705,
2,1,0,1,0,24224.1,0.242506,0.242201,0.055366,13,0.0119845,10,1.34097e-05,-4.25676,1.37452,0.0429242,0.0926481,0.242201,
2,1,0,1,0,24225.6,0.244005,0.243704,0.0552146,13,0.0120844,10,1.3456e-05,-4.25795,1.06989,0.0551459,0.118889,0.243704,
2,1,0,1,0,24227.1,0.245503,0.245176,0.055592,13,0.0121846,10,1.36298e-05,-4.25499,1.50133,0.0392985,0.0855215,0.245176,
2,1,0,1,0,24228.6,0.247001,0.246689,0.0557404,13,0.0122848,10,1.37505e-05,-4.25383,-1.88737,-0.0312605,-0.0679419,0.246689,
2,1,0,1,0,24230.1,0.248499,0.248162,0.055675,13,0.0123848,10,1.38164e-05,-4.25434,1.56042,0.0378104,0.0824086,0.248162,
2,1,0,1,0,24231.6,0.249997,0.249707,0.0564058,13,0.0124852,10,1.40849e-05,-4.24868,0.591846,0.0996881,0.217213,0.249707,
2,1,0,1,0,24233.1,0.251496,0.251188,0.0561261,13,0.0125862,10,1.40982e-05,-4.25083,0.732963,0.0804952,0.176064,0.251188,
2,1,0,1,0,24234.6,0.252994,0.252672,0.0558598,13,0.0126872,10,1.41142e-05,-4.2529,-1.97022,-0.0299459,-0.0658763,0.252672,
2,1,0,1,0,24236.1,0.254492,0.254204,0.0564571,13,0.0127886,10,1.43516e-05,-4.24828,0.452516,0.130382,0.287782,0.254204,
2,1,0,1,0,24237.6,0.25599,0.255674,0.0567781,13,0.01289,10,1.45167e-05,-4.24582,0.406818,0.145028,0.320651,0.255674,
2,1,0,1,0,24239.1,0.257488,0.257177,0.0572747,13,0.0129922,10,1.47298e-05,-4.24204,1.04936,0.0562247,0.124607,0.257177,
2,1,0,1,0,24240.6,0.258987,0.258703,0.0570829,13,0.0130945,10,1.47675e-05,-4.24349,8.47813,0.00695908,0.0154892,0.258703,
2,1,0,1,0,24242.1,0.260485,0.260201,0.0572006,13,0.0131967,10,1.48836e-05,-4.2426,-1.91513,-0.0308072,-0.0683052,0.260201,
2,1,0,1,0,24243.6,0.261983,0.26171,0.057226,13,0.0132988,10,1.49766e-05,-4.24241,0.856915,0.0688516,0.153912,0.26171,
2,1,0,1,0,24245.1,0.263481,0.263172,0.0575104,13,0.0134012,10,1.51351e-05,-4.24025,0.703776,0.0838335,0.187121,0.263172,
2,1,0,1,0,24246.5,0.264979,0.264636,0.0572711,13,0.013504,10,1.5156e-05,-4.24206,0.920613,0.0640877,0.144353,0.264636,
2,1,0,1,0,24248,0.266477,0.266194,0.0575986,13,0.0136069,10,1.53324e-05,-4.23959,4.2795,0.0137866,0.0312129,0.266194,
2,1,0,1,0,24249.5,0.267976,0.267679,0.0578588,13,0.01371,10,1.54876e-05,-4.23763,0.962799,0.0612797,0.138753,0.267679,
2,1,0,1,0,24251,0.269474,0.269166,0.0582522,13,0.0138134,10,1.56795e-05,-4.23469,0.394066,0.149721,0.339257,0.269166,
2,1,0,1,0,24252.5,0.270972,0.270638,0.0582331,13,0.0139171,10,1.57601e-05,-4.23483,0.396028,0.148979,0.339284,0.270638,
2,1,0,1,0,24254,0.27247,0.272174,0.0590369,13,0.0140214,10,1.60683e-05,-4.22888,2.86987,0.0205584,0.0468484,0.272174,
2,1,0,1,0,24255.5,0.273968,0.273624,0.0587325,13,0.0141259,10,1.60706e-05,-4.23112,1.85246,0.0318495,0.0731079,0.273624,
2,1,0,1,0,24257,0.275467,0.275162,0.0594175,13,0.0142305,10,1.63494e-05,-4.22609,4.61274,0.0127907,0.0294559,0.275162,
2,1,0,1,0,24258.5,0.276965,0.276659,0.0594263,13,0.0143354,10,1.64408e-05,-4.22602,2.17767,0.0270932,0.0624378,0.276659,
2,1,0,1,0,24260,0.278463,0.278159,0.0590742,13,0.0144402,10,1.6432e-05,-4.2286,-2.25674,-0.0261439,-0.0604314,0.278159,
2,1,0,1,0,24261.5,0.279961,0.279664,0.0593826,13,0.0145452,10,1.66072e-05,-4.22634,2.16429,0.0272607,0.0633106,0.279664,
2,1,0,1,0,24263,0.281459,0.281161,0.0593304,13,0.0146502,10,1.66814e-05,-4.22672,0.804988,0.073293,0.170053,0.281161,
2,1,0,1,0,24264.5,0.282958,0.282654,0.0597614,13,0.0147558,10,1.68918e-05,-4.22358,0.596877,0.0988478,0.229638,0.282654,
2,1,0,1,0,24266,0.284456,0.284161,0.0600365,13,0.0148616,10,1.706e-05,-4.22158,1.47117,0.040104,0.0939889,0.284161,
2,1,0,1,0,24267.5,0.285954,0.285658,0.0600724,13,0.0149677,10,1.71602e-05,-4.22132,0.547565,0.10775,0.252455,0.285658,
2,1,0,1,0,24269,0.287452,0.287114,0.0609429,13,0.0150743,10,1.74976e-05,-4.21508,0.399914,0.147532,0.348902,0.287114,
2,1,0,1,0,24270.5,0.28895,0.288666,0.0605387,13,0.0151811,10,1.74755e-05,-4.21797,0.990482,0.059567,0.141055,0.288666,
2,1,0,1,0,24272,0.290448,0.290125,0.061032,13,0.0152882,10,1.77069e-05,-4.21444,2.60931,0.0226113,0.053881,0.290125,
2,1,0,1,0,24273.5,0.291947,0.29169,0.0613342,13,0.0153958,10,1.78906e-05,-4.2123,1.31367,0.0449122,0.106508,0.29169,
2,1,0,1,0,24275,0.293445,0.293117,0.0607662,13,0.0155032,10,1.78116e-05,-4.21634,14.5179,0.00406396,0.00971569,0.293117,
2,1,0,1,0,24276.5,0.294943,0.29461,0.0611883,13,0.0156103,10,1.80267e-05,-4.21333,9.07555,0.00650098,0.0154966,0.29461,
2,1,0,1,0,24278,0.296441,0.29614,0.0611371,13,0.0157178,10,1.81051e-05,-4.2137,1.29377,0.0456032,0.109011,0.29614,
2,1,0,1,0,24279.5,0.297939,0.297668,0.0614715,13,0.0158252,10,1.82981e-05,-4.21133,1.15557,0.0510571,0.121271,0.297668,
2,1,0,1,0,24281,0.299438,0.299133,0.0613626,13,0.0159328,10,1.83556e-05,-4.2121,-0.00467817,-12.6118,-19.9875,0.299133,
2,1,0,1,0,24281.9,0.299737,0.29947,0.0323442,13,0.0159807,10,9.68611e-06,-4.4902,0.00233506,25.2671,35.1753,0.29947,
2,1,0,1,0,24283.4,0.298239,0.297931,0.0204811,13,0.016002,10,6.10196e-06,-4.68865,0.00596867,9.88494,12.6455,0.297931,
2,1,0,1,0,24284.9,0.296741,0.296477,0.0157811,13,0.016013,10,4.67873e-06,-4.80186,0.0136169,4.33284,2.76644,0.2964772,
2,1,0,1,0,24286.4,0.295243,0.294916,0.0121532,13,0.016018,10,3.58417e-06,-4.91531,0.0146236,4.03457,1.98318,0.294916,
2,1,0,1,0,24287.9,0.293745,0.293418,0.0100833,13,0.016019,10,2.95863e-06,-4.9964,0.0144282,4.08922,1.62248,0.293418,
2,1,0,1,0,24289.3,0.292246,0.291911,0.0080658,13,0.0160167,10,2.3545e-06,-5.09335,0.0129657,4.55047,1.35929,0.291911,
2,1,0,1,0,24290.8,0.290748,0.290487,0.00577483,13,0.0160114,10,1.67751e-06,-5.23846,0.0126394,4.66795,1.01974,0.290487,
2,1,0,1,0,24292.3,0.28925,0.288924,0.00415356,13,0.0160036,10,1.20006e-06,-5.38158,0.0110063,5.36056,0.947888,0.288924,
2,1,0,1,0,24293.8,0.287752,0.287457,0.0032575,13,0.0159935,10,9.36392e-07,-5.48712,0.00738553,7.9886,0.871959,0.287457,
2,0,0,1,0,24295.3,0.286254,0.285935,0.00194918,13,0.0159816,10,5.57339e-07,-5.71015,0.00452707,13.0327,0.716,0.285935,
2,1,0,1,0,24296.8,0.284755,0.284465,0.00119822,13,0.0159678,10,3.40851e-07,-5.92146,0.00985559,5.98645,0.817092,0.284465,
2,1,0,1,0,24298.3,0.283257,0.28295,-0.000469944,13,0.0159524,10,-1.32971e-07,-6.32795,-0.0157624,-3.74309,0.767503,0.28295,
2,0,0,1,0,24299.8,0.281759,0.281454,-0.00198241,13,0.0159351,10,-5.57959e-07,-5.70281,-0.00174612,-33.7893,0.801209,0.281454,
2,1,0,1,0,24301.3,0.280261,0.279999,-0.00274988,13,0.0159162,10,-7.69965e-07,-5.56069,-0.00810923,-7.27566,0.733749,0.279999,
2,0,0,1,0,24302.8,0.278763,0.278475,-0.00349135,13,0.0158956,10,-9.72252e-07,-5.45701,-0.0123214,-4.78843,0.640226,0.278475,
2,1,0,1,0,24304.3,0.277264,0.276944,-0.00470148,13,0.0158733,10,-1.30205e-06,-5.32777,-0.0175748,-3.35709,0.593303,0.276944,
2,1,0,1,0,24305.8,0.275766,0.275491,-0.00537961,13,0.0158499,10,-1.48203e-06,-5.26925,-0.0246197,-2.39645,0.498287,0.2754907,
2,1,0,1,0,24307.3,0.274268,0.27395,-0.00614927,13,0.0158254,10,-1.68459e-06,-5.21118,-0.0226342,-2.60667,0.642256,0.27395,
2,0,0,1,0,24308.8,0.27277,0.272454,-0.00731179,13,0.0157996,10,-1.99212e-06,-5.13598,-0.0264584,-2.22991,0.628668,0.272454,
2,0,0,1,0,24310.3,0.271272,0.270961,-0.00813943,13,0.0157722,10,-2.20546e-06,-5.08941,-0.0244698,-2.41114,0.762995,0.270961,
2,0,0,1,0,24311.8,0.269774,0.269436,-0.00943447,13,0.0157433,10,-2.54198e-06,-5.02528,-0.0299172,-1.97211,0.678596,0.269436,
2,0,0,1,0,24313.3,0.268275,0.26797,-0.0101084,13,0.015713,10,-2.70876e-06,-4.99532,-0.05447,-1.08317,0.414422,0.26797,
2,0,0,1,0,24314.8,0.266777,0.26648,-0.0108829,13,0.0156816,10,-2.90007e-06,-4.96326,-0.0603457,-0.9777,0.405878,0.26648,
2,0,0,1,0,24316.3,0.265279,0.26493,-0.0112853,13,0.0156491,10,-2.98983e-06,-4.94749,-0.0583693,-1.0108,0.446457,0.26493,
2,0,0,1,0,24317.8,0.263781,0.263454,-0.0118431,13,0.0156156,10,-3.1201e-06,-4.92654,-0.0698335,-0.844867,0.400641,0.263454,
2,0,0,1,0,24319.3,0.262283,0.261985,-0.0125805,13,0.0155811,10,-3.29589e-06,-4.9003,-0.0725377,-0.81337,0.410241,0.2619853,
2,0,0,1,0,24320.8,0.260784,0.260475,-0.0135174,13,0.0155456,10,-3.52095e-06,-4.86911,-0.0585848,-1.00709,0.520449,0.260475,
2,0,0,1,0,24322.3,0.259286,0.25902,-0.0140678,13,0.0155086,10,-3.64384e-06,-4.85177,-0.051871,-1.13744,0.63533,0.25902,
2,0,0,1,0,24323.8,0.257788,0.257509,-0.0156008,13,0.0154707,10,-4.01736e-06,-4.80685,-0.0579595,-1.01795,0.596685,0.257509,
2,0,0,1,0,24325.3,0.25629,0.255968,-0.0159519,13,0.0154314,10,-4.08318e-06,-4.79719,-0.0591031,-0.998255,0.629334,0.255968,
2,0,0,1,0,24326.8,0.254792,0.25446,-0.0169905,13,0.0153909,10,-4.32339e-06,-4.76979,-0.0626462,-0.941797,0.604664,0.25446,
2,0,0,1,0,24328.3,0.253293,0.252991,-0.0174647,13,0.0153491,10,-4.41841e-06,-4.75784,-0.073645,-0.801141,0.540533,0.252991,
2,0,0,1,0,24329.8,0.251795,0.251468,-0.0182146,13,0.0153061,10,-4.58038e-06,-4.73958,-0.0955021,-0.617788,0.434625,0.251468,
2,0,0,1,0,24331.3,0.250297,0.24992,-0.0187466,13,0.0152621,10,-4.68515e-06,-4.72708,-0.129149,-0.456838,0.33316,0.24992,
2,0,0,1,0,24332.8,0.248799,0.24851,-0.0196663,13,0.0152171,10,-4.88727e-06,-4.70628,-0.123683,-0.477026,0.361434,0.24851,
2,0,0,1,0,24334.3,0.247301,0.246991,-0.0197568,13,0.0151714,10,-4.87975e-06,-4.70428,-0.142448,-0.414188,0.319732,0.246991,
2,0,0,1,0,24335.8,0.245802,0.245496,-0.020634,13,0.015125,10,-5.06555e-06,-4.68542,-0.158942,-0.371205,0.299185,0.245496,
2,0,0,1,0,24337.3,0.244304,0.243956,-0.0206663,13,0.0150778,10,-5.04167e-06,-4.68474,-0.133316,-0.442558,0.360008,0.243956,
2,0,0,1,0,24338.8,0.242806,0.242534,-0.021635,13,0.0150296,10,-5.24723e-06,-4.66484,-0.119538,-0.493567,0.410477,0.242534,
2,0,0,1,0,24340.3,0.241308,0.240998,-0.0220777,13,0.0149807,10,-5.32069e-06,-4.65605,-0.129254,-0.456467,0.38942,0.240998,
2,0,0,1,0,24341.8,0.23981,0.23951,-0.0224331,13,0.0149308,10,-5.37296e-06,-4.64911,-0.12113,-0.48708,0.431928,0.23951,
2,0,0,1,0,24343.3,0.238312,0.237971,-0.023357,13,0.01488,10,-5.55829e-06,-4.63158,-0.154522,-0.381824,0.347204,0.2379714,
2,0,0,1,0,24344.8,0.236813,0.236476,-0.0238247,13,0.014828,10,-5.63398e-06,-4.62297,-0.121438,-0.485843,0.453028,0.236476,
2,0,0,1,0,24346.3,0.235315,0.235012,-0.0244434,13,0.0147751,10,-5.74448e-06,-4.61184,-0.219797,-0.26843,0.253748,0.235012,
2,0,0,1,0,24347.8,0.233817,0.233483,-0.024678,13,0.0147216,10,-5.76189e-06,-4.60769,-0.280632,-0.21024,0.202936,0.233483,
2,0,0,1,0,24349.3,0.232319,0.232025,-0.0255279,13,0.0146672,10,-5.9231e-06,-4.59298,-0.182569,-0.323166,0.320708,0.232025,
2,0,0,1,0,24350.8,0.230821,0.230487,-0.0258844,13,0.0146122,10,-5.96602e-06,-4.58696,-0.22177,-0.266041,0.268392,0.230487,
2,0,0,1,0,24352.3,0.229322,0.229051,-0.0260959,13,0.0145563,10,-5.97729e-06,-4.58343,-0.144696,-0.407751,0.422122,0.229051,
2,0,0,1,0,24353.8,0.227824,0.227491,-0.0269283,13,0.0144998,10,-6.12597e-06,-4.56979,-0.164716,-0.358193,0.378025,0.227491,
2,0,0,1,0,24355.3,0.226326,0.226028,-0.0274872,13,0.0144422,10,-6.21287e-06,-4.56087,-0.170724,-0.345587,0.370521,0.226028,
2,0,0,1,0,24356.8,0.224828,0.224506,-0.0280277,13,0.0143838,10,-6.29239e-06,-4.55241,-0.210735,-0.279972,0.301157,0.224506,
2,0,0,1,0,24358.3,0.22333,0.223067,-0.0286177,13,0.0143246,10,-6.38367e-06,-4.54337,-0.169404,-0.34828,0.386202,0.223067,
2,0,0,1,0,24359.8,0.221831,0.22154,-0.0293707,13,0.0142648,10,-6.50679e-06,-4.53209,-0.143105,-0.412285,0.471023,0.22154,
2,0,0,1,0,24361.3,0.220333,0.220026,-0.0299732,13,0.0142036,10,-6.59489e-06,-4.52327,-0.15276,-0.386227,0.444169,0.220026,
2,0,0,1,0,24362.8,0.218835,0.218486,-0.0304114,13,0.0141413,10,-6.64448e-06,-4.51696,-0.250382,-0.23564,0.279168,0.218486,
2,0,0,1,0,24364.3,0.217337,0.217013,-0.0307999,13,0.0140784,10,-6.684e-06,-4.51145,-0.226472,-0.260518,0.315252,0.217013,
2,0,0,1,0,24365.8,0.215839,0.215462,-0.0312887,13,0.0140148,10,-6.74152e-06,-4.50461,-0.225621,-0.261501,0.321543,0.215462,
2,0,0,1,0,24367.3,0.21434,0.214049,-0.0320928,13,0.0139505,10,-6.86942e-06,-4.49359,-0.203138,-0.290443,0.360813,0.214049,
2,0,0,1,0,24368.8,0.212842,0.212497,-0.0325746,13,0.013885,10,-6.92202e-06,-4.48712,-0.213387,-0.276493,0.350755,0.212497,
2,0,0,1,0,24370.3,0.211344,0.211017,-0.0329948,13,0.0138189,10,-6.96246e-06,-4.48155,-0.155865,-0.378533,0.489579,0.211017,
2,0,0,1,0,24371.7,0.209846,0.209551,-0.0329983,13,0.0137518,10,-6.91484e-06,-4.48151,-0.157199,-0.37532,0.495737,0.209551,
2,0,0,1,0,24373.2,0.208348,0.208046,-0.0339613,13,0.0136837,10,-7.0655e-06,-4.46902,-0.183713,-0.321153,0.430926,0.208046,
2,0,0,1,0,24374.7,0.20685,0.206548,-0.0354129,13,0.0136144,10,-7.31447e-06,-4.45084,-0.203772,-0.289539,0.39087,0.206548,
2,0,0,1,0,24376.2,0.205351,0.205032,-0.0356982,13,0.0135441,10,-7.31928e-06,-4.44735,-0.435261,-0.135551,0.187319,0.205032,
2,0,0,1,0,24377.7,0.203853,0.203513,-0.0357923,13,0.0134731,10,-7.28421e-06,-4.44621,-0.215166,-0.274207,0.384266,0.203513,
2,0,0,1,0,24379.2,0.202355,0.202024,-0.0362712,13,0.0134018,10,-7.32764e-06,-4.44044,-0.197154,-0.299259,0.430267,0.202024,
2,0,0,1,0,24380.7,0.200857,0.200536,-0.0372745,13,0.0133293,10,-7.47487e-06,-4.42859,-0.244367,-0.24144,0.351138,0.200536,
2,0,0,1,0,24382.2,0.199359,0.199043,-0.0377831,13,0.0132556,10,-7.52045e-06,-4.4227,-0.189801,-0.310852,0.456164,0.199043,
2,0,0,1,0,24383.7,0.19786,0.197534,-0.038314,13,0.0131812,10,-7.5683e-06,-4.41664,-0.159655,-0.369546,0.559493,0.197534,
2,0,0,1,0,24385.2,0.196362,0.196043,-0.0390197,13,0.0131056,10,-7.64954e-06,-4.40872,-0.177608,-0.332192,0.504808,0.196043,
2,0,0,1,0,24386.7,0.194864,0.194539,-0.0401424,13,0.0130286,10,-7.80927e-06,-4.3964,-0.206715,-0.285416,0.44191,0.194539,
2,0,0,1,0,24388.2,0.193366,0.193015,-0.0404481,13,0.0129504,10,-7.8071e-06,-4.3931,-0.211217,-0.279334,0.444073,0.193015,
2,0,0,1,0,24389.7,0.191868,0.191569,-0.0412401,13,0.0128716,10,-7.90032e-06,-4.38468,-0.223964,-0.263435,0.426563,0.191569,
2,0,0,1,0,24391.2,0.190369,0.190084,-0.0414929,13,0.012792,10,-7.88716e-06,-4.38203,-0.23362,-0.252547,0.412022,0.190084,
2,0,0,1,0,24392.7,0.188871,0.188534,-0.0418964,13,0.0127112,10,-7.8989e-06,-4.37782,-0.224639,-0.262644,0.432397,0.188534,
2,0,0,1,0,24394.2,0.187373,0.187017,-0.0430662,13,0.0126297,10,-8.05409e-06,-4.36586,-0.421126,-0.140101,0.235084,0.187017,
2,0,0,1,0,24395.7,0.185875,0.185544,-0.0436403,13,0.0125472,10,-8.09718e-06,-4.36011,-0.158917,-0.371262,0.629137,0.185544,
2,0,0,1,0,24397.2,0.184377,0.184071,-0.0441155,13,0.0124635,10,-8.12038e-06,-4.35541,-0.221005,-0.266962,0.463437,0.1840709,
2,0,0,1,0,24398.7,0.182878,0.18254,-0.0454788,13,0.0123785,10,-8.30168e-06,-4.34219,-0.172246,-0.342533,0.603193,0.18254,
2,0,0,1,0,24400.2,0.18138,0.181079,-0.0461422,13,0.0122919,10,-8.35541e-06,-4.3359,-0.218971,-0.269442,0.483105,0.181079,
2,0,0,1,0,24401.7,0.179882,0.17956,-0.046814,13,0.0122044,10,-8.40591e-06,-4.32962,-0.297075,-0.198603,0.362731,0.17956,
2,0,0,1,0,24403.2,0.178384,0.178073,-0.0474829,13,0.0121156,10,-8.45543e-06,-4.32346,-0.153636,-0.384024,0.719243,0.178073,
2,0,0,1,0,24404.7,0.176886,0.176546,-0.048295,13,0.0120258,10,-8.5263e-06,-4.3161,-0.193325,-0.305186,0.579951,0.176546,
2,0,0,1,0,24406.2,0.175388,0.175066,-0.0493991,13,0.0119339,10,-8.6481e-06,-4.30628,-0.193429,-0.305022,0.588839,0.175066,
2,0,0,1,0,24407.7,0.173889,0.173536,-0.0503491,13,0.0118407,10,-8.73738e-06,-4.29801,-0.189168,-0.311892,0.615022,0.173536,
2,0,0,1,0,24409.2,0.172391,0.172052,-0.0521782,13,0.011746,10,-8.97737e-06,-4.28251,-0.138399,-0.426305,0.859519,0.1720522,
2,0,0,1,0,24410.7,0.170893,0.170574,-0.0528702,13,0.0116499,10,-9.01828e-06,-4.27679,-0.19535,-0.302022,0.619359,0.170574,
2,0,0,1,0,24412.2,0.169395,0.169041,-0.0540294,13,0.0115513,10,-9.13316e-06,-4.26737,-0.139208,-0.423827,0.88483,0.169041,
2,0,0,1,0,24413.7,0.167897,0.167622,-0.0550094,13,0.0114512,10,-9.22078e-06,-4.25956,-0.17882,-0.32994,0.712319,0.167622,
2,0,0,1,0,24415.2,0.166398,0.166097,-0.0561285,13,0.0113495,10,-9.32278e-06,-4.25082,-0.165484,-0.35653,0.779164,0.166097,
2,0,0,1,0,24416.7,0.1649,0.164592,-0.0572405,13,0.0112461,10,-9.42134e-06,-4.2423,-0.157352,-0.374956,0.839069,0.164592,
2,0,0,1,0,24418.2,0.163402,0.163045,-0.0582363,13,0.0111406,10,-9.49514e-06,-4.23481,-0.129433,-0.455835,1.03896,0.163045,
2,0,0,1,0,24419.7,0.161904,0.161618,-0.0600541,13,0.0110329,10,-9.70581e-06,-4.22146,-0.170173,-0.346707,0.812879,0.1616178,
2,0,0,1,0,24421.2,0.160406,0.160084,-0.061381,13,0.010923,10,-9.82613e-06,-4.21197,-0.147435,-0.400177,0.957374,0.160084,
2,0,0,1,0,24422.7,0.158907,0.158593,-0.0626873,13,0.0108107,10,-9.94179e-06,-4.20282,-0.11847,-0.498015,1.22275,0.158593,
2,0,0,1,0,24424.2,0.157409,0.157077,-0.0647247,13,0.0106956,10,-1.01668e-05,-4.18893,-0.118527,-0.497777,1.26631,0.157077,
2,0,0,1,0,24425.7,0.155911,0.155611,-0.0669541,13,0.0105771,10,-1.04188e-05,-4.17422,-0.124797,-0.472768,1.24323,0.155611,
2,0,0,1,0,24427.2,0.154413,0.154084,-0.0689875,13,0.0104552,10,-1.06298e-05,-4.16123,-0.120309,-0.490405,1.32699,0.154084,
2,0,0,1,0,24428.7,0.152915,0.152583,-0.0719442,13,0.0103299,10,-1.09775e-05,-4.143,-0.101664,-0.580344,1.62484,0.152583,
2,0,0,1,0,24430.2,0.151417,0.151101,-0.0739039,13,0.0102012,10,-1.11669e-05,-4.13133,-0.0938522,-0.628648,1.82928,0.151101,
2,0,0,1,0,24431.7,0.149918,0.149541,-0.0767837,13,0.0100685,10,-1.14823e-05,-4.11473,-0.0923015,-0.63921,1.92756,0.149541,
2,0,0,1,0,24433.2,0.14842,0.148163,-0.0800695,13,0.00993083,10,-1.18634e-05,-4.09653,-0.0837401,-0.704561,2.20404,0.148163,
2,0,0,1,0,24434.7,0.146922,0.14663,-0.0845232,13,0.00978797,10,-1.23937e-05,-4.07302,-0.0807347,-0.730789,2.39051,0.14663,
2,0,0,1,0,24436.2,0.145424,0.145097,-0.0875487,13,0.00963945,10,-1.2703e-05,-4.05775,-0.0755142,-0.78131,2.67002,0.145097,
2,0,0,1,0,24437.7,0.143926,0.14363,-0.0918554,13,0.00948447,10,-1.31932e-05,-4.0369,-0.0688608,-0.856801,3.0706,0.14363,
2,0,0,1,0,24439.2,0.142427,0.142117,-0.0961772,13,0.00932267,10,-1.36684e-05,-4.01693,-0.0676162,-0.872572,3.30154,0.142117,
2,0,0,1,0,24440.7,0.140929,0.140593,-0.101143,13,0.0091538,10,-1.422e-05,-3.99506,-0.0718145,-0.821561,3.24723,0.140593,
2,0,0,1,0,24442.2,0.139431,0.139131,-0.105715,13,0.00897772,10,-1.47083e-05,-3.97586,-0.0702994,-0.839268,3.47978,0.139131,
2,0,0,1,0,24443.7,0.137933,0.137608,-0.111617,13,0.00879385,10,-1.53594e-05,-3.95227,-0.0730009,-0.808209,3.506,0.1376081,
2,0,0,1,0,24445.2,0.136435,0.136112,-0.116933,13,0.0086018,10,-1.5916e-05,-3.93206,-0.0777501,-0.758841,3.44937,0.136112,
2,0,0,1,0,24446.7,0.134936,0.134614,-0.12227,13,0.00840175,10,-1.64592e-05,-3.91268,-0.0843201,-0.699714,3.3129,0.134614,
2,0,0,1,0,24448.2,0.133438,0.133085,-0.127015,13,0.00819419,10,-1.69039e-05,-3.89614,-0.0930699,-0.633932,3.13597,0.133085,
2,0,0,1,0,24449.7,0.13194,0.131617,-0.131663,13,0.00797952,10,-1.7329e-05,-3.88054,-0.0973268,-0.606205,3.11096,0.131617,
2,0,0,1,0,24451.2,0.130442,0.130106,-0.13566,13,0.0077582,10,-1.76502e-05,-3.86755,-0.128075,-0.460667,2.43179,0.130106,
2,0,0,1,0,24452.7,0.128944,0.128633,-0.138862,13,0.0075308,10,-1.78623e-05,-3.85742,-0.167552,-0.352129,1.89981,0.128633,
2,0,0,1,0,24454.1,0.127445,0.127103,-0.142072,13,0.00729894,10,-1.80577e-05,-3.84749,-0.192279,-0.306847,1.69357,0.127103,
2,0,0,1,0,24455.6,0.125947,0.12562,-0.144504,13,0.00706387,10,-1.81527e-05,-3.84012,-0.292115,-0.201975,1.13019,0.12562,
2,0,0,1,0,24457.1,0.124449,0.124064,-0.145819,13,0.00682558,10,-1.80909e-05,-3.83619,-0.396048,-0.148972,0.842925,0.124064,
2,0,0,1,0,24458.6,0.122951,0.122622,-0.146797,13,0.00658547,10,-1.80006e-05,-3.83328,-0.656022,-0.0899361,0.511618,0.122622,
2,0,0,1,0,24460.1,0.121453,0.121094,-0.147093,13,0.00634426,10,-1.78121e-05,-3.83241,-1.58716,-0.0371733,0.212932,0.121094,
2,0,0,1,0,24461.6,0.119955,0.119633,-0.146917,13,0.0061032,10,-1.75762e-05,-3.83293,-10.7416,-0.00549268,0.0315572,0.119633,
2,0,0,1,0,24463.1,0.118456,0.118139,-0.14773,13,0.00586144,10,-1.74527e-05,-3.83053,-1.84638,-0.0319545,0.182904,0.118139,
2,0,0,1,0,24464.6,0.116958,0.116609,-0.146742,13,0.00561927,10,-1.71115e-05,-3.83345,4.53921,0.0129979,-0.0748273,0.116609,
2,0,0,1,0,24466.1,0.11546,0.115145,-0.146762,13,0.00537752,10,-1.68988e-05,-3.83339,1.57113,0.0375527,-0.215363,0.115145,
2,0,0,1,0,24467.6,0.113962,0.113636,-0.14586,13,0.00513633,10,-1.65749e-05,-3.83606,1.54952,0.0380764,-0.218539,0.113636,
2,0,0,1,0,24469.1,0.112464,0.112165,-0.146456,13,0.00489611,10,-1.64272e-05,-3.83429,1.09977,0.0536477,-0.306237,0.112165,
2,0,0,1,0,24470.6,0.110965,0.110607,-0.146513,13,0.00465564,10,-1.62054e-05,-3.83412,1.39162,0.0423967,-0.241496,0.110607,
2,0,0,1,0,24472.1,0.109467,0.109161,-0.145214,13,0.0044162,10,-1.58517e-05,-3.83799,0.653317,0.0903084,-0.51191,0.109161,
2,0,0,1,0,24473.6,0.107969,0.107633,-0.144339,13,0.00417779,10,-1.55356e-05,-3.84062,0.930238,0.0634246,-0.358497,0.107633,
2,0,0,1,0,24475.1,0.106471,0.10613,-0.143774,13,0.00394056,10,-1.52588e-05,-3.84232,1.71386,0.0344253,-0.194638,0.10613,
2,0,0,1,0,24476.6,0.104973,0.104662,-0.143785,13,0.00370365,10,-1.50489e-05,-3.84229,1.31437,0.0448885,-0.252237,0.104662,
2,0,0,1,0,24478.1,0.103474,0.103117,-0.14328,13,0.00346729,10,-1.47746e-05,-3.84382,0.664886,0.088737,-0.494845,0.103117,
2,0,0,1,0,24479.6,0.101976,0.101609,-0.142391,13,0.00323253,10,-1.44683e-05,-3.84652,0.919381,0.0641736,-0.356339,0.101609,
2,0,0,1,0,24481.1,0.100478,0.100134,-0.141926,13,0.00299927,10,-1.42117e-05,-3.84794,0.531126,0.111085,-0.612312,0.100134,
2,0,0,1,0,24482.6,0.0989798,0.0986562,-0.141337,13,0.0027668,10,-1.39438e-05,-3.84974,0.650339,0.0907219,-0.496667,0.0986562,
2,0,0,1,0,24484.1,0.0974816,0.0971429,-0.139786,13,0.00253571,10,-1.35792e-05,-3.85454,0.478471,0.123309,-0.669994,0.0971429,
2,0,0,1,0,24485.6,0.0959834,0.0956414,-0.138523,13,0.00230627,10,-1.32486e-05,-3.85848,0.409383,0.144119,-0.778947,0.0956414,
2,0,0,1,0,24487.1,0.0944852,0.0941961,-0.136961,13,0.0020793,10,-1.29012e-05,-3.8634,0.388895,0.151712,-0.815003,0.0941961,
2,0,0,1,0,24488.6,0.0929871,0.0926501,-0.135881,13,0.00185379,10,-1.25894e-05,-3.86684,0.510784,0.115509,-0.613473,0.0926501,
2,0,0,1,0,24490.1,0.0914889,0.091158,-0.135164,13,0.00162946,10,-1.23213e-05,-3.86914,0.404174,0.145977,-0.769907,0.091158,
2,0,0,1,0,24491.6,0.0899907,0.0896576,-0.133426,13,0.0014073,10,-1.19626e-05,-3.87476,0.319213,0.184829,-0.965129,0.0896576,
2,0,0,1,0,24493.1,0.0884925,0.0881666,-0.131769,13,0.00118727,10,-1.16177e-05,-3.88019,0.390066,0.151256,-0.782276,0.0881666,
2,0,0,1,0,24494.6,0.0869943,0.0866323,-0.131432,13,0.000969202,10,-1.13862e-05,-3.8813,0.493498,0.119555,-0.613913,0.0866323,
2,0,0,1,0,24496.1,0.0854961,0.0851424,-0.130865,13,0.000752484,10,-1.11422e-05,-3.88318,0.575598,0.102502,-0.520378,0.0851424,
2,0,0,1,0,24497.6,0.083998,0.0836812,-0.129544,13,0.000536999,10,-1.08404e-05,-3.88758,0.409966,0.143914,-0.7242,0.0836812,
2,0,0,1,0,24499.1,0.0824998,0.0821627,-0.128166,13,0.000323201,10,-1.05305e-05,-3.89223,0.417241,0.141405,-0.709322,0.0821627,
2,0,0,1,0,24500.6,0.0810016,0.0806983,-0.127312,13,0.00011136,10,-1.02738e-05,-3.89513,0.47973,0.122986,-0.61134,0.0806983,
2,0,0,1,0,24502.1,0.0795034,0.0792062,-0.12635,13,-9.9396e-05,10,-1.00077e-05,-3.89842,0.582995,0.101202,-0.499895,0.0792062,
2,0,0,1,0,24503.6,0.0780052,0.0776708,-0.12576,13,-0.000308774,10,-9.76791e-06,-3.90046,0.417003,0.141486,-0.694108,0.0776708,
2,0,0,1,0,24505.1,0.076507,0.0761947,-0.125118,13,-0.00051682,10,-9.53332e-06,-3.90268,0.579878,0.101746,-0.494249,0.0761947,
2,0,0,1,0,24506.6,0.0750088,0.0747016,-0.123872,13,-0.000723306,10,-9.25345e-06,-3.90703,0.700306,0.0842488,-0.406713,0.0747016,
2,0,0,1,0,24508.1,0.0735106,0.073199,-0.12327,13,-0.000928831,10,-9.02326e-06,-3.90914,0.716477,0.0823474,-0.395546,0.073199,
2,0,0,1,0,24509.6,0.0720124,0.0717091,-0.122231,13,-0.00113335,10,-8.76506e-06,-3.91282,0.969706,0.0608432,-0.29086,0.0717091,
2,0,0,1,0,24511.1,0.0705142,0.0701927,-0.121539,13,-0.0013367,10,-8.53116e-06,-3.91528,0.697916,0.0845374,-0.403405,0.0701927,
2,0,0,1,0,24512.6,0.069016,0.0686901,-0.12108,13,-0.00153879,10,-8.31701e-06,-3.91693,0.590098,0.0999834,-0.473813,0.0686901,
2,0,0,1,0,24514.1,0.0675178,0.0672108,-0.120422,13,-0.00174002,10,-8.09363e-06,-3.9193,4.72522,0.0124862,-0.0586959,0.0672108,
2,0,0,1,0,24515.6,0.0660196,0.0657125,-0.120474,13,-0.00194054,10,-7.91662e-06,-3.91911,0.58584,0.10071,-0.46885,0.0657125,
2,0,0,1,0,24517.1,0.0645214,0.0642162,-0.119442,13,-0.00214031,10,-7.67009e-06,-3.92284,0.555439,0.106222,-0.492529,0.0642162,
2,0,0,1,0,24518.6,0.0630233,0.0626841,-0.118062,13,-0.00233836,10,-7.40058e-06,-3.92789,0.588707,0.10022,-0.462827,0.0626841,
2,0,0,1,0,24520.1,0.0615251,0.0612111,-0.117631,13,-0.00253548,10,-7.2003e-06,-3.92948,1.05716,0.0558099,-0.256591,0.06121112,
2,0,0,1,0,24521.6,0.0600269,0.0596746,-0.117287,13,-0.00273172,10,-6.99904e-06,-3.93075,0.638367,0.0924234,-0.424339,0.0596746,
2,0,0,1,0,24523.1,0.0585287,0.0581911,-0.116591,13,-0.00292742,10,-6.78456e-06,-3.93334,0.617286,0.0955796,-0.434893,0.0581911,
2,0,0,1,0,24524.6,0.0570305,0.0566779,-0.116429,13,-0.00312232,10,-6.59896e-06,-3.93394,0.883484,0.0667811,-0.303807,0.0566779,
2,0,0,1,0,24526.1,0.0555323,0.0552335,-0.115377,13,-0.00331589,10,-6.37269e-06,-3.93788,2.04228,0.0288892,-0.130977,0.0552335,
2,0,0,1,0,24527.6,0.0540342,0.0537141,-0.115343,13,-0.00350912,10,-6.19556e-06,-3.93801,0.784001,0.075255,-0.33789,0.0537141,
2,0,0,1,0,24529.1,0.052536,0.0521659,-0.114728,13,-0.00370159,10,-5.98487e-06,-3.94033,0.575638,0.102495,-0.457669,0.0521659,
2,0,0,1,0,24530.6,0.0510378,0.0507301,-0.114114,13,-0.00389313,10,-5.78901e-06,-3.94266,0.870288,0.0677937,-0.301274,0.0507301,
2,0,0,1,0,24532.1,0.0495396,0.0491978,-0.113375,13,-0.00408318,10,-5.57781e-06,-3.94548,1.21926,0.04839,-0.214345,0.0491978,
2,0,0,1,0,24533.6,0.0480414,0.0477144,-0.112745,13,-0.00427306,10,-5.37954e-06,-3.9479,3.18712,0.018512,-0.0814766,0.0477144,
2,0,0,1,0,24535.1,0.0465432,0.0461915,-0.112118,13,-0.00446199,10,-5.17889e-06,-3.95033,0.782477,0.0754016,-0.332538,0.04619154,
2,0,0,1,0,24536.5,0.045045,0.0447239,-0.112104,13,-0.00465008,10,-5.01372e-06,-3.95038,0.646477,0.0912639,-0.399475,0.0447239,
2,0,0,1,0,24538,0.0435468,0.0432287,-0.110684,13,-0.00483707,10,-4.78473e-06,-3.95591,0.61765,0.0955234,-0.416049,0.0432287,
2,0,0,1,0,24539.5,0.0420486,0.0417028,-0.111166,13,-0.0050232,10,-4.63595e-06,-3.95403,0.731102,0.0807001,-0.348671,0.0417028,
2,0,0,1,0,24541,0.0405504,0.040213,-0.111011,13,-0.00520889,10,-4.46407e-06,-3.95464,0.798417,0.0738963,-0.317581,0.040213,
2,0,0,1,0,24542.5,0.0390522,0.0386902,-0.10954,13,-0.00539384,10,-4.23813e-06,-3.96043,0.723712,0.0815242,-0.34943,0.0386902,
2,0,0,1,0,24544,0.037554,0.0371865,-0.108582,13,-0.00557741,10,-4.03777e-06,-3.96424,0.446389,0.132172,-0.563487,0.0371865,
2,0,0,1,0,24545.5,0.0360558,0.0357178,-0.108871,13,-0.00576009,10,-3.88863e-06,-3.96309,0.800359,0.073717,-0.313389,0.0357178,
2,0,0,1,0,24547,0.0345576,0.0342767,-0.108284,13,-0.00594218,10,-3.71162e-06,-3.96544,0.939835,0.062777,-0.264725,0.03427672,
2,0,0,1,0,24548.5,0.0330594,0.0327317,-0.108228,13,-0.00612389,10,-3.5425e-06,-3.96566,0.454239,0.129887,-0.544663,0.0327317,
2,0,0,1,0,24550,0.0315613,0.0312409,-0.107173,13,-0.00630458,10,-3.34819e-06,-3.96991,0.762922,0.0773343,-0.324698,0.0312409,
2,0,0,1,0,24551.5,0.0300631,0.0297287,-0.106485,13,-0.00648394,10,-3.16565e-06,-3.97271,0.919301,0.0641792,-0.267299,0.0297287,
2,0,0,1,0,24553,0.0285649,0.0282547,-0.10622,13,-0.00666324,10,-3.00121e-06,-3.97379,1.27312,0.0463429,-0.191891,0.0282547,
2,0,0,1,0,24554.5,0.0270667,0.0267394,-0.106302,13,-0.00684188,10,-2.84247e-06,-3.97346,0.698873,0.0844216,-0.348448,0.0267394,
2,0,0,1,0,24556,0.0255685,0.0252336,-0.105796,13,-0.00702005,10,-2.66962e-06,-3.97553,1.70625,0.0345787,-0.142624,0.0252336,
2,0,0,1,0,24557.5,0.0240703,0.0237681,-0.105031,13,-0.00719732,10,-2.49639e-06,-3.97868,1.3779,0.0428189,-0.176064,0.0237681,
2,0,0,1,0,24559,0.0225722,0.0223006,-0.105103,13,-0.00737437,10,-2.34387e-06,-3.97838,-21.4377,-0.00275216,0.0112898,0.0223006,
2,0,0,1,0,24560.5,0.021074,0.0207493,-0.104383,13,-0.0075511,10,-2.16587e-06,-3.98137,2.41705,0.0244099,-0.0997169,0.0207493,
2,0,0,1,0,24562,0.0195758,0.0192562,-0.104442,13,-0.00772734,10,-2.01116e-06,-3.98112,7.04523,0.00837446,-0.0343468,0.0192562,
2,0,0,1,0,24563.5,0.0180776,0.0177462,-0.104039,13,-0.00790307,10,-1.84629e-06,-3.98281,-4.49275,-0.0131323,0.0534763,0.01774619,
2,0,0,1,0,24565,0.0165794,0.0162679,-0.104971,13,-0.00807905,10,-1.70767e-06,-3.97893,27.6929,0.00213051,-0.00869334,0.0162679,
2,0,0,1,0,24566.5,0.0150812,0.0147378,-0.105526,13,-0.00825532,10,-1.55521e-06,-3.97664,-1.51155,-0.0390327,0.159938,0.0147378,
2,0,0,1,0,24568,0.013583,0.01325,-0.105041,13,-0.0084317,10,-1.39179e-06,-3.97864,-2.20285,-0.0267835,0.109585,0.01325,
2,0,0,1,0,24569.5,0.0120848,0.0117548,-0.105025,13,-0.00860806,10,-1.23455e-06,-3.97871,-3.27872,-0.0179948,0.0736795,0.0117548,
2,0,0,1,0,24571,0.0105866,0.0102883,-0.10523,13,-0.00878448,10,-1.08264e-06,-3.97786,-0.909777,-0.064851,0.266621,0.0102883,
2,0,0,1,0,24572.5,0.00908843,0.00873792,-0.10546,13,-0.00896178,10,-9.21503e-07,-3.97691,-1.06524,-0.0553867,0.228266,0.00873792,
2,0,0,1,0,24574,0.00759024,0.00723218,-0.106025,13,-0.00913957,10,-7.6679e-07,-3.97459,-2.60623,-0.0226381,0.0936367,0.00723218,
2,0,0,1,0,24575.5,0.00609203,0.00575293,-0.106463,13,-0.00931797,10,-6.12477e-07,-3.9728,-0.489742,-0.120472,0.502562,0.00575293,
2,0,0,1,0,24577,0.00459384,0.00431604,-0.106951,13,-0.00949664,10,-4.61606e-07,-3.97081,-1.10167,-0.0535552,0.224022,0.00431604,
2,0,0,1,0,24578.5,0.00309563,0.0027307,-0.1086,13,-0.00967694,10,-2.96554e-07,-3.96417,-0.417131,-0.141442,0.594256,0.0027307,
2,0,0,1,0,24580,0.00159744,0.00123339,-0.109167,13,-0.00986052,10,-1.34645e-07,-3.96191, , , ,0.00123339,
2,0,0,1,0,24581.4,0.000199235,-0.00014971,-0.109446,13,-0.0100309,10,1.63851e-08,-3.9608, , , ,-0.00014971,