File: Figure_codes/Fig_3-5/rawdata_trumpetplot_data/after 10th/20221101_1-115_003_TrumpetPlot_ParaChange_from10_every3_08_CV_C01_7.csv
mode,ox/red,error,control changes,counter inc.,time/s,control/V,Ewe/V,<I>/mA,cycle number,(Q-Qo)/C,I Range,P/W,log(|I|),Tafel slope mV/dec,alpha_eff,dI/d(E-IR),E-IR/V,
2,0,0,0,0,14965.9,2.44065e-05,-0.000248974,-4.01481,8,0.0000000E+000,10,9.99583e-07,-2.39634, , , ,-0.000248974,
2,0,0,1,0,14965.9,0.0012943,0.000887744,-1.91549,8,-4.40754e-05,10,-1.70047e-06,-2.71772, , , ,0.000887744,
2,0,0,1,0,14966,0.00279784,0.00245256,-0.406688,8,-6.4479e-05,10,-9.97429e-07,-3.39074,-0.00778233,-7.58128,832.069,0.002452563,
2,1,0,1,0,14966,0.00429425,0.00398644,0.530469,8,-6.23601e-05,10,2.11468e-06,-3.27534,0.0191323,3.08379,533.174,0.00398644,
2,1,0,1,0,14966,0.00579065,0.00545881,1.16551,8,-4.57645e-05,10,6.36233e-06,-2.93348,0.00483818,12.1947,374.717,0.00545881,
2,1,0,1,0,14966,0.0072942,0.00699603,1.63474,8,-1.88621e-05,10,1.14367e-05,-2.78655,0.0122492,4.81662,276.293,0.00699603,
2,1,0,1,0,14966,0.00878347,0.00844326,1.99036,8,1.52684e-05,10,1.68051e-05,-2.70107,0.0206063,2.8632,210.477,0.008443255,
2,1,0,1,0,14966.1,0.010287,0.00997467,2.26091,8,5.5505e-05,10,2.25519e-05,-2.64572,0.0319941,1.84409,157.399,0.00997467,
2,1,0,1,0,14966.1,0.0117905,0.0114625,2.47261,8,0.00010027,10,2.83421e-05,-2.60685,0.0433253,1.36179,128.622,0.0114625,
2,1,0,1,0,14966.1,0.013278,0.0129298,2.63497,8,0.000147926,10,3.40697e-05,-2.57922,0.0575146,1.02583,104.579,0.0129298,
2,1,0,1,0,14966.1,0.0147816,0.0144953,2.78581,8,0.000199101,10,4.03812e-05,-2.55505,0.0688819,0.856539,92.2786,0.0144953,
2,1,0,1,0,14966.1,0.0162851,0.0159609,2.91188,8,0.000252907,10,4.64763e-05,-2.53583,0.084015,0.702255,79.1488,0.01596093,
2,1,0,1,0,14966.2,0.0177744,0.0174572,3.02216,8,0.000308289,10,5.27586e-05,-2.51968,0.0986418,0.598124,70.1106,0.0174572,
2,1,0,1,0,14966.2,0.0192779,0.0189188,3.10889,8,0.000366109,10,5.88165e-05,-2.50739,0.108169,0.545444,66.1133,0.0189188,
2,1,0,1,0,14966.2,0.0207743,0.0204252,3.20619,8,0.000425447,10,6.54871e-05,-2.49401,0.121111,0.487158,60.7766,0.0204252,
2,1,0,1,0,14966.2,0.0222707,0.0219826,3.29445,8,0.000486446,10,7.24207e-05,-2.48222,0.126821,0.465223,59.7214,0.0219826,
2,1,0,1,0,14966.2,0.0237743,0.0235072,3.36842,8,0.000549382,10,7.91822e-05,-2.47257,0.146318,0.403233,52.9775,0.0235072,
2,1,0,1,0,14966.2,0.0252636,0.0249776,3.44068,8,0.000613122,10,8.59401e-05,-2.46336,0.150688,0.391539,52.7182,0.0249776,
2,1,0,1,0,14966.3,0.0267671,0.0264334,3.52232,8,0.000678903,10,9.3107e-05,-2.45317,0.162911,0.362162,49.8461,0.0264334,
2,1,0,1,0,14966.3,0.0282706,0.0279525,3.60345,8,0.000746205,10,0.000100726,-2.44328,0.168372,0.350415,49.2634,0.0279525,
2,1,0,1,0,14966.3,0.0297581,0.0294376,3.67651,8,0.000814173,10,0.000108228,-2.43456,0.179365,0.328938,47.1067,0.0294376,
2,1,0,1,0,14966.3,0.0312617,0.030909,3.74185,8,0.000884225,10,0.000115657,-2.42691,0.190159,0.310266,45.3956,0.030909,
2,1,0,1,0,14966.3,0.0327652,0.0324728,3.82,8,0.000955551,10,0.000124046,-2.41794,0.198588,0.297098,44.2897,0.0324728,
2,1,0,1,0,14966.4,0.0342545,0.0339361,3.8933,8,0.00102747,10,0.000132123,-2.40968,0.196311,0.300543,45.6166,0.0339361,
2,1,0,1,0,14966.4,0.035758,0.0354129,3.96889,8,0.00110154,10,0.00014055,-2.40133,0.208295,0.283252,43.7427,0.0354129,
2,1,0,1,0,14966.4,0.0372544,0.0369479,4.03692,8,0.00117655,10,0.000149156,-2.39395,0.203406,0.29006,45.6274,0.0369479,
2,1,0,1,0,14966.4,0.0387508,0.0384226,4.1075,8,0.00125279,10,0.000157821,-2.38642,0.201208,0.293229,46.9899,0.0384226,
2,1,0,1,0,14966.4,0.0402544,0.0399581,4.17256,8,0.00133078,10,0.000166728,-2.3796,0.201034,0.293483,47.8339,0.0399581,
2,1,0,1,0,14966.5,0.0417437,0.0414319,4.25309,8,0.00140933,10,0.000176214,-2.3713,0.198175,0.297717,49.2608,0.0414319,
2,1,0,1,0,14966.5,0.0432472,0.0429807,4.3212,8,0.00149005,10,0.000185728,-2.3644,0.21301,0.276983,46.5885,0.0429807,
2,1,0,1,0,14966.5,0.0447507,0.0444334,4.37345,8,0.00157199,10,0.000194327,-2.35918,0.210751,0.279951,47.8443,0.0444334,
2,1,0,1,0,14966.5,0.0462382,0.0459113,4.44705,8,0.00165428,10,0.00020417,-2.35193,0.217957,0.270696,46.9336,0.04591132,
2,1,0,1,0,14966.5,0.0477418,0.0474257,4.51232,8,0.00173875,10,0.000214,-2.3456,0.217407,0.27138,47.8185,0.0474257,
2,1,0,1,0,14966.5,0.0492453,0.0489544,4.57669,8,0.00182451,10,0.000224049,-2.33945,0.236342,0.249639,44.5848,0.0489544,
2,1,0,1,0,14966.6,0.0507346,0.050405,4.63778,8,0.00191057,10,0.000233767,-2.33369,0.25375,0.232512,42.1889,0.050405,
2,1,0,1,0,14966.6,0.0522381,0.0519545,4.70932,8,0.00199876,10,0.000244671,-2.32704,0.250193,0.235818,43.3881,0.0519545,
2,1,0,1,0,14966.6,0.0537345,0.0534413,4.7862,8,0.00208777,10,0.000255781,-2.32001,0.255459,0.230956,43.0684,0.0534413,
2,1,0,1,0,14966.6,0.0552309,0.0549335,4.8514,8,0.00217804,10,0.000266504,-2.31413,0.284311,0.20752,39.181,0.0549335,
2,1,0,1,0,14966.6,0.0567345,0.0564294,4.912,8,0.00226997,10,0.000277181,-2.30874,0.291992,0.202061,38.6617,0.0564294,
2,1,0,1,0,14966.7,0.0582237,0.0579084,4.97535,8,0.00236201,10,0.000288115,-2.30318,0.298067,0.197942,38.4078,0.0579084,
2,1,0,1,0,14966.7,0.0597273,0.0593999,5.03664,8,0.00245616,10,0.000299176,-2.29786,0.280481,0.210353,41.2719,0.0593999,
2,1,0,1,0,14966.7,0.0612308,0.0609249,5.09593,8,0.00255155,10,0.000310469,-2.29278,0.283563,0.208067,41.2975,0.0609249,
2,1,0,1,0,14966.7,0.0627183,0.0624014,5.1538,8,0.00264705,10,0.000321605,-2.28787,0.296353,0.199087,40.0384,0.0624014,
2,1,0,1,0,14966.7,0.0642219,0.0639669,5.21222,8,0.00274459,10,0.00033341,-2.28298,0.285034,0.206993,42.1066,0.0639669,
2,1,0,1,0,14966.8,0.0657254,0.0654192,5.26832,8,0.0028433,10,0.000344649,-2.27833,0.274249,0.215133,44.2009,0.0654192,
2,1,0,1,0,14966.8,0.0672147,0.0669026,5.33176,8,0.0029421,10,0.000356708,-2.27313,0.287604,0.205143,42.6166,0.0669026,
2,1,0,1,0,14966.8,0.0687182,0.0684016,5.38006,8,0.00304304,10,0.000368005,-2.26921,0.332989,0.177183,37.1946,0.0684016,
2,1,0,1,0,14966.8,0.0702146,0.0698778,5.42802,8,0.00314444,10,0.000379298,-2.26536,0.342689,0.172168,36.5237,0.0698778,
2,1,0,1,0,14966.8,0.071711,0.0713864,5.48836,8,0.00324678,10,0.000391794,-2.26056,0.347171,0.169945,36.4131,0.0713864,
2,1,0,1,0,14966.8,0.0732146,0.0729206,5.54001,8,0.00335074,10,0.00040398,-2.25649,0.379715,0.15538,33.5784,0.0729206,
2,1,0,1,0,14966.9,0.0747038,0.0744111,5.59041,8,0.00345458,10,0.000415988,-2.25256,0.404643,0.145807,31.8133,0.0744111,
2,1,0,1,0,14966.9,0.0762074,0.075875,5.63294,8,0.00356038,10,0.000427399,-2.24926,0.428028,0.137842,30.3589,0.075875,
2,1,0,1,0,14966.9,0.0777109,0.0773761,5.69264,8,0.00366713,10,0.000440474,-2.24469,0.414515,0.142335,31.6131,0.0773761,
2,1,0,1,0,14966.9,0.0791984,0.0788461,5.74418,8,0.00377369,10,0.000452906,-2.24077,0.412744,0.142946,32.0335,0.0788461,
2,1,0,1,0,14966.9,0.0807019,0.0803571,5.79166,8,0.00388234,10,0.000465401,-2.2372,0.465721,0.126685,28.5814,0.0803571,
2,1,0,1,0,14967,0.0822055,0.0819066,5.83604,8,0.00399187,10,0.00047801,-2.23388,0.482228,0.122349,27.8348,0.0819066,
2,1,0,1,0,14967,0.0836947,0.0833756,5.88265,8,0.00410092,10,0.00049047,-2.23043,0.484346,0.121814,27.9427,0.08337564,
2,1,0,1,0,14967,0.0851983,0.0848645,5.92714,8,0.00421202,10,0.000503003,-2.22715,0.44458,0.132709,30.6575,0.0848645,
2,1,0,1,0,14967,0.0866947,0.0863584,5.96755,8,0.00432338,10,0.000515348,-2.2242,0.449878,0.131147,30.5231,0.0863584,
2,1,0,1,0,14967,0.0881911,0.0878837,6.01584,8,0.00443557,10,0.000528694,-2.2207,0.428696,0.137627,32.2791,0.0878837,
2,1,0,1,0,14967.1,0.0896946,0.0893571,6.05968,8,0.00454918,10,0.000541476,-2.21755,0.402869,0.14645,34.636,0.0893571,
2,1,0,1,0,14967.1,0.0911839,0.0908705,6.10553,8,0.00466251,10,0.000554812,-2.21428,0.337095,0.175025,41.7524,0.0908705,
2,1,0,1,0,14967.1,0.0926857,0.0923791,6.16399,8,0.00477815,10,0.000569423,-2.21014,0.337479,0.174825,42.097,0.0923791,
2,1,0,1,0,14967.1,0.0941892,0.0938801,6.22125,8,0.00489494,10,0.000584052,-2.20612,0.373361,0.158024,38.3955,0.0938801,
2,1,0,1,0,14967.1,0.0956785,0.0953315,6.27597,8,0.00501152,10,0.000598298,-2.20232,0.348117,0.169483,41.6119,0.0953315,
2,1,0,1,0,14967.1,0.097182,0.0968336,6.34287,8,0.00513044,10,0.000614203,-2.19771,0.324039,0.182077,45.1396,0.0968336,
2,1,0,1,0,14967.2,0.0986856,0.0983697,6.41343,8,0.00525074,10,0.000630888,-2.19291,0.310421,0.190064,47.6353,0.0983697,
2,1,0,1,0,14967.2,0.100175,0.0998804,6.49703,8,0.00537109,10,0.000648926,-2.18728,0.2988,0.197457,50.0876,0.0998804,
2,1,0,1,0,14967.2,0.101678,0.101404,6.57143,8,0.00549418,10,0.000666369,-2.18234,0.27808,0.212169,54.5231,0.101404,
2,1,0,1,0,14967.2,0.103175,0.10288,6.67837,8,0.00561826,10,0.000687071,-2.17533,0.243627,0.242174,63.1279,0.10288,
2,1,0,1,0,14967.2,0.104671,0.104336,6.78074,8,0.00574417,10,0.000707473,-2.16872,0.230919,0.255501,67.5718,0.104336,
2,1,0,1,0,14967.3,0.106175,0.105865,6.88579,8,0.0058728,10,0.000728964,-2.16205,0.233959,0.25218,67.6424,0.105865,
2,1,0,1,0,14967.3,0.107662,0.107358,6.98513,8,0.00600199,10,0.000749911,-2.15583,0.22401,0.263381,71.8628,0.107358,
2,1,0,1,0,14967.3,0.109166,0.108861,7.08974,8,0.00613443,10,0.000771798,-2.14937,0.218171,0.27043,74.9191,0.108861,
2,1,0,1,0,14967.3,0.110669,0.11035,7.20538,8,0.00626908,10,0.000795111,-2.14234,0.208874,0.282467,79.4358,0.11035,
2,1,0,1,0,14967.3,0.112159,0.111829,7.3257,8,0.00640444,10,0.000819228,-2.13515,0.220941,0.26704,76.2646,0.111829,
2,1,0,1,0,14967.4,0.113662,0.11333,7.43091,8,0.00654339,10,0.000842148,-2.12896,0.224548,0.262751,76.1899,0.11333,
2,1,0,1,0,14967.4,0.115166,0.114811,7.5383,8,0.00668437,10,0.00086548,-2.12273,0.23069,0.255755,75.283,0.114811,
2,1,0,1,0,14967.4,0.116655,0.116356,7.64778,8,0.00682591,10,0.000889868,-2.11646,0.239311,0.246541,73.5874,0.116356,
2,1,0,1,0,14967.4,0.118158,0.117851,7.75716,8,0.00697105,10,0.000914186,-2.1103,0.256298,0.230201,69.6432,0.117851,
2,1,0,1,0,14967.4,0.119655,0.119349,7.85983,8,0.0071174,10,0.000938064,-2.10459,0.288284,0.20466,62.7143,0.119349,
2,1,0,1,0,14967.4,0.121151,0.12084,7.94309,8,0.0072654,10,0.000959845,-2.10001,0.320052,0.184345,57.1866,0.12084,
2,1,0,1,0,14967.5,0.122655,0.122369,8.0324,8,0.0074159,10,0.000982919,-2.09515,0.338431,0.174334,54.6258,0.122369,
2,1,0,1,0,14967.5,0.124142,0.123801,8.11897,8,0.0075664,10,0.00100513,-2.0905,0.368073,0.160294,50.7627,0.123801,
2,1,0,1,0,14967.5,0.125646,0.125332,8.1975,8,0.00771996,10,0.00102741,-2.08632,0.407126,0.144918,46.3274,0.125332,
2,1,0,1,0,14967.5,0.127149,0.126831,8.26027,8,0.00787493,10,0.00104766,-2.08301,0.425496,0.138662,44.695,0.126831,
2,1,0,1,0,14967.5,0.128639,0.128304,8.34132,8,0.0080295,10,0.00107022,-2.07877,0.467823,0.126116,41.0043,0.128304,
2,1,0,1,0,14967.6,0.130142,0.129818,8.40228,8,0.00818695,10,0.00109077,-2.0756,0.457538,0.128951,42.2291,0.129818,
2,1,0,1,0,14967.6,0.131646,0.131334,8.45997,8,0.00834565,10,0.00111108,-2.07263,0.488591,0.120755,39.8218,0.131334,
2,1,0,1,0,14967.6,0.133135,0.132808,8.52269,8,0.00850374,10,0.00113189,-2.06942,0.535943,0.110086,36.5714,0.132808,
2,1,0,1,0,14967.6,0.134639,0.134339,8.57169,8,0.00866448,10,0.00115152,-2.06693,0.555174,0.106273,35.5293,0.134339,
2,1,0,1,0,14967.6,0.136135,0.135849,8.62067,8,0.00882538,10,0.00117111,-2.06446,0.528802,0.111573,37.5223,0.135849,
2,1,0,1,0,14967.7,0.137631,0.137279,8.66949,8,0.00898723,10,0.00119014,-2.06201,0.608428,0.0969712,32.7805,0.137279,
2,1,0,1,0,14967.7,0.139135,0.13884,8.70742,8,0.00915086,10,0.00120894,-2.06011,0.795956,0.0741247,25.1659,0.13884,
2,1,0,1,0,14967.7,0.140622,0.140264,8.7287,8,0.00931334,10,0.00122432,-2.05905,1.12607,0.0523947,17.8482,0.140264,
2,1,0,1,0,14967.7,0.142126,0.141822,8.75195,8,0.00947804,10,0.00124122,-2.0579,2.08029,0.0283615,9.67728,0.141822,
2,1,0,1,0,14967.7,0.143629,0.143317,8.76033,8,0.00964302,10,0.0012555,-2.05748,-3.3645,-0.017536,-5.98354,0.143317,
2,1,0,1,0,14967.7,0.145119,0.144839,8.7435,8,0.00980614,10,0.0012664,-2.05831,-0.761096,-0.0775198,-26.3757,0.144839,
2,1,0,1,0,14967.8,0.146622,0.146326,8.68754,8,0.00997033,10,0.00127121,-2.0611,-0.444513,-0.132729,-44.9046,0.1463256,
2,1,0,1,0,14967.8,0.148126,0.147823,8.61343,8,0.0101333,10,0.00127326,-2.06482,-0.298278,-0.197802,-66.3097,0.147823,
2,1,0,1,0,14967.8,0.149615,0.149283,8.50587,8,0.0102928,10,0.00126978,-2.07028,-0.225822,-0.261268,-86.4024,0.149283,
2,1,0,1,0,14967.8,0.151119,0.150831,8.35992,8,0.0104516,10,0.00126093,-2.0778,-0.173638,-0.339787,-110.397,0.150831,
2,1,0,1,0,14967.8,0.152615,0.152299,8.18457,8,0.0106065,10,0.0012465,-2.087,-0.138635,-0.425577,-135.264,0.152299,
2,1,0,1,0,14967.9,0.154111,0.153794,7.96278,8,0.0107575,10,0.00122463,-2.09894,-0.118781,-0.496714,-153.706,0.153794,
2,1,0,1,0,14967.9,0.155615,0.155341,7.71498,8,0.010905,10,0.00119845,-2.11267,-0.102319,-0.576627,-172.879,0.155341,
2,1,0,1,0,14967.9,0.157103,0.156769,7.44062,8,0.0110461,10,0.00116646,-2.12839,-0.0917502,-0.64305,-186.018,0.156769,
2,1,0,1,0,14967.9,0.158606,0.158292,7.14162,8,0.0111834,10,0.00113046,-2.1462,-0.0829818,-0.710999,-197.696,0.158292,
2,1,0,1,0,14967.9,0.16011,0.159809,6.83725,8,0.0113149,10,0.00109265,-2.16512,-0.0799591,-0.737877,-196.66,0.159809,
2,1,0,1,0,14968,0.161599,0.161289,6.53543,8,0.0114395,10,0.00105409,-2.18473,-0.0777013,-0.759318,-193.631,0.161289,
2,1,0,1,0,14968,0.163102,0.162802,6.24231,8,0.0115598,10,0.00101626,-2.20465,-0.0748342,-0.788409,-192.262,0.162802,
2,1,0,1,0,14968,0.164606,0.164307,5.96002,8,0.0116748,10,0.000979274,-2.22475,-0.07763,-0.760015,-177.225,0.164307,
2,1,0,1,0,14968,0.166095,0.165783,5.70167,8,0.0117834,10,0.00094524,-2.244,-0.0795942,-0.74126,-165.606,0.165783,
2,1,0,1,0,14968,0.167599,0.167316,5.469,8,0.0118887,10,0.000915048,-2.26209,-0.0860123,-0.685949,-146.968,0.167316,
2,1,0,1,0,14968,0.169095,0.16877,5.26263,8,0.0119893,10,0.000888176,-2.2788,-0.0926691,-0.636674,-131.225,0.16877,
2,1,0,1,0,14968.1,0.170592,0.170286,5.0788,8,0.0120863,10,0.000864849,-2.29424,-0.0948097,-0.622299,-123.781,0.170286,
2,1,0,1,0,14968.1,0.172095,0.171786,4.90787,8,0.0121804,10,0.000843104,-2.30911,-0.10175,-0.579852,-111.417,0.171786,
2,1,0,1,0,14968.1,0.173583,0.173241,4.76332,8,0.0122705,10,0.000825204,-2.32209,-0.114059,-0.517274,-96.3166,0.173241,
2,1,0,1,0,14968.1,0.175086,0.174792,4.63388,8,0.0123589,10,0.000809965,-2.33406,-0.123647,-0.477163,-86.3383,0.174792,
2,1,0,1,0,14968.1,0.17659,0.176272,4.51201,8,0.012445,10,0.000795341,-2.34563,-0.133264,-0.44273,-77.9895,0.1762719,
2,1,0,1,0,14968.2,0.178079,0.177815,4.40794,8,0.0125281,10,0.000783795,-2.35576,-0.145617,-0.405173,-69.781,0.177815,
2,1,0,1,0,14968.2,0.179582,0.179201,4.30676,8,0.0126101,10,0.000771776,-2.36585,-0.169061,-0.348987,-58.8021,0.179201,
2,1,0,1,0,14968.2,0.181086,0.180749,4.21575,8,0.0126904,10,0.00076199,-2.37513,-0.187501,-0.314665,-51.8988,0.180749,
2,1,0,1,0,14968.2,0.182575,0.182264,4.14524,8,0.0127683,10,0.000755527,-2.38245,-0.193638,-0.304692,-49.2425,0.182264,
2,1,0,1,0,14968.2,0.184079,0.183775,4.06932,8,0.0128457,10,0.000747839,-2.39048,-0.216958,-0.271943,-43.253,0.183775,
2,1,0,1,0,14968.3,0.185582,0.185283,3.99853,8,0.0129218,10,0.000740859,-2.3981,-0.230904,-0.255518,-39.9717,0.185283,
2,1,0,1,0,14968.3,0.18707,0.186713,3.94041,8,0.0129959,10,0.000735728,-2.40446,-0.267157,-0.220844,-34.0203,0.186713,
2,1,0,1,0,14968.3,0.188573,0.188237,3.88778,8,0.0130697,10,0.000731823,-2.4103,-0.266057,-0.221757,-33.6925,0.188237,
2,1,0,1,0,14968.3,0.19007,0.189767,3.83844,8,0.0131422,10,0.000728407,-2.41585,-0.268825,-0.219474,-32.891,0.189767,
2,1,0,1,0,14968.3,0.191566,0.191237,3.78501,8,0.0132138,10,0.000723834,-2.42193,-0.292311,-0.20184,-29.9033,0.191237,
2,1,0,1,0,14968.3,0.19307,0.192753,3.74669,8,0.0132849,10,0.000722184,-2.42635,-0.314328,-0.187702,-27.4918,0.192753,
2,1,0,1,0,14968.4,0.194559,0.194264,3.71344,8,0.0133545,10,0.000721388,-2.43022,-0.316843,-0.186212,-26.9908,0.194264,
2,1,0,1,0,14968.4,0.196063,0.195798,3.68285,8,0.0134243,10,0.000721095,-2.43382,-0.317229,-0.185986,-26.6876,0.195798,
2,1,0,1,0,14968.4,0.197566,0.197283,3.63861,8,0.0134933,10,0.000717836,-2.43906,-0.347821,-0.169628,-24.1235,0.197283,
2,1,0,1,0,14968.4,0.199055,0.198738,3.61484,8,0.0135609,10,0.000718408,-2.44191,-0.386997,-0.152456,-21.4924,0.198738,
2,1,0,1,0,14968.4,0.200559,0.200269,3.58622,8,0.0136286,10,0.000718207,-2.44536,-0.428651,-0.137641,-19.2302,0.200269,
2,1,0,1,0,14968.5,0.202062,0.201766,3.55984,8,0.013696,10,0.000718255,-2.44857,-0.495092,-0.11917,-16.5108,0.201766,
2,1,0,1,0,14968.5,0.20355,0.203234,3.53008,8,0.013762,10,0.000717432,-2.45222,-0.517785,-0.113947,-15.7148,0.203234,
2,1,0,1,0,14968.5,0.205053,0.204773,3.50268,8,0.0138283,10,0.000717256,-2.4556,-0.886275,-0.0665708,-9.12594,0.204773,
2,1,0,1,0,14968.5,0.20655,0.206223,3.48202,8,0.0138938,10,0.000718075,-2.45817,-0.922265,-0.063973,-8.70723,0.206223,
2,1,0,1,0,14968.5,0.208046,0.207786,3.46693,8,0.0139592,10,0.000720381,-2.46006,-0.664913,-0.0887335,-11.9902,0.207786,
2,1,0,1,0,14968.6,0.20955,0.209258,3.44564,8,0.0140245,10,0.000721028,-2.46273,-0.581964,-0.101381,-13.6434,0.209258,
2,1,0,1,0,14968.6,0.211039,0.210742,3.42168,8,0.0140886,10,0.000721092,-2.46576,-0.585807,-0.100716,-13.4758,0.210742,
2,1,0,1,0,14968.6,0.212543,0.21224,3.4061,8,0.014153,10,0.000722912,-2.46774,-0.756907,-0.0779488,-10.3757,0.21224,
2,1,0,1,0,14968.6,0.214046,0.213736,3.38841,8,0.0142172,10,0.000724226,-2.47,-0.739657,-0.0797667,-10.5633,0.213736,
2,1,0,1,0,14968.6,0.215535,0.215235,3.3764,8,0.0142804,10,0.000726718,-2.47155,-0.653698,-0.0902558,-11.8973,0.215235,
2,1,0,1,0,14968.6,0.217039,0.216743,3.35764,8,0.014344,10,0.000727744,-2.47397,-0.711782,-0.0828906,-10.8897,0.216743,
2,1,0,1,0,14968.7,0.218543,0.21825,3.34811,8,0.0144072,10,0.000730726,-2.4752,-1.1545,-0.0511044,-6.68537,0.21825,
2,1,0,1,0,14968.7,0.22003,0.219759,3.34313,8,0.0144697,10,0.000734684,-2.47585,-0.936637,-0.0629913,-8.20639,0.219759,
2,1,0,1,0,14968.7,0.221534,0.221246,3.33428,8,0.0145326,10,0.000737698,-2.477,-0.710758,-0.08301,-10.7615,0.221246,
2,1,0,1,0,14968.7,0.22303,0.222716,3.31485,8,0.0145949,10,0.00073827,-2.47954,-0.8877,-0.0664639,-8.59432,0.222716,
2,1,0,1,0,14968.7,0.224526,0.224239,3.30354,8,0.0146569,10,0.000740784,-2.48102,-1.09808,-0.05373,-6.92115,0.224239,
2,1,0,1,0,14968.8,0.22603,0.225715,3.29214,8,0.0147191,10,0.000743085,-2.48252,-1.25764,-0.0469134,-6.02337,0.225715,
2,1,0,1,0,14968.8,0.227519,0.227218,3.28506,8,0.0147804,10,0.000746425,-2.48346,-1.23824,-0.0476481,-6.10239,0.227218,
2,1,0,1,0,14968.8,0.229023,0.228724,3.27516,8,0.0148422,10,0.000749107,-2.48477,-1.49354,-0.0395034,-5.04533,0.228724,
2,1,0,1,0,14968.8,0.230526,0.230254,3.25878,8,0.0149038,10,0.000750346,-2.48694,-2.67875,-0.0220252,-2.80675,0.230254,
2,1,0,1,0,14968.8,0.232016,0.231705,3.252,8,0.0149646,10,0.000753505,-2.48785,-2.62821,-0.0224488,-2.84971,0.2317052,
2,1,0,1,0,14968.8,0.233519,0.23326,3.24578,8,0.0150259,10,0.000757112,-2.48868,-1.8016,-0.0327487,-4.14487,0.23326,
2,1,0,1,0,14968.9,0.235023,0.234699,3.23465,8,0.0150871,10,0.000759168,-2.49017,-1.62753,-0.0362511,-4.57833,0.234699,
2,1,0,1,0,14968.9,0.23651,0.236232,3.22028,8,0.0151474,10,0.000760733,-2.49211,-1.16746,-0.0505372,-6.36122,0.236232,
2,1,0,1,0,14968.9,0.238014,0.237726,3.22004,8,0.0152082,10,0.000765488,-2.49214,-1.269,-0.0464934,-5.84092,0.237726,
2,1,0,1,0,14968.9,0.23951,0.239192,3.21366,8,0.0152686,10,0.000768681,-2.493,-1.38078,-0.0427295,-5.35906,0.239192,
2,1,0,1,0,14968.9,0.241006,0.240716,3.20518,8,0.0153288,10,0.000771538,-2.49415,-0.893653,-0.0660212,-8.25378,0.240716,
2,1,0,1,0,14969,0.24251,0.242197,3.19421,8,0.0153893,10,0.00077363,-2.49564,-1.02365,-0.0576369,-7.19796,0.242197,
2,1,0,1,0,14969,0.243999,0.243694,3.19477,8,0.0154489,10,0.000778549,-2.49556,-1.47227,-0.0400741,-4.99472,0.243694,
2,1,0,1,0,14969,0.245503,0.245206,3.19403,8,0.0155091,10,0.000783196,-2.49566,-1.09229,-0.0540149,-6.71269,0.245206,
2,1,0,1,0,14969,0.247006,0.246747,3.18551,8,0.0155692,10,0.000786013,-2.49682,-1.36875,-0.043105,-5.34392,0.246747,
2,1,0,1,0,14969,0.248496,0.248222,3.17678,8,0.0156285,10,0.000788545,-2.49801,-1.52523,-0.0386826,-4.79001,0.248222,
2,1,0,1,0,14969.1,0.249999,0.249681,3.16968,8,0.0156882,10,0.000791411,-2.49898,-1.7449,-0.0338129,-4.17947,0.249681,
2,1,0,1,0,14969.1,0.251503,0.251211,3.16317,8,0.0157479,10,0.000794622,-2.49988,-4.0162,-0.0146905,-1.81074,0.251211,
2,1,0,1,0,14969.1,0.25299,0.25266,3.15736,8,0.0158069,10,0.000797738,-2.50068,-3.30494,-0.0178521,-2.19562,0.25266,
2,1,0,1,0,14969.1,0.254494,0.254191,3.14519,8,0.0158664,10,0.000799481,-2.50235,-2.40468,-0.0245355,-3.01411,0.254191,
2,1,0,1,0,14969.1,0.25599,0.255711,3.13786,8,0.0159254,10,0.000802386,-2.50337,-5.39708,-0.0109318,-1.34217,0.255711,
2,1,0,1,0,14969.1,0.257487,0.257213,3.13428,8,0.0159843,10,0.00080618,-2.50386,-5.14058,-0.0114773,-1.404,0.257213,
2,1,0,1,0,14969.2,0.25899,0.258692,3.13321,8,0.0160435,10,0.000810537,-2.50401,-5.55111,-0.0106285,-1.29845,0.258692,
2,1,0,1,0,14969.2,0.260479,0.260198,3.12777,8,0.016102,10,0.00081384,-2.50477,-1.49319,-0.0395127,-4.82001,0.260198,
2,1,0,1,0,14969.2,0.261983,0.261674,3.11768,8,0.0161609,10,0.000815817,-2.50617,-1.30102,-0.0453491,-5.52687,0.261674,
2,1,0,1,0,14969.2,0.263486,0.263159,3.11061,8,0.0162197,10,0.000818587,-2.50715,-2.30071,-0.0256442,-3.11719,0.263159,
2,1,0,1,0,14969.2,0.264974,0.264644,3.11205,8,0.0162779,10,0.000823585,-2.50695,-1.4795,-0.0398783,-4.84448,0.264644,
2,1,0,1,0,14969.3,0.266477,0.266177,3.10647,8,0.0163365,10,0.000826871,-2.50773,-1.03905,-0.0567828,-6.88835,0.266177,
2,1,0,1,0,14969.3,0.267981,0.26768,3.09628,8,0.0163951,10,0.000828812,-2.50916,-1.69643,-0.034779,-4.20678,0.26768,
2,1,0,1,0,14969.3,0.26947,0.269164,3.09743,8,0.0164529,10,0.000833715,-2.509,-1.26915,-0.046488,-5.61867,0.269164,
2,1,0,1,0,14969.3,0.270974,0.270682,3.10311,8,0.0165113,10,0.000839955,-2.5082,-1.96126,-0.0300826,-3.62248,0.270682,
2,1,0,1,0,14969.3,0.27247,0.272223,3.09365,8,0.0165693,10,0.000842162,-2.50953,-2.18375,-0.0270177,-3.24817,0.272223,
2,1,0,1,0,14969.4,0.273967,0.273673,3.08192,8,0.0166272,10,0.000843439,-2.51118,-1.62916,-0.036215,-4.35364,0.273673,
2,1,0,1,0,14969.4,0.27547,0.275195,3.07274,8,0.0166852,10,0.0008456,-2.51247,-2.6068,-0.0226331,-2.71687,0.275195,
2,1,0,1,0,14969.4,0.276959,0.276695,3.06986,8,0.0167425,10,0.000849417,-2.51288,-7.38896,-0.00798489,-0.956862,0.2766954,
2,1,0,1,0,14969.4,0.278463,0.278187,3.05976,8,0.0168004,10,0.000851184,-2.51431,-3.16595,-0.0186358,-2.22577,0.278187,
2,1,0,1,0,14969.4,0.279967,0.279686,3.054,8,0.0168581,10,0.00085416,-2.51513,-2.33482,-0.0252697,-3.01351,0.279686,
2,1,0,1,0,14969.4,0.281454,0.281132,3.04485,8,0.0169151,10,0.000856006,-2.51643,-4.0931,-0.0144145,-1.71738,0.281132,
2,1,0,1,0,14969.5,0.282958,0.282658,3.04205,8,0.0169726,10,0.00085986,-2.51683,-2.9978,-0.0196811,-2.3389,0.282658,
2,1,0,1,0,14969.5,0.284461,0.284195,3.03761,8,0.0170301,10,0.000863271,-2.51747,-3.17125,-0.0186047,-2.20635,0.284195,
2,1,0,1,0,14969.5,0.28595,0.285682,3.03478,8,0.0170868,10,0.000866984,-2.51787,-1.11698,-0.0528212,-6.25661,0.285682,
2,1,0,1,0,14969.5,0.287454,0.287195,3.02323,8,0.017144,10,0.000868257,-2.51953,-0.839239,-0.0703018,-8.31569,0.287195,
2,1,0,1,0,14969.5,0.28895,0.288652,3.02167,8,0.0172008,10,0.000872214,-2.51975,-1.4514,-0.0406503,-4.79667,0.288652,
2,1,0,1,0,14969.6,0.290447,0.290168,3.02224,8,0.0172574,10,0.000876959,-2.51967,-1.26408,-0.0466741,-5.50043,0.290168,
2,1,0,1,0,14969.6,0.29195,0.291686,3.0105,8,0.0173143,10,0.000878121,-2.52136,-1.04534,-0.0564409,-6.62703,0.291686,
2,1,0,1,0,14969.6,0.29344,0.293146,3.00381,8,0.0173705,10,0.000880552,-2.52233,-1.32775,-0.0444361,-5.2129,0.2931456,
2,1,0,1,0,14969.6,0.294943,0.29466,3.00286,8,0.0174271,10,0.000884821,-2.52247,-2.44665,-0.0241146,-2.8227,0.29466,
2,1,0,1,0,14969.6,0.296447,0.296153,3.0042,8,0.0174837,10,0.000889703,-2.52227,-3.40314,-0.0173369,-2.02678,0.296153,
2,1,0,1,0,14969.7,0.297934,0.297676,2.99981,8,0.0175396,10,0.000892973,-2.52291,-3.24014,-0.0182091,-2.12487,0.297676,
2,1,0,1,0,14969.7,0.299438,0.299158,2.98257,8,0.017596,10,0.00089226,-2.52541,-0.0228917,-2.57735,-268.324,0.299158,
2,1,0,1,0,14969.7,0.300012,0.299727,2.99109,8,0.0176169,10,0.00089651,-2.52417,0.00101679,58.0256,3392.5,0.299727,
2,1,0,1,0,14969.7,0.298737,0.298481,1.02901,8,0.0176456,10,0.000307139,-2.98758,0.00260296,22.6665,921.557,0.298481,
2,1,0,1,0,14969.7,0.29724,0.296923,0.0470358,8,0.0176542,10,1.3966e-05,-4.32757,0.00866544,6.80866,531.062,0.296923,
2,0,0,1,0,14969.7,0.295744,0.295409,-0.442533,8,0.0176498,10,-0.000130728,-3.35405,-0.00928315,-6.3556,265.366,0.295409,
2,0,0,1,0,14969.8,0.29424,0.29391,-0.715323,8,0.0176385,10,-0.00021024,-3.1455,-0.00873143,-6.7572,151.253,0.29391,
2,0,0,1,0,14969.8,0.292751,0.292414,-0.885507,8,0.0176233,10,-0.000258934,-3.05281,-0.0189088,-3.12024,100.324,0.2924138,
2,0,0,1,0,14969.8,0.291248,0.290931,-1.01058,8,0.0176052,10,-0.00029401,-2.99543,-0.0315783,-1.86837,71.3559,0.290931,
2,0,0,1,0,14969.8,0.289744,0.289465,-1.10972,8,0.0175852,10,-0.000321225,-2.95479,-0.043095,-1.36907,57.8729,0.289465,
2,0,0,1,0,14969.8,0.288257,0.287912,-1.18274,8,0.0175638,10,-0.000340526,-2.92711,-0.0580038,-1.01718,46.2391,0.287912,
2,0,0,1,0,14969.8,0.286753,0.286435,-1.24189,8,0.0175408,10,-0.000355722,-2.90592,-0.0674383,-0.874874,42.1277,0.286435,
2,0,0,1,0,14969.9,0.285249,0.284962,-1.30063,8,0.0175168,10,-0.00037063,-2.88585,-0.074574,-0.79116,39.9419,0.284962,
2,0,0,1,0,14969.9,0.28376,0.283456,-1.34799,8,0.017492,10,-0.000382095,-2.87031,-0.0902122,-0.654014,34.2777,0.283456,
2,0,0,1,0,14969.9,0.282257,0.281922,-1.39728,8,0.0174659,10,-0.000393924,-2.85472,-0.112049,-0.526553,28.5662,0.281922,
2,0,0,1,0,14969.9,0.28076,0.280448,-1.43629,8,0.0174392,10,-0.000402806,-2.84276,-0.113202,-0.521193,29.1628,0.280448,
2,0,0,1,0,14969.9,0.279264,0.278935,-1.47444,8,0.0174119,10,-0.000411275,-2.83137,-0.125893,-0.468651,26.9508,0.278935,
2,0,0,1,0,14970,0.27776,0.277476,-1.50817,8,0.0173836,10,-0.000418479,-2.82155,-0.127439,-0.462967,27.2982,0.277476,
2,0,0,1,0,14970,0.276271,0.275983,-1.54757,8,0.0173549,10,-0.000427104,-2.81035,-0.154766,-0.381221,23.0127,0.275983,
2,0,0,1,0,14970,0.274767,0.274471,-1.57934,8,0.0173253,10,-0.000433485,-2.80152,-0.189288,-0.311695,19.2324,0.274471,
2,0,0,1,0,14970,0.273264,0.272969,-1.60929,8,0.0172951,10,-0.000439287,-2.79336,-0.188412,-0.313144,19.6759,0.272969,
2,0,0,1,0,14970,0.271776,0.271423,-1.63746,8,0.0172646,10,-0.000444443,-2.78583,-0.182217,-0.32379,20.7364,0.271423,
2,0,0,1,0,14970.1,0.270273,0.26996,-1.67379,8,0.0172333,10,-0.000451857,-2.7763,-0.204339,-0.288735,18.8599,0.2699596,
2,0,0,1,0,14970.1,0.268769,0.268478,-1.70359,8,0.0172013,10,-0.000457375,-2.76864,-0.254127,-0.232168,15.3995,0.268478,
2,0,0,1,0,14970.1,0.26728,0.266943,-1.72874,8,0.0171692,10,-0.000461475,-2.76227,-0.270207,-0.218352,14.7238,0.266943,
2,0,0,1,0,14970.1,0.265777,0.265496,-1.75362,8,0.0171363,10,-0.000465579,-2.75607,-0.269201,-0.219167,14.9862,0.265496,
2,0,0,1,0,14970.1,0.26428,0.263977,-1.78487,8,0.0171031,10,-0.000471165,-2.74839,-0.225327,-0.261841,18.157,0.263977,
2,0,0,1,0,14970.1,0.262784,0.262476,-1.80618,8,0.0170694,10,-0.000474079,-2.74324,-0.255639,-0.230794,16.1816,0.262476,
2,0,0,1,0,14970.2,0.26128,0.260978,-1.82561,8,0.0170351,10,-0.000476445,-2.73859,-0.24802,-0.237884,16.9666,0.260978,
2,0,0,1,0,14970.2,0.259791,0.259514,-1.849,8,0.0170008,10,-0.000479843,-2.73306,-0.252595,-0.233576,16.8678,0.259514,
2,0,0,1,0,14970.2,0.258287,0.258019,-1.87515,8,0.0169657,10,-0.000483825,-2.72696,-0.258393,-0.228335,16.6782,0.258019,
2,0,0,1,0,14970.2,0.256786,0.256498,-1.89471,8,0.0169301,10,-0.000485988,-2.72246,-0.272428,-0.216571,15.9822,0.256498,
2,0,0,1,0,14970.2,0.255296,0.254962,-1.90946,8,0.0168945,10,-0.00048684,-2.71909,-0.335439,-0.175889,13.1406,0.254962,
2,0,0,1,0,14970.3,0.253793,0.253451,-1.9306,8,0.0168581,10,-0.000489312,-2.71431,-0.364664,-0.161793,12.1984,0.253451,
2,0,0,1,0,14970.3,0.252289,0.251972,-1.95463,8,0.0168214,10,-0.000492511,-2.70894,-0.300641,-0.196247,14.9713,0.251972,
2,0,0,1,0,14970.3,0.2508,0.250476,-1.97189,8,0.0167846,10,-0.000493913,-2.70512,-0.421177,-0.140084,10.8024,0.250476,
2,0,0,1,0,14970.3,0.249296,0.248983,-1.99032,8,0.0167471,10,-0.000495554,-2.70108,-0.464628,-0.126983,9.88902,0.248983,
2,0,0,1,0,14970.3,0.2478,0.24751,-2.00799,8,0.0167095,10,-0.000496998,-2.69724,-0.471946,-0.125014,9.81868,0.2475103,
2,0,0,1,0,14970.4,0.246304,0.245986,-2.03342,8,0.0166715,10,-0.000500192,-2.69177,-0.358188,-0.164718,13.0595,0.245986,
2,0,0,1,0,14970.4,0.2448,0.244474,-2.06189,8,0.0166329,10,-0.000504078,-2.68574,-0.427552,-0.137995,11.0444,0.244474,
2,0,0,1,0,14970.4,0.243313,0.243029,-2.07655,8,0.0165943,10,-0.000504663,-2.68266,-0.431175,-0.136835,11.0438,0.243029,
2,0,0,1,0,14970.4,0.241809,0.24151,-2.08522,8,0.0165551,10,-0.000503601,-2.68085,-0.423283,-0.139387,11.3515,0.24151,
2,0,0,1,0,14970.4,0.240306,0.239994,-2.10673,8,0.0165155,10,-0.000505602,-2.67639,-0.35175,-0.167733,13.7807,0.239994,
2,0,0,1,0,14970.4,0.238816,0.238523,-2.12798,8,0.016476,10,-0.000507571,-2.67203,-0.356087,-0.16569,13.7014,0.238523,
2,0,0,1,0,14970.5,0.237313,0.236977,-2.14061,8,0.0164358,10,-0.000507277,-2.66946,-0.415133,-0.142123,11.8326,0.236977,
2,0,0,1,0,14970.5,0.235809,0.235493,-2.15845,8,0.0163951,10,-0.000508299,-2.66586,-0.398001,-0.148241,12.4898,0.235493,
2,0,0,1,0,14970.5,0.23432,0.234004,-2.16691,8,0.0163548,10,-0.000507065,-2.66416,-0.384719,-0.153359,13.0262,0.234004,
2,0,0,1,0,14970.5,0.232816,0.232505,-2.18449,8,0.0163136,10,-0.000507905,-2.66065,-0.360449,-0.163685,13.985,0.232505,
2,0,0,1,0,14970.5,0.23132,0.230991,-2.20237,8,0.0162722,10,-0.000508728,-2.65711,-0.458568,-0.128661,11.0847,0.230991,
2,0,0,1,0,14970.6,0.229824,0.229488,-2.22674,8,0.0162306,10,-0.00051101,-2.65233,-0.577023,-0.102249,8.87208,0.229488,
2,0,0,1,0,14970.6,0.22832,0.228047,-2.22987,8,0.0161885,10,-0.000508515,-2.65172,-0.613762,-0.0961284,8.4067,0.228047,
2,0,0,1,0,14970.6,0.226833,0.22654,-2.25261,8,0.0161465,10,-0.000510308,-2.64731,-0.468658,-0.125891,11.0782,0.22654,
2,0,0,1,0,14970.6,0.225329,0.225034,-2.2717,8,0.0161037,10,-0.00051121,-2.64365,-0.690137,-0.0854903,7.59696,0.225034,
2,0,0,1,0,14970.6,0.223825,0.223544,-2.29344,8,0.0160606,10,-0.000512684,-2.63951,-0.604821,-0.0975495,8.71678,0.223544,
2,0,0,1,0,14970.7,0.222336,0.222044,-2.30459,8,0.0160177,10,-0.000511721,-2.63741,-0.590495,-0.0999162,8.99832,0.222044,
2,0,0,1,0,14970.7,0.220833,0.220533,-2.32789,8,0.015974,10,-0.000513378,-2.63304,-0.468506,-0.125932,11.4194,0.220533,
2,0,0,1,0,14970.7,0.219329,0.219054,-2.3481,8,0.0159299,10,-0.000514359,-2.62928,-0.509693,-0.115756,10.5642,0.219054,
2,0,0,1,0,14970.7,0.21784,0.217515,-2.36305,8,0.015886,10,-0.000513998,-2.62653,-0.53011,-0.111298,10.2282,0.217515,
2,0,0,1,0,14970.7,0.216336,0.216004,-2.37208,8,0.0158414,10,-0.000512379,-2.62487,-0.514434,-0.114689,10.615,0.216004,
2,0,0,1,0,14970.7,0.21484,0.214543,-2.38951,8,0.0157968,10,-0.000512653,-2.62169,-0.452535,-0.130377,12.1584,0.214543,
2,0,0,1,0,14970.8,0.213343,0.212992,-2.40876,8,0.0157518,10,-0.000513047,-2.61821,-0.370084,-0.159423,14.9642,0.212992,
2,0,0,1,0,14970.8,0.21184,0.211521,-2.42057,8,0.0157062,10,-0.000512002,-2.61608,-0.449632,-0.131218,12.3922,0.211521,
2,0,0,1,0,14970.8,0.210352,0.210053,-2.43307,8,0.0156608,10,-0.000511074,-2.61384,-0.446918,-0.132015,12.5674,0.2100527,
2,0,0,1,0,14970.8,0.208849,0.208567,-2.44836,8,0.0156147,10,-0.000510647,-2.61113,-0.383463,-0.153861,14.7653,0.208567,
2,0,0,1,0,14970.8,0.207345,0.207028,-2.46343,8,0.0155683,10,-0.00051,-2.60846,-0.371126,-0.158976,15.3514,0.2070284,
2,0,0,1,0,14970.9,0.205856,0.205515,-2.48932,8,0.0155218,10,-0.000511594,-2.60392,-0.449039,-0.131392,12.7507,0.205515,
2,0,0,1,0,14970.9,0.204353,0.204044,-2.50306,8,0.0154746,10,-0.000510735,-2.60153,-0.667358,-0.0884083,8.65866,0.204044,
2,0,0,1,0,14970.9,0.202849,0.20255,-2.52166,8,0.0154271,10,-0.000510762,-2.59831,-0.587748,-0.100383,9.89918,0.20255,
2,0,0,1,0,14970.9,0.20136,0.201033,-2.54002,8,0.0153799,10,-0.000510628,-2.59516,-0.507924,-0.116159,11.5166,0.201033,
2,0,0,1,0,14970.9,0.199856,0.199553,-2.56264,8,0.0153317,10,-0.000511382,-2.59131,-0.569966,-0.103515,10.3493,0.199553,
2,0,0,1,0,14971,0.19836,0.198007,-2.58302,8,0.0152835,10,-0.000511457,-2.58787,-0.7036,-0.0838545,8.4408,0.198007,
2,0,0,1,0,14971,0.196863,0.196551,-2.60173,8,0.0152349,10,-0.000511373,-2.58474,-0.481586,-0.122512,12.4041,0.196551,
2,0,0,1,0,14971,0.19536,0.195027,-2.62091,8,0.0151858,10,-0.000511149,-2.58155,-0.375909,-0.156953,16.0349,0.195027,
2,0,0,1,0,14971,0.193872,0.193549,-2.64172,8,0.0151368,10,-0.000511301,-2.57811,-0.391184,-0.150824,15.5101,0.193549,
2,0,0,1,0,14971,0.192369,0.192053,-2.65789,8,0.0150868,10,-0.000510457,-2.57546,-0.411161,-0.143496,14.8656,0.192053,
2,0,0,1,0,14971,0.190865,0.190516,-2.67854,8,0.0150365,10,-0.000510306,-2.5721,-0.42534,-0.138712,14.4922,0.190516,
2,0,0,1,0,14971.1,0.189376,0.189067,-2.69615,8,0.0149864,10,-0.000509753,-2.56926,-0.402754,-0.146492,15.4232,0.189067,
2,0,0,1,0,14971.1,0.187872,0.187522,-2.71924,8,0.0149353,10,-0.000509916,-2.56555,-0.365183,-0.161563,17.1239,0.187522,
2,0,0,1,0,14971.1,0.186369,0.186062,-2.73821,8,0.0148838,10,-0.000509476,-2.56253,-0.407889,-0.144647,15.4753,0.186062,
2,0,0,1,0,14971.1,0.18488,0.184566,-2.76569,8,0.0148323,10,-0.000510452,-2.5582,-0.393636,-0.149885,16.1633,0.184566,
2,0,0,1,0,14971.1,0.183376,0.183065,-2.78445,8,0.01478,10,-0.000509736,-2.55526,-0.436146,-0.135276,14.7433,0.183065,
2,0,0,1,0,14971.2,0.18188,0.181571,-2.81093,8,0.0147274,10,-0.000510383,-2.55115,-0.351165,-0.168012,18.4597,0.181571,
2,0,0,1,0,14971.2,0.180383,0.180024,-2.84076,8,0.0146743,10,-0.000511406,-2.54657,-0.425296,-0.138727,15.3893,0.180024,
2,0,0,1,0,14971.2,0.17888,0.17852,-2.86948,8,0.0146205,10,-0.00051226,-2.5422,-0.426181,-0.138439,15.4965,0.1785201,
2,0,0,1,0,14971.2,0.177392,0.177103,-2.8932,8,0.0145667,10,-0.000512395,-2.53862,-0.372097,-0.158561,17.9287,0.177103,
2,0,0,1,0,14971.2,0.175889,0.175595,-2.92346,8,0.0145119,10,-0.000513344,-2.5341,-0.334334,-0.17647,20.145,0.175595,
2,0,0,1,0,14971.3,0.174385,0.174042,-2.96305,8,0.0144563,10,-0.000515697,-2.52826,-0.306261,-0.192646,22.2414,0.174042,
2,0,0,1,0,14971.3,0.172896,0.172559,-3.00146,8,0.0144008,10,-0.000517928,-2.52267,-0.325295,-0.181374,21.1946,0.172559,
2,0,0,1,0,14971.3,0.171392,0.171056,-3.0264,8,0.014344,10,-0.000517683,-2.51907,-0.305901,-0.192873,22.7983,0.171056,
2,0,0,1,0,14971.3,0.169889,0.169523,-3.06575,8,0.0142866,10,-0.000519715,-2.51346,-0.246807,-0.239053,28.6554,0.169523,
2,0,0,1,0,14971.3,0.1684,0.168021,-3.11608,8,0.014229,10,-0.000523568,-2.50639,-0.245437,-0.240388,29.1921,0.168021,
2,0,0,1,0,14971.3,0.166896,0.166545,-3.15733,8,0.0141699,10,-0.000525837,-2.50068,-0.224054,-0.263329,32.3732,0.166545,
2,0,0,1,0,14971.4,0.165392,0.165059,-3.19855,8,0.01411,10,-0.00052795,-2.49505,-0.228955,-0.257693,32.1575,0.165059,
2,0,0,1,0,14971.4,0.163905,0.163604,-3.24342,8,0.0140499,10,-0.000530635,-2.489,-0.20603,-0.286366,36.3773,0.163604,
2,0,0,1,0,14971.4,0.162401,0.16207,-3.29929,8,0.0139882,10,-0.000534717,-2.48158,-0.184827,-0.319217,41.1718,0.16207,
2,0,0,1,0,14971.4,0.160905,0.16056,-3.35814,8,0.0139257,10,-0.000539184,-2.4739,-0.196096,-0.300873,39.5078,0.16056,
2,0,0,1,0,14971.4,0.159409,0.15909,-3.42569,8,0.013862,10,-0.000544993,-2.46525,-0.186899,-0.315679,42.2312,0.15909,
2,0,0,1,0,14971.5,0.157905,0.157562,-3.48505,8,0.0137969,10,-0.00054911,-2.45779,-0.176381,-0.334504,45.6707,0.157562,
2,0,0,1,0,14971.5,0.156416,0.156086,-3.56335,8,0.0137311,10,-0.00055619,-2.44814,-0.157231,-0.375244,52.3322,0.156086,
2,0,0,1,0,14971.5,0.154912,0.154566,-3.65195,8,0.0136631,10,-0.000564468,-2.43748,-0.151909,-0.38839,55.393,0.154566,
2,0,0,1,0,14971.5,0.153409,0.15308,-3.7423,8,0.0135934,10,-0.000572871,-2.42686,-0.144034,-0.409627,59.8491,0.15308,
2,0,0,1,0,14971.5,0.151919,0.151592,-3.8393,8,0.0135227,10,-0.000582005,-2.41575,-0.134752,-0.437842,65.7213,0.151592,
2,0,0,1,0,14971.6,0.150416,0.150076,-3.95133,8,0.0134494,10,-0.000592999,-2.40326,-0.11907,-0.495508,76.4211,0.150076,
2,0,0,1,0,14971.6,0.148912,0.1486,-4.07097,8,0.0133739,10,-0.000604945,-2.3903,-0.109898,-0.53686,85.3911,0.1486,
2,0,0,1,0,14971.6,0.147425,0.147128,-4.2002,8,0.0132969,10,-0.000617965,-2.37673,-0.104918,-0.562342,92.3051,0.147128,
2,0,0,1,0,14971.6,0.145921,0.145596,-4.34323,8,0.0132164,10,-0.000632357,-2.36219,-0.0986235,-0.598235,101.64,0.145596,
2,0,0,1,0,14971.6,0.144425,0.144109,-4.50183,8,0.0131336,10,-0.000648755,-2.34661,-0.092554,-0.637465,112.181,0.1441094,
2,0,0,1,0,14971.6,0.142929,0.142625,-4.67219,8,0.0130477,10,-0.000666369,-2.33048,-0.0887278,-0.664955,121.44,0.142625,
2,0,0,1,0,14971.7,0.141425,0.1411,-4.85626,8,0.0129578,10,-0.000685219,-2.3137,-0.086558,-0.681624,129.19,0.1411,
2,0,0,1,0,14971.7,0.139936,0.139604,-5.04658,8,0.0128655,10,-0.000704525,-2.297,-0.0873437,-0.675492,133.301,0.139604,
2,0,0,1,0,14971.7,0.138432,0.138111,-5.24967,8,0.0127685,10,-0.000725035,-2.27987,-0.0855462,-0.689686,141.669,0.138111,
2,0,0,1,0,14971.7,0.136929,0.136611,-5.46913,8,0.0126675,10,-0.00074714,-2.26208,-0.0846215,-0.697222,149.025,0.136611,
2,0,0,1,0,14971.7,0.135439,0.135122,-5.70254,8,0.0125633,10,-0.000770541,-2.24393,-0.085242,-0.692147,153.946,0.135122,
2,0,0,1,0,14971.8,0.133936,0.133572,-5.93416,8,0.0124537,10,-0.000792637,-2.22664,-0.093268,-0.632586,146.149,0.133572,
2,0,0,1,0,14971.8,0.132432,0.132115,-6.15116,8,0.0123399,10,-0.000812663,-2.21104,-0.0935732,-0.630522,151.513,0.132115,
2,0,0,1,0,14971.8,0.130945,0.130628,-6.39069,8,0.0122231,10,-0.000834805,-2.19445,-0.0939276,-0.628143,156.513,0.130628,
2,0,0,1,0,14971.8,0.129441,0.129074,-6.63213,8,0.0121005,10,-0.000856034,-2.17835,-0.0982534,-0.600488,155.047,0.129074,
2,0,0,1,0,14971.8,0.127945,0.127649,-6.86019,8,0.0119742,10,-0.000875696,-2.16366,-0.106545,-0.553759,147.827,0.127649,
2,0,0,1,0,14971.9,0.126448,0.126127,-7.07554,8,0.0118437,10,-0.00089242,-2.15024,-0.115071,-0.512725,141.348,0.126127,
2,0,0,1,0,14971.9,0.124945,0.124586,-7.2855,8,0.0117086,10,-0.000907668,-2.13754,-0.120257,-0.490616,139.305,0.1245855,
2,0,0,1,0,14971.9,0.123456,0.123169,-7.48986,8,0.011571,10,-0.000922518,-2.12553,-0.130719,-0.451348,131.606,0.123169,
2,0,0,1,0,14971.9,0.121952,0.121621,-7.67938,8,0.0114282,10,-0.000933972,-2.11467,-0.146393,-0.403025,120.409,0.121621,
2,0,0,1,0,14971.9,0.120449,0.120143,-7.84586,8,0.0112821,10,-0.000942622,-2.10536,-0.15593,-0.378374,115.72,0.120143,
2,0,0,1,0,14971.9,0.118959,0.118641,-8.00568,8,0.0111345,10,-0.000949804,-2.0966,-0.173218,-0.340611,106.374,0.118641,
2,0,0,1,0,14972,0.117456,0.117135,-8.15913,8,0.0109823,10,-0.000955719,-2.08836,-0.190055,-0.310436,98.6805,0.117135,
2,0,0,1,0,14972,0.115952,0.11562,-8.29294,8,0.0108273,10,-0.000958826,-2.08129,-0.216144,-0.272966,88.2097,0.11562,
2,0,0,1,0,14972,0.114465,0.114125,-8.41263,8,0.0106715,10,-0.000960091,-2.07507,-0.249587,-0.236391,77.5692,0.114125,
2,0,0,1,0,14972,0.112961,0.112643,-8.51803,8,0.0105121,10,-0.000959494,-2.06966,-0.287773,-0.205023,68.1756,0.112643,
2,0,0,1,0,14972,0.111465,0.111137,-8.62531,8,0.0103514,10,-0.000958595,-2.06423,-0.336391,-0.175391,58.9272,0.111137,
2,0,0,1,0,14972.1,0.109968,0.109641,-8.70321,8,0.0101891,10,-0.000954233,-2.06032,-0.407889,-0.144647,49.1,0.109641,
2,0,0,1,0,14972.1,0.108465,0.108155,-8.77767,8,0.0100246,10,-0.000949346,-2.05662,-0.551735,-0.106935,36.5784,0.108155,
2,0,0,1,0,14972.1,0.106976,0.10664,-8.83169,8,0.00986058,10,-0.000941811,-2.05396,-0.688643,-0.0856757,29.4924,0.10664,
2,0,0,1,0,14972.1,0.105472,0.10518,-8.87253,8,0.00969398,10,-0.000933212,-2.05195,-0.877233,-0.0672569,23.2701,0.10518,
2,0,0,1,0,14972.1,0.103968,0.103675,-8.91142,8,0.00952663,10,-0.000923895,-2.05005,-1.51049,-0.0390601,13.5548,0.103675,
2,0,0,1,0,14972.2,0.102479,0.102165,-8.92835,8,0.0093606,10,-0.000912162,-2.04923,-8.21235,-0.00718431,2.49674,0.102165,
2,0,0,1,0,14972.2,0.100976,0.100663,-8.91775,8,0.00919275,10,-0.00089769,-2.04974,4.1737,0.0141361,-4.91454,0.100663,
2,0,0,1,0,14972.2,0.0994721,0.0991264,-8.90337,8,0.00902508,10,-0.000882559,-2.05045,1.99553,0.0295661,-10.2599,0.0991264,
2,0,0,1,0,14972.2,0.0979846,0.0976812,-8.88009,8,0.00885951,10,-0.000867418,-2.05158,1.07946,0.0546567,-18.9142,0.0976812,
2,0,0,1,0,14972.2,0.0964811,0.0961348,-8.83906,8,0.00869276,10,-0.000849742,-2.05359,0.697535,0.0845836,-29.141,0.0961348,
2,0,0,1,0,14972.2,0.0949847,0.094644,-8.77891,8,0.00852773,10,-0.000830871,-2.05656,0.547077,0.107846,-36.9413,0.09464395,
2,0,0,1,0,14972.3,0.0934883,0.0931535,-8.71793,8,0.00836388,10,-0.000812105,-2.05959,0.45732,0.129013,-43.899,0.0931535,
2,0,0,1,0,14972.3,0.0919847,0.0916861,-8.64842,8,0.00820035,10,-0.00079294,-2.06306,0.40481,0.145747,-49.1792,0.0916861,
2,0,0,1,0,14972.3,0.0904955,0.0901598,-8.57253,8,0.00803995,10,-0.000772897,-2.06689,0.340138,0.173459,-57.9505,0.0901598,
2,0,0,1,0,14972.3,0.0889919,0.0886587,-8.48443,8,0.00787937,10,-0.000752219,-2.07138,0.319638,0.184584,-61.0602,0.0886587,
2,0,0,1,0,14972.3,0.0874884,0.087143,-8.38172,8,0.00772067,10,-0.000730408,-2.07667,0.291809,0.202187,-66.1793,0.087143,
2,0,0,1,0,14972.4,0.0860009,0.0856586,-8.29126,8,0.00756539,10,-0.000710218,-2.08138,0.302164,0.195258,-63.1892,0.0856586,
2,0,0,1,0,14972.4,0.0844973,0.0841701,-8.19705,8,0.00741023,10,-0.000689947,-2.08634,0.294277,0.200492,-64.1645,0.0841701,
2,0,0,1,0,14972.4,0.0829938,0.0826817,-8.10216,8,0.00725677,10,-0.0006699,-2.0914,0.28849,0.204513,-64.6726,0.0826817,
2,0,0,1,0,14972.4,0.0815045,0.0811513,-8.0101,8,0.00710678,10,-0.00065003,-2.09636,0.284412,0.207446,-64.8973,0.0811513,
2,0,0,1,0,14972.4,0.080001,0.0796771,-7.92488,8,0.00695688,10,-0.000631432,-2.10101,0.327552,0.180124,-55.7533,0.07967712,
2,0,0,1,0,14972.4,0.0785046,0.0781736,-7.84959,8,0.00680928,10,-0.00061363,-2.10515,0.362692,0.162672,-49.8462,0.0781736,
2,0,0,1,0,14972.5,0.0770082,0.0766944,-7.77646,8,0.0066631,10,-0.000596411,-2.10922,0.371565,0.158788,-48.1754,0.0766944,
2,0,0,1,0,14972.5,0.0755046,0.0751773,-7.69753,8,0.00651749,10,-0.00057868,-2.11365,0.415402,0.142031,-42.7109,0.07517729,
2,0,0,1,0,14972.5,0.0740154,0.0737048,-7.63739,8,0.00637475,10,-0.000562913,-2.11706,0.444563,0.132715,-39.5796,0.0737048,
2,0,0,1,0,14972.5,0.0725118,0.0721734,-7.5791,8,0.00623155,10,-0.00054701,-2.12038,0.528951,0.111541,-32.9942,0.0721734,
2,0,0,1,0,14972.5,0.0710083,0.070674,-7.52615,8,0.00608938,10,-0.000531904,-2.12343,0.520648,0.11332,-33.2854,0.070674,
2,0,0,1,0,14972.6,0.0695208,0.0691985,-7.46736,8,0.00594968,10,-0.000516731,-2.12683,0.564322,0.10455,-30.5174,0.0691985,
2,0,0,1,0,14972.6,0.0680173,0.0677043,-7.41972,8,0.00580948,10,-0.000502347,-2.12961,0.601765,0.098045,-28.4511,0.06770426,
2,0,0,1,0,14972.6,0.0665137,0.0662045,-7.37605,8,0.00567007,10,-0.000488328,-2.13218,0.668702,0.0882306,-25.4349,0.06620454,
2,0,0,1,0,14972.6,0.0650244,0.0646881,-7.34618,8,0.00553286,10,-0.000475211,-2.13394,0.597651,0.0987198,-28.2912,0.0646881,
2,0,0,1,0,14972.6,0.0635209,0.0631741,-7.30281,8,0.00539492,10,-0.000461348,-2.13651,0.56749,0.103966,-29.6385,0.0631741,
2,0,0,1,0,14972.7,0.0620245,0.0616956,-7.26681,8,0.00525855,10,-0.00044833,-2.13866,0.57394,0.102798,-29.1461,0.0616956,
2,0,0,1,0,14972.7,0.0605281,0.0601665,-7.22957,8,0.00512288,10,-0.000434978,-2.14089,0.667864,0.0883413,-24.9062,0.0601665,
2,0,0,1,0,14972.7,0.0590246,0.0587179,-7.19284,8,0.00498717,10,-0.000422348,-2.1431,0.64487,0.0914913,-25.6701,0.0587179,
2,0,0,1,0,14972.7,0.0575353,0.057212,-7.15976,8,0.00485356,10,-0.000409625,-2.1451,0.60249,0.0979269,-27.3492,0.057212,
2,0,0,1,0,14972.7,0.0560317,0.0557328,-7.11292,8,0.00471928,10,-0.000396423,-2.14795,0.620206,0.0951296,-26.4157,0.0557328,
2,0,0,1,0,14972.7,0.0545282,0.0542065,-7.08212,8,0.00458575,10,-0.000383897,-2.14984,0.712993,0.0827498,-22.8574,0.0542065,
2,0,0,1,0,14972.8,0.0530407,0.0526917,-7.04519,8,0.0044543,10,-0.000371223,-2.15211,0.725346,0.0813404,-22.3469,0.0526917,
2,0,0,1,0,14972.8,0.0515372,0.0512275,-7.00784,8,0.00432207,10,-0.000358994,-2.15442,0.646597,0.091247,-24.9203,0.0512275,
2,0,0,1,0,14972.8,0.0500336,0.0496909,-6.95966,8,0.00419061,10,-0.000345832,-2.15741,0.661658,0.08917,-24.223,0.0496909,
2,0,0,1,0,14972.8,0.0485444,0.0482212,-6.92146,8,0.00406139,10,-0.000333761,-2.1598,0.630329,0.0936019,-25.284,0.0482212,
2,0,0,1,0,14972.8,0.0470408,0.046714,-6.87663,8,0.00393145,10,-0.000321235,-2.16262,0.674446,0.0874791,-23.487,0.046714,
2,0,0,1,0,14972.9,0.0455444,0.04527,-6.83822,8,0.00380293,10,-0.000309566,-2.16506,0.558737,0.105595,-28.1798,0.04527,
2,0,0,1,0,14972.9,0.044048,0.0437013,-6.79638,8,0.00367515,10,-0.00029701,-2.16772,0.577392,0.102184,-27.1179,0.0437013,
2,0,0,1,0,14972.9,0.0425445,0.0422224,-6.74818,8,0.00354762,10,-0.000284924,-2.17081,0.534481,0.110387,-29.1287,0.0422224,
2,0,0,1,0,14972.9,0.0410552,0.040741,-6.71702,8,0.00342214,10,-0.000273658,-2.17282,0.546003,0.108058,-28.3289,0.040741,
2,0,0,1,0,14972.9,0.0395517,0.0392512,-6.67609,8,0.00329599,10,-0.000262045,-2.17548,0.483763,0.121961,-31.7599,0.0392512,
2,0,0,1,0,14973,0.0380481,0.0377089,-6.63099,8,0.00317071,10,-0.000250047,-2.17842,0.421346,0.140027,-36.216,0.0377089,
2,0,0,1,0,14973,0.0365606,0.0362763,-6.57937,8,0.00304771,10,-0.000238675,-2.18182,0.429497,0.13737,-35.2719,0.0362763,
2,0,0,1,0,14973,0.0350571,0.0347486,-6.53443,8,0.00292431,10,-0.000227063,-2.18479,0.447865,0.131736,-33.5633,0.0347486,
2,0,0,1,0,14973,0.0335535,0.0332332,-6.48486,8,0.0028018,10,-0.000215513,-2.1881,0.430334,0.137103,-34.6799,0.0332332,
2,0,0,1,0,14973,0.0320643,0.0317114,-6.43765,8,0.00268152,10,-0.000204147,-2.19127,0.398467,0.148068,-37.1402,0.0317114,
2,0,0,1,0,14973,0.0305607,0.0302328,-6.37428,8,0.00256099,10,-0.000192712,-2.19557,0.406335,0.1452,-36.1229,0.0302328,
2,0,0,1,0,14973.1,0.0290643,0.0287644,-6.32374,8,0.00244212,10,-0.000181899,-2.19903,0.436889,0.135046,-33.3093,0.0287644,
2,0,0,1,0,14973.1,0.0275679,0.0272712,-6.27472,8,0.00232425,10,-0.000171119,-2.20241,0.401318,0.147016,-35.9526,0.0272712,
2,0,0,1,0,14973.1,0.0260644,0.0257278,-6.21723,8,0.00220672,10,-0.000159956,-2.2064,0.383288,0.153931,-37.2951,0.0257278,
2,0,0,1,0,14973.1,0.0245751,0.0242523,-6.15005,8,0.0020915,10,-0.000149153,-2.21112,0.387624,0.15221,-36.5642,0.0242523,
2,0,0,1,0,14973.1,0.0230716,0.0227454,-6.08815,8,0.00197623,10,-0.000138478,-2.21551,0.361742,0.1631,-38.8175,0.0227454,
2,0,0,1,0,14973.2,0.021568,0.0212866,-6.03434,8,0.00186196,10,-0.000128451,-2.21937,0.385221,0.153159,-36.1116,0.0212866,
2,0,0,1,0,14973.2,0.0200805,0.0197317,-5.98248,8,0.00174992,10,-0.000118044,-2.22312,0.353759,0.16678,-38.938,0.0197317,
2,0,0,1,0,14973.2,0.018577,0.018233,-5.92369,8,0.00163773,10,-0.000108007,-2.22741,0.348286,0.169401,-39.2214,0.018233,
2,0,0,1,0,14973.2,0.0170735,0.0167214,-5.8717,8,0.00152665,10,-9.81827e-05,-2.23124,0.364141,0.162025,-37.1673,0.0167214,
2,0,0,1,0,14973.2,0.0155842,0.0152714,-5.82248,8,0.00141772,10,-8.89175e-05,-2.23489,0.376317,0.156783,-35.6587,0.0152714,
2,0,0,1,0,14973.3,0.0140806,0.013727,-5.78188,8,0.00130847,10,-7.93681e-05,-2.23793,0.394504,0.149555,-33.6886,0.013727,
2,0,0,1,0,14973.3,0.0125842,0.0122651,-5.73432,8,0.00120064,10,-7.03318e-05,-2.24152,0.391196,0.15082,-33.7027,0.0122651,
2,0,0,1,0,14973.3,0.0110878,0.0107855,-5.68193,8,0.00109384,10,-6.12826e-05,-2.2455,0.412362,0.143078,-31.7822,0.0107855,
2,0,0,1,0,14973.3,0.00958429,0.0092756,-5.63966,8,0.000987293,10,-5.23112e-05,-2.24875,0.478739,0.12324,-27.125,0.0092756,
2,0,0,1,0,14973.3,0.0080968,0.00775782,-5.60427,8,0.000882568,10,-4.34769e-05,-2.25148,0.528546,0.111627,-24.4108,0.00775782,
2,0,0,1,0,14973.3,0.00659326,0.0062915,-5.56261,8,0.000777492,10,-3.49972e-05,-2.25472,0.580064,0.101713,-22.0887,0.0062915,
2,0,0,1,0,14973.4,0.00508972,0.00478156,-5.52291,8,0.000673126,10,-2.64081e-05,-2.25783,0.646734,0.0912275,-19.6923,0.00478156,
2,0,0,1,0,14973.4,0.00360044,0.00328422,-5.49489,8,0.000570475,10,-1.80464e-05,-2.26004,2.19054,0.026934,-5.79803,0.00328422,
2,0,0,1,0,14973.4,0.0020969,0.00172418,-5.5191,8,0.000467126,10,-9.51591e-06,-2.25813,1.29668,0.0455007,-9.73251,0.001724177,
2,0,0,1,0,14973.4,0.000593362,0.000247978,-5.46922,8,0.000363698,10,-1.35624e-06,-2.26207, , , ,0.0002479777,
2,0,0,1,0,14973.4,0.000199195,-0.000216526,-5.46121,8,0.000336872,10,1.18249e-06,-2.26271, , , ,-0.000216526,