File: Figure_codes/Fig_3-5/rawdata_trumpetplot_data/after 10th/20221101_1-115_003_TrumpetPlot_ParaChange_from10_every3_02_CV_C01_28.csv
mode,ox/red,error,control changes,counter inc.,time/s,control/V,Ewe/V,<I>/mA,cycle number,(Q-Qo)/C,I Range,P/W,log(|I|),Tafel slope mV/dec,alpha_eff,dI/d(E-IR),E-IR/V,
2,0,0,1,0,55503.7,2.44065e-05,-0.00042076,-0.400873,29,0.0000000E+000,10,1.68671e-07,-3.39699, , , ,-0.00042076,
2,0,0,1,0,55505,0.00129791,0.000912235,-0.181138,29,-0.000272987,10,-1.6524e-07,-3.74199, , , ,0.000912235,
2,0,0,1,0,55506.5,0.00279612,0.0024424,-0.144914,29,-0.000498503,10,-3.53936e-07,-3.83889,-0.0170955,-3.4512,21.1004,0.0024424,
2,0,0,1,0,55508,0.00429431,0.00399697,-0.123688,29,-0.000684874,10,-4.94377e-07,-3.90767,-0.0249288,-2.36674,11.7014,0.00399697,
2,0,0,1,0,55509.4,0.00579242,0.00545492,-0.108485,29,-0.000844006,10,-5.91777e-07,-3.96463,-0.0277229,-2.1282,9.17287,0.00545492,
2,0,0,1,0,55510.9,0.00729061,0.00696813,-0.0960584,29,-0.000982926,10,-6.69347e-07,-4.01746,-0.0303178,-1.94605,7.38699,0.006968129,
2,0,0,1,0,55512.4,0.00878882,0.00842939,-0.0864842,29,-0.00110538,10,-7.2901e-07,-4.06306,-0.0344248,-1.71388,5.84581,0.008429395,
2,0,0,1,0,55513.9,0.010287,0.00998186,-0.0798233,29,-0.00121615,10,-7.96785e-07,-4.09787,-0.0366229,-1.61101,4.96964,0.00998186,
2,0,0,1,0,55515.4,0.0117852,0.0114621,-0.072163,29,-0.0013148,10,-8.27143e-07,-4.14169,-0.0336312,-1.75432,5.00726,0.0114621,
2,0,0,1,0,55516.9,0.0132834,0.0129181,-0.0651951,29,-0.00140348,10,-8.422e-07,-4.18579,-0.0369901,-1.59502,4.05146,0.0129181,
2,0,0,1,0,55518.4,0.0147815,0.0144652,-0.0596826,29,-0.00148325,10,-8.63319e-07,-4.22415,-0.039828,-1.48137,3.45686,0.0144652,
2,0,0,1,0,55519.9,0.0162797,0.015991,-0.0549937,29,-0.0015548,10,-8.79406e-07,-4.25969,-0.0420214,-1.40405,3.01561,0.015991,
2,0,0,1,0,55521.4,0.0177779,0.0173697,-0.0503226,29,-0.00161983,10,-8.74086e-07,-4.29824,-0.0398545,-1.48038,2.89649,0.0173697,
2,0,0,1,0,55522.9,0.0192761,0.0189497,-0.0460344,29,-0.00167857,10,-8.72335e-07,-4.33692,-0.0404517,-1.45853,2.64123,0.0189497,
2,0,0,1,0,55524.4,0.0207743,0.0204438,-0.0419647,29,-0.00173102,10,-8.57917e-07,-4.37712,-0.0426563,-1.38315,2.28556,0.02044379,
2,0,0,1,0,55525.9,0.0222725,0.0219336,-0.0385257,29,-0.00177793,10,-8.45008e-07,-4.41425,-0.0382005,-1.54448,2.32801,0.0219336,
2,0,0,1,0,55527.4,0.0237707,0.0234468,-0.0352112,29,-0.00181979,10,-8.25591e-07,-4.45332,-0.0378465,-1.55893,2.13624,0.0234468,
2,0,0,1,0,55528.9,0.0252689,0.0249388,-0.0321069,29,-0.00185672,10,-8.00708e-07,-4.4934,-0.0353137,-1.67074,2.0886,0.0249388,
2,0,0,1,0,55530.4,0.0267671,0.0264139,-0.0293136,29,-0.00188886,10,-7.74287e-07,-4.53293,-0.0321128,-1.83728,2.08039,0.0264139,
2,0,0,1,0,55531.9,0.0282653,0.027943,-0.0266306,29,-0.00191637,10,-7.44138e-07,-4.57462,-0.0305745,-1.92971,1.94831,0.027943,
2,0,0,1,0,55533.4,0.0297635,0.0294446,-0.0232548,29,-0.00193943,10,-6.84726e-07,-4.63349,-0.0275456,-2.1419,1.91881,0.0294446,
2,0,0,1,0,55534.9,0.0312617,0.0309174,-0.0208542,29,-0.00195856,10,-6.4476e-07,-4.68081,-0.0262006,-2.25185,1.79788,0.0309174,
2,0,0,1,0,55536.4,0.0327599,0.0323957,-0.0177873,29,-0.00197333,10,-5.76232e-07,-4.74989,-0.0206332,-2.85947,1.95279,0.0323957,
2,0,0,1,0,55537.9,0.0342581,0.0338983,-0.0149583,29,-0.00198379,10,-5.07061e-07,-4.82512,-0.0183309,-3.21862,1.87255,0.0338983,
2,0,0,1,0,55539.4,0.0357563,0.0354497,-0.0120655,29,-0.00198991,10,-4.27717e-07,-4.91846,-0.0176557,-3.34171,1.58638,0.0354497,
2,0,0,1,0,55540.9,0.0372544,0.0369066,-0.0100849,29,-0.00199239,10,-3.722e-07,-4.99633,-0.0131474,-4.48757,1.6271,0.0369066,
2,0,0,1,0,55542.4,0.0387526,0.038371,-0.00754212,29,-0.00199149,10,-2.89399e-07,-5.12251,-0.0102232,-5.77119,1.56326,0.038371,
2,0,0,1,0,55543.9,0.0402508,0.03988,-0.00594312,29,-0.00198696,10,-2.37012e-07,-5.22599,-0.00913836,-6.4563,1.29937,0.03988,
2,0,0,1,0,55545.4,0.041749,0.0414356,-0.00304167,29,-0.00197911,10,-1.26033e-07,-5.51689,-0.00564366,-10.4542,1.19186,0.0414356,
2,0,0,1,0,55546.9,0.0432472,0.0429096,-0.00109425,29,-0.00196836,10,-4.69539e-08,-5.96088,-0.010204,-5.78206,1.41042,0.0429096,
2,1,0,1,0,55548.4,0.0447454,0.0444111,0.0011034,29,-0.00195471,10,4.90032e-08,-5.95727,0.015025,3.9268,1.47165,0.0444111,
2,0,0,1,0,55549.9,0.0462435,0.0458967,0.00344815,29,-0.00193728,10,1.58258e-07,-5.46241,0.00147368,40.0357,1.55802,0.0458967,
2,0,0,1,0,55551.4,0.0477417,0.0473568,0.00553709,29,-0.00191642,10,2.62219e-07,-5.25672,0.00808733,7.29536,1.36506,0.0473568,
2,1,0,1,0,55552.9,0.0492399,0.0489369,0.00682483,29,-0.00189258,10,3.33986e-07,-5.16591,0.0122699,4.80853,1.25747,0.04893687,
2,0,0,1,0,55554.4,0.0507381,0.0503822,0.00915214,29,-0.00186601,10,4.61105e-07,-5.03848,0.0145457,4.05618,1.44814,0.0503822,
2,0,0,1,0,55555.9,0.0522363,0.0518923,0.0108421,29,-0.00183621,10,5.62619e-07,-4.96489,0.0179052,3.29514,1.40348,0.0518923,
2,1,0,1,0,55557.4,0.0537345,0.0534108,0.013402,29,-0.00180308,10,7.15813e-07,-4.87283,0.0232012,2.54297,1.28224,0.0534108,
2,1,0,1,0,55558.9,0.0552327,0.0548847,0.0153582,29,-0.00176696,10,8.42933e-07,-4.81366,0.0267893,2.20237,1.2465,0.0548847,
2,1,0,1,0,55560.4,0.0567309,0.0563725,0.0158881,29,-0.00172862,10,8.95652e-07,-4.79893,0.0302236,1.95212,1.27852,0.0563725,
2,1,0,1,0,55561.9,0.0582291,0.0578507,0.0187103,29,-0.00168762,10,1.08241e-06,-4.72792,0.0322868,1.82737,1.29543,0.0578507,
2,1,0,1,0,55563.4,0.0597273,0.0594084,0.0206286,29,-0.00164309,10,1.22551e-06,-4.68553,0.0358425,1.64609,1.28834,0.0594084,
2,1,0,1,0,55564.9,0.0612255,0.06091,0.0223144,29,-0.00159633,10,1.35917e-06,-4.65142,0.0620322,0.951119,0.810869,0.06091,
2,1,0,1,0,55566.4,0.0627237,0.0624009,0.0237136,29,-0.00154718,10,1.47975e-06,-4.625,0.0512095,1.15213,1.06901,0.0624009,
2,1,0,1,0,55567.9,0.0642219,0.0639057,0.0248027,29,-0.00149616,10,1.58503e-06,-4.6055,0.0448706,1.31489,1.32648,0.0639057,
2,1,0,1,0,55569.4,0.0657201,0.0653807,0.0273955,29,-0.00144184,10,1.79114e-06,-4.56232,0.0547659,1.07731,1.12593,0.0653807,
2,1,0,1,0,55570.9,0.0672183,0.0668992,0.0287962,29,-0.00138471,10,1.92644e-06,-4.54066,0.0644519,0.915411,1.02297,0.0668992,
2,1,0,1,0,55572.4,0.0687164,0.0683964,0.0303436,29,-0.00132583,10,2.07539e-06,-4.51793,0.0705197,0.836646,0.976617,0.0683964,
2,1,0,1,0,55573.9,0.0702146,0.0698534,0.0316824,29,-0.00126496,10,2.21312e-06,-4.49918,0.0794708,0.742411,0.912715,0.0698534,
2,1,0,1,0,55575.4,0.0717128,0.0713751,0.0332271,29,-0.00120174,10,2.37159e-06,-4.47851,0.0798009,0.73934,0.943842,0.0713751,
2,1,0,1,0,55576.9,0.073211,0.0728714,0.0342117,29,-0.00113618,10,2.49305e-06,-4.46583,0.0743086,0.793986,1.07404,0.07287135,
2,1,0,1,0,55578.4,0.0747092,0.0743612,0.0354741,29,-0.0010686,10,2.6379e-06,-4.45009,0.104911,0.562384,0.791998,0.0743612,
2,1,0,1,0,55579.9,0.0762074,0.0758692,0.0367563,29,-0.000999368,10,2.78867e-06,-4.43467,0.102922,0.573249,0.832577,0.07586918,
2,1,0,1,0,55581.4,0.0777055,0.0773759,0.0384694,29,-0.000927832,10,2.97661e-06,-4.41488,0.0804864,0.733043,1.10039,0.0773759,
2,1,0,1,0,55582.9,0.0792037,0.0788838,0.0404201,29,-0.000854093,10,3.18849e-06,-4.3934,0.0953684,0.618654,0.962743,0.0788838,
2,1,0,1,0,55584.4,0.0807019,0.0803344,0.0410694,29,-0.000777978,10,3.29928e-06,-4.38648,0.120677,0.488909,0.778671,0.0803344,
2,1,0,1,0,55585.9,0.0822001,0.0818763,0.0419273,29,-0.000700429,10,3.43285e-06,-4.3775,0.132354,0.445774,0.745143,0.0818763,
2,1,0,1,0,55587.4,0.0836983,0.0833906,0.0437048,29,-0.000621071,10,3.64457e-06,-4.35947,0.0907785,0.649934,1.12668,0.0833906,
2,1,0,1,0,55588.9,0.0851965,0.0848984,0.0460109,29,-0.00053858,10,3.90625e-06,-4.33714,0.0847527,0.696143,1.24218,0.0848984,
2,1,0,1,0,55590.4,0.0866947,0.0863555,0.0474435,29,-0.00045347,10,4.097e-06,-4.32382,0.125771,0.469107,0.868281,0.0863555,
2,1,0,1,0,55591.8,0.0881929,0.0878528,0.049406,29,-0.000365623,10,4.34046e-06,-4.30622,0.0820419,0.719145,1.38089,0.0878528,
2,1,0,1,0,55593.3,0.0896911,0.0893756,0.0513146,29,-0.000275551,10,4.58627e-06,-4.28976,0.0916659,0.643642,1.2921,0.08937557,
2,1,0,1,0,55594.8,0.0911893,0.0908187,0.0531203,29,-0.000182397,10,4.82432e-06,-4.27474,0.105745,0.557944,1.14807,0.0908187,
2,1,0,1,0,55596.3,0.0926875,0.0923214,0.055029,29,-8.61228e-05,10,5.08036e-06,-4.25941,0.0932915,0.632427,1.3511,0.0923214,
2,1,0,1,0,55597.8,0.0941857,0.09386,0.0565661,29,1.25446e-05,10,5.3093e-06,-4.24744,0.0996616,0.592003,1.31152,0.09386,
2,1,0,1,0,55599.3,0.0956839,0.0953435,0.0589851,29,0.000114153,10,5.62385e-06,-4.22926,0.0985362,0.598765,1.36976,0.0953435,
2,1,0,1,0,55600.8,0.0971821,0.0968451,0.0606697,29,0.000219035,10,5.87557e-06,-4.21703,0.102147,0.577599,1.36288,0.0968451,
2,1,0,1,0,55602.3,0.0986803,0.0983413,0.0620265,29,0.000326652,10,6.09977e-06,-4.20742,0.116803,0.505123,1.23733,0.0983413,
2,1,0,1,0,55603.8,0.100178,0.0998481,0.0644079,29,0.000437314,10,6.431e-06,-4.19106,0.121243,0.486626,1.2258,0.0998481,
2,1,0,1,0,55605.3,0.101677,0.101325,0.066038,29,0.000550185,10,6.69131e-06,-4.18021,0.131281,0.449419,1.16781,0.101325,
2,1,0,1,0,55606.8,0.103175,0.102818,0.068411,29,0.000666094,10,7.0339e-06,-4.16487,0.115521,0.510728,1.35491,0.102818,
2,1,0,1,0,55608.3,0.104673,0.104347,0.0705989,29,0.000785393,10,7.36681e-06,-4.1512,0.133782,0.441017,1.19923,0.104347,
2,1,0,1,0,55609.8,0.106171,0.105812,0.0722004,29,0.000907359,10,7.63966e-06,-4.14146,0.16671,0.353907,0.990938,0.105812,
2,1,0,1,0,55611.3,0.107669,0.107338,0.0730748,29,0.00103179,10,7.84368e-06,-4.13623,0.145468,0.405588,1.1717,0.107338,
2,1,0,1,0,55612.8,0.109167,0.108886,0.0760617,29,0.00115887,10,8.28205e-06,-4.11883,0.139954,0.421567,1.25014,0.1088859,
2,1,0,1,0,55614.3,0.110666,0.110329,0.0773466,29,0.00128913,10,8.53358e-06,-4.11156,0.150574,0.391835,1.18557,0.110329,
2,1,0,1,0,55615.8,0.112164,0.111847,0.0787238,29,0.00142195,10,8.80498e-06,-4.10389,0.223727,0.263714,0.811395,0.111847,
2,1,0,1,0,55617.3,0.113662,0.113321,0.08053,29,0.00155705,10,9.1257e-06,-4.09404,0.171526,0.343972,1.08313,0.113321,
2,1,0,1,0,55618.8,0.11516,0.114779,0.0821291,29,0.00169389,10,9.42667e-06,-4.0855,0.202789,0.290943,0.931899,0.114779,
2,1,0,1,0,55620.3,0.116658,0.116346,0.0838332,29,0.00183364,10,9.75365e-06,-4.07658,0.161635,0.36502,1.19209,0.116346,
2,1,0,1,0,55621.8,0.118157,0.117813,0.0853209,29,0.00197599,10,1.00519e-05,-4.06894,0.186322,0.316657,1.05045,0.117813,
2,1,0,1,0,55623.3,0.119655,0.119317,0.0871794,29,0.0021208,10,1.0402e-05,-4.05959,0.229083,0.257549,0.874932,0.119317,
2,1,0,1,0,55624.8,0.121153,0.120824,0.0882277,29,0.00226708,10,1.066e-05,-4.0544,0.213195,0.276742,0.955844,0.120824,
2,1,0,1,0,55626.3,0.122651,0.122336,0.0890869,29,0.00241594,10,1.08985e-05,-4.05019,0.174714,0.337695,1.17688,0.122336,
2,1,0,1,0,55627.8,0.124149,0.123847,0.091024,29,0.00256695,10,1.12731e-05,-4.04084,0.24413,0.241675,0.860178,0.123847,
2,1,0,1,0,55629.3,0.125648,0.125261,0.0919555,29,0.00271975,10,1.15184e-05,-4.03642,0.366779,0.16086,0.57525,0.125261,
2,1,0,1,0,55630.8,0.127146,0.126813,0.091991,29,0.00287379,10,1.16657e-05,-4.03625,0.571689,0.103203,0.372193,0.126813,
2,1,0,1,0,55632.3,0.128644,0.128316,0.0932827,29,0.00302846,10,1.19696e-05,-4.0302,1.96135,0.0300813,0.108967,0.128316,
2,1,0,1,0,55633.8,0.130142,0.129787,0.0937719,29,0.00318409,10,1.21703e-05,-4.02793,-2.50386,-0.0235636,-0.085359,0.1297866,
2,1,0,1,0,55635.3,0.13164,0.131306,0.0931349,29,0.00333939,10,1.22292e-05,-4.03089,-0.314538,-0.187577,-0.675003,0.1313061,
2,1,0,1,0,55636.8,0.133139,0.132799,0.091934,29,0.00349348,10,1.22088e-05,-4.03652,-0.216233,-0.272853,-0.975933,0.132799,
2,1,0,1,0,55638.3,0.134637,0.134294,0.0904276,29,0.003645,10,1.21439e-05,-4.0437,-0.170493,-0.346055,-1.21654,0.134294,
2,1,0,1,0,55639.8,0.136135,0.135783,0.0880226,29,0.00379416,10,1.1952e-05,-4.05541,-0.13258,-0.445013,-1.52442,0.135783,
2,1,0,1,0,55641.3,0.137633,0.137284,0.085623,29,0.0039396,10,1.17546e-05,-4.06741,-0.0959812,-0.614704,-2.04132,0.137284,
2,1,0,1,0,55642.8,0.139131,0.138777,0.0827559,29,0.00408052,10,1.14846e-05,-4.0822,-0.0874387,-0.674759,-2.16536,0.138777,
2,1,0,1,0,55644.3,0.14063,0.140271,0.0796376,29,0.00421617,10,1.11708e-05,-4.09888,-0.0793362,-0.74367,-2.2835,0.140271,
2,1,0,1,0,55645.8,0.142128,0.14184,0.0762114,29,0.00434708,10,1.08098e-05,-4.11798,-0.073496,-0.802765,-2.35552,0.14184,
2,1,0,1,0,55647.3,0.143626,0.143249,0.0720475,29,0.00447293,10,1.03208e-05,-4.14238,-0.0716284,-0.823696,-2.31646,0.143249,
2,1,0,1,0,55648.8,0.145124,0.144803,0.0684206,29,0.00459301,10,9.9075e-06,-4.16481,-0.0648319,-0.910046,-2.4572,0.1448029,
2,1,0,1,0,55650.3,0.146622,0.146272,0.0656066,29,0.00470783,10,9.59638e-06,-4.18305,-0.0747874,-0.788903,-2.0238,0.146272,
2,1,0,1,0,55651.8,0.14812,0.147788,0.0626438,29,0.0048182,10,9.258e-06,-4.20312,-0.0792639,-0.744349,-1.81617,0.147788,
2,1,0,1,0,55653.3,0.149619,0.149268,0.0597084,29,0.0049243,10,8.91257e-06,-4.22396,-0.084619,-0.697243,-1.64201,0.149268,
2,1,0,1,0,55654.8,0.151117,0.150771,0.0577614,29,0.00502658,10,8.70875e-06,-4.23836,-0.0973581,-0.60601,-1.36615,0.150771,
2,1,0,1,0,55656.3,0.152615,0.152274,0.0558245,29,0.00512589,10,8.5006e-06,-4.25318,-0.120208,-0.490815,-1.07546,0.152274,
2,1,0,1,0,55657.8,0.154113,0.153776,0.0548586,29,0.0052227,10,8.43594e-06,-4.26076,-0.193899,-0.304282,-0.653528,0.153776,
2,1,0,1,0,55659.3,0.155611,0.155308,0.0540048,29,0.00531793,10,8.38739e-06,-4.26757,-0.164671,-0.358291,-0.749566,0.155308,
2,1,0,1,0,55660.8,0.15711,0.156775,0.052986,29,0.00541197,10,8.30688e-06,-4.27584,-0.168215,-0.350742,-0.721335,0.156775,
2,1,0,1,0,55662.3,0.158608,0.158278,0.0522889,29,0.00550445,10,8.27616e-06,-4.28159,-0.380846,-0.154918,-0.317687,0.158278,
2,1,0,1,0,55663.8,0.160106,0.159801,0.0512837,29,0.00559571,10,8.19521e-06,-4.29002,-0.248141,-0.237768,-0.479716,0.159801,
2,1,0,1,0,55665.3,0.161604,0.161271,0.050728,29,0.00568623,10,8.18097e-06,-4.29475,-0.260557,-0.226438,-0.450132,0.161271,
2,1,0,1,0,55666.8,0.163102,0.162787,0.0503674,29,0.00577588,10,8.19918e-06,-4.29785,-0.565813,-0.104275,-0.205785,0.162787,
2,1,0,1,0,55668.3,0.164601,0.164244,0.0505409,29,0.00586496,10,8.30107e-06,-4.29636,-1.04331,-0.056551,-0.110947,0.164244,
2,1,0,1,0,55669.8,0.166099,0.16575,0.0501719,29,0.00595345,10,8.316e-06,-4.29954,-7.29103,-0.00809214,-0.0157487,0.16575,
2,1,0,1,0,55671.3,0.167597,0.16725,0.0497168,29,0.00604195,10,8.31512e-06,-4.3035,2.05511,0.0287089,0.056281,0.16725,
2,1,0,1,0,55672.8,0.169095,0.168797,0.0498937,29,0.0061306,10,8.4219e-06,-4.30195,3.12889,0.0188565,0.0371289,0.168797,
2,1,0,1,0,55674.2,0.170593,0.170316,0.0504192,29,0.00621957,10,8.58722e-06,-4.2974,-2.30447,-0.0256024,-0.0501342,0.170316,
2,1,0,1,0,55675.7,0.172091,0.171738,0.0500498,29,0.00630823,10,8.59546e-06,-4.3006,-3.07436,-0.019191,-0.0378115,0.171738,
2,1,0,1,0,55677.2,0.17359,0.173218,0.0503501,29,0.0063968,10,8.72152e-06,-4.298,0.799074,0.0738354,0.144465,0.173218,
2,1,0,1,0,55678.7,0.175088,0.174748,0.0504346,29,0.00648564,10,8.81333e-06,-4.29727,-4.41245,-0.0133712,-0.0261654,0.174748,
2,1,0,1,0,55680.2,0.176586,0.176273,0.0501796,29,0.00657443,10,8.8453e-06,-4.29947,18.2586,0.00323136,0.00633371,0.176273,
2,1,0,1,0,55681.7,0.178084,0.177788,0.0499367,29,0.00666269,10,8.87814e-06,-4.30158,-4.31103,-0.0136858,-0.0269282,0.177788,
2,1,0,1,0,55683.2,0.179582,0.179245,0.0502353,29,0.00675095,10,9.00442e-06,-4.29899,1.23889,0.0476232,0.0930145,0.179245,
2,1,0,1,0,55684.7,0.181081,0.180775,0.0500111,29,0.00683967,10,9.04077e-06,-4.30093,7.16117,0.00823888,0.0161504,0.180775,
2,1,0,1,0,55686.2,0.182579,0.182248,0.0508468,29,0.00692839,10,9.26674e-06,-4.29374,13.2427,0.00445529,0.00876656,0.182248,
2,1,0,1,0,55687.7,0.184077,0.183757,0.0503443,29,0.007017,10,9.25112e-06,-4.29805,1.76204,0.0334838,0.0662344,0.183757,
2,1,0,1,0,55689.2,0.185575,0.185218,0.0508538,29,0.00710587,10,9.41906e-06,-4.29368,0.477239,0.123628,0.242776,0.185218,
2,1,0,1,0,55690.7,0.187073,0.186765,0.0510642,29,0.00719519,10,9.53703e-06,-4.29188,0.896054,0.0658442,0.130715,0.186765,
2,1,0,1,0,55692.2,0.188572,0.188262,0.0512184,29,0.00728485,10,9.64245e-06,-4.29057,0.79381,0.0743251,0.147737,0.188262,
2,1,0,1,0,55693.7,0.19007,0.18973,0.0511959,29,0.00737488,10,9.71341e-06,-4.29077,1.31724,0.0447906,0.0893192,0.18973,
2,1,0,1,0,55695.2,0.191568,0.191227,0.0513096,29,0.00746467,10,9.81176e-06,-4.2898,-8.33367,-0.00707971,-0.0141791,0.191227,
2,1,0,1,0,55696.7,0.193066,0.192695,0.0513056,29,0.0075546,10,9.88636e-06,-4.28983,0.55811,0.105714,0.211195,0.192695,
2,1,0,1,0,55698.2,0.194564,0.194253,0.051767,29,0.00764491,10,1.00559e-05,-4.28595,0.927705,0.0635978,0.12796,0.194253,
2,1,0,1,0,55699.7,0.196063,0.195743,0.0516777,29,0.00773516,10,1.01155e-05,-4.2867,0.985188,0.0598871,0.120996,0.195743,
2,1,0,1,0,55701.2,0.197561,0.197241,0.0518638,29,0.0078257,10,1.02297e-05,-4.28514,0.528791,0.111575,0.226405,0.197241,
2,1,0,1,0,55702.7,0.199059,0.198712,0.0517369,29,0.00791659,10,1.02807e-05,-4.2862,0.778893,0.0757485,0.153577,0.198712,
2,1,0,1,0,55704.2,0.200557,0.200238,0.0529252,29,0.00800802,10,1.05976e-05,-4.27634,1.57956,0.0373521,0.0764414,0.200238,
2,1,0,1,0,55705.7,0.202055,0.20173,0.0526661,29,0.0080995,10,1.06243e-05,-4.27847,1.40699,0.0419334,0.0861194,0.2017298,
2,1,0,1,0,55707.2,0.203554,0.203198,0.0524531,29,0.00819103,10,1.06584e-05,-4.28023,0.599565,0.0984046,0.202625,0.203198,
2,1,0,1,0,55708.7,0.205052,0.204666,0.0527097,29,0.00828283,10,1.07879e-05,-4.27811,0.605903,0.0973753,0.201864,0.204666,
2,1,0,1,0,55710.2,0.20655,0.206179,0.0528749,29,0.00837487,10,1.09017e-05,-4.27675,2.28984,0.025766,0.0532429,0.206179,
2,1,0,1,0,55711.7,0.208048,0.207715,0.0530066,29,0.0084675,10,1.10102e-05,-4.27567,3.89295,0.0151556,0.0312523,0.207715,
2,1,0,1,0,55713.2,0.209546,0.20921,0.0533089,29,0.00855997,10,1.11527e-05,-4.2732,62.6608,0.000941577,0.00195416,0.20921,
2,1,0,1,0,55714.7,0.211044,0.210697,0.0532259,29,0.00865229,10,1.12145e-05,-4.27388,2.84418,0.0207441,0.0431002,0.210697,
2,1,0,1,0,55716.2,0.212543,0.212189,0.0535966,29,0.00874506,10,1.13726e-05,-4.27086,0.852923,0.0691739,0.143939,0.212189,
2,1,0,1,0,55717.7,0.214041,0.213739,0.053755,29,0.00883825,10,1.14895e-05,-4.26958,1.18149,0.049937,0.104629,0.213739,
2,1,0,1,0,55719.2,0.215539,0.215192,0.0543294,29,0.00893159,10,1.16912e-05,-4.26496,1.38829,0.0424983,0.0893063,0.215192,
2,1,0,1,0,55720.7,0.217037,0.216713,0.053789,29,0.00902522,10,1.16568e-05,-4.26931,0.511477,0.115352,0.244254,0.216713,
2,1,0,1,0,55722.2,0.218535,0.21823,0.0546017,29,0.00911894,10,1.19157e-05,-4.26279,0.552756,0.106738,0.227265,0.21823,
2,1,0,1,0,55723.7,0.220034,0.219713,0.0545593,29,0.00921362,10,1.19874e-05,-4.26313,0.427174,0.138117,0.293299,0.219713,
2,1,0,1,0,55725.2,0.221532,0.22121,0.0550362,29,0.0093082,10,1.21745e-05,-4.25935,-2.86195,-0.0206153,-0.0441592,0.22121,
2,1,0,1,0,55726.7,0.22303,0.2227,0.0546424,29,0.00940283,10,1.21689e-05,-4.26247,2.67217,0.0220794,0.047305,0.2227,
2,1,0,1,0,55728.2,0.224528,0.224192,0.0548574,29,0.00949774,10,1.22986e-05,-4.26076,1.1515,0.0512374,0.110261,0.224192,
2,1,0,1,0,55729.7,0.226026,0.225711,0.0552951,29,0.00959305,10,1.24807e-05,-4.25731,6.10351,0.00966657,0.0208429,0.225711,
2,1,0,1,0,55731.2,0.227525,0.227222,0.0558433,29,0.0096887,10,1.26888e-05,-4.25303,0.615234,0.0958984,0.208952,0.227222,
2,1,0,1,0,55732.7,0.229023,0.228691,0.0557969,29,0.00978446,10,1.27602e-05,-4.25339,0.558745,0.105594,0.231242,0.228691,
2,1,0,1,0,55734.2,0.230521,0.230199,0.0567479,29,0.00988103,10,1.30633e-05,-4.24605,0.484179,0.121856,0.267281,0.230199,
2,1,0,1,0,55735.7,0.232019,0.231702,0.0559126,29,0.00997808,10,1.29551e-05,-4.25249,0.473701,0.124551,0.276242,0.231702,
2,1,0,1,0,55737.2,0.233517,0.233188,0.0563108,29,0.0100753,10,1.3131e-05,-4.24941,1.6617,0.0355058,0.0785724,0.233188,
2,1,0,1,0,55738.7,0.235016,0.234697,0.0571289,29,0.0101728,10,1.3408e-05,-4.24314,1.37075,0.0430422,0.0952051,0.234697,
2,1,0,1,0,55740.2,0.236514,0.23619,0.0570723,29,0.0102704,10,1.34799e-05,-4.24357,0.916265,0.0643918,0.142841,0.23619,
2,1,0,1,0,55741.7,0.238012,0.237713,0.0569347,29,0.0103681,10,1.35341e-05,-4.24462,0.716915,0.0822971,0.183867,0.237713,
2,1,0,1,0,55743.2,0.23951,0.239213,0.057254,29,0.0104661,10,1.36959e-05,-4.24219,1.51905,0.03884,0.0868696,0.239213,
2,1,0,1,0,55744.7,0.241008,0.240711,0.0573073,29,0.0105644,10,1.37945e-05,-4.24179,1.3093,0.0450621,0.100847,0.240711,
2,1,0,1,0,55746.2,0.242506,0.24216,0.0573977,29,0.0106625,10,1.38994e-05,-4.24111,0.818543,0.0720793,0.162141,0.2421599,
2,1,0,1,0,55747.7,0.244005,0.243666,0.0577219,29,0.0107613,10,1.40649e-05,-4.23866,0.692828,0.0851582,0.192405,0.243666,
2,1,0,1,0,55749.2,0.245503,0.245187,0.0583194,29,0.0108605,10,1.42992e-05,-4.23419,1.49991,0.0393356,0.0892797,0.245187,
2,1,0,1,0,55750.7,0.247001,0.246659,0.0583798,29,0.01096,10,1.43999e-05,-4.23374,1.50827,0.0391178,0.0889842,0.246659,
2,1,0,1,0,55752.2,0.248499,0.248144,0.0584781,29,0.0110597,10,1.4511e-05,-4.23301,-3.07174,-0.0192073,-0.0436507,0.248144,
2,1,0,1,0,55753.7,0.249997,0.249671,0.0582324,29,0.0111592,10,1.45389e-05,-4.23484,1.39207,0.042383,0.0970308,0.2496708,
2,1,0,1,0,55755.2,0.251496,0.251162,0.0586036,29,0.0112587,10,1.4719e-05,-4.23208,1.2386,0.0476345,0.108551,0.251162,
2,1,0,1,0,55756.7,0.252994,0.25267,0.0586945,29,0.0113587,10,1.48303e-05,-4.2314,1.32863,0.0444068,0.101047,0.25267,
2,1,0,1,0,55758.1,0.254492,0.254153,0.0587905,29,0.0114588,10,1.49418e-05,-4.23069,1.57002,0.0375791,0.0865582,0.254153,
2,1,0,1,0,55759.6,0.25599,0.255661,0.0589387,29,0.011559,10,1.50683e-05,-4.2296,1.85843,0.0317472,0.0735283,0.255661,
2,1,0,1,0,55761.1,0.257488,0.257146,0.0593911,29,0.0116596,10,1.52722e-05,-4.22628,0.490201,0.120359,0.279979,0.2571457,
2,1,0,1,0,55762.6,0.258987,0.258642,0.0596948,29,0.0117607,10,1.54396e-05,-4.22406,0.964959,0.0611425,0.142505,0.2586419,
2,1,0,1,0,55764.1,0.260485,0.26017,0.0600745,29,0.0118626,10,1.56296e-05,-4.22131,2.12701,0.0277384,0.0647933,0.26017,
2,1,0,1,0,55765.6,0.261983,0.26164,0.0601888,29,0.0119642,10,1.57478e-05,-4.22048,1.19423,0.049404,0.116418,0.26164,
2,1,0,1,0,55767.1,0.263481,0.263134,0.0605596,29,0.0120662,10,1.59353e-05,-4.21782,0.473787,0.124528,0.293239,0.263134,
2,1,0,1,0,55768.6,0.264979,0.264663,0.0607652,29,0.012169,10,1.60823e-05,-4.21634,0.894537,0.0659559,0.15634,0.264663,
2,1,0,1,0,55770.1,0.266477,0.266133,0.060996,29,0.0122719,10,1.6233e-05,-4.2147,1.13286,0.0520804,0.123828,0.266133,
2,1,0,1,0,55771.6,0.267976,0.267621,0.0607364,29,0.0123749,10,1.62544e-05,-4.21655,0.557944,0.105745,0.252615,0.267621,
2,1,0,1,0,55773.1,0.269474,0.26913,0.0608932,29,0.0124781,10,1.63882e-05,-4.21543,0.517179,0.11408,0.273059,0.26913,
2,1,0,1,0,55774.6,0.270972,0.270654,0.061758,29,0.0125819,10,1.6715e-05,-4.20931,1.44118,0.0409387,0.0979299,0.270654,
2,1,0,1,0,55776.1,0.27247,0.272164,0.06159,29,0.012686,10,1.67626e-05,-4.21049,1.93437,0.030501,0.073559,0.272164,
2,1,0,1,0,55777.6,0.273968,0.273627,0.0616035,29,0.0127899,10,1.68564e-05,-4.21039,1.59771,0.0369277,0.0888816,0.273627,
2,1,0,1,0,55779.1,0.275467,0.275108,0.0617292,29,0.0128939,10,1.69822e-05,-4.20951,0.721127,0.0818164,0.196762,0.2751078,
2,1,0,1,0,55780.6,0.276965,0.27663,0.0620034,29,0.0129982,10,1.7152e-05,-4.20758,-26.8952,-0.0021937,-0.00531735,0.27663,
2,1,0,1,0,55782.1,0.278463,0.278105,0.0622407,29,0.013103,10,1.73094e-05,-4.20593,18.9637,0.0031112,0.00752986,0.278105,
2,1,0,1,0,55783.6,0.279961,0.279644,0.062244,29,0.0132079,10,1.74062e-05,-4.2059,1.45352,0.0405911,0.0989841,0.279644,
2,1,0,1,0,55785.1,0.281459,0.281142,0.0624435,29,0.0133126,10,1.75555e-05,-4.20451,2.2102,0.0266944,0.0653251,0.281142,
2,1,0,1,0,55786.6,0.282958,0.282608,0.0625203,29,0.0134178,10,1.76687e-05,-4.20398,1.2393,0.0476077,0.116215,0.282608,
2,1,0,1,0,55788.1,0.284456,0.284166,0.0629184,29,0.0135234,10,1.78793e-05,-4.20122,1.00974,0.0584307,0.143426,0.284166,
2,1,0,1,0,55789.6,0.285954,0.285615,0.0636399,29,0.0136291,10,1.81765e-05,-4.19627,4.66441,0.012649,0.0310444,0.285615,
2,1,0,1,0,55791.1,0.287452,0.287105,0.0630191,29,0.0137348,10,1.80931e-05,-4.20053,0.955578,0.0617427,0.152161,0.287105,
2,1,0,1,0,55792.6,0.28895,0.288614,0.0634472,29,0.0138407,10,1.83118e-05,-4.19759,1.1968,0.0492981,0.121798,0.2886143,
2,1,0,1,0,55794.1,0.290448,0.290106,0.0638519,29,0.0139472,10,1.85238e-05,-4.19483,0.733042,0.0804865,0.199289,0.290106,
2,1,0,1,0,55795.6,0.291947,0.291611,0.0634791,29,0.014054,10,1.85112e-05,-4.19737,1.21359,0.0486162,0.120741,0.2916109,
2,1,0,1,0,55797.1,0.293445,0.293107,0.0640251,29,0.0141611,10,1.87662e-05,-4.19365,1.31364,0.0449135,0.112041,0.293107,
2,1,0,1,0,55798.6,0.294943,0.294647,0.064125,29,0.0142682,10,1.88942e-05,-4.19297,7.46636,0.00790211,0.019824,0.294647,
2,1,0,1,0,55800.1,0.296441,0.29612,0.0646109,29,0.0143754,10,1.91326e-05,-4.18969,0.871441,0.067704,0.169589,0.29612,
2,1,0,1,0,55801.6,0.297939,0.29763,0.0644452,29,0.0144832,10,1.91808e-05,-4.19081,0.739432,0.079791,0.199952,0.2976298,
2,1,0,1,0,55803.1,0.299438,0.299097,0.064462,29,0.0145912,10,1.92804e-05,-4.1907,-0.00443198,-13.3123,-21.5155,0.299097,
2,1,0,1,0,55803.9,0.299737,0.299334,0.0327162,29,0.0146403,10,9.79305e-06,-4.48524,0.00205797,28.6691,39.8992,0.299334,
2,1,0,1,0,55805.4,0.298239,0.297937,0.0194622,29,0.0146646,10,5.79853e-06,-4.71081,0.00514556,11.4662,14.3911,0.297937,
2,1,0,1,0,55806.9,0.296741,0.296423,0.0139476,29,0.0146779,10,4.1344e-06,-4.8555,0.0114832,5.13796,2.94003,0.296423,
2,1,0,1,0,55808.4,0.295243,0.294923,0.01072,29,0.0146847,10,3.16157e-06,-4.96981,0.0130777,4.51149,1.94831,0.294923,
2,1,0,1,0,55809.9,0.293745,0.293404,0.00786629,29,0.0146874,10,2.308e-06,-5.10423,0.0111529,5.29012,1.59789,0.2934041,
2,0,0,1,0,55811.4,0.292246,0.291903,0.0058995,29,0.0146869,10,1.72208e-06,-5.22918,0.00999315,5.90404,1.32707,0.291903,
2,1,0,1,0,55812.9,0.290748,0.290426,0.00366855,29,0.014683,10,1.06545e-06,-5.4355,0.00754657,7.81813,1.18885,0.2904264,
2,1,0,1,0,55814.4,0.28925,0.288946,0.00221677,29,0.0146764,10,6.40527e-07,-5.65428,0.00377922,15.6117,1.05033,0.288946,
2,1,0,1,0,55815.9,0.287752,0.287406,0.000920841,29,0.0146675,10,2.64656e-07,-6.03582,0.00801087,7.36499,0.92817,0.287406,
2,1,0,1,0,55817.4,0.286254,0.285895,-0.000823919,29,0.0146566,10,-2.35555e-07,-6.08412,-0.0120615,-4.89158,0.943281,0.285895,
2,0,0,1,0,55818.9,0.284755,0.284437,-0.00224052,29,0.0146434,10,-6.37289e-07,-5.64965,-0.00343532,-17.1745,1.04388,0.284437,
2,0,0,1,0,55820.4,0.283257,0.282939,-0.0029925,29,0.0146282,10,-8.46694e-07,-5.52397,-0.00964083,-6.1198,0.686098,0.2829389,
2,0,0,1,0,55821.9,0.281759,0.281395,-0.00429892,29,0.0146113,10,-1.20969e-06,-5.36664,-0.0116555,-5.06198,0.803036,0.281395,
2,0,0,1,0,55823.4,0.280261,0.279936,-0.00496259,29,0.0145929,10,-1.38921e-06,-5.30429,-0.0149437,-3.94816,0.769612,0.279936,
2,0,0,1,0,55824.9,0.278763,0.278457,-0.00652069,29,0.0145729,10,-1.81573e-06,-5.18571,-0.0213815,-2.75939,0.652411,0.278457,
2,0,0,1,0,55826.4,0.277264,0.276917,-0.00704933,29,0.0145512,10,-1.95208e-06,-5.15185,-0.0275032,-2.1452,0.59859,0.276917,
2,1,0,1,0,55827.9,0.275766,0.27544,-0.00800392,29,0.0145283,10,-2.2046e-06,-5.0967,-0.0353611,-1.6685,0.506217,0.27544,
2,0,0,1,0,55829.4,0.274268,0.273921,-0.008919,29,0.014504,10,-2.4431e-06,-5.04968,-0.0301428,-1.95735,0.688195,0.273921,
2,0,0,1,0,55830.9,0.27277,0.272448,-0.00972327,29,0.0144788,10,-2.64909e-06,-5.01219,-0.0343322,-1.7185,0.654151,0.272448,
2,1,0,1,0,55832.4,0.271272,0.270965,-0.0104184,29,0.0144518,10,-2.82302e-06,-4.9822,-0.0433001,-1.36258,0.568021,0.270965,
2,1,0,1,0,55833.9,0.269774,0.269436,-0.0117876,29,0.0144235,10,-3.17599e-06,-4.92858,-0.0570109,-1.03489,0.462402,0.269436,
2,1,0,1,0,55835.4,0.268275,0.267937,-0.0125446,29,0.014394,10,-3.36116e-06,-4.90154,-0.0589841,-1.00027,0.472095,0.267937,
2,0,0,1,0,55836.9,0.266777,0.266472,-0.013287,29,0.0143636,10,-3.5406e-06,-4.87657,-0.0616096,-0.957643,0.482352,0.266472,
2,0,0,1,0,55838.4,0.265279,0.26495,-0.0137847,29,0.0143318,10,-3.65225e-06,-4.8606,-0.0587569,-1.00414,0.536744,0.26495,
2,0,0,1,0,55839.9,0.263781,0.263477,-0.0146067,29,0.0142988,10,-3.84853e-06,-4.83545,-0.087402,-0.675042,0.384155,0.263477,
2,0,0,1,0,55841.4,0.262283,0.261942,-0.0152621,29,0.0142649,10,-3.99777e-06,-4.81639,-0.0739201,-0.798159,0.476127,0.261942,
2,0,0,1,0,55842.9,0.260784,0.260443,-0.01586,29,0.0142301,10,-4.13064e-06,-4.7997,-0.0668963,-0.881962,0.550869,0.260443,
2,0,0,1,0,55844.4,0.259286,0.258996,-0.0166789,29,0.014194,10,-4.31976e-06,-4.77783,-0.0717509,-0.822289,0.534899,0.258996,
2,0,0,1,0,55845.9,0.257788,0.257456,-0.0173879,29,0.0141568,10,-4.47664e-06,-4.75975,-0.113871,-0.518129,0.354148,0.257456,
2,0,0,1,0,55847.4,0.25629,0.255938,-0.0182317,29,0.0141184,10,-4.66619e-06,-4.73917,-0.0896402,-0.658187,0.456978,0.255938,
2,0,0,1,0,55848.9,0.254792,0.254448,-0.0184282,29,0.0140791,10,-4.68901e-06,-4.73452,-0.0967414,-0.609873,0.44592,0.254448,
2,0,0,1,0,55850.4,0.253293,0.252945,-0.0192318,29,0.014039,10,-4.8646e-06,-4.71598,-0.10675,-0.552691,0.418243,0.252945,
2,0,0,1,0,55851.9,0.251795,0.25143,-0.0202481,29,0.0139976,10,-5.09099e-06,-4.69362,-0.119531,-0.493596,0.383231,0.25143,
2,0,0,1,0,55853.4,0.250297,0.249961,-0.0208592,29,0.0139552,10,-5.21398e-06,-4.6807,-0.160505,-0.36759,0.29452,0.249961,
2,0,0,1,0,55854.9,0.248799,0.248453,-0.0210847,29,0.013912,10,-5.23856e-06,-4.67603,-0.133146,-0.443123,0.366529,0.248453,
2,0,0,1,0,55856.4,0.247301,0.247001,-0.0217322,29,0.0138682,10,-5.36787e-06,-4.6629,-0.118705,-0.497031,0.424033,0.247001,
2,0,0,1,0,55857.9,0.245802,0.245478,-0.0221814,29,0.0138233,10,-5.44504e-06,-4.65401,-0.199066,-0.296385,0.255034,0.245478,
2,0,0,1,0,55859.4,0.244304,0.243957,-0.0227288,29,0.0137775,10,-5.54487e-06,-4.64342,-0.299615,-0.19692,0.176331,0.2439573,
2,0,0,1,0,55860.9,0.242806,0.242424,-0.0237222,29,0.0137311,10,-5.75082e-06,-4.62485,-0.138894,-0.424785,0.380458,0.242424,
2,0,0,1,0,55862.4,0.241308,0.241013,-0.0243226,29,0.0136839,10,-5.86207e-06,-4.61399,-0.126451,-0.466586,0.438499,0.241013,
2,0,0,1,0,55863.9,0.23981,0.239485,-0.0243864,29,0.0136358,10,-5.84018e-06,-4.61285,-0.109282,-0.539887,0.513483,0.239485,
2,0,0,1,0,55865.4,0.238312,0.238001,-0.025472,29,0.0135861,10,-6.06237e-06,-4.59394,-0.126109,-0.467848,0.461558,0.238001,
2,0,0,1,0,55866.9,0.236813,0.236459,-0.0258057,29,0.0135356,10,-6.102e-06,-4.58828,-0.21652,-0.272492,0.277055,0.236459,
2,0,0,1,0,55868.4,0.235315,0.234951,-0.0259944,29,0.0134845,10,-6.10742e-06,-4.58512,-0.156567,-0.376835,0.393246,0.234951,
2,0,0,1,0,55869.9,0.233817,0.233478,-0.0270897,29,0.0134324,10,-6.32487e-06,-4.5672,-0.153277,-0.384925,0.402753,0.2334784,
2,0,0,1,0,55871.4,0.232319,0.231967,-0.0275822,29,0.0133793,10,-6.39818e-06,-4.55937,-0.244685,-0.241126,0.256896,0.231967,
2,0,0,1,0,55872.9,0.230821,0.230471,-0.0280844,29,0.0133255,10,-6.47265e-06,-4.55153,-0.224551,-0.262747,0.284727,0.230471,
2,0,0,1,0,55874.4,0.229322,0.228959,-0.0279893,29,0.0132712,10,-6.4084e-06,-4.55301,-0.219493,-0.268802,0.29858,0.228959,
2,0,0,1,0,55875.9,0.227824,0.227473,-0.0288606,29,0.0132162,10,-6.56501e-06,-4.5397,-0.177544,-0.332313,0.373603,0.227473,
2,0,0,1,0,55877.4,0.226326,0.225998,-0.029488,29,0.0131604,10,-6.66424e-06,-4.53035,-0.170788,-0.345457,0.399864,0.225998,
2,0,0,1,0,55878.9,0.224828,0.224453,-0.0299653,29,0.0131035,10,-6.7258e-06,-4.52338,-0.224158,-0.263207,0.30661,0.224453,
2,0,0,1,0,55880.4,0.22333,0.222997,-0.030492,29,0.0130457,10,-6.79963e-06,-4.51581,-0.207218,-0.284725,0.342493,0.222997,
2,0,0,1,0,55881.8,0.221831,0.221492,-0.0315119,29,0.0129871,10,-6.97962e-06,-4.50153,-0.172731,-0.341571,0.420133,0.221492,
2,0,0,1,0,55883.3,0.220333,0.220037,-0.0317776,29,0.0129275,10,-6.99223e-06,-4.49788,-0.21355,-0.276282,0.344091,0.2200367,
2,0,0,1,0,55884.8,0.218835,0.218511,-0.0326146,29,0.0128667,10,-7.12665e-06,-4.48659,-0.22108,-0.266871,0.333885,0.218511,
2,0,0,1,0,55886.3,0.217337,0.216986,-0.0326352,29,0.0128054,10,-7.08138e-06,-4.48631,-0.202145,-0.291869,0.373733,0.216986,
2,0,0,1,0,55887.8,0.215839,0.21548,-0.0334374,29,0.0127435,10,-7.2051e-06,-4.47577,-0.148318,-0.397794,0.522234,0.21548,
2,0,0,1,0,55889.3,0.21434,0.213973,-0.034047,29,0.0126805,10,-7.28514e-06,-4.46792,-0.18497,-0.318971,0.422625,0.213973,
2,0,0,1,0,55890.8,0.212842,0.212506,-0.0343157,29,0.0126165,10,-7.29229e-06,-4.46451,-0.172788,-0.341458,0.461603,0.212506,
2,0,0,1,0,55892.3,0.211344,0.210969,-0.0352951,29,0.0125516,10,-7.44619e-06,-4.45229,-0.272483,-0.216527,0.297578,0.210969,
2,0,0,1,0,55893.8,0.209846,0.20952,-0.0356996,29,0.0124858,10,-7.47976e-06,-4.44734,-0.286781,-0.205732,0.286139,0.20952,
2,0,0,1,0,55895.3,0.208348,0.208002,-0.0361477,29,0.0124194,10,-7.51881e-06,-4.44192,-0.232706,-0.253539,0.357304,0.208002,
2,0,0,1,0,55896.8,0.20685,0.20651,-0.0372157,29,0.0123519,10,-7.68543e-06,-4.42927,-0.339668,-0.173699,0.249874,0.20651,
2,0,0,1,0,55898.3,0.205351,0.204984,-0.0374919,29,0.0122833,10,-7.68524e-06,-4.42606,-0.254424,-0.231896,0.336635,0.204984,
2,0,0,1,0,55899.8,0.203853,0.203498,-0.0376577,29,0.0122143,10,-7.66326e-06,-4.42415,-0.497725,-0.118539,0.175146,0.203498,
2,0,0,1,0,55901.3,0.202355,0.201972,-0.0382259,29,0.0121445,10,-7.72055e-06,-4.41764,-0.29468,-0.200217,0.299335,0.201972,
2,0,0,1,0,55902.8,0.200857,0.200504,-0.0386876,29,0.0120741,10,-7.75703e-06,-4.41243,-0.16442,-0.358837,0.54784,0.200504,
2,0,0,1,0,55904.3,0.199359,0.199016,-0.0396188,29,0.0120024,10,-7.88479e-06,-4.4021,-0.257106,-0.229477,0.35097,0.199016,
2,0,0,1,0,55905.8,0.19786,0.197511,-0.0400029,29,0.0119298,10,-7.901e-06,-4.39791,-0.242252,-0.243548,0.380667,0.1975105,
2,0,0,1,0,55907.3,0.196362,0.195988,-0.0405153,29,0.0118567,10,-7.9405e-06,-4.39238,-0.232987,-0.253233,0.399788,0.195988,
2,0,0,1,0,55908.8,0.194864,0.194486,-0.0409326,29,0.0117827,10,-7.96081e-06,-4.38793,-0.186106,-0.317024,0.511461,0.194486,
2,0,0,1,0,55910.3,0.193366,0.192967,-0.0415407,29,0.0117075,10,-8.01596e-06,-4.38153,-0.165729,-0.356003,0.582025,0.192967,
2,0,0,1,0,55911.8,0.191868,0.191523,-0.0423901,29,0.0116311,10,-8.11869e-06,-4.37274,-0.293845,-0.200786,0.332886,0.191523,
2,0,0,1,0,55913.3,0.190369,0.189994,-0.043395,29,0.0115538,10,-8.2448e-06,-4.36256,-0.224037,-0.26335,0.444741,0.189994,
2,0,0,1,0,55914.8,0.188871,0.188497,-0.0435731,29,0.0114754,10,-8.21339e-06,-4.36078,-0.194241,-0.303746,0.519931,0.188497,
2,0,0,1,0,55916.3,0.187373,0.18704,-0.0442047,29,0.0113963,10,-8.26805e-06,-4.35453,-0.283942,-0.207789,0.362188,0.18704,
2,0,0,1,0,55917.8,0.185875,0.185512,-0.0452944,29,0.0113159,10,-8.40265e-06,-4.34396,-0.190026,-0.310484,0.546021,0.185512,
2,0,0,1,0,55919.3,0.184377,0.183999,-0.045488,29,0.0112349,10,-8.36974e-06,-4.3421,-0.246661,-0.239195,0.427819,0.183999,
2,0,0,1,0,55920.8,0.182878,0.182553,-0.0465681,29,0.0111525,10,-8.50117e-06,-4.33191,-0.239187,-0.246669,0.444986,0.182553,
2,0,0,1,0,55922.3,0.18138,0.181038,-0.0478397,29,0.0110688,10,-8.66081e-06,-4.32021,-0.250741,-0.235303,0.433616,0.181038,
2,0,0,1,0,55923.8,0.179882,0.179549,-0.0478004,29,0.0109842,10,-8.58253e-06,-4.32057,-0.358591,-0.164533,0.308245,0.179549,
2,0,0,1,0,55925.3,0.178384,0.177966,-0.0488547,29,0.0108986,10,-8.69448e-06,-4.31109,-0.22585,-0.261236,0.495815,0.177966,
2,0,0,1,0,55926.8,0.176886,0.176505,-0.049292,29,0.010812,10,-8.70028e-06,-4.30722,-0.248907,-0.237036,0.458494,0.176505,
2,0,0,1,0,55928.3,0.175388,0.174986,-0.0498957,29,0.0107242,10,-8.73107e-06,-4.30194,-0.248744,-0.237192,0.464734,0.174986,
2,0,0,1,0,55929.8,0.173889,0.173546,-0.0508524,29,0.0106351,10,-8.82525e-06,-4.29369,-0.210374,-0.280453,0.554736,0.173546,
2,0,0,1,0,55931.3,0.172391,0.172064,-0.0515899,29,0.0105447,10,-8.87677e-06,-4.28743,-0.191401,-0.308253,0.621007,0.172064,
2,0,0,1,0,55932.8,0.170893,0.170539,-0.0522189,29,0.0104535,10,-8.90536e-06,-4.28217,-0.188669,-0.312717,0.641336,0.170539,
2,0,0,1,0,55934.3,0.169395,0.169046,-0.0537065,29,0.0103605,10,-9.07887e-06,-4.26997,-0.145785,-0.404705,0.844537,0.169046,
2,0,0,1,0,55935.8,0.167897,0.167515,-0.0546736,29,0.0102655,10,-9.15864e-06,-4.26222,-0.190987,-0.308922,0.656869,0.167515,
2,0,0,1,0,55937.3,0.166398,0.16608,-0.055339,29,0.0101694,10,-9.1907e-06,-4.25697,-0.28732,-0.205346,0.445804,0.16608,
2,0,0,1,0,55938.8,0.1649,0.164534,-0.0562387,29,0.0100721,10,-9.25318e-06,-4.24996,-0.167102,-0.353077,0.779445,0.164534,
2,0,0,1,0,55940.3,0.163402,0.163024,-0.0573654,29,0.00997288,10,-9.35194e-06,-4.24135,-0.150784,-0.391288,0.878022,0.163024,
2,0,0,1,0,55941.8,0.161904,0.161559,-0.0589162,29,0.00987191,10,-9.51847e-06,-4.22977,-0.155947,-0.378334,0.871162,0.161559,
2,0,0,1,0,55943.3,0.160406,0.160042,-0.0600569,29,0.00976906,10,-9.61162e-06,-4.22144,-0.16565,-0.356174,0.833112,0.160042,
2,0,0,1,0,55944.8,0.158907,0.158567,-0.0607542,29,0.00966438,10,-9.63361e-06,-4.21642,-0.150031,-0.393252,0.937324,0.158567,
2,0,0,1,0,55946.3,0.157409,0.157055,-0.0624689,29,0.00955803,10,-9.81104e-06,-4.20434,-0.152826,-0.386059,0.938629,0.157055,
2,0,0,1,0,55947.8,0.155911,0.155546,-0.0639409,29,0.00944923,10,-9.94575e-06,-4.19422,-0.129612,-0.455203,1.1393,0.155546,
2,0,0,1,0,55949.3,0.154413,0.154047,-0.0649965,29,0.00933804,10,-1.00125e-05,-4.18711,-0.168158,-0.350861,0.898495,0.154047,
2,0,0,1,0,55950.8,0.152915,0.152534,-0.0671802,29,0.00922411,10,-1.02473e-05,-4.17276,-0.136618,-0.431861,1.14011,0.1525344,
2,0,0,1,0,55952.3,0.151417,0.151023,-0.0689442,29,0.00910779,10,-1.04122e-05,-4.1615,-0.117404,-0.502537,1.35977,0.151023,
2,0,0,1,0,55953.8,0.149918,0.149602,-0.0711205,29,0.00898806,10,-1.06398e-05,-4.14801,-0.116123,-0.508082,1.41387,0.149602,
2,0,0,1,0,55955.3,0.14842,0.148019,-0.0734736,29,0.00886488,10,-1.08755e-05,-4.13387,-0.107819,-0.547215,1.57253,0.148019,
2,0,0,1,0,55956.8,0.146922,0.146543,-0.0757967,29,0.00873805,10,-1.11075e-05,-4.12035,-0.101744,-0.579887,1.7194,0.146543,
2,0,0,1,0,55958.3,0.145424,0.145097,-0.0785472,29,0.00860778,10,-1.1397e-05,-4.10487,-0.0983674,-0.599792,1.84863,0.145097,
2,0,0,1,0,55959.8,0.143926,0.143596,-0.0814845,29,0.00847281,10,-1.17009e-05,-4.08893,-0.0892335,-0.661187,2.10293,0.143596,
2,0,0,1,0,55961.3,0.142427,0.142085,-0.0843146,29,0.00833294,10,-1.19799e-05,-4.0741,-0.0839627,-0.702693,2.33347,0.142085,
2,0,0,1,0,55962.8,0.140929,0.140603,-0.0881676,29,0.00818826,10,-1.23966e-05,-4.05469,-0.0877699,-0.672213,2.32024,0.140603,
2,0,0,1,0,55964.3,0.139431,0.139127,-0.0913973,29,0.008038,10,-1.27158e-05,-4.03907,-0.081739,-0.72181,2.5922,0.139127,
2,0,0,1,0,55965.7,0.137933,0.137559,-0.0963943,29,0.00788203,10,-1.32599e-05,-4.01595,-0.081483,-0.724077,2.71082,0.137559,
2,0,0,1,0,55967.2,0.136435,0.136077,-0.100447,29,0.00771929,10,-1.36684e-05,-3.99807,-0.0769012,-0.767218,3.00106,0.1360769,
2,0,0,1,0,55968.7,0.134936,0.13455,-0.104925,29,0.00755002,10,-1.41177e-05,-3.97912,-0.0806297,-0.73174,2.98143,0.13455,
2,0,0,1,0,55970.2,0.133438,0.133072,-0.108867,29,0.00737388,10,-1.44871e-05,-3.96311,-0.0837256,-0.704683,2.99516,0.133072,
2,0,0,1,0,55971.7,0.13194,0.131588,-0.113019,29,0.00719181,10,-1.48719e-05,-3.94685,-0.0956213,-0.617017,2.73775,0.131588,
2,0,0,1,0,55973.2,0.130442,0.130094,-0.118008,29,0.00700327,10,-1.53521e-05,-3.92809,-0.101295,-0.582455,2.67389,0.130094,
2,0,0,1,0,55974.7,0.128944,0.128596,-0.121482,29,0.00680851,10,-1.56221e-05,-3.91549,-0.123862,-0.476335,2.25272,0.128596,
2,0,0,1,0,55976.2,0.127445,0.12707,-0.125016,29,0.00660839,10,-1.58857e-05,-3.90303,-0.135496,-0.435437,2.11705,0.12707,
2,0,0,1,0,55977.7,0.125947,0.125577,-0.12812,29,0.00640404,10,-1.60889e-05,-3.89238,-0.1607,-0.367143,1.82556,0.125577,
2,0,0,1,0,55979.2,0.124449,0.124084,-0.130566,29,0.00619521,10,-1.62011e-05,-3.88417,-0.191949,-0.307374,1.55625,0.124084,
2,0,0,1,0,55980.7,0.122951,0.122619,-0.132823,29,0.0059826,10,-1.62867e-05,-3.87673,-0.235943,-0.250061,1.28761,0.122619,
2,0,0,1,0,55982.2,0.121453,0.121082,-0.134274,29,0.00576759,10,-1.62581e-05,-3.87201,-0.412095,-0.143171,0.747391,0.121082,
2,0,0,1,0,55983.7,0.119955,0.119568,-0.134935,29,0.00555096,10,-1.61339e-05,-3.86988,-0.503947,-0.117076,0.616561,0.119568,
2,0,0,1,0,55985.2,0.118456,0.118139,-0.135888,29,0.00533277,10,-1.60537e-05,-3.86682,-0.567326,-0.103997,0.549304,0.118139,
2,0,0,1,0,55986.7,0.116958,0.116612,-0.136769,29,0.00511349,10,-1.59489e-05,-3.86401,-0.595739,-0.0990367,0.528286,0.116612,
2,0,0,1,0,55988.2,0.11546,0.115088,-0.137276,29,0.0048936,10,-1.57989e-05,-3.8624,-1.19839,-0.0492328,0.262688,0.115088,
2,0,0,1,0,55989.7,0.113962,0.113585,-0.13644,29,0.00467317,10,-1.54975e-05,-3.86506,-2.81816,-0.0209357,0.11166,0.113585,
2,0,0,1,0,55991.2,0.112464,0.112111,-0.136951,29,0.00445284,10,-1.53537e-05,-3.86343,-4.77821,-0.0123477,0.0659529,0.1121107,
2,0,0,1,0,55992.7,0.110965,0.110614,-0.13736,29,0.00423234,10,-1.5194e-05,-3.86214,-6.78793,-0.00869189,0.0465405,0.110614,
2,0,0,1,0,55994.2,0.109467,0.109117,-0.13694,29,0.00401162,10,-1.49425e-05,-3.86347,3.1881,0.0185063,-0.098823,0.109117,
2,0,0,1,0,55995.7,0.107969,0.10759,-0.137352,29,0.00379105,10,-1.47777e-05,-3.86217,-10.6323,-0.00554913,0.0297589,0.10759,
2,0,0,1,0,55997.2,0.106471,0.10613,-0.137295,29,0.00357069,10,-1.45711e-05,-3.86235,-1.14348,-0.0515969,0.277186,0.10613,
2,0,0,1,0,55998.7,0.104973,0.104592,-0.137452,29,0.0033495,10,-1.43764e-05,-3.86185,-3.95914,-0.0149022,0.079864,0.104592,
2,0,0,1,0,56000.2,0.103474,0.103117,-0.137382,29,0.00312806,10,-1.41665e-05,-3.86207,2.77995,0.0212234,-0.113595,0.103117,
2,0,0,1,0,56001.7,0.101976,0.101658,-0.137666,29,0.00290721,10,-1.39948e-05,-3.86117,1.6239,0.0363323,-0.194302,0.101658,
2,0,0,1,0,56003.2,0.100478,0.100159,-0.136465,29,0.00268727,10,-1.36682e-05,-3.86498,1.59933,0.0368904,-0.196608,0.100159,
2,0,0,1,0,56004.7,0.0989798,0.0986307,-0.13662,29,0.00246736,10,-1.34749e-05,-3.86449,1.96869,0.0299692,-0.159301,0.0986307,
2,0,0,1,0,56006.2,0.0974816,0.0971069,-0.135986,29,0.00224811,10,-1.32052e-05,-3.8665,0.783323,0.0753202,-0.40009,0.0971069,
2,0,0,1,0,56007.7,0.0959834,0.0955842,-0.135637,29,0.00202972,10,-1.29648e-05,-3.86762,0.87691,0.0672817,-0.3559,0.0955842,
2,0,0,1,0,56009.2,0.0944852,0.0941483,-0.134816,29,0.00181245,10,-1.26927e-05,-3.87026,0.759982,0.0776335,-0.408615,0.0941483,
2,0,0,1,0,56010.7,0.0929871,0.0926246,-0.133928,29,0.00159591,10,-1.2405e-05,-3.87313,1.1841,0.0498271,-0.260736,0.0926246,
2,0,0,1,0,56012.2,0.0914889,0.0911082,-0.133876,29,0.00138009,10,-1.21972e-05,-3.8733,0.763524,0.0772733,-0.402764,0.09110824,
2,0,0,1,0,56013.7,0.0899907,0.0895887,-0.132736,29,0.00116533,10,-1.18916e-05,-3.87701,0.521402,0.113156,-0.585518,0.0895887,
2,0,0,1,0,56015.2,0.0884925,0.0881571,-0.131223,29,0.000952039,10,-1.15682e-05,-3.88199,0.424479,0.138994,-0.716101,0.08815708,
2,0,0,1,0,56016.7,0.0869943,0.0866004,-0.131205,29,0.000740284,10,-1.13624e-05,-3.88205,0.413552,0.142666,-0.728245,0.0866004,
2,0,0,1,0,56018.2,0.0854961,0.0850999,-0.130362,29,0.000529746,10,-1.10938e-05,-3.88485,0.463027,0.127422,-0.647823,0.0850999,
2,0,0,1,0,56019.7,0.083998,0.0836377,-0.129291,29,0.000320731,10,-1.08136e-05,-3.88843,0.38035,0.15512,-0.780297,0.0836377,
2,0,0,1,0,56021.2,0.0824998,0.0821277,-0.128078,29,0.000112632,10,-1.05188e-05,-3.89252,0.608062,0.0970295,-0.487217,0.0821277,
2,0,0,1,0,56022.7,0.0810016,0.08064,-0.127624,29,-9.3464e-05,10,-1.02916e-05,-3.89407,0.482046,0.122395,-0.612132,0.08064,
2,0,0,1,0,56024.2,0.0795034,0.0791617,-0.126922,29,-0.000299017,10,-1.00473e-05,-3.89646,0.592242,0.0996215,-0.494075,0.0791617,
2,0,0,1,0,56025.7,0.0780052,0.0776337,-0.126193,29,-0.000503589,10,-9.79681e-06,-3.89897,0.59442,0.0992564,-0.488477,0.0776337,
2,0,0,1,0,56027.2,0.076507,0.0761395,-0.125469,29,-0.000707076,10,-9.55315e-06,-3.90146,0.637855,0.0924975,-0.453101,0.0761395,
2,0,0,1,0,56028.7,0.0750088,0.0746349,-0.124886,29,-0.000908877,10,-9.32085e-06,-3.90349,0.807238,0.0730887,-0.35605,0.0746349,
2,0,0,1,0,56030.2,0.0735106,0.0731789,-0.124116,29,-0.0011101,10,-9.08268e-06,-3.90617,1.38405,0.0426285,-0.205853,0.0731789,
2,0,0,1,0,56031.7,0.0720124,0.0716466,-0.123336,29,-0.00131048,10,-8.83662e-06,-3.90891,0.644745,0.0915091,-0.440727,0.0716466,
2,0,0,1,0,56033.2,0.0705142,0.0701461,-0.122343,29,-0.00150982,10,-8.58191e-06,-3.91242,0.645339,0.0914248,-0.437849,0.0701461,
2,0,0,1,0,56034.7,0.069016,0.0686159,-0.121388,29,-0.00170752,10,-8.32915e-06,-3.91582,0.747841,0.0788938,-0.375845,0.0686159,
2,0,0,1,0,56036.2,0.0675178,0.0671685,-0.121205,29,-0.00190427,10,-8.14115e-06,-3.91648,0.816997,0.0722157,-0.341864,0.0671685,
2,0,0,1,0,56037.7,0.0660196,0.0656659,-0.121265,29,-0.00210038,10,-7.96295e-06,-3.91627,0.802658,0.0735058,-0.346445,0.0656659,
2,0,0,1,0,56039.2,0.0645214,0.0641643,-0.120751,29,-0.00229595,10,-7.74791e-06,-3.91811,0.691732,0.0852932,-0.399637,0.0641643,
2,0,0,1,0,56040.7,0.0630233,0.0626501,-0.119076,29,-0.00249025,10,-7.4601e-06,-3.92418,0.58838,0.100275,-0.468722,0.0626501,
2,0,0,1,0,56042.2,0.0615251,0.0611751,-0.118954,29,-0.00268381,10,-7.27705e-06,-3.92462,0.677711,0.0870578,-0.404506,0.0611751,
2,0,0,1,0,56043.7,0.0600269,0.0596587,-0.118996,29,-0.00287673,10,-7.09915e-06,-3.92447,0.555439,0.106222,-0.492867,0.0596587,
2,0,0,1,0,56045.2,0.0585287,0.0581561,-0.117818,29,-0.00306874,10,-6.85185e-06,-3.92879,0.379024,0.155663,-0.714471,0.0581561,
2,0,0,1,0,56046.7,0.0570305,0.0566789,-0.11699,29,-0.00325954,10,-6.63088e-06,-3.93185,0.574193,0.102753,-0.470324,0.0566789,
2,0,0,1,0,56048.1,0.0555323,0.0551731,-0.116104,29,-0.00344853,10,-6.40584e-06,-3.93515,0.701432,0.0841136,-0.382982,0.05517314,
2,0,0,1,0,56049.6,0.0540342,0.0536918,-0.115946,29,-0.00363694,10,-6.22534e-06,-3.93574,1.06726,0.0552816,-0.2494,0.0536918,
2,0,0,1,0,56051.1,0.052536,0.05222,-0.115349,29,-0.00382475,10,-6.02355e-06,-3.93798,0.693413,0.0850863,-0.381633,0.05222,
2,0,0,1,0,56052.6,0.0510378,0.0506697,-0.115055,29,-0.00401156,10,-5.82982e-06,-3.93909,0.769757,0.0766476,-0.342561,0.0506697,
2,0,0,1,0,56054.1,0.0495396,0.0491745,-0.114075,29,-0.00419701,10,-5.60959e-06,-3.94281,1.10417,0.0534339,-0.237919,0.0491745,
2,0,0,1,0,56055.6,0.0480414,0.0477048,-0.113551,29,-0.00438187,10,-5.41693e-06,-3.94481,1.22557,0.0481407,-0.21307,0.0477048,
2,0,0,1,0,56057.1,0.0465432,0.0461586,-0.112879,29,-0.00456635,10,-5.21036e-06,-3.94739,0.969277,0.0608701,-0.269096,0.0461586,
2,0,0,1,0,56058.6,0.045045,0.0446455,-0.11213,29,-0.00474989,10,-5.00609e-06,-3.95028,0.532205,0.11086,-0.486567,0.0446455,
2,0,0,1,0,56060.1,0.0435468,0.0432118,-0.111346,29,-0.0049325,10,-4.81145e-06,-3.95333,0.879211,0.0671056,-0.29423,0.04321178,
2,0,0,1,0,56061.6,0.0420486,0.0416996,-0.111993,29,-0.00511437,10,-4.67008e-06,-3.95081,1.01016,0.0584064,-0.253983,0.0416996,
2,0,0,1,0,56063.1,0.0405504,0.0401706,-0.111591,29,-0.00529588,10,-4.48266e-06,-3.95237,0.840494,0.0701968,-0.303617,0.0401706,
2,0,0,1,0,56064.6,0.0390522,0.0386668,-0.110427,29,-0.00547626,10,-4.26986e-06,-3.95693,0.57523,0.102568,-0.441902,0.0386668,
2,0,0,1,0,56066.1,0.037554,0.0372141,-0.109338,29,-0.00565554,10,-4.06893e-06,-3.96123,0.597194,0.0987953,-0.422588,0.0372141,
2,0,0,1,0,56067.6,0.0360558,0.0356468,-0.109229,29,-0.00583389,10,-3.89364e-06,-3.96166,0.680633,0.086684,-0.37019,0.0356468,
2,0,0,1,0,56069.1,0.0345576,0.0341537,-0.10897,29,-0.00601164,10,-3.72174e-06,-3.96269,0.628066,0.0939392,-0.400119,0.0341537,
2,0,0,1,0,56070.6,0.0330594,0.0326914,-0.108897,29,-0.00618904,10,-3.55999e-06,-3.96298,0.524627,0.112461,-0.474733,0.0326914,
2,0,0,1,0,56072.1,0.0315613,0.0311656,-0.108192,29,-0.0063657,10,-3.37188e-06,-3.9658,0.536057,0.110063,-0.464469,0.0311656,
2,0,0,1,0,56073.6,0.0300631,0.029644,-0.107805,29,-0.00654094,10,-3.19577e-06,-3.96736,0.769943,0.076629,-0.32213,0.029644,
2,0,0,1,0,56075.1,0.0285649,0.0282134,-0.107543,29,-0.00671615,10,-3.03415e-06,-3.96842,1.12349,0.0525151,-0.219341,0.0282134,
2,0,0,1,0,56076.6,0.0270667,0.0267214,-0.106984,29,-0.00689095,10,-2.85876e-06,-3.97068,1.70465,0.0346113,-0.144429,0.0267214,
2,0,0,1,0,56078.1,0.0255685,0.02524,-0.106211,29,-0.00706498,10,-2.68076e-06,-3.97383,0.836049,0.07057,-0.293193,0.02523998,
2,0,0,1,0,56079.6,0.0240703,0.0237279,-0.106176,29,-0.00723821,10,-2.51933e-06,-3.97397,2.12032,0.0278259,-0.115727,0.0237279,
2,0,0,1,0,56081.1,0.0225722,0.0222328,-0.105682,29,-0.00741115,10,-2.3496e-06,-3.976,-21.8576,-0.00269929,0.0111611,0.0222328,
2,0,0,1,0,56082.6,0.021074,0.0207312,-0.106187,29,-0.00758402,10,-2.20139e-06,-3.97393,17.6953,0.00333421,-0.0138083,0.0207312,
2,0,0,1,0,56084.1,0.0195758,0.0192148,-0.105716,29,-0.00775664,10,-2.03132e-06,-3.97586,1.57464,0.0374688,-0.154864,0.0192148,
2,0,0,1,0,56085.6,0.0180776,0.0177027,-0.105116,29,-0.00792917,10,-1.86084e-06,-3.97833,232.581,0.000253675,-0.00104677,0.0177027,
2,0,0,1,0,56087.1,0.0165794,0.0162287,-0.10587,29,-0.00810135,10,-1.71813e-06,-3.97523,-22.294,-0.00264645,0.010956,0.0162287,
2,0,0,1,0,56088.6,0.0150812,0.0147568,-0.106579,29,-0.0082741,10,-1.57277e-06,-3.97233,-0.973125,-0.0606294,0.250965,0.0147568,
2,0,0,1,0,56090.1,0.013583,0.0132161,-0.106579,29,-0.00844719,10,-1.40855e-06,-3.97233,-2.18283,-0.0270291,0.111926,0.0132161,
2,0,0,1,0,56091.6,0.0120848,0.0117315,-0.106851,29,-0.00862086,10,-1.25352e-06,-3.97122,-1.74328,-0.0338443,0.140524,0.0117315,
2,0,0,1,0,56093.1,0.0105866,0.0102066,-0.106394,29,-0.00879433,10,-1.08592e-06,-3.97308,-5.40337,-0.0109191,0.0457262,0.0102066,
2,0,0,1,0,56094.6,0.00908843,0.00874538,-0.106774,29,-0.00896791,10,-9.3378e-07,-3.97153,-8.27333,-0.00713135,0.0298227,0.00874538,
2,0,0,1,0,56096.1,0.00759024,0.00722155,-0.107278,29,-0.00914211,10,-7.74714e-07,-3.96949,-2.46604,-0.023925,0.100005,0.00722155,
2,0,0,1,0,56097.6,0.00609203,0.0057052,-0.10798,29,-0.00931688,10,-6.16048e-07,-3.96666,-0.448796,-0.131463,0.553241,0.0057052,
2,0,0,1,0,56099.1,0.00459384,0.00424813,-0.108378,29,-0.0094923,10,-4.60404e-07,-3.96506,-0.488207,-0.12085,0.511539,0.00424813,
2,0,0,1,0,56100.6,0.00309563,0.00273921,-0.109389,29,-0.00966924,10,-2.9964e-07,-3.96102,-0.550406,-0.107194,0.456222,0.002739206,
2,0,0,1,0,56102.1,0.00159744,0.00123767,-0.110163,29,-0.00984919,10,-1.36345e-07,-3.95797, , , ,0.00123767,
2,0,0,1,0,56103.5,0.000199235,-0.000187808,-0.110144,29,-0.0100157,10,2.06858e-08,-3.95804, , , ,-0.000187808,