File: Figure_codes/Fig_3-5/rawdata_trumpetplot_data/after 10th/20221101_1-115_003_TrumpetPlot_ParaChange_from10_every3_03_CV_C01_9.csv
mode,ox/red,error,control changes,counter inc.,time/s,control/V,Ewe/V,<I>/mA,cycle number,(Q-Qo)/C,I Range,P/W,log(|I|),Tafel slope mV/dec,alpha_eff,dI/d(E-IR),E-IR/V,
2,0,0,1,0,18671.2,2.44065e-05,-0.00042076,-0.110843,10,0.0000000E+000,10,4.66381e-08,-3.95529, , , ,-0.00042076,
2,1,0,0,0,18671.4,0.00129787,0.00091005,0.144062,10,2.70862e-05,10,1.31104e-07,-3.84145, , , ,0.00091005,
2,1,0,0,0,18671.7,0.00279606,0.00245082,0.179534,10,8.22933e-05,10,4.40005e-07,-3.74585,0.0192191,3.06986,18.4463,0.00245082,
2,1,0,1,0,18672,0.00429469,0.00399417,0.190632,10,0.000142705,10,7.61415e-07,-3.7198,0.072525,0.813512,6.09818,0.00399417,
2,1,0,1,0,18672.3,0.00579255,0.00544449,0.200223,10,0.000206357,10,1.09011e-06,-3.69849,0.0678006,0.870199,6.76043,0.00544449,
2,1,0,1,0,18672.6,0.00729041,0.00697545,0.211605,10,0.000272978,10,1.47604e-06,-3.67447,0.0828567,0.712073,5.7926,0.00697545,
2,1,0,1,0,18672.9,0.00878882,0.00846439,0.219134,10,0.000342371,10,1.85484e-06,-3.65929,0.0992612,0.594391,5.0251,0.00846439,
2,1,0,1,0,18673.2,0.010287,0.00997335,0.225336,10,0.000413821,10,2.24735e-06,-3.64717,0.12406,0.475576,4.16561,0.00997335,
2,1,0,1,0,18673.5,0.0117852,0.0114526,0.229957,10,0.000487171,10,2.63361e-06,-3.63835,0.125226,0.471149,4.23946,0.0114526,
2,1,0,1,0,18673.8,0.0132836,0.0129618,0.237453,10,0.000562368,10,3.07782e-06,-3.62442,0.122968,0.479801,4.4696,0.0129618,
2,1,0,1,0,18674.1,0.0147815,0.0144461,0.243135,10,0.000639448,10,3.51235e-06,-3.61415,0.135603,0.435094,4.14238,0.0144461,
2,1,0,1,0,18674.4,0.0162793,0.0159855,0.248505,10,0.000718528,10,3.97247e-06,-3.60467,0.171478,0.344068,3.3368,0.0159855,
2,1,0,0,0,18674.7,0.017778,0.0174492,0.255669,10,0.000799207,10,4.46123e-06,-3.59232,0.167523,0.352191,3.50217,0.0174492,
2,1,0,0,0,18675,0.0192761,0.0189253,0.260706,10,0.000881036,10,4.93394e-06,-3.58385,0.170777,0.34548,3.50043,0.0189253,
2,1,0,1,0,18675.3,0.0207747,0.0204813,0.266658,10,0.000964886,10,5.46152e-06,-3.57405,0.146489,0.40276,4.14958,0.0204813,
2,1,0,1,0,18675.6,0.0222725,0.0219686,0.271763,10,0.00105037,10,5.97026e-06,-3.56581,0.169429,0.348228,3.68743,0.0219686,
2,1,0,1,0,18675.9,0.0237704,0.0234656,0.276809,10,0.00113745,10,6.49548e-06,-3.55782,0.191623,0.307897,3.32771,0.0234656,
2,1,0,1,0,18676.2,0.0252689,0.0249505,0.280207,10,0.00122598,10,6.9913e-06,-3.55252,0.174845,0.337442,3.72092,0.0249505,
2,1,0,1,0,18676.5,0.0267671,0.0264372,0.287306,10,0.00131624,10,7.59557e-06,-3.54166,0.154632,0.381552,4.27645,0.0264372,
2,1,0,1,0,18676.8,0.0282657,0.027939,0.294117,10,0.00140848,10,8.21735e-06,-3.53148,0.179316,0.329028,3.76978,0.027939,
2,1,0,1,0,18677.1,0.0297635,0.0294667,0.299205,10,0.00150225,10,8.81659e-06,-3.52403,0.208161,0.283434,3.31076,0.0294667,
2,1,0,1,0,18677.4,0.0312613,0.0309245,0.30312,10,0.00159749,10,9.37381e-06,-3.51839,0.200744,0.293907,3.49166,0.0309245,
2,1,0,0,0,18677.7,0.0327599,0.0323956,0.310626,10,0.00169437,10,1.00629e-05,-3.50776,0.198066,0.29788,3.60642,0.0323956,
2,1,0,0,0,18678,0.034258,0.0338685,0.315795,10,0.00179306,10,1.06955e-05,-3.50059,0.203106,0.290488,3.57853,0.0338685,
2,1,0,1,0,18678.3,0.0357567,0.0354236,0.320904,10,0.00189339,10,1.13676e-05,-3.49362,0.251313,0.234767,2.92707,0.0354236,
2,1,0,1,0,18678.6,0.0372545,0.0368835,0.326206,10,0.00199535,10,1.20316e-05,-3.48651,0.199783,0.295321,3.76308,0.0368835,
2,1,0,1,0,18678.9,0.0387524,0.0384155,0.331146,10,0.00209855,10,1.27211e-05,-3.47998,0.218685,0.269795,3.50205,0.0384155,
2,1,0,1,0,18679.2,0.0402508,0.0399288,0.337473,10,0.0022037,10,1.34749e-05,-3.47176,0.238083,0.247813,3.26064,0.0399288,
2,1,0,1,0,18679.5,0.041749,0.0414409,0.341919,10,0.00231061,10,1.41694e-05,-3.46608,0.277796,0.212386,2.82882,0.0414409,
2,1,0,1,0,18679.8,0.0432472,0.0429743,0.348685,10,0.00241886,10,1.49845e-05,-3.45757,0.252106,0.234028,3.17167,0.04297426,
2,1,0,1,0,18680.1,0.0447456,0.0443976,0.35193,10,0.00252843,10,1.56248e-05,-3.45354,0.267776,0.220333,3.02578,0.0443976,
2,1,0,1,0,18680.4,0.0462435,0.0458902,0.357375,10,0.00263958,10,1.64e-05,-3.44688,0.243121,0.242678,3.37847,0.0458902,
2,1,0,1,0,18680.7,0.0477413,0.0474265,0.361724,10,0.00275243,10,1.71553e-05,-3.44162,0.243446,0.242353,3.42296,0.0474265,
2,1,0,0,0,18681,0.0492399,0.0489369,0.366404,10,0.00286691,10,1.79307e-05,-3.43604,0.262697,0.224594,3.21863,0.0489369,
2,1,0,0,0,18681.3,0.0507381,0.0504438,0.369915,10,0.00298246,10,1.86599e-05,-3.4319,0.270191,0.218364,3.17084,0.0504438,
2,1,0,1,0,18681.6,0.0522367,0.0518874,0.377031,10,0.00309976,10,1.95631e-05,-3.42362,0.200462,0.294321,4.3183,0.0518874,
2,1,0,1,0,18681.9,0.0537345,0.0534214,0.382652,10,0.00321872,10,2.04418e-05,-3.4172,0.252454,0.233706,3.47997,0.0534214,
2,1,0,1,0,18682.2,0.0552323,0.0549151,0.386692,10,0.00333906,10,2.12352e-05,-3.41264,0.28376,0.207922,3.13044,0.0549151,
2,1,0,1,0,18682.5,0.0567309,0.0564149,0.387044,10,0.00346075,10,2.1835e-05,-3.41224,0.310158,0.190225,2.89696,0.0564149,
2,1,0,1,0,18682.8,0.0582291,0.0579005,0.395197,10,0.00358358,10,2.28821e-05,-3.40319,0.356077,0.165694,2.55623,0.0579005,
2,1,0,1,0,18683.1,0.0597277,0.0594204,0.399578,10,0.00370786,10,2.37431e-05,-3.3984,0.367638,0.160484,2.50574,0.0594204,
2,1,0,1,0,18683.4,0.0612255,0.0609417,0.403157,10,0.00383343,10,2.45691e-05,-3.39453,0.394896,0.149406,2.35166,0.0609417,
2,1,0,1,0,18683.7,0.0627233,0.0624313,0.406859,10,0.00396029,10,2.54007e-05,-3.39056,0.356574,0.165464,2.63833,0.0624313,
2,1,0,0,0,18684,0.0642218,0.0638823,0.41019,10,0.00408799,10,2.62039e-05,-3.38702,0.301733,0.195537,3.15535,0.0638823,
2,1,0,0,0,18684.3,0.06572,0.0654146,0.416236,10,0.00421731,10,2.72279e-05,-3.38066,0.314462,0.187622,3.04545,0.0654146,
2,1,0,1,0,18684.6,0.0672187,0.0669357,0.420336,10,0.00434802,10,2.81354e-05,-3.3764,0.446469,0.132148,2.16745,0.0669357,
2,1,0,1,0,18684.9,0.0687165,0.0683922,0.424741,10,0.00447963,10,2.9049e-05,-3.37188,0.48792,0.120921,1.99854,0.0683922,
2,1,0,1,0,18685.2,0.0702144,0.0698817,0.427156,10,0.00461197,10,2.98504e-05,-3.36941,0.41745,0.141334,2.3524,0.0698817,
2,1,0,1,0,18685.5,0.0717128,0.0714038,0.431347,10,0.0047456,10,3.07998e-05,-3.36517,0.328574,0.179564,3.01236,0.0714038,
2,1,0,1,0,18685.8,0.073211,0.0728735,0.434569,10,0.00488028,10,3.16686e-05,-3.36194,0.428283,0.137759,2.33102,0.0728735,
2,1,0,1,0,18686.1,0.0747092,0.0744005,0.437482,10,0.00501597,10,3.25489e-05,-3.35904,0.438681,0.134494,2.30034,0.07440047,
2,1,0,1,0,18686.4,0.0762076,0.0759023,0.438654,10,0.00515229,10,3.32949e-05,-3.35788,0.405953,0.145337,2.50108,0.0759023,
2,1,0,1,0,18686.7,0.0777054,0.0773621,0.443823,10,0.0052898,10,3.43351e-05,-3.35279,0.354087,0.166626,2.88636,0.0773621,
2,1,0,1,0,18687,0.0792033,0.0788876,0.449089,10,0.00542854,10,3.54276e-05,-3.34767,0.418793,0.140881,2.4567,0.0788876,
2,1,0,0,0,18687.3,0.0807019,0.0803642,0.450235,10,0.00556846,10,3.61827e-05,-3.34656,0.587035,0.100505,1.76425,0.08036419,
2,1,0,0,0,18687.6,0.0822001,0.0819103,0.452054,10,0.00570901,10,3.70279e-05,-3.34481,0.484756,0.121711,2.15983,0.0819103,
2,1,0,1,0,18687.9,0.0836986,0.0833646,0.457477,10,0.00585044,10,3.81374e-05,-3.33963,0.383786,0.153732,2.7554,0.0833646,
2,1,0,1,0,18688.2,0.0851965,0.0848974,0.461907,10,0.00599334,10,3.92147e-05,-3.33545,0.395951,0.149009,2.69109,0.0848974,
2,1,0,1,0,18688.5,0.0866944,0.0863613,0.46682,10,0.00613755,10,4.03152e-05,-3.33085,0.452054,0.130515,2.3755,0.0863613,
2,1,0,1,0,18688.8,0.0881929,0.0878337,0.47092,10,0.0062832,10,4.13627e-05,-3.32705,0.370425,0.159277,2.93315,0.0878337,
2,1,0,1,0,18689.1,0.0896911,0.0893469,0.476475,10,0.00642994,10,4.25716e-05,-3.32196,0.276435,0.213432,3.97649,0.0893469,
2,1,0,1,0,18689.4,0.0911897,0.0909051,0.482929,10,0.00657865,10,4.39007e-05,-3.31612,0.2525,0.233663,4.39401,0.0909051,
2,1,0,1,0,18689.7,0.0926875,0.0923796,0.489112,10,0.0067297,10,4.5184e-05,-3.31059,0.242359,0.24344,4.64832,0.0923796,
2,1,0,1,0,18690,0.0941853,0.0938247,0.495853,10,0.00688243,10,4.65232e-05,-3.30465,0.256215,0.230275,4.4623,0.0938247,
2,1,0,0,0,18690.3,0.0956838,0.0953138,0.501878,10,0.00703687,10,4.78359e-05,-3.2994,0.228338,0.258389,5.08621,0.09531381,
2,1,0,0,0,18690.6,0.097182,0.0968397,0.511877,10,0.00719394,10,4.957e-05,-3.29083,0.180819,0.326294,6.50059,0.0968397,
2,1,0,1,0,18690.9,0.0986807,0.0983628,0.520588,10,0.00735364,10,5.12065e-05,-3.28351,0.193259,0.30529,6.1977,0.0983628,
2,1,0,1,0,18691.2,0.100179,0.0998866,0.528507,10,0.0075159,10,5.27907e-05,-3.27695,0.205079,0.287694,5.93103,0.0998866,
2,1,0,1,0,18691.5,0.101676,0.101372,0.53519,10,0.00768061,10,5.42531e-05,-3.27149,0.208364,0.283158,5.94695,0.101372,
2,1,0,1,0,18691.8,0.103175,0.102881,0.547886,10,0.00784795,10,5.6367e-05,-3.26131,0.214281,0.275339,5.87863,0.102881,
2,1,0,1,0,18692.1,0.104673,0.104399,0.55774,10,0.0080183,10,5.82277e-05,-3.25357,0.220361,0.267742,5.80364,0.104399,
2,1,0,1,0,18692.4,0.106171,0.105856,0.565142,10,0.00819139,10,5.98238e-05,-3.24784,0.23165,0.254694,5.60491,0.105856,
2,1,0,1,0,18692.7,0.10767,0.107352,0.572554,10,0.00836705,10,6.14648e-05,-3.24218,0.23361,0.252558,5.64019,0.107352,
2,1,0,1,0,18693,0.109167,0.10883,0.580455,10,0.00854481,10,6.31708e-05,-3.23623,0.263497,0.223911,5.07902,0.10883,
2,1,0,1,0,18693.3,0.110665,0.110342,0.589272,10,0.00872536,10,6.50218e-05,-3.22968,0.269212,0.219158,5.03258,0.110342,
2,1,0,0,0,18693.6,0.112164,0.111857,0.596085,10,0.00890834,10,6.66764e-05,-3.22469,0.364132,0.162029,3.76384,0.111857,
2,1,0,0,0,18693.9,0.113662,0.113327,0.602825,10,0.00909326,10,6.83163e-05,-3.21981,0.350436,0.168362,3.95481,0.113327,
2,1,0,1,0,18694.2,0.115161,0.114826,0.608536,10,0.00927965,10,6.98755e-05,-3.21571,0.353441,0.16693,3.96137,0.114826,
2,1,0,1,0,18694.5,0.116658,0.116302,0.615539,10,0.0094682,10,7.15886e-05,-3.21074,0.322973,0.182678,4.37101,0.116302,
2,1,0,1,0,18694.8,0.118156,0.117851,0.621237,10,0.00965877,10,7.32136e-05,-3.20674,0.388571,0.151838,3.67579,0.117851,
2,1,0,1,0,18695.1,0.119655,0.119325,0.625963,10,0.00985096,10,7.46928e-05,-3.20345,0.417419,0.141345,3.45506,0.119325,
2,1,0,1,0,18695.4,0.121153,0.120827,0.629653,10,0.0100443,10,7.60792e-05,-3.2009,0.366052,0.161179,3.97834,0.120827,
2,1,0,1,0,18695.7,0.122652,0.122345,0.636004,10,0.0102397,10,7.78118e-05,-3.19654,0.293809,0.200811,4.98928,0.122345,
2,1,0,1,0,18696,0.124149,0.123818,0.644473,10,0.0104371,10,7.9797e-05,-3.1908,0.41701,0.141483,3.54985,0.123818,
2,1,0,1,0,18696.3,0.125647,0.125321,0.649629,10,0.0106362,10,8.14121e-05,-3.18733,0.434454,0.135803,3.43499,0.125321,
2,1,0,0,0,18696.6,0.127146,0.126813,0.651808,10,0.0108366,10,8.26579e-05,-3.18588,0.498225,0.11842,3.01822,0.126813,
2,1,0,0,0,18696.9,0.128644,0.128307,0.659714,10,0.0110384,10,8.46462e-05,-3.18064,0.452841,0.130289,3.34622,0.128307,
2,1,0,1,0,18697.2,0.130143,0.129823,0.663478,10,0.0112417,10,8.61348e-05,-3.17817,1.15222,0.0512054,1.31924,0.129823,
2,1,0,1,0,18697.5,0.131641,0.131371,0.663725,10,0.0114461,10,8.71942e-05,-3.17801,-4.56019,-0.0129381,-0.334074,0.131371,
2,1,0,1,0,18697.8,0.133138,0.132849,0.663976,10,0.0116504,10,8.82084e-05,-3.17785,-1.14546,-0.0515079,-1.33204,0.132849,
2,1,0,1,0,18698.1,0.134637,0.134301,0.660726,10,0.0118537,10,8.87359e-05,-3.17998,-0.429926,-0.137233,-3.52884,0.134301,
2,1,0,1,0,18698.4,0.136135,0.135822,0.654896,10,0.0120562,10,8.89495e-05,-3.18383,-0.309693,-0.190511,-4.84475,0.135822,
2,1,0,1,0,18698.7,0.137633,0.137306,0.646427,10,0.0122565,10,8.87582e-05,-3.18948,-0.186875,-0.315719,-7.9133,0.1373059,
2,1,0,1,0,18699,0.139132,0.138844,0.633858,10,0.0124534,10,8.80071e-05,-3.19801,-0.145565,-0.405318,-9.94982,0.138844,
2,1,0,1,0,18699.3,0.140629,0.140341,0.616474,10,0.0126454,10,8.65164e-05,-3.21009,-0.116323,-0.507207,-12.1269,0.140341,
2,1,0,1,0,18699.6,0.142127,0.141832,0.596829,10,0.0128323,10,8.46496e-05,-3.22415,-0.109152,-0.540532,-12.5247,0.141832,
2,1,0,0,0,18699.9,0.143626,0.143321,0.575336,10,0.0130132,10,8.24574e-05,-3.24008,-0.0904527,-0.652275,-14.5967,0.143321,
2,1,0,0,0,18700.2,0.145124,0.144815,0.551375,10,0.0131871,10,7.98472e-05,-3.25855,-0.0770791,-0.765447,-16.5036,0.144815,
2,1,0,1,0,18700.5,0.146623,0.14632,0.526266,10,0.0133536,10,7.70031e-05,-3.27879,-0.075399,-0.782504,-16.1204,0.14632,
2,1,0,1,0,18700.8,0.14812,0.147802,0.503448,10,0.0135131,10,7.44105e-05,-3.29805,-0.0751346,-0.785258,-15.4075,0.147802,
2,1,0,1,0,18701.1,0.149618,0.149303,0.480923,10,0.0136656,10,7.18033e-05,-3.31792,-0.0751706,-0.784881,-14.7499,0.149303,
2,1,0,1,0,18701.4,0.151117,0.150785,0.459361,10,0.0138114,10,6.92647e-05,-3.33785,-0.0771563,-0.764682,-13.7161,0.150785,
2,1,0,1,0,18701.7,0.152615,0.152275,0.438402,10,0.013951,10,6.67575e-05,-3.35813,-0.0851598,-0.692815,-11.9291,0.152275,
2,1,0,1,0,18702,0.154114,0.153793,0.423438,10,0.0140849,10,6.51217e-05,-3.37321,-0.0913889,-0.645592,-10.6928,0.153793,
2,1,0,1,0,18702.3,0.155612,0.155303,0.408114,10,0.0142144,10,6.33813e-05,-3.38922,-0.100511,-0.587,-9.36672,0.155303,
2,1,0,1,0,18702.6,0.157109,0.156795,0.395063,10,0.0143398,10,6.19438e-05,-3.40333,-0.103933,-0.567673,-8.75766,0.156795,
2,1,0,0,0,18702.9,0.158608,0.158314,0.382597,10,0.0144614,10,6.05704e-05,-3.41726,-0.116863,-0.504865,-7.58237,0.158314,
2,1,0,0,0,18703.2,0.160106,0.159789,0.37297,10,0.0145793,10,5.95964e-05,-3.42833,-0.135022,-0.436965,-6.40525,0.159789,
2,1,0,1,0,18703.5,0.161605,0.161272,0.366066,10,0.0146949,10,5.90361e-05,-3.43644,-0.160851,-0.3668,-5.23362,0.1612716,
2,1,0,1,0,18703.8,0.163102,0.162801,0.358971,10,0.0148081,10,5.8441e-05,-3.44494,-0.182103,-0.323992,-4.53084,0.162801,
2,1,0,1,0,18704.1,0.1646,0.164275,0.3515,10,0.0149192,10,5.77426e-05,-3.45407,-0.183485,-0.321551,-4.41138,0.164275,
2,1,0,1,0,18704.4,0.166099,0.165778,0.345551,10,0.0150283,10,5.72848e-05,-3.46149,-0.218788,-0.269667,-3.64231,0.165778,
2,1,0,1,0,18704.7,0.167597,0.167276,0.340531,10,0.0151359,10,5.69627e-05,-3.46784,-0.29617,-0.19921,-2.64914,0.167276,
2,1,0,1,0,18705,0.169095,0.168781,0.336652,10,0.0152422,10,5.68205e-05,-3.47282,-0.26461,-0.22297,-2.93695,0.168781,
2,1,0,1,0,18705.3,0.170594,0.170283,0.332237,10,0.0153472,10,5.65742e-05,-3.47855,-0.254127,-0.232167,-3.02256,0.1702826,
2,1,0,1,0,18705.6,0.172091,0.17179,0.32883,10,0.0154509,10,5.64898e-05,-3.48303,-0.337949,-0.174583,-2.23993,0.17179,
2,1,0,1,0,18705.9,0.173589,0.173285,0.325296,10,0.0155536,10,5.63689e-05,-3.48772,-0.376142,-0.156855,-1.98757,0.173285,
2,1,0,0,0,18706.2,0.175088,0.174739,0.323087,10,0.0156555,10,5.6456e-05,-3.49068,-0.397492,-0.148431,-1.8682,0.174739,
2,1,0,0,0,18706.5,0.176586,0.176285,0.32086,10,0.0157565,10,5.65629e-05,-3.49368,-0.304246,-0.193922,-2.41819,0.176285,
2,1,0,1,0,18706.8,0.178085,0.177777,0.316295,10,0.0158568,10,5.62299e-05,-3.49991,-0.457853,-0.128862,-1.59275,0.177777,
2,1,0,1,0,18707.1,0.179582,0.179263,0.31526,10,0.015956,10,5.65146e-05,-3.50133,-0.547669,-0.107729,-1.32812,0.179263,
2,1,0,1,0,18707.4,0.18108,0.180781,0.311971,10,0.0160548,10,5.63984e-05,-3.50589,-0.564398,-0.104536,-1.27576,0.180781,
2,1,0,1,0,18707.7,0.182579,0.182269,0.30967,10,0.0161531,10,5.64433e-05,-3.5091,-0.364249,-0.161977,-1.95988,0.182269,
2,1,0,1,0,18708,0.184077,0.183751,0.309078,10,0.0162509,10,5.67933e-05,-3.50993,-0.619526,-0.0952342,-1.1517,0.183751,
2,1,0,1,0,18708.3,0.185576,0.185242,0.307736,10,0.0163478,10,5.70057e-05,-3.51182,-0.714589,-0.0825649,-0.991253,0.185242,
2,1,0,1,0,18708.6,0.187074,0.186788,0.307204,10,0.0164446,10,5.73821e-05,-3.51257,-0.711275,-0.0829496,-0.989856,0.186788,
2,1,0,1,0,18708.9,0.188571,0.188255,0.305154,10,0.0165409,10,5.74468e-05,-3.51548,-0.784799,-0.0751785,-0.893082,0.188255,
2,1,0,0,0,18709.2,0.19007,0.189736,0.303587,10,0.0166368,10,5.76012e-05,-3.51772,-0.646115,-0.091315,-1.08091,0.189736,
2,1,0,0,0,18709.5,0.191568,0.191239,0.301243,10,0.0167321,10,5.76094e-05,-3.52108,-0.634455,-0.0929932,-1.10063,0.191239,
2,1,0,1,0,18709.8,0.193067,0.192724,0.301072,10,0.0168271,10,5.80238e-05,-3.52133,-2.93344,-0.0201129,-0.235355,0.192724,
2,1,0,1,0,18710.1,0.194564,0.194268,0.299789,10,0.016922,10,5.82394e-05,-3.52318,-0.73641,-0.0801184,-0.934157,0.194268,
2,1,0,1,0,18710.4,0.196062,0.195773,0.297836,10,0.0170163,10,5.83083e-05,-3.52602,-0.609904,-0.0967366,-1.12859,0.195773,
2,1,0,1,0,18710.7,0.197561,0.197233,0.295912,10,0.0171102,10,5.83634e-05,-3.52884,-0.740887,-0.0796342,-0.921394,0.197233,
2,1,0,1,0,18711,0.199059,0.198723,0.296528,10,0.0172038,10,5.89269e-05,-3.52793,-0.931167,-0.0633614,-0.731073,0.198723,
2,1,0,1,0,18711.3,0.200557,0.200195,0.294935,10,0.0172971,10,5.90446e-05,-3.53027,-1.04673,-0.0563662,-0.648155,0.200195,
2,1,0,1,0,18711.6,0.202056,0.201714,0.295291,10,0.0173903,10,5.95644e-05,-3.52975,-0.836598,-0.0705237,-0.809892,0.201714,
2,1,0,1,0,18711.9,0.203553,0.203239,0.293476,10,0.0174831,10,5.96456e-05,-3.53243,-0.909448,-0.0648745,-0.741892,0.203239,
2,1,0,1,0,18712.2,0.205051,0.204714,0.293105,10,0.0175755,10,6.00029e-05,-3.53298,6.07673,0.00970916,0.111467,0.204714,
2,1,0,0,0,18712.5,0.20655,0.20622,0.291768,10,0.0176678,10,6.01684e-05,-3.53496,-1.7128,-0.0344465,-0.392481,0.2062196,
2,1,0,0,0,18712.8,0.208048,0.207739,0.291331,10,0.0177602,10,6.05209e-05,-3.53561,-0.629379,-0.0937432,-1.06182,0.207739,
2,1,0,1,0,18713.1,0.209547,0.209238,0.290738,10,0.0178521,10,6.08334e-05,-3.5365,-1.16571,-0.050613,-0.571914,0.209238,
2,1,0,1,0,18713.4,0.211044,0.210773,0.290419,10,0.0179435,10,6.12125e-05,-3.53698,-1.70803,-0.0345426,-0.388623,0.210773,
2,1,0,1,0,18713.7,0.212542,0.212249,0.288967,10,0.0180348,10,6.13329e-05,-3.53915,-1.91961,-0.0307355,-0.34526,0.212249,
2,1,0,1,0,18714,0.214041,0.213738,0.287736,10,0.018126,10,6.15001e-05,-3.54101,-2.41153,-0.0244658,-0.27429,0.213738,
2,1,0,1,0,18714.3,0.215539,0.21527,0.287743,10,0.0182169,10,6.19425e-05,-3.54099,-0.873443,-0.0675488,-0.756479,0.21527,
2,1,0,1,0,18714.6,0.217038,0.216671,0.285668,10,0.0183074,10,6.1896e-05,-3.54414,-0.641388,-0.091988,-1.0275,0.216671,
2,1,0,1,0,18714.9,0.218535,0.21822,0.285583,10,0.0183978,10,6.232e-05,-3.54427,-7.37485,-0.00800017,-0.0891291,0.21822,
2,1,0,1,0,18715.2,0.220033,0.219761,0.28556,10,0.0184881,10,6.27548e-05,-3.5443,-2.17948,-0.0270707,-0.300448,0.219761,
2,1,0,0,0,18715.5,0.221532,0.221197,0.284325,10,0.0185783,10,6.28917e-05,-3.54619,-1.11405,-0.0529597,-0.588401,0.221197,
2,1,0,0,0,18715.8,0.22303,0.222705,0.282266,10,0.0186681,10,6.2862e-05,-3.54934,-1.34968,-0.0437141,-0.48301,0.222705,
2,1,0,1,0,18716.1,0.224529,0.224252,0.283532,10,0.0187577,10,6.35827e-05,-3.5474,-1.19491,-0.0493763,-0.545369,0.224252,
2,1,0,1,0,18716.4,0.226026,0.225697,0.282402,10,0.0188472,10,6.37373e-05,-3.54913,-1.92703,-0.0306171,-0.336642,0.225697,
2,1,0,1,0,18716.7,0.227524,0.227234,0.28245,10,0.0189366,10,6.41822e-05,-3.54906,-0.840183,-0.0702228,-0.772386,0.2272335,
2,1,0,1,0,18717,0.229023,0.228711,0.281345,10,0.0190257,10,6.43466e-05,-3.55076,-1.28151,-0.0460395,-0.505764,0.228711,
2,1,0,1,0,18717.3,0.230521,0.230217,0.280732,10,0.0191146,10,6.46292e-05,-3.55171,15.3258,0.00384972,0.0422348,0.230217,
2,1,0,1,0,18717.6,0.232019,0.231686,0.280995,10,0.0192035,10,6.51027e-05,-3.5513,-1.52859,-0.0385976,-0.421709,0.231686,
2,1,0,1,0,18717.9,0.233518,0.233214,0.280621,10,0.0192924,10,6.54445e-05,-3.55188,-0.862022,-0.0684437,-0.745077,0.233214,
2,1,0,1,0,18718.2,0.235015,0.23469,0.279978,10,0.019381,10,6.57082e-05,-3.55288,-2.72752,-0.0216314,-0.236074,0.23469,
2,1,0,1,0,18718.5,0.236513,0.236212,0.279606,10,0.0194692,10,6.60463e-05,-3.55345,-1.22339,-0.0482266,-0.524578,0.236212,
2,1,0,0,0,18718.8,0.238012,0.237682,0.278471,10,0.0195577,10,6.61874e-05,-3.55522,8.68836,0.00679069,0.0736219,0.237682,
2,1,0,0,0,18719.1,0.23951,0.239196,0.278912,10,0.0196459,10,6.67148e-05,-3.55453,-6.39452,-0.00922665,-0.100138,0.239196,
2,1,0,1,0,18719.4,0.241009,0.240663,0.277307,10,0.019734,10,6.67375e-05,-3.55704,-1.51154,-0.0390331,-0.423587,0.240663,
2,1,0,1,0,18719.7,0.242506,0.242186,0.276762,10,0.0198218,10,6.7028e-05,-3.55789,-1.69624,-0.0347827,-0.377163,0.242186,
2,1,0,1,0,18720,0.244004,0.24367,0.277533,10,0.0199096,10,6.76264e-05,-3.55668,2.74964,0.0214573,0.231824,0.24367,
2,1,0,1,0,18720.3,0.245503,0.245164,0.277857,10,0.0199974,10,6.81205e-05,-3.55618,-1.27113,-0.0464155,-0.500212,0.245164,
2,1,0,1,0,18720.6,0.247001,0.246707,0.276214,10,0.0200851,10,6.81439e-05,-3.55875,-1.1147,-0.0529288,-0.570797,0.246707,
2,1,0,1,0,18720.9,0.2485,0.248203,0.274557,10,0.0201724,10,6.81461e-05,-3.56137,-1.51978,-0.0388214,-0.417252,0.2482035,
2,1,0,1,0,18721.2,0.249997,0.249721,0.275248,10,0.0202596,10,6.87351e-05,-3.56028,-1.54873,-0.0380958,-0.408997,0.2497205,
2,1,0,1,0,18721.5,0.251495,0.251194,0.275524,10,0.0203468,10,6.921e-05,-3.55984,-20.0983,-0.00293557,-0.0314618,0.251194,
2,1,0,0,0,18721.8,0.252994,0.252676,0.273742,10,0.0204339,10,6.9168e-05,-3.56266,-0.890321,-0.0662683,-0.709935,0.252676,
2,1,0,0,0,18722.1,0.254492,0.254191,0.274285,10,0.0205208,10,6.97209e-05,-3.5618,-1.31972,-0.0447066,-0.478258,0.254191,
2,1,0,1,0,18722.4,0.255991,0.255655,0.273443,10,0.0206075,10,6.99072e-05,-3.56313,-3.84815,-0.015332,-0.164338,0.255655,
2,1,0,1,0,18722.7,0.257488,0.25717,0.274041,10,0.0206942,10,7.04751e-05,-3.56218,-14.0824,-0.00418964,-0.0447416,0.25717,
2,1,0,1,0,18723,0.258986,0.258703,0.273867,10,0.020781,10,7.08501e-05,-3.56246,-8.11209,-0.0072731,-0.0775401,0.258703,
2,1,0,1,0,18723.3,0.260485,0.260167,0.2736,10,0.0208676,10,7.11817e-05,-3.56288,-2.8227,-0.020902,-0.221984,0.2601667,
2,1,0,1,0,18723.6,0.261983,0.261648,0.2737,10,0.0209541,10,7.16132e-05,-3.56272,-5.16699,-0.0114186,-0.121764,0.261648,
2,1,0,1,0,18723.9,0.263481,0.263162,0.273396,10,0.0210405,10,7.19476e-05,-3.56321,-30.5577,-0.00193077,-0.0205096,0.263162,
2,1,0,1,0,18724.2,0.26498,0.26469,0.27178,10,0.0211269,10,7.19374e-05,-3.56578,-1.79296,-0.0329066,-0.350182,0.26469,
2,1,0,1,0,18724.5,0.266477,0.266193,0.271444,10,0.0212131,10,7.22565e-05,-3.56632,-5.62218,-0.0104942,-0.111521,0.266193,
2,1,0,0,0,18724.8,0.267976,0.267675,0.271342,10,0.0212992,10,7.26316e-05,-3.56648,-3.02246,-0.0195205,-0.207329,0.267675,
2,1,0,0,0,18725.1,0.269474,0.269138,0.271295,10,0.0213851,10,7.30157e-05,-3.56656,-17.4145,-0.00338798,-0.0357519,0.269138,
2,1,0,0,0,18725.4,0.270972,0.270632,0.272342,10,0.0214711,10,7.37043e-05,-3.56489,-1.72643,-0.0341745,-0.360692,0.270632,
2,1,0,1,0,18725.7,0.27247,0.272143,0.270436,10,0.0215569,10,7.35974e-05,-3.56793,-7.1272,-0.00827815,-0.0873544,0.272143,
2,1,0,1,0,18726,0.273968,0.273669,0.268903,10,0.0216424,10,7.35903e-05,-3.5704,-1.58729,-0.0371704,-0.391784,0.273669,
2,1,0,1,0,18726.3,0.275466,0.275149,0.269479,10,0.0217279,10,7.41469e-05,-3.56947,-7.45904,-0.00790986,-0.0832304,0.2751489,
2,1,0,1,0,18726.6,0.276965,0.276645,0.26939,10,0.0218134,10,7.45254e-05,-3.56962,-2.63915,-0.0223557,-0.235475,0.276645,
2,1,0,1,0,18726.9,0.278463,0.278146,0.269605,10,0.0218987,10,7.49894e-05,-3.56927,-0.860396,-0.0685731,-0.719364,0.278146,
2,1,0,1,0,18727.2,0.279962,0.279681,0.269685,10,0.021984,10,7.54256e-05,-3.56914,-11.4606,-0.00514808,-0.0539912,0.279681,
2,1,0,1,0,18727.5,0.281459,0.281164,0.269125,10,0.0220689,10,7.56682e-05,-3.57005,11.9179,0.00495055,0.0519837,0.281164,
2,1,0,1,0,18727.8,0.282957,0.282651,0.267946,10,0.0221539,10,7.57353e-05,-3.57195,-7.02227,-0.00840184,-0.087763,0.282651,
2,1,0,0,0,18728.1,0.284456,0.284176,0.267855,10,0.0222389,10,7.61182e-05,-3.5721,-1.22352,-0.0482217,-0.502757,0.284176,
2,1,0,0,0,18728.4,0.285954,0.285627,0.266935,10,0.0223236,10,7.62439e-05,-3.57359,-3.39323,-0.0173875,-0.18108,0.285627,
2,1,0,0,0,18728.7,0.287452,0.28715,0.266828,10,0.0224078,10,7.66197e-05,-3.57377,-2.79664,-0.0210967,-0.219979,0.28715,
2,1,0,1,0,18729,0.28895,0.288609,0.265567,10,0.0224922,10,7.66452e-05,-3.57583,4.45346,0.0132481,0.137441,0.288609,
2,1,0,1,0,18729.3,0.290448,0.290141,0.265525,10,0.0225766,10,7.70398e-05,-3.57589,-2.39569,-0.0246275,-0.255177,0.2901409,
2,1,0,1,0,18729.6,0.291947,0.291618,0.265373,10,0.0226608,10,7.73877e-05,-3.57614,-2.43641,-0.024216,-0.251195,0.291618,
2,1,0,1,0,18729.9,0.293445,0.293153,0.263777,10,0.0227446,10,7.7327e-05,-3.57876,26.3503,0.00223906,0.0231571,0.293153,
2,1,0,1,0,18730.2,0.294943,0.29465,0.263899,10,0.0228284,10,7.77578e-05,-3.57856,5.08999,0.0115914,0.119483,0.29465,
2,1,0,1,0,18730.5,0.296442,0.296203,0.266295,10,0.0229123,10,7.88773e-05,-3.57464,-45.2315,-0.0013044,-0.0134566,0.296203,
2,1,0,1,0,18730.8,0.297939,0.297641,0.263888,10,0.0229961,10,7.85441e-05,-3.57858,-2.25053,-0.026216,-0.269336,0.2976414,
2,1,0,1,0,18731.1,0.299437,0.299126,0.262569,10,0.0230798,10,7.8541e-05,-3.58076,-0.00233842,-25.2307,-123.409,0.299126,
2,1,0,1,0,18731.2,0.299737,0.299439,0.103411,10,0.0231175,10,3.09653e-05,-3.98543,0.000909637,64.861,205.141,0.299439,
2,1,0,1,0,18731.5,0.29824,0.297982,0.0198534,10,0.0231261,10,5.91598e-06,-4.70216,0.00210993,27.963,71.4192,0.297982,
2,1,0,0,0,18731.8,0.296741,0.296455,0.0011947,10,0.0231243,10,3.54175e-07,-5.92274,0.0137874,4.27926,10.6294,0.296455,
2,1,0,0,0,18732.1,0.295243,0.294911,-0.0110519,10,0.0231181,10,-3.25931e-06,-4.95656,-0.00749609,-7.87077,6.62474,0.294911,
2,0,0,1,0,18732.4,0.293744,0.29345,-0.0200519,10,0.0231089,10,-5.88423e-06,-4.69784,-0.00661204,-8.92312,5.46252,0.29345,
2,0,0,1,0,18732.7,0.292246,0.291903,-0.0275712,10,0.0230974,10,-8.04809e-06,-4.55954,-0.0118985,-4.95862,4.71797,0.2919026,
2,0,0,1,0,18733,0.290749,0.290448,-0.0333356,10,0.0230837,10,-9.68226e-06,-4.47709,-0.017874,-3.30088,4.06518,0.290448,
2,0,0,1,0,18733.3,0.28925,0.288905,-0.0393877,10,0.0230682,10,-1.13793e-05,-4.40464,-0.0225179,-2.62013,3.91566,0.288905,
2,0,0,1,0,18733.6,0.287752,0.287469,-0.044395,10,0.0230511,10,-1.27622e-05,-4.35267,-0.0326482,-1.80714,3.11969,0.287469,
2,0,0,1,0,18733.9,0.286253,0.285951,-0.0488184,10,0.0230326,10,-1.39597e-05,-4.31142,-0.0363118,-1.62482,3.09363,0.285951,
2,0,0,1,0,18734.2,0.284755,0.284462,-0.053311,10,0.0230126,10,-1.51649e-05,-4.27318,-0.0335404,-1.75907,3.62936,0.284462,
2,0,0,1,0,18734.5,0.283257,0.282932,-0.0579646,10,0.0229912,10,-1.64e-05,-4.23684,-0.0485338,-1.21565,2.72575,0.282932,
2,0,0,0,0,18734.8,0.281759,0.281445,-0.0615943,10,0.0229686,10,-1.73354e-05,-4.21046,-0.0623923,-0.945629,2.25897,0.281445,
2,0,0,0,0,18735.1,0.280261,0.279955,-0.0635127,10,0.022945,10,-1.77807e-05,-4.19714,-0.0604636,-0.975794,2.45171,0.279955,
2,0,0,0,0,18735.4,0.278763,0.278452,-0.0689868,10,0.0229203,10,-1.92095e-05,-4.16123,-0.067224,-0.877663,2.37334,0.278452,
2,0,0,1,0,18735.7,0.277264,0.276934,-0.071935,10,0.0228944,10,-1.99212e-05,-4.14306,-0.0712635,-0.827913,2.32919,0.276934,
2,0,0,1,0,18736,0.275766,0.275429,-0.076031,10,0.0228675,10,-2.09412e-05,-4.11901,-0.0846575,-0.696926,2.04462,0.2754294,
2,0,0,1,0,18736.3,0.274269,0.273922,-0.0782581,10,0.0228396,10,-2.14366e-05,-4.10647,-0.0951882,-0.619825,1.89985,0.273922,
2,0,0,1,0,18736.6,0.27277,0.272466,-0.0818693,10,0.022811,10,-2.23066e-05,-4.08688,-0.0797372,-0.739931,2.36582,0.272466,
2,0,0,1,0,18736.9,0.271272,0.270997,-0.0848978,10,0.0227813,10,-2.3007e-05,-4.0711,-0.104006,-0.567277,1.86879,0.270997,
2,0,0,1,0,18737.2,0.269773,0.269489,-0.0876995,10,0.0227507,10,-2.36341e-05,-4.057,-0.106425,-0.554382,1.88917,0.269489,
2,0,0,1,0,18737.5,0.268275,0.267935,-0.0908719,10,0.0227193,10,-2.43478e-05,-4.04157,-0.133247,-0.442785,1.5576,0.267935,
2,0,0,1,0,18737.8,0.266778,0.266509,-0.0931852,10,0.0226872,10,-2.48347e-05,-4.03065,-0.10849,-0.543827,1.9567,0.266509,
2,0,0,0,0,18738.1,0.265279,0.265021,-0.0952068,10,0.0226543,10,-2.52318e-05,-4.02133,-0.111171,-0.530715,1.96355,0.265021,
2,0,0,0,0,18738.4,0.263781,0.263482,-0.0981485,10,0.0226205,10,-2.58603e-05,-4.00812,-0.13863,-0.425592,1.62063,0.263482,
2,0,0,1,0,18738.7,0.262282,0.261941,-0.100038,10,0.022586,10,-2.62042e-05,-3.99983,-0.186854,-0.315755,1.22815,0.261941,
2,0,0,1,0,18739,0.260784,0.260428,-0.10229,10,0.022551,10,-2.66391e-05,-3.99017,-0.114708,-0.514347,2.06281,0.260428,
2,0,0,1,0,18739.3,0.259286,0.25901,-0.105154,10,0.0225152,10,-2.72359e-05,-3.97817,-0.133998,-0.440305,1.79766,0.25901,
2,0,0,1,0,18739.6,0.257788,0.257469,-0.108662,10,0.0224786,10,-2.79771e-05,-3.96392,-0.176389,-0.334489,1.40263,0.257469,
2,0,0,1,0,18739.9,0.25629,0.255929,-0.110638,10,0.0224411,10,-2.83155e-05,-3.9561,-0.184789,-0.319282,1.3599,0.255929,
2,0,0,1,0,18740.2,0.254791,0.254471,-0.111483,10,0.0224032,10,-2.83691e-05,-3.95279,-0.178126,-0.331225,1.44991,0.254471,
2,0,0,1,0,18740.5,0.253293,0.252951,-0.114263,10,0.0223646,10,-2.8903e-05,-3.94209,-0.172287,-0.342451,1.52894,0.2529515,
2,0,0,1,0,18740.8,0.251795,0.251451,-0.115834,10,0.0223253,10,-2.91267e-05,-3.93616,-0.187338,-0.314938,1.43761,0.251451,
2,0,0,0,0,18741.1,0.250297,0.249963,-0.117896,10,0.0222854,10,-2.94698e-05,-3.9285,-0.363301,-0.1624,0.746625,0.249963,
2,0,0,0,0,18741.4,0.248799,0.248503,-0.11908,10,0.0222449,10,-2.95918e-05,-3.92416,-0.232139,-0.254158,1.19465,0.2485033,
2,0,0,0,0,18741.7,0.247301,0.246971,-0.122847,10,0.022204,10,-3.03398e-05,-3.91063,-0.228405,-0.258313,1.23356,0.246971,
2,0,0,1,0,18742,0.245802,0.245478,-0.124981,10,0.0221623,10,-3.06801e-05,-3.90316,-0.208065,-0.283565,1.36863,0.245478,
2,0,0,1,0,18742.3,0.244304,0.243958,-0.126728,10,0.02212,10,-3.09164e-05,-3.89713,-0.228577,-0.258118,1.2662,0.243958,
2,0,0,1,0,18742.6,0.242806,0.242507,-0.128244,10,0.0220771,10,-3.11e-05,-3.89196,-0.259234,-0.227594,1.14111,0.242507,
2,0,0,1,0,18742.9,0.241308,0.240975,-0.12926,10,0.0220339,10,-3.11484e-05,-3.88854,-0.248602,-0.237328,1.20062,0.240975,
2,0,0,1,0,18743.2,0.23981,0.239484,-0.13148,10,0.02199,10,-3.14872e-05,-3.88114,-0.193708,-0.304582,1.56301,0.239484,
2,0,0,1,0,18743.5,0.238311,0.237959,-0.132693,10,0.0219454,10,-3.15754e-05,-3.87715,-0.238596,-0.24728,1.28839,0.237959,
2,0,0,1,0,18743.8,0.236813,0.236505,-0.134749,10,0.0219004,10,-3.18688e-05,-3.87047,-0.308743,-0.191097,1.01319,0.236505,
2,0,0,1,0,18744.1,0.235316,0.234992,-0.13595,10,0.0218549,10,-3.19472e-05,-3.86662,-0.245887,-0.239948,1.28518,0.234992,
2,0,0,0,0,18744.4,0.233817,0.233499,-0.138567,10,0.0218089,10,-3.23553e-05,-3.85834,-0.231132,-0.255265,1.38238,0.233499,
2,0,0,0,0,18744.7,0.232319,0.231985,-0.140958,10,0.0217621,10,-3.27003e-05,-3.85091,-0.264881,-0.222741,1.21744,0.231985,
2,0,0,1,0,18745,0.23082,0.230542,-0.142069,10,0.0217148,10,-3.27529e-05,-3.8475,-0.372213,-0.158512,0.875929,0.230542,
2,0,0,1,0,18745.3,0.229322,0.229011,-0.143432,10,0.021667,10,-3.28476e-05,-3.84335,-0.256676,-0.229862,1.29845,0.229011,
2,0,0,1,0,18745.6,0.227825,0.227567,-0.145769,10,0.0216189,10,-3.31721e-05,-3.83634,-0.443004,-0.133181,0.763098,0.227567,
2,0,0,1,0,18745.9,0.226326,0.226026,-0.148349,10,0.02157,10,-3.35308e-05,-3.82871,-0.294071,-0.200632,1.16222,0.226026,
2,0,0,1,0,18746.2,0.224828,0.224525,-0.149156,10,0.0215206,10,-3.34893e-05,-3.82636,-0.473815,-0.124521,0.727168,0.224525,
2,0,0,1,0,18746.5,0.223329,0.223011,-0.15173,10,0.0214705,10,-3.38374e-05,-3.81893,-0.272604,-0.216432,1.28403,0.223011,
2,0,0,1,0,18746.8,0.221831,0.221511,-0.152895,10,0.0214203,10,-3.3868e-05,-3.81561,-0.388722,-0.151779,0.906374,0.221511,
2,0,0,1,0,18747.1,0.220333,0.220014,-0.155672,10,0.0213692,10,-3.425e-05,-3.80779,-0.314131,-0.18782,1.13222,0.220014,
2,0,0,0,0,18747.4,0.218835,0.218548,-0.157382,10,0.0213175,10,-3.43955e-05,-3.80305,-0.286089,-0.20623,1.26503,0.218548,
2,0,0,0,0,18747.7,0.217337,0.217013,-0.159402,10,0.0212654,10,-3.45924e-05,-3.79751,-0.380201,-0.155181,0.963947,0.217013,
2,0,0,0,0,18748,0.215839,0.215512,-0.159614,10,0.021213,10,-3.43988e-05,-3.79693,-0.292678,-0.201587,1.2613,0.215512,
2,0,0,1,0,18748.3,0.21434,0.213977,-0.160911,10,0.0211598,10,-3.44312e-05,-3.79342,-0.230664,-0.255783,1.6112,0.213977,
2,0,0,1,0,18748.6,0.212842,0.212512,-0.163968,10,0.0211061,10,-3.48452e-05,-3.78524,-0.294335,-0.200452,1.28398,0.212512,
2,0,0,1,0,18748.9,0.211344,0.211016,-0.166366,10,0.0210519,10,-3.51058e-05,-3.77894,-0.336986,-0.175081,1.13413,0.211016,
2,0,0,1,0,18749.2,0.209846,0.209551,-0.165755,10,0.0209972,10,-3.47342e-05,-3.78053,-0.247501,-0.238383,1.55768,0.209551,
2,0,0,1,0,18749.5,0.208348,0.208043,-0.170032,10,0.0209419,10,-3.5374e-05,-3.76947,-0.334032,-0.17663,1.16532,0.2080435,
2,0,0,1,0,18749.8,0.206849,0.206534,-0.173614,10,0.0208858,10,-3.58571e-05,-3.76042,-0.329652,-0.178977,1.19489,0.206534,
2,0,0,1,0,18750.1,0.205351,0.205039,-0.17345,10,0.0208291,10,-3.55641e-05,-3.76083,-0.380064,-0.155237,1.0448,0.2050394,
2,0,0,1,0,18750.4,0.203854,0.203509,-0.174416,10,0.0207721,10,-3.54953e-05,-3.75841,-0.293335,-0.201135,1.37587,0.203509,
2,0,0,0,0,18750.7,0.202355,0.202074,-0.175909,10,0.0207146,10,-3.55468e-05,-3.75471,-0.37847,-0.155891,1.08294,0.202074,
2,0,0,0,0,18751,0.200857,0.200567,-0.17915,10,0.0206564,10,-3.59315e-05,-3.74678,-0.231009,-0.255402,1.78437,0.200567,
2,0,0,1,0,18751.3,0.199358,0.199033,-0.181575,10,0.0205975,10,-3.61394e-05,-3.74094,-0.485898,-0.121425,0.858376,0.1990329,
2,0,0,1,0,18751.6,0.19786,0.197534,-0.18411,10,0.020538,10,-3.6368e-05,-3.73492,-0.25155,-0.234546,1.67688,0.1975338,
2,0,0,1,0,18751.9,0.196363,0.196051,-0.184609,10,0.0204781,10,-3.61927e-05,-3.73375,-0.283517,-0.208101,1.50195,0.196051,
2,0,0,1,0,18752.2,0.194864,0.194518,-0.187487,10,0.0204173,10,-3.64697e-05,-3.72703,-0.252985,-0.233215,1.69989,0.194518,
2,0,0,1,0,18752.5,0.193366,0.192991,-0.19099,10,0.0203558,10,-3.68594e-05,-3.71899,-0.304653,-0.193663,1.43378,0.192991,
2,0,0,1,0,18752.8,0.191867,0.191509,-0.191642,10,0.0202936,10,-3.67011e-05,-3.71751,-0.336488,-0.175341,1.31789,0.191509,
2,0,0,1,0,18753.1,0.190369,0.190016,-0.194027,10,0.020231,10,-3.68683e-05,-3.71214,-0.278105,-0.21215,1.60977,0.190016,
2,0,0,1,0,18753.4,0.188871,0.188556,-0.196356,10,0.0201675,10,-3.7024e-05,-3.70696,-0.203765,-0.289549,2.21589,0.188556,
2,0,0,0,0,18753.7,0.187373,0.187045,-0.199004,10,0.0201032,10,-3.72227e-05,-3.70114,-0.268306,-0.219898,1.70773,0.187045,
2,0,0,0,0,18754,0.185875,0.185558,-0.202642,10,0.0200381,10,-3.76017e-05,-3.69327,-0.255756,-0.230689,1.8097,0.185558,
2,0,0,0,0,18754.3,0.184377,0.184065,-0.20284,10,0.0199723,10,-3.73356e-05,-3.69285,-0.29798,-0.198,1.57835,0.184065,
2,0,0,1,0,18754.6,0.182878,0.182568,-0.207165,10,0.0199058,10,-3.78217e-05,-3.68368,-0.224363,-0.262966,2.12279,0.182568,
2,0,0,1,0,18754.9,0.181381,0.181039,-0.210159,10,0.0198383,10,-3.8047e-05,-3.67745,-0.246417,-0.239431,1.96872,0.181039,
2,0,0,1,0,18755.2,0.179882,0.179555,-0.212254,10,0.0197698,10,-3.81113e-05,-3.67314,-0.365628,-0.161366,1.34014,0.179555,
2,0,0,1,0,18755.5,0.178384,0.178066,-0.215683,10,0.0197005,10,-3.84058e-05,-3.66618,-0.239606,-0.246238,2.08256,0.178066,
2,0,0,1,0,18755.8,0.176886,0.176556,-0.220386,10,0.0196305,10,-3.89104e-05,-3.65682,-0.204277,-0.288823,2.47354,0.176556,
2,0,0,1,0,18756.1,0.175387,0.175025,-0.222271,10,0.0195592,10,-3.89031e-05,-3.65312,-0.22176,-0.266053,2.3026,0.175025,
2,0,0,1,0,18756.4,0.173889,0.173564,-0.226691,10,0.019487,10,-3.93456e-05,-3.64457,-0.220202,-0.267935,2.36386,0.173564,
2,0,0,1,0,18756.7,0.172392,0.172085,-0.230907,10,0.0194137,10,-3.97355e-05,-3.63656,-0.19553,-0.301744,2.70169,0.172085,
2,0,0,0,0,18757,0.170893,0.170575,-0.234404,10,0.0193393,10,-3.99834e-05,-3.63004,-0.212609,-0.277505,2.52873,0.1705751,
2,0,0,0,0,18757.3,0.169395,0.169047,-0.238134,10,0.0192636,10,-4.02559e-05,-3.62318,-0.166456,-0.354448,3.28484,0.169047,
2,0,0,1,0,18757.6,0.167896,0.167595,-0.242745,10,0.0191864,10,-4.06828e-05,-3.61485,-0.173053,-0.340936,3.23448,0.167595,
2,0,0,1,0,18757.9,0.166398,0.166084,-0.246649,10,0.019108,10,-4.09645e-05,-3.60792,-0.203896,-0.289363,2.80845,0.166084,
2,0,0,1,0,18758.2,0.164901,0.164615,-0.251836,10,0.0190282,10,-4.14559e-05,-3.59888,-0.155307,-0.379892,3.75391,0.164615,
2,0,0,1,0,18758.5,0.163402,0.163098,-0.257519,10,0.0189468,10,-4.20008e-05,-3.58919,-0.141904,-0.415774,4.19465,0.163098,
2,0,0,1,0,18758.8,0.161904,0.161573,-0.2646,10,0.0188635,10,-4.27524e-05,-3.57741,-0.135872,-0.434234,4.48182,0.161573,
2,0,0,1,0,18759.1,0.160405,0.160056,-0.270658,10,0.0187783,10,-4.33205e-05,-3.56758,-0.14802,-0.398594,4.21642,0.160056,
2,0,0,1,0,18759.4,0.158907,0.158593,-0.276976,10,0.0186912,10,-4.39265e-05,-3.55756,-0.123469,-0.477855,5.18313,0.158593,
2,0,0,1,0,18759.7,0.157409,0.157079,-0.285354,10,0.018602,10,-4.48233e-05,-3.54462,-0.112848,-0.522828,5.83259,0.157079,
2,0,0,0,0,18760,0.155911,0.155571,-0.293075,10,0.0185101,10,-4.5594e-05,-3.53302,-0.111383,-0.529704,6.10361,0.1555714,
2,0,0,0,0,18760.3,0.154413,0.154089,-0.303195,10,0.0184154,10,-4.6719e-05,-3.51828,-0.116901,-0.5047,5.99006,0.154089,
2,0,0,0,0,18760.6,0.152915,0.152596,-0.313879,10,0.0183177,10,-4.78967e-05,-3.50324,-0.0964816,-0.611515,7.50628,0.152596,
2,0,0,1,0,18760.9,0.151416,0.151106,-0.326154,10,0.0182169,10,-4.92838e-05,-3.48658,-0.0889153,-0.663553,8.44421,0.1511059,
2,0,0,1,0,18761.2,0.149919,0.149569,-0.339246,10,0.0181123,10,-5.07405e-05,-3.46949,-0.084045,-0.702005,9.28516,0.149569,
2,0,0,1,0,18761.5,0.14842,0.148164,-0.353043,10,0.0180034,10,-5.23084e-05,-3.45217,-0.0789115,-0.747673,10.3097,0.148164,
2,0,0,1,0,18761.8,0.146922,0.146615,-0.370183,10,0.0178901,10,-5.42745e-05,-3.43158,-0.0771972,-0.764276,11.0605,0.146615,
2,0,0,1,0,18762.1,0.145424,0.145114,-0.385017,10,0.0177722,10,-5.58712e-05,-3.41452,-0.0742314,-0.794812,12.0227,0.145114,
2,0,0,1,0,18762.4,0.143925,0.143599,-0.404703,10,0.0176487,10,-5.8115e-05,-3.39286,-0.0685875,-0.860215,13.5983,0.143599,
2,0,0,1,0,18762.7,0.142427,0.142097,-0.424819,10,0.0175191,10,-6.03654e-05,-3.3718,-0.0709379,-0.831714,13.828,0.1420968,
2,0,0,1,0,18763,0.14093,0.140603,-0.446643,10,0.0173834,10,-6.27995e-05,-3.35004,-0.0720146,-0.819278,14.3441,0.140603,
2,0,0,0,0,18763.3,0.139431,0.139097,-0.466539,10,0.0172412,10,-6.48942e-05,-3.33111,-0.0743303,-0.793754,14.5431,0.139097,
2,0,0,0,0,18763.6,0.137933,0.137591,-0.493132,10,0.0170922,10,-6.78506e-05,-3.30704,-0.0718539,-0.821111,15.7505,0.137591,
2,0,0,1,0,18763.9,0.136434,0.136072,-0.516448,10,0.0169359,10,-7.02743e-05,-3.28697,-0.078972,-0.7471,14.9656,0.136072,
2,0,0,1,0,18764.2,0.134936,0.134635,-0.537666,10,0.0167728,10,-7.23884e-05,-3.26949,-0.0850782,-0.69348,14.4723,0.134635,
2,0,0,1,0,18764.5,0.133439,0.133092,-0.557721,10,0.0166032,10,-7.42283e-05,-3.25358,-0.0918437,-0.642396,14.0107,0.133092,
2,0,0,1,0,18764.8,0.13194,0.13161,-0.580878,10,0.0164273,10,-7.64496e-05,-3.23592,-0.0979317,-0.602461,13.6264,0.13161,
2,0,0,1,0,18765.1,0.130442,0.13007,-0.600182,10,0.016245,10,-7.80655e-05,-3.22172,-0.113772,-0.518583,12.0948,0.13007,
2,0,0,1,0,18765.4,0.128943,0.128637,-0.618172,10,0.0160571,10,-7.95196e-05,-3.20889,-0.142191,-0.414933,9.93251,0.128637,
2,0,0,1,0,18765.7,0.127445,0.127101,-0.631921,10,0.0158647,10,-8.03181e-05,-3.19934,-0.165494,-0.356508,8.74189,0.127101,
2,0,0,1,0,18766,0.125947,0.125638,-0.644163,10,0.0156691,10,-8.09316e-05,-3.191,-0.207904,-0.283785,7.09652,0.125638,
2,0,0,0,0,18766.3,0.124449,0.124102,-0.653119,10,0.0154695,10,-8.10532e-05,-3.18501,-0.2385,-0.247379,6.26917,0.124102,
2,0,0,0,0,18766.6,0.122951,0.122645,-0.661336,10,0.0152672,10,-8.11093e-05,-3.17958,-0.339048,-0.174017,4.48332,0.122645,
2,0,0,0,0,18766.9,0.121453,0.121153,-0.666872,10,0.0150631,10,-8.07933e-05,-3.17596,-0.512127,-0.115206,2.99114,0.121153,
2,0,0,1,0,18767.2,0.119954,0.119647,-0.667073,10,0.0148578,10,-7.9813e-05,-3.17583,-0.891048,-0.0662142,1.72793,0.1196467,
2,0,0,1,0,18767.5,0.118456,0.118152,-0.67088,10,0.0146517,10,-7.92657e-05,-3.17336,-1.01801,-0.0579562,1.51501,0.118152,
2,0,0,1,0,18767.8,0.116958,0.116615,-0.673021,10,0.0144448,10,-7.84845e-05,-3.17197,-8.7816,-0.00671859,0.176003,0.116615,
2,0,0,1,0,18768.1,0.11546,0.115143,-0.67054,10,0.0142381,10,-7.72083e-05,-3.17358,1.08983,0.0541369,-1.41659,0.1151434,
2,0,0,1,0,18768.4,0.113962,0.113643,-0.666392,10,0.0140322,10,-7.57307e-05,-3.17627,0.808179,0.0730037,-1.90352,0.113643,
2,0,0,1,0,18768.7,0.112463,0.112135,-0.666245,10,0.0138269,10,-7.47092e-05,-3.17637,0.74547,0.0791447,-2.05554,0.112135,
2,0,0,1,0,18769,0.110965,0.110681,-0.66451,10,0.0136226,10,-7.35487e-05,-3.1775,0.625886,0.0942663,-2.43904,0.110681,
2,0,0,1,0,18769.3,0.109468,0.109159,-0.65924,10,0.0134192,10,-7.19619e-05,-3.18096,0.452696,0.13033,-3.34857,0.1091589,
2,0,0,0,0,18769.6,0.107969,0.107664,-0.654479,10,0.0132169,10,-7.04641e-05,-3.1841,0.603593,0.0977479,-2.50122,0.107664,
2,0,0,0,0,18769.9,0.106471,0.106189,-0.650321,10,0.0130164,10,-6.90572e-05,-3.18687,0.629743,0.0936889,-2.38369,0.106189,
2,0,0,1,0,18770.2,0.104972,0.104647,-0.647044,10,0.0128168,10,-6.77113e-05,-3.18907,0.447491,0.131846,-3.32437,0.104647,
2,0,0,1,0,18770.5,0.103474,0.103142,-0.642373,10,0.0126183,10,-6.62555e-05,-3.19221,0.444336,0.132782,-3.32003,0.103142,
2,0,0,1,0,18770.8,0.101977,0.101637,-0.637869,10,0.0124216,10,-6.48313e-05,-3.19527,0.423439,0.139335,-3.46311,0.101637,
2,0,0,1,0,18771.1,0.100478,0.100135,-0.63079,10,0.0122268,10,-6.31645e-05,-3.20012,0.436848,0.135059,-3.32957,0.100135,
2,0,0,1,0,18771.4,0.0989799,0.0986795,-0.6265,10,0.0120333,10,-6.18227e-05,-3.20308,0.44493,0.132605,-3.23714,0.0986795,
2,0,0,1,0,18771.7,0.0974812,0.0971701,-0.62193,10,0.0118409,10,-6.0433e-05,-3.20626,0.422861,0.139526,-3.38152,0.0971701,
2,0,0,1,0,18772,0.0959834,0.0956647,-0.61537,10,0.0116505,10,-5.88692e-05,-3.21086,0.336947,0.175102,-4.21089,0.0956647,
2,0,0,1,0,18772.3,0.0944855,0.0941731,-0.608142,10,0.0114619,10,-5.72706e-05,-3.216,0.403045,0.146386,-3.48677,0.0941731,
2,0,0,0,0,18772.6,0.0929871,0.0926214,-0.60462,10,0.0112746,10,-5.60008e-05,-3.21852,0.470899,0.125292,-2.95268,0.0926214,
2,0,0,0,0,18772.9,0.0914889,0.0911729,-0.600801,10,0.0110887,10,-5.47768e-05,-3.22127,0.368303,0.160194,-3.74195,0.0911729,
2,0,0,0,0,18773.2,0.0899907,0.0896523,-0.594346,10,0.0109045,10,-5.32845e-05,-3.22596,0.318407,0.185298,-4.28913,0.0896523,
2,0,0,1,0,18773.5,0.0884923,0.0881611,-0.585852,10,0.0107221,10,-5.16493e-05,-3.23221,0.366042,0.161183,-3.69819,0.0881611,
2,0,0,1,0,18773.8,0.0869946,0.0866695,-0.583171,10,0.0105415,10,-5.05432e-05,-3.2342,0.356007,0.165727,-3.7735,0.0866695,
2,0,0,1,0,18774.1,0.0854962,0.0851965,-0.576838,10,0.0103623,10,-4.91445e-05,-3.23895,0.417158,0.141433,-3.19299,0.0851965,
2,0,0,1,0,18774.4,0.083998,0.0836896,-0.573534,10,0.0101844,10,-4.79988e-05,-3.24144,0.311486,0.189415,-4.22691,0.08368963,
2,0,0,1,0,18774.7,0.0824998,0.0821976,-0.568466,10,0.0100081,10,-4.67266e-05,-3.2453,0.363656,0.162241,-3.60202,0.0821976,
2,0,0,1,0,18775,0.0810014,0.0807128,-0.563243,10,0.00983358,10,-4.54609e-05,-3.2493,0.500664,0.117843,-2.59613,0.0807128,
2,0,0,1,0,18775.3,0.0795035,0.0791893,-0.560172,10,0.00966017,10,-4.43596e-05,-3.25168,0.482587,0.122258,-2.66983,0.0791893,
2,0,0,1,0,18775.6,0.0780056,0.0777318,-0.556278,10,0.00948775,10,-4.32405e-05,-3.25471,0.434913,0.135659,-2.9352,0.0777318,
2,0,0,0,0,18775.9,0.076507,0.0762106,-0.55205,10,0.00931666,10,-4.20721e-05,-3.25802,0.430289,0.137117,-2.94963,0.0762106,
2,0,0,0,0,18776.2,0.0750088,0.0746666,-0.547094,10,0.00914741,10,-4.08497e-05,-3.26194,0.496745,0.118773,-2.53803,0.0746666,
2,0,0,1,0,18776.5,0.0735103,0.0732221,-0.543653,10,0.00897884,10,-3.98074e-05,-3.26468,0.80556,0.073241,-1.55093,0.0732221,
2,0,0,1,0,18776.8,0.0720124,0.0717019,-0.539086,10,0.00881133,10,-3.86535e-05,-3.26834,0.51525,0.114508,-2.4151,0.0717019,
2,0,0,1,0,18777.1,0.0705146,0.070241,-0.536284,10,0.00864502,10,-3.76691e-05,-3.27061,0.449432,0.131277,-2.74796,0.070241,
2,0,0,1,0,18777.4,0.0690161,0.0686796,-0.530123,10,0.00847991,10,-3.64086e-05,-3.27562,0.631633,0.0934087,-1.94661,0.0686796,
2,0,0,1,0,18777.7,0.0675179,0.0672067,-0.529247,10,0.00831594,10,-3.55689e-05,-3.27634,0.614167,0.0960651,-1.98753,0.0672067,
2,0,0,1,0,18778,0.0660192,0.0657131,-0.528436,10,0.00815263,10,-3.47251e-05,-3.27701,0.670561,0.087986,-1.80528,0.0657131,
2,0,0,1,0,18778.3,0.0645214,0.0642533,-0.52317,10,0.00799022,10,-3.36154e-05,-3.28136,0.49463,0.119281,-2.42799,0.0642533,
2,0,0,1,0,18778.6,0.0630235,0.0627319,-0.516372,10,0.00782913,10,-3.2393e-05,-3.28704,0.47086,0.125303,-2.53844,0.0627319,
2,0,0,0,0,18778.9,0.0615251,0.0612196,-0.514657,10,0.00766932,10,-3.15071e-05,-3.28848,0.591368,0.0997688,-2.01142,0.06121961,
2,0,0,0,0,18779.2,0.0600269,0.0597043,-0.513065,10,0.00751036,10,-3.06322e-05,-3.28983,0.516896,0.114143,-2.28373,0.0597043,
2,0,0,0,0,18779.5,0.0585287,0.0581879,-0.508758,10,0.00735225,10,-2.96036e-05,-3.29349,0.397965,0.148254,-2.93833,0.0581879,
2,0,0,1,0,18779.8,0.0570303,0.0566978,-0.507029,10,0.00719511,10,-2.87474e-05,-3.29497,0.509151,0.115879,-2.28299,0.0566978,
2,0,0,1,0,18780.1,0.0555325,0.0552189,-0.502425,10,0.0070394,10,-2.77434e-05,-3.29893,0.566766,0.104099,-2.04323,0.0552189,
2,0,0,1,0,18780.4,0.0540342,0.0536982,-0.498868,10,0.00688455,10,-2.67883e-05,-3.30201,0.53805,0.109655,-2.13393,0.0536982,
2,0,0,1,0,18780.7,0.052536,0.052186,-0.496829,10,0.00673036,10,-2.59275e-05,-3.30379,0.478803,0.123224,-2.37927,0.052186,
2,0,0,1,0,18781,0.0510378,0.050712,-0.492188,10,0.00657746,10,-2.49599e-05,-3.30787,0.460372,0.128157,-2.45942,0.050712,
2,0,0,1,0,18781.3,0.0495394,0.0492443,-0.488587,10,0.00642589,10,-2.40601e-05,-3.31106,0.520672,0.113315,-2.1605,0.0492443,
2,0,0,1,0,18781.6,0.0480415,0.0477081,-0.484925,10,0.00627514,10,-2.31348e-05,-3.31433,0.856071,0.0689195,-1.30251,0.0477081,
2,0,0,1,0,18781.9,0.0465436,0.0462197,-0.481621,10,0.00612536,10,-2.22604e-05,-3.31729,0.518879,0.113707,-2.13961,0.0462197,
2,0,0,0,0,18782.2,0.045045,0.0447494,-0.478429,10,0.00597655,10,-2.14094e-05,-3.32018,0.464115,0.127124,-2.37412,0.0447494,
2,0,0,0,0,18782.5,0.0435468,0.0432128,-0.471822,10,0.00582912,10,-2.03888e-05,-3.32622,0.475084,0.124189,-2.29692,0.04321285,
2,0,0,1,0,18782.8,0.0420483,0.0417278,-0.470907,10,0.00568273,10,-1.96499e-05,-3.32706,0.5115,0.115347,-2.11659,0.0417278,
2,0,0,1,0,18783.1,0.0405504,0.0402237,-0.468715,10,0.00553712,10,-1.88534e-05,-3.32909,0.472483,0.124872,-2.27467,0.04022371,
2,0,0,1,0,18783.4,0.0390526,0.0386971,-0.464145,10,0.00539247,10,-1.79611e-05,-3.33335,0.358387,0.164626,-2.97498,0.0386971,
2,0,0,1,0,18783.7,0.0375541,0.0372067,-0.459226,10,0.00524897,10,-1.70863e-05,-3.33797,0.459162,0.128495,-2.309,0.0372067,
2,0,0,1,0,18784,0.0360559,0.035772,-0.45585,10,0.00510697,10,-1.63067e-05,-3.34118,0.447894,0.131727,-2.34967,0.035772,
2,0,0,1,0,18784.3,0.0345572,0.0342329,-0.452502,10,0.00496567,10,-1.54905e-05,-3.34438,0.46847,0.125942,-2.22629,0.0342329,
2,0,0,1,0,18784.6,0.0330594,0.0327306,-0.449057,10,0.00482535,10,-1.46979e-05,-3.3477,0.418946,0.14083,-2.46606,0.0327306,
2,0,0,1,0,18784.9,0.0315615,0.0312623,-0.446882,10,0.00468606,10,-1.39706e-05,-3.34981,0.455098,0.129643,-2.25953,0.0312623,
2,0,0,0,0,18785.2,0.0300631,0.029699,-0.442601,10,0.00454806,10,-1.31448e-05,-3.35399,0.479394,0.123072,-2.12951,0.029699,
2,0,0,0,0,18785.5,0.0285649,0.0282378,-0.439989,10,0.00441079,10,-1.24243e-05,-3.35656,0.576969,0.102259,-1.75396,0.0282378,
2,0,0,0,0,18785.8,0.0270667,0.0267172,-0.438383,10,0.0042743,10,-1.17124e-05,-3.35815,0.505503,0.116715,-1.9872,0.0267172,
2,0,0,1,0,18786.1,0.0255683,0.0252875,-0.433638,10,0.00413868,10,-1.09656e-05,-3.36287,0.55501,0.106304,-1.80073,0.0252875,
2,0,0,1,0,18786.4,0.0240706,0.0237546,-0.429575,10,0.00400442,10,-1.02044e-05,-3.36696,0.593663,0.0993829,-1.67712,0.0237546,
2,0,0,1,0,18786.7,0.0225722,0.02229,-0.42703,10,0.00387065,10,-9.51848e-06,-3.36954,0.975772,0.060465,-1.01064,0.02229,
2,0,0,1,0,18787,0.021074,0.0207503,-0.425923,10,0.0037376,10,-8.83801e-06,-3.37067,0.634903,0.0929276,-1.5468,0.0207503,
2,0,0,1,0,18787.3,0.0195758,0.0192466,-0.424605,10,0.00360524,10,-8.17221e-06,-3.37201,0.662589,0.0890446,-1.47502,0.0192466,
2,0,0,1,0,18787.6,0.0180774,0.0177649,-0.419915,10,0.00347369,10,-7.45974e-06,-3.37684,0.841162,0.0701411,-1.15247,0.0177649,
2,0,0,1,0,18787.9,0.0165795,0.0162912,-0.419924,10,0.00334287,10,-6.84107e-06,-3.37683,0.85765,0.0687926,-1.12875,0.0162912,
2,0,0,1,0,18788.2,0.0150817,0.0147922,-0.420291,10,0.00321222,10,-6.21705e-06,-3.37645,1.66714,0.0353899,-0.578287,0.0147922,
2,0,0,0,0,18788.5,0.013583,0.0132606,-0.416762,10,0.00308194,10,-5.52652e-06,-3.38011,0.826345,0.0713987,-1.16138,0.0132606,
2,0,0,0,0,18788.8,0.0120848,0.0117845,-0.416812,10,0.0029522,10,-4.91193e-06,-3.38006,1.28025,0.0460847,-0.749658,0.0117845,
2,0,0,1,0,18789.1,0.0105863,0.0102933,-0.415469,10,0.002823,10,-4.27655e-06,-3.38146,0.841093,0.0701468,-1.13789,0.0102933,
2,0,0,1,0,18789.4,0.00908846,0.00876749,-0.414854,10,0.00269377,10,-3.63723e-06,-3.3821,1.8181,0.0324515,-0.525269,0.00876749,
2,0,0,1,0,18789.7,0.0075906,0.00726752,-0.414135,10,0.00256512,10,-3.00974e-06,-3.38286,1.44074,0.0409513,-0.662036,0.007267518,
2,0,0,1,0,18790,0.00609208,0.00581125,-0.414708,10,0.00243623,10,-2.40997e-06,-3.38226,-1.71068,-0.0344893,0.555939,0.00581125,
2,0,0,1,0,18790.3,0.00459389,0.00426093,-0.415551,10,0.00230765,10,-1.77063e-06,-3.38138,-21.0437,-0.00280368,0.045296,0.00426093,
2,0,0,1,0,18790.6,0.00309525,0.00280347,-0.415738,10,0.00217856,10,-1.16551e-06,-3.38118,-0.606494,-0.0972804,1.5747,0.00280347,
2,0,0,1,0,18790.9,0.00159739,0.00122064,-0.420002,10,0.00204752,10,-5.12672e-07,-3.37675, , , ,0.00122064,
2,0,0,0,0,18791.1,0.000199195,-0.00014972,-0.415584,10,0.00192615,10,6.22213e-08,-3.38134, , , ,-0.0001497202,