File: Figure_codes/Fig_3-5/rawdata_trumpetplot_data/after 10th/20221101_1-115_003_TrumpetPlot_ParaChange_from10_every3_06_CV_C01_25.csv
mode,ox/red,error,control changes,counter inc.,time/s,control/V,Ewe/V,<I>/mA,cycle number,(Q-Qo)/C,I Range,P/W,log(|I|),Tafel slope mV/dec,alpha_eff,dI/d(E-IR),E-IR/V,
2,0,0,0,0,50403.3,2.44065e-05,-0.000363498,-1.42107,26,0.0000000E+000,10,5.16556e-07,-2.84739, , , ,-0.000363498,
2,0,0,1,0,50403.3,0.00129787,0.000905809,-0.395849,26,-2.51274e-05,10,-3.58564e-07,-3.40247, , , ,0.000905809,
2,1,0,1,0,50403.3,0.00279427,0.00243876,0.244641,26,-2.63257e-05,10,5.96619e-07,-3.61147,1.72361,0.0342304,346.986,0.00243876,
2,1,0,1,0,50403.4,0.00429425,0.00396815,0.610555,26,-9.18114e-06,10,2.42277e-06,-3.21428,0.00347631,16.972,214.008,0.00396815,
2,1,0,1,0,50403.4,0.00579422,0.0054612,0.86024,26,1.92896e-05,10,4.69794e-06,-3.06538,0.0120084,4.91322,144.88,0.0054612,
2,1,0,1,0,50403.5,0.00729063,0.00697506,1.03461,26,5.54688e-05,10,7.21649e-06,-2.98522,0.0216595,2.72398,104.214,0.00697506,
2,1,0,1,0,50403.5,0.00878703,0.00840832,1.16415,26,9.73186e-05,10,9.78852e-06,-2.93399,0.0337833,1.74642,77.2982,0.00840832,
2,1,0,1,0,50403.5,0.010287,0.0099182,1.26444,26,0.000143626,10,1.25409e-05,-2.8981,0.0475384,1.2411,60.308,0.0099182,
2,1,0,1,0,50403.6,0.011787,0.0114273,1.34548,26,0.000193296,10,1.53753e-05,-2.87112,0.0624689,0.94447,49.2441,0.01142735,
2,1,0,1,0,50403.6,0.0132825,0.0128681,1.41477,26,0.00024551,10,1.82054e-05,-2.84931,0.0754989,0.781469,42.8685,0.0128681,
2,1,0,1,0,50403.6,0.014778,0.0144426,1.47209,26,0.000300106,10,2.12609e-05,-2.83206,0.0885213,0.666507,38.1186,0.0144426,
2,1,0,1,0,50403.7,0.0162816,0.0159546,1.5274,26,0.000357139,10,2.4369e-05,-2.81605,0.103106,0.572229,33.8046,0.0159546,
2,1,0,1,0,50403.7,0.017778,0.0174543,1.56929,26,0.000415629,10,2.7391e-05,-2.8043,0.12631,0.467104,28.4874,0.0174543,
2,1,0,1,0,50403.8,0.0192744,0.0189186,1.61075,26,0.000475625,10,3.04732e-05,-2.79297,0.139695,0.422349,26.4973,0.0189186,
2,1,0,1,0,50403.8,0.0207743,0.0204209,1.64865,26,0.000537367,10,3.36669e-05,-2.78287,0.142727,0.413376,26.6033,0.0204209,
2,1,0,1,0,50403.8,0.0222743,0.021967,1.68584,26,0.000600576,10,3.70327e-05,-2.77318,0.157511,0.374578,24.6945,0.021967,
2,1,0,1,0,50403.9,0.0237707,0.0234227,1.72244,26,0.00066499,10,4.03443e-05,-2.76385,0.177616,0.332176,22.3579,0.0234227,
2,1,0,1,0,50403.9,0.0252671,0.0249209,1.75738,26,0.000730718,10,4.37954e-05,-2.75514,0.173315,0.340421,23.3855,0.0249209,
2,1,0,1,0,50403.9,0.0267671,0.0264502,1.79533,26,0.000797834,10,4.74868e-05,-2.74586,0.177026,0.333284,23.3001,0.0264502,
2,1,0,1,0,50404,0.0282671,0.0279519,1.83202,26,0.00086633,10,5.12085e-05,-2.73707,0.176406,0.334455,23.7934,0.0279519,
2,1,0,1,0,50404,0.0297626,0.0294417,1.86665,26,0.000935947,10,5.49574e-05,-2.72894,0.195428,0.301902,21.9014,0.02944169,
2,1,0,1,0,50404.1,0.0312581,0.0308935,1.89176,26,0.00100678,10,5.84431e-05,-2.72313,0.201708,0.292502,21.6182,0.0308935,
2,1,0,1,0,50404.1,0.0327616,0.0324507,1.92596,26,0.00107917,10,6.24987e-05,-2.71535,0.198026,0.297941,22.428,0.0324507,
2,1,0,1,0,50404.1,0.034258,0.0339397,1.9584,26,0.00115247,10,6.64675e-05,-2.7081,0.205391,0.287257,21.9981,0.0339397,
2,1,0,1,0,50404.2,0.0357545,0.0354501,1.99447,26,0.00122705,10,7.0704e-05,-2.70017,0.221196,0.266732,20.738,0.0354501,
2,1,0,1,0,50404.2,0.0372544,0.0368782,2.02747,26,0.00130305,10,7.47696e-05,-2.69304,0.220217,0.267917,21.1756,0.0368782,
2,1,0,1,0,50404.2,0.0387544,0.0383829,2.05894,26,0.00138015,10,7.90283e-05,-2.68636,0.2196,0.26867,21.5864,0.0383829,
2,1,0,1,0,50404.3,0.0402508,0.0399155,2.09535,26,0.00145834,10,8.36369e-05,-2.67874,0.213302,0.276603,22.57,0.03991551,
2,1,0,1,0,50404.3,0.0417472,0.0414159,2.12645,26,0.00153791,10,8.8069e-05,-2.67234,0.216555,0.272448,22.6002,0.0414159,
2,1,0,1,0,50404.4,0.0432472,0.0429388,2.16245,26,0.00161893,10,9.28529e-05,-2.66505,0.240418,0.245406,20.6797,0.0429388,
2,1,0,1,0,50404.4,0.0447472,0.04439,2.1891,26,0.00170106,10,9.71742e-05,-2.65973,0.229969,0.256556,21.9786,0.04439,
2,1,0,1,0,50404.4,0.0462427,0.0459183,2.22212,26,0.00178422,10,0.000102036,-2.65323,0.216915,0.271996,23.62,0.0459183,
2,1,0,1,0,50404.5,0.0477382,0.047386,2.2574,26,0.00186865,10,0.000106969,-2.64639,0.232267,0.254018,22.3617,0.047386,
2,1,0,1,0,50404.5,0.0492417,0.0488981,2.29171,26,0.00195474,10,0.00011206,-2.63984,0.264322,0.223213,19.9322,0.0488981,
2,1,0,1,0,50404.5,0.0507381,0.0503912,2.31706,26,0.00204152,10,0.000116759,-2.63506,0.267244,0.220772,19.9648,0.0503912,
2,1,0,1,0,50404.6,0.0522345,0.0518882,2.35308,26,0.00212944,10,0.000122097,-2.62836,0.260963,0.226086,20.7414,0.0518882,
2,1,0,1,0,50404.6,0.0537345,0.0533839,2.38739,26,0.00221882,10,0.000127448,-2.62208,0.265602,0.222137,20.6298,0.0533839,
2,1,0,1,0,50404.7,0.0552345,0.0549049,2.41597,26,0.00230943,10,0.000132648,-2.61691,0.277225,0.212823,20.0402,0.0549049,
2,1,0,1,0,50404.7,0.0567309,0.0564289,2.44106,26,0.00240091,10,0.000137746,-2.61242,0.283989,0.207754,19.8254,0.0564289,
2,1,0,1,0,50404.7,0.0582273,0.0578533,2.47403,26,0.00249346,10,0.000143131,-2.6066,0.287377,0.205305,19.8469,0.0578533,
2,1,0,1,0,50404.8,0.0597309,0.0593548,2.50036,26,0.00258763,10,0.000148408,-2.602,0.303882,0.194154,18.9578,0.0593548,
2,1,0,1,0,50404.8,0.0612264,0.0608969,2.53536,26,0.00268239,10,0.000154395,-2.59596,0.328033,0.17986,17.7456,0.0608969,
2,1,0,1,0,50404.8,0.0627219,0.0624169,2.56147,26,0.00277821,10,0.000159879,-2.59151,0.322568,0.182907,18.2502,0.0624169,
2,1,0,1,0,50404.9,0.0642218,0.06393,2.58863,26,0.0028752,10,0.000165491,-2.58693,0.320296,0.184204,18.5906,0.06393,
2,1,0,1,0,50404.9,0.0657218,0.0653933,2.61346,26,0.00297329,10,0.000170903,-2.58278,0.306616,0.192423,19.619,0.0653933,
2,1,0,1,0,50405,0.0672182,0.0668874,2.64267,26,0.00307225,10,0.000176761,-2.57796,0.327703,0.180041,18.5482,0.0668874,
2,1,0,1,0,50405,0.0687146,0.0683585,2.66715,26,0.00317218,10,0.000182322,-2.57395,0.400104,0.147462,15.3514,0.0683585,
2,1,0,1,0,50405,0.0702146,0.0698837,2.69237,26,0.00327323,10,0.000188153,-2.56987,0.418899,0.140845,14.805,0.0698837,
2,1,0,1,0,50405.1,0.0717146,0.0713738,2.7151,26,0.00337518,10,0.000193787,-2.56621,0.36368,0.162231,17.1891,0.0713738,
2,1,0,1,0,50405.1,0.073211,0.0728679,2.74221,26,0.0034778,10,0.000199819,-2.5619,0.39482,0.149435,15.981,0.0728679,
2,1,0,1,0,50405.1,0.0747074,0.0743649,2.76386,26,0.00358129,10,0.000205534,-2.55848,0.483944,0.121915,13.1276,0.0743649,
2,1,0,1,0,50405.2,0.0762109,0.0758687,2.78142,26,0.00368614,10,0.000211023,-2.55573,0.451116,0.130787,14.1885,0.0758687,
2,1,0,1,0,50405.2,0.0777064,0.0773728,2.80285,26,0.00379115,10,0.000216864,-2.5524,0.47132,0.12518,13.699,0.0773728,
2,1,0,1,0,50405.3,0.079202,0.0788976,2.82281,26,0.00389697,10,0.000222713,-2.54932,0.48769,0.120979,13.3414,0.0788976,
2,1,0,1,0,50405.3,0.0807019,0.0803919,2.83956,26,0.00400388,10,0.000228278,-2.54675,0.545835,0.108091,11.9921,0.0803919,
2,1,0,1,0,50405.3,0.0822019,0.0818713,2.85854,26,0.00411147,10,0.000234032,-2.54386,0.568721,0.103741,11.5968,0.0818713,
2,1,0,1,0,50405.4,0.0836983,0.0833359,2.87735,26,0.00421938,10,0.000239787,-2.54101,0.575472,0.102525,11.5245,0.0833359,
2,1,0,1,0,50405.4,0.0851947,0.0848339,2.90117,26,0.00432804,10,0.000246118,-2.53743,0.521047,0.113233,12.8064,0.0848339,
2,1,0,1,0,50405.4,0.0866947,0.0863795,2.92597,26,0.00443774,10,0.000252744,-2.53373,0.516151,0.114308,13.0033,0.0863795,
2,1,0,1,0,50405.5,0.0881947,0.0878351,2.94366,26,0.00454822,10,0.000258556,-2.53111,0.539961,0.109267,12.518,0.0878351,
2,1,0,1,0,50405.5,0.0896911,0.0893948,2.95763,26,0.00465902,10,0.000264397,-2.52906,0.533269,0.110638,12.7891,0.0893948,
2,1,0,1,0,50405.6,0.0911875,0.0908464,2.97783,26,0.00477063,10,0.000270526,-2.5261,0.452162,0.130484,15.1881,0.0908464,
2,1,0,1,0,50405.6,0.0926901,0.0923436,3.00607,26,0.00488382,10,0.000277592,-2.522,0.41727,0.141395,16.6015,0.0923436,
2,1,0,1,0,50405.6,0.0941856,0.0938256,3.02905,26,0.00499727,10,0.000284202,-2.51869,0.420502,0.140309,16.6133,0.0938256,
2,1,0,1,0,50405.7,0.0956821,0.0953265,3.05183,26,0.0051116,10,0.00029092,-2.51544,0.381472,0.154664,18.4786,0.0953265,
2,1,0,1,0,50405.7,0.097182,0.096809,3.09074,26,0.00522738,10,0.000299211,-2.50994,0.315971,0.186726,22.5036,0.09680903,
2,1,0,1,0,50405.7,0.098682,0.0983423,3.12501,26,0.0053445,10,0.000307321,-2.50515,0.279478,0.211108,25.7502,0.0983423,
2,1,0,1,0,50405.8,0.100178,0.0998589,3.16545,26,0.0054627,10,0.000316099,-2.49956,0.274181,0.215186,26.5958,0.0998589,
2,1,0,1,0,50405.8,0.101675,0.101381,3.20154,26,0.00558235,10,0.000324575,-2.49464,0.255596,0.230833,28.9007,0.1013806,
2,1,0,1,0,50405.9,0.103175,0.102814,3.25063,26,0.00570393,10,0.000334208,-2.48803,0.233572,0.252599,32.089,0.1028135,
2,1,0,1,0,50405.9,0.104675,0.104322,3.29935,26,0.00582731,10,0.000344194,-2.48157,0.223064,0.264498,34.0955,0.104322,
2,1,0,1,0,50405.9,0.106171,0.105862,3.35242,26,0.00595232,10,0.000354892,-2.47464,0.231713,0.254625,33.288,0.105862,
2,1,0,1,0,50406,0.107667,0.107323,3.40586,26,0.00607933,10,0.000365527,-2.46777,0.222823,0.264785,35.183,0.107323,
2,1,0,1,0,50406,0.10917,0.108833,3.45795,26,0.00620884,10,0.00037634,-2.46118,0.224884,0.262358,35.4127,0.108833,
2,1,0,1,0,50406,0.110666,0.110287,3.51175,26,0.00633975,10,0.0003873,-2.45448,0.214676,0.274833,37.6504,0.110287,
2,1,0,1,0,50406.1,0.112162,0.111833,3.56673,26,0.00647276,10,0.000398878,-2.44773,0.233481,0.252697,35.1697,0.111833,
2,1,0,1,0,50406.1,0.113662,0.113334,3.62523,26,0.00660824,10,0.000410863,-2.44066,0.245769,0.240063,33.8939,0.113334,
2,1,0,1,0,50406.2,0.115162,0.114799,3.66853,26,0.00674556,10,0.000421144,-2.43551,0.252919,0.233277,33.4402,0.114799,
2,1,0,1,0,50406.2,0.116658,0.116297,3.72023,26,0.00688439,10,0.000432651,-2.42943,0.254735,0.231613,33.6209,0.116297,
2,1,0,1,0,50406.2,0.118155,0.117829,3.77054,26,0.00702517,10,0.000444279,-2.4236,0.280399,0.210415,30.918,0.117829,
2,1,0,1,0,50406.3,0.119655,0.119292,3.81753,26,0.00716805,10,0.000455401,-2.41822,0.323707,0.182263,27.1059,0.119292,
2,1,0,1,0,50406.3,0.121155,0.120801,3.85395,26,0.00731237,10,0.00046556,-2.41409,0.357897,0.164852,24.7457,0.120801,
2,1,0,1,0,50406.3,0.122651,0.122325,3.88884,26,0.00745766,10,0.000475701,-2.41018,0.386674,0.152583,23.129,0.122325,
2,1,0,1,0,50406.4,0.124147,0.123823,3.92011,26,0.0076042,10,0.0004854,-2.4067,0.454363,0.129852,19.8379,0.123823,
2,1,0,1,0,50406.4,0.12565,0.12529,3.946,26,0.00775271,10,0.000494393,-2.40384,0.510458,0.115583,17.7949,0.12529,
2,1,0,1,0,50406.5,0.127146,0.126837,3.9661,26,0.00790136,10,0.00050305,-2.40164,0.55523,0.106262,16.4733,0.126837,
2,1,0,1,0,50406.5,0.128642,0.128277,3.98721,26,0.00805079,10,0.000511467,-2.39933,0.694255,0.0849832,13.2468,0.128277,
2,1,0,1,0,50406.5,0.130142,0.129808,4.01269,26,0.00820149,10,0.00052088,-2.39656,0.664835,0.0887439,13.8919,0.129808,
2,1,0,1,0,50406.6,0.131642,0.131307,4.03102,26,0.00835297,10,0.000529299,-2.39459,0.873973,0.0675078,10.6009,0.131307,
2,1,0,1,0,50406.6,0.133139,0.132786,4.04981,26,0.00850469,10,0.000537758,-2.39257,1.23818,0.0476506,7.52024,0.132786,
2,1,0,1,0,50406.6,0.134635,0.134251,4.06049,26,0.00865677,10,0.000545124,-2.39142,1.44495,0.0408318,6.46288,0.134251,
2,1,0,1,0,50406.7,0.136135,0.135808,4.07016,26,0.00880975,10,0.000552759,-2.39039,1.76314,0.0334631,5.30527,0.1358076,
2,1,0,1,0,50406.7,0.137635,0.137271,4.07215,26,0.00896301,10,0.000558987,-2.39018,54.7464,0.0010777,0.171051,0.137271,
2,1,0,1,0,50406.8,0.13913,0.138829,4.06567,26,0.00911591,10,0.000564432,-2.39087,-1.60657,-0.0367243,-5.82537,0.138829,
2,1,0,1,0,50406.8,0.140626,0.140282,4.05673,26,0.00926846,10,0.000569087,-2.39182,-0.846812,-0.0696731,-11.0259,0.140282,
2,1,0,1,0,50406.8,0.14213,0.141837,4.03833,26,0.00942124,10,0.000572783,-2.3938,-0.55397,-0.106504,-16.7376,0.141837,
2,1,0,1,0,50406.9,0.143626,0.143317,4.00689,26,0.00957227,10,0.000574254,-2.39719,-0.340212,-0.173421,-27.0042,0.143317,
2,1,0,1,0,50406.9,0.145122,0.144807,3.95889,26,0.00972177,10,0.000573275,-2.40243,-0.23474,-0.251342,-38.6399,0.144807,
2,1,0,1,0,50406.9,0.146622,0.146272,3.88843,26,0.00986947,10,0.000568771,-2.41023,-0.182915,-0.322554,-48.7745,0.146272,
2,1,0,1,0,50407,0.148122,0.147788,3.81099,26,0.0100144,10,0.00056322,-2.41896,-0.152562,-0.386728,-57.3269,0.147788,
2,1,0,1,0,50407,0.149619,0.149272,3.71673,26,0.0101557,10,0.000554803,-2.42984,-0.127603,-0.46237,-66.8454,0.1492717,
2,1,0,1,0,50407.1,0.151115,0.150793,3.60924,26,0.0102933,10,0.000544248,-2.44258,-0.109454,-0.539041,-75.675,0.150793,
2,1,0,1,0,50407.1,0.152615,0.152292,3.48742,26,0.010427,10,0.000531105,-2.4575,-0.0965815,-0.610883,-82.9821,0.152292,
2,1,0,1,0,50407.1,0.154115,0.153749,3.36273,26,0.010556,10,0.000517015,-2.47331,-0.0920692,-0.640822,-84.0628,0.153749,
2,1,0,1,0,50407.2,0.155611,0.155264,3.23582,26,0.0106799,10,0.000502406,-2.49002,-0.0869913,-0.678229,-85.5157,0.155264,
2,1,0,1,0,50407.2,0.157106,0.156793,3.11367,26,0.0107992,10,0.000488202,-2.50673,-0.0840384,-0.70206,-85.0074,0.156793,
2,1,0,1,0,50407.2,0.15861,0.158229,2.98621,26,0.0109142,10,0.000472507,-2.52488,-0.0834392,-0.707101,-82.3459,0.158229,
2,1,0,1,0,50407.3,0.160106,0.159762,2.86418,26,0.0110241,10,0.000457587,-2.543,-0.0875101,-0.674208,-75.5504,0.159762,
2,1,0,1,0,50407.3,0.161602,0.161272,2.7567,26,0.0111297,10,0.000444578,-2.55961,-0.0910375,-0.648085,-69.8471,0.1612715,
2,1,0,1,0,50407.4,0.163102,0.162796,2.65235,26,0.0112317,10,0.000431791,-2.57637,-0.0949986,-0.621062,-64.5473,0.162796,
2,1,0,1,0,50407.4,0.164602,0.164208,2.56338,26,0.0113301,10,0.000420927,-2.59119,-0.102334,-0.576544,-57.8268,0.1642077,
2,1,0,1,0,50407.4,0.166099,0.165747,2.47955,26,0.0114249,10,0.000410977,-2.60563,-0.107857,-0.547021,-53.1264,0.1657466,
2,1,0,1,0,50407.5,0.167595,0.167256,2.40881,26,0.0115168,10,0.000402886,-2.6182,-0.123304,-0.478493,-45.0499,0.167256,
2,1,0,1,0,50407.5,0.169095,0.168745,2.34436,26,0.0116065,10,0.000395599,-2.62998,-0.132215,-0.446243,-40.8177,0.1687451,
2,1,0,1,0,50407.5,0.170595,0.170247,2.28255,26,0.0116937,10,0.000388597,-2.64158,-0.135613,-0.435063,-38.8266,0.1702473,
2,1,0,1,0,50407.6,0.172091,0.171763,2.22687,26,0.0117786,10,0.000382495,-2.6523,-0.145102,-0.40661,-35.432,0.171763,
2,1,0,1,0,50407.6,0.173586,0.173218,2.17748,26,0.0118616,10,0.000377179,-2.66205,-0.166706,-0.353916,-30.1673,0.173218,
2,1,0,1,0,50407.7,0.17509,0.174722,2.13535,26,0.0119433,10,0.000373092,-2.67053,-0.177062,-0.333217,-27.8582,0.174722,
2,1,0,1,0,50407.7,0.176586,0.176257,2.09533,26,0.012023,10,0.000369317,-2.67875,-0.18274,-0.322864,-26.4585,0.176257,
2,1,0,1,0,50407.7,0.178083,0.177743,2.05965,26,0.0121013,10,0.00036609,-2.68621,-0.209067,-0.282207,-22.7628,0.177743,
2,1,0,1,0,50407.8,0.179582,0.17921,2.03421,26,0.0121786,10,0.00036455,-2.6916,-0.238249,-0.24764,-19.6729,0.17921,
2,1,0,1,0,50407.8,0.181082,0.180718,2.00613,26,0.0122548,10,0.000362544,-2.69764,-0.274543,-0.214903,-16.8114,0.180718,
2,1,0,1,0,50407.8,0.182579,0.182251,1.98353,26,0.0123299,10,0.000361499,-2.70256,-0.278448,-0.211889,-16.371,0.1822505,
2,1,0,1,0,50407.9,0.184075,0.183738,1.9563,26,0.0124041,10,0.000359447,-2.70856,-0.289937,-0.203493,-15.553,0.183738,
2,1,0,1,0,50407.9,0.185579,0.185254,1.93345,26,0.0124778,10,0.000358181,-2.71367,-0.35286,-0.167205,-12.6546,0.185254,
2,1,0,1,0,50408,0.187074,0.186721,1.91573,26,0.0125504,10,0.000357707,-2.71767,-0.43725,-0.134934,-10.1154,0.186721,
2,1,0,1,0,50408,0.18857,0.188222,1.90141,26,0.0126224,10,0.000357888,-2.72092,-0.39826,-0.148145,-11.009,0.1882221,
2,1,0,1,0,50408,0.19007,0.189722,1.88759,26,0.012694,10,0.000358118,-2.72409,-0.417763,-0.141228,-10.3901,0.189722,
2,1,0,1,0,50408.1,0.19157,0.191219,1.87111,26,0.0127649,10,0.000357791,-2.7279,-0.453004,-0.130242,-9.5023,0.191219,
2,1,0,1,0,50408.1,0.193066,0.192702,1.85784,26,0.0128352,10,0.00035801,-2.73099,-0.543551,-0.108546,-7.86357,0.192702,
2,1,0,1,0,50408.1,0.194563,0.194232,1.84892,26,0.0129051,10,0.000359118,-2.73308,-0.587178,-0.100481,-7.24135,0.194232,
2,1,0,1,0,50408.2,0.196063,0.195735,1.83781,26,0.0129747,10,0.000359723,-2.7357,-0.524982,-0.112385,-8.04795,0.195735,
2,1,0,1,0,50408.2,0.197563,0.197213,1.82063,26,0.0130439,10,0.000359052,-2.73978,-0.603425,-0.0977753,-6.98096,0.197213,
2,1,0,1,0,50408.3,0.199059,0.198751,1.81535,26,0.0131125,10,0.000360802,-2.74104,-0.77428,-0.0761998,-5.41134,0.198751,
2,1,0,1,0,50408.3,0.200555,0.200231,1.80962,26,0.0131808,10,0.000362343,-2.74241,-0.808674,-0.072959,-5.14482,0.200231,
2,1,0,1,0,50408.3,0.202059,0.20172,1.79972,26,0.0132492,10,0.000363039,-2.7448,-0.66774,-0.0883578,-6.20109,0.20172,
2,1,0,1,0,50408.4,0.203554,0.2032,1.79369,26,0.0133169,10,0.000364478,-2.74625,-0.990392,-0.0595724,-4.15877,0.2032,
2,1,0,1,0,50408.4,0.20505,0.204725,1.785,26,0.0133843,10,0.000365433,-2.74836,-1.59762,-0.03693,-2.57466,0.204725,
2,1,0,1,0,50408.4,0.20655,0.206193,1.77607,26,0.0134516,10,0.000366213,-2.75054,-0.937911,-0.0629058,-4.36573,0.206193,
2,1,0,1,0,50408.5,0.20805,0.207734,1.77408,26,0.0135189,10,0.000368538,-2.75103,-1.09843,-0.0537129,-3.71224,0.207734,
2,1,0,1,0,50408.5,0.209546,0.209223,1.76588,26,0.0135857,10,0.000369464,-2.75304,-0.765822,-0.0770414,-5.32615,0.209223,
2,1,0,1,0,50408.6,0.211043,0.210709,1.75747,26,0.0136522,10,0.000370313,-2.75511,-0.841166,-0.0701408,-4.82867,0.210709,
2,1,0,1,0,50408.6,0.212543,0.212221,1.75511,26,0.0137187,10,0.000372471,-2.7557,-1.62102,-0.0363969,-2.49354,0.212221,
2,1,0,1,0,50408.6,0.214043,0.213735,1.75298,26,0.0137851,10,0.000374673,-2.75622,-1.12522,-0.052434,-3.57892,0.213735,
2,1,0,1,0,50408.7,0.215539,0.215186,1.74627,26,0.013851,10,0.000375774,-2.75789,-0.900945,-0.0654868,-4.4558,0.215186,
2,1,0,1,0,50408.7,0.217035,0.216736,1.73892,26,0.0139167,10,0.000376885,-2.75972,-1.23242,-0.0478734,-3.25284,0.2167358,
2,1,0,1,0,50408.7,0.218538,0.21823,1.73662,26,0.0139826,10,0.000378983,-2.76029,-5.98951,-0.00985056,-0.667263,0.21823,
2,1,0,1,0,50408.8,0.220034,0.219715,1.73508,26,0.0140481,10,0.000381224,-2.76068,-1.50553,-0.0391889,-2.65566,0.219715,
2,1,0,1,0,50408.8,0.22153,0.221231,1.7282,26,0.0141135,10,0.000382332,-2.76241,-1.33315,-0.0442559,-2.98951,0.221231,
2,1,0,1,0,50408.9,0.22303,0.222709,1.72014,26,0.0141788,10,0.000383092,-2.76444,-1.50238,-0.0392709,-2.64037,0.222709,
2,1,0,1,0,50408.9,0.22453,0.224169,1.71896,26,0.014244,10,0.000385338,-2.76473,-1.16791,-0.0505177,-3.39661,0.224169,
2,1,0,1,0,50408.9,0.226026,0.225675,1.71926,26,0.0143088,10,0.000387995,-2.76466,-1.73229,-0.034059,-2.28012,0.225675,
2,1,0,1,0,50409,0.227523,0.22721,1.71583,26,0.0143736,10,0.000389853,-2.76553,-1.24505,-0.0473878,-3.16092,0.22721,
2,1,0,1,0,50409,0.229023,0.22868,1.71106,26,0.0144384,10,0.000391285,-2.76673,-1.37099,-0.0430346,-2.87144,0.22868,
2,1,0,1,0,50409,0.230523,0.230168,1.70643,26,0.014503,10,0.000392766,-2.76791,-2.119,-0.0278433,-1.85773,0.230168,
2,1,0,1,0,50409.1,0.232019,0.23166,1.70185,26,0.0145673,10,0.00039425,-2.76908,-3.54615,-0.0166378,-1.10834,0.23166,
2,1,0,1,0,50409.1,0.233515,0.23321,1.70068,26,0.0146316,10,0.000396616,-2.76938,-1.29827,-0.0454452,-3.02017,0.23321,
2,1,0,1,0,50409.2,0.235018,0.234682,1.70192,26,0.0146962,10,0.000399409,-2.76906,-1.87793,-0.0314176,-2.08511,0.234682,
2,1,0,1,0,50409.2,0.236514,0.236167,1.69306,26,0.0147601,10,0.000399845,-2.77133,-1.93491,-0.0304924,-2.01986,0.236167,
2,1,0,1,0,50409.2,0.23801,0.237695,1.69482,26,0.0148241,10,0.00040285,-2.77088,-21.4266,-0.00275359,-0.181547,0.2376949,
2,1,0,1,0,50409.3,0.23951,0.239206,1.69524,26,0.0148881,10,0.000405511,-2.77077,-2.37605,-0.0248311,-1.63333,0.239206,
2,1,0,1,0,50409.3,0.24101,0.240688,1.69016,26,0.014952,10,0.000406801,-2.77207,-1.66525,-0.0354302,-2.32992,0.240688,
2,1,0,1,0,50409.3,0.242506,0.242181,1.6825,26,0.0150156,10,0.000407469,-2.77404,-1.59126,-0.0370776,-2.44041,0.242181,
2,1,0,1,0,50409.4,0.244003,0.243638,1.67987,26,0.0150791,10,0.00040928,-2.77472,-4.18615,-0.0140941,-0.926382,0.2436377,
2,1,0,1,0,50409.4,0.245503,0.245137,1.68183,26,0.0151428,10,0.000412278,-2.77422,-1.4939,-0.0394939,-2.59402,0.245137,
2,1,0,1,0,50409.5,0.247003,0.24669,1.67962,26,0.0152064,10,0.000414344,-2.77479,-1.27851,-0.0461474,-3.02051,0.2466896,
2,1,0,1,0,50409.5,0.248499,0.248193,1.67297,26,0.0152697,10,0.000415219,-2.77651,-2.09695,-0.0281361,-1.8402,0.248193,
2,1,0,1,0,50409.5,0.249995,0.249647,1.67529,26,0.0153328,10,0.00041823,-2.77591,-2.81431,-0.0209643,-1.36819,0.2496471,
2,1,0,1,0,50409.6,0.251498,0.251185,1.67394,26,0.0153963,10,0.000420469,-2.77626,-7.32875,-0.00805049,-0.524404,0.251185,
2,1,0,1,0,50409.6,0.252994,0.25265,1.67079,26,0.0154593,10,0.000422124,-2.77708,-2.15931,-0.0273235,-1.77634,0.25265,
2,1,0,1,0,50409.6,0.25449,0.254186,1.6636,26,0.0155222,10,0.000422864,-2.77895,-2.18971,-0.0269443,-1.75371,0.254186,
2,1,0,1,0,50409.7,0.25599,0.255629,1.66185,26,0.0155852,10,0.000424817,-2.77941,-5.05689,-0.0116673,-0.759428,0.255629,
2,1,0,1,0,50409.7,0.25749,0.257194,1.65892,26,0.0156481,10,0.000426666,-2.78017,22.6773,0.00260173,0.169,0.257194,
2,1,0,1,0,50409.8,0.258987,0.258682,1.66002,26,0.0157108,10,0.000429416,-2.77989,-3.94678,-0.0149489,-0.968432,0.258682,
2,1,0,1,0,50409.8,0.260483,0.260176,1.65939,26,0.0157735,10,0.000431735,-2.78005,-1.48699,-0.0396775,-2.56728,0.2601763,
2,1,0,1,0,50409.8,0.261983,0.261638,1.65646,26,0.0158362,10,0.000433393,-2.78082,-2.22987,-0.0264589,-1.70801,0.261638,
2,1,0,1,0,50409.9,0.263483,0.263168,1.65422,26,0.0158987,10,0.000435338,-2.78141,-25.265,-0.00233525,-0.150491,0.263168,
2,1,0,1,0,50409.9,0.264978,0.264692,1.65103,26,0.0159611,10,0.000437014,-2.78224,-1.92002,-0.0307288,-1.97998,0.264692,
2,1,0,1,0,50409.9,0.266474,0.266128,1.64857,26,0.0160234,10,0.00043873,-2.78289,-1.86416,-0.0316497,-2.03687,0.266128,
2,1,0,1,0,50410,0.267977,0.267677,1.64205,26,0.0160859,10,0.000439538,-2.78461,-2.0222,-0.0291762,-1.87781,0.267677,
2,1,0,1,0,50410,0.269474,0.269149,1.64175,26,0.0161479,10,0.000441875,-2.78469,-3.29212,-0.0179216,-1.15189,0.269149,
2,1,0,1,0,50410.1,0.27097,0.27063,1.64464,26,0.0162099,10,0.000445088,-2.78393,-2.02629,-0.0291172,-1.86504,0.27063,
2,1,0,1,0,50410.1,0.27247,0.272134,1.64104,26,0.0162721,10,0.000446583,-2.78488,-1.62798,-0.0362413,-2.31573,0.272134,
2,1,0,1,0,50410.1,0.27397,0.273617,1.63775,26,0.0163341,10,0.000448117,-2.78575,-1.80099,-0.0327597,-2.09017,0.273617,
2,1,0,1,0,50410.2,0.275467,0.275128,1.63655,26,0.0163958,10,0.00045026,-2.78607,-1.57303,-0.0375072,-2.39032,0.275128,
2,1,0,1,0,50410.2,0.276963,0.276669,1.63257,26,0.0164574,10,0.00045168,-2.78713,-2.05036,-0.0287754,-1.83467,0.276669,
2,1,0,1,0,50410.2,0.278463,0.278139,1.62884,26,0.0165191,10,0.000453043,-2.78812,-1.85828,-0.0317497,-2.01793,0.278139,
2,1,0,1,0,50410.3,0.279963,0.279651,1.62402,26,0.0165807,10,0.00045416,-2.78941,-2.25803,-0.026129,-1.66023,0.279651,
2,1,0,1,0,50410.3,0.281459,0.281157,1.62158,26,0.016642,10,0.000455917,-2.79006,-3.16602,-0.0186354,-1.18271,0.281157,
2,1,0,1,0,50410.4,0.282954,0.282611,1.62383,26,0.0167033,10,0.000458911,-2.78946,-4.82563,-0.0122264,-0.773199,0.282611,
2,1,0,1,0,50410.4,0.284458,0.284141,1.62446,26,0.0167648,10,0.000461576,-2.78929,-2.41973,-0.0243829,-1.53955,0.284141,
2,1,0,1,0,50410.4,0.285954,0.285594,1.61872,26,0.0168259,10,0.000462297,-2.79083,-1.33104,-0.0443262,-2.79127,0.285594,
2,1,0,1,0,50410.5,0.28745,0.287128,1.61345,26,0.0168868,10,0.000463268,-2.79224,-1.14163,-0.0516806,-3.2501,0.287128,
2,1,0,1,0,50410.5,0.28895,0.288582,1.60748,26,0.0169477,10,0.000463891,-2.79385,-4.16054,-0.0141809,-0.890895,0.288582,
2,1,0,1,0,50410.5,0.29045,0.290087,1.60826,26,0.0170086,10,0.000466534,-2.79364,-3.57517,-0.0165027,-1.0367,0.290087,
2,1,0,1,0,50410.6,0.291947,0.291587,1.60376,26,0.0170693,10,0.000467637,-2.79486,-1.80896,-0.0326154,-2.04482,0.291587,
2,1,0,1,0,50410.6,0.293443,0.293105,1.60016,26,0.0171298,10,0.000469013,-2.79584,-1.43976,-0.0409789,-2.56736,0.293105,
2,1,0,1,0,50410.7,0.294943,0.2946,1.59902,26,0.0171904,10,0.000471071,-2.79615,-2.63608,-0.0223817,-1.39733,0.2945995,
2,1,0,1,0,50410.7,0.296443,0.296139,1.60108,26,0.0172509,10,0.000474143,-2.79559,-1.85713,-0.0317694,-1.97688,0.296139,
2,1,0,1,0,50410.7,0.297939,0.297613,1.59756,26,0.0173112,10,0.000475454,-2.79654,-1.34058,-0.0440108,-2.73405,0.297613,
2,1,0,1,0,50410.8,0.299434,0.299129,1.59396,26,0.0173714,10,0.000476801,-2.79752,-0.0189286,-3.11698,-169.367,0.299129,
2,1,0,0,0,50410.8,0.299962,0.299594,1.52503,26,0.017395,10,0.00045689,-2.81672,0.00117798,50.0857,1646.32,0.299594,
2,1,0,1,0,50410.8,0.298689,0.298392,0.570482,26,0.0174245,10,0.000170227,-3.24376,0.0017397,33.9138,462.761,0.298392,
2,1,0,1,0,50410.8,0.297189,0.296842,0.112464,26,0.0174355,10,3.33841e-05,-3.94899,0.00603549,9.77552,249.444,0.296842,
2,0,0,1,0,50410.9,0.295692,0.295349,-0.12182,26,0.0174342,10,-3.59793e-05,-3.91428,-0.0319258,-1.84803,133.783,0.295349,
2,0,0,1,0,50410.9,0.294196,0.293837,-0.263292,26,0.0174261,10,-7.73648e-05,-3.57956,-0.00509646,-11.5767,79.5708,0.293837,
2,0,0,1,0,50411,0.292696,0.292311,-0.35558,26,0.0174137,10,-0.00010394,-3.44906,-0.0135596,-4.35116,54.386,0.292311,
2,0,0,1,0,50411,0.291196,0.290849,-0.427889,26,0.0173984,10,-0.000124451,-3.36867,-0.0223633,-2.63825,41.6833,0.290849,
2,0,0,1,0,50411,0.2897,0.289378,-0.480742,26,0.0173809,10,-0.000139116,-3.31809,-0.0313925,-1.87943,34.0703,0.2893782,
2,0,0,1,0,50411.1,0.288205,0.287882,-0.522049,26,0.0173615,10,-0.000150288,-3.28229,-0.0444108,-1.32851,26.5371,0.287882,
2,0,0,1,0,50411.1,0.286701,0.286345,-0.554546,26,0.0173405,10,-0.000158791,-3.25606,-0.054729,-1.07804,23.3678,0.286345,
2,0,0,1,0,50411.1,0.285205,0.28492,-0.592299,26,0.0173184,10,-0.000168758,-3.22746,-0.0647888,-0.910651,21.0197,0.28492,
2,0,0,1,0,50411.2,0.283708,0.283366,-0.620608,26,0.017295,10,-0.000175859,-3.20718,-0.0732663,-0.805282,19.5363,0.2833657,
2,0,0,1,0,50411.2,0.282208,0.281868,-0.648651,26,0.0172705,10,-0.000182834,-3.18799,-0.0901168,-0.654706,16.4908,0.281868,
2,0,0,1,0,50411.3,0.280709,0.280405,-0.671696,26,0.0172451,10,-0.000188347,-3.17283,-0.104974,-0.562046,14.7048,0.280405,
2,0,0,1,0,50411.3,0.279212,0.278894,-0.696664,26,0.0172189,10,-0.000194296,-3.15698,-0.11585,-0.509278,13.7564,0.278894,
2,0,0,1,0,50411.3,0.277716,0.277388,-0.718063,26,0.0171919,10,-0.000199182,-3.14384,-0.111115,-0.530979,14.7569,0.277388,
2,0,0,1,0,50411.4,0.276216,0.2759,-0.738918,26,0.0171639,10,-0.000203867,-3.1314,-0.128119,-0.460509,13.1894,0.2759,
2,0,0,1,0,50411.4,0.274716,0.274392,-0.756498,26,0.0171353,10,-0.000207577,-3.12119,-0.152394,-0.387154,11.4039,0.274392,
2,0,0,1,0,50411.4,0.27322,0.272888,-0.767163,26,0.0171061,10,-0.00020935,-3.11511,-0.148997,-0.39598,11.9737,0.272888,
2,0,0,1,0,50411.5,0.271725,0.2714,-0.786995,26,0.0170763,10,-0.000213591,-3.10403,-0.143799,-0.410296,12.6665,0.2714,
2,0,0,1,0,50411.5,0.270221,0.269857,-0.805088,26,0.0170456,10,-0.000217259,-3.09416,-0.170397,-0.346251,10.8954,0.269857,
2,0,0,1,0,50411.6,0.268725,0.26842,-0.823447,26,0.0170144,10,-0.000221029,-3.08436,-0.199179,-0.296216,9.46547,0.26842,
2,0,0,1,0,50411.6,0.267228,0.266912,-0.836624,26,0.0169827,10,-0.000223305,-3.07747,-0.21242,-0.277752,9.04954,0.2669121,
2,0,0,1,0,50411.6,0.265728,0.265411,-0.854452,26,0.0169505,10,-0.000226781,-3.06831,-0.19383,-0.304391,10.0853,0.265411,
2,0,0,1,0,50411.7,0.264228,0.263873,-0.865987,26,0.0169176,10,-0.00022851,-3.06249,-0.209458,-0.281679,9.49787,0.263873,
2,0,0,1,0,50411.7,0.262732,0.262399,-0.877083,26,0.0168843,10,-0.000230146,-3.05696,-0.257549,-0.229083,7.85782,0.262399,
2,0,0,1,0,50411.7,0.261236,0.26086,-0.890182,26,0.0168506,10,-0.000232213,-3.05052,-0.245721,-0.24011,8.3854,0.26086,
2,0,0,1,0,50411.8,0.259736,0.259427,-0.902455,26,0.0168163,10,-0.000234121,-3.04457,-0.243857,-0.241945,8.56898,0.259427,
2,0,0,1,0,50411.8,0.258236,0.257908,-0.919074,26,0.0167816,10,-0.000237037,-3.03665,-0.247788,-0.238106,8.52079,0.257908,
2,0,0,1,0,50411.9,0.256741,0.256401,-0.930491,26,0.0167464,10,-0.000238579,-3.03129,-0.272442,-0.21656,7.83888,0.256401,
2,0,0,1,0,50411.9,0.255241,0.254907,-0.944257,26,0.0167106,10,-0.000240697,-3.02491,-0.274298,-0.215095,7.88486,0.254907,
2,0,0,1,0,50411.9,0.253741,0.253392,-0.952374,26,0.0166745,10,-0.000241324,-3.02119,-0.272938,-0.216167,8.02788,0.2533918,
2,0,0,1,0,50412,0.252245,0.251878,-0.961188,26,0.0166381,10,-0.000242102,-3.01719,-0.257946,-0.22873,8.59154,0.251878,
2,0,0,1,0,50412,0.250748,0.250417,-0.974511,26,0.0166012,10,-0.000244034,-3.01121,-0.300455,-0.196369,7.47072,0.250417,
2,0,0,1,0,50412,0.249248,0.248947,-0.986846,26,0.0165638,10,-0.000245672,-3.00575,-0.351476,-0.167863,6.4627,0.248947,
2,0,0,1,0,50412.1,0.247748,0.247418,-0.993278,26,0.016526,10,-0.000245755,-3.00293,-0.367065,-0.160735,6.26804,0.247418,
2,0,0,1,0,50412.1,0.246252,0.245906,-1.00815,26,0.016488,10,-0.000247911,-2.99647,-0.30689,-0.192251,7.55909,0.245906,
2,0,0,1,0,50412.2,0.244756,0.244394,-1.02209,26,0.0164495,10,-0.000249794,-2.99051,-0.310218,-0.190189,7.53465,0.244394,
2,0,0,1,0,50412.2,0.243252,0.242886,-1.0279,26,0.0164103,10,-0.000249663,-2.98805,-0.451864,-0.13057,5.22296,0.242886,
2,0,0,1,0,50412.2,0.241756,0.241395,-1.03561,26,0.0163711,10,-0.000249991,-2.9848,-0.365821,-0.161281,6.52077,0.241395,
2,0,0,1,0,50412.3,0.240261,0.239929,-1.04623,26,0.0163315,10,-0.000251021,-2.98037,-0.374948,-0.157355,6.43583,0.239929,
2,0,0,1,0,50412.3,0.238761,0.238418,-1.05355,26,0.0162914,10,-0.000251186,-2.97734,-0.332136,-0.177638,7.32789,0.238418,
2,0,0,1,0,50412.3,0.237261,0.236943,-1.0639,26,0.016251,10,-0.000252083,-2.9731,-0.402393,-0.146623,6.09325,0.236943,
2,0,0,1,0,50412.4,0.235765,0.235433,-1.0732,26,0.0162102,10,-0.000252667,-2.96932,-0.476486,-0.123823,5.20713,0.235433,
2,0,0,1,0,50412.4,0.234268,0.233941,-1.08245,26,0.0161692,10,-0.000253231,-2.96559,-0.404244,-0.145951,6.18195,0.233941,
2,0,0,1,0,50412.5,0.232768,0.232413,-1.09796,26,0.0161277,10,-0.00025518,-2.95941,-0.428673,-0.137634,5.86855,0.232413,
2,0,0,1,0,50412.5,0.231268,0.230949,-1.10723,26,0.0160858,10,-0.000255714,-2.95576,-0.445719,-0.13237,5.68948,0.230949,
2,0,0,1,0,50412.5,0.229772,0.229437,-1.11455,26,0.0160437,10,-0.000255718,-2.9529,-0.414065,-0.14249,6.18375,0.229437,
2,0,0,1,0,50412.6,0.228275,0.227923,-1.12177,26,0.0160013,10,-0.000255678,-2.9501,-0.41214,-0.143155,6.27373,0.227923,
2,0,0,1,0,50412.6,0.226772,0.226445,-1.12979,26,0.0159583,10,-0.000255836,-2.947,-0.36451,-0.161861,7.16171,0.2264446,
2,0,0,1,0,50412.6,0.225276,0.224937,-1.13971,26,0.0159152,10,-0.000256362,-2.94321,-0.371258,-0.158919,7.07604,0.224937,
2,0,0,1,0,50412.7,0.223781,0.223457,-1.14733,26,0.0158717,10,-0.00025638,-2.94031,-0.408749,-0.144343,6.48285,0.223457,
2,0,0,1,0,50412.7,0.222281,0.221974,-1.15588,26,0.0158279,10,-0.000256576,-2.93709,-0.401789,-0.146843,6.63062,0.221974,
2,0,0,1,0,50412.8,0.220781,0.220455,-1.16659,26,0.0157837,10,-0.000257181,-2.93308,-0.479521,-0.123039,5.58359,0.220455,
2,0,0,1,0,50412.8,0.219285,0.218958,-1.17883,26,0.0157393,10,-0.000258113,-2.92855,-0.561691,-0.10504,4.81113,0.218958,
2,0,0,1,0,50412.8,0.217788,0.217461,-1.18794,26,0.0156945,10,-0.000258331,-2.92521,-0.430789,-0.136958,6.31312,0.217461,
2,0,0,1,0,50412.9,0.216288,0.215954,-1.19069,26,0.0156493,10,-0.000257135,-2.9242,-0.471077,-0.125245,5.83274,0.215954,
2,0,0,1,0,50412.9,0.214788,0.214423,-1.19722,26,0.0156038,10,-0.000256712,-2.92183,-0.557884,-0.105757,4.96584,0.214423,
2,0,0,1,0,50412.9,0.213292,0.212955,-1.20943,26,0.0155581,10,-0.000257554,-2.91742,-0.376904,-0.156539,7.40213,0.212955,
2,0,0,1,0,50413,0.211796,0.211451,-1.21998,26,0.015512,10,-0.000257966,-2.91365,-0.567372,-0.103988,4.93478,0.211451,
2,0,0,1,0,50413,0.210293,0.20994,-1.22965,26,0.0154653,10,-0.000258153,-2.91022,-0.48222,-0.122351,5.85197,0.20994,
2,0,0,1,0,50413.1,0.208797,0.208421,-1.23921,26,0.0154187,10,-0.000258277,-2.90686,-0.401392,-0.146989,7.10894,0.208421,
2,0,0,1,0,50413.1,0.207301,0.207009,-1.24826,26,0.0153716,10,-0.0002584,-2.9037,-0.409037,-0.144241,6.99863,0.207009,
2,0,0,1,0,50413.1,0.205801,0.205474,-1.2565,26,0.015324,10,-0.000258177,-2.90084,-0.454978,-0.129677,6.34666,0.205474,
2,0,0,1,0,50413.2,0.204301,0.20396,-1.26245,26,0.015276,10,-0.000257489,-2.89879,-0.671067,-0.0879197,4.33902,0.20396,
2,0,0,1,0,50413.2,0.202804,0.202482,-1.27095,26,0.015228,10,-0.000257345,-2.89587,-0.587944,-0.10035,4.99688,0.202482,
2,0,0,1,0,50413.2,0.201308,0.200964,-1.2784,26,0.0151796,10,-0.000256913,-2.89333,-0.457831,-0.128868,6.4431,0.200964,
2,0,0,1,0,50413.3,0.199808,0.19948,-1.28903,26,0.0151308,10,-0.000257136,-2.88974,-0.510584,-0.115554,5.82287,0.19948,
2,0,0,1,0,50413.3,0.198308,0.197965,-1.29985,26,0.0150815,10,-0.000257326,-2.88611,-0.50698,-0.116375,5.89591,0.197965,
2,0,0,1,0,50413.4,0.196812,0.196455,-1.30864,26,0.0150321,10,-0.000257088,-2.88318,-0.478372,-0.123335,6.28913,0.196455,
2,0,0,1,0,50413.4,0.195316,0.195002,-1.31929,26,0.0149824,10,-0.000257265,-2.87966,-0.385795,-0.152931,7.85872,0.195002,
2,0,0,1,0,50413.4,0.193813,0.193442,-1.32951,26,0.014932,10,-0.000257183,-2.87631,-0.41064,-0.143678,7.45356,0.193442,
2,0,0,1,0,50413.5,0.192317,0.19196,-1.3376,26,0.0148814,10,-0.000256765,-2.87367,-0.482433,-0.122297,6.38029,0.19196,
2,0,0,1,0,50413.5,0.190821,0.190498,-1.34382,26,0.0148305,10,-0.000255995,-2.87166,-0.460753,-0.128051,6.74957,0.190498,
2,0,0,1,0,50413.5,0.189321,0.188961,-1.35608,26,0.0147792,10,-0.000256246,-2.86771,-0.452885,-0.130276,6.91836,0.188961,
2,0,0,1,0,50413.6,0.187821,0.187459,-1.36857,26,0.0147275,10,-0.00025655,-2.86373,-0.415953,-0.141843,7.56897,0.187459,
2,0,0,1,0,50413.6,0.186324,0.18597,-1.38087,26,0.0146754,10,-0.000256801,-2.85985,-0.483315,-0.122074,6.54987,0.18597,
2,0,0,1,0,50413.7,0.184828,0.184507,-1.39266,26,0.014623,10,-0.000256956,-2.85615,-0.497251,-0.118652,6.42781,0.184507,
2,0,0,1,0,50413.7,0.183328,0.183036,-1.40234,26,0.0145702,10,-0.000256679,-2.85315,-0.417211,-0.141415,7.73681,0.183036,
2,0,0,1,0,50413.7,0.181828,0.181543,-1.40807,26,0.0145169,10,-0.000255624,-2.85138,-0.387631,-0.152207,8.37462,0.181543,
2,0,0,1,0,50413.8,0.180332,0.180014,-1.42399,26,0.0144632,10,-0.000256337,-2.84649,-0.360462,-0.163679,9.09656,0.180014,
2,0,0,1,0,50413.8,0.178836,0.178486,-1.43307,26,0.014409,10,-0.000255783,-2.84373,-0.354169,-0.166587,9.35679,0.178486,
2,0,0,1,0,50413.8,0.177333,0.176995,-1.44482,26,0.0143542,10,-0.000255727,-2.84019,-0.402584,-0.146553,8.29615,0.176995,
2,0,0,1,0,50413.9,0.175837,0.175469,-1.46286,26,0.0142992,10,-0.000256686,-2.8348,-0.341933,-0.172548,9.82088,0.175469,
2,0,0,1,0,50413.9,0.174341,0.173996,-1.47752,26,0.0142437,10,-0.000257082,-2.83047,-0.335611,-0.175799,10.1092,0.173996,
2,0,0,1,0,50414,0.172841,0.17253,-1.49138,26,0.0141875,10,-0.000257307,-2.82641,-0.37579,-0.157003,9.10931,0.17253,
2,0,0,1,0,50414,0.171341,0.171007,-1.49692,26,0.0141307,10,-0.000255985,-2.8248,-0.396037,-0.148976,8.73849,0.171007,
2,0,0,1,0,50414,0.169844,0.169536,-1.51794,26,0.0140737,10,-0.000257346,-2.81874,-0.300239,-0.19651,11.665,0.169536,
2,0,0,1,0,50414.1,0.168348,0.168028,-1.53633,26,0.014016,10,-0.000258145,-2.81352,-0.296379,-0.19907,11.9364,0.168028,
2,0,0,1,0,50414.1,0.166848,0.16654,-1.55026,26,0.0139574,10,-0.00025818,-2.80959,-0.2971,-0.198587,12.0381,0.16654,
2,0,0,1,0,50414.1,0.165348,0.165057,-1.56793,26,0.0138981,10,-0.000258798,-2.80467,-0.295943,-0.199363,12.2337,0.165057,
2,0,0,1,0,50414.2,0.163852,0.1635,-1.58955,26,0.0138385,10,-0.000259891,-2.79873,-0.264343,-0.223195,13.857,0.1635,
2,0,0,1,0,50414.2,0.162357,0.161998,-1.6132,26,0.013778,10,-0.000261336,-2.79231,-0.241366,-0.244442,15.3644,0.1619985,
2,0,0,1,0,50414.3,0.160853,0.160518,-1.63459,26,0.0137163,10,-0.000262382,-2.78659,-0.241055,-0.244757,15.5889,0.160518,
2,0,0,1,0,50414.3,0.159357,0.159009,-1.65817,26,0.0136541,10,-0.000263664,-2.78037,-0.251031,-0.23503,15.1917,0.159009,
2,0,0,1,0,50414.3,0.157861,0.157541,-1.67923,26,0.0135911,10,-0.000264547,-2.77489,-0.217835,-0.270847,17.8318,0.157541,
2,0,0,1,0,50414.4,0.156361,0.156031,-1.70902,26,0.0135268,10,-0.00026666,-2.76725,-0.189522,-0.31131,20.8305,0.1560306,
2,0,0,1,0,50414.4,0.154861,0.154532,-1.74268,26,0.0134613,10,-0.000269299,-2.75878,-0.183102,-0.322225,21.9617,0.154532,
2,0,0,1,0,50414.4,0.153364,0.153025,-1.77495,26,0.0133947,10,-0.000271611,-2.75081,-0.177415,-0.332553,23.1387,0.153025,
2,0,0,1,0,50414.5,0.151868,0.151483,-1.81562,26,0.013327,10,-0.000275036,-2.74097,-0.162965,-0.36204,25.655,0.1514831,
2,0,0,1,0,50414.5,0.150368,0.150046,-1.85741,26,0.0132575,10,-0.000278697,-2.73109,-0.137641,-0.428652,31.0082,0.150046,
2,0,0,1,0,50414.6,0.148868,0.148531,-1.90349,26,0.0131864,10,-0.000282727,-2.72045,-0.135755,-0.434606,32.2834,0.148531,
2,0,0,1,0,50414.6,0.147372,0.147065,-1.95219,26,0.0131136,10,-0.000287097,-2.70948,-0.128519,-0.459075,34.9986,0.147065,
2,0,0,1,0,50414.6,0.145877,0.145497,-2.00159,26,0.013039,10,-0.000291224,-2.69863,-0.114759,-0.51412,40.4019,0.145497,
2,0,0,1,0,50414.7,0.144373,0.144062,-2.07135,26,0.0129617,10,-0.000298403,-2.68375,-0.109158,-0.540501,43.8521,0.1440617,
2,0,0,1,0,50414.7,0.142877,0.142543,-2.14001,26,0.0128823,10,-0.000305044,-2.66958,-0.101959,-0.578665,48.5103,0.142543,
2,0,0,1,0,50414.7,0.14138,0.141027,-2.21501,26,0.0128001,10,-0.000312377,-2.65462,-0.0974263,-0.605586,52.3785,0.141027,
2,0,0,1,0,50414.8,0.13988,0.139563,-2.30116,26,0.0127148,10,-0.000321157,-2.63805,-0.0961955,-0.613334,55.0671,0.139563,
2,0,0,1,0,50414.8,0.13838,0.137991,-2.38301,26,0.0126265,10,-0.000328835,-2.62287,-0.0921074,-0.640556,59.6022,0.137991,
2,0,0,1,0,50414.9,0.136884,0.136506,-2.4789,26,0.012535,10,-0.000338384,-2.60574,-0.0905479,-0.651589,62.9285,0.136506,
2,0,0,1,0,50414.9,0.135388,0.135056,-2.57036,26,0.0124399,10,-0.000347143,-2.59001,-0.0907997,-0.649782,65.1745,0.135056,
2,0,0,1,0,50414.9,0.133888,0.13355,-2.66995,26,0.0123408,10,-0.000356573,-2.5735,-0.0927695,-0.635985,66.3215,0.13355,
2,0,0,1,0,50415,0.132389,0.132014,-2.76596,26,0.0122382,10,-0.000365146,-2.55815,-0.0940074,-0.62761,67.9326,0.1320142,
2,0,0,1,0,50415,0.130893,0.130554,-2.87175,26,0.012132,10,-0.000374919,-2.54185,-0.0954463,-0.618149,69.2655,0.1305542,
2,0,0,1,0,50415,0.129393,0.129073,-2.97714,26,0.0120216,10,-0.000384267,-2.5262,-0.100796,-0.585341,67.872,0.129073,
2,0,0,1,0,50415.1,0.127893,0.127541,-3.07983,26,0.0119074,10,-0.000392804,-2.51147,-0.10851,-0.543731,65.1378,0.1275408,
2,0,0,1,0,50415.1,0.126397,0.126118,-3.17125,26,0.0117898,10,-0.000399953,-2.49877,-0.115728,-0.509815,63.0019,0.126118,
2,0,0,1,0,50415.2,0.1249,0.124591,-3.26969,26,0.0116687,10,-0.000407375,-2.48549,-0.118849,-0.496429,63.2064,0.124591,
2,0,0,1,0,50415.2,0.1234,0.123064,-3.35822,26,0.0115437,10,-0.000413275,-2.47389,-0.129748,-0.454727,59.5429,0.123064,
2,0,0,1,0,50415.2,0.1219,0.121544,-3.44445,26,0.0114154,10,-0.000418653,-2.46288,-0.144381,-0.408642,54.8839,0.121544,
2,0,0,1,0,50415.3,0.120404,0.120061,-3.52422,26,0.0112843,10,-0.000423121,-2.45294,-0.154467,-0.38196,52.5444,0.120061,
2,0,0,1,0,50415.3,0.118908,0.118581,-3.60397,26,0.0111503,10,-0.000427363,-2.44322,-0.163637,-0.360555,50.6996,0.118581,
2,0,0,1,0,50415.3,0.117404,0.117027,-3.68641,26,0.0110125,10,-0.00043141,-2.4334,-0.173302,-0.340446,48.8316,0.117027,
2,0,0,1,0,50415.4,0.115908,0.115549,-3.75518,26,0.0108728,10,-0.000433907,-2.42537,-0.197394,-0.298895,43.6406,0.115549,
2,0,0,1,0,50415.4,0.114413,0.114062,-3.81853,26,0.0107305,10,-0.00043555,-2.4181,-0.225561,-0.26157,38.8425,0.114062,
2,0,0,1,0,50415.5,0.112913,0.112594,-3.86923,26,0.0105858,10,-0.000435653,-2.41238,-0.24914,-0.236815,35.737,0.1125944,
2,0,0,1,0,50415.5,0.111413,0.111075,-3.91938,26,0.0104391,10,-0.000435347,-2.40678,-0.280615,-0.210252,32.1099,0.111075,
2,0,0,1,0,50415.5,0.109917,0.109558,-3.96554,26,0.0102909,10,-0.000434456,-2.4017,-0.330184,-0.178688,27.6211,0.109558,
2,0,0,1,0,50415.6,0.10842,0.108095,-3.99957,26,0.0101412,10,-0.000432333,-2.39799,-0.402556,-0.146563,22.8578,0.108095,
2,0,0,1,0,50415.6,0.10692,0.106613,-4.0317,26,0.00998985,10,-0.000429831,-2.39451,-0.564949,-0.104434,16.4126,0.1066127,
2,0,0,1,0,50415.6,0.10542,0.10511,-4.05579,26,0.00983754,10,-0.000426302,-2.39192,-0.664899,-0.0887353,14.0135,0.10511,
2,0,0,1,0,50415.7,0.103924,0.103553,-4.0731,26,0.00968485,10,-0.000421783,-2.39007,-1.17561,-0.0501867,7.95328,0.103553,
2,0,0,1,0,50415.7,0.102427,0.102079,-4.08115,26,0.00953169,10,-0.000416599,-2.38922,-3.54793,-0.0166294,2.64315,0.102079,
2,0,0,1,0,50415.8,0.100924,0.100608,-4.07782,26,0.00937765,10,-0.000410262,-2.38957,5.6414,0.0104584,-1.66343,0.100608,
2,0,0,1,0,50415.8,0.0994284,0.0990613,-4.07221,26,0.00922452,10,-0.000403399,-2.39017,2.33462,0.0252718,-4.01631,0.0990613,
2,0,0,1,0,50415.8,0.0979329,0.0975786,-4.06018,26,0.00907164,10,-0.000396187,-2.39145,1.28062,0.0460714,-7.30408,0.0975786,
2,0,0,1,0,50415.9,0.0964329,0.0960673,-4.05072,26,0.00891886,10,-0.000389141,-2.39247,0.735656,0.0802006,-12.6583,0.0960673,
2,0,0,1,0,50415.9,0.094933,0.094591,-4.02974,26,0.00876671,10,-0.000381177,-2.39472,0.648897,0.0909235,-14.2833,0.094591,
2,0,0,1,0,50415.9,0.0934366,0.0931158,-4.00847,26,0.00861587,10,-0.000373252,-2.39702,0.593677,0.0993806,-15.5306,0.0931158,
2,0,0,1,0,50416,0.0919401,0.0915953,-3.98522,26,0.00846586,10,-0.000365027,-2.39955,0.54807,0.107651,-16.7044,0.0915953,
2,0,0,1,0,50416,0.0904402,0.090055,-3.95814,26,0.00831631,10,-0.00035645,-2.40251,0.491454,0.120052,-18.5111,0.090055,
2,0,0,1,0,50416.1,0.0889402,0.0885996,-3.92993,26,0.00816782,10,-0.00034819,-2.40561,0.486519,0.12127,-18.595,0.0885996,
2,0,0,1,0,50416.1,0.0874438,0.0870787,-3.89709,26,0.00802084,10,-0.000339354,-2.40926,0.483981,0.121906,-18.5682,0.0870787,
2,0,0,1,0,50416.1,0.0859483,0.0856174,-3.87313,26,0.00787477,10,-0.000331607,-2.41194,0.586482,0.1006,-15.2229,0.0856174,
2,0,0,1,0,50416.2,0.0844447,0.0841209,-3.84903,26,0.00772889,10,-0.000323784,-2.41465,0.529639,0.111397,-16.7453,0.0841209,
2,0,0,1,0,50416.2,0.0829492,0.0826358,-3.82655,26,0.00758468,10,-0.00031621,-2.41719,0.578443,0.101998,-15.2384,0.0826358,
2,0,0,1,0,50416.2,0.0814528,0.0811116,-3.80136,26,0.00744143,10,-0.000308334,-2.42006,0.608357,0.0969825,-14.3914,0.0811116,
2,0,0,1,0,50416.3,0.0799528,0.0796227,-3.7847,26,0.00729854,10,-0.000301348,-2.42197,0.738725,0.0798673,-11.7889,0.0796227,
2,0,0,1,0,50416.3,0.0784529,0.078097,-3.7677,26,0.00715637,10,-0.000294246,-2.42392,0.688519,0.0856912,-12.589,0.078097,
2,0,0,1,0,50416.4,0.0769565,0.0766335,-3.74511,26,0.00701527,10,-0.000287001,-2.42653,0.704969,0.0836916,-12.2375,0.07663355,
2,0,0,1,0,50416.4,0.07546,0.075149,-3.72104,26,0.00687491,10,-0.000279633,-2.42934,0.67976,0.0867954,-12.6332,0.075149,
2,0,0,1,0,50416.4,0.0739601,0.0735469,-3.70771,26,0.00673486,10,-0.000272691,-2.43089,0.799357,0.0738093,-10.6992,0.0735469,
2,0,0,1,0,50416.5,0.0724601,0.0721163,-3.69193,26,0.0065954,10,-0.000266248,-2.43275,0.828523,0.0712111,-10.26,0.07211633,
2,0,0,1,0,50416.5,0.0709637,0.0705878,-3.67962,26,0.00645689,10,-0.000259736,-2.4342,0.737104,0.080043,-11.4801,0.0705878,
2,0,0,1,0,50416.5,0.0694682,0.0691048,-3.66254,26,0.00631898,10,-0.000253099,-2.43622,0.820043,0.0719475,-10.2711,0.0691048,
2,0,0,1,0,50416.6,0.0679646,0.0676042,-3.64355,26,0.00618113,10,-0.000246319,-2.43848,0.780098,0.0756315,-10.7629,0.0676042,
2,0,0,1,0,50416.6,0.0664691,0.066157,-3.62645,26,0.00604451,10,-0.000239915,-2.44052,0.83291,0.070836,-10.0276,0.066157,
2,0,0,1,0,50416.7,0.0649727,0.0646182,-3.61048,26,0.00590844,10,-0.000233303,-2.44244,0.691677,0.0852999,-12.0213,0.0646182,
2,0,0,1,0,50416.7,0.0634727,0.0630943,-3.59254,26,0.00577263,10,-0.000226669,-2.4446,0.677897,0.0870339,-12.2101,0.0630943,
2,0,0,1,0,50416.7,0.0619728,0.0616265,-3.57198,26,0.0056376,10,-0.000220128,-2.44709,0.682784,0.0864109,-12.0681,0.0616265,
2,0,0,1,0,50416.8,0.0604764,0.0601413,-3.55406,26,0.00550359,10,-0.000213746,-2.44927,0.672181,0.0877739,-12.1813,0.06014125,
2,0,0,1,0,50416.8,0.05898,0.0585911,-3.53838,26,0.00537024,10,-0.000207318,-2.4512,0.662002,0.0891237,-12.3048,0.0585911,
2,0,0,1,0,50416.8,0.05748,0.0571434,-3.51927,26,0.00523723,10,-0.000201103,-2.45355,0.614032,0.0960862,-13.1892,0.0571434,
2,0,0,1,0,50416.9,0.05598,0.0556208,-3.49713,26,0.00510502,10,-0.000194513,-2.45629,0.604059,0.0976726,-13.3391,0.0556208,
2,0,0,1,0,50416.9,0.0544836,0.0541591,-3.478,26,0.00497393,10,-0.000188365,-2.45867,0.708053,0.0833271,-11.3192,0.0541591,
2,0,0,1,0,50417,0.0529881,0.0526142,-3.46014,26,0.00484346,10,-0.000182053,-2.46091,0.72475,0.0814074,-10.9972,0.0526142,
2,0,0,1,0,50417,0.0514846,0.05116,-3.4383,26,0.00471296,10,-0.000175904,-2.46366,0.567401,0.103983,-13.9642,0.05116,
2,0,0,1,0,50417,0.049989,0.0496751,-3.41253,26,0.004584,10,-0.000169518,-2.46692,0.487238,0.121091,-16.1676,0.0496751,
2,0,0,1,0,50417.1,0.0484926,0.0481612,-3.40158,26,0.0044559,10,-0.000163824,-2.46832,0.516894,0.114143,-15.1425,0.0481612,
2,0,0,1,0,50417.1,0.0469927,0.0466745,-3.37837,26,0.0043282,10,-0.000157684,-2.47129,0.580644,0.101611,-13.3822,0.0466745,
2,0,0,1,0,50417.1,0.0454927,0.0451717,-3.358,26,0.00420126,10,-0.000151687,-2.47392,0.498786,0.118287,-15.4781,0.0451717,
2,0,0,1,0,50417.2,0.0439963,0.0436384,-3.33446,26,0.00407545,10,-0.000145511,-2.47697,0.560863,0.105195,-13.687,0.04363839,
2,0,0,1,0,50417.2,0.0424999,0.0421872,-3.31152,26,0.00395055,10,-0.000139704,-2.47997,0.529942,0.111333,-14.4045,0.0421872,
2,0,0,1,0,50417.3,0.0409999,0.0406135,-3.28784,26,0.00382609,10,-0.000133531,-2.48309,0.515361,0.114483,-14.711,0.0406135,
2,0,0,1,0,50417.3,0.0394999,0.0391115,-3.26813,26,0.00370242,10,-0.000127821,-2.4857,0.520554,0.113341,-14.4653,0.0391115,
2,0,0,1,0,50417.3,0.0380044,0.037648,-3.24419,26,0.00357997,10,-0.000122138,-2.48889,0.463493,0.127294,-16.1264,0.037648,
2,0,0,1,0,50417.4,0.0365089,0.0361199,-3.21867,26,0.00345854,10,-0.000116258,-2.49232,0.453566,0.13008,-16.3343,0.03611986,
2,0,0,1,0,50417.4,0.0350054,0.0346553,-3.19315,26,0.00333739,10,-0.000110659,-2.49578,0.481902,0.122432,-15.2429,0.0346553,
2,0,0,1,0,50417.4,0.0335089,0.0331637,-3.17068,26,0.00321773,10,-0.000105152,-2.49885,0.444764,0.132655,-16.3821,0.0331637,
2,0,0,1,0,50417.5,0.0320125,0.031647,-3.14563,26,0.00309899,10,-9.95497e-05,-2.50229,0.386523,0.152643,-18.7145,0.031647,
2,0,0,1,0,50417.5,0.0305126,0.0301963,-3.11426,26,0.00298097,10,-9.40392e-05,-2.50664,0.402478,0.146592,-17.8467,0.0301963,
2,0,0,1,0,50417.6,0.0290126,0.028653,-3.08918,26,0.00286397,10,-8.85143e-05,-2.51016,0.430453,0.137065,-16.5538,0.028653,
2,0,0,1,0,50417.6,0.0275162,0.0271873,-3.06732,26,0.00274813,10,-8.33923e-05,-2.51324,0.417098,0.141454,-16.9455,0.02718734,
2,0,0,1,0,50417.6,0.0260198,0.0256944,-3.04071,26,0.0026332,10,-7.81293e-05,-2.51703,0.397912,0.148274,-17.6037,0.0256944,
2,0,0,1,0,50417.7,0.0245198,0.0241945,-3.01629,26,0.0025189,10,-7.29777e-05,-2.52053,0.431287,0.1368,-16.1054,0.0241945,
2,0,0,1,0,50417.7,0.0230198,0.0226636,-2.99483,26,0.00240564,10,-6.78737e-05,-2.52363,0.430923,0.136915,-15.994,0.0226636,
2,0,0,1,0,50417.7,0.0215243,0.0211745,-2.97458,26,0.00229347,10,-6.29853e-05,-2.52657,0.489803,0.120457,-13.9521,0.0211745,
2,0,0,1,0,50417.8,0.0200288,0.0196472,-2.95141,26,0.00218207,10,-5.79868e-05,-2.52997,0.453739,0.130031,-14.948,0.0196472,
2,0,0,1,0,50417.8,0.0185253,0.0182011,-2.92619,26,0.00207096,10,-5.32599e-05,-2.5337,0.42595,0.138514,-15.832,0.0182011,
2,0,0,1,0,50417.9,0.0170289,0.0166677,-2.90465,26,0.00196133,10,-4.84137e-05,-2.53691,0.506888,0.116397,-13.2178,0.0166677,
2,0,0,1,0,50417.9,0.0155325,0.0152025,-2.88148,26,0.00185241,10,-4.38059e-05,-2.54038,0.550027,0.107267,-12.0993,0.0152025,
2,0,0,1,0,50417.9,0.0140325,0.0136705,-2.86676,26,0.0017438,10,-3.91901e-05,-2.54261,0.551322,0.107015,-11.9801,0.0136705,
2,0,0,1,0,50418,0.0125325,0.0121803,-2.84917,26,0.00163591,10,-3.47037e-05,-2.54528,0.49853,0.118348,-13.1677,0.0121803,
2,0,0,1,0,50418,0.0110361,0.0106857,-2.83528,26,0.001529,10,-3.02969e-05,-2.5474,0.582257,0.10133,-11.201,0.0106857,
2,0,0,1,0,50418,0.0095397,0.00915511,-2.82146,26,0.00142267,10,-2.58308e-05,-2.54953,0.727787,0.0810677,-8.91006,0.00915511,
2,0,0,1,0,50418.1,0.00803616,0.00769936,-2.80962,26,0.00131625,10,-2.16323e-05,-2.55135,0.748998,0.0787719,-8.62827,0.00769936,
2,0,0,1,0,50418.1,0.00654064,0.00621191,-2.79225,26,0.00121086,10,-1.73452e-05,-2.55405,0.820604,0.0718983,-7.84359,0.00621191,
2,0,0,1,0,50418.2,0.00504513,0.00473179,-2.778,26,0.00110596,10,-1.31449e-05,-2.55627,0.957715,0.061605,-6.69702,0.004731793,
2,0,0,1,0,50418.2,0.00354515,0.00322257,-2.77033,26,0.00100119,10,-8.9276e-06,-2.55747,-7.36223,-0.00801387,0.871173,0.00322257,
2,0,0,1,0,50418.2,0.00204518,0.00160948,-2.79664,26,0.000896494,10,-4.50115e-06,-2.55336,2.50946,0.0235111,-2.53989,0.00160948,
2,0,0,1,0,50418.3,0.000548773,0.000172481,-2.77201,26,0.000791792,10,-4.78118e-07,-2.5572, , , ,0.000172481,
2,0,0,1,0,50418.3,0.000177222,-0.000242103,-2.76309,26,0.000765868,10,6.68951e-07,-2.55861, , , ,-0.000242103,