File: Figure_codes/Fig_3-5/rawdata_trumpetplot_data/after 10th/20221101_1-115_003_TrumpetPlot_ParaChange_from10_every3_13_CV_C01_1.csv
mode,ox/red,error,control changes,counter inc.,time/s,control/V,Ewe/V,<I>/mA,cycle number,(Q-Qo)/C,I Range,P/W,log(|I|),Tafel slope mV/dec,alpha_eff,dI/d(E-IR),E-IR/V,
2,1,0,1,0,3167.99,2.44065e-05,-0.000229887,27.3937,2,0.0000000E+000,10,-6.29746e-06,-1.56235, , , ,-0.000229887,
2,1,0,1,0,3167.99,0.00266289,0.00227797,28.6972,2,8.73967e-05,10,6.53714e-05,-1.54216, , , ,0.00227797,
2,1,0,1,0,3167.99,0.00586735,0.00553766,29.8631,2,0.000204742,10,0.000165372,-1.52487, , , ,0.00553766,
2,1,0,1,0,3168,0.00906349,0.00872737,30.8343,2,0.000326243,10,0.000269102,-1.51097,0.241521,0.244285,291.038,0.00872737,
2,1,0,1,0,3168,0.0122624,0.0119054,31.6735,2,0.000451379,10,0.000377086,-1.4993,0.287631,0.205124,251.738,0.0119054,
2,1,0,1,0,3168.01,0.0154641,0.0151174,32.4339,2,0.000579704,10,0.000490316,-1.489,0.332088,0.177664,223.566,0.0151174,
2,1,0,1,0,3168.01,0.0186602,0.0183336,33.0843,2,0.000710828,10,0.000606554,-1.48038,0.378723,0.155787,200.27,0.01833359,
2,1,0,1,0,3168.01,0.0218675,0.0215244,33.6952,2,0.000844456,10,0.000725268,-1.47243,0.427176,0.138116,180.986,0.0215244,
2,1,0,1,0,3168.02,0.0250636,0.0247172,34.2393,2,0.00098041,10,0.000846301,-1.46547,0.471252,0.125198,166.821,0.0247172,
2,1,0,1,0,3168.02,0.0282597,0.02789,34.7456,2,0.00111845,10,0.000969053,-1.4591,0.520903,0.113265,153.243,0.02789,
2,1,0,1,0,3168.03,0.031467,0.0311465,35.2217,2,0.00125849,10,0.00109703,-1.45319,0.563135,0.104771,143.74,0.0311465,
2,1,0,1,0,3168.03,0.0346631,0.034333,35.6581,2,0.00140028,10,0.00122425,-1.44784,0.595974,0.0989976,137.624,0.034333,
2,1,0,1,0,3168.03,0.0378703,0.0375577,36.085,2,0.00154382,10,0.00135527,-1.44267,0.628173,0.0939231,132.177,0.0375577,
2,1,0,1,0,3168.04,0.0410665,0.0407188,36.5111,2,0.00168902,10,0.00148669,-1.43757,0.640316,0.092142,131.225,0.0407188,
2,1,0,1,0,3168.04,0.0442626,0.0439223,36.9104,2,0.0018359,10,0.00162119,-1.43285,0.660183,0.0893692,128.704,0.0439223,
2,1,0,1,0,3168.05,0.0474671,0.0471363,37.3382,2,0.00198443,10,0.00175999,-1.42785,0.667093,0.0884435,128.844,0.0471363,
2,1,0,1,0,3168.05,0.0506632,0.0503356,37.7296,2,0.00213461,10,0.00189914,-1.42332,0.655721,0.0899774,132.572,0.0503356,
2,1,0,1,0,3168.05,0.0538621,0.0534945,38.1572,2,0.00228641,10,0.0020412,-1.41842,0.644985,0.091475,136.382,0.0534945,
2,1,0,1,0,3168.06,0.0570638,0.0567341,38.6089,2,0.00244001,10,0.00219044,-1.41331,0.619132,0.0952947,143.713,0.0567341,
2,1,0,1,0,3168.06,0.06026,0.0599079,39.08,2,0.00259543,10,0.0023412,-1.40805,0.604369,0.0976224,148.984,0.0599079,
2,1,0,1,0,3168.07,0.0634672,0.0631389,39.5696,2,0.00275279,10,0.00249838,-1.40264,0.587127,0.100489,155.268,0.0631389,
2,1,0,1,0,3168.07,0.0666633,0.0663138,40.0671,2,0.0029121,10,0.002657,-1.39721,0.568709,0.103744,162.407,0.0663138,
2,1,0,1,0,3168.07,0.0698595,0.069494,40.5901,2,0.00307347,10,0.00282077,-1.39158,0.550914,0.107095,169.873,0.069494,
2,1,0,1,0,3168.08,0.0730667,0.0727335,41.163,2,0.00323705,10,0.00299393,-1.38549,0.527873,0.111769,179.732,0.0727335,
2,1,0,1,0,3168.08,0.0762628,0.0758988,41.7372,2,0.00340292,10,0.0031678,-1.37948,0.519045,0.11367,185.286,0.0758988,
2,1,0,1,0,3168.09,0.0794701,0.0790843,42.3623,2,0.00357116,10,0.00335019,-1.37302,0.506233,0.116547,192.765,0.07908427,
2,1,0,1,0,3168.09,0.0826662,0.0823185,42.9663,2,0.00374188,10,0.00353692,-1.36687,0.488563,0.120762,202.745,0.0823185,
2,1,0,1,0,3168.09,0.0858624,0.085486,43.6212,2,0.00391511,10,0.003729,-1.3603,0.479506,0.123043,209.793,0.08548595,
2,1,0,1,0,3168.1,0.0890668,0.0886672,44.3259,2,0.00409104,10,0.00393025,-1.35334,0.467256,0.126269,218.56,0.0886672,
2,1,0,1,0,3168.1,0.092263,0.09186,45.0426,2,0.00426985,10,0.00413762,-1.34638,0.46801,0.126066,221.555,0.09186,
2,1,0,1,0,3168.11,0.0954674,0.0951293,45.7662,2,0.00445153,10,0.00435371,-1.33945,0.470709,0.125343,223.783,0.0951293,
2,1,0,1,0,3168.11,0.0986636,0.0983572,46.4729,2,0.00463607,10,0.00457094,-1.3328,0.474224,0.124414,225.661,0.0983572,
2,1,0,1,0,3168.11,0.10186,0.101503,47.1984,2,0.00482351,10,0.0047908,-1.32607,0.470427,0.125418,231.142,0.101503,
2,1,0,1,0,3168.12,0.105067,0.104693,47.9385,2,0.00501384,10,0.00501883,-1.31932,0.456776,0.129166,241.93,0.104693,
2,1,0,1,0,3168.12,0.108263,0.107868,48.7107,2,0.00520719,10,0.00525432,-1.31238,0.453269,0.130166,247.711,0.107868,
2,1,0,1,0,3168.13,0.111465,0.111059,49.5458,2,0.0054038,10,0.00550249,-1.30499,0.450733,0.130898,253.095,0.1110587,
2,1,0,1,0,3168.13,0.114666,0.114269,50.3605,2,0.0056037,10,0.00575462,-1.29791,0.449862,0.131151,257.69,0.114269,
2,1,0,1,0,3168.13,0.117863,0.117517,51.1841,2,0.00580687,10,0.00601498,-1.29086,0.457294,0.12902,257.706,0.117517,
2,1,0,1,0,3168.14,0.12107,0.120698,52.0168,2,0.00601335,10,0.00627831,-1.28386,0.461417,0.127867,259.527,0.1206978,
2,1,0,1,0,3168.14,0.124266,0.123884,52.851,2,0.00622318,10,0.00654741,-1.27695,0.461055,0.127968,263.985,0.123884,
2,1,0,1,0,3168.15,0.127462,0.127093,53.6888,2,0.00643636,10,0.00682348,-1.27012,0.461558,0.127828,267.956,0.127093,
2,1,0,1,0,3168.15,0.130667,0.13034,54.5693,2,0.00665296,10,0.00711257,-1.26305,0.456618,0.129211,275.315,0.13034,
2,1,0,1,0,3168.15,0.133863,0.133489,55.4444,2,0.00687308,10,0.00740125,-1.25614,0.451157,0.130775,283.206,0.133489,
2,1,0,1,0,3168.16,0.137067,0.136705,56.3806,2,0.0070968,10,0.00770749,-1.24887,0.443452,0.133047,292.945,0.136705,
2,1,0,1,0,3168.16,0.140263,0.139954,57.331,2,0.00732432,10,0.00802369,-1.24161,0.438594,0.134521,301.094,0.139954,
2,1,0,1,0,3168.17,0.143459,0.143102,58.3079,2,0.00755567,10,0.00834398,-1.23427,0.434829,0.135686,308.912,0.143102,
2,1,0,1,0,3168.17,0.146667,0.146305,59.3029,2,0.007791,10,0.00867629,-1.22692,0.428495,0.137691,318.879,0.1463045,
2,1,0,1,0,3168.17,0.149863,0.14951,60.3364,2,0.00803038,10,0.0090209,-1.21942,0.427254,0.138091,325.366,0.1495101,
2,1,0,1,0,3168.18,0.153064,0.152707,61.3978,2,0.00827394,10,0.00937589,-1.21185,0.426241,0.138419,331.709,0.152707,
2,1,0,1,0,3168.18,0.156266,0.155944,62.4861,2,0.00852181,10,0.0097443,-1.20422,0.427567,0.13799,336.389,0.1559436,
2,1,0,1,0,3168.19,0.159462,0.159121,63.5541,2,0.00877402,10,0.0101128,-1.19686,0.434985,0.135637,336.243,0.159121,
2,1,0,1,0,3168.19,0.16267,0.162307,64.6412,2,0.00903049,10,0.0104917,-1.18949,0.442449,0.133349,336.205,0.1623071,
2,1,0,1,0,3168.19,0.165866,0.165476,65.6911,2,0.00929127,10,0.0108703,-1.18249,0.454639,0.129773,332.549,0.165476,
2,1,0,1,0,3168.2,0.169062,0.168677,66.7671,2,0.00955627,10,0.0112621,-1.17544,0.470428,0.125418,326.492,0.168677,
2,1,0,1,0,3168.2,0.172266,0.171929,67.8136,2,0.00982558,10,0.0116591,-1.16868,0.493996,0.119434,315.575,0.171929,
2,1,0,1,0,3168.21,0.175462,0.175075,68.8099,2,0.0100989,10,0.0120469,-1.16235,0.52298,0.112815,302.453,0.175075,
2,1,0,1,0,3168.21,0.178667,0.178357,69.7563,2,0.0103762,10,0.0124415,-1.15642,0.555983,0.106118,288.416,0.178357,
2,1,0,1,0,3168.21,0.181863,0.181549,70.6603,2,0.0106571,10,0.0128283,-1.15082,0.598731,0.0985417,271.257,0.181549,
2,1,0,1,0,3168.22,0.185059,0.184713,71.5008,2,0.0109415,10,0.0132072,-1.14569,0.655602,0.0899937,250.567,0.184713,
2,1,0,1,0,3168.22,0.188266,0.18789,72.2861,2,0.0112292,10,0.0135819,-1.14095,0.752905,0.0783632,220.387,0.18789,
2,1,0,1,0,3168.23,0.191463,0.191114,72.9527,2,0.0115198,10,0.0139423,-1.13696,0.905903,0.0651284,184.723,0.191114,
2,1,0,1,0,3168.23,0.194664,0.194358,73.4832,2,0.0118128,10,0.014282,-1.13381,1.20646,0.0489033,139.665,0.194358,
2,1,0,1,0,3168.23,0.197866,0.1975,73.8628,2,0.0121076,10,0.0145879,-1.13157,1.89379,0.0311545,89.3956,0.1975,
2,1,0,1,0,3168.24,0.201062,0.20073,74.0793,2,0.0124035,10,0.0148699,-1.1303,5.6651,0.0104146,29.9449,0.20073,
2,1,0,1,0,3168.24,0.204269,0.20394,74.0992,2,0.0126999,10,0.0151118,-1.13019,-3.99694,-0.0147613,-42.3942,0.20394,
2,1,0,1,0,3168.25,0.207465,0.207122,73.8654,2,0.0129959,10,0.0152992,-1.13156,-1.36932,-0.0430871,-123.234,0.207122,
2,1,0,1,0,3168.25,0.210662,0.210357,73.3177,2,0.0132903,10,0.0154229,-1.13479,-0.785577,-0.0751041,-213.174,0.210357,
2,1,0,1,0,3168.25,0.213866,0.213564,72.4977,2,0.0135819,10,0.0154829,-1.13968,-0.548074,-0.10765,-302.07,0.213564,
2,1,0,1,0,3168.26,0.217062,0.216718,71.3753,2,0.0138696,10,0.0154683,-1.14645,-0.41258,-0.143003,-394.87,0.216718,
2,1,0,1,0,3168.26,0.220267,0.220017,69.9704,2,0.0141522,10,0.0153946,-1.15509,-0.327957,-0.179901,-486.771,0.220017,
2,1,0,1,0,3168.27,0.223463,0.223192,68.2495,2,0.0144286,10,0.0152328,-1.1659,-0.275036,-0.214517,-566.409,0.223192,
2,1,0,1,0,3168.27,0.226659,0.226383,66.2577,2,0.0146975,10,0.0149996,-1.17876,-0.234375,-0.251733,-646.033,0.226383,
2,1,0,1,0,3168.27,0.229866,0.22962,64.0675,2,0.014958,10,0.0147112,-1.19336,-0.208891,-0.282444,-701.664,0.22962,
2,1,0,1,0,3168.28,0.233062,0.232789,61.7188,2,0.0152093,10,0.0143675,-1.20958,-0.1918,-0.307613,-737.171,0.232789,
2,1,0,1,0,3168.28,0.236264,0.235987,59.2717,2,0.0154511,10,0.0139874,-1.22715,-0.17775,-0.331927,-764.912,0.235987,
2,1,0,1,0,3168.29,0.239466,0.239221,56.7944,2,0.015683,10,0.0135864,-1.24569,-0.170214,-0.346623,-766.531,0.239221,
2,1,0,1,0,3168.29,0.242662,0.242392,54.2976,2,0.015905,10,0.0131613,-1.26522,-0.164903,-0.357786,-757.909,0.242392,
2,1,0,1,0,3168.29,0.245869,0.245607,51.8933,2,0.0161171,10,0.0127454,-1.28489,-0.16279,-0.36243,-734.981,0.245607,
2,1,0,1,0,3168.3,0.249065,0.248782,49.5744,2,0.0163198,10,0.0123332,-1.30474,-0.164492,-0.358679,-695.937,0.248782,
2,1,0,1,0,3168.3,0.252261,0.251986,47.4122,2,0.0165135,10,0.0119472,-1.32411,-0.168022,-0.351145,-652.302,0.251986,
2,1,0,1,0,3168.31,0.255466,0.255176,45.4006,2,0.0166989,10,0.0115852,-1.34294,-0.174083,-0.338918,-603.179,0.255176,
2,1,0,1,0,3168.31,0.258662,0.2584,43.5486,2,0.0168765,10,0.011253,-1.36103,-0.181892,-0.324368,-554.055,0.2584,
2,1,0,1,0,3168.31,0.261866,0.261591,41.8485,2,0.0170471,10,0.0109472,-1.37832,-0.191815,-0.307589,-505.227,0.261591,
2,1,0,1,0,3168.32,0.265063,0.264796,40.3143,2,0.0172112,10,0.0106751,-1.39454,-0.203913,-0.289339,-458.086,0.264796,
2,1,0,1,0,3168.32,0.268259,0.267965,38.9395,2,0.0173696,10,0.0104344,-1.40961,-0.220373,-0.267727,-409.26,0.267965,
2,1,0,1,0,3168.33,0.271466,0.271112,37.7253,2,0.0175228,10,0.0102278,-1.42337,-0.238147,-0.247746,-366.652,0.2711122,
2,1,0,1,0,3168.33,0.274662,0.274399,36.6064,2,0.0176713,10,0.0100448,-1.43644,-0.257152,-0.229437,-329.451,0.274399,
2,1,0,1,0,3168.33,0.277869,0.277586,35.625,2,0.0178157,10,0.00988901,-1.44824,-0.280259,-0.21052,-294.139,0.277586,
2,1,0,1,0,3168.34,0.281065,0.280752,34.7267,2,0.0179563,10,0.00974959,-1.45934,-0.304404,-0.193821,-263.951,0.280752,
2,1,0,1,0,3168.34,0.284262,0.28397,33.9434,2,0.0180935,10,0.0096389,-1.46924,-0.331174,-0.178154,-237.021,0.28397,
2,1,0,1,0,3168.35,0.287469,0.287165,33.237,2,0.0182277,10,0.0095445,-1.47838,-0.362511,-0.162754,-211.818,0.287165,
2,1,0,1,0,3168.35,0.290665,0.290349,32.5999,2,0.0183593,10,0.00946535,-1.48678,-0.39648,-0.14881,-189.953,0.290349,
2,1,0,1,0,3168.35,0.293861,0.293596,32.0061,2,0.0184884,10,0.00939688,-1.49477,-0.426669,-0.13828,-173.609,0.293596,
2,1,0,1,0,3168.36,0.297066,0.296819,31.5027,2,0.0186154,10,0.0093506,-1.50165,-0.444018,-0.132878,-164.979,0.296819,
2,1,0,1,0,3168.36,0.299637,0.299327,31.1256,2,0.0187156,10,0.00931673,-1.50688,-0.0947198,-0.62289,-729.785,0.299327,
2,1,0,1,0,3168.36,0.300012,0.299804,31.0401,2,0.0187311,10,0.00930594,-1.50808,0.00609282,9.68353,9626.16,0.299804,
2,1,0,1,0,3168.36,0.298983,0.298922,28.119,2,0.0187684,10,0.0084054,-1.551,0.0204493,2.88519,2429.92,0.298922,
2,1,0,1,0,3168.37,0.295787,0.295651,20.2642,2,0.0188638,10,0.00599113,-1.69327,0.0203379,2.90099,2046.22,0.295651,
2,1,0,1,0,3168.37,0.292579,0.292369,14.2197,2,0.0189318,10,0.0041574,-1.84711,0.0179874,3.28007,1757.5,0.2923691,
2,1,0,1,0,3168.37,0.289383,0.289202,9.34607,2,0.0189782,10,0.0027029,-2.02937,0.0129126,4.56917,1413.09,0.289202,
2,1,0,1,0,3168.38,0.286187,0.285972,5.35811,2,0.019007,10,0.00153227,-2.27099,0.0100127,5.89254,1168.2,0.2859717,
2,1,0,1,0,3168.38,0.282983,0.282747,2.02951,2,0.0190213,10,0.000573838,-2.69261,0.0269486,2.18936,966.361,0.282747,
2,0,0,1,0,3168.39,0.279786,0.279557,-0.747016,2,0.0190234,10,-0.000208834,-3.12667,0.590819,0.0998614,813.44,0.279557,
2,0,0,1,0,3168.39,0.276582,0.276315,-3.10754,2,0.0190154,10,-0.000858659,-2.50758,-0.0244017,-2.41786,689.044,0.276315,
2,0,0,1,0,3168.39,0.273386,0.27312,-5.09634,2,0.0189987,10,-0.00139191,-2.29274,-0.0122975,-4.79771,586.4,0.27312,
2,0,0,1,0,3168.4,0.27019,0.269928,-6.80352,2,0.0189747,10,-0.00183646,-2.16727,-0.0262188,-2.25029,504.402,0.269928,
2,0,0,1,0,3168.4,0.266982,0.266709,-8.28103,2,0.0189443,10,-0.00220863,-2.08192,-0.0398042,-1.48225,436.802,0.266709,
2,0,0,1,0,3168.41,0.263786,0.263513,-9.5645,2,0.0189084,10,-0.00252037,-2.01934,-0.0546179,-1.08023,380.456,0.263513,
2,0,0,1,0,3168.41,0.260585,0.260314,-10.6898,2,0.0188678,10,-0.0027827,-1.97103,-0.070873,-0.832475,333.488,0.260314,
2,0,0,1,0,3168.41,0.257383,0.257102,-11.6831,2,0.0188229,10,-0.00300375,-1.93244,-0.0886642,-0.665432,294.627,0.257102,
2,0,0,1,0,3168.42,0.254187,0.253931,-12.5423,2,0.0187743,10,-0.00318488,-1.90162,-0.108606,-0.54325,260.405,0.253931,
2,0,0,1,0,3168.42,0.25098,0.25072,-13.3339,2,0.0187225,10,-0.00334307,-1.87504,-0.129315,-0.456251,233.696,0.25072,
2,0,0,1,0,3168.43,0.247783,0.247502,-14.0261,2,0.0186677,10,-0.00347148,-1.85306,-0.150295,-0.392561,212.342,0.247502,
2,0,0,1,0,3168.43,0.244587,0.244279,-14.6799,2,0.0186102,10,-0.00358598,-1.83328,-0.174415,-0.338274,191.79,0.244279,
2,0,0,1,0,3168.43,0.241383,0.2411,-15.2671,2,0.0185502,10,-0.00368088,-1.81624,-0.197002,-0.29949,176.819,0.2411,
2,0,0,1,0,3168.44,0.238187,0.237911,-15.7905,2,0.018488,10,-0.00375673,-1.8016,-0.224029,-0.263359,161.256,0.237911,
2,0,0,1,0,3168.44,0.234982,0.234719,-16.2864,2,0.0184238,10,-0.00382272,-1.78818,-0.249357,-0.236608,149.643,0.234719,
2,0,0,1,0,3168.45,0.231786,0.231478,-16.744,2,0.0183577,10,-0.00387587,-1.77614,-0.270992,-0.217719,141.749,0.231478,
2,0,0,1,0,3168.45,0.22859,0.228305,-17.1817,2,0.0182898,10,-0.00392267,-1.76493,-0.297528,-0.198301,132.512,0.228305,
2,0,0,1,0,3168.45,0.225383,0.225093,-17.6074,2,0.0182201,10,-0.00396331,-1.7543,-0.314081,-0.18785,128.689,0.225093,
2,0,0,1,0,3168.46,0.222187,0.221886,-17.9869,2,0.0181489,10,-0.00399104,-1.74504,-0.338759,-0.174165,122.006,0.221886,
2,0,0,1,0,3168.46,0.218979,0.218695,-18.3891,2,0.0180761,10,-0.0040216,-1.73544,-0.361732,-0.163104,116.773,0.218695,
2,0,0,1,0,3168.47,0.215783,0.21553,-18.7403,2,0.0180018,10,-0.0040391,-1.72722,-0.376387,-0.156754,114.454,0.21553,
2,0,0,1,0,3168.47,0.212587,0.21229,-19.1024,2,0.0179261,10,-0.00405526,-1.71891,-0.398823,-0.147935,110.194,0.21229,
2,0,0,1,0,3168.47,0.20938,0.209103,-19.45,2,0.017849,10,-0.00406705,-1.71108,-0.41245,-0.143048,108.456,0.209103,
2,0,0,1,0,3168.48,0.206184,0.205881,-19.8011,2,0.0177705,10,-0.00407667,-1.70331,-0.421584,-0.139949,108.067,0.205881,
2,0,0,1,0,3168.48,0.202988,0.202711,-20.1307,2,0.0176906,10,-0.0040807,-1.69614,-0.429625,-0.137329,107.902,0.202711,
2,0,0,1,0,3168.49,0.199783,0.199487,-20.486,2,0.0176093,10,-0.0040867,-1.68854,-0.433248,-0.136181,108.91,0.199487,
2,0,0,1,0,3168.49,0.196587,0.196301,-20.8314,2,0.0175266,10,-0.00408921,-1.68128,-0.438739,-0.134476,109.293,0.196301,
2,0,0,1,0,3168.49,0.193382,0.193044,-21.1992,2,0.0174425,10,-0.00409238,-1.67368,-0.44099,-0.13379,110.624,0.193044,
2,0,0,1,0,3168.5,0.190186,0.189863,-21.5348,2,0.017357,10,-0.00408866,-1.66686,-0.437349,-0.134904,113.454,0.1898628,
2,0,0,1,0,3168.5,0.18699,0.186676,-21.9032,2,0.0172701,10,-0.00408881,-1.65949,-0.428942,-0.137548,117.781,0.186676,
2,0,0,1,0,3168.51,0.183783,0.1835,-22.2836,2,0.0171817,10,-0.00408905,-1.65201,-0.412756,-0.142942,124.517,0.1835,
2,0,0,1,0,3168.51,0.180587,0.1803,-22.7002,2,0.0170917,10,-0.00409285,-1.64397,-0.403642,-0.146169,129.613,0.1803,
2,0,0,1,0,3168.51,0.17738,0.177089,-23.1254,2,0.017,10,-0.00409525,-1.63591,-0.391135,-0.150843,136.246,0.177089,
2,0,0,1,0,3168.52,0.174183,0.173901,-23.5591,2,0.0169066,10,-0.00409694,-1.62784,-0.372837,-0.158246,145.89,0.1739005,
2,0,0,1,0,3168.52,0.170987,0.170714,-24.0257,2,0.0168114,10,-0.00410153,-1.61932,-0.354262,-0.166543,156.726,0.170714,
2,0,0,1,0,3168.53,0.16778,0.167485,-24.5698,2,0.0167142,10,-0.00411507,-1.6096,-0.331989,-0.177717,170.898,0.167485,
2,0,0,1,0,3168.53,0.164584,0.16431,-25.1282,2,0.0166147,10,-0.00412881,-1.59984,-0.312604,-0.188737,185.597,0.1643102,
2,0,0,1,0,3168.53,0.161382,0.161058,-25.7539,2,0.016513,10,-0.00414787,-1.58916,-0.297081,-0.198599,200.212,0.161058,
2,0,0,1,0,3168.54,0.158183,0.15789,-26.4057,2,0.0164086,10,-0.00416921,-1.5783,-0.278469,-0.211873,219.189,0.1578905,
2,0,0,1,0,3168.54,0.154987,0.15467,-27.1355,2,0.0163015,10,-0.00419705,-1.56646,-0.260385,-0.226588,241.052,0.15467,
2,0,0,1,0,3168.55,0.151783,0.151492,-27.9378,2,0.0161913,10,-0.00423235,-1.55381,-0.244915,-0.2409,263.808,0.151492,
2,0,0,1,0,3168.55,0.148587,0.148331,-28.8217,2,0.0160777,10,-0.00427516,-1.54028,-0.230819,-0.255612,288.748,0.148331,
2,0,0,1,0,3168.55,0.145385,0.145092,-29.7819,2,0.0159604,10,-0.00432113,-1.52605,-0.218984,-0.269426,314.439,0.145092,
2,0,0,1,0,3168.56,0.142183,0.141864,-30.8333,2,0.0158391,10,-0.00437413,-1.51098,-0.207483,-0.284361,343.702,0.141864,
2,0,0,1,0,3168.56,0.138987,0.138697,-31.961,2,0.0157134,10,-0.0044329,-1.49538,-0.198758,-0.296844,371.933,0.138697,
2,0,0,1,0,3168.57,0.13578,0.135524,-33.2234,2,0.0155829,10,-0.00450258,-1.47856,-0.190124,-0.310323,403.692,0.135524,
2,0,0,1,0,3168.57,0.132584,0.132284,-34.5459,2,0.0154473,10,-0.00456986,-1.4616,-0.183859,-0.320899,434.012,0.132284,
2,0,0,1,0,3168.57,0.129388,0.129155,-35.9639,2,0.0153062,10,-0.00464489,-1.44413,-0.180621,-0.326651,460.045,0.129155,
2,0,0,1,0,3168.58,0.12618,0.125942,-37.4971,2,0.0151591,10,-0.00472244,-1.426,-0.177,-0.333333,488.871,0.125942,
2,0,0,1,0,3168.58,0.122984,0.122726,-39.111,2,0.0150057,10,-0.00479996,-1.4077,-0.176627,-0.334037,510.336,0.122726,
2,0,0,1,0,3168.59,0.119782,0.11952,-40.7859,2,0.0148458,10,-0.00487472,-1.38949,-0.178655,-0.330246,525.503,0.11952,
2,0,0,1,0,3168.59,0.116584,0.116323,-42.5125,2,0.0146791,10,-0.00494516,-1.37148,-0.182075,-0.324042,536.938,0.116323,
2,0,0,1,0,3168.59,0.113387,0.11312,-44.2347,2,0.0145054,10,-0.00500384,-1.35424,-0.186461,-0.316419,545.52,0.11312,
2,0,0,1,0,3168.6,0.110183,0.109913,-45.9908,2,0.0143248,10,-0.00505501,-1.33733,-0.194593,-0.303197,542.872,0.109913,
2,0,0,1,0,3168.6,0.106987,0.106757,-47.7484,2,0.0141371,10,-0.00509746,-1.32104,-0.202587,-0.291233,540.9,0.106757,
2,0,0,1,0,3168.61,0.103785,0.103603,-49.4176,2,0.0139426,10,-0.00511981,-1.30612,-0.211182,-0.27938,537.998,0.103603,
2,0,0,1,0,3168.61,0.100583,0.100409,-51.1102,2,0.0137414,10,-0.00513192,-1.29149,-0.223817,-0.263608,525.005,0.100409,
2,0,0,1,0,3168.61,0.0973873,0.0971578,-52.8533,2,0.0135332,10,-0.00513511,-1.27693,-0.234629,-0.251461,516.918,0.0971578,
2,0,0,1,0,3168.62,0.0941801,0.0939681,-54.4624,2,0.0133185,10,-0.00511773,-1.2639,-0.248133,-0.237775,503.706,0.0939681,
2,0,0,1,0,3168.62,0.0909839,0.0907371,-56.0682,2,0.0130972,10,-0.00508746,-1.25128,-0.26615,-0.221679,483.499,0.0907371,
2,0,0,1,0,3168.63,0.0877878,0.0875643,-57.5801,2,0.0128698,10,-0.00504197,-1.23973,-0.284065,-0.207699,465.063,0.0875643,
2,0,0,1,0,3168.63,0.0845806,0.0843757,-59.0334,2,0.0126364,10,-0.00498099,-1.2289,-0.308164,-0.191456,439.561,0.0843757,
2,0,0,1,0,3168.63,0.0813844,0.0812284,-60.3872,2,0.0123974,10,-0.00490516,-1.21906,-0.332571,-0.177406,416.839,0.0812284,
2,0,0,1,0,3168.64,0.0781828,0.0779762,-61.6774,2,0.0121531,10,-0.00480937,-1.20987,-0.35962,-0.164062,393.939,0.0779762,
2,0,0,1,0,3168.64,0.0749839,0.074779,-62.9096,2,0.0119038,10,-0.00470431,-1.20128,-0.392154,-0.150451,368.364,0.074779,
2,0,0,1,0,3168.65,0.0717877,0.0715469,-64.0872,2,0.0116497,10,-0.00458524,-1.19323,-0.427929,-0.137873,343.605,0.0715469,
2,0,0,1,0,3168.65,0.0685832,0.0683116,-65.1453,2,0.0113911,10,-0.00445018,-1.18612,-0.483322,-0.122072,309.068,0.0683116,
2,0,0,1,0,3168.65,0.0653871,0.0651357,-66.0894,2,0.0111285,10,-0.00430478,-1.17987,-0.5558,-0.106153,272.71,0.0651357,
2,0,0,1,0,3168.66,0.0621854,0.0619322,-66.8801,2,0.0108624,10,-0.00414203,-1.1747,-0.647069,-0.0911804,237.179,0.0619322,
2,0,0,1,0,3168.66,0.0589837,0.0586736,-67.5979,2,0.0105934,10,-0.00396621,-1.17007,-0.770371,-0.0765864,201.38,0.0586736,
2,0,0,1,0,3168.67,0.0557876,0.0555125,-68.181,2,0.0103217,10,-0.0037849,-1.16634,-0.946543,-0.0623321,165.258,0.0555125,
2,0,0,1,0,3168.67,0.0525804,0.0522836,-68.6776,2,0.0100479,10,-0.00359071,-1.16318,-1.23962,-0.0475952,127.06,0.0522836,
2,0,0,1,0,3168.67,0.0493842,0.0491108,-68.9989,2,0.00977248,10,-0.00338859,-1.16116,-1.75975,-0.0335275,89.9645,0.0491108,
2,0,0,1,0,3168.68,0.0461881,0.0459317,-69.2169,2,0.00949599,10,-0.00317925,-1.15979,-2.94077,-0.0200628,54.0445,0.0459317,
2,0,0,1,0,3168.68,0.0429808,0.0427102,-69.3327,2,0.00921883,10,-0.00296121,-1.15906,-6.87052,-0.00858742,23.1741,0.0427102,
2,0,0,1,0,3168.69,0.0397847,0.0394643,-69.3704,2,0.00894141,10,-0.00273765,-1.15883,27.774,0.00212429,-5.73532,0.0394643,
2,0,0,1,0,3168.69,0.036583,0.0362693,-69.2965,2,0.00866406,10,-0.00251334,-1.15929,4.51772,0.0130597,-35.2221,0.0362693,
2,0,0,1,0,3168.69,0.0333841,0.0330616,-69.1431,2,0.00838719,10,-0.00228598,-1.16025,2.71679,0.0217168,-58.477,0.0330616,
2,0,0,1,0,3168.7,0.030188,0.0298751,-68.8806,2,0.00811114,10,-0.00205781,-1.1619,2.02808,0.0290916,-78.1089,0.0298751,
2,0,0,1,0,3168.7,0.0269835,0.0266885,-68.6233,2,0.00783613,10,-0.00183146,-1.16353,1.69427,0.0348233,-93.1567,0.0266885,
2,0,0,1,0,3168.71,0.0237874,0.0235094,-68.2999,2,0.00756232,10,-0.00160569,-1.16558,1.53989,0.0383143,-102.014,0.0235094,
2,0,0,1,0,3168.71,0.0205857,0.0202763,-67.952,2,0.00728984,10,-0.00137781,-1.1678,1.34968,0.0437141,-115.803,0.0202763,
2,0,0,1,0,3168.71,0.017384,0.0170335,-67.5706,2,0.00701879,10,-0.00115097,-1.17024,1.24728,0.0473028,-124.601,0.0170335,
2,0,0,1,0,3168.72,0.0141879,0.0138788,-67.1399,2,0.00674941,10,-0.000931823,-1.17302,1.15652,0.0510151,-133.582,0.01387882,
2,0,0,1,0,3168.72,0.0109806,0.0106446,-66.6969,2,0.00648176,10,-0.00070996,-1.17589,1.07472,0.0548981,-142.809,0.0106446,
2,0,0,1,0,3168.73,0.00778448,0.00748775,-66.2437,2,0.00621592,10,-0.000496016,-1.17886,1.07174,0.0550505,-142.272,0.00748775,
2,0,0,1,0,3168.73,0.00458834,0.0042726,-65.7482,2,0.00595196,10,-0.000280916,-1.18212,0.970926,0.0607667,-155.79,0.0042726,
2,0,0,1,0,3168.73,0.0013811,0.00102033,-65.3105,2,0.00568993,10,-6.66384e-05,-1.18502,0.898611,0.0656569,-166.98,0.00102033,
2,0,0,1,0,3168.74,-0.00181504,-0.002198,-64.6961,2,0.00542997,10,0.000142202,-1.18912,0.821372,0.071831,-181.037,-0.002198,
2,0,0,1,0,3168.74,-0.0050195,-0.00535165,-64.0998,2,0.00517246,10,0.00034304,-1.19314,0.736174,0.0801441,-200.237,-0.00535165,
2,0,0,1,0,3168.75,-0.00821564,-0.00856787,-63.4236,2,0.00491748,10,0.000543405,-1.19775,0.686602,0.0859304,-212.389,-0.00856787,
2,0,0,1,0,3168.75,-0.0114118,-0.0117947,-62.7445,2,0.00466521,10,0.000740051,-1.20242,0.62836,0.0938953,-229.462,-0.0117947,
2,0,0,1,0,3168.75,-0.0146162,-0.0149558,-61.9865,2,0.00441579,10,0.000927056,-1.2077,0.584567,0.100929,-243.627,-0.0149558,
2,0,0,1,0,3168.76,-0.0178124,-0.0181603,-61.1607,2,0.00416957,10,0.0011107,-1.21353,0.540923,0.109073,-259.943,-0.0181603,
2,0,0,1,0,3168.76,-0.0210196,-0.0213744,-60.3036,2,0.00392672,10,0.00128895,-1.21966,0.512231,0.115182,-270.776,-0.0213744,
2,0,0,1,0,3168.77,-0.0242158,-0.0245938,-59.4174,2,0.00368737,10,0.0014613,-1.22609,0.494824,0.119234,-276.289,-0.0245938,
2,0,0,1,0,3168.77,-0.0274119,-0.027758,-58.52,2,0.00345157,10,0.0016244,-1.2327,0.477717,0.123504,-281.896,-0.027758,
2,0,0,1,0,3168.77,-0.0306191,-0.0309637,-57.6232,2,0.00321938,10,0.00178423,-1.2394,0.473394,0.124632,-280.208,-0.0309637,
2,0,0,1,0,3168.78,-0.0338153,-0.034147,-56.7031,2,0.00299081,10,0.00193624,-1.24639,0.475067,0.124193,-275.004,-0.034147,
2,0,0,1,0,3168.78,-0.037017,-0.0373717,-55.837,2,0.00276586,10,0.00208672,-1.25308,0.487058,0.121135,-264.308,-0.0373717,
2,0,0,1,0,3168.79,-0.0402187,-0.0405816,-54.9935,2,0.0025443,10,0.00223172,-1.25969,0.51053,0.115566,-248.492,-0.0405816,
2,0,0,1,0,3168.79,-0.0434148,-0.0438105,-54.2277,2,0.00232595,10,0.00237574,-1.26578,0.533923,0.110503,-234.277,-0.0438105,
2,0,0,1,0,3168.79,-0.0466193,-0.0469599,-53.5192,2,0.00211057,10,0.00251326,-1.27149,0.571684,0.103204,-215.891,-0.0469599,
2,0,0,1,0,3168.8,-0.0498154,-0.0501687,-52.8389,2,0.00189795,10,0.00265086,-1.27705,0.622773,0.0947376,-195.835,-0.0501687,
2,0,0,1,0,3168.8,-0.0530115,-0.053369,-52.2328,2,0.00168789,10,0.00278761,-1.28206,0.685118,0.0861166,-176.048,-0.053369,
2,0,0,1,0,3168.81,-0.056216,-0.0565873,-51.7256,2,0.00148004,10,0.00292701,-1.28629,0.790993,0.0745898,-150.977,-0.0565873,
2,0,0,1,0,3168.81,-0.0594121,-0.0597876,-51.2609,2,0.00127412,10,0.00306477,-1.29021,0.895057,0.0659176,-132.186,-0.0597876,
2,0,0,1,0,3168.81,-0.0626194,-0.0630017,-50.9014,2,0.00106987,10,0.00320688,-1.29327,1.02518,0.0575509,-114.528,-0.0630017,
2,0,0,1,0,3168.82,-0.0658155,-0.0661543,-50.5427,2,0.000867012,10,0.00334362,-1.29634,1.2406,0.0475578,-94.0227,-0.0661543,
2,0,0,1,0,3168.82,-0.0690117,-0.0693462,-50.2643,2,0.000665431,10,0.00348564,-1.29874,1.4889,0.0396265,-77.9475,-0.0693462,
2,0,0,1,0,3168.83,-0.0722189,-0.0725634,-50.0597,2,0.000464807,10,0.0036325,-1.30051,2.01561,0.0292715,-57.317,-0.0725634,
2,0,0,1,0,3168.83,-0.075415,-0.0757595,-49.907,2,0.000264907,10,0.00378093,-1.30184,2.73999,0.0215329,-42.0139,-0.0757595,
2,0,0,1,0,3168.83,-0.0786167,-0.0790043,-49.8062,2,6.55114e-05,10,0.00393491,-1.30272,3.88732,0.0151775,-29.5395,-0.07900434,
2,0,0,1,0,3168.84,-0.0818184,-0.0821442,-49.7266,2,-0.000133524,10,0.00408475,-1.30341,7.79741,0.00756662,-14.7098,-0.0821442,
2,0,0,1,0,3168.84,-0.0850146,-0.0853986,-49.6805,2,-0.000332323,10,0.00424265,-1.30381,29.105,0.00202714,-3.93833,-0.0853986,
2,0,0,1,0,3168.85,-0.088219,-0.0885703,-49.7185,2,-0.00053108,10,0.00440358,-1.30348,-10.4549,-0.00564328,10.9673,-0.0885703,
2,0,0,1,0,3168.85,-0.0914152,-0.0917536,-49.756,2,-0.000730042,10,0.00456529,-1.30315,-5.17805,-0.0113943,22.155,-0.0917536,
2,0,0,1,0,3168.85,-0.0946141,-0.0949995,-49.8676,2,-0.000929283,10,0.0047374,-1.30218,-3.67332,-0.0160618,31.2912,-0.0949995,
2,0,0,1,0,3168.86,-0.0978158,-0.098185,-49.9638,2,-0.00112897,10,0.00490569,-1.30134,-2.73638,-0.0215613,42.0944,-0.098185,
2,0,0,1,0,3168.86,-0.101012,-0.101393,-50.1198,2,-0.00132914,10,0.00508178,-1.29999,-2.26266,-0.0260755,51.0787,-0.101393,
2,0,0,1,0,3168.87,-0.104219,-0.104546,-50.2945,2,-0.00152998,10,0.00525811,-1.29848,-1.88241,-0.0313428,61.5965,-0.104546,
2,0,0,1,0,3168.87,-0.107415,-0.107771,-50.52,2,-0.00173164,10,0.00544459,-1.29654,-1.64721,-0.0358181,70.6872,-0.107771,
2,0,0,1,0,3168.87,-0.110611,-0.110967,-50.7511,2,-0.0019342,10,0.00563171,-1.29455,-1.50414,-0.0392252,77.7511,-0.110967,
2,0,0,1,0,3168.88,-0.113819,-0.11411,-51.0187,2,-0.00213778,10,0.00582176,-1.29227,-1.37915,-0.0427801,85.2511,-0.11411,
2,0,0,1,0,3168.88,-0.117015,-0.117333,-51.2887,2,-0.00234242,10,0.00601784,-1.28998,-1.27412,-0.0463063,92.7854,-0.117333,
2,0,0,1,0,3168.89,-0.120216,-0.120524,-51.6071,2,-0.00254821,10,0.00621987,-1.28729,-1.19028,-0.049568,99.9311,-0.1205235,
2,0,0,1,0,3168.89,-0.123418,-0.123761,-51.9382,2,-0.00275533,10,0.00642792,-1.28451,-1.12018,-0.0526702,106.825,-0.123761,
2,0,0,1,0,3168.89,-0.126614,-0.126953,-52.3021,2,-0.00296384,10,0.0066399,-1.28148,-1.07606,-0.0548298,111.961,-0.126953,
2,0,0,1,0,3168.9,-0.129819,-0.130125,-52.6552,2,-0.00317379,10,0.00685179,-1.27856,-1.03635,-0.0569308,117.054,-0.130125,
2,0,0,1,0,3168.9,-0.133015,-0.133359,-53.0442,2,-0.0033852,10,0.0070739,-1.27536,-0.991736,-0.0594916,123.25,-0.133359,
2,0,0,1,0,3168.91,-0.136214,-0.136561,-53.4365,2,-0.00359818,10,0.00729735,-1.27216,-0.958963,-0.0615248,128.394,-0.136561,
2,0,0,1,0,3168.91,-0.139416,-0.139708,-53.8742,2,-0.00381286,10,0.00752668,-1.26862,-0.931528,-0.0633368,133.211,-0.1397084,
2,0,0,1,0,3168.91,-0.142612,-0.142926,-54.2987,2,-0.00402927,10,0.00776068,-1.26521,-0.921733,-0.0640099,135.649,-0.142926,
2,0,0,1,0,3168.92,-0.145819,-0.146149,-54.748,2,-0.00424738,10,0.00800139,-1.26163,-0.918316,-0.064248,137.277,-0.146149,
2,0,0,1,0,3168.92,-0.149015,-0.149374,-55.1746,2,-0.00446728,10,0.00824165,-1.25826,-0.901214,-0.0654673,141.024,-0.149374,
2,0,0,1,0,3168.93,-0.152211,-0.152519,-55.6329,2,-0.00468893,10,0.00848508,-1.25467,-0.898155,-0.0656902,142.681,-0.152519,
2,0,0,1,0,3168.93,-0.155418,-0.155716,-56.1025,2,-0.00491247,10,0.00873607,-1.25102,-0.891635,-0.0661706,144.863,-0.1557163,
2,0,0,1,0,3168.93,-0.158615,-0.158926,-56.571,2,-0.00513787,10,0.00899062,-1.24741,-0.893233,-0.0660522,145.808,-0.158926,
2,0,0,1,0,3168.94,-0.161816,-0.162162,-57.0272,2,-0.00536511,10,0.00924767,-1.24392,-0.903195,-0.0653237,145.389,-0.1621625,
2,0,0,1,0,3168.94,-0.165018,-0.165347,-57.5033,2,-0.00559423,10,0.00950799,-1.24031,-0.894466,-0.0659612,148.05,-0.165347,
2,0,0,1,0,3168.95,-0.168214,-0.168536,-57.9663,2,-0.0058252,10,0.00976938,-1.23682,-0.895905,-0.0658552,148.993,-0.168536,
2,0,0,1,0,3168.95,-0.171419,-0.171702,-58.4625,2,-0.00605811,10,0.0100381,-1.23312,-0.902711,-0.0653587,149.088,-0.171702,
2,0,0,1,0,3168.95,-0.174615,-0.174904,-58.9256,2,-0.00629295,10,0.0103063,-1.2297,-0.909979,-0.0648367,149.071,-0.174904,
2,0,0,1,0,3168.96,-0.177814,-0.178102,-59.4048,2,-0.00652964,10,0.0105801,-1.22618,-0.929426,-0.0634801,147.164,-0.178102,
2,0,0,1,0,3168.96,-0.181015,-0.181302,-59.8694,2,-0.00676825,10,0.0108544,-1.2228,-0.920936,-0.0640652,149.721,-0.1813018,
2,0,0,1,0,3168.97,-0.184211,-0.184537,-60.3514,2,-0.00700874,10,0.0111371,-1.21931,-0.917907,-0.0642766,151.438,-0.184537,
2,0,0,1,0,3168.97,-0.187419,-0.18775,-60.8489,2,-0.0072512,10,0.0114244,-1.21575,-0.930151,-0.0634306,150.591,-0.18775,
2,0,0,1,0,3168.97,-0.190615,-0.190912,-61.3448,2,-0.00749563,10,0.0117115,-1.21222,-0.924236,-0.0638365,152.777,-0.190912,
2,0,0,1,0,3168.98,-0.193811,-0.194166,-61.8065,2,-0.00774199,10,0.0120007,-1.20897,-0.948073,-0.0622315,149.998,-0.194166,
2,0,0,1,0,3168.98,-0.197018,-0.197329,-62.3056,2,-0.00799027,10,0.0122947,-1.20547,-1.02373,-0.0576322,139.472,-0.197329,
2,0,0,1,0,3168.99,-0.199647,-0.199969,-62.6817,2,-0.00819652,10,0.0125344,-1.20286,0.325147,0.181457,-429.58,-0.199969,
2,0,0,1,0,3168.99,-0.200134,-0.200475,-62.6786,2,-0.00823415,10,0.0125655,-1.20288,-0.0141367,-4.17353,9264.23,-0.200475,
2,0,0,1,1,3168.99,-0.198935,-0.199467,-59.5293,2,-0.00832486,10,0.0118741,-1.22527,-0.0496238,-1.18895,2483.98,-0.199467,
2,0,0,1,1,3168.99,-0.195739,-0.196192,-51.7744,2,-0.0085462,10,0.0101577,-1.28588,-0.0537915,-1.09683,2152.35,-0.196192,
2,0,0,1,1,3169,-0.192535,-0.19298,-45.321,2,-0.00873949,10,0.00874605,-1.3437,-0.0544922,-1.08272,1939.19,-0.19298,
2,0,0,1,1,3169,-0.189339,-0.18977,-39.6382,2,-0.00890868,10,0.00752216,-1.40189,-0.0535717,-1.10133,1711.24,-0.18977,
2,0,0,1,1,3169,-0.186137,-0.186568,-34.5161,2,-0.00905635,10,0.00643959,-1.46198,-0.0514937,-1.14577,1543.07,-0.186568,
2,0,0,1,1,3169.01,-0.182935,-0.183382,-29.854,2,-0.0091845,10,0.00547469,-1.525,-0.048515,-1.21612,1409.72,-0.183382,
2,0,0,1,1,3169.01,-0.179739,-0.18018,-25.5695,2,-0.00929482,10,0.0046071,-1.59228,-0.0446272,-1.32206,1304.26,-0.18018,
2,0,0,1,1,3169.02,-0.176532,-0.176964,-21.5846,2,-0.00938867,10,0.00381969,-1.66586,-0.0404183,-1.45974,1206.6,-0.176964,
2,0,0,1,1,3169.02,-0.173336,-0.173795,-17.8573,2,-0.0094671,10,0.00310351,-1.74819,-0.0354616,-1.66377,1126.29,-0.173795,
2,0,0,1,1,3169.02,-0.17014,-0.170554,-14.3748,2,-0.00953117,10,0.00245167,-1.8424,-0.0298088,-1.97928,1058.62,-0.170554,
2,0,0,1,1,3169.03,-0.166932,-0.16734,-11.1085,2,-0.00958174,10,0.0018589,-1.95434,-0.0236552,-2.49417,991.684,-0.16734,
2,0,0,1,1,3169.03,-0.163736,-0.164155,-8.02509,2,-0.00961967,10,0.00131736,-2.09555,-0.0162838,-3.62324,939.729,-0.164155,
2,0,0,1,1,3169.04,-0.160532,-0.160941,-5.10991,2,-0.00964561,10,0.000822394,-2.29159,-0.00784244,-7.52317,890.008,-0.160941,
2,0,0,1,1,3169.04,-0.157336,-0.157764,-2.35604,2,-0.00966022,10,0.000371697,-2.62782,-0.0273484,-2.15735,845.97,-0.157764,
2,0,0,1,1,3169.04,-0.154139,-0.154566,0.261059,2,-0.0096641,10,-4.03508e-05,-3.58326,36.4938,0.00161671,803.258,-0.154566,
2,1,0,1,1,3169.05,-0.150935,-0.151422,2.74695,2,-0.00965782,10,-0.000415948,-2.56115,0.0256452,2.30063,765.617,-0.151422,
2,1,0,1,1,3169.05,-0.147739,-0.148213,5.11402,2,-0.00964183,10,-0.000757963,-2.29124,0.00816677,7.2244,726.196,-0.148213,
2,1,0,1,1,3169.06,-0.144532,-0.145049,7.37903,2,-0.0096166,10,-0.00107032,-2.132,0.0204252,2.88859,691.848,-0.145049,
2,1,0,1,1,3169.06,-0.141335,-0.141808,9.52571,2,-0.00958254,10,-0.00135082,-2.0211,0.0302331,1.9515,660.203,-0.141808,
2,1,0,1,1,3169.06,-0.138139,-0.138664,11.5734,2,-0.00954011,10,-0.00160481,-1.93654,0.0399572,1.47658,629.977,-0.138664,
2,1,0,1,1,3169.07,-0.134932,-0.13539,13.5794,2,-0.00948956,10,-0.00183852,-1.86712,0.0493448,1.19567,607.819,-0.13539,
2,1,0,1,1,3169.07,-0.131736,-0.132196,15.4756,2,-0.00943126,10,-0.00204582,-1.81035,0.0594539,0.992366,580.928,-0.132196,
2,1,0,1,1,3169.08,-0.12854,-0.129029,17.293,2,-0.00936552,10,-0.0022313,-1.76213,0.069958,0.843363,556.018,-0.129029,
2,1,0,1,1,3169.08,-0.125333,-0.125804,19.0439,2,-0.00929265,10,-0.0023958,-1.72025,0.0808858,0.729424,531.898,-0.125804,
2,1,0,1,1,3169.08,-0.122136,-0.122572,20.7066,2,-0.00921297,10,-0.00253805,-1.68389,0.0926362,0.6369,506.599,-0.122572,
2,1,0,1,1,3169.09,-0.118932,-0.119349,22.3094,2,-0.00912677,10,-0.00266259,-1.65151,0.104976,0.562033,482.638,-0.119349,
2,1,0,1,1,3169.09,-0.115736,-0.116151,23.8168,2,-0.00903435,10,-0.00276635,-1.62312,0.117307,0.502953,462.317,-0.116151,
2,1,0,1,1,3169.1,-0.11254,-0.112934,25.2555,2,-0.00893606,10,-0.00285221,-1.59764,0.130641,0.451621,441.103,-0.112934,
2,1,0,1,1,3169.1,-0.109335,-0.109718,26.6493,2,-0.00883207,10,-0.00292391,-1.57431,0.144528,0.408225,421.028,-0.109718,
2,1,0,1,1,3169.1,-0.106139,-0.106547,27.956,2,-0.00872273,10,-0.00297864,-1.55352,0.158172,0.373011,404.15,-0.106547,
2,1,0,1,1,3169.11,-0.102932,-0.103315,29.2212,2,-0.00860822,10,-0.00301899,-1.5343,0.17336,0.340332,385.755,-0.103315,
2,1,0,1,1,3169.11,-0.0997357,-0.100131,30.43,2,-0.00848879,10,-0.00304698,-1.5167,0.188173,0.313542,370.37,-0.100131,
2,1,0,1,1,3169.12,-0.0965395,-0.0969454,31.5764,2,-0.00836463,10,-0.00306119,-1.50064,0.204787,0.288104,353.37,-0.09694536,
2,1,0,1,1,3169.12,-0.0933323,-0.0937302,32.7031,2,-0.00823595,10,-0.00306527,-1.48541,0.221602,0.266243,338.109,-0.0937302,
2,1,0,1,1,3169.12,-0.0901362,-0.0905182,33.7433,2,-0.00810294,10,-0.00305438,-1.47181,0.240684,0.245135,321.439,-0.0905182,
2,1,0,1,1,3169.13,-0.0869345,-0.0873688,34.7449,2,-0.00796586,10,-0.00303562,-1.45911,0.260877,0.22616,305.603,-0.0873688,
2,1,0,1,1,3169.13,-0.0837328,-0.0840954,35.7069,2,-0.00782483,10,-0.00300278,-1.44725,0.279764,0.210892,292.931,-0.0840954,
2,1,0,1,1,3169.14,-0.0805366,-0.0809173,36.6188,2,-0.00768009,10,-0.00296309,-1.4363,0.301026,0.195996,279.275,-0.0809173,
2,1,0,1,1,3169.14,-0.0773322,-0.0776756,37.5052,2,-0.00753175,10,-0.00291324,-1.42591,0.323005,0.18266,266.472,-0.0776756,
2,1,0,1,1,3169.14,-0.074136,-0.0745125,38.3354,2,-0.00737999,10,-0.00285646,-1.4164,0.346174,0.170435,254.236,-0.0745125,
2,1,0,1,1,3169.15,-0.0709371,-0.0713408,39.1056,2,-0.00722501,10,-0.00278983,-1.40776,0.371687,0.158736,241.729,-0.0713408,
2,1,0,1,1,3169.15,-0.0677354,-0.0681224,39.8717,2,-0.00706696,10,-0.00271616,-1.39934,0.399321,0.147751,229.437,-0.0681224,
2,1,0,1,1,3169.16,-0.0645393,-0.0649741,40.5756,2,-0.00690598,10,-0.00263636,-1.39174,0.425861,0.138543,218.925,-0.0649741,
2,1,0,1,1,3169.16,-0.0613321,-0.0616773,41.2802,2,-0.00674221,10,-0.00254605,-1.38426,0.462092,0.12768,205.153,-0.0616773,
2,1,0,1,1,3169.16,-0.0581359,-0.0585459,41.9068,2,-0.00657576,10,-0.00245347,-1.37772,0.492453,0.119808,195.525,-0.0585459,
2,1,0,1,1,3169.17,-0.0549398,-0.0553201,42.4981,2,-0.00640689,10,-0.002351,-1.37163,0.530748,0.111164,184.146,-0.0553201,
2,1,0,1,1,3169.17,-0.0517325,-0.0521485,43.0833,2,-0.00623562,10,-0.00224673,-1.36569,0.565972,0.104245,175.011,-0.0521485,
2,1,0,1,1,3169.18,-0.0485364,-0.0488994,43.6332,2,-0.00606214,10,-0.00213364,-1.36018,0.605452,0.0974479,165.634,-0.0488994,
2,1,0,1,1,3169.18,-0.0453347,-0.0457415,44.1477,2,-0.00588652,10,-0.00201938,-1.35509,0.663464,0.0889273,152.903,-0.0457415,
2,1,0,1,1,3169.18,-0.042133,-0.042485,44.624,2,-0.00570894,10,-0.00189585,-1.35043,0.712469,0.0828106,143.971,-0.042485,
2,1,0,1,1,3169.19,-0.0389369,-0.0393144,45.0457,2,-0.00552955,10,-0.00177094,-1.34635,0.777977,0.0758377,133.173,-0.0393144,
2,1,0,1,1,3169.19,-0.0357324,-0.0361077,45.4749,2,-0.00534847,10,-0.00164199,-1.34223,0.838868,0.0703329,124.655,-0.0361077,
2,1,0,1,1,3169.2,-0.0325363,-0.0329307,45.8537,2,-0.00516577,10,-0.00151,-1.33863,0.909486,0.0648718,115.916,-0.0329307,
2,1,0,1,1,3169.2,-0.0293374,-0.029741,46.2126,2,-0.00498159,10,-0.00137441,-1.33524,1.01532,0.0581097,104.644,-0.029741,
2,1,0,1,1,3169.2,-0.0261357,-0.0264909,46.5321,2,-0.00479603,10,-0.00123268,-1.33225,1.11906,0.0527229,95.6037,-0.0264909,
2,1,0,1,1,3169.21,-0.0229395,-0.023281,46.8171,2,-0.00460931,10,-0.00108995,-1.3296,1.25255,0.0471041,85.9623,-0.023281,
2,1,0,1,1,3169.21,-0.0197323,-0.0201189,47.0786,2,-0.00442149,10,-0.000947169,-1.32718,1.39529,0.042285,77.604,-0.0201189,
2,1,0,1,1,3169.22,-0.0165361,-0.016926,47.3142,2,-0.00423267,10,-0.00080084,-1.32501,1.56205,0.0377708,69.6676,-0.016926,
2,1,0,1,1,3169.22,-0.01334,-0.0137299,47.5224,2,-0.00404296,10,-0.00065248,-1.3231,1.84458,0.0319857,59.2423,-0.0137299,
2,1,0,1,1,3169.22,-0.0101328,-0.0104713,47.7095,2,-0.00385246,10,-0.000499581,-1.32139,2.15224,0.0274134,50.9672,-0.0104713,
2,1,0,1,1,3169.23,-0.00693663,-0.00726357,47.8402,2,-0.00366132,10,-0.00034749,-1.32021,2.59406,0.0227443,42.4189,-0.00726357,
2,1,0,1,1,3169.23,-0.00373494,-0.00414173,47.9658,2,-0.00346971,10,-0.000198661,-1.31907, , , ,-0.00414173,
2,1,0,1,1,3169.24,-0.000774628,-0.00116358,48.0555,2,-0.00329206,10,-5.59162e-05,-1.31826, , , ,-0.00116358,
2,1,0,0,1,3169.24,-0.000125413,-0.000439847,48.0915,2,-0.00325361,10,-2.11529e-05,-1.31793, , , ,-0.000439847,