File: Figure_codes/Fig_3-5/rawdata_trumpetplot_data/after 10th/20221101_1-115_003_TrumpetPlot_ParaChange_from10_every3_07_CV_C01_27.csv
mode,ox/red,error,control changes,counter inc.,time/s,control/V,Ewe/V,<I>/mA,cycle number,(Q-Qo)/C,I Range,P/W,log(|I|),Tafel slope mV/dec,alpha_eff,dI/d(E-IR),E-IR/V,
2,0,0,0,0,54358.5,2.44065e-05,-0.000382585,-2.67087,28,0.0000000E+000,10,1.02184e-06,-2.57335, , , ,-0.000382585,
2,0,0,1,0,54358.6,0.0013005,0.000937453,-1.33777,28,-3.97897e-05,10,-1.2541e-06,-2.87362, , , ,0.000937453,
2,0,0,1,0,54358.6,0.00279471,0.00244698,-0.423891,28,-6.0538e-05,10,-1.03725e-06,-3.37275,-0.00571299,-10.3273,523.965,0.00244698,
2,1,0,1,0,54358.6,0.00429425,0.00396184,0.177164,28,-6.26989e-05,10,7.01895e-07,-3.75163,0.13039,0.452488,356.646,0.00396184,
2,1,0,1,0,54358.6,0.00579379,0.0054295,0.619975,28,-5.20017e-05,10,3.36616e-06,-3.20763,0.00152696,38.6388,260.436,0.0054295,
2,1,0,1,0,54358.7,0.007288,0.00693062,0.950703,28,-3.19034e-05,10,6.58896e-06,-3.02196,0.00933199,6.32234,202.244,0.00693062,
2,1,0,1,0,54358.7,0.00878882,0.00839281,1.20752,28,-4.43055e-06,10,1.01345e-05,-2.91811,0.0164876,3.57844,158.222,0.008392808,
2,1,0,1,0,54358.7,0.0102896,0.00993009,1.41401,28,2.88188e-05,10,1.40413e-05,-2.84955,0.0251475,2.34616,124.811,0.009930091,
2,1,0,1,0,54358.7,0.0117838,0.0114593,1.58386,28,6.66228e-05,10,1.81499e-05,-2.80028,0.0349214,1.68951,101.771,0.0114593,
2,1,0,1,0,54358.8,0.0132834,0.0129365,1.72206,28,0.000108317,10,2.22774e-05,-2.76395,0.0431568,1.36711,90.6521,0.0129365,
2,1,0,1,0,54358.8,0.0147816,0.0144289,1.83151,28,0.000153243,10,2.64267e-05,-2.73719,0.0541605,1.08936,77.4839,0.0144289,
2,1,0,1,0,54358.8,0.0162811,0.0159066,1.94141,28,0.000200999,10,3.08813e-05,-2.71188,0.0707824,0.833541,62.7075,0.0159066,
2,1,0,1,0,54358.8,0.0177753,0.0173925,2.03273,28,0.000250959,10,3.53542e-05,-2.69192,0.0844128,0.698946,55.1884,0.0173925,
2,1,0,1,0,54358.9,0.0192761,0.0189054,2.11147,28,0.000303139,10,3.99181e-05,-2.67542,0.0960207,0.614451,50.4411,0.0189054,
2,1,0,1,0,54358.9,0.020777,0.0204331,2.18188,28,0.00035727,10,4.45826e-05,-2.66117,0.104824,0.562851,47.9016,0.0204331,
2,1,0,1,0,54358.9,0.0222712,0.0219473,2.25481,28,0.000412974,10,4.94869e-05,-2.64689,0.122247,0.48263,42.379,0.0219473,
2,1,0,1,0,54358.9,0.0237707,0.0234116,2.31843,28,0.000470562,10,5.42782e-05,-2.63481,0.139384,0.42329,38.2124,0.0234116,
2,1,0,1,0,54359,0.0252703,0.0248978,2.37214,28,0.000529605,10,5.90609e-05,-2.62486,0.139713,0.422294,39.1442,0.0248978,
2,1,0,1,0,54359,0.0267645,0.0264271,2.43145,28,0.000589842,10,6.42561e-05,-2.61413,0.148738,0.396671,37.6568,0.0264271,
2,1,0,1,0,54359,0.0282653,0.0279244,2.48951,28,0.000651783,10,6.95181e-05,-2.60389,0.164989,0.357599,34.6804,0.0279244,
2,1,0,1,0,54359,0.0297648,0.0293909,2.5398,28,0.000715067,10,7.46469e-05,-2.5952,0.174357,0.338385,33.4959,0.0293909,
2,1,0,1,0,54359.1,0.031259,0.0308922,2.5906,28,0.000779353,10,8.00296e-05,-2.5866,0.169022,0.349066,35.2438,0.0308922,
2,1,0,1,0,54359.1,0.0327585,0.0323692,2.64341,28,0.000845169,10,8.55649e-05,-2.57784,0.180931,0.326091,33.6347,0.0323692,
2,1,0,1,0,54359.1,0.034258,0.0339271,2.68826,28,0.000912246,10,9.12051e-05,-2.57053,0.186994,0.315518,33.1627,0.0339271,
2,1,0,1,0,54359.1,0.0357576,0.0354402,2.74481,28,0.000980614,10,9.72765e-05,-2.56149,0.196827,0.299755,32.0554,0.03544018,
2,1,0,1,0,54359.2,0.0372518,0.0369206,2.79303,28,0.00104997,10,0.00010312,-2.55392,0.1913,0.308417,33.5962,0.0369206,
2,1,0,1,0,54359.2,0.0387526,0.0383938,2.83298,28,0.00112073,10,0.000108769,-2.54776,0.192634,0.30628,34.002,0.0383938,
2,1,0,1,0,54359.2,0.0402534,0.0399286,2.89012,28,0.00119275,10,0.000115398,-2.53908,0.203538,0.289872,32.6629,0.03992857,
2,1,0,1,0,54359.2,0.0417476,0.0414184,2.94582,28,0.00126575,10,0.000122011,-2.53079,0.228724,0.257953,29.5451,0.0414184,
2,1,0,1,0,54359.3,0.0432472,0.0428734,2.98938,28,0.00134024,10,0.000128165,-2.52442,0.211711,0.278682,32.4219,0.0428734,
2,1,0,1,0,54359.3,0.0447467,0.0444398,3.02982,28,0.0014158,10,0.000134645,-2.51858,0.229506,0.257074,30.436,0.0444398,
2,1,0,1,0,54359.3,0.0462463,0.0459101,3.07777,28,0.00149252,10,0.000141301,-2.51176,0.223654,0.2638,31.6944,0.0459101,
2,1,0,1,0,54359.3,0.0477391,0.0473591,3.12656,28,0.00157015,10,0.000148071,-2.50493,0.235729,0.250287,30.4909,0.0473591,
2,1,0,1,0,54359.4,0.0492399,0.0488881,3.17255,28,0.00164927,10,0.0001551,-2.49859,0.231813,0.254515,31.4581,0.0488881,
2,1,0,1,0,54359.4,0.0507408,0.0504118,3.21062,28,0.00172949,10,0.000161853,-2.49341,0.241857,0.243946,30.6215,0.0504118,
2,1,0,1,0,54359.4,0.052235,0.0519272,3.25506,28,0.00181048,10,0.000169026,-2.48744,0.252209,0.233933,29.7781,0.0519272,
2,1,0,1,0,54359.4,0.0537345,0.0534122,3.31204,28,0.00189299,10,0.000176903,-2.4799,0.249423,0.236546,30.5346,0.0534122,
2,1,0,1,0,54359.5,0.0552341,0.0548876,3.35766,28,0.00197671,10,0.000184294,-2.47396,0.262283,0.224948,29.3871,0.0548876,
2,1,0,1,0,54359.5,0.0567283,0.0563974,3.38985,28,0.00206116,10,0.000191179,-2.46982,0.278856,0.211579,28.0394,0.0563974,
2,1,0,1,0,54359.5,0.0582291,0.057847,3.43368,28,0.00214693,10,0.000198628,-2.46424,0.283136,0.20838,27.9737,0.057847,
2,1,0,1,0,54359.5,0.0597299,0.0593881,3.48924,28,0.00223381,10,0.000207219,-2.45727,0.284807,0.207158,28.1281,0.0593881,
2,1,0,1,0,54359.6,0.0612228,0.0608601,3.52313,28,0.00232142,10,0.000214418,-2.45307,0.288698,0.204366,28.0708,0.0608601,
2,1,0,1,0,54359.6,0.0627223,0.0623453,3.56245,28,0.0024104,10,0.000222102,-2.44825,0.285803,0.206436,28.7036,0.0623453,
2,1,0,1,0,54359.6,0.0642218,0.0638656,3.60109,28,0.00250034,10,0.000229985,-2.44357,0.300967,0.196035,27.613,0.06386558,
2,1,0,1,0,54359.6,0.0657214,0.065408,3.64562,28,0.00259133,10,0.000238453,-2.43823,0.316397,0.186474,26.5202,0.065408,
2,1,0,1,0,54359.7,0.0672156,0.0668455,3.68901,28,0.00268305,10,0.000246594,-2.43309,0.295835,0.199435,28.6671,0.0668455,
2,1,0,1,0,54359.7,0.0687164,0.068376,3.7235,28,0.00277612,10,0.000254598,-2.42905,0.328887,0.179393,26.0586,0.06837596,
2,1,0,1,0,54359.7,0.0702172,0.0698457,3.75797,28,0.00287003,10,0.000262478,-2.42505,0.390376,0.151137,22.1706,0.0698457,
2,1,0,1,0,54359.7,0.0717115,0.0713163,3.79878,28,0.00296446,10,0.000270915,-2.42036,0.359113,0.164294,24.3241,0.0713163,
2,1,0,1,0,54359.8,0.073211,0.0728898,3.83439,28,0.00306022,10,0.000279488,-2.4163,0.35301,0.167134,24.9711,0.07288976,
2,1,0,1,0,54359.8,0.0747105,0.0743533,3.86375,28,0.00315685,10,0.000287282,-2.41299,0.37249,0.158394,23.9006,0.0743533,
2,1,0,1,0,54359.8,0.0762101,0.0758155,3.89388,28,0.00325429,10,0.000295217,-2.40962,0.459042,0.128529,19.5607,0.0758155,
2,1,0,1,0,54359.8,0.0777042,0.0773696,3.93112,28,0.00335215,10,0.000304149,-2.40548,0.425274,0.138734,21.2739,0.0773696,
2,1,0,1,0,54359.9,0.0792037,0.0788514,3.96864,28,0.00345119,10,0.000312933,-2.40136,0.405082,0.14565,22.5098,0.0788514,
2,1,0,1,0,54359.9,0.0807046,0.0803467,3.99409,28,0.00355106,10,0.000320912,-2.39858,0.458831,0.128588,20.0282,0.0803467,
2,1,0,1,0,54359.9,0.0821988,0.081834,4.01378,28,0.00365125,10,0.000328464,-2.39645,0.512418,0.11514,18.0698,0.081834,
2,1,0,1,0,54359.9,0.0836983,0.0833782,4.04997,28,0.00375248,10,0.000337679,-2.39255,0.545091,0.108239,17.1089,0.0833782,
2,1,0,1,0,54360,0.0851979,0.0848722,4.07692,28,0.0038545,10,0.000346017,-2.38967,0.454887,0.129703,20.6333,0.0848722,
2,1,0,1,0,54360,0.0866921,0.0863384,4.10389,28,0.00395683,10,0.000354323,-2.3868,0.537917,0.109682,17.5827,0.0863384,
2,1,0,1,0,54360,0.0881929,0.0878347,4.13113,28,0.00406025,10,0.000362856,-2.38393,0.589279,0.100122,16.1533,0.0878347,
2,1,0,1,0,54360,0.0896937,0.0893183,4.16307,28,0.00416429,10,0.000371838,-2.38059,0.50984,0.115723,18.7992,0.0893183,
2,1,0,1,0,54360.1,0.0911879,0.0907668,4.1979,28,0.00426868,10,0.00038103,-2.37697,0.417899,0.141183,23.0904,0.0907668,
2,1,0,1,0,54360.1,0.0926861,0.0923544,4.22428,28,0.00437433,10,0.000390131,-2.37425,0.396707,0.148724,24.5339,0.0923544,
2,1,0,1,0,54360.1,0.0941856,0.093852,4.25821,28,0.00448078,10,0.000399642,-2.37077,0.449038,0.131392,21.8597,0.093852,
2,1,0,1,0,54360.1,0.0956852,0.0953331,4.296,28,0.00458811,10,0.000409551,-2.36694,0.398375,0.148102,24.8447,0.0953331,
2,1,0,1,0,54360.2,0.0971794,0.096799,4.33593,28,0.00469592,10,0.000419713,-2.36292,0.338253,0.174426,29.5153,0.096799,
2,1,0,1,0,54360.2,0.0986802,0.098345,4.37828,28,0.00480527,10,0.000430582,-2.3587,0.315298,0.187125,32.0148,0.098345,
2,1,0,1,0,54360.2,0.100181,0.0998452,4.42824,28,0.0049158,10,0.000442139,-2.35377,0.332048,0.177685,30.7191,0.0998452,
2,1,0,1,0,54360.2,0.101675,0.101318,4.47925,28,0.00502711,10,0.00045383,-2.34879,0.308955,0.190966,33.4059,0.101318,
2,1,0,1,0,54360.3,0.103175,0.102812,4.53395,28,0.00514011,10,0.000466144,-2.34352,0.259664,0.227217,40.2606,0.102812,
2,1,0,1,0,54360.3,0.104674,0.104305,4.59447,28,0.00525463,10,0.000479228,-2.33776,0.241268,0.244541,43.9017,0.104305,
2,1,0,1,0,54360.3,0.106169,0.105799,4.65692,28,0.00537026,10,0.000492698,-2.3319,0.264033,0.223457,40.6543,0.105799,
2,1,0,1,0,54360.3,0.107668,0.107316,4.72908,28,0.00548799,10,0.000507505,-2.32522,0.244918,0.240897,44.463,0.107316,
2,1,0,1,0,54360.4,0.109169,0.10881,4.79981,28,0.00560739,10,0.000522269,-2.31878,0.217703,0.271011,50.7852,0.10881,
2,1,0,1,0,54360.4,0.110663,0.110302,4.8687,28,0.00572815,10,0.000537027,-2.31259,0.214582,0.274954,52.2731,0.110302,
2,1,0,1,0,54360.4,0.112163,0.111812,4.94543,28,0.0058513,10,0.00055296,-2.3058,0.235032,0.251029,48.4405,0.111812,
2,1,0,1,0,54360.4,0.113662,0.113319,5.02123,28,0.00597629,10,0.000569003,-2.29919,0.248376,0.237543,46.5154,0.113319,
2,1,0,1,0,54360.5,0.115162,0.114774,5.09041,28,0.00610303,10,0.000584249,-2.29325,0.242726,0.243073,48.2869,0.114774,
2,1,0,1,0,54360.5,0.116656,0.116287,5.16198,28,0.00623108,10,0.000600273,-2.28718,0.237837,0.248069,49.977,0.116287,
2,1,0,1,0,54360.5,0.118157,0.117807,5.23268,28,0.00636145,10,0.000616447,-2.28128,0.276968,0.213021,43.4971,0.117807,
2,1,0,1,0,54360.5,0.119657,0.119295,5.30198,28,0.00649354,10,0.000632499,-2.27556,0.312199,0.188982,39.0186,0.1192949,
2,1,0,1,0,54360.6,0.121152,0.120793,5.36051,28,0.00662656,10,0.00064751,-2.27079,0.310705,0.189891,39.6608,0.120793,
2,1,0,1,0,54360.6,0.122651,0.122323,5.40902,28,0.00676156,10,0.000661647,-2.26688,0.32244,0.18298,38.6143,0.122323,
2,1,0,1,0,54360.6,0.124151,0.123793,5.46106,28,0.00689796,10,0.000676043,-2.26272,0.374954,0.157352,33.5324,0.123793,
2,1,0,1,0,54360.6,0.125649,0.125292,5.51308,28,0.00703558,10,0.000690747,-2.25861,0.465038,0.126871,27.2529,0.125292,
2,1,0,1,0,54360.7,0.127143,0.126797,5.55446,28,0.00717379,10,0.000704291,-2.25536,0.454762,0.129738,28.1086,0.126797,
2,1,0,1,0,54360.7,0.128644,0.128271,5.59099,28,0.00731346,10,0.000717163,-2.25251,0.517855,0.113932,24.8523,0.128271,
2,1,0,1,0,54360.7,0.130145,0.1298,5.62499,28,0.0074541,10,0.000730122,-2.24988,0.623897,0.0945669,20.7498,0.1298,
2,1,0,1,0,54360.7,0.131639,0.131316,5.66302,28,0.00759501,10,0.000743642,-2.24695,0.833597,0.0707776,15.5989,0.1313155,
2,1,0,1,0,54360.8,0.133139,0.132796,5.68419,28,0.00773719,10,0.000754835,-2.24533,0.83357,0.0707799,15.6876,0.132796,
2,1,0,1,0,54360.8,0.134638,0.134313,5.70119,28,0.00787989,10,0.000765742,-2.24403,0.894072,0.0659902,14.6948,0.134313,
2,1,0,1,0,54360.8,0.136132,0.135774,5.72077,28,0.00802254,10,0.00077673,-2.24255,1.29747,0.0454732,10.1556,0.135774,
2,1,0,1,0,54360.8,0.137633,0.13731,5.74409,28,0.00816628,10,0.000788718,-2.24078,1.70198,0.0346656,7.75665,0.13731,
2,1,0,1,0,54360.9,0.139133,0.138795,5.75789,28,0.00831036,10,0.000799166,-2.23974,3.44714,0.0171156,3.83524,0.138795,
2,1,0,1,0,54360.9,0.140627,0.140295,5.75157,28,0.00845394,10,0.000806918,-2.24021,-77.3655,-0.000762614,-0.170972,0.140295,
2,1,0,1,0,54360.9,0.142126,0.141822,5.73663,28,0.008598,10,0.000813577,-2.24134,-1.69578,-0.0347922,-7.78856,0.141822,
2,1,0,1,0,54360.9,0.143626,0.143241,5.73003,28,0.00874185,10,0.000820775,-2.24184,-0.765364,-0.0770875,-17.1856,0.143241,
2,1,0,1,0,54361,0.145125,0.144794,5.69731,28,0.00888506,10,0.000824936,-2.24433,-0.479497,-0.123046,-27.2737,0.144794,
2,1,0,1,0,54361,0.14662,0.146238,5.63181,28,0.00902662,10,0.000823586,-2.24935,-0.345994,-0.170523,-37.4568,0.1462384,
2,1,0,1,0,54361,0.14812,0.147776,5.57176,28,0.00916723,10,0.000823372,-2.25401,-0.242165,-0.243636,-52.8665,0.147776,
2,1,0,1,0,54361,0.149621,0.149258,5.49531,28,0.00930597,10,0.000820221,-2.26001,-0.1949,-0.30272,-64.6133,0.149258,
2,1,0,1,0,54361.1,0.151116,0.150794,5.39736,28,0.00944186,10,0.00081389,-2.26782,-0.167433,-0.352379,-73.7807,0.150794,
2,1,0,1,0,54361.1,0.152615,0.152242,5.2626,28,0.00957545,10,0.00080119,-2.2788,-0.143294,-0.411742,-84.4494,0.152242,
2,1,0,1,0,54361.1,0.154115,0.153762,5.12384,28,0.00970573,10,0.000787852,-2.2904,-0.123388,-0.478168,-95.6152,0.153762,
2,1,0,1,0,54361.1,0.155614,0.155253,4.98026,28,0.00983252,10,0.000773201,-2.30275,-0.113951,-0.517767,-100.456,0.155253,
2,1,0,1,0,54361.2,0.157107,0.15677,4.82895,28,0.00995508,10,0.000757033,-2.31615,-0.105702,-0.558174,-104.915,0.15677,
2,1,0,1,0,54361.2,0.158608,0.158251,4.66204,28,0.0100741,10,0.00073777,-2.33142,-0.0998743,-0.590742,-107.474,0.158251,
2,1,0,1,0,54361.2,0.160109,0.159749,4.50089,28,0.010189,10,0.000719012,-2.3467,-0.0958219,-0.615725,-108.246,0.1597487,
2,1,0,1,0,54361.2,0.161603,0.161251,4.34693,28,0.0102995,10,0.000700945,-2.36182,-0.0950481,-0.620738,-105.226,0.161251,
2,1,0,1,0,54361.3,0.163102,0.162785,4.19446,28,0.0104066,10,0.000682793,-2.37732,-0.0985222,-0.59885,-97.993,0.162785,
2,1,0,1,0,54361.3,0.164602,0.164254,4.04778,28,0.01051,10,0.000664862,-2.39278,-0.0997822,-0.591288,-93.5758,0.164254,
2,1,0,1,0,54361.3,0.166096,0.165735,3.90905,28,0.0106094,10,0.000647867,-2.40793,-0.10594,-0.556919,-85.2353,0.165735,
2,1,0,1,0,54361.3,0.167597,0.167225,3.79006,28,0.010706,10,0.000633792,-2.42135,-0.110928,-0.531875,-78.7983,0.167225,
2,1,0,1,0,54361.4,0.169098,0.168747,3.67854,28,0.0107997,10,0.000620744,-2.43432,-0.116238,-0.50758,-72.8628,0.168747,
2,1,0,1,0,54361.4,0.170592,0.170205,3.5654,28,0.0108903,10,0.000606848,-2.44789,-0.121923,-0.483914,-67.5182,0.170205,
2,1,0,1,0,54361.4,0.17209,0.171732,3.46872,28,0.0109786,10,0.000595691,-2.45983,-0.126169,-0.467626,-63.4744,0.171732,
2,1,0,1,0,54361.4,0.17359,0.17324,3.37776,28,0.0110645,10,0.000585164,-2.47137,-0.134197,-0.439653,-58.0897,0.17324,
2,1,0,1,0,54361.5,0.175089,0.17476,3.3007,28,0.0111484,10,0.000576831,-2.48139,-0.147509,-0.399974,-51.5161,0.17476,
2,1,0,1,0,54361.5,0.176583,0.176237,3.22177,28,0.0112299,10,0.000567795,-2.49191,-0.156978,-0.375848,-47.3293,0.1762369,
2,1,0,1,0,54361.5,0.178084,0.177714,3.14713,28,0.01131,10,0.000559288,-2.50209,-0.163,-0.361964,-44.6606,0.177714,
2,1,0,1,0,54361.5,0.179585,0.179245,3.09377,28,0.0113884,10,0.000554542,-2.50951,-0.177373,-0.332632,-40.1966,0.179245,
2,1,0,1,0,54361.6,0.181079,0.18076,3.03861,28,0.0114651,10,0.000549261,-2.51732,-0.192478,-0.306529,-36.3257,0.18076,
2,1,0,1,0,54361.6,0.182579,0.18225,2.98402,28,0.0115408,10,0.000543837,-2.5252,-0.209246,-0.281965,-32.8746,0.18225,
2,1,0,1,0,54361.6,0.184078,0.183732,2.93564,28,0.0116152,10,0.000539371,-2.5323,-0.205974,-0.286444,-32.9102,0.183732,
2,1,0,1,0,54361.6,0.185578,0.185236,2.89352,28,0.0116884,10,0.000535983,-2.53857,-0.234541,-0.251556,-28.4541,0.185236,
2,1,0,1,0,54361.7,0.187072,0.186738,2.85835,28,0.0117604,10,0.000533763,-2.54388,-0.274786,-0.214713,-23.9039,0.186738,
2,1,0,1,0,54361.7,0.188573,0.188273,2.81847,28,0.0118317,10,0.000530641,-2.54999,-0.315039,-0.187278,-20.6335,0.1882727,
2,1,0,1,0,54361.7,0.190072,0.189689,2.78363,28,0.0119021,10,0.000528022,-2.55539,-0.291454,-0.202433,-22.012,0.189689,
2,1,0,1,0,54361.7,0.191567,0.191169,2.75001,28,0.0119714,10,0.000525717,-2.56067,-0.323814,-0.182203,-19.597,0.191169,
2,1,0,1,0,54361.8,0.193066,0.192694,2.72492,28,0.0120403,10,0.000525074,-2.56465,-0.418941,-0.140831,-14.9938,0.192694,
2,1,0,1,0,54361.8,0.194566,0.194254,2.69948,28,0.0121086,10,0.000524384,-2.56872,-0.419329,-0.140701,-14.8554,0.194254,
2,1,0,1,0,54361.8,0.19606,0.195725,2.67798,28,0.012176,10,0.000524149,-2.57219,-0.360597,-0.163618,-17.1295,0.195725,
2,1,0,1,0,54361.8,0.197561,0.197225,2.65295,28,0.012243,10,0.000523228,-2.57627,-0.409992,-0.143905,-14.9213,0.197225,
2,1,0,1,0,54361.9,0.199062,0.198715,2.64068,28,0.0123095,10,0.000524743,-2.57828,-0.530979,-0.111116,-11.4292,0.1987152,
2,1,0,1,0,54361.9,0.200556,0.200199,2.61551,28,0.0123752,10,0.000523622,-2.58244,-0.579442,-0.101822,-10.393,0.2001988,
2,1,0,1,0,54361.9,0.202055,0.201709,2.5963,28,0.0124408,10,0.000523698,-2.58564,-0.464845,-0.126924,-12.8746,0.201709,
2,1,0,1,0,54361.9,0.203553,0.203209,2.58121,28,0.012506,10,0.000524526,-2.58818,-0.519293,-0.113616,-11.4536,0.203209,
2,1,0,1,0,54362,0.205053,0.20466,2.56581,28,0.0125707,10,0.000525118,-2.59078,-1.04764,-0.0563171,-5.65478,0.20466,
2,1,0,1,0,54362,0.206547,0.206197,2.54971,28,0.0126348,10,0.000525743,-2.59351,-1.1317,-0.0521339,-5.20094,0.206197,
2,1,0,1,0,54362,0.208048,0.207761,2.54556,28,0.012699,10,0.000528866,-2.59422,-0.671152,-0.0879086,-8.72406,0.2077606,
2,1,0,1,0,54362,0.209549,0.209196,2.53708,28,0.0127629,10,0.000530747,-2.59567,-0.52413,-0.112567,-11.1211,0.209196,
2,1,0,1,0,54362.1,0.211043,0.210675,2.52374,28,0.0128261,10,0.000531688,-2.59796,-0.843111,-0.0699789,-6.87668,0.2106749,
2,1,0,1,0,54362.1,0.212543,0.212187,2.51015,28,0.0128893,10,0.00053262,-2.6003,-1.0814,-0.0545587,-5.34677,0.212187,
2,1,0,1,0,54362.1,0.214042,0.213674,2.49788,28,0.0129523,10,0.000533731,-2.60243,-0.748972,-0.0787746,-7.68412,0.213674,
2,1,0,1,0,54362.1,0.215536,0.215185,2.49079,28,0.0130148,10,0.000535981,-2.60366,-0.756648,-0.0779755,-7.56007,0.2151853,
2,1,0,1,0,54362.2,0.217036,0.216705,2.47974,28,0.0130772,10,0.000537371,-2.60559,-1.52046,-0.038804,-3.75313,0.216705,
2,1,0,1,0,54362.2,0.218537,0.218191,2.46974,28,0.0131394,10,0.000538874,-2.60735,-1.77528,-0.0332342,-3.20549,0.2181908,
2,1,0,1,0,54362.2,0.220031,0.219702,2.46282,28,0.0132012,10,0.000541086,-2.60857,-0.973669,-0.0605955,-5.82575,0.219702,
2,1,0,1,0,54362.2,0.22153,0.221206,2.46238,28,0.0132632,10,0.000544693,-2.60865,-0.938948,-0.0628363,-6.01639,0.221206,
2,1,0,1,0,54362.3,0.22303,0.222682,2.4482,28,0.0133248,10,0.000545171,-2.61115,-1.34679,-0.0438078,-4.18721,0.222682,
2,1,0,1,0,54362.3,0.22453,0.224246,2.4371,28,0.0133863,10,0.000546511,-2.61313,-1.48669,-0.0396854,-3.77997,0.2242465,
2,1,0,1,0,54362.3,0.226024,0.225693,2.43559,28,0.0134474,10,0.000549696,-2.61339,-1.12399,-0.0524915,-4.98818,0.225693,
2,1,0,1,0,54362.3,0.227525,0.227212,2.42988,28,0.0135086,10,0.000552098,-2.61442,-0.865511,-0.0681679,-6.44892,0.227212,
2,1,0,1,0,54362.4,0.229025,0.22868,2.42533,28,0.0135696,10,0.000554624,-2.61523,-1.58594,-0.037202,-3.51737,0.22868,
2,1,0,1,0,54362.4,0.23052,0.230159,2.41471,28,0.0136302,10,0.000555766,-2.61714,-1.76001,-0.0335225,-3.16549,0.230159,
2,1,0,1,0,54362.4,0.232019,0.231656,2.41059,28,0.0136909,10,0.000558427,-2.61788,-1.55027,-0.0380579,-3.58779,0.231656,
2,1,0,1,0,54362.4,0.233519,0.233191,2.41256,28,0.0137515,10,0.000562588,-2.61752,-1.31108,-0.045001,-4.2224,0.233191,
2,1,0,1,0,54362.5,0.235018,0.234697,2.40738,28,0.0138121,10,0.000565005,-2.61846,-2.00156,-0.029477,-2.75994,0.234697,
2,1,0,1,0,54362.5,0.236511,0.236193,2.38986,28,0.0138721,10,0.000564469,-2.62163,-1.82216,-0.0323791,-3.03171,0.236193,
2,1,0,1,0,54362.5,0.238012,0.237635,2.38964,28,0.0139323,10,0.000567862,-2.62167,-2.02029,-0.0292037,-2.72534,0.237635,
2,1,0,1,0,54362.5,0.239513,0.239179,2.39288,28,0.0139924,10,0.000572328,-2.62108,-1.4042,-0.0420167,-3.91005,0.239179,
2,1,0,1,0,54362.6,0.241007,0.240731,2.38342,28,0.0140522,10,0.000573763,-2.6228,-1.40735,-0.0419228,-3.89536,0.240731,
2,1,0,1,0,54362.6,0.242506,0.242148,2.37005,28,0.0141121,10,0.000573902,-2.62524,-1.64699,-0.0358229,-3.32864,0.242148,
2,1,0,1,0,54362.6,0.244006,0.243635,2.37142,28,0.0141718,10,0.000577761,-2.62499,-1.97523,-0.02987,-2.77359,0.243635,
2,1,0,1,0,54362.6,0.2455,0.245226,2.37433,28,0.0142313,10,0.000582249,-2.62446,-1.5104,-0.0390626,-3.6115,0.245226,
2,1,0,1,0,54362.7,0.247001,0.246701,2.36798,28,0.014291,10,0.000584183,-2.62562,-1.9956,-0.029565,-2.7271,0.246701,
2,1,0,1,0,54362.7,0.248502,0.248156,2.35829,28,0.0143505,10,0.000585223,-2.6274,-3.14254,-0.0187746,-1.73305,0.248156,
2,1,0,1,0,54362.7,0.249995,0.249676,2.35665,28,0.0144096,10,0.000588399,-2.6277,-1.14904,-0.0513473,-4.73513,0.249676,
2,1,0,1,0,54362.7,0.251494,0.251183,2.35754,28,0.0144689,10,0.000592173,-2.62754,-1.37245,-0.0429889,-3.9494,0.251183,
2,1,0,1,0,54362.8,0.252994,0.252629,2.34966,28,0.0145281,10,0.000593591,-2.629,-2.2134,-0.0266559,-2.4423,0.252629,
2,1,0,1,0,54362.8,0.254493,0.254196,2.34419,28,0.0145872,10,0.000595885,-2.63001,-8.046,-0.00733284,-0.672703,0.254196,
2,1,0,1,0,54362.8,0.255988,0.255624,2.33905,28,0.0146459,10,0.000597916,-2.63096,-1.79094,-0.0329436,-3.01323,0.255624,
2,1,0,1,0,54362.8,0.257488,0.257144,2.3415,28,0.0147049,10,0.000602105,-2.63051,-2.28429,-0.0258286,-2.35853,0.257144,
2,1,0,1,0,54362.9,0.258989,0.25866,2.34021,28,0.0147638,10,0.000605318,-2.63075,-4.74472,-0.0124349,-1.13284,0.25866,
2,1,0,1,0,54362.9,0.260483,0.260206,2.33278,28,0.0148224,10,0.000607003,-2.63213,-2.00293,-0.0294569,-2.68431,0.260206,
2,1,0,1,0,54362.9,0.261983,0.261631,2.32426,28,0.014881,10,0.000608097,-2.63372,-1.75161,-0.0336834,-3.06283,0.261631,
2,1,0,1,0,54362.9,0.263482,0.263201,2.32902,28,0.0149396,10,0.000613001,-2.63283,-3.64701,-0.0161777,-1.46796,0.263201,
2,1,0,1,0,54363,0.264982,0.264676,2.32186,28,0.0149981,10,0.000614542,-2.63416,-8.61537,-0.00684822,-0.621203,0.264676,
2,1,0,1,0,54363,0.266476,0.266108,2.32063,28,0.0150564,10,0.000617537,-2.63439,-2.21033,-0.0266928,-2.41675,0.266108,
2,1,0,1,0,54363,0.267976,0.267633,2.31023,28,0.0151147,10,0.000618292,-2.63635,-1.45507,-0.0405479,-3.6663,0.267633,
2,1,0,1,0,54363,0.269477,0.26914,2.31543,28,0.0151729,10,0.000623174,-2.63537,-3.20106,-0.0184314,-1.66292,0.26914,
2,1,0,1,0,54363.1,0.270971,0.270652,2.31749,28,0.0152309,10,0.000627235,-2.63498,-6.18102,-0.00954535,-0.859705,0.270652,
2,1,0,1,0,54363.1,0.27247,0.272156,2.30537,28,0.0152891,10,0.000627419,-2.63726,-3.4795,-0.0169564,-1.52766,0.272156,
2,1,0,1,0,54363.1,0.27397,0.273627,2.2996,28,0.0153471,10,0.000629233,-2.63835,-1.4361,-0.0410836,-3.69803,0.273627,
2,1,0,1,0,54363.1,0.275464,0.275132,2.30096,28,0.0154048,10,0.000633066,-2.63809,-1.16806,-0.0505111,-4.53824,0.275132,
2,1,0,1,0,54363.2,0.276965,0.276609,2.2987,28,0.0154627,10,0.000635842,-2.63852,-13.0836,-0.00450948,-0.404426,0.2766093,
2,1,0,1,0,54363.2,0.278466,0.278083,2.29497,28,0.0155204,10,0.000638193,-2.63922,-2.16355,-0.02727,-2.43971,0.278083,
2,1,0,1,0,54363.2,0.27996,0.279607,2.288,28,0.0155779,10,0.000639742,-2.64054,-1.71168,-0.0344691,-3.08028,0.279607,
2,1,0,1,0,54363.2,0.281458,0.281103,2.28496,28,0.0156354,10,0.000642309,-2.64112,-1.88887,-0.0312356,-2.78345,0.281103,
2,1,0,1,0,54363.3,0.282958,0.282666,2.28465,28,0.0156929,10,0.000645793,-2.64118,-5.4062,-0.0109134,-0.971141,0.282666,
2,1,0,1,0,54363.3,0.284457,0.284149,2.27736,28,0.0157503,10,0.00064711,-2.64257,-22.3828,-0.00263596,-0.234609,0.284149,
2,1,0,1,0,54363.3,0.285951,0.285646,2.27462,28,0.0158074,10,0.000649735,-2.64309,-1.16717,-0.0505497,-4.49328,0.285646,
2,1,0,1,0,54363.3,0.287452,0.287127,2.27101,28,0.0158647,10,0.000652067,-2.64378,-1.24627,-0.0473413,-4.19678,0.287127,
2,1,0,1,0,54363.4,0.288953,0.288629,2.26893,28,0.0159218,10,0.000654877,-2.64418,-4.30062,-0.0137189,-1.21361,0.288629,
2,1,0,1,0,54363.4,0.290447,0.290123,2.26167,28,0.0159786,10,0.000656163,-2.64557,-12.1119,-0.00487124,-0.430691,0.290123,
2,1,0,1,0,54363.4,0.291947,0.291602,2.25935,28,0.0160355,10,0.000658831,-2.64602,-1.45545,-0.0405374,-3.57576,0.291602,
2,1,0,1,0,54363.4,0.293446,0.293089,2.25415,28,0.0160924,10,0.000660665,-2.64702,-1.75675,-0.0335847,-2.96016,0.293089,
2,1,0,1,0,54363.5,0.29494,0.294609,2.25463,28,0.0161489,10,0.000664235,-2.64692,-2.9331,-0.0201152,-1.7686,0.294609,
2,1,0,1,0,54363.5,0.29644,0.296129,2.25288,28,0.0162056,10,0.000667144,-2.64726,-13.088,-0.00450794,-0.396026,0.296129,
2,1,0,1,0,54363.5,0.297941,0.2976,2.24373,28,0.0162622,10,0.000667733,-2.64903,-1.44217,-0.0409106,-3.58342,0.2976,
2,1,0,1,0,54363.5,0.29944,0.299114,2.24645,28,0.0163187,10,0.000671944,-2.6485,-0.00852011,-6.9248,-481.728,0.299114,
2,1,0,1,0,54363.5,0.299736,0.299384,1.84834,28,0.016348,10,0.000553363,-2.73322,0.00202353,29.1569,1373.55,0.299384,
2,1,0,1,0,54363.6,0.298238,0.29793,0.776379,28,0.0163785,10,0.000231307,-3.10993,0.00268657,21.9611,580.848,0.29793,
2,1,0,1,0,54363.6,0.296744,0.296388,0.233226,28,0.0163899,10,6.91253e-05,-3.63222,0.00533781,11.0532,306.821,0.296388,
2,0,0,1,0,54363.6,0.295243,0.294847,-0.105972,28,0.0163907,10,-3.12456e-05,-3.97481,0.613309,0.0961995,187.066,0.294847,
2,0,0,1,0,54363.6,0.293742,0.293388,-0.327035,28,0.0163847,10,-9.59481e-05,-3.48541,-0.00219158,-26.9213,128.447,0.293388,
2,0,0,1,0,54363.7,0.292248,0.291877,-0.477128,28,0.0163743,10,-0.000139263,-3.32136,-0.0101848,-5.79295,93.7194,0.291877,
2,0,0,1,0,54363.7,0.290748,0.290421,-0.588515,28,0.0163604,10,-0.000170917,-3.23024,-0.0180305,-3.27223,71.5427,0.290421,
2,0,0,1,0,54363.7,0.289249,0.28893,-0.688145,28,0.0163439,10,-0.000198826,-3.16232,-0.027383,-2.15462,55.7803,0.28893,
2,0,0,1,0,54363.7,0.287754,0.287385,-0.764897,28,0.0163254,10,-0.00021982,-3.1164,-0.0371687,-1.58736,46.1852,0.287385,
2,0,0,1,0,54363.8,0.286254,0.285874,-0.819324,28,0.0163052,10,-0.000234223,-3.08654,-0.0470073,-1.25512,39.7918,0.285874,
2,0,0,1,0,54363.8,0.284754,0.284434,-0.872328,28,0.0162835,10,-0.00024812,-3.05932,-0.0581783,-1.01412,34.3843,0.284434,
2,0,0,1,0,54363.8,0.28326,0.282897,-0.924882,28,0.0162607,10,-0.000261646,-3.03391,-0.0738046,-0.799408,28.6648,0.282897,
2,0,0,1,0,54363.8,0.28176,0.281417,-0.968798,28,0.0162365,10,-0.000272636,-3.01377,-0.0791801,-0.745136,27.8674,0.281417,
2,0,0,1,0,54363.9,0.280261,0.279896,-1.00212,28,0.0162115,10,-0.00028049,-2.99908,-0.0915974,-0.644123,25.1868,0.279896,
2,0,0,1,0,54363.9,0.278761,0.278396,-1.03242,28,0.0161855,10,-0.000287423,-2.98614,-0.104348,-0.565415,22.8693,0.278396,
2,0,0,1,0,54363.9,0.277267,0.276929,-1.07317,28,0.0161588,10,-0.000297193,-2.96933,-0.129105,-0.456991,19.0795,0.276929,
2,0,0,1,0,54363.9,0.275766,0.275445,-1.10499,28,0.0161311,10,-0.000304364,-2.95664,-0.124924,-0.472289,20.2194,0.275445,
2,0,0,1,0,54364,0.274265,0.273927,-1.13285,28,0.0161028,10,-0.00031032,-2.94583,-0.14343,-0.41135,18.1135,0.273927,
2,0,0,1,0,54364,0.272771,0.27243,-1.15638,28,0.0160739,10,-0.000315032,-2.9369,-0.158036,-0.373332,16.8543,0.27243,
2,0,0,1,0,54364,0.271272,0.270923,-1.18273,28,0.0160443,10,-0.00032043,-2.92711,-0.170953,-0.345123,15.878,0.2709235,
2,0,0,1,0,54364,0.269772,0.269407,-1.21127,28,0.0160139,10,-0.000326324,-2.91676,-0.173483,-0.340091,15.9605,0.269407,
2,0,0,1,0,54364.1,0.268273,0.267936,-1.23092,28,0.015983,10,-0.000329807,-2.90977,-0.184187,-0.320327,15.3705,0.267936,
2,0,0,1,0,54364.1,0.26678,0.266415,-1.25119,28,0.0159518,10,-0.000333334,-2.90268,-0.218841,-0.269602,13.1733,0.266415,
2,0,0,1,0,54364.1,0.265279,0.264935,-1.27435,28,0.0159198,10,-0.000337621,-2.89471,-0.208096,-0.283523,14.0605,0.2649349,
2,0,0,1,0,54364.1,0.263778,0.263427,-1.29149,28,0.0158874,10,-0.000340215,-2.88891,-0.217219,-0.271615,13.6469,0.2634275,
2,0,0,1,0,54364.2,0.262284,0.261953,-1.30941,28,0.0158545,10,-0.000343004,-2.88292,-0.214019,-0.275677,14.0816,0.261953,
2,0,0,1,0,54364.2,0.260784,0.260435,-1.32436,28,0.0158211,10,-0.00034491,-2.87799,-0.262803,-0.224503,11.6244,0.260435,
2,0,0,1,0,54364.2,0.259285,0.258944,-1.34776,28,0.0157872,10,-0.000348995,-2.87039,-0.260533,-0.226459,11.9278,0.258944,
2,0,0,1,0,54364.2,0.257791,0.257423,-1.36922,28,0.015753,10,-0.000352468,-2.86353,-0.275496,-0.21416,11.3943,0.257423,
2,0,0,1,0,54364.3,0.25629,0.255991,-1.38253,28,0.0157182,10,-0.000353917,-2.85932,-0.260813,-0.226216,12.1868,0.255991,
2,0,0,1,0,54364.3,0.254789,0.254419,-1.39194,28,0.015683,10,-0.000354134,-2.85638,-0.339231,-0.173923,9.49443,0.254419,
2,0,0,1,0,54364.3,0.253296,0.252947,-1.41456,28,0.0156476,10,-0.000357808,-2.84938,-0.351901,-0.167661,9.25191,0.252947,
2,0,0,1,0,54364.3,0.251797,0.251446,-1.43192,28,0.0156116,10,-0.000360051,-2.84408,-0.341797,-0.172617,9.61116,0.251446,
2,0,0,1,0,54364.4,0.250297,0.249958,-1.44188,28,0.0155752,10,-0.000360409,-2.84107,-0.284731,-0.207213,11.6885,0.249958,
2,0,0,1,0,54364.4,0.248797,0.248416,-1.45761,28,0.0155384,10,-0.000362094,-2.83636,-0.429988,-0.137213,7.82201,0.248416,
2,0,0,1,0,54364.4,0.247303,0.246913,-1.47374,28,0.0155015,10,-0.000363885,-2.83158,-0.410722,-0.14365,8.28332,0.246913,
2,0,0,1,0,54364.4,0.245802,0.245465,-1.49229,28,0.015464,10,-0.000366305,-2.82615,-0.345563,-0.170736,9.91244,0.245465,
2,0,0,1,0,54364.5,0.244302,0.243986,-1.5046,28,0.0154261,10,-0.000367101,-2.82258,-0.325083,-0.181492,10.6552,0.243986,
2,0,0,1,0,54364.5,0.242807,0.242435,-1.51972,28,0.015388,10,-0.000368434,-2.81824,-0.436172,-0.135268,8.02585,0.242435,
2,0,0,1,0,54364.5,0.241308,0.240943,-1.53196,28,0.0153495,10,-0.000369116,-2.81475,-0.602803,-0.0978761,5.84993,0.240943,
2,0,0,1,0,54364.5,0.239808,0.239479,-1.54698,28,0.0153106,10,-0.00037047,-2.81051,-0.343111,-0.171956,10.3503,0.239479,
2,0,0,1,0,54364.6,0.238309,0.237921,-1.55733,28,0.0152714,10,-0.000370521,-2.80762,-0.317234,-0.185983,11.3149,0.237921,
2,0,0,1,0,54364.6,0.236815,0.236487,-1.56944,28,0.015232,10,-0.000371151,-2.80426,-0.521949,-0.113038,6.94228,0.236487,
2,0,0,1,0,54364.6,0.235315,0.234981,-1.58126,28,0.0151921,10,-0.000371567,-2.801,-0.460795,-0.128039,7.90949,0.234981,
2,0,0,1,0,54364.6,0.233814,0.233457,-1.60479,28,0.0151519,10,-0.00037465,-2.79458,-0.420217,-0.140404,8.74972,0.233457,
2,0,0,1,0,54364.7,0.23232,0.23195,-1.61259,28,0.0151116,10,-0.00037404,-2.79248,-0.35455,-0.166408,10.4502,0.23195,
2,0,0,1,0,54364.7,0.230821,0.230495,-1.61844,28,0.0150707,10,-0.000373041,-2.7909,-0.593451,-0.0994185,6.30047,0.230495,
2,0,0,1,0,54364.7,0.229321,0.228926,-1.63111,28,0.0150296,10,-0.000373404,-2.78752,-0.508704,-0.115981,7.39437,0.228926,
2,0,0,1,0,54364.7,0.227827,0.227473,-1.64693,28,0.0149883,10,-0.000374633,-2.78332,-0.463838,-0.1272,8.18907,0.227473,
2,0,0,1,0,54364.8,0.226326,0.225964,-1.65719,28,0.0149466,10,-0.000374464,-2.78063,-0.388563,-0.151841,9.84792,0.225964,
2,0,0,1,0,54364.8,0.224825,0.224473,-1.67162,28,0.0149045,10,-0.000375233,-2.77686,-0.590147,-0.0999751,6.52081,0.224473,
2,0,0,1,0,54364.8,0.223331,0.222979,-1.68329,28,0.0148623,10,-0.000375337,-2.77384,-0.478977,-0.123179,8.08056,0.222979,
2,0,0,1,0,54364.8,0.221831,0.221488,-1.70323,28,0.0148197,10,-0.000377245,-2.76873,-0.428132,-0.137808,9.10458,0.221488,
2,0,0,1,0,54364.9,0.220333,0.219977,-1.70561,28,0.0147767,10,-0.000375194,-2.76812,-0.37523,-0.157237,10.4769,0.219977,
2,0,0,1,0,54364.9,0.218834,0.218474,-1.71433,28,0.0147334,10,-0.000374535,-2.76591,-0.546316,-0.107996,7.26623,0.218474,
2,0,0,1,0,54364.9,0.217339,0.216984,-1.7343,28,0.01469,10,-0.000376314,-2.76088,-0.852053,-0.0692445,4.67749,0.216984,
2,0,0,1,0,54364.9,0.215839,0.215507,-1.74179,28,0.0146462,10,-0.000375369,-2.759,-0.502332,-0.117452,7.98388,0.215507,
2,0,0,1,0,54365,0.214338,0.214026,-1.74978,28,0.0146021,10,-0.000374498,-2.75702,-0.441787,-0.133549,9.13232,0.214026,
2,0,0,1,0,54365,0.212844,0.212455,-1.76552,28,0.0145578,10,-0.000375093,-2.75313,-0.546524,-0.107955,7.44433,0.212455,
2,0,0,1,0,54365,0.211344,0.210964,-1.77942,28,0.0145131,10,-0.000375394,-2.74972,-0.67014,-0.0880414,6.1068,0.210964,
2,0,0,1,0,54365,0.209845,0.209494,-1.78777,28,0.014468,10,-0.000374527,-2.74769,-0.52756,-0.111836,7.80701,0.209494,
2,0,0,1,0,54365.1,0.20835,0.207957,-1.79987,28,0.0144229,10,-0.000374295,-2.74476,-0.370111,-0.159412,11.2437,0.207957,
2,0,0,1,0,54365.1,0.206851,0.206488,-1.81642,28,0.0143773,10,-0.000375068,-2.74078,-0.467374,-0.126237,8.94492,0.206488,
2,0,0,1,0,54365.1,0.20535,0.20502,-1.83549,28,0.0143312,10,-0.000376312,-2.73625,-0.86808,-0.0679661,4.83868,0.20502,
2,0,0,1,0,54365.1,0.203856,0.203514,-1.84564,28,0.014285,10,-0.000375613,-2.73385,-0.628163,-0.0939247,6.73515,0.2035138,
2,0,0,1,0,54365.2,0.202356,0.202008,-1.84819,28,0.0142385,10,-0.000373349,-2.73325,-0.473453,-0.124616,9.00632,0.202008,
2,0,0,1,0,54365.2,0.200857,0.200505,-1.85398,28,0.0141917,10,-0.000371733,-2.73189,-0.521341,-0.11317,8.23949,0.200505,
2,0,0,1,0,54365.2,0.199357,0.198992,-1.8771,28,0.0141445,10,-0.000373529,-2.72651,-0.700222,-0.084259,6.1611,0.198992,
2,0,0,1,0,54365.2,0.197863,0.197502,-1.89266,28,0.0140972,10,-0.000373804,-2.72293,-0.495203,-0.119143,8.76767,0.1975019,
2,0,0,1,0,54365.3,0.196362,0.196024,-1.8985,28,0.0140495,10,-0.000372151,-2.72159,-0.468632,-0.125898,9.31996,0.196024,
2,0,0,1,0,54365.3,0.194861,0.194482,-1.91016,28,0.0140015,10,-0.000371493,-2.71893,-0.504959,-0.116841,8.72188,0.194482,
2,0,0,1,0,54365.3,0.193367,0.192997,-1.93109,28,0.0139532,10,-0.000372695,-2.7142,-0.532536,-0.110791,8.3234,0.192997,
2,0,0,1,0,54365.3,0.191868,0.191526,-1.94146,28,0.0139045,10,-0.000371841,-2.71187,-0.561935,-0.104994,7.94422,0.191526,
2,0,0,1,0,54365.4,0.190368,0.190023,-1.94712,28,0.0138554,10,-0.000369998,-2.71061,-0.422793,-0.139548,10.6418,0.190023,
2,0,0,1,0,54365.4,0.18887,0.188476,-1.9646,28,0.013806,10,-0.000370278,-2.70673,-0.480585,-0.122767,9.41892,0.188476,
2,0,0,1,0,54365.4,0.187376,0.187015,-1.98024,28,0.0137565,10,-0.000370334,-2.70328,-0.539893,-0.109281,8.44787,0.187015,
2,0,0,1,0,54365.4,0.185875,0.185496,-1.99496,28,0.0137064,10,-0.000370057,-2.70007,-0.581485,-0.101464,7.88806,0.185496,
2,0,0,1,0,54365.5,0.184374,0.183995,-2.00249,28,0.0136559,10,-0.000368448,-2.69843,-0.41161,-0.14334,11.2354,0.183995,
2,0,0,1,0,54365.5,0.18288,0.182515,-2.0128,28,0.0136054,10,-0.000367367,-2.6962,-0.504928,-0.116848,9.24458,0.182515,
2,0,0,1,0,54365.5,0.18138,0.181063,-2.04176,28,0.0135542,10,-0.000369687,-2.68999,-0.451669,-0.130627,10.3863,0.181063,
2,0,0,1,0,54365.5,0.179881,0.179501,-2.06104,28,0.0135025,10,-0.000369958,-2.68591,-0.432258,-0.136492,10.9315,0.179501,
2,0,0,1,0,54365.6,0.178387,0.178018,-2.07096,28,0.0134507,10,-0.000368668,-2.68383,-0.425227,-0.138749,11.235,0.178018,
2,0,0,1,0,54365.6,0.176886,0.176541,-2.08414,28,0.0133983,10,-0.000367936,-2.68107,-0.457278,-0.129024,10.5268,0.176541,
2,0,0,1,0,54365.6,0.175385,0.175038,-2.1031,28,0.0133455,10,-0.000368121,-2.67714,-0.483359,-0.122062,10.0151,0.175038,
2,0,0,1,0,54365.6,0.173892,0.173546,-2.13483,28,0.0132924,10,-0.000370491,-2.67064,-0.359866,-0.16395,13.5712,0.1735462,
2,0,0,1,0,54365.7,0.172393,0.172027,-2.14279,28,0.0132387,10,-0.000368618,-2.66902,-0.349439,-0.168842,14.1128,0.172027,
2,0,0,1,0,54365.7,0.170893,0.170549,-2.1523,28,0.0131845,10,-0.000367073,-2.6671,-0.370747,-0.159138,13.436,0.170549,
2,0,0,1,0,54365.7,0.169393,0.169034,-2.18064,28,0.0131298,10,-0.000368601,-2.66142,-0.329893,-0.178846,15.2303,0.169034,
2,0,0,1,0,54365.7,0.167899,0.16757,-2.20686,28,0.0130747,10,-0.000369804,-2.65623,-0.328335,-0.179694,15.4715,0.16757,
2,0,0,1,0,54365.8,0.166398,0.166036,-2.22734,28,0.0130188,10,-0.000369819,-2.65221,-0.301642,-0.195596,17.0281,0.166036,
2,0,0,1,0,54365.8,0.164898,0.164559,-2.24558,28,0.0129624,10,-0.00036953,-2.64867,-0.327118,-0.180363,15.8687,0.164559,
2,0,0,1,0,54365.8,0.163403,0.163039,-2.27846,28,0.0129057,10,-0.000371478,-2.64236,-0.306981,-0.192194,17.0674,0.163039,
2,0,0,1,0,54365.8,0.161904,0.161545,-2.30775,28,0.0128479,10,-0.000372806,-2.63681,-0.267672,-0.220419,19.8273,0.1615449,
2,0,0,1,0,54365.9,0.160404,0.160058,-2.33886,28,0.0127895,10,-0.000374353,-2.631,-0.259872,-0.227035,20.6922,0.160058,
2,0,0,1,0,54365.9,0.158905,0.158536,-2.35871,28,0.0127302,10,-0.000373939,-2.62733,-0.261437,-0.225676,20.879,0.158536,
2,0,0,1,0,54365.9,0.157411,0.157072,-2.39739,28,0.0126705,10,-0.000376561,-2.62026,-0.245381,-0.240442,22.5504,0.157072,
2,0,0,1,0,54365.9,0.155911,0.155509,-2.44117,28,0.0126096,10,-0.000379625,-2.6124,-0.201923,-0.292191,27.7846,0.155509,
2,0,0,1,0,54366,0.15441,0.15405,-2.4793,28,0.0125477,10,-0.000381937,-2.60567,-0.202976,-0.290675,28.1062,0.15405,
2,0,0,1,0,54366,0.152916,0.152592,-2.52057,28,0.012485,10,-0.000384618,-2.5985,-0.203288,-0.290228,28.6086,0.152592,
2,0,0,1,0,54366,0.151417,0.151038,-2.56967,28,0.012421,10,-0.000388119,-2.59012,-0.189866,-0.310746,31.2156,0.151038,
2,0,0,1,0,54366,0.149917,0.14959,-2.62572,28,0.0123556,10,-0.000392782,-2.58075,-0.159982,-0.368792,37.7761,0.14959,
2,0,0,1,0,54366.1,0.148423,0.148065,-2.68349,28,0.0122891,10,-0.00039733,-2.5713,-0.141079,-0.418206,43.9061,0.148065,
2,0,0,1,0,54366.1,0.146922,0.146583,-2.74557,28,0.0122208,10,-0.000402454,-2.56137,-0.143215,-0.411968,44.2476,0.146583,
2,0,0,1,0,54366.1,0.145421,0.145024,-2.81747,28,0.0121508,10,-0.000408601,-2.55014,-0.132352,-0.44578,49.1051,0.145024,
2,0,0,1,0,54366.1,0.143927,0.143587,-2.90085,28,0.0120793,10,-0.000416524,-2.53748,-0.11408,-0.51718,58.5486,0.1435871,
2,0,0,1,0,54366.2,0.142429,0.142085,-2.98479,28,0.0120054,10,-0.000424093,-2.52509,-0.107768,-0.547473,63.8894,0.1420849,
2,0,0,1,0,54366.2,0.140929,0.140579,-3.07576,28,0.0119291,10,-0.000432388,-2.51205,-0.109699,-0.537836,64.8414,0.140579,
2,0,0,1,0,54366.2,0.13943,0.139055,-3.18036,28,0.0118503,10,-0.000442244,-2.49752,-0.107621,-0.548222,68.2173,0.139055,
2,0,0,1,0,54366.2,0.137935,0.137535,-3.29736,28,0.0117692,10,-0.000453502,-2.48183,-0.0999282,-0.590424,75.9438,0.137535,
2,0,0,1,0,54366.3,0.136435,0.136085,-3.40899,28,0.011685,10,-0.000463911,-2.46737,-0.0957882,-0.615942,82.0659,0.136085,
2,0,0,1,0,54366.3,0.134934,0.13457,-3.53584,28,0.0115978,10,-0.000475819,-2.45151,-0.0971262,-0.607457,83.7962,0.13457,
2,0,0,1,0,54366.3,0.13344,0.133109,-3.66463,28,0.0115077,10,-0.000487794,-2.43597,-0.0991618,-0.594987,85.0704,0.133109,
2,0,0,1,0,54366.3,0.13194,0.131613,-3.79782,28,0.0114141,10,-0.000499844,-2.42047,-0.097729,-0.603711,89.5252,0.131613,
2,0,0,1,0,54366.4,0.13044,0.130079,-3.93042,28,0.011317,10,-0.000511267,-2.40556,-0.09734,-0.606123,92.9068,0.130079,
2,0,0,1,0,54366.4,0.128941,0.128552,-4.067,28,0.0112165,10,-0.000522822,-2.39073,-0.106812,-0.552371,87.5828,0.128552,
2,0,0,1,0,54366.4,0.127447,0.127093,-4.20427,28,0.011113,10,-0.000534331,-2.37631,-0.112823,-0.522944,85.663,0.127093,
2,0,0,1,0,54366.4,0.125946,0.12556,-4.33509,28,0.011006,10,-0.000544313,-2.363,-0.115567,-0.510528,86.1662,0.12556,
2,0,0,1,0,54366.5,0.124446,0.124097,-4.45717,28,0.0108956,10,-0.000553121,-2.35094,-0.117169,-0.503545,87.512,0.124097,
2,0,0,1,0,54366.5,0.122952,0.122605,-4.58408,28,0.0107825,10,-0.000562032,-2.33875,-0.127099,-0.464206,83.0276,0.122605,
2,0,0,1,0,54366.5,0.121453,0.121114,-4.70301,28,0.0106659,10,-0.0005696,-2.32762,-0.141857,-0.415911,76.2749,0.121114,
2,0,0,1,0,54366.5,0.119953,0.119616,-4.82117,28,0.0105463,10,-0.00057669,-2.31685,-0.150871,-0.391063,73.5326,0.119616,
2,0,0,1,0,54366.6,0.118459,0.118143,-4.93023,28,0.0104244,10,-0.000582474,-2.30713,-0.148281,-0.397893,76.5501,0.118143,
2,0,0,1,0,54366.6,0.116958,0.116606,-5.04145,28,0.0102993,10,-0.000587864,-2.29744,-0.168329,-0.350504,68.8658,0.1166061,
2,0,0,1,0,54366.6,0.115457,0.115129,-5.14526,28,0.0101714,10,-0.000592366,-2.28859,-0.18741,-0.314819,63.1001,0.115129,
2,0,0,1,0,54366.6,0.113963,0.113606,-5.24225,28,0.0100417,10,-0.000595553,-2.28048,-0.196216,-0.300688,61.3431,0.113606,
2,0,0,1,0,54366.7,0.112464,0.112081,-5.32847,28,0.00990929,10,-0.000597221,-2.2734,-0.207046,-0.284961,59.1533,0.112081,
2,0,0,1,0,54366.7,0.110965,0.110625,-5.40393,28,0.00977468,10,-0.00059781,-2.26729,-0.229058,-0.257577,54.3131,0.110625,
2,0,0,1,0,54366.7,0.109466,0.109123,-5.48106,28,0.00963808,10,-0.000598109,-2.26114,-0.275839,-0.213893,45.685,0.109123,
2,0,0,1,0,54366.7,0.107972,0.107608,-5.55227,28,0.00950022,10,-0.000597468,-2.25553,-0.311365,-0.189488,40.974,0.107608,
2,0,0,1,0,54366.8,0.106471,0.106108,-5.60987,28,0.00936031,10,-0.000595252,-2.25105,-0.339103,-0.173988,38.0456,0.106108,
2,0,0,1,0,54366.8,0.10497,0.104624,-5.65784,28,0.00921902,10,-0.000591945,-2.24735,-0.411403,-0.143412,31.647,0.104624,
2,0,0,1,0,54366.8,0.103476,0.103165,-5.70307,28,0.00907708,10,-0.000588359,-2.24389,-0.599018,-0.0984946,21.8723,0.103165,
2,0,0,1,0,54366.8,0.101976,0.101636,-5.74185,28,0.0089336,10,-0.000583581,-2.24095,-0.759532,-0.0776794,17.3517,0.101636,
2,0,0,1,0,54366.9,0.100477,0.100129,-5.75467,28,0.00878954,10,-0.000576207,-2.23998,-1.02398,-0.0576181,12.9313,0.100129,
2,0,0,1,0,54366.9,0.0989825,0.0986389,-5.76448,28,0.00864565,10,-0.000568602,-2.23924,-1.97848,-0.0298209,6.70684,0.0986389,
2,0,0,1,0,54366.9,0.0974817,0.0971169,-5.77918,28,0.0085009,10,-0.000561256,-2.23813,39.2418,0.0015035,-0.33846,0.09711694,
2,0,0,1,0,54366.9,0.0959822,0.0956098,-5.77708,28,0.00835609,10,-0.000552346,-2.23829,2.62028,0.0225167,-5.06339,0.0956098,
2,0,0,1,0,54367,0.094488,0.0941951,-5.75563,28,0.0082121,10,-0.000542152,-2.23991,1.53662,0.0383959,-8.62173,0.0941951,
2,0,0,1,0,54367,0.0929884,0.0926291,-5.74076,28,0.00806791,10,-0.000531762,-2.24103,1.18802,0.0496624,-11.1317,0.0926291,
2,0,0,1,0,54367,0.0914889,0.0911344,-5.72415,28,0.00792413,10,-0.000521667,-2.24229,0.694443,0.0849602,-18.9599,0.0911344,
2,0,0,1,0,54367,0.0899894,0.0896149,-5.69813,28,0.00778087,10,-0.000510638,-2.24427,0.670897,0.087942,-19.5211,0.0896149,
2,0,0,1,0,54367.1,0.0884952,0.0881338,-5.65836,28,0.007639,10,-0.000498693,-2.24731,0.616993,0.095625,-21.1287,0.0881338,
2,0,0,1,0,54367.1,0.0869943,0.0866347,-5.62414,28,0.0074975,10,-0.000487246,-2.24994,0.557167,0.105893,-23.2659,0.0866347,
2,0,0,1,0,54367.1,0.0854935,0.085108,-5.59491,28,0.0073568,10,-0.000476171,-2.25221,0.500711,0.117832,-25.7064,0.085108,
2,0,0,1,0,54367.1,0.0839993,0.0836733,-5.56222,28,0.00721753,10,-0.000465409,-2.25475,0.496648,0.118796,-25.7551,0.0836733,
2,0,0,1,0,54367.2,0.0824998,0.0821381,-5.52625,28,0.00707857,10,-0.000453916,-2.25757,0.583789,0.101064,-21.7778,0.0821381,
2,0,0,1,0,54367.2,0.0810002,0.080641,-5.48339,28,0.00694055,10,-0.000442186,-2.26095,0.569395,0.103619,-22.2096,0.080641,
2,0,0,1,0,54367.2,0.0795007,0.0791442,-5.45639,28,0.00680333,10,-0.000431842,-2.26309,0.545784,0.108101,-23.0308,0.0791442,
2,0,0,1,0,54367.2,0.0780078,0.0776273,-5.4297,28,0.0066674,10,-0.000421493,-2.26522,0.643139,0.0917376,-19.4229,0.0776273,
2,0,0,1,0,54367.3,0.076507,0.0761586,-5.39816,28,0.00653165,10,-0.000411116,-2.26775,0.79463,0.0742484,-15.635,0.0761586,
2,0,0,1,0,54367.3,0.0750062,0.0746527,-5.36109,28,0.00639668,10,-0.00040022,-2.27075,0.667511,0.088388,-18.5331,0.0746527,
2,0,0,1,0,54367.3,0.073512,0.0731394,-5.34197,28,0.00626288,10,-0.000390709,-2.2723,0.71042,0.0830495,-17.3199,0.0731394,
2,0,0,1,0,54367.3,0.0720124,0.0716749,-5.32556,28,0.00612914,10,-0.000381709,-2.27363,0.853647,0.0691152,-14.3494,0.0716749,
2,0,0,1,0,54367.4,0.0705129,0.0701512,-5.29683,28,0.00599595,10,-0.000371579,-2.27598,0.893265,0.0660498,-13.6655,0.07015124,
2,0,0,1,0,54367.4,0.0690187,0.0686645,-5.27055,28,0.00586388,10,-0.0003619,-2.27814,0.82648,0.0713871,-14.7115,0.0686645,
2,0,0,1,0,54367.4,0.0675179,0.0671795,-5.25359,28,0.00573184,10,-0.000352934,-2.27954,0.731947,0.0806069,-16.5326,0.0671795,
2,0,0,1,0,54367.4,0.066017,0.0656809,-5.2411,28,0.00560025,10,-0.00034424,-2.28058,0.944131,0.0624913,-12.7623,0.0656809,
2,0,0,1,0,54367.5,0.0645242,0.0642148,-5.21786,28,0.00546965,10,-0.000335064,-2.28251,0.939288,0.0628135,-12.779,0.0642148,
2,0,0,1,0,54367.5,0.0630246,0.0626706,-5.18622,28,0.00533908,10,-0.000325023,-2.28515,0.816481,0.0722613,-14.6481,0.0626706,
2,0,0,1,0,54367.5,0.0615251,0.0611596,-5.16912,28,0.00520913,10,-0.000316141,-2.28658,0.705077,0.0836788,-16.8929,0.06115957,
2,0,0,1,0,54367.5,0.0600256,0.0596757,-5.15319,28,0.00507969,10,-0.00030752,-2.28792,0.79886,0.0738553,-14.8401,0.0596757,
2,0,0,1,0,54367.6,0.0585314,0.0581384,-5.12892,28,0.00495127,10,-0.000298187,-2.28997,0.872084,0.067654,-13.5334,0.0581384,
2,0,0,1,0,54367.6,0.0570305,0.0566832,-5.09616,28,0.00482289,10,-0.000288867,-2.29276,0.660032,0.0893896,-17.811,0.05668322,
2,0,0,1,0,54367.6,0.0555297,0.0551467,-5.07944,28,0.0046952,10,-0.000280115,-2.29418,0.647375,0.0911373,-18.0653,0.05514669,
2,0,0,1,0,54367.6,0.0540355,0.0536693,-5.06057,28,0.00456859,10,-0.000271598,-2.2958,0.790217,0.0746631,-14.7237,0.0536693,
2,0,0,1,0,54367.7,0.052536,0.0521282,-5.0381,28,0.00444199,10,-0.000262627,-2.29773,0.781588,0.0754873,-14.8176,0.05212817,
2,0,0,1,0,54367.7,0.0510364,0.050677,-5.00191,28,0.004316,10,-0.000253482,-2.30086,0.626331,0.0941994,-18.4185,0.050677,
2,0,0,1,0,54367.7,0.0495369,0.0491464,-4.98047,28,0.00419073,10,-0.000244772,-2.30273,0.619413,0.0952514,-18.5329,0.0491464,
2,0,0,1,0,54367.7,0.0480427,0.0476903,-4.95785,28,0.0040666,10,-0.000236441,-2.30471,0.768498,0.0767731,-14.8378,0.0476903,
2,0,0,1,0,54367.8,0.0465432,0.0461764,-4.92705,28,0.00394257,10,-0.000227513,-2.30741,0.743987,0.0793025,-15.2499,0.0461764,
2,0,0,1,0,54367.8,0.0450424,0.0447077,-4.89545,28,0.00381924,10,-0.000218864,-2.31021,0.57827,0.102029,-19.5137,0.0447077,
2,0,0,1,0,54367.8,0.0435482,0.0432077,-4.8705,28,0.00369711,10,-0.000210443,-2.31243,0.522593,0.112899,-21.4672,0.0432077,
2,0,0,1,0,54367.8,0.0420486,0.0417279,-4.85101,28,0.00357521,10,-0.000202422,-2.31417,0.595897,0.0990105,-18.7198,0.0417279,
2,0,0,1,0,54367.9,0.0405491,0.0401795,-4.81859,28,0.00345399,10,-0.000193608,-2.31708,0.626189,0.0942208,-17.7212,0.04017951,
2,0,0,1,0,54367.9,0.0390549,0.0386713,-4.78306,28,0.00333391,10,-0.000184967,-2.32029,0.517809,0.113942,-21.2886,0.0386713,
2,0,0,1,0,54367.9,0.0375541,0.0371602,-4.75403,28,0.00321412,10,-0.00017666,-2.32294,0.476289,0.123874,-23.003,0.0371602,
2,0,0,1,0,54367.9,0.0360532,0.0356623,-4.72821,28,0.00309523,10,-0.000168619,-2.3253,0.454339,0.129859,-23.9361,0.0356623,
2,0,0,1,0,54368,0.034559,0.0342078,-4.6938,28,0.00297759,10,-0.000160565,-2.32847,0.571245,0.103283,-18.9013,0.0342078,
2,0,0,1,0,54368,0.0330595,0.0327135,-4.65758,28,0.00286028,10,-0.000152366,-2.33184,0.481366,0.122568,-22.2768,0.0327135,
2,0,0,1,0,54368,0.0315613,0.031177,-4.62777,28,0.00274377,10,-0.00014428,-2.33463,0.42957,0.137347,-24.7735,0.031177,
2,0,0,1,0,54368,0.0300618,0.0296691,-4.59124,28,0.00262821,10,-0.000136218,-2.33807,0.425772,0.138572,-24.8086,0.0296691,
2,0,0,1,0,54368.1,0.0285676,0.0282323,-4.55204,28,0.00251399,10,-0.000128515,-2.34179,0.505708,0.116668,-20.7287,0.0282323,
2,0,0,1,0,54368.1,0.0270667,0.026685,-4.51582,28,0.0024001,10,-0.000120505,-2.34526,0.44741,0.13187,-23.2602,0.026685,
2,0,0,1,0,54368.1,0.0255659,0.0252565,-4.47852,28,0.0022871,10,-0.000113111,-2.34887,0.389665,0.151412,-26.5028,0.0252565,
2,0,0,1,0,54368.1,0.0240717,0.0237082,-4.44331,28,0.0021755,10,-0.000105343,-2.35229,0.415799,0.141895,-24.6253,0.0237082,
2,0,0,1,0,54368.2,0.0225722,0.0222186,-4.41305,28,0.00206434,10,-9.80519e-05,-2.35526,0.506826,0.116411,-20.0486,0.0222186,
2,0,0,1,0,54368.2,0.0210726,0.0206769,-4.37708,28,0.00195403,10,-9.05045e-05,-2.35882,0.457544,0.128949,-22.054,0.0206769,
2,0,0,1,0,54368.2,0.0195784,0.0191676,-4.3435,28,0.00184496,10,-8.32545e-05,-2.36216,0.425302,0.138725,-23.529,0.0191676,
2,0,0,1,0,54368.2,0.0180789,0.0176964,-4.31672,28,0.00173629,10,-7.63902e-05,-2.36485,0.464504,0.127017,-21.375,0.0176964,
2,0,0,1,0,54368.3,0.0165781,0.0162131,-4.2821,28,0.00162847,10,-6.9426e-05,-2.36834,0.547454,0.107772,-18.0265,0.0162131,
2,0,0,1,0,54368.3,0.0150839,0.0147271,-4.24648,28,0.00152179,10,-6.25383e-05,-2.37197,0.545486,0.10816,-17.9699,0.0147271,
2,0,0,1,0,54368.3,0.0135844,0.0131862,-4.22406,28,0.00141533,10,-5.56993e-05,-2.37427,0.46323,0.127367,-20.9819,0.0131862,
2,0,0,1,0,54368.3,0.0120848,0.0117301,-4.19641,28,0.0013096,10,-4.92244e-05,-2.37712,0.535151,0.110249,-18.0625,0.0117301,
2,0,0,1,0,54368.4,0.0105853,0.0102485,-4.16504,28,0.00120466,10,-4.26856e-05,-2.38038,0.636823,0.0926474,-15.0851,0.0102485,
2,0,0,1,0,54368.4,0.00909108,0.00875597,-4.13849,28,0.00110074,10,-3.62365e-05,-2.38316,0.639538,0.0922541,-14.9327,0.00875597,
2,0,0,1,0,54368.4,0.00759027,0.00723024,-4.12409,28,0.000996955,10,-2.98182e-05,-2.38467,0.578809,0.101933,-16.3925,0.00723024,
2,0,0,1,0,54368.4,0.00608945,0.00572134,-4.10433,28,0.000893733,10,-2.34823e-05,-2.38676,0.633379,0.0931513,-14.9023,0.00572134,
2,0,0,1,0,54368.5,0.00459524,0.00424841,-4.07864,28,0.000791515,10,-1.73277e-05,-2.38948,0.853711,0.0691101,-11.0041,0.00424841,
2,0,0,1,0,54368.5,0.0030957,0.00274154,-4.05696,28,0.000689357,10,-1.11223e-05,-2.3918,2.11523,0.027893,-4.43476,0.002741544,
2,0,0,1,0,54368.5,0.00159616,0.00119625,-4.06926,28,0.000587208,10,-4.86783e-06,-2.39048, , , ,0.00119625,
2,0,0,1,0,54368.5,0.000199195,-0.000227978,-4.04902,28,0.000492213,10,9.23089e-07,-2.39265, , , ,-0.000227978,