File: Figure_codes/Fig_3-5/rawdata_trumpetplot_data/after 10th/20221101_1-115_003_TrumpetPlot_ParaChange_from10_every3_09_CV_C01_7.csv
mode,ox/red,error,control changes,counter inc.,time/s,control/V,Ewe/V,<I>/mA,cycle number,(Q-Qo)/C,I Range,P/W,log(|I|),Tafel slope mV/dec,alpha_eff,dI/d(E-IR),E-IR/V,
2,0,0,0,0,14973.4,2.44065e-05,-0.000382585,-5.34093,8,0.0000000E+000,10,2.04336e-06,-2.27238, , , ,-0.000382585,
2,0,0,1,0,14973.4,0.00179726,0.00140996,-2.33272,8,-6.36201e-05,10,-3.28905e-06,-2.63214, , , ,0.00140996,
2,0,0,1,0,14973.5,0.00379485,0.00348426,-0.383908,8,-8.86315e-05,10,-1.33763e-06,-3.41577,-0.00889538,-6.63266,778.826,0.00348426,
2,1,0,1,0,14973.5,0.00579244,0.00545606,0.818483,8,-8.31253e-05,10,4.46569e-06,-3.08699,0.00632532,9.32759,507.904,0.00545606,
2,1,0,1,0,14973.5,0.00779002,0.0074955,1.65342,8,-5.75991e-05,10,1.23932e-05,-2.78162,0.00909258,6.48881,358.594,0.0074955,
2,1,0,1,0,14973.5,0.00978761,0.00945129,2.25115,8,-1.81655e-05,10,2.12763e-05,-2.6476,0.0190716,3.0936,256.923,0.00945129,
2,1,0,1,0,14973.5,0.0117852,0.0115136,2.68576,8,3.16259e-05,10,3.09227e-05,-2.57093,0.03136,1.88138,192.229,0.0115136,
2,1,0,1,0,14973.6,0.0137828,0.0134657,3.02284,8,8.89988e-05,10,4.07046e-05,-2.51959,0.0443477,1.3304,154.74,0.0134657,
2,1,0,1,0,14973.6,0.0157804,0.0154547,3.29561,8,0.000152466,10,5.09326e-05,-2.48206,0.0599293,0.984494,125.507,0.0154547,
2,1,0,1,0,14973.6,0.017778,0.0174512,3.52304,8,0.000220623,10,6.14813e-05,-2.45308,0.0796042,0.741167,101.104,0.0174512,
2,1,0,1,0,14973.6,0.0197755,0.0194836,3.70294,8,0.000293061,10,7.21466e-05,-2.43145,0.0974479,0.605452,87.3339,0.0194836,
2,1,0,1,0,14973.6,0.0217731,0.0214774,3.87466,8,0.000369057,10,8.32176e-05,-2.41177,0.110802,0.532482,80.1895,0.0214774,
2,1,0,1,0,14973.7,0.0237707,0.0234239,4.01891,8,0.000448201,10,9.41384e-05,-2.39589,0.127912,0.461253,72.3076,0.02342386,
2,1,0,1,0,14973.7,0.0257683,0.0254564,4.16238,8,0.0005298,10,0.000105959,-2.38066,0.140412,0.420193,68.1174,0.0254564,
2,1,0,1,0,14973.7,0.0277659,0.0274281,4.29167,8,0.000614506,10,0.000117712,-2.36737,0.15525,0.380033,63.6159,0.02742807,
2,1,0,1,0,14973.7,0.0297635,0.0294847,4.41864,8,0.000701825,10,0.000130282,-2.35471,0.169442,0.348203,59.9316,0.0294847,
2,1,0,1,0,14973.7,0.0317611,0.0314203,4.53093,8,0.000791531,10,0.000142363,-2.34381,0.169565,0.347949,61.6626,0.03142035,
2,1,0,1,0,14973.8,0.0337586,0.0334866,4.66541,8,0.000883205,10,0.000156229,-2.33111,0.175246,0.336669,61.1319,0.0334866,
2,1,0,1,0,14973.8,0.0357562,0.0354381,4.77654,8,0.000977807,10,0.000169272,-2.32089,0.199283,0.296062,55.1526,0.0354381,
2,1,0,1,0,14973.8,0.0377538,0.0374294,4.88286,8,0.00107467,10,0.000182763,-2.31133,0.201556,0.292723,55.8397,0.0374294,
2,1,0,1,0,14973.8,0.0397514,0.0394576,5.00099,8,0.00117376,10,0.000197327,-2.30094,0.185422,0.318193,62.1869,0.0394576,
2,1,0,1,0,14973.8,0.041749,0.0414807,5.1348,8,0.00127471,10,0.000212995,-2.28948,0.200651,0.294043,58.7303,0.0414807,
2,1,0,1,0,14973.9,0.0437466,0.0434675,5.23649,8,0.00137861,10,0.000227617,-2.28096,0.225914,0.261162,53.4006,0.0434675,
2,1,0,1,0,14973.9,0.0457442,0.0454209,5.34521,8,0.00148455,10,0.000242784,-2.27204,0.221566,0.266286,55.5529,0.0454209,
2,1,0,1,0,14973.9,0.0477418,0.0474216,5.45616,8,0.00159273,10,0.00025874,-2.26311,0.236535,0.249435,53.0657,0.0474216,
2,1,0,1,0,14973.9,0.0497484,0.0494423,5.55861,8,0.00170279,10,0.00027483,-2.25503,0.247824,0.238072,51.6455,0.0494423,
2,1,0,1,0,14973.9,0.0517369,0.0514108,5.66218,8,0.00181461,10,0.000291098,-2.24702,0.235102,0.250955,55.5167,0.0514108,
2,1,0,1,0,14974,0.0537345,0.0534254,5.77974,8,0.00192915,10,0.000308785,-2.23809,0.246238,0.239605,53.9532,0.0534254,
2,1,0,1,0,14974,0.0557321,0.0554233,5.87867,8,0.00204589,10,0.000325815,-2.23072,0.276075,0.21371,49.0135,0.0554233,
2,1,0,1,0,14974,0.0577206,0.0574004,5.97457,8,0.00216401,10,0.000342942,-2.22369,0.261421,0.225689,52.7011,0.0574004,
2,1,0,1,0,14974,0.0597273,0.0594197,6.08928,8,0.0022849,10,0.000361823,-2.21543,0.263758,0.22369,53.0867,0.05941971,
2,1,0,1,0,14974,0.0617249,0.0614343,6.18871,8,0.00240782,10,0.000380199,-2.2084,0.295895,0.199395,48.1276,0.0614343,
2,1,0,1,0,14974.1,0.0637224,0.0634037,6.28102,8,0.00253263,10,0.000398241,-2.20197,0.313409,0.188252,46.1361,0.0634037,
2,1,0,1,0,14974.1,0.06572,0.0653962,6.3715,8,0.00265935,10,0.000416672,-2.19576,0.295533,0.199639,49.7125,0.0653962,
2,1,0,1,0,14974.1,0.0677176,0.0674276,6.48106,8,0.00278757,10,0.000437002,-2.18835,0.31144,0.189442,47.811,0.0674276,
2,1,0,1,0,14974.1,0.0697152,0.0694006,6.56296,8,0.00291824,10,0.000455473,-2.1829,0.347719,0.169677,43.484,0.0694006,
2,1,0,1,0,14974.1,0.0717128,0.0713803,6.65294,8,0.00305059,10,0.000474889,-2.17699,0.343879,0.171572,44.5448,0.0713803,
2,1,0,1,0,14974.2,0.0737104,0.0734405,6.74291,8,0.00318473,10,0.000495203,-2.17115,0.33679,0.175184,46.1167,0.0734405,
2,1,0,1,0,14974.2,0.075708,0.0754045,6.83852,8,0.00332008,10,0.000515655,-2.16504,0.370223,0.159363,42.4625,0.0754045,
2,1,0,1,0,14974.2,0.0777056,0.0774351,6.91253,8,0.0034577,10,0.000535273,-2.16036,0.402461,0.146598,39.579,0.0774351,
2,1,0,1,0,14974.2,0.0797031,0.0794302,6.99785,8,0.00359693,10,0.000555841,-2.15504,0.416192,0.141761,38.6688,0.07943017,
2,1,0,1,0,14974.2,0.0817007,0.0814244,7.06679,8,0.00373776,10,0.000575409,-2.15078,0.42318,0.139421,38.4831,0.0814244,
2,1,0,1,0,14974.3,0.0836983,0.0833286,7.14788,8,0.00387939,10,0.000595623,-2.14582,0.410216,0.143827,40.1073,0.0833286,
2,1,0,1,0,14974.3,0.0856959,0.0853539,7.2244,8,0.00402329,10,0.00061663,-2.1412,0.451354,0.130718,36.8427,0.0853539,
2,1,0,1,0,14974.3,0.0876935,0.0873622,7.29649,8,0.00416866,10,0.000637437,-2.13689,0.467746,0.126137,35.9183,0.0873622,
2,1,0,1,0,14974.3,0.0896911,0.0893776,7.36892,8,0.00431545,10,0.000658616,-2.1326,0.425791,0.138566,39.8885,0.0893776,
2,1,0,1,0,14974.3,0.0916887,0.0913706,7.45638,8,0.00446306,10,0.000681293,-2.12747,0.40717,0.144903,42.1493,0.0913706,
2,1,0,1,0,14974.4,0.0936862,0.0933977,7.53837,8,0.00461321,10,0.000704066,-2.12272,0.414592,0.142308,41.8769,0.0933977,
2,1,0,1,0,14974.4,0.0956838,0.0953863,7.62454,8,0.00476499,10,0.000727277,-2.11779,0.36113,0.163376,48.6757,0.0953863,
2,1,0,1,0,14974.4,0.0976814,0.0973497,7.73073,8,0.00491868,10,0.000752584,-2.11178,0.308608,0.191181,57.7399,0.0973497,
2,1,0,1,0,14974.4,0.099679,0.0993603,7.854,8,0.00507385,10,0.000780375,-2.10491,0.308588,0.191193,58.5537,0.0993603,
2,1,0,1,0,14974.4,0.101677,0.10135,7.96496,8,0.00523223,10,0.000807248,-2.09882,0.296683,0.198866,61.901,0.10135,
2,1,0,1,0,14974.5,0.103674,0.103316,8.09886,8,0.00539301,10,0.000836741,-2.09158,0.268835,0.219465,69.4087,0.1033159,
2,1,0,1,0,14974.5,0.105672,0.105372,8.24409,8,0.00555659,10,0.000868692,-2.08386,0.249554,0.236422,76.1429,0.105372,
2,1,0,1,0,14974.5,0.107667,0.107373,8.40778,8,0.00572237,10,0.00090277,-2.07532,0.231791,0.25454,83.5498,0.107373,
2,1,0,1,0,14974.5,0.109667,0.109384,8.57932,8,0.0058924,10,0.000938438,-2.06655,0.225864,0.261219,87.4722,0.109384,
2,1,0,1,0,14974.5,0.111665,0.111344,8.7551,8,0.00606594,10,0.000974826,-2.05774,0.227492,0.25935,88.6145,0.111344,
2,1,0,1,0,14974.6,0.113662,0.113376,8.93305,8,0.006243,10,0.00101279,-2.049,0.232745,0.253496,88.3396,0.113376,
2,1,0,1,0,14974.6,0.11566,0.115315,9.10594,8,0.00642352,10,0.00105005,-2.04068,0.233365,0.252823,89.8918,0.115315,
2,1,0,1,0,14974.6,0.117657,0.117348,9.29017,8,0.0066068,10,0.00109019,-2.03198,0.249655,0.236326,85.5667,0.1173484,
2,1,0,1,0,14974.6,0.119655,0.11935,9.45116,8,0.00679443,10,0.00112799,-2.02452,0.278127,0.212133,78.2115,0.11935,
2,1,0,1,0,14974.6,0.121652,0.121383,9.60575,8,0.00698517,10,0.00116598,-2.01747,0.294715,0.200193,75.0028,0.1213833,
2,1,0,1,0,14974.7,0.12365,0.123336,9.75011,8,0.00717897,10,0.00120254,-2.01099,0.300977,0.196028,74.6051,0.123336,
2,1,0,1,0,14974.7,0.125648,0.12532,9.89941,8,0.00737481,10,0.00124059,-2.00439,0.342943,0.17204,66.3522,0.12532,
2,1,0,1,0,14974.7,0.127645,0.127341,10.0159,8,0.00757419,10,0.00127542,-1.99931,0.390532,0.151076,59.0578,0.127341,
2,1,0,1,0,14974.7,0.129643,0.129302,10.1346,8,0.00777587,10,0.00131042,-1.99419,0.417539,0.141304,55.8455,0.129302,
2,1,0,1,0,14974.7,0.13164,0.131326,10.2384,8,0.00797982,10,0.00134458,-1.98977,0.456826,0.129152,51.6056,0.131326,
2,1,0,1,0,14974.8,0.133638,0.133338,10.3429,8,0.00818494,10,0.0013791,-1.98536,0.482917,0.122174,49.2863,0.133338,
2,1,0,1,0,14974.8,0.135636,0.135327,10.4356,8,0.0083929,10,0.00141222,-1.98148,0.520177,0.113423,46.1903,0.135327,
2,1,0,1,0,14974.8,0.137633,0.137332,10.5273,8,0.00860268,10,0.00144574,-1.97768,0.593431,0.0994219,40.8062,0.137332,
2,1,0,1,0,14974.8,0.139631,0.139313,10.5983,8,0.00881412,10,0.00147648,-1.97477,0.697286,0.0846138,34.9958,0.139313,
2,1,0,1,0,14974.8,0.141628,0.14136,10.6683,8,0.00902587,10,0.00150807,-1.9719,0.859625,0.0686346,28.5411,0.14136,
2,1,0,1,0,14974.9,0.143626,0.143315,10.7125,8,0.00923985,10,0.00153526,-1.97011,2.02178,0.0291822,12.1774,0.143315,
2,1,0,1,0,14974.9,0.145624,0.145312,10.7165,8,0.00945433,10,0.00155723,-1.96995,-2.8447,-0.0207404,-8.65706,0.1453122,
2,1,0,1,0,14974.9,0.147621,0.147298,10.678,8,0.00966842,10,0.00157285,-1.97151,-0.834692,-0.0706847,-29.4011,0.147298,
2,1,0,1,0,14974.9,0.149619,0.149284,10.5997,8,0.00988032,10,0.00158236,-1.97471,-0.405827,-0.145382,-59.9097,0.149284,
2,1,0,1,0,14974.9,0.151616,0.151257,10.4409,8,0.010091,10,0.00157925,-1.98126,-0.248399,-0.237521,-96.4484,0.151257,
2,1,0,1,0,14975,0.153614,0.153302,10.2121,8,0.0102978,10,0.00156554,-1.99088,-0.180671,-0.326561,-129.688,0.153302,
2,1,0,1,0,14975,0.155611,0.155308,9.91538,8,0.0104993,10,0.00153994,-2.00369,-0.139411,-0.42321,-163.248,0.1553085,
2,1,0,1,0,14975,0.157609,0.15728,9.56277,8,0.0106933,10,0.00150403,-2.01942,-0.110078,-0.535984,-199.025,0.15728,
2,1,0,1,0,14975,0.159607,0.159281,9.12482,8,0.0108803,10,0.00145341,-2.03978,-0.0923162,-0.639108,-227.076,0.159281,
2,1,0,1,0,14975,0.161604,0.161255,8.66016,8,0.0110583,10,0.00139649,-2.06247,-0.0837671,-0.704333,-237.551,0.161255,
2,1,0,1,0,14975.1,0.163602,0.163272,8.17655,8,0.0112268,10,0.00133501,-2.08743,-0.0805136,-0.732796,-233.891,0.1632725,
2,1,0,1,0,14975.1,0.165606,0.165297,7.71483,8,0.0113858,10,0.00127524,-2.11267,-0.0787305,-0.749392,-225.654,0.165297,
2,1,0,1,0,14975.1,0.167597,0.16728,7.27234,8,0.0115349,10,0.00121651,-2.13833,-0.0797234,-0.740059,-210.44,0.16728,
2,1,0,1,0,14975.1,0.169595,0.169294,6.87369,8,0.0116764,10,0.00116367,-2.16281,-0.0831063,-0.709934,-190.711,0.169294,
2,1,0,1,0,14975.1,0.171592,0.171286,6.5083,8,0.0118102,10,0.00111478,-2.18653,-0.0892309,-0.661206,-168.551,0.171286,
2,1,0,1,0,14975.2,0.173581,0.173283,6.20137,8,0.0119366,10,0.00107459,-2.20751,-0.101921,-0.578882,-140.597,0.1732825,
2,1,0,1,0,14975.2,0.175587,0.175279,5.94683,8,0.0120582,10,0.00104236,-2.22571,-0.112953,-0.522339,-121.396,0.175279,
2,1,0,1,0,14975.2,0.177585,0.177286,5.7154,8,0.0121748,10,0.00101326,-2.24295,-0.120314,-0.490382,-109.599,0.177286,
2,1,0,1,0,14975.2,0.179582,0.179246,5.51213,8,0.0122871,10,0.000988026,-2.25868,-0.140164,-0.420935,-90.873,0.179246,
2,1,0,1,0,14975.2,0.18158,0.181286,5.35191,8,0.0123958,10,0.000970224,-2.27149,-0.162438,-0.363215,-75.9572,0.181286,
2,1,0,1,0,14975.3,0.183578,0.183254,5.2077,8,0.012501,10,0.000954329,-2.28335,-0.173291,-0.340467,-69.2624,0.183254,
2,1,0,1,0,14975.3,0.185575,0.185271,5.07584,8,0.0126038,10,0.000940409,-2.29449,-0.187455,-0.314742,-62.4318,0.185271,
2,1,0,1,0,14975.3,0.187573,0.187228,4.95955,8,0.0127042,10,0.000928568,-2.30456,-0.206996,-0.285029,-55.2341,0.187228,
2,1,0,1,0,14975.3,0.18957,0.189241,4.85658,8,0.0128025,10,0.000919065,-2.31367,-0.237629,-0.248286,-47.1275,0.189241,
2,1,0,1,0,14975.3,0.191568,0.191274,4.7689,8,0.0128985,10,0.000912165,-2.32158,-0.26581,-0.221963,-41.3501,0.1912736,
2,1,0,1,0,14975.4,0.193566,0.193239,4.69126,8,0.0129932,10,0.000906536,-2.32871,-0.291575,-0.202349,-37.0728,0.193239,
2,1,0,1,0,14975.4,0.195563,0.195266,4.62088,8,0.0130864,10,0.000902302,-2.33528,-0.302024,-0.195349,-35.221,0.195266,
2,1,0,1,0,14975.4,0.197561,0.197274,4.54914,8,0.0131783,10,0.000897428,-2.34207,-0.356088,-0.165689,-29.4961,0.197274,
2,1,0,1,0,14975.4,0.199558,0.199276,4.50261,8,0.0132684,10,0.000897262,-2.34654,-0.402963,-0.146415,-25.7017,0.199276,
2,1,0,1,0,14975.4,0.201556,0.201245,4.44709,8,0.0133579,10,0.000894954,-2.35192,-0.369274,-0.159773,-27.7312,0.201245,
2,1,0,1,0,14975.5,0.203553,0.203244,4.39257,8,0.0134464,10,0.000892764,-2.35728,-0.382698,-0.154169,-26.4386,0.203244,
2,1,0,1,0,14975.5,0.205551,0.20523,4.34173,8,0.0135339,10,0.000891053,-2.36234,-0.57153,-0.103232,-17.556,0.20523,
2,1,0,1,0,14975.5,0.207549,0.207215,4.32285,8,0.0136202,10,0.000895761,-2.36423,-0.647137,-0.0911708,-15.3382,0.207215,
2,1,0,1,0,14975.5,0.209546,0.209255,4.27999,8,0.0137063,10,0.00089561,-2.36856,-0.4679,-0.126095,-21.0645,0.209255,
2,1,0,1,0,14975.5,0.211544,0.211229,4.23831,8,0.0137915,10,0.000895253,-2.37281,-0.508403,-0.11605,-19.2105,0.211229,
2,1,0,1,0,14975.6,0.213541,0.213238,4.20347,8,0.0138761,10,0.000896341,-2.37639,-0.784871,-0.0751715,-12.3616,0.213238,
2,1,0,1,0,14975.6,0.215539,0.215215,4.18904,8,0.0139596,10,0.000901543,-2.37789,-0.639007,-0.0923308,-15.0391,0.215215,
2,1,0,1,0,14975.6,0.217537,0.217201,4.14388,8,0.014043,10,0.000900054,-2.38259,-0.610967,-0.0965682,-15.6696,0.217201,
2,1,0,1,0,14975.6,0.219534,0.219196,4.12665,8,0.0141258,10,0.000904546,-2.3844,-0.941948,-0.0626362,-10.08,0.219196,
2,1,0,1,0,14975.6,0.221532,0.221227,4.10329,8,0.0142081,10,0.00090776,-2.38687,-0.832954,-0.0708323,-11.3446,0.221227,
2,1,0,1,0,14975.7,0.223525,0.223206,4.08116,8,0.0142896,10,0.000910939,-2.38922,-0.898694,-0.0656509,-10.4595,0.223206,
2,1,0,1,0,14975.7,0.225527,0.225233,4.06139,8,0.0143712,10,0.000914761,-2.39133,-0.906059,-0.0651171,-10.3191,0.225233,
2,1,0,1,0,14975.7,0.227525,0.2272,4.03994,8,0.0144522,10,0.000917876,-2.39362,-0.729601,-0.0808661,-12.7376,0.2272,
2,1,0,1,0,14975.7,0.229522,0.229203,4.01082,8,0.0145329,10,0.000919294,-2.39677,-0.914229,-0.0645353,-10.1238,0.229203,
2,1,0,1,0,14975.7,0.23152,0.231215,3.9993,8,0.0146131,10,0.000924698,-2.39802,-1.81063,-0.0325854,-5.08755,0.231215,
2,1,0,1,0,14975.8,0.233517,0.233228,3.99035,8,0.0146928,10,0.000930662,-2.39899,-1.19661,-0.049306,-7.66592,0.233228,
2,1,0,1,0,14975.8,0.235515,0.235247,3.96839,8,0.0147725,10,0.000933553,-2.40139,-1.00755,-0.0585581,-9.07776,0.2352474,
2,1,0,1,0,14975.8,0.237512,0.237226,3.95406,8,0.0148518,10,0.000938005,-2.40296,-1.23976,-0.04759,-7.34333,0.237226,
2,1,0,1,0,14975.8,0.23951,0.239218,3.93923,8,0.0149309,10,0.000942336,-2.40459,-2.0489,-0.0287959,-4.43365,0.239218,
2,1,0,1,0,14975.8,0.241508,0.241226,3.93632,8,0.0150094,10,0.000949543,-2.40491,-1.57281,-0.0375124,-5.75024,0.241226,
2,1,0,1,0,14975.9,0.243505,0.243197,3.91635,8,0.0150879,10,0.000952444,-2.40712,-1.27711,-0.046198,-7.07147,0.243197,
2,1,0,1,0,14975.9,0.245503,0.245233,3.90799,8,0.0151662,10,0.000958366,-2.40805,-1.62069,-0.0364042,-5.54831,0.245233,
2,1,0,1,0,14975.9,0.2475,0.247205,3.89411,8,0.0152443,10,0.000962644,-2.40959,-1.6062,-0.0367326,-5.58647,0.247205,
2,1,0,1,0,14975.9,0.249498,0.249189,3.88588,8,0.0153218,10,0.000968322,-2.41051,-1.73771,-0.0339527,-5.1463,0.249189,
2,1,0,1,0,14975.9,0.251496,0.251209,3.87351,8,0.0153995,10,0.000973059,-2.4119,-1.50935,-0.0390897,-5.90991,0.251209,
2,1,0,1,0,14976,0.253493,0.253221,3.86206,8,0.0154769,10,0.000977953,-2.41318,-1.2473,-0.0473023,-7.12441,0.253221,
2,1,0,1,0,14976,0.255491,0.255207,3.84503,8,0.015554,10,0.000981276,-2.4151,-2.42496,-0.0243303,-3.66024,0.255207,
2,1,0,1,0,14976,0.257488,0.2572,3.84749,8,0.0156306,10,0.000989577,-2.41482,-2.91523,-0.0202385,-3.03221,0.2572003,
2,1,0,1,0,14976,0.259486,0.259184,3.83297,8,0.0157076,10,0.000993442,-2.41646,-0.968584,-0.0609137,-9.10336,0.259184,
2,1,0,1,0,14976,0.261484,0.261184,3.81123,8,0.0157842,10,0.000995433,-2.41894,-1.66184,-0.0355029,-5.29606,0.261184,
2,1,0,1,0,14976.1,0.263481,0.263205,3.81167,8,0.0158605,10,0.00100325,-2.41889,11.9212,0.00494918,0.736424,0.263205,
2,1,0,1,0,14976.1,0.265479,0.265147,3.81414,8,0.0159365,10,0.00101131,-2.4186,-2.05351,-0.0287313,-4.26458,0.2651473,
2,1,0,1,0,14976.1,0.267476,0.267141,3.79488,8,0.0160126,10,0.00101377,-2.4208,-1.05719,-0.0558085,-8.27149,0.267141,
2,1,0,1,0,14976.1,0.269474,0.269119,3.78129,8,0.0160884,10,0.00101762,-2.42236,-1.56568,-0.0376834,-5.56454,0.269119,
2,1,0,1,0,14976.1,0.271471,0.271161,3.77251,8,0.016164,10,0.00102296,-2.42337,-4.11357,-0.0143428,-2.11421,0.271161,
2,1,0,1,0,14976.2,0.273469,0.273147,3.77278,8,0.0162392,10,0.00103052,-2.42334,-2.75158,-0.0214422,-3.15167,0.273147,
2,1,0,1,0,14976.2,0.275467,0.275142,3.75997,8,0.0163145,10,0.00103452,-2.42482,-1.26575,-0.0466126,-6.83833,0.275142,
2,1,0,1,0,14976.2,0.277464,0.277146,3.74543,8,0.0163897,10,0.00103803,-2.4265,-1.5762,-0.0374319,-5.47672,0.277146,
2,1,0,1,0,14976.2,0.279462,0.279144,3.73805,8,0.0164646,10,0.00104345,-2.42736,-2.90416,-0.0203157,-2.9649,0.279144,
2,1,0,1,0,14976.2,0.281464,0.281136,3.7336,8,0.0165394,10,0.00104965,-2.42787,-2.012,-0.029324,-4.26815,0.281136,
2,1,0,1,0,14976.3,0.283457,0.283141,3.72099,8,0.0166137,10,0.00105356,-2.42934,-1.79794,-0.0328153,-4.76919,0.283141,
2,1,0,1,0,14976.3,0.285455,0.285177,3.71433,8,0.0166881,10,0.00105924,-2.43012,-1.49554,-0.0394505,-5.71137,0.285177,
2,1,0,1,0,14976.3,0.287452,0.287135,3.69818,8,0.0167623,10,0.00106188,-2.43201,-1.41627,-0.0416586,-6.01916,0.287135,
2,1,0,1,0,14976.3,0.28945,0.289182,3.69022,8,0.0168362,10,0.00106715,-2.43295,-3.94379,-0.0149602,-2.15667,0.289182,
2,1,0,1,0,14976.3,0.291447,0.291133,3.68956,8,0.0169098,10,0.00107415,-2.43303,-1.52538,-0.0386789,-5.55374,0.291133,
2,1,0,1,0,14976.4,0.293445,0.293165,3.6681,8,0.0169835,10,0.00107536,-2.43556,-1.10851,-0.0532244,-7.63202,0.293165,
2,1,0,1,0,14976.4,0.295442,0.295147,3.65892,8,0.0170569,10,0.00107992,-2.43665,-2.36869,-0.0249083,-3.55881,0.295147,
2,1,0,1,0,14976.4,0.29744,0.297166,3.65387,8,0.0171301,10,0.0010858,-2.43725,-3.13213,-0.018837,-2.68593,0.297166,
2,1,0,1,0,14976.4,0.299438,0.299121,3.64824,8,0.017203,10,0.00109127,-2.43792,-0.0259338,-2.27502,-293.741,0.299121,
2,1,0,1,0,14976.4,0.299737,0.299441,2.9854,8,0.0172324,10,0.000893951,-2.525,0.00221617,26.6225,1765.4,0.299441,
2,1,0,1,0,14976.5,0.29774,0.297401,0.610417,8,0.0172642,10,0.000181539,-3.21437,0.00440835,13.3837,843.44,0.297401,
2,0,0,1,0,14976.5,0.295742,0.29546,-0.37304,8,0.0172654,10,-0.000110218,-3.42824,-0.0258791,-2.27983,373.167,0.2954596,
2,0,0,1,0,14976.5,0.293745,0.293438,-0.868495,8,0.0172525,10,-0.000254849,-3.06123,-0.0082565,-7.14588,192.568,0.293438,
2,0,0,1,0,14976.5,0.291747,0.291419,-1.15107,8,0.0172322,10,-0.000335445,-2.9389,-0.0209912,-2.81071,119.608,0.2914193,
2,0,0,1,0,14976.5,0.289754,0.289435,-1.34719,8,0.0172074,10,-0.000389926,-2.87057,-0.0359881,-1.63943,83.8194,0.289435,
2,0,0,1,0,14976.6,0.287752,0.287459,-1.48303,8,0.0171791,10,-0.00042631,-2.82885,-0.0564343,-1.04546,59.7086,0.2874589,
2,0,0,1,0,14976.6,0.285754,0.285434,-1.58611,8,0.0171484,10,-0.00045273,-2.79967,-0.0763085,-0.773177,47.5824,0.285434,
2,0,0,1,0,14976.6,0.283757,0.283432,-1.67464,8,0.0171159,10,-0.000474647,-2.77608,-0.091864,-0.642254,41.8045,0.283432,
2,0,0,1,0,14976.6,0.281759,0.281458,-1.75232,8,0.0170816,10,-0.000493204,-2.75639,-0.10902,-0.541184,36.8838,0.281458,
2,0,0,1,0,14976.6,0.279761,0.27949,-1.82005,8,0.0170459,10,-0.000508684,-2.73992,-0.12458,-0.473592,33.6217,0.27949,
2,0,0,1,0,14976.7,0.277764,0.277437,-1.88751,8,0.0170089,10,-0.000523666,-2.72411,-0.134872,-0.43745,32.1718,0.277437,
2,0,0,1,0,14976.7,0.275766,0.27544,-1.95034,8,0.0169706,10,-0.000537201,-2.70989,-0.173338,-0.340376,25.7443,0.27544,
2,0,0,1,0,14976.7,0.273769,0.273478,-1.98942,8,0.0169313,10,-0.000544065,-2.70127,-0.183676,-0.321218,25.0718,0.273478,
2,0,0,1,0,14976.7,0.271771,0.271448,-2.05043,8,0.0168911,10,-0.000556584,-2.68816,-0.171937,-0.34315,27.3738,0.271448,
2,0,0,1,0,14976.7,0.269774,0.269453,-2.09963,8,0.0168496,10,-0.00056575,-2.67786,-0.221338,-0.26656,21.7782,0.269453,
2,0,0,1,0,14976.8,0.267776,0.267469,-2.13708,8,0.0168073,10,-0.000571603,-2.67018,-0.23604,-0.249958,20.8893,0.267469,
2,0,0,1,0,14976.8,0.265778,0.265429,-2.18368,8,0.0167642,10,-0.000579613,-2.66081,-0.218981,-0.269429,22.9536,0.265429,
2,0,0,1,0,14976.8,0.263781,0.263444,-2.22946,8,0.0167203,10,-0.000587338,-2.6518,-0.239771,-0.246068,21.3732,0.263444,
2,0,0,1,0,14976.8,0.261783,0.26148,-2.26809,8,0.0166755,10,-0.000593059,-2.64434,-0.320837,-0.183894,16.2299,0.26148,
2,0,0,1,0,14976.8,0.259786,0.259485,-2.29372,8,0.01663,10,-0.000595186,-2.63946,-0.305767,-0.192958,17.3414,0.259485,
2,0,0,1,0,14976.9,0.257788,0.257455,-2.33788,8,0.0165837,10,-0.000601899,-2.63118,-0.259854,-0.227051,20.6899,0.257455,
2,0,0,1,0,14976.9,0.25579,0.255479,-2.37659,8,0.0165368,10,-0.00060717,-2.62405,-0.326185,-0.180879,16.7382,0.255479,
2,0,0,1,0,14976.9,0.253793,0.253462,-2.40472,8,0.0164891,10,-0.000609505,-2.61894,-0.366949,-0.160785,15.102,0.253462,
2,0,0,1,0,14976.9,0.251795,0.251474,-2.43708,8,0.0164408,10,-0.000612862,-2.61313,-0.340854,-0.173095,16.4642,0.251474,
2,0,0,1,0,14976.9,0.249798,0.249497,-2.47,8,0.0163918,10,-0.000616257,-2.6073,-0.340917,-0.173062,16.6842,0.249497,
2,0,0,1,0,14977,0.2478,0.247482,-2.50368,8,0.0163424,10,-0.000619617,-2.60142,-0.366401,-0.161026,15.7198,0.247482,
2,0,0,1,0,14977,0.245802,0.245483,-2.5331,8,0.0162921,10,-0.000621833,-2.59635,-0.391327,-0.150769,14.9052,0.245483,
2,0,0,1,0,14977,0.243805,0.243513,-2.56284,8,0.0162412,10,-0.000624085,-2.59128,-0.424831,-0.138879,13.8795,0.243513,
2,0,0,1,0,14977,0.241807,0.241479,-2.58867,8,0.0161898,10,-0.00062511,-2.58692,-0.36826,-0.160213,16.2249,0.241479,
2,0,0,1,0,14977,0.23981,0.239544,-2.62725,8,0.0161381,10,-0.00062934,-2.5805,-0.35749,-0.16504,16.8884,0.239544,
2,0,0,1,0,14977.1,0.237812,0.237512,-2.65566,8,0.0160854,10,-0.000630753,-2.57583,-0.524168,-0.112559,11.6437,0.237512,
2,0,0,1,0,14977.1,0.235815,0.235519,-2.67411,8,0.0160322,10,-0.000629803,-2.57282,-0.547253,-0.107811,11.2692,0.235519,
2,0,0,1,0,14977.1,0.233817,0.233477,-2.70113,8,0.0159786,10,-0.000630654,-2.56845,-0.385516,-0.153042,16.1651,0.233477,
2,0,0,1,0,14977.1,0.231815,0.231497,-2.73912,8,0.0159244,10,-0.000634099,-2.56239,-0.411186,-0.143487,15.2949,0.231497,
2,0,0,1,0,14977.1,0.229822,0.229517,-2.76171,8,0.0158698,10,-0.000633859,-2.55882,-0.623937,-0.0945608,10.183,0.229517,
2,0,0,1,0,14977.2,0.227824,0.227523,-2.77959,8,0.0158145,10,-0.000632421,-2.55602,-0.503495,-0.117181,12.7468,0.227523,
2,0,0,1,0,14977.2,0.225827,0.225494,-2.81299,8,0.0157587,10,-0.000634312,-2.55083,-0.487199,-0.121101,13.2626,0.2254938,
2,0,0,1,0,14977.2,0.223829,0.223497,-2.83298,8,0.0157023,10,-0.000633163,-2.54776,-0.538303,-0.109604,12.1357,0.223497,
2,0,0,1,0,14977.2,0.221831,0.221507,-2.86138,8,0.0156457,10,-0.000633814,-2.54342,-0.50597,-0.116608,13.0093,0.221507,
2,0,0,1,0,14977.2,0.219834,0.219539,-2.88448,8,0.0155882,10,-0.000633255,-2.53993,-0.497181,-0.118669,13.375,0.219539,
2,0,0,1,0,14977.3,0.217836,0.217519,-2.91471,8,0.0155303,10,-0.000634005,-2.5354,-0.549329,-0.107404,12.1925,0.217519,
2,0,0,1,0,14977.3,0.215839,0.215542,-2.93321,8,0.0154719,10,-0.00063223,-2.53266,-0.501258,-0.117704,13.5131,0.215542,
2,0,0,1,0,14977.3,0.213841,0.21351,-2.96889,8,0.0154131,10,-0.000633887,-2.52741,-0.451697,-0.130619,15.1067,0.21351,
2,0,0,1,0,14977.3,0.211843,0.211522,-2.99393,8,0.0153536,10,-0.000633284,-2.52376,-0.606214,-0.0973254,11.3626,0.2115223,
2,0,0,1,0,14977.3,0.209846,0.20952,-3.01422,8,0.0152935,10,-0.00063154,-2.52082,-0.604608,-0.0975839,11.49,0.2095198,
2,0,0,1,0,14977.4,0.207848,0.207493,-3.04023,8,0.0152331,10,-0.000630826,-2.51709,-0.376975,-0.156509,18.6385,0.207493,
2,0,0,1,0,14977.4,0.205851,0.205509,-3.08898,8,0.0151721,10,-0.000634813,-2.51018,-0.429709,-0.137302,16.4662,0.205509,
2,0,0,1,0,14977.4,0.203853,0.203508,-3.10585,8,0.0151103,10,-0.000632065,-2.50782,-0.687239,-0.0858507,10.4187,0.203508,
2,0,0,1,0,14977.4,0.201856,0.201542,-3.13031,8,0.0150481,10,-0.000630889,-2.50441,-0.5364,-0.109992,13.4469,0.201542,
2,0,0,1,0,14977.4,0.199858,0.19953,-3.15934,8,0.0149853,10,-0.000630383,-2.5004,-0.442675,-0.133281,16.4536,0.19953,
2,0,0,1,0,14977.5,0.19786,0.197526,-3.19639,8,0.0149222,10,-0.00063137,-2.49534,-0.509421,-0.115818,14.4095,0.197526,
2,0,0,1,0,14977.5,0.195863,0.19555,-3.21669,8,0.0148582,10,-0.000629023,-2.49259,-0.528204,-0.111699,14.0568,0.19555,
2,0,0,1,0,14977.5,0.193865,0.193505,-3.25292,8,0.0147936,10,-0.000629455,-2.48773,-0.441137,-0.133745,16.9661,0.193505,
2,0,0,1,0,14977.5,0.191868,0.19156,-3.28438,8,0.0147283,10,-0.000629156,-2.48355,-0.429028,-0.13752,17.6449,0.19156,
2,0,0,1,0,14977.5,0.18987,0.18955,-3.3227,8,0.0146628,10,-0.000629817,-2.47851,-0.475968,-0.123958,16.0446,0.18955,
2,0,0,1,0,14977.6,0.187872,0.187534,-3.34897,8,0.0145962,10,-0.000628047,-2.47509,-0.502785,-0.117346,15.3556,0.187534,
2,0,0,1,0,14977.6,0.185875,0.185591,-3.38349,8,0.0145289,10,-0.000627945,-2.47064,-0.470857,-0.125303,16.5375,0.185591,
2,0,0,1,0,14977.6,0.183877,0.183556,-3.41476,8,0.014461,10,-0.000626801,-2.46664,-0.370313,-0.159325,21.3063,0.183556,
2,0,0,1,0,14977.6,0.18188,0.181529,-3.47004,8,0.0143927,10,-0.000629913,-2.45966,-0.33159,-0.177931,24.0467,0.181529,
2,0,0,1,0,14977.6,0.179882,0.179533,-3.51151,8,0.0143229,10,-0.000630431,-2.45451,-0.445029,-0.132576,18.1401,0.1795328,
2,0,0,1,0,14977.7,0.177885,0.177551,-3.54221,8,0.0142525,10,-0.000628921,-2.45073,-0.396637,-0.14875,20.6206,0.177551,
2,0,0,1,0,14977.7,0.175887,0.175585,-3.59292,8,0.0141812,10,-0.000630862,-2.44455,-0.302125,-0.195283,27.4137,0.175585,
2,0,0,1,0,14977.7,0.173896,0.173534,-3.65233,8,0.0141093,10,-0.000633802,-2.43743,-0.31403,-0.18788,26.7306,0.173534,
2,0,0,1,0,14977.7,0.171892,0.171628,-3.69869,8,0.0140358,10,-0.000634799,-2.43195,-0.323729,-0.182251,26.3484,0.171628,
2,0,0,1,0,14977.7,0.169894,0.16956,-3.75703,8,0.0139614,10,-0.000637041,-2.42516,-0.280148,-0.210603,30.9067,0.16956,
2,0,0,1,0,14977.8,0.167897,0.167618,-3.82262,8,0.0138856,10,-0.000640741,-2.41764,-0.257433,-0.229186,34.2158,0.167618,
2,0,0,1,0,14977.8,0.165899,0.16554,-3.89456,8,0.0138085,10,-0.000644707,-2.40954,-0.245617,-0.240212,36.5287,0.16554,
2,0,0,1,0,14977.8,0.163901,0.163546,-3.97138,8,0.0137303,10,-0.000649502,-2.40106,-0.221154,-0.266782,41.396,0.163546,
2,0,0,1,0,14977.8,0.161904,0.161582,-4.05842,8,0.0136502,10,-0.000655768,-2.39164,-0.210202,-0.280683,44.466,0.161582,
2,0,0,1,0,14977.8,0.159906,0.159564,-4.14845,8,0.0135682,10,-0.000661942,-2.38211,-0.195512,-0.301772,48.9285,0.159564,
2,0,0,1,0,14977.9,0.157909,0.157623,-4.25211,8,0.0134844,10,-0.000670232,-2.3714,-0.172906,-0.341225,56.726,0.157623,
2,0,0,1,0,14977.9,0.155911,0.155607,-4.37289,8,0.0133987,10,-0.000680452,-2.35923,-0.162675,-0.362686,61.9455,0.155607,
2,0,0,1,0,14977.9,0.153913,0.153572,-4.50306,8,0.01331,10,-0.000691545,-2.34649,-0.157255,-0.375186,65.9388,0.153572,
2,0,0,1,0,14977.9,0.151916,0.151613,-4.63627,8,0.0132186,10,-0.000702918,-2.33383,-0.136079,-0.433571,78.8105,0.151613,
2,0,0,1,0,14977.9,0.149918,0.149607,-4.81558,8,0.0131241,10,-0.000720443,-2.31735,-0.120779,-0.488497,91.893,0.149607,
2,0,0,1,0,14978,0.147921,0.147559,-5.00874,8,0.0130265,10,-0.000739088,-2.30027,-0.117078,-0.503936,98.5535,0.147559,
2,0,0,1,0,14978,0.145923,0.145586,-5.21185,8,0.0129244,10,-0.000758772,-2.28301,-0.109075,-0.54091,110.314,0.145586,
2,0,0,1,0,14978,0.143926,0.143571,-5.44877,8,0.0128178,10,-0.000782283,-2.2637,-0.0987278,-0.597603,127.399,0.143571,
2,0,0,1,0,14978,0.141928,0.141589,-5.72102,8,0.0127063,10,-0.000810036,-2.24253,-0.0930464,-0.634092,141.747,0.141589,
2,0,0,1,0,14978,0.13993,0.139566,-6.01646,8,0.0125896,10,-0.000839692,-2.22066,-0.0929917,-0.634465,148.913,0.139566,
2,0,0,1,0,14978.1,0.137933,0.137589,-6.31675,8,0.0124665,10,-0.000869114,-2.19951,-0.0904404,-0.652363,161.148,0.137589,
2,0,0,1,0,14978.1,0.135935,0.135614,-6.65331,8,0.0123368,10,-0.00090228,-2.17696,-0.0881239,-0.669512,173.916,0.135614,
2,0,0,1,0,14978.1,0.133938,0.133618,-7.0073,8,0.0122002,10,-0.000936303,-2.15445,-0.0912039,-0.646902,176.663,0.133618,
2,0,0,1,0,14978.1,0.13194,0.131651,-7.35337,8,0.0120576,10,-0.000968079,-2.13351,-0.0953464,-0.618796,177.678,0.131651,
2,0,0,1,0,14978.1,0.129942,0.129613,-7.71889,8,0.0119069,10,-0.00100047,-2.11245,-0.0979078,-0.602608,181.358,0.129613,
2,0,0,1,0,14978.2,0.127945,0.127639,-8.08107,8,0.0117489,10,-0.00103146,-2.09253,-0.107168,-0.550538,173.219,0.127639,
2,0,0,1,0,14978.2,0.125947,0.125593,-8.41523,8,0.011584,10,-0.0010569,-2.07493,-0.112953,-0.52234,171.624,0.125593,
2,0,0,1,0,14978.2,0.12395,0.123646,-8.76622,8,0.0114132,10,-0.00108391,-2.05719,-0.120089,-0.4913,167.589,0.123646,
2,0,0,1,0,14978.2,0.121952,0.121663,-9.07396,8,0.0112348,10,-0.00110396,-2.0422,-0.143336,-0.411622,145.464,0.121663,
2,0,0,1,0,14978.2,0.119955,0.119632,-9.35023,8,0.0110505,10,-0.00111858,-2.02918,-0.155315,-0.379873,138.586,0.119632,
2,0,0,1,0,14978.3,0.117957,0.117669,-9.62742,8,0.0108608,10,-0.00113285,-2.01649,-0.168923,-0.349271,130.991,0.117669,
2,0,0,1,0,14978.3,0.115955,0.115632,-9.87415,8,0.0106658,10,-0.00114177,-2.0055,-0.194885,-0.302742,116.473,0.115632,
2,0,0,1,0,14978.3,0.113962,0.113678,-10.0923,8,0.010467,10,-0.00114727,-1.99601,-0.227043,-0.259862,102.188,0.113678,
2,0,0,1,0,14978.3,0.111964,0.111652,-10.2809,8,0.0102632,10,-0.00114788,-1.98797,-0.265219,-0.222458,89.1657,0.111652,
2,0,0,1,0,14978.3,0.109967,0.10966,-10.4506,8,0.0100559,10,-0.00114601,-1.98086,-0.308964,-0.190961,77.7811,0.10966,
2,0,0,1,0,14978.4,0.107969,0.107623,-10.5942,8,0.00984548,10,-0.00114018,-1.97493,-0.375079,-0.1573,64.9556,0.1076234,
2,0,0,1,0,14978.4,0.105971,0.105629,-10.7124,8,0.00963349,10,-0.00113154,-1.97011,-0.488512,-0.120775,50.4123,0.105629,
2,0,0,1,0,14978.4,0.103974,0.103596,-10.7972,8,0.00941842,10,-0.00111855,-1.96669,-0.670853,-0.0879478,37.0214,0.103596,
2,0,0,1,0,14978.4,0.101976,0.101637,-10.8602,8,0.00920185,10,-0.0011038,-1.96416,-1.17619,-0.0501621,21.219,0.101637,
2,0,0,1,0,14978.4,0.0999786,0.0996636,-10.8807,8,0.00898452,10,-0.00108441,-1.96334,-2.63927,-0.0223547,9.49129,0.0996636,
2,0,0,1,0,14978.5,0.0979811,0.0976403,-10.8981,8,0.00876777,10,-0.00106409,-1.96265,13.4456,0.00438806,-1.8627,0.0976403,
2,0,0,1,0,14978.5,0.0959835,0.0956536,-10.8732,8,0.00855008,10,-0.00104006,-1.96364,1.11766,0.0527889,-22.3614,0.0956536,
2,0,0,1,0,14978.5,0.0939859,0.0937083,-10.8102,8,0.00833331,10,-0.001013,-1.96617,0.713965,0.0826371,-34.8422,0.0937083,
2,0,0,1,0,14978.5,0.0919883,0.0916648,-10.7342,8,0.00811789,10,-0.000983949,-1.96923,0.632365,0.0933005,-39.073,0.0916648,
2,0,0,1,0,14978.5,0.0899907,0.0896514,-10.6516,8,0.00790507,10,-0.000954936,-1.97258,0.452945,0.130259,-54.0181,0.0896514,
2,0,0,1,0,14978.6,0.0879931,0.0876715,-10.5185,8,0.00769342,10,-0.000922174,-1.97805,0.359076,0.16431,-67.4418,0.0876715,
2,0,0,1,0,14978.6,0.0859955,0.0856813,-10.3839,8,0.00748442,10,-0.000889705,-1.98364,0.335582,0.175814,-71.1974,0.08568126,
2,0,0,1,0,14978.6,0.083998,0.0836979,-10.2356,8,0.00727828,10,-0.000856698,-1.98989,0.326579,0.180661,-72.1871,0.0836979,
2,0,0,1,0,14978.6,0.0820004,0.0816692,-10.0943,8,0.00707602,10,-0.000824392,-1.99592,0.313831,0.187999,-74.0111,0.0816692,
2,0,0,1,0,14978.6,0.0800028,0.0797111,-9.94053,8,0.0068758,10,-0.00079237,-2.00259,0.317867,0.185612,-72.0798,0.0797111,
2,0,0,1,0,14978.7,0.0780052,0.0776982,-9.80805,8,0.00667841,10,-0.000762068,-2.00842,0.345151,0.17094,-65.4212,0.0776982,
2,0,0,1,0,14978.7,0.0760076,0.0756306,-9.67357,8,0.00648377,10,-0.000731618,-2.01441,0.361135,0.163374,-61.7365,0.0756306,
2,0,0,1,0,14978.7,0.07401,0.0736545,-9.5584,8,0.00629269,10,-0.00070402,-2.01961,0.38923,0.151581,-56.5608,0.0736545,
2,0,0,1,0,14978.7,0.0720124,0.0716677,-9.44943,8,0.0061028,10,-0.000677219,-2.02459,0.405688,0.145432,-53.6399,0.0716677,
2,0,0,1,0,14978.7,0.0700148,0.069654,-9.34381,8,0.00591505,10,-0.000650834,-2.02948,0.435685,0.135419,-49.4201,0.069654,
2,0,0,1,0,14978.8,0.0680173,0.0677006,-9.25338,8,0.00572929,10,-0.000626459,-2.0337,0.526514,0.112058,-40.5118,0.0677006,
2,0,0,1,0,14978.8,0.0660106,0.0657012,-9.18368,8,0.0055452,10,-0.000603378,-2.03698,0.562668,0.104858,-37.5592,0.0657012,
2,0,0,1,0,14978.8,0.0640221,0.0637035,-9.10325,8,0.00536328,10,-0.000579909,-2.0408,0.564267,0.10456,-37.1717,0.0637035,
2,0,0,1,0,14978.8,0.0620245,0.0617064,-9.03519,8,0.00518203,10,-0.000557529,-2.04406,0.588632,0.100232,-35.3339,0.0617064,
2,0,0,1,0,14978.8,0.0600269,0.0597238,-8.96263,8,0.00500218,10,-0.000535282,-2.04756,0.661295,0.0892189,-31.2411,0.0597238,
2,0,0,1,0,14978.9,0.0580361,0.0576927,-8.9098,8,0.00482452,10,-0.000514031,-2.05013,0.658799,0.089557,-31.1076,0.0576927,
2,0,0,1,0,14978.9,0.0560317,0.0557233,-8.83818,8,0.00464707,10,-0.000492493,-2.05364,0.643042,0.0917514,-31.6789,0.05572328,
2,0,0,1,0,14978.9,0.0540342,0.0537347,-8.78441,8,0.00447095,10,-0.000472028,-2.05629,0.676611,0.0871992,-29.8716,0.0537347,
2,0,0,1,0,14978.9,0.0520366,0.051685,-8.71755,8,0.00429603,10,-0.000450567,-2.05961,0.578519,0.101985,-34.6877,0.051685,
2,0,0,1,0,14978.9,0.050039,0.0497546,-8.64635,8,0.00412234,10,-0.000430195,-2.06317,0.64736,0.0911394,-30.7897,0.04975459,
2,0,0,1,0,14979,0.0480414,0.0477191,-8.59544,8,0.00395075,10,-0.000410167,-2.06573,0.735485,0.0802192,-26.898,0.04771911,
2,0,0,1,0,14979,0.0460438,0.0456975,-8.53722,8,0.00377951,10,-0.00039013,-2.06868,0.608633,0.0969385,-32.2757,0.0456975,
2,0,0,1,0,14979,0.0440462,0.0437548,-8.46749,8,0.00360959,10,-0.000370493,-2.07225,0.537797,0.109707,-36.2463,0.0437548,
2,0,0,1,0,14979,0.0420486,0.0417659,-8.39472,8,0.00344112,10,-0.000350613,-2.07599,0.637493,0.09255,-30.3607,0.0417659,
2,0,0,1,0,14979,0.040051,0.0396904,-8.3441,8,0.00327463,10,-0.00033118,-2.07862,0.630074,0.0936399,-30.4526,0.0396904,
2,0,0,1,0,14979.1,0.0380535,0.03772,-8.27151,8,0.00310858,10,-0.000312002,-2.08242,0.488391,0.120805,-38.972,0.03772,
2,0,0,1,0,14979.1,0.0360559,0.0357042,-8.18874,8,0.00294409,10,-0.000292372,-2.08678,0.490504,0.120284,-38.4658,0.0357042,
2,0,0,1,0,14979.1,0.0340583,0.0337082,-8.11719,8,0.00278107,10,-0.000273616,-2.09059,0.521646,0.113104,-35.8322,0.03370823,
2,0,0,1,0,14979.1,0.0320607,0.0317501,-8.04706,8,0.00262029,10,-0.000255495,-2.09436,0.462081,0.127683,-40.0504,0.0317501,
2,0,0,1,0,14979.1,0.0300631,0.029731,-7.9579,8,0.00246043,10,-0.000236596,-2.0992,0.420901,0.140175,-43.542,0.029731,
2,0,0,1,0,14979.2,0.0280655,0.0277318,-7.8721,8,0.00230231,10,-0.000218307,-2.10391,0.419293,0.140713,-43.2241,0.0277318,
2,0,0,1,0,14979.2,0.0260679,0.0257226,-7.78464,8,0.00214586,10,-0.000200242,-2.10876,0.402316,0.146651,-44.5445,0.02572264,
2,0,0,1,0,14979.2,0.0240704,0.0237451,-7.69451,8,0.00199191,10,-0.000182707,-2.11382,0.370501,0.159244,-47.7858,0.0237451,
2,0,0,1,0,14979.2,0.0220728,0.0217379,-7.59423,8,0.00183911,10,-0.000165082,-2.11952,0.368444,0.160133,-47.4864,0.0217379,
2,0,0,1,0,14979.2,0.0200752,0.0197159,-7.50318,8,0.0016882,10,-0.000147932,-2.12475,0.350976,0.168103,-49.1788,0.0197159,
2,0,0,1,0,14979.3,0.0180776,0.0177673,-7.39896,8,0.00153917,10,-0.000131459,-2.13083,0.380827,0.154926,-44.8276,0.0177673,
2,0,0,1,0,14979.3,0.01608,0.015757,-7.32571,8,0.00139276,10,-0.000115431,-2.13515,0.42481,0.138885,-39.6717,0.015757,
2,0,0,1,0,14979.3,0.0140824,0.0137578,-7.2399,8,0.00124717,10,-9.9605e-05,-2.14027,0.380762,0.154952,-43.7674,0.0137578,
2,0,0,1,0,14979.3,0.0120848,0.011742,-7.14999,8,0.00110334,10,-8.39552e-05,-2.14569,0.365052,0.161621,-45.0963,0.01174201,
2,0,0,1,0,14979.3,0.0100872,0.00976855,-7.06,8,0.000961313,10,-6.89659e-05,-2.1512,0.433285,0.136169,-37.5959,0.00976855,
2,0,0,1,0,14979.4,0.00809193,0.00774297,-6.99964,8,0.0008215,10,-5.4198e-05,-2.15492,0.485564,0.121508,-33.1634,0.00774297,
2,0,0,1,0,14979.4,0.00609208,0.00576613,-6.92726,8,0.00068225,10,-3.99435e-05,-2.15944,0.44687,0.13203,-35.7047,0.00576613,
2,0,0,1,0,14979.4,0.00409449,0.00381749,-6.85948,8,0.000544501,10,-2.6186e-05,-2.16371,0.962489,0.0612994,-16.4926,0.00381749,
2,0,0,1,0,14979.4,0.0020969,0.00173611,-6.8608,8,0.000407795,10,-1.19111e-05,-2.16363,0.847303,0.0696327,-18.5376,0.00173611,
2,0,0,1,0,14979.4,9.14991e-05,-0.000276738,-6.78358,8,0.000271459,10,1.87727e-06,-2.16854,0.500658,0.117845,-31.2644,-0.0002767377,
2,0,0,1,0,14979.5,-0.00189827,-0.00227389,-6.73543,8,0.000136991,10,1.53156e-05,-2.17163,0.684317,0.0862174,-22.6736,-0.00227389,
2,0,0,1,0,14979.5,-0.00389586,-0.00424694,-6.69356,8,2.76814e-06,10,2.84272e-05,-2.17434,0.81759,0.0721633,-18.8634,-0.004246939,
2,0,0,1,0,14979.5,-0.00589345,-0.00624198,-6.66057,8,-0.000130704,10,4.15752e-05,-2.17649,0.961996,0.0613308,-15.945,-0.00624198,
2,0,0,1,0,14979.5,-0.00789103,-0.00824407,-6.62983,8,-0.00026355,10,5.46568e-05,-2.1785,1.84832,0.0319209,-8.27688,-0.00824407,
2,0,0,1,0,14979.5,-0.00988862,-0.0102525,-6.62738,8,-0.000395457,10,6.7947e-05,-2.17866,4.1299,0.0142861,-3.69223,-0.0102525,
2,0,0,1,0,14979.6,-0.0118862,-0.0122905,-6.61489,8,-0.000527805,10,8.13001e-05,-2.17948,2.82709,0.0208695,-5.38892,-0.0122905,
2,0,0,1,0,14979.6,-0.0138838,-0.0143029,-6.60555,8,-0.000659959,10,9.44785e-05,-2.18009,4.7072,0.012534,-3.2326,-0.0143029,
2,0,0,1,0,14979.6,-0.0158814,-0.0162815,-6.60199,8,-0.000791968,10,0.00010749,-2.18033,-3.05325,-0.0193237,4.98899,-0.0162815,
2,0,0,1,0,14979.6,-0.017879,-0.018274,-6.62536,8,-0.000923569,10,0.000121072,-2.17879,-2.33739,-0.0252418,6.51656,-0.018274,
2,0,0,1,0,14979.6,-0.0198766,-0.020294,-6.62814,8,-0.001056,10,0.000134511,-2.17861,-4.29896,-0.0137242,3.5524,-0.020294,
2,0,0,1,0,14979.7,-0.0218741,-0.0222305,-6.63942,8,-0.00118857,10,0.000147598,-2.17787,-1.64199,-0.0359321,9.32076,-0.0222305,
2,0,0,1,0,14979.7,-0.0238717,-0.0242799,-6.66529,8,-0.00132157,10,0.000161833,-2.17618,-1.00941,-0.0584497,15.215,-0.0242799,
2,0,0,1,0,14979.7,-0.0258693,-0.0262537,-6.70063,8,-0.00145449,10,0.000175917,-2.17388,-1.14465,-0.0515441,13.4617,-0.0262537,
2,0,0,1,0,14979.7,-0.0278669,-0.0282605,-6.71887,8,-0.00158852,10,0.000189879,-2.1727,-1.2021,-0.0490809,12.884,-0.0282605,
2,0,0,1,0,14979.7,-0.0298645,-0.0302417,-6.75201,8,-0.00172311,10,0.000204192,-2.17057,-0.928794,-0.0635232,16.7393,-0.0302417,
2,0,0,1,0,14979.8,-0.0318621,-0.0322385,-6.78546,8,-0.00185837,10,0.000218753,-2.16842,-0.847316,-0.0696316,18.448,-0.0322385,
2,0,0,1,0,14979.8,-0.0338597,-0.0342128,-6.82527,8,-0.00199367,10,0.000233512,-2.16588,-0.801422,-0.0736191,19.6081,-0.0342128,
2,0,0,1,0,14979.8,-0.0358573,-0.0362435,-6.86399,8,-0.00213047,10,0.000248775,-2.16342,-0.742086,-0.0795056,21.3096,-0.0362435,
2,0,0,1,0,14979.8,-0.0378548,-0.0382074,-6.9104,8,-0.00226816,10,0.000264029,-2.1605,-0.798954,-0.0738465,19.8963,-0.0382074,
2,0,0,1,0,14979.8,-0.0398524,-0.0402373,-6.94346,8,-0.00240668,10,0.000279386,-2.15842,-0.626472,-0.0941782,25.5865,-0.0402373,
2,0,0,1,0,14979.9,-0.04185,-0.0422038,-7.01265,8,-0.00254542,10,0.00029596,-2.15412,-0.579571,-0.101799,27.8057,-0.0422038,
2,0,0,1,0,14979.9,-0.0438476,-0.0442305,-7.05449,8,-0.00268604,10,0.000312024,-2.15153,-0.709478,-0.0831597,22.9074,-0.0442305,
2,0,0,1,0,14979.9,-0.0458452,-0.0461969,-7.10412,8,-0.00282763,10,0.000328189,-2.14849,-0.623253,-0.0946646,26.2545,-0.0461969,
2,0,0,1,0,14979.9,-0.0478428,-0.0481972,-7.15863,8,-0.00297021,10,0.000345026,-2.14517,-0.498263,-0.118411,33.1375,-0.0481972,
2,0,0,1,0,14979.9,-0.0498495,-0.0502296,-7.23775,8,-0.00311407,10,0.000363549,-2.1404,-0.507175,-0.116331,32.7942,-0.0502296,
2,0,0,1,0,14980,-0.051838,-0.0521574,-7.2885,8,-0.00325854,10,0.000380149,-2.13736,-0.590198,-0.0999665,28.4561,-0.0521574,
2,0,0,1,0,14980,-0.0538355,-0.0541835,-7.35027,8,-0.00340483,10,0.000398263,-2.1337,-0.522546,-0.112909,32.4062,-0.0541835,
2,0,0,1,0,14980,-0.0558331,-0.056225,-7.42032,8,-0.00355246,10,0.000417208,-2.12958,-0.493232,-0.119619,34.6357,-0.056225,
2,0,0,1,0,14980,-0.0578216,-0.058179,-7.48865,8,-0.00370075,10,0.000435682,-2.1256,-0.477582,-0.123539,36.119,-0.058179,
2,0,0,1,0,14980,-0.0598283,-0.0601784,-7.56311,8,-0.00385125,10,0.000455136,-2.1213,-0.439252,-0.134319,39.6735,-0.0601784,
2,0,0,1,0,14980.1,-0.0618259,-0.0622086,-7.64852,8,-0.00400329,10,0.000475804,-2.11642,-0.444365,-0.132774,39.602,-0.0622086,
2,0,0,1,0,14980.1,-0.0638235,-0.0642067,-7.72264,8,-0.00415696,10,0.000495845,-2.11223,-0.449011,-0.1314,39.6242,-0.0642067,
2,0,0,1,0,14980.1,-0.0658211,-0.0661744,-7.80566,8,-0.00431217,10,0.000516535,-2.10759,-0.407611,-0.144746,44.1191,-0.06617444,
2,0,0,1,0,14980.1,-0.0678187,-0.0681866,-7.89823,8,-0.00446842,10,0.000538553,-2.10247,-0.403674,-0.146158,45.0379,-0.0681866,
2,0,0,1,0,14980.1,-0.0698162,-0.0701899,-7.98651,8,-0.00462724,10,0.000560573,-2.09764,-0.416756,-0.14157,44.1222,-0.0701899,
2,0,0,1,0,14980.2,-0.0718138,-0.0721746,-8.07419,8,-0.00478785,10,0.000582751,-2.0929,-0.381938,-0.154475,48.7344,-0.0721746,
2,0,0,1,0,14980.2,-0.0738114,-0.074197,-8.1818,8,-0.00495038,10,0.000607065,-2.08715,-0.347626,-0.169723,54.201,-0.074197,
2,0,0,1,0,14980.2,-0.075809,-0.0762018,-8.29247,8,-0.0051143,10,0.000631901,-2.08132,-0.376683,-0.15663,50.6266,-0.0762018,
2,0,0,1,0,14980.2,-0.0778066,-0.0781747,-8.38317,8,-0.00528105,10,0.000655352,-2.07659,-0.379799,-0.155345,50.8821,-0.0781747,
2,0,0,1,0,14980.2,-0.0798042,-0.0801589,-8.49382,8,-0.00544986,10,0.000680855,-2.0709,-0.35062,-0.168273,55.7896,-0.0801589,
2,0,0,1,0,14980.2,-0.0818018,-0.0822091,-8.60825,8,-0.0056209,10,0.000707676,-2.06509,-0.331173,-0.178155,59.8947,-0.08220908,
2,0,0,1,0,14980.3,-0.0837994,-0.0842058,-8.7362,8,-0.00579349,10,0.000735639,-2.05868,-0.335627,-0.17579,59.871,-0.0842058,
2,0,0,1,0,14980.3,-0.0857969,-0.0861892,-8.84655,8,-0.00596913,10,0.000762477,-2.05323,-0.349269,-0.168924,58.3489,-0.0861892,
2,0,0,1,0,14980.3,-0.0877945,-0.0881469,-8.96616,8,-0.00614721,10,0.00079034,-2.04739,-0.335098,-0.176068,61.6256,-0.0881469,
2,0,0,1,0,14980.3,-0.0897921,-0.0901631,-9.09144,8,-0.00632773,10,0.000819713,-2.04137,-0.345481,-0.170776,60.5586,-0.0901631,
2,0,0,1,0,14980.3,-0.0917897,-0.0921306,-9.20741,8,-0.00650966,10,0.000848284,-2.03586,-0.361892,-0.163032,58.5892,-0.0921306,
2,0,0,1,0,14980.4,-0.0937873,-0.0941708,-9.32624,8,-0.00669494,10,0.00087826,-2.03029,-0.373677,-0.15789,57.4388,-0.0941708,
2,0,0,1,0,14980.4,-0.0957849,-0.0961198,-9.43654,8,-0.00688257,10,0.000907039,-2.02519,-0.380574,-0.155029,57.111,-0.0961198,
2,0,0,1,0,14980.4,-0.0977825,-0.0981487,-9.55343,8,-0.00707244,10,0.000937657,-2.01984,-0.369117,-0.159841,59.6059,-0.0981487,
2,0,0,1,0,14980.4,-0.0997501,-0.100117,-9.67478,8,-0.00726068,10,0.000968607,-2.01436,0.00733266,8.04619,-2594.17,-0.100117,
2,0,0,1,1,14980.4,-0.0987313,-0.0990979,-7.09115,8,-0.00738886,10,0.000702718,-2.14928,-0.00952345,-6.19523,1651.63,-0.0990979,
2,0,0,1,1,14980.5,-0.0967337,-0.097049,-4.60812,8,-0.00750389,10,0.000447214,-2.33648,-0.0101943,-5.78758,1051.45,-0.097049,
2,0,0,1,1,14980.5,-0.0947361,-0.0950674,-2.85333,8,-0.00757746,10,0.000271258,-2.54465,-0.00819261,-7.20161,780.167,-0.0950674,
2,0,0,1,1,14980.5,-0.0927386,-0.0930763,-1.5087,8,-0.00762039,10,0.000140425,-2.8214,-0.00490005,-12.0407,611.502,-0.0930763,
2,0,0,1,1,14980.5,-0.090741,-0.0911374,-0.450103,8,-0.00763947,10,4.10213e-05,-3.34669,-0.00674763,-8.74381,477.122,-0.0911374,
2,1,0,1,1,14980.5,-0.0887434,-0.0891001,0.388442,8,-0.00763976,10,-3.46102e-05,-3.41067,0.0105968,5.56774,377.676,-0.0891001,
2,1,0,1,1,14980.6,-0.0867458,-0.0870469,1.09478,8,-0.00762461,10,-9.52969e-05,-2.96067,0.00632397,9.32959,319.79,-0.0870469,
2,1,0,1,1,14980.6,-0.0847482,-0.0850967,1.66868,8,-0.00759665,10,-0.000141999,-2.77763,0.0133725,4.41203,270.115,-0.0850967,
2,1,0,1,1,14980.6,-0.0827529,-0.0830923,2.16298,8,-0.00755837,10,-0.000179727,-2.66495,0.021009,2.80832,229.401,-0.0830923,
2,1,0,1,1,14980.6,-0.080753,-0.0811068,2.58397,8,-0.00751073,10,-0.000209577,-2.58771,0.0298875,1.97407,195.236,-0.0811068,
2,1,0,1,1,14980.6,-0.0787554,-0.079084,2.94555,8,-0.00745531,10,-0.000232946,-2.53083,0.0400184,1.47432,167.085,-0.079084,
2,1,0,1,1,14980.7,-0.0767579,-0.0771253,3.24921,8,-0.00739329,10,-0.000250596,-2.48822,0.0514022,1.14781,144.415,-0.0771253,
2,1,0,1,1,14980.7,-0.0747603,-0.0751116,3.51922,8,-0.0073255,10,-0.000264334,-2.45355,0.0628523,0.938708,128.18,-0.0751116,
2,1,0,1,1,14980.7,-0.0727627,-0.0731327,3.76099,8,-0.00725286,10,-0.000275051,-2.4247,0.0767247,0.768983,112.149,-0.0731327,
2,1,0,1,1,14980.7,-0.0707651,-0.0711505,3.96345,8,-0.0071755,10,-0.000282002,-2.40193,0.0957893,0.615935,94.9136,-0.0711505,
2,1,0,1,1,14980.7,-0.0687675,-0.0691173,4.1421,8,-0.00709439,10,-0.000286291,-2.38278,0.113278,0.520844,83.9325,-0.0691173,
2,1,0,1,1,14980.8,-0.0667699,-0.0671484,4.29936,8,-0.0070099,10,-0.000288695,-2.3666,0.13122,0.449628,75.2833,-0.0671484,
2,1,0,1,1,14980.8,-0.0647723,-0.0651355,4.44187,8,-0.00692272,10,-0.000289323,-2.35243,0.156351,0.377357,65.2391,-0.0651355,
2,1,0,1,1,14980.8,-0.0627748,-0.063107,4.56302,8,-0.00683267,10,-0.000287958,-2.34075,0.178351,0.330809,58.8671,-0.063107,
2,1,0,1,1,14980.8,-0.0607772,-0.0610985,4.67951,8,-0.00674022,10,-0.000285911,-2.3298,0.204256,0.288853,52.6111,-0.0610985,
2,1,0,1,1,14980.8,-0.0587796,-0.0591247,4.77253,8,-0.00664572,10,-0.000282174,-2.32125,0.236706,0.249254,46.409,-0.0591247,
2,1,0,1,1,14980.9,-0.056782,-0.0571367,4.86338,8,-0.00654988,10,-0.000277877,-2.31306,0.278068,0.212178,40.1856,-0.0571367,
2,1,0,1,1,14980.9,-0.0547844,-0.0550993,4.93429,8,-0.00645193,10,-0.000271876,-2.30678,0.347335,0.169865,32.6749,-0.0550993,
2,1,0,1,1,14980.9,-0.0527868,-0.0531101,4.99494,8,-0.00635261,10,-0.000265282,-2.30147,0.398105,0.148202,28.8673,-0.0531101,
2,1,0,1,1,14980.9,-0.0507892,-0.0511545,5.04817,8,-0.00625218,10,-0.000258236,-2.29687,0.400449,0.147335,29.0503,-0.0511545,
2,1,0,1,1,14980.9,-0.0487916,-0.0491529,5.1099,8,-0.00615113,10,-0.000251166,-2.29159,0.459716,0.12834,25.5405,-0.04915287,
2,1,0,1,1,14981,-0.046794,-0.0471439,5.1506,8,-0.0060485,10,-0.00024282,-2.28814,0.684472,0.0861979,17.3058,-0.0471439,
2,1,0,1,1,14981,-0.0447965,-0.0451619,5.17897,8,-0.00594517,10,-0.000233892,-2.28576,0.726363,0.0812266,16.4313,-0.0451619,
2,1,0,1,1,14981,-0.0427989,-0.0431482,5.21626,8,-0.00584124,10,-0.000225072,-2.28264,0.665193,0.0886961,18.0519,-0.0431482,
2,1,0,1,1,14981,-0.0408013,-0.0411589,5.25123,8,-0.00573713,10,-0.000216135,-2.27974,1.14066,0.0517243,10.5723,-0.0411589,
2,1,0,1,1,14981,-0.0388037,-0.0391489,5.25854,8,-0.00563199,10,-0.000205866,-2.27913,1.94825,0.0302835,6.22105,-0.0391489,
2,1,0,1,1,14981.1,-0.0368061,-0.0371394,5.27624,8,-0.00552654,10,-0.000195956,-2.27768,1.17271,0.050311,10.3656,-0.0371394,
2,1,0,1,1,14981.1,-0.0348085,-0.0351572,5.29991,8,-0.00542071,10,-0.00018633,-2.27573,1.20937,0.0487856,10.0839,-0.0351572,
2,1,0,1,1,14981.1,-0.0328109,-0.033159,5.31637,8,-0.00531512,10,-0.000176286,-2.27438,3.35684,0.017576,3.64035,-0.033159,
2,1,0,1,1,14981.1,-0.0308134,-0.0311978,5.31433,8,-0.00520882,10,-0.000165795,-2.27455,7.98845,0.00738567,1.53327,-0.0311978,
2,1,0,1,1,14981.1,-0.0288158,-0.0291663,5.3225,8,-0.00510238,10,-0.000155237,-2.27388,7.76979,0.00759351,1.57585,-0.0291663,
2,1,0,1,1,14981.2,-0.0268182,-0.0271526,5.3207,8,-0.0049959,10,-0.000144471,-2.27403,8.30384,0.00710515,1.4767,-0.0271526,
2,1,0,1,1,14981.2,-0.0248138,-0.0251775,5.32839,8,-0.00488946,10,-0.000134155,-2.2734,3.05628,0.0193045,4.01463,-0.0251775,
2,1,0,1,1,14981.2,-0.022823,-0.0231592,5.33674,8,-0.00478338,10,-0.000123594,-2.27272,22.8713,0.00257965,0.536547,-0.0231592,
2,1,0,1,1,14981.2,-0.0208254,-0.0211869,5.33053,8,-0.00467671,10,-0.000112938,-2.27323,-3.25082,-0.0181492,-3.77471,-0.02118694,
2,1,0,1,1,14981.2,-0.0188278,-0.0191666,5.32166,8,-0.00457024,10,-0.000101998,-2.27395,-5.14755,-0.0114618,-2.38228,-0.0191666,
2,1,0,1,1,14981.3,-0.0168393,-0.0171391,5.32088,8,-0.00446435,10,-9.11951e-05,-2.27402,39.2482,0.00150325,0.312244,-0.01713909,
2,1,0,1,1,14981.3,-0.0148327,-0.0151852,5.32291,8,-0.00435779,10,-8.08296e-05,-2.27385,-11.4789,-0.00513985,-1.06691,-0.0151852,
2,1,0,1,1,14981.3,-0.0128351,-0.0132301,5.31671,8,-0.0042514,10,-7.03406e-05,-2.27436,-4.33423,-0.0136126,-2.82481,-0.01323009,
2,1,0,1,1,14981.3,-0.0108375,-0.0111734,5.31157,8,-0.00414515,10,-5.93485e-05,-2.27478,-114.056,-0.000517292,-0.107331,-0.0111734,
2,1,0,1,1,14981.3,-0.00883989,-0.00918835,5.31628,8,-0.00403887,10,-4.88478e-05,-2.27439,489.513,0.000120528,0.024985,-0.00918835,
2,1,0,1,1,14981.4,-0.0068423,-0.007198,5.31167,8,-0.00393303,10,-3.82335e-05,-2.27477,-11.7867,-0.00500563,-1.03816,-0.007198,
2,1,0,1,1,14981.4,-0.00484471,-0.0052316,5.31217,8,-0.00382684,10,-2.77911e-05,-2.27473,-11.1629,-0.00528536,-1.0952,-0.0052316,
2,1,0,1,1,14981.4,-0.00284713,-0.00323987,5.30734,8,-0.00372064,10,-1.71951e-05,-2.27512,-25.8072,-0.00228619,-0.473881,-0.00323987,
2,1,0,1,1,14981.4,-0.000849538,-0.001205,5.31026,8,-0.00361439,10,-6.39887e-06,-2.27488, , , ,-0.001205,
2,1,0,1,1,14981.4,-2.55332e-05,-0.000458935,5.33105,8,-0.00357136,10,-2.4466e-06,-2.27319, , , ,-0.000458935,