File: Figure_codes/Fig_3-5/rawdata_trumpetplot_data/after 10th/20221101_1-115_003_TrumpetPlot_ParaChange_from10_every3_04_CV_C01_32.csv
mode,ox/red,error,control changes,counter inc.,time/s,control/V,Ewe/V,<I>/mA,cycle number,(Q-Qo)/C,I Range,P/W,log(|I|),Tafel slope mV/dec,alpha_eff,dI/d(E-IR),E-IR/V,
2,0,0,1,0,64104.2,2.44065e-05,-0.000287149,-0.37416,33,0.0000000E+000,10,1.0744e-07,-3.42694, , , ,-0.0002871489,
2,1,0,1,0,64104.3,0.00129787,0.000939741,0.0821047,33,-8.03702e-06,10,7.71572e-08,-4.08563, , , ,0.000939741,
2,1,0,1,0,64104.5,0.00279606,0.0024487,0.232087,33,1.96219e-05,10,5.68313e-07,-3.63435,0.00344546,17.124,77.7921,0.0024487,
2,1,0,1,0,64104.6,0.00429425,0.00397675,0.281085,33,6.05853e-05,10,1.11781e-06,-3.55116,0.0196931,2.99598,29.9776,0.00397675,
2,1,0,1,0,64104.8,0.00579244,0.00545389,0.31135,33,0.000107448,10,1.69807e-06,-3.50675,0.0363254,1.62421,19.2663,0.00545389,
2,1,0,1,0,64104.9,0.00729063,0.00697027,0.337265,33,0.000158291,10,2.35083e-06,-3.47203,0.0526872,1.11982,14.4978,0.00697027,
2,1,0,1,0,64105.1,0.00878882,0.00842409,0.356832,33,0.000212397,10,3.00599e-06,-3.44754,0.0683269,0.863496,11.8821,0.00842409,
2,1,0,1,0,64105.2,0.010287,0.00993199,0.372176,33,0.000269157,10,3.69645e-06,-3.42925,0.0894464,0.659613,9.4878,0.00993199,
2,1,0,1,0,64105.4,0.0117852,0.0114441,0.385954,33,0.00032813,10,4.4169e-06,-3.41346,0.0995294,0.59279,8.90641,0.0114441,
2,1,0,1,0,64105.5,0.0132838,0.0129705,0.398493,33,0.000389056,10,5.16865e-06,-3.39958,0.102777,0.574057,8.95231,0.0129705,
2,1,0,1,0,64105.7,0.0147814,0.0144397,0.412344,33,0.000451919,10,5.95414e-06,-3.38474,0.121775,0.484502,7.7628,0.0144397,
2,1,0,1,0,64105.8,0.0162789,0.0159265,0.422779,33,0.000516714,10,6.73338e-06,-3.37389,0.14189,0.415814,6.82767,0.01592646,
2,1,0,1,0,64106,0.017778,0.0174312,0.433436,33,0.000583035,10,7.5553e-06,-3.36308,0.153507,0.384347,6.4927,0.0174312,
2,1,0,1,0,64106.1,0.0192761,0.018903,0.442084,33,0.000650579,10,8.35673e-06,-3.3545,0.155791,0.378714,6.5384,0.018903,
2,1,0,1,0,64106.3,0.0207743,0.0203982,0.453777,33,0.000719825,10,9.25623e-06,-3.34316,0.150847,0.391126,6.89274,0.0203982,
2,1,0,1,0,64106.4,0.0222725,0.0219294,0.463456,33,0.000790631,10,1.01633e-05,-3.33399,0.161954,0.364301,6.57366,0.0219294,
2,1,0,1,0,64106.6,0.0237707,0.0234628,0.474578,33,0.000862877,10,1.11349e-05,-3.32369,0.172465,0.342099,6.32453,0.0234628,
2,1,0,1,0,64106.7,0.0252689,0.0249579,0.4816,33,0.000936474,10,1.20198e-05,-3.31731,0.164316,0.359064,6.77106,0.0249579,
2,1,0,1,0,64106.9,0.0267671,0.0264478,0.492616,33,0.00101163,10,1.30286e-05,-3.30749,0.159421,0.37009,7.1116,0.0264478,
2,1,0,1,0,64107,0.0282662,0.0279093,0.502128,33,0.00108846,10,1.40141e-05,-3.29919,0.164448,0.358777,7.0339,0.0279093,
2,1,0,1,0,64107.2,0.0297635,0.0294708,0.513632,33,0.00116665,10,1.51372e-05,-3.28935,0.188092,0.313676,6.27586,0.02947079,
2,1,0,1,0,64107.3,0.031261,0.0309011,0.519549,33,0.00124621,10,1.60546e-05,-3.28437,0.184915,0.319065,6.49463,0.0309011,
2,1,0,1,0,64107.5,0.0327599,0.0324635,0.531552,33,0.00132713,10,1.72561e-05,-3.27445,0.17769,0.332038,6.89098,0.0324635,
2,1,0,1,0,64107.6,0.034258,0.0338929,0.540901,33,0.00140963,10,1.83327e-05,-3.26688,0.198583,0.297106,6.26639,0.03389293,
2,1,0,1,0,64107.8,0.0357562,0.0354401,0.550907,33,0.0014936,10,1.95242e-05,-3.25892,0.223356,0.264152,5.67316,0.0354401,
2,1,0,1,0,64107.9,0.0372544,0.0369045,0.559897,33,0.00157896,10,2.06627e-05,-3.25189,0.20856,0.282893,6.181,0.0369045,
2,1,0,1,0,64108.1,0.0387526,0.0384145,0.569773,33,0.00166552,10,2.18876e-05,-3.2443,0.191367,0.308308,6.87369,0.0384145,
2,1,0,1,0,64108.2,0.0402508,0.0399107,0.579508,33,0.00175364,10,2.31286e-05,-3.23694,0.19886,0.296691,6.71066,0.0399107,
2,1,0,1,0,64108.4,0.041749,0.0414208,0.590094,33,0.00184338,10,2.44421e-05,-3.22908,0.234717,0.251367,5.78024,0.0414208,
2,1,0,1,0,64108.5,0.0432472,0.0428915,0.599242,33,0.00193453,10,2.57024e-05,-3.2224,0.237158,0.24878,5.80549,0.04289154,
2,1,0,1,0,64108.7,0.0447458,0.0444097,0.60703,33,0.00202685,10,2.6958e-05,-3.21679,0.215617,0.273634,6.4855,0.0444097,
2,1,0,1,0,64108.8,0.0462433,0.045921,0.616707,33,0.00212064,10,2.83198e-05,-3.20992,0.210441,0.280364,6.73366,0.045921,
2,1,0,1,0,64109,0.0477409,0.0473677,0.626608,33,0.00221589,10,2.96809e-05,-3.203,0.235097,0.250961,6.13983,0.0473677,
2,1,0,1,0,64109.1,0.0492399,0.0489136,0.634039,33,0.00231255,10,3.10131e-05,-3.19788,0.263913,0.223558,5.52842,0.0489136,
2,1,0,1,0,64109.3,0.0507381,0.0504088,0.640944,33,0.00241033,10,3.23092e-05,-3.19318,0.263841,0.22362,5.61862,0.0504088,
2,1,0,1,0,64109.4,0.0522363,0.0519315,0.652372,33,0.0025094,10,3.38787e-05,-3.1855,0.241252,0.244558,6.2159,0.0519315,
2,1,0,1,0,64109.6,0.0537345,0.0533896,0.66196,33,0.00260993,10,3.53417e-05,-3.17917,0.270212,0.218347,5.6236,0.0533896,
2,1,0,1,0,64109.7,0.0552327,0.0548667,0.669889,33,0.00271178,10,3.67546e-05,-3.174,0.32981,0.178891,4.65968,0.0548667,
2,1,0,1,0,64109.9,0.0567309,0.0563979,0.676029,33,0.0028147,10,3.81266e-05,-3.17003,0.329983,0.178797,4.72765,0.05639793,
2,1,0,1,0,64110,0.0582291,0.0578549,0.683134,33,0.0029186,10,3.95227e-05,-3.16549,0.31606,0.186673,4.98426,0.0578549,
2,1,0,1,0,64110.2,0.0597282,0.0593699,0.692138,33,0.00302384,10,4.10922e-05,-3.15981,0.290794,0.202893,5.47888,0.0593699,
2,1,0,1,0,64110.3,0.0612255,0.0609119,0.698238,33,0.0031302,10,4.2531e-05,-3.156,0.348624,0.169237,4.6073,0.0609119,
2,1,0,1,0,64110.5,0.062723,0.0623802,0.70672,33,0.00323764,10,4.40853e-05,-3.15075,0.334083,0.176603,4.87223,0.0623802,
2,1,0,1,0,64110.6,0.0642218,0.0638579,0.711261,33,0.00334594,10,4.54196e-05,-3.14797,0.335931,0.175632,4.89402,0.0638579,
2,1,0,1,0,64110.8,0.06572,0.0653817,0.720919,33,0.00345544,10,4.71349e-05,-3.14211,0.331082,0.178203,5.00074,0.0653817,
2,1,0,1,0,64110.9,0.0672182,0.0669023,0.729079,33,0.00356612,10,4.87771e-05,-3.13723,0.355627,0.165904,4.69589,0.0669023,
2,1,0,1,0,64111.1,0.0687164,0.0684145,0.734011,33,0.00367762,10,5.0217e-05,-3.1343,0.497557,0.118579,3.38757,0.0684145,
2,1,0,1,0,64111.2,0.0702146,0.069898,0.736181,33,0.00378986,10,5.14576e-05,-3.13302,0.406867,0.14501,4.17561,0.069898,
2,1,0,1,0,64111.4,0.0717128,0.0713751,0.744111,33,0.00390302,10,5.3111e-05,-3.12836,0.378307,0.155958,4.52927,0.0713751,
2,1,0,1,0,64111.5,0.073211,0.0728714,0.749744,33,0.00401722,10,5.46348e-05,-3.12509,0.468446,0.125948,3.68686,0.0728714,
2,1,0,1,0,64111.7,0.0747092,0.0743888,0.756756,33,0.0041323,10,5.62942e-05,-3.12104,0.594838,0.0991866,2.92389,0.0743888,
2,1,0,1,0,64111.8,0.0762078,0.0758528,0.759473,33,0.00424806,10,5.76082e-05,-3.11949,0.515669,0.114414,3.39696,0.0758528,
2,1,0,1,0,64112,0.0777053,0.0773717,0.767962,33,0.00436451,10,5.94185e-05,-3.11466,0.424575,0.138963,4.15474,0.0773717,
2,1,0,1,0,64112.1,0.0792029,0.0788903,0.771442,33,0.00448183,10,6.08593e-05,-3.1127,0.453183,0.13019,3.91631,0.0788903,
2,1,0,1,0,64112.3,0.0807019,0.0803811,0.777768,33,0.00460007,10,6.25178e-05,-3.10915,0.579185,0.101867,3.08536,0.0803811,
2,1,0,1,0,64112.4,0.0822001,0.0818625,0.779935,33,0.004719,10,6.38474e-05,-3.10794,0.479512,0.123042,3.75252,0.0818625,
2,1,0,1,0,64112.6,0.0836983,0.083381,0.78671,33,0.00483858,10,6.55967e-05,-3.10419,0.50097,0.117772,3.62997,0.083381,
2,1,0,1,0,64112.7,0.0851965,0.084854,0.793733,33,0.00495916,10,6.73514e-05,-3.10033,0.456955,0.129115,4.00125,0.084854,
2,1,0,1,0,64112.9,0.0866947,0.0863407,0.799407,33,0.00508072,10,6.90213e-05,-3.09723,0.483748,0.121964,3.81027,0.0863407,
2,1,0,1,0,64113,0.0881929,0.0878517,0.80691,33,0.00520326,10,7.08884e-05,-3.09317,0.384666,0.15338,4.82731,0.0878517,
2,1,0,1,0,64113.2,0.0896911,0.0893723,0.813842,33,0.00532656,10,7.27349e-05,-3.08946,0.345412,0.17081,5.44062,0.0893723,
2,1,0,1,0,64113.3,0.0911902,0.0908473,0.82474,33,0.00545134,10,7.49254e-05,-3.08368,0.273544,0.215687,6.92142,0.0908473,
2,1,0,1,0,64113.5,0.0926875,0.0923498,0.834019,33,0.00557761,10,7.70215e-05,-3.07882,0.286645,0.205829,6.68874,0.0923498,
2,1,0,1,0,64113.6,0.094185,0.0938615,0.842288,33,0.00570534,10,7.90584e-05,-3.07454,0.291262,0.202567,6.67052,0.09386152,
2,1,0,1,0,64113.8,0.0956838,0.0953594,0.851688,33,0.00583449,10,8.12165e-05,-3.06972,0.259839,0.227064,7.57537,0.0953594,
2,1,0,1,0,64113.9,0.097182,0.0968641,0.865734,33,0.00596541,10,8.38586e-05,-3.06262,0.213063,0.276914,9.35181,0.0968641,
2,1,0,1,0,64114.1,0.0986802,0.098336,0.878614,33,0.00609831,10,8.63993e-05,-3.0562,0.21193,0.278394,9.56794,0.098336,
2,1,0,1,0,64114.2,0.100178,0.0998375,0.894014,33,0.00623337,10,8.92561e-05,-3.04866,0.219177,0.269188,9.38041,0.0998375,
2,1,0,1,0,64114.4,0.101677,0.101346,0.906428,33,0.00637049,10,9.18633e-05,-3.04267,0.218664,0.269821,9.57433,0.101346,
2,1,0,1,0,64114.5,0.103175,0.102825,0.923878,33,0.00650974,10,9.49974e-05,-3.03439,0.199381,0.295916,10.6658,0.102825,
2,1,0,1,0,64114.7,0.104673,0.104311,0.94255,33,0.00665151,10,9.83186e-05,-3.0257,0.203303,0.290208,10.6371,0.104311,
2,1,0,1,0,64114.8,0.106171,0.105861,0.956226,33,0.00679588,10,0.000101227,-3.01944,0.222349,0.265349,9.8718,0.105861,
2,1,0,1,0,64115,0.10767,0.107315,0.970168,33,0.00694248,10,0.000104114,-3.01315,0.232288,0.253995,9.63075,0.107315,
2,1,0,1,0,64115.1,0.109167,0.108849,0.984647,33,0.00709104,10,0.000107178,-3.00672,0.230625,0.255827,9.84373,0.108849,
2,1,0,1,0,64115.3,0.110665,0.11031,0.999449,33,0.00724203,10,0.00011025,-3.00024,0.229383,0.257212,10.0335,0.11031,
2,1,0,1,0,64115.4,0.112164,0.111857,1.01455,33,0.00739531,10,0.000113485,-2.99373,0.283586,0.20805,8.21298,0.111857,
2,1,0,1,0,64115.6,0.113662,0.11329,1.02718,33,0.00755039,10,0.000116369,-2.98835,0.317714,0.185702,7.4267,0.1132898,
2,1,0,1,0,64115.7,0.11516,0.114822,1.03644,33,0.00770692,10,0.000119006,-2.98446,0.349835,0.168651,6.81976,0.1148221,
2,1,0,1,0,64115.9,0.116658,0.116321,1.04615,33,0.00786508,10,0.000121689,-2.98041,0.362392,0.162807,6.6414,0.1163215,
2,1,0,1,0,64116,0.118157,0.117825,1.0571,33,0.00802483,10,0.000124553,-2.97588,0.495954,0.118963,4.89022,0.117825,
2,1,0,1,0,64116.2,0.119655,0.11934,1.06257,33,0.0081857,10,0.000126807,-2.97364,0.704164,0.0837873,3.47237,0.11934,
2,1,0,1,0,64116.3,0.121153,0.12081,1.06738,33,0.00834735,10,0.00012895,-2.97168,0.661212,0.08923,3.72237,0.1208102,
2,1,0,1,0,64116.5,0.122652,0.122342,1.07473,33,0.00850995,10,0.000131485,-2.9687,0.630086,0.0936381,3.91881,0.122342,
2,1,0,1,0,64116.6,0.124149,0.123812,1.07868,33,0.0086734,10,0.000133553,-2.96711,0.688971,0.0856349,3.60554,0.123812,
2,1,0,1,0,64116.8,0.125647,0.125299,1.08388,33,0.00883752,10,0.000135809,-2.96502,1.26103,0.0467871,1.9769,0.125299,
2,1,0,1,0,64116.9,0.127146,0.126781,1.08321,33,0.00900225,10,0.000137331,-2.96529,1.56928,0.037597,1.59093,0.126781,
2,1,0,1,0,64117.1,0.128644,0.128357,1.0885,33,0.00916711,10,0.000139717,-2.96317,1.33201,0.044294,1.88141,0.128357,
2,1,0,1,0,64117.2,0.130142,0.129819,1.09161,33,0.00933251,10,0.000141713,-2.96193,4.75193,0.012416,0.527298,0.129819,
2,1,0,1,0,64117.4,0.13164,0.131338,1.09088,33,0.00949824,10,0.000143274,-2.96222,-1.3305,-0.0443442,-1.88115,0.131338,
2,1,0,1,0,64117.5,0.133139,0.132804,1.08944,33,0.00966368,10,0.000144683,-2.9628,-0.858942,-0.0686891,-2.91011,0.132804,
2,1,0,1,0,64117.6,0.134637,0.134296,1.08335,33,0.00982825,10,0.00014549,-2.96523,-0.508266,-0.116081,-4.89347,0.134296,
2,1,0,1,0,64117.8,0.136135,0.135806,1.07431,33,0.00999195,10,0.000145898,-2.96887,-0.358635,-0.164513,-6.87043,0.135806,
2,1,0,1,0,64117.9,0.137633,0.13731,1.06301,33,0.010154,10,0.000145962,-2.97346,-0.227191,-0.259693,-10.7087,0.13731,
2,1,0,1,0,64118.1,0.139132,0.138769,1.04443,33,0.010314,10,0.000144935,-2.98112,-0.179595,-0.328517,-13.317,0.138769,
2,1,0,1,0,64118.2,0.140629,0.14028,1.01909,33,0.0104704,10,0.000142958,-2.99179,-0.139158,-0.423979,-16.8154,0.14028,
2,1,0,1,0,64118.4,0.142127,0.141785,0.990957,33,0.0106232,10,0.000140503,-3.00395,-0.124934,-0.472251,-18.1998,0.141785,
2,1,0,1,0,64118.5,0.143626,0.143304,0.962229,33,0.0107719,10,0.000137891,-3.01672,-0.102544,-0.575362,-21.4971,0.143304,
2,1,0,1,0,64118.7,0.145124,0.144798,0.926525,33,0.0109156,10,0.000134159,-3.03314,-0.0856089,-0.689181,-24.8563,0.144798,
2,1,0,1,0,64118.8,0.146622,0.146296,0.886335,33,0.0110536,10,0.000129667,-3.0524,-0.0815986,-0.723051,-25.0642,0.146296,
2,1,0,1,0,64119,0.14812,0.147788,0.85009,33,0.0111859,10,0.000125633,-3.07054,-0.079707,-0.740211,-24.5651,0.147788,
2,1,0,1,0,64119.1,0.149619,0.149313,0.814855,33,0.0113127,10,0.000121668,-3.08892,-0.076762,-0.76861,-24.4098,0.149313,
2,1,0,1,0,64119.3,0.151117,0.150819,0.778889,33,0.0114341,10,0.000117471,-3.10852,-0.0768469,-0.76776,-23.3501,0.150819,
2,1,0,1,0,64119.4,0.152615,0.152261,0.744876,33,0.0115503,10,0.000113415,-3.12792,-0.0797963,-0.739382,-21.5796,0.152261,
2,1,0,1,0,64119.6,0.154114,0.153803,0.716136,33,0.0116617,10,0.000110144,-3.145,-0.0899087,-0.656221,-18.4031,0.153803,
2,1,0,1,0,64119.7,0.155612,0.155266,0.691858,33,0.011769,10,0.000107422,-3.15998,-0.103658,-0.569177,-15.3846,0.155266,
2,1,0,1,0,64119.9,0.157109,0.156763,0.667392,33,0.0118728,10,0.000104622,-3.17562,-0.106427,-0.554368,-14.4784,0.1567627,
2,1,0,1,0,64120,0.158608,0.158268,0.646889,33,0.0119735,10,0.000102382,-3.18917,-0.119482,-0.493799,-12.5344,0.158268,
2,1,0,1,0,64120.2,0.160106,0.159792,0.630606,33,0.0120713,10,0.000100766,-3.20024,-0.134886,-0.437407,-10.815,0.159792,
2,1,0,1,0,64120.3,0.161604,0.161274,0.616642,33,0.0121668,10,9.94485e-05,-3.20997,-0.16071,-0.367121,-8.8529,0.161274,
2,1,0,1,0,64120.5,0.163102,0.162774,0.605877,33,0.0122604,10,9.86208e-05,-3.21762,-0.179004,-0.329602,-7.78609,0.162774,
2,1,0,1,0,64120.6,0.164601,0.164254,0.595871,33,0.0123523,10,9.78742e-05,-3.22485,-0.196541,-0.300192,-6.96205,0.164254,
2,1,0,1,0,64120.8,0.166099,0.16577,0.585091,33,0.0124426,10,9.69908e-05,-3.23278,-0.231551,-0.254803,-5.83004,0.16577,
2,1,0,1,0,64120.9,0.167597,0.167275,0.578221,33,0.0125317,10,9.6722e-05,-3.23791,-0.343241,-0.171891,-3.87597,0.167275,
2,1,0,1,0,64121.1,0.169095,0.16872,0.572372,33,0.0126199,10,9.65709e-05,-3.24232,-0.329109,-0.179272,-4.00614,0.16872,
2,1,0,1,0,64121.2,0.170594,0.170279,0.564927,33,0.0127071,10,9.6195e-05,-3.24801,-0.312131,-0.189023,-4.17947,0.170279,
2,1,0,1,0,64121.4,0.172091,0.171744,0.558215,33,0.0127934,10,9.58703e-05,-3.2532,-0.378185,-0.156008,-3.41457,0.171744,
2,1,0,1,0,64121.5,0.173589,0.173265,0.555422,33,0.0128788,10,9.62353e-05,-3.25538,-0.542841,-0.108688,-2.35835,0.173265,
2,1,0,1,0,64121.7,0.175088,0.174753,0.551773,33,0.0129638,10,9.6424e-05,-3.25824,-0.531371,-0.111034,-2.38811,0.174753,
2,1,0,1,0,64121.8,0.176586,0.176268,0.547651,33,0.0130481,10,9.65335e-05,-3.2615,-0.547172,-0.107827,-2.30227,0.176268,
2,1,0,1,0,64122,0.178084,0.177771,0.541914,33,0.0131319,10,9.63367e-05,-3.26607,-0.569901,-0.103527,-2.20069,0.177771,
2,1,0,1,0,64122.1,0.179582,0.179233,0.54091,33,0.0132151,10,9.69491e-05,-3.26687,-0.77394,-0.0762333,-1.61361,0.179233,
2,1,0,1,0,64122.3,0.181081,0.180765,0.53874,33,0.013298,10,9.73851e-05,-3.26862,-0.780794,-0.0755641,-1.5897,0.180765,
2,1,0,1,0,64122.4,0.182579,0.182265,0.536859,33,0.0133807,10,9.78505e-05,-3.27014,-0.521619,-0.113109,-2.36638,0.182265,
2,1,0,1,0,64122.6,0.184077,0.183756,0.535071,33,0.0134629,10,9.83225e-05,-3.27159,-0.800876,-0.0736693,-1.53904,0.183756,
2,1,0,1,0,64122.7,0.185576,0.185243,0.532935,33,0.0135447,10,9.87223e-05,-3.27333,-0.929832,-0.0634523,-1.31774,0.185243,
2,1,0,1,0,64122.9,0.187074,0.186718,0.53045,33,0.0136262,10,9.90445e-05,-3.27536,-2.35633,-0.0250389,-0.518064,0.186718,
2,1,0,1,0,64123,0.188571,0.188202,0.528536,33,0.0137076,10,9.94719e-05,-3.27693,-1.58398,-0.0372479,-0.768457,0.1882025,
2,1,0,1,0,64123.2,0.19007,0.189768,0.527194,33,0.0137887,10,0.000100045,-3.27803,-1.48148,-0.0398251,-0.819218,0.189768,
2,1,0,1,0,64123.3,0.191568,0.191243,0.524659,33,0.0138694,10,0.000100338,-3.28012,-2.24595,-0.0262695,-0.539003,0.191243,
2,1,0,1,0,64123.5,0.193066,0.19272,0.524518,33,0.01395,10,0.000101085,-3.28024,28.4666,0.0020726,0.042387,0.19272,
2,1,0,1,0,64123.6,0.194564,0.194236,0.523861,33,0.0140305,10,0.000101753,-3.28078,-0.942935,-0.0625706,-1.27844,0.194236,
2,1,0,1,0,64123.8,0.196063,0.195702,0.521167,33,0.0141109,10,0.000101994,-3.28302,-1.08817,-0.0542192,-1.10553,0.195702,
2,1,0,1,0,64123.9,0.197561,0.197201,0.519801,33,0.0141909,10,0.000102505,-3.28416,-1.12007,-0.0526752,-1.06985,0.197201,
2,1,0,1,0,64124.1,0.199059,0.198707,0.519397,33,0.0142708,10,0.000103208,-3.2845,-2.78379,-0.0211941,-0.430016,0.1987066,
2,1,0,1,0,64124.2,0.200557,0.200223,0.519485,33,0.0143505,10,0.000104013,-3.28443,-1.58603,-0.0371998,-0.753191,0.200223,
2,1,0,1,0,64124.4,0.202056,0.201683,0.517793,33,0.0144302,10,0.00010443,-3.28584,-1.47143,-0.040097,-0.808901,0.201683,
2,1,0,1,0,64124.5,0.203553,0.203202,0.516612,33,0.0145097,10,0.000104976,-3.28684,-3.1516e+06,-1.87206e-08,-3.77639e-07,0.203202,
2,1,0,1,0,64124.7,0.205051,0.204732,0.515839,33,0.0145889,10,0.000105609,-3.28749,1.60707,0.0367128,0.742541,0.204732,
2,1,0,1,0,64124.8,0.20655,0.206152,0.514698,33,0.0146682,10,0.000106106,-3.28845,-6.52005,-0.009049,-0.182223,0.206152,
2,1,0,1,0,64125,0.208048,0.207666,0.515593,33,0.0147476,10,0.000107071,-3.28769,-1.51695,-0.0388939,-0.780052,0.207666,
2,1,0,1,0,64125.1,0.209546,0.20921,0.5143,33,0.0148267,10,0.000107597,-3.28878,-1.19038,-0.0495641,-0.994877,0.2092099,
2,1,0,1,0,64125.3,0.211044,0.210671,0.513328,33,0.0149055,10,0.000108143,-3.2896,-2.54812,-0.0231543,-0.463173,0.210671,
2,1,0,1,0,64125.4,0.212543,0.212245,0.512298,33,0.0149843,10,0.000108733,-3.29048,-1.8387,-0.0320878,-0.640658,0.212245,
2,1,0,1,0,64125.6,0.214041,0.213678,0.512298,33,0.0150631,10,0.000109467,-3.29048,-1.35368,-0.0435848,-0.870117,0.213678,
2,1,0,1,0,64125.7,0.215539,0.215222,0.51183,33,0.0151416,10,0.000110157,-3.29087,-1.69576,-0.0347926,-0.694122,0.215222,
2,1,0,1,0,64125.9,0.217038,0.216725,0.510173,33,0.01522,10,0.000110567,-3.29228,-2.83044,-0.0208448,-0.414565,0.216725,
2,1,0,1,0,64126,0.218535,0.218196,0.509897,33,0.0152984,10,0.000111257,-3.29252,7.68122,0.00768107,0.152688,0.2181958,
2,1,0,1,0,64126.2,0.220033,0.219712,0.509796,33,0.0153767,10,0.000112009,-3.2926,-1.38876,-0.0424839,-0.845872,0.219712,
2,1,0,1,0,64126.3,0.221532,0.221232,0.508358,33,0.015455,10,0.000112465,-3.29383,-1.60303,-0.0368052,-0.730836,0.221232,
2,1,0,1,0,64126.5,0.22303,0.222683,0.50597,33,0.015533,10,0.000112671,-3.29588,-1.74897,-0.0337341,-0.668499,0.222683,
2,1,0,1,0,64126.6,0.224528,0.224193,0.505873,33,0.0156109,10,0.000113413,-3.29596,-3.33662,-0.0176826,-0.349674,0.224193,
2,1,0,1,0,64126.8,0.226026,0.225679,0.507831,33,0.0156887,10,0.000114607,-3.29428,-5.17075,-0.0114103,-0.225293,0.225679,
2,1,0,1,0,64126.9,0.227524,0.227203,0.505075,33,0.0157665,10,0.000114754,-3.29664,-0.793121,-0.0743896,-1.46423,0.227203,
2,1,0,1,0,64127.1,0.229023,0.228716,0.504636,33,0.0158442,10,0.000115418,-3.29702,-2.01725,-0.0292478,-0.57684,0.228716,
2,1,0,1,0,64127.2,0.230521,0.230216,0.504866,33,0.0159217,10,0.000116228,-3.29682,-1.26218,-0.0467445,-0.922774,0.230216,
2,1,0,1,0,64127.4,0.232019,0.231676,0.503723,33,0.0159992,10,0.0001167,-3.29781,11.4302,0.00516177,0.101515,0.2316757,
2,1,0,1,0,64127.5,0.233518,0.233173,0.504857,33,0.0160767,10,0.000117719,-3.29683,-1.89995,-0.0310534,-0.611033,0.2331726,
2,1,0,1,0,64127.7,0.235015,0.234644,0.504083,33,0.0161542,10,0.00011828,-3.2975,-1.43726,-0.0410505,-0.805417,0.234644,
2,1,0,1,0,64127.8,0.236513,0.236144,0.50261,33,0.0162313,10,0.000118688,-3.29877,-6.85432,-0.00860771,-0.168961,0.236144,
2,1,0,1,0,64128,0.238012,0.23769,0.501794,33,0.0163086,10,0.000119272,-3.29947,3.33402,0.0176963,0.346832,0.23769,
2,1,0,1,0,64128.1,0.23951,0.23918,0.50082,33,0.0163858,10,0.000119786,-3.30032,-1.72377,-0.0342272,-0.669643,0.23918,
2,1,0,1,0,64128.3,0.241008,0.240693,0.500908,33,0.0164628,10,0.000120565,-3.30024,-1.42882,-0.0412929,-0.807985,0.240693,
2,1,0,1,0,64128.4,0.242506,0.242177,0.49968,33,0.0165397,10,0.000121011,-3.30131,-1.85368,-0.0318285,-0.621404,0.242177,
2,1,0,1,0,64128.6,0.244005,0.243657,0.498953,33,0.0166166,10,0.000121573,-3.30194,3.05942,0.0192847,0.376848,0.243657,
2,1,0,1,0,64128.7,0.245503,0.245188,0.50067,33,0.0166934,10,0.000122758,-3.30045,-1.63696,-0.0360425,-0.703172,0.245188,
2,1,0,1,0,64128.9,0.247001,0.246662,0.499112,33,0.0167702,10,0.000123112,-3.3018,-2.06151,-0.0286197,-0.556266,0.246662,
2,1,0,1,0,64129,0.2485,0.248157,0.497511,33,0.0168468,10,0.000123461,-3.3032,-9.57022,-0.00616495,-0.119808,0.2481574,
2,1,0,1,0,64129.2,0.249997,0.249619,0.498462,33,0.0169232,10,0.000124425,-3.30237,-2.69791,-0.0218688,-0.425027,0.249619,
2,1,0,1,0,64129.3,0.251495,0.251189,0.49834,33,0.0169996,10,0.000125177,-3.30247,27.2879,0.00216213,0.0418629,0.251189,
2,1,0,1,0,64129.5,0.252994,0.252671,0.49577,33,0.0170761,10,0.000125266,-3.30472,-1.44331,-0.0408782,-0.791167,0.252671,
2,1,0,1,0,64129.6,0.254492,0.25417,0.494654,33,0.0171523,10,0.000125726,-3.3057,-3.89913,-0.0151316,-0.293297,0.25417,
2,1,0,1,0,64129.8,0.25599,0.255668,0.49574,33,0.0172284,10,0.000126745,-3.30475,-12.2619,-0.00481164,-0.0931686,0.255668,
2,1,0,1,0,64129.9,0.257488,0.257198,0.495522,33,0.0173044,10,0.000127447,-3.30494,-90.9564,-0.000648663,-0.0125052,0.257198,
2,1,0,1,0,64130.1,0.258987,0.258705,0.495302,33,0.0173805,10,0.000128137,-3.30513,-2.60793,-0.0226233,-0.436555,0.258705,
2,1,0,1,0,64130.2,0.260485,0.260234,0.495355,33,0.0174565,10,0.000128908,-3.30508,-1.65449,-0.0356606,-0.686627,0.260234,
2,1,0,1,0,64130.4,0.261983,0.261647,0.493547,33,0.0175322,10,0.000129135,-3.30667,-1.70814,-0.0345405,-0.664866,0.261647,
2,1,0,1,0,64130.5,0.263481,0.263156,0.492572,33,0.0176079,10,0.000129623,-3.30753,3.4329,0.0171866,0.329857,0.263156,
2,1,0,1,0,64130.7,0.26498,0.264678,0.492057,33,0.0176836,10,0.000130237,-3.30798,-2.19148,-0.0269225,-0.516906,0.264678,
2,1,0,1,0,64130.8,0.266477,0.266171,0.491119,33,0.0177591,10,0.000130722,-3.30881,-2.9271,-0.0201565,-0.387104,0.266171,
2,1,0,1,0,64131,0.267976,0.267674,0.488959,33,0.0178346,10,0.000130882,-3.31073,-3.53106,-0.0167089,-0.319946,0.267674,
2,1,0,1,0,64131.1,0.269474,0.269155,0.490187,33,0.0179099,10,0.000131936,-3.30964,127.292,0.000463503,0.00885328,0.2691547,
2,1,0,1,0,64131.3,0.270972,0.270653,0.490894,33,0.0179852,10,0.000132862,-3.30901,-1.66641,-0.0354055,-0.67503,0.270653,
2,1,0,1,0,64131.4,0.27247,0.27213,0.48797,33,0.0180604,10,0.000132791,-3.31161,-1.57074,-0.0375618,-0.714166,0.27213,
2,1,0,1,0,64131.6,0.273968,0.27364,0.485605,33,0.0181354,10,0.000132881,-3.31372,-3.1177,-0.0189242,-0.360602,0.27364,
2,1,0,1,0,64131.7,0.275467,0.275117,0.487069,33,0.0182102,10,0.000134001,-3.31241,-1.52867,-0.0385956,-0.733474,0.275117,
2,1,0,1,0,64131.9,0.276965,0.276605,0.485826,33,0.0182851,10,0.000134382,-3.31352,-1.55708,-0.0378913,-0.718695,0.276605,
2,1,0,1,0,64132,0.278463,0.278178,0.485767,33,0.0183597,10,0.00013513,-3.31357,-0.918385,-0.0642432,-1.21761,0.278178,
2,1,0,1,0,64132.2,0.279962,0.279695,0.484917,33,0.0184344,10,0.000135629,-3.31433,-3.09717,-0.0190497,-0.360463,0.279695,
2,1,0,1,0,64132.3,0.281459,0.28112,0.484026,33,0.0185087,10,0.00013607,-3.31513,-3.24856,-0.0181619,-0.343164,0.28112,
2,1,0,1,0,64132.5,0.282957,0.282636,0.483309,33,0.0185831,10,0.000136601,-3.31577,-6.01794,-0.00980403,-0.184548,0.282636,
2,1,0,1,0,64132.6,0.284456,0.284135,0.483161,33,0.0186573,10,0.000137283,-3.31591,-64.7474,-0.000911233,-0.0171603,0.284135,
2,1,0,1,0,64132.8,0.285954,0.28562,0.481683,33,0.0187315,10,0.000137578,-3.31724,-3.01946,-0.0195399,-0.367034,0.28562,
2,1,0,1,0,64132.9,0.287452,0.287145,0.480004,33,0.0188055,10,0.000137831,-3.31875,-1.29311,-0.0456265,-0.858281,0.287145,
2,1,0,1,0,64133.1,0.28895,0.288648,0.479904,33,0.0188793,10,0.000138524,-3.31885,-3.63668,-0.0162236,-0.303555,0.288648,
2,1,0,1,0,64133.2,0.290449,0.290116,0.480752,33,0.0189531,10,0.000139474,-3.31808,-2.7988,-0.0210805,-0.394244,0.290116,
2,1,0,1,0,64133.4,0.291947,0.291647,0.478735,33,0.0190267,10,0.000139622,-3.3199,-1.38577,-0.0425756,-0.795266,0.291647,
2,1,0,1,0,64133.5,0.293445,0.293136,0.476383,33,0.0191002,10,0.000139645,-3.32204,-5.97599,-0.00987285,-0.184335,0.293136,
2,1,0,1,0,64133.7,0.294943,0.294639,0.477222,33,0.0191735,10,0.000140608,-3.32128,-3.00357,-0.0196433,-0.366302,0.294639,
2,1,0,1,0,64133.8,0.296442,0.296121,0.477558,33,0.0192469,10,0.000141415,-3.32097,-15.3142,-0.00385264,-0.0716688,0.296121,
2,1,0,1,0,64134,0.297939,0.297644,0.476628,33,0.0193202,10,0.000141865,-3.32182,-2.14565,-0.0274975,-0.510166,0.297644,
2,1,0,1,0,64134.1,0.299437,0.299113,0.474503,33,0.0193933,10,0.00014193,-3.32376,-0.00335335,-17.5944,-186.783,0.299113,
2,1,0,1,0,64134.2,0.299738,0.299465,0.28713,33,0.0194296,10,8.59852e-05,-3.54192,0.000695821,84.7919,390.992,0.299465,
2,1,0,1,0,64134.4,0.29824,0.297901,0.0336061,33,0.0194455,10,1.00113e-05,-4.47358,0.00318015,18.5526,134.738,0.297901,
2,1,0,1,0,64134.5,0.296741,0.29643,-0.0190832,33,0.019444,10,-5.65685e-06,-4.71935,0.0359201,1.64254,30.9434,0.29643,
2,0,0,1,0,64134.7,0.295243,0.294929,-0.047048,33,0.0194369,10,-1.38758e-05,-4.32746,-0.00392609,-15.0277,15.838,0.294929,
2,0,0,1,0,64134.8,0.293745,0.293401,-0.0651102,33,0.0194265,10,-1.91034e-05,-4.18635,-0.0118194,-4.9918,11.5499,0.293401,
2,0,0,1,0,64135,0.292246,0.291923,-0.0805457,33,0.0194137,10,-2.35131e-05,-4.09396,-0.0191343,-3.08346,9.22856,0.291923,
2,0,0,1,0,64135.1,0.290748,0.290442,-0.0920326,33,0.0193987,10,-2.67302e-05,-4.03606,-0.0246653,-2.39203,8.35947,0.290442,
2,0,0,1,0,64135.3,0.28925,0.288862,-0.104718,33,0.0193819,10,-3.02491e-05,-3.97998,-0.0344433,-1.71296,6.90196,0.288862,
2,0,0,1,0,64135.4,0.287752,0.287367,-0.11493,33,0.0193636,10,-3.3027e-05,-3.93957,-0.0439482,-1.34249,5.97833,0.287367,
2,0,0,1,0,64135.6,0.286253,0.28593,-0.122049,33,0.0193439,10,-3.48976e-05,-3.91346,-0.0499764,-1.18056,5.6348,0.28593,
2,0,0,1,0,64135.7,0.284755,0.284409,-0.129751,33,0.0193229,10,-3.69024e-05,-3.88689,-0.0494289,-1.19363,6.0605,0.284409,
2,0,0,1,0,64135.9,0.283258,0.282943,-0.140108,33,0.0193007,10,-3.96426e-05,-3.85354,-0.0663961,-0.888606,4.83116,0.282943,
2,0,0,1,0,64136,0.281759,0.281482,-0.145957,33,0.0192773,10,-4.10842e-05,-3.83578,-0.0693034,-0.851329,4.82135,0.281482,
2,0,0,1,0,64136.2,0.280261,0.279956,-0.151148,33,0.019253,10,-4.23148e-05,-3.8206,-0.0795789,-0.741403,4.41743,0.279956,
2,0,0,1,0,64136.3,0.278763,0.27844,-0.159205,33,0.0192278,10,-4.43289e-05,-3.79804,-0.0918437,-0.642396,3.96817,0.27844,
2,0,0,1,0,64136.5,0.277264,0.276955,-0.166531,33,0.0192015,10,-4.61215e-05,-3.77851,-0.0955264,-0.61763,3.97762,0.276955,
2,0,0,1,0,64136.6,0.275766,0.275432,-0.171113,33,0.0191743,10,-4.71299e-05,-3.76672,-0.130035,-0.453725,3.02152,0.275432,
2,0,0,1,0,64136.8,0.274268,0.273904,-0.176896,33,0.0191462,10,-4.84525e-05,-3.75228,-0.114622,-0.514736,3.5606,0.273904,
2,0,0,1,0,64136.9,0.27277,0.272437,-0.182099,33,0.0191175,10,-4.96104e-05,-3.73969,-0.112559,-0.52417,3.74254,0.272437,
2,0,0,1,0,64137.1,0.271272,0.27092,-0.188453,33,0.0190879,10,-5.10558e-05,-3.7248,-0.117099,-0.503848,3.67669,0.27092,
2,0,0,1,0,64137.2,0.269773,0.269428,-0.194452,33,0.0190572,10,-5.23907e-05,-3.71119,-0.130176,-0.453231,3.38525,0.269428,
2,0,0,1,0,64137.4,0.268275,0.26793,-0.199217,33,0.0190259,10,-5.33763e-05,-3.70067,-0.160548,-0.367491,2.84035,0.26793,
2,0,0,1,0,64137.5,0.266778,0.266409,-0.201093,33,0.018994,10,-5.35728e-05,-3.6966,-0.150959,-0.390834,3.08055,0.266409,
2,0,0,1,0,64137.7,0.265279,0.264981,-0.20714,33,0.0189613,10,-5.4888e-05,-3.68374,-0.12702,-0.464496,3.75829,0.264981,
2,0,0,1,0,64137.8,0.263781,0.263504,-0.212784,33,0.0189279,10,-5.60695e-05,-3.67206,-0.159938,-0.368892,3.0357,0.263504,
2,0,0,1,0,64138,0.262283,0.261968,-0.216892,33,0.0188937,10,-5.68189e-05,-3.66376,-0.192248,-0.306895,2.59316,0.261968,
2,0,0,1,0,64138.1,0.260784,0.260484,-0.21986,33,0.018859,10,-5.727e-05,-3.65785,-0.204901,-0.287944,2.47643,0.260484,
2,0,0,1,0,64138.3,0.259286,0.258971,-0.224118,33,0.0188237,10,-5.804e-05,-3.64952,-0.17861,-0.330328,2.89139,0.258971,
2,0,0,1,0,64138.4,0.257788,0.257466,-0.231023,33,0.0187877,10,-5.94806e-05,-3.63634,-0.191052,-0.308816,2.75391,0.257466,
2,0,0,1,0,64138.6,0.25629,0.255988,-0.235043,33,0.0187511,10,-6.0168e-05,-3.62885,-0.207681,-0.28409,2.58229,0.255988,
2,0,0,1,0,64138.7,0.254791,0.254486,-0.235748,33,0.0187138,10,-5.99946e-05,-3.62755,-0.186487,-0.316376,2.91857,0.254486,
2,0,0,1,0,64138.9,0.253293,0.252973,-0.240781,33,0.0186762,10,-6.09109e-05,-3.61838,-0.252338,-0.233814,2.2032,0.252973,
2,0,0,1,0,64139,0.251796,0.251473,-0.244608,33,0.0186378,10,-6.15123e-05,-3.61153,-0.191865,-0.307508,2.92433,0.251473,
2,0,0,1,0,64139.2,0.250297,0.249969,-0.249038,33,0.0185989,10,-6.22518e-05,-3.60373,-0.314884,-0.187371,1.81259,0.249969,
2,0,0,1,0,64139.3,0.248799,0.248483,-0.251485,33,0.0185595,10,-6.24898e-05,-3.59949,-0.276128,-0.213669,2.095,0.248483,
2,0,0,1,0,64139.5,0.247301,0.246986,-0.254427,33,0.0185197,10,-6.28398e-05,-3.59444,-0.261413,-0.225697,2.2496,0.246986,
2,0,0,1,0,64139.6,0.245802,0.245492,-0.258434,33,0.0184793,10,-6.34435e-05,-3.58765,-0.216315,-0.272751,2.73652,0.245492,
2,0,0,1,0,64139.8,0.244304,0.243957,-0.262739,33,0.0184383,10,-6.40972e-05,-3.58047,-0.265384,-0.22232,2.26881,0.243957,
2,0,0,1,0,64139.9,0.242806,0.242423,-0.266034,33,0.0183968,10,-6.44928e-05,-3.57506,-0.322362,-0.183024,1.89229,0.242423,
2,0,0,1,0,64140.1,0.241308,0.240992,-0.268422,33,0.018355,10,-6.46878e-05,-3.57118,-0.335219,-0.176004,1.84587,0.240992,
2,0,0,1,0,64140.2,0.23981,0.239483,-0.270716,33,0.0183127,10,-6.48321e-05,-3.56749,-0.213101,-0.276864,2.92209,0.239483,
2,0,0,1,0,64140.4,0.238311,0.23797,-0.274712,33,0.0182698,10,-6.53732e-05,-3.56112,-0.338456,-0.174321,1.86847,0.23797,
2,0,0,1,0,64140.5,0.236814,0.236489,-0.277331,33,0.0182265,10,-6.55859e-05,-3.557,-0.314487,-0.187607,2.02998,0.236489,
2,0,0,1,0,64140.7,0.235316,0.234999,-0.278859,33,0.0181828,10,-6.55316e-05,-3.55462,-0.293763,-0.200842,2.19923,0.234999,
2,0,0,1,0,64140.8,0.233817,0.233512,-0.283531,33,0.0181386,10,-6.6208e-05,-3.5474,-0.292467,-0.201732,2.22868,0.233512,
2,0,0,1,0,64141,0.232319,0.231928,-0.287312,33,0.0180938,10,-6.66357e-05,-3.54165,-0.321313,-0.183622,2.04724,0.231928,
2,0,0,1,0,64141.1,0.230821,0.230451,-0.288761,33,0.0180487,10,-6.65452e-05,-3.53946,-0.506966,-0.116379,1.30969,0.230451,
2,0,0,1,0,64141.3,0.229322,0.229009,-0.291243,33,0.0180031,10,-6.66972e-05,-3.53574,-0.37596,-0.156932,1.79308,0.229009,
2,0,0,1,0,64141.4,0.227824,0.227483,-0.294738,33,0.0179572,10,-6.70479e-05,-3.53056,-0.360978,-0.163445,1.88416,0.227483,
2,0,0,1,0,64141.6,0.226326,0.225996,-0.297833,33,0.0179108,10,-6.73091e-05,-3.52603,-0.3788,-0.155755,1.81773,0.225996,
2,0,0,1,0,64141.7,0.224828,0.224529,-0.301016,33,0.0178638,10,-6.75867e-05,-3.52141,-0.354866,-0.16626,1.95102,0.224529,
2,0,0,1,0,64141.9,0.223329,0.223027,-0.303101,33,0.0178165,10,-6.75998e-05,-3.51841,-0.407889,-0.144647,1.71659,0.2230273,
2,0,0,1,0,64142,0.221831,0.221529,-0.306835,33,0.0177688,10,-6.79728e-05,-3.51309,-0.409343,-0.144134,1.72205,0.221529,
2,0,0,1,0,64142.2,0.220334,0.220017,-0.309579,33,0.0177207,10,-6.81126e-05,-3.50923,-0.290377,-0.203184,2.45005,0.220017,
2,0,0,1,0,64142.3,0.218835,0.218481,-0.312017,33,0.0176719,10,-6.81698e-05,-3.50582,-0.365296,-0.161513,1.9658,0.218481,
2,0,0,1,0,64142.5,0.217337,0.217022,-0.314779,33,0.0176228,10,-6.8314e-05,-3.50199,-0.49544,-0.119086,1.47269,0.217022,
2,0,0,1,0,64142.6,0.215839,0.2155,-0.316145,33,0.0175734,10,-6.81294e-05,-3.50011,-0.432465,-0.136427,1.69556,0.2155,
2,0,0,1,0,64142.8,0.21434,0.213999,-0.320241,33,0.0175235,10,-6.85312e-05,-3.49452,-0.31387,-0.187976,2.35173,0.213999,
2,0,0,1,0,64142.9,0.212842,0.212474,-0.323581,33,0.0174731,10,-6.87524e-05,-3.49002,-0.392517,-0.150312,1.89526,0.212474,
2,0,0,1,0,64143.1,0.211344,0.21102,-0.32674,33,0.0174223,10,-6.89487e-05,-3.4858,-0.393759,-0.149838,1.91115,0.21102,
2,0,0,1,0,64143.2,0.209846,0.209508,-0.32697,33,0.0173712,10,-6.85028e-05,-3.48549,-0.387106,-0.152413,1.95542,0.209508,
2,0,0,1,0,64143.4,0.208348,0.208008,-0.332341,33,0.0173196,10,-6.91297e-05,-3.47842,-0.312945,-0.188531,2.45212,0.208008,
2,0,0,1,0,64143.5,0.206849,0.206526,-0.33836,33,0.0172674,10,-6.98802e-05,-3.47062,-0.305684,-0.193009,2.52574,0.206526,
2,0,0,1,0,64143.7,0.205352,0.205008,-0.339292,33,0.0172146,10,-6.95575e-05,-3.46943,-0.559445,-0.105462,1.39067,0.205008,
2,0,0,1,0,64143.8,0.203854,0.203502,-0.341225,33,0.0171615,10,-6.94402e-05,-3.46696,-0.344941,-0.171044,2.28526,0.203502,
2,0,0,1,0,64144,0.202355,0.202028,-0.344779,33,0.0171081,10,-6.96549e-05,-3.46246,-0.387016,-0.152448,2.0569,0.2020278,
2,0,0,1,0,64144.1,0.200857,0.200523,-0.347738,33,0.0170541,10,-6.97295e-05,-3.45875,-0.336543,-0.175312,2.37385,0.200523,
2,0,0,1,0,64144.3,0.199359,0.199034,-0.350341,33,0.0169997,10,-6.97299e-05,-3.45551,-0.529838,-0.111355,1.52416,0.199034,
2,0,0,1,0,64144.4,0.19786,0.197472,-0.353565,33,0.0169448,10,-6.98194e-05,-3.45153,-0.390845,-0.150955,2.08132,0.197472,
2,0,0,1,0,64144.6,0.196362,0.196016,-0.357991,33,0.0168896,10,-7.01721e-05,-3.44613,-0.359777,-0.163991,2.28582,0.196016,
2,0,0,1,0,64144.7,0.194864,0.194531,-0.360359,33,0.0168339,10,-7.01008e-05,-3.44327,-0.334462,-0.176403,2.47235,0.194531,
2,0,0,1,0,64144.9,0.193366,0.193031,-0.363406,33,0.0167775,10,-7.01488e-05,-3.43961,-0.39132,-0.150772,2.14105,0.193031,
2,0,0,1,0,64145,0.191867,0.191534,-0.367287,33,0.0167207,10,-7.03479e-05,-3.43499,-0.567889,-0.103894,1.48777,0.191534,
2,0,0,1,0,64145.2,0.190369,0.190051,-0.369242,33,0.0166636,10,-7.01749e-05,-3.43269,-0.39374,-0.149845,2.16382,0.190051,
2,0,0,1,0,64145.3,0.188872,0.188527,-0.373253,33,0.016606,10,-7.03681e-05,-3.428,-0.316703,-0.186295,2.70365,0.188527,
2,0,0,1,0,64145.5,0.187373,0.187039,-0.377107,33,0.0165478,10,-7.05338e-05,-3.42353,-0.37472,-0.157451,2.3132,0.187039,
2,0,0,1,0,64145.6,0.185875,0.18552,-0.379095,33,0.0164892,10,-7.03299e-05,-3.42125,-0.470022,-0.125526,1.85497,0.18552,
2,0,0,1,0,64145.8,0.184377,0.184074,-0.382902,33,0.01643,10,-7.04824e-05,-3.41691,-0.336498,-0.175335,2.62186,0.184074,
2,0,0,1,0,64145.9,0.182878,0.182511,-0.386094,33,0.0163704,10,-7.04665e-05,-3.41331,-0.346839,-0.170108,2.5684,0.182511,
2,0,0,1,0,64146.1,0.18138,0.181047,-0.390888,33,0.0163101,10,-7.0769e-05,-3.40795,-0.347179,-0.169941,2.58903,0.181047,
2,0,0,1,0,64146.2,0.179882,0.179549,-0.394233,33,0.0162493,10,-7.07843e-05,-3.40425,-0.549909,-0.10729,1.64794,0.179549,
2,0,0,1,0,64146.4,0.178384,0.178039,-0.39926,33,0.0161879,10,-7.10839e-05,-3.39874,-0.368342,-0.160177,2.49425,0.178039,
2,0,0,1,0,64146.5,0.176886,0.176549,-0.401845,33,0.0161261,10,-7.09455e-05,-3.39594,-0.340392,-0.17333,2.71983,0.1765494,
2,0,0,1,0,64146.7,0.175387,0.175034,-0.40753,33,0.0160636,10,-7.13315e-05,-3.38984,-0.333119,-0.177114,2.803,0.175034,
2,0,0,1,0,64146.8,0.17389,0.173517,-0.409507,33,0.0160004,10,-7.10563e-05,-3.38774,-0.299317,-0.197116,3.14637,0.173517,
2,0,0,1,0,64147,0.172392,0.172024,-0.414359,33,0.0159366,10,-7.12798e-05,-3.38262,-0.323934,-0.182136,2.94849,0.172024,
2,0,0,1,0,64147.1,0.170893,0.17057,-0.417752,33,0.0158723,10,-7.12558e-05,-3.37908,-0.28685,-0.205682,3.35826,0.17057,
2,0,0,1,0,64147.2,0.169395,0.169045,-0.422698,33,0.0158071,10,-7.1455e-05,-3.37397,-0.241146,-0.244665,4.04697,0.169045,
2,0,0,1,0,64147.4,0.167897,0.167539,-0.429627,33,0.0157411,10,-7.19794e-05,-3.36691,-0.273688,-0.215574,3.60971,0.167539,
2,0,0,1,0,64147.5,0.166398,0.166076,-0.433844,33,0.0156742,10,-7.20509e-05,-3.36267,-0.329157,-0.179246,3.04564,0.166076,
2,0,0,1,0,64147.7,0.1649,0.164536,-0.438534,33,0.0156067,10,-7.21547e-05,-3.358,-0.303789,-0.194214,3.33279,0.164536,
2,0,0,1,0,64147.8,0.163402,0.16307,-0.446335,33,0.0155383,10,-7.27836e-05,-3.35034,-0.218525,-0.269992,4.69767,0.16307,
2,0,0,1,0,64148,0.161904,0.161566,-0.452816,33,0.0154689,10,-7.31596e-05,-3.34408,-0.247018,-0.238849,4.222,0.161566,
2,0,0,1,0,64148.1,0.160405,0.160087,-0.45987,33,0.0153984,10,-7.36193e-05,-3.33737,-0.214726,-0.274769,4.92956,0.160087,
2,0,0,1,0,64148.3,0.158907,0.158575,-0.464306,33,0.0153269,10,-7.36272e-05,-3.3332,-0.196449,-0.300333,5.48001,0.158575,
2,0,0,1,0,64148.4,0.15741,0.157081,-0.475561,33,0.0152543,10,-7.47016e-05,-3.32279,-0.163989,-0.35978,6.70662,0.157081,
2,0,0,1,0,64148.6,0.155911,0.155552,-0.482992,33,0.0151802,10,-7.51305e-05,-3.31606,-0.167032,-0.353226,6.68446,0.155552,
2,0,0,1,0,64148.7,0.154413,0.154079,-0.494273,33,0.0151045,10,-7.61572e-05,-3.30603,-0.18589,-0.317391,6.12691,0.154079,
2,0,0,1,0,64148.9,0.152915,0.152552,-0.504128,33,0.0150275,10,-7.6906e-05,-3.29746,-0.173999,-0.339082,6.69507,0.152552,
2,0,0,1,0,64149,0.151417,0.151063,-0.516092,33,0.0149492,10,-7.79622e-05,-3.28727,-0.147614,-0.399691,8.07801,0.151063,
2,0,0,1,0,64149.2,0.149918,0.14958,-0.529184,33,0.0148687,10,-7.91554e-05,-3.27639,-0.133554,-0.441768,9.1085,0.14958,
2,0,0,1,0,64149.3,0.14842,0.148048,-0.544216,33,0.0147862,10,-8.057e-05,-3.26423,-0.126052,-0.468061,9.94788,0.148048,
2,0,0,1,0,64149.5,0.146922,0.146586,-0.559136,33,0.0147015,10,-8.19613e-05,-3.25248,-0.117877,-0.500521,10.946,0.146586,
2,0,0,1,0,64149.6,0.145424,0.145096,-0.57731,33,0.0146143,10,-8.37652e-05,-3.23859,-0.105347,-0.560054,12.6673,0.145096,
2,0,0,1,0,64149.8,0.143925,0.14361,-0.595654,33,0.014524,10,-8.5542e-05,-3.22501,-0.0918955,-0.642034,14.9901,0.14361,
2,0,0,1,0,64149.9,0.142428,0.142061,-0.621113,33,0.0144306,10,-8.82359e-05,-3.20683,-0.0964279,-0.611856,14.8512,0.142061,
2,0,0,1,0,64150.1,0.14093,0.140565,-0.642492,33,0.0143338,10,-9.03121e-05,-3.19213,-0.0916528,-0.643734,16.183,0.140565,
2,0,0,1,0,64150.2,0.139431,0.139109,-0.665907,33,0.0142334,10,-9.26334e-05,-3.17659,-0.0889525,-0.663276,17.3453,0.139109,
2,0,0,1,0,64150.4,0.137933,0.137621,-0.695465,33,0.0141291,10,-9.57104e-05,-3.15772,-0.0847347,-0.696291,18.8979,0.137621,
2,0,0,1,0,64150.5,0.136435,0.136063,-0.724578,33,0.0140205,10,-9.85883e-05,-3.13991,-0.087282,-0.67597,19.0929,0.1360631,
2,0,0,1,0,64150.7,0.134936,0.134605,-0.75393,33,0.0139075,10,-0.000101483,-3.12267,-0.0898521,-0.656635,19.2637,0.134605,
2,0,0,1,0,64150.8,0.133438,0.133098,-0.781214,33,0.0137901,10,-0.000103978,-3.10723,-0.0930496,-0.63407,19.3976,0.1330982,
2,0,0,1,0,64151,0.13194,0.131552,-0.813932,33,0.0136684,10,-0.000107074,-3.08941,-0.0935053,-0.63098,20.05,0.131552,
2,0,0,1,0,64151.1,0.130442,0.130085,-0.844264,33,0.0135419,10,-0.000109826,-3.07352,-0.0982074,-0.600769,19.7881,0.130085,
2,0,0,1,0,64151.3,0.128943,0.128619,-0.876755,33,0.0134106,10,-0.000112767,-3.05712,-0.1027,-0.57449,19.5164,0.128619,
2,0,0,1,0,64151.4,0.127445,0.127113,-0.903813,33,0.0132752,10,-0.000114887,-3.04392,-0.114976,-0.51315,18.0655,0.127113,
2,0,0,1,0,64151.6,0.125948,0.125608,-0.92964,33,0.0131358,10,-0.00011677,-3.03169,-0.117022,-0.504181,18.2716,0.125608,
2,0,0,1,0,64151.7,0.124449,0.124126,-0.956886,33,0.0129921,10,-0.000118774,-3.01914,-0.121353,-0.486183,18.1269,0.124126,
2,0,0,1,0,64151.9,0.122951,0.122624,-0.982589,33,0.0128445,10,-0.000120489,-3.00763,-0.136315,-0.432821,16.5446,0.122624,
2,0,0,1,0,64152,0.121453,0.121154,-1.00652,33,0.0126932,10,-0.000121943,-2.99718,-0.160038,-0.368663,14.4299,0.121154,
2,0,0,1,0,64152.2,0.119955,0.119611,-1.02342,33,0.0125388,10,-0.000122412,-2.98995,-0.187767,-0.314219,12.5705,0.119611,
2,0,0,1,0,64152.3,0.118456,0.118101,-1.04439,33,0.0123816,10,-0.000123343,-2.98114,-0.201261,-0.293152,11.9324,0.118101,
2,0,0,1,0,64152.5,0.116958,0.116597,-1.06133,33,0.0122214,10,-0.000123749,-2.97415,-0.249432,-0.236537,9.7593,0.116597,
2,0,0,1,0,64152.6,0.11546,0.115084,-1.07582,33,0.012059,10,-0.000123809,-2.96826,-0.340943,-0.173049,7.23079,0.115084,
2,0,0,1,0,64152.8,0.113962,0.113655,-1.08178,33,0.0118951,10,-0.00012295,-2.96586,-0.439684,-0.134187,5.66146,0.113655,
2,0,0,1,0,64152.9,0.112463,0.112155,-1.09154,33,0.0117298,10,-0.000122421,-2.96196,-0.563739,-0.104658,4.45464,0.112155,
2,0,0,1,0,64153.1,0.110966,0.110647,-1.09893,33,0.0115636,10,-0.000121593,-2.95903,-0.830612,-0.0710319,3.03455,0.110647,
2,0,0,1,0,64153.2,0.109468,0.109129,-1.09979,33,0.0113965,10,-0.000120019,-2.95869,-4.54133,-0.0129918,0.556658,0.109129,
2,0,0,1,0,64153.4,0.107969,0.107618,-1.10047,33,0.0112293,10,-0.00011843,-2.95842,6.32027,0.00933505,-0.400667,0.107618,
2,0,0,1,0,64153.5,0.106471,0.106119,-1.10096,33,0.0110623,10,-0.000116833,-2.95823,-20.6765,-0.00285348,0.122549,0.106119,
2,0,0,1,0,64153.7,0.104973,0.104679,-1.09667,33,0.0108953,10,-0.000114798,-2.95993,1.97163,0.0299245,-1.28226,0.1046793,
2,0,0,1,0,64153.8,0.103474,0.103156,-1.09862,33,0.0107284,10,-0.000113329,-2.95915,1.20145,0.0491071,-2.09864,0.103156,
2,0,0,1,0,64154,0.101976,0.101624,-1.09305,33,0.0105621,10,-0.00011108,-2.96136,0.785572,0.0751045,-3.20116,0.101624,
2,0,0,1,0,64154.1,0.100478,0.100121,-1.08844,33,0.0103965,10,-0.000108975,-2.9632,0.921,0.0640608,-2.723,0.100121,
2,0,0,1,0,64154.3,0.0989798,0.0986742,-1.08312,33,0.0102316,10,-0.000106876,-2.96532,0.891043,0.0662146,-2.79797,0.0986742,
2,0,0,1,0,64154.4,0.0974808,0.0971573,-1.0803,33,0.010067,10,-0.000104959,-2.96645,0.844128,0.0698946,-2.94842,0.0971573,
2,0,0,1,0,64154.6,0.0959833,0.0956065,-1.0757,33,0.00990332,10,-0.000102843,-2.96831,0.787812,0.0748909,-3.14,0.0956065,
2,0,0,1,0,64154.7,0.0944857,0.0941417,-1.06876,33,0.00974043,10,-0.000100615,-2.97112,0.892359,0.0661169,-2.76531,0.0941417,
2,0,0,1,0,64154.9,0.0929871,0.0926829,-1.06458,33,0.00957808,10,-9.86682e-05,-2.97282,1.09732,0.0537674,-2.2366,0.0926829,
2,0,0,1,0,64155,0.0914889,0.0911474,-1.06545,33,0.00941635,10,-9.71128e-05,-2.97247,0.800792,0.0736771,-3.05253,0.0911474,
2,0,0,1,0,64155.2,0.0899907,0.0896343,-1.05802,33,0.00925518,10,-9.48349e-05,-2.97551,0.786401,0.0750253,-3.08941,0.0896343,
2,0,0,1,0,64155.3,0.0884925,0.0881709,-1.05142,33,0.0090949,10,-9.27046e-05,-2.97822,0.783711,0.0752828,-3.0925,0.0881709,
2,0,0,1,0,64155.5,0.0869943,0.0866301,-1.04756,33,0.00893542,10,-9.07504e-05,-2.97982,0.852751,0.0691878,-2.82965,0.0866301,
2,0,0,1,0,64155.6,0.0854961,0.0851774,-1.04351,33,0.00877652,10,-8.88837e-05,-2.9815,0.846575,0.0696926,-2.83863,0.0851774,
2,0,0,1,0,64155.8,0.083998,0.0836589,-1.03967,33,0.00861816,10,-8.69774e-05,-2.98311,0.578134,0.102052,-4.132,0.0836589,
2,0,0,1,0,64155.9,0.0824998,0.0821913,-1.03537,33,0.0084606,10,-8.5098e-05,-2.98491,0.700529,0.0842221,-3.40113,0.0821913,
2,0,0,1,0,64156.1,0.0810011,0.080629,-1.02774,33,0.00830395,10,-8.2866e-05,-2.98812,0.809704,0.0728661,-2.92761,0.080629,
2,0,0,1,0,64156.2,0.0795036,0.0791697,-1.02566,33,0.00814795,10,-8.12015e-05,-2.98899,1.0323,0.057154,-2.28493,0.0791697,
2,0,0,1,0,64156.4,0.0780061,0.0776357,-1.02042,33,0.00799255,10,-7.92208e-05,-2.99122,0.632056,0.0933462,-3.71105,0.0776357,
2,0,0,1,0,64156.5,0.076507,0.0761385,-1.01495,33,0.00783779,10,-7.72768e-05,-2.99356,0.649069,0.0908994,-3.59853,0.0761385,
2,0,0,1,0,64156.7,0.0750088,0.0746772,-1.00756,33,0.0076842,10,-7.52417e-05,-2.99673,0.71826,0.082143,-3.23403,0.0746772,
2,0,0,1,0,64156.8,0.0735106,0.0731672,-1.00396,33,0.00753133,10,-7.34568e-05,-2.99828,0.735809,0.0801838,-3.13764,0.0731672,
2,0,0,1,0,64157,0.0720124,0.0717028,-0.998519,33,0.00737909,10,-7.15966e-05,-3.00064,0.797461,0.0739848,-2.88347,0.0717028,
2,0,0,1,0,64157.1,0.0705142,0.0701832,-0.992112,33,0.00722768,10,-6.96296e-05,-3.00344,0.570288,0.103456,-4.01532,0.0701832,
2,0,0,1,0,64157.3,0.069016,0.0687336,-0.984058,33,0.00707729,10,-6.76379e-05,-3.00698,0.539151,0.109431,-4.21889,0.0687336,
2,0,0,1,0,64157.4,0.0675179,0.0671801,-0.98268,33,0.00692777,10,-6.60166e-05,-3.00759,0.810924,0.0727565,-2.79029,0.0671801,
2,0,0,1,0,64157.6,0.0660188,0.0656959,-0.978865,33,0.00677875,10,-6.43074e-05,-3.00928,0.668545,0.0882514,-3.35908,0.0656959,
2,0,0,1,0,64157.7,0.0645213,0.0642161,-0.97298,33,0.00663054,10,-6.2481e-05,-3.0119,0.518307,0.113832,-4.31089,0.0642161,
2,0,0,1,0,64157.9,0.0630237,0.0626941,-0.962891,33,0.00648329,10,-6.03676e-05,-3.01642,0.587163,0.100483,-3.78301,0.06269405,
2,0,0,1,0,64158,0.0615251,0.0611878,-0.957663,33,0.0063371,10,-5.85973e-05,-3.01879,0.54703,0.107855,-4.03987,0.0611878,
2,0,0,1,0,64158.2,0.0600269,0.0596534,-0.952395,33,0.00619166,10,-5.68136e-05,-3.02118,0.665539,0.08865,-3.29668,0.05965339,
2,0,0,1,0,64158.3,0.0585287,0.0581805,-0.946232,33,0.00604706,10,-5.50522e-05,-3.024,0.433025,0.136251,-5.03415,0.0581805,
2,0,0,1,0,64158.5,0.0570305,0.0567002,-0.940688,33,0.00590329,10,-5.33371e-05,-3.02655,0.513251,0.114954,-4.22603,0.0567002,
2,0,0,1,0,64158.6,0.0555323,0.0551679,-0.933933,33,0.00576075,10,-5.15231e-05,-3.02968,0.543287,0.108598,-3.96849,0.0551679,
2,0,0,1,0,64158.8,0.0540342,0.0536981,-0.929907,33,0.00561887,10,-4.99343e-05,-3.03156,0.648447,0.0909867,-3.30037,0.0536981,
2,0,0,1,0,64158.9,0.052536,0.0522072,-0.925046,33,0.00547773,10,-4.82941e-05,-3.03384,0.503145,0.117262,-4.22633,0.0522072,
2,0,0,1,0,64159.1,0.0510378,0.0506802,-0.917929,33,0.00533749,10,-4.65208e-05,-3.03719,0.46868,0.125885,-4.50834,0.05068022,
2,0,0,1,0,64159.2,0.0495391,0.0492003,-0.910545,33,0.00519833,10,-4.47991e-05,-3.0407,0.533749,0.110539,-3.93712,0.0492003,
2,0,0,1,0,64159.4,0.0480416,0.0477112,-0.90521,33,0.00506005,10,-4.31886e-05,-3.04325,0.624612,0.0944587,-3.33534,0.0477112,
2,0,0,1,0,64159.5,0.0465441,0.0461797,-0.899034,33,0.00492264,10,-4.15171e-05,-3.04622,0.513118,0.114983,-4.0453,0.0461797,
2,0,0,1,0,64159.7,0.045045,0.0447144,-0.893477,33,0.00478607,10,-3.99513e-05,-3.04892,0.498827,0.118277,-4.12445,0.04471438,
2,0,0,1,0,64159.8,0.0435468,0.0432606,-0.884216,33,0.0046506,10,-3.82517e-05,-3.05344,0.487372,0.121057,-4.19006,0.0432606,
2,0,0,1,0,64160,0.0420486,0.0417166,-0.881065,33,0.00451611,10,-3.67551e-05,-3.05499,0.535574,0.110162,-3.78754,0.0417166,
2,0,0,1,0,64160.1,0.0405504,0.0401917,-0.87722,33,0.00438244,10,-3.5257e-05,-3.05689,0.518141,0.113869,-3.88658,0.0401917,
2,0,0,1,0,64160.3,0.0390523,0.0387188,-0.870173,33,0.0042495,10,-3.36921e-05,-3.06039,0.406471,0.145152,-4.91476,0.0387188,
2,0,0,1,0,64160.4,0.0375541,0.037195,-0.861946,33,0.00411769,10,-3.20601e-05,-3.06452,0.398457,0.148071,-4.98716,0.037195,
2,0,0,1,0,64160.6,0.0360559,0.0357465,-0.855465,33,0.00398698,10,-3.05799e-05,-3.0678,0.469086,0.125777,-4.20389,0.0357465,
2,0,0,1,0,64160.7,0.0345568,0.0342176,-0.848029,33,0.00385707,10,-2.90175e-05,-3.07159,0.49369,0.119508,-3.96277,0.0342176,
2,0,0,1,0,64160.9,0.0330593,0.0327049,-0.842707,33,0.00372813,10,-2.75607e-05,-3.07432,0.412224,0.143126,-4.70648,0.0327049,
2,0,0,1,0,64161,0.0315618,0.031238,-0.837151,33,0.00360014,10,-2.6151e-05,-3.0772,0.453044,0.13023,-4.2528,0.031238,
2,0,0,1,0,64161.2,0.0300631,0.0297245,-0.829941,33,0.00347314,10,-2.46696e-05,-3.08095,0.461863,0.127744,-4.14185,0.0297245,
2,0,0,1,0,64161.3,0.0285649,0.0282134,-0.824553,33,0.00334708,10,-2.32634e-05,-3.08378,0.56352,0.104699,-3.36567,0.0282134,
2,0,0,1,0,64161.5,0.0270667,0.0267331,-0.817165,33,0.00322172,10,-2.18453e-05,-3.08769,0.539857,0.109288,-3.48659,0.0267331,
2,0,0,1,0,64161.6,0.0255685,0.0252188,-0.812297,33,0.00309729,10,-2.04852e-05,-3.09028,0.449008,0.131401,-4.17118,0.0252188,
2,0,0,1,0,64161.8,0.0240704,0.0236961,-0.806064,33,0.00297391,10,-1.91005e-05,-3.09363,0.448819,0.131456,-4.1466,0.0236961,
2,0,0,1,0,64161.9,0.0225722,0.0222369,-0.800861,33,0.00285128,10,-1.78087e-05,-3.09644,0.692003,0.0852598,-2.66778,0.0222369,
2,0,0,1,0,64162.1,0.021074,0.0207407,-0.797354,33,0.00272934,10,-1.65377e-05,-3.09835,0.583232,0.10116,-3.14942,0.02074071,
2,0,0,1,0,64162.2,0.0195758,0.0192445,-0.793049,33,0.00260807,10,-1.52618e-05,-3.1007,0.515666,0.114415,-3.52995,0.0192445,
2,0,0,1,0,64162.4,0.0180772,0.0177225,-0.785452,33,0.0024875,10,-1.39202e-05,-3.10488,0.658878,0.0895462,-2.75537,0.0177225,
2,0,0,1,0,64162.5,0.0165796,0.0162822,-0.784699,33,0.00236778,10,-1.27766e-05,-3.1053,1.07915,0.0546729,-1.67499,0.0162822,
2,0,0,1,0,64162.7,0.0150821,0.0147524,-0.781465,33,0.00224838,10,-1.15285e-05,-3.10709,0.974676,0.0605329,-1.84574,0.0147524,
2,0,0,1,0,64162.8,0.013583,0.0132521,-0.777445,33,0.00212928,10,-1.03028e-05,-3.10933,0.745639,0.0791268,-2.39659,0.01325212,
2,0,0,1,0,64163,0.0120848,0.0117167,-0.77473,33,0.00201077,10,-9.07725e-06,-3.11085,0.771666,0.076458,-2.31285,0.0117167,
2,0,0,1,0,64163.1,0.0105866,0.0102363,-0.771653,33,0.00189301,10,-7.89889e-06,-3.11258,1.10143,0.0535668,-1.61594,0.0102363,
2,0,0,1,0,64163.3,0.00908846,0.00874964,-0.770888,33,0.00177537,10,-6.74499e-06,-3.11301,1.90186,0.0310223,-0.933108,0.008749635,
2,0,0,1,0,64163.4,0.00759027,0.00728733,-0.768229,33,0.00165797,10,-5.59834e-06,-3.11451,1.261,0.0467883,-1.40258,0.00728733,
2,0,0,1,0,64163.6,0.00609207,0.00576141,-0.768809,33,0.00154078,10,-4.42942e-06,-3.11418,1.65221,0.0357098,-1.06992,0.00576141,
2,0,0,1,0,64163.7,0.00459389,0.00425351,-0.767404,33,0.00142391,10,-3.26416e-06,-3.11498,9.64446,0.0061175,-0.183191,0.00425351,
2,0,0,1,0,64163.9,0.0030948,0.00278071,-0.766878,33,0.00130685,10,-2.13247e-06,-3.11527,-1.06913,-0.0551853,1.65392,0.00278071,
2,0,0,1,0,64164,0.00159728,0.00124073,-0.775938,33,0.00118877,10,-9.6273e-07,-3.11017, , , ,0.00124073,
2,0,0,1,0,64164.2,0.000199195,-0.000178351,-0.767551,33,0.00107881,10,1.36894e-07,-3.11489, , , ,-0.000178351,