File: Figure_codes/Fig_3-5/rawdata_trumpetplot_data/after 10th/20221101_1-115_003_TrumpetPlot_ParaChange_from10_every3_13_CV_C01_11.csv
mode,ox/red,error,control changes,counter inc.,time/s,control/V,Ewe/V,<I>/mA,cycle number,(Q-Qo)/C,I Range,P/W,log(|I|),Tafel slope mV/dec,alpha_eff,dI/d(E-IR),E-IR/V,
2,1,0,1,0,22869.3,2.44065e-05,-0.000287149,22.6158,12,0.0000000E+000,10,-6.49412e-06,-1.64559, , , ,-0.0002871489,
2,1,0,1,0,22869.3,0.00266289,0.0022907,24.0137,12,7.28121e-05,10,5.50082e-05,-1.61954, , , ,0.0022907,
2,1,0,1,0,22869.3,0.00586735,0.00553872,25.1886,12,0.000171426,10,0.000139513,-1.5988, , , ,0.00553872,
2,1,0,1,0,22869.3,0.00906349,0.00874327,26.1636,12,0.000274244,10,0.000228756,-1.5823,0.199726,0.295405,298.342,0.00874327,
2,1,0,1,0,22869.3,0.0122624,0.0118694,27.028,12,0.000380744,10,0.000320805,-1.56819,0.234358,0.251751,263.702,0.0118694,
2,1,0,1,0,22869.3,0.0154641,0.0151047,27.8366,12,0.00049058,10,0.000420463,-1.55538,0.263518,0.223894,241.868,0.0151047,
2,1,0,1,0,22869.3,0.0186602,0.0183293,28.5615,12,0.000603477,10,0.000523514,-1.54422,0.2931,0.201297,223.442,0.0183293,
2,1,0,1,0,22869.3,0.0218675,0.0215233,29.2547,12,0.000719198,10,0.000629658,-1.5338,0.320032,0.184356,209.788,0.0215233,
2,1,0,1,0,22869.3,0.0250636,0.0247459,29.9052,12,0.000837591,10,0.000740029,-1.52425,0.343979,0.171522,199.596,0.0247459,
2,1,0,1,0,22869.3,0.0282597,0.0278985,30.5206,12,0.000958508,10,0.000851478,-1.51541,0.371295,0.158903,188.785,0.0278985,
2,1,0,1,0,22869.3,0.031467,0.0310935,31.1092,12,0.00108185,10,0.000967292,-1.50711,0.395659,0.149118,180.678,0.0310935,
2,1,0,1,0,22869.3,0.0346631,0.0342683,31.6608,12,0.00120745,10,0.00108496,-1.49948,0.417345,0.14137,174.485,0.03426832,
2,1,0,1,0,22869.3,0.0378703,0.0375365,32.2161,12,0.00133526,10,0.00120928,-1.49193,0.439474,0.134251,168.597,0.0375365,
2,1,0,1,0,22869.3,0.0410665,0.0407145,32.7568,12,0.00146523,10,0.00133368,-1.4847,0.452615,0.130353,166.457,0.0407145,
2,1,0,1,0,22869.3,0.0442626,0.0439233,33.2722,12,0.00159734,10,0.00146143,-1.47792,0.472,0.125,162.169,0.0439233,
2,1,0,1,0,22869.3,0.0474671,0.0471385,33.8031,12,0.00173153,10,0.00159343,-1.47104,0.483446,0.12204,160.858,0.0471385,
2,1,0,1,0,22869.4,0.0506632,0.0503271,34.2904,12,0.00186777,10,0.00172574,-1.46483,0.490338,0.120325,161.014,0.0503271,
2,1,0,1,0,22869.4,0.0538621,0.0534839,34.8109,12,0.00200601,10,0.00186182,-1.45828,0.502072,0.117513,159.649,0.0534839,
2,1,0,1,0,22869.4,0.0570638,0.0566705,35.3247,12,0.00214635,10,0.00200187,-1.45192,0.501097,0.117742,162.298,0.0566705,
2,1,0,1,0,22869.4,0.06026,0.0598877,35.8385,12,0.00228874,10,0.00214629,-1.44565,0.510471,0.11558,161.664,0.0598877,
2,1,0,1,0,22869.4,0.0634672,0.0631389,36.3697,12,0.00243322,10,0.00229635,-1.43926,0.516085,0.114322,162.207,0.0631389,
2,1,0,1,0,22869.4,0.0666633,0.0663414,36.8895,12,0.00257978,10,0.0024473,-1.4331,0.511175,0.11542,166.178,0.06634137,
2,1,0,1,0,22869.4,0.0698595,0.0695088,37.4072,12,0.00272845,10,0.00260013,-1.42704,0.514024,0.114781,167.655,0.0695088,
2,1,0,1,0,22869.4,0.0730667,0.0726837,37.9649,12,0.00287925,10,0.00275943,-1.42062,0.510289,0.115621,171.347,0.0726837,
2,1,0,1,0,22869.4,0.0762629,0.0758702,38.5042,12,0.00303225,10,0.00292132,-1.41449,0.51352,0.114893,172.625,0.0758702,
2,1,0,1,0,22869.4,0.0794701,0.079114,39.078,12,0.00318745,10,0.00309162,-1.40807,0.517302,0.114053,173.891,0.079114,
2,1,0,1,0,22869.4,0.0826662,0.0822761,39.6111,12,0.00334488,10,0.00325905,-1.40218,0.517176,0.114081,176.404,0.0822761,
2,1,0,1,0,22869.4,0.0858624,0.0854775,40.1897,12,0.00350454,10,0.00343531,-1.39589,0.520419,0.11337,177.888,0.0854775,
2,1,0,1,0,22869.4,0.0890668,0.0886587,40.7601,12,0.0036665,10,0.00361374,-1.38976,0.516425,0.114247,181.765,0.0886587,
2,1,0,1,0,22869.4,0.092263,0.0919078,41.3539,12,0.00383078,10,0.00380075,-1.38348,0.520539,0.113344,182.897,0.0919078,
2,1,0,1,0,22869.4,0.0954674,0.0951102,41.9439,12,0.00399741,10,0.0039893,-1.37733,0.520973,0.11325,185.344,0.0951102,
2,1,0,1,0,22869.4,0.0986636,0.0982543,42.5265,12,0.00416639,10,0.00417841,-1.37134,0.518406,0.11381,188.994,0.0982543,
2,1,0,1,0,22869.4,0.10186,0.101459,43.1325,12,0.00433777,10,0.00437618,-1.36519,0.524243,0.112543,189.506,0.101459,
2,1,0,1,0,22869.4,0.105067,0.104689,43.7695,12,0.00451165,10,0.00458217,-1.35883,0.523509,0.112701,192.417,0.104689,
2,1,0,1,0,22869.4,0.108263,0.107917,44.3709,12,0.004688,10,0.00478836,-1.3529,0.533028,0.110688,191.578,0.107917,
2,1,0,1,0,22869.4,0.111465,0.111065,44.9915,12,0.00486679,10,0.00499699,-1.34687,0.548379,0.10759,188.793,0.111065,
2,1,0,1,0,22869.4,0.114666,0.114273,45.5874,12,0.00504802,10,0.0052094,-1.34116,0.545781,0.108102,192.306,0.1142728,
2,1,0,1,0,22869.4,0.117863,0.117442,46.1772,12,0.00523161,10,0.00542316,-1.33557,0.543217,0.108612,195.996,0.117442,
2,1,0,1,0,22869.4,0.12107,0.120629,46.8155,12,0.00541759,10,0.0056473,-1.32961,0.531076,0.111095,203.253,0.120629,
2,1,0,1,0,22869.4,0.124266,0.123908,47.5086,12,0.00560633,10,0.00588668,-1.32323,0.51668,0.114191,211.803,0.123908,
2,1,0,1,0,22869.4,0.127462,0.127099,48.1945,12,0.00579781,10,0.00612549,-1.317,0.516926,0.114136,214.63,0.127099,
2,1,0,1,0,22869.5,0.130667,0.130308,48.9023,12,0.00599208,10,0.00637237,-1.31067,0.514861,0.114594,218.676,0.130308,
2,1,0,1,0,22869.5,0.133863,0.133504,49.5789,12,0.00618911,10,0.006619,-1.3047,0.516361,0.114261,221.174,0.133504,
2,1,0,1,0,22869.5,0.137067,0.136721,50.3105,12,0.00638893,10,0.00687848,-1.29834,0.516227,0.114291,224.487,0.136721,
2,1,0,1,0,22869.5,0.140263,0.139921,51.0302,12,0.0065917,10,0.00714019,-1.29217,0.507817,0.116184,231.456,0.139921,
2,1,0,1,0,22869.5,0.143459,0.143139,51.7826,12,0.00679739,10,0.00741213,-1.28582,0.512557,0.115109,232.649,0.1431392,
2,1,0,1,0,22869.5,0.146667,0.146302,52.5411,12,0.00700613,10,0.00768689,-1.2795,0.510223,0.115636,237.067,0.146302,
2,1,0,1,0,22869.5,0.149863,0.149544,53.2939,12,0.00721788,10,0.00796978,-1.27332,0.516347,0.114264,237.638,0.149544,
2,1,0,1,0,22869.5,0.153064,0.152705,54.0609,12,0.00743266,10,0.00825538,-1.26712,0.526608,0.112038,236.28,0.152705,
2,1,0,1,0,22869.5,0.156266,0.155944,54.8255,12,0.00765052,10,0.00854968,-1.26102,0.535718,0.110133,235.461,0.155944,
2,1,0,1,0,22869.5,0.159462,0.159092,55.563,12,0.00787138,10,0.00883963,-1.25521,0.557857,0.105762,229.123,0.159092,
2,1,0,1,0,22869.5,0.16267,0.162302,56.2978,12,0.00809516,10,0.00913723,-1.24951,0.581128,0.101527,222.821,0.162302,
2,1,0,1,0,22869.5,0.165866,0.16547,56.9857,12,0.00832182,10,0.00942945,-1.24423,0.610218,0.0966867,214.814,0.1654703,
2,1,0,1,0,22869.5,0.169062,0.16871,57.67,12,0.00855118,10,0.0097295,-1.23905,0.646606,0.0912457,205.12,0.16871,
2,1,0,1,0,22869.5,0.172266,0.17191,58.3166,12,0.00878326,10,0.0100252,-1.23421,0.691835,0.0852805,193.784,0.17191,
2,1,0,1,0,22869.5,0.175462,0.175108,58.9247,12,0.00901782,10,0.0103182,-1.2297,0.747342,0.0789465,181.236,0.175108,
2,1,0,1,0,22869.5,0.178667,0.178347,59.481,12,0.00925469,10,0.0106082,-1.22562,0.828188,0.0712399,165.059,0.178347,
2,1,0,1,0,22869.5,0.181863,0.18152,59.9916,12,0.00949372,10,0.0108897,-1.22191,0.939408,0.0628055,146.726,0.18152,
2,1,0,1,0,22869.5,0.185059,0.184727,60.4321,12,0.00973464,10,0.0111635,-1.21873,1.115,0.0529147,124.47,0.184727,
2,1,0,1,0,22869.5,0.188266,0.187943,60.8079,12,0.0099772,10,0.0114285,-1.21604,1.42574,0.041382,97.8916,0.187943,
2,1,0,1,0,22869.5,0.191463,0.191137,61.0731,12,0.010221,10,0.0116733,-1.21415,2.11194,0.0279365,66.3484,0.191137,
2,1,0,1,0,22869.5,0.194664,0.194273,61.2401,12,0.0104657,10,0.0118973,-1.21296,4.54304,0.0129869,30.9199,0.194273,
2,1,0,1,0,22869.5,0.197866,0.1975,61.2796,12,0.0107107,10,0.0121027,-1.21268,-28.3009,-0.00208474,-4.96638,0.1975,
2,1,0,1,0,22869.5,0.201062,0.20074,61.2036,12,0.0109557,10,0.012286,-1.21322,-3.18393,-0.0185306,-44.0831,0.20074,
2,1,0,1,0,22869.5,0.204269,0.203944,61.0095,12,0.0112002,10,0.0124425,-1.2146,-1.65283,-0.0356964,-84.6096,0.203944,
2,1,0,1,0,22869.5,0.207465,0.207122,60.6737,12,0.0114435,10,0.0125669,-1.217,-1.10383,-0.0534501,-125.986,0.207122,
2,1,0,1,0,22869.6,0.210662,0.210357,60.1917,12,0.0116853,10,0.0126618,-1.22046,-0.817743,-0.0721498,-168.733,0.210357,
2,1,0,1,0,22869.6,0.213866,0.213496,59.5966,12,0.0119248,10,0.0127236,-1.22478,-0.659457,-0.0894676,-207.182,0.213496,
2,1,0,1,0,22869.6,0.217062,0.216732,58.8516,12,0.0121617,10,0.0127551,-1.23024,-0.54766,-0.107731,-246.384,0.216732,
2,1,0,1,0,22869.6,0.220267,0.219933,58.0195,12,0.0123953,10,0.0127604,-1.23643,-0.471277,-0.125192,-282.238,0.219933,
2,1,0,1,0,22869.6,0.223463,0.223153,57.039,12,0.0126254,10,0.0127284,-1.24383,-0.418048,-0.141132,-312.966,0.223153,
2,1,0,1,0,22869.6,0.226659,0.22633,55.9743,12,0.0128514,10,0.0126687,-1.25201,-0.375789,-0.157003,-341.902,0.22633,
2,1,0,1,0,22869.6,0.229866,0.229559,54.8373,12,0.0130729,10,0.0125884,-1.26092,-0.345067,-0.170981,-364.811,0.229559,
2,1,0,1,0,22869.6,0.233062,0.232751,53.6369,12,0.0132898,10,0.012484,-1.27054,-0.323167,-0.182568,-381.145,0.232751,
2,1,0,1,0,22869.6,0.236264,0.235954,52.369,12,0.0135017,10,0.0123567,-1.28093,-0.303511,-0.194391,-396.47,0.235954,
2,1,0,1,0,22869.6,0.239466,0.239153,51.0871,12,0.0137084,10,0.0122176,-1.29169,-0.2913,-0.202541,-403.279,0.239153,
2,1,0,1,0,22869.6,0.242662,0.242353,49.7649,12,0.01391,10,0.0120607,-1.30308,-0.283628,-0.208019,-403.81,0.242353,
2,1,0,1,0,22869.6,0.245869,0.24552,48.4873,12,0.0141064,10,0.0119046,-1.31437,-0.277938,-0.212278,-401.562,0.24552,
2,1,0,1,0,22869.6,0.249065,0.248751,47.2014,12,0.0142976,10,0.0117414,-1.32604,-0.276671,-0.21325,-392.834,0.248751,
2,1,0,1,0,22869.6,0.252261,0.251955,45.9462,12,0.0144838,10,0.0115764,-1.33775,-0.276978,-0.213013,-382.244,0.251955,
2,1,0,1,0,22869.6,0.255466,0.255175,44.7278,12,0.0146651,10,0.0114134,-1.34942,-0.277069,-0.212944,-372.151,0.255175,
2,1,0,1,0,22869.6,0.258662,0.258409,43.5609,12,0.0148415,10,0.0112565,-1.3609,-0.281698,-0.209444,-356.594,0.258409,
2,1,0,1,0,22869.6,0.261866,0.261535,42.4442,12,0.0150134,10,0.0111006,-1.37218,-0.287544,-0.205186,-340.429,0.2615346,
2,1,0,1,0,22869.6,0.265063,0.264747,41.3848,12,0.0151809,10,0.0109565,-1.38316,-0.294666,-0.200227,-323.984,0.264747,
2,1,0,1,0,22869.6,0.268259,0.267972,40.3714,12,0.0153443,10,0.0108184,-1.39393,-0.304042,-0.194052,-306.338,0.267972,
2,1,0,1,0,22869.6,0.271466,0.271161,39.4293,12,0.0155038,10,0.0106917,-1.40418,-0.316334,-0.186512,-287.586,0.271161,
2,1,0,1,0,22869.6,0.274662,0.274346,38.5194,12,0.0156596,10,0.0105677,-1.41432,-0.32729,-0.180268,-271.609,0.2743465,
2,1,0,1,0,22869.6,0.277869,0.27759,37.6911,12,0.0158119,10,0.0104627,-1.42376,-0.339774,-0.173645,-255.94,0.27759,
2,1,0,1,0,22869.6,0.281065,0.280776,36.8939,12,0.015961,10,0.0103589,-1.43305,-0.35513,-0.166136,-239.679,0.280776,
2,1,0,1,0,22869.6,0.284262,0.283965,36.1521,12,0.016107,10,0.010266,-1.44187,-0.369362,-0.159735,-225.847,0.283965,
2,1,0,1,0,22869.6,0.287469,0.287133,35.4548,12,0.0162502,10,0.0101802,-1.45033,-0.387335,-0.152323,-211.18,0.287133,
2,1,0,1,0,22869.7,0.290665,0.290372,34.8043,12,0.0163906,10,0.0101062,-1.45837,-0.408195,-0.144539,-196.734,0.2903724,
2,1,0,1,0,22869.7,0.293861,0.293585,34.1887,12,0.0165285,10,0.0100373,-1.46612,-0.429101,-0.137497,-184.167,0.293585,
2,1,0,1,0,22869.7,0.297066,0.296779,33.6312,12,0.0166641,10,0.00998104,-1.47326,-0.438931,-0.134417,-178.145,0.296779,
2,1,0,1,0,22869.7,0.299638,0.299317,33.2109,12,0.016771,10,0.00994058,-1.47872,-0.104542,-0.564369,-711.044,0.299317,
2,1,0,1,0,22869.7,0.300012,0.299785,33.1275,12,0.0167876,10,0.00993113,-1.47981,0.00798496,7.38889,8227.21,0.299785,
2,1,0,1,0,22869.7,0.298983,0.298845,30.4489,12,0.0168279,10,0.0090995,-1.51643,0.0289108,2.04076,2030.89,0.298845,
2,1,0,1,0,22869.7,0.295787,0.295606,23.9737,12,0.0169354,10,0.00708675,-1.62027,0.0310839,1.89809,1697.1,0.295606,
2,1,0,1,0,22869.7,0.292579,0.292362,19.0854,12,0.0170208,10,0.00557985,-1.7193,0.0307951,1.91589,1461.25,0.292362,
2,1,0,1,0,22869.7,0.289383,0.289131,15.0466,12,0.0170885,10,0.00435044,-1.82256,0.0288882,2.04235,1195.83,0.289131,
2,1,0,1,0,22869.7,0.286187,0.285957,11.616,12,0.0171413,10,0.00332168,-1.93494,0.0254445,2.31877,1022.76,0.285957,
2,1,0,1,0,22869.7,0.282983,0.282758,8.60968,12,0.0171813,10,0.00243445,-2.06501,0.0209403,2.81754,885.916,0.282758,
2,1,0,1,0,22869.7,0.279786,0.279559,5.99178,12,0.0172102,10,0.00167506,-2.22244,0.0149032,3.95888,782.209,0.2795594,
2,1,0,1,0,22869.7,0.276582,0.276281,3.66259,12,0.0172292,10,0.0010119,-2.43621,0.00809191,7.29123,687.938,0.276281,
2,1,0,1,0,22869.7,0.273386,0.273164,1.60941,12,0.0172395,10,0.000439633,-2.79333,0.0254216,2.32086,613.833,0.273164,
2,1,0,1,0,22869.7,0.27019,0.269918,-0.222996,12,0.017242,10,-6.01907e-05,-3.6517,0.360896,0.163482,551.115,0.2699182,
2,0,0,1,0,22869.7,0.266982,0.266741,-1.87643,12,0.0172375,10,-0.000500522,-2.72667,-0.0274664,-2.14808,492.939,0.266741,
2,0,0,1,0,22869.7,0.263786,0.263509,-3.37598,12,0.0172269,10,-0.000889602,-2.4716,-0.00896369,-6.58211,448.88,0.263509,
2,0,0,1,0,22869.7,0.260585,0.2603,-4.73165,12,0.0172105,10,-0.00123165,-2.32499,-0.0223021,-2.6455,404.315,0.2603,
2,0,0,1,0,22869.7,0.257383,0.257123,-5.96636,12,0.0171889,10,-0.00153409,-2.22429,-0.0336785,-1.75186,369.39,0.257123,
2,0,0,1,0,22869.7,0.254187,0.25389,-7.07232,12,0.0171627,10,-0.00179559,-2.15044,-0.0455696,-1.29472,336.426,0.25389,
2,0,0,1,0,22869.7,0.25098,0.250685,-8.11325,12,0.0171322,10,-0.00203387,-2.0908,-0.0580087,-1.01709,308.753,0.250685,
2,0,0,1,0,22869.7,0.247783,0.247472,-9.04758,12,0.0170978,10,-0.00223902,-2.04347,-0.0706285,-0.835357,286.213,0.247472,
2,0,0,1,0,22869.7,0.244587,0.244303,-9.92467,12,0.0170598,10,-0.00242463,-2.00328,-0.0847924,-0.695817,263.349,0.244303,
2,0,0,1,0,22869.7,0.241383,0.241073,-10.7407,12,0.0170183,10,-0.0025893,-1.96897,-0.0993058,-0.594124,244.261,0.241073,
2,0,0,1,0,22869.7,0.238187,0.237914,-11.4763,12,0.0169738,10,-0.00273038,-1.9402,-0.114969,-0.513184,226.639,0.237914,
2,0,0,1,0,22869.7,0.234982,0.234664,-12.176,12,0.0169264,10,-0.00285726,-1.9145,-0.13115,-0.449866,211.354,0.234664,
2,0,0,1,0,22869.8,0.231786,0.231475,-12.8319,12,0.0168763,10,-0.00297028,-1.89171,-0.146863,-0.401734,199.277,0.231475,
2,0,0,1,0,22869.8,0.22859,0.22832,-13.4362,12,0.0168237,10,-0.00306776,-1.87172,-0.165159,-0.357232,185.831,0.22832,
2,0,0,1,0,22869.8,0.225383,0.225101,-14.0297,12,0.0167687,10,-0.00315809,-1.85295,-0.182177,-0.323861,176.06,0.225101,
2,0,0,1,0,22869.8,0.222187,0.221872,-14.5531,12,0.0167114,10,-0.00322892,-1.83705,-0.201194,-0.293249,165.627,0.221872,
2,0,0,1,0,22869.8,0.218979,0.21866,-15.0882,12,0.0166521,10,-0.00329918,-1.82136,-0.220476,-0.267602,156.776,0.21866,
2,0,0,1,0,22869.8,0.215783,0.215498,-15.5598,12,0.0165908,10,-0.00335311,-1.808,-0.235947,-0.250056,151.288,0.215498,
2,0,0,1,0,22869.8,0.212587,0.212289,-16.0382,12,0.0165275,10,-0.00340475,-1.79484,-0.255813,-0.230637,143.926,0.212289,
2,0,0,1,0,22869.8,0.20938,0.209053,-16.4925,12,0.0164624,10,-0.0034478,-1.78271,-0.274013,-0.215318,138.053,0.209053,
2,0,0,1,0,22869.8,0.206184,0.205884,-16.9269,12,0.0163955,10,-0.00348499,-1.77142,-0.292787,-0.201512,132.722,0.2058845,
2,0,0,1,0,22869.8,0.202988,0.202681,-17.3293,12,0.016327,10,-0.00351231,-1.76122,-0.310077,-0.190276,128.468,0.202681,
2,0,0,1,0,22869.8,0.199783,0.199443,-17.7433,12,0.0162568,10,-0.00353877,-1.75097,-0.323883,-0.182164,125.993,0.199443,
2,0,0,1,0,22869.8,0.196587,0.196278,-18.1336,12,0.016185,10,-0.00355924,-1.74152,-0.340641,-0.173203,122.356,0.196278,
2,0,0,1,0,22869.8,0.193382,0.193064,-18.5422,12,0.0161116,10,-0.00357983,-1.73184,-0.357472,-0.165048,119.127,0.193064,
2,0,0,1,0,22869.8,0.190186,0.189879,-18.8957,12,0.0160367,10,-0.00358789,-1.72364,-0.368291,-0.160199,118.033,0.189879,
2,0,0,1,0,22869.8,0.18699,0.18666,-19.266,12,0.0159603,10,-0.0035962,-1.71521,-0.383445,-0.153868,115.734,0.18666,
2,0,0,1,0,22869.8,0.183783,0.183477,-19.6446,12,0.0158825,10,-0.00360433,-1.70676,-0.383738,-0.153751,117.856,0.183477,
2,0,0,1,0,22869.8,0.180587,0.180272,-20.0226,12,0.0158031,10,-0.00360953,-1.69848,-0.390463,-0.151103,118.018,0.180272,
2,0,0,1,0,22869.8,0.17738,0.177062,-20.4063,12,0.0157222,10,-0.00361317,-1.69024,-0.397971,-0.148252,117.97,0.177062,
2,0,0,1,0,22869.8,0.174183,0.173839,-20.7792,12,0.0156398,10,-0.00361223,-1.68237,-0.393149,-0.15007,121.774,0.173839,
2,0,0,1,0,22869.8,0.170987,0.170689,-21.1533,12,0.0155559,10,-0.00361062,-1.67462,-0.395389,-0.14922,123.38,0.170689,
2,0,0,1,0,22869.8,0.16778,0.167477,-21.5808,12,0.0154704,10,-0.00361429,-1.66593,-0.381883,-0.154498,130.234,0.167477,
2,0,0,1,0,22869.8,0.164584,0.16426,-21.9857,12,0.0153833,10,-0.00361138,-1.65786,-0.374278,-0.157637,135.394,0.16426,
2,0,0,1,0,22869.8,0.161382,0.161082,-22.4405,12,0.0152944,10,-0.00361477,-1.64897,-0.367505,-0.160542,140.796,0.161082,
2,0,0,1,0,22869.8,0.158183,0.157897,-22.8852,12,0.0152037,10,-0.0036135,-1.64045,-0.348014,-0.169533,151.773,0.157897,
2,0,0,1,0,22869.8,0.154987,0.15465,-23.3868,12,0.0151111,10,-0.00361676,-1.63103,-0.335854,-0.175672,160.805,0.15465,
2,0,0,1,0,22869.9,0.151783,0.151517,-23.9197,12,0.0150165,10,-0.00362425,-1.62124,-0.316208,-0.186586,174.683,0.151517,
2,0,0,1,0,22869.9,0.148587,0.148279,-24.4993,12,0.0149196,10,-0.00363274,-1.61085,-0.298556,-0.197618,189.554,0.148279,
2,0,0,1,0,22869.9,0.145385,0.145062,-25.1272,12,0.0148203,10,-0.003645,-1.59986,-0.284309,-0.207521,204.161,0.145062,
2,0,0,1,0,22869.9,0.142183,0.141874,-25.8085,12,0.0147183,10,-0.00366155,-1.58824,-0.264929,-0.222701,225.212,0.141874,
2,0,0,1,0,22869.9,0.138987,0.13867,-26.5427,12,0.0146136,10,-0.00368067,-1.57605,-0.249983,-0.236016,245.606,0.13867,
2,0,0,1,0,22869.9,0.13578,0.135495,-27.3785,12,0.0145057,10,-0.00370964,-1.56259,-0.235461,-0.250572,268.797,0.135495,
2,0,0,1,0,22869.9,0.132584,0.132293,-28.2632,12,0.0143943,10,-0.00373904,-1.54878,-0.22382,-0.263605,291.807,0.132293,
2,0,0,1,0,22869.9,0.129388,0.12912,-29.2369,12,0.0142793,10,-0.00377505,-1.53407,-0.215155,-0.274221,314.028,0.12912,
2,0,0,1,0,22869.9,0.12618,0.125902,-30.2683,12,0.0141602,10,-0.00381085,-1.51901,-0.205671,-0.286866,340.165,0.125902,
2,0,0,1,0,22869.9,0.122984,0.122691,-31.3991,12,0.0140368,10,-0.0038524,-1.50308,-0.200565,-0.294169,361.671,0.122691,
2,0,0,1,0,22869.9,0.119783,0.119519,-32.6088,12,0.0139087,10,-0.00389735,-1.48667,-0.195866,-0.301226,383.982,0.119519,
2,0,0,1,0,22869.9,0.116584,0.116272,-33.8836,12,0.0137756,10,-0.0039397,-1.47001,-0.195514,-0.301768,399.122,0.116272,
2,0,0,1,0,22869.9,0.113387,0.11311,-35.1805,12,0.0136373,10,-0.00397925,-1.4537,-0.198175,-0.297716,408.467,0.11311,
2,0,0,1,0,22869.9,0.110183,0.109889,-36.5088,12,0.0134938,10,-0.00401192,-1.4376,-0.202146,-0.291868,415.372,0.109889,
2,0,0,1,0,22869.9,0.106987,0.106733,-37.8311,12,0.013345,10,-0.00403784,-1.42215,-0.209088,-0.282178,416.107,0.106733,
2,0,0,1,0,22869.9,0.103785,0.10353,-39.1762,12,0.0131908,10,-0.0040559,-1.40698,-0.21636,-0.272694,416.153,0.10353,
2,0,0,1,0,22869.9,0.100583,0.10029,-40.5147,12,0.0130313,10,-0.00406323,-1.39239,-0.229048,-0.257588,405.777,0.10029,
2,0,0,1,0,22869.9,0.0973873,0.0971313,-41.818,12,0.0128665,10,-0.00406183,-1.37864,-0.239822,-0.246015,400.091,0.0971313,
2,0,0,1,0,22869.9,0.0941801,0.0939745,-43.0084,12,0.0126967,10,-0.00404169,-1.36645,-0.252213,-0.233929,392.252,0.0939745,
2,0,0,1,0,22869.9,0.0909839,0.0907996,-44.2694,12,0.012522,10,-0.00401965,-1.3539,-0.267682,-0.220411,380.273,0.0907996,
2,0,0,1,0,22869.9,0.0877878,0.0875484,-45.5127,12,0.0123423,10,-0.00398457,-1.34187,-0.278883,-0.211559,374.545,0.0875484,
2,0,0,1,0,22869.9,0.0845806,0.0843269,-46.6871,12,0.0121577,10,-0.00393698,-1.3308,-0.299533,-0.196973,357.689,0.08432693,
2,0,0,1,0,22869.9,0.0813844,0.0811712,-47.8038,12,0.0119686,10,-0.00388029,-1.32054,-0.323941,-0.182132,338.66,0.0811712,
2,0,0,1,0,22869.9,0.0781828,0.0779475,-48.8665,12,0.0117752,10,-0.00380902,-1.31099,-0.350445,-0.168358,319.989,0.07794752,
2,0,0,1,0,22869.9,0.0749839,0.0747652,-49.8419,12,0.0115776,10,-0.00372644,-1.30241,-0.381641,-0.154596,299.833,0.0747652,
2,0,0,1,0,22870,0.0717877,0.0715607,-50.7722,12,0.0113763,10,-0.00363329,-1.29437,-0.414879,-0.14221,281.055,0.0715607,
2,0,0,1,0,22870,0.0685832,0.0683869,-51.6369,12,0.0111714,10,-0.00353129,-1.28704,-0.454551,-0.129798,260.858,0.06838689,
2,0,0,1,0,22870,0.0653871,0.0651728,-52.4569,12,0.0109631,10,-0.00341876,-1.2802,-0.497901,-0.118498,241.905,0.0651728,
2,0,0,1,0,22870,0.0621854,0.061947,-53.1856,12,0.0107517,10,-0.00329469,-1.27421,-0.555058,-0.106295,220.018,0.061947,
2,0,0,1,0,22870,0.0589837,0.058733,-53.8753,12,0.0105375,10,-0.00316425,-1.26861,-0.622853,-0.0947253,198.606,0.058733,
2,0,0,1,0,22870,0.0557876,0.0555454,-54.4623,12,0.0103207,10,-0.00302513,-1.2639,-0.709656,-0.0831389,176.22,0.0555454,
2,0,0,1,0,22870,0.0525804,0.0523175,-55.01,12,0.0101017,10,-0.00287799,-1.25956,-0.827885,-0.0712659,152.539,0.0523175,
2,0,0,1,0,22870,0.0493842,0.0490843,-55.4523,12,0.00988074,10,-0.00272184,-1.25608,-0.971511,-0.0607301,131.068,0.0490843,
2,0,0,1,0,22870,0.0461881,0.0459476,-55.8255,12,0.00965814,10,-0.00256505,-1.25317,-1.17273,-0.0503101,109.382,0.0459476,
2,0,0,1,0,22870,0.0429808,0.0426932,-56.1468,12,0.00943413,10,-0.00239709,-1.25067,-1.39316,-0.0423497,92.6261,0.0426932,
2,0,0,1,0,22870,0.0397847,0.0394792,-56.4143,12,0.00920898,10,-0.00222719,-1.24861,-1.67267,-0.035273,77.5353,0.0394792,
2,0,0,1,0,22870,0.036583,0.0362895,-56.6374,12,0.00898285,10,-0.00205534,-1.2469,-2.10785,-0.0279906,61.7641,0.03628945,
2,0,0,1,0,22870,0.0333841,0.0330542,-56.8252,12,0.0087559,10,-0.00187831,-1.24546,-2.65712,-0.0222045,49.1596,0.0330542,
2,0,0,1,0,22870,0.030188,0.0299143,-56.9361,12,0.00852835,10,-0.0017032,-1.24461,-3.70339,-0.0159314,35.3548,0.02991429,
2,0,0,1,0,22870,0.0269835,0.0266546,-57.0447,12,0.00830037,10,-0.0015205,-1.24378,-5.39607,-0.0109339,24.3145,0.0266546,
2,0,0,1,0,22870,0.0237874,0.0234946,-57.0898,12,0.00807209,10,-0.0013413,-1.24344,-8.28278,-0.00712321,15.8563,0.0234946,
2,0,0,1,0,22870,0.0205857,0.0202582,-57.1364,12,0.00784363,10,-0.00115748,-1.24309,-24.6475,-0.00239375,5.33235,0.0202582,
2,0,0,1,0,22870,0.017384,0.0170675,-57.1398,12,0.00761505,10,-0.000975231,-1.24306,66.383,0.000888782,-1.9798,0.0170675,
2,0,0,1,0,22870,0.0141879,0.0138523,-57.113,12,0.00738654,10,-0.000791147,-1.24326,11.4576,0.00514941,-11.4676,0.0138523,
2,0,0,1,0,22870,0.0109806,0.0106615,-57.0644,12,0.00715817,10,-0.000608394,-1.24364,6.69018,0.0088189,-19.6228,0.0106615,
2,0,0,1,0,22870,0.00778448,0.00744003,-56.9894,12,0.00693006,10,-0.000424003,-1.24421,6.26974,0.00941028,-20.9257,0.00744003,
2,0,0,1,0,22870,0.00458834,0.00427896,-56.8888,12,0.0067023,10,-0.000243425,-1.24497,4.27146,0.0138126,-30.6551,0.00427896,
2,0,0,1,0,22870,0.0013811,0.0010426,-56.845,12,0.00647487,10,-5.92666e-05,-1.24531,3.47227,0.0169917,-37.6315,0.0010426,
2,0,0,1,0,22870,-0.00181504,-0.00217573,-56.6708,12,0.00624786,10,0.000123301,-1.24664,2.81495,0.0209595,-46.2908,-0.00217573,
2,0,0,1,0,22870,-0.0050195,-0.00537604,-56.5071,12,0.00602153,10,0.000303784,-1.2479,2.14634,0.0274886,-60.5656,-0.00537604,
2,0,0,1,0,22870.1,-0.00821564,-0.00854878,-56.295,12,0.00579596,10,0.000481254,-1.24953,1.92753,0.0306091,-67.184,-0.00854878,
2,0,0,1,0,22870.1,-0.0114118,-0.0117745,-56.0687,12,0.00557124,10,0.000660183,-1.25128,1.69013,0.0349086,-76.3158,-0.0117745,
2,0,0,1,0,22870.1,-0.0146162,-0.014943,-55.8131,12,0.00534748,10,0.000834016,-1.25326,1.51011,0.0390699,-85.0018,-0.014943,
2,0,0,1,0,22870.1,-0.0178124,-0.0181858,-55.5295,12,0.00512482,10,0.00100985,-1.25548,1.35522,0.0435354,-94.236,-0.0181858,
2,0,0,1,0,22870.1,-0.0210196,-0.0214009,-55.2026,12,0.00490338,10,0.00118139,-1.25804,1.22234,0.0482679,-103.88,-0.0214009,
2,0,0,1,0,22870.1,-0.0242158,-0.024563,-54.8635,12,0.00468328,10,0.00134762,-1.26072,1.14436,0.0515571,-110.304,-0.024563,
2,0,0,1,0,22870.1,-0.0274119,-0.0277474,-54.4829,12,0.00446458,10,0.00151176,-1.26374,1.06053,0.0556326,-118.212,-0.0277474,
2,0,0,1,0,22870.1,-0.0306191,-0.0309934,-54.1168,12,0.00424742,10,0.00167726,-1.26667,1.01441,0.0581618,-122.74,-0.0309934,
2,0,0,1,0,22870.1,-0.0338153,-0.0341364,-53.6971,12,0.00403181,10,0.00183303,-1.27005,0.981381,0.0601194,-125.921,-0.0341364,
2,0,0,1,0,22870.1,-0.037017,-0.0373781,-53.2906,12,0.00381789,10,0.0019919,-1.27335,0.936998,0.062967,-130.921,-0.0373781,
2,0,0,1,0,22870.1,-0.0402187,-0.0406155,-52.8626,12,0.00360562,10,0.00214704,-1.27685,0.937668,0.062922,-129.802,-0.0406155,
2,0,0,1,0,22870.1,-0.0434148,-0.0437681,-52.4443,12,0.00339505,10,0.00229539,-1.2803,0.928563,0.063539,-130.073,-0.0437681,
2,0,0,1,0,22870.1,-0.0466193,-0.0469875,-52.029,12,0.00318616,10,0.00244471,-1.28375,0.934535,0.063133,-128.221,-0.04698747,
2,0,0,1,0,22870.1,-0.0498154,-0.0501676,-51.6271,12,0.00297889,10,0.00259001,-1.28712,0.964238,0.0611882,-123.34,-0.0501676,
2,0,0,1,0,22870.1,-0.0530115,-0.0533754,-51.2265,12,0.00277323,10,0.00273423,-1.29051,0.986711,0.0597946,-119.624,-0.0533754,
2,0,0,1,0,22870.1,-0.056216,-0.0565788,-50.8642,12,0.0025691,10,0.00287784,-1.29359,1.0574,0.055797,-110.866,-0.0565788,
2,0,0,1,0,22870.1,-0.0594121,-0.0597516,-50.5021,12,0.00236639,10,0.00301758,-1.29669,1.10791,0.0532534,-105.064,-0.0597516,
2,0,0,1,0,22870.1,-0.0626194,-0.0630028,-50.2041,12,0.00216503,10,0.003163,-1.29926,1.18147,0.0499378,-97.9031,-0.0630028,
2,0,0,1,0,22870.1,-0.0658155,-0.0661522,-49.8841,12,0.00196488,10,0.00329994,-1.30204,1.31014,0.0450334,-87.764,-0.0661522,
2,0,0,1,0,22870.1,-0.0690117,-0.0693875,-49.6102,12,0.00176592,10,0.00344233,-1.30443,1.41697,0.041638,-80.7389,-0.06938751,
2,0,0,1,0,22870.1,-0.0722189,-0.072591,-49.3753,12,0.00156797,10,0.0035842,-1.30649,1.63487,0.0360886,-69.627,-0.072591,
2,0,0,1,0,22870.1,-0.075415,-0.0758061,-49.1704,12,0.00137091,10,0.00372741,-1.3083,1.87317,0.0314975,-60.5075,-0.0758061,
2,0,0,1,0,22870.1,-0.0786167,-0.0789821,-48.9908,12,0.00117461,10,0.0038694,-1.30989,2.12808,0.0277245,-53.0553,-0.0789821,
2,0,0,1,0,22870.1,-0.0818184,-0.0821474,-48.8381,12,0.000978988,10,0.00401192,-1.31124,2.62406,0.0224842,-42.9067,-0.08214739,
2,0,0,1,0,22870.1,-0.0850146,-0.0854103,-48.6951,12,0.000783938,10,0.00415906,-1.31251,3.23027,0.0182647,-34.7628,-0.0854103,
2,0,0,1,0,22870.2,-0.088219,-0.0885215,-48.6248,12,0.000589329,10,0.00430434,-1.31314,4.39954,0.0134105,-25.4747,-0.0885215,
2,0,0,1,0,22870.2,-0.0914152,-0.0917621,-48.5465,12,0.000394988,10,0.00445473,-1.31384,6.86652,0.00859242,-16.2943,-0.0917621,
2,0,0,1,0,22870.2,-0.0946141,-0.0949932,-48.5109,12,0.000200899,10,0.0046082,-1.31416,11.781,0.00500808,-9.49176,-0.0949932,
2,0,0,1,0,22870.2,-0.0978158,-0.0981723,-48.4872,12,6.88355e-06,10,0.0047601,-1.31437,514.19,0.000114744,-0.217389,-0.0981723,
2,0,0,1,0,22870.2,-0.101012,-0.101387,-48.5027,12,-0.000187089,10,0.00491756,-1.31423,-15.6577,-0.00376811,7.14059,-0.101387,
2,0,0,1,0,22870.2,-0.104219,-0.1046,-48.5438,12,-0.000381165,10,0.0050777,-1.31387,-7.64417,-0.0077183,14.6336,-0.1046,
2,0,0,1,0,22870.2,-0.107415,-0.107746,-48.6019,12,-0.000575463,10,0.00523665,-1.31335,-4.89612,-0.0120504,22.8789,-0.107746,
2,0,0,1,0,22870.2,-0.110611,-0.110972,-48.6745,12,-0.000770023,10,0.00540153,-1.3127,-3.94164,-0.0149684,28.4636,-0.110972,
2,0,0,1,0,22870.2,-0.113819,-0.11416,-48.7949,12,-0.000964987,10,0.00557042,-1.31163,-3.09642,-0.0190543,36.3149,-0.11416,
2,0,0,1,0,22870.2,-0.117015,-0.11735,-48.9066,12,-0.00116041,10,0.00573918,-1.31063,-2.58413,-0.0228317,43.62,-0.11735,
2,0,0,1,0,22870.2,-0.120216,-0.120591,-49.0684,12,-0.00135635,10,0.00591723,-1.3092,-2.31222,-0.0255166,48.9026,-0.120591,
2,0,0,1,0,22870.2,-0.123418,-0.123792,-49.2337,12,-0.00155297,10,0.00609472,-1.30774,-2.0374,-0.0289585,55.6748,-0.123792,
2,0,0,1,0,22870.2,-0.126614,-0.126962,-49.4209,12,-0.00175028,10,0.0062746,-1.30609,-1.91337,-0.0308356,59.5076,-0.126962,
2,0,0,1,0,22870.2,-0.129819,-0.130173,-49.6206,12,-0.00194838,10,0.00645927,-1.30434,-1.76927,-0.0333471,64.6076,-0.130173,
2,0,0,1,0,22870.2,-0.133015,-0.13341,-49.8312,12,-0.00214728,10,0.00664796,-1.3025,-1.65337,-0.0356846,69.4442,-0.13341,
2,0,0,1,0,22870.2,-0.136214,-0.136509,-50.0553,12,-0.00234707,10,0.00683301,-1.30055,-1.59507,-0.0369889,72.296,-0.136509,
2,0,0,1,0,22870.2,-0.139416,-0.139773,-50.3106,12,-0.00254784,10,0.00703206,-1.29834,-1.51071,-0.0390546,76.6957,-0.139773,
2,0,0,1,0,22870.2,-0.142612,-0.142971,-50.5458,12,-0.00274958,10,0.0072266,-1.29631,-1.49098,-0.0395713,78.0732,-0.142971,
2,0,0,1,0,22870.2,-0.145819,-0.146181,-50.8107,12,-0.00295231,10,0.00742757,-1.29404,-1.46224,-0.0403491,80.0276,-0.146181,
2,0,0,1,0,22870.2,-0.149015,-0.149334,-51.0566,12,-0.00315609,10,0.00762447,-1.29195,-1.41918,-0.0415732,82.8661,-0.149334,
2,0,0,1,0,22870.2,-0.152211,-0.15257,-51.3347,12,-0.0033609,10,0.00783214,-1.28959,-1.42168,-0.0415002,83.1518,-0.15257,
2,0,0,1,0,22870.2,-0.155418,-0.155762,-51.6057,12,-0.00356685,10,0.00803821,-1.2873,-1.42476,-0.0414106,83.3784,-0.1557619,
2,0,0,1,0,22870.2,-0.158615,-0.158962,-51.8735,12,-0.00377382,10,0.00824593,-1.28505,-1.42575,-0.0413818,83.7654,-0.158962,
2,0,0,1,0,22870.2,-0.161816,-0.16221,-52.1302,12,-0.00398185,10,0.00845605,-1.28291,-1.46155,-0.040368,82.1244,-0.16221,
2,0,0,1,0,22870.2,-0.165018,-0.165325,-52.4031,12,-0.00419094,10,0.00866352,-1.28064,-1.46185,-0.0403597,82.5344,-0.165325,
2,0,0,1,0,22870.3,-0.168214,-0.168524,-52.6538,12,-0.00440106,10,0.00887343,-1.27857,-1.49908,-0.0393575,80.8612,-0.168524,
2,0,0,1,0,22870.3,-0.171419,-0.17174,-52.9281,12,-0.00461226,10,0.00908988,-1.27631,-1.54765,-0.0381223,78.7145,-0.17174,
2,0,0,1,0,22870.3,-0.174615,-0.174961,-53.1612,12,-0.00482446,10,0.00930111,-1.27441,-1.57077,-0.0375612,77.9162,-0.174961,
2,0,0,1,0,22870.3,-0.177814,-0.178165,-53.4138,12,-0.00503764,10,0.00951648,-1.27235,-1.62382,-0.036334,75.7361,-0.178165,
2,0,0,1,0,22870.3,-0.181015,-0.181368,-53.6546,12,-0.00525182,10,0.00973119,-1.27039,-1.60579,-0.0367421,76.9301,-0.181368,
2,0,0,1,0,22870.3,-0.184211,-0.184515,-53.8956,12,-0.00546695,10,0.00994454,-1.26845,-1.65347,-0.0356825,75.0492,-0.184515,
2,0,0,1,0,22870.3,-0.187419,-0.187702,-54.1414,12,-0.00568307,10,0.0101625,-1.26647,-1.71747,-0.0343528,72.5539,-0.187702,
2,0,0,1,0,22870.3,-0.190615,-0.190954,-54.3736,12,-0.00590011,10,0.0103828,-1.26461,-1.72855,-0.0341327,72.4119,-0.190954,
2,0,0,1,0,22870.3,-0.193811,-0.194157,-54.5825,12,-0.00611807,10,0.0105976,-1.26295,-1.83929,-0.0320775,68.3044,-0.194157,
2,0,0,1,0,22870.3,-0.197018,-0.197363,-54.826,12,-0.00633692,10,0.0108206,-1.26101,-2.19339,-0.026899,57.3673,-0.197363,
2,0,0,1,0,22870.3,-0.199647,-0.200026,-54.9832,12,-0.00651813,10,0.0109981,-1.25977,0.243461,0.242339,-503.565,-0.200026,
2,0,0,1,0,22870.3,-0.200134,-0.200494,-54.9209,12,-0.00655111,10,0.0110113,-1.26026,-0.0146244,-4.03435,7853.5,-0.200494,
2,0,0,1,1,22870.3,-0.198935,-0.199431,-51.927,12,-0.00663035,10,0.0103558,-1.28461,-0.0509433,-1.15815,2129.46,-0.199431,
2,0,0,1,1,22870.3,-0.195739,-0.196142,-45.2406,12,-0.00682343,10,0.0088736,-1.34447,-0.0570343,-1.03447,1798.91,-0.1961422,
2,0,0,1,1,22870.3,-0.192535,-0.193005,-40.0324,12,-0.00699317,10,0.00772648,-1.39759,-0.0598901,-0.985137,1575.31,-0.1930055,
2,0,0,1,1,22870.3,-0.189339,-0.189748,-35.5895,12,-0.0071438,10,0.00675304,-1.44868,-0.0622494,-0.9478,1332.83,-0.189748,
2,0,0,1,1,22870.3,-0.186137,-0.186578,-31.6809,12,-0.00727784,10,0.00591097,-1.4992,-0.0626015,-0.942469,1173.46,-0.186578,
2,0,0,1,1,22870.3,-0.182935,-0.183332,-28.1675,12,-0.00739708,10,0.00516401,-1.55025,-0.0610679,-0.966138,1064.6,-0.183332,
2,0,0,1,1,22870.3,-0.179739,-0.180159,-24.9572,12,-0.00750292,10,0.00449626,-1.6028,-0.0591608,-0.997281,970.254,-0.180159,
2,0,0,1,1,22870.3,-0.176532,-0.176955,-21.9704,12,-0.00759643,10,0.00388778,-1.65816,-0.0558979,-1.0555,901.852,-0.176955,
2,0,0,1,1,22870.3,-0.173336,-0.173727,-19.2121,12,-0.00767845,10,0.00333767,-1.71642,-0.0524791,-1.12426,836.821,-0.173727,
2,0,0,1,1,22870.3,-0.17014,-0.170538,-16.6284,12,-0.00774984,10,0.00283577,-1.77915,-0.0479155,-1.23134,788.973,-0.170538,
2,0,0,1,1,22870.3,-0.166932,-0.167297,-14.1943,12,-0.00781118,10,0.00237467,-1.84789,-0.0431095,-1.36861,743.2,-0.167297,
2,0,0,1,1,22870.3,-0.163736,-0.164179,-11.8907,12,-0.0078631,10,0.00195221,-1.92479,-0.0377396,-1.56334,703.931,-0.164179,
2,0,0,1,1,22870.3,-0.160532,-0.16092,-9.69351,12,-0.00790603,10,0.00155988,-2.01352,-0.0317479,-1.85839,671.59,-0.16092,
2,0,0,1,1,22870.3,-0.157336,-0.157726,-7.60976,12,-0.00794041,10,0.00120026,-2.11863,-0.0254738,-2.3161,635.725,-0.157726,
2,0,0,1,1,22870.3,-0.154139,-0.154541,-5.62775,12,-0.00796665,10,0.00086972,-2.24967,-0.0180647,-3.26603,610.643,-0.154541,
2,0,0,1,1,22870.4,-0.150935,-0.15133,-3.72227,12,-0.00798514,10,0.000563292,-2.42919,-0.00757575,-7.78801,583.199,-0.15133,
2,0,0,1,1,22870.4,-0.147739,-0.148172,-1.9089,12,-0.00799619,10,0.000282845,-2.71922,-0.0224934,-2.62299,559.498,-0.148172,
2,0,0,1,1,22870.4,-0.144532,-0.144946,-0.15646,12,-0.00800014,10,2.26782e-05,-3.8056,-0.175339,-0.336492,540.071,-0.144946,
2,1,0,1,1,22870.4,-0.141335,-0.141763,1.52146,12,-0.0079972,10,-0.000215688,-2.81774,0.0325271,1.81387,518.507,-0.141763,
2,1,0,1,1,22870.4,-0.138139,-0.138607,3.14949,12,-0.00798768,10,-0.00043654,-2.50176,0.00798429,7.38951,499.383,-0.138607,
2,1,0,1,1,22870.4,-0.134932,-0.135394,4.71653,12,-0.00797176,10,-0.000638588,-2.32638,0.0181334,3.25366,482.78,-0.135394,
2,1,0,1,1,22870.4,-0.131736,-0.132175,6.22089,12,-0.00794973,10,-0.000822248,-2.20615,0.0278244,2.12044,464.221,-0.132175,
2,1,0,1,1,22870.4,-0.12854,-0.129021,7.67348,12,-0.00792177,10,-0.000990037,-2.11501,0.0367697,1.60458,452.409,-0.129021,
2,1,0,1,1,22870.4,-0.125333,-0.12578,9.10392,12,-0.00788804,10,-0.00114509,-2.04077,0.0456946,1.29118,440.06,-0.12578,
2,1,0,1,1,22870.4,-0.122136,-0.122622,10.4945,12,-0.00784869,10,-0.00128686,-1.97904,0.0549988,1.07275,425.315,-0.122622,
2,1,0,1,1,22870.4,-0.118932,-0.119396,11.8444,12,-0.0078039,10,-0.00141418,-1.92649,0.0643877,0.916324,413.041,-0.1193963,
2,1,0,1,1,22870.4,-0.115736,-0.11619,13.1307,12,-0.00775382,10,-0.00152565,-1.88171,0.074006,0.797233,401.302,-0.11619,
2,1,0,1,1,22870.4,-0.11254,-0.11296,14.3992,12,-0.00769864,10,-0.00162653,-1.84166,0.0839587,0.702727,389.308,-0.11296,
2,1,0,1,1,22870.4,-0.109335,-0.109792,15.6431,12,-0.00763839,10,-0.00171749,-1.80568,0.0936722,0.629856,379.513,-0.1097922,
2,1,0,1,1,22870.4,-0.106139,-0.106569,16.8383,12,-0.00757331,10,-0.00179444,-1.7737,0.104149,0.566497,368.145,-0.106569,
2,1,0,1,1,22870.4,-0.102932,-0.10335,18.0034,12,-0.00750348,10,-0.00186065,-1.74465,0.115209,0.512114,356.428,-0.10335,
2,1,0,1,1,22870.4,-0.0997357,-0.100116,19.1276,12,-0.00742909,10,-0.00191497,-1.71834,0.125397,0.470507,348.623,-0.100116,
2,1,0,1,1,22870.4,-0.0965395,-0.0969517,20.2198,12,-0.00735026,10,-0.00196035,-1.69422,0.137172,0.430118,337.22,-0.0969517,
2,1,0,1,1,22870.4,-0.0933323,-0.0937472,21.3082,12,-0.0072671,10,-0.00199758,-1.67145,0.148118,0.398331,329.062,-0.0937472,
2,1,0,1,1,22870.4,-0.0901361,-0.0905193,22.3302,12,-0.00717971,10,-0.00202132,-1.65111,0.159621,0.369625,320.365,-0.0905193,
2,1,0,1,1,22870.4,-0.0869345,-0.0872914,23.3476,12,-0.00708824,10,-0.00203805,-1.63176,0.172763,0.341508,309.721,-0.08729142,
2,1,0,1,1,22870.4,-0.0837328,-0.084142,24.3236,12,-0.00699278,10,-0.00204664,-1.61397,0.18286,0.322652,305.053,-0.084142,
2,1,0,1,1,22870.4,-0.0805366,-0.0809173,25.2818,12,-0.00689348,10,-0.00204574,-1.59719,0.195526,0.30175,296.669,-0.0809173,
2,1,0,1,1,22870.4,-0.0773322,-0.0777499,26.2256,12,-0.00679037,10,-0.00203904,-1.58127,0.209,0.282297,287.778,-0.0777499,
2,1,0,1,1,22870.4,-0.074136,-0.074539,27.1309,12,-0.00668356,10,-0.00202231,-1.56654,0.221796,0.26601,280.641,-0.074539,
2,1,0,1,1,22870.5,-0.0709371,-0.0713514,28.0045,12,-0.00657318,10,-0.00199816,-1.55277,0.238128,0.247766,269.99,-0.0713514,
2,1,0,1,1,22870.5,-0.0677354,-0.0681585,28.8625,12,-0.00645935,10,-0.00196722,-1.53967,0.251408,0.234678,263.702,-0.0681585,
2,1,0,1,1,22870.5,-0.0645393,-0.06492,29.6895,12,-0.00634217,10,-0.00192744,-1.5274,0.265968,0.221832,256.423,-0.06492,
2,1,0,1,1,22870.5,-0.0613321,-0.0616858,30.5203,12,-0.00622168,10,-0.00188267,-1.51541,0.282035,0.209194,248.429,-0.0616858,
2,1,0,1,1,22870.5,-0.0581359,-0.0585215,31.2944,12,-0.00609795,10,-0.00183139,-1.50453,0.297616,0.198242,241.487,-0.0585215,
2,1,0,1,1,22870.5,-0.0549398,-0.0553223,32.0514,12,-0.00597117,10,-0.00177316,-1.49415,0.315146,0.187215,233.713,-0.0553223,
2,1,0,1,1,22870.5,-0.0517325,-0.0520901,32.7878,12,-0.0058414,10,-0.00170792,-1.48429,0.330679,0.178421,227.866,-0.0520901,
2,1,0,1,1,22870.5,-0.0485364,-0.0489333,33.5007,12,-0.00570876,10,-0.0016393,-1.47495,0.350613,0.168277,219.594,-0.0489333,
2,1,0,1,1,22870.5,-0.0453347,-0.0457818,34.1973,12,-0.00557329,10,-0.00156561,-1.46601,0.370296,0.159332,212.18,-0.0457818,
2,1,0,1,1,22870.5,-0.042133,-0.0425189,34.8629,12,-0.0054351,10,-0.00148233,-1.45764,0.39178,0.150595,204.498,-0.0425189,
2,1,0,1,1,22870.5,-0.0389369,-0.039343,35.4925,12,-0.00529431,10,-0.00139638,-1.44986,0.416878,0.141528,195.731,-0.039343,
2,1,0,1,1,22870.5,-0.0357324,-0.0361151,36.122,12,-0.00515104,10,-0.00130455,-1.44223,0.438332,0.134601,189.42,-0.0361151,
2,1,0,1,1,22870.5,-0.0325363,-0.0329668,36.7056,12,-0.00500531,10,-0.00121007,-1.43527,0.462097,0.127679,182.635,-0.0329668,
2,1,0,1,1,22870.5,-0.0293374,-0.0297474,37.2821,12,-0.00485728,10,-0.00110904,-1.4285,0.490085,0.120387,174.909,-0.0297474,
2,1,0,1,1,22870.5,-0.0261357,-0.0265047,37.8372,12,-0.00470696,10,-0.00100286,-1.42208,0.518463,0.113798,167.751,-0.0265047,
2,1,0,1,1,22870.5,-0.0229395,-0.0233436,38.3559,12,-0.00455452,10,-0.000895363,-1.41617,0.55287,0.106716,159.489,-0.0233436,
2,1,0,1,1,22870.5,-0.0197323,-0.0201337,38.8584,12,-0.00440004,10,-0.000782364,-1.41052,0.588621,0.100234,151.775,-0.0201337,
2,1,0,1,1,22870.5,-0.0165361,-0.0169366,39.3253,12,-0.00424362,10,-0.000666037,-1.40533,0.619396,0.0952541,146.044,-0.0169366,
2,1,0,1,1,22870.5,-0.01334,-0.0137246,39.7769,12,-0.00408534,10,-0.000545923,-1.40037,0.663526,0.0889189,137.886,-0.0137246,
2,1,0,1,1,22870.5,-0.0101328,-0.0105042,40.231,12,-0.00392526,10,-0.000422593,-1.39544,0.70207,0.0840372,131.721,-0.01050417,
2,1,0,1,1,22870.5,-0.00693663,-0.00733673,40.6229,12,-0.00376348,10,-0.000298039,-1.39123,0.749133,0.0787577,124.648,-0.00733673,
2,1,0,1,1,22870.5,-0.00373494,-0.00413537,41.0115,12,-0.00360018,10,-0.000169597,-1.38709, , , ,-0.00413537,
2,1,0,1,1,22870.5,-0.000774628,-0.00118266,41.3402,12,-0.00344781,10,-4.88915e-05,-1.38363, , , ,-0.00118266,
2,1,0,0,1,22870.5,-0.000125413,-0.00042076,41.4322,12,-0.00341471,10,-1.7433e-05,-1.38266, , , ,-0.00042076,