File: Figure_codes/Fig_3-5/rawdata_trumpetplot_data/after 10th/20221101_1-115_003_TrumpetPlot_ParaChange_from10_every3_04_CV_C01_4.csv
mode,ox/red,error,control changes,counter inc.,time/s,control/V,Ewe/V,<I>/mA,cycle number,(Q-Qo)/C,I Range,P/W,log(|I|),Tafel slope mV/dec,alpha_eff,dI/d(E-IR),E-IR/V,
2,0,0,1,0,8940.54,2.44065e-05,-0.000306236,-0.374796,5,0.0000000E+000,10,1.14776e-07,-3.42621, , , ,-0.000306236,
2,1,0,1,0,8940.67,0.00129787,0.000932319,0.218404,5,9.61185e-06,10,2.03622e-07,-3.66074, , , ,0.000932319,
2,1,0,1,0,8940.81,0.00279606,0.00247627,0.315361,5,5.42125e-05,10,7.80918e-07,-3.50119,0.0098409,5.99539,52.7888,0.00247627,
2,1,0,1,0,8940.96,0.00429425,0.00399371,0.339168,5,0.000106124,10,1.35454e-06,-3.46959,0.0457457,1.28974,16.9624,0.00399371,
2,1,0,1,0,8941.11,0.00579244,0.00547934,0.360943,5,0.000161733,10,1.97773e-06,-3.44256,0.0564802,1.04461,14.6712,0.00547934,
2,1,0,1,0,8941.26,0.00729063,0.00695861,0.386352,5,0.000220763,10,2.68847e-06,-3.41302,0.0674508,0.874712,13.0494,0.00695861,
2,1,0,1,0,8941.41,0.00878882,0.00849832,0.402067,5,0.000282734,10,3.41689e-06,-3.3957,0.0884437,0.667091,10.4045,0.00849832,
2,1,0,1,0,8941.56,0.010287,0.00997016,0.418507,5,0.000347129,10,4.17258e-06,-3.3783,0.111823,0.527617,8.54181,0.009970163,
2,1,0,1,0,8941.71,0.0117852,0.0114335,0.429054,5,0.000413528,10,4.9056e-06,-3.36749,0.110691,0.533016,8.92273,0.0114335,
2,1,0,1,0,8941.86,0.0132838,0.0129874,0.443461,5,0.000481756,10,5.7594e-06,-3.35315,0.119048,0.495599,8.61769,0.0129874,
2,1,0,1,0,8942.01,0.0147814,0.0144355,0.454804,5,0.000552019,10,6.56534e-06,-3.34218,0.126663,0.465803,8.27552,0.01443552,
2,1,0,1,0,8942.16,0.0162789,0.0159797,0.466892,5,0.000624273,10,7.46081e-06,-3.33078,0.146451,0.402865,7.34182,0.01597972,
2,1,0,1,0,8942.31,0.017778,0.0174609,0.477416,5,0.000698157,10,8.33611e-06,-3.3211,0.144209,0.40913,7.61612,0.0174609,
2,1,0,1,0,8942.46,0.0192761,0.0189603,0.489598,5,0.000773335,10,9.28292e-06,-3.31016,0.155628,0.379109,7.23986,0.01896029,
2,1,0,1,0,8942.61,0.0207743,0.0204703,0.500257,5,0.000850399,10,1.02404e-05,-3.30081,0.14405,0.409579,7.94565,0.02047031,
2,1,0,1,0,8942.76,0.0222725,0.0219517,0.512554,5,0.000929105,10,1.12514e-05,-3.29026,0.169742,0.347586,6.94548,0.0219517,
2,1,0,1,0,8942.91,0.0237707,0.0234628,0.51897,5,0.00100927,10,1.21765e-05,-3.28486,0.172667,0.341698,6.95865,0.0234628,
2,1,0,1,0,8943.06,0.0252689,0.0249463,0.529959,5,0.00109082,10,1.32205e-05,-3.27576,0.177183,0.332988,6.93169,0.0249463,
2,1,0,1,0,8943.21,0.0267671,0.0264722,0.542377,5,0.00117414,10,1.43579e-05,-3.2657,0.144306,0.408853,8.63898,0.0264722,
2,1,0,1,0,8943.36,0.0282662,0.0279872,0.556873,5,0.00125919,10,1.55853e-05,-3.25424,0.180256,0.327312,7.07569,0.0279872,
2,1,0,1,0,8943.51,0.0297635,0.0294392,0.561682,5,0.00134582,10,1.65355e-05,-3.25051,0.1853,0.318402,6.98634,0.0294392,
2,1,0,1,0,8943.66,0.031261,0.0309371,0.572216,5,0.0014338,10,1.77027e-05,-3.24244,0.193965,0.304178,6.82225,0.0309371,
2,1,0,1,0,8943.81,0.0327599,0.0324646,0.585009,5,0.00152336,10,1.89921e-05,-3.23284,0.181754,0.324614,7.40097,0.0324646,
2,1,0,1,0,8943.96,0.034258,0.0339523,0.595647,5,0.00161473,10,2.02236e-05,-3.22501,0.182498,0.323292,7.5088,0.0339523,
2,1,0,1,0,8944.11,0.0357562,0.0355101,0.605712,5,0.00170768,10,2.15089e-05,-3.21773,0.234792,0.251286,5.93458,0.0355101,
2,1,0,1,0,8944.26,0.0372544,0.0369501,0.617485,5,0.00180228,10,2.28161e-05,-3.20937,0.189465,0.311404,7.51436,0.0369501,
2,1,0,1,0,8944.41,0.0387526,0.0384272,0.627234,5,0.00189827,10,2.41029e-05,-3.20257,0.189172,0.311886,7.67322,0.0384272,
2,1,0,1,0,8944.56,0.0402508,0.0399426,0.639687,5,0.00199621,10,2.55507e-05,-3.19403,0.194504,0.303335,7.5637,0.0399426,
2,1,0,1,0,8944.71,0.041749,0.0414674,0.651341,5,0.00209604,10,2.70094e-05,-3.18619,0.236089,0.249906,6.3349,0.0414674,
2,1,0,1,0,8944.86,0.0432472,0.0429933,0.663152,5,0.0021972,10,2.85111e-05,-3.17839,0.228296,0.258437,6.68002,0.0429933,
2,1,0,1,0,8945.01,0.0447458,0.0444477,0.670625,5,0.00229971,10,2.98077e-05,-3.17352,0.18798,0.313863,8.22603,0.0444477,
2,1,0,1,0,8945.16,0.0462433,0.0459222,0.682746,5,0.00240403,10,3.13532e-05,-3.16574,0.198805,0.296773,7.88479,0.0459222,
2,1,0,1,0,8945.31,0.0477409,0.0474462,0.691661,5,0.00251008,10,3.28167e-05,-3.16011,0.237402,0.248523,6.72515,0.0474462,
2,1,0,1,0,8945.46,0.0492399,0.0489369,0.701803,5,0.00261757,10,3.43441e-05,-3.15378,0.266591,0.221313,6.06516,0.0489369,
2,1,0,1,0,8945.61,0.0507381,0.0504247,0.709091,5,0.00272627,10,3.57557e-05,-3.1493,0.262783,0.22452,6.24339,0.0504247,
2,1,0,1,0,8945.76,0.0522363,0.0519198,0.719258,5,0.00283644,10,3.73438e-05,-3.14312,0.228337,0.25839,7.269,0.0519198,
2,1,0,1,0,8945.91,0.0537345,0.0534182,0.7325,5,0.00294841,10,3.91288e-05,-3.13519,0.263208,0.224158,6.38607,0.0534182,
2,1,0,1,0,8946.06,0.0552327,0.0549325,0.740675,5,0.0030617,10,4.06871e-05,-3.13037,0.357503,0.165034,4.75887,0.05493246,
2,1,0,1,0,8946.21,0.0567309,0.0563513,0.747285,5,0.00317634,10,4.21105e-05,-3.12651,0.290573,0.203047,5.9398,0.0563513,
2,1,0,1,0,8946.36,0.0582291,0.0579027,0.760913,5,0.00329217,10,4.40589e-05,-3.11867,0.282619,0.208762,6.19262,0.05790266,
2,1,0,1,0,8946.51,0.0597282,0.0594178,0.770532,5,0.00340972,10,4.57834e-05,-3.11321,0.278791,0.211628,6.35395,0.0594178,
2,1,0,1,0,8946.66,0.0612255,0.0609335,0.777877,5,0.00352865,10,4.73988e-05,-3.10909,0.357139,0.165202,4.99936,0.0609335,
2,1,0,1,0,8946.81,0.062723,0.0623844,0.786415,5,0.00364895,10,4.906e-05,-3.10435,0.321664,0.183421,5.6417,0.0623844,
2,1,0,1,0,8946.96,0.0642218,0.0639247,0.794113,5,0.00377022,10,5.07634e-05,-3.10012,0.293136,0.201272,6.26494,0.0639247,
2,1,0,1,0,8947.11,0.06572,0.0654231,0.806769,5,0.00389311,10,5.27813e-05,-3.09325,0.329197,0.179224,5.61651,0.0654231,
2,1,0,1,0,8947.26,0.0672182,0.0669013,0.813173,5,0.00401739,10,5.44023e-05,-3.08982,0.367038,0.160746,5.09286,0.0669013,
2,1,0,1,0,8947.41,0.0687164,0.0684516,0.822225,5,0.00414273,10,5.62826e-05,-3.08501,0.385164,0.153182,4.90856,0.0684516,
2,1,0,1,0,8947.56,0.0702146,0.0699065,0.827437,5,0.00426895,10,5.78432e-05,-3.08227,0.410331,0.143786,4.64861,0.0699065,
2,1,0,1,0,8947.71,0.0717128,0.0713857,0.837198,5,0.00439669,10,5.9764e-05,-3.07717,0.374368,0.157599,5.13761,0.0713857,
2,1,0,1,0,8947.86,0.073211,0.0729095,0.844451,5,0.00452552,10,6.15685e-05,-3.07343,0.421313,0.140038,4.61698,0.0729095,
2,1,0,1,0,8948.01,0.0747092,0.0743824,0.851078,5,0.00465542,10,6.33053e-05,-3.07003,0.448991,0.131406,4.36102,0.0743824,
2,1,0,1,0,8948.16,0.0762078,0.0758622,0.85546,5,0.00478634,10,6.4897e-05,-3.0678,0.398763,0.147957,4.95103,0.0758622,
2,1,0,1,0,8948.31,0.0777053,0.0773906,0.864885,5,0.00491822,10,6.69339e-05,-3.06304,0.324875,0.181608,6.14853,0.0773906,
2,1,0,1,0,8948.46,0.0792029,0.0788723,0.875014,5,0.00505137,10,6.90144e-05,-3.05798,0.390482,0.151096,5.14098,0.0788723,
2,1,0,1,0,8948.61,0.0807019,0.0803504,0.881491,5,0.00518604,10,7.08281e-05,-3.05478,0.461067,0.127964,4.3892,0.0803504,
2,1,0,1,0,8948.76,0.0822001,0.0818753,0.884683,5,0.0053214,10,7.24336e-05,-3.05321,0.427595,0.137981,4.78118,0.0818753,
2,1,0,1,0,8948.91,0.0836983,0.0833365,0.893808,5,0.00545765,10,7.44868e-05,-3.04876,0.418245,0.141066,4.93068,0.08333651,
2,1,0,1,0,8949.05,0.0851965,0.0848052,0.902418,5,0.00559534,10,7.65297e-05,-3.04459,0.350762,0.168205,5.9372,0.0848052,
2,1,0,1,0,8949.2,0.0866947,0.0863968,0.913519,5,0.00573428,10,7.89252e-05,-3.03928,0.385245,0.153149,5.45646,0.0863968,
2,1,0,1,0,8949.35,0.0881929,0.0878804,0.920889,5,0.00587457,10,8.09281e-05,-3.03579,0.337361,0.174887,6.29802,0.0878804,
2,1,0,1,0,8949.5,0.0896911,0.0894042,0.932191,5,0.00601607,10,8.33417e-05,-3.0305,0.299247,0.197162,7.17538,0.0894042,
2,1,0,1,0,8949.65,0.0911902,0.0908395,0.945158,5,0.00615942,10,8.58577e-05,-3.0245,0.245042,0.240775,8.85474,0.0908395,
2,1,0,1,0,8949.8,0.0926875,0.0923859,0.957169,5,0.00630485,10,8.8429e-05,-3.01901,0.234609,0.251482,9.37561,0.0923859,
2,1,0,1,0,8949.95,0.094185,0.0938794,0.968484,5,0.00645196,10,9.09207e-05,-3.01391,0.258084,0.228608,8.66084,0.0938794,
2,1,0,1,0,8950.1,0.0956838,0.0953944,0.98118,5,0.00660093,10,9.35991e-05,-3.00825,0.217272,0.271548,10.4308,0.0953944,
2,1,0,1,0,8950.25,0.097182,0.0968567,0.995835,5,0.00675223,10,9.64533e-05,-3.00181,0.180753,0.326411,12.6841,0.0968567,
2,1,0,1,0,8950.4,0.0986802,0.098354,1.01873,5,0.00690615,10,0.000100196,-2.99194,0.191712,0.307754,12.2169,0.098354,
2,1,0,1,0,8950.55,0.100178,0.0998937,1.03307,5,0.00706269,10,0.000103197,-2.98587,0.206323,0.285959,11.5221,0.0998937,
2,1,0,1,0,8950.7,0.101677,0.101362,1.04806,5,0.00722179,10,0.000106234,-2.97961,0.201347,0.293026,12.0382,0.101362,
2,1,0,1,0,8950.85,0.103175,0.102901,1.06982,5,0.00738349,10,0.000110085,-2.97069,0.198795,0.296788,12.4016,0.102901,
2,1,0,1,0,8951,0.104673,0.104377,1.09503,5,0.0075483,10,0.000114296,-2.96057,0.206079,0.286298,12.1797,0.1043771,
2,1,0,1,0,8951.15,0.106171,0.105907,1.11018,5,0.00771628,10,0.000117576,-2.95461,0.220041,0.268131,11.569,0.105907,
2,1,0,1,0,8951.3,0.10767,0.107347,1.12823,5,0.00788694,10,0.000121112,-2.9476,0.224922,0.262313,11.5435,0.107347,
2,1,0,1,0,8951.45,0.109167,0.108846,1.14562,5,0.00805996,10,0.000124697,-2.94096,0.216904,0.272009,12.1616,0.108846,
2,1,0,1,0,8951.6,0.110665,0.110371,1.16314,5,0.00823596,10,0.000128377,-2.93437,0.223659,0.263794,11.9673,0.110371,
2,1,0,1,0,8951.75,0.112164,0.11186,1.17937,5,0.00841474,10,0.000131925,-2.92835,0.296421,0.199041,9.14452,0.11186,
2,1,0,1,0,8951.9,0.113662,0.11338,1.19608,5,0.00859564,10,0.000135611,-2.92224,0.316149,0.186621,8.69631,0.11338,
2,1,0,1,0,8952.05,0.11516,0.114848,1.20675,5,0.00877818,10,0.000138592,-2.91838,0.322782,0.182786,8.60323,0.114848,
2,1,0,1,0,8952.2,0.116658,0.116338,1.22391,5,0.00896322,10,0.000142388,-2.91225,0.287864,0.204958,9.75532,0.116338,
2,1,0,1,0,8952.35,0.118157,0.117817,1.23823,5,0.00915056,10,0.000145884,-2.9072,0.34423,0.171397,8.25164,0.117817,
2,1,0,1,0,8952.5,0.119655,0.119326,1.24803,5,0.00933958,10,0.000148922,-2.90378,0.404281,0.145938,7.1142,0.119326,
2,1,0,1,0,8952.65,0.121153,0.120827,1.25368,5,0.00953,10,0.000151478,-2.90181,0.349872,0.168633,8.29017,0.120827,
2,1,0,1,0,8952.8,0.122652,0.122344,1.2696,5,0.00972246,10,0.000155327,-2.89633,0.304985,0.193452,9.59045,0.122344,
2,1,0,1,0,8952.95,0.124149,0.123858,1.2867,5,0.00991689,10,0.000159368,-2.89052,0.340255,0.173399,8.69288,0.123858,
2,1,0,1,0,8953.1,0.125647,0.125327,1.29781,5,0.0101133,10,0.000162651,-2.88679,0.355821,0.165814,8.38709,0.125327,
2,1,0,1,0,8953.25,0.127146,0.126772,1.30574,5,0.0103116,10,0.000165531,-2.88414,0.359467,0.164132,8.37625,0.126772,
2,1,0,1,0,8953.4,0.128644,0.128302,1.32234,5,0.0105114,10,0.000169659,-2.87866,0.390877,0.150943,7.78513,0.128302,
2,1,0,1,0,8953.55,0.130142,0.129851,1.33197,5,0.0107131,10,0.000172957,-2.87551,0.441296,0.133697,6.93958,0.129851,
2,1,0,1,0,8953.7,0.13164,0.131311,1.34162,5,0.0109166,10,0.000176171,-2.87237,0.892348,0.0661177,3.4473,0.131311,
2,1,0,1,0,8953.85,0.133139,0.132816,1.3445,5,0.0111211,10,0.000178572,-2.87144,1.76079,0.0335077,1.75621,0.132816,
2,1,0,1,0,8954,0.134637,0.134366,1.34702,5,0.0113256,10,0.000180995,-2.87062,-3.21799,-0.0183344,-0.962107,0.134366,
2,1,0,1,0,8954.15,0.136135,0.135812,1.34467,5,0.0115303,10,0.000182622,-2.87138,-0.917583,-0.0642993,-3.35889,0.135812,
2,1,0,1,0,8954.3,0.137633,0.137308,1.33654,5,0.0117341,10,0.000183517,-2.87402,-0.373902,-0.157795,-8.17419,0.137308,
2,1,0,1,0,8954.45,0.139132,0.138811,1.32099,5,0.0119361,10,0.000183368,-2.8791,-0.23359,-0.25258,-12.9327,0.138811,
2,1,0,1,0,8954.6,0.140629,0.140308,1.29483,5,0.0121347,10,0.000181675,-2.88779,-0.174334,-0.33843,-17.0271,0.140308,
2,1,0,1,0,8954.75,0.142127,0.141773,1.26576,5,0.0123296,10,0.000179451,-2.89765,-0.141538,-0.416849,-20.4808,0.141773,
2,1,0,1,0,8954.9,0.143626,0.143315,1.23159,5,0.0125199,10,0.000176505,-2.90954,-0.108501,-0.543774,-26.0125,0.143315,
2,1,0,1,0,8955.05,0.145124,0.144802,1.18784,5,0.0127042,10,0.000172002,-2.92524,-0.0879658,-0.670715,-31.0612,0.144802,
2,1,0,1,0,8955.2,0.146622,0.146315,1.13637,5,0.0128815,10,0.000166269,-2.94448,-0.0846712,-0.696813,-30.9889,0.146315,
2,1,0,1,0,8955.35,0.14812,0.147842,1.09343,5,0.0130518,10,0.000161655,-2.96121,-0.0819703,-0.719773,-30.6525,0.147842,
2,1,0,1,0,8955.5,0.149619,0.149309,1.04725,5,0.013215,10,0.000156363,-2.97995,-0.0759929,-0.776389,-31.6636,0.149309,
2,1,0,1,0,8955.65,0.151117,0.150825,0.997575,5,0.0133711,10,0.000150459,-3.00105,-0.071123,-0.829548,-32.2746,0.150825,
2,1,0,1,0,8955.8,0.152615,0.152294,0.950533,5,0.01352,10,0.00014476,-3.02203,-0.0736484,-0.801104,-29.8704,0.1522937,
2,1,0,1,0,8955.95,0.154114,0.153796,0.910496,5,0.0136622,10,0.000140031,-3.04072,-0.0782904,-0.753605,-26.8525,0.153796,
2,1,0,1,0,8956.1,0.155612,0.155306,0.871536,5,0.0137984,10,0.000135355,-3.05971,-0.0810512,-0.727935,-24.8026,0.155306,
2,1,0,1,0,8956.25,0.157109,0.156845,0.835261,5,0.0139292,10,0.000131007,-3.07818,-0.0834851,-0.706713,-23.0879,0.156845,
2,1,0,1,0,8956.4,0.158608,0.158315,0.801734,5,0.0140548,10,0.000126926,-3.09597,-0.0907439,-0.650181,-20.4669,0.158315,
2,1,0,1,0,8956.55,0.160106,0.159771,0.776095,5,0.0141758,10,0.000123997,-3.11009,-0.102117,-0.577768,-17.5528,0.159771,
2,1,0,1,0,8956.7,0.161604,0.161248,0.749817,5,0.0142929,10,0.000120906,-3.12504,-0.111392,-0.529661,-15.5173,0.161248,
2,1,0,1,0,8956.85,0.163102,0.162811,0.728787,5,0.0144066,10,0.000118654,-3.1374,-0.118662,-0.497209,-14.153,0.162811,
2,1,0,1,0,8957,0.164601,0.164298,0.708293,5,0.0145171,10,0.000116371,-3.14979,-0.134065,-0.440086,-12.1787,0.164298,
2,1,0,1,0,8957.15,0.166099,0.165753,0.690381,5,0.0146246,10,0.000114433,-3.16091,-0.138698,-0.425384,-11.4985,0.165753,
2,1,0,1,0,8957.29,0.167597,0.167287,0.674398,5,0.0147298,10,0.000112818,-3.17108,-0.166938,-0.353424,-9.31046,0.167287,
2,1,0,1,0,8957.44,0.169095,0.168808,0.663863,5,0.014833,10,0.000112066,-3.17792,-0.172416,-0.342196,-8.86348,0.168808,
2,1,0,1,0,8957.59,0.170594,0.170317,0.648813,5,0.0149342,10,0.000110504,-3.18788,-0.177159,-0.333033,-8.45722,0.170317,
2,1,0,1,0,8957.74,0.172091,0.171753,0.636204,5,0.0150334,10,0.00010927,-3.1964,-0.208863,-0.282481,-7.06039,0.1717532,
2,1,0,1,0,8957.89,0.173589,0.173242,0.625733,5,0.015131,10,0.000108403,-3.20361,-0.261236,-0.22585,-5.52985,0.173242,
2,1,0,1,0,8958.04,0.175088,0.174797,0.620276,5,0.0152274,10,0.000108422,-3.20742,-0.255766,-0.230679,-5.58097,0.174797,
2,1,0,1,0,8958.19,0.176586,0.176244,0.61171,5,0.0153225,10,0.00010781,-3.21345,-0.266759,-0.221173,-5.25856,0.176244,
2,1,0,1,0,8958.34,0.178084,0.177764,0.60232,5,0.0154164,10,0.000107071,-3.22017,-0.319748,-0.184521,-4.35463,0.1777636,
2,1,0,1,0,8958.49,0.179582,0.179249,0.594811,5,0.0155091,10,0.000106619,-3.22562,-0.335178,-0.176026,-4.11329,0.179249,
2,1,0,1,0,8958.64,0.181081,0.18078,0.590945,5,0.015601,10,0.000106831,-3.22845,-0.355002,-0.166196,-3.84211,0.18078,
2,1,0,1,0,8958.79,0.182579,0.182259,0.585621,5,0.0156922,10,0.000106735,-3.23238,-0.291159,-0.202638,-4.63409,0.182259,
2,1,0,1,0,8958.94,0.184077,0.183787,0.581558,5,0.0157824,10,0.000106883,-3.23541,-0.380672,-0.154989,-3.52402,0.183787,
2,1,0,1,0,8959.09,0.185576,0.185276,0.578327,5,0.0158719,10,0.00010715,-3.23783,-0.512542,-0.115112,-2.58812,0.185276,
2,1,0,1,0,8959.24,0.187074,0.186777,0.574054,5,0.0159608,10,0.00010722,-3.24105,-0.521493,-0.113137,-2.53006,0.186777,
2,1,0,1,0,8959.39,0.188571,0.188241,0.568791,5,0.0160491,10,0.00010707,-3.24505,-0.651706,-0.0905316,-2.00951,0.188241,
2,1,0,1,0,8959.54,0.19007,0.189767,0.566528,5,0.0161369,10,0.000107509,-3.24678,-0.630706,-0.0935459,-2.06606,0.189767,
2,1,0,1,0,8959.69,0.191568,0.191252,0.562265,5,0.016224,10,0.000107534,-3.25006,-0.811481,-0.0727065,-1.59498,0.191252,
2,1,0,1,0,8959.84,0.193066,0.192729,0.557774,5,0.0163108,10,0.000107499,-3.25354,-0.994337,-0.059336,-1.2912,0.192729,
2,1,0,1,0,8959.99,0.194564,0.194294,0.55616,5,0.0163973,10,0.000108059,-3.2548,-0.625768,-0.0942842,-2.04612,0.194294,
2,1,0,1,0,8960.14,0.196063,0.195758,0.552656,5,0.0164832,10,0.000108187,-3.25754,-0.612684,-0.0962976,-2.08155,0.195758,
2,1,0,1,0,8960.29,0.197561,0.19725,0.547807,5,0.0165686,10,0.000108055,-3.26137,-0.65232,-0.0904464,-1.94449,0.19725,
2,1,0,1,0,8960.44,0.199059,0.198699,0.549638,5,0.0166536,10,0.000109213,-3.25992,-0.798007,-0.0739342,-1.58092,0.198699,
2,1,0,1,0,8960.59,0.200557,0.200278,0.545832,5,0.0167384,10,0.000109318,-3.26294,-1.29289,-0.0456343,-0.972469,0.200278,
2,1,0,1,0,8960.74,0.202056,0.201731,0.544148,5,0.0168229,10,0.000109772,-3.26428,-0.888072,-0.0664361,-1.40741,0.201731,
2,1,0,1,0,8960.89,0.203553,0.203277,0.540154,5,0.016907,10,0.000109801,-3.26748,-0.885087,-0.0666601,-1.4093,0.203277,
2,1,0,1,0,8961.04,0.205051,0.204735,0.538312,5,0.0169906,10,0.000110212,-3.26897,4.85664,0.0121483,0.257285,0.204735,
2,1,0,1,0,8961.19,0.20655,0.206227,0.537183,5,0.0170742,10,0.000110782,-3.26988,-1.07615,-0.0548252,-1.15053,0.206227,
2,1,0,1,0,8961.34,0.208048,0.207741,0.535048,5,0.0171577,10,0.000111152,-3.27161,-0.64747,-0.091124,-1.9001,0.207741,
2,1,0,1,0,8961.49,0.209546,0.20925,0.533985,5,0.0172407,10,0.000111736,-3.27247,-0.740254,-0.0797024,-1.66257,0.20925,
2,1,0,1,0,8961.64,0.211044,0.210722,0.534385,5,0.0173232,10,0.000112607,-3.27215,-1.03031,-0.0572645,-1.18704,0.2107221,
2,1,0,1,0,8961.79,0.212543,0.212242,0.532398,5,0.0174057,10,0.000112997,-3.27376,-1.02648,-0.057478,-1.18836,0.212242,
2,1,0,1,0,8961.94,0.214041,0.213756,0.530401,5,0.0174879,10,0.000113376,-3.2754,-1.54643,-0.0381524,-0.788991,0.213756,
2,1,0,1,0,8962.09,0.215539,0.215256,0.52647,5,0.0175699,10,0.000113326,-3.27863,-0.883672,-0.0667669,-1.37783,0.215256,
2,1,0,1,0,8962.24,0.217038,0.216729,0.525651,5,0.0176514,10,0.000113924,-3.2793,-1.36638,-0.0431797,-0.887599,0.216729,
2,1,0,1,0,8962.39,0.218535,0.218203,0.524049,5,0.017733,10,0.000114349,-3.28063,23.6395,0.00249582,0.0509888,0.218203,
2,1,0,1,0,8962.54,0.220033,0.219737,0.524903,5,0.0178143,10,0.000115341,-3.27992,-3.8927,-0.0151566,-0.309404,0.219737,
2,1,0,1,0,8962.69,0.221532,0.221276,0.522477,5,0.0178955,10,0.000115612,-3.28193,-1.55273,-0.0379975,-0.775637,0.221276,
2,1,0,1,0,8962.84,0.22303,0.222707,0.516311,5,0.0179764,10,0.000114986,-3.28709,-1.20776,-0.0488506,-0.993074,0.222707,
2,1,0,1,0,8962.99,0.224528,0.224182,0.518808,5,0.018057,10,0.000116307,-3.28499,-1.08319,-0.0544686,-1.10269,0.224182,
2,1,0,1,0,8963.14,0.226026,0.225735,0.517068,5,0.0181376,10,0.000116721,-3.28645,-1.13273,-0.0520866,-1.05057,0.225735,
2,1,0,1,0,8963.29,0.227525,0.227235,0.516279,5,0.0182179,10,0.000117317,-3.28712,-0.670933,-0.0879372,-1.76901,0.227235,
2,1,0,1,0,8963.44,0.229023,0.228724,0.512954,5,0.018298,10,0.000117325,-3.28992,-0.711899,-0.0828769,-1.66957,0.228724,
2,1,0,1,0,8963.59,0.230521,0.230191,0.514562,5,0.0183779,10,0.000118448,-3.28856,-1.84477,-0.0319823,-0.643754,0.230191,
2,1,0,1,0,8963.74,0.232019,0.231717,0.511512,5,0.0184575,10,0.000118526,-3.29114,-1.61532,-0.0365253,-0.731474,0.231717,
2,1,0,1,0,8963.89,0.233518,0.233204,0.513136,5,0.0185373,10,0.000119666,-3.28977,-1.00936,-0.058453,-1.16337,0.233204,
2,1,0,1,0,8964.04,0.235015,0.234714,0.509914,5,0.0186167,10,0.000119684,-3.2925,-5.41732,-0.010891,-0.216986,0.234714,
2,1,0,1,0,8964.19,0.236513,0.23623,0.508652,5,0.0186957,10,0.000120159,-3.29358,4.94663,0.0119273,0.236915,0.23623,
2,1,0,1,0,8964.34,0.238012,0.23775,0.507048,5,0.0187748,10,0.00012055,-3.29495,-5.38319,-0.01096,-0.216658,0.23775,
2,1,0,1,0,8964.49,0.23951,0.23924,0.507781,5,0.0188538,10,0.000121481,-3.29432,-1.80146,-0.0327512,-0.648957,0.23924,
2,1,0,1,0,8964.64,0.241008,0.240693,0.504925,5,0.0189326,10,0.000121532,-3.29677,-1.43308,-0.04117,-0.812462,0.240693,
2,1,0,1,0,8964.79,0.242506,0.242204,0.504483,5,0.0190111,10,0.000122188,-3.29715,-1.06387,-0.055458,-1.09571,0.242204,
2,1,0,1,0,8964.94,0.244005,0.243709,0.501736,5,0.0190895,10,0.000122278,-3.29953,-5.75419,-0.0102534,-0.201375,0.243709,
2,1,0,1,0,8965.09,0.245503,0.245193,0.506359,5,0.0191679,10,0.000124155,-3.29554,-1.66015,-0.0355389,-0.69903,0.245193,
2,1,0,1,0,8965.24,0.247001,0.246704,0.502566,5,0.0192461,10,0.000123985,-3.29881,-1.56751,-0.0376394,-0.736649,0.246704,
2,1,0,1,0,8965.39,0.2485,0.248211,0.500243,5,0.0193241,10,0.000124166,-3.30082,-0.926401,-0.0636873,-1.24641,0.248211,
2,1,0,1,0,8965.54,0.249997,0.249703,0.502213,5,0.0194019,10,0.000125404,-3.29911,-1.2075,-0.0488615,-0.954371,0.249703,
2,1,0,1,0,8965.68,0.251495,0.251204,0.499079,5,0.0194796,10,0.000125371,-3.30183,-7.24575,-0.00814271,-0.158689,0.251204,
2,1,0,1,0,8965.83,0.252994,0.252688,0.497657,5,0.0195572,10,0.000125752,-3.30307,-0.869232,-0.067876,-1.31679,0.252688,
2,1,0,1,0,8965.98,0.254492,0.254206,0.497057,5,0.0196346,10,0.000126355,-3.30359,-3.35971,-0.017561,-0.341022,0.254206,
2,1,0,1,0,8966.13,0.25599,0.255658,0.495802,5,0.0197118,10,0.000126756,-3.30469,-5.39869,-0.0109286,-0.212248,0.255658,
2,1,0,1,0,8966.28,0.257488,0.257223,0.497425,5,0.019789,10,0.000127949,-3.30327,-2.13163,-0.0276784,-0.535736,0.257223,
2,1,0,1,0,8966.43,0.258987,0.258711,0.494825,5,0.0198662,10,0.000128016,-3.30555,-1.18838,-0.0496473,-0.956387,0.258711,
2,1,0,1,0,8966.58,0.260485,0.260219,0.495776,5,0.0199431,10,0.00012901,-3.30471,-0.942838,-0.062577,-1.20755,0.260219,
2,1,0,1,0,8966.73,0.261983,0.261672,0.492622,5,0.0200197,10,0.000128906,-3.30749,-2.05332,-0.0287339,-0.552561,0.261672,
2,1,0,1,0,8966.88,0.263481,0.263194,0.491769,5,0.0200963,10,0.000129431,-3.30824,2.66425,0.022145,0.424875,0.263194,
2,1,0,1,0,8967.03,0.26498,0.264693,0.492197,5,0.0201728,10,0.000130281,-3.30786,-6.1367,-0.00961429,-0.184242,0.264693,
2,1,0,1,0,8967.18,0.266477,0.266173,0.488825,5,0.0202492,10,0.000130112,-3.31085,-1.57618,-0.0374323,-0.716056,0.2661728,
2,1,0,1,0,8967.33,0.267976,0.267721,0.487937,5,0.0203254,10,0.000130631,-3.31164,-2.99624,-0.0196913,-0.376145,0.267721,
2,1,0,1,0,8967.48,0.269474,0.269198,0.486518,5,0.0204014,10,0.00013097,-3.3129,7.93082,0.00743934,0.141603,0.269198,
2,1,0,1,0,8967.63,0.270972,0.270692,0.491739,5,0.0204774,10,0.00013311,-3.30827,-2.1671,-0.0272254,-0.517919,0.270692,
2,1,0,1,0,8967.78,0.27247,0.272175,0.487045,5,0.0205532,10,0.000132561,-3.31243,-2.2914,-0.0257485,-0.488317,0.272175,
2,1,0,1,0,8967.93,0.273968,0.273663,0.482984,5,0.0206289,10,0.000132175,-3.31607,-1.45795,-0.0404679,-0.765982,0.273663,
2,1,0,1,0,8968.08,0.275467,0.275195,0.485228,5,0.0207043,10,0.000133532,-3.31405,-2.45294,-0.0240528,-0.455485,0.275195,
2,1,0,1,0,8968.23,0.276965,0.27666,0.483538,5,0.0207797,10,0.000133776,-3.31557,-1.38601,-0.0425683,-0.804351,0.27666,
2,1,0,1,0,8968.38,0.278463,0.278167,0.482295,5,0.020855,10,0.000134159,-3.31669,-0.897387,-0.0657465,-1.236,0.278167,
2,1,0,1,0,8968.53,0.279962,0.279677,0.482672,5,0.0209302,10,0.000134992,-3.31635,-1.14169,-0.0516778,-0.972879,0.279677,
2,1,0,1,0,8968.68,0.281459,0.281132,0.482998,5,0.0210049,10,0.000135786,-3.31605,-1.14642,-0.0514646,-0.96711,0.281132,
2,1,0,1,0,8968.83,0.282957,0.28269,0.481029,5,0.0210797,10,0.000135982,-3.31783,-5.78814,-0.0101933,-0.190371,0.28269,
2,1,0,1,0,8968.98,0.284456,0.284176,0.480711,5,0.0211545,10,0.000136607,-3.31812,-3.82217,-0.0154363,-0.288339,0.284176,
2,1,0,1,0,8969.13,0.285954,0.285673,0.479383,5,0.0212291,10,0.000136947,-3.31932,-1.39977,-0.0421498,-0.786746,0.285673,
2,1,0,1,0,8969.28,0.287452,0.287142,0.476559,5,0.0213034,10,0.00013684,-3.32188,-0.90972,-0.0648551,-1.20735,0.287142,
2,1,0,1,0,8969.43,0.28895,0.288628,0.474996,5,0.0213776,10,0.000137097,-3.32331,7.85194,0.00751407,0.139429,0.288628,
2,1,0,1,0,8969.58,0.290449,0.290114,0.474725,5,0.0214517,10,0.000137724,-3.32356,-5.45485,-0.0108161,-0.200655,0.290114,
2,1,0,1,0,8969.73,0.291947,0.291655,0.475446,5,0.0215257,10,0.000138667,-3.3229,-1.82245,-0.032374,-0.600641,0.291655,
2,1,0,1,0,8969.88,0.293445,0.293158,0.470741,5,0.0215994,10,0.000138001,-3.32722,-1.35894,-0.0434163,-0.803701,0.293158,
2,1,0,1,0,8970.03,0.294943,0.294644,0.473204,5,0.0216731,10,0.000139427,-3.32495,-2.11899,-0.0278434,-0.512831,0.294644,
2,1,0,1,0,8970.18,0.296442,0.296127,0.473762,5,0.0217468,10,0.000140293,-3.32444,-2.19187,-0.0269176,-0.494243,0.296127,
2,1,0,1,0,8970.33,0.297939,0.297688,0.472108,5,0.0218203,10,0.000140541,-3.32596,-2.09191,-0.0282038,-0.518937,0.297688,
2,1,0,1,0,8970.48,0.299437,0.299161,0.467367,5,0.0218936,10,0.000139818,-3.33034,-0.00158059,-37.3279,-246.607,0.299161,
2,1,0,1,0,8970.56,0.299738,0.299431,0.171558,5,0.021927,10,5.13699e-05,-3.76559,0.00102105,57.7834,420.78,0.299431,
2,1,0,1,0,8970.71,0.29824,0.297948,-0.0160836,5,0.0219295,10,-4.79206e-06,-4.79362,0.00417139,14.144,140.635,0.297948,
2,0,0,1,0,8970.86,0.296741,0.296423,-0.0481905,5,0.0219215,10,-1.42848e-05,-4.31704,-0.00245221,-24.0599,19.3634,0.296423,
2,0,0,1,0,8971.01,0.295243,0.29496,-0.0697332,5,0.0219096,10,-2.05685e-05,-4.15656,-0.0111069,-5.31201,12.5643,0.29496,
2,0,0,1,0,8971.16,0.293745,0.293442,-0.0874331,5,0.021895,10,-2.56566e-05,-4.05832,-0.0182854,-3.22661,10.2165,0.293442,
2,0,0,1,0,8971.31,0.292246,0.291934,-0.0996797,5,0.0218784,10,-2.90999e-05,-4.00139,-0.0259636,-2.27241,8.54332,0.291934,
2,0,0,1,0,8971.46,0.290748,0.290446,-0.11245,5,0.0218597,10,-3.26607e-05,-3.94904,-0.0318784,-1.85078,7.87895,0.290446,
2,0,0,1,0,8971.61,0.28925,0.288904,-0.122491,5,0.0218394,10,-3.53882e-05,-3.91189,-0.0398622,-1.4801,7.00235,0.288904,
2,0,0,1,0,8971.76,0.287752,0.287457,-0.130683,5,0.0218176,10,-3.75659e-05,-3.88378,-0.0519599,-1.13549,5.73992,0.287457,
2,0,0,1,0,8971.91,0.286253,0.285971,-0.136763,5,0.0217947,10,-3.91102e-05,-3.86403,-0.0563802,-1.04647,5.61117,0.285971,
2,0,0,1,0,8972.06,0.284755,0.284475,-0.148122,5,0.0217705,10,-4.2137e-05,-3.82938,-0.055689,-1.05946,6.01405,0.2844753,
2,0,0,1,0,8972.21,0.283258,0.283005,-0.153786,5,0.021745,10,-4.35221e-05,-3.81308,-0.0728485,-0.809901,4.83024,0.283005,
2,0,0,1,0,8972.36,0.281759,0.28146,-0.161042,5,0.0217186,10,-4.53268e-05,-3.79306,-0.0915999,-0.644106,4.02875,0.28146,
2,0,0,1,0,8972.51,0.280261,0.279966,-0.16545,5,0.0216912,10,-4.63203e-05,-3.78133,-0.0822072,-0.717699,4.61524,0.279966,
2,0,0,1,0,8972.66,0.278763,0.278448,-0.172564,5,0.0216629,10,-4.80502e-05,-3.76305,-0.101278,-0.582557,3.9108,0.2784481,
2,0,0,1,0,8972.81,0.277264,0.276984,-0.17868,5,0.0216337,10,-4.94915e-05,-3.74792,-0.121711,-0.484753,3.367,0.276984,
2,0,0,1,0,8972.96,0.275766,0.275484,-0.183418,5,0.0216035,10,-5.05288e-05,-3.73656,-0.190641,-0.309482,2.20833,0.275484,
2,0,0,1,0,8973.11,0.274268,0.273972,-0.189366,5,0.0215726,10,-5.1881e-05,-3.7227,-0.127752,-0.461833,3.41771,0.273972,
2,0,0,1,0,8973.26,0.27277,0.272463,-0.195126,5,0.0215411,10,-5.31646e-05,-3.70969,-0.133649,-0.441454,3.36656,0.2724632,
2,0,0,1,0,8973.41,0.271272,0.270988,-0.200909,5,0.0215087,10,-5.44439e-05,-3.697,-0.145646,-0.405092,3.13668,0.270988,
2,0,0,1,0,8973.56,0.269773,0.269447,-0.20636,5,0.0214753,10,-5.56029e-05,-3.68538,-0.134678,-0.438082,3.48982,0.269447,
2,0,0,1,0,8973.71,0.268275,0.267972,-0.210556,5,0.0214414,10,-5.64232e-05,-3.67663,-0.148667,-0.39686,3.2485,0.267972,
2,0,0,1,0,8973.86,0.266778,0.26647,-0.213233,5,0.021407,10,-5.682e-05,-3.67115,-0.149348,-0.395051,3.29719,0.26647,
2,0,0,1,0,8974.01,0.265279,0.264979,-0.216353,5,0.0213717,10,-5.7329e-05,-3.66484,-0.127276,-0.463561,3.93326,0.264979,
2,0,0,1,0,8974.16,0.263781,0.263468,-0.222884,5,0.0213358,10,-5.87228e-05,-3.65192,-0.172482,-0.342065,2.97596,0.263468,
2,0,0,1,0,8974.31,0.262283,0.26202,-0.225864,5,0.0212993,10,-5.9181e-05,-3.64615,-0.197142,-0.299276,2.65057,0.26202,
2,0,0,1,0,8974.46,0.260784,0.260495,-0.229071,5,0.0212623,10,-5.96719e-05,-3.64003,-0.178635,-0.330282,2.97682,0.260495,
2,0,0,1,0,8974.61,0.259286,0.258987,-0.233732,5,0.0212246,10,-6.05335e-05,-3.63128,-0.184287,-0.320152,2.92305,0.2589865,
2,0,0,1,0,8974.76,0.257788,0.257465,-0.242033,5,0.0211862,10,-6.2315e-05,-3.61613,-0.267572,-0.220501,2.04859,0.2574648,
2,0,0,1,0,8974.91,0.25629,0.256007,-0.241527,5,0.0211473,10,-6.18324e-05,-3.61704,-0.292223,-0.2019,1.90345,0.256007,
2,0,0,1,0,8975.06,0.254791,0.254485,-0.245553,5,0.0211079,10,-6.24897e-05,-3.60985,-0.221431,-0.266448,2.56689,0.254485,
2,0,0,1,0,8975.21,0.253293,0.253031,-0.247214,5,0.0210681,10,-6.25529e-05,-3.60693,-0.267844,-0.220277,2.14399,0.253031,
2,0,0,1,0,8975.36,0.251796,0.251491,-0.254172,5,0.0210276,10,-6.3922e-05,-3.59487,-0.230332,-0.256152,2.53162,0.251491,
2,0,0,1,0,8975.51,0.250297,0.250026,-0.254589,5,0.0209866,10,-6.36538e-05,-3.59416,-0.368143,-0.160264,1.60065,0.250026,
2,0,0,1,0,8975.66,0.248799,0.248455,-0.26008,5,0.0209451,10,-6.46182e-05,-3.58489,-0.262115,-0.225092,2.28438,0.248455,
2,0,0,1,0,8975.81,0.247301,0.246983,-0.26195,5,0.0209032,10,-6.46972e-05,-3.58178,-0.261972,-0.225215,2.31064,0.246983,
2,0,0,1,0,8975.96,0.245802,0.245496,-0.268187,5,0.0208608,10,-6.58388e-05,-3.57156,-0.288315,-0.204637,2.12543,0.245496,
2,0,0,1,0,8976.11,0.244304,0.244028,-0.269427,5,0.0208176,10,-6.57477e-05,-3.56956,-0.314608,-0.187535,1.96741,0.244028,
2,0,0,1,0,8976.26,0.242806,0.242489,-0.274721,5,0.020774,10,-6.66167e-05,-3.56111,-0.455607,-0.129498,1.38529,0.2424887,
2,0,0,1,0,8976.41,0.241308,0.240989,-0.274898,5,0.0207302,10,-6.62474e-05,-3.56083,-0.325911,-0.181031,1.94948,0.240989,
2,0,0,1,0,8976.56,0.23981,0.239511,-0.278313,5,0.0206858,10,-6.66591e-05,-3.55547,-0.2385,-0.247379,2.69342,0.239511,
2,0,0,1,0,8976.71,0.238311,0.238016,-0.280857,5,0.0206409,10,-6.68487e-05,-3.55151,-0.280667,-0.210213,2.31715,0.238016,
2,0,0,1,0,8976.86,0.236814,0.236515,-0.283845,5,0.0205955,10,-6.71337e-05,-3.54692,-0.398751,-0.147962,1.65238,0.236515,
2,0,0,1,0,8977.01,0.235316,0.235011,-0.286112,5,0.0205498,10,-6.72395e-05,-3.54346,-0.291381,-0.202484,2.28,0.235011,
2,0,0,1,0,8977.16,0.233817,0.233526,-0.291252,5,0.0205035,10,-6.80149e-05,-3.53573,-0.264982,-0.222657,2.52468,0.233526,
2,0,0,1,0,8977.31,0.232319,0.23198,-0.294782,5,0.0204567,10,-6.83837e-05,-3.5305,-0.289544,-0.203768,2.34202,0.23198,
2,0,0,1,0,8977.46,0.230821,0.230536,-0.296261,5,0.0204094,10,-6.82987e-05,-3.52833,-0.471096,-0.12524,1.44582,0.230536,
2,0,0,1,0,8977.61,0.229322,0.229033,-0.297188,5,0.0203617,10,-6.8066e-05,-3.52697,-0.289294,-0.203945,2.389,0.229033,
2,0,0,1,0,8977.76,0.227824,0.227495,-0.30404,5,0.0203137,10,-6.91675e-05,-3.51707,-0.313077,-0.188452,2.24065,0.227495,
2,0,0,1,0,8977.91,0.226326,0.226028,-0.305757,5,0.020265,10,-6.91096e-05,-3.51462,-0.591921,-0.0996755,1.19276,0.226028,
2,0,0,1,0,8978.06,0.224828,0.224549,-0.309971,5,0.0202159,10,-6.96035e-05,-3.50868,-0.620406,-0.095099,1.14608,0.224549,
2,0,0,1,0,8978.21,0.223329,0.223036,-0.314414,5,0.0201663,10,-7.01256e-05,-3.5025,-0.467258,-0.126269,1.54175,0.223036,
2,0,0,1,0,8978.36,0.221831,0.22151,-0.317432,5,0.0201165,10,-7.03145e-05,-3.49835,-0.313058,-0.188464,2.32608,0.22151,
2,0,0,1,0,8978.5,0.220334,0.220045,-0.318836,5,0.020066,10,-7.01584e-05,-3.49643,-0.300687,-0.196218,2.43527,0.220045,
2,0,0,1,0,8978.65,0.218835,0.218528,-0.324013,5,0.0200149,10,-7.08059e-05,-3.48944,-0.329569,-0.179022,2.25617,0.218528,
2,0,0,1,0,8978.8,0.217337,0.217008,-0.325026,5,0.0199634,10,-7.05334e-05,-3.48808,-0.457254,-0.129031,1.63833,0.217008,
2,0,0,1,0,8978.95,0.215839,0.215544,-0.327226,5,0.0199117,10,-7.05315e-05,-3.48515,-0.362865,-0.162595,2.09152,0.215544,
2,0,0,1,0,8979.1,0.21434,0.214019,-0.330718,5,0.0198594,10,-7.078e-05,-3.48054,-0.248099,-0.237808,3.06207,0.214019,
2,0,0,1,0,8979.25,0.212842,0.212534,-0.333984,5,0.0198065,10,-7.0983e-05,-3.47627,-0.295276,-0.199813,2.60533,0.212534,
2,0,0,1,0,8979.4,0.211344,0.211024,-0.337453,5,0.0197531,10,-7.12107e-05,-3.47179,-0.425258,-0.138739,1.83089,0.211024,
2,0,0,1,0,8979.55,0.209846,0.209551,-0.337885,5,0.0196994,10,-7.08044e-05,-3.47123,-0.416788,-0.141559,1.88493,0.209551,
2,0,0,1,0,8979.7,0.208348,0.208046,-0.345453,5,0.0196451,10,-7.187e-05,-3.46161,-0.435822,-0.135376,1.82759,0.208046,
2,0,0,1,0,8979.85,0.206849,0.206536,-0.353524,5,0.0195902,10,-7.30155e-05,-3.45158,-0.316159,-0.186615,2.5273,0.206536,
2,0,0,1,0,8980,0.205352,0.205066,-0.352709,5,0.0195345,10,-7.23286e-05,-3.45258,-0.464717,-0.126959,1.73518,0.205066,
2,0,0,1,0,8980.15,0.203854,0.203514,-0.355192,5,0.0194786,10,-7.22866e-05,-3.44954,-0.579095,-0.101883,1.41887,0.203514,
2,0,0,1,0,8980.3,0.202355,0.202033,-0.357976,5,0.0194222,10,-7.23231e-05,-3.44615,-0.373262,-0.158066,2.2287,0.202033,
2,0,0,1,0,8980.45,0.200857,0.200501,-0.360465,5,0.0193653,10,-7.22734e-05,-3.44314,-0.315175,-0.187198,2.64997,0.200501,
2,0,0,1,0,8980.6,0.199359,0.199033,-0.365135,5,0.0193078,10,-7.26739e-05,-3.43755,-0.48792,-0.120921,1.72452,0.199033,
2,0,0,1,0,8980.75,0.19786,0.197566,-0.370438,5,0.0192498,10,-7.31858e-05,-3.43128,-0.339767,-0.173649,2.50343,0.1975656,
2,0,0,1,0,8980.9,0.196362,0.196067,-0.373332,5,0.0191913,10,-7.31983e-05,-3.4279,-0.291253,-0.202573,2.94831,0.196067,
2,0,0,1,0,8981.05,0.194864,0.194562,-0.377134,5,0.0191321,10,-7.33757e-05,-3.4235,-0.323053,-0.182633,2.69066,0.194562,
2,0,0,1,0,8981.2,0.193366,0.193033,-0.384342,5,0.0190722,10,-7.41909e-05,-3.41528,-0.297943,-0.198024,2.96032,0.193033,
2,0,0,1,0,8981.35,0.191867,0.19153,-0.385863,5,0.0190118,10,-7.39043e-05,-3.41357,-0.415732,-0.141918,2.14546,0.19153,
2,0,0,1,0,8981.5,0.190369,0.190082,-0.391066,5,0.0189509,10,-7.43348e-05,-3.40775,-0.28156,-0.209547,3.20491,0.1900824,
2,0,0,1,0,8981.65,0.188872,0.188569,-0.393946,5,0.0188893,10,-7.42862e-05,-3.40456,-0.241675,-0.244129,3.74989,0.188569,
2,0,0,1,0,8981.8,0.187373,0.187098,-0.399333,5,0.0188269,10,-7.47146e-05,-3.39866,-0.272526,-0.216493,3.37282,0.187098,
2,0,0,1,0,8981.95,0.185875,0.185575,-0.403155,5,0.0187638,10,-7.48154e-05,-3.39453,-0.304721,-0.19362,3.04313,0.185575,
2,0,0,1,0,8982.1,0.184377,0.184058,-0.406948,5,0.0187001,10,-7.49021e-05,-3.39046,-0.280677,-0.210206,3.36822,0.184058,
2,0,0,1,0,8982.25,0.182878,0.182567,-0.413882,5,0.0186356,10,-7.55614e-05,-3.38312,-0.262082,-0.225121,3.62918,0.182567,
2,0,0,1,0,8982.4,0.18138,0.181085,-0.420649,5,0.0185702,10,-7.61732e-05,-3.37608,-0.246865,-0.238997,3.92052,0.1810848,
2,0,0,1,0,8982.55,0.179882,0.179589,-0.423476,5,0.018504,10,-7.60514e-05,-3.37317,-0.370267,-0.159344,2.632,0.179589,
2,0,0,1,0,8982.7,0.178384,0.178058,-0.431865,5,0.0184368,10,-7.68972e-05,-3.36465,-0.245003,-0.240813,4.07092,0.178058,
2,0,0,1,0,8982.85,0.176886,0.176602,-0.437527,5,0.018369,10,-7.72684e-05,-3.35899,-0.247306,-0.238571,4.07719,0.176602,
2,0,0,1,0,8983,0.175387,0.175107,-0.44663,5,0.0182998,10,-7.8208e-05,-3.35005,-0.211331,-0.279183,4.85589,0.175107,
2,0,0,1,0,8983.15,0.17389,0.17359,-0.453441,5,0.0182296,10,-7.87129e-05,-3.34348,-0.182336,-0.323578,5.70372,0.17359,
2,0,0,1,0,8983.3,0.172392,0.172097,-0.461619,5,0.0181583,10,-7.94432e-05,-3.33572,-0.195449,-0.301869,5.43515,0.172097,
2,0,0,1,0,8983.45,0.170893,0.170613,-0.468151,5,0.018086,10,-7.98728e-05,-3.32961,-0.176992,-0.333348,6.09773,0.170613,
2,0,0,1,0,8983.6,0.169395,0.169096,-0.478552,5,0.0180121,10,-8.09211e-05,-3.32007,-0.14909,-0.395733,7.36485,0.169096,
2,0,0,1,0,8983.75,0.167897,0.167608,-0.486576,5,0.0179367,10,-8.1554e-05,-3.31285,-0.159005,-0.371058,7.06893,0.167608,
2,0,0,1,0,8983.9,0.166398,0.166073,-0.498213,5,0.0178599,10,-8.27395e-05,-3.30259,-0.178462,-0.330603,6.46706,0.166073,
2,0,0,1,0,8984.05,0.1649,0.164593,-0.507385,5,0.0177815,10,-8.35122e-05,-3.29466,-0.14632,-0.403226,8.04206,0.164593,
2,0,0,1,0,8984.2,0.163402,0.163109,-0.523147,5,0.0177013,10,-8.53299e-05,-3.28138,-0.133615,-0.441567,9.01163,0.163109,
2,0,0,1,0,8984.35,0.161904,0.161595,-0.536012,5,0.0176191,10,-8.66167e-05,-3.27083,-0.126483,-0.466465,9.77074,0.161595,
2,0,0,1,0,8984.5,0.160405,0.160128,-0.552549,5,0.0175346,10,-8.84785e-05,-3.25763,-0.122124,-0.483115,10.4044,0.160128,
2,0,0,1,0,8984.65,0.158907,0.158583,-0.564169,5,0.0174478,10,-8.94674e-05,-3.24859,-0.109079,-0.540895,11.9975,0.158583,
2,0,0,1,0,8984.8,0.15741,0.157119,-0.586403,5,0.0173585,10,-9.21349e-05,-3.2318,-0.0966668,-0.610344,14.0551,0.157119,
2,0,0,1,0,8984.95,0.155911,0.155627,-0.605781,5,0.017266,10,-9.42757e-05,-3.21768,-0.0938636,-0.628571,14.9271,0.155627,
2,0,0,1,0,8985.1,0.154413,0.154106,-0.627354,5,0.0171701,10,-9.66789e-05,-3.20249,-0.0980807,-0.601546,14.8048,0.154106,
2,0,0,1,0,8985.25,0.152915,0.152553,-0.652486,5,0.017071,10,-9.9539e-05,-3.18543,-0.0896437,-0.658161,16.8362,0.152553,
2,0,0,1,0,8985.4,0.151417,0.151083,-0.682244,5,0.0169683,10,-0.000103075,-3.16606,-0.0808578,-0.729676,19.4521,0.151083,
2,0,0,1,0,8985.55,0.149918,0.149606,-0.71285,5,0.0168609,10,-0.000106646,-3.147,-0.073451,-0.803257,22.3367,0.149606,
2,0,0,1,0,8985.7,0.14842,0.148139,-0.746236,5,0.0167487,10,-0.000110547,-3.12712,-0.0750777,-0.785853,22.8819,0.148139,
2,0,0,1,0,8985.85,0.146922,0.146616,-0.781403,5,0.0166313,10,-0.000114566,-3.10712,-0.0718643,-0.820992,25.1258,0.146616,
2,0,0,1,0,8986,0.145424,0.145135,-0.819529,5,0.0165086,10,-0.000118942,-3.08644,-0.068506,-0.861239,27.674,0.145135,
2,0,0,1,0,8986.15,0.143925,0.143662,-0.863787,5,0.0163794,10,-0.000124094,-3.06359,-0.0633601,-0.931186,31.2858,0.143662,
2,0,0,1,0,8986.3,0.142428,0.142109,-0.909291,5,0.0162435,10,-0.000129218,-3.0413,-0.068011,-0.867507,30.8101,0.142109,
2,0,0,1,0,8986.45,0.14093,0.140592,-0.954003,5,0.0161009,10,-0.000134125,-3.02045,-0.0733378,-0.804496,29.9879,0.140592,
2,0,0,1,0,8986.6,0.139431,0.139086,-0.997309,5,0.0159513,10,-0.000138712,-3.00117,-0.0736603,-0.800974,31.3192,0.139086,
2,0,0,1,0,8986.74,0.137933,0.137644,-1.04956,5,0.0157948,10,-0.000144466,-2.97899,-0.0749771,-0.786907,32.17,0.137644,
2,0,0,1,0,8986.89,0.136435,0.136102,-1.09828,5,0.0156308,10,-0.000149479,-2.95929,-0.0814198,-0.72464,30.9128,0.136102,
2,0,0,1,0,8987.04,0.134936,0.134627,-1.14411,5,0.0154599,10,-0.000154028,-2.94153,-0.0942311,-0.62612,27.7885,0.1346273,
2,0,0,1,0,8987.19,0.133438,0.133141,-1.18492,5,0.0152824,10,-0.000157762,-2.92631,-0.104351,-0.565398,26.0761,0.133141,
2,0,0,1,0,8987.34,0.13194,0.131639,-1.22442,5,0.0150991,10,-0.000161181,-2.91207,-0.119426,-0.494028,23.5401,0.131639,
2,0,0,1,0,8987.49,0.130442,0.13014,-1.25953,5,0.0149101,10,-0.000163915,-2.89979,-0.131311,-0.449316,21.9557,0.13014,
2,0,0,1,0,8987.64,0.128943,0.128636,-1.28533,5,0.0147165,10,-0.00016534,-2.89098,-0.16553,-0.35643,17.8428,0.128636,
2,0,0,1,0,8987.79,0.127445,0.127135,-1.31366,5,0.0145188,10,-0.000167013,-2.88152,-0.1767,-0.3339,17.0137,0.127135,
2,0,0,1,0,8987.94,0.125948,0.125637,-1.33515,5,0.0143177,10,-0.000167745,-2.87447,-0.234314,-0.251799,13.0707,0.125637,
2,0,0,1,0,8988.09,0.124449,0.124123,-1.35002,5,0.0141136,10,-0.000167568,-2.86966,-0.300992,-0.196019,10.2926,0.124123,
2,0,0,1,0,8988.24,0.122951,0.122636,-1.36347,5,0.0139072,10,-0.000167211,-2.86535,-0.443301,-0.133092,7.05743,0.122636,
2,0,0,1,0,8988.39,0.121453,0.121168,-1.37037,5,0.0136994,10,-0.000166044,-2.86316,-1.09317,-0.0539716,2.87821,0.121168,
2,0,0,1,0,8988.54,0.119955,0.11967,-1.37066,5,0.013491,10,-0.000164027,-2.86307,-1.77477,-0.0332438,1.78048,0.11967,
2,0,0,1,0,8988.69,0.118456,0.118175,-1.37161,5,0.0132825,10,-0.00016209,-2.86277,-2.75,-0.0214546,1.1502,0.1181751,
2,0,0,1,0,8988.84,0.116958,0.116647,-1.37639,5,0.0130734,10,-0.000160552,-2.86126,2.25706,0.0261402,-1.39848,0.116647,
2,0,0,1,0,8988.99,0.11546,0.115156,-1.37039,5,0.0128647,10,-0.000157808,-2.86316,0.608975,0.0968841,-5.1692,0.115156,
2,0,0,1,0,8989.14,0.113962,0.11365,-1.35833,5,0.0126572,10,-0.000154375,-2.86699,0.544895,0.108278,-5.74997,0.11365,
2,0,0,1,0,8989.29,0.112463,0.11214,-1.35449,5,0.012451,10,-0.000151892,-2.86823,0.528007,0.111741,-5.90094,0.11214,
2,0,0,1,0,8989.44,0.110966,0.110637,-1.34435,5,0.012246,10,-0.000148736,-2.87149,0.500468,0.11789,-6.17391,0.110637,
2,0,0,1,0,8989.59,0.109468,0.109141,-1.33328,5,0.0120423,10,-0.000145516,-2.87508,0.367791,0.160417,-8.32893,0.109141,
2,0,0,1,0,8989.74,0.107969,0.107671,-1.3209,5,0.0118403,10,-0.000142222,-2.87913,0.396386,0.148845,-7.67163,0.107671,
2,0,0,1,0,8989.89,0.106471,0.106147,-1.30799,5,0.0116405,10,-0.000138839,-2.8834,0.407797,0.14468,-7.3995,0.106147,
2,0,0,1,0,8990.04,0.104973,0.104714,-1.29692,5,0.0114423,10,-0.000135806,-2.88709,0.357841,0.164878,-8.33795,0.1047143,
2,0,0,1,0,8990.19,0.103474,0.103158,-1.28608,5,0.0112455,10,-0.000132669,-2.89073,0.324267,0.181949,-9.10771,0.103158,
2,0,0,1,0,8990.34,0.101976,0.101688,-1.27157,5,0.0110512,10,-0.000129303,-2.89566,0.282465,0.208875,-10.3605,0.101688,
2,0,0,1,0,8990.49,0.100478,0.10017,-1.25576,5,0.0108593,10,-0.00012579,-2.90109,0.322104,0.183171,-8.9854,0.10017,
2,0,0,1,0,8990.64,0.0989799,0.098705,-1.24423,5,0.0106692,10,-0.000122812,-2.9051,0.37863,0.155825,-7.54772,0.098705,
2,0,0,1,0,8990.79,0.0974808,0.0971879,-1.23135,5,0.0104809,10,-0.000119672,-2.90962,0.321609,0.183453,-8.80406,0.0971879,
2,0,0,1,0,8990.94,0.0959833,0.095676,-1.21618,5,0.0102947,10,-0.00011636,-2.915,0.318559,0.185209,-8.80282,0.095676,
2,0,0,1,0,8991.09,0.0944857,0.094199,-1.19682,5,0.0101108,10,-0.000112739,-2.92197,0.323975,0.182113,-8.54748,0.094199,
2,0,0,1,0,8991.24,0.0929871,0.0926925,-1.18963,5,0.00992873,10,-0.00011027,-2.92459,0.365537,0.161406,-7.49421,0.0926925,
2,0,0,1,0,8991.39,0.0914889,0.0911156,-1.18045,5,0.00974842,10,-0.000107558,-2.92795,0.346274,0.170385,-7.82315,0.0911156,
2,0,0,1,0,8991.54,0.0899907,0.0897053,-1.16958,5,0.00956977,10,-0.000104918,-2.93197,0.328927,0.179371,-8.14894,0.0897053,
2,0,0,1,0,8991.69,0.0884925,0.0882016,-1.14961,5,0.00939314,10,-0.000101397,-2.93945,0.348388,0.169351,-7.62522,0.0882016,
2,0,0,1,0,8991.84,0.0869943,0.0867107,-1.14206,5,0.00921848,10,-9.90288e-05,-2.94231,0.355104,0.166149,-7.42655,0.0867107,
2,0,0,1,0,8991.99,0.0854962,0.085205,-1.13185,5,0.00904526,10,-9.64395e-05,-2.94621,0.360612,0.163611,-7.22802,0.085205,
2,0,0,1,0,8992.14,0.083998,0.0836939,-1.12361,5,0.00887339,10,-9.40389e-05,-2.94939,0.332127,0.177643,-7.78498,0.0836939,
2,0,0,1,0,8992.29,0.0824998,0.0822507,-1.11404,5,0.00870312,10,-9.16307e-05,-2.9531,0.341275,0.172881,-7.50674,0.0822507,
2,0,0,1,0,8992.44,0.0810011,0.080735,-1.10381,5,0.00853439,10,-8.91158e-05,-2.95711,0.45328,0.130162,-5.61269,0.080735,
2,0,0,1,0,8992.59,0.0795036,0.0792231,-1.0941,5,0.00836691,10,-8.66783e-05,-2.96094,0.51125,0.115403,-4.93,0.0792231,
2,0,0,1,0,8992.74,0.0780061,0.0777217,-1.08815,5,0.00820055,10,-8.45725e-05,-2.96331,0.42587,0.13854,-5.875,0.0777217,
2,0,0,1,0,8992.89,0.076507,0.0761851,-1.07891,5,0.00803535,10,-8.21967e-05,-2.96702,0.391518,0.150695,-6.33158,0.07618513,
2,0,0,1,0,8993.04,0.0750088,0.074708,-1.06872,5,0.00787175,10,-7.98416e-05,-2.97114,0.503784,0.117114,-4.88767,0.074708,
2,0,0,1,0,8993.19,0.0735106,0.0732075,-1.06058,5,0.00770916,10,-7.76426e-05,-2.97446,0.618311,0.0954212,-3.94986,0.0732075,
2,0,0,1,0,8993.34,0.0720124,0.0717017,-1.056,5,0.00754758,10,-7.57171e-05,-2.97634,0.503877,0.117092,-4.82748,0.0717017,
2,0,0,1,0,8993.49,0.0705142,0.0702119,-1.04763,5,0.00738703,10,-7.35562e-05,-2.97979,0.468749,0.125867,-5.14062,0.0702119,
2,0,0,1,0,8993.64,0.0690161,0.0687506,-1.03685,5,0.00722781,10,-7.12842e-05,-2.98428,0.513388,0.114923,-4.66936,0.0687506,
2,0,0,1,0,8993.79,0.0675179,0.0672109,-1.03332,5,0.00706977,10,-6.94503e-05,-2.98577,0.606471,0.0972841,-3.9252,0.0672109,
2,0,0,1,0,8993.94,0.0660188,0.0657509,-1.03125,5,0.0069124,10,-6.78057e-05,-2.98664,0.541103,0.109036,-4.36508,0.0657509,
2,0,0,1,0,8994.09,0.0645213,0.0642054,-1.0211,5,0.00675588,10,-6.55598e-05,-2.99093,0.492409,0.119819,-4.76074,0.0642054,
2,0,0,1,0,8994.24,0.0630237,0.0627108,-1.01018,5,0.00660081,10,-6.33491e-05,-2.9956,0.458624,0.128646,-5.08631,0.0627108,
2,0,0,1,0,8994.39,0.0615251,0.0612482,-1.00453,5,0.00644685,10,-6.15257e-05,-2.99804,0.540232,0.109212,-4.28263,0.0612482,
2,0,0,1,0,8994.54,0.0600269,0.0597117,-0.99672,5,0.00629394,10,-5.95159e-05,-3.00143,0.504671,0.116908,-4.55714,0.0597117,
2,0,0,1,0,8994.69,0.0585287,0.0582356,-0.990442,5,0.00614206,10,-5.7679e-05,-3.00417,0.367855,0.160389,-6.18904,0.0582356,
2,0,0,1,0,8994.84,0.0570305,0.0567203,-0.984026,5,0.00599123,10,-5.58143e-05,-3.00699,0.449275,0.131323,-5.04401,0.0567203,
2,0,0,1,0,8994.98,0.0555323,0.0552357,-0.975316,5,0.00584196,10,-5.38723e-05,-3.01085,0.425307,0.138723,-5.29313,0.05523574,
2,0,0,1,0,8995.13,0.0540342,0.0537003,-0.969206,5,0.00569338,10,-5.20466e-05,-3.01358,0.491745,0.119981,-4.52777,0.0537003,
2,0,0,1,0,8995.28,0.052536,0.0522242,-0.961694,5,0.00554571,10,-5.02237e-05,-3.01696,0.432682,0.136359,-5.1146,0.0522242,
2,0,0,1,0,8995.43,0.0510378,0.0507661,-0.954645,5,0.00539934,10,-4.84636e-05,-3.02016,0.385984,0.152856,-5.68705,0.0507661,
2,0,0,1,0,8995.58,0.0495391,0.0492186,-0.942912,5,0.00525436,10,-4.64088e-05,-3.02553,0.407972,0.144618,-5.34666,0.0492186,
2,0,0,1,0,8995.73,0.0480416,0.0477315,-0.937339,5,0.00511061,10,-4.47406e-05,-3.0281,0.591945,0.0996715,-3.64438,0.0477315,
2,0,0,1,0,8995.88,0.0465441,0.0462574,-0.927968,5,0.00496774,10,-4.29254e-05,-3.03247,0.45795,0.128835,-4.67934,0.0462574,
2,0,0,1,0,8996.03,0.045045,0.0447568,-0.921548,5,0.00482602,10,-4.12455e-05,-3.03548,0.367569,0.160514,-5.77056,0.0447568,
2,0,0,1,0,8996.18,0.0435468,0.0432107,-0.910099,5,0.00468564,10,-3.9326e-05,-3.04091,0.389272,0.151565,-5.40666,0.04321073,
2,0,0,1,0,8996.33,0.0420486,0.0417315,-0.904743,5,0.00454665,10,-3.77562e-05,-3.04347,0.405666,0.14544,-5.14366,0.0417315,
2,0,0,1,0,8996.48,0.0405504,0.0402267,-0.901501,5,0.00440856,10,-3.62645e-05,-3.04503,0.366619,0.16093,-5.64743,0.0402267,
2,0,0,1,0,8996.63,0.0390523,0.0387305,-0.892243,5,0.00427148,10,-3.4557e-05,-3.04952,0.353705,0.166805,-5.78602,0.03873051,
2,0,0,1,0,8996.78,0.0375541,0.0372279,-0.881875,5,0.00413579,10,-3.28304e-05,-3.05459,0.336037,0.175576,-6.05549,0.0372279,
2,0,0,1,0,8996.93,0.0360559,0.0357423,-0.875162,5,0.00400157,10,-3.12803e-05,-3.05791,0.436421,0.13519,-4.62895,0.0357423,
2,0,0,1,0,8997.08,0.0345568,0.0342008,-0.868674,5,0.00386811,10,-2.97093e-05,-3.06114,0.415774,0.141904,-4.80471,0.03420078,
2,0,0,1,0,8997.23,0.0330593,0.0327359,-0.859337,5,0.00373578,10,-2.81312e-05,-3.06584,0.336727,0.175216,-5.8788,0.03273591,
2,0,0,1,0,8997.38,0.0315618,0.0312097,-0.853915,5,0.00360458,10,-2.66504e-05,-3.06859,0.419393,0.14068,-4.68774,0.0312097,
2,0,0,1,0,8997.53,0.0300631,0.0297478,-0.843925,5,0.00347476,10,-2.51049e-05,-3.0737,0.402366,0.146633,-4.83318,0.0297478,
2,0,0,1,0,8997.68,0.0285649,0.0282494,-0.838811,5,0.00334571,10,-2.36959e-05,-3.07634,0.515141,0.114532,-3.7441,0.0282494,
2,0,0,1,0,8997.83,0.0270667,0.0267362,-0.831258,5,0.00321763,10,-2.22247e-05,-3.08026,0.373763,0.157854,-5.11915,0.02673625,
2,0,0,1,0,8997.98,0.0255685,0.0252549,-0.82564,5,0.00309057,10,-2.08514e-05,-3.08321,0.394931,0.149393,-4.81468,0.0252549,
2,0,0,1,0,8998.13,0.0240704,0.0237767,-0.814285,5,0.00296486,10,-1.9361e-05,-3.08922,0.399619,0.147641,-4.71577,0.0237767,
2,0,0,1,0,8998.28,0.0225722,0.0222698,-0.813255,5,0.00283985,10,-1.8111e-05,-3.08977,0.657792,0.089694,-2.84381,0.0222698,
2,0,0,1,0,8998.43,0.021074,0.0207259,-0.804556,5,0.00271564,10,-1.66751e-05,-3.09444,0.450209,0.13105,-4.12848,0.0207259,
2,0,0,1,0,8998.58,0.0195758,0.0192752,-0.801623,5,0.0025922,10,-1.54515e-05,-3.09603,0.494166,0.119393,-3.73594,0.0192752,
2,0,0,1,0,8998.73,0.0180772,0.0177342,-0.794141,5,0.00246962,10,-1.40835e-05,-3.1001,0.52674,0.11201,-3.47968,0.01773422,
2,0,0,1,0,8998.88,0.0165796,0.0162905,-0.793677,5,0.00234783,10,-1.29294e-05,-3.10036,0.892886,0.0660779,-2.04656,0.0162905,
2,0,0,1,0,8999.03,0.0150821,0.0147568,-0.790485,5,0.00222647,10,-1.1665e-05,-3.10211,1.00676,0.058604,-1.80329,0.0147568,
2,0,0,1,0,8999.18,0.013583,0.0133433,-0.785717,5,0.00210539,10,-1.04841e-05,-3.10473,0.579321,0.101843,-3.11826,0.0133433,
2,0,0,1,0,8999.33,0.0120848,0.0117601,-0.782218,5,0.00198513,10,-9.19899e-06,-3.10667,0.861638,0.0684743,-2.09406,0.01176013,
2,0,0,1,0,8999.48,0.0105866,0.0102734,-0.779439,5,0.00186546,10,-8.00752e-06,-3.10822,1.80047,0.0327693,-0.997573,0.01027344,
2,0,0,1,0,8999.63,0.00908846,0.00878675,-0.777702,5,0.00174587,10,-6.83347e-06,-3.10919,2.36181,0.0249808,-0.758412,0.00878675,
2,0,0,1,0,8999.78,0.00759027,0.00726401,-0.777207,5,0.00162654,10,-5.64563e-06,-3.10946,1.62442,0.0363207,-1.10021,0.007264006,
2,0,0,1,0,8999.93,0.00609208,0.00577095,-0.776612,5,0.00150742,10,-4.48179e-06,-3.1098,1.97406,0.0298877,-0.904469,0.00577095,
2,0,0,1,0,9000.08,0.00459389,0.00428532,-0.776609,5,0.00138865,10,-3.32802e-06,-3.1098,2.83781,0.0207907,-0.629635,0.00428532,
2,0,0,1,0,9000.23,0.0030948,0.00281241,-0.775315,5,0.0012695,10,-2.1805e-06,-3.11052,-0.6796,-0.0868157,2.6301,0.00281241,
2,0,0,1,0,9000.38,0.00159728,0.00123106,-0.785972,5,0.00114872,10,-9.67579e-07,-3.10459, , , ,0.00123106,
2,0,0,1,0,9000.52,0.000199195,-0.000121089,-0.774929,5,0.0010369,10,9.38355e-08,-3.11074, , , ,-0.000121089,