File: Figure_codes/Fig_3-5/rawdata_trumpetplot_data/after 10th/20221101_1-115_003_TrumpetPlot_ParaChange_from10_every3_06_CV_C01_34.csv
mode,ox/red,error,control changes,counter inc.,time/s,control/V,Ewe/V,<I>/mA,cycle number,(Q-Qo)/C,I Range,P/W,log(|I|),Tafel slope mV/dec,alpha_eff,dI/d(E-IR),E-IR/V,
2,0,0,0,0,68134.5,2.44065e-05,-0.000382585,-1.41216,35,0.0000000E+000,10,5.40273e-07,-2.85011, , , ,-0.000382585,
2,0,0,1,0,68134.5,0.00129787,0.00093461,-0.413499,35,-2.53362e-05,10,-3.8646e-07,-3.38353, , , ,0.00093461,
2,1,0,1,0,68134.5,0.00279427,0.00245086,0.213721,35,-2.74807e-05,10,5.238e-07,-3.67015,-0.153588,-0.384145,337.749,0.00245086,
2,1,0,1,0,68134.6,0.00429425,0.00402039,0.583819,35,-1.14505e-05,10,2.34718e-06,-3.23372,0.00302453,19.5072,210.304,0.00402039,
2,1,0,1,0,68134.6,0.00579422,0.00546239,0.824488,35,1.58498e-05,10,4.50368e-06,-3.08382,0.0114633,5.14686,146.237,0.00546239,
2,1,0,1,0,68134.6,0.00729063,0.00694405,1.00579,35,5.09349e-05,10,6.98425e-06,-2.99749,0.020491,2.87931,106.928,0.00694405,
2,1,0,1,0,68134.7,0.00878704,0.00842331,1.13832,35,9.18702e-05,10,9.58844e-06,-2.94374,0.0317867,1.85612,80.32,0.00842331,
2,1,0,1,0,68134.7,0.010287,0.00997396,1.24117,35,0.000137303,10,1.23794e-05,-2.90617,0.0450227,1.31045,62.4213,0.00997396,
2,1,0,1,0,68134.7,0.011787,0.0114797,1.32508,35,0.000186183,10,1.52114e-05,-2.87776,0.0597797,0.986957,50.5117,0.01147967,
2,1,0,1,0,68134.8,0.0132825,0.0129557,1.39504,35,0.000237649,10,1.80737e-05,-2.85541,0.0738099,0.799351,43.2061,0.0129557,
2,1,0,1,0,68134.8,0.014778,0.0144662,1.4548,35,0.000291545,10,2.10453e-05,-2.8372,0.0870772,0.677559,38.154,0.0144662,
2,1,0,1,0,68134.9,0.0162816,0.0159575,1.50752,35,0.000347871,10,2.40563e-05,-2.82174,0.109059,0.540992,31.5771,0.0159575,
2,1,0,1,0,68134.9,0.017778,0.0174607,1.5477,35,0.000405623,10,2.70239e-05,-2.81031,0.129275,0.456393,27.4867,0.01746065,
2,1,0,1,0,68134.9,0.0192744,0.0189046,1.59013,35,0.00046485,10,3.00609e-05,-2.79857,0.142289,0.41465,25.703,0.0189046,
2,1,0,1,0,68135,0.0207743,0.0204253,1.62696,35,0.000525742,10,3.3231e-05,-2.78862,0.144257,0.408992,25.9466,0.0204253,
2,1,0,1,0,68135,0.0222743,0.0219571,1.66464,35,0.000588104,10,3.65506e-05,-2.77868,0.162392,0.363319,23.5683,0.0219571,
2,1,0,1,0,68135,0.0237707,0.0234415,1.69639,35,0.000651602,10,3.97658e-05,-2.77048,0.18034,0.327161,21.6753,0.0234415,
2,1,0,1,0,68135.1,0.0252671,0.0249577,1.73128,35,0.000716338,10,4.32087e-05,-2.76163,0.175561,0.336066,22.6791,0.0249577,
2,1,0,1,0,68135.1,0.0267671,0.0264652,1.76768,35,0.000782511,10,4.67821e-05,-2.7526,0.180836,0.326263,22.4126,0.0264652,
2,1,0,1,0,68135.2,0.0282671,0.027949,1.80007,35,0.000849898,10,5.03102e-05,-2.74471,0.19139,0.308272,21.6093,0.027949,
2,1,0,1,0,68135.2,0.0297626,0.029456,1.82869,35,0.000918341,10,5.38659e-05,-2.73786,0.204464,0.288559,20.5903,0.029456,
2,1,0,1,0,68135.2,0.0312581,0.0309426,1.85569,35,0.000987965,10,5.74198e-05,-2.73149,0.196652,0.300023,21.8062,0.0309426,
2,1,0,1,0,68135.3,0.0327616,0.0324367,1.89034,35,0.00105908,10,6.13163e-05,-2.72346,0.204438,0.288597,21.3397,0.0324367,
2,1,0,1,0,68135.3,0.034258,0.0339444,1.91935,35,0.00113108,10,6.51511e-05,-2.71685,0.203671,0.289683,21.78,0.0339444,
2,1,0,1,0,68135.3,0.0357545,0.0354329,1.95644,35,0.00120429,10,6.93223e-05,-2.70853,0.226334,0.260677,19.881,0.0354329,
2,1,0,1,0,68135.4,0.0372544,0.0369212,1.98835,35,0.00127883,10,7.34125e-05,-2.70151,0.228389,0.258331,20.023,0.0369212,
2,1,0,1,0,68135.4,0.0387544,0.0384628,2.01784,35,0.00135447,10,7.7612e-05,-2.69511,0.21733,0.271476,21.379,0.0384628,
2,1,0,1,0,68135.5,0.0402508,0.0399772,2.04901,35,0.0014311,10,8.19137e-05,-2.68846,0.216989,0.271904,21.7356,0.0399772,
2,1,0,1,0,68135.5,0.0417472,0.0414401,2.08032,35,0.00150896,10,8.62087e-05,-2.68187,0.233305,0.252888,20.5412,0.0414401,
2,1,0,1,0,68135.5,0.0432472,0.0429384,2.11469,35,0.00158824,10,9.08013e-05,-2.67475,0.248133,0.237776,19.6036,0.0429384,
2,1,0,1,0,68135.6,0.0447472,0.0444153,2.13713,35,0.0016686,10,9.49212e-05,-2.67017,0.24171,0.244094,20.4468,0.0444153,
2,1,0,1,0,68135.6,0.0462427,0.0459408,2.17229,35,0.00174991,10,9.97965e-05,-2.66308,0.240698,0.24512,20.7818,0.0459408,
2,1,0,1,0,68135.6,0.0477382,0.0474357,2.20656,35,0.00183244,10,0.00010467,-2.65628,0.238517,0.247362,21.2929,0.0474357,
2,1,0,1,0,68135.7,0.0492417,0.0489108,2.2374,35,0.00191656,10,0.000109433,-2.65026,0.266239,0.221605,19.318,0.0489108,
2,1,0,1,0,68135.7,0.0507381,0.0503829,2.2637,35,0.00200136,10,0.000114052,-2.64518,0.259734,0.227156,20.0697,0.0503829,
2,1,0,1,0,68135.8,0.0522345,0.0519172,2.29571,35,0.00208724,10,0.000119187,-2.63908,0.252719,0.233461,20.9239,0.0519172,
2,1,0,1,0,68135.8,0.0537345,0.0533824,2.32972,35,0.00217454,10,0.000124366,-2.6327,0.242211,0.24359,22.1157,0.0533824,
2,1,0,1,0,68135.8,0.0552345,0.0548878,2.35386,35,0.00226304,10,0.000129198,-2.62822,0.286975,0.205592,18.902,0.0548878,
2,1,0,1,0,68135.9,0.0567309,0.0564029,2.37956,35,0.00235239,10,0.000134214,-2.6235,0.300869,0.196098,18.2727,0.0564029,
2,1,0,1,0,68135.9,0.0582273,0.0579409,2.4123,35,0.00244267,10,0.000139771,-2.61757,0.307994,0.191562,18.0614,0.0579409,
2,1,0,1,0,68135.9,0.0597308,0.0594175,2.44274,35,0.00253454,10,0.000145142,-2.61212,0.277628,0.212514,20.2347,0.0594175,
2,1,0,1,0,68136,0.0612264,0.0609013,2.47321,35,0.00262704,10,0.000150622,-2.60674,0.329531,0.179042,17.2206,0.0609013,
2,1,0,1,0,68136,0.0627219,0.0624324,2.49841,35,0.00272057,10,0.000155982,-2.60234,0.351397,0.167901,16.3559,0.0624324,
2,1,0,1,0,68136.1,0.0642218,0.0639336,2.52039,35,0.00281519,10,0.000161138,-2.59853,0.330098,0.178735,17.5969,0.0639336,
2,1,0,1,0,68136.1,0.0657218,0.0653991,2.54454,35,0.00291083,10,0.000166411,-2.59439,0.346858,0.170098,16.9118,0.0653991,
2,1,0,1,0,68136.1,0.0672182,0.0668946,2.57262,35,0.00300726,10,0.000172095,-2.58962,0.333352,0.17699,17.7692,0.0668946,
2,1,0,1,0,68136.2,0.0687146,0.0684016,2.5969,35,0.00310459,10,0.000177632,-2.58554,0.407268,0.144868,14.697,0.0684016,
2,1,0,1,0,68136.2,0.0702146,0.0699259,2.62231,35,0.00320303,10,0.000183368,-2.58132,0.389049,0.151652,15.5137,0.0699259,
2,1,0,1,0,68136.2,0.0717146,0.0713671,2.64828,35,0.00330234,10,0.000189,-2.57704,0.375762,0.157014,16.1834,0.0713671,
2,1,0,1,0,68136.3,0.073211,0.0728679,2.66731,35,0.00340228,10,0.000194361,-2.57393,0.431403,0.136763,14.2217,0.0728679,
2,1,0,1,0,68136.3,0.0747074,0.074393,2.69008,35,0.00350304,10,0.000200123,-2.57023,0.438916,0.134422,14.0931,0.074393,
2,1,0,1,0,68136.4,0.0762109,0.0758995,2.70804,35,0.0036051,10,0.000205539,-2.56735,0.451781,0.130594,13.7914,0.0758995,
2,1,0,1,0,68136.4,0.0777065,0.077404,2.727,35,0.00370737,10,0.00021108,-2.56432,0.45353,0.130091,13.8657,0.07740403,
2,1,0,1,0,68136.4,0.079202,0.0788877,2.74891,35,0.00381038,10,0.000216855,-2.56084,0.486541,0.121264,13.0175,0.0788877,
2,1,0,1,0,68136.5,0.0807019,0.0803922,2.76546,35,0.00391447,10,0.000222322,-2.55823,0.542014,0.108853,11.7462,0.0803922,
2,1,0,1,0,68136.5,0.0822019,0.0818911,2.78571,35,0.00401921,10,0.000228124,-2.55506,0.567832,0.103904,11.2908,0.0818911,
2,1,0,1,0,68136.5,0.0836983,0.0833533,2.80049,35,0.00412422,10,0.00023343,-2.55277,0.543555,0.108545,11.8732,0.0833533,
2,1,0,1,0,68136.6,0.0851947,0.0848794,2.82181,35,0.00422995,10,0.000239514,-2.54947,0.559381,0.105474,11.5927,0.0848794,
2,1,0,1,0,68136.6,0.0866947,0.0863725,2.83816,35,0.00433664,10,0.000245138,-2.54696,0.571774,0.103188,11.4202,0.08637245,
2,1,0,1,0,68136.7,0.0881947,0.0878859,2.8558,35,0.00444402,10,0.000250985,-2.54427,0.526509,0.112059,12.4976,0.0878859,
2,1,0,1,0,68136.7,0.0896911,0.0893629,2.87031,35,0.00455172,10,0.000256499,-2.54207,0.526002,0.112167,12.5969,0.0893629,
2,1,0,1,0,68136.7,0.0911875,0.0908611,2.89591,35,0.00466024,10,0.000263126,-2.53821,0.451616,0.130642,14.7752,0.0908611,
2,1,0,1,0,68136.8,0.0926901,0.0923903,2.92102,35,0.00477018,10,0.000269873,-2.53447,0.397449,0.148447,16.9127,0.0923903,
2,1,0,1,0,68136.8,0.0941856,0.0938871,2.94308,35,0.00488042,10,0.000276317,-2.5312,0.411381,0.143419,16.4852,0.0938871,
2,1,0,1,0,68136.8,0.0956821,0.0953453,2.96991,35,0.00499153,10,0.000283167,-2.52726,0.356591,0.165456,19.1897,0.0953453,
2,1,0,1,0,68136.9,0.097182,0.0968656,3.00078,35,0.00510401,10,0.000290672,-2.52277,0.314892,0.187366,21.9015,0.0968656,
2,1,0,1,0,68136.9,0.098682,0.0983873,3.03275,35,0.00521773,10,0.000298384,-2.51816,0.279549,0.211054,24.9941,0.0983873,
2,1,0,1,0,68137,0.100178,0.0998858,3.06684,35,0.0053324,10,0.000306334,-2.51331,0.285135,0.20692,24.8088,0.0998858,
2,1,0,1,0,68137,0.101675,0.101374,3.10503,35,0.0054485,10,0.000314768,-2.50793,0.273971,0.215352,26.149,0.1013736,
2,1,0,1,0,68137,0.103175,0.102854,3.14665,35,0.00556637,10,0.000323644,-2.50215,0.236969,0.248978,30.6543,0.102854,
2,1,0,1,0,68137.1,0.104675,0.104355,3.1957,35,0.00568595,10,0.000333486,-2.49543,0.236761,0.249197,31.1074,0.104355,
2,1,0,1,0,68137.1,0.106171,0.105856,3.24823,35,0.00580702,10,0.000343844,-2.48835,0.225995,0.261067,33.0562,0.105856,
2,1,0,1,0,68137.1,0.107667,0.107354,3.29893,35,0.00592995,10,0.000354153,-2.48163,0.217486,0.271282,34.8746,0.107354,
2,1,0,1,0,68137.2,0.10917,0.108881,3.35211,35,0.00605546,10,0.000364981,-2.47468,0.221713,0.26611,34.7779,0.108881,
2,1,0,1,0,68137.2,0.110666,0.110324,3.40252,35,0.00618235,10,0.000375378,-2.4682,0.210721,0.279991,37.1789,0.110324,
2,1,0,1,0,68137.3,0.112162,0.111864,3.45341,35,0.00631123,10,0.000386312,-2.46175,0.240335,0.245491,33.1127,0.111864,
2,1,0,1,0,68137.3,0.113662,0.113373,3.5075,35,0.00644245,10,0.000397655,-2.455,0.243728,0.242073,33.1174,0.113373,
2,1,0,1,0,68137.3,0.115162,0.114847,3.55401,35,0.00657547,10,0.000408168,-2.44928,0.249263,0.236698,32.8484,0.114847,
2,1,0,1,0,68137.4,0.116658,0.116297,3.60389,35,0.00671,10,0.000419122,-2.44323,0.253303,0.232923,32.7456,0.116297,
2,1,0,1,0,68137.4,0.118155,0.117855,3.65473,35,0.00684635,10,0.000430729,-2.43714,0.2959,0.199392,28.3764,0.117855,
2,1,0,1,0,68137.4,0.119655,0.119348,3.69731,35,0.00698476,10,0.000441267,-2.43211,0.347939,0.16957,24.394,0.119348,
2,1,0,1,0,68137.5,0.121155,0.120905,3.72865,35,0.00712455,10,0.00045081,-2.42845,0.368945,0.159915,23.2533,0.120905,
2,1,0,1,0,68137.5,0.122651,0.122393,3.76429,35,0.00726523,10,0.000460724,-2.42432,0.397583,0.148397,21.7669,0.122393,
2,1,0,1,0,68137.6,0.124147,0.123856,3.79271,35,0.00740716,10,0.000469751,-2.42105,0.461419,0.127866,18.9182,0.123856,
2,1,0,1,0,68137.6,0.12565,0.125343,3.81476,35,0.00755089,10,0.000478153,-2.41853,0.524891,0.112404,16.7476,0.125343,
2,1,0,1,0,68137.6,0.127146,0.12679,3.83403,35,0.00769474,10,0.000486115,-2.41634,0.615374,0.0958766,14.3676,0.12679,
2,1,0,1,0,68137.7,0.128642,0.128312,3.86206,35,0.0078393,10,0.000495549,-2.41318,0.75722,0.0779166,11.7378,0.128312,
2,1,0,1,0,68137.7,0.130142,0.129807,3.88242,35,0.00798497,10,0.000503965,-2.4109,0.836502,0.0705318,10.6635,0.1298068,
2,1,0,1,0,68137.7,0.131642,0.131327,3.89583,35,0.00813125,10,0.000511628,-2.4094,0.975971,0.0604526,9.16369,0.131327,
2,1,0,1,0,68137.8,0.133139,0.132842,3.90459,35,0.00827766,10,0.000518694,-2.40842,1.42448,0.0414186,6.30004,0.132842,
2,1,0,1,0,68137.8,0.134635,0.134286,3.90812,35,0.00842432,10,0.000524805,-2.40803,2.45191,0.0240628,3.67185,0.134286,
2,1,0,1,0,68137.9,0.136135,0.135814,3.91536,35,0.00857161,10,0.000531761,-2.40723,3.62429,0.0162791,2.48615,0.135814,
2,1,0,1,0,68137.9,0.137635,0.137354,3.91511,35,0.00871911,10,0.000537755,-2.40726,-5.4155,-0.0108947,-1.66322,0.1373537,
2,1,0,1,0,68137.9,0.13913,0.138828,3.9105,35,0.00886611,10,0.000542889,-2.40777,-1.16892,-0.0504739,-7.685,0.138828,
2,1,0,1,0,68138,0.140626,0.140302,3.89832,35,0.00901266,10,0.000546941,-2.40912,-0.693228,-0.0851091,-12.9091,0.140302,
2,1,0,1,0,68138,0.14213,0.141802,3.87105,35,0.00915924,10,0.000548923,-2.41217,-0.437775,-0.134772,-20.2928,0.141802,
2,1,0,1,0,68138,0.143626,0.14331,3.8393,35,0.009304,10,0.000550211,-2.41575,-0.296875,-0.198737,-29.6405,0.14331,
2,1,0,1,0,68138.1,0.145122,0.144758,3.7837,35,0.00944717,10,0.00054772,-2.42208,-0.221034,-0.266927,-39.3021,0.1447577,
2,1,0,1,0,68138.1,0.146622,0.146303,3.71696,35,0.00958852,10,0.000543804,-2.42981,-0.180912,-0.326126,-47.2253,0.146303,
2,1,0,1,0,68138.2,0.148122,0.147826,3.64033,35,0.00972717,10,0.000538137,-2.43886,-0.15232,-0.387343,-54.9615,0.147826,
2,1,0,1,0,68138.2,0.149619,0.149332,3.55212,35,0.00986238,10,0.000530443,-2.44951,-0.13114,-0.449901,-62.2604,0.1493315,
2,1,0,1,0,68138.2,0.151115,0.15079,3.45777,35,0.00999408,10,0.000521397,-2.4612,-0.109892,-0.536889,-72.1213,0.15079,
2,1,0,1,0,68138.3,0.152615,0.152238,3.34346,35,0.0101222,10,0.000509001,-2.4758,-0.101445,-0.581597,-75.7436,0.152238,
2,1,0,1,0,68138.3,0.154115,0.153821,3.22899,35,0.0102459,10,0.000496687,-2.49093,-0.097818,-0.603161,-75.9195,0.153821,
2,1,0,1,0,68138.3,0.155611,0.155289,3.11312,35,0.0103651,10,0.000483435,-2.5068,-0.0934132,-0.631603,-76.6667,0.155289,
2,1,0,1,0,68138.4,0.157106,0.156773,3.00089,35,0.01048,10,0.000470458,-2.52275,-0.0901331,-0.654588,-76.5229,0.156773,
2,1,0,1,0,68138.4,0.15861,0.158314,2.88671,35,0.0105912,10,0.000457007,-2.5396,-0.0916319,-0.64388,-72.6057,0.158314,
2,1,0,1,0,68138.5,0.160106,0.15982,2.77461,35,0.0106976,10,0.000443437,-2.5568,-0.0925411,-0.637555,-69.318,0.15982,
2,1,0,1,0,68138.5,0.161602,0.161313,2.67658,35,0.0108001,10,0.000431766,-2.57242,-0.0945937,-0.62372,-65.3488,0.161313,
2,1,0,1,0,68138.5,0.163102,0.1628,2.58588,35,0.0108994,10,0.000420982,-2.58739,-0.101283,-0.582523,-58.8862,0.1628004,
2,1,0,1,0,68138.6,0.164602,0.164258,2.50682,35,0.0109954,10,0.000411765,-2.60088,-0.106466,-0.554168,-54.2099,0.164258,
2,1,0,1,0,68138.6,0.166099,0.16584,2.42959,35,0.0110881,10,0.000402922,-2.61447,-0.112373,-0.525036,-49.7597,0.16584,
2,1,0,1,0,68138.6,0.167595,0.167242,2.35748,35,0.0111781,10,0.000394269,-2.62755,-0.127745,-0.461858,-42.5503,0.167242,
2,1,0,1,0,68138.7,0.169095,0.168791,2.29595,35,0.0112658,10,0.000387535,-2.63904,-0.134988,-0.437075,-39.2321,0.168791,
2,1,0,1,0,68138.7,0.170595,0.170251,2.23811,35,0.0113514,10,0.000381039,-2.65012,-0.142982,-0.41264,-36.1441,0.170251,
2,1,0,1,0,68138.8,0.172091,0.171813,2.18165,35,0.0114347,10,0.000374837,-2.66121,-0.160649,-0.36726,-31.472,0.171813,
2,1,0,1,0,68138.8,0.173586,0.173258,2.14026,35,0.0115161,10,0.000370817,-2.66953,-0.171996,-0.34303,-28.707,0.173258,
2,1,0,1,0,68138.8,0.17509,0.174774,2.09822,35,0.0115964,10,0.000366713,-2.67815,-0.185105,-0.318738,-26.131,0.174774,
2,1,0,1,0,68138.9,0.176586,0.176267,2.06252,35,0.0116747,10,0.000363554,-2.6856,-0.199507,-0.29573,-23.7922,0.176267,
2,1,0,1,0,68138.9,0.178083,0.177777,2.02729,35,0.0117517,10,0.000360406,-2.69308,-0.211748,-0.278634,-22.0328,0.177777,
2,1,0,1,0,68138.9,0.179582,0.179254,1.99674,35,0.0118277,10,0.000357924,-2.69968,-0.234355,-0.251755,-19.6249,0.179254,
2,1,0,1,0,68139,0.181082,0.180772,1.96892,35,0.0119026,10,0.000355926,-2.70577,-0.263307,-0.224073,-17.2424,0.180772,
2,1,0,1,0,68139,0.182579,0.182277,1.94219,35,0.0119764,10,0.000354016,-2.71171,-0.279243,-0.211285,-16.0517,0.182277,
2,1,0,1,0,68139.1,0.184075,0.183772,1.92161,35,0.0120493,10,0.000353137,-2.71634,-0.312752,-0.188648,-14.1795,0.183772,
2,1,0,1,0,68139.1,0.185579,0.185263,1.90221,35,0.0121217,10,0.000352409,-2.72074,-0.347453,-0.169807,-12.6237,0.185263,
2,1,0,1,0,68139.1,0.187074,0.18676,1.8843,35,0.0121931,10,0.000351912,-2.72485,-0.390453,-0.151106,-11.1079,0.18676,
2,1,0,1,0,68139.2,0.18857,0.188277,1.87076,35,0.0122638,10,0.000352222,-2.72798,-0.395233,-0.149279,-10.871,0.188277,
2,1,0,1,0,68139.2,0.19007,0.189768,1.85789,35,0.0123342,10,0.000352569,-2.73098,-0.385342,-0.153111,-11.0524,0.189768,
2,1,0,1,0,68139.2,0.19157,0.191257,1.83844,35,0.0124039,10,0.000351615,-2.73555,-0.464587,-0.126994,-9.11728,0.191257,
2,1,0,1,0,68139.3,0.193066,0.192749,1.82516,35,0.012473,10,0.000351799,-2.7387,-0.651915,-0.0905025,-6.44818,0.192749,
2,1,0,1,0,68139.3,0.194563,0.194247,1.8133,35,0.0125417,10,0.000352228,-2.74153,-0.667961,-0.0883285,-6.2668,0.194247,
2,1,0,1,0,68139.4,0.196063,0.195754,1.8053,35,0.0126102,10,0.000353396,-2.74345,-0.525502,-0.112274,-7.916,0.1957545,
2,1,0,1,0,68139.4,0.197563,0.197238,1.79233,35,0.0126782,10,0.000353517,-2.74658,-0.604176,-0.0976536,-6.85009,0.197238,
2,1,0,1,0,68139.4,0.199059,0.198741,1.78738,35,0.0127457,10,0.000355226,-2.74778,-0.760869,-0.077543,-5.40867,0.198741,
2,1,0,1,0,68139.5,0.200555,0.200249,1.78053,35,0.0128129,10,0.00035655,-2.74945,-0.883174,-0.0668045,-4.62658,0.200249,
2,1,0,1,0,68139.5,0.202059,0.201767,1.77229,35,0.0128802,10,0.00035759,-2.75147,-0.753423,-0.0783092,-5.40315,0.201767,
2,1,0,1,0,68139.5,0.203554,0.20322,1.76062,35,0.0129468,10,0.000357793,-2.75433,-0.796103,-0.074111,-5.09775,0.20322,
2,1,0,1,0,68139.6,0.20505,0.20476,1.7543,35,0.0130131,10,0.00035921,-2.7559,-2.00237,-0.0294651,-2.02565,0.2047597,
2,1,0,1,0,68139.6,0.20655,0.206266,1.74755,35,0.0130794,10,0.000360459,-2.75757,-1.45115,-0.0406574,-2.78317,0.2062659,
2,1,0,1,0,68139.7,0.20805,0.207725,1.74461,35,0.0131457,10,0.0003624,-2.7583,-1.07979,-0.05464,-3.71932,0.207725,
2,1,0,1,0,68139.7,0.209546,0.209218,1.73934,35,0.0132114,10,0.000363901,-2.75961,-1.02432,-0.0575994,-3.91568,0.209218,
2,1,0,1,0,68139.7,0.211043,0.210788,1.73803,35,0.0132769,10,0.000366356,-2.75994,-0.849927,-0.0694177,-4.69447,0.210788,
2,1,0,1,0,68139.8,0.212543,0.212255,1.72958,35,0.0133425,10,0.000367112,-2.76206,-1.58376,-0.0372532,-2.51071,0.212255,
2,1,0,1,0,68139.8,0.214043,0.213733,1.72406,35,0.0134078,10,0.000368489,-2.76345,-1.4841,-0.0397548,-2.67611,0.213733,
2,1,0,1,0,68139.8,0.215539,0.215199,1.71856,35,0.0134727,10,0.000369833,-2.76483,-1.24491,-0.0473929,-3.18121,0.2151988,
2,1,0,1,0,68139.9,0.217035,0.216737,1.71135,35,0.0135375,10,0.000370914,-2.76666,-1.58088,-0.037321,-2.50213,0.216737,
2,1,0,1,0,68139.9,0.218538,0.218225,1.70618,35,0.0136024,10,0.000372331,-2.76798,-4.1,-0.0143902,-0.961438,0.218225,
2,1,0,1,0,68140,0.220034,0.219724,1.70709,35,0.013667,10,0.000375089,-2.76774,-2.45034,-0.0240783,-1.60587,0.219724,
2,1,0,1,0,68140,0.22153,0.221255,1.70727,35,0.0137314,10,0.000377743,-2.7677,-1.33861,-0.0440757,-2.92856,0.221255,
2,1,0,1,0,68140,0.22303,0.222725,1.6983,35,0.0137958,10,0.000378254,-2.76998,-1.37389,-0.0429437,-2.84444,0.222725,
2,1,0,1,0,68140.1,0.22453,0.224214,1.69613,35,0.01386,10,0.000380298,-2.77054,-2.62849,-0.0224464,-1.48487,0.224214,
2,1,0,1,0,68140.1,0.226026,0.225759,1.69596,35,0.013924,10,0.000382878,-2.77058,-2.64659,-0.0222928,-1.47335,0.225759,
2,1,0,1,0,68140.1,0.227523,0.227202,1.69133,35,0.0139879,10,0.000384274,-2.77177,-1.65101,-0.0357356,-2.35422,0.227202,
2,1,0,1,0,68140.2,0.229023,0.228746,1.68669,35,0.0140519,10,0.000385824,-2.77296,-1.38557,-0.0425818,-2.80515,0.228746,
2,1,0,1,0,68140.2,0.230523,0.230214,1.68082,35,0.0141156,10,0.000386949,-2.77448,-4.02872,-0.0146448,-0.965159,0.230214,
2,1,0,1,0,68140.3,0.232019,0.231672,1.6796,35,0.014179,10,0.000389117,-2.77479,-2.14306,-0.0275308,-1.80782,0.231672,
2,1,0,1,0,68140.3,0.233515,0.233193,1.68164,35,0.0142425,10,0.000392145,-2.77427,-3.29983,-0.0178797,-1.17132,0.233193,
2,1,0,1,0,68140.3,0.235018,0.234774,1.68034,35,0.0143063,10,0.000394501,-2.7746,-1.88211,-0.0313478,-2.05149,0.234774,
2,1,0,1,0,68140.4,0.236514,0.236214,1.67342,35,0.0143695,10,0.000395284,-2.7764,-2.37248,-0.0248685,-1.62586,0.236214,
2,1,0,1,0,68140.4,0.23801,0.237689,1.67347,35,0.0144326,10,0.000397765,-2.77638,-10.1236,-0.00582798,-0.379828,0.237689,
2,1,0,1,0,68140.4,0.23951,0.239163,1.67066,35,0.0144959,10,0.000399559,-2.77711,-3.3296,-0.0177199,-1.1557,0.239163,
2,1,0,1,0,68140.5,0.24101,0.240736,1.66474,35,0.014559,10,0.000400763,-2.77865,-1.89772,-0.0310899,-2.02497,0.240736,
2,1,0,1,0,68140.5,0.242506,0.242215,1.66153,35,0.0146219,10,0.000402446,-2.77949,-3.41539,-0.0172747,-1.12416,0.242215,
2,1,0,1,0,68140.6,0.244003,0.243689,1.66174,35,0.0146847,10,0.000404948,-2.77944,-3.76164,-0.0156847,-1.01914,0.243689,
2,1,0,1,0,68140.6,0.245503,0.24524,1.6685,35,0.0147476,10,0.000409182,-2.77767,-2.01236,-0.0293188,-1.90111,0.24524,
2,1,0,1,0,68140.6,0.247003,0.246692,1.65951,35,0.0148105,10,0.000409388,-2.78002,-1.33766,-0.0441068,-2.85045,0.246692,
2,1,0,1,0,68140.7,0.248499,0.248172,1.65546,35,0.0148731,10,0.00041084,-2.78108,-3.545,-0.0166431,-1.07449,0.2481723,
2,1,0,1,0,68140.7,0.249995,0.249692,1.65458,35,0.0149355,10,0.000413135,-2.78131,-2.65377,-0.0222325,-1.4347,0.249692,
2,1,0,1,0,68140.7,0.251498,0.251199,1.65401,35,0.0149983,10,0.000415485,-2.78146,-5.2422,-0.0112548,-0.72494,0.251199,
2,1,0,1,0,68140.8,0.252994,0.252675,1.64802,35,0.0150606,10,0.000416414,-2.78304,-1.48566,-0.039713,-2.56151,0.252675,
2,1,0,1,0,68140.8,0.25449,0.254178,1.6457,35,0.0151229,10,0.0004183,-2.78365,-1.89797,-0.0310858,-2.00162,0.254178,
2,1,0,1,0,68140.9,0.25599,0.255665,1.6437,35,0.0151851,10,0.000420237,-2.78418,-2.00197,-0.0294709,-1.8934,0.255665,
2,1,0,1,0,68140.9,0.25749,0.257163,1.64685,35,0.0152474,10,0.000423509,-2.78335,78.2105,0.000754374,0.0483555,0.257163,
2,1,0,1,0,68140.9,0.258987,0.25871,1.64807,35,0.0153095,10,0.000426371,-2.78303,-4.43615,-0.0132998,-0.851911,0.25871,
2,1,0,1,0,68141,0.260483,0.260203,1.64241,35,0.0153715,10,0.00042736,-2.78452,-0.996461,-0.0592095,-3.79669,0.260203,
2,1,0,1,0,68141,0.261983,0.261667,1.63613,35,0.0154335,10,0.000428121,-2.78618,-1.61337,-0.0365694,-2.34156,0.261667,
2,1,0,1,0,68141,0.263483,0.263184,1.63285,35,0.0154955,10,0.000429742,-2.78705,-3.7395,-0.0157775,-1.00693,0.263184,
2,1,0,1,0,68141.1,0.264978,0.26468,1.63043,35,0.0155572,10,0.000431542,-2.7877,-6.36406,-0.00927081,-0.592303,0.26468,
2,1,0,1,0,68141.1,0.266474,0.26616,1.63281,35,0.0156188,10,0.00043459,-2.78706,-3.19543,-0.0184639,-1.17664,0.26616,
2,1,0,1,0,68141.1,0.267977,0.267671,1.62811,35,0.0156807,10,0.000435799,-2.78832,-3.14474,-0.0187615,-1.19253,0.267671,
2,1,0,1,0,68141.2,0.269474,0.269132,1.62798,35,0.0157422,10,0.000438142,-2.78835,-12.6625,-0.00465943,-0.295825,0.269132,
2,1,0,1,0,68141.2,0.27097,0.270665,1.63113,35,0.0158036,10,0.00044149,-2.78751,-5.67529,-0.0103959,-0.658436,0.270665,
2,1,0,1,0,68141.3,0.27247,0.272188,1.62774,35,0.0158652,10,0.000443051,-2.78842,-2.07278,-0.0284642,-1.80049,0.272188,
2,1,0,1,0,68141.3,0.27397,0.273701,1.61926,35,0.0159266,10,0.000443192,-2.79068,-1.26437,-0.0466637,-2.95226,0.273701,
2,1,0,1,0,68141.3,0.275467,0.275139,1.6161,35,0.0159877,10,0.000444653,-2.79153,-2.32661,-0.0253587,-1.60613,0.275139,
2,1,0,1,0,68141.4,0.276963,0.276636,1.6161,35,0.0160488,10,0.000447071,-2.79153,-2.03388,-0.0290087,-1.83306,0.276636,
2,1,0,1,0,68141.4,0.278463,0.278124,1.61663,35,0.01611,10,0.000449625,-2.79139,-1.23188,-0.0478943,-3.01252,0.278124,
2,1,0,1,0,68141.4,0.279963,0.279647,1.61016,35,0.0161711,10,0.000450275,-2.79313,-2.96551,-0.0198954,-1.25129,0.279647,
2,1,0,1,0,68141.5,0.281459,0.281139,1.60924,35,0.0162318,10,0.000452419,-2.79338,-3.00074,-0.0196618,-1.23463,0.281139,
2,1,0,1,0,68141.5,0.282954,0.282663,1.61023,35,0.0162925,10,0.000455151,-2.79311,-5.65886,-0.0104261,-0.652067,0.282663,
2,1,0,1,0,68141.6,0.284458,0.284153,1.60867,35,0.0163535,10,0.000457109,-2.79353,-3.63351,-0.0162377,-1.01629,0.2841534,
2,1,0,1,0,68141.6,0.285954,0.285642,1.60175,35,0.0164141,10,0.000457526,-2.79541,-1.59072,-0.0370901,-2.31821,0.285642,
2,1,0,1,0,68141.6,0.28745,0.287147,1.59752,35,0.0164745,10,0.000458724,-2.79655,-2.66053,-0.022176,-1.38681,0.287147,
2,1,0,1,0,68141.7,0.28895,0.28863,1.59144,35,0.016535,10,0.000459337,-2.79821,-1.82671,-0.0322985,-2.01608,0.28863,
2,1,0,1,0,68141.7,0.29045,0.29015,1.59307,35,0.0165955,10,0.000462228,-2.79777,-4.51732,-0.0130608,-0.812493,0.29015,
2,1,0,1,0,68141.7,0.291947,0.291636,1.59124,35,0.0166556,10,0.000464064,-2.79826,-1.74299,-0.0338499,-2.10249,0.291636,
2,1,0,1,0,68141.8,0.293443,0.293113,1.59079,35,0.0167157,10,0.000466282,-2.79839,-1.7975,-0.0328234,-2.03315,0.293113,
2,1,0,1,0,68141.8,0.294943,0.294615,1.58833,35,0.0167757,10,0.000467947,-2.79906,-4.14557,-0.0142321,-0.881354,0.294615,
2,1,0,1,0,68141.9,0.296443,0.29615,1.58896,35,0.0168358,10,0.000470571,-2.79889,-3.44994,-0.0171017,-1.05676,0.29615,
2,1,0,1,0,68141.9,0.297939,0.297645,1.58016,35,0.0168956,10,0.000470326,-2.8013,-5.08836,-0.0115951,-0.71577,0.297645,
2,1,0,1,0,68141.9,0.299434,0.299151,1.57636,35,0.0169553,10,0.000471571,-2.80234,-0.0191159,-3.08643,-167.758,0.299151,
2,1,0,0,0,68142,0.299962,0.299613,1.51804,35,0.0169788,10,0.000454823,-2.81872,0.00129546,45.5438,1548.83,0.299613,
2,1,0,1,0,68142,0.298689,0.298386,0.606949,35,0.0170089,10,0.000181105,-3.21685,0.00228916,25.7736,453.948,0.298386,
2,1,0,1,0,68142,0.297189,0.296922,0.150885,35,0.0170214,10,4.48013e-05,-3.82135,0.00527402,11.1869,255,0.296922,
2,0,0,1,0,68142.1,0.295692,0.295333,-0.095009,35,0.0170214,10,-2.80593e-05,-4.02224,-0.55331,-0.106631,135.047,0.295333,
2,0,0,1,0,68142.1,0.294196,0.293908,-0.243575,35,0.0170143,10,-7.15889e-05,-3.61337,-0.00354664,-16.6354,83.9713,0.293908,
2,0,0,1,0,68142.1,0.292696,0.292393,-0.336544,35,0.0170026,10,-9.84029e-05,-3.47296,-0.0118643,-4.9729,57.9066,0.292393,
2,0,0,1,0,68142.2,0.291196,0.290879,-0.415875,35,0.0169879,10,-0.000120969,-3.38104,-0.0200684,-2.93994,44.9765,0.290879,
2,0,0,1,0,68142.2,0.2897,0.289371,-0.473018,35,0.0169707,10,-0.000136878,-3.32512,-0.0305233,-1.93295,34.487,0.289371,
2,0,0,1,0,68142.2,0.288205,0.287895,-0.512145,35,0.0169516,10,-0.000147444,-3.29061,-0.0414437,-1.42362,28.0905,0.2878947,
2,0,0,1,0,68142.3,0.286701,0.286399,-0.54808,35,0.0169308,10,-0.00015697,-3.26116,-0.0509427,-1.15816,24.9546,0.2863991,
2,0,0,1,0,68142.3,0.285205,0.284888,-0.587518,35,0.0169088,10,-0.000167377,-3.23098,-0.0618784,-0.953483,21.7564,0.284888,
2,0,0,1,0,68142.4,0.283708,0.283373,-0.624299,35,0.0168856,10,-0.00017691,-3.20461,-0.0702827,-0.839467,20.1128,0.283373,
2,0,0,1,0,68142.4,0.282208,0.281848,-0.649272,35,0.0168611,10,-0.000182996,-3.18757,-0.0941606,-0.626589,15.7077,0.281848,
2,0,0,1,0,68142.4,0.280709,0.280415,-0.67391,35,0.0168357,10,-0.000188974,-3.1714,-0.10419,-0.566272,14.782,0.280415,
2,0,0,1,0,68142.5,0.279212,0.278945,-0.692432,35,0.0168096,10,-0.00019315,-3.15962,-0.112581,-0.524069,14.1867,0.278945,
2,0,0,1,0,68142.5,0.277716,0.277403,-0.715347,35,0.0167826,10,-0.00019844,-3.14548,-0.112056,-0.526524,14.698,0.277403,
2,0,0,1,0,68142.5,0.276216,0.275878,-0.738529,35,0.0167547,10,-0.000203744,-3.13163,-0.131749,-0.447821,12.8734,0.275878,
2,0,0,1,0,68142.6,0.274716,0.274361,-0.755519,35,0.0167261,10,-0.000207285,-3.12175,-0.146922,-0.401575,11.8207,0.274361,
2,0,0,1,0,68142.6,0.27322,0.272885,-0.771818,35,0.0166969,10,-0.000210618,-3.11249,-0.16633,-0.354717,10.6561,0.272885,
2,0,0,1,0,68142.7,0.271725,0.271402,-0.791009,35,0.0166671,10,-0.000214681,-3.10182,-0.139522,-0.422872,12.9547,0.271402,
2,0,0,1,0,68142.7,0.270221,0.269916,-0.805352,35,0.0166365,10,-0.000217377,-3.09401,-0.176791,-0.333728,10.4756,0.269916,
2,0,0,1,0,68142.7,0.268725,0.268414,-0.822576,35,0.0166053,10,-0.000220791,-3.08482,-0.197868,-0.298179,9.52062,0.268414,
2,0,0,1,0,68142.8,0.267228,0.266943,-0.832908,35,0.0165737,10,-0.000222339,-3.0794,-0.196748,-0.299876,9.80089,0.266943,
2,0,0,1,0,68142.8,0.265728,0.265422,-0.850909,35,0.0165414,10,-0.00022585,-3.07012,-0.200646,-0.29405,9.76253,0.265422,
2,0,0,1,0,68142.8,0.264228,0.263892,-0.864022,35,0.0165087,10,-0.000228009,-3.06348,-0.219729,-0.268513,9.05403,0.263892,
2,0,0,1,0,68142.9,0.262732,0.262414,-0.879263,35,0.0164754,10,-0.000230731,-3.05588,-0.269826,-0.21866,7.46654,0.262414,
2,0,0,1,0,68142.9,0.261236,0.260942,-0.890239,35,0.0164417,10,-0.000232301,-3.05049,-0.253297,-0.232929,8.08757,0.260942,
2,0,0,1,0,68143,0.259736,0.259444,-0.903926,35,0.0164075,10,-0.000234518,-3.04387,-0.239212,-0.246643,8.68454,0.259444,
2,0,0,1,0,68143,0.258236,0.25791,-0.91819,35,0.0163728,10,-0.000236811,-3.03707,-0.234566,-0.251528,8.98707,0.2579104,
2,0,0,1,0,68143,0.256741,0.256431,-0.928311,35,0.0163377,10,-0.000238048,-3.03231,-0.287275,-0.205378,7.42165,0.2564308,
2,0,0,1,0,68143.1,0.255241,0.254927,-0.939624,35,0.0163021,10,-0.000239535,-3.02705,-0.313479,-0.18821,6.9098,0.254927,
2,0,0,1,0,68143.1,0.253741,0.253465,-0.949779,35,0.0162661,10,-0.000240736,-3.02238,-0.295039,-0.199974,7.42118,0.253465,
2,0,0,1,0,68143.1,0.252245,0.251926,-0.958706,35,0.0162297,10,-0.000241523,-3.01831,-0.257496,-0.22913,8.59506,0.251926,
2,0,0,1,0,68143.2,0.250748,0.250428,-0.972836,35,0.0161929,10,-0.000243625,-3.01196,-0.288058,-0.20482,7.77105,0.250428,
2,0,0,1,0,68143.2,0.249248,0.248949,-0.987031,35,0.0161556,10,-0.00024572,-3.00567,-0.359795,-0.163982,6.27005,0.248949,
2,0,0,1,0,68143.3,0.247748,0.247429,-0.99288,35,0.0161179,10,-0.000245667,-3.0031,-0.35216,-0.167537,6.46827,0.247429,
2,0,0,1,0,68143.3,0.246252,0.245982,-1.00452,35,0.01608,10,-0.000247094,-2.99804,-0.30574,-0.192974,7.5447,0.245982,
2,0,0,1,0,68143.3,0.244756,0.244421,-1.01756,35,0.0160416,10,-0.000248713,-2.99244,-0.307632,-0.191787,7.60254,0.244421,
2,0,0,1,0,68143.4,0.243252,0.24295,-1.02199,35,0.0160026,10,-0.000248292,-2.99055,-0.350893,-0.168142,6.73482,0.24295,
2,0,0,1,0,68143.4,0.241756,0.241439,-1.02936,35,0.0159635,10,-0.000248529,-2.98743,-0.385233,-0.153154,6.17829,0.241439,
2,0,0,1,0,68143.4,0.240261,0.239947,-1.04034,35,0.015924,10,-0.000249626,-2.98283,-0.320483,-0.184097,7.48525,0.239947,
2,0,0,1,0,68143.5,0.238761,0.238468,-1.05075,35,0.0158841,10,-0.000250571,-2.9785,-0.370695,-0.15916,6.53016,0.238468,
2,0,0,1,0,68143.5,0.237261,0.236969,-1.06457,35,0.0158438,10,-0.00025227,-2.97283,-0.468878,-0.125832,5.19424,0.236969,
2,0,0,1,0,68143.6,0.235765,0.235449,-1.07332,35,0.0158032,10,-0.000252713,-2.96927,-0.453806,-0.130012,5.42753,0.235449,
2,0,0,1,0,68143.6,0.234268,0.233981,-1.0806,35,0.0157624,10,-0.000252841,-2.96633,-0.473273,-0.124664,5.26673,0.233981,
2,0,0,1,0,68143.6,0.232768,0.232426,-1.09188,35,0.0157211,10,-0.000253781,-2.96183,-0.356543,-0.165478,7.03828,0.232426,
2,0,0,1,0,68143.7,0.231268,0.230947,-1.09933,35,0.0156793,10,-0.000253887,-2.95887,-0.411129,-0.143507,6.16405,0.230947,
2,0,0,1,0,68143.7,0.229772,0.229458,-1.1065,35,0.0156374,10,-0.000253896,-2.95605,-0.566933,-0.104069,4.50621,0.229458,
2,0,0,1,0,68143.7,0.228275,0.227969,-1.11696,35,0.0155952,10,-0.000254632,-2.95196,-0.473007,-0.124734,5.43407,0.227969,
2,0,0,1,0,68143.8,0.226772,0.226451,-1.12664,35,0.0155524,10,-0.000255129,-2.94821,-0.43333,-0.136155,5.96377,0.226451,
2,0,0,1,0,68143.8,0.225276,0.224985,-1.13894,35,0.0155094,10,-0.000256245,-2.9435,-0.454996,-0.129671,5.731,0.224985,
2,0,0,1,0,68143.9,0.223781,0.223471,-1.14244,35,0.0154662,10,-0.000255301,-2.94217,-0.469563,-0.125649,5.60366,0.223471,
2,0,0,1,0,68143.9,0.222281,0.222003,-1.14828,35,0.0154226,10,-0.000254922,-2.93995,-0.476124,-0.123917,5.56947,0.222003,
2,0,0,1,0,68143.9,0.220781,0.220495,-1.15816,35,0.0153786,10,-0.000255369,-2.93623,-0.422155,-0.139759,6.33504,0.220495,
2,0,0,1,0,68144,0.219284,0.218958,-1.16934,35,0.0153344,10,-0.000256036,-2.93206,-0.381197,-0.154776,7.07274,0.218958,
2,0,0,1,0,68144,0.217788,0.217465,-1.17885,35,0.0152898,10,-0.000256359,-2.92854,-0.493965,-0.119442,5.49253,0.217465,
2,0,0,1,0,68144,0.216288,0.216003,-1.18542,35,0.0152448,10,-0.000256054,-2.92613,-0.428297,-0.137755,6.37622,0.216003,
2,0,0,1,0,68144.1,0.214788,0.214433,-1.1958,35,0.0151995,10,-0.000256418,-2.92234,-0.52835,-0.111668,5.20478,0.214433,
2,0,0,1,0,68144.1,0.213292,0.212982,-1.20778,35,0.015154,10,-0.000257235,-2.91801,-0.408487,-0.144436,6.77213,0.212982,
2,0,0,1,0,68144.2,0.211796,0.21147,-1.21492,35,0.0151082,10,-0.00025692,-2.91545,-0.590302,-0.0999488,4.71767,0.21147,
2,0,0,1,0,68144.2,0.210293,0.209988,-1.22024,35,0.0150618,10,-0.000256235,-2.91356,-0.465174,-0.126834,6.05851,0.209988,
2,0,0,1,0,68144.2,0.208797,0.208492,-1.22329,35,0.0150154,10,-0.000255046,-2.91247,-0.386583,-0.152619,7.34442,0.208492,
2,0,0,1,0,68144.3,0.207301,0.206991,-1.23362,35,0.0149686,10,-0.000255348,-2.90882,-0.360814,-0.163519,7.91332,0.206991,
2,0,0,1,0,68144.3,0.205801,0.205491,-1.25176,35,0.0149213,10,-0.000257225,-2.90248,-0.415676,-0.141938,6.91233,0.205491,
2,0,0,1,0,68144.3,0.204301,0.203973,-1.2585,35,0.0148736,10,-0.0002567,-2.90015,-0.703709,-0.0838415,4.10611,0.2039732,
2,0,0,1,0,68144.4,0.202804,0.202501,-1.26535,35,0.0148258,10,-0.000256236,-2.89779,-0.599217,-0.0984617,4.85797,0.202501,
2,0,0,1,0,68144.4,0.201308,0.201007,-1.27289,35,0.0147778,10,-0.00025586,-2.89521,-0.485896,-0.121425,6.01389,0.201007,
2,0,0,1,0,68144.5,0.199808,0.199492,-1.2807,35,0.0147292,10,-0.000255489,-2.89255,-0.525632,-0.112246,5.61551,0.199492,
2,0,0,1,0,68144.5,0.198308,0.198,-1.292,35,0.0146803,10,-0.000255816,-2.88874,-0.554838,-0.106337,5.359,0.198,
2,0,0,1,0,68144.5,0.196812,0.196485,-1.29528,35,0.0146312,10,-0.000254504,-2.88764,-0.487242,-0.12109,6.16139,0.196485,
2,0,0,1,0,68144.6,0.195316,0.195015,-1.3034,35,0.0145818,10,-0.000254183,-2.88492,-0.386495,-0.152654,7.80478,0.1950153,
2,0,0,1,0,68144.6,0.193813,0.193451,-1.32177,35,0.0145317,10,-0.000255699,-2.87884,-0.412161,-0.143148,7.37287,0.193451,
2,0,0,1,0,68144.6,0.192317,0.192035,-1.3311,35,0.0144815,10,-0.000255618,-2.87579,-0.484194,-0.121852,6.30214,0.192035,
2,0,0,1,0,68144.7,0.190821,0.190471,-1.33641,35,0.014431,10,-0.000254547,-2.87406,-0.53373,-0.110543,5.76554,0.190471,
2,0,0,1,0,68144.7,0.189321,0.188985,-1.34772,35,0.01438,10,-0.0002547,-2.8704,-0.484095,-0.121877,6.40385,0.188985,
2,0,0,1,0,68144.8,0.187821,0.187515,-1.35667,35,0.0143287,10,-0.000254394,-2.86753,-0.442076,-0.133461,7.06602,0.1875145,
2,0,0,1,0,68144.8,0.186324,0.186014,-1.36926,35,0.014277,10,-0.000254701,-2.86352,-0.576221,-0.102391,5.45924,0.186014,
2,0,0,1,0,68144.8,0.184828,0.184478,-1.37739,35,0.0142251,10,-0.000254098,-2.86094,-0.520727,-0.113303,6.11008,0.184478,
2,0,0,1,0,68144.9,0.183328,0.183021,-1.38476,35,0.0141726,10,-0.00025344,-2.85863,-0.422833,-0.139535,7.57057,0.1830209,
2,0,0,1,0,68144.9,0.181828,0.181504,-1.39995,35,0.0141197,10,-0.000254096,-2.85389,-0.368165,-0.160254,8.73355,0.181504,
2,0,0,1,0,68144.9,0.180332,0.180031,-1.41521,35,0.0140665,10,-0.000254782,-2.84918,-0.448028,-0.131688,7.23582,0.180031,
2,0,0,1,0,68145,0.178836,0.178555,-1.42172,35,0.0140128,10,-0.000253855,-2.84719,-0.44362,-0.132997,7.36918,0.178555,
2,0,0,1,0,68145,0.177333,0.177021,-1.43272,35,0.0139585,10,-0.000253622,-2.84384,-0.433658,-0.136052,7.60838,0.177021,
2,0,0,1,0,68145.1,0.175837,0.17554,-1.44146,35,0.0139041,10,-0.000253035,-2.8412,-0.356108,-0.16568,9.34795,0.17554,
2,0,0,1,0,68145.1,0.174341,0.174014,-1.45625,35,0.0138491,10,-0.000253409,-2.83676,-0.386053,-0.152829,8.70885,0.174014,
2,0,0,1,0,68145.1,0.172841,0.17251,-1.46811,35,0.0137935,10,-0.000253263,-2.83324,-0.401274,-0.147032,8.45887,0.17251,
2,0,0,1,0,68145.2,0.171341,0.171028,-1.48116,35,0.0137374,10,-0.000253319,-2.8294,-0.415053,-0.142151,8.25685,0.171028,
2,0,0,1,0,68145.2,0.169844,0.169541,-1.49913,35,0.013681,10,-0.000254164,-2.82416,-0.327686,-0.180051,10.5396,0.169541,
2,0,0,1,0,68145.2,0.168348,0.168044,-1.51955,35,0.013624,10,-0.000255351,-2.81829,-0.297731,-0.198166,11.7046,0.168044,
2,0,0,1,0,68145.3,0.166848,0.166508,-1.53302,35,0.0135661,10,-0.000255261,-2.81445,-0.341796,-0.172618,10.2966,0.166508,
2,0,0,1,0,68145.3,0.165348,0.165041,-1.54992,35,0.0135077,10,-0.0002558,-2.80969,-0.341639,-0.172697,10.4247,0.165041,
2,0,0,1,0,68145.4,0.163852,0.163514,-1.56406,35,0.0134488,10,-0.000255746,-2.80575,-0.301927,-0.195411,11.9527,0.163514,
2,0,0,1,0,68145.4,0.162357,0.162052,-1.58175,35,0.0133893,10,-0.000256325,-2.80086,-0.2563,-0.230199,14.2583,0.162052,
2,0,0,1,0,68145.4,0.160853,0.160528,-1.60208,35,0.0133286,10,-0.000257177,-2.79532,-0.308617,-0.191175,11.9711,0.160528,
2,0,0,1,0,68145.5,0.159357,0.15899,-1.62827,35,0.0132675,10,-0.000258879,-2.78827,-0.26947,-0.218948,13.9006,0.15899,
2,0,0,1,0,68145.5,0.157861,0.157525,-1.64502,35,0.0132057,10,-0.000259132,-2.78383,-0.234211,-0.25191,16.2329,0.157525,
2,0,0,1,0,68145.5,0.156361,0.156019,-1.67865,35,0.0131427,10,-0.000261902,-2.77504,-0.203389,-0.290084,18.9757,0.1560194,
2,0,0,1,0,68145.6,0.154861,0.154542,-1.70744,35,0.0130786,10,-0.000263872,-2.76765,-0.192711,-0.306158,20.3563,0.154542,
2,0,0,1,0,68145.6,0.153364,0.153085,-1.73446,35,0.0130135,10,-0.000265519,-2.76084,-0.205024,-0.287772,19.5022,0.153085,
2,0,0,1,0,68145.7,0.151868,0.151556,-1.7621,35,0.0129474,10,-0.000267056,-2.75397,-0.18176,-0.324604,22.4498,0.151556,
2,0,0,1,0,68145.7,0.150368,0.150035,-1.80219,35,0.0128798,10,-0.000270391,-2.7442,-0.158742,-0.371673,26.2358,0.150035,
2,0,0,1,0,68145.7,0.148868,0.148559,-1.8414,35,0.0128108,10,-0.000273558,-2.73485,-0.143732,-0.410487,29.6358,0.148559,
2,0,0,1,0,68145.8,0.147372,0.147029,-1.89079,35,0.0127403,10,-0.000278001,-2.72336,-0.131368,-0.449119,33.175,0.147029,
2,0,0,1,0,68145.8,0.145877,0.145508,-1.93975,35,0.0126681,10,-0.000282248,-2.71225,-0.124546,-0.473722,35.8718,0.1455079,
2,0,0,1,0,68145.8,0.144373,0.144071,-1.99422,35,0.0125935,10,-0.000287309,-2.70023,-0.114328,-0.516061,40.2232,0.144071,
2,0,0,1,0,68145.9,0.142877,0.142601,-2.05807,35,0.0125171,10,-0.000293483,-2.68654,-0.110619,-0.53336,42.8488,0.142601,
2,0,0,1,0,68145.9,0.14138,0.141085,-2.12351,35,0.0124381,10,-0.000299596,-2.67294,-0.104903,-0.562427,46.6567,0.141085,
2,0,0,1,0,68146,0.13988,0.139527,-2.19579,35,0.0123564,10,-0.000306373,-2.65841,-0.104701,-0.56351,48.4066,0.139527,
2,0,0,1,0,68146,0.13838,0.138026,-2.2683,35,0.012272,10,-0.000313084,-2.6443,-0.0978225,-0.603133,53.6745,0.138026,
2,0,0,1,0,68146,0.136884,0.136583,-2.35577,35,0.0121846,10,-0.00032176,-2.62787,-0.0937644,-0.629237,57.9899,0.1365834,
2,0,0,1,0,68146.1,0.135388,0.135064,-2.4469,35,0.0120941,10,-0.000330489,-2.61138,-0.0981487,-0.601129,57.4014,0.135064,
2,0,0,1,0,68146.1,0.133888,0.133553,-2.53837,35,0.012,10,-0.000339006,-2.59545,-0.0980627,-0.601656,59.5156,0.1335526,
2,0,0,1,0,68146.1,0.132389,0.132079,-2.63039,35,0.0119025,10,-0.00034742,-2.57998,-0.0978388,-0.603033,61.7889,0.132079,
2,0,0,1,0,68146.2,0.130893,0.130586,-2.7231,35,0.0118018,10,-0.000355599,-2.56494,-0.0979786,-0.602172,63.8841,0.130586,
2,0,0,1,0,68146.2,0.129393,0.129089,-2.81747,35,0.0116972,10,-0.000363705,-2.55014,-0.101817,-0.579473,63.5879,0.129089,
2,0,0,1,0,68146.3,0.127893,0.127572,-2.906,35,0.0115891,10,-0.000370726,-2.5367,-0.109915,-0.536777,60.9019,0.127572,
2,0,0,1,0,68146.3,0.126397,0.126043,-2.99415,35,0.0114779,10,-0.00037739,-2.52373,-0.117229,-0.503288,58.935,0.126043,
2,0,0,1,0,68146.3,0.1249,0.124591,-3.08775,35,0.0113634,10,-0.000384707,-2.51036,-0.119667,-0.493036,59.3909,0.124591,
2,0,0,1,0,68146.4,0.1234,0.123082,-3.17797,35,0.0112452,10,-0.000391149,-2.49785,-0.125977,-0.468339,57.9494,0.123082,
2,0,0,1,0,68146.4,0.1219,0.121605,-3.26351,35,0.0111237,10,-0.000396859,-2.48631,-0.13986,-0.42185,53.5905,0.121605,
2,0,0,1,0,68146.4,0.120404,0.120081,-3.34337,35,0.0109995,10,-0.000401477,-2.47582,-0.147967,-0.398737,51.8761,0.120081,
2,0,0,1,0,68146.5,0.118908,0.118593,-3.41945,35,0.0108725,10,-0.000405522,-2.46604,-0.157055,-0.375665,50.0883,0.118593,
2,0,0,1,0,68146.5,0.117404,0.117083,-3.49175,35,0.0107419,10,-0.000408824,-2.45696,-0.162995,-0.361974,49.2447,0.117083,
2,0,0,1,0,68146.6,0.115909,0.115591,-3.56061,35,0.0106092,10,-0.000411573,-2.44848,-0.182917,-0.322551,44.7535,0.115591,
2,0,0,1,0,68146.6,0.114413,0.114097,-3.62535,35,0.010474,10,-0.000413643,-2.44065,-0.209576,-0.28152,39.8311,0.114097,
2,0,0,1,0,68146.6,0.112913,0.112595,-3.68344,35,0.0103363,10,-0.000414739,-2.43375,-0.23169,-0.25465,36.5657,0.1125954,
2,0,0,1,0,68146.7,0.111413,0.111069,-3.73723,35,0.0101964,10,-0.000415091,-2.42745,-0.251553,-0.234543,34.1448,0.111069,
2,0,0,1,0,68146.7,0.109917,0.109606,-3.78668,35,0.0100551,10,-0.000415041,-2.42174,-0.302856,-0.194812,28.6942,0.109606,
2,0,0,1,0,68146.7,0.10842,0.108072,-3.82678,35,0.00991207,10,-0.00041357,-2.41717,-0.377896,-0.156128,23.2356,0.108072,
2,0,0,1,0,68146.8,0.10692,0.106626,-3.85392,35,0.00976745,10,-0.000410929,-2.4141,-0.451906,-0.130558,19.6154,0.106626,
2,0,0,1,0,68146.8,0.10542,0.105108,-3.88132,35,0.00962175,10,-0.000407958,-2.41102,-0.577927,-0.102089,15.4465,0.105108,
2,0,0,1,0,68146.9,0.103924,0.103571,-3.90178,35,0.00947546,10,-0.00040411,-2.40874,-0.797174,-0.0740114,11.2557,0.103571,
2,0,0,1,0,68146.9,0.102427,0.102112,-3.91418,35,0.00932859,10,-0.000399684,-2.40736,-2.07017,-0.0285001,4.34867,0.102112,
2,0,0,1,0,68146.9,0.100924,0.100595,-3.91483,35,0.0091807,10,-0.000393811,-2.40729,-18.719,-0.00315187,0.481309,0.100595,
2,0,0,1,0,68147,0.0994284,0.0991199,-3.91954,35,0.00903359,10,-0.000388505,-2.40676,6.3823,0.00924432,-1.41059,0.0991199,
2,0,0,1,0,68147,0.0979329,0.0975786,-3.91171,35,0.00888658,10,-0.0003817,-2.40763,1.85511,0.031804,-4.84562,0.0975786,
2,0,0,1,0,68147,0.0964329,0.0961453,-3.89911,35,0.00873945,10,-0.000374881,-2.40903,0.937482,0.0629346,-9.55546,0.0961453,
2,0,0,1,0,68147.1,0.094933,0.0946199,-3.8803,35,0.00859282,10,-0.000367154,-2.41113,0.723123,0.0815906,-12.3528,0.0946199,
2,0,0,1,0,68147.1,0.0934365,0.0931165,-3.86006,35,0.00844732,10,-0.000359436,-2.41341,0.715821,0.0824228,-12.439,0.09311647,
2,0,0,1,0,68147.2,0.0919401,0.0916011,-3.84491,35,0.00830252,10,-0.000352198,-2.41511,0.664861,0.0887403,-13.3286,0.0916011,
2,0,0,1,0,68147.2,0.0904402,0.0901258,-3.82546,35,0.00815794,10,-0.000344772,-2.41732,0.571046,0.103319,-15.4186,0.0901258,
2,0,0,1,0,68147.2,0.0889402,0.0885941,-3.80271,35,0.00801419,10,-0.000336898,-2.41991,0.60722,0.0971641,-14.4239,0.0885941,
2,0,0,1,0,68147.3,0.0874438,0.0871178,-3.78176,35,0.00787182,10,-0.000329459,-2.42231,0.582218,0.101337,-14.9401,0.0871178,
2,0,0,1,0,68147.3,0.0859483,0.0855927,-3.76435,35,0.0077302,10,-0.000322201,-2.42431,0.647926,0.0910598,-13.3511,0.0855927,
2,0,0,1,0,68147.3,0.0844447,0.084125,-3.73968,35,0.00758857,10,-0.000314601,-2.42717,0.682783,0.0864111,-12.5995,0.084125,
2,0,0,1,0,68147.4,0.0829492,0.0826801,-3.71755,35,0.00744845,10,-0.000307367,-2.42974,0.618382,0.0954103,-13.8489,0.0826801,
2,0,0,1,0,68147.4,0.0814528,0.0811443,-3.69413,35,0.00730916,10,-0.000299758,-2.43249,0.723563,0.0815409,-11.7839,0.0811443,
2,0,0,1,0,68147.5,0.0799528,0.0796455,-3.67456,35,0.00717015,10,-0.000292662,-2.43479,0.871278,0.0677166,-9.73708,0.0796455,
2,0,0,1,0,68147.5,0.0784529,0.0781568,-3.66225,35,0.00703174,10,-0.00028623,-2.43625,0.922507,0.0639562,-9.15458,0.0781568,
2,0,0,1,0,68147.5,0.0769565,0.0766099,-3.64917,35,0.00689427,10,-0.000279563,-2.43781,0.761749,0.0774533,-11.0315,0.0766099,
2,0,0,1,0,68147.6,0.07546,0.0751473,-3.6339,35,0.00675737,10,-0.000273078,-2.43963,0.80586,0.0732137,-10.3827,0.0751473,
2,0,0,1,0,68147.6,0.0739601,0.0736529,-3.62203,35,0.00662073,10,-0.000266773,-2.44105,0.834338,0.0707147,-9.98753,0.0736529,
2,0,0,1,0,68147.6,0.0724601,0.0721034,-3.60693,35,0.00648459,10,-0.000260072,-2.44286,0.857857,0.068776,-9.67593,0.0721034,
2,0,0,1,0,68147.7,0.0709637,0.0706352,-3.59325,35,0.00634928,10,-0.00025381,-2.44451,0.78602,0.0750617,-10.5145,0.0706352,
2,0,0,1,0,68147.7,0.0694682,0.0691578,-3.57361,35,0.0062145,10,-0.000247143,-2.44689,0.788817,0.0747955,-10.4524,0.0691578,
2,0,0,1,0,68147.8,0.0679646,0.0676073,-3.55955,35,0.00607966,10,-0.000240651,-2.44861,0.850542,0.0693675,-9.65942,0.0676073,
2,0,0,1,0,68147.8,0.0664691,0.0661345,-3.54659,35,0.00594602,10,-0.000234552,-2.45019,0.846059,0.0697351,-9.65913,0.0661345,
2,0,0,1,0,68147.8,0.0649727,0.0646658,-3.53382,35,0.00581282,10,-0.000228517,-2.45176,0.734861,0.0802873,-11.0672,0.0646658,
2,0,0,1,0,68147.9,0.0634727,0.0631251,-3.52021,35,0.00567984,10,-0.000222214,-2.45343,0.768893,0.0767337,-10.5287,0.0631251,
2,0,0,1,0,68147.9,0.0619728,0.0616612,-3.50493,35,0.00554763,10,-0.000216118,-2.45532,0.703627,0.0838513,-11.4462,0.0616612,
2,0,0,1,0,68147.9,0.0604764,0.060132,-3.48558,35,0.0054163,10,-0.000209595,-2.45772,0.740795,0.0796442,-10.8169,0.060132,
2,0,0,1,0,68148,0.05898,0.0586575,-3.46873,35,0.00528564,10,-0.000203467,-2.45983,0.729056,0.0809266,-10.9561,0.0586575,
2,0,0,1,0,68148,0.05748,0.0571097,-3.44739,35,0.00515528,10,-0.00019688,-2.46251,0.675912,0.0872894,-11.7574,0.0571097,
2,0,0,1,0,68148.1,0.05598,0.0556326,-3.42731,35,0.00502565,10,-0.00019067,-2.46505,0.61673,0.0956658,-12.8174,0.0556326,
2,0,0,1,0,68148.1,0.0544836,0.0541662,-3.41143,35,0.00489709,10,-0.000184784,-2.46706,0.672256,0.0877642,-11.6824,0.0541662,
2,0,0,1,0,68148.1,0.0529881,0.0526675,-3.39513,35,0.0047691,10,-0.000178813,-2.46914,0.807044,0.0731063,-9.67866,0.05266754,
2,0,0,1,0,68148.2,0.0514846,0.0511179,-3.38067,35,0.00464111,10,-0.000172813,-2.471,0.567778,0.103914,-13.6785,0.05111789,
2,0,0,1,0,68148.2,0.049989,0.0496811,-3.352,35,0.00451455,10,-0.000166531,-2.4747,0.566158,0.104211,-13.6427,0.0496811,
2,0,0,1,0,68148.2,0.0484926,0.0481924,-3.33705,35,0.00438879,10,-0.000160821,-2.47664,0.540868,0.109084,-14.2045,0.0481924,
2,0,0,1,0,68148.3,0.0469927,0.0466641,-3.31917,35,0.0042634,10,-0.000154886,-2.47897,0.543834,0.108489,-14.0414,0.04666413,
2,0,0,1,0,68148.3,0.0454927,0.0452203,-3.29035,35,0.00413875,10,-0.000148791,-2.48276,0.528506,0.111636,-14.3602,0.0452203,
2,0,0,1,0,68148.4,0.0439963,0.0436254,-3.27048,35,0.00401523,10,-0.000142676,-2.48539,0.534723,0.110338,-14.1073,0.0436254,
2,0,0,1,0,68148.4,0.0424999,0.0421861,-3.25262,35,0.00389259,10,-0.000137215,-2.48777,0.52214,0.112997,-14.3484,0.0421861,
2,0,0,1,0,68148.4,0.0409999,0.0406615,-3.23293,35,0.00377039,10,-0.000131456,-2.4904,0.551132,0.107052,-13.4911,0.04066151,
2,0,0,1,0,68148.5,0.0394999,0.0391899,-3.21387,35,0.00364889,10,-0.000125951,-2.49297,0.502554,0.1174,-14.6771,0.0391899,
2,0,0,1,0,68148.5,0.0380044,0.037663,-3.18965,35,0.00352862,10,-0.000120132,-2.49626,0.442036,0.133473,-16.5835,0.037663,
2,0,0,1,0,68148.5,0.0365089,0.0361698,-3.16043,35,0.00340932,10,-0.000114312,-2.50025,0.484756,0.121711,-15.016,0.0361698,
2,0,0,1,0,68148.6,0.0350054,0.0346962,-3.13687,35,0.00329025,10,-0.000108837,-2.5035,0.476955,0.123702,-15.1495,0.0346962,
2,0,0,1,0,68148.6,0.033509,0.0331595,-3.11263,35,0.00317264,10,-0.000103213,-2.50687,0.4429,0.133213,-16.1939,0.0331595,
2,0,0,1,0,68148.6,0.0320125,0.0316964,-3.08772,35,0.00305594,10,-9.78694e-05,-2.51036,0.431163,0.136839,-16.5136,0.0316964,
2,0,0,1,0,68148.7,0.0305126,0.0301936,-3.06405,35,0.00293989,10,-9.25146e-05,-2.5137,0.452156,0.130486,-15.6109,0.0301936,
2,0,0,1,0,68148.7,0.0290126,0.0286976,-3.04074,35,0.00282476,10,-8.7262e-05,-2.51702,0.45744,0.128979,-15.3026,0.0286976,
2,0,0,1,0,68148.8,0.0275162,0.0271815,-3.02368,35,0.00271076,10,-8.21883e-05,-2.51946,0.453869,0.129993,-15.3027,0.0271815,
2,0,0,1,0,68148.8,0.0260198,0.0256639,-2.99781,35,0.00259763,10,-7.69356e-05,-2.5232,0.417582,0.14129,-16.4976,0.0256639,
2,0,0,1,0,68148.8,0.0245198,0.0241716,-2.96763,35,0.00248508,10,-7.17324e-05,-2.52759,0.431151,0.136843,-15.8613,0.0241716,
2,0,0,1,0,68148.9,0.0230198,0.0227265,-2.94679,35,0.00237348,10,-6.69703e-05,-2.53065,0.458086,0.128797,-14.8349,0.0227265,
2,0,0,1,0,68148.9,0.0215243,0.0211835,-2.9282,35,0.00226291,10,-6.20297e-05,-2.5334,0.51505,0.114552,-13.0979,0.0211835,
2,0,0,1,0,68148.9,0.0200288,0.0196973,-2.90411,35,0.00215309,10,-5.72031e-05,-2.53699,0.496952,0.118724,-13.47,0.0196973,
2,0,0,1,0,68149,0.0185253,0.0182245,-2.88576,35,0.0020435,10,-5.25915e-05,-2.53974,0.533704,0.110548,-12.4635,0.01822448,
2,0,0,1,0,68149,0.0170289,0.0166704,-2.86912,35,0.00193525,10,-4.78294e-05,-2.54225,0.56095,0.105179,-11.7585,0.0166704,
2,0,0,1,0,68149.1,0.0155325,0.0151925,-2.85179,35,0.00182769,10,-4.33259e-05,-2.54488,0.56214,0.104956,-11.6697,0.0151925,
2,0,0,1,0,68149.1,0.0140325,0.0137176,-2.8361,35,0.00172043,10,-3.89044e-05,-2.54728,0.648974,0.0909127,-10.0522,0.0137176,
2,0,0,1,0,68149.1,0.0125325,0.0121782,-2.81956,35,0.00161374,10,-3.43372e-05,-2.54982,0.608905,0.0968953,-10.6604,0.0121782,
2,0,0,1,0,68149.2,0.0110361,0.0107409,-2.79975,35,0.00150803,10,-3.00718e-05,-2.55288,0.627139,0.0940781,-10.3028,0.01074089,
2,0,0,1,0,68149.2,0.0095397,0.00924492,-2.78893,35,0.00140281,10,-2.57834e-05,-2.55456,1.00091,0.0589462,-6.42018,0.00924492,
2,0,0,1,0,68149.2,0.00803615,0.00770328,-2.77906,35,0.00129752,10,-2.14079e-05,-2.5561,0.760571,0.0775733,-8.41299,0.00770328,
2,0,0,1,0,68149.3,0.00654064,0.00616948,-2.76482,35,0.00119321,10,-1.70575e-05,-2.55833,0.783528,0.0753004,-8.12447,0.00616948,
2,0,0,1,0,68149.3,0.00504513,0.00473026,-2.7527,35,0.00108934,10,-1.3021e-05,-2.56024,0.948995,0.062171,-6.67986,0.00473026,
2,0,0,1,0,68149.4,0.00354515,0.00317837,-2.74647,35,0.000985623,10,-8.72931e-06,-2.56122,-66.5303,-0.000886814,0.0952463,0.00317837,
2,0,0,1,0,68149.4,0.00204518,0.00164101,-2.76975,35,0.000881884,10,-4.54519e-06,-2.55756,23.8818,0.00247051,-0.264479,0.00164101,
2,0,0,1,0,68149.4,0.000548773,0.000192079,-2.74445,35,0.000778185,10,-5.27151e-07,-2.56154, , , ,0.000192079,
2,0,0,1,0,68149.4,0.000177222,-0.000214999,-2.74257,35,0.000752497,10,5.8965e-07,-2.56184, , , ,-0.000214999,