File: Figure_codes/Fig_3-5/rawdata_trumpetplot_data/after 10th/20221101_1-115_003_TrumpetPlot_ParaChange_from10_every3_09_CV_C01_11.csv
mode,ox/red,error,control changes,counter inc.,time/s,control/V,Ewe/V,<I>/mA,cycle number,(Q-Qo)/C,I Range,P/W,log(|I|),Tafel slope mV/dec,alpha_eff,dI/d(E-IR),E-IR/V,
2,0,0,0,0,22854,2.44065e-05,-0.000363498,-5.34348,12,0.0000000E+000,10,1.94234e-06,-2.27218, , , ,-0.000363498,
2,0,0,1,0,22854,0.00179726,0.00140955,-2.53818,12,-6.57109e-05,10,-3.57769e-06,-2.59548, , , ,0.00140955,
2,0,0,1,0,22854,0.00379485,0.00351538,-0.700748,12,-9.60613e-05,10,-2.46339e-06,-3.15444,-0.0056963,-10.3576,738.124,0.00351538,
2,1,0,1,0,22854,0.00579244,0.00550502,0.484787,12,-9.71436e-05,10,2.66877e-06,-3.31445,0.0141956,4.15623,516.028,0.00550502,
2,1,0,1,0,22854,0.00779002,0.00743989,1.32441,12,-7.83134e-05,10,9.85348e-06,-2.87798,0.00651581,9.0549,371.81,0.00743989,
2,1,0,1,0,22854.1,0.00978761,0.00944131,1.94834,12,-4.51583e-05,10,1.83949e-05,-2.71034,0.0153464,3.84455,273.005,0.00944131,
2,1,0,1,0,22854.1,0.0117852,0.0114711,2.42494,12,-1.04028e-06,10,2.78167e-05,-2.6153,0.0254759,2.31591,211.971,0.0114711,
2,1,0,1,0,22854.1,0.0137828,0.0134249,2.79275,12,5.13211e-05,10,3.74925e-05,-2.55397,0.037942,1.555,166.537,0.0134249,
2,1,0,1,0,22854.1,0.0157804,0.0154664,3.09031,12,0.000110419,10,4.7796e-05,-2.51,0.0511157,1.15424,137.88,0.0154664,
2,1,0,1,0,22854.1,0.017778,0.0174342,3.34555,12,0.000174722,10,5.83269e-05,-2.47553,0.0658217,0.896361,115.925,0.0174342,
2,1,0,1,0,22854.2,0.0197755,0.0194134,3.54788,12,0.000243772,10,6.88765e-05,-2.45003,0.0840418,0.702031,96.9167,0.0194134,
2,1,0,1,0,22854.2,0.0217731,0.0214666,3.73636,12,0.000316775,10,8.02068e-05,-2.42755,0.0986495,0.598077,86.8207,0.0214666,
2,1,0,1,0,22854.2,0.0237707,0.0234334,3.89689,12,0.00039327,10,9.13174e-05,-2.40928,0.113346,0.520529,79.0773,0.0234334,
2,1,0,1,0,22854.2,0.0257683,0.0254734,4.0532,12,0.000472527,10,0.000103249,-2.3922,0.128635,0.458661,72.3347,0.0254734,
2,1,0,1,0,22854.2,0.0277659,0.0274671,4.18867,12,0.000555107,10,0.000115051,-2.37792,0.142617,0.413694,67.5924,0.0274671,
2,1,0,1,0,22854.3,0.0297635,0.0294613,4.32275,12,0.000640364,10,0.000127354,-2.36424,0.155087,0.38043,64.0617,0.0294613,
2,1,0,1,0,22854.3,0.0317611,0.0314438,4.44342,12,0.000728158,10,0.000139718,-2.35228,0.160898,0.366691,63.6611,0.0314438,
2,1,0,1,0,22854.3,0.0337586,0.0334484,4.57658,12,0.000818016,10,0.000153079,-2.33946,0.165447,0.356609,63.5934,0.0334484,
2,1,0,1,0,22854.3,0.0357562,0.0354418,4.69767,12,0.000910876,10,0.000166494,-2.32812,0.192715,0.306151,56.0082,0.0354418,
2,1,0,1,0,22854.3,0.0377538,0.0374452,4.80043,12,0.00100602,10,0.000179753,-2.31872,0.196129,0.300822,56.4617,0.0374452,
2,1,0,1,0,22854.4,0.0397514,0.0394265,4.92265,12,0.00110341,10,0.000194083,-2.3078,0.18068,0.326544,62.7528,0.0394265,
2,1,0,1,0,22854.4,0.041749,0.0414208,5.04991,12,0.00120274,10,0.000209171,-2.29672,0.205421,0.287215,56.4457,0.04142081,
2,1,0,1,0,22854.4,0.0437466,0.0434627,5.15048,12,0.0013049,10,0.000223854,-2.28815,0.223549,0.263924,53.1075,0.0434627,
2,1,0,1,0,22854.4,0.0457442,0.0454439,5.26357,12,0.00140914,10,0.000239197,-2.27872,0.222096,0.265651,54.5146,0.0454439,
2,1,0,1,0,22854.4,0.0477418,0.0474424,5.36743,12,0.0015156,10,0.000254644,-2.27023,0.220207,0.267929,56.209,0.0474424,
2,1,0,1,0,22854.5,0.0497484,0.0494561,5.48909,12,0.00162431,10,0.000271469,-2.2605,0.225457,0.261691,55.9402,0.0494561,
2,1,0,1,0,22854.5,0.0517369,0.0513996,5.5888,12,0.00173465,10,0.000287262,-2.25268,0.241283,0.244526,53.3808,0.0513996,
2,1,0,1,0,22854.5,0.0537345,0.0533988,5.69956,12,0.00184761,10,0.00030435,-2.24416,0.251416,0.234671,52.1428,0.0533988,
2,1,0,1,0,22854.5,0.0557321,0.0554366,5.7993,12,0.00196274,10,0.000321493,-2.23662,0.267855,0.220268,49.8493,0.0554366,
2,1,0,1,0,22854.5,0.0577206,0.0574069,5.89935,12,0.00207925,10,0.000338663,-2.2292,0.260164,0.22678,52.2346,0.0574069,
2,1,0,1,0,22854.6,0.0597273,0.0593867,6.00563,12,0.0021985,10,0.000356655,-2.22144,0.266789,0.221149,51.8102,0.0593867,
2,1,0,1,0,22854.6,0.0617249,0.0614304,6.10781,12,0.00231975,10,0.000375205,-2.21411,0.29802,0.197973,47.1315,0.0614304,
2,1,0,1,0,22854.6,0.0637224,0.0634189,6.19567,12,0.00244291,10,0.000392923,-2.20791,0.309529,0.190612,46.1195,0.06341894,
2,1,0,1,0,22854.6,0.06572,0.0654353,6.29252,12,0.00256793,10,0.000411752,-2.20118,0.283339,0.208231,51.1851,0.0654353,
2,1,0,1,0,22854.6,0.0677176,0.0674571,6.40237,12,0.00269448,10,0.000431885,-2.19366,0.314507,0.187595,46.7505,0.0674571,
2,1,0,1,0,22854.7,0.0697152,0.0694367,6.47959,12,0.00282346,10,0.000449921,-2.18845,0.351581,0.167813,42.4809,0.0694367,
2,1,0,1,0,22854.7,0.0717128,0.0714305,6.57116,12,0.00295409,10,0.000469382,-2.18236,0.332476,0.177457,45.4977,0.0714305,
2,1,0,1,0,22854.7,0.0737104,0.0734086,6.6603,12,0.00308653,10,0.000488923,-2.17651,0.34246,0.172283,44.7773,0.0734086,
2,1,0,1,0,22854.7,0.075708,0.075401,6.74895,12,0.00322013,10,0.000508878,-2.17076,0.373565,0.157938,41.5662,0.075401,
2,1,0,1,0,22854.7,0.0777056,0.0774325,6.82756,12,0.00335598,10,0.000528675,-2.16573,0.41077,0.143633,38.2593,0.0774325,
2,1,0,1,0,22854.8,0.0797031,0.079405,6.90214,12,0.00349342,10,0.000548064,-2.16102,0.421523,0.139969,37.7012,0.079405,
2,1,0,1,0,22854.8,0.0817007,0.081384,6.97653,12,0.00363244,10,0.000567778,-2.15636,0.411328,0.143438,39.0739,0.081384,
2,1,0,1,0,22854.8,0.0836983,0.0834087,7.05858,12,0.00377224,10,0.000588746,-2.15128,0.419652,0.140593,38.7023,0.0834087,
2,1,0,1,0,22854.8,0.0856959,0.0853813,7.13124,12,0.00391425,10,0.000608874,-2.14684,0.474894,0.124238,34.5561,0.0853813,
2,1,0,1,0,22854.8,0.0876935,0.0873809,7.19584,12,0.00405771,10,0.000628779,-2.14292,0.492577,0.119778,33.6506,0.0873809,
2,1,0,1,0,22854.9,0.0896911,0.0894008,7.2665,12,0.00420249,10,0.000649631,-2.13867,0.428268,0.137764,39.1043,0.0894008,
2,1,0,1,0,22854.9,0.0916887,0.0913506,7.35108,12,0.00434807,10,0.000671525,-2.13365,0.420144,0.140428,40.2658,0.0913506,
2,1,0,1,0,22854.9,0.0936862,0.0934216,7.4284,12,0.00449605,10,0.000693973,-2.1291,0.443998,0.132884,38.5217,0.0934216,
2,1,0,1,0,22854.9,0.0956838,0.0953568,7.5054,12,0.0046455,10,0.000715691,-2.12463,0.403158,0.146344,42.9053,0.0953568,
2,1,0,1,0,22854.9,0.0976814,0.0973458,7.59676,12,0.00479665,10,0.000739513,-2.11937,0.329824,0.178883,53.1382,0.0973458,
2,1,0,1,0,22854.9,0.099679,0.0993706,7.71869,12,0.00494909,10,0.000767011,-2.11246,0.334558,0.176352,53.0211,0.0993706,
2,1,0,1,0,22855,0.101677,0.101402,7.81182,12,0.00510453,10,0.000792132,-2.10725,0.336285,0.175446,53.5866,0.101402,
2,1,0,1,0,22855,0.103674,0.1034,7.93459,12,0.00526214,10,0.000820435,-2.10048,0.273167,0.215985,66.9437,0.1034,
2,1,0,1,0,22855,0.105672,0.105308,8.07332,12,0.00542235,10,0.000850185,-2.09295,0.258045,0.228642,72.0443,0.105308,
2,1,0,1,0,22855,0.107667,0.107288,8.2147,12,0.00558445,10,0.000881336,-2.08541,0.251218,0.234856,75.3822,0.107288,
2,1,0,1,0,22855,0.109667,0.109341,8.37732,12,0.00575044,10,0.000915983,-2.07689,0.242025,0.243776,79.6815,0.109341,
2,1,0,1,0,22855.1,0.111665,0.111346,8.53806,12,0.00591965,10,0.000950678,-2.06864,0.238681,0.247191,82.4088,0.111346,
2,1,0,1,0,22855.1,0.113662,0.113372,8.7095,12,0.00609225,10,0.000987411,-2.06001,0.239015,0.246846,83.8487,0.113372,
2,1,0,1,0,22855.1,0.11566,0.115323,8.87154,12,0.00626807,10,0.00102309,-2.052,0.238899,0.246966,85.5684,0.115323,
2,1,0,1,0,22855.1,0.117657,0.117334,9.04853,12,0.00644656,10,0.0010617,-2.04342,0.250021,0.23598,83.2333,0.117334,
2,1,0,1,0,22855.1,0.119655,0.11934,9.2059,12,0.00662924,10,0.00109863,-2.03593,0.273823,0.215467,77.3754,0.11934,
2,1,0,1,0,22855.2,0.121652,0.121309,9.35614,12,0.00681495,10,0.00113499,-2.0289,0.293873,0.200767,73.2844,0.121309,
2,1,0,1,0,22855.2,0.12365,0.123379,9.50187,12,0.0070036,10,0.00117233,-2.02219,0.300622,0.19626,72.7589,0.123379,
2,1,0,1,0,22855.2,0.125648,0.125264,9.64388,12,0.00719432,10,0.00120803,-2.01575,0.334051,0.17662,66.3896,0.125264,
2,1,0,1,0,22855.2,0.127645,0.127303,9.76242,12,0.00738854,10,0.00124279,-2.01044,0.391892,0.150552,57.3458,0.127303,
2,1,0,1,0,22855.2,0.129643,0.129332,9.87717,12,0.00758506,10,0.00127744,-2.00537,0.415514,0.141993,54.7057,0.129332,
2,1,0,1,0,22855.3,0.13164,0.131323,9.98229,12,0.00778384,10,0.0013109,-2.00077,0.450277,0.131031,51.0316,0.1313225,
2,1,0,1,0,22855.3,0.133638,0.133351,10.0823,12,0.00798373,10,0.00134449,-1.99644,0.480053,0.122903,48.3394,0.133351,
2,1,0,1,0,22855.3,0.135636,0.135296,10.1744,12,0.00818637,10,0.00137655,-1.99249,0.546277,0.108004,42.8546,0.135296,
2,1,0,1,0,22855.3,0.137633,0.137319,10.2523,12,0.0083907,10,0.00140783,-1.98918,0.664032,0.0888511,35.5277,0.137319,
2,1,0,1,0,22855.3,0.139631,0.13932,10.3173,12,0.00859654,10,0.00143742,-1.98643,0.72239,0.0816733,32.888,0.13932,
2,1,0,1,0,22855.4,0.141628,0.141319,10.3839,12,0.00880263,10,0.00146744,-1.98364,0.884695,0.0666896,26.9935,0.1413195,
2,1,0,1,0,22855.4,0.143626,0.143332,10.4256,12,0.00901083,10,0.00149432,-1.9819,1.76072,0.033509,13.6154,0.143332,
2,1,0,1,0,22855.4,0.145624,0.145354,10.4388,12,0.00921956,10,0.00151732,-1.98135,-4.19482,-0.014065,-5.71648,0.145354,
2,1,0,1,0,22855.4,0.147621,0.147327,10.4028,12,0.00942804,10,0.00153261,-1.98285,-1.04623,-0.0563929,-22.8742,0.147327,
2,1,0,1,0,22855.4,0.149619,0.149319,10.3481,12,0.00963461,10,0.00154517,-1.98514,-0.515413,-0.114471,-46.0612,0.149319,
2,1,0,1,0,22855.5,0.151616,0.151328,10.2185,12,0.00984035,10,0.00154635,-1.99061,-0.280708,-0.210183,-83.5201,0.151328,
2,1,0,1,0,22855.5,0.153614,0.153277,10.0175,12,0.0100428,10,0.00153546,-1.99924,-0.202963,-0.290693,-113.35,0.153277,
2,1,0,1,0,22855.5,0.155611,0.155306,9.76755,12,0.0102408,10,0.00151696,-2.01021,-0.163564,-0.360714,-137.114,0.155306,
2,1,0,1,0,22855.5,0.157609,0.157289,9.46741,12,0.0104323,10,0.00148912,-2.02377,-0.127754,-0.461825,-169.86,0.157289,
2,1,0,1,0,22855.5,0.159607,0.1593,9.08917,12,0.010618,10,0.00144791,-2.04148,-0.105505,-0.559215,-197.896,0.1593,
2,1,0,1,0,22855.6,0.161604,0.161271,8.67932,12,0.0107958,10,0.00139973,-2.06151,-0.0955737,-0.617325,-208.722,0.161271,
2,1,0,1,0,22855.6,0.163602,0.163315,8.25127,12,0.0109651,10,0.00134755,-2.08348,-0.0889879,-0.663012,-213.272,0.1633146,
2,1,0,1,0,22855.6,0.165606,0.1653,7.8202,12,0.0111259,10,0.00129268,-2.10678,-0.0843811,-0.699209,-213.427,0.1653,
2,1,0,1,0,22855.6,0.167597,0.167273,7.40654,12,0.0112774,10,0.00123891,-2.13038,-0.0847617,-0.696069,-201.426,0.167273,
2,1,0,1,0,22855.6,0.169595,0.169254,7.02364,12,0.0114217,10,0.00118878,-2.15344,-0.0881331,-0.669442,-183.685,0.169254,
2,1,0,1,0,22855.7,0.171592,0.171295,6.66776,12,0.0115586,10,0.00114215,-2.17602,-0.0927647,-0.636018,-165.897,0.171295,
2,1,0,1,0,22855.7,0.173581,0.173287,6.35458,12,0.0116881,10,0.00110117,-2.19691,-0.100678,-0.586025,-145.732,0.173287,
2,1,0,1,0,22855.7,0.175587,0.175293,6.08509,12,0.0118126,10,0.00106667,-2.21573,-0.110442,-0.534219,-127.089,0.175293,
2,1,0,1,0,22855.7,0.177585,0.177305,5.84401,12,0.011932,10,0.00103617,-2.23329,-0.117505,-0.502108,-114.759,0.177305,
2,1,0,1,0,22855.7,0.179582,0.179229,5.63336,12,0.0120467,10,0.00100966,-2.24923,-0.132486,-0.44533,-98.1316,0.179229,
2,1,0,1,0,22855.8,0.18158,0.181288,5.45308,12,0.0121575,10,0.000988581,-2.26336,-0.152775,-0.386189,-82.3796,0.181288,
2,1,0,1,0,22855.8,0.183578,0.183256,5.30166,12,0.0122646,10,0.000971558,-2.27559,-0.162886,-0.362217,-74.9497,0.183256,
2,1,0,1,0,22855.8,0.185575,0.185283,5.15368,12,0.0123691,10,0.00095489,-2.28788,-0.176373,-0.334518,-67.4275,0.185283,
2,1,0,1,0,22855.8,0.187573,0.18728,5.03032,12,0.012471,10,0.000942077,-2.2984,-0.202554,-0.29128,-57.2805,0.18728,
2,1,0,1,0,22855.8,0.18957,0.189262,4.92575,12,0.0125706,10,0.000932258,-2.30753,-0.219387,-0.268931,-51.7155,0.189262,
2,1,0,1,0,22855.9,0.191568,0.191233,4.82586,12,0.0126677,10,0.000922865,-2.31643,-0.240881,-0.244934,-46.1956,0.191233,
2,1,0,1,0,22855.9,0.193566,0.193266,4.74079,12,0.0127634,10,0.000916234,-2.32415,-0.273467,-0.215748,-39.9551,0.193266,
2,1,0,1,0,22855.9,0.195563,0.195244,4.6656,12,0.0128575,10,0.000910932,-2.33109,-0.28547,-0.206677,-37.6265,0.195244,
2,1,0,1,0,22855.9,0.197561,0.197281,4.58973,12,0.0129502,10,0.000905466,-2.33821,-0.322967,-0.182681,-32.7898,0.1972809,
2,1,0,1,0,22855.9,0.199558,0.199276,4.53341,12,0.013041,10,0.000903399,-2.34357,-0.371346,-0.158882,-28.1089,0.1992757,
2,1,0,1,0,22856,0.201556,0.201286,4.47716,12,0.0131312,10,0.000901188,-2.349,-0.357673,-0.164955,-28.8154,0.201286,
2,1,0,1,0,22856,0.203553,0.20324,4.41919,12,0.0132202,10,0.000898155,-2.35466,-0.384535,-0.153432,-26.4946,0.20324,
2,1,0,1,0,22856,0.205551,0.205235,4.37253,12,0.0133082,10,0.000897395,-2.35927,-0.617235,-0.0955877,-16.363,0.205235,
2,1,0,1,0,22856,0.207549,0.207249,4.35358,12,0.013395,10,0.000902276,-2.36115,-0.561521,-0.105072,-17.7826,0.207249,
2,1,0,1,0,22856,0.209546,0.209269,4.30078,12,0.0134816,10,0.000900023,-2.36645,-0.40055,-0.147297,-24.7428,0.209269,
2,1,0,1,0,22856.1,0.211544,0.211227,4.25515,12,0.0135672,10,0.000898804,-2.37108,-0.512663,-0.115085,-19.1475,0.211227,
2,1,0,1,0,22856.1,0.213541,0.213191,4.2257,12,0.0136521,10,0.00090088,-2.3741,-0.833177,-0.0708133,-11.6944,0.213191,
2,1,0,1,0,22856.1,0.215539,0.215259,4.20801,12,0.013736,10,0.000905811,-2.37592,-0.681533,-0.0865695,-14.1792,0.215259,
2,1,0,1,0,22856.1,0.217537,0.217251,4.16812,12,0.0138197,10,0.000905531,-2.38006,-0.577502,-0.102164,-16.6455,0.217251,
2,1,0,1,0,22856.1,0.219534,0.219239,4.14176,12,0.0139029,10,0.000908034,-2.38282,-0.744542,-0.0792433,-12.8109,0.219239,
2,1,0,1,0,22856.2,0.221532,0.221256,4.11683,12,0.0139856,10,0.000910871,-2.38544,-0.821583,-0.0718126,-11.5424,0.2212556,
2,1,0,1,0,22856.2,0.223525,0.223274,4.09518,12,0.0140673,10,0.000914348,-2.38773,-1.00485,-0.0587154,-9.39077,0.223274,
2,1,0,1,0,22856.2,0.225527,0.225233,4.07948,12,0.0141491,10,0.000918832,-2.3894,-1.01671,-0.05803,-9.2334,0.225233,
2,1,0,1,0,22856.2,0.227525,0.227197,4.05896,12,0.0142305,10,0.000922183,-2.39159,-0.755867,-0.078056,-12.3529,0.2271968,
2,1,0,1,0,22856.2,0.229522,0.229177,4.03076,12,0.0143115,10,0.000923756,-2.39461,-0.823467,-0.0716483,-11.2859,0.229177,
2,1,0,1,0,22856.3,0.23152,0.231235,4.01339,12,0.014392,10,0.000928035,-2.39649,-1.70305,-0.0346438,-5.43504,0.231235,
2,1,0,1,0,22856.3,0.233517,0.233174,4.00903,12,0.0144719,10,0.000934802,-2.39696,-1.44961,-0.0407005,-6.35463,0.233174,
2,1,0,1,0,22856.3,0.235515,0.235252,3.98786,12,0.0145519,10,0.000938151,-2.39926,-0.852702,-0.0691918,-10.7669,0.235252,
2,1,0,1,0,22856.3,0.237512,0.237215,3.96553,12,0.0146315,10,0.000940681,-2.4017,-1.12421,-0.0524814,-8.13501,0.237215,
2,1,0,1,0,22856.3,0.23951,0.239192,3.95581,12,0.0147108,10,0.000946198,-2.40276,-1.95748,-0.0301408,-4.65366,0.239192,
2,1,0,1,0,22856.4,0.241508,0.241229,3.94685,12,0.0147895,10,0.000952094,-2.40375,-1.20393,-0.049006,-7.53666,0.241229,
2,1,0,1,0,22856.4,0.243505,0.243214,3.9255,12,0.0148683,10,0.000954736,-2.40611,-1.58065,-0.0373264,-5.73281,0.2432141,
2,1,0,1,0,22856.4,0.245503,0.245223,3.92395,12,0.0149468,10,0.000962243,-2.40628,-2.10307,-0.0280542,-4.28852,0.245223,
2,1,0,1,0,22856.4,0.2475,0.247205,3.90838,12,0.0150252,10,0.000966171,-2.408,-1.49467,-0.0394735,-6.02638,0.247205,
2,1,0,1,0,22856.4,0.249498,0.249218,3.89987,12,0.0151029,10,0.00097192,-2.40895,-1.58567,-0.0372082,-5.65882,0.249218,
2,1,0,1,0,22856.5,0.251496,0.251246,3.88551,12,0.0151808,10,0.00097622,-2.41055,-1.39417,-0.0423191,-6.41986,0.2512463,
2,1,0,1,0,22856.5,0.253493,0.253193,3.87435,12,0.0152584,10,0.00098096,-2.4118,-1.33069,-0.044338,-6.70042,0.2531932,
2,1,0,1,0,22856.5,0.255491,0.255203,3.859,12,0.0153358,10,0.000984829,-2.41353,-2.74921,-0.0214607,-3.23953,0.255203,
2,1,0,1,0,22856.5,0.257488,0.25718,3.86144,12,0.0154127,10,0.000993086,-2.41325,-3.03284,-0.0194537,-2.92538,0.25718,
2,1,0,1,0,22856.5,0.259486,0.259202,3.8473,12,0.0154898,10,0.000997229,-2.41484,-1.17103,-0.0503828,-7.56302,0.2592023,
2,1,0,1,0,22856.6,0.261484,0.261164,3.83131,12,0.0155667,10,0.0010006,-2.41665,-1.40503,-0.0419921,-6.28462,0.261164,
2,1,0,1,0,22856.6,0.263481,0.263161,3.82242,12,0.0156433,10,0.00100591,-2.41766,-5.89371,-0.0100107,-1.49566,0.263161,
2,1,0,1,0,22856.6,0.265479,0.2652,3.82527,12,0.0157194,10,0.00101446,-2.41734,-1.98398,-0.0297382,-4.42591,0.2652,
2,1,0,1,0,22856.6,0.267476,0.267185,3.80461,12,0.0157958,10,0.00101654,-2.41969,-1.10673,-0.0533101,-7.92586,0.267185,
2,1,0,1,0,22856.6,0.269474,0.269164,3.79386,12,0.0158718,10,0.00102117,-2.42092,-2.10821,-0.0279858,-4.14643,0.269164,
2,1,0,1,0,22856.7,0.271471,0.271143,3.7882,12,0.0159477,10,0.00102714,-2.42157,-10.0735,-0.00585695,-0.866795,0.271143,
2,1,0,1,0,22856.7,0.273469,0.273193,3.79037,12,0.0160231,10,0.0010355,-2.42132,-1.90557,-0.0309619,-4.56642,0.273193,
2,1,0,1,0,22856.7,0.275467,0.275138,3.76996,12,0.0160987,10,0.00103726,-2.42366,-1.32785,-0.0444328,-6.55012,0.275138,
2,1,0,1,0,22856.7,0.277464,0.277178,3.76427,12,0.016174,10,0.00104337,-2.42432,-1.85725,-0.0317674,-4.66218,0.277178,
2,1,0,1,0,22856.7,0.279462,0.279197,3.75103,12,0.0162492,10,0.00104728,-2.42585,-1.65229,-0.035708,-5.23117,0.279197,
2,1,0,1,0,22856.8,0.281464,0.28118,3.74333,12,0.0163241,10,0.00105255,-2.42674,-2.3939,-0.024646,-3.60104,0.2811805,
2,1,0,1,0,22856.8,0.283457,0.283185,3.73667,12,0.0163986,10,0.00105817,-2.42751,-1.75684,-0.0335831,-4.89336,0.283185,
2,1,0,1,0,22856.8,0.285455,0.285172,3.7238,12,0.0164733,10,0.00106192,-2.42901,-1.32049,-0.0446803,-6.49322,0.285172,
2,1,0,1,0,22856.8,0.287452,0.287162,3.71085,12,0.0165477,10,0.00106561,-2.43053,-1.88546,-0.0312921,-4.5366,0.287162,
2,1,0,1,0,22856.8,0.28945,0.289146,3.70577,12,0.0166219,10,0.00107151,-2.43112,-2.24807,-0.0262447,-3.79314,0.289146,
2,1,0,1,0,22856.9,0.291447,0.29112,3.69584,12,0.0166957,10,0.00107593,-2.43229,-1.28952,-0.0457536,-6.59365,0.29112,
2,1,0,1,0,22856.9,0.293445,0.293125,3.67953,12,0.0167695,10,0.00107856,-2.43421,-1.51459,-0.0389546,-5.60151,0.293125,
2,1,0,1,0,22856.9,0.295442,0.295151,3.67326,12,0.0168431,10,0.00108416,-2.43495,-2.40985,-0.0244829,-3.50894,0.295151,
2,1,0,1,0,22856.9,0.29744,0.297191,3.66526,12,0.0169166,10,0.00108928,-2.43589,-1.82557,-0.0323187,-4.62139,0.297191,
2,1,0,1,0,22856.9,0.299438,0.299157,3.65474,12,0.0169896,10,0.00109334,-2.43714,-0.0268891,-2.19419,-285.587,0.299157,
2,1,0,1,0,22857,0.299737,0.299432,3.02525,12,0.0170192,10,0.000905857,-2.51924,0.00265121,22.254,1654.37,0.299432,
2,1,0,1,0,22857,0.29774,0.297449,0.829171,12,0.017054,10,0.000246636,-3.08136,0.00314714,18.7472,790.602,0.297449,
2,0,0,1,0,22857,0.295742,0.295405,-0.15887,12,0.0170596,10,-4.69309e-05,-3.79896,0.0565559,1.04322,381.178,0.295405,
2,0,0,1,0,22857,0.293745,0.293427,-0.703929,12,0.0170505,10,-0.000206552,-3.15247,-0.00486446,-12.1288,221.644,0.293427,
2,0,0,1,0,22857,0.291747,0.29144,-1.03755,12,0.0170329,10,-0.000302385,-2.98399,-0.0157507,-3.74586,140.009,0.29144,
2,0,0,1,0,22857.1,0.289754,0.289411,-1.26623,12,0.01701,10,-0.000366461,-2.89749,-0.0291402,-2.0247,96.506,0.289411,
2,0,0,1,0,22857.1,0.287752,0.287419,-1.42561,12,0.016983,10,-0.000409747,-2.846,-0.0448631,-1.31511,72.122,0.287419,
2,0,0,1,0,22857.1,0.285754,0.285421,-1.55401,12,0.0169533,10,-0.000443546,-2.80855,-0.0618791,-0.953472,57.1719,0.285421,
2,0,0,1,0,22857.1,0.283757,0.283445,-1.65284,12,0.0169212,10,-0.000468488,-2.78177,-0.0789322,-0.747477,48.0687,0.283445,
2,0,0,1,0,22857.1,0.281759,0.281442,-1.74526,12,0.0168872,10,-0.000491191,-2.75814,-0.093294,-0.63241,42.869,0.281442,
2,0,0,1,0,22857.2,0.279761,0.279457,-1.82381,12,0.0168517,10,-0.000509677,-2.73902,-0.113958,-0.517735,36.7263,0.279457,
2,0,0,1,0,22857.2,0.277764,0.277447,-1.89197,12,0.0168145,10,-0.000524923,-2.72308,-0.131361,-0.449144,33.112,0.2774474,
2,0,0,1,0,22857.2,0.275766,0.275472,-1.95576,12,0.0167761,10,-0.000538756,-2.70869,-0.154209,-0.382598,29.1123,0.275472,
2,0,0,1,0,22857.2,0.273769,0.273441,-2.00862,12,0.0167365,10,-0.000549238,-2.6971,-0.166212,-0.354968,27.8624,0.273441,
2,0,0,1,0,22857.2,0.271771,0.271451,-2.06778,12,0.016696,10,-0.000561302,-2.6845,-0.164587,-0.358473,28.8954,0.271451,
2,0,0,1,0,22857.3,0.269774,0.269472,-2.12329,12,0.0166541,10,-0.000572168,-2.67299,-0.190036,-0.310467,25.6692,0.269472,
2,0,0,1,0,22857.3,0.267776,0.267466,-2.17008,12,0.0166113,10,-0.000580423,-2.66352,-0.233813,-0.252338,21.3284,0.267466,
2,0,0,1,0,22857.3,0.265778,0.265463,-2.2088,12,0.0165677,10,-0.000586355,-2.65584,-0.247809,-0.238087,20.5403,0.265463,
2,0,0,1,0,22857.3,0.263781,0.263497,-2.25159,12,0.0165233,10,-0.000593289,-2.64751,-0.24464,-0.24117,21.1847,0.263497,
2,0,0,1,0,22857.3,0.261783,0.261474,-2.29331,12,0.0164779,10,-0.00059964,-2.63954,-0.279741,-0.21091,18.8442,0.2614738,
2,0,0,1,0,22857.4,0.259786,0.259466,-2.32757,12,0.0164318,10,-0.000603925,-2.6331,-0.271626,-0.217211,19.7749,0.259466,
2,0,0,1,0,22857.4,0.257788,0.257462,-2.37265,12,0.0163849,10,-0.000610866,-2.62477,-0.265161,-0.222506,20.5661,0.257462,
2,0,0,1,0,22857.4,0.25579,0.255476,-2.40961,12,0.0163374,10,-0.000615599,-2.61805,-0.333854,-0.176724,16.5925,0.255476,
2,0,0,1,0,22857.4,0.253793,0.253452,-2.43917,12,0.0162891,10,-0.000618214,-2.61276,-0.393362,-0.149989,14.2719,0.253452,
2,0,0,1,0,22857.4,0.251795,0.251462,-2.46691,12,0.0162401,10,-0.000620333,-2.60785,-0.350494,-0.168334,16.2351,0.251462,
2,0,0,1,0,22857.5,0.249798,0.249481,-2.50365,12,0.0161905,10,-0.000624613,-2.60143,-0.337057,-0.175045,17.0835,0.249481,
2,0,0,1,0,22857.5,0.2478,0.247485,-2.53484,12,0.0161404,10,-0.000627336,-2.59605,-0.354753,-0.166313,16.4655,0.247485,
2,0,0,1,0,22857.5,0.245802,0.245437,-2.57024,12,0.0160895,10,-0.000630831,-2.59003,-0.376992,-0.156502,15.6739,0.245437,
2,0,0,1,0,22857.5,0.243805,0.243466,-2.59784,12,0.0160378,10,-0.000632486,-2.58539,-0.465914,-0.126633,12.827,0.243466,
2,0,0,1,0,22857.5,0.241807,0.241491,-2.62085,12,0.0159857,10,-0.000632912,-2.58156,-0.394227,-0.14966,15.3496,0.241491,
2,0,0,1,0,22857.6,0.23981,0.239518,-2.65844,12,0.0159333,10,-0.000636744,-2.57537,-0.392449,-0.150338,15.5591,0.239518,
2,0,0,1,0,22857.6,0.237812,0.237487,-2.68315,12,0.01588,10,-0.000637214,-2.57135,-0.496009,-0.118949,12.458,0.237487,
2,0,0,1,0,22857.6,0.235815,0.235462,-2.70898,12,0.0158261,10,-0.00063786,-2.56719,-0.441882,-0.13352,14.1266,0.235462,
2,0,0,1,0,22857.6,0.233817,0.233532,-2.73903,12,0.0157718,10,-0.00063965,-2.5624,-0.434288,-0.135854,14.5138,0.233532,
2,0,0,1,0,22857.6,0.231815,0.231527,-2.76608,12,0.0157168,10,-0.000640423,-2.55814,-0.443435,-0.133052,14.3724,0.231527,
2,0,0,1,0,22857.7,0.229822,0.229506,-2.79688,12,0.0156615,10,-0.000641902,-2.55333,-0.522698,-0.112876,12.294,0.229506,
2,0,0,1,0,22857.7,0.227824,0.227492,-2.81569,12,0.0156056,10,-0.000640546,-2.55042,-0.610083,-0.0967082,10.6356,0.227492,
2,0,0,1,0,22857.7,0.225827,0.225531,-2.83916,12,0.0155491,10,-0.000640319,-2.54681,-0.494314,-0.119357,13.2383,0.225531,
2,0,0,1,0,22857.7,0.223829,0.223509,-2.86841,12,0.0154921,10,-0.000641117,-2.54236,-0.479798,-0.122969,13.7572,0.223509,
2,0,0,1,0,22857.7,0.221831,0.221524,-2.89429,12,0.0154348,10,-0.000641154,-2.53846,-0.540221,-0.109215,12.3302,0.221524,
2,0,0,1,0,22857.8,0.219834,0.219536,-2.91741,12,0.0153768,10,-0.000640475,-2.535,-0.55476,-0.106352,12.1136,0.219536,
2,0,0,1,0,22857.8,0.217836,0.21751,-2.9429,12,0.0153182,10,-0.000640113,-2.53122,-0.560015,-0.105354,12.0962,0.21751,
2,0,0,1,0,22857.8,0.215839,0.215467,-2.96663,12,0.0152591,10,-0.000639209,-2.52774,-0.45225,-0.130459,15.1376,0.215467,
2,0,0,1,0,22857.8,0.213841,0.213498,-3.00364,12,0.0151997,10,-0.000641272,-2.52235,-0.468288,-0.125991,14.7289,0.213498,
2,0,0,1,0,22857.8,0.211843,0.211534,-3.02455,12,0.0151395,10,-0.000639796,-2.51934,-0.714037,-0.0826287,9.74793,0.211534,
2,0,0,1,0,22857.9,0.209846,0.209547,-3.04215,12,0.0150789,10,-0.000637475,-2.51682,-0.636667,-0.0926701,11.0185,0.209547,
2,0,0,1,0,22857.9,0.207848,0.207518,-3.06881,12,0.0150178,10,-0.000636831,-2.51303,-0.396629,-0.148754,17.8681,0.2075177,
2,0,0,1,0,22857.9,0.205851,0.205536,-3.11382,12,0.0149562,10,-0.000640003,-2.50671,-0.48002,-0.122912,14.8634,0.205536,
2,0,0,1,0,22857.9,0.203853,0.203501,-3.12851,12,0.0148939,10,-0.000636654,-2.50466,-0.654394,-0.0901598,11.0332,0.203501,
2,0,0,1,0,22857.9,0.201856,0.201573,-3.15755,12,0.0148311,10,-0.000636477,-2.50065,-0.520423,-0.113369,13.9637,0.201573,
2,0,0,1,0,22858,0.199858,0.199546,-3.18374,12,0.0147678,10,-0.000635301,-2.49706,-0.472837,-0.124779,15.5282,0.1995458,
2,0,0,1,0,22858,0.19786,0.197545,-3.22009,12,0.0147041,10,-0.000636114,-2.49213,-0.529788,-0.111365,13.9585,0.197545,
2,0,0,1,0,22858,0.195863,0.195539,-3.23966,12,0.0146397,10,-0.000633481,-2.4895,-0.551018,-0.107075,13.5698,0.195539,
2,0,0,1,0,22858,0.193865,0.193522,-3.27469,12,0.0145746,10,-0.000633724,-2.48483,-0.476448,-0.123833,15.8098,0.193522,
2,0,0,1,0,22858,0.191868,0.191519,-3.30322,12,0.0145089,10,-0.00063263,-2.48106,-0.458606,-0.128651,16.6067,0.191519,
2,0,0,1,0,22858.1,0.18987,0.189551,-3.34063,12,0.014443,10,-0.000633221,-2.47617,-0.473741,-0.124541,16.211,0.189551,
2,0,0,1,0,22858.1,0.187872,0.187548,-3.3676,12,0.014376,10,-0.000631586,-2.47268,-0.529093,-0.111511,14.6657,0.187548,
2,0,0,1,0,22858.1,0.185875,0.185545,-3.39938,12,0.0143084,10,-0.000630739,-2.4686,-0.533955,-0.110496,14.6475,0.185545,
2,0,0,1,0,22858.1,0.183877,0.183567,-3.42591,12,0.0142402,10,-0.000628884,-2.46522,-0.384261,-0.153542,20.6143,0.183567,
2,0,0,1,0,22858.1,0.18188,0.181573,-3.48127,12,0.0141716,10,-0.000632104,-2.45826,-0.360401,-0.163706,22.1701,0.181573,
2,0,0,1,0,22858.2,0.179882,0.179566,-3.5146,12,0.0141018,10,-0.000631104,-2.45412,-0.483981,-0.121905,16.7226,0.179566,
2,0,0,1,0,22858.2,0.177885,0.177533,-3.54882,12,0.0140312,10,-0.000630034,-2.44992,-0.436014,-0.135317,18.76,0.177533,
2,0,0,1,0,22858.2,0.175887,0.175525,-3.59042,12,0.0139599,10,-0.000630208,-2.44485,-0.352294,-0.167474,23.4959,0.175525,
2,0,0,1,0,22858.2,0.173896,0.173597,-3.6413,12,0.0138881,10,-0.00063212,-2.43874,-0.332435,-0.177478,25.2154,0.173597,
2,0,0,1,0,22858.2,0.171892,0.171538,-3.69096,12,0.0138147,10,-0.000633139,-2.43286,-0.334624,-0.176317,25.4084,0.171538,
2,0,0,1,0,22858.3,0.169894,0.169549,-3.74417,12,0.0137405,10,-0.000634819,-2.42664,-0.296004,-0.199322,29.1608,0.169549,
2,0,0,1,0,22858.3,0.167897,0.167557,-3.80705,12,0.0136652,10,-0.000637896,-2.41941,-0.284569,-0.207331,30.7921,0.167557,
2,0,0,1,0,22858.3,0.165899,0.165544,-3.86749,12,0.0135885,10,-0.000640239,-2.41257,-0.285488,-0.206664,31.2041,0.1655439,
2,0,0,1,0,22858.3,0.163901,0.163573,-3.93135,12,0.013511,10,-0.000643063,-2.40546,-0.251672,-0.234432,36.0394,0.163573,
2,0,0,1,0,22858.3,0.161904,0.161546,-4.01157,12,0.0134316,10,-0.000648053,-2.39669,-0.235496,-0.250535,39.2015,0.1615459,
2,0,0,1,0,22858.4,0.159906,0.159569,-4.08832,12,0.0133507,10,-0.000652369,-2.38846,-0.220109,-0.268049,42.8435,0.159569,
2,0,0,1,0,22858.4,0.157909,0.157601,-4.18058,12,0.0132681,10,-0.000658864,-2.37876,-0.190717,-0.30936,50.5589,0.157601,
2,0,0,1,0,22858.4,0.155911,0.155608,-4.28858,12,0.0131838,10,-0.000667338,-2.36769,-0.173742,-0.339585,56.9051,0.155608,
2,0,0,1,0,22858.4,0.153913,0.153587,-4.409,12,0.0130969,10,-0.000677165,-2.35566,-0.169558,-0.347963,59.8658,0.153587,
2,0,0,1,0,22858.4,0.151916,0.151568,-4.53044,12,0.0130076,10,-0.00068667,-2.34386,-0.150761,-0.391348,69.4421,0.151568,
2,0,0,1,0,22858.5,0.149918,0.14958,-4.68723,12,0.0129155,10,-0.000701118,-2.32908,-0.132373,-0.445709,81.6018,0.14958,
2,0,0,1,0,22858.5,0.147921,0.147582,-4.85572,12,0.0128207,10,-0.000716617,-2.31375,-0.127662,-0.462158,87.6109,0.147582,
2,0,0,1,0,22858.5,0.145923,0.145649,-5.03166,12,0.0127219,10,-0.000732856,-2.29829,-0.116496,-0.506455,99.8054,0.145649,
2,0,0,1,0,22858.5,0.143926,0.143647,-5.2484,12,0.0126192,10,-0.00075392,-2.27997,-0.106063,-0.556274,114.189,0.1436474,
2,0,0,1,0,22858.5,0.141928,0.141593,-5.49476,12,0.0125119,10,-0.000778022,-2.26005,-0.10152,-0.581166,124.69,0.141593,
2,0,0,1,0,22858.6,0.13993,0.139589,-5.75438,12,0.0124,10,-0.000803251,-2.24,-0.0968232,-0.609358,137.018,0.139589,
2,0,0,1,0,22858.6,0.137933,0.137637,-6.03687,12,0.0122824,10,-0.000830897,-2.21919,-0.0951385,-0.620149,146.246,0.137637,
2,0,0,1,0,22858.6,0.135935,0.135583,-6.34027,12,0.0121587,10,-0.000859635,-2.19789,-0.0946337,-0.623456,154.331,0.135583,
2,0,0,1,0,22858.6,0.133938,0.133606,-6.65896,12,0.0120288,10,-0.000889678,-2.17659,-0.0946669,-0.623238,161.884,0.133606,
2,0,0,1,0,22858.6,0.13194,0.131624,-6.98114,12,0.0118933,10,-0.000918889,-2.15607,-0.0974909,-0.605185,164.939,0.131624,
2,0,0,1,0,22858.7,0.129942,0.129608,-7.31836,12,0.0117503,10,-0.000948519,-2.13559,-0.100368,-0.587838,167.774,0.129608,
2,0,0,1,0,22858.7,0.127945,0.127605,-7.65545,12,0.0116006,10,-0.000976876,-2.11603,-0.106459,-0.554206,165.309,0.127605,
2,0,0,1,0,22858.7,0.125947,0.125624,-7.97699,12,0.0114443,10,-0.0010021,-2.09816,-0.113199,-0.521208,162.187,0.125624,
2,0,0,1,0,22858.7,0.12395,0.123631,-8.30001,12,0.0112824,10,-0.00102614,-2.08092,-0.123514,-0.47768,154.418,0.123631,
2,0,0,1,0,22858.7,0.121952,0.121608,-8.59714,12,0.0111134,10,-0.00104548,-2.06565,-0.137499,-0.429094,143.706,0.121608,
2,0,0,1,0,22858.8,0.119955,0.119671,-8.86904,12,0.0109388,10,-0.00106137,-2.05212,-0.150492,-0.392047,135.617,0.119671,
2,0,0,1,0,22858.8,0.117957,0.117638,-9.13556,12,0.0107587,10,-0.00107469,-2.03926,-0.165468,-0.356565,126.987,0.117638,
2,0,0,1,0,22858.8,0.115955,0.115594,-9.38686,12,0.0105735,10,-0.00108506,-2.02748,-0.187051,-0.315422,115.273,0.115594,
2,0,0,1,0,22858.8,0.113962,0.113638,-9.59658,12,0.0103845,10,-0.00109054,-2.01788,-0.212146,-0.278111,104.09,0.1136384,
2,0,0,1,0,22858.8,0.111964,0.11166,-9.79636,12,0.0101906,10,-0.00109386,-2.00894,-0.236229,-0.249757,95.3825,0.11166,
2,0,0,1,0,22858.9,0.109967,0.10965,-9.97705,12,0.00999286,10,-0.00109398,-2.001,-0.270814,-0.217861,84.7216,0.10965,
2,0,0,1,0,22858.9,0.107969,0.107671,-10.1343,12,0.00979179,10,-0.00109117,-1.99421,-0.320558,-0.184054,72.708,0.107671,
2,0,0,1,0,22858.9,0.105971,0.105639,-10.2687,12,0.00958885,10,-0.00108477,-1.98849,-0.394179,-0.149678,59.8954,0.105639,
2,0,0,1,0,22858.9,0.103974,0.103676,-10.3736,12,0.00938246,10,-0.00107549,-1.98407,-0.514514,-0.114671,46.3693,0.103676,
2,0,0,1,0,22858.9,0.101976,0.101633,-10.4544,12,0.00917419,10,-0.00106252,-1.9807,-0.749011,-0.0787706,32.0882,0.101633,
2,0,0,1,0,22859,0.0999786,0.0996523,-10.5027,12,0.00896472,10,-0.00104662,-1.9787,-1.15331,-0.0511572,20.955,0.0996523,
2,0,0,1,0,22859,0.0979811,0.0976744,-10.5373,12,0.00875536,10,-0.00102923,-1.97727,-2.61389,-0.0225717,9.2682,0.0976744,
2,0,0,1,0,22859,0.0959835,0.0956469,-10.5398,12,0.00854461,10,-0.0010081,-1.97717,3.56387,0.016555,-6.79932,0.0956469,
2,0,0,1,0,22859,0.0939859,0.0936855,-10.5102,12,0.00833417,10,-0.000984656,-1.97839,1.24144,0.0475254,-19.4763,0.0936855,
2,0,0,1,0,22859,0.0919883,0.0916345,-10.4617,12,0.00812451,10,-0.000958649,-1.9804,0.914983,0.0644821,-26.3158,0.0916345,
2,0,0,1,0,22859.1,0.0899907,0.0896588,-10.4043,12,0.00791689,10,-0.000932834,-1.98279,0.602072,0.0979949,-39.7076,0.0896588,
2,0,0,1,0,22859.1,0.0879931,0.0876624,-10.3039,12,0.00770987,10,-0.000903269,-1.987,0.469413,0.125689,-50.5371,0.0876624,
2,0,0,1,0,22859.1,0.0859955,0.0856513,-10.2017,12,0.00750488,10,-0.000873792,-1.99133,0.429285,0.137438,-54.6815,0.0856513,
2,0,0,1,0,22859.1,0.083998,0.083678,-10.0861,12,0.00730212,10,-0.000843981,-1.99628,0.384022,0.153637,-60.4501,0.083678,
2,0,0,1,0,22859.1,0.0820004,0.0816987,-9.9628,12,0.00710267,10,-0.000813947,-2.00162,0.37238,0.15844,-61.6015,0.0816987,
2,0,0,1,0,22859.2,0.0800028,0.0796779,-9.83966,12,0.00690467,10,-0.000784003,-2.00702,0.38553,0.153036,-58.7978,0.0796779,
2,0,0,1,0,22859.2,0.0780052,0.0776986,-9.7276,12,0.00670913,10,-0.000755821,-2.01199,0.392503,0.150317,-57.052,0.0776986,
2,0,0,1,0,22859.2,0.0760076,0.0756808,-9.61161,12,0.00651588,10,-0.000727414,-2.0172,0.418895,0.140847,-52.8866,0.0756808,
2,0,0,1,0,22859.2,0.07401,0.073694,-9.51581,12,0.00632579,10,-0.000701258,-2.02155,0.438155,0.134655,-49.985,0.073694,
2,0,0,1,0,22859.2,0.0720124,0.0716916,-9.41221,12,0.00613664,10,-0.000674776,-2.02631,0.462846,0.127472,-46.8689,0.0716916,
2,0,0,1,0,22859.3,0.0700148,0.06967,-9.32721,12,0.00594935,10,-0.000649827,-2.03025,0.494961,0.119201,-43.3805,0.06967,
2,0,0,1,0,22859.3,0.0680173,0.0676841,-9.23836,12,0.00576385,10,-0.00062529,-2.0344,0.620805,0.0950378,-34.3414,0.0676841,
2,0,0,1,0,22859.3,0.0660106,0.0656994,-9.19086,12,0.00557978,10,-0.000603834,-2.03664,0.674996,0.0874079,-31.2998,0.0656994,
2,0,0,1,0,22859.3,0.0640221,0.0636732,-9.11282,12,0.00539781,10,-0.000580243,-2.04035,0.557592,0.105812,-37.6426,0.0636732,
2,0,0,1,0,22859.3,0.0620245,0.0617072,-9.04058,12,0.00521639,10,-0.000557869,-2.0438,0.595586,0.0990622,-34.9611,0.06170721,
2,0,0,1,0,22859.4,0.0600269,0.059691,-8.9736,12,0.00503632,10,-0.000535643,-2.04703,0.69909,0.0843954,-29.5814,0.059691,
2,0,0,1,0,22859.4,0.0580361,0.0577032,-8.92213,12,0.00485837,10,-0.000514835,-2.04953,0.700929,0.084174,-29.2856,0.05770316,
2,0,0,1,0,22859.4,0.0560317,0.055686,-8.85631,12,0.00468057,10,-0.000493172,-2.05275,0.665453,0.0886615,-30.6603,0.055686,
2,0,0,1,0,22859.4,0.0540342,0.0537174,-8.79993,12,0.00450407,10,-0.000472709,-2.05552,0.681467,0.0865779,-29.724,0.0537174,
2,0,0,1,0,22859.4,0.0520366,0.0517071,-8.73804,12,0.00432873,10,-0.000451819,-2.05859,0.630934,0.0935121,-31.8802,0.0517071,
2,0,0,1,0,22859.5,0.050039,0.0496878,-8.67146,12,0.00415462,10,-0.000430866,-2.06191,0.682497,0.0864472,-29.2844,0.0496878,
2,0,0,1,0,22859.5,0.0480414,0.0477544,-8.62229,12,0.00398251,10,-0.000411752,-2.06438,0.707625,0.0833775,-28.0359,0.0477544,
2,0,0,1,0,22859.5,0.0460438,0.045734,-8.56062,12,0.00381075,10,-0.000391511,-2.06749,0.610488,0.096644,-32.2754,0.045734,
2,0,0,1,0,22859.5,0.0440462,0.0437324,-8.49248,12,0.00364034,10,-0.000371396,-2.07097,0.571792,0.103184,-34.1964,0.0437324,
2,0,0,1,0,22859.5,0.0420486,0.0417244,-8.4235,12,0.0034713,10,-0.000351466,-2.07451,0.613954,0.0960984,-31.6106,0.0417244,
2,0,0,1,0,22859.6,0.040051,0.0396986,-8.36497,12,0.00330426,10,-0.000332078,-2.07754,0.596569,0.0988988,-32.2644,0.0396986,
2,0,0,1,0,22859.6,0.0380535,0.0377534,-8.29538,12,0.00313769,10,-0.000313179,-2.08116,0.521617,0.11311,-36.6039,0.03775344,
2,0,0,1,0,22859.6,0.0360559,0.0357276,-8.21961,12,0.00297266,10,-0.000293667,-2.08515,0.516629,0.114202,-36.6446,0.0357276,
2,0,0,1,0,22859.6,0.0340583,0.0337551,-8.14886,12,0.00280904,10,-0.000275066,-2.0889,0.526582,0.112043,-35.6246,0.0337551,
2,0,0,1,0,22859.6,0.0320607,0.0316658,-8.07492,12,0.0026477,10,-0.000255699,-2.09286,0.463813,0.127206,-40.0539,0.0316658,
2,0,0,1,0,22859.7,0.0300631,0.0297372,-7.98793,12,0.00248716,10,-0.000237539,-2.09757,0.42132,0.140036,-43.659,0.0297372,
2,0,0,1,0,22859.7,0.0280655,0.0277251,-7.90287,12,0.00232834,10,-0.000219108,-2.10222,0.429639,0.137324,-42.3545,0.0277251,
2,0,0,1,0,22859.7,0.0260679,0.025738,-7.81855,12,0.00217121,10,-0.000201234,-2.10687,0.412587,0.143,-43.6221,0.025738,
2,0,0,1,0,22859.7,0.0240704,0.023775,-7.73056,12,0.00201655,10,-0.000183794,-2.11179,0.394708,0.149478,-45.0825,0.023775,
2,0,0,1,0,22859.7,0.0220728,0.021737,-7.63817,12,0.00186296,10,-0.000166031,-2.11701,0.387067,0.152429,-45.4396,0.021737,
2,0,0,1,0,22859.8,0.0200752,0.0197363,-7.54704,12,0.00171122,10,-0.000148951,-2.12222,0.363593,0.162269,-47.7633,0.0197363,
2,0,0,1,0,22859.8,0.0180776,0.0177326,-7.44691,12,0.00156131,10,-0.000132053,-2.12802,0.395627,0.14913,-43.4176,0.0177326,
2,0,0,1,0,22859.8,0.01608,0.0157404,-7.37354,12,0.00141399,10,-0.000116062,-2.13232,0.421408,0.140007,-40.2533,0.0157404,
2,0,0,1,0,22859.8,0.0140824,0.0137744,-7.28758,12,0.00126749,10,-0.000100382,-2.13742,0.385376,0.153097,-43.5404,0.0137744,
2,0,0,1,0,22859.8,0.0120848,0.0117906,-7.20157,12,0.00112271,10,-8.49105e-05,-2.14257,0.396738,0.148713,-41.8045,0.0117906,
2,0,0,1,0,22859.9,0.0100872,0.00974241,-7.11902,12,0.000979693,10,-6.93564e-05,-2.14758,0.431475,0.13674,-38.024,0.00974241,
2,0,0,1,0,22859.9,0.00809193,0.00778852,-7.04939,12,0.00083886,10,-5.49044e-05,-2.15185,0.455412,0.129553,-35.6366,0.00778852,
2,0,0,1,0,22859.9,0.00609208,0.00578782,-6.97809,12,0.000698598,10,-4.0388e-05,-2.15626,0.46033,0.128169,-34.912,0.00578782,
2,0,0,1,0,22859.9,0.00409449,0.00380144,-6.9102,12,0.000559787,10,-2.62687e-05,-2.16051,0.959008,0.0615219,-16.6736,0.00380144,
2,0,0,1,0,22859.9,0.0020969,0.0017565,-6.91088,12,0.000422098,10,-1.21389e-05,-2.16047,0.834365,0.0707124,-18.9629,0.0017565,
2,0,0,1,0,22860,9.14991e-05,-0.000283679,-6.83273,12,0.000284864,10,1.9383e-06,-2.16541,0.489414,0.120552,-32.2074,-0.000283679,
2,0,0,1,0,22860,-0.00189827,-0.00227928,-6.78089,12,0.000149463,10,1.54556e-05,-2.16871,0.673572,0.0875928,-23.1982,-0.00227928,
2,0,0,1,0,22860,-0.00389586,-0.00429258,-6.73973,12,1.43909e-05,10,2.89309e-05,-2.17136,0.808338,0.0729892,-19.2056,-0.00429258,
2,0,0,1,0,22860,-0.00589345,-0.00629509,-6.70377,12,-0.000119952,10,4.22008e-05,-2.17368,0.855832,0.0689388,-18.0368,-0.00629509,
2,0,0,1,0,22860,-0.00789103,-0.00825279,-6.6683,12,-0.00025363,10,5.50321e-05,-2.17598,1.41561,0.0416782,-10.8693,-0.00825279,
2,0,0,1,0,22860.1,-0.00988862,-0.0102316,-6.66098,12,-0.000386283,10,6.81528e-05,-2.17646,3.77249,0.0156395,-4.06508,-0.0102316,
2,0,0,1,0,22860.1,-0.0118862,-0.0122783,-6.65194,12,-0.000519328,10,8.16747e-05,-2.17705,2.59162,0.0227657,-5.90759,-0.0122783,
2,0,0,1,0,22860.1,-0.0138838,-0.0142348,-6.63733,12,-0.00065217,10,9.4481e-05,-2.17801,4.92575,0.0119779,-3.10661,-0.0142348,
2,0,0,1,0,22860.1,-0.0158814,-0.0162706,-6.63954,12,-0.000784783,10,0.000108029,-2.17786,-4.48101,-0.0131667,3.41411,-0.0162706,
2,0,0,1,0,22860.1,-0.017879,-0.0182135,-6.65092,12,-0.000916941,10,0.000121136,-2.17712,-4.54475,-0.012982,3.36732,-0.0182135,
2,0,0,1,0,22860.2,-0.0198766,-0.0202803,-6.65304,12,-0.00104988,10,0.000134926,-2.17698,-5.34192,-0.0110447,2.86932,-0.02028029,
2,0,0,1,0,22860.2,-0.0218741,-0.0222662,-6.66254,12,-0.00118292,10,0.00014835,-2.17636,-2.1183,-0.0278526,7.24754,-0.0222662,
2,0,0,1,0,22860.2,-0.0238717,-0.0242666,-6.68193,12,-0.00131633,10,0.000162148,-2.1751,-1.22872,-0.0480174,12.532,-0.02426664,
2,0,0,1,0,22860.2,-0.0258693,-0.0262437,-6.71239,12,-0.00144959,10,0.000176158,-2.17312,-1.27866,-0.0461419,12.0753,-0.0262437,
2,0,0,1,0,22860.2,-0.0278669,-0.0281959,-6.72938,12,-0.00158391,10,0.000189741,-2.17203,-1.23763,-0.0476716,12.5347,-0.02819586,
2,0,0,1,0,22860.3,-0.0298645,-0.0302373,-6.76245,12,-0.00171878,10,0.000204478,-2.1699,-0.96699,-0.0610141,16.1013,-0.03023733,
2,0,0,1,0,22860.3,-0.0318621,-0.0322372,-6.79445,12,-0.00185427,10,0.000219034,-2.16785,-0.909603,-0.0648635,17.2056,-0.0322372,
2,0,0,1,0,22860.3,-0.0338597,-0.0342398,-6.83131,12,-0.00198976,10,0.000233903,-2.1655,-0.855762,-0.0689444,18.3811,-0.0342398,
2,0,0,1,0,22860.3,-0.0358573,-0.036263,-6.86845,12,-0.00212671,10,0.000249071,-2.16314,-0.723845,-0.0815092,21.8695,-0.036263,
2,0,0,1,0,22860.3,-0.0378548,-0.0382377,-6.91875,12,-0.00226452,10,0.000264557,-2.15997,-0.76933,-0.0766901,20.6797,-0.0382377,
2,0,0,1,0,22860.4,-0.0398524,-0.0402319,-6.95052,12,-0.00240313,10,0.000279633,-2.15798,-0.696334,-0.0847295,23.03,-0.0402319,
2,0,0,1,0,22860.4,-0.04185,-0.0422272,-7.01063,12,-0.00254191,10,0.000296039,-2.15424,-0.596479,-0.0989139,27.0392,-0.0422272,
2,0,0,1,0,22860.4,-0.0438476,-0.0442296,-7.05862,12,-0.00268252,10,0.0003122,-2.15128,-0.741609,-0.0795567,21.9021,-0.0442296,
2,0,0,1,0,22860.4,-0.0458452,-0.04621,-7.09786,12,-0.00282407,10,0.000327992,-2.14887,-0.651884,-0.0905069,25.1087,-0.04621,
2,0,0,1,0,22860.4,-0.0478428,-0.0482141,-7.15866,12,-0.00296656,10,0.000345149,-2.14517,-0.504128,-0.117034,32.7174,-0.0482141,
2,0,0,1,0,22860.5,-0.0498495,-0.0502131,-7.22883,12,-0.00311031,10,0.000362982,-2.14093,-0.542126,-0.108831,30.6637,-0.05021308,
2,0,0,1,0,22860.5,-0.051838,-0.0521955,-7.28075,12,-0.00325463,10,0.000380023,-2.13782,-0.641294,-0.0920015,26.1417,-0.0521955,
2,0,0,1,0,22860.5,-0.0538355,-0.0541947,-7.33291,12,-0.00340072,10,0.000397405,-2.13472,-0.550019,-0.107269,30.7387,-0.05419473,
2,0,0,1,0,22860.5,-0.0558331,-0.0562284,-7.40471,12,-0.00354809,10,0.000416355,-2.13049,-0.479803,-0.122967,35.5311,-0.0562284,
2,0,0,1,0,22860.5,-0.0578216,-0.0581985,-7.47517,12,-0.0036961,10,0.000435044,-2.12638,-0.494888,-0.119219,34.7725,-0.0581985,
2,0,0,1,0,22860.6,-0.0598283,-0.0602001,-7.54282,12,-0.00384627,10,0.000454078,-2.12247,-0.456294,-0.129302,38.104,-0.0602001,
2,0,0,1,0,22860.6,-0.0618259,-0.0621873,-7.62716,12,-0.00399788,10,0.000474313,-2.11764,-0.43486,-0.135676,40.3651,-0.0621873,
2,0,0,1,0,22860.6,-0.0638235,-0.0641993,-7.70425,12,-0.0041511,10,0.000494607,-2.11327,-0.482419,-0.1223,36.7536,-0.0641993,
2,0,0,1,0,22860.6,-0.0658211,-0.0661809,-7.77394,12,-0.0043058,10,0.000514487,-2.10936,-0.434836,-0.135683,41.2279,-0.0661809,
2,0,0,1,0,22860.6,-0.0678187,-0.0681675,-7.86785,12,-0.00446145,10,0.000536331,-2.10414,-0.400189,-0.14743,45.2517,-0.0681675,
2,0,0,1,0,22860.7,-0.0698162,-0.070209,-7.95622,12,-0.00461965,10,0.000558598,-2.09929,-0.428052,-0.137834,42.7838,-0.070209,
2,0,0,1,0,22860.7,-0.0718138,-0.072187,-8.03982,12,-0.00477961,10,0.00058037,-2.09475,-0.396878,-0.14866,46.6977,-0.072187,
2,0,0,1,0,22860.7,-0.0738114,-0.0741941,-8.14231,12,-0.00494136,10,0.000604112,-2.08925,-0.357648,-0.164967,52.432,-0.0741941,
2,0,0,1,0,22860.7,-0.075809,-0.0761775,-8.24904,12,-0.00510446,10,0.000628392,-2.0836,-0.379741,-0.155369,49.9716,-0.0761775,
2,0,0,1,0,22860.7,-0.0778066,-0.0781717,-8.34108,12,-0.00527036,10,0.000652036,-2.07878,-0.384816,-0.15332,49.9468,-0.0781717,
2,0,0,1,0,22860.8,-0.0798042,-0.0801264,-8.44628,12,-0.00543824,10,0.00067677,-2.07333,-0.357351,-0.165104,54.4492,-0.08012639,
2,0,0,1,0,22860.8,-0.0818018,-0.0822,-8.56042,12,-0.00560827,10,0.000703666,-2.06751,-0.344525,-0.17125,57.2209,-0.0822,
2,0,0,1,0,22860.8,-0.0837994,-0.0841788,-8.67816,12,-0.00577977,10,0.000730518,-2.06157,-0.355143,-0.16613,56.2177,-0.0841788,
2,0,0,1,0,22860.8,-0.0857969,-0.0861448,-8.78219,12,-0.00595427,10,0.00075654,-2.0564,-0.357042,-0.165247,56.6913,-0.0861448,
2,0,0,1,0,22860.8,-0.0877945,-0.0881631,-8.90404,12,-0.00613109,10,0.000785008,-2.05041,-0.34397,-0.171526,59.5808,-0.0881631,
2,0,0,1,0,22860.9,-0.0897921,-0.090132,-9.01975,12,-0.00631032,10,0.000812968,-2.04481,-0.351799,-0.167709,59.041,-0.090132,
2,0,0,1,0,22860.9,-0.0917897,-0.0921267,-9.13805,12,-0.00649091,10,0.000841858,-2.03915,-0.365517,-0.161415,57.5471,-0.0921267,
2,0,0,1,0,22860.9,-0.0937873,-0.0941595,-9.25152,12,-0.00667477,10,0.000871118,-2.03379,-0.383829,-0.153714,55.4887,-0.0941595,
2,0,0,1,0,22860.9,-0.0957849,-0.0961663,-9.3622,12,-0.00686092,10,0.000900328,-2.02862,-0.390686,-0.151016,55.1701,-0.0961663,
2,0,0,1,0,22860.9,-0.0977825,-0.0981392,-9.47108,12,-0.00704922,10,0.000929484,-2.0236,-0.37917,-0.155603,57.5464,-0.0981392,
2,0,0,1,0,22861,-0.0997501,-0.100145,-9.59118,12,-0.00723594,10,0.000960512,-2.01813,0.00789292,7.47505,-2410.68,-0.100145,
2,0,0,1,1,22861,-0.0987313,-0.0990966,-7.1631,12,-0.00736383,10,0.000709839,-2.1449,-0.0104759,-5.63197,1534.45,-0.0990966,
2,0,0,1,1,22861,-0.0967337,-0.0970842,-4.89398,12,-0.00748259,10,0.000475128,-2.31034,-0.011606,-5.08359,982.779,-0.0970842,
2,0,0,1,1,22861,-0.0947362,-0.0951182,-3.2532,12,-0.00756311,10,0.000309439,-2.48769,-0.010254,-5.75385,722.494,-0.0951182,
2,0,0,1,1,22861,-0.0927386,-0.0930455,-1.97604,12,-0.00761479,10,0.000183862,-2.7042,-0.00748742,-7.87988,573.389,-0.0930455,
2,0,0,1,1,22861,-0.090741,-0.0910868,-0.941652,12,-0.00764347,10,8.57721e-05,-3.02611,-0.00308951,-19.0969,476.22,-0.0910868,
2,0,0,1,1,22861.1,-0.0887434,-0.0891183,-0.105844,12,-0.00765367,10,9.43266e-06,-3.97533,-0.0214931,-2.74506,385.264,-0.0891183,
2,1,0,1,1,22861.1,-0.0867458,-0.0870556,0.611413,12,-0.00764835,10,-5.32269e-05,-3.21367,0.00378973,15.5684,328.691,-0.0870556,
2,1,0,1,1,22861.1,-0.0847482,-0.0851029,1.21398,12,-0.00762989,10,-0.000103313,-2.91579,0.00869708,6.78389,284.294,-0.0851029,
2,1,0,1,1,22861.1,-0.0827529,-0.083137,1.72546,12,-0.00760057,10,-0.00014345,-2.76309,0.0156628,3.7669,242.375,-0.083137,
2,1,0,1,1,22861.1,-0.080753,-0.0811315,2.17654,12,-0.00756134,10,-0.000176586,-2.66223,0.02319,2.5442,210.473,-0.0811315,
2,1,0,1,1,22861.2,-0.0787555,-0.0791247,2.56993,12,-0.00751373,10,-0.000203345,-2.59008,0.0316402,1.86472,183.751,-0.0791247,
2,1,0,1,1,22861.2,-0.0767579,-0.077147,2.9087,12,-0.00745885,10,-0.000224397,-2.5363,0.0413574,1.42659,160.298,-0.077147,
2,1,0,1,1,22861.2,-0.0747603,-0.0751177,3.21225,12,-0.00739756,10,-0.000241297,-2.49319,0.0516701,1.14186,142.045,-0.0751177,
2,1,0,1,1,22861.2,-0.0727627,-0.0730999,3.48357,12,-0.00733072,10,-0.000254649,-2.45798,0.0628211,0.939174,126.714,-0.0730999,
2,1,0,1,1,22861.2,-0.0707651,-0.0711571,3.71411,12,-0.00725865,10,-0.000264285,-2.43015,0.0762332,0.773941,111.813,-0.0711571,
2,1,0,1,1,22861.3,-0.0687675,-0.0691156,3.92907,12,-0.00718216,10,-0.00027156,-2.40571,0.0914595,0.645094,98.4505,-0.0691156,
2,1,0,1,1,22861.3,-0.0667699,-0.0670986,4.11367,12,-0.0071017,10,-0.000276022,-2.38577,0.109166,0.540461,86.4784,-0.0670986,
2,1,0,1,1,22861.3,-0.0647723,-0.0651068,4.27574,12,-0.00701806,10,-0.00027838,-2.36899,0.12649,0.466439,77.6614,-0.0651068,
2,1,0,1,1,22861.3,-0.0627748,-0.0631213,4.42255,12,-0.00693101,10,-0.000279157,-2.35433,0.141953,0.41563,71.636,-0.0631213,
2,1,0,1,1,22861.3,-0.0607772,-0.0611393,4.55996,12,-0.00684113,10,-0.000278793,-2.34104,0.163928,0.359915,63.8908,-0.0611393,
2,1,0,1,1,22861.4,-0.0587796,-0.0591394,4.67696,12,-0.00674877,10,-0.000276593,-2.33004,0.198356,0.297446,54.2013,-0.0591394,
2,1,0,1,1,22861.4,-0.056782,-0.0570782,4.78008,12,-0.00665465,10,-0.000272838,-2.32057,0.221568,0.266284,49.6175,-0.0570782,
2,1,0,1,1,22861.4,-0.0547844,-0.0551815,4.87334,12,-0.00655805,10,-0.000268918,-2.31217,0.254626,0.231713,44.0126,-0.0551815,
2,1,0,1,1,22861.4,-0.0527868,-0.053103,4.95503,12,-0.00645971,10,-0.000263127,-2.30495,0.311102,0.189648,36.6159,-0.053103,
2,1,0,1,1,22861.4,-0.0507892,-0.0511283,5.02175,12,-0.00635999,10,-0.000256754,-2.29914,0.322374,0.183017,35.9006,-0.0511283,
2,1,0,1,1,22861.5,-0.0487916,-0.0491151,5.0982,12,-0.00625928,10,-0.000250399,-2.29258,0.368764,0.159994,31.7499,-0.0491151,
2,1,0,1,1,22861.5,-0.046794,-0.04714,5.14838,12,-0.00615678,10,-0.000242695,-2.28833,0.498742,0.118298,23.7531,-0.04714,
2,1,0,1,1,22861.5,-0.0447965,-0.0451671,5.19198,12,-0.00605332,10,-0.000234507,-2.28467,0.53116,0.111078,22.5117,-0.0451671,
2,1,0,1,1,22861.5,-0.0427989,-0.0431647,5.23787,12,-0.00594901,10,-0.000226091,-2.28084,0.653574,0.0902729,18.4216,-0.0431647,
2,1,0,1,1,22861.5,-0.0408013,-0.0411539,5.26591,12,-0.00584441,10,-0.000216713,-2.27853,1.10607,0.0533421,10.9496,-0.0411539,
2,1,0,1,1,22861.6,-0.0388037,-0.0391668,5.28165,12,-0.00573901,10,-0.000206865,-2.27723,0.927402,0.0636186,13.139,-0.0391668,
2,1,0,1,1,22861.6,-0.0368061,-0.037185,5.31806,12,-0.00563297,10,-0.000197752,-2.27425,0.744176,0.0792823,16.444,-0.037185,
2,1,0,1,1,22861.6,-0.0348085,-0.0351564,5.3476,12,-0.0055263,10,-0.000188002,-2.27184,0.940141,0.0627565,13.0897,-0.0351564,
2,1,0,1,1,22861.6,-0.0328109,-0.0331408,5.37099,12,-0.0054197,10,-0.000177999,-2.26995,1.48444,0.0397456,8.32048,-0.0331408,
2,1,0,1,1,22861.6,-0.0308134,-0.0311891,5.38061,12,-0.00531221,10,-0.000167816,-2.26917,3.0113,0.0195929,4.11319,-0.0311891,
2,1,0,1,1,22861.7,-0.0288158,-0.0291554,5.38739,12,-0.00520451,10,-0.000157072,-2.26862,2.73658,0.0215597,4.53488,-0.0291554,
2,1,0,1,1,22861.7,-0.0268182,-0.0272094,5.39865,12,-0.00509663,10,-0.000146894,-2.26771,2.3504,0.0251021,5.28807,-0.0272094,
2,1,0,1,1,22861.7,-0.0248138,-0.0251809,5.4084,12,-0.00498868,10,-0.000136189,-2.26693,3.08608,0.0191181,4.0341,-0.0251809,
2,1,0,1,1,22861.7,-0.022823,-0.0231758,5.41493,12,-0.00488098,10,-0.000125495,-2.26641,37.6687,0.00156629,0.330641,-0.0231758,
2,1,0,1,1,22861.7,-0.0208254,-0.0212185,5.40971,12,-0.00477271,10,-0.000114786,-2.26683,-5.85452,-0.0100777,-2.12801,-0.0212185,
2,1,0,1,1,22861.8,-0.0188278,-0.019157,5.40637,12,-0.00466457,10,-0.00010357,-2.26709,157.23,0.000375246,0.0792259,-0.019157,
2,1,0,1,1,22861.8,-0.0168393,-0.0171361,5.41004,12,-0.00455693,10,-9.27067e-05,-2.2668,5.54478,0.0106406,2.24697,-0.0171361,
2,1,0,1,1,22861.8,-0.0148327,-0.0151722,5.41533,12,-0.0044486,10,-8.21626e-05,-2.26638,-8.19525,-0.00719929,-1.51918,-0.0151722,
2,1,0,1,1,22861.8,-0.0128351,-0.0131494,5.40398,12,-0.00434047,10,-7.10591e-05,-2.26729,-3.10638,-0.0189932,-4.00814,-0.0131494,
2,1,0,1,1,22861.8,-0.0108375,-0.0111799,5.39933,12,-0.00423244,10,-6.03641e-05,-2.26766,-12.4775,-0.00472852,-0.996881,-0.0111799,
2,1,0,1,1,22861.9,-0.00883989,-0.00916926,5.40001,12,-0.0041244,10,-4.95141e-05,-2.26761,-10.5385,-0.00559849,-1.1792,-0.00916926,
2,1,0,1,1,22861.9,-0.0068423,-0.00720796,5.39464,12,-0.00401683,10,-3.88844e-05,-2.26804,41.0849,0.00143605,0.302675,-0.00720796,
2,1,0,1,1,22861.9,-0.00484471,-0.00519218,5.40122,12,-0.00390887,10,-2.80441e-05,-2.26751,-22.82,-0.00258545,-0.544219,-0.00519218,
2,1,0,1,1,22861.9,-0.00284713,-0.00318054,5.39245,12,-0.00380094,10,-1.71509e-05,-2.26821,-4.8058,-0.0122768,-2.58538,-0.00318054,
2,1,0,1,1,22861.9,-0.000849538,-0.00118135,5.39085,12,-0.00369306,10,-6.36847e-06,-2.26834, , , ,-0.00118135,
2,1,0,1,1,22862,-2.55332e-05,-0.00042076,5.40165,12,-0.00364937,10,-2.2728e-06,-2.26747, , , ,-0.00042076,