File: Figure_codes/Fig_3-5/rawdata_trumpetplot_data/after 10th/20221101_1-115_003_TrumpetPlot_ParaChange_from10_every3_11_CV_C01_21.csv
mode,ox/red,error,control changes,counter inc.,time/s,control/V,Ewe/V,<I>/mA,cycle number,(Q-Qo)/C,I Range,P/W,log(|I|),Tafel slope mV/dec,alpha_eff,dI/d(E-IR),E-IR/V,
2,1,0,1,0,42567.3,2.44065e-05,-0.000325324,9.63826,22,0.0000000E+000,10,-3.13555e-06,-2.016, , , ,-0.000325324,
2,1,0,1,0,42567.3,0.00214129,0.00176686,10.7355,22,5.25497e-05,10,1.89681e-05,-1.96918, , , ,0.00176686,
2,1,0,1,0,42567.3,0.00454949,0.00414747,11.5762,22,0.000119696,10,4.80118e-05,-1.93644,0.0827433,0.713048,316.728,0.00414747,
2,1,0,1,0,42567.3,0.0069466,0.00661292,12.2311,22,0.000191203,10,8.08833e-05,-1.91253,0.107746,0.547586,259.25,0.00661292,
2,1,0,1,0,42567.3,0.0093437,0.00902216,12.8081,22,0.000266422,10,0.000115557,-1.89252,0.130287,0.452847,225.026,0.00902216,
2,1,0,1,0,42567.3,0.0117408,0.0114314,13.3168,22,0.000344872,10,0.000152229,-1.8756,0.14961,0.394358,204.322,0.0114314,
2,1,0,1,0,42567.3,0.0141462,0.0137876,13.7884,22,0.000426256,10,0.000190109,-1.86049,0.167422,0.352403,189.051,0.0137876,
2,1,0,1,0,42567.3,0.0165433,0.0161926,14.2277,22,0.0005104,10,0.000230384,-1.84687,0.190825,0.309184,171.089,0.01619263,
2,1,0,1,0,42567.3,0.0189404,0.0185881,14.6124,22,0.000596968,10,0.000271617,-1.83528,0.210989,0.279635,159.32,0.0185881,
2,1,0,1,0,42567.3,0.0213486,0.0210313,14.9895,22,0.000685797,10,0.000315248,-1.82421,0.228936,0.257714,150.475,0.0210313,
2,1,0,1,0,42567.3,0.0237457,0.0234013,15.3407,22,0.000776852,10,0.000358993,-1.81415,0.249649,0.236332,141.148,0.0234013,
2,1,0,1,0,42567.3,0.0261429,0.0257766,15.6565,22,0.000869885,10,0.00040357,-1.80531,0.270179,0.218374,133.372,0.0257766,
2,1,0,1,0,42567.3,0.02854,0.0281805,15.9626,22,0.000964785,10,0.000449833,-1.7969,0.292549,0.201675,125.577,0.0281805,
2,1,0,1,0,42567.3,0.0309482,0.0305993,16.278,22,0.00106157,10,0.000498094,-1.7884,0.312922,0.188545,119.577,0.0305993,
2,1,0,1,0,42567.3,0.0333453,0.0329905,16.5509,22,0.00116006,10,0.000546022,-1.78118,0.334217,0.176532,113.922,0.0329905,
2,1,0,1,0,42567.3,0.0357424,0.0353881,16.8141,22,0.00126019,10,0.000595018,-1.77433,0.345709,0.170664,112.004,0.0353881,
2,1,0,1,0,42567.4,0.0381478,0.0377889,17.085,22,0.00136191,10,0.000645623,-1.76738,0.356371,0.165558,110.346,0.0377889,
2,1,0,1,0,42567.4,0.0405449,0.040162,17.3487,22,0.00146526,10,0.000696758,-1.76073,0.380828,0.154926,104.81,0.040162,
2,1,0,1,0,42567.4,0.042942,0.0426073,17.5929,22,0.00157012,10,0.000749588,-1.75466,0.388319,0.151937,104.333,0.0426073,
2,1,0,1,0,42567.4,0.0453391,0.0450113,17.8326,22,0.00167642,10,0.000802669,-1.74879,0.389688,0.151403,105.438,0.0450113,
2,1,0,1,0,42567.4,0.0477473,0.0473792,18.0931,22,0.00178426,10,0.000857238,-1.74249,0.411607,0.14334,101.1,0.0473792,
2,1,0,1,0,42567.4,0.0501444,0.0498298,18.3249,22,0.00189356,10,0.000913126,-1.73696,0.428187,0.13779,98.5444,0.0498298,
2,1,0,1,0,42567.4,0.0525415,0.0521881,18.5582,22,0.00200423,10,0.000968517,-1.73146,0.424228,0.139076,100.799,0.0521881,
2,1,0,1,0,42567.4,0.0549469,0.054591,18.8242,22,0.00211639,10,0.00102763,-1.72528,0.432472,0.136425,100.099,0.054591,
2,1,0,1,0,42567.4,0.057344,0.0569907,19.0471,22,0.00223003,10,0.00108551,-1.72017,0.444009,0.13288,98.7738,0.0569907,
2,1,0,1,0,42567.4,0.0597411,0.0594084,19.2889,22,0.00234504,10,0.00114592,-1.71469,0.439519,0.134238,101.086,0.0594084,
2,1,0,1,0,42567.4,0.0621438,0.0617795,19.5351,22,0.00246151,10,0.00120687,-1.70919,0.441298,0.133697,101.89,0.0617795,
2,1,0,1,0,42567.4,0.0645465,0.0641591,19.7738,22,0.00257948,10,0.00126867,-1.70391,0.448294,0.13161,101.527,0.0641591,
2,1,0,1,0,42567.4,0.0669436,0.0666001,20.0185,22,0.00269888,10,0.00133323,-1.69857,0.462723,0.127506,99.591,0.0666001,
2,1,0,1,0,42567.4,0.0693407,0.0689903,20.2561,22,0.00281972,10,0.00139747,-1.69344,0.448043,0.131684,104.14,0.0689903,
2,1,0,1,0,42567.4,0.0717489,0.071443,20.5173,22,0.00294205,10,0.00146581,-1.68788,0.455943,0.129402,103.547,0.071443,
2,1,0,1,0,42567.4,0.074146,0.0737663,20.7551,22,0.0030659,10,0.00153103,-1.68287,0.47675,0.123755,100.238,0.0737663,
2,1,0,1,0,42567.5,0.0765431,0.0761957,20.9923,22,0.00319117,10,0.00159952,-1.67794,0.466464,0.126483,103.72,0.0761957,
2,1,0,1,0,42567.5,0.0789485,0.0785869,21.2619,22,0.00331793,10,0.00167091,-1.6724,0.465238,0.126817,105.172,0.0785869,
2,1,0,1,0,42567.5,0.0813456,0.0810238,21.512,22,0.00344629,10,0.00174298,-1.66732,0.467404,0.126229,105.923,0.08102376,
2,1,0,1,0,42567.5,0.0837427,0.0833906,21.7607,22,0.00357611,10,0.00181464,-1.66233,0.466871,0.126373,107.351,0.0833906,
2,1,0,1,0,42567.5,0.0861398,0.0858019,22.0186,22,0.00370747,10,0.00188924,-1.65721,0.47069,0.125348,107.705,0.0858019,
2,1,0,1,0,42567.5,0.088548,0.0881995,22.2832,22,0.00384042,10,0.00196537,-1.65202,0.480688,0.122741,106.649,0.0881995,
2,1,0,1,0,42567.5,0.0909451,0.0905791,22.5213,22,0.00397486,10,0.00203996,-1.64741,0.501007,0.117763,103.56,0.0905791,
2,1,0,1,0,42567.5,0.0933422,0.0929724,22.7708,22,0.00411077,10,0.00211705,-1.64262,0.500543,0.117872,104.762,0.09297242,
2,1,0,1,0,42567.5,0.0957476,0.0954135,23.0372,22,0.00424824,10,0.00219806,-1.63757,0.524058,0.112583,101.12,0.0954135,
2,1,0,1,0,42567.5,0.0981447,0.097775,23.2713,22,0.00438718,10,0.00227536,-1.63318,0.537433,0.109781,99.6794,0.097775,
2,1,0,1,0,42567.5,0.100542,0.100167,23.5034,22,0.0045275,10,0.00235427,-1.62887,0.513629,0.114869,105.477,0.100167,
2,1,0,1,0,42567.5,0.102939,0.102556,23.7668,22,0.00466933,10,0.00243743,-1.62403,0.502757,0.117353,108.85,0.102556,
2,1,0,1,0,42567.5,0.105347,0.104991,24.044,22,0.0048128,10,0.0025244,-1.61899,0.51574,0.114399,107.246,0.104991,
2,1,0,1,0,42567.5,0.107744,0.107352,24.293,22,0.00495781,10,0.00260789,-1.61452,0.52694,0.111967,106.137,0.107352,
2,1,0,1,0,42567.5,0.110141,0.109758,24.5437,22,0.00510433,10,0.00269386,-1.61006,0.520977,0.113249,108.524,0.109758,
2,1,0,1,0,42567.5,0.11255,0.112207,24.817,22,0.00525244,10,0.00278465,-1.60525,0.522717,0.112872,109.261,0.112207,
2,1,0,1,0,42567.5,0.114947,0.114612,25.0648,22,0.00540212,10,0.00287273,-1.60094,0.525814,0.112207,109.819,0.114612,
2,1,0,1,0,42567.6,0.117344,0.116977,25.3395,22,0.00555333,10,0.00296414,-1.5962,0.508335,0.116065,114.844,0.116977,
2,1,0,1,0,42567.6,0.119744,0.119374,25.6272,22,0.00570624,10,0.00305923,-1.5913,0.498288,0.118405,118.396,0.119374,
2,1,0,1,0,42567.6,0.122146,0.12178,25.9064,22,0.00586089,10,0.00315489,-1.58659,0.487583,0.121005,122.353,0.12178,
2,1,0,1,0,42567.6,0.124543,0.124176,26.1951,22,0.00601723,10,0.0032528,-1.58178,0.488579,0.120758,123.512,0.124176,
2,1,0,1,0,42567.6,0.126941,0.126653,26.5074,22,0.00617537,10,0.00335725,-1.57663,0.468272,0.125995,130.357,0.126653,
2,1,0,1,0,42567.6,0.129349,0.128988,26.8302,22,0.0063354,10,0.00346078,-1.57138,0.469468,0.125674,131.576,0.128988,
2,1,0,1,0,42567.6,0.131746,0.131433,27.1423,22,0.00649733,10,0.00356741,-1.56635,0.467795,0.126124,133.626,0.131433,
2,1,0,1,0,42567.6,0.134143,0.133773,27.4634,22,0.00666119,10,0.00367386,-1.56125,0.454532,0.129804,139.207,0.133773,
2,1,0,1,0,42567.6,0.13654,0.136165,27.8047,22,0.00682702,10,0.00378602,-1.55588,0.457204,0.129045,139.997,0.136165,
2,1,0,1,0,42567.6,0.138945,0.13862,28.1354,22,0.00699491,10,0.00390013,-1.55075,0.463679,0.127243,139.71,0.13862,
2,1,0,1,0,42567.6,0.141343,0.140969,28.4623,22,0.00716475,10,0.00401229,-1.54573,0.474411,0.124365,138.198,0.140969,
2,1,0,1,0,42567.6,0.14374,0.143448,28.8126,22,0.00733663,10,0.00413311,-1.54042,0.479576,0.123025,138.24,0.143448,
2,1,0,1,0,42567.6,0.146148,0.145765,29.1391,22,0.00751055,10,0.00424745,-1.53552,0.50003,0.117993,134.121,0.145765,
2,1,0,1,0,42567.6,0.148545,0.148187,29.4496,22,0.00768632,10,0.00436404,-1.53092,0.522091,0.113007,129.907,0.148187,
2,1,0,1,0,42567.6,0.150942,0.150599,29.7778,22,0.00786402,10,0.00448451,-1.52611,0.521376,0.113162,131.392,0.150599,
2,1,0,1,0,42567.6,0.153345,0.153013,30.0734,22,0.00804358,10,0.00460161,-1.52182,0.565224,0.104383,122.445,0.153013,
2,1,0,1,0,42567.6,0.155747,0.155391,30.3628,22,0.0082249,10,0.0047181,-1.51766,0.586146,0.100658,119.206,0.155391,
2,1,0,1,0,42567.7,0.158144,0.157762,30.6433,22,0.00840792,10,0.00483436,-1.51366,0.635318,0.0928668,110.983,0.157762,
2,1,0,1,0,42567.7,0.160542,0.160168,30.9031,22,0.00859258,10,0.0049497,-1.51,0.683975,0.0862605,103.958,0.160168,
2,1,0,1,0,42567.7,0.162947,0.162586,31.1455,22,0.00877877,10,0.00506383,-1.5066,0.762663,0.0773605,93.9432,0.162586,
2,1,0,1,0,42567.7,0.165344,0.16498,31.3504,22,0.0089663,10,0.00517221,-1.50376,0.862072,0.0684397,83.7013,0.16498,
2,1,0,1,0,42567.7,0.167741,0.167397,31.5458,22,0.00915503,10,0.00528067,-1.50106,1.00752,0.0585597,72.0384,0.167397,
2,1,0,1,0,42567.7,0.170149,0.169812,31.7137,22,0.00934484,10,0.00538536,-1.49875,1.30674,0.0451505,55.7945,0.169812,
2,1,0,1,0,42567.7,0.172547,0.1722,31.8111,22,0.00953545,10,0.00547787,-1.49742,1.91177,0.0308615,38.2756,0.1722,
2,1,0,1,0,42567.7,0.174944,0.17459,31.8854,22,0.00972659,10,0.00556686,-1.49641,3.73556,0.0157942,19.6305,0.17459,
2,1,0,1,0,42567.7,0.177341,0.176989,31.9148,22,0.00991802,10,0.00564859,-1.49601,-34.8377,-0.00169357,-2.1061,0.176989,
2,1,0,1,0,42567.7,0.179746,0.179401,31.8791,22,0.0101094,10,0.00571914,-1.49649,-3.05169,-0.0193336,-24.0217,0.179401,
2,1,0,1,0,42567.7,0.182143,0.181796,31.7973,22,0.0103005,10,0.00578062,-1.49761,-1.51809,-0.0388645,-48.1459,0.181796,
2,1,0,1,0,42567.7,0.18454,0.184136,31.6529,22,0.0104908,10,0.00582843,-1.49959,-1.04228,-0.0566066,-69.809,0.184136,
2,1,0,1,0,42567.7,0.186949,0.186614,31.4616,22,0.0106802,10,0.00587116,-1.50222,-0.758595,-0.0777754,-95.3328,0.186614,
2,1,0,1,0,42567.7,0.189346,0.189014,31.1934,22,0.0108681,10,0.00589601,-1.50594,-0.60869,-0.0969295,-117.819,0.189014,
2,1,0,1,0,42567.7,0.191743,0.191426,30.8805,22,0.0110544,10,0.00591132,-1.51032,-0.508338,-0.116064,-139.695,0.191426,
2,1,0,1,0,42567.7,0.19414,0.193768,30.518,22,0.0112386,10,0.00591342,-1.51544,-0.427243,-0.138095,-164.197,0.193768,
2,1,0,1,0,42567.8,0.196548,0.196252,30.1035,22,0.0114204,10,0.00590787,-1.52138,-0.37803,-0.156072,-183.068,0.196252,
2,1,0,1,0,42567.8,0.198945,0.198651,29.6344,22,0.0115996,10,0.00588691,-1.5282,-0.334593,-0.176334,-203.649,0.198651,
2,1,0,1,0,42567.8,0.201342,0.201,29.1336,22,0.0117758,10,0.00585586,-1.53561,-0.3062,-0.192684,-218.737,0.201,
2,1,0,1,0,42567.8,0.203748,0.203441,28.5912,22,0.011949,10,0.00581664,-1.54377,-0.290039,-0.203421,-226.761,0.203441,
2,1,0,1,0,42567.8,0.206145,0.205797,28.0226,22,0.0121187,10,0.00576696,-1.55249,-0.271248,-0.217513,-237.768,0.205797,
2,1,0,1,0,42567.8,0.208542,0.208178,27.4514,22,0.0122851,10,0.00571478,-1.56144,-0.260567,-0.22643,-242.343,0.208178,
2,1,0,1,0,42567.8,0.210939,0.21061,26.8429,22,0.012448,10,0.00565338,-1.57117,-0.247314,-0.238563,-249.924,0.21061,
2,1,0,1,0,42567.8,0.213347,0.212997,26.2556,22,0.0126072,10,0.00559236,-1.58078,-0.245385,-0.240439,-246.289,0.212997,
2,1,0,1,0,42567.8,0.215744,0.215373,25.6598,22,0.0127629,10,0.00552642,-1.59075,-0.23979,-0.246049,-246.365,0.215373,
2,1,0,1,0,42567.8,0.218141,0.217803,25.0641,22,0.012915,10,0.00545906,-1.60095,-0.240082,-0.245749,-240.517,0.217803,
2,1,0,1,0,42567.8,0.220547,0.220255,24.5067,22,0.0130637,10,0.00539773,-1.61072,-0.238431,-0.247451,-236.659,0.220255,
2,1,0,1,0,42567.8,0.222944,0.222603,23.9465,22,0.013209,10,0.00533055,-1.62076,-0.241867,-0.243936,-228.049,0.222603,
2,1,0,1,0,42567.8,0.225341,0.225005,23.4054,22,0.013351,10,0.00526633,-1.63068,-0.248729,-0.237206,-216.856,0.225005,
2,1,0,1,0,42567.8,0.227744,0.227392,22.9,22,0.0134898,10,0.00520728,-1.64016,-0.250689,-0.235352,-210.42,0.227392,
2,1,0,1,0,42567.8,0.230146,0.229839,22.4066,22,0.0136257,10,0.00514991,-1.64962,-0.262747,-0.224551,-196.479,0.229839,
2,1,0,1,0,42567.8,0.232543,0.23223,21.9433,22,0.0137586,10,0.00509591,-1.6587,-0.265301,-0.222389,-190.472,0.23223,
2,1,0,1,0,42567.8,0.234941,0.234608,21.4947,22,0.0138889,10,0.00504281,-1.66767,-0.27451,-0.214929,-180.438,0.234608,
2,1,0,1,0,42567.9,0.237349,0.237012,21.0745,22,0.0140165,10,0.00499491,-1.67624,-0.289321,-0.203926,-167.876,0.237012,
2,1,0,1,0,42567.9,0.239746,0.23944,20.6833,22,0.0141418,10,0.00495241,-1.68438,-0.289977,-0.203465,-164.271,0.23944,
2,1,0,1,0,42567.9,0.242143,0.24182,20.2979,22,0.0142647,10,0.00490842,-1.69255,-0.306634,-0.192412,-152.569,0.24182,
2,1,0,1,0,42567.9,0.244548,0.244248,19.9501,22,0.0143853,10,0.00487277,-1.70005,-0.323102,-0.182605,-142.277,0.244248,
2,1,0,1,0,42567.9,0.246946,0.246627,19.6179,22,0.014504,10,0.00483831,-1.70735,-0.336543,-0.175312,-134.207,0.246627,
2,1,0,1,0,42567.9,0.249343,0.24903,19.298,22,0.0146207,10,0.00480578,-1.71449,-0.343609,-0.171707,-129.413,0.24903,
2,1,0,1,0,42567.9,0.25174,0.251415,18.9894,22,0.0147355,10,0.00477423,-1.72149,-0.364833,-0.161718,-119.98,0.251415,
2,1,0,1,0,42567.9,0.254148,0.253777,18.7159,22,0.0148486,10,0.00474965,-1.72779,-0.38283,-0.154115,-112.618,0.2537767,
2,1,0,1,0,42567.9,0.256545,0.256229,18.4506,22,0.0149601,10,0.00472758,-1.73399,-0.392624,-0.150271,-108.248,0.2562294,
2,1,0,1,0,42567.9,0.258942,0.258601,18.1949,22,0.01507,10,0.00470521,-1.74005,-0.407829,-0.144668,-102.793,0.2586005,
2,1,0,1,0,42567.9,0.261348,0.261036,17.9575,22,0.0151784,10,0.00468756,-1.74575,-0.433056,-0.136241,-95.533,0.261036,
2,1,0,1,0,42567.9,0.263745,0.263462,17.7294,22,0.0152854,10,0.00467102,-1.75131,-0.444382,-0.132769,-91.9,0.263462,
2,1,0,1,0,42567.9,0.266142,0.265819,17.5151,22,0.0153911,10,0.00465584,-1.75659,-0.461027,-0.127975,-87.5231,0.265819,
2,1,0,1,0,42567.9,0.268539,0.268226,17.3045,22,0.0154956,10,0.00464152,-1.76184,-0.491697,-0.119993,-81.1397,0.268226,
2,1,0,1,0,42567.9,0.270947,0.270617,17.1249,22,0.0155988,10,0.00463428,-1.76637,-0.507228,-0.116319,-77.7248,0.270617,
2,1,0,1,0,42567.9,0.273344,0.273063,16.941,22,0.015701,10,0.00462596,-1.77106,-0.507705,-0.116209,-76.823,0.273063,
2,1,0,1,0,42567.9,0.275741,0.275426,16.7565,22,0.0158021,10,0.00461519,-1.77582,-0.542712,-0.108713,-71.1699,0.275426,
2,1,0,1,0,42568,0.278149,0.277802,16.6079,22,0.0159021,10,0.00461372,-1.77968,-0.569662,-0.10357,-67.09,0.277802,
2,1,0,1,0,42568,0.280547,0.280212,16.4378,22,0.0160012,10,0.00460605,-1.78416,-0.573629,-0.102854,-65.996,0.2802116,
2,1,0,1,0,42568,0.282944,0.282628,16.2794,22,0.0160994,10,0.00460102,-1.78836,-0.601582,-0.0980747,-62.3734,0.282628,
2,1,0,1,0,42568,0.285344,0.285042,16.1362,22,0.0161966,10,0.00459948,-1.7922,-0.628455,-0.093881,-59.1357,0.285042,
2,1,0,1,0,42568,0.287746,0.287382,15.9952,22,0.016293,10,0.00459673,-1.79601,-0.64917,-0.0908853,-56.7557,0.287382,
2,1,0,1,0,42568,0.290143,0.28977,15.8609,22,0.0163886,10,0.00459602,-1.79967,-0.652627,-0.0904039,-55.983,0.28977,
2,1,0,1,0,42568,0.29254,0.292214,15.7277,22,0.0164834,10,0.00459585,-1.80334,-0.683707,-0.0862943,-53.0227,0.2922143,
2,1,0,1,0,42568,0.294949,0.294623,15.6212,22,0.0165774,10,0.00460234,-1.80629,-0.734813,-0.0802926,-48.9412,0.294623,
2,1,0,1,0,42568,0.297346,0.29704,15.4988,22,0.0166707,10,0.00460375,-1.8097,-0.727149,-0.0811388,-49.1115,0.29704,
2,1,0,1,0,42568,0.299621,0.299285,15.3766,22,0.0167587,10,0.00460198,-1.81314,-0.0855293,-0.689822,-401.69,0.299285,
2,1,0,1,0,42568,0.299962,0.299651,15.25,22,0.0167771,10,0.00456967,-1.81673,0.0121605,4.85179,2479.77,0.299651,
2,1,0,1,0,42568,0.297903,0.297618,11.9561,22,0.016845,10,0.00355835,-1.92241,0.0212347,2.77847,1268.51,0.297618,
2,1,0,1,0,42568,0.295506,0.295221,9.39091,22,0.0169085,10,0.00277239,-2.02729,0.0226058,2.60995,972.818,0.295221,
2,1,0,1,0,42568,0.293101,0.292783,7.35324,22,0.0169584,10,0.0021529,-2.13352,0.0218154,2.70451,779.558,0.292783,
2,1,0,1,0,42568,0.290704,0.29041,5.6644,22,0.0169971,10,0.00164499,-2.24685,0.0198455,2.97297,652.838,0.29041,
2,1,0,1,0,42568,0.288307,0.287997,4.22326,22,0.0170265,10,0.00121629,-2.37435,0.0168026,3.51137,565.752,0.2879971,
2,1,0,1,0,42568,0.28591,0.285628,2.97048,22,0.0170479,10,0.000848454,-2.52717,0.0131188,4.49737,494.15,0.285628,
2,1,0,1,0,42568.1,0.283501,0.28318,1.86273,22,0.0170622,10,0.000527487,-2.72985,0.00855926,6.89312,432.36,0.28318,
2,1,0,1,0,42568.1,0.281104,0.280809,0.898187,22,0.0170704,10,0.000252218,-3.04663,0.00647718,9.1089,382.137,0.280809,
2,1,0,1,0,42568.1,0.278707,0.278358,0.0383775,22,0.0170731,10,1.06827e-05,-4.41592,0.0709965,0.831027,342.266,0.278358,
2,0,0,1,0,42568.1,0.276302,0.276005,-0.737758,22,0.0170709,10,-0.000203625,-3.13209,-0.00915146,-6.44706,303.296,0.276005,
2,0,0,1,0,42568.1,0.273905,0.273599,-1.42697,22,0.0170643,10,-0.000390417,-2.84559,-0.00959025,-6.15208,276.783,0.273599,
2,0,0,1,0,42568.1,0.271507,0.271213,-2.05025,22,0.0170537,10,-0.000556053,-2.68819,-0.0175454,-3.3627,249.486,0.271213,
2,0,0,1,0,42568.1,0.269105,0.268766,-2.64002,22,0.0170396,10,-0.000709547,-2.57839,-0.0253231,-2.32988,228.025,0.268766,
2,0,0,1,0,42568.1,0.266702,0.266368,-3.15277,22,0.0170222,10,-0.000839797,-2.50131,-0.034167,-1.72681,205.963,0.266368,
2,0,0,1,0,42568.1,0.264305,0.263999,-3.61987,22,0.0170018,10,-0.000955641,-2.44131,-0.0427857,-1.37897,191.49,0.263999,
2,0,0,1,0,42568.1,0.261908,0.261591,-4.06325,22,0.0169787,10,-0.00106291,-2.39113,-0.0520142,-1.13431,177.472,0.261591,
2,0,0,1,0,42568.1,0.2595,0.25923,-4.47035,22,0.016953,10,-0.00115885,-2.34966,-0.0620982,-0.950108,163.895,0.25923,
2,0,0,1,0,42568.1,0.257103,0.256778,-4.84525,22,0.016925,10,-0.00124415,-2.31468,-0.0745151,-0.791786,148.545,0.256778,
2,0,0,1,0,42568.1,0.254706,0.254374,-5.18832,22,0.0168949,10,-0.00131977,-2.28497,-0.0848586,-0.695274,140.179,0.2543737,
2,0,0,1,0,42568.1,0.2523,0.252006,-5.52754,22,0.0168627,10,-0.00139297,-2.25747,-0.0960026,-0.614567,131.565,0.252006,
2,0,0,1,0,42568.1,0.249903,0.249543,-5.82308,22,0.0168286,10,-0.00145311,-2.23485,-0.109031,-0.54113,122.275,0.2495425,
2,0,0,1,0,42568.1,0.247506,0.247228,-6.10304,22,0.0167928,10,-0.00150884,-2.21445,-0.11998,-0.491751,116.979,0.247228,
2,0,0,1,0,42568.1,0.245109,0.244789,-6.37494,22,0.0167554,10,-0.00156051,-2.19552,-0.132849,-0.444113,110.125,0.244789,
2,0,0,1,0,42568.2,0.242701,0.242351,-6.63787,22,0.0167162,10,-0.00160869,-2.17797,-0.148434,-0.397482,102.56,0.2423508,
2,0,0,1,0,42568.2,0.240304,0.239983,-6.87197,22,0.0166757,10,-0.00164915,-2.16292,-0.16567,-0.356131,95.4012,0.239983,
2,0,0,1,0,42568.2,0.237906,0.237602,-7.09723,22,0.0166338,10,-0.00168632,-2.14891,-0.173341,-0.340369,94.116,0.237602,
2,0,0,1,0,42568.2,0.235501,0.235207,-7.32139,22,0.0165905,10,-0.00172204,-2.13541,-0.191233,-0.308525,87.9316,0.235207,
2,0,0,1,0,42568.2,0.233104,0.23273,-7.52139,22,0.0165459,10,-0.00175045,-2.1237,-0.205988,-0.286424,83.9816,0.23273,
2,0,0,1,0,42568.2,0.230707,0.230428,-7.71782,22,0.0165002,10,-0.0017784,-2.11251,-0.216087,-0.273038,82.1796,0.230428,
2,0,0,1,0,42568.2,0.22831,0.227989,-7.91011,22,0.0164533,10,-0.00180342,-2.10182,-0.233252,-0.252945,78.0044,0.227989,
2,0,0,1,0,42568.2,0.225902,0.225602,-8.09198,22,0.0164052,10,-0.00182556,-2.09195,-0.253697,-0.232561,73.3532,0.225602,
2,0,0,1,0,42568.2,0.223504,0.223202,-8.27145,22,0.0163561,10,-0.0018462,-2.08242,-0.272,-0.216912,69.9435,0.223202,
2,0,0,1,0,42568.2,0.221107,0.220796,-8.43791,22,0.016306,10,-0.00186306,-2.07376,-0.273386,-0.215812,71.0092,0.220796,
2,0,0,1,0,42568.2,0.218699,0.218394,-8.61448,22,0.0162549,10,-0.00188135,-2.06477,-0.290999,-0.20275,67.9585,0.218394,
2,0,0,1,0,42568.2,0.216302,0.215993,-8.75324,22,0.0162027,10,-0.00189064,-2.05783,-0.313414,-0.18825,64.3559,0.215993,
2,0,0,1,0,42568.2,0.213905,0.213547,-8.91791,22,0.0161497,10,-0.00190439,-2.04974,-0.315533,-0.186985,65.0525,0.213547,
2,0,0,1,0,42568.2,0.211505,0.211164,-9.06872,22,0.0160958,10,-0.00191499,-2.04245,-0.335972,-0.17561,62.0278,0.211164,
2,0,0,1,0,42568.2,0.209102,0.208777,-9.2044,22,0.0160409,10,-0.00192167,-2.036,-0.349767,-0.168684,60.6607,0.208777,
2,0,0,1,0,42568.2,0.206705,0.206399,-9.35783,22,0.0159852,10,-0.00193144,-2.02882,-0.360387,-0.163713,59.7378,0.2063988,
2,0,0,1,0,42568.2,0.204308,0.203978,-9.49864,22,0.0159286,10,-0.00193751,-2.02234,-0.370473,-0.159256,58.9553,0.203978,
2,0,0,1,0,42568.3,0.2019,0.201585,-9.63528,22,0.0158712,10,-0.00194232,-2.01614,-0.402346,-0.14664,55.0966,0.201585,
2,0,0,1,0,42568.3,0.199503,0.199171,-9.76948,22,0.015813,10,-0.0019458,-2.01013,-0.408948,-0.144273,54.9881,0.199171,
2,0,0,1,0,42568.3,0.197106,0.196763,-9.89927,22,0.015754,10,-0.00194781,-2.0044,-0.400564,-0.147292,56.9296,0.1967629,
2,0,0,1,0,42568.3,0.194709,0.194368,-10.0361,22,0.0156942,10,-0.00195071,-1.99843,-0.418932,-0.140834,55.1611,0.194368,
2,0,0,1,0,42568.3,0.192303,0.191997,-10.1689,22,0.0156335,10,-0.0019524,-1.99273,-0.428999,-0.137529,54.5622,0.191997,
2,0,0,1,0,42568.3,0.189906,0.18955,-10.2933,22,0.0155721,10,-0.0019511,-1.98744,-0.436568,-0.135145,54.332,0.18955,
2,0,0,1,0,42568.3,0.187509,0.187158,-10.4325,22,0.0155099,10,-0.00195252,-1.98161,-0.431005,-0.136889,55.6864,0.187158,
2,0,0,1,0,42568.3,0.185101,0.184778,-10.5676,22,0.0154469,10,-0.00195266,-1.97602,-0.453379,-0.130134,53.6334,0.184778,
2,0,0,1,0,42568.3,0.182704,0.182384,-10.682,22,0.0153832,10,-0.00194823,-1.97135,-0.449553,-0.131242,54.7955,0.182384,
2,0,0,1,0,42568.3,0.180307,0.179986,-10.8358,22,0.0153186,10,-0.00195029,-1.96514,-0.44434,-0.132781,56.0798,0.179986,
2,0,0,1,0,42568.3,0.177904,0.177581,-10.9629,22,0.0152532,10,-0.0019468,-1.96008,-0.45243,-0.130407,55.813,0.177581,
2,0,0,1,0,42568.3,0.175501,0.175165,-11.096,22,0.015187,10,-0.00194362,-1.95484,-0.436062,-0.135302,58.6309,0.175165,
2,0,0,1,0,42568.3,0.173104,0.172797,-11.2459,22,0.01512,10,-0.00194326,-1.949,-0.436001,-0.135321,59.3616,0.172797,
2,0,0,1,0,42568.3,0.170707,0.170404,-11.3857,22,0.0150521,10,-0.00194018,-1.94364,-0.425651,-0.138611,61.6346,0.170404,
2,0,0,1,0,42568.3,0.168302,0.167992,-11.5349,22,0.0149833,10,-0.00193777,-1.93799,-0.412517,-0.143024,64.4011,0.167992,
2,0,0,1,0,42568.3,0.165905,0.165545,-11.6934,22,0.0149136,10,-0.00193577,-1.93206,-0.413458,-0.142699,65.126,0.165545,
2,0,0,1,0,42568.4,0.163507,0.163193,-11.8529,22,0.014843,10,-0.00193431,-1.92618,-0.391499,-0.150703,69.7548,0.163193,
2,0,0,1,0,42568.4,0.161099,0.160757,-12.0298,22,0.0147713,10,-0.00193387,-1.91974,-0.371781,-0.158696,74.5028,0.160757,
2,0,0,1,0,42568.4,0.158702,0.15835,-12.1953,22,0.0146986,10,-0.00193113,-1.91381,-0.357271,-0.165141,78.7542,0.15835,
2,0,0,1,0,42568.4,0.156305,0.155975,-12.394,22,0.0146248,10,-0.00193316,-1.90679,-0.343581,-0.171721,83.1586,0.1559754,
2,0,0,1,0,42568.4,0.153908,0.153584,-12.6035,22,0.0145498,10,-0.0019357,-1.89951,-0.326301,-0.180815,89.0044,0.153584,
2,0,0,1,0,42568.4,0.151503,0.151188,-12.8194,22,0.0144735,10,-0.00193813,-1.89213,-0.307349,-0.191964,96.2118,0.151188,
2,0,0,1,0,42568.4,0.149105,0.148776,-13.0656,22,0.0143958,10,-0.00194386,-1.88387,-0.288269,-0.20467,104.452,0.148776,
2,0,0,1,0,42568.4,0.146708,0.146416,-13.3298,22,0.0143166,10,-0.0019517,-1.87517,-0.265306,-0.222384,115.827,0.146416,
2,0,0,1,0,42568.4,0.1443,0.143993,-13.6116,22,0.0142358,10,-0.00195997,-1.86609,-0.24805,-0.237855,126.578,0.143993,
2,0,0,1,0,42568.4,0.141903,0.14159,-13.93,22,0.0141532,10,-0.00197235,-1.85605,-0.23061,-0.255843,139.24,0.14159,
2,0,0,1,0,42568.4,0.139506,0.139222,-14.2671,22,0.0140686,10,-0.0019863,-1.84566,-0.216176,-0.272925,152.299,0.139222,
2,0,0,1,0,42568.4,0.137109,0.136774,-14.6374,22,0.0139818,10,-0.002002,-1.83454,-0.200941,-0.293618,168.246,0.136774,
2,0,0,1,0,42568.4,0.134701,0.134355,-15.0726,22,0.0138927,10,-0.00202508,-1.82181,-0.189212,-0.31182,183.657,0.134355,
2,0,0,1,0,42568.4,0.132303,0.131987,-15.531,22,0.0138008,10,-0.00204989,-1.8088,-0.180379,-0.327089,198.487,0.131987,
2,0,0,1,0,42568.4,0.129906,0.129589,-16.015,22,0.0137062,10,-0.00207537,-1.79547,-0.175726,-0.33575,210.045,0.129589,
2,0,0,1,0,42568.4,0.127501,0.127191,-16.5443,22,0.0136084,10,-0.00210428,-1.78135,-0.17088,-0.345272,223.13,0.127191,
2,0,0,1,0,42568.4,0.125104,0.124774,-17.0975,22,0.0135075,10,-0.00213332,-1.76707,-0.166276,-0.354831,236.907,0.124774,
2,0,0,1,0,42568.5,0.122707,0.122405,-17.6778,22,0.0134031,10,-0.00216385,-1.75257,-0.166205,-0.354983,244.907,0.122405,
2,0,0,1,0,42568.5,0.12031,0.119977,-18.2568,22,0.0132953,10,-0.00219039,-1.73858,-0.168167,-0.350842,250.218,0.119977,
2,0,0,1,0,42568.5,0.117901,0.117613,-18.8816,22,0.0131838,10,-0.00222072,-1.72396,-0.16843,-0.350294,258.129,0.117613,
2,0,0,1,0,42568.5,0.115504,0.115155,-19.51,22,0.0130685,10,-0.00224667,-1.70974,-0.173505,-0.340047,258.645,0.115155,
2,0,0,1,0,42568.5,0.113107,0.112777,-20.1232,22,0.0129496,10,-0.00226942,-1.6963,-0.180532,-0.326811,256.492,0.112777,
2,0,0,1,0,42568.5,0.110702,0.110374,-20.7449,22,0.0128269,10,-0.00228969,-1.68309,-0.191236,-0.30852,249.328,0.110374,
2,0,0,1,0,42568.5,0.108305,0.108032,-21.324,22,0.0127006,10,-0.00230368,-1.67113,-0.194581,-0.303215,252.343,0.108032,
2,0,0,1,0,42568.5,0.105908,0.10562,-21.9268,22,0.0125708,10,-0.00231591,-1.65902,-0.201451,-0.292875,250.706,0.10562,
2,0,0,1,0,42568.5,0.103505,0.103219,-22.5438,22,0.0124374,10,-0.00232695,-1.64697,-0.210551,-0.280218,246.213,0.103219,
2,0,0,1,0,42568.5,0.101102,0.100819,-23.1301,22,0.0123002,10,-0.00233196,-1.63582,-0.222011,-0.265752,239.517,0.100819,
2,0,0,1,0,42568.5,0.0987052,0.0984059,-23.6901,22,0.0121597,10,-0.00233124,-1.62543,-0.24067,-0.245149,226.451,0.0984059,
2,0,0,1,0,42568.5,0.0963081,0.0959861,-24.2277,22,0.0120159,10,-0.00232552,-1.61569,-0.251041,-0.235021,222.055,0.0959861,
2,0,0,1,0,42568.5,0.0938999,0.0935917,-24.7574,22,0.0118689,10,-0.00231708,-1.6063,-0.26507,-0.222583,214.829,0.09359169,
2,0,0,1,0,42568.5,0.0915028,0.0911983,-25.2616,22,0.0117188,10,-0.00230382,-1.59754,-0.289028,-0.204132,200.894,0.0911983,
2,0,0,1,0,42568.5,0.0891057,0.0888103,-25.7277,22,0.0115658,10,-0.00228489,-1.5896,-0.310811,-0.189826,190.385,0.0888103,
2,0,0,1,0,42568.5,0.0867002,0.086382,-26.168,22,0.0114101,10,-0.00226045,-1.58223,-0.33594,-0.175627,179.189,0.086382,
2,0,0,1,0,42568.5,0.0843031,0.0840597,-26.5921,22,0.0112517,10,-0.00223532,-1.57525,-0.360693,-0.163574,169.511,0.0840597,
2,0,0,1,0,42568.6,0.081906,0.0816483,-26.9737,22,0.011091,10,-0.00220236,-1.56906,-0.39523,-0.14928,157.004,0.0816483,
2,0,0,1,0,42568.6,0.0795089,0.0792348,-27.3285,22,0.010928,10,-0.00216537,-1.56338,-0.434493,-0.13579,144.794,0.0792348,
2,0,0,1,0,42568.6,0.0771007,0.07678,-27.6855,22,0.0107629,10,-0.00212569,-1.55775,-0.474793,-0.124265,134.056,0.07678,
2,0,0,1,0,42568.6,0.0747036,0.0743962,-27.9858,22,0.0105959,10,-0.00208204,-1.55306,-0.554501,-0.106402,116.068,0.0743962,
2,0,0,1,0,42568.6,0.0723065,0.0719796,-28.2464,22,0.0104271,10,-0.00203316,-1.54904,-0.615582,-0.0958442,105.563,0.0719796,
2,0,0,1,0,42568.6,0.0699011,0.0695979,-28.5003,22,0.0102569,10,-0.00198356,-1.54515,-0.711185,-0.0829602,92.152,0.0695979,
2,0,0,1,0,42568.6,0.067504,0.0671685,-28.6962,22,0.0100853,10,-0.00192748,-1.54218,-0.819755,-0.0719727,80.5045,0.0671685,
2,0,0,1,0,42568.6,0.0651069,0.06479,-28.8671,22,0.00991255,10,-0.0018703,-1.5396,-0.984951,-0.0599014,67.4342,0.06479,
2,0,0,1,0,42568.6,0.0627098,0.062402,-29.0007,22,0.00973891,10,-0.0018097,-1.53759,-1.20475,-0.0489728,55.4058,0.062402,
2,0,0,1,0,42568.6,0.0603016,0.0599726,-29.137,22,0.00956445,10,-0.00174742,-1.53556,-1.48592,-0.0397062,45.1003,0.0599726,
2,0,0,1,0,42568.6,0.0579045,0.0575655,-29.2304,22,0.00938933,10,-0.00168266,-1.53416,-2.08722,-0.0282673,32.2151,0.0575655,
2,0,0,1,0,42568.6,0.0555074,0.0551509,-29.2913,22,0.00921378,10,-0.00161544,-1.53326,-2.46871,-0.0238991,27.3202,0.0551509,
2,0,0,1,0,42568.6,0.0530992,0.0527788,-29.3669,22,0.00903783,10,-0.00154995,-1.53214,-3.1465,-0.018751,21.4634,0.0527788,
2,0,0,1,0,42568.6,0.0507021,0.0503886,-29.4019,22,0.00886154,10,-0.00148152,-1.53162,-6.22994,-0.0094704,10.8561,0.0503886,
2,0,0,1,0,42568.6,0.048305,0.0479603,-29.4021,22,0.00868515,10,-0.00141013,-1.53162,-11.8675,-0.00497155,5.70518,0.0479603,
2,0,0,1,0,42568.6,0.0459051,0.0455818,-29.4166,22,0.00850871,10,-0.00134086,-1.53141,-20.861,-0.00282825,3.24591,0.0455818,
2,0,0,1,0,42568.7,0.0435024,0.0431906,-29.415,22,0.00833219,10,-0.00127045,-1.53143,18.8413,0.00313142,-3.59242,0.0431906,
2,0,0,1,0,42568.7,0.0411053,0.0407135,-29.3906,22,0.00815574,10,-0.00119659,-1.53179,8.14196,0.00724641,-8.31224,0.0407135,
2,0,0,1,0,42568.7,0.0387082,0.0383806,-29.3713,22,0.00797946,10,-0.00112729,-1.53208,6.87019,0.00858782,-9.84295,0.0383806,
2,0,0,1,0,42568.7,0.0363,0.0359544,-29.3488,22,0.0078033,10,-0.00105522,-1.53241,4.94179,0.011939,-13.6686,0.03595436,
2,0,0,1,0,42568.7,0.0339029,0.0335557,-29.3105,22,0.00762733,10,-0.000983534,-1.53298,3.62693,0.0162672,-18.597,0.0335557,
2,0,0,1,0,42568.7,0.0315058,0.0311719,-29.2612,22,0.00745163,10,-0.000912128,-1.53371,3.48036,0.0169523,-19.3612,0.0311719,
2,0,0,1,0,42568.7,0.0291087,0.0287436,-29.2061,22,0.00727627,10,-0.000839488,-1.53453,3.04373,0.0193841,-22.0944,0.0287436,
2,0,0,1,0,42568.7,0.0267033,0.0263418,-29.1623,22,0.00710113,10,-0.000768187,-1.53518,2.62834,0.0224476,-25.524,0.0263418,
2,0,0,1,0,42568.7,0.0243062,0.0240259,-29.0789,22,0.00692641,10,-0.000698647,-1.53642,2.18703,0.0269773,-30.6224,0.0240259,
2,0,0,1,0,42568.7,0.0219091,0.0215774,-29.0136,22,0.00675215,10,-0.000626038,-1.5374,2.20806,0.0267203,-30.2551,0.0215774,
2,0,0,1,0,42568.7,0.0195009,0.0192063,-28.9467,22,0.00657827,10,-0.000555958,-1.5384,1.92031,0.0307242,-34.6833,0.0192063,
2,0,0,1,0,42568.7,0.0171038,0.0167472,-28.8445,22,0.00640491,10,-0.000483065,-1.53994,1.67681,0.0351858,-39.6117,0.0167472,
2,0,0,1,0,42568.7,0.0147067,0.0143899,-28.7544,22,0.00623213,10,-0.000413775,-1.5413,1.64104,0.0359529,-40.3354,0.0143899,
2,0,0,1,0,42568.7,0.012304,0.0119839,-28.6617,22,0.00605991,10,-0.000343478,-1.5427,1.50756,0.039136,-43.7416,0.0119839,
2,0,0,1,0,42568.7,0.00990136,0.00958842,-28.5339,22,0.00588833,10,-0.000273595,-1.54464,1.30639,0.0451625,-50.2843,0.00958842,
2,0,0,1,0,42568.7,0.00750426,0.00717493,-28.4151,22,0.00571748,10,-0.000203876,-1.54645,1.23666,0.0477093,-52.9002,0.007174931,
2,0,0,1,0,42568.7,0.00510715,0.00482507,-28.2787,22,0.00554741,10,-0.000136447,-1.54854,1.29588,0.045529,-50.2855,0.00482507,
2,0,0,1,0,42568.8,0.00270173,0.00239144,-28.1473,22,0.00537813,10,-6.73125e-05,-1.55056,1.12648,0.0523756,-57.5283,0.00239144,
2,0,0,1,0,42568.8,0.000304623,-7.29467e-05,-28.0155,22,0.00520954,10,2.04364e-06,-1.5526,1.00419,0.0587539,-64.1725,-7.29467e-05,
2,0,0,1,0,42568.8,-0.00209248,-0.00247901,-27.8399,22,0.005042,10,6.90154e-05,-1.55533,0.871988,0.0676615,-73.5255,-0.00247901,
2,0,0,1,0,42568.8,-0.00450068,-0.00483736,-27.6811,22,0.00487548,10,0.000133903,-1.55782,0.848259,0.0695542,-75.0581,-0.00483736,
2,0,0,1,0,42568.8,-0.00689779,-0.00732613,-27.4856,22,0.00471001,10,0.000201363,-1.56089,0.811746,0.0726829,-77.9415,-0.00732613,
2,0,0,1,0,42568.8,-0.00929489,-0.00966751,-27.283,22,0.00454575,10,0.000263758,-1.56411,0.782178,0.0754304,-80.3455,-0.00966751,
2,0,0,1,0,42568.8,-0.011692,-0.0120418,-27.0995,22,0.00438261,10,0.000326326,-1.56704,0.758996,0.0777343,-82.1734,-0.0120418,
2,0,0,1,0,42568.8,-0.0140974,-0.0144499,-26.8945,22,0.0042206,10,0.000388625,-1.57034,0.731144,0.0806955,-84.6954,-0.0144499,
2,0,0,1,0,42568.8,-0.0164945,-0.0168931,-26.694,22,0.00405986,10,0.000450945,-1.57359,0.721773,0.0817431,-85.1893,-0.0168931,
2,0,0,1,0,42568.8,-0.0188916,-0.0192843,-26.4976,22,0.00390031,10,0.000510988,-1.57679,0.744721,0.0792242,-81.936,-0.0192843,
2,0,0,1,0,42568.8,-0.0212998,-0.0216989,-26.3064,22,0.00374195,10,0.00057082,-1.57994,0.761686,0.0774597,-79.515,-0.0216989,
2,0,0,1,0,42568.8,-0.0236969,-0.0240403,-26.1064,22,0.00358472,10,0.000627604,-1.58325,0.754489,0.0781986,-79.6702,-0.0240403,
2,0,0,1,0,42568.8,-0.026094,-0.0264633,-25.921,22,0.00342866,10,0.000685956,-1.58635,0.806462,0.0731591,-74.0513,-0.0264633,
2,0,0,1,0,42568.8,-0.0284912,-0.028846,-25.7436,22,0.00327371,10,0.000742599,-1.58933,0.817385,0.0721814,-72.5302,-0.028846,
2,0,0,1,0,42568.8,-0.0308994,-0.031268,-25.5784,22,0.00311974,10,0.000799784,-1.59213,0.869715,0.0678383,-67.7187,-0.031268,
2,0,0,1,0,42568.8,-0.0332965,-0.0336804,-25.405,22,0.00296681,10,0.000855651,-1.59508,0.894634,0.0659488,-65.4467,-0.0336804,
2,0,0,1,0,42568.8,-0.0356936,-0.0360674,-25.2653,22,0.00281481,10,0.000911252,-1.59748,0.968051,0.0609472,-60.1183,-0.0360674,
2,0,0,1,0,42568.9,-0.038099,-0.0385074,-25.1346,22,0.00266362,10,0.000967868,-1.59973,1.01611,0.0580645,-56.9504,-0.0385074,
2,0,0,1,0,42568.9,-0.0404961,-0.0409188,-24.9937,22,0.00251328,10,0.00102271,-1.60217,1.08585,0.0543353,-53.0491,-0.04091876,
2,0,0,1,0,42568.9,-0.0428932,-0.0432951,-24.8758,22,0.00236369,10,0.001077,-1.60422,1.32376,0.0445699,-43.2899,-0.0432951,
2,0,0,1,0,42568.9,-0.0452903,-0.0456895,-24.7792,22,0.00221473,10,0.00113215,-1.60591,1.40694,0.041935,-40.561,-0.0456895,
2,0,0,1,0,42568.9,-0.0476985,-0.0480362,-24.6843,22,0.00206636,10,0.00118574,-1.60758,1.56882,0.037608,-36.2451,-0.0480362,
2,0,0,1,0,42568.9,-0.0500956,-0.0504995,-24.599,22,0.00191854,10,0.00124224,-1.60908,1.76612,0.0334066,-32.0841,-0.0504995,
2,0,0,1,0,42568.9,-0.0524927,-0.0528971,-24.5215,22,0.00177117,10,0.00129711,-1.61045,2.14728,0.0274766,-26.3099,-0.0528971,
2,0,0,1,0,42568.9,-0.0548981,-0.0552809,-24.4743,22,0.00162419,10,0.00135296,-1.61129,2.53453,0.0232785,-22.2423,-0.05528092,
2,0,0,1,0,42568.9,-0.0572953,-0.0576583,-24.4172,22,0.00147753,10,0.00140785,-1.6123,3.11345,0.0189501,-18.068,-0.0576583,
2,0,0,1,0,42568.9,-0.0596924,-0.0600983,-24.3789,22,0.00133113,10,0.00146513,-1.61299,4.52769,0.0130309,-12.4063,-0.0600983,
2,0,0,1,0,42568.9,-0.062095,-0.0624991,-24.3595,22,0.00118492,10,0.00152245,-1.61333,5.27472,0.0111854,-10.6338,-0.0624991,
2,0,0,1,0,42568.9,-0.0644977,-0.0649009,-24.3422,22,0.00103881,10,0.00157983,-1.61364,10.3505,0.00570022,-5.41584,-0.06490092,
2,0,0,1,0,42568.9,-0.0668948,-0.0672572,-24.3349,22,0.000892821,10,0.0016367,-1.61377,16.2542,0.00362983,-3.44771,-0.0672572,
2,0,0,1,0,42568.9,-0.0692919,-0.0696632,-24.3318,22,0.000746846,10,0.00169503,-1.61383,-28.7929,-0.00204912,1.94623,-0.0696632,
2,0,0,1,0,42568.9,-0.0717001,-0.0721032,-24.3327,22,0.000600846,10,0.00175446,-1.61381,-7.00589,-0.00842148,8.00361,-0.0721032,
2,0,0,1,0,42568.9,-0.0740972,-0.074452,-24.3521,22,0.000454789,10,0.00181306,-1.61346,-6.1555,-0.00958492,9.11736,-0.074452,
2,0,0,1,0,42569,-0.0764943,-0.0768888,-24.3824,22,0.000308541,10,0.00187473,-1.61292,-4.47063,-0.0131972,12.5605,-0.0768888,
2,0,0,1,0,42569,-0.0788997,-0.0792482,-24.4158,22,0.000162147,10,0.00193491,-1.61233,-3.6877,-0.0159991,15.2533,-0.0792482,
2,0,0,1,0,42569,-0.0812968,-0.0816596,-24.4586,22,1.5515e-05,10,0.00199728,-1.61157,-2.81597,-0.0209519,20.0045,-0.0816596,
2,0,0,1,0,42569,-0.0836939,-0.0840826,-24.5137,22,-0.000131412,10,0.00206117,-1.61059,-2.49232,-0.0236727,22.6519,-0.0840826,
2,0,0,1,0,42569,-0.086091,-0.0864537,-24.5605,22,-0.000278642,10,0.00212335,-1.60976,-2.22647,-0.0264994,25.4163,-0.0864537,
2,0,0,1,0,42569,-0.0884992,-0.0888714,-24.6414,22,-0.000426262,10,0.00218991,-1.60834,-1.88252,-0.031341,30.1397,-0.0888714,
2,0,0,1,0,42569,-0.0908963,-0.091252,-24.7048,22,-0.000574307,10,0.00225437,-1.60722,-1.8386,-0.0320897,30.9527,-0.091252,
2,0,0,1,0,42569,-0.0932935,-0.0936517,-24.789,22,-0.000722814,10,0.00232154,-1.60574,-1.65464,-0.0356572,34.5154,-0.0936517,
2,0,0,1,0,42569,-0.0956989,-0.0960758,-24.8811,22,-0.000871808,10,0.00239047,-1.60413,-1.53288,-0.0384896,37.3801,-0.0960758,
2,0,0,1,0,42569,-0.098096,-0.098466,-24.9764,22,-0.00102138,10,0.00245933,-1.60247,-1.7934,-0.0328984,32.0031,-0.098466,
2,0,0,0,0,42569,-0.0999548,-0.100209,-25.0452,22,-0.00113895,10,0.00250976,-1.60128,0.0287269,2.05382,-1887.52,-0.100209,
2,0,0,1,1,42569,-0.0994554,-0.0999283,-23.7173,22,-0.00118009,10,0.00237003,-1.62493,-0.0264063,-2.23431,1896.88,-0.0999283,
2,0,0,1,1,42569,-0.0970583,-0.0974756,-19.801,22,-0.00130949,10,0.00193012,-1.70331,-0.0322794,-1.82779,1436.76,-0.0974756,
2,0,0,1,1,42569,-0.0946501,-0.0950695,-16.8683,22,-0.00141898,10,0.00160366,-1.77293,-0.0345473,-1.7078,1136.17,-0.0950695,
2,0,0,1,1,42569,-0.092253,-0.0926232,-14.4193,22,-0.00151247,10,0.00133556,-1.84105,-0.0343902,-1.71561,968.849,-0.0926232,
2,0,0,1,1,42569,-0.0898559,-0.0902616,-12.2623,22,-0.00159218,10,0.00110681,-1.91143,-0.0326475,-1.80718,863.237,-0.0902616,
2,0,0,1,1,42569,-0.0874588,-0.0878439,-10.307,22,-0.0016596,10,0.000905404,-1.98687,-0.0308282,-1.91383,766.515,-0.0878439,
2,0,0,1,1,42569,-0.0850534,-0.0854145,-8.53314,22,-0.00171583,10,0.000728854,-2.06889,-0.0276345,-2.13501,705.107,-0.0854145,
2,0,0,1,1,42569.1,-0.0826563,-0.0830912,-6.91327,22,-0.00176195,10,0.000574432,-2.16032,-0.0238165,-2.47727,657.055,-0.0830912,
2,0,0,1,1,42569.1,-0.0802592,-0.0806554,-5.39584,22,-0.00179866,10,0.000435204,-2.26794,-0.0200416,-2.94388,604.568,-0.0806554,
2,0,0,1,1,42569.1,-0.077851,-0.0782621,-3.99216,22,-0.00182662,10,0.000312434,-2.39879,-0.0154721,-3.81332,565.48,-0.0782621,
2,0,0,1,1,42569.1,-0.0754539,-0.0758528,-2.68942,22,-0.00184652,10,0.000204,-2.57034,-0.0103493,-5.70087,526.844,-0.0758528,
2,0,0,1,1,42569.1,-0.0730568,-0.0734467,-1.45927,22,-0.00185882,10,0.000107178,-2.83587,-0.00364773,-16.1744,496.307,-0.0734467,
2,0,0,1,1,42569.1,-0.0706597,-0.0710799,-0.315186,22,-0.001864,10,2.24034e-05,-3.50143,-0.0283637,-2.08012,467.828,-0.0710799,
2,1,0,1,1,42569.1,-0.0682542,-0.0686686,0.766952,22,-0.00186251,10,-5.26655e-05,-3.11523,0.0132404,4.45605,433.714,-0.0686686,
2,1,0,1,1,42569.1,-0.0658571,-0.0662731,1.77966,22,-0.00185475,10,-0.000117943,-2.74966,0.00729093,8.09225,414.546,-0.0662731,
2,1,0,1,1,42569.1,-0.06346,-0.0639094,2.73982,22,-0.00184105,10,-0.0001751,-2.56228,0.0145225,4.06266,394.242,-0.0639094,
2,1,0,1,1,42569.1,-0.0610518,-0.0614599,3.64814,22,-0.00182176,10,-0.000224214,-2.43793,0.021815,2.70456,366.368,-0.0614599,
2,1,0,1,1,42569.1,-0.0586547,-0.0590761,4.50003,22,-0.0017972,10,-0.000265845,-2.34678,0.0288829,2.04273,348.945,-0.0590761,
2,1,0,1,1,42569.1,-0.0562576,-0.0566669,5.31977,22,-0.00176764,10,-0.000301455,-2.27411,0.0359289,1.64213,334.281,-0.0566669,
2,1,0,1,1,42569.1,-0.053855,-0.0542831,6.09905,22,-0.00173328,10,-0.000331075,-2.21474,0.0442707,1.33271,311.949,-0.0542831,
2,1,0,1,1,42569.1,-0.0514523,-0.051877,6.82773,22,-0.00169439,10,-0.000354202,-2.16572,0.0517328,1.14048,300.616,-0.051877,
2,1,0,1,1,42569.1,-0.0490552,-0.0494678,7.52935,22,-0.00165125,10,-0.00037246,-2.12324,0.0605838,0.973858,283.543,-0.0494678,
2,1,0,1,1,42569.1,-0.0466581,-0.0470161,8.19019,22,-0.001604,10,-0.000385071,-2.08671,0.0708847,0.832337,263.969,-0.0470161,
2,1,0,1,1,42569.1,-0.0442527,-0.0446673,8.81155,22,-0.00155291,10,-0.000393588,-2.05495,0.0797376,0.739927,253.022,-0.0446673,
2,1,0,1,1,42569.2,-0.0418556,-0.0422676,9.40843,22,-0.00149819,10,-0.000397672,-2.02648,0.0895131,0.659121,240.638,-0.0422676,
2,1,0,1,1,42569.2,-0.0394585,-0.0398488,9.9703,22,-0.00143999,10,-0.000397305,-2.00129,0.0993824,0.593666,229.857,-0.0398488,
2,1,0,1,1,42569.2,-0.0370558,-0.0374682,10.4995,22,-0.00137853,10,-0.000393396,-1.97883,0.11144,0.529432,216.163,-0.0374682,
2,1,0,1,1,42569.2,-0.0346532,-0.0350388,11.003,22,-0.00131394,10,-0.000385531,-1.95849,0.122772,0.480564,205.599,-0.0350388,
2,1,0,1,1,42569.2,-0.032256,-0.032638,11.4795,22,-0.00124641,10,-0.000374667,-1.94008,0.137503,0.429082,191.687,-0.032638,
2,1,0,1,1,42569.2,-0.0298589,-0.0302596,11.9226,22,-0.00117614,10,-0.000360772,-1.92363,0.151697,0.388933,180.596,-0.0302596,
2,1,0,1,1,42569.2,-0.0274535,-0.027863,12.3559,22,-0.00110324,10,-0.000344272,-1.90813,0.163186,0.36155,173.958,-0.027863,
2,1,0,1,1,42569.2,-0.0250564,-0.0254771,12.7539,22,-0.00102788,10,-0.000324932,-1.89436,0.181053,0.325872,161.926,-0.0254771,
2,1,0,1,1,42569.2,-0.0226593,-0.0230541,13.1385,22,-0.000950141,10,-0.000302897,-1.88145,0.197147,0.299269,153.08,-0.0230541,
2,1,0,1,1,42569.2,-0.0202511,-0.0206682,13.4981,22,-0.000870203,10,-0.000278981,-1.86973,0.213449,0.276412,145.331,-0.0206682,
2,1,0,1,1,42569.2,-0.017854,-0.0182801,13.8313,22,-0.000788198,10,-0.000252839,-1.85914,0.230674,0.255773,137.863,-0.0182801,
2,1,0,1,1,42569.2,-0.0154569,-0.0158454,14.1595,22,-0.000704174,10,-0.000224363,-1.84895,0.25184,0.234276,129.143,-0.01584544,
2,1,0,1,1,42569.2,-0.0130598,-0.0134839,14.439,22,-0.000618321,10,-0.000194695,-1.84046,0.273979,0.215345,121.357,-0.0134839,
2,1,0,1,1,42569.2,-0.0106516,-0.0110545,14.7393,22,-0.000530746,10,-0.000162936,-1.83152,0.29105,0.202714,116.468,-0.0110545,
2,1,0,1,1,42569.2,-0.00825448,-0.00866542,15.0104,22,-0.000441454,10,-0.000130071,-1.82361,0.321613,0.183451,107.271,-0.00866542,
2,1,0,1,1,42569.2,-0.00585738,-0.00622331,15.2512,22,-0.000350622,10,-9.49131e-05,-1.8167,0.350025,0.168559,100.287,-0.006223307,
2,1,0,1,1,42569.3,-0.00345195,-0.00383739,15.4915,22,-0.000258363,10,-5.94471e-05,-1.80991,0.377267,0.156388,94.4248,-0.00383739,
2,1,0,1,1,42569.3,-0.00105485,-0.00144193,15.7157,22,-0.000164697,10,-2.2661e-05,-1.80366, , , ,-0.00144193,
2,1,0,0,1,42569.3,-7.54729e-05,-0.000478022,15.7982,22,-0.000125313,10,-7.5519e-06,-1.80139, , , ,-0.000478022,