File: Figure_codes/Fig_3-5/rawdata_trumpetplot_data/after 10th/20221101_1-115_003_TrumpetPlot_ParaChange_from10_every3_10_CV_C01_21.csv
mode,ox/red,error,control changes,counter inc.,time/s,control/V,Ewe/V,<I>/mA,cycle number,(Q-Qo)/C,I Range,P/W,log(|I|),Tafel slope mV/dec,alpha_eff,dI/d(E-IR),E-IR/V,
2,1,0,0,0,42563.3,-2.44065e-05,-0.0002108,5.1873,22,0.0000000E+000,10,-1.09348e-06,-2.28506, , , ,-0.0002108,
2,1,0,1,0,42563.3,0.00179726,0.00140685,5.93577,22,4.9472e-05,10,8.35074e-06,-2.22652, , , ,0.00140685,
2,1,0,1,0,42563.3,0.00379485,0.00347623,6.51564,22,0.000112082,10,2.26499e-05,-2.18604,0.0606407,0.972943,243.805,0.00347623,
2,1,0,1,0,42563.3,0.00579244,0.00549154,6.93163,22,0.000179492,10,3.80653e-05,-2.15916,0.0798182,0.739179,199.077,0.00549154,
2,1,0,1,0,42563.3,0.00779002,0.00742174,7.3011,22,0.000250757,10,5.41869e-05,-2.13661,0.0968898,0.608939,172.751,0.00742174,
2,1,0,1,0,42563.3,0.00977853,0.00946127,7.61741,22,0.000324697,10,7.20703e-05,-2.11819,0.119412,0.494087,146.407,0.00946127,
2,1,0,1,0,42563.3,0.0117761,0.0114568,7.89185,22,0.000402316,10,9.04151e-05,-2.10282,0.141099,0.418145,128.412,0.0114568,
2,1,0,1,0,42563.3,0.0137737,0.013421,8.12589,22,0.000482419,10,0.000109058,-2.09013,0.161323,0.365726,115.887,0.013421,
2,1,0,1,0,42563.3,0.0157713,0.0154182,8.35094,22,0.000564855,10,0.000128757,-2.07826,0.181869,0.324409,105.522,0.0154182,
2,1,0,1,0,42563.3,0.017778,0.0174103,8.54684,22,0.000649405,10,0.000148803,-2.06819,0.206332,0.285947,95.3045,0.0174103,
2,1,0,1,0,42563.4,0.0197755,0.0194179,8.73212,22,0.000735825,10,0.00016956,-2.05888,0.233,0.253219,86.1594,0.0194179,
2,1,0,1,0,42563.4,0.0217731,0.0214221,8.89249,22,0.000823968,10,0.000190496,-2.05098,0.260266,0.226691,78.6479,0.0214221,
2,1,0,1,0,42563.4,0.0237707,0.0234497,9.04921,22,0.000913694,10,0.000212201,-2.04339,0.274823,0.214684,75.7635,0.0234497,
2,1,0,1,0,42563.4,0.0257774,0.0254087,9.19453,22,0.00100493,10,0.000233621,-2.03647,0.295519,0.199649,71.6265,0.0254087,
2,1,0,1,0,42563.4,0.027775,0.0274771,9.33768,22,0.0010976,10,0.000256572,-2.02976,0.325187,0.181434,66.0412,0.0274771,
2,1,0,1,0,42563.4,0.0297726,0.0294335,9.46034,22,0.00119161,10,0.000278451,-2.02409,0.347258,0.169902,62.7323,0.0294335,
2,1,0,1,0,42563.4,0.0317701,0.0314195,9.585,22,0.0012869,10,0.000301156,-2.01841,0.337469,0.174831,65.43,0.03141949,
2,1,0,1,0,42563.4,0.0337586,0.0333988,9.71978,22,0.00138246,10,0.000324629,-2.01234,0.348722,0.169189,64.1402,0.0333988,
2,1,0,1,0,42563.4,0.0357562,0.035457,9.84397,22,0.00148029,10,0.000349038,-2.00683,0.392372,0.150368,57.7161,0.035457,
2,1,0,1,0,42563.4,0.0377538,0.0374103,9.95131,22,0.00157928,10,0.000372282,-2.00212,0.379704,0.155384,60.4194,0.0374103,
2,1,0,1,0,42563.5,0.0397514,0.0394248,10.0837,22,0.00167945,10,0.000397548,-1.99638,0.358972,0.164358,64.6531,0.0394248,
2,1,0,1,0,42563.5,0.0417399,0.0413891,10.2086,22,0.00177985,10,0.000422523,-1.99104,0.382246,0.154351,61.4772,0.0413891,
2,1,0,1,0,42563.5,0.0437375,0.0434081,10.3286,22,0.00188255,10,0.000448344,-1.98596,0.413631,0.142639,57.4716,0.0434081,
2,1,0,1,0,42563.5,0.0457351,0.0454235,10.4404,22,0.00198637,10,0.00047424,-1.98128,0.402063,0.146743,59.8303,0.0454235,
2,1,0,1,0,42563.5,0.0477327,0.0473878,10.5667,22,0.00209141,10,0.000500732,-1.97606,0.37818,0.15601,64.343,0.0473878,
2,1,0,1,0,42563.5,0.0497394,0.0493989,10.6962,22,0.0021977,10,0.000528381,-1.97077,0.400358,0.147368,61.478,0.0493989,
2,1,0,1,0,42563.5,0.0517369,0.0513944,10.813,22,0.00230523,10,0.000555728,-1.96605,0.407266,0.144868,61.154,0.0513944,
2,1,0,1,0,42563.5,0.0537345,0.0533482,10.9377,22,0.00241397,10,0.000583508,-1.96107,0.39226,0.15041,64.2209,0.0533482,
2,1,0,1,0,42563.5,0.0557321,0.0553784,11.0689,22,0.00252402,10,0.000612976,-1.9559,0.424092,0.139121,60.0409,0.0553784,
2,1,0,1,0,42563.5,0.0577297,0.0573826,11.18,22,0.00263527,10,0.000641534,-1.95156,0.408812,0.144321,63.0542,0.05738258,
2,1,0,1,0,42563.6,0.0597364,0.0593928,11.322,22,0.00274787,10,0.000672445,-1.94608,0.388528,0.151855,67.0516,0.0593928,
2,1,0,1,0,42563.6,0.0617339,0.0613961,11.4491,22,0.00286173,10,0.000702928,-1.94123,0.415628,0.141954,63.4169,0.0613961,
2,1,0,1,0,42563.6,0.0637315,0.0633517,11.573,22,0.00297686,10,0.000733172,-1.93655,0.416018,0.141821,64.0684,0.0633517,
2,1,0,1,0,42563.6,0.0657291,0.0653576,11.7029,22,0.00309328,10,0.000764872,-1.93171,0.390165,0.151218,69.115,0.0653576,
2,1,0,1,0,42563.6,0.0677176,0.0673678,11.8506,22,0.00320993,10,0.000798351,-1.92626,0.404538,0.145845,67.3795,0.0673678,
2,1,0,1,0,42563.6,0.0697152,0.0693784,11.9738,22,0.00332907,10,0.000830722,-1.92177,0.417974,0.141157,66.0053,0.0693784,
2,1,0,1,0,42563.6,0.0717128,0.0713491,12.1134,22,0.00344951,10,0.000864281,-1.91673,0.415377,0.14204,67.1134,0.0713491,
2,1,0,1,0,42563.6,0.0737104,0.0733621,12.2411,22,0.00357126,10,0.000898036,-1.91218,0.438346,0.134597,64.3074,0.07336206,
2,1,0,1,0,42563.6,0.0756989,0.0753715,12.3721,22,0.00369313,10,0.000932502,-1.90756,0.45289,0.130275,62.8762,0.0753715,
2,1,0,1,0,42563.6,0.0776965,0.0773774,12.4936,22,0.00381746,10,0.000966723,-1.90331,0.44397,0.132892,64.831,0.0773774,
2,1,0,1,0,42563.7,0.0796941,0.0793408,12.6294,22,0.0039431,10,0.00100203,-1.89862,0.447999,0.131697,64.872,0.0793408,
2,1,0,1,0,42563.7,0.0816917,0.0813406,12.7507,22,0.00407002,10,0.00103715,-1.89447,0.47151,0.12513,62.2797,0.0813406,
2,1,0,1,0,42563.7,0.0836983,0.0833318,12.878,22,0.00419815,10,0.00107314,-1.89015,0.469644,0.125627,63.134,0.0833318,
2,1,0,1,0,42563.7,0.0856959,0.0853559,13.0042,22,0.00432755,10,0.00110999,-1.88592,0.468272,0.125995,63.9454,0.0853559,
2,1,0,1,0,42563.7,0.0876935,0.0873002,13.1317,22,0.00445823,10,0.0011464,-1.88168,0.496219,0.118899,60.9053,0.0873002,
2,1,0,1,0,42563.7,0.0896911,0.0893478,13.2473,22,0.00459014,10,0.00118362,-1.87787,0.498477,0.118361,61.2338,0.0893478,
2,1,0,1,0,42563.7,0.0916977,0.0913797,13.3815,22,0.0047233,10,0.0012228,-1.87349,0.506618,0.116459,60.7588,0.0913797,
2,1,0,1,0,42563.7,0.0936953,0.0933387,13.4898,22,0.0048577,10,0.00125912,-1.86999,0.545237,0.10821,56.9876,0.09333875,
2,1,0,1,0,42563.7,0.0956929,0.0953481,13.6077,22,0.00499322,10,0.00129747,-1.86622,0.553629,0.106569,56.5803,0.0953481,
2,1,0,1,0,42563.7,0.0976905,0.0973879,13.7189,22,0.00512986,10,0.00133606,-1.86268,0.524152,0.112563,60.3041,0.0973879,
2,1,0,1,0,42563.8,0.099679,0.0993304,13.8478,22,0.00526628,10,0.00137551,-1.85862,0.548124,0.10764,58.1133,0.0993304,
2,1,0,1,0,42563.8,0.101677,0.101349,13.9491,22,0.0054053,10,0.00141373,-1.85545,0.559493,0.105453,57.4621,0.101349,
2,1,0,1,0,42563.8,0.103674,0.103329,14.0776,22,0.00554541,10,0.00145463,-1.85147,0.510971,0.115466,63.4224,0.103329,
2,1,0,1,0,42563.8,0.105672,0.105305,14.2,22,0.0056868,10,0.00149533,-1.84771,0.50901,0.115911,64.2605,0.105305,
2,1,0,1,0,42563.8,0.107656,0.10732,14.3341,22,0.00582804,10,0.00153834,-1.84363,0.501079,0.117746,65.8612,0.10732,
2,1,0,1,0,42563.8,0.109658,0.109339,14.4657,22,0.00597206,10,0.00158167,-1.83966,0.474818,0.124258,70.1914,0.109339,
2,1,0,1,0,42563.8,0.111655,0.111327,14.6153,22,0.0061175,10,0.00162708,-1.83519,0.44783,0.131746,75.1381,0.1113268,
2,1,0,1,0,42563.8,0.113653,0.113289,14.7625,22,0.00626441,10,0.00167244,-1.83084,0.429965,0.137221,79.109,0.113289,
2,1,0,1,0,42563.8,0.115651,0.115306,14.9301,22,0.00641286,10,0.00172152,-1.82594,0.400666,0.147255,85.8243,0.115306,
2,1,0,1,0,42563.8,0.117657,0.117301,15.1068,22,0.00656308,10,0.00177205,-1.82083,0.396173,0.148925,87.7997,0.117301,
2,1,0,1,0,42563.9,0.119655,0.119339,15.2842,22,0.00671504,10,0.001824,-1.81576,0.397261,0.148517,88.5858,0.119339,
2,1,0,1,0,42563.9,0.121652,0.121306,15.4616,22,0.00686877,10,0.00187559,-1.81075,0.380997,0.154857,93.4826,0.121306,
2,1,0,1,0,42563.9,0.12365,0.123289,15.6535,22,0.00702435,10,0.00192991,-1.80539,0.368384,0.160159,97.8521,0.123289,
2,1,0,1,0,42563.9,0.125657,0.125277,15.8502,22,0.00718197,10,0.00198566,-1.79997,0.371631,0.15876,98.207,0.125277,
2,1,0,1,0,42563.9,0.127654,0.127315,16.0488,22,0.00734148,10,0.00204326,-1.79456,0.385839,0.152914,95.7441,0.127315,
2,1,0,1,0,42563.9,0.129652,0.129334,16.2386,22,0.00750294,10,0.0021002,-1.78945,0.379216,0.155584,98.6468,0.129334,
2,1,0,1,0,42563.9,0.131649,0.131335,16.4454,22,0.00766639,10,0.00215985,-1.78396,0.386973,0.152466,97.7749,0.131335,
2,1,0,1,0,42563.9,0.133638,0.133307,16.627,22,0.00783017,10,0.00221649,-1.77919,0.403868,0.146087,94.829,0.133307,
2,1,0,1,0,42563.9,0.135636,0.135303,16.8217,22,0.00799743,10,0.00227602,-1.77413,0.416047,0.141811,93.0365,0.1353028,
2,1,0,1,0,42563.9,0.137633,0.137265,16.9953,22,0.00816654,10,0.00233286,-1.76967,0.43824,0.134629,89.3122,0.1372648,
2,1,0,1,0,42564,0.139631,0.139274,17.1763,22,0.00833741,10,0.00239221,-1.76507,0.462502,0.127567,85.4629,0.139274,
2,1,0,1,0,42564,0.141619,0.141278,17.3383,22,0.00850826,10,0.00244953,-1.76099,0.496122,0.118922,80.4649,0.141278,
2,1,0,1,0,42564,0.143617,0.143286,17.4991,22,0.00868249,10,0.00250738,-1.75698,0.536991,0.109872,74.9888,0.143286,
2,1,0,1,0,42564,0.145614,0.14529,17.6391,22,0.00885824,10,0.00256279,-1.75352,0.582312,0.10132,69.7443,0.14529,
2,1,0,1,0,42564,0.147612,0.147278,17.7776,22,0.00903534,10,0.00261824,-1.75013,0.611058,0.0965539,66.9683,0.147278,
2,1,0,1,0,42564,0.149619,0.149267,17.9055,22,0.00921374,10,0.0026727,-1.74701,0.686182,0.085983,60.0564,0.149267,
2,1,0,1,0,42564,0.151616,0.151269,18.0172,22,0.00939337,10,0.00272544,-1.74431,0.896784,0.0657906,46.2125,0.151269,
2,1,0,1,0,42564,0.153614,0.153292,18.0915,22,0.00957391,10,0.00277328,-1.74253,1.13373,0.0520405,36.7422,0.153292,
2,1,0,1,0,42564,0.155611,0.155284,18.1648,22,0.0097552,10,0.0028207,-1.74077,1.49391,0.0394937,27.9707,0.155284,
2,1,0,1,0,42564,0.157618,0.157287,18.2032,22,0.00993705,10,0.00286314,-1.73985,4.16239,0.0141745,10.0597,0.157287,
2,1,0,1,0,42564.1,0.159616,0.159309,18.2053,22,0.0101191,10,0.00290026,-1.7398,-5.76171,-0.01024,-7.26881,0.159309,
2,1,0,1,0,42564.1,0.161613,0.16132,18.1739,22,0.0103011,10,0.00293182,-1.74055,-1.58348,-0.0372597,-26.3978,0.16132,
2,1,0,1,0,42564.1,0.163611,0.16321,18.1023,22,0.0104825,10,0.00295448,-1.74227,-0.877722,-0.0672195,-47.4296,0.16321,
2,1,0,1,0,42564.1,0.165618,0.165288,17.9857,22,0.0106629,10,0.00297282,-1.74507,-0.616875,-0.0956433,-67.0591,0.165288,
2,1,0,1,0,42564.1,0.167597,0.167279,17.8294,22,0.0108402,10,0.00298249,-1.74886,-0.437723,-0.134789,-93.6314,0.167279,
2,1,0,1,0,42564.1,0.169595,0.169254,17.6143,22,0.0110175,10,0.0029813,-1.75413,-0.340234,-0.17341,-119.055,0.169254,
2,1,0,1,0,42564.1,0.171592,0.171253,17.3563,22,0.0111923,10,0.00297232,-1.76054,-0.28128,-0.209755,-141.856,0.171253,
2,1,0,1,0,42564.1,0.173572,0.173256,17.0466,22,0.0113626,10,0.00295343,-1.76836,-0.2412,-0.24461,-162.573,0.173256,
2,1,0,1,0,42564.1,0.175578,0.175244,16.7074,22,0.0115314,10,0.00292788,-1.77709,-0.214125,-0.27554,-179.381,0.175244,
2,1,0,1,0,42564.1,0.177576,0.1773,16.3212,22,0.0116965,10,0.00289375,-1.78725,-0.188624,-0.312791,-199.042,0.1773,
2,1,0,1,0,42564.2,0.179573,0.179253,15.9094,22,0.0118576,10,0.00285182,-1.79835,-0.170416,-0.346212,-214.774,0.179253,
2,1,0,1,0,42564.2,0.181571,0.181229,15.4774,22,0.0120145,10,0.00280496,-1.8103,-0.1679,-0.351399,-212.276,0.181229,
2,1,0,1,0,42564.2,0.183578,0.183274,15.056,22,0.0121672,10,0.00275937,-1.82229,-0.159594,-0.369687,-216.911,0.183274,
2,1,0,1,0,42564.2,0.185575,0.185275,14.5997,22,0.0123154,10,0.00270497,-1.83566,-0.152396,-0.38715,-220.782,0.185275,
2,1,0,1,0,42564.2,0.187573,0.187253,14.1775,22,0.0124591,10,0.00265478,-1.8484,-0.151567,-0.389267,-215.224,0.1872527,
2,1,0,1,0,42564.2,0.18957,0.189256,13.743,22,0.0125987,10,0.00260095,-1.86192,-0.153201,-0.385116,-206.805,0.189256,
2,1,0,1,0,42564.2,0.191577,0.191254,13.35,22,0.0127341,10,0.00255325,-1.87452,-0.154929,-0.380819,-198.305,0.191254,
2,1,0,1,0,42564.2,0.193575,0.193251,12.9507,22,0.0128656,10,0.00250274,-1.88771,-0.160106,-0.368507,-186.55,0.1932513,
2,1,0,1,0,42564.2,0.195572,0.195275,12.6,22,0.0129933,10,0.00246046,-1.89963,-0.163497,-0.360863,-177.381,0.195275,
2,1,0,1,0,42564.2,0.19757,0.197224,12.246,22,0.0131175,10,0.00241521,-1.91201,-0.171101,-0.344825,-165.106,0.197224,
2,1,0,1,0,42564.3,0.199558,0.199252,11.9434,22,0.0132372,10,0.00237973,-1.92287,-0.184362,-0.320022,-149.178,0.199252,
2,1,0,1,0,42564.3,0.201556,0.201235,11.6476,22,0.0133551,10,0.00234392,-1.93376,-0.185318,-0.318371,-144.811,0.201235,
2,1,0,1,0,42564.3,0.203553,0.203204,11.371,22,0.0134701,10,0.00231063,-1.9442,-0.195027,-0.302523,-134.333,0.203204,
2,1,0,1,0,42564.3,0.205551,0.20522,11.1123,22,0.0135825,10,0.00228047,-1.9542,-0.218614,-0.269882,-117.254,0.20522,
2,1,0,1,0,42564.3,0.20754,0.207245,10.8972,22,0.0136913,10,0.00225839,-1.96269,-0.223704,-0.263741,-112.073,0.2072449,
2,1,0,1,0,42564.3,0.209537,0.209192,10.6672,22,0.0137991,10,0.00223149,-1.97195,-0.226759,-0.260189,-108.452,0.209192,
2,1,0,1,0,42564.3,0.211535,0.211218,10.4663,22,0.0139047,10,0.00221068,-1.98021,-0.247544,-0.238342,-97.3887,0.211218,
2,1,0,1,0,42564.3,0.213532,0.213218,10.2752,22,0.0140084,10,0.00219084,-1.98821,-0.263944,-0.223532,-89.7442,0.213218,
2,1,0,1,0,42564.3,0.215539,0.215184,10.1103,22,0.0141102,10,0.00217559,-1.99523,-0.270524,-0.218096,-85.9875,0.215184,
2,1,0,1,0,42564.3,0.217537,0.217213,9.93161,22,0.0142104,10,0.00215727,-2.00298,-0.284419,-0.20744,-80.54,0.217213,
2,1,0,1,0,42564.4,0.219534,0.219183,9.78829,22,0.014309,10,0.00214543,-2.00929,-0.308926,-0.190984,-72.9307,0.219183,
2,1,0,1,0,42564.4,0.221532,0.22122,9.63934,22,0.0144061,10,0.00213242,-2.01595,-0.331681,-0.177882,-67.0105,0.22122,
2,1,0,1,0,42564.4,0.223534,0.223212,9.51829,22,0.0145019,10,0.0021246,-2.02144,-0.348227,-0.16943,-62.9077,0.223212,
2,1,0,1,0,42564.4,0.225536,0.225197,9.3892,22,0.0145964,10,0.00211442,-2.02737,-0.360789,-0.16353,-59.9739,0.225197,
2,1,0,1,0,42564.4,0.227534,0.227232,9.27722,22,0.0146897,10,0.00210808,-2.03258,-0.368688,-0.160027,-57.9043,0.227232,
2,1,0,1,0,42564.4,0.229531,0.229242,9.15494,22,0.014782,10,0.0020987,-2.03834,-0.396742,-0.148711,-53.2269,0.229242,
2,1,0,1,0,42564.4,0.231529,0.231202,9.0659,22,0.014873,10,0.00209605,-2.04259,-0.453666,-0.130052,-46.0038,0.231202,
2,1,0,1,0,42564.4,0.233517,0.233188,8.97341,22,0.0149624,10,0.00209249,-2.04704,-0.457905,-0.128848,-45.1352,0.233188,
2,1,0,1,0,42564.4,0.235515,0.235179,8.88641,22,0.0150516,10,0.0020899,-2.05127,-0.44254,-0.133321,-46.209,0.235179,
2,1,0,1,0,42564.4,0.237512,0.237173,8.7893,22,0.01514,10,0.00208458,-2.05605,-0.492193,-0.119872,-41.182,0.237173,
2,1,0,1,0,42564.5,0.23951,0.23922,8.72,22,0.0152275,10,0.00208599,-2.05948,-0.550934,-0.107091,-36.4271,0.23922,
2,1,0,1,0,42564.5,0.241499,0.241196,8.64273,22,0.0153134,10,0.00208459,-2.06335,-0.511498,-0.115347,-38.911,0.241196,
2,1,0,1,0,42564.5,0.243496,0.243128,8.56791,22,0.0153995,10,0.0020831,-2.06712,-0.550113,-0.107251,-35.8736,0.2431282,
2,1,0,1,0,42564.5,0.245494,0.245207,8.49885,22,0.0154848,10,0.00208398,-2.07064,-0.61688,-0.0956426,-31.7386,0.245207,
2,1,0,1,0,42564.5,0.247491,0.247209,8.43841,22,0.0155694,10,0.00208605,-2.07374,-0.608693,-0.0969289,-31.908,0.247209,
2,1,0,1,0,42564.5,0.249498,0.249202,8.37136,22,0.0156535,10,0.00208616,-2.0772,-0.63864,-0.0923838,-30.2053,0.2492023,
2,1,0,1,0,42564.5,0.251496,0.25122,8.31723,22,0.015737,10,0.00208946,-2.08002,-0.660291,-0.0893545,-28.9909,0.25122,
2,1,0,1,0,42564.5,0.253493,0.253187,8.25584,22,0.0158198,10,0.00209027,-2.08324,-0.667475,-0.0883929,-28.4951,0.253187,
2,1,0,1,0,42564.5,0.255491,0.255215,8.20341,22,0.0159022,10,0.00209363,-2.08601,-0.740926,-0.07963,-25.4981,0.255215,
2,1,0,1,0,42564.5,0.257497,0.257183,8.15394,22,0.015984,10,0.00209706,-2.08863,-0.892994,-0.0660699,-21.0439,0.2571834,
2,1,0,1,0,42564.6,0.259495,0.259212,8.11929,22,0.0160653,10,0.00210462,-2.09048,-0.746182,-0.0790692,-25.0079,0.2592119,
2,1,0,1,0,42564.6,0.261493,0.261158,8.05455,22,0.0161462,10,0.00210351,-2.09396,-0.717277,-0.0822555,-25.8994,0.2611579,
2,1,0,1,0,42564.6,0.26349,0.263171,8.01676,22,0.0162265,10,0.00210978,-2.096,-0.983388,-0.0599966,-18.772,0.263171,
2,1,0,1,0,42564.6,0.265479,0.265136,7.97987,22,0.0163057,10,0.00211575,-2.098,-0.951477,-0.0620088,-19.3084,0.265136,
2,1,0,1,0,42564.6,0.267476,0.267115,7.94061,22,0.0163853,10,0.00212105,-2.10015,-0.791363,-0.0745549,-23.0838,0.267115,
2,1,0,1,0,42564.6,0.269474,0.269141,7.88743,22,0.0164644,10,0.00212283,-2.10306,-0.941534,-0.0626637,-19.3241,0.269141,
2,1,0,1,0,42564.6,0.271471,0.271135,7.86292,22,0.0165431,10,0.00213191,-2.10442,-1.19356,-0.0494318,-15.158,0.2711353,
2,1,0,1,0,42564.6,0.27346,0.273114,7.8272,22,0.0166207,10,0.00213772,-2.10639,-0.886562,-0.0665492,-20.3173,0.273114,
2,1,0,1,0,42564.6,0.275458,0.275081,7.78275,22,0.0166987,10,0.00214089,-2.10887,-0.914908,-0.0644874,-19.5996,0.275081,
2,1,0,1,0,42564.6,0.277455,0.277138,7.74833,22,0.0167764,10,0.00214736,-2.11079,-1.13546,-0.0519611,-15.717,0.277138,
2,1,0,1,0,42564.7,0.279453,0.279185,7.71825,22,0.0168537,10,0.00215482,-2.11248,-1.00908,-0.0584691,-17.6005,0.279185,
2,1,0,1,0,42564.7,0.281455,0.281124,7.67818,22,0.0169306,10,0.00215852,-2.11474,-1.05794,-0.055769,-16.7266,0.281124,
2,1,0,1,0,42564.7,0.283457,0.283138,7.65213,22,0.0170073,10,0.00216661,-2.11622,-1.17517,-0.0502056,-14.9859,0.283138,
2,1,0,1,0,42564.7,0.285455,0.285101,7.61858,22,0.0170836,10,0.00217207,-2.11813,-1.04904,-0.0562419,-16.7226,0.285101,
2,1,0,1,0,42564.7,0.287452,0.287131,7.58535,22,0.0171596,10,0.00217799,-2.12002,-1.0254,-0.0575388,-17.0318,0.287131,
2,1,0,1,0,42564.7,0.28945,0.289077,7.55085,22,0.0172353,10,0.00218278,-2.122,-1.25611,-0.0469703,-13.8537,0.289077,
2,1,0,1,0,42564.7,0.291456,0.291142,7.52978,22,0.0173107,10,0.00219224,-2.12322,-1.15532,-0.0510682,-14.9888,0.291142,
2,1,0,1,0,42564.7,0.293454,0.293107,7.49046,22,0.0173858,10,0.0021955,-2.12549,-1.07846,-0.0547075,-16.0083,0.293107,
2,1,0,1,0,42564.7,0.295452,0.295128,7.46597,22,0.0174606,10,0.00220342,-2.12691,-1.21484,-0.0485663,-14.1429,0.295128,
2,1,0,1,0,42564.7,0.297449,0.297164,7.43307,22,0.0175351,10,0.00220884,-2.12883,-1.33625,-0.0441533,-12.821,0.297164,
2,1,0,1,0,42564.8,0.299438,0.299118,7.41482,22,0.0176086,10,0.00221791,-2.1299,-0.0673893,-0.87551,-244.363,0.299118,
2,1,0,1,0,42564.8,0.299746,0.299438,6.87759,22,0.0176398,10,0.00205941,-2.16256,0.00759631,7.76693,1765.82,0.299438,
2,1,0,1,0,42564.8,0.29774,0.297457,4.48132,22,0.0176951,10,0.001333,-2.34859,0.0111922,5.27151,958.577,0.2974568,
2,1,0,1,0,42564.8,0.295742,0.29537,2.97868,22,0.0177319,10,0.000879814,-2.52598,0.0104163,5.66422,656.11,0.29537,
2,1,0,1,0,42564.8,0.293745,0.293433,1.84115,22,0.0177556,10,0.000540255,-2.73491,0.00806059,7.31957,511.43,0.293433,
2,1,0,1,0,42564.8,0.291747,0.291443,0.969978,22,0.0177694,10,0.000282693,-3.01324,0.0045127,13.0742,401.309,0.291443,
2,1,0,1,0,42564.8,0.289745,0.289444,0.240594,22,0.0177753,10,6.96386e-05,-3.61872,0.00868503,6.7933,323.017,0.289444,
2,0,0,1,0,42564.8,0.287743,0.287409,-0.332919,22,0.0177746,10,-9.56839e-05,-3.47766,-0.00760506,-7.75799,261.922,0.287409,
2,0,0,1,0,42564.8,0.285745,0.285407,-0.817012,22,0.0177688,10,-0.00023318,-3.08777,-0.00706235,-8.35416,222.652,0.285407,
2,0,0,1,0,42564.8,0.283748,0.283427,-1.21958,22,0.0177585,10,-0.000345661,-2.91379,-0.0140523,-4.1986,189.62,0.283427,
2,0,0,1,0,42564.8,0.28175,0.281378,-1.58086,22,0.0177443,10,-0.000444819,-2.80111,-0.021513,-2.74253,163.054,0.281378,
2,0,0,1,0,42564.9,0.279761,0.279414,-1.87394,22,0.0177271,10,-0.000523603,-2.72725,-0.0292364,-2.01803,145.914,0.279414,
2,0,0,1,0,42564.9,0.277764,0.27745,-2.15406,22,0.0177069,10,-0.000597643,-2.66674,-0.0386578,-1.52621,125.957,0.27745,
2,0,0,1,0,42564.9,0.275766,0.275434,-2.37521,22,0.0176843,10,-0.000654213,-2.6243,-0.0504139,-1.17031,107.977,0.2754339,
2,0,0,1,0,42564.9,0.273769,0.273437,-2.58738,22,0.0176594,10,-0.000707485,-2.58714,-0.0594939,-0.991698,99.408,0.2734369,
2,0,0,1,0,42564.9,0.27178,0.271442,-2.77199,22,0.0176328,10,-0.000752435,-2.55721,-0.0681567,-0.865652,93.4656,0.2714425,
2,0,0,1,0,42564.9,0.269783,0.269516,-2.95389,22,0.0176041,10,-0.00079612,-2.52961,-0.0823973,-0.716043,81.9407,0.269516,
2,0,0,1,0,42564.9,0.267785,0.267458,-3.09852,22,0.0175739,10,-0.000828721,-2.50885,-0.0975077,-0.605081,73.2011,0.267458,
2,0,0,1,0,42564.9,0.265787,0.265463,-3.25054,22,0.0175421,10,-0.000862899,-2.48804,-0.108178,-0.5454,68.8524,0.265463,
2,0,0,1,0,42564.9,0.263781,0.263443,-3.37491,22,0.017509,10,-0.000889098,-2.47174,-0.121511,-0.485553,63.9876,0.263443,
2,0,0,1,0,42564.9,0.261783,0.261468,-3.50614,22,0.0174745,10,-0.000916745,-2.45517,-0.13853,-0.425899,57.9902,0.2614685,
2,0,0,1,0,42565,0.259786,0.25947,-3.60535,22,0.017439,10,-0.000935478,-2.44305,-0.150562,-0.391864,55.2963,0.25947,
2,0,0,1,0,42565,0.257788,0.257464,-3.72759,22,0.0174023,10,-0.00095972,-2.42857,-0.15687,-0.376108,54.5113,0.257464,
2,0,0,1,0,42565,0.255781,0.255453,-3.82427,22,0.0173645,10,-0.000976923,-2.41745,-0.180925,-0.326102,48.6756,0.255453,
2,0,0,1,0,42565,0.253784,0.253441,-3.92342,22,0.0173257,10,-0.000994354,-2.40634,-0.204998,-0.287808,43.9321,0.253441,
2,0,0,1,0,42565,0.251786,0.251464,-3.99953,22,0.0172861,10,-0.00100574,-2.39799,-0.205594,-0.286974,44.9388,0.251464,
2,0,0,1,0,42565,0.249789,0.249446,-4.10293,22,0.0172456,10,-0.00102346,-2.38691,-0.220971,-0.267004,42.5534,0.249446,
2,0,0,1,0,42565,0.2478,0.247481,-4.16904,22,0.0172046,10,-0.00103176,-2.37996,-0.241578,-0.244228,39.8562,0.247481,
2,0,0,1,0,42565,0.245802,0.245476,-4.26118,22,0.0171624,10,-0.00104601,-2.37047,-0.243291,-0.242508,40.2079,0.245476,
2,0,0,1,0,42565,0.243805,0.24351,-4.32867,22,0.0171195,10,-0.00105408,-2.36365,-0.283319,-0.208246,35.1926,0.2435104,
2,0,0,1,0,42565,0.241807,0.24153,-4.40003,22,0.0170758,10,-0.00106274,-2.35654,-0.281472,-0.209612,35.9957,0.24153,
2,0,0,1,0,42565.1,0.239819,0.239515,-4.47247,22,0.0170319,10,-0.00107123,-2.34945,-0.282979,-0.208496,36.399,0.239515,
2,0,0,1,0,42565.1,0.237821,0.237482,-4.54738,22,0.0169868,10,-0.00107992,-2.34224,-0.331551,-0.177951,31.5028,0.2374818,
2,0,0,1,0,42565.1,0.235824,0.235456,-4.60036,22,0.016941,10,-0.00108318,-2.33721,-0.339925,-0.173568,31.22,0.235456,
2,0,0,1,0,42565.1,0.233826,0.233521,-4.67103,22,0.0168947,10,-0.00109078,-2.33059,-0.327707,-0.180039,32.7743,0.233521,
2,0,0,1,0,42565.1,0.231824,0.231525,-4.7292,22,0.0168477,10,-0.00109493,-2.32521,-0.34017,-0.173443,32.0494,0.231525,
2,0,0,1,0,42565.1,0.229822,0.229525,-4.79911,22,0.0168,10,-0.00110151,-2.31884,-0.394207,-0.149668,27.9504,0.229525,
2,0,0,1,0,42565.1,0.227824,0.227504,-4.84158,22,0.0167518,10,-0.00110148,-2.31501,-0.397082,-0.148584,28.1573,0.227504,
2,0,0,1,0,42565.1,0.225827,0.225486,-4.91283,22,0.0167031,10,-0.00110778,-2.30867,-0.401463,-0.146963,28.0872,0.225486,
2,0,0,1,0,42565.1,0.223829,0.223537,-4.95301,22,0.0166537,10,-0.00110718,-2.30513,-0.41478,-0.142244,27.5756,0.223537,
2,0,0,1,0,42565.1,0.221822,0.221514,-5.02235,22,0.0166038,10,-0.00111252,-2.29909,-0.402639,-0.146533,28.6527,0.221514,
2,0,0,1,0,42565.2,0.219825,0.219522,-5.06806,22,0.0165533,10,-0.00111255,-2.29516,-0.431342,-0.136782,27.1001,0.219522,
2,0,0,1,0,42565.2,0.217827,0.217493,-5.13133,22,0.0165023,10,-0.00111603,-2.28977,-0.460933,-0.128001,25.5731,0.217493,
2,0,0,1,0,42565.2,0.21583,0.215505,-5.17077,22,0.0164508,10,-0.00111433,-2.28645,-0.428231,-0.137776,27.8857,0.215505,
2,0,0,1,0,42565.2,0.213841,0.213548,-5.24134,22,0.0163992,10,-0.00111928,-2.28056,-0.415046,-0.142153,29.0068,0.213548,
2,0,0,1,0,42565.2,0.211843,0.211507,-5.28674,22,0.0163466,10,-0.00111818,-2.27681,-0.524362,-0.112518,23.2198,0.211507,
2,0,0,1,0,42565.2,0.209846,0.209536,-5.33451,22,0.0162935,10,-0.00111777,-2.27291,-0.534547,-0.110374,22.9697,0.209536,
2,0,0,1,0,42565.2,0.207848,0.207516,-5.37841,22,0.0162399,10,-0.00111611,-2.26935,-0.423322,-0.139374,29.3359,0.207516,
2,0,0,1,0,42565.2,0.20586,0.205513,-5.45251,22,0.0161863,10,-0.00112056,-2.2634,-0.459642,-0.128361,27.2165,0.205513,
2,0,0,1,0,42565.2,0.203862,0.203493,-5.4879,22,0.0161316,10,-0.00111675,-2.26059,-0.547068,-0.107848,23.1429,0.2034934,
2,0,0,1,0,42565.2,0.201865,0.20153,-5.54469,22,0.0160764,10,-0.00111742,-2.25612,-0.527642,-0.111818,24.156,0.20153,
2,0,0,1,0,42565.3,0.199867,0.199549,-5.58317,22,0.0160208,10,-0.00111412,-2.25312,-0.470413,-0.125422,27.4062,0.199549,
2,0,0,1,0,42565.3,0.19786,0.197552,-5.65372,22,0.0159646,10,-0.0011169,-2.24767,-0.499131,-0.118205,25.9934,0.197552,
2,0,0,1,0,42565.3,0.195863,0.195581,-5.68633,22,0.0159079,10,-0.00111214,-2.24517,-0.547669,-0.107729,23.9708,0.195581,
2,0,0,1,0,42565.3,0.193865,0.193559,-5.74942,22,0.0158507,10,-0.00111285,-2.24038,-0.511875,-0.115262,25.814,0.1935593,
2,0,0,1,0,42565.3,0.191868,0.19152,-5.79114,22,0.0157929,10,-0.00110912,-2.23724,-0.484232,-0.121842,27.6049,0.19152,
2,0,0,1,0,42565.3,0.189861,0.189499,-5.86151,22,0.0157347,10,-0.00111075,-2.23199,-0.522862,-0.11284,25.7293,0.189499,
2,0,0,1,0,42565.3,0.187863,0.187515,-5.89421,22,0.0156759,10,-0.00110525,-2.22957,-0.539097,-0.109442,25.2504,0.187515,
2,0,0,1,0,42565.3,0.185866,0.185504,-5.96239,22,0.0156165,10,-0.00110605,-2.22458,-0.497182,-0.118669,27.5498,0.185504,
2,0,0,1,0,42565.3,0.183868,0.183551,-6.00342,22,0.0155567,10,-0.00110193,-2.2216,-0.461527,-0.127837,30.0433,0.183551,
2,0,0,1,0,42565.3,0.18188,0.181534,-6.08166,22,0.0154969,10,-0.00110403,-2.21598,-0.439175,-0.134343,31.8081,0.181534,
2,0,0,1,0,42565.4,0.179882,0.179551,-6.13063,22,0.0154358,10,-0.00110076,-2.21249,-0.516866,-0.11415,27.3366,0.179551,
2,0,0,1,0,42565.4,0.177885,0.177525,-6.19125,22,0.0153742,10,-0.0010991,-2.20822,-0.49236,-0.119831,28.9382,0.177525,
2,0,0,1,0,42565.4,0.175887,0.175586,-6.24538,22,0.015312,10,-0.0010966,-2.20444,-0.440621,-0.133902,32.6937,0.175586,
2,0,0,1,0,42565.4,0.173908,0.173535,-6.32169,22,0.0152498,10,-0.00109704,-2.19917,-0.415931,-0.14185,34.9602,0.173535,
2,0,0,1,0,42565.4,0.171901,0.171583,-6.38533,22,0.0151862,10,-0.00109561,-2.19482,-0.430583,-0.137024,34.1683,0.171583,
2,0,0,1,0,42565.4,0.169903,0.169554,-6.4577,22,0.015122,10,-0.00109493,-2.18992,-0.42559,-0.138631,34.926,0.1695544,
2,0,0,1,0,42565.4,0.167906,0.167554,-6.52605,22,0.0150571,10,-0.00109346,-2.18535,-0.382095,-0.154412,39.3845,0.167554,
2,0,0,1,0,42565.4,0.165908,0.165587,-6.61396,22,0.0149914,10,-0.00109519,-2.17954,-0.379467,-0.155481,40.0835,0.165587,
2,0,0,1,0,42565.4,0.163901,0.16356,-6.68613,22,0.0149248,10,-0.00109358,-2.17483,-0.355784,-0.165831,43.3642,0.16356,
2,0,0,1,0,42565.4,0.161904,0.161582,-6.78763,22,0.0148574,10,-0.00109676,-2.16828,-0.331281,-0.178097,47.1177,0.161582,
2,0,0,1,0,42565.5,0.159906,0.1596,-6.8727,22,0.0147891,10,-0.00109689,-2.16287,-0.332414,-0.17749,47.6761,0.1596,
2,0,0,1,0,42565.5,0.157909,0.157572,-6.97882,22,0.0147199,10,-0.00109967,-2.15622,-0.302758,-0.194875,53.0816,0.157572,
2,0,0,1,0,42565.5,0.155902,0.155556,-7.0874,22,0.0146495,10,-0.00110249,-2.14951,-0.269535,-0.218895,60.646,0.155556,
2,0,0,1,0,42565.5,0.153904,0.153584,-7.2207,22,0.0145779,10,-0.00110898,-2.14142,-0.262008,-0.225184,63.3752,0.153584,
2,0,0,1,0,42565.5,0.151907,0.151621,-7.33676,22,0.0145051,10,-0.00111241,-2.1345,-0.250136,-0.235872,67.7094,0.151621,
2,0,0,1,0,42565.5,0.149909,0.149579,-7.49186,22,0.0144309,10,-0.00112062,-2.12541,-0.215914,-0.273257,79.9323,0.149579,
2,0,0,1,0,42565.5,0.147921,0.147627,-7.65602,22,0.0143559,10,-0.00113023,-2.116,-0.206459,-0.28577,85.4582,0.147627,
2,0,0,1,0,42565.5,0.145923,0.145554,-7.83578,22,0.0142784,10,-0.00114053,-2.10592,-0.196798,-0.2998,91.7093,0.145554,
2,0,0,1,0,42565.5,0.143926,0.143622,-8.02333,22,0.0141992,10,-0.00115232,-2.09565,-0.176323,-0.334613,105.028,0.143622,
2,0,0,1,0,42565.5,0.141928,0.14158,-8.25318,22,0.0141178,10,-0.00116849,-2.08338,-0.16279,-0.362429,116.788,0.14158,
2,0,0,1,0,42565.6,0.139939,0.139586,-8.4947,22,0.0140349,10,-0.00118574,-2.07085,-0.153493,-0.384382,127.565,0.139586,
2,0,0,1,0,42565.6,0.137942,0.137614,-8.75907,22,0.0139486,10,-0.00120537,-2.05754,-0.145842,-0.404547,138.422,0.137614,
2,0,0,1,0,42565.6,0.135944,0.135603,-9.04593,22,0.0138596,10,-0.00122666,-2.04355,-0.137306,-0.429696,151.924,0.135603,
2,0,0,1,0,42565.6,0.133947,0.133616,-9.36658,22,0.0137675,10,-0.00125152,-2.02842,-0.133406,-0.442258,161.626,0.133616,
2,0,0,1,0,42565.6,0.13194,0.131619,-9.68986,22,0.0136722,10,-0.00127537,-2.01368,-0.129652,-0.455063,172.435,0.131619,
2,0,0,1,0,42565.6,0.129942,0.129592,-10.0604,22,0.0135734,10,-0.00130375,-1.99738,-0.127332,-0.463357,181.761,0.129592,
2,0,0,1,0,42565.6,0.127945,0.127594,-10.4216,22,0.013471,10,-0.00132973,-1.98207,-0.128772,-0.458173,186.439,0.127594,
2,0,0,1,0,42565.6,0.125947,0.125616,-10.8016,22,0.0133648,10,-0.00135686,-1.96651,-0.131628,-0.448233,188.726,0.125616,
2,0,0,1,0,42565.6,0.123941,0.123659,-11.1641,22,0.013255,10,-0.00138055,-1.95217,-0.133562,-0.441743,192.793,0.123659,
2,0,0,1,0,42565.6,0.121943,0.121614,-11.5732,22,0.0131412,10,-0.00140747,-1.93655,-0.136756,-0.431424,194.459,0.121614,
2,0,0,1,0,42565.7,0.119945,0.119651,-11.9434,22,0.0130235,10,-0.00142905,-1.92287,-0.140572,-0.419715,195.885,0.119651,
2,0,0,1,0,42565.7,0.117948,0.117635,-12.3526,22,0.012902,10,-0.0014531,-1.90824,-0.146655,-0.402306,193.584,0.117635,
2,0,0,1,0,42565.7,0.115946,0.115619,-12.7241,22,0.0127765,10,-0.00147114,-1.89537,-0.156479,-0.377047,187.171,0.115619,
2,0,0,1,0,42565.7,0.113962,0.113674,-13.0941,22,0.0126486,10,-0.00148845,-1.88292,-0.167124,-0.353032,180.221,0.113674,
2,0,0,1,0,42565.7,0.111964,0.111626,-13.4437,22,0.0125159,10,-0.00150066,-1.87148,-0.175421,-0.336334,176.455,0.111626,
2,0,0,1,0,42565.7,0.109967,0.109684,-13.7982,22,0.0123796,10,-0.00151343,-1.86018,-0.187109,-0.315325,169.57,0.109684,
2,0,0,1,0,42565.7,0.107969,0.107635,-14.1204,22,0.01224,10,-0.00151985,-1.85015,-0.201511,-0.292788,161.332,0.107635,
2,0,0,1,0,42565.7,0.10598,0.105676,-14.4447,22,0.0120986,10,-0.00152646,-1.84029,-0.212437,-0.277729,156.364,0.105676,
2,0,0,1,0,42565.7,0.103983,0.103696,-14.7363,22,0.0119526,10,-0.0015281,-1.83161,-0.229369,-0.257227,147.952,0.103696,
2,0,0,1,0,42565.7,0.101985,0.101684,-15.0353,22,0.0118037,10,-0.00152885,-1.82289,-0.254379,-0.231937,135.879,0.101684,
2,0,0,1,0,42565.8,0.0999877,0.0996228,-15.2898,22,0.011652,10,-0.00152321,-1.8156,-0.2696,-0.218842,130.641,0.0996228,
2,0,0,1,0,42565.8,0.0979811,0.0976664,-15.5602,22,0.0114977,10,-0.00151971,-1.80798,-0.287016,-0.205563,124.629,0.0976664,
2,0,0,1,0,42565.8,0.0959835,0.0956683,-15.7827,22,0.0113409,10,-0.0015099,-1.80182,-0.326138,-0.180905,111.427,0.0956683,
2,0,0,1,0,42565.8,0.0939859,0.093658,-16.0068,22,0.0111819,10,-0.00149917,-1.79569,-0.356326,-0.165579,103.307,0.093658,
2,0,0,1,0,42565.8,0.0919883,0.0916998,-16.1926,22,0.0110208,10,-0.00148486,-1.79068,-0.394632,-0.149506,94.5014,0.0916998,
2,0,0,1,0,42565.8,0.0899816,0.0896332,-16.3872,22,0.0108579,10,-0.00146884,-1.7855,-0.470769,-0.125327,79.9909,0.0896332,
2,0,0,1,0,42565.8,0.087984,0.0876438,-16.5171,22,0.0106933,10,-0.00144762,-1.78207,-0.594094,-0.0993109,64.0054,0.08764378,
2,0,0,1,0,42565.8,0.0859865,0.0856561,-16.6417,22,0.0105275,10,-0.00142547,-1.7788,-0.71209,-0.0828547,53.7534,0.0856561,
2,0,0,1,0,42565.8,0.0839889,0.083671,-16.7306,22,0.0103606,10,-0.00139987,-1.77649,-0.901086,-0.0654765,42.7428,0.083671,
2,0,0,1,0,42565.8,0.0820004,0.0816674,-16.8122,22,0.0101945,10,-0.00137301,-1.77437,-1.26693,-0.0465693,30.517,0.0816674,
2,0,0,1,0,42565.9,0.0800028,0.0797022,-16.8517,22,0.0100261,10,-0.00134312,-1.77336,-1.92977,-0.0305736,20.1082,0.0797022,
2,0,0,1,0,42565.9,0.0780052,0.0776662,-16.8927,22,0.00985736,10,-0.00131199,-1.7723,-3.38019,-0.0174546,11.4952,0.0776662,
2,0,0,1,0,42565.9,0.0760076,0.07567,-16.8981,22,0.00968841,10,-0.00127868,-1.77216,-38.7109,-0.00152412,1.00492,0.07567,
2,0,0,1,0,42565.9,0.0740191,0.0736823,-16.8967,22,0.00952119,10,-0.00124499,-1.7722,4.22162,0.0139757,-9.20671,0.0736823,
2,0,0,1,0,42565.9,0.0720215,0.0717024,-16.8616,22,0.00935239,10,-0.00120901,-1.7731,2.25153,0.0262044,-17.2449,0.0717024,
2,0,0,1,0,42565.9,0.0700239,0.0697217,-16.8284,22,0.00918391,10,-0.0011733,-1.77396,1.68023,0.0351143,-23.0438,0.0697217,
2,0,0,1,0,42565.9,0.0680263,0.0676958,-16.7692,22,0.00901594,10,-0.00113521,-1.77549,1.81303,0.0325423,-21.3168,0.0676958,
2,0,0,1,0,42565.9,0.0660197,0.0656135,-16.7408,22,0.00884844,10,-0.00109842,-1.77622,1.48695,0.0396786,-25.8872,0.0656135,
2,0,0,1,0,42565.9,0.0640221,0.0636849,-16.6654,22,0.00868139,10,-0.00106133,-1.77818,1.12034,0.0526626,-34.2713,0.0636849,
2,0,0,1,0,42565.9,0.0620245,0.061777,-16.6093,22,0.00851502,10,-0.00102608,-1.77965,1.21039,0.0487448,-31.5844,0.061777,
2,0,0,1,0,42566,0.0600269,0.059726,-16.5404,22,0.00834931,10,-0.000987889,-1.78146,1.3024,0.045301,-29.2581,0.059726,
2,0,0,1,0,42566,0.0580248,0.0576654,-16.489,22,0.00818418,10,-0.000950847,-1.7828,1.19459,0.0493893,-31.7587,0.0576654,
2,0,0,1,0,42566,0.0560227,0.0557124,-16.4129,22,0.00801963,10,-0.000914402,-1.78481,1.14703,0.0514371,-32.969,0.0557124,
2,0,0,1,0,42566,0.0540251,0.0536944,-16.3581,22,0.00785577,10,-0.000878339,-1.78627,1.27485,0.0462801,-29.5362,0.05369439,
2,0,0,1,0,42566,0.0520275,0.0516616,-16.2932,22,0.00769249,10,-0.000841735,-1.78799,1.15864,0.0509216,-32.3801,0.0516616,
2,0,0,1,0,42566,0.0500299,0.0497043,-16.2289,22,0.00752986,10,-0.000806647,-1.78971,1.20454,0.0489813,-31.0282,0.0497043,
2,0,0,1,0,42566,0.0480414,0.0476968,-16.1702,22,0.00736948,10,-0.000771267,-1.79128,1.3169,0.0448022,-28.2766,0.0476968,
2,0,0,1,0,42566,0.0460438,0.0456839,-16.1152,22,0.00720807,10,-0.000736206,-1.79276,1.14891,0.0513531,-32.2788,0.0456839,
2,0,0,1,0,42566,0.0440462,0.0437203,-16.0419,22,0.00704731,10,-0.000701354,-1.79475,1.06031,0.0556441,-34.8447,0.0437203,
2,0,0,1,0,42566,0.0420486,0.0416882,-15.976,22,0.00688725,10,-0.000666012,-1.79653,1.16725,0.0505461,-31.5201,0.0416882,
2,0,0,1,0,42566.1,0.0400601,0.0397043,-15.9153,22,0.00672938,10,-0.000631904,-1.79819,1.18042,0.0499823,-31.0435,0.0397043,
2,0,0,1,0,42566.1,0.0380625,0.037727,-15.853,22,0.00657054,10,-0.000598087,-1.79989,0.954774,0.0617947,-38.2002,0.037727,
2,0,0,1,0,42566.1,0.036065,0.0357601,-15.7646,22,0.00641249,10,-0.000563744,-1.80232,0.935953,0.0630373,-38.8099,0.0357601,
2,0,0,1,0,42566.1,0.0340674,0.0337334,-15.698,22,0.00625517,10,-0.000529548,-1.80415,1.02121,0.0577747,-35.3848,0.0337334,
2,0,0,1,0,42566.1,0.0320607,0.031737,-15.6223,22,0.00609853,10,-0.000495804,-1.80626,0.944224,0.0624852,-38.0935,0.031737,
2,0,0,1,0,42566.1,0.0300631,0.0296982,-15.5443,22,0.00594269,10,-0.000461638,-1.80843,0.844078,0.0698988,-42.3832,0.0296982,
2,0,0,1,0,42566.1,0.0280655,0.0277105,-15.4516,22,0.00578768,10,-0.000428171,-1.81103,0.842073,0.0700652,-42.2745,0.0277105,
2,0,0,1,0,42566.1,0.0260679,0.0257211,-15.3762,22,0.00563352,10,-0.000395492,-1.81315,0.810677,0.0727787,-43.639,0.0257211,
2,0,0,1,0,42566.1,0.0240613,0.0237073,-15.2769,22,0.00548022,10,-0.000362175,-1.81596,0.754572,0.07819,-46.6355,0.0237073,
2,0,0,1,0,42566.1,0.0220637,0.0217223,-15.1897,22,0.00532787,10,-0.000329955,-1.81845,0.710745,0.0830115,-49.1742,0.0217223,
2,0,0,1,0,42566.2,0.0200661,0.0197233,-15.081,22,0.00517653,10,-0.000297447,-1.82157,0.635079,0.0929018,-54.6785,0.0197233,
2,0,0,1,0,42566.2,0.0180685,0.0177538,-14.9727,22,0.00502623,10,-0.000265823,-1.8247,0.637982,0.0924791,-54.0425,0.0177538,
2,0,0,1,0,42566.2,0.01608,0.0157605,-14.8668,22,0.00487855,10,-0.000234309,-1.82778,0.645695,0.0913745,-53.014,0.0157605,
2,0,0,1,0,42566.2,0.0140824,0.0137476,-14.7603,22,0.00473043,10,-0.000202919,-1.8309,0.565728,0.10429,-60.02,0.0137476,
2,0,0,1,0,42566.2,0.0120848,0.0117601,-14.6267,22,0.00458352,10,-0.000172012,-1.83485,0.52944,0.111438,-63.637,0.01176013,
2,0,0,1,0,42566.2,0.0100872,0.00973369,-14.5049,22,0.0044379,10,-0.000141186,-1.83849,0.538287,0.109607,-62.0347,0.00973369,
2,0,0,1,0,42566.2,0.00810328,0.00775555,-14.3783,22,0.00429496,10,-0.000111512,-1.84229,0.54123,0.109011,-61.1831,0.00775555,
2,0,0,1,0,42566.2,0.00610116,0.00570453,-14.2584,22,0.00415179,10,-8.13375e-05,-1.84593,0.498548,0.118344,-65.795,0.00570453,
2,0,0,1,0,42566.2,0.00410357,0.00373767,-14.114,22,0.00400996,10,-5.27533e-05,-1.85035,0.593266,0.0994495,-54.9112,0.00373767,
2,0,0,1,0,42566.2,0.00210598,0.00169446,-14.0382,22,0.00386939,10,-2.37872e-05,-1.85269,0.568458,0.103789,-56.7019,0.00169446,
2,0,0,1,0,42566.3,0.00010174,-0.000324456,-13.8836,22,0.00372978,10,4.50462e-06,-1.8575,0.469664,0.125622,-68.1609,-0.000324456,
2,0,0,1,0,42566.3,-0.00189827,-0.00226095,-13.7686,22,0.00359148,10,3.11301e-05,-1.86111,0.501454,0.117658,-63.1757,-0.00226095,
2,0,0,1,0,42566.3,-0.00389586,-0.004279,-13.6338,22,0.00345448,10,5.8339e-05,-1.86538,0.528132,0.111714,-59.5033,-0.004279,
2,0,0,1,0,42566.3,-0.00589345,-0.00630313,-13.5281,22,0.00331868,10,8.52691e-05,-1.86876,0.529326,0.111462,-58.7967,-0.00630313,
2,0,0,1,0,42566.3,-0.00789103,-0.00826131,-13.3996,22,0.00318404,10,0.000110699,-1.87291,0.567732,0.103922,-54.4263,-0.00826131,
2,0,0,1,0,42566.3,-0.0098977,-0.010282,-13.3115,22,0.00305046,10,0.000136869,-1.87577,0.652499,0.0904216,-46.9501,-0.010282,
2,0,0,1,0,42566.3,-0.0118953,-0.0123026,-13.2099,22,0.00291786,10,0.000162516,-1.8791,0.610452,0.0966496,-49.8371,-0.0123026,
2,0,0,1,0,42566.3,-0.0138929,-0.0142409,-13.1142,22,0.00278624,10,0.000186758,-1.88226,0.640665,0.0920918,-47.1381,-0.0142409,
2,0,0,1,0,42566.3,-0.0158905,-0.0162953,-13.0217,22,0.00265554,10,0.000212193,-1.88533,0.847889,0.0695846,-35.4195,-0.0162953,
2,0,0,1,0,42566.3,-0.017879,-0.0182738,-12.9714,22,0.00252687,10,0.000237036,-1.88701,0.912246,0.0646755,-32.7032,-0.0182738,
2,0,0,1,0,42566.4,-0.0198766,-0.0202779,-12.8915,22,0.00239761,10,0.000261412,-1.8897,0.83381,0.0707595,-35.6244,-0.0202779,
2,0,0,1,0,42566.4,-0.0218741,-0.0222567,-12.8295,22,0.00226908,10,0.000285541,-1.89179,0.994226,0.0593426,-29.7184,-0.0222567,
2,0,0,1,0,42566.4,-0.0238717,-0.0242712,-12.7728,22,0.0021411,10,0.00031001,-1.89371,1.27472,0.0462848,-23.0914,-0.0242712,
2,0,0,1,0,42566.4,-0.0258602,-0.026239,-12.7375,22,0.00201486,10,0.000334219,-1.89492,1.35529,0.043533,-21.6272,-0.026239,
2,0,0,1,0,42566.4,-0.0278578,-0.0282535,-12.6867,22,0.00188778,10,0.000358443,-1.89665,1.54436,0.0382035,-18.9349,-0.02825355,
2,0,0,1,0,42566.4,-0.0298554,-0.0302256,-12.662,22,0.00176109,10,0.000382718,-1.8975,1.80686,0.0326534,-16.1264,-0.03022562,
2,0,0,1,0,42566.4,-0.031853,-0.0322307,-12.6225,22,0.00163469,10,0.000406832,-1.89885,2.289,0.0257754,-12.7115,-0.03223066,
2,0,0,1,0,42566.4,-0.0338597,-0.0342366,-12.6111,22,0.00150853,10,0.000431759,-1.89925,3.42715,0.0172155,-8.46922,-0.0342366,
2,0,0,1,0,42566.4,-0.0358573,-0.0362433,-12.5885,22,0.0013825,10,0.00045625,-1.90002,9.9404,0.00593537,-2.91987,-0.0362433,
2,0,0,1,0,42566.4,-0.0378549,-0.0381963,-12.5995,22,0.00125654,10,0.000481254,-1.89965,9.26248,0.00636978,-3.12785,-0.0381963,
2,0,0,1,0,42566.5,-0.0398524,-0.0402734,-12.5759,22,0.00113065,10,0.000506475,-1.90046,240.259,0.000245569,-0.120748,-0.0402734,
2,0,0,1,0,42566.5,-0.0418591,-0.042268,-12.599,22,0.00100483,10,0.000532534,-1.89966,-6.87749,-0.00857872,4.21323,-0.042268,
2,0,0,1,0,42566.5,-0.0438567,-0.0442565,-12.5927,22,0.000878852,10,0.00055731,-1.89988,-11.2981,-0.00522213,2.56877,-0.0442565,
2,0,0,1,0,42566.5,-0.0458543,-0.0462685,-12.6093,22,0.000752799,10,0.000583412,-1.89931,-3.98725,-0.0147972,7.28046,-0.0462685,
2,0,0,1,0,42566.5,-0.0478519,-0.0482215,-12.6216,22,0.000626642,10,0.000608631,-1.89889,-1.99642,-0.029553,14.5764,-0.0482215,
2,0,0,1,0,42566.5,-0.0498585,-0.0502482,-12.6673,22,0.000500232,10,0.000636509,-1.89732,-2.09056,-0.0282222,13.9323,-0.0502482,
2,0,0,1,0,42566.5,-0.051838,-0.0522095,-12.6771,22,0.000374772,10,0.000661866,-1.89698,-2.49351,-0.0236614,11.7188,-0.0522095,
2,0,0,1,0,42566.5,-0.0538356,-0.0542065,-12.7137,22,0.000247859,10,0.000689163,-1.89573,-1.91061,-0.0308802,15.3148,-0.0542065,
2,0,0,1,0,42566.5,-0.0558331,-0.0562051,-12.7383,22,0.000120596,10,0.000715959,-1.89489,-1.51979,-0.0388211,19.3203,-0.0562051,
2,0,0,1,0,42566.5,-0.0578126,-0.0581877,-12.7906,22,-5.73656e-06,10,0.000744255,-1.89311,-1.42998,-0.0412594,20.5784,-0.0581877,
2,0,0,1,0,42566.6,-0.0598192,-0.0602387,-12.8213,22,-0.000133819,10,0.000772341,-1.89207,-1.32931,-0.0443838,22.2327,-0.0602387,
2,0,0,1,0,42566.6,-0.0618168,-0.0622116,-12.8801,22,-0.000262292,10,0.000801289,-1.89008,-1.23815,-0.0476518,23.9318,-0.0622116,
2,0,0,1,0,42566.6,-0.0638144,-0.064195,-12.916,22,-0.000391313,10,0.000829144,-1.88887,-1.22634,-0.0481105,24.2744,-0.064195,
2,0,0,1,0,42566.6,-0.065812,-0.0662026,-12.9769,22,-0.000520787,10,0.000859107,-1.88683,-1.03726,-0.0568807,28.8002,-0.0662026,
2,0,0,1,0,42566.6,-0.0678187,-0.0682129,-13.0317,22,-0.000650872,10,0.000888932,-1.885,-0.990093,-0.0595903,30.3205,-0.0682129,
2,0,0,1,0,42566.6,-0.0698163,-0.0702092,-13.0984,22,-0.000781552,10,0.000919629,-1.88278,-1.01053,-0.0583854,29.8288,-0.0702092,
2,0,0,1,0,42566.6,-0.0718138,-0.0721813,-13.1501,22,-0.000912837,10,0.000949192,-1.88107,-0.941076,-0.0626942,32.2049,-0.0721813,
2,0,0,1,0,42566.6,-0.0738114,-0.074182,-13.2264,22,-0.00104474,10,0.000981157,-1.87856,-0.800832,-0.0736734,38.0284,-0.074182,
2,0,0,1,0,42566.6,-0.0758181,-0.0761896,-13.3025,22,-0.00117746,10,0.00101352,-1.87607,-0.819712,-0.0719765,37.3633,-0.0761896,
2,0,0,1,0,42566.6,-0.0778157,-0.0781955,-13.3763,22,-0.00131088,10,0.00104597,-1.87366,-0.846264,-0.0697182,36.3922,-0.0781955,
2,0,0,1,0,42566.7,-0.0798133,-0.0801876,-13.448,22,-0.00144505,10,0.00107836,-1.87134,-0.730882,-0.0807244,42.4101,-0.0801876,
2,0,0,1,0,42566.7,-0.0818109,-0.0822325,-13.5475,22,-0.00158007,10,0.00111405,-1.86814,-0.685715,-0.0860416,45.4597,-0.0822325,
2,0,0,1,0,42566.7,-0.0837994,-0.0841545,-13.6284,22,-0.00171461,10,0.00114689,-1.86556,-0.719244,-0.0820306,43.6465,-0.0841545,
2,0,0,1,0,42566.7,-0.0857969,-0.0861849,-13.72,22,-0.00185132,10,0.00118246,-1.86264,-0.690209,-0.0854813,45.7717,-0.0861849,
2,0,0,1,0,42566.7,-0.0877945,-0.0881787,-13.8126,22,-0.00198902,10,0.00121797,-1.85973,-0.623133,-0.0946828,51.0733,-0.0881787,
2,0,0,1,0,42566.7,-0.0897921,-0.0901733,-13.9237,22,-0.00212768,10,0.00125555,-1.85624,-0.621087,-0.0949948,51.587,-0.0901733,
2,0,0,1,0,42566.7,-0.0917806,-0.0921519,-14.0175,22,-0.00226594,10,0.00129174,-1.85333,-0.627095,-0.0940846,51.5024,-0.0921519,
2,0,0,1,0,42566.7,-0.0937782,-0.094169,-14.1295,22,-0.00240665,10,0.00133056,-1.84987,-0.62481,-0.0944288,52.0429,-0.094169,
2,0,0,1,0,42566.7,-0.0957758,-0.0961732,-14.2268,22,-0.00254845,10,0.00136824,-1.84689,-0.620285,-0.0951175,52.8381,-0.0961732,
2,0,0,1,0,42566.7,-0.0977734,-0.0981288,-14.3387,22,-0.0026913,10,0.00140704,-1.84349,-0.559074,-0.105532,59.0784,-0.0981288,
2,0,0,1,0,42566.8,-0.0997412,-0.100165,-14.4626,22,-0.00283241,10,0.00144864,-1.83975,0.107101,0.55088,-301.86,-0.100165,
2,0,0,1,1,42566.8,-0.0996711,-0.10009,-13.7466,22,-0.00287489,10,0.0013759,-1.8618,-0.0168286,-3.50593,1722.57,-0.10009,
2,0,0,1,1,42566.8,-0.0976826,-0.0980882,-10.8856,22,-0.00299521,10,0.00106775,-1.96315,-0.0208512,-2.82957,1228.02,-0.09808822,
2,0,0,1,1,42566.8,-0.095685,-0.0961047,-8.85208,22,-0.0030933,10,0.000850727,-2.05295,-0.022402,-2.63369,916.338,-0.0961047,
2,0,0,1,1,42566.8,-0.0936874,-0.094064,-7.19807,22,-0.00317313,10,0.000677079,-2.14278,-0.0214945,-2.74489,770.276,-0.094064,
2,0,0,1,1,42566.8,-0.0916898,-0.0920789,-5.75107,22,-0.00323752,10,0.000529552,-2.24025,-0.0192733,-3.06123,686.44,-0.0920789,
2,0,0,1,1,42566.8,-0.0897013,-0.0901381,-4.50322,22,-0.00328797,10,0.000405912,-2.34648,-0.0170217,-3.46616,601.645,-0.0901381,
2,0,0,1,1,42566.8,-0.0877037,-0.088101,-3.35779,22,-0.00332701,10,0.000295824,-2.47395,-0.0140065,-4.21234,542.395,-0.088101,
2,0,0,1,1,42566.8,-0.0857062,-0.086135,-2.33194,22,-0.00335525,10,0.000200862,-2.63228,-0.0105333,-5.60126,489.954,-0.086135,
2,0,0,1,1,42566.8,-0.0837086,-0.0841152,-1.40494,22,-0.00337371,10,0.000118177,-2.85234,-0.00640684,-9.2089,442.37,-0.0841152,
2,0,0,1,1,42566.8,-0.0817019,-0.0820998,-0.546871,22,-0.00338325,10,4.4898e-05,-3.26211,-0.00524938,-11.2394,409.576,-0.0820998,
2,1,0,1,1,42566.9,-0.0797043,-0.0800965,0.241042,22,-0.00338461,10,-1.93066e-05,-3.61791,0.0163978,3.59805,377.915,-0.0800965,
2,1,0,1,1,42566.9,-0.0777067,-0.0781235,0.955812,22,-0.00337848,10,-7.46714e-05,-3.01963,0.00479938,12.2933,348.274,-0.0781235,
2,1,0,1,1,42566.9,-0.0757091,-0.0761159,1.62737,22,-0.00336544,10,-0.000123869,-2.78851,0.0107693,5.47856,323.278,-0.0761159,
2,1,0,1,1,42566.9,-0.0737025,-0.0741178,2.25077,22,-0.00334594,10,-0.000166822,-2.64767,0.0168137,3.50903,297.62,-0.0741178,
2,1,0,1,1,42566.9,-0.0717049,-0.0720772,2.82937,22,-0.00332044,10,-0.000203933,-2.54831,0.0232131,2.54167,274.289,-0.0720772,
2,1,0,1,1,42566.9,-0.0697073,-0.0701008,3.3526,22,-0.00328949,10,-0.00023502,-2.47462,0.0293922,2.00734,260.123,-0.0701008,
2,1,0,1,1,42566.9,-0.0677097,-0.0680949,3.86527,22,-0.00325333,10,-0.000263205,-2.41282,0.0358106,1.64756,245.583,-0.0680949,
2,1,0,1,1,42566.9,-0.0657212,-0.0661305,4.32764,22,-0.00321275,10,-0.000286189,-2.36375,0.0435092,1.35603,227.44,-0.0661305,
2,1,0,1,1,42566.9,-0.0637236,-0.0641557,4.76119,22,-0.00316728,10,-0.000305457,-2.32228,0.0526083,1.1215,206.96,-0.0641557,
2,1,0,1,1,42566.9,-0.061726,-0.0621404,5.15342,22,-0.00311764,10,-0.000320236,-2.2879,0.0605095,0.975054,195.687,-0.06214042,
2,1,0,1,1,42567,-0.0597284,-0.0601577,5.54355,22,-0.00306406,10,-0.000333487,-2.25621,0.0688388,0.857074,184.485,-0.06015772,
2,1,0,1,1,42567,-0.0577399,-0.0581261,5.89401,22,-0.00300744,10,-0.000342596,-2.22959,0.0796871,0.740396,169.879,-0.0581261,
2,1,0,1,1,42567,-0.0557423,-0.0561289,6.22797,22,-0.00294679,10,-0.000349569,-2.20565,0.0900696,0.655049,158.616,-0.0561289,
2,1,0,1,1,42567,-0.0537447,-0.0541429,6.5258,22,-0.00288297,10,-0.000353326,-2.18537,0.101975,0.578573,147.158,-0.0541429,
2,1,0,1,1,42567,-0.0517472,-0.0521379,6.81527,22,-0.00281619,10,-0.000355334,-2.16652,0.114517,0.515208,136.678,-0.0521379,
2,1,0,1,1,42567,-0.049745,-0.050112,7.07674,22,-0.00274671,10,-0.00035463,-2.15017,0.125758,0.469153,129.49,-0.050112,
2,1,0,1,1,42567,-0.0477429,-0.0481191,7.33566,22,-0.00267454,10,-0.000352986,-2.13456,0.139627,0.422555,120.636,-0.0481191,
2,1,0,1,1,42567,-0.0457453,-0.0461132,7.55914,22,-0.00260003,10,-0.000348576,-2.12153,0.158248,0.372832,109.883,-0.0461132,
2,1,0,1,1,42567,-0.0437477,-0.0441455,7.7723,22,-0.0025233,10,-0.000343112,-2.10945,0.171317,0.344391,104.341,-0.0441455,
2,1,0,1,1,42567,-0.0417501,-0.0421673,7.97085,22,-0.00244455,10,-0.00033611,-2.0985,0.184525,0.31974,99.4683,-0.0421673,
2,1,0,1,1,42567.1,-0.0397435,-0.040112,8.1735,22,-0.00236376,10,-0.000327855,-2.08759,0.210253,0.280614,89.2613,-0.040112,
2,1,0,1,1,42567.1,-0.0377459,-0.0381095,8.33306,22,-0.00228125,10,-0.000317569,-2.0792,0.233762,0.252393,82.1162,-0.0381095,
2,1,0,1,1,42567.1,-0.0357483,-0.0361141,8.5018,22,-0.00219711,10,-0.000307034,-2.07049,0.261811,0.225354,74.5948,-0.0361141,
2,1,0,1,1,42567.1,-0.0337507,-0.0341021,8.63199,22,-0.00211142,10,-0.000294369,-2.06389,0.284621,0.207293,69.9019,-0.0341021,
2,1,0,1,1,42567.1,-0.0317622,-0.0321232,8.78076,22,-0.00202518,10,-0.000282066,-2.05647,0.308372,0.191327,65.4236,-0.0321232,
2,1,0,1,1,42567.1,-0.0297646,-0.0301135,8.89294,22,-0.00193681,10,-0.000267797,-2.05095,0.345339,0.170847,59.3292,-0.0301135,
2,1,0,1,1,42567.1,-0.027767,-0.0281491,9.01655,22,-0.00184726,10,-0.000253807,-2.04496,0.390659,0.151027,53.0385,-0.0281491,
2,1,0,1,1,42567.1,-0.0257694,-0.0261147,9.10503,22,-0.00175665,10,-0.000237775,-2.04072,0.423548,0.1393,49.5539,-0.0261147,
2,1,0,1,1,42567.1,-0.0237809,-0.0241541,9.21451,22,-0.00166589,10,-0.000222568,-2.03553,0.443951,0.132898,47.7167,-0.0241541,
2,1,0,1,1,42567.1,-0.0217833,-0.0221187,9.29571,22,-0.00157333,10,-0.000205609,-2.03172,0.542394,0.108777,39.4491,-0.0221187,
2,1,0,1,1,42567.2,-0.0197858,-0.0201857,9.37106,22,-0.00147995,10,-0.000189161,-2.02821,0.587354,0.100451,36.7276,-0.0201857,
2,1,0,1,1,42567.2,-0.0177882,-0.0181373,9.44194,22,-0.00138587,10,-0.000171251,-2.02494,0.587278,0.100463,37.0348,-0.0181373,
2,1,0,1,1,42567.2,-0.0157815,-0.01614,9.52089,22,-0.00129105,10,-0.000153668,-2.02132,0.711423,0.0829324,30.7561,-0.01614,
2,1,0,1,1,42567.2,-0.0137839,-0.0141827,9.56356,22,-0.00119562,10,-0.000135637,-2.01938,0.871164,0.0677255,25.2968,-0.0141827,
2,1,0,1,1,42567.2,-0.0117863,-0.0121846,9.62095,22,-0.00109968,10,-0.000117228,-2.01678,0.914048,0.064548,24.2142,-0.0121846,
2,1,0,1,1,42567.2,-0.00978874,-0.0101579,9.66102,22,-0.00100326,10,-9.81357e-05,-2.01498,0.891491,0.0661813,24.9788,-0.0101579,
2,1,0,1,1,42567.2,-0.00778207,-0.00816674,9.72131,22,-0.000906337,10,-7.93915e-05,-2.01228,1.07437,0.0549159,20.7949,-0.00816674,
2,1,0,1,1,42567.2,-0.00578449,-0.00614002,9.74457,22,-0.00080904,10,-5.98318e-05,-2.01124,1.45687,0.0404978,15.4135,-0.006140017,
2,1,0,1,1,42567.2,-0.0037869,-0.00414626,9.78328,22,-0.00071141,10,-4.0564e-05,-2.00952,1.39484,0.0422988,16.1389,-0.00414626,
2,1,0,1,1,42567.2,-0.00178931,-0.00218287,9.80844,22,-0.000613448,10,-2.14105e-05,-2.0084,1.82455,0.0323368,12.3762,-0.00218287,
2,1,0,1,1,42567.3,-2.55332e-05,-0.000344411,9.83034,22,-0.000528027,10,-3.38567e-06,-2.00743, , , ,-0.000344411,