File: Figure_codes/Fig_3-5/rawdata_trumpetplot_data/after 10th/20221101_1-115_003_TrumpetPlot_ParaChange_from10_every3_02_CV_C01_3.csv
mode,ox/red,error,control changes,counter inc.,time/s,control/V,Ewe/V,<I>/mA,cycle number,(Q-Qo)/C,I Range,P/W,log(|I|),Tafel slope mV/dec,alpha_eff,dI/d(E-IR),E-IR/V,
2,0,0,1,0,6250.42,2.44065e-05,-0.000191712,-0.342994,4,0.0000000E+000,10,6.57562e-08,-3.46471, , , ,-0.000191712,
2,0,0,1,0,6251.69,0.00129791,0.000954648,-0.171941,4,-0.000240187,10,-1.64143e-07,-3.76462, , , ,0.000954648,
2,0,0,1,0,6253.19,0.00279612,0.00251872,-0.138912,4,-0.000444471,10,-3.49881e-07,-3.85726,-0.0181979,-3.24213,18.88,0.00251872,
2,0,0,1,0,6254.69,0.00429431,0.00399591,-0.119442,4,-0.000613226,10,-4.77278e-07,-3.92284,-0.0263978,-2.23504,10.6564,0.00399591,
2,0,0,1,0,6256.19,0.00579242,0.00544541,-0.105765,4,-0.000757565,10,-5.75934e-07,-3.97566,-0.0289394,-2.03874,8.52788,0.00544541,
2,0,0,1,0,6257.69,0.00729061,0.00696601,-0.0938589,4,-0.00088304,10,-6.53821e-07,-4.02752,-0.0320821,-1.83903,6.87171,0.00696601,
2,0,0,1,0,6259.19,0.00878882,0.00845486,-0.0851542,4,-0.000993411,10,-7.19967e-07,-4.06979,-0.0338821,-1.74133,5.83396,0.00845486,
2,0,0,1,0,6260.68,0.010287,0.0099447,-0.0770052,4,-0.00109155,10,-7.65793e-07,-4.11348,-0.0364665,-1.61793,4.91699,0.0099447,
2,0,0,1,0,6262.18,0.0117852,0.0114876,-0.0715212,4,-0.0011788,10,-8.21608e-07,-4.14557,-0.0388843,-1.51732,4.25013,0.0114876,
2,0,0,1,0,6263.68,0.0132834,0.0129775,-0.0651883,4,-0.0012572,10,-8.4598e-07,-4.18583,-0.0414857,-1.42218,3.60324,0.01297747,
2,0,0,1,0,6265.18,0.0147815,0.0144492,-0.0603828,4,-0.00132754,10,-8.72486e-07,-4.21909,-0.0425543,-1.38646,3.24529,0.0144492,
2,0,0,1,0,6266.68,0.0162797,0.0159412,-0.0553601,4,-0.0013904,10,-8.82508e-07,-4.2568,-0.0466998,-1.26339,2.72922,0.0159412,
2,0,0,1,0,6268.17,0.0177779,0.017498,-0.0514603,4,-0.00144678,10,-9.0045e-07,-4.28853,-0.0408794,-1.44327,2.87517,0.017498,
2,0,0,1,0,6269.67,0.0192761,0.018956,-0.0473942,4,-0.00149799,10,-8.98406e-07,-4.32427,-0.0416848,-1.41538,2.60572,0.018956,
2,0,0,1,0,6271.17,0.0207743,0.0204522,-0.0430272,4,-0.00154283,10,-8.80003e-07,-4.36626,-0.0423918,-1.39178,2.36409,0.0204522,
2,0,0,1,0,6272.67,0.0222725,0.0219739,-0.0396929,4,-0.00158215,10,-8.72209e-07,-4.40129,-0.0459394,-1.2843,2.02479,0.02197394,
2,0,0,1,0,6274.17,0.0237707,0.0234776,-0.0368634,4,-0.00161654,10,-8.65465e-07,-4.4334,-0.0427681,-1.37953,1.98877,0.0234776,
2,0,0,1,0,6275.67,0.0252689,0.0249951,-0.0339096,4,-0.00164665,10,-8.47574e-07,-4.46968,-0.0369133,-1.59834,2.11596,0.0249951,
2,0,0,1,0,6277.16,0.0267671,0.0264553,-0.0307202,4,-0.00167184,10,-8.12712e-07,-4.51258,-0.0356115,-1.65677,2.00948,0.0264553,
2,0,0,1,0,6278.66,0.0282653,0.0279749,-0.0280661,4,-0.0016924,10,-7.85146e-07,-4.55182,-0.034119,-1.72924,1.86243,0.0279749,
2,0,0,1,0,6280.16,0.0297635,0.0294541,-0.0251425,4,-0.00170855,10,-7.40552e-07,-4.59959,-0.0365074,-1.61611,1.58702,0.0294541,
2,0,0,1,0,6281.66,0.0312617,0.030943,-0.0230913,4,-0.00172098,10,-7.14513e-07,-4.63655,-0.0328551,-1.79577,1.59233,0.03094295,
2,0,0,1,0,6283.16,0.0327599,0.032489,-0.0202098,4,-0.00172952,10,-6.56595e-07,-4.69444,-0.0268901,-2.19412,1.70738,0.032489,
2,0,0,1,0,6284.65,0.0342581,0.033945,-0.017118,4,-0.00173364,10,-5.81069e-07,-4.76655,-0.0227421,-2.59431,1.74412,0.033945,
2,0,0,1,0,6286.15,0.0357563,0.0353988,-0.0144088,4,-0.00173382,10,-5.10052e-07,-4.84137,-0.0180937,-3.26081,1.81612,0.0353988,
2,0,0,1,0,6287.65,0.0372544,0.0369585,-0.0121735,4,-0.00173003,10,-4.49915e-07,-4.91458,-0.0163572,-3.60697,1.65704,0.0369585,
2,0,0,1,0,6289.15,0.0387526,0.0384113,-0.00966534,4,-0.00172249,10,-3.71258e-07,-5.01478,-0.0115341,-5.11528,1.73976,0.0384113,
2,0,0,1,0,6290.65,0.0402508,0.0399055,-0.00700202,4,-0.00171099,10,-2.79419e-07,-5.15478,-0.00894869,-6.59314,1.70482,0.0399055,
2,0,0,1,0,6292.15,0.041749,0.041407,-0.00457529,4,-0.00169542,10,-1.89449e-07,-5.33958,-0.00695708,-8.48057,1.47136,0.041407,
2,0,0,1,0,6293.64,0.0432472,0.0429351,-0.00291908,4,-0.00167696,10,-1.25331e-07,-5.53475,-0.00338108,-17.45,1.27247,0.0429351,
2,0,0,1,0,6295.14,0.0447454,0.0444408,-0.000820541,4,-0.0016559,10,-3.64656e-08,-6.0859,-0.0171604,-3.43815,1.46497,0.0444408,
2,0,0,1,0,6296.64,0.0462435,0.0459189,0.0017256,4,-0.00163085,10,7.92379e-08,-5.76306,0.0120517,4.89556,1.6415,0.0459189,
2,0,0,1,0,6298.14,0.0477417,0.0473833,0.00390299,4,-0.00160239,10,1.84937e-07,-5.4086,0.00399958,14.7515,1.40916,0.0473833,
2,0,0,1,0,6299.64,0.0492399,0.0489125,0.00649568,4,-0.00157017,10,3.1772e-07,-5.18738,0.00789494,7.47314,1.60258,0.0489125,
2,0,0,1,0,6301.13,0.0507381,0.050397,0.00767973,4,-0.00153555,10,3.87036e-07,-5.11465,0.0139699,4.22337,1.32019,0.050397,
2,0,0,1,0,6302.63,0.0522363,0.0518552,0.0099652,4,-0.00149703,10,5.16747e-07,-5.00151,0.0147751,3.99321,1.57956,0.0518552,
2,0,0,1,0,6304.13,0.0537345,0.0534457,0.0124826,4,-0.001455,10,6.67143e-07,-4.90369,0.0220104,2.68056,1.30446,0.0534457,
2,1,0,1,0,6305.63,0.0552327,0.0548847,0.0150406,4,-0.00141005,10,8.255e-07,-4.82273,0.0272914,2.16185,1.18198,0.0548847,
2,1,0,1,0,6307.13,0.0567309,0.056399,0.0157118,4,-0.00136217,10,8.86129e-07,-4.80377,0.0348954,1.69077,1.06586,0.056399,
2,1,0,1,0,6308.63,0.0582291,0.0578942,0.0181448,4,-0.0013117,10,1.05048e-06,-4.74125,0.0325489,1.81266,1.27051,0.0578942,
2,1,0,1,0,6310.12,0.0597273,0.0594276,0.0207662,4,-0.00125812,10,1.23409e-06,-4.68264,0.0437017,1.35006,1.05412,0.0594276,
2,1,0,1,0,6311.62,0.0612255,0.0609482,0.0218272,4,-0.00120158,10,1.33033e-06,-4.661,0.0448163,1.31649,1.11686,0.0609482,
2,1,0,1,0,6313.12,0.0627237,0.062419,0.024198,4,-0.00114257,10,1.51042e-06,-4.61622,0.0473517,1.246,1.17538,0.062419,
2,1,0,1,0,6314.62,0.0642219,0.0638993,0.0253122,4,-0.00108108,10,1.61743e-06,-4.59667,0.0440295,1.34001,1.34841,0.0638993,
2,1,0,1,0,6316.12,0.0657201,0.0653977,0.0272667,4,-0.00101645,10,1.78318e-06,-4.56437,0.0518307,1.13832,1.2279,0.0653977,
2,1,0,1,0,6317.62,0.0672183,0.0669247,0.0295244,4,-0.000948734,10,1.97591e-06,-4.52982,0.0598316,0.986101,1.11614,0.0669247,
2,1,0,1,0,6319.11,0.0687164,0.0684017,0.0309071,4,-0.000878348,10,2.1141e-06,-4.50994,0.0597597,0.987288,1.19402,0.0684017,
2,1,0,1,0,6320.61,0.0702146,0.0699065,0.0328888,4,-0.000806239,10,2.29914e-06,-4.48295,0.0953336,0.618879,0.792345,0.0699065,
2,1,0,1,0,6322.11,0.0717128,0.0713772,0.0343697,4,-0.000730835,10,2.45321e-06,-4.46382,0.0648849,0.909302,1.2003,0.0713772,
2,1,0,1,0,6323.61,0.073211,0.0729031,0.0354453,4,-0.000653412,10,2.58407e-06,-4.45044,0.0874646,0.674558,0.949781,0.0729031,
2,1,0,1,0,6325.11,0.0747092,0.0744058,0.0370633,4,-0.000573672,10,2.75773e-06,-4.43106,0.0705726,0.836019,1.23481,0.0744058,
2,1,0,1,0,6326.6,0.0762074,0.0758914,0.0386179,4,-0.000492016,10,2.93076e-06,-4.41321,0.086117,0.685114,1.04972,0.0758914,
2,1,0,1,0,6328.1,0.0777055,0.0773473,0.0401887,4,-0.000407534,10,3.10849e-06,-4.3959,0.0718832,0.820775,1.28212,0.0773473,
2,1,0,1,0,6329.6,0.0792037,0.0788859,0.0431535,4,-0.000320502,10,3.4042e-06,-4.36498,0.0866363,0.681008,1.11133,0.0788859,
2,1,0,1,0,6331.1,0.0807019,0.0803536,0.044133,4,-0.000230663,10,3.54624e-06,-4.35524,0.0808732,0.729537,1.24301,0.0803536,
2,1,0,1,0,6332.6,0.0822001,0.0818647,0.0456866,4,-0.000138681,10,3.74012e-06,-4.34021,0.0774349,0.76193,1.34835,0.0818647,
2,1,0,1,0,6334.1,0.0836983,0.0833598,0.0468464,4,-4.44204e-05,10,3.90511e-06,-4.32932,0.096394,0.612072,1.12706,0.08335983,
2,1,0,1,0,6335.59,0.0851965,0.0849249,0.0489979,4,5.24332e-05,10,4.16115e-06,-4.30982,0.101142,0.583338,1.11326,0.0849249,
2,1,0,1,0,6337.09,0.0866947,0.0863831,0.0497948,4,0.00015182,10,4.30143e-06,-4.30282,0.128919,0.457652,0.894321,0.0863831,
2,1,0,1,0,6338.59,0.0881929,0.0879101,0.0524548,4,0.000254186,10,4.6113e-06,-4.28021,0.0983218,0.60007,1.22722,0.0879101,
2,1,0,1,0,6340.09,0.0896911,0.0893628,0.0538676,4,0.000358363,10,4.81376e-06,-4.26867,0.107382,0.549443,1.1702,0.0893628,
2,1,0,1,0,6341.59,0.0911893,0.0908908,0.0561055,4,0.000465941,10,5.09948e-06,-4.25099,0.0876131,0.673415,1.46791,0.09089084,
2,1,0,1,0,6343.08,0.0926875,0.0923998,0.0581765,4,0.000576933,10,5.3755e-06,-4.23525,0.102596,0.575069,1.3028,0.0923998,
2,1,0,1,0,6344.58,0.0941857,0.0938887,0.0610612,4,0.000690841,10,5.73295e-06,-4.21423,0.0937139,0.629576,1.4762,0.0938887,
2,1,0,1,0,6346.08,0.0956839,0.0953786,0.0626938,4,0.000807745,10,5.97965e-06,-4.20278,0.0814937,0.723982,1.76295,0.0953786,
2,1,0,1,0,6347.58,0.0971821,0.0968812,0.0645242,4,0.000928743,10,6.25118e-06,-4.19028,0.073661,0.800967,2.03038,0.0968812,
2,1,0,1,0,6349.08,0.0986803,0.0983297,0.0677348,4,0.0010537,10,6.66034e-06,-4.16919,0.0880229,0.67028,1.77191,0.0983297,
2,1,0,1,0,6350.58,0.100178,0.0998491,0.069972,4,0.00118248,10,6.98664e-06,-4.15508,0.0937906,0.629061,1.74078,0.0998491,
2,1,0,1,0,6352.07,0.101677,0.101338,0.0728328,4,0.00131465,10,7.38073e-06,-4.13767,0.107719,0.547723,1.54752,0.101338,
2,1,0,1,0,6353.57,0.103175,0.102895,0.0757477,4,0.00145141,10,7.79403e-06,-4.12063,0.09043,0.652438,1.92021,0.102895,
2,1,0,1,0,6355.07,0.104673,0.104358,0.0786938,4,0.00159187,10,8.21233e-06,-4.10406,0.107326,0.549725,1.66452,0.104358,
2,1,0,1,0,6356.57,0.106171,0.105855,0.0810101,4,0.00173677,10,8.57535e-06,-4.09146,0.103878,0.567974,1.77372,0.105855,
2,1,0,1,0,6358.07,0.107669,0.107352,0.082482,4,0.00188506,10,8.85457e-06,-4.08364,0.117288,0.503035,1.63029,0.107352,
2,1,0,1,0,6359.56,0.109167,0.108822,0.0851582,4,0.00203693,10,9.2671e-06,-4.06977,0.13639,0.432583,1.44463,0.108822,
2,1,0,1,0,6361.06,0.110666,0.110403,0.0880065,4,0.0021927,10,9.71621e-06,-4.05549,0.134177,0.439718,1.51356,0.110403,
2,1,0,1,0,6362.56,0.112164,0.111865,0.0894782,4,0.00235207,10,1.00094e-05,-4.04828,0.156504,0.376987,1.32665,0.111865,
2,1,0,1,0,6364.06,0.113662,0.113369,0.0920318,4,0.00251492,10,1.04336e-05,-4.03606,0.145942,0.40427,1.45334,0.113369,
2,1,0,1,0,6365.56,0.11516,0.114839,0.0943762,4,0.00268035,10,1.08381e-05,-4.02514,0.153082,0.385414,1.41935,0.114839,
2,1,0,1,0,6367.06,0.116658,0.11635,0.0968528,4,0.00284988,10,1.12688e-05,-4.01389,0.15713,0.375484,1.41511,0.11635,
2,1,0,1,0,6368.55,0.118157,0.117816,0.0993861,4,0.00302335,10,1.17092e-05,-4.00267,0.144999,0.4069,1.56958,0.117816,
2,1,0,1,0,6370.05,0.119655,0.119339,0.101364,4,0.00319959,10,1.20968e-05,-3.99411,0.197258,0.2991,1.17796,0.119339,
2,1,0,1,0,6371.55,0.121153,0.120818,0.103074,4,0.00337815,10,1.24531e-05,-3.98685,0.153547,0.384248,1.54984,0.120818,
2,1,0,1,0,6373.05,0.122651,0.12235,0.105525,4,0.00356053,10,1.2911e-05,-3.97664,0.129182,0.456721,1.86687,0.1223499,
2,1,0,1,0,6374.55,0.124149,0.123903,0.107259,4,0.00374669,10,1.32898e-05,-3.96956,0.15386,0.383466,1.61854,0.123903,
2,1,0,1,0,6376.04,0.125648,0.125352,0.109544,4,0.0039363,10,1.37315e-05,-3.96041,0.162644,0.362755,1.5522,0.125352,
2,1,0,1,0,6377.54,0.127146,0.126815,0.110546,4,0.00412897,10,1.40189e-05,-3.95646,0.182884,0.322609,1.40563,0.126815,
2,1,0,1,0,6379.04,0.128644,0.1283,0.114485,4,0.00432456,10,1.46885e-05,-3.94125,0.212477,0.277678,1.23311,0.1283,
2,1,0,1,0,6380.54,0.130142,0.129811,0.115986,4,0.00452373,10,1.50563e-05,-3.93559,0.229742,0.25681,1.15285,0.129811,
2,1,0,1,0,6382.04,0.13164,0.131316,0.117427,4,0.00472518,10,1.54201e-05,-3.93023,7.99476,0.00737984,0.0333588,0.131316,
2,1,0,1,0,6383.54,0.133139,0.132827,0.116996,4,0.00492752,10,1.55401e-05,-3.93183,-8.07334,-0.007308,-0.0333051,0.132827,
2,1,0,1,0,6385.03,0.134637,0.134308,0.116626,4,0.00512911,10,1.56638e-05,-3.9332,-0.776958,-0.0759372,-0.345567,0.134308,
2,1,0,1,0,6386.53,0.136135,0.135787,0.115414,4,0.00533007,10,1.56718e-05,-3.93774,-0.273527,-0.215701,-0.975233,0.135787,
2,1,0,1,0,6388.03,0.137633,0.137324,0.114571,4,0.00552931,10,1.57334e-05,-3.94092,-0.161747,-0.364768,-1.60726,0.137324,
2,1,0,1,0,6389.53,0.139131,0.138793,0.111813,4,0.00572482,10,1.55188e-05,-3.95151,-0.127846,-0.461493,-1.99499,0.1387926,
2,1,0,1,0,6391.03,0.14063,0.140312,0.10779,4,0.00591481,10,1.51242e-05,-3.96742,-0.101343,-0.582183,-2.43801,0.140312,
2,1,0,1,0,6392.52,0.142128,0.141819,0.104377,4,0.00609962,10,1.48027e-05,-3.98139,-0.0932559,-0.632668,-2.55432,0.141819,
2,1,0,1,0,6394.02,0.143626,0.143302,0.100091,4,0.00627855,10,1.43432e-05,-3.99961,-0.0738531,-0.798883,-3.08333,0.143302,
2,1,0,1,0,6395.52,0.145124,0.144806,0.0942394,4,0.00644964,10,1.36464e-05,-4.02577,-0.0617034,-0.956187,-3.54298,0.1448061,
2,1,0,1,0,6397.02,0.146622,0.146313,0.0895215,4,0.00661246,10,1.30981e-05,-4.04807,-0.0599045,-0.984901,-3.45248,0.146313,
2,1,0,1,0,6398.52,0.14812,0.147876,0.0845167,4,0.00676819,10,1.2498e-05,-4.07306,-0.0645387,-0.91418,-3.02357,0.147876,
2,1,0,1,0,6400.02,0.149619,0.149298,0.0799199,4,0.00691649,10,1.19319e-05,-4.09734,-0.0617214,-0.955908,-3.00521,0.149298,
2,1,0,1,0,6401.51,0.151117,0.150819,0.0757864,4,0.007058,10,1.143e-05,-4.12041,-0.0656432,-0.898798,-2.68062,0.150819,
2,1,0,1,0,6403.01,0.152615,0.152315,0.0718859,4,0.00719309,10,1.09493e-05,-4.14336,-0.0719917,-0.819539,-2.31668,0.152315,
2,1,0,1,0,6404.51,0.154113,0.153854,0.0689763,4,0.0073231,10,1.06123e-05,-4.1613,-0.0773583,-0.762684,-2.06233,0.153854,
2,1,0,1,0,6406.01,0.155611,0.155293,0.0659707,4,0.00744872,10,1.02448e-05,-4.18065,-0.0827545,-0.712952,-1.85083,0.155293,
2,1,0,1,0,6407.51,0.15711,0.156774,0.0633722,4,0.00757012,10,9.9351e-06,-4.1981,-0.0779994,-0.756417,-1.87242,0.156774,
2,1,0,1,0,6409,0.158608,0.158267,0.0615567,4,0.00768788,10,9.74239e-06,-4.21072,-0.106112,-0.556017,-1.3333,0.158267,
2,1,0,1,0,6410.5,0.160106,0.159825,0.0588584,4,0.00780172,10,9.40703e-06,-4.23019,-0.10833,-0.544634,-1.28042,0.159825,
2,1,0,1,0,6412,0.161604,0.161281,0.0577222,4,0.0079132,10,9.30948e-06,-4.23866,-0.138109,-0.4272,-0.96551,0.161281,
2,1,0,1,0,6413.5,0.163102,0.162801,0.056143,4,0.00802248,10,9.14016e-06,-4.2507,-0.166001,-0.355419,-0.78178,0.162801,
2,1,0,1,0,6415,0.164601,0.164257,0.0549332,4,0.00812922,10,9.02317e-06,-4.26017,-0.141371,-0.417341,-0.89816,0.164257,
2,1,0,1,0,6416.5,0.166099,0.165787,0.053772,4,0.00823412,10,8.91472e-06,-4.26944,-0.162407,-0.363285,-0.760744,0.165787,
2,1,0,1,0,6417.99,0.167597,0.16734,0.0531309,4,0.00833753,10,8.89091e-06,-4.27465,-0.167771,-0.35167,-0.723394,0.16734,
2,1,0,1,0,6419.49,0.169095,0.168751,0.0523371,4,0.00843947,10,8.83195e-06,-4.28119,-0.254051,-0.232237,-0.472382,0.1687512,
2,1,0,1,0,6420.99,0.170593,0.17023,0.0516176,4,0.0085399,10,8.78689e-06,-4.2872,-0.357474,-0.165047,-0.332575,0.17023,
2,1,0,1,0,6422.49,0.172091,0.17179,0.0505325,4,0.00863894,10,8.681e-06,-4.29643,-0.279633,-0.21099,-0.41796,0.17179,
2,1,0,1,0,6423.99,0.17359,0.173279,0.0501581,4,0.00873745,10,8.69134e-06,-4.29966,-0.51625,-0.114286,-0.222813,0.173279,
2,1,0,1,0,6425.48,0.175088,0.174794,0.049824,4,0.00883543,10,8.70896e-06,-4.30256,-0.442936,-0.133202,-0.256861,0.174794,
2,1,0,1,0,6426.98,0.176586,0.17627,0.0491067,4,0.00893266,10,8.65607e-06,-4.30886,-0.276742,-0.213195,-0.408661,0.1762705,
2,1,0,1,0,6428.48,0.178084,0.177753,0.0486278,4,0.00902893,10,8.64373e-06,-4.31312,-0.426882,-0.138211,-0.264813,0.177753,
2,1,0,1,0,6429.98,0.179582,0.179275,0.0487198,4,0.00912449,10,8.73422e-06,-4.31229,-2.13209,-0.0276724,-0.0526344,0.179275,
2,1,0,1,0,6431.48,0.181081,0.180755,0.0484558,4,0.00922017,10,8.75862e-06,-4.31465,-0.503202,-0.117249,-0.221381,0.180755,
2,1,0,1,0,6432.98,0.182579,0.182283,0.0479936,4,0.0093154,10,8.74841e-06,-4.31882,1.36863,0.0431087,0.0811235,0.182283,
2,1,0,1,0,6434.47,0.184077,0.183795,0.048295,4,0.00941015,10,8.87639e-06,-4.3161,1.26766,0.0465424,0.0882731,0.183795,
2,1,0,1,0,6435.97,0.185575,0.185273,0.0484315,4,0.00950463,10,8.97307e-06,-4.31487,1.52784,0.0386167,0.07289,0.185273,
2,1,0,1,0,6437.47,0.187073,0.186799,0.0481538,4,0.00959921,10,8.9951e-06,-4.31737,-2.51794,-0.0234319,-0.0442276,0.186799,
2,1,0,1,0,6438.97,0.188572,0.188255,0.0485552,4,0.00969369,10,9.14078e-06,-4.31376,-8.80713,-0.00669912,-0.0125974,0.188255,
2,1,0,1,0,6440.47,0.19007,0.18977,0.0484921,4,0.00978806,10,9.20232e-06,-4.31433,10.9174,0.00540421,0.010207,0.18977,
2,1,0,1,0,6441.96,0.191568,0.191291,0.048341,4,0.00988189,10,9.24721e-06,-4.31568,-3.19463,-0.0184685,-0.034822,0.191291,
2,1,0,1,0,6443.46,0.193066,0.192744,0.0487945,4,0.00997632,10,9.40484e-06,-4.31163,1.4034,0.0420408,0.0794888,0.192744,
2,1,0,1,0,6444.96,0.194564,0.194234,0.0483834,4,0.0100707,10,9.3977e-06,-4.3153,-1.66627,-0.0354085,-0.066977,0.1942338,
2,1,0,1,0,6446.46,0.196063,0.195753,0.0481264,4,0.0101649,10,9.4209e-06,-4.31762,-0.479238,-0.123112,-0.232192,0.195753,
2,1,0,1,0,6447.96,0.197561,0.197242,0.0480278,4,0.0102587,10,9.47311e-06,-4.31851,2.19449,0.0268855,0.0505137,0.197242,
2,1,0,1,0,6449.46,0.199059,0.198727,0.0482291,4,0.0103525,10,9.58441e-06,-4.31669,1.53146,0.0385252,0.072577,0.198727,
2,1,0,1,0,6450.95,0.200557,0.200247,0.0484081,4,0.0104461,10,9.6936e-06,-4.31508,-2.65957,-0.0221841,-0.0416031,0.200247,
2,1,0,1,0,6452.45,0.202055,0.201768,0.0485139,4,0.0105401,10,9.78855e-06,-4.31413,1.75126,0.0336901,0.0638398,0.201768,
2,1,0,1,0,6453.95,0.203554,0.203232,0.0486146,4,0.010634,10,9.88007e-06,-4.31323,7.55071,0.00781384,0.0148045,0.203232,
2,1,0,1,0,6455.45,0.205052,0.20473,0.0484946,4,0.0107284,10,9.92827e-06,-4.31431,0.278045,0.212196,0.408471,0.20473,
2,1,0,1,0,6456.95,0.20655,0.206238,0.049139,4,0.0108232,10,1.01343e-05,-4.30857,2.43867,0.0241935,0.0460332,0.206238,
2,1,0,1,0,6458.44,0.208048,0.207777,0.0494882,4,0.0109189,10,1.02825e-05,-4.3055,-1.47536,-0.0399903,-0.0761361,0.207777,
2,1,0,1,0,6459.94,0.209546,0.20924,0.0489331,4,0.0110136,10,1.02387e-05,-4.3104,-1.05962,-0.0556802,-0.105761,0.20924,
2,1,0,1,0,6461.44,0.211044,0.210746,0.0491605,4,0.0111081,10,1.03604e-05,-4.30838,1.19907,0.0492048,0.0943824,0.210746,
2,1,0,1,0,6462.94,0.212543,0.212269,0.0488609,4,0.0112028,10,1.03717e-05,-4.31104,2.56614,0.0229918,0.0438615,0.212269,
2,1,0,1,0,6464.44,0.214041,0.213739,0.0496696,4,0.0112977,10,1.06163e-05,-4.30391,0.423159,0.139427,0.267775,0.2137389,
2,1,0,1,0,6465.94,0.215539,0.215228,0.0493591,4,0.0113928,10,1.06235e-05,-4.30663,0.674601,0.0874591,0.167099,0.215228,
2,1,0,1,0,6467.43,0.217037,0.216738,0.0490672,4,0.0114879,10,1.06347e-05,-4.30921,0.612683,0.0962977,0.18773,0.216738,
2,1,0,1,0,6468.93,0.218535,0.21825,0.0495401,4,0.0115832,10,1.08121e-05,-4.30504,0.703115,0.0839123,0.162749,0.2182499,
2,1,0,1,0,6470.43,0.220034,0.219739,0.0497107,4,0.0116794,10,1.09234e-05,-4.30355,0.594976,0.0991637,0.193064,0.219739,
2,1,0,1,0,6471.93,0.221532,0.221241,0.0498831,4,0.0117755,10,1.10362e-05,-4.30205,5.25097,0.011236,0.0220404,0.221241,
2,1,0,1,0,6473.43,0.22303,0.222727,0.0503158,4,0.0118719,10,1.12067e-05,-4.2983,0.529197,0.11149,0.219245,0.222727,
2,1,0,1,0,6474.93,0.224528,0.224274,0.0510118,4,0.0119683,10,1.14406e-05,-4.29233,0.774671,0.0761614,0.150684,0.224274,
2,1,0,1,0,6476.42,0.226026,0.225741,0.0511834,4,0.0120652,10,1.15542e-05,-4.29087,0.666989,0.0884572,0.174483,0.2257407,
2,1,0,1,0,6477.92,0.227525,0.227239,0.0512727,4,0.0121625,10,1.16511e-05,-4.29011,59.2781,0.000995309,0.0019726,0.227239,
2,1,0,1,0,6479.42,0.229023,0.228709,0.0509564,4,0.0122599,10,1.16542e-05,-4.2928,0.799498,0.0737963,0.146759,0.228709,
2,1,0,1,0,6480.92,0.230521,0.230226,0.0511809,4,0.012357,10,1.17832e-05,-4.29089,2.83393,0.0208192,0.0420051,0.2302261,
2,1,0,1,0,6482.42,0.232019,0.231694,0.0510782,4,0.0124549,10,1.18345e-05,-4.29176,0.653939,0.0902225,0.181685,0.231694,
2,1,0,1,0,6483.91,0.233517,0.233203,0.0519733,4,0.0125532,10,1.21203e-05,-4.28422,0.503887,0.11709,0.236446,0.233203,
2,1,0,1,0,6485.41,0.235016,0.234748,0.05189,4,0.012652,10,1.21811e-05,-4.28492,2.06234,0.0286083,0.0579162,0.234748,
2,1,0,1,0,6486.91,0.236514,0.236229,0.0526643,4,0.0127507,10,1.24408e-05,-4.27848,0.973991,0.0605755,0.123743,0.236229,
2,1,0,1,0,6488.41,0.238012,0.237703,0.052611,4,0.0128501,10,1.25058e-05,-4.27892,0.357742,0.164923,0.336287,0.237703,
2,1,0,1,0,6489.91,0.23951,0.239267,0.0522226,4,0.0129497,10,1.24951e-05,-4.28214,1.30943,0.0450578,0.0927474,0.239267,
2,1,0,1,0,6491.41,0.241008,0.240719,0.0523154,4,0.0130493,10,1.25933e-05,-4.28137,13.2847,0.00444119,0.009143,0.240719,
2,1,0,1,0,6492.9,0.242506,0.242243,0.0526495,4,0.013149,10,1.27539e-05,-4.27861,0.72745,0.0811052,0.166483,0.242243,
2,1,0,1,0,6494.4,0.244005,0.243693,0.0526868,4,0.013249,10,1.28394e-05,-4.2783,0.429732,0.137295,0.284763,0.243693,
2,1,0,1,0,6495.9,0.245503,0.24518,0.0534979,4,0.0133495,10,1.31166e-05,-4.27166,0.301893,0.195434,0.405929,0.24518,
2,1,0,1,0,6497.4,0.247001,0.246663,0.0534483,4,0.0134504,10,1.31837e-05,-4.27207,0.53537,0.110204,0.229632,0.246663,
2,1,0,1,0,6498.9,0.248499,0.248195,0.0536745,4,0.0135514,10,1.33217e-05,-4.27023,0.437369,0.134898,0.285092,0.248195,
2,1,0,1,0,6500.39,0.249997,0.24974,0.0542765,4,0.0136529,10,1.3555e-05,-4.26539,0.548619,0.107543,0.22594,0.24974,
2,1,0,1,0,6501.89,0.251496,0.251204,0.0548544,4,0.0137552,10,1.37796e-05,-4.26079,0.647644,0.0910994,0.193371,0.251204,
2,1,0,1,0,6503.39,0.252994,0.25269,0.054868,4,0.0138577,10,1.38646e-05,-4.26068,-7.19327,-0.00820211,-0.0173973,0.25269,
2,1,0,1,0,6504.89,0.254492,0.254163,0.0544929,4,0.0139605,10,1.38501e-05,-4.26366,1.13838,0.051828,0.110116,0.254163,
2,1,0,1,0,6506.39,0.25599,0.255702,0.0549954,4,0.014063,10,1.40625e-05,-4.25967,2.12134,0.0278126,0.0594997,0.255702,
2,1,0,1,0,6507.89,0.257488,0.257215,0.0549593,4,0.014166,10,1.41363e-05,-4.25996,0.763314,0.0772945,0.16653,0.257215,
2,1,0,1,0,6509.38,0.258987,0.258699,0.0552982,4,0.0142691,10,1.43056e-05,-4.25729,-0.993717,-0.059373,-0.127474,0.258699,
2,1,0,1,0,6510.88,0.260485,0.260192,0.0553052,4,0.0143724,10,1.439e-05,-4.25723,1.03186,0.057178,0.122582,0.260192,
2,1,0,1,0,6512.38,0.261983,0.26166,0.0550055,4,0.0144755,10,1.43927e-05,-4.25959,4.84089,0.0121878,0.0261738,0.26166,
2,1,0,1,0,6513.88,0.263481,0.263144,0.0549368,4,0.0145788,10,1.44563e-05,-4.26014,0.974057,0.0605714,0.13179,0.263144,
2,1,0,1,0,6515.38,0.264979,0.264693,0.0556802,4,0.0146825,10,1.47381e-05,-4.2543,0.51977,0.113512,0.247038,0.264693,
2,1,0,1,0,6516.87,0.266477,0.266185,0.0562176,4,0.014787,10,1.49643e-05,-4.25013,6.22803,0.0094733,0.0208096,0.266185,
2,1,0,1,0,6518.37,0.267976,0.267667,0.0562634,4,0.0148913,10,1.50599e-05,-4.24977,0.728722,0.0809637,0.177621,0.267667,
2,1,0,1,0,6519.87,0.269474,0.269185,0.0554564,4,0.0149959,10,1.49281e-05,-4.25605,0.663909,0.0888676,0.194341,0.269185,
2,1,0,1,0,6521.37,0.270972,0.270669,0.0566757,4,0.0151006,10,1.53404e-05,-4.2466,1.55432,0.0379587,0.0835225,0.270669,
2,1,0,1,0,6522.87,0.27247,0.272182,0.056361,4,0.0152053,10,1.53405e-05,-4.24902,-6.39365,-0.00922791,-0.0203971,0.272182,
2,1,0,1,0,6524.37,0.273968,0.273645,0.0563987,4,0.0153101,10,1.54333e-05,-4.24873,0.508907,0.115935,0.254316,0.273645,
2,1,0,1,0,6525.86,0.275467,0.275202,0.0567506,4,0.0154151,10,1.56179e-05,-4.24603,0.672882,0.0876826,0.194111,0.275202,
2,1,0,1,0,6527.36,0.276965,0.276689,0.0569958,4,0.0155206,10,1.57701e-05,-4.24416,0.499914,0.11802,0.262634,0.276689,
2,1,0,1,0,6528.86,0.278463,0.278172,0.0571805,4,0.0156264,10,1.5906e-05,-4.24275,-9.39951,-0.00627692,-0.0139849,0.278172,
2,1,0,1,0,6530.36,0.279961,0.279654,0.0580249,4,0.0157331,10,1.62269e-05,-4.23639,1.11767,0.0527885,0.118855,0.279654,
2,1,0,1,0,6531.86,0.281459,0.281171,0.0575604,4,0.0158398,10,1.61843e-05,-4.23988,2.425,0.0243299,0.0553331,0.281171,
2,1,0,1,0,6533.35,0.282958,0.282683,0.058131,4,0.015947,10,1.64327e-05,-4.23559,2.89199,0.0204012,0.0461749,0.2826834,
2,1,0,1,0,6534.85,0.284456,0.284129,0.0578346,4,0.0160546,10,1.64325e-05,-4.23781,-2.04054,-0.028914,-0.0655688,0.284129,
2,1,0,1,0,6536.35,0.285954,0.285653,0.0585105,4,0.016162,10,1.67137e-05,-4.23277,0.981223,0.060129,0.136903,0.285653,
2,1,0,1,0,6537.85,0.287452,0.287147,0.0586403,4,0.0162694,10,1.68384e-05,-4.2318,1.13828,0.0518328,0.118393,0.287147,
2,1,0,1,0,6539.35,0.28895,0.288603,0.0581322,4,0.0163771,10,1.67771e-05,-4.23558,0.637153,0.0925995,0.211855,0.288603,
2,1,0,1,0,6540.85,0.290448,0.290103,0.0587882,4,0.0164849,10,1.70546e-05,-4.23071,0.975653,0.0604723,0.139069,0.290103,
2,1,0,1,0,6542.34,0.291947,0.291649,0.0592182,4,0.0165933,10,1.72709e-05,-4.22754,0.483006,0.122152,0.28208,0.291649,
2,1,0,1,0,6543.84,0.293445,0.29315,0.0590442,4,0.0167019,10,1.73088e-05,-4.22882,1.00165,0.0589027,0.136234,0.29315,
2,1,0,1,0,6545.34,0.294943,0.294681,0.0595555,4,0.016811,10,1.75499e-05,-4.22508,0.750536,0.0786105,0.180795,0.294681,
2,1,0,1,0,6546.84,0.296441,0.296125,0.0596919,4,0.0169204,10,1.76763e-05,-4.22408,3.16918,0.0186168,0.043472,0.296125,
2,1,0,1,0,6548.34,0.297939,0.297653,0.0599844,4,0.0170298,10,1.78545e-05,-4.22196,2.01632,0.0292612,0.0683605,0.297653,
2,1,0,1,0,6549.83,0.299438,0.299137,0.0600968,4,0.0171395,10,1.79772e-05,-4.22115,-0.00566716,-10.4109,-17.1447,0.299137,
2,1,0,1,0,6550.68,0.299737,0.299429,0.0345833,4,0.0171877,10,1.03553e-05,-4.46113,0.00262082,22.512,33.1276,0.299429,
2,1,0,1,0,6552.18,0.298239,0.297976,0.0233159,4,0.017209,10,6.94755e-06,-4.63235,0.00674667,8.74506,12.064,0.297976,
2,1,0,1,0,6553.68,0.296741,0.296411,0.0188305,4,0.0172206,10,5.58158e-06,-4.72514,0.0187,3.15509,2.45285,0.296411,
2,1,0,1,0,6555.18,0.295243,0.294924,0.0160259,4,0.0172268,10,4.72641e-06,-4.79518,0.0212912,2.77109,1.78427,0.294924,
2,1,0,1,0,6556.68,0.293745,0.293454,0.0130949,4,0.0172291,10,3.84275e-06,-4.8829,0.022146,2.66413,1.41257,0.293454,
2,1,0,1,0,6558.18,0.292246,0.291904,0.0116341,4,0.0172282,10,3.39604e-06,-4.93427,0.0212437,2.7773,1.25442,0.291904,
2,0,0,1,0,6559.67,0.290748,0.290433,0.00996165,4,0.0172244,10,2.89319e-06,-5.00167,0.0206996,2.8503,1.0821,0.290433,
2,1,0,1,0,6561.17,0.28925,0.288926,0.00832513,4,0.017218,10,2.40535e-06,-5.07961,0.0176338,3.34584,1.04691,0.288926,
2,1,0,1,0,6562.67,0.287752,0.287436,0.006596,4,0.0172091,10,1.89593e-06,-5.18072,0.0163763,3.60276,0.909153,0.287436,
2,1,0,1,0,6564.17,0.286254,0.285933,0.00502473,4,0.0171984,10,1.43674e-06,-5.29889,0.0123525,4.77635,0.922978,0.285933,
2,1,0,1,0,6565.67,0.284755,0.284434,0.0046625,4,0.0171856,10,1.32617e-06,-5.33138,0.0089129,6.61962,0.970976,0.284434,
2,1,0,1,0,6567.16,0.283257,0.282976,0.00247503,4,0.0171704,10,7.00374e-07,-5.60642,0.00648321,9.10043,0.807731,0.282976,
2,1,0,1,0,6568.66,0.281759,0.281449,0.00198742,4,0.0171538,10,5.59357e-07,-5.70171,0.00486622,12.1244,0.716365,0.281449,
2,1,0,1,0,6570.16,0.280261,0.279946,0.000878759,4,0.0171355,10,2.46005e-07,-6.05613,0.00599266,9.84537,0.600896,0.279946,
2,1,0,1,0,6571.66,0.278763,0.278471,-0.000421251,4,0.0171159,10,-1.17306e-07,-6.37546,-0.0278256,-2.12035,0.595967,0.278471,
2,0,0,1,0,6573.16,0.277264,0.276953,-0.00108437,4,0.0170949,10,-3.00321e-07,-5.96482,-0.00299465,-19.7018,0.48786,0.276953,
2,0,0,1,0,6574.66,0.275766,0.275476,-0.00164015,4,0.0170725,10,-4.51822e-07,-5.78512,-0.00975454,-6.04847,0.456955,0.275476,
2,0,0,1,0,6576.15,0.274268,0.273952,-0.00283939,4,0.0170487,10,-7.77855e-07,-5.54678,-0.0101934,-5.78803,0.630154,0.273952,
2,0,0,1,0,6577.65,0.27277,0.272408,-0.00413722,4,0.0170236,10,-1.12701e-06,-5.38329,-0.0147129,-4.0101,0.612242,0.272408,
2,0,0,1,0,6579.15,0.271272,0.270967,-0.00527926,4,0.0169966,10,-1.43051e-06,-5.27743,-0.0161251,-3.65889,0.662457,0.270967,
2,1,0,1,0,6580.65,0.269774,0.269516,-0.0058163,4,0.0169681,10,-1.56759e-06,-5.23535,-0.0304591,-1.93702,0.419326,0.269516,
2,1,0,1,0,6582.15,0.268275,0.267993,-0.00675711,4,0.0169386,10,-1.81086e-06,-5.17024,-0.0443363,-1.33074,0.34258,0.267993,
2,1,0,1,0,6583.64,0.266777,0.266484,-0.00720491,4,0.0169081,10,-1.91999e-06,-5.14237,-0.033458,-1.76341,0.51216,0.266484,
2,1,0,1,0,6585.14,0.265279,0.264997,-0.00797519,4,0.0168767,10,-2.1134e-06,-5.09826,-0.0399497,-1.47686,0.459905,0.264997,
2,0,0,1,0,6586.64,0.263781,0.263468,-0.008386,4,0.0168441,10,-2.20944e-06,-5.07645,-0.0525008,-1.12379,0.373064,0.263468,
2,1,0,1,0,6588.14,0.262283,0.261956,-0.00912867,4,0.0168105,10,-2.3913e-06,-5.03959,-0.0373877,-1.57806,0.580871,0.261956,
2,0,0,1,0,6589.64,0.260784,0.260496,-0.00995457,4,0.0167759,10,-2.59313e-06,-5.00198,-0.0450136,-1.31071,0.511305,0.260496,
2,0,0,1,0,6591.14,0.259286,0.258961,-0.0107263,4,0.0167398,10,-2.7777e-06,-4.96955,-0.0425489,-1.38664,0.581198,0.258961,
2,0,0,1,0,6592.63,0.257788,0.257486,-0.0113223,4,0.0167028,10,-2.91533e-06,-4.94607,-0.0729111,-0.809204,0.357781,0.2574859,
2,0,0,1,0,6594.13,0.25629,0.255957,-0.0122243,4,0.0166646,10,-3.1289e-06,-4.91278,-0.0652232,-0.904586,0.41725,0.255957,
2,0,0,1,0,6595.63,0.254792,0.254472,-0.012619,4,0.0166256,10,-3.21118e-06,-4.89898,-0.0635607,-0.928246,0.465033,0.254472,
2,0,0,1,0,6597.13,0.253293,0.253013,-0.0133634,4,0.0165858,10,-3.38112e-06,-4.87408,-0.0705531,-0.836249,0.428789,0.253013,
2,0,0,1,0,6598.63,0.251795,0.251516,-0.0138249,4,0.0165446,10,-3.47717e-06,-4.85934,-0.0827726,-0.712796,0.396705,0.2515159,
2,1,0,1,0,6600.12,0.250297,0.249973,-0.0147489,4,0.0165026,10,-3.68683e-06,-4.83124,-0.183823,-0.320961,0.182947,0.249973,
2,0,0,1,0,6601.62,0.248799,0.248521,-0.0151538,4,0.0164597,10,-3.76605e-06,-4.81948,-0.0720582,-0.818783,0.491281,0.248521,
2,0,0,1,0,6603.12,0.247301,0.24696,-0.0157647,4,0.0164162,10,-3.89326e-06,-4.80231,-0.0624312,-0.94504,0.594373,0.24696,
2,0,0,1,0,6604.62,0.245802,0.245529,-0.016566,4,0.0163716,10,-4.06743e-06,-4.78078,-0.0820465,-0.719104,0.461738,0.245529,
2,0,0,1,0,6606.12,0.244304,0.244023,-0.0169005,4,0.0163258,10,-4.12411e-06,-4.7721,-0.0794284,-0.742807,0.486629,0.244023,
2,0,0,1,0,6607.62,0.242806,0.242501,-0.0182293,4,0.016279,10,-4.42064e-06,-4.73923,-0.0821143,-0.718511,0.486817,0.242501,
2,0,0,1,0,6609.11,0.241308,0.241036,-0.0182826,4,0.0162315,10,-4.40676e-06,-4.73796,-0.164461,-0.358747,0.250616,0.241036,
2,1,0,1,0,6610.61,0.23981,0.239495,-0.0183948,4,0.0161834,10,-4.40547e-06,-4.7353,-0.0909567,-0.64866,0.473872,0.239495,
2,1,0,1,0,6612.11,0.238312,0.238016,-0.0186516,4,0.0161349,10,-4.43938e-06,-4.72928,-0.120138,-0.491101,0.372882,0.238016,
2,0,0,1,0,6613.61,0.236813,0.236471,-0.0197622,4,0.0160852,10,-4.67318e-06,-4.70417,-0.0917217,-0.64325,0.497836,0.236471,
2,0,0,1,0,6615.11,0.235315,0.235013,-0.0202806,4,0.0160346,10,-4.7662e-06,-4.69292,-0.0929946,-0.634445,0.506569,0.235013,
2,0,0,1,0,6616.6,0.233817,0.233502,-0.0211517,4,0.0159828,10,-4.93897e-06,-4.67465,-0.0946454,-0.623379,0.509543,0.233502,
2,0,0,1,0,6618.1,0.232319,0.232007,-0.0218228,4,0.0159296,10,-5.06303e-06,-4.66109,-0.114285,-0.516254,0.437714,0.232007,
2,0,0,1,0,6619.6,0.230821,0.230475,-0.0229223,4,0.0158755,10,-5.28302e-06,-4.63974,-0.121434,-0.485862,0.425183,0.230475,
2,0,0,1,0,6621.1,0.229322,0.22903,-0.0226621,4,0.0158208,10,-5.19031e-06,-4.6447,-0.135684,-0.434834,0.387585,0.22903,
2,0,0,1,0,6622.6,0.227824,0.227506,-0.024003,4,0.015765,10,-5.46083e-06,-4.61973,-0.176122,-0.334995,0.309496,0.227506,
2,0,0,1,0,6624.1,0.226326,0.226046,-0.0239214,4,0.0157084,10,-5.40734e-06,-4.62121,-0.191413,-0.308234,0.290664,0.226046,
2,0,0,1,0,6625.59,0.224828,0.224538,-0.0244844,4,0.0156509,10,-5.49768e-06,-4.61111,-0.264714,-0.222882,0.212353,0.224538,
2,0,0,1,0,6627.09,0.22333,0.22305,-0.0249891,4,0.0155928,10,-5.57383e-06,-4.60225,-0.161351,-0.365663,0.353047,0.22305,
2,0,0,1,0,6628.59,0.221831,0.221522,-0.0258406,4,0.0155341,10,-5.72427e-06,-4.5877,-0.24581,-0.240022,0.240783,0.221522,
2,0,0,1,0,6630.09,0.220333,0.220044,-0.0264338,4,0.0154743,10,-5.81659e-06,-4.57784,-0.160295,-0.368072,0.374532,0.220044,
2,0,0,1,0,6631.59,0.218835,0.218501,-0.0268131,4,0.0154132,10,-5.8587e-06,-4.57165,-0.14409,-0.409466,0.426898,0.218501,
2,0,0,1,0,6633.08,0.217337,0.216995,-0.027584,4,0.0153513,10,-5.98561e-06,-4.55934,-0.262161,-0.225052,0.242104,0.216995,
2,0,0,1,0,6634.58,0.215839,0.215537,-0.0284083,4,0.0152887,10,-6.12305e-06,-4.54655,-0.224512,-0.262792,0.287039,0.215537,
2,0,0,1,0,6636.08,0.21434,0.214047,-0.0283575,4,0.0152252,10,-6.06985e-06,-4.54733,-0.11347,-0.519959,0.579721,0.214047,
2,0,0,1,0,6637.58,0.212842,0.212543,-0.0293939,4,0.0151606,10,-6.24746e-06,-4.53174,-0.121747,-0.484612,0.557074,0.212543,
2,0,0,1,0,6639.08,0.211344,0.211036,-0.0300902,4,0.0150948,10,-6.35012e-06,-4.52157,-0.236973,-0.248973,0.288873,0.211036,
2,0,0,1,0,6640.58,0.209846,0.209529,-0.0302515,4,0.0150284,10,-6.33858e-06,-4.51925,-0.276172,-0.213635,0.254647,0.2095291,
2,0,0,1,0,6642.07,0.208348,0.208017,-0.0313012,4,0.0149612,10,-6.51119e-06,-4.50444,-0.150585,-0.391804,0.473015,0.208017,
2,0,0,1,0,6643.57,0.20685,0.206536,-0.0320053,4,0.0148924,10,-6.61024e-06,-4.49478,-0.138619,-0.425627,0.524394,0.206536,
2,0,0,1,0,6645.07,0.205351,0.205014,-0.0324551,4,0.0148228,10,-6.65375e-06,-4.48872,-0.235826,-0.250185,0.314993,0.205014,
2,0,0,1,0,6646.57,0.203853,0.203542,-0.0333467,4,0.0147525,10,-6.78745e-06,-4.47695,-0.281998,-0.209222,0.268961,0.203542,
2,0,0,1,0,6648.07,0.202355,0.202029,-0.0335279,4,0.0146815,10,-6.7736e-06,-4.47459,-0.193217,-0.305356,0.402365,0.2020289,
2,0,0,1,0,6649.56,0.200857,0.200547,-0.0343733,4,0.0146093,10,-6.89348e-06,-4.46378,-0.158168,-0.373022,0.498853,0.200547,
2,0,0,1,0,6651.06,0.199359,0.199023,-0.0352973,4,0.0145357,10,-7.02496e-06,-4.45226,-0.299999,-0.196667,0.267844,0.199023,
2,0,0,1,0,6652.56,0.19786,0.197552,-0.0357368,4,0.0144613,10,-7.05986e-06,-4.44688,-0.177228,-0.332904,0.459944,0.197552,
2,0,0,1,0,6654.06,0.196362,0.196032,-0.0365603,4,0.0143861,10,-7.16699e-06,-4.43699,-0.169918,-0.347226,0.492024,0.196032,
2,0,0,1,0,6655.56,0.194864,0.194524,-0.0366676,4,0.01431,10,-7.13274e-06,-4.43572,-0.216474,-0.27255,0.393358,0.194524,
2,0,0,1,0,6657.06,0.193366,0.193014,-0.0375872,4,0.0142324,10,-7.25487e-06,-4.42496,-0.201911,-0.292209,0.425226,0.193014,
2,0,0,1,0,6658.55,0.191868,0.191564,-0.0385233,4,0.0141539,10,-7.37966e-06,-4.41428,-0.31528,-0.187136,0.280138,0.191564,
2,0,0,1,0,6660.05,0.190369,0.190089,-0.0394081,4,0.0140747,10,-7.49104e-06,-4.40441,-0.191087,-0.308761,0.469756,0.190089,
2,0,0,1,0,6661.55,0.188871,0.188552,-0.0397097,4,0.0139941,10,-7.48734e-06,-4.4011,-0.166537,-0.354276,0.547198,0.188552,
2,0,0,1,0,6663.05,0.187373,0.187077,-0.0408976,4,0.0139122,10,-7.651e-06,-4.3883,-0.164748,-0.358122,0.570166,0.187077,
2,0,0,1,0,6664.55,0.185875,0.185584,-0.0413401,4,0.0138289,10,-7.67207e-06,-4.38363,-0.128965,-0.457488,0.736613,0.185584,
2,0,0,1,0,6666.04,0.184377,0.184054,-0.0421548,4,0.0137443,10,-7.75876e-06,-4.37515,-0.128915,-0.457666,0.757872,0.184054,
2,0,0,1,0,6667.54,0.182878,0.182563,-0.0433315,4,0.0136583,10,-7.91072e-06,-4.3632,-0.170292,-0.346465,0.58443,0.182563,
2,0,0,1,0,6669.04,0.18138,0.181073,-0.0448531,4,0.0135704,10,-8.1217e-06,-4.34821,-0.142855,-0.413005,0.71652,0.181073,
2,0,0,1,0,6670.54,0.179882,0.179563,-0.0451916,4,0.0134813,10,-8.11474e-06,-4.34494,-0.161552,-0.365207,0.640645,0.179563,
2,0,0,1,0,6672.04,0.178384,0.178101,-0.046197,4,0.0133907,10,-8.22773e-06,-4.33539,-0.18909,-0.312021,0.56235,0.1781009,
2,0,0,1,0,6673.54,0.176886,0.176546,-0.0472008,4,0.0132988,10,-8.33314e-06,-4.32605,-0.148851,-0.39637,0.735174,0.176546,
2,0,0,1,0,6675.03,0.175388,0.175103,-0.0482941,4,0.013205,10,-8.45644e-06,-4.31611,-0.138416,-0.426251,0.803724,0.175103,
2,0,0,1,0,6676.53,0.173889,0.173588,-0.0493412,4,0.013109,10,-8.56503e-06,-4.30679,-0.131145,-0.449883,0.87844,0.173588,
2,0,0,1,0,6678.03,0.172391,0.172048,-0.0514476,4,0.013011,10,-8.85146e-06,-4.28863,-0.139722,-0.422267,0.837847,0.172048,
2,0,0,1,0,6679.53,0.170893,0.170566,-0.0525054,4,0.0129111,10,-8.95562e-06,-4.2798,-0.108773,-0.542412,1.11369,0.170566,
2,0,0,1,0,6681.03,0.169395,0.16907,-0.0538898,4,0.0128088,10,-9.11116e-06,-4.26849,-0.113065,-0.521824,1.09623,0.16907,
2,0,0,1,0,6682.52,0.167897,0.167577,-0.0553926,4,0.0127039,10,-9.28254e-06,-4.25655,-0.104077,-0.566888,1.23417,0.167577,
2,0,0,1,0,6684.02,0.166398,0.166097,-0.0573252,4,0.0125967,10,-9.52155e-06,-4.24165,-0.12458,-0.47359,1.06425,0.166097,
2,0,0,1,0,6685.52,0.1649,0.164635,-0.0583375,4,0.0124871,10,-9.60438e-06,-4.23405,-0.0991587,-0.595006,1.36324,0.164635,
2,0,0,1,0,6687.02,0.163402,0.163108,-0.0605184,4,0.0123744,10,-9.87102e-06,-4.21811,-0.0953388,-0.618845,1.46463,0.163108,
2,0,0,1,0,6688.52,0.161904,0.161611,-0.0626654,4,0.0122583,10,-1.01274e-05,-4.20297,-0.0961632,-0.613541,1.51216,0.161611,
2,0,0,1,0,6690.02,0.160406,0.16009,-0.0651502,4,0.0121388,10,-1.04299e-05,-4.18608,-0.0942564,-0.625952,1.59163,0.16009,
2,0,0,1,0,6691.51,0.158907,0.158597,-0.067823,4,0.0120155,10,-1.07565e-05,-4.16862,-0.0935317,-0.630803,1.66635,0.158597,
2,0,0,1,0,6693.01,0.157409,0.157152,-0.0704885,4,0.0118878,10,-1.10775e-05,-4.15188,-0.0817947,-0.721318,1.985,0.157152,
2,0,0,1,0,6694.51,0.155911,0.15558,-0.0739555,4,0.0117553,10,-1.1506e-05,-4.13103,-0.0824142,-0.715896,2.06968,0.15558,
2,0,0,1,0,6696.01,0.154413,0.154068,-0.0763968,4,0.0116182,10,-1.17703e-05,-4.11692,-0.0864182,-0.682726,2.05092,0.154068,
2,0,0,1,0,6697.51,0.152915,0.152609,-0.0811842,4,0.0114758,10,-1.23894e-05,-4.09053,-0.0704745,-0.837183,2.64341,0.1526086,
2,0,0,1,0,6699.01,0.151417,0.151084,-0.0842327,4,0.0113279,10,-1.27262e-05,-4.07452,-0.070394,-0.838139,2.78435,0.151084,
2,0,0,1,0,6700.5,0.149918,0.149602,-0.0894019,4,0.0111731,10,-1.33747e-05,-4.04865,-0.0678822,-0.869153,3.0278,0.149602,
2,0,0,1,0,6702,0.14842,0.14811,-0.0939321,4,0.0110112,10,-1.39123e-05,-4.02719,-0.0639599,-0.922454,3.38633,0.14811,
2,0,0,1,0,6703.5,0.146922,0.146605,-0.0991866,4,0.0108419,10,-1.45412e-05,-4.00355,-0.0685333,-0.860895,3.32151,0.146605,
2,0,0,1,0,6705,0.145424,0.145101,-0.104687,4,0.0106647,10,-1.51901e-05,-3.98011,-0.0653256,-0.903169,3.68252,0.145101,
2,0,0,1,0,6706.5,0.143926,0.143638,-0.11051,4,0.010479,10,-1.58734e-05,-3.9566,-0.0623147,-0.946807,4.0684,0.143638,
2,0,0,1,0,6707.99,0.142427,0.142104,-0.116262,4,0.0102838,10,-1.65213e-05,-3.93456,-0.069902,-0.844039,3.8326,0.142104,
2,0,0,1,0,6709.49,0.140929,0.140571,-0.122716,4,0.0100795,10,-1.72503e-05,-3.9111,-0.0739666,-0.797657,3.82104,0.140571,
2,0,0,1,0,6710.99,0.139431,0.139087,-0.128146,4,0.00986677,10,-1.78235e-05,-3.89229,-0.0736332,-0.801269,4.01452,0.139087,
2,0,0,1,0,6712.49,0.137933,0.137592,-0.134641,4,0.00964434,10,-1.85256e-05,-3.87082,-0.0790735,-0.746141,3.89923,0.137592,
2,0,0,1,0,6713.99,0.136435,0.136137,-0.140265,4,0.00941272,10,-1.90953e-05,-3.85305,-0.0921157,-0.640499,3.47939,0.136137,
2,0,0,1,0,6715.49,0.134936,0.134642,-0.144888,4,0.00917324,10,-1.9508e-05,-3.83897,-0.112166,-0.526006,2.95959,0.134642,
2,0,0,1,0,6716.98,0.133438,0.133135,-0.147713,4,0.00892716,10,-1.96659e-05,-3.83058,-0.132525,-0.445198,2.58386,0.133135,
2,0,0,1,0,6718.48,0.13194,0.131677,-0.152615,4,0.00867556,10,-2.00959e-05,-3.8164,-0.156394,-0.377252,2.24685,0.1316772,
2,0,0,1,0,6719.98,0.130442,0.130119,-0.155171,4,0.00841876,10,-2.01908e-05,-3.80919,-0.240402,-0.245422,1.4834,0.130119,
2,0,0,1,0,6721.48,0.128944,0.128654,-0.157953,4,0.00815804,10,-2.03212e-05,-3.80147,-0.3729,-0.158219,0.967238,0.128654,
2,0,0,1,0,6722.98,0.127445,0.127131,-0.158796,4,0.00789461,10,-2.0188e-05,-3.79916,-0.500513,-0.117879,0.729879,0.127131,
2,0,0,1,0,6724.47,0.125947,0.125649,-0.160159,4,0.00763024,10,-2.01238e-05,-3.79545,-0.844368,-0.0698748,0.435468,0.125649,
2,0,0,1,0,6725.97,0.124449,0.124146,-0.160888,4,0.007364,10,-1.99736e-05,-3.79348,34.9693,0.0016872,-0.010533,0.1241463,
2,0,0,1,0,6727.47,0.122951,0.122648,-0.161073,4,0.00709758,10,-1.97553e-05,-3.79298,2.28492,0.0258215,-0.160918,0.122648,
2,0,0,1,0,6728.97,0.121453,0.121127,-0.159374,4,0.00683166,10,-1.93046e-05,-3.79758,0.73112,0.0806981,-0.502432,0.121127,
2,0,0,1,0,6730.47,0.119955,0.11966,-0.158693,4,0.00656781,10,-1.89891e-05,-3.79944,0.668691,0.0882321,-0.548836,0.11966,
2,0,0,1,0,6731.97,0.118456,0.118143,-0.158211,4,0.00630448,10,-1.86916e-05,-3.80076,1.39593,0.0422657,-0.259714,0.118143,
2,0,0,1,0,6733.46,0.116958,0.116635,-0.157481,4,0.00604157,10,-1.83678e-05,-3.80277,0.71017,0.0830787,-0.510937,0.116635,
2,0,0,1,0,6734.96,0.11546,0.115106,-0.156553,4,0.00578043,10,-1.80202e-05,-3.80534,0.392628,0.15027,-0.921327,0.115106,
2,0,0,1,0,6736.46,0.113962,0.113645,-0.154956,4,0.00552117,10,-1.761e-05,-3.80979,0.456244,0.129317,-0.784855,0.113645,
2,0,0,1,0,6737.96,0.112464,0.112168,-0.154726,4,0.00526351,10,-1.73553e-05,-3.81044,0.526291,0.112105,-0.674784,0.112168,
2,0,0,1,0,6739.46,0.110965,0.110606,-0.153871,4,0.00500687,10,-1.70191e-05,-3.81284,0.636115,0.0927505,-0.555224,0.110606,
2,0,0,1,0,6740.95,0.109467,0.109137,-0.15226,4,0.00475183,10,-1.66173e-05,-3.81741,0.402343,0.146641,-0.871484,0.109137,
2,0,0,1,0,6742.45,0.107969,0.10766,-0.151362,4,0.0044986,10,-1.62957e-05,-3.81998,0.572202,0.10311,-0.611337,0.10766,
2,0,0,1,0,6743.95,0.106471,0.106151,-0.14999,4,0.00424737,10,-1.59216e-05,-3.82394,0.525728,0.112225,-0.659399,0.106151,
2,0,0,1,0,6745.45,0.104973,0.104666,-0.149062,4,0.0039975,10,-1.56016e-05,-3.82663,0.402813,0.14647,-0.852332,0.104666,
2,0,0,1,0,6746.95,0.103474,0.103199,-0.147704,4,0.00374923,10,-1.52429e-05,-3.83061,0.311437,0.189445,-1.09062,0.103199,
2,0,0,1,0,6748.45,0.101976,0.101667,-0.14632,4,0.00350396,10,-1.48758e-05,-3.8347,0.315684,0.186896,-1.0651,0.101667,
2,0,0,1,0,6749.94,0.100478,0.100157,-0.144733,4,0.00326123,10,-1.4496e-05,-3.83943,0.336178,0.175502,-0.988444,0.1001566,
2,0,0,1,0,6751.44,0.0989798,0.0986625,-0.143482,4,0.00302057,10,-1.41563e-05,-3.8432,0.314186,0.187787,-1.04898,0.0986625,
2,0,0,1,0,6752.94,0.0974816,0.0971503,-0.141499,4,0.00278206,10,-1.37467e-05,-3.84925,0.295508,0.199656,-1.10309,0.0971503,
2,0,0,1,0,6754.44,0.0959834,0.0956393,-0.13943,4,0.00254628,10,-1.3335e-05,-3.85564,0.272725,0.216335,-1.18588,0.0956393,
2,0,0,1,0,6755.94,0.0944852,0.0941854,-0.138313,4,0.00231359,10,-1.30271e-05,-3.85914,0.306856,0.192272,-1.03938,0.0941854,
2,0,0,1,0,6757.43,0.0929871,0.092666,-0.136737,4,0.00208264,10,-1.26709e-05,-3.86411,0.390997,0.150896,-0.806152,0.09266597,
2,0,0,1,0,6758.93,0.0914889,0.0911357,-0.135785,4,0.00185348,10,-1.23749e-05,-3.86715,0.341311,0.172863,-0.914519,0.0911357,
2,0,0,1,0,6760.43,0.0899907,0.0896841,-0.134434,4,0.00162664,10,-1.20566e-05,-3.87149,0.351947,0.167639,-0.877333,0.0896841,
2,0,0,1,0,6761.93,0.0884925,0.0881995,-0.131285,4,0.00140273,10,-1.15793e-05,-3.88178,0.301852,0.19546,-1.00762,0.0881995,
2,0,0,1,0,6763.43,0.0869943,0.0866958,-0.130837,4,0.00118129,10,-1.1343e-05,-3.88327,0.342301,0.172363,-0.88152,0.0866958,
2,0,0,1,0,6764.93,0.0854961,0.0851848,-0.129913,4,0.000961384,10,-1.10666e-05,-3.88635,0.442507,0.133331,-0.674922,0.08518479,
2,0,0,1,0,6766.42,0.083998,0.0837099,-0.128908,4,0.00074316,10,-1.07909e-05,-3.88972,0.299074,0.197275,-0.987953,0.0837099,
2,0,0,1,0,6767.92,0.0824998,0.0821966,-0.127241,4,0.00052652,10,-1.04588e-05,-3.89537,0.494491,0.119315,-0.596673,0.0821966,
2,0,0,1,0,6769.42,0.0810016,0.0807205,-0.126484,4,0.000311948,10,-1.02099e-05,-3.89796,0.631911,0.0933676,-0.464778,0.0807205,
2,0,0,1,0,6770.92,0.0795034,0.0792084,-0.125924,4,9.78386e-05,10,-9.97422e-06,-3.89989,0.458191,0.128767,-0.633293,0.0792084,
2,0,0,1,0,6772.42,0.0780052,0.0776687,-0.125107,4,-0.000114945,10,-9.71692e-06,-3.90272,0.426387,0.138372,-0.676703,0.0776687,
2,0,0,1,0,6773.91,0.076507,0.0761925,-0.124792,4,-0.000326647,10,-9.50819e-06,-3.90381,0.675283,0.0873708,-0.423208,0.0761925,
2,0,0,1,0,6775.41,0.0750088,0.0747079,-0.12366,4,-0.000536501,10,-9.23842e-06,-3.90777,0.526151,0.112135,-0.540714,0.07470794,
2,0,0,1,0,6776.91,0.0735106,0.0732149,-0.123279,4,-0.000745338,10,-9.02586e-06,-3.90911,0.509552,0.115788,-0.554348,0.0732149,
2,0,0,1,0,6778.41,0.0720124,0.0716901,-0.121562,4,-0.00095289,10,-8.71482e-06,-3.9152,0.493891,0.11946,-0.568509,0.0716901,
2,0,0,1,0,6779.91,0.0705142,0.0702299,-0.120625,4,-0.00115909,10,-8.4715e-06,-3.91856,0.610834,0.0965893,-0.457396,0.0702299,
2,0,0,1,0,6781.41,0.069016,0.0687177,-0.119603,4,-0.00136381,10,-8.21882e-06,-3.92226,0.732831,0.0805097,-0.378151,0.0687177,
2,0,0,1,0,6782.9,0.0675178,0.0672077,-0.119668,4,-0.00156823,10,-8.0426e-06,-3.92202,0.881649,0.0669201,-0.311557,0.0672077,
2,0,0,1,0,6784.4,0.0660196,0.0657602,-0.119665,4,-0.00177155,10,-7.86921e-06,-3.92203,0.461106,0.127953,-0.595679,0.0657602,
2,0,0,1,0,6785.9,0.0645214,0.064178,-0.118073,4,-0.00197366,10,-7.57767e-06,-3.92785,0.580799,0.101584,-0.468898,0.064178,
2,0,0,1,0,6787.4,0.0630233,0.0627191,-0.11707,4,-0.00217462,10,-7.34249e-06,-3.93156,0.655797,0.0899669,-0.412216,0.0627191,
2,0,0,1,0,6788.9,0.0615251,0.061209,-0.117419,4,-0.0023747,10,-7.18708e-06,-3.93026,0.684807,0.0861557,-0.393686,0.061209,
2,0,0,1,0,6790.39,0.0600269,0.0597043,-0.116009,4,-0.00257378,10,-6.92622e-06,-3.93551,0.435968,0.135331,-0.615163,0.0597043,
2,0,0,1,0,6791.89,0.0585287,0.0582229,-0.115349,4,-0.00277195,10,-6.71597e-06,-3.93798,0.354752,0.166313,-0.749739,0.0582229,
2,0,0,1,0,6793.39,0.0570305,0.0567118,-0.114777,4,-0.0029689,10,-6.50922e-06,-3.94014,0.477758,0.123493,-0.554604,0.0567118,
2,0,0,1,0,6794.89,0.0555323,0.055224,-0.114006,4,-0.00316407,10,-6.29586e-06,-3.94307,1.1518,0.0512241,-0.228057,0.05522405,
2,0,0,1,0,6796.39,0.0540342,0.0537004,-0.113538,4,-0.00335856,10,-6.09706e-06,-3.94486,0.51237,0.115151,-0.507571,0.0537004,
2,0,0,1,0,6797.89,0.052536,0.0521458,-0.112955,4,-0.00355224,10,-5.89011e-06,-3.9471,0.4349,0.135663,-0.594646,0.0521458,
2,0,0,1,0,6799.38,0.0510378,0.0507153,-0.111808,4,-0.0037443,10,-5.67037e-06,-3.95153,0.996858,0.059186,-0.257002,0.0507153,
2,0,0,1,0,6800.88,0.0495396,0.0492265,-0.111278,4,-0.00393491,10,-5.47783e-06,-3.95359,0.620357,0.0951065,-0.412386,0.0492265,
2,0,0,1,0,6802.38,0.0480414,0.0477599,-0.110648,4,-0.00412497,10,-5.28455e-06,-3.95606,1.0443,0.056497,-0.243038,0.0477599,
2,0,0,1,0,6803.88,0.0465432,0.0462159,-0.109322,4,-0.00431408,10,-5.0524e-06,-3.96129,0.375003,0.157332,-0.675278,0.0462159,
2,0,0,1,0,6805.38,0.045045,0.0447239,-0.109065,4,-0.00450183,10,-4.87783e-06,-3.96231,0.377863,0.156141,-0.665155,0.0447239,
2,0,0,1,0,6806.87,0.0435468,0.0432192,-0.107851,4,-0.00468798,10,-4.66125e-06,-3.96717,0.765065,0.0771176,-0.325464,0.0432192,
2,0,0,1,0,6808.37,0.0420486,0.0417399,-0.108055,4,-0.00487344,10,-4.51023e-06,-3.96635,0.836526,0.0705298,-0.295494,0.0417399,
2,0,0,1,0,6809.87,0.0405504,0.0402309,-0.107506,4,-0.00505855,10,-4.32505e-06,-3.96857,0.584425,0.100954,-0.418946,0.0402309,
2,0,0,1,0,6811.37,0.0390522,0.0386817,-0.106786,4,-0.0052424,10,-4.13065e-06,-3.97149,0.359886,0.163941,-0.679434,0.0386817,
2,0,0,1,0,6812.87,0.037554,0.0372045,-0.105172,4,-0.00542497,10,-3.91286e-06,-3.9781,1.15091,0.0512638,-0.211108,0.0372045,
2,0,0,1,0,6814.37,0.0360558,0.0357496,-0.104672,4,-0.00560655,10,-3.74197e-06,-3.98017,0.464493,0.12702,-0.518776,0.0357496,
2,0,0,1,0,6815.86,0.0345576,0.0342768,-0.103996,4,-0.00578751,10,-3.56465e-06,-3.98298,1.02084,0.0577955,-0.235721,0.0342768,
2,0,0,1,0,6817.36,0.0330594,0.0327678,-0.103807,4,-0.00596754,10,-3.40154e-06,-3.98377,0.562181,0.104948,-0.426563,0.0327678,
2,0,0,1,0,6818.86,0.0315613,0.03126,-0.103649,4,-0.00614704,10,-3.24007e-06,-3.98443,0.95971,0.0614769,-0.24919,0.03126,
2,0,0,1,0,6820.36,0.0300631,0.0297341,-0.103138,4,-0.00632545,10,-3.0667e-06,-3.98658,0.934598,0.0631287,-0.25427,0.0297341,
2,0,0,1,0,6821.86,0.0285649,0.0282579,-0.102753,4,-0.00650354,10,-2.90358e-06,-3.98821,1.56259,0.0377577,-0.150928,0.0282579,
2,0,0,1,0,6823.35,0.0270667,0.0267426,-0.102478,4,-0.00668134,10,-2.74052e-06,-3.98937,0.924653,0.0638077,-0.254111,0.0267426,
2,0,0,1,0,6824.85,0.0255685,0.0252665,-0.10208,4,-0.00685836,10,-2.57921e-06,-3.99106,0.742868,0.0794219,-0.316568,0.0252665,
2,0,0,1,0,6826.35,0.0240703,0.0237416,-0.101667,4,-0.00703433,10,-2.41374e-06,-3.99282,2.75359,0.0214266,-0.0853973,0.0237416,
2,0,0,1,0,6827.85,0.0225722,0.0222879,-0.101215,4,-0.00721035,10,-2.25587e-06,-3.99476,-3.1081,-0.0189827,0.0751591,0.0222879,
2,0,0,1,0,6829.35,0.021074,0.0207896,-0.101208,4,-0.00738599,10,-2.10407e-06,-3.99479,0.905303,0.0651716,-0.256952,0.0207896,
2,0,0,1,0,6830.85,0.0195758,0.0192414,-0.101198,4,-0.00756133,10,-1.9472e-06,-3.99483,2.8758,0.020516,-0.0807943,0.0192414,
2,0,0,1,0,6832.34,0.0180776,0.0177579,-0.100341,4,-0.0077359,10,-1.78184e-06,-3.99852,-1.4001,-0.0421397,0.165933,0.0177579,
2,0,0,1,0,6833.84,0.0165794,0.0162287,-0.100816,4,-0.00791078,10,-1.63611e-06,-3.99647,-2.2904,-0.0257597,0.10157,0.0162287,
2,0,0,1,0,6835.34,0.0150812,0.0148025,-0.101478,4,-0.00808613,10,-1.50213e-06,-3.99363,-3.34702,-0.0176276,0.0695367,0.0148025,
2,0,0,1,0,6836.84,0.013583,0.0132649,-0.100984,4,-0.0082616,10,-1.33955e-06,-3.99575,2.38478,0.0247402,-0.0979232,0.0132649,
2,0,0,1,0,6838.34,0.0120848,0.0117665,-0.100794,4,-0.00843683,10,-1.18599e-06,-3.99657,-2.06739,-0.0285384,0.113289,0.0117665,
2,0,0,1,0,6839.83,0.0105866,0.0102576,-0.101787,4,-0.00861215,10,-1.04409e-06,-3.99231,-1.13359,-0.0520468,0.206828,0.0102576,
2,0,0,1,0,6841.33,0.00908843,0.00880581,-0.101678,4,-0.00878845,10,-8.95354e-07,-3.99277,-0.981348,-0.0601214,0.240132,0.00880581,
2,0,0,1,0,6842.83,0.00759024,0.00726506,-0.102834,4,-0.00896545,10,-7.47098e-07,-3.98786,-1.55935,-0.0378362,0.151286,0.00726506,
2,0,0,1,0,6844.33,0.00609203,0.00575395,-0.103281,4,-0.00914308,10,-5.94271e-07,-3.98598,-0.88107,-0.066964,0.269428,0.00575395,
2,0,0,1,0,6845.83,0.00459384,0.00430964,-0.10418,4,-0.00932128,10,-4.4898e-07,-3.98221,-0.626329,-0.0941997,0.38115,0.004309637,
2,0,0,1,0,6847.33,0.00309563,0.00277741,-0.105135,4,-0.00950062,10,-2.92001e-07,-3.97825,-0.473706,-0.12455,0.50937,0.002777406,
2,0,0,1,0,6848.82,0.00159744,0.00122063,-0.105418,4,-0.00968377,10,-1.28677e-07,-3.97709, , , ,0.00122063,
2,0,0,1,0,6850.22,0.000199235,-0.000157358,-0.106105,4,-0.00985372,10,1.66966e-08,-3.97426, , , ,-0.000157358,