File: Figure_codes/Fig_3-5/rawdata_trumpetplot_data/after 10th/20221101_1-115_003_TrumpetPlot_ParaChange_from10_every3_14_CV_C01_24.csv
mode,ox/red,error,control changes,counter inc.,time/s,control/V,Ewe/V,<I>/mA,cycle number,(Q-Qo)/C,I Range,P/W,log(|I|),Tafel slope mV/dec,alpha_eff,dI/d(E-IR),E-IR/V,
2,1,0,1,0,48482.2,2.44065e-05,-0.000306236,32.1233,25,0.0000000E+000,10,-9.8373e-06,-1.49318, , , ,-0.000306236,
2,1,0,1,0,48482.2,0.00332042,0.00293012,33.4003,25,0.000102138,10,9.78669e-05,-1.47625, , , ,0.00293012,
2,1,0,1,0,48482.2,0.0073156,0.00692998,34.4404,25,0.000237972,10,0.000238671,-1.46293, , , ,0.00692998,
2,1,0,1,0,48482.2,0.0113108,0.0109426,35.3701,25,0.000377712,10,0.000387039,-1.45136,0.360381,0.163716,224.691,0.0109426,
2,1,0,1,0,48482.3,0.0153059,0.0149583,36.2077,25,0.000520956,10,0.000541606,-1.4412,0.398968,0.147881,208.267,0.0149583,
2,1,0,1,0,48482.3,0.0193011,0.0189264,36.9945,25,0.000667461,10,0.000700171,-1.43186,0.435649,0.13543,195.091,0.0189264,
2,1,0,1,0,48482.3,0.0233462,0.0229835,37.7838,25,0.000817159,10,0.000868403,-1.42269,0.468644,0.125895,185.082,0.0229835,
2,1,0,1,0,48482.3,0.0273414,0.0269674,38.4964,25,0.000969804,10,0.00103815,-1.41458,0.502294,0.117461,175.967,0.0269674,
2,1,0,1,0,48482.3,0.0313366,0.0309662,39.1705,25,0.00112522,10,0.00121296,-1.40704,0.543414,0.108573,165.642,0.0309662,
2,1,0,1,0,48482.3,0.0353317,0.0349396,39.8123,25,0.00128327,10,0.00139102,-1.39998,0.575768,0.102472,158.981,0.0349396,
2,1,0,1,0,48482.3,0.0393269,0.0389564,40.4296,25,0.00144382,10,0.00157499,-1.3933,0.606545,0.0972722,153.306,0.0389564,
2,1,0,1,0,48482.3,0.0433221,0.0429541,41.038,25,0.00160684,10,0.00176275,-1.38681,0.641088,0.0920311,147.185,0.0429541,
2,1,0,1,0,48482.3,0.0473173,0.0469561,41.6218,25,0.00177223,10,0.0019544,-1.38068,0.665985,0.0885906,143.715,0.0469561,
2,1,0,1,0,48482.3,0.0513124,0.0509517,42.169,25,0.00193989,10,0.00214858,-1.37501,0.700713,0.0842,138.457,0.0509517,
2,1,0,1,0,48482.3,0.0553076,0.0549356,42.7261,25,0.00210974,10,0.00234718,-1.36931,0.718051,0.0821669,136.96,0.0549356,
2,1,0,1,0,48482.3,0.0593028,0.0589334,43.2504,25,0.00228174,10,0.00254889,-1.36401,0.738925,0.0798457,134.745,0.0589334,
2,1,0,1,0,48482.3,0.0633479,0.0629905,43.8179,25,0.0024559,10,0.00276011,-1.35835,0.773506,0.0762761,130.277,0.0629905,
2,1,0,1,0,48482.3,0.0673431,0.0669978,44.3311,25,0.00263224,10,0.00297009,-1.35329,0.797674,0.0739651,127.782,0.0669978,
2,1,0,1,0,48482.3,0.0713383,0.0709966,44.8184,25,0.00281057,10,0.00318196,-1.34854,0.836858,0.0705018,123.248,0.07099656,
2,1,0,1,0,48482.3,0.0753334,0.0749678,45.2994,25,0.00299087,10,0.00339599,-1.34391,0.862383,0.068415,120.925,0.0749678,
2,1,0,1,0,48482.3,0.0793286,0.0789432,45.784,25,0.00317308,10,0.00361434,-1.33929,0.862783,0.0683834,122.187,0.0789432,
2,1,0,1,0,48482.3,0.0833238,0.0829643,46.2619,25,0.00335722,10,0.00383809,-1.33478,0.873417,0.0675508,121.966,0.0829643,
2,1,0,1,0,48482.3,0.0873189,0.0869069,46.7625,25,0.00354331,10,0.00406398,-1.3301,0.884265,0.0667221,121.734,0.0869069,
2,1,0,1,0,48482.3,0.0913141,0.0909025,47.2429,25,0.00373135,10,0.00429449,-1.32566,0.883734,0.0667622,123.079,0.0909025,
2,1,0,1,0,48482.3,0.0953093,0.0949183,47.7288,25,0.00392135,10,0.00453033,-1.32122,0.890542,0.0662518,123.449,0.0949183,
2,1,0,1,0,48482.3,0.0993045,0.098933,48.2273,25,0.00411332,10,0.00477127,-1.31671,0.877848,0.0672098,126.557,0.098933,
2,1,0,1,0,48482.3,0.103319,0.102934,48.741,25,0.00430728,10,0.0050171,-1.31211,0.887618,0.0664701,126.423,0.102934,
2,1,0,1,0,48482.3,0.107345,0.106918,49.2697,25,0.00450339,10,0.00526781,-1.30742,0.911342,0.0647397,124.344,0.106918,
2,1,0,1,0,48482.3,0.11134,0.11094,49.7543,25,0.00470148,10,0.00551974,-1.30317,0.917478,0.0643067,124.806,0.11094,
2,1,0,1,0,48482.4,0.115335,0.114916,50.2148,25,0.00490148,10,0.0057705,-1.29917,0.916908,0.0643467,126.245,0.114916,
2,1,0,1,0,48482.4,0.11933,0.118883,50.7316,25,0.00510336,10,0.00603115,-1.29472,0.890119,0.0662833,131.403,0.118883,
2,1,0,1,0,48482.4,0.123325,0.1229,51.2874,25,0.00530747,10,0.00630324,-1.28999,0.863728,0.0683086,136.768,0.1229,
2,1,0,1,0,48482.4,0.127321,0.12692,51.8541,25,0.00551382,10,0.00658134,-1.28522,0.865204,0.068192,137.94,0.12692,
2,1,0,1,0,48482.4,0.131316,0.130952,52.4079,25,0.00572239,10,0.00686292,-1.2806,0.874219,0.0674888,137.976,0.130952,
2,1,0,1,0,48482.4,0.135311,0.134944,52.947,25,0.00593316,10,0.00714491,-1.27616,0.876466,0.0673158,139.132,0.134944,
2,1,0,1,0,48482.4,0.139306,0.138927,53.4988,25,0.0061461,10,0.00743244,-1.27166,0.854271,0.0690648,144.354,0.138927,
2,1,0,1,0,48482.4,0.143301,0.142927,54.0812,25,0.00636132,10,0.00772967,-1.26695,0.838085,0.0703986,148.713,0.142927,
2,1,0,1,0,48482.4,0.147346,0.146974,54.7207,25,0.00657903,10,0.0080425,-1.26185,0.8288,0.0711872,151.985,0.146974,
2,1,0,1,0,48482.4,0.151342,0.150944,55.3264,25,0.00679918,10,0.00835117,-1.25707,0.822578,0.0717257,154.835,0.150944,
2,1,0,1,0,48482.4,0.155337,0.154933,55.9314,25,0.00702175,10,0.00866562,-1.25234,0.8268,0.0713595,155.827,0.154933,
2,1,0,1,0,48482.4,0.159332,0.158966,56.5645,25,0.00724682,10,0.00899182,-1.24746,0.82453,0.0715559,158.009,0.158966,
2,1,0,1,0,48482.4,0.163327,0.162915,57.2047,25,0.00747441,10,0.00931949,-1.24257,0.819392,0.0720046,160.76,0.162915,
2,1,0,1,0,48482.4,0.167322,0.166949,57.8553,25,0.00770461,10,0.00965885,-1.23766,0.829801,0.0711014,160.488,0.166949,
2,1,0,1,0,48482.4,0.171317,0.170929,58.503,25,0.0079374,10,0.00999986,-1.23282,0.85208,0.0692423,157.977,0.170929,
2,1,0,1,0,48482.4,0.175313,0.174934,59.1273,25,0.00817272,10,0.0103434,-1.22821,0.875103,0.0674206,155.48,0.174934,
2,1,0,1,0,48482.4,0.179308,0.178919,59.7331,25,0.0084105,10,0.0106874,-1.22378,0.893933,0.0660005,153.848,0.1789194,
2,1,0,1,0,48482.4,0.183303,0.182951,60.3433,25,0.00865072,10,0.0110399,-1.21937,0.935818,0.0630464,148.384,0.182951,
2,1,0,1,0,48482.4,0.187348,0.18697,60.9708,25,0.00889335,10,0.0113997,-1.21488,0.989819,0.0596068,141.577,0.18697,
2,1,0,1,0,48482.4,0.191343,0.190932,61.5011,25,0.00913836,10,0.0117425,-1.21112,1.06873,0.0552058,132.278,0.190932,
2,1,0,1,0,48482.4,0.195338,0.194941,62.0014,25,0.00938543,10,0.0120866,-1.2076,1.19323,0.0494454,119.493,0.1949411,
2,1,0,1,0,48482.4,0.199334,0.198955,62.4603,25,0.00963442,10,0.0124268,-1.2044,1.30347,0.0452639,110.192,0.198955,
2,1,0,1,0,48482.4,0.203329,0.202991,62.8851,25,0.00988517,10,0.0127651,-1.20145,1.49034,0.0395883,96.9887,0.202991,
2,1,0,1,0,48482.4,0.207324,0.206934,63.2644,25,0.0101375,10,0.0130916,-1.19884,1.76248,0.0334756,82.4593,0.206934,
2,1,0,1,0,48482.4,0.211319,0.210972,63.5563,25,0.0103912,10,0.0134086,-1.19684,2.2481,0.0262444,64.9389,0.210972,
2,1,0,1,0,48482.5,0.215314,0.214944,63.7787,25,0.0106459,10,0.0137088,-1.19532,3.15638,0.0186923,46.4218,0.214944,
2,1,0,1,0,48482.5,0.219309,0.218962,63.9223,25,0.0109013,10,0.0139966,-1.19435,4.85,0.0121649,30.2888,0.218962,
2,1,0,1,0,48482.5,0.223305,0.222933,64.0071,25,0.0111572,10,0.0142693,-1.19377,11.0577,0.00533565,13.3031,0.222933,
2,1,0,1,0,48482.5,0.227314,0.226966,64.0407,25,0.0114133,10,0.0145351,-1.19354,-25.7631,-0.0022901,-5.709,0.226966,
2,1,0,1,0,48482.5,0.231345,0.231002,63.9923,25,0.0116695,10,0.0147824,-1.19387,-5.85041,-0.0100848,-25.1123,0.231002,
2,1,0,1,0,48482.5,0.23534,0.234967,63.831,25,0.0119251,10,0.0149982,-1.19497,-3.1547,-0.0187022,-46.471,0.234967,
2,1,0,1,0,48482.5,0.239335,0.238996,63.6037,25,0.01218,10,0.015201,-1.19652,-2.23531,-0.0263945,-65.3794,0.2389957,
2,1,0,1,0,48482.5,0.24333,0.24295,63.2979,25,0.0124338,10,0.0153782,-1.19861,-1.74844,-0.0337443,-83.1804,0.24295,
2,1,0,1,0,48482.5,0.247326,0.246957,62.9492,25,0.0126863,10,0.0155458,-1.20101,-1.41867,-0.0415881,-101.903,0.246957,
2,1,0,1,0,48482.5,0.251321,0.250994,62.4978,25,0.0129371,10,0.0156866,-1.20414,-1.20226,-0.0490741,-119.385,0.250994,
2,1,0,1,0,48482.5,0.255316,0.255004,61.9725,25,0.0131861,10,0.0158032,-1.2078,-1.02056,-0.0578114,-139.495,0.255004,
2,1,0,1,0,48482.5,0.259311,0.258998,61.382,25,0.0134327,10,0.0158978,-1.21196,-0.90963,-0.0648616,-155.046,0.258998,
2,1,0,1,0,48482.5,0.263306,0.262945,60.719,25,0.0136769,10,0.0159658,-1.21668,-0.834571,-0.070695,-167.252,0.262945,
2,1,0,1,0,48482.5,0.267302,0.266977,60.0198,25,0.0139183,10,0.0160239,-1.22171,-0.751811,-0.0784772,-183.453,0.266977,
2,1,0,1,0,48482.5,0.271347,0.271055,59.2879,25,0.0141569,10,0.0160703,-1.22703,-0.693191,-0.0851137,-196.405,0.271055,
2,1,0,1,0,48482.5,0.275342,0.275038,58.4395,25,0.0143923,10,0.0160731,-1.23329,-0.640783,-0.0920749,-209.579,0.275038,
2,1,0,1,0,48482.5,0.279337,0.279008,57.5641,25,0.0146242,10,0.0160609,-1.23985,-0.596017,-0.0989904,-222.127,0.279008,
2,1,0,1,0,48482.5,0.283332,0.283012,56.6591,25,0.0148526,10,0.0160352,-1.24673,-0.571901,-0.103165,-227.883,0.283012,
2,1,0,1,0,48482.5,0.287327,0.287016,55.7424,25,0.0150773,10,0.015999,-1.25381,-0.546886,-0.107884,-234.4,0.287016,
2,1,0,1,0,48482.5,0.291322,0.291011,54.7996,25,0.0152983,10,0.0159473,-1.26122,-0.529877,-0.111347,-238.012,0.291011,
2,1,0,1,0,48482.5,0.295318,0.294972,53.8221,25,0.0155154,10,0.015876,-1.26904,-0.512618,-0.115095,-243.433,0.294972,
2,1,0,1,0,48482.5,0.299013,0.298692,52.9272,25,0.0157129,10,0.0158089,-1.27632,-0.190649,-0.309469,-632.623,0.298692,
2,1,0,0,0,48482.5,0.300012,0.299613,52.676,25,0.0157657,10,0.0157824,-1.27839,0.00531936,11.0916,21030.5,0.299613,
2,1,0,1,0,48482.5,0.298714,0.298546,50.0326,25,0.0158314,10,0.014937,-1.30075,0.0601778,0.980429,1737.91,0.298546,
2,1,0,1,0,48482.5,0.294718,0.294491,43.6974,25,0.0160177,10,0.0128685,-1.35954,0.0699369,0.843617,1409.13,0.294491,
2,1,0,1,0,48482.5,0.290723,0.290482,38.6585,25,0.0161817,10,0.0112296,-1.41275,0.0736699,0.800869,1229.17,0.2904816,
2,1,0,1,0,48482.5,0.286728,0.286532,34.2428,25,0.0163269,10,0.00981164,-1.46543,0.0744774,0.792187,1066,0.2865316,
2,1,0,1,0,48482.6,0.282733,0.282467,30.2689,25,0.0164554,10,0.00854996,-1.519,0.0730981,0.807135,956.469,0.282467,
2,1,0,1,0,48482.6,0.278738,0.278509,26.6601,25,0.0165688,10,0.00742506,-1.57414,0.0706537,0.835059,869.053,0.2785086,
2,1,0,1,0,48482.6,0.274742,0.274477,23.3506,25,0.0166684,10,0.00640919,-1.6317,0.0668483,0.882595,801.476,0.274477,
2,1,0,1,0,48482.6,0.270747,0.270488,20.2997,25,0.0167554,10,0.00549083,-1.69251,0.0630571,0.93566,736.194,0.270488,
2,1,0,1,0,48482.6,0.266702,0.266461,17.4406,25,0.0168305,10,0.00464725,-1.75844,0.0579481,1.01815,686.706,0.266461,
2,1,0,1,0,48482.6,0.262707,0.262419,14.815,25,0.0168947,10,0.00388774,-1.8293,0.0529094,1.11511,635.832,0.262419,
2,1,0,1,0,48482.6,0.258712,0.258485,12.3688,25,0.0169488,10,0.00319714,-1.90767,0.0470348,1.25439,591.935,0.258485,
2,1,0,1,0,48482.6,0.254717,0.254444,10.0985,25,0.0169934,10,0.0025695,-1.99574,0.0404443,1.4588,554.257,0.254444,
2,1,0,1,0,48482.6,0.250722,0.250457,7.96687,25,0.0170293,10,0.00199535,-2.09871,0.0333776,1.76765,516.144,0.250457,
2,1,0,1,0,48482.6,0.246726,0.24647,5.97542,25,0.017057,10,0.00147276,-2.22363,0.0251624,2.34477,485.32,0.24647,
2,1,0,1,0,48482.6,0.242731,0.242447,4.09107,25,0.0170769,10,0.000991868,-2.38816,0.0150509,3.92002,455.133,0.242447,
2,1,0,1,0,48482.6,0.238736,0.238452,2.33724,25,0.0170895,10,0.00055732,-2.6313,0.0191792,3.07625,427.058,0.238452,
2,1,0,1,0,48482.6,0.234741,0.234469,0.69031,25,0.0170954,10,0.000161856,-3.16096,0.0682102,0.864973,404.021,0.234469,
2,0,0,1,0,48482.6,0.230746,0.230437,-0.871749,25,0.0170948,10,-0.000200883,-3.05961,-0.0776618,-0.759704,380.41,0.230437,
2,0,0,1,0,48482.6,0.226701,0.226426,-2.38204,25,0.0170882,10,-0.000539355,-2.62305,-0.0185444,-3.18155,358.845,0.226426,
2,0,0,1,0,48482.6,0.222705,0.222427,-3.75877,25,0.0170758,10,-0.000836051,-2.42495,-0.0186064,-3.17095,340.013,0.222427,
2,0,0,1,0,48482.6,0.21871,0.218402,-5.07535,25,0.017058,10,-0.00110847,-2.29453,-0.0321277,-1.83642,319.54,0.218402,
2,0,0,1,0,48482.6,0.214715,0.214442,-6.31032,25,0.017035,10,-0.0013532,-2.19995,-0.0442863,-1.33224,304.434,0.214442,
2,0,0,1,0,48482.6,0.21072,0.210442,-7.48941,25,0.0170073,10,-0.00157609,-2.12555,-0.0568726,-1.03741,288.914,0.210442,
2,0,0,1,0,48482.6,0.206725,0.206473,-8.61565,25,0.016975,10,-0.0017789,-2.06471,-0.0696772,-0.846762,274.863,0.206473,
2,0,0,1,0,48482.6,0.20273,0.202427,-9.69075,25,0.0169383,10,-0.00196167,-2.01364,-0.0830501,-0.710415,261.519,0.202427,
2,0,0,1,0,48482.6,0.198734,0.198432,-10.7109,25,0.0168973,10,-0.00212538,-1.97017,-0.0968428,-0.609235,249.42,0.198432,
2,0,0,1,0,48482.6,0.194739,0.194396,-11.6858,25,0.0168524,10,-0.00227167,-1.93234,-0.11013,-0.535733,240.606,0.194396,
2,0,0,1,0,48482.6,0.190744,0.190424,-12.6187,25,0.0168037,10,-0.00240289,-1.89899,-0.123956,-0.475975,231.798,0.190424,
2,0,0,1,0,48482.6,0.186735,0.186432,-13.539,25,0.0167513,10,-0.00252411,-1.86841,-0.137408,-0.429377,224.582,0.186432,
2,0,0,1,0,48482.7,0.182704,0.182385,-14.4306,25,0.0166952,10,-0.00263192,-1.84072,-0.151997,-0.388166,216.393,0.182385,
2,0,0,1,0,48482.7,0.178709,0.178398,-15.2787,25,0.0166357,10,-0.00272569,-1.81591,-0.167015,-0.353262,208.818,0.178398,
2,0,0,1,0,48482.7,0.174713,0.174379,-16.0907,25,0.0165729,10,-0.00280587,-1.79343,-0.181661,-0.32478,202.766,0.174379,
2,0,0,1,0,48482.7,0.170718,0.170452,-16.876,25,0.0165068,10,-0.00287655,-1.77273,-0.194443,-0.30343,199.115,0.170452,
2,0,0,1,0,48482.7,0.166723,0.166393,-17.6732,25,0.0164377,10,-0.00294069,-1.75268,-0.206141,-0.286212,196.712,0.166393,
2,0,0,1,0,48482.7,0.162728,0.162473,-18.4497,25,0.0163653,10,-0.00299756,-1.73401,-0.216902,-0.272013,195.288,0.162473,
2,0,0,1,0,48482.7,0.158733,0.158451,-19.2238,25,0.0162899,10,-0.00304604,-1.71616,-0.226645,-0.260319,194.922,0.158451,
2,0,0,1,0,48482.7,0.154737,0.154431,-20.0046,25,0.0162114,10,-0.00308935,-1.69887,-0.234252,-0.251866,196.414,0.154431,
2,0,0,1,0,48482.7,0.150742,0.150437,-20.7834,25,0.0161297,10,-0.00312658,-1.68228,-0.236448,-0.249526,202.662,0.150437,
2,0,0,1,0,48482.7,0.146747,0.146449,-21.597,25,0.0160449,10,-0.00316285,-1.66561,-0.239053,-0.246808,208.344,0.146449,
2,0,0,1,0,48482.7,0.142702,0.142368,-22.4832,25,0.0159566,10,-0.0032009,-1.64814,-0.239175,-0.246682,216.351,0.142368,
2,0,0,1,0,48482.7,0.138707,0.138416,-23.3413,25,0.0158649,10,-0.00323082,-1.63187,-0.238591,-0.247286,225.427,0.138416,
2,0,0,1,0,48482.7,0.134712,0.134407,-24.2515,25,0.0157697,10,-0.00325957,-1.61526,-0.237932,-0.24797,235.292,0.134407,
2,0,0,1,0,48482.7,0.130717,0.130407,-25.2132,25,0.0156707,10,-0.00328798,-1.59837,-0.232853,-0.253379,250.072,0.130407,
2,0,0,1,0,48482.7,0.126721,0.126402,-26.24,25,0.0155677,10,-0.00331678,-1.58104,-0.228131,-0.258623,265.611,0.126402,
2,0,0,1,0,48482.7,0.122726,0.122418,-27.3421,25,0.0154604,10,-0.00334716,-1.56317,-0.223672,-0.263779,282.103,0.122418,
2,0,0,1,0,48482.7,0.118731,0.118435,-28.4938,25,0.0153486,10,-0.00337466,-1.54525,-0.2212,-0.266727,297.15,0.118435,
2,0,0,1,0,48482.7,0.114736,0.114442,-29.7168,25,0.0152321,10,-0.00340087,-1.527,-0.220403,-0.267692,310.782,0.114442,
2,0,0,1,0,48482.7,0.110741,0.110439,-30.9832,25,0.0151106,10,-0.00342177,-1.50887,-0.220765,-0.267252,323.496,0.110439,
2,0,0,1,0,48482.7,0.106745,0.106494,-32.291,25,0.0149839,10,-0.00343879,-1.49092,-0.224983,-0.262241,330.499,0.106494,
2,0,0,1,0,48482.7,0.102703,0.102395,-33.6826,25,0.0148519,10,-0.00344894,-1.47259,-0.231692,-0.254648,333.813,0.1023952,
2,0,0,1,0,48482.7,0.0987052,0.0984165,-35.0134,25,0.0147144,10,-0.0034459,-1.45577,-0.240403,-0.245421,334.327,0.0984165,
2,0,0,1,0,48482.7,0.09471,0.0944008,-36.3371,25,0.0145716,10,-0.00343025,-1.43965,-0.251516,-0.234578,331.985,0.0944008,
2,0,0,1,0,48482.7,0.0907148,0.0904412,-37.6578,25,0.0144234,10,-0.00340582,-1.42415,-0.262897,-0.224423,329.147,0.0904412,
2,0,0,1,0,48482.7,0.0867197,0.0864605,-38.9727,25,0.01427,10,-0.0033696,-1.40924,-0.27568,-0.214016,324.668,0.0864605,
2,0,0,1,0,48482.8,0.0827245,0.0824479,-40.2694,25,0.0141114,10,-0.00332013,-1.39502,-0.291561,-0.202359,316.995,0.0824479,
2,0,0,1,0,48482.8,0.0787293,0.0784353,-41.5206,25,0.0139477,10,-0.00325668,-1.38174,-0.310111,-0.190255,307.27,0.0784353,
2,0,0,1,0,48482.8,0.0747342,0.0744503,-42.7268,25,0.0137791,10,-0.00318102,-1.3693,-0.330716,-0.178401,296.557,0.0744503,
2,0,0,1,0,48482.8,0.070739,0.0704558,-43.8904,25,0.0136057,10,-0.00309233,-1.35763,-0.353616,-0.166848,284.907,0.0704558,
2,0,0,1,0,48482.8,0.0667438,0.066475,-45.0063,25,0.0134278,10,-0.00299179,-1.34673,-0.380641,-0.155002,271.324,0.066475,
2,0,0,1,0,48482.8,0.0627403,0.0624804,-46.0663,25,0.0132455,10,-0.00287824,-1.33662,-0.407809,-0.144676,259.29,0.0624804,
2,0,0,1,0,48482.8,0.0587035,0.0585251,-47.0477,25,0.0130591,10,-0.00275347,-1.32746,-0.441437,-0.133655,244.831,0.0585251,
2,0,0,1,0,48482.8,0.0547083,0.0545422,-48.0167,25,0.0128689,10,-0.00261894,-1.31861,-0.477525,-0.123554,230.913,0.0545422,
2,0,0,1,0,48482.8,0.0507132,0.0504766,-48.9232,25,0.0126749,10,-0.00246948,-1.31049,-0.515421,-0.11447,217.905,0.0504766,
2,0,0,1,0,48482.8,0.046718,0.0464948,-49.7576,25,0.0124774,10,-0.00231347,-1.30314,-0.562418,-0.104904,203.194,0.0464948,
2,0,0,1,0,48482.8,0.0427228,0.0424621,-50.5479,25,0.0122767,10,-0.00214637,-1.2963,-0.614905,-0.0959498,188.787,0.0424621,
2,0,0,1,0,48482.8,0.0387276,0.0384739,-51.2817,25,0.012073,10,-0.001973,-1.29004,-0.668683,-0.0882331,176.131,0.0384739,
2,0,0,1,0,48482.8,0.0347325,0.034509,-51.9377,25,0.0118665,10,-0.00179232,-1.28452,-0.727096,-0.0811448,164.186,0.034509,
2,0,0,1,0,48482.8,0.0307373,0.0305452,-52.5668,25,0.0116574,10,-0.00160566,-1.27929,-0.787754,-0.0748965,153.439,0.0305452,
2,0,0,1,0,48482.8,0.0267421,0.0265189,-53.1656,25,0.0114459,10,-0.00140989,-1.27437,-0.830172,-0.0710696,147.306,0.0265189,
2,0,0,1,0,48482.8,0.022747,0.0225476,-53.7254,25,0.011232,10,-0.00121138,-1.26982,-0.902111,-0.0654021,136.975,0.0225476,
2,0,0,1,0,48482.8,0.0187018,0.0184767,-54.2993,25,0.0110159,10,-0.00100327,-1.26521,-0.986774,-0.0597908,126.42,0.0184767,
2,0,0,1,0,48482.8,0.0147067,0.0144058,-54.7775,25,0.0107977,10,-0.000789116,-1.2614,-1.08768,-0.0542437,115.699,0.0144058,
2,0,0,1,0,48482.8,0.0107115,0.0104134,-55.2016,25,0.0105776,10,-0.000574837,-1.25805,-1.2368,-0.0477036,102.616,0.0104134,
2,0,0,1,0,48482.8,0.00671632,0.00641038,-55.5924,25,0.010356,10,-0.000356369,-1.25498,-1.37687,-0.0428509,92.8476,0.006410378,
2,0,0,1,0,48482.8,0.00272115,0.00242007,-55.947,25,0.0101329,10,-0.000135396,-1.25222,-1.55322,-0.0379855,82.8157,0.00242007,
2,0,0,1,0,48482.8,-0.00127403,-0.00165507,-56.2687,25,0.00990836,10,9.31288e-05,-1.24973,-1.79816,-0.0328113,71.9239,-0.001655074,
2,0,0,1,0,48482.8,-0.0052692,-0.00564432,-56.5315,25,0.00968272,10,0.000319082,-1.24771,-2.10949,-0.0279689,61.6056,-0.00564432,
2,0,0,1,0,48482.8,-0.00926438,-0.00963888,-56.7468,25,0.00945613,10,0.000546975,-1.24606,-2.56356,-0.0230148,50.9055,-0.00963888,
2,0,0,1,0,48482.8,-0.0132596,-0.0136112,-56.9346,25,0.00922873,10,0.000774946,-1.24462,-2.99004,-0.0197322,43.8034,-0.0136112,
2,0,0,1,0,48482.9,-0.0172547,-0.0176651,-57.0837,25,0.00900067,10,0.00100839,-1.24349,-3.7862,-0.0155829,34.6792,-0.0176651,
2,0,0,1,0,48482.9,-0.0212915,-0.021648,-57.2325,25,0.00877207,10,0.00123897,-1.24236,-5.44249,-0.0108406,24.1696,-0.021648,
2,0,0,1,0,48482.9,-0.025295,-0.0256521,-57.3021,25,0.00854298,10,0.00146992,-1.24183,-8.62356,-0.00684172,15.2746,-0.0256521,
2,0,0,1,0,48482.9,-0.0292902,-0.0296636,-57.3226,25,0.00831374,10,0.00170039,-1.24167,-33.0682,-0.00178419,3.98739,-0.0296636,
2,0,0,1,0,48482.9,-0.0332854,-0.033655,-57.3279,25,0.00808443,10,0.00192937,-1.24163,25.6553,0.00229972,-5.13922,-0.033655,
2,0,0,1,0,48482.9,-0.0372805,-0.0375986,-57.2961,25,0.00785519,10,0.00215425,-1.24188,10.8794,0.00542312,-12.1117,-0.0375986,
2,0,0,1,0,48482.9,-0.0412757,-0.0417066,-57.2196,25,0.00762616,10,0.00238644,-1.24246,6.8645,0.00859494,-19.1783,-0.0417066,
2,0,0,1,0,48482.9,-0.0452709,-0.0456482,-57.129,25,0.00739746,10,0.00260783,-1.24314,5.14843,0.0114598,-25.5337,-0.0456482,
2,0,0,1,0,48482.9,-0.0492661,-0.0496343,-57.0215,25,0.00716918,10,0.00283022,-1.24396,4.50054,0.0131095,-29.1558,-0.0496343,
2,0,0,1,0,48482.9,-0.0532612,-0.0535917,-56.8877,25,0.00694136,10,0.00304871,-1.24498,3.85246,0.0153149,-33.9829,-0.0535917,
2,0,0,1,0,48482.9,-0.0572564,-0.057653,-56.7546,25,0.00671409,10,0.00327208,-1.246,3.70047,0.0159439,-35.3049,-0.057653,
2,0,0,1,0,48482.9,-0.0612544,-0.0616359,-56.5857,25,0.00648743,10,0.00348771,-1.24729,3.4219,0.0172419,-38.0735,-0.0616359,
2,0,0,1,0,48482.9,-0.0652967,-0.0656559,-56.4558,25,0.00626128,10,0.00370666,-1.24829,3.15478,0.0187018,-41.1825,-0.0656559,
2,0,0,1,0,48482.9,-0.0692919,-0.0696558,-56.2761,25,0.00603585,10,0.00391996,-1.24968,3.17967,0.0185554,-40.7406,-0.0696558,
2,0,0,1,0,48482.9,-0.0732871,-0.0736705,-56.095,25,0.00581112,10,0.00413255,-1.25108,2.88012,0.0204853,-44.8484,-0.0736705,
2,0,0,1,0,48482.9,-0.0772822,-0.0776311,-55.934,25,0.00558708,10,0.00434222,-1.25232,2.89013,0.0204143,-44.5516,-0.0776311,
2,0,0,1,0,48482.9,-0.0812774,-0.0816098,-55.7403,25,0.00536376,10,0.00454895,-1.25383,2.97782,0.0198132,-43.1095,-0.0816098,
2,0,0,1,0,48482.9,-0.0852726,-0.0856192,-55.5649,25,0.00514116,10,0.00475742,-1.2552,3.02167,0.0195256,-42.3642,-0.0856192,
2,0,0,1,0,48482.9,-0.0892678,-0.0895777,-55.4093,25,0.00491923,10,0.00496343,-1.25642,3.27669,0.018006,-38.9498,-0.08957766,
2,0,0,1,0,48482.9,-0.0932629,-0.093638,-55.2559,25,0.00469792,10,0.00517405,-1.25762,3.51935,0.0167644,-36.1646,-0.093638,
2,0,0,1,0,48482.9,-0.0972581,-0.0976463,-55.1157,25,0.00447718,10,0.00538184,-1.25872,4.03752,0.0146129,-31.4551,-0.0976463,
2,0,0,1,0,48482.9,-0.101253,-0.101606,-54.9868,25,0.004257,10,0.00558698,-1.25974,4.24829,0.0138879,-29.8195,-0.101606,
2,0,0,1,0,48482.9,-0.105298,-0.105682,-54.9027,25,0.00403724,10,0.00580223,-1.26041,4.74852,0.0124249,-26.6224,-0.105682,
2,0,0,1,0,48482.9,-0.109294,-0.109617,-54.7794,25,0.0038179,10,0.00600477,-1.26138,5.37525,0.0109762,-23.4738,-0.109617,
2,0,0,1,0,48482.9,-0.113289,-0.113658,-54.6894,25,0.00359898,10,0.00621591,-1.2621,5.59742,0.0105406,-22.511,-0.113658,
2,0,0,1,0,48483,-0.117284,-0.117651,-54.6101,25,0.00338039,10,0.00642493,-1.26273,6.79263,0.00868589,-18.519,-0.117651,
2,0,0,1,0,48483,-0.121279,-0.121671,-54.5428,25,0.00316208,10,0.00663627,-1.26326,8.13024,0.00725686,-15.4537,-0.121671,
2,0,0,1,0,48483,-0.125274,-0.125622,-54.483,25,0.00294405,10,0.00684426,-1.26374,11.5932,0.00508921,-10.8292,-0.125622,
2,0,0,1,0,48483,-0.129269,-0.129653,-54.4422,25,0.00272621,10,0.00705858,-1.26406,18.2936,0.00322517,-6.85829,-0.129653,
2,0,0,1,0,48483,-0.133265,-0.133662,-54.4367,25,0.00250847,10,0.00727612,-1.26411,43.04,0.00137082,-2.91352,-0.133662,
2,0,0,1,0,48483,-0.13726,-0.137658,-54.4331,25,0.00229073,10,0.00749313,-1.26414,-40.3355,-0.00146273,3.1093,-0.137658,
2,0,0,1,0,48483,-0.141255,-0.141631,-54.4364,25,0.00207299,10,0.00770987,-1.26411,-23.4472,-0.00251629,5.35004,-0.141631,
2,0,0,1,0,48483,-0.145286,-0.14563,-54.4919,25,0.00185516,10,0.00793564,-1.26367,-13.885,-0.0042492,9.03879,-0.1456297,
2,0,0,1,0,48483,-0.149295,-0.149645,-54.5222,25,0.00163711,10,0.00815901,-1.26343,-10.1375,-0.00581996,12.387,-0.149645,
2,0,0,1,0,48483,-0.15329,-0.153654,-54.5777,25,0.00141891,10,0.00838607,-1.26298,-10.2644,-0.00574802,12.2461,-0.1536538,
2,0,0,1,0,48483,-0.157286,-0.157669,-54.635,25,0.00120049,10,0.00861422,-1.26253,-8.44639,-0.00698523,14.8958,-0.157669,
2,0,0,1,0,48483,-0.161281,-0.161684,-54.6885,25,0.000981834,10,0.00884227,-1.2621,-7.79717,-0.00756685,16.1554,-0.161684,
2,0,0,1,0,48483,-0.165276,-0.165598,-54.7599,25,0.000762929,10,0.00906814,-1.26154,-6.96361,-0.00847262,18.1133,-0.165598,
2,0,0,1,0,48483,-0.169271,-0.169622,-54.8357,25,0.00054374,10,0.00930137,-1.26094,-5.93033,-0.00994885,21.2999,-0.169622,
2,0,0,1,0,48483,-0.173266,-0.173606,-54.9237,25,0.000324199,10,0.00953511,-1.26024,-5.81257,-0.0101504,21.7612,-0.173606,
2,0,0,1,0,48483,-0.177261,-0.177635,-55.0283,25,0.000104276,10,0.00977494,-1.25941,-5.50031,-0.0107267,23.0326,-0.177635,
2,0,0,1,0,48483,-0.181257,-0.18155,-55.107,25,-0.000116014,10,0.0100047,-1.25879,-4.92838,-0.0119715,25.7572,-0.18155,
2,0,0,1,0,48483,-0.185252,-0.185581,-55.2032,25,-0.000336657,10,0.0102446,-1.25804,-5.02685,-0.011737,25.2987,-0.185581,
2,0,0,1,0,48483,-0.189297,-0.189642,-55.3367,25,-0.000557791,10,0.0104942,-1.25699,-4.85546,-0.0121513,26.2331,-0.189642,
2,0,0,1,0,48483,-0.193292,-0.193626,-55.4328,25,-0.00077934,10,0.0107332,-1.25623,-4.93213,-0.0119624,25.8604,-0.193626,
2,0,0,1,0,48483,-0.197287,-0.197639,-55.5291,25,-0.00100128,10,0.0109747,-1.25548,18.3789,0.00321021,-6.92809,-0.1976395,
2,0,0,0,0,48483,-0.199984,-0.200265,-55.583,25,-0.00115128,10,0.0111313,-1.25506,0.068123,0.86608,-1765.54,-0.200265,
2,0,0,0,1,48483,-0.199984,-0.200551,-55.2612,25,-0.00118448,10,0.0110827,-1.25758,-0.0440045,-1.34077,2586.36,-0.200551,
2,0,0,1,1,48483,-0.196688,-0.197178,-49.161,25,-0.00134381,10,0.00969348,-1.30838,-0.0742872,-0.794215,1457.24,-0.197178,
2,0,0,1,1,48483,-0.192693,-0.193101,-43.7908,25,-0.00152884,10,0.00845604,-1.35862,-0.0806267,-0.731768,1275.32,-0.193101,
2,0,0,1,1,48483,-0.188698,-0.189142,-39.3748,25,-0.00169454,10,0.00744744,-1.40478,-0.0868115,-0.679634,1061.24,-0.189142,
2,0,0,1,1,48483.1,-0.184653,-0.185059,-35.5033,25,-0.00184379,10,0.00657021,-1.44973,-0.0889307,-0.663438,928.274,-0.185059,
2,0,0,1,1,48483.1,-0.180657,-0.181076,-32.0726,25,-0.00197851,10,0.00580758,-1.49387,-0.0896224,-0.658318,828.605,-0.181076,
2,0,0,1,1,48483.1,-0.176662,-0.177098,-28.936,25,-0.00210015,10,0.00512451,-1.53856,-0.0877558,-0.672321,760.944,-0.177098,
2,0,0,1,1,48483.1,-0.172667,-0.173054,-26.0438,25,-0.00220974,10,0.00450698,-1.5843,-0.0852041,-0.692455,703.901,-0.173054,
2,0,0,1,1,48483.1,-0.168672,-0.169082,-23.3456,25,-0.0023082,10,0.00394732,-1.63179,-0.0815405,-0.723567,657.802,-0.169082,
2,0,0,1,1,48483.1,-0.164677,-0.165101,-20.8278,25,-0.00239626,10,0.00343869,-1.68136,-0.0767144,-0.769087,621.796,-0.1651009,
2,0,0,1,1,48483.1,-0.160682,-0.16114,-18.4387,25,-0.0024745,10,0.00297122,-1.73427,-0.071971,-0.819775,584.642,-0.16114,
2,0,0,1,1,48483.1,-0.156686,-0.157174,-16.1699,25,-0.00254345,10,0.00254149,-1.79129,-0.0660569,-0.893169,556.51,-0.157174,
2,0,0,1,1,48483.1,-0.152691,-0.15309,-13.996,25,-0.00260353,10,0.00214265,-1.854,-0.0595975,-0.989974,531.009,-0.15309,
2,0,0,1,1,48483.1,-0.148696,-0.149105,-11.9257,25,-0.00265514,10,0.00177818,-1.92351,-0.0526751,-1.12007,507.834,-0.149105,
2,0,0,1,1,48483.1,-0.14467,-0.145104,-9.92315,25,-0.00269865,10,0.00143989,-2.00335,-0.0449669,-1.31208,489.277,-0.145104,
2,0,0,1,1,48483.1,-0.140656,-0.14111,-8.01202,25,-0.00273428,10,0.00113058,-2.09626,-0.0369935,-1.59487,469.67,-0.14111,
2,0,0,1,1,48483.1,-0.136661,-0.137096,-6.17046,25,-0.00276245,10,0.000845943,-2.20968,-0.0281767,-2.09393,452.308,-0.137096,
2,0,0,1,1,48483.1,-0.132665,-0.133076,-4.39734,25,-0.00278338,10,0.000585179,-2.35681,-0.0178557,-3.30426,437.981,-0.133076,
2,0,0,1,1,48483.1,-0.12867,-0.129095,-2.68218,25,-0.00279735,10,0.000346255,-2.57151,-0.0156317,-3.77437,422.775,-0.129095,
2,0,0,1,1,48483.1,-0.124675,-0.125154,-1.02362,25,-0.00280458,10,0.00012811,-2.98986,-0.0514776,-1.14613,412.547,-0.1251543,
2,1,0,1,1,48483.1,-0.12068,-0.121114,0.586072,25,-0.00280527,10,-7.09816e-05,-3.23205,0.114563,0.514999,399.387,-0.121114,
2,1,0,1,1,48483.1,-0.116685,-0.117181,2.15986,25,-0.00279961,10,-0.000253095,-2.66557,0.0227176,2.5971,387.783,-0.117181,
2,1,0,1,1,48483.1,-0.112689,-0.113121,3.69761,25,-0.00278775,10,-0.000418277,-2.43208,0.0151489,3.89467,378.636,-0.113121,
2,1,0,1,1,48483.1,-0.108694,-0.109157,5.17985,25,-0.00276984,10,-0.000565417,-2.28568,0.0280102,2.10638,369.003,-0.109157,
2,1,0,1,1,48483.1,-0.104699,-0.105155,6.62876,25,-0.00274606,10,-0.000697048,-2.17857,0.0391641,1.50648,360.915,-0.105155,
2,1,0,1,1,48483.1,-0.100654,-0.101124,8.08482,25,-0.00271644,10,-0.000817572,-2.09233,0.0499365,1.1815,353.384,-0.101124,
2,1,0,1,1,48483.1,-0.0966588,-0.0971214,9.47204,25,-0.00268118,10,-0.000919938,-2.02356,0.0606684,0.9725,346.128,-0.0971214,
2,1,0,1,1,48483.1,-0.0926637,-0.0931459,10.8379,25,-0.00264042,10,-0.00100951,-1.96505,0.072053,0.818842,337.086,-0.0931459,
2,1,0,1,1,48483.1,-0.0886685,-0.0891514,12.1681,25,-0.00259427,10,-0.0010848,-1.91478,0.0831531,0.709535,329.868,-0.0891514,
2,1,0,1,1,48483.2,-0.0846733,-0.0851568,13.4673,25,-0.00254286,10,-0.00114683,-1.87072,0.0949113,0.621633,321.283,-0.0851568,
2,1,0,1,1,48483.2,-0.0806781,-0.0811517,14.7399,25,-0.00248632,10,-0.00119617,-1.8315,0.106415,0.554431,314.721,-0.0811517,
2,1,0,1,1,48483.2,-0.076683,-0.0771402,15.9803,25,-0.00242474,10,-0.00123272,-1.79641,0.118431,0.498182,307.304,-0.0771402,
2,1,0,1,1,48483.2,-0.0726878,-0.0731212,17.2131,25,-0.00235822,10,-0.00125864,-1.76414,0.130736,0.451291,300.034,-0.0731212,
2,1,0,1,1,48483.2,-0.0686926,-0.0691033,18.4006,25,-0.00228687,10,-0.00127154,-1.73517,0.142136,0.415095,295.8,-0.0691033,
2,1,0,1,1,48483.2,-0.0646974,-0.065095,19.5575,25,-0.00221082,10,-0.00127309,-1.70869,0.155299,0.379912,288.092,-0.065095,
2,1,0,1,1,48483.2,-0.0606523,-0.0610304,20.7456,25,-0.00213013,10,-0.00126611,-1.68307,0.167964,0.351265,282.119,-0.06103044,
2,1,0,1,1,48483.2,-0.0566571,-0.0570931,21.8307,25,-0.00204487,10,-0.00124638,-1.66093,0.180503,0.326864,276.714,-0.0570931,
2,1,0,1,1,48483.2,-0.052662,-0.05307,22.9239,25,-0.00195525,10,-0.00121657,-1.63971,0.196711,0.299932,266.966,-0.05307,
2,1,0,1,1,48483.2,-0.0486668,-0.0491253,23.9765,25,-0.00186135,10,-0.00117785,-1.62021,0.2099,0.281087,261.767,-0.04912525,
2,1,0,1,1,48483.2,-0.0446716,-0.0450915,25.0007,25,-0.00176327,10,-0.00112732,-1.60205,0.224769,0.262492,255.129,-0.0450915,
2,1,0,1,1,48483.2,-0.0406764,-0.0411043,26.016,25,-0.00166112,10,-0.00106937,-1.58476,0.240479,0.245343,248.163,-0.0411043,
2,1,0,1,1,48483.2,-0.0366813,-0.0371077,26.9963,25,-0.00155501,10,-0.00100177,-1.5687,0.254599,0.231737,243.298,-0.0371077,
2,1,0,1,1,48483.2,-0.0326861,-0.0330686,27.9612,25,-0.00144498,10,-0.000924637,-1.55344,0.271748,0.217113,236.112,-0.0330686,
2,1,0,1,1,48483.2,-0.0286909,-0.0290783,28.8967,25,-0.00133116,10,-0.000840266,-1.53915,0.285221,0.206857,232.632,-0.02907826,
2,1,0,1,1,48483.2,-0.0246957,-0.0250742,29.8009,25,-0.00121366,10,-0.000747233,-1.52577,0.302213,0.195227,226.569,-0.0250742,
2,1,0,1,1,48483.2,-0.0206756,-0.0211188,30.7159,25,-0.00109255,10,-0.000648683,-1.51264,0.321125,0.183729,219.58,-0.0211188,
2,1,0,1,1,48483.2,-0.0166554,-0.0170681,31.5864,25,-0.000967838,10,-0.00053912,-1.5005,0.337966,0.174574,214.529,-0.01706809,
2,1,0,1,1,48483.2,-0.0126603,-0.013046,32.4171,25,-0.000839731,10,-0.000422912,-1.48923,0.361568,0.163178,205.942,-0.013046,
2,1,0,1,1,48483.2,-0.0086651,-0.00905565,33.2374,25,-0.000708328,10,-0.000300986,-1.47837,0.381405,0.154691,200.03,-0.00905565,
2,1,0,1,1,48483.2,-0.00466992,-0.00508867,34.0171,25,-0.00057374,10,-0.000173102,-1.4683, , , ,-0.00508867,
2,1,0,1,1,48483.2,-0.000974387,-0.00135286,34.7299,25,-0.000446532,10,-4.69846e-05,-1.4593, , , ,-0.00135286,
2,1,0,0,1,48483.2,-0.000175352,-0.000573459,34.869,25,-0.000418709,10,-1.99959e-05,-1.45756, , , ,-0.000573459,