File: Figure_codes/Fig_3-5/rawdata_trumpetplot_data/after 10th/20221101_1-115_003_TrumpetPlot_ParaChange_from10_every3_13_CV_C01_2.csv
mode,ox/red,error,control changes,counter inc.,time/s,control/V,Ewe/V,<I>/mA,cycle number,(Q-Qo)/C,I Range,P/W,log(|I|),Tafel slope mV/dec,alpha_eff,dI/d(E-IR),E-IR/V,
2,1,0,1,0,5138.12,2.44065e-05,-0.000248974,26.1255,3,0.0000000E+000,10,-6.50457e-06,-1.58294, , , ,-0.000248974,
2,1,0,1,0,5138.12,0.00266289,0.00230979,27.4477,3,8.35126e-05,10,6.33984e-05,-1.56149, , , ,0.00230979,
2,1,0,1,0,5138.12,0.00586735,0.00553342,28.6097,3,0.000195821,10,0.00015831,-1.54349, , , ,0.00553342,
2,1,0,1,0,5138.13,0.00906349,0.0087051,29.5642,3,0.000312289,10,0.000257359,-1.52923,0.231651,0.254693,290.998,0.0087051,
2,1,0,1,0,5138.13,0.0122624,0.0119022,30.4113,3,0.000432354,10,0.000361962,-1.51697,0.27388,0.215423,253.941,0.0119022,
2,1,0,1,0,5138.14,0.0154641,0.0151471,31.1834,3,0.000555642,10,0.000472337,-1.50608,0.312339,0.188897,228.561,0.0151471,
2,1,0,1,0,5138.14,0.0186602,0.0183262,31.8583,3,0.000681836,10,0.000583841,-1.49678,0.354508,0.166428,206.003,0.0183262,
2,1,0,1,0,5138.14,0.0218675,0.0215021,32.4891,3,0.000810627,10,0.000698584,-1.48826,0.395425,0.149207,188.508,0.0215021,
2,1,0,1,0,5138.15,0.0250636,0.0247512,33.0582,3,0.000941813,10,0.000818229,-1.48072,0.430842,0.136941,176.208,0.0247512,
2,1,0,1,0,5138.15,0.0282597,0.0279228,33.5917,3,0.00107518,10,0.000937976,-1.47377,0.47223,0.124939,163.485,0.0279228,
2,1,0,1,0,5138.16,0.031467,0.0310977,34.1088,3,0.00121068,10,0.0010607,-1.46713,0.500376,0.117911,156.685,0.0310977,
2,1,0,1,0,5138.16,0.0346631,0.0343542,34.5902,3,0.00134814,10,0.00118832,-1.46105,0.529983,0.111324,150.072,0.0343542,
2,1,0,1,0,5138.16,0.0378704,0.037527,35.06,3,0.00148747,10,0.00131569,-1.45519,0.560264,0.105308,143.946,0.03752695,
2,1,0,1,0,5138.17,0.0410665,0.0407029,35.5096,3,0.00162864,10,0.00144534,-1.44965,0.573015,0.102964,142.63,0.0407029,
2,1,0,1,0,5138.17,0.0442626,0.0439392,35.9573,3,0.0017716,10,0.00157993,-1.44421,0.587094,0.100495,141.017,0.0439392,
2,1,0,1,0,5138.18,0.0474671,0.0471438,36.4144,3,0.0019164,10,0.00171671,-1.43873,0.588757,0.100211,142.413,0.0471438,
2,1,0,1,0,5138.18,0.0506632,0.0503335,36.8659,3,0.00206302,10,0.00185559,-1.43338,0.584933,0.100866,145.166,0.0503335,
2,1,0,1,0,5138.18,0.0538621,0.0535136,37.334,3,0.00221146,10,0.00199788,-1.42789,0.579264,0.101853,148.485,0.0535136,
2,1,0,1,0,5138.19,0.0570638,0.0567171,37.8122,3,0.00236183,10,0.0021446,-1.42237,0.567152,0.104028,153.612,0.05671712,
2,1,0,1,0,5138.19,0.06026,0.0599143,38.3106,3,0.00251411,10,0.00229535,-1.41668,0.555194,0.106269,159.012,0.05991425,
2,1,0,1,0,5138.2,0.0634672,0.0630796,38.8238,3,0.00266845,10,0.00244899,-1.4109,0.550512,0.107173,162.47,0.0630796,
2,1,0,1,0,5138.2,0.0666633,0.0662873,39.3652,3,0.00282487,10,0.00260941,-1.40489,0.536499,0.109972,169.026,0.0662873,
2,1,0,1,0,5138.2,0.0698595,0.0695332,39.8944,3,0.00298345,10,0.00277398,-1.39909,0.527616,0.111824,174.26,0.0695332,
2,1,0,1,0,5138.21,0.0730667,0.0727176,40.4747,3,0.00314425,10,0.00294323,-1.39282,0.517301,0.114053,180.313,0.0727176,
2,1,0,1,0,5138.21,0.0762629,0.0758946,41.057,3,0.00330737,10,0.003116,-1.38661,0.505701,0.11667,187.033,0.0758946,
2,1,0,1,0,5138.22,0.0794701,0.0790991,41.6754,3,0.00347286,10,0.00329648,-1.38012,0.503967,0.117071,190.429,0.0790991,
2,1,0,1,0,5138.22,0.0826662,0.0822994,42.2821,3,0.00364084,10,0.00347979,-1.37384,0.492334,0.119837,197.858,0.0822994,
2,1,0,1,0,5138.22,0.0858624,0.0854923,42.9074,3,0.00381126,10,0.00366825,-1.36747,0.487765,0.12096,202.805,0.0854923,
2,1,0,1,0,5138.23,0.0890668,0.0886417,43.5791,3,0.00398432,10,0.00386293,-1.36072,0.479012,0.12317,209.652,0.0886417,
2,1,0,1,0,5138.23,0.092263,0.0919067,44.2728,3,0.00416007,10,0.00406897,-1.35386,0.472556,0.124853,215.734,0.0919067,
2,1,0,1,0,5138.24,0.0954674,0.0951409,44.9743,3,0.00433862,10,0.0042789,-1.34704,0.4804,0.122814,215.448,0.0951409,
2,1,0,1,0,5138.24,0.0986636,0.098302,45.6709,3,0.00451998,10,0.00448954,-1.34036,0.48106,0.122646,218.519,0.098302,
2,1,0,1,0,5138.24,0.10186,0.1015,46.3494,3,0.00470409,10,0.00470448,-1.33396,0.490861,0.120197,217.394,0.1015,
2,1,0,1,0,5138.25,0.105067,0.104673,47.0625,3,0.00489098,10,0.00492617,-1.32733,0.484129,0.121868,223.931,0.104673,
2,1,0,1,0,5138.25,0.108263,0.107866,47.7407,3,0.00508066,10,0.00514959,-1.32111,0.475801,0.124002,231.369,0.107866,
2,1,0,1,0,5138.26,0.111465,0.111039,48.523,3,0.00527323,10,0.00538793,-1.31405,0.475521,0.124074,235.126,0.111039,
2,1,0,1,0,5138.26,0.114666,0.114253,49.3,3,0.00546897,10,0.00563265,-1.30715,0.46678,0.126398,243.114,0.114253,
2,1,0,1,0,5138.26,0.117863,0.117522,50.0836,3,0.00566781,10,0.00588592,-1.3003,0.478384,0.123332,240.972,0.117522,
2,1,0,1,0,5138.27,0.12107,0.120698,50.8603,3,0.00586976,10,0.00613873,-1.29362,0.480631,0.122755,243.607,0.1206978,
2,1,0,1,0,5138.27,0.124266,0.123965,51.6379,3,0.00607481,10,0.00640129,-1.28703,0.478998,0.123174,248.318,0.123965,
2,1,0,1,0,5138.28,0.127462,0.127105,52.4308,3,0.00628302,10,0.00666421,-1.28041,0.478812,0.123222,252.269,0.127105,
2,1,0,1,0,5138.28,0.130667,0.130323,53.2624,3,0.00649447,10,0.00694132,-1.27358,0.470718,0.12534,260.655,0.130323,
2,1,0,1,0,5138.28,0.133863,0.133497,54.0891,3,0.00670924,10,0.00722073,-1.26689,0.464453,0.127031,268.337,0.133497,
2,1,0,1,0,5138.29,0.137067,0.136742,54.9682,3,0.00692741,10,0.00751645,-1.25989,0.45902,0.128535,275.936,0.136742,
2,1,0,1,0,5138.29,0.140263,0.139875,55.8576,3,0.00714915,10,0.0078131,-1.25292,0.450499,0.130966,285.729,0.139875,
2,1,0,1,0,5138.3,0.143459,0.143112,56.7912,3,0.00737453,10,0.00812748,-1.24572,0.444875,0.132622,294.122,0.143112,
2,1,0,1,0,5138.3,0.146667,0.146331,57.7562,3,0.00760374,10,0.00845152,-1.2384,0.442404,0.133362,300.662,0.146331,
2,1,0,1,0,5138.3,0.149863,0.149518,58.7259,3,0.0078368,10,0.00878055,-1.23117,0.439833,0.134142,307.516,0.149518,
2,1,0,1,0,5138.31,0.153064,0.152722,59.7202,3,0.00807381,10,0.00912059,-1.22388,0.441281,0.133702,311.641,0.152722,
2,1,0,1,0,5138.31,0.156266,0.155935,60.7346,3,0.00831482,10,0.00947066,-1.21656,0.445486,0.13244,313.84,0.155935,
2,1,0,1,0,5138.32,0.159462,0.159107,61.7376,3,0.00855987,10,0.00982288,-1.20945,0.454488,0.129816,312.611,0.159107,
2,1,0,1,0,5138.32,0.16267,0.162363,62.7574,3,0.00880895,10,0.0101895,-1.20234,0.46372,0.127232,311.333,0.162363,
2,1,0,1,0,5138.32,0.165866,0.165551,63.7306,3,0.00906204,10,0.0105507,-1.19565,0.480871,0.122694,304.909,0.165551,
2,1,0,1,0,5138.33,0.169062,0.168693,64.7065,3,0.00931901,10,0.0109155,-1.18905,0.497373,0.118623,299.267,0.168693,
2,1,0,1,0,5138.33,0.172266,0.17196,65.6567,3,0.00957985,10,0.0112903,-1.18272,0.520395,0.113375,290.099,0.17196,
2,1,0,1,0,5138.34,0.175462,0.175093,66.5671,3,0.00984439,10,0.0116555,-1.17674,0.551052,0.107068,277.728,0.175093,
2,1,0,1,0,5138.34,0.178667,0.17831,67.4319,3,0.0101125,10,0.0120238,-1.17113,0.591201,0.0997968,262.169,0.17831,
2,1,0,1,0,5138.34,0.181863,0.181474,68.2562,3,0.010384,10,0.0123867,-1.16586,0.644289,0.0915738,243.437,0.181474,
2,1,0,1,0,5138.35,0.185059,0.184703,68.9975,3,0.0106586,10,0.012744,-1.16117,0.718312,0.082137,220.649,0.184703,
2,1,0,1,0,5138.35,0.188266,0.18792,69.6896,3,0.010936,10,0.0130961,-1.15683,0.839637,0.0702685,190.525,0.18792,
2,1,0,1,0,5138.36,0.191463,0.191099,70.2539,3,0.011216,10,0.0134255,-1.15333,1.03169,0.057188,156.214,0.191099,
2,1,0,1,0,5138.36,0.194664,0.194341,70.7077,3,0.0114981,10,0.0137414,-1.15053,1.47707,0.039944,109.733,0.194341,
2,1,0,1,0,5138.36,0.197866,0.197501,70.9967,3,0.0117815,10,0.0140219,-1.14876,2.81868,0.0209318,57.6919,0.197501,
2,1,0,1,0,5138.37,0.201062,0.200767,71.0993,3,0.0120658,10,0.0142744,-1.14813,-31.8486,-0.00185251,-5.10964,0.200767,
2,1,0,1,0,5138.37,0.204269,0.203907,70.9928,3,0.01235,10,0.0144759,-1.14879,-2.09978,-0.0280981,-77.3091,0.203907,
2,1,0,1,0,5138.38,0.207465,0.207168,70.6421,3,0.0126333,10,0.0146348,-1.15094,-1.03062,-0.0572472,-156.608,0.207168,
2,1,0,1,0,5138.38,0.210662,0.21032,70.0057,3,0.0129146,10,0.0147236,-1.15487,-0.668052,-0.0883164,-239.352,0.21032,
2,1,0,1,0,5138.38,0.213866,0.213515,69.1029,3,0.0131928,10,0.0147545,-1.1605,-0.486557,-0.12126,-324.373,0.213515,
2,1,0,1,0,5138.39,0.217062,0.216758,67.9169,3,0.0134668,10,0.0147215,-1.16802,-0.381142,-0.154798,-406.942,0.216758,
2,1,0,1,0,5138.39,0.220267,0.219982,66.4856,3,0.0137355,10,0.0146256,-1.17727,-0.315002,-0.1873,-482.037,0.219982,
2,1,0,1,0,5138.4,0.223463,0.223155,64.7825,3,0.013998,10,0.0144566,-1.18854,-0.267657,-0.220431,-553.242,0.223155,
2,1,0,1,0,5138.4,0.226659,0.226417,62.8837,3,0.0142532,10,0.0142379,-1.20146,-0.23611,-0.249883,-609.497,0.226417,
2,1,0,1,0,5138.4,0.229866,0.229562,60.8329,3,0.0145004,10,0.013965,-1.21586,-0.215026,-0.274386,-648.195,0.229562,
2,1,0,1,0,5138.41,0.233062,0.232798,58.6743,3,0.0147393,10,0.0136592,-1.23155,-0.200162,-0.294762,-672.608,0.232798,
2,1,0,1,0,5138.41,0.236264,0.235979,56.4704,3,0.0149693,10,0.0133258,-1.24818,-0.190074,-0.310406,-682.556,0.235979,
2,1,0,1,0,5138.42,0.239466,0.239229,54.2663,3,0.0151906,10,0.0129821,-1.26547,-0.184274,-0.320175,-677.494,0.239229,
2,1,0,1,0,5138.42,0.242662,0.242385,52.0809,3,0.0154031,10,0.0126236,-1.28332,-0.182113,-0.323975,-658.977,0.242385,
2,1,0,1,0,5138.42,0.245869,0.245607,49.9958,3,0.015607,10,0.0122793,-1.30107,-0.181042,-0.325892,-637.127,0.245607,
2,1,0,1,0,5138.43,0.249065,0.248837,47.9969,3,0.0158027,10,0.0119434,-1.31879,-0.185304,-0.318396,-598.314,0.248837,
2,1,0,1,0,5138.43,0.252261,0.25198,46.1421,3,0.0159908,10,0.0116269,-1.3359,-0.189988,-0.310545,-561.398,0.25198,
2,1,0,1,0,5138.44,0.255466,0.255185,44.4224,3,0.0161717,10,0.0113359,-1.3524,-0.197299,-0.299039,-520.511,0.255185,
2,1,0,1,0,5138.44,0.258662,0.258368,42.8318,3,0.016346,10,0.0110664,-1.36823,-0.208236,-0.283332,-475.694,0.258368,
2,1,0,1,0,5138.44,0.261866,0.261573,41.368,3,0.0165143,10,0.0108207,-1.38334,-0.218875,-0.26956,-437.291,0.261573,
2,1,0,1,0,5138.45,0.265063,0.264805,40.0415,3,0.0166769,10,0.0106032,-1.39749,-0.234122,-0.252006,-395.812,0.264805,
2,1,0,1,0,5138.45,0.268259,0.267958,38.8371,3,0.0168345,10,0.0104067,-1.41075,-0.24992,-0.236075,-359.562,0.267958,
2,1,0,1,0,5138.46,0.271466,0.271169,37.7649,3,0.0169876,10,0.0102407,-1.42291,-0.269218,-0.219153,-324.389,0.271169,
2,1,0,1,0,5138.46,0.274662,0.274346,36.775,3,0.0171366,10,0.0100891,-1.43445,-0.289192,-0.204017,-293.982,0.274346,
2,1,0,1,0,5138.46,0.277869,0.277605,35.8893,3,0.0172818,10,0.00996304,-1.44504,-0.311016,-0.189701,-266.763,0.277605,
2,1,0,1,0,5138.47,0.281065,0.280765,35.0719,3,0.0174236,10,0.00984695,-1.45504,-0.338356,-0.174373,-239.649,0.280765,
2,1,0,1,0,5138.47,0.284262,0.283958,34.3534,3,0.0175624,10,0.00975493,-1.46403,-0.363505,-0.162308,-218.383,0.283958,
2,1,0,1,0,5138.48,0.287469,0.287175,33.7006,3,0.0176984,10,0.00967799,-1.47236,-0.391378,-0.15075,-198.765,0.287175,
2,1,0,1,0,5138.48,0.290665,0.290378,33.0999,3,0.0178319,10,0.00961149,-1.48017,-0.42407,-0.139128,-180.185,0.290378,
2,1,0,1,0,5138.48,0.293861,0.293556,32.5295,3,0.0179631,10,0.00954923,-1.48772,-0.452021,-0.130525,-166.453,0.293556,
2,1,0,1,0,5138.49,0.297066,0.296778,32.0434,3,0.0180922,10,0.00950978,-1.49426,-0.465935,-0.126627,-159.824,0.296778,
2,1,0,1,0,5138.49,0.299637,0.299355,31.6733,3,0.0181941,10,0.00948155,-1.49931,-0.0994918,-0.593014,-708.276,0.299355,
2,1,0,1,0,5138.49,0.300012,0.299804,31.5934,3,0.01821,10,0.00947183,-1.5004,0.00641412,9.19846,9420.15,0.299804,
2,1,0,1,0,5138.49,0.298983,0.298884,28.7555,3,0.0182481,10,0.00859455,-1.54128,0.0221988,2.6578,2338.97,0.298884,
2,1,0,1,0,5138.5,0.295787,0.295626,21.1852,3,0.0183465,10,0.00626288,-1.67397,0.0225887,2.61192,1964.94,0.295626,
2,1,0,1,0,5138.5,0.292579,0.292386,15.3728,3,0.0184187,10,0.0044948,-1.81325,0.0206387,2.8587,1697.48,0.292386,
2,1,0,1,0,5138.51,0.289383,0.289156,10.6716,3,0.0184701,10,0.00308575,-1.97177,0.016594,3.55551,1367.65,0.289156,
2,1,0,1,0,5138.51,0.286187,0.285942,6.78636,3,0.0185044,10,0.0019405,-2.16836,0.0100508,5.87018,1132.39,0.285942,
2,1,0,1,0,5138.51,0.282983,0.282719,3.53401,3,0.0185246,10,0.000999133,-2.45173,0.0152351,3.87265,952.196,0.282719,
2,1,0,1,0,5138.52,0.279786,0.279523,0.807199,3,0.0185329,10,0.000225631,-3.09302,0.0450807,1.30877,806.148,0.279523,
2,0,0,1,0,5138.52,0.276582,0.276335,-1.53693,3,0.0185311,10,-0.000424708,-2.81335,-0.0736345,-0.801255,688.513,0.2763347,
2,0,0,1,0,5138.53,0.273386,0.273145,-3.52994,3,0.0185207,10,-0.000964185,-2.45223,-0.013848,-4.26053,591.955,0.273145,
2,0,0,1,0,5138.53,0.27019,0.26993,-5.27178,3,0.0185028,10,-0.00142301,-2.27804,-0.0178436,-3.30652,508.307,0.26993,
2,0,0,1,0,5138.53,0.266982,0.266744,-6.75734,3,0.0184785,10,-0.00180248,-2.17022,-0.0307423,-1.91918,444.013,0.266744,
2,0,0,1,0,5138.54,0.263786,0.263485,-8.06866,3,0.0184487,10,-0.00212597,-2.0932,-0.0442762,-1.33254,389.541,0.263485,
2,0,0,1,0,5138.54,0.260585,0.26032,-9.22419,3,0.018414,10,-0.00240125,-2.03507,-0.0588676,-1.00225,343.462,0.26032,
2,0,0,1,0,5138.55,0.257383,0.257129,-10.2584,3,0.0183749,10,-0.00263772,-1.98892,-0.0742146,-0.794991,307.267,0.257129,
2,0,0,1,0,5138.55,0.254187,0.253888,-11.173,3,0.0183319,10,-0.0028367,-1.95183,-0.0917078,-0.643348,273.256,0.253888,
2,0,0,1,0,5138.55,0.25098,0.250698,-11.9975,3,0.0182855,10,-0.00300775,-1.92091,-0.110248,-0.535159,245.726,0.250698,
2,0,0,1,0,5138.56,0.247783,0.24749,-12.7303,3,0.0182359,10,-0.00315062,-1.89516,-0.129107,-0.456985,223.836,0.24749,
2,0,0,1,0,5138.56,0.244587,0.24429,-13.4131,3,0.0181835,10,-0.00327669,-1.87247,-0.149239,-0.39534,204.631,0.24429,
2,0,0,1,0,5138.57,0.241383,0.241093,-14.037,3,0.0181285,10,-0.00338422,-1.85273,-0.169827,-0.347412,188.493,0.241093,
2,0,0,1,0,5138.57,0.238187,0.237911,-14.6142,3,0.0180712,10,-0.00347688,-1.83522,-0.191367,-0.308308,174.473,0.2379109,
2,0,0,1,0,5138.57,0.234982,0.234684,-15.1441,3,0.0180116,10,-0.00355407,-1.81976,-0.215378,-0.273937,160.824,0.234684,
2,0,0,1,0,5138.58,0.231786,0.231499,-15.6449,3,0.01795,10,-0.00362177,-1.80563,-0.236841,-0.249112,151.309,0.231499,
2,0,0,1,0,5138.58,0.22859,0.22829,-16.0961,3,0.0178864,10,-0.00367457,-1.79328,-0.259141,-0.227675,142.491,0.22829,
2,0,0,1,0,5138.59,0.225383,0.225097,-16.5531,3,0.0178211,10,-0.00372605,-1.78112,-0.280373,-0.210434,135.494,0.225097,
2,0,0,1,0,5138.59,0.222187,0.221917,-16.9633,3,0.017754,10,-0.00376444,-1.77049,-0.300616,-0.196263,129.535,0.221917,
2,0,0,1,0,5138.59,0.218979,0.218676,-17.3823,3,0.0176853,10,-0.00380108,-1.75989,-0.325103,-0.181481,122.733,0.218676,
2,0,0,1,0,5138.6,0.215783,0.21549,-17.7541,3,0.0176149,10,-0.00382583,-1.7507,-0.340619,-0.173214,119.789,0.21549,
2,0,0,1,0,5138.6,0.212587,0.212263,-18.1282,3,0.0175431,10,-0.00384795,-1.74164,-0.356928,-0.165299,116.892,0.212263,
2,0,0,1,0,5138.61,0.20938,0.209094,-18.4993,3,0.0174698,10,-0.00386809,-1.73285,-0.373928,-0.157784,113.755,0.209094,
2,0,0,1,0,5138.61,0.206184,0.205884,-18.8775,3,0.0173951,10,-0.00388658,-1.72406,-0.384106,-0.153603,112.942,0.2058845,
2,0,0,1,0,5138.61,0.202988,0.202677,-19.2117,3,0.0173189,10,-0.00389376,-1.71644,-0.400119,-0.147456,110.472,0.202677,
2,0,0,1,0,5138.62,0.199783,0.199488,-19.5711,3,0.0172412,10,-0.00390419,-1.70839,-0.410642,-0.143677,109.751,0.199488,
2,0,0,1,0,5138.62,0.196587,0.19631,-19.9116,3,0.0171622,10,-0.00390884,-1.70089,-0.413686,-0.14262,110.84,0.19631,
2,0,0,1,0,5138.63,0.193382,0.193057,-20.2854,3,0.0170818,10,-0.00391622,-1.69282,-0.421514,-0.139971,110.735,0.193057,
2,0,0,1,0,5138.63,0.190186,0.189856,-20.6327,3,0.0169999,10,-0.00391724,-1.68544,-0.418675,-0.140921,113.457,0.189856,
2,0,0,1,0,5138.63,0.18699,0.186693,-20.9879,3,0.0169166,10,-0.0039183,-1.67803,-0.420531,-0.140299,115.049,0.186693,
2,0,0,1,0,5138.64,0.183783,0.183501,-21.3648,3,0.0168319,10,-0.00392047,-1.6703,-0.410003,-0.143901,120.141,0.183501,
2,0,0,1,0,5138.64,0.180587,0.180279,-21.7554,3,0.0167456,10,-0.00392204,-1.66243,-0.400702,-0.147242,125.165,0.180279,
2,0,0,1,0,5138.65,0.17738,0.177053,-22.1709,3,0.0166577,10,-0.00392542,-1.65422,-0.394582,-0.149525,129.463,0.177053,
2,0,0,1,0,5138.65,0.174183,0.173853,-22.5951,3,0.0165682,10,-0.00392822,-1.64599,-0.379612,-0.155422,137.234,0.1738528,
2,0,0,1,0,5138.65,0.170987,0.170664,-23.0268,3,0.0164769,10,-0.00392984,-1.63777,-0.364712,-0.161771,145.753,0.170664,
2,0,0,1,0,5138.66,0.16778,0.167443,-23.517,3,0.0163838,10,-0.00393775,-1.62862,-0.348481,-0.169306,155.791,0.167443,
2,0,0,1,0,5138.66,0.164584,0.164322,-24.0265,3,0.0162886,10,-0.00394808,-1.61931,-0.32685,-0.180511,169.738,0.164322,
2,0,0,1,0,5138.67,0.161382,0.161055,-24.5889,3,0.0161914,10,-0.00396016,-1.60926,-0.310596,-0.189957,182.847,0.161055,
2,0,0,1,0,5138.67,0.158183,0.157896,-25.194,3,0.0160918,10,-0.00397803,-1.5987,-0.294207,-0.200539,197.804,0.157896,
2,0,0,1,0,5138.67,0.154987,0.154693,-25.8482,3,0.0159897,10,-0.00399854,-1.58757,-0.276376,-0.213477,216.166,0.154693,
2,0,0,1,0,5138.68,0.151783,0.151495,-26.5637,3,0.0158848,10,-0.00402427,-1.57571,-0.260907,-0.226135,235.407,0.151495,
2,0,0,1,0,5138.68,0.148587,0.14827,-27.3524,3,0.0157769,10,-0.00405555,-1.563,-0.243868,-0.241934,259.422,0.14827,
2,0,0,1,0,5138.69,0.145385,0.145081,-28.2108,3,0.0156657,10,-0.00409284,-1.54959,-0.230568,-0.25589,282.937,0.145081,
2,0,0,1,0,5138.69,0.142183,0.141889,-29.1699,3,0.0155508,10,-0.00413889,-1.53507,-0.21681,-0.272127,311.064,0.141889,
2,0,0,1,0,5138.69,0.138987,0.138726,-30.1766,3,0.0154321,10,-0.00418627,-1.52033,-0.207316,-0.28459,336.673,0.138726,
2,0,0,1,0,5138.7,0.13578,0.135528,-31.3163,3,0.015309,10,-0.00424422,-1.50423,-0.197978,-0.298013,365.653,0.135528,
2,0,0,1,0,5138.7,0.132584,0.132291,-32.5167,3,0.0151812,10,-0.00430167,-1.48789,-0.190357,-0.309944,394.772,0.132291,
2,0,0,1,0,5138.71,0.129388,0.129163,-33.8232,3,0.0150484,10,-0.0043687,-1.47079,-0.185228,-0.318527,421.998,0.129163,
2,0,0,1,0,5138.71,0.12618,0.125935,-35.226,3,0.0149102,10,-0.00443619,-1.45314,-0.180245,-0.327332,451.196,0.125935,
2,0,0,1,0,5138.71,0.122984,0.12272,-36.7211,3,0.0147662,10,-0.00450641,-1.43508,-0.178948,-0.329705,473.293,0.12272,
2,0,0,1,0,5138.72,0.119783,0.119521,-38.2787,3,0.014616,10,-0.00457509,-1.41704,-0.178146,-0.33119,495.074,0.119521,
2,0,0,1,0,5138.72,0.116584,0.116303,-39.9095,3,0.0144595,10,-0.00464162,-1.39892,-0.180423,-0.327009,509.044,0.116303,
2,0,0,1,0,5138.73,0.113387,0.113154,-41.5536,3,0.0142964,10,-0.00470195,-1.38139,-0.185424,-0.318189,515.262,0.113154,
2,0,0,1,0,5138.73,0.110183,0.109934,-43.2299,3,0.0141267,10,-0.00475242,-1.36422,-0.190656,-0.309458,521.185,0.109934,
2,0,0,1,0,5138.73,0.106987,0.106703,-44.8834,3,0.0139503,10,-0.00478917,-1.34791,-0.200812,-0.293808,513.204,0.106703,
2,0,0,1,0,5138.74,0.103785,0.103522,-46.5708,3,0.0137672,10,-0.00482112,-1.33189,-0.20956,-0.281543,509.793,0.1035224,
2,0,0,1,0,5138.74,0.100583,0.100356,-48.1216,3,0.0135776,10,-0.00482929,-1.31766,-0.217543,-0.271211,508.567,0.100356,
2,0,0,1,0,5138.75,0.0973873,0.0972141,-49.7142,3,0.0133818,10,-0.00483292,-1.30352,-0.231178,-0.255215,494.499,0.0972141,
2,0,0,1,0,5138.75,0.0941801,0.0939703,-51.3586,3,0.0131795,10,-0.00482618,-1.28939,-0.242298,-0.243502,486.217,0.0939703,
2,0,0,1,0,5138.75,0.0909839,0.0908113,-52.8564,3,0.0129709,10,-0.00479996,-1.2769,-0.257816,-0.228845,470.446,0.09081132,
2,0,0,1,0,5138.76,0.0877878,0.0875834,-54.3318,3,0.0127563,10,-0.00475857,-1.26495,-0.2789,-0.211545,447.175,0.08758343,
2,0,0,1,0,5138.76,0.0845806,0.0843821,-55.751,3,0.012536,10,-0.00470438,-1.25375,-0.300043,-0.196639,426.266,0.0843821,
2,0,0,1,0,5138.77,0.0813844,0.0811987,-57.0697,3,0.0123102,10,-0.00463399,-1.24359,-0.324281,-0.181941,403.852,0.0811987,
2,0,0,1,0,5138.77,0.0781828,0.0779846,-58.324,3,0.0120793,10,-0.00454838,-1.23415,-0.352945,-0.167165,379.369,0.0779846,
2,0,0,1,0,5138.77,0.0749839,0.0747907,-59.4982,3,0.0118435,10,-0.00444991,-1.2255,-0.382733,-0.154154,356.981,0.0747907,
2,0,0,1,0,5138.78,0.0717877,0.0715533,-60.6178,3,0.0116032,10,-0.0043374,-1.2174,-0.416013,-0.141823,334.565,0.0715533,
2,0,0,1,0,5138.78,0.0685832,0.0683307,-61.6634,3,0.0113585,10,-0.0042135,-1.20997,-0.462045,-0.127693,306.248,0.0683307,
2,0,0,1,0,5138.79,0.0653871,0.0651442,-62.62,3,0.0111098,10,-0.00407933,-1.20329,-0.521701,-0.113092,275.286,0.0651442,
2,0,0,1,0,5138.79,0.0621854,0.0618877,-63.4497,3,0.0108575,10,-0.00392675,-1.19757,-0.603056,-0.097835,241.287,0.0618877,
2,0,0,1,0,5138.79,0.0589837,0.0586863,-64.1599,3,0.0106022,10,-0.00376531,-1.19274,-0.717965,-0.0821767,205.025,0.0586863,
2,0,0,1,0,5138.8,0.0557876,0.0555401,-64.7496,3,0.0103443,10,-0.0035962,-1.18876,-0.877827,-0.0672114,169.261,0.0555401,
2,0,0,1,0,5138.8,0.0525804,0.052291,-65.2552,3,0.0100842,10,-0.00341226,-1.18538,-1.10753,-0.0532718,135.182,0.052291,
2,0,0,1,0,5138.81,0.0493842,0.0490716,-65.619,3,0.00982236,10,-0.00322003,-1.18297,-1.4854,-0.03972,101.379,0.0490716,
2,0,0,1,0,5138.81,0.0461881,0.0458829,-65.8907,3,0.0095593,10,-0.00302326,-1.18118,-2.24469,-0.0262843,67.3804,0.0458829,
2,0,0,1,0,5138.81,0.0429808,0.0426805,-66.0532,3,0.00929535,10,-0.00281919,-1.18011,-4.02878,-0.0146446,37.6409,0.0426805,
2,0,0,1,0,5138.82,0.0397847,0.0394728,-66.1189,3,0.00903098,10,-0.0026099,-1.17967,-14.3669,-0.00410665,10.5711,0.0394728,
2,0,0,1,0,5138.82,0.036583,0.036282,-66.1004,3,0.00876652,10,-0.00239826,-1.1798,10.8226,0.00545158,-14.0342,0.036282,
2,0,0,1,0,5138.83,0.0333841,0.0331178,-66.0256,3,0.00850225,10,-0.00218662,-1.18029,4.50933,0.013084,-33.6524,0.0331178,
2,0,0,1,0,5138.83,0.030188,0.0298422,-65.8731,3,0.00823846,10,-0.0019658,-1.18129,2.96061,0.0199283,-51.1538,0.0298422,
2,0,0,1,0,5138.83,0.0269835,0.0267193,-65.6897,3,0.00797533,10,-0.00175518,-1.1825,2.3237,0.0253905,-65.0118,0.0267193,
2,0,0,1,0,5138.84,0.0237874,0.0234766,-65.4453,3,0.00771306,10,-0.00153643,-1.18412,1.97681,0.029846,-76.1613,0.0234766,
2,0,0,1,0,5138.84,0.0205857,0.0203006,-65.1924,3,0.0074518,10,-0.00132345,-1.1858,1.77469,0.0332453,-84.5225,0.0203006,
2,0,0,1,0,5138.85,0.017384,0.0170812,-64.9012,3,0.0071916,10,-0.00110859,-1.18775,1.63038,0.0361878,-91.5978,0.0170812,
2,0,0,1,0,5138.85,0.0141879,0.0138566,-64.6025,3,0.00693261,10,-0.000895168,-1.18975,1.51386,0.0389731,-98.1953,0.0138566,
2,0,0,1,0,5138.85,0.0109806,0.0106743,-64.2727,3,0.00667487,10,-0.000686064,-1.19197,1.40666,0.0419433,-105.129,0.0106743,
2,0,0,1,0,5138.86,0.00778448,0.00745806,-63.9313,3,0.00641849,10,-0.000476803,-1.19429,1.3872,0.0425318,-106.098,0.00745806,
2,0,0,1,0,5138.86,0.00458834,0.00424079,-63.5513,3,0.00616356,10,-0.000269507,-1.19688,1.27984,0.0460994,-114.31,0.00424079,
2,0,0,1,0,5138.87,0.0013811,0.00101609,-63.2402,3,0.00591005,10,-6.42578e-05,-1.19901,1.18214,0.0499096,-122.978,0.00101609,
2,0,0,1,0,5138.87,-0.00181504,-0.00215665,-62.806,3,0.00565801,10,0.00013545,-1.202,1.07712,0.0547755,-134.016,-0.00215665,
2,0,0,1,0,5138.87,-0.0050195,-0.00541422,-62.3483,3,0.00540777,10,0.000337567,-1.20518,0.953889,0.0618521,-150.319,-0.00541422,
2,0,0,1,0,5138.88,-0.00821564,-0.00853393,-61.8393,3,0.00515943,10,0.000527732,-1.20874,0.884314,0.0667184,-160.831,-0.00853393,
2,0,0,1,0,5138.88,-0.0114118,-0.0117915,-61.315,3,0.00491319,10,0.000722996,-1.21243,0.804815,0.0733087,-175.164,-0.0117915,
2,0,0,1,0,5138.89,-0.0146162,-0.0150003,-60.7403,3,0.00466911,10,0.000911123,-1.21652,0.75019,0.0786468,-186.111,-0.0150003,
2,0,0,1,0,5138.89,-0.0178124,-0.0181677,-60.1143,3,0.00442745,10,0.00109214,-1.22102,0.684046,0.0862515,-202.019,-0.01816773,
2,0,0,1,0,5138.89,-0.0210196,-0.0213829,-59.4479,3,0.0041884,10,0.00127117,-1.22586,0.633388,0.0931498,-215.766,-0.0213829,
2,0,0,1,0,5138.9,-0.0242158,-0.0245662,-58.7342,3,0.0039521,10,0.00144288,-1.23111,0.603684,0.0977333,-223.769,-0.0245662,
2,0,0,1,0,5138.9,-0.0274119,-0.0277687,-57.9854,3,0.00371872,10,0.00161018,-1.23668,0.569662,0.10357,-234.19,-0.0277687,
2,0,0,1,0,5138.91,-0.0306191,-0.0309997,-57.2429,3,0.00348832,10,0.00177451,-1.24228,0.556352,0.106048,-236.753,-0.0309997,
2,0,0,1,0,5138.91,-0.0338153,-0.0341597,-56.4557,3,0.00326099,10,0.00192851,-1.24829,0.54684,0.107893,-237.708,-0.0341597,
2,0,0,1,0,5138.91,-0.037017,-0.0373759,-55.7015,3,0.00303678,10,0.0020819,-1.25413,0.544055,0.108445,-235.833,-0.0373759,
2,0,0,1,0,5138.92,-0.0402187,-0.0405455,-54.9482,3,0.00281555,10,0.0022279,-1.26005,0.560503,0.105263,-225.919,-0.0405455,
2,0,0,1,0,5138.92,-0.0434148,-0.0437776,-54.2295,3,0.00259729,10,0.00237404,-1.26576,0.577671,0.102134,-216.45,-0.0437776,
2,0,0,1,0,5138.93,-0.0466193,-0.0469864,-53.5579,3,0.0023818,10,0.00251649,-1.27118,0.605791,0.0973933,-203.84,-0.0469864,
2,0,0,1,0,5138.93,-0.0498154,-0.050191,-52.9277,3,0.00216892,10,0.00265649,-1.27632,0.647533,0.0911151,-188.523,-0.050191,
2,0,0,1,0,5138.93,-0.0530115,-0.053387,-52.3306,3,0.00195848,10,0.00279377,-1.28124,0.698575,0.0844576,-172.861,-0.053387,
2,0,0,1,0,5138.94,-0.056216,-0.0565492,-51.8218,3,0.00175022,10,0.00293048,-1.28549,0.781027,0.0755416,-153.132,-0.0565492,
2,0,0,1,0,5138.94,-0.0594121,-0.0597866,-51.3453,3,0.00154395,10,0.00306976,-1.2895,0.880613,0.0669988,-134.567,-0.0597866,
2,0,0,1,0,5138.95,-0.0626194,-0.062989,-50.9679,3,0.00133938,10,0.00321042,-1.2927,0.990546,0.0595631,-118.689,-0.062989,
2,0,0,1,0,5138.95,-0.0658155,-0.0661893,-50.6078,3,0.00113628,10,0.0033497,-1.29578,1.16503,0.0506426,-100.21,-0.0661893,
2,0,0,1,0,5138.95,-0.0690117,-0.0693472,-50.3028,3,0.000934498,10,0.00348836,-1.29841,1.3686,0.0431097,-84.8355,-0.0693472,
2,0,0,1,0,5138.96,-0.0722189,-0.0725549,-50.0657,3,0.00073378,10,0.00363252,-1.30046,1.70427,0.034619,-67.7891,-0.0725549,
2,0,0,1,0,5138.96,-0.075415,-0.0757606,-49.8844,3,0.000533922,10,0.00377927,-1.30204,2.26493,0.0260494,-50.8072,-0.0757606,
2,0,0,1,0,5138.97,-0.0786167,-0.0789407,-49.7434,3,0.000334693,10,0.00392678,-1.30326,2.98882,0.0197402,-38.3805,-0.0789407,
2,0,0,1,0,5138.97,-0.0818184,-0.0821675,-49.6514,3,0.00013594,10,0.00407973,-1.30407,4.67498,0.0126204,-24.4924,-0.0821675,
2,0,0,1,0,5138.97,-0.0850146,-0.0853944,-49.573,3,-6.24847e-05,10,0.00423325,-1.30476,9.28228,0.00635619,-12.3199,-0.0853944,
2,0,0,1,0,5138.98,-0.088219,-0.0885745,-49.5706,3,-0.000260742,10,0.00439069,-1.30478,211.01,0.000279607,-0.541768,-0.0885745,
2,0,0,1,0,5138.98,-0.0914152,-0.0917642,-49.5854,3,-0.000459031,10,0.00455017,-1.30465,-9.22426,-0.00639618,12.3943,-0.0917642,
2,0,0,1,0,5138.99,-0.0946141,-0.0949529,-49.6445,3,-0.000657482,10,0.00471389,-1.30413,-5.36432,-0.0109986,21.3362,-0.0949529,
2,0,0,1,0,5138.99,-0.0978158,-0.0981638,-49.7312,3,-0.000856253,10,0.0048818,-1.30337,-3.52815,-0.0167227,32.4966,-0.0981638,
2,0,0,1,0,5138.99,-0.101012,-0.101366,-49.8435,3,-0.00105539,10,0.00505244,-1.30239,-2.79331,-0.0211219,41.1403,-0.1013662,
2,0,0,1,0,5139,-0.104219,-0.10456,-50.0013,3,-0.00125507,10,0.00522814,-1.30102,-2.2847,-0.025824,50.4442,-0.10456,
2,0,0,1,0,5139,-0.107415,-0.107793,-50.1727,3,-0.00145542,10,0.00540829,-1.29953,-1.8646,-0.0316422,62.0393,-0.107793,
2,0,0,1,0,5139.01,-0.110611,-0.110922,-50.3748,3,-0.00165655,10,0.00558765,-1.29779,-1.72675,-0.0341682,67.247,-0.110922,
2,0,0,1,0,5139.01,-0.113819,-0.114135,-50.6356,3,-0.00185859,10,0.00577927,-1.29554,-1.52201,-0.0387644,76.6414,-0.114135,
2,0,0,1,0,5139.01,-0.117015,-0.117342,-50.8608,3,-0.0020616,10,0.00596812,-1.29362,-1.3957,-0.0422727,83.9928,-0.117342,
2,0,0,1,0,5139.02,-0.120216,-0.120553,-51.1507,3,-0.00226563,10,0.00616638,-1.29115,-1.31572,-0.0448424,89.6165,-0.1205532,
2,0,0,1,0,5139.02,-0.123418,-0.123754,-51.4526,3,-0.00247086,10,0.00636744,-1.28859,-1.18839,-0.0496471,99.7756,-0.123754,
2,0,0,1,0,5139.03,-0.126614,-0.126951,-51.7842,3,-0.00267736,10,0.00657403,-1.2858,-1.14202,-0.0516628,104.475,-0.126951,
2,0,0,1,0,5139.03,-0.129819,-0.130112,-52.1349,3,-0.00288523,10,0.00678336,-1.28287,-1.09884,-0.0536931,109.275,-0.130112,
2,0,0,1,0,5139.03,-0.133015,-0.13336,-52.4886,3,-0.00309449,10,0.00699987,-1.27993,-1.04444,-0.0564895,115.787,-0.13336,
2,0,0,1,0,5139.04,-0.136214,-0.136542,-52.85,3,-0.00330521,10,0.00721625,-1.27695,-1.0261,-0.0574994,118.694,-0.136542,
2,0,0,1,0,5139.04,-0.139416,-0.139731,-53.2639,3,-0.00351749,10,0.0074426,-1.27357,-0.973841,-0.0605848,125.999,-0.139731,
2,0,0,1,0,5139.05,-0.142612,-0.142955,-53.6594,3,-0.00373139,10,0.00767089,-1.27035,-0.959976,-0.0614599,128.732,-0.142955,
2,0,0,1,0,5139.05,-0.145819,-0.146131,-54.0978,3,-0.00394695,10,0.00790539,-1.26682,-0.956314,-0.0616952,130.25,-0.146131,
2,0,0,1,0,5139.05,-0.149015,-0.149343,-54.498,3,-0.00416419,10,0.0081389,-1.26362,-0.938709,-0.0628523,133.716,-0.149343,
2,0,0,1,0,5139.06,-0.152211,-0.15257,-54.9363,3,-0.00438309,10,0.00838163,-1.26014,-0.937999,-0.0628999,134.907,-0.15257,
2,0,0,1,0,5139.06,-0.155418,-0.155786,-55.3751,3,-0.00460376,10,0.00862667,-1.25669,-0.925244,-0.063767,137.812,-0.155786,
2,0,0,1,0,5139.07,-0.158615,-0.15893,-55.8245,3,-0.00482621,10,0.00887221,-1.25318,-0.925189,-0.0637708,138.92,-0.15893,
2,0,0,1,0,5139.07,-0.161816,-0.162164,-56.2648,3,-0.00505042,10,0.00912409,-1.24976,-0.931847,-0.0633151,139.003,-0.162164,
2,0,0,1,0,5139.07,-0.165018,-0.165341,-56.7103,3,-0.00527641,10,0.00937652,-1.24634,-0.935816,-0.0630466,139.541,-0.165341,
2,0,0,1,0,5139.08,-0.168214,-0.1685,-57.1422,3,-0.00550416,10,0.00962844,-1.24304,-0.941182,-0.0626871,139.82,-0.1685,
2,0,0,1,0,5139.08,-0.171419,-0.17172,-57.6092,3,-0.00573369,10,0.00989265,-1.23951,-0.942617,-0.0625917,140.718,-0.17172,
2,0,0,1,0,5139.09,-0.174615,-0.174911,-58.0471,3,-0.00596506,10,0.0101531,-1.23622,-0.951223,-0.0620254,140.496,-0.174911,
2,0,0,1,0,5139.09,-0.177814,-0.17814,-58.5114,3,-0.00619822,10,0.0104232,-1.23276,-0.965462,-0.0611106,139.514,-0.17814,
2,0,0,1,0,5139.09,-0.181015,-0.181351,-58.9478,3,-0.00643321,10,0.0106902,-1.22953,-0.962948,-0.0612702,140.951,-0.181351,
2,0,0,1,0,5139.1,-0.184211,-0.184519,-59.3948,3,-0.00666993,10,0.0109595,-1.22625,-0.966262,-0.0610601,141.578,-0.1845191,
2,0,0,1,0,5139.1,-0.187419,-0.187735,-59.8547,3,-0.00690847,10,0.0112368,-1.2229,-0.969689,-0.0608443,142.12,-0.187735,
2,0,0,1,0,5139.11,-0.190615,-0.190928,-60.322,3,-0.00714887,10,0.0115172,-1.21952,-0.97405,-0.0605719,142.556,-0.190928,
2,0,0,1,0,5139.11,-0.193811,-0.194126,-60.7634,3,-0.00739109,10,0.0117958,-1.21636,-0.990469,-0.0595677,141.155,-0.194126,
2,0,0,1,0,5139.11,-0.197018,-0.19735,-61.224,3,-0.00763514,10,0.0120825,-1.21308,-1.06752,-0.0552684,131.471,-0.19735,
2,0,0,1,0,5139.12,-0.199647,-0.200031,-61.5903,3,-0.00783778,10,0.01232,-1.21049,0.318008,0.18553,-431.607,-0.200031,
2,0,0,1,0,5139.12,-0.200134,-0.200551,-61.5871,3,-0.00787476,10,0.0123514,-1.21051,-0.0144951,-4.07033,8884.95,-0.200551,
2,0,0,1,1,5139.12,-0.198935,-0.199442,-58.4691,3,-0.00796386,10,0.0116612,-1.23307,-0.050774,-1.16201,2390.61,-0.199442,
2,0,0,1,1,5139.12,-0.195739,-0.196194,-50.9544,3,-0.00818146,10,0.00999695,-1.29282,-0.055137,-1.07006,2071.4,-0.196194,
2,0,0,1,1,5139.13,-0.192535,-0.192981,-44.7363,3,-0.00837197,10,0.00863327,-1.34934,-0.0558121,-1.05712,1871.3,-0.192981,
2,0,0,1,1,5139.13,-0.189339,-0.189783,-39.2815,3,-0.0085393,10,0.00745496,-1.40581,-0.0555005,-1.06305,1638.44,-0.189783,
2,0,0,1,1,5139.13,-0.186137,-0.186565,-34.3712,3,-0.00868597,10,0.00641245,-1.4638,-0.0537582,-1.09751,1473.46,-0.186565,
2,0,0,1,1,5139.14,-0.182935,-0.18334,-29.8934,3,-0.00881395,10,0.00548066,-1.52442,-0.0506727,-1.16434,1353.48,-0.18334,
2,0,0,1,1,5139.14,-0.179739,-0.180126,-25.7946,3,-0.00892482,10,0.00464626,-1.58847,-0.0472943,-1.24751,1244.75,-0.180126,
2,0,0,1,1,5139.15,-0.176532,-0.176985,-21.9596,3,-0.00901989,10,0.00388652,-1.65837,-0.0430187,-1.3715,1158.47,-0.176985,
2,0,0,1,1,5139.15,-0.173336,-0.173743,-18.4118,3,-0.00910022,10,0.00319893,-1.7349,-0.0382418,-1.54282,1082.58,-0.1737432,
2,0,0,1,1,5139.15,-0.17014,-0.170546,-15.0721,3,-0.00916681,10,0.00257049,-1.82183,-0.0330238,-1.78659,1012.11,-0.170546,
2,0,0,1,1,5139.16,-0.166932,-0.167318,-11.9293,3,-0.00922044,10,0.001996,-1.92338,-0.0269086,-2.19261,958.177,-0.167318,
2,0,0,1,1,5139.16,-0.163736,-0.164161,-8.98077,3,-0.00926193,10,0.00147429,-2.04669,-0.0202495,-2.91365,903.934,-0.164161,
2,0,0,1,1,5139.17,-0.160532,-0.160967,-6.17039,3,-0.00929191,10,0.000993232,-2.20969,-0.0118739,-4.96888,857.884,-0.160967,
2,0,0,1,1,5139.17,-0.157336,-0.157775,-3.5275,3,-0.00931103,10,0.00055655,-2.45253,-0.0157778,-3.73944,812.063,-0.157775,
2,0,0,1,1,5139.17,-0.154139,-0.154591,-1.01104,3,-0.00931981,10,0.000156298,-2.99523,-0.0564556,-1.04507,767.905,-0.1545912,
2,1,0,1,1,5139.18,-0.150935,-0.151388,1.39224,3,-0.00931878,10,-0.000210768,-2.85629,0.0582381,1.01308,731.761,-0.151388,
2,1,0,1,1,5139.18,-0.147739,-0.148165,3.66054,3,-0.00930841,10,-0.000542365,-2.43645,0.0143142,4.12178,697.637,-0.148165,
2,1,0,1,1,5139.19,-0.144532,-0.14495,5.85701,3,-0.00928913,10,-0.000848973,-2.23232,0.0149841,3.93752,666.546,-0.14495,
2,1,0,1,1,5139.19,-0.141335,-0.141802,7.91143,3,-0.00926135,10,-0.00112185,-2.10175,0.0250957,2.351,638.725,-0.141802,
2,1,0,1,1,5139.19,-0.138139,-0.138621,9.90153,3,-0.0092255,10,-0.00137257,-2.0043,0.0346992,1.70033,611.24,-0.138621,
2,1,0,1,1,5139.2,-0.134932,-0.135388,11.8214,3,-0.00918185,10,-0.00160048,-1.92733,0.044135,1.33681,586.776,-0.1353883,
2,1,0,1,1,5139.2,-0.131736,-0.132198,13.6518,3,-0.00913069,10,-0.00180474,-1.86481,0.0538953,1.09471,563.106,-0.132198,
2,1,0,1,1,5139.21,-0.12854,-0.129023,15.4098,3,-0.00907236,10,-0.00198822,-1.8122,0.0641223,0.920117,539.138,-0.129023,
2,1,0,1,1,5139.21,-0.125333,-0.125814,17.1136,3,-0.00900713,10,-0.00215312,-1.76666,0.0743804,0.793219,518.743,-0.125814,
2,1,0,1,1,5139.21,-0.122136,-0.122565,18.7351,3,-0.00893524,10,-0.00229626,-1.72734,0.0857784,0.687819,494.127,-0.1225648,
2,1,0,1,1,5139.22,-0.118932,-0.11938,20.3006,3,-0.00885703,10,-0.0024235,-1.69249,0.0977043,0.603863,471.198,-0.1193804,
2,1,0,1,1,5139.22,-0.115736,-0.116148,21.7714,3,-0.00877271,10,-0.00252871,-1.66211,0.109206,0.540263,453.436,-0.116148,
2,1,0,1,1,5139.23,-0.11254,-0.112937,23.181,3,-0.00868267,10,-0.002618,-1.63487,0.122592,0.481269,431.219,-0.112937,
2,1,0,1,1,5139.23,-0.109335,-0.109771,24.5362,3,-0.00858706,10,-0.00269337,-1.61019,0.13479,0.437718,415.691,-0.109771,
2,1,0,1,1,5139.23,-0.106139,-0.106537,25.839,3,-0.00848615,10,-0.00275281,-1.58772,0.148299,0.397844,398.122,-0.106537,
2,1,0,1,1,5139.24,-0.102932,-0.103353,27.0901,3,-0.00838016,10,-0.00279986,-1.56719,0.163093,0.361756,379.712,-0.1033534,
2,1,0,1,1,5139.24,-0.0997357,-0.100155,28.2698,3,-0.00826928,10,-0.00283137,-1.54868,0.177356,0.332665,364.911,-0.100155,
2,1,0,1,1,5139.25,-0.0965395,-0.0969602,29.4006,3,-0.0081538,10,-0.00285069,-1.53164,0.192785,0.30604,349.554,-0.0969602,
2,1,0,1,1,5139.25,-0.0933323,-0.0937525,30.5042,3,-0.00803387,10,-0.00285984,-1.51564,0.209684,0.281375,333.48,-0.0937525,
2,1,0,1,1,5139.25,-0.0901362,-0.0905755,31.5567,3,-0.00790963,10,-0.00285826,-1.50091,0.225274,0.261904,321.082,-0.0905755,
2,1,0,1,1,5139.26,-0.0869345,-0.087266,32.5681,3,-0.00778129,10,-0.00284209,-1.48721,0.243985,0.241818,306.008,-0.087266,
2,1,0,1,1,5139.26,-0.0837328,-0.0841452,33.5153,3,-0.00764899,10,-0.00282015,-1.47476,0.262328,0.22491,293.165,-0.0841452,
2,1,0,1,1,5139.27,-0.0805366,-0.0809396,34.425,3,-0.00751302,10,-0.00278635,-1.46313,0.280096,0.210642,282.23,-0.0809396,
2,1,0,1,1,5139.27,-0.0773322,-0.0777637,35.3127,3,-0.00737346,10,-0.00274604,-1.45207,0.302409,0.1951,268.097,-0.0777637,
2,1,0,1,1,5139.27,-0.074136,-0.0745474,36.1577,3,-0.00723042,10,-0.00269546,-1.4418,0.322612,0.182882,257.283,-0.0745474,
2,1,0,1,1,5139.28,-0.0709371,-0.0712899,36.9618,3,-0.00708409,10,-0.002635,-1.43225,0.34867,0.169214,243.384,-0.0712899,
2,1,0,1,1,5139.28,-0.0677354,-0.068132,37.7202,3,-0.00693463,10,-0.00256995,-1.42343,0.37144,0.158841,233.277,-0.068132,
2,1,0,1,1,5139.29,-0.0645393,-0.0649115,38.4407,3,-0.00678222,10,-0.00249524,-1.41521,0.39722,0.148532,222.401,-0.0649115,
2,1,0,1,1,5139.29,-0.0613321,-0.0617462,39.1439,3,-0.00662699,10,-0.00241699,-1.40734,0.424301,0.139052,211.965,-0.0617462,
2,1,0,1,1,5139.29,-0.0581359,-0.0585003,39.8062,3,-0.00646899,10,-0.00232867,-1.40005,0.452516,0.130382,202.116,-0.0585003,
2,1,0,1,1,5139.3,-0.0549398,-0.0553509,40.4293,3,-0.00630846,10,-0.0022378,-1.3933,0.489219,0.1206,189.931,-0.0553509,
2,1,0,1,1,5139.3,-0.0517325,-0.052105,41.0291,3,-0.00614544,10,-0.00213782,-1.38691,0.520395,0.113375,181.189,-0.052105,
2,1,0,1,1,5139.31,-0.0485364,-0.0488771,41.5881,3,-0.00598016,10,-0.00203271,-1.38103,0.557586,0.105813,171.47,-0.04887712,
2,1,0,1,1,5139.31,-0.0453347,-0.0457585,42.1149,3,-0.00581269,10,-0.00192711,-1.37556,0.598488,0.0985818,161.799,-0.0457585,
2,1,0,1,1,5139.31,-0.042133,-0.042486,42.6353,3,-0.00564312,10,-0.0018114,-1.37023,0.636171,0.0927424,154.049,-0.042486,
2,1,0,1,1,5139.32,-0.0389369,-0.0393207,43.0976,3,-0.00547161,10,-0.00169463,-1.36555,0.694126,0.084999,142.719,-0.0393207,
2,1,0,1,1,5139.32,-0.0357324,-0.0361438,43.5497,3,-0.00529829,10,-0.00157405,-1.36101,0.75787,0.0778497,132.088,-0.03614375,
2,1,0,1,1,5139.33,-0.0325363,-0.032936,43.9449,3,-0.00512325,10,-0.00144737,-1.35709,0.815413,0.072356,123.924,-0.032936,
2,1,0,1,1,5139.33,-0.0293374,-0.0296816,44.3266,3,-0.00494668,10,-0.00131569,-1.35334,0.893528,0.0660304,114.096,-0.0296816,
2,1,0,1,1,5139.33,-0.0261357,-0.0265333,44.6822,3,-0.00476858,10,-0.00118557,-1.34987,0.969314,0.0608678,106,-0.0265333,
2,1,0,1,1,5139.34,-0.0229395,-0.0233542,45.0089,3,-0.00458914,10,-0.00105115,-1.3467,1.05911,0.0557074,97.7201,-0.0233542,
2,1,0,1,1,5139.34,-0.0197323,-0.0200818,45.3074,3,-0.00440847,10,-0.000909853,-1.34383,1.19065,0.0495529,87.4891,-0.0200818,
2,1,0,1,1,5139.35,-0.0165361,-0.0169101,45.5746,3,-0.00422668,10,-0.000770671,-1.34128,1.31081,0.0450104,79.9617,-0.0169101,
2,1,0,1,1,5139.35,-0.01334,-0.0137331,45.8021,3,-0.00404387,10,-0.000629005,-1.33911,1.4789,0.0398944,71.2456,-0.01373311,
2,1,0,1,1,5139.35,-0.0101328,-0.0105148,46.0356,3,-0.00386015,10,-0.000484054,-1.33691,1.70121,0.0346811,62.2222,-0.0105148,
2,1,0,1,1,5139.36,-0.00693663,-0.0073484,46.2146,3,-0.00367561,10,-0.000339604,-1.33522,1.92386,0.0306674,55.2338,-0.0073484,
2,1,0,1,1,5139.36,-0.00373494,-0.00411734,46.3706,3,-0.00349042,10,-0.000190924,-1.33376, , , ,-0.00411734,
2,1,0,1,1,5139.37,-0.000774628,-0.00113494,46.4979,3,-0.00331859,10,-5.27726e-05,-1.33257, , , ,-0.00113494,
2,1,0,0,1,5139.37,-0.000125413,-0.000363498,46.5408,3,-0.00328138,10,-1.69175e-05,-1.33217, , , ,-0.000363498,