File: Figure_codes/Fig_3-5/rawdata_trumpetplot_data/after 10th/20221101_1-115_003_TrumpetPlot_ParaChange_from10_every3_12_CV_C01_15.csv
mode,ox/red,error,control changes,counter inc.,time/s,control/V,Ewe/V,<I>/mA,cycle number,(Q-Qo)/C,I Range,P/W,log(|I|),Tafel slope mV/dec,alpha_eff,dI/d(E-IR),E-IR/V,
2,1,0,1,0,30748.5,2.44065e-05,-0.000191712,16.059,16,0.0000000E+000,10,-3.07871e-06,-1.79428, , , ,-0.000191712,
2,1,0,1,0,30748.5,0.00200257,0.00164597,16.9998,16,5.16543e-05,10,2.79812e-05,-1.76956, , , ,0.00164597,
2,1,0,1,0,30748.5,0.004408,0.00407961,17.8216,16,0.000121445,10,7.2705e-05,-1.74905, , , ,0.004079605,
2,1,0,1,0,30748.5,0.0068051,0.00641674,18.4664,16,0.000194116,10,0.000118494,-1.73362,0.155968,0.378283,269.581,0.00641674,
2,1,0,1,0,30748.5,0.00920221,0.00885992,19.0486,16,0.000269219,10,0.000168769,-1.72014,0.182741,0.322862,238.641,0.00885992,
2,1,0,1,0,30748.5,0.0115993,0.0112236,19.5817,16,0.000346559,10,0.000219777,-1.70815,0.205035,0.287756,219.007,0.0112236,
2,1,0,1,0,30748.5,0.0140075,0.0136392,20.1029,16,0.000425982,10,0.000274187,-1.69674,0.226171,0.260865,203.716,0.0136392,
2,1,0,1,0,30748.5,0.0164046,0.0160442,20.5749,16,0.000507391,10,0.000330107,-1.68666,0.246618,0.239237,191.329,0.0160442,
2,1,0,1,0,30748.5,0.0188017,0.0184545,21.0031,16,0.000590606,10,0.000387601,-1.67772,0.270816,0.21786,178.121,0.0184545,
2,1,0,1,0,30748.5,0.0212099,0.020887,21.4306,16,0.000675501,10,0.000447623,-1.66896,0.291782,0.202206,168.704,0.020887,
2,1,0,1,0,30748.5,0.023607,0.0232761,21.8194,16,0.000762047,10,0.000507872,-1.66116,0.306806,0.192304,163.437,0.0232761,
2,1,0,1,0,30748.5,0.0260041,0.0256875,22.2018,16,0.000850128,10,0.000570308,-1.65361,0.3283,0.179714,155.492,0.0256875,
2,1,0,1,0,30748.5,0.0284012,0.0280395,22.5697,16,0.000939706,10,0.000632842,-1.64647,0.348194,0.169446,148.978,0.0280395,
2,1,0,1,0,30748.5,0.0308067,0.0305028,22.9258,16,0.00103075,10,0.000699302,-1.63968,0.365522,0.161413,144.16,0.0305028,
2,1,0,1,0,30748.5,0.0332038,0.0328951,23.2524,16,0.00112313,10,0.000764891,-1.63353,0.383417,0.153879,139.534,0.0328951,
2,1,0,1,0,30748.5,0.0356009,0.0352566,23.5812,16,0.00121684,10,0.000831395,-1.62743,0.397502,0.148427,136.546,0.0352566,
2,1,0,1,0,30748.5,0.0380091,0.0376637,23.9126,16,0.00131186,10,0.000900637,-1.62137,0.407587,0.144754,134.971,0.0376637,
2,1,0,1,0,30748.5,0.0404062,0.0400603,24.2308,16,0.00140818,10,0.000970694,-1.61563,0.426771,0.138247,130.571,0.0400603,
2,1,0,1,0,30748.5,0.0428033,0.0424525,24.5424,16,0.00150576,10,0.00104189,-1.61008,0.442722,0.133266,127.531,0.0424525,
2,1,0,1,0,30748.6,0.0452032,0.0448268,24.8308,16,0.00160453,10,0.00111309,-1.60501,0.451051,0.130805,126.778,0.0448268,
2,1,0,1,0,30748.6,0.0476058,0.0472806,25.139,16,0.00170453,10,0.00118859,-1.59965,0.464118,0.127123,124.716,0.0472806,
2,1,0,1,0,30748.6,0.0500029,0.0496601,25.4479,16,0.00180574,10,0.00126374,-1.59435,0.459468,0.128409,127.482,0.0496601,
2,1,0,1,0,30748.6,0.0524,0.0520853,25.7438,16,0.00190815,10,0.00134087,-1.58933,0.470205,0.125477,126.032,0.0520853,
2,1,0,1,0,30748.6,0.0548082,0.0544351,26.0557,16,0.00201179,10,0.00141835,-1.5841,0.482228,0.122349,124.341,0.05443513,
2,1,0,1,0,30748.6,0.0572053,0.0568391,26.3437,16,0.00211661,10,0.00149735,-1.57932,0.476588,0.123797,127.294,0.0568391,
2,1,0,1,0,30748.6,0.0596024,0.0592685,26.6426,16,0.00222262,10,0.00157907,-1.57442,0.490813,0.120209,125.04,0.05926846,
2,1,0,1,0,30748.6,0.0620051,0.0616395,26.96,16,0.00232985,10,0.0016618,-1.56928,0.485782,0.121454,127.752,0.0616395,
2,1,0,1,0,30748.6,0.0644077,0.0640647,27.2598,16,0.00243832,10,0.00174639,-1.56448,0.492062,0.119904,127.529,0.0640647,
2,1,0,1,0,30748.6,0.0668048,0.0664368,27.5698,16,0.002548,10,0.00183165,-1.55957,0.498432,0.118371,127.343,0.0664368,
2,1,0,1,0,30748.6,0.0692019,0.0689118,27.8724,16,0.00265891,10,0.00192074,-1.55483,0.493781,0.119486,130.001,0.0689118,
2,1,0,1,0,30748.6,0.0716074,0.0712192,28.1799,16,0.00277105,10,0.00200695,-1.55006,0.500738,0.117826,129.619,0.0712192,
2,1,0,1,0,30748.6,0.0740045,0.0736518,28.5061,16,0.00288445,10,0.00209953,-1.54506,0.49205,0.119906,133.382,0.0736518,
2,1,0,1,0,30748.6,0.0764016,0.0760462,28.8154,16,0.00299913,10,0.0021913,-1.54038,0.498809,0.118282,133.022,0.0760462,
2,1,0,1,0,30748.6,0.0788042,0.0784374,29.1429,16,0.00311507,10,0.0022859,-1.53547,0.508835,0.115951,131.845,0.0784374,
2,1,0,1,0,30748.6,0.0812069,0.0808615,29.4625,16,0.00323231,10,0.00238238,-1.53073,0.500511,0.117879,135.526,0.0808615,
2,1,0,1,0,30748.6,0.083604,0.0832708,29.7743,16,0.00335081,10,0.00247933,-1.52616,0.507539,0.116247,135.134,0.0832708,
2,1,0,1,0,30748.6,0.0860011,0.0856174,30.1125,16,0.00347061,10,0.00257816,-1.52125,0.509764,0.11574,136.003,0.0856174,
2,1,0,1,0,30748.6,0.0884065,0.0880309,30.4394,16,0.00359177,10,0.0026796,-1.51656,0.503867,0.117094,139.072,0.0880309,
2,1,0,1,0,30748.6,0.0908036,0.0904434,30.7657,16,0.00371422,10,0.00278255,-1.51193,0.515154,0.114529,137.526,0.09044335,
2,1,0,1,0,30748.6,0.0932007,0.0928081,31.1007,16,0.003838,10,0.0028864,-1.50723,0.506284,0.116535,141.497,0.09280806,
2,1,0,1,0,30748.6,0.0956034,0.0952247,31.4338,16,0.00396312,10,0.00299327,-1.5026,0.503331,0.117219,143.89,0.0952247,
2,1,0,1,0,30748.6,0.098006,0.0976053,31.7941,16,0.00408961,10,0.00310327,-1.49765,0.5162,0.114297,141.76,0.0976053,
2,1,0,1,0,30748.6,0.100403,0.100073,32.1513,16,0.00421753,10,0.00321747,-1.4928,0.512232,0.115182,144.4,0.1000729,
2,1,0,1,0,30748.6,0.1028,0.102464,32.4696,16,0.00434679,10,0.00332697,-1.48852,0.529599,0.111405,141.175,0.102464,
2,1,0,1,0,30748.7,0.105208,0.104842,32.8225,16,0.00447741,10,0.00344116,-1.48383,0.537079,0.109853,140.702,0.104842,
2,1,0,1,0,30748.7,0.107606,0.107256,33.1566,16,0.0046094,10,0.00355624,-1.47943,0.53087,0.111138,143.795,0.107256,
2,1,0,1,0,30748.7,0.110003,0.109626,33.4954,16,0.00474274,10,0.00367197,-1.47501,0.556385,0.106042,138.552,0.109626,
2,1,0,1,0,30748.7,0.112408,0.112029,33.845,16,0.00487745,10,0.00379162,-1.47051,0.548232,0.107619,142.089,0.112029,
2,1,0,1,0,30748.7,0.114805,0.114382,34.1443,16,0.00501348,10,0.0039055,-1.46668,0.54231,0.108794,145.144,0.114382,
2,1,0,1,0,30748.7,0.117202,0.116805,34.5134,16,0.00515081,10,0.00403133,-1.46201,0.537683,0.10973,147.974,0.116805,
2,1,0,1,0,30748.7,0.119599,0.119188,34.8832,16,0.00528965,10,0.00415766,-1.45738,0.516288,0.114277,155.614,0.119188,
2,1,0,1,0,30748.7,0.122008,0.121678,35.2727,16,0.00543,10,0.0042919,-1.45256,0.518364,0.11382,156.643,0.121678,
2,1,0,1,0,30748.7,0.124405,0.12406,35.6504,16,0.00557189,10,0.0044228,-1.44794,0.521235,0.113193,157.43,0.12406,
2,1,0,1,0,30748.7,0.126802,0.126458,36.0254,16,0.00571527,10,0.0045557,-1.44339,0.522217,0.11298,158.869,0.126458,
2,1,0,1,0,30748.7,0.129207,0.128836,36.4022,16,0.00586014,10,0.00468993,-1.43887,0.521367,0.113164,160.829,0.128836,
2,1,0,1,0,30748.7,0.131604,0.131289,36.7997,16,0.00600658,10,0.0048314,-1.43416,0.515899,0.114363,164.296,0.131289,
2,1,0,1,0,30748.7,0.134001,0.133649,37.1925,16,0.0061546,10,0.00497072,-1.42955,0.503693,0.117135,170.107,0.133649,
2,1,0,1,0,30748.7,0.136399,0.136087,37.6075,16,0.00630426,10,0.00511791,-1.42473,0.505076,0.116814,171.467,0.136087,
2,1,0,1,0,30748.7,0.138807,0.138417,38.032,16,0.00645559,10,0.00526428,-1.41985,0.503496,0.117181,173.894,0.1384172,
2,1,0,1,0,30748.7,0.141204,0.140829,38.4354,16,0.00660854,10,0.0054128,-1.41527,0.496094,0.118929,178.49,0.140829,
2,1,0,1,0,30748.7,0.143601,0.14329,38.869,16,0.00676318,10,0.00556953,-1.4104,0.506144,0.116568,176.872,0.14329,
2,1,0,1,0,30748.7,0.146009,0.145663,39.3166,16,0.00691959,10,0.00572698,-1.40542,0.504011,0.117061,179.512,0.145663,
2,1,0,1,0,30748.7,0.148406,0.148067,39.7387,16,0.00707774,10,0.00588399,-1.40079,0.512054,0.115222,178.596,0.148067,
2,1,0,1,0,30748.7,0.150803,0.150456,40.1636,16,0.00723759,10,0.00604286,-1.39617,0.52673,0.112012,175.528,0.150456,
2,1,0,1,0,30748.7,0.153206,0.152848,40.5761,16,0.00739911,10,0.00620199,-1.39173,0.532472,0.110804,175.462,0.152848,
2,1,0,1,0,30748.7,0.155606,0.155261,41.0013,16,0.00756232,10,0.00636589,-1.3872,0.545708,0.108116,172.946,0.1552607,
2,1,0,1,0,30748.7,0.158003,0.157672,41.4241,16,0.00772722,10,0.00653142,-1.38275,0.557241,0.105879,171.046,0.157672,
2,1,0,1,0,30748.7,0.1604,0.160052,41.8231,16,0.00789377,10,0.00669386,-1.37858,0.581729,0.101422,165.416,0.1600516,
2,1,0,1,0,30748.7,0.162808,0.16248,42.2236,16,0.00806191,10,0.00686048,-1.37444,0.607718,0.0970845,159.844,0.16248,
2,1,0,1,0,30748.8,0.165205,0.16487,42.5908,16,0.00823158,10,0.00702196,-1.37068,0.623953,0.0945584,157.102,0.1648701,
2,1,0,1,0,30748.8,0.167602,0.167279,42.9597,16,0.00840272,10,0.00718628,-1.36694,0.662119,0.0891079,149.31,0.167279,
2,1,0,1,0,30748.8,0.170008,0.169636,43.3288,16,0.00857533,10,0.0073501,-1.36322,0.691006,0.0853828,144.201,0.169636,
2,1,0,1,0,30748.8,0.172405,0.172061,43.6541,16,0.00874934,10,0.00751115,-1.35998,0.75183,0.0784752,133.524,0.172061,
2,1,0,1,0,30748.8,0.174802,0.174406,43.966,16,0.00892464,10,0.00766795,-1.35688,0.830517,0.0710401,121.746,0.174406,
2,1,0,1,0,30748.8,0.177199,0.176883,44.2421,16,0.00910109,10,0.0078257,-1.35416,0.908129,0.0649687,112.042,0.176883,
2,1,0,1,0,30748.8,0.179607,0.179266,44.5013,16,0.00927862,10,0.00797757,-1.35163,1.04229,0.0566062,98.1734,0.179266,
2,1,0,1,0,30748.8,0.182005,0.181647,44.7281,16,0.0094571,10,0.00812472,-1.34942,1.21996,0.0483624,84.2658,0.181647,
2,1,0,1,0,30748.8,0.184402,0.184081,44.9158,16,0.00963642,10,0.00826817,-1.3476,1.56754,0.0376386,65.8324,0.184081,
2,1,0,1,0,30748.8,0.18681,0.186491,45.0517,16,0.00981637,10,0.00840172,-1.34629,2.33419,0.0252765,44.3335,0.186491,
2,1,0,1,0,30748.8,0.189207,0.188881,45.1342,16,0.00999675,10,0.00852499,-1.34549,4.34524,0.0135781,23.8618,0.188881,
2,1,0,1,0,30748.8,0.191604,0.191306,45.1564,16,0.0101773,10,0.00863868,-1.34528,33.3092,0.00177128,3.11534,0.191306,
2,1,0,1,0,30748.8,0.194001,0.193651,45.1442,16,0.010358,10,0.00874219,-1.3454,-5.07067,-0.0116356,-20.4509,0.1936506,
2,1,0,1,0,30748.8,0.196407,0.196065,45.0815,16,0.0105384,10,0.00883891,-1.346,-2.33618,-0.0252549,-44.2985,0.196065,
2,1,0,1,0,30748.8,0.198804,0.198451,44.9385,16,0.0107185,10,0.0089181,-1.34738,-1.51314,-0.0389919,-68.1961,0.198451,
2,1,0,1,0,30748.8,0.201201,0.200841,44.734,16,0.0108978,10,0.00898442,-1.34936,-1.09538,-0.0538624,-93.8154,0.2008412,
2,1,0,1,0,30748.8,0.203609,0.203285,44.4871,16,0.0110762,10,0.00904358,-1.35177,-0.880897,-0.0669772,-116,0.203285,
2,1,0,1,0,30748.8,0.206006,0.205663,44.1811,16,0.0112535,10,0.00908641,-1.35476,-0.727487,-0.0811011,-139.456,0.205663,
2,1,0,1,0,30748.8,0.208403,0.208073,43.8223,16,0.0114296,10,0.00911826,-1.3583,-0.61769,-0.0955171,-162.897,0.208073,
2,1,0,1,0,30748.8,0.210803,0.210456,43.3931,16,0.011604,10,0.00913234,-1.36258,-0.536432,-0.109986,-185.774,0.210456,
2,1,0,1,0,30748.8,0.213206,0.212907,42.9199,16,0.0117765,10,0.00913792,-1.36734,-0.473047,-0.124723,-208.389,0.212907,
2,1,0,1,0,30748.8,0.215603,0.215301,42.3906,16,0.0119471,10,0.00912674,-1.37273,-0.435723,-0.135407,-223.54,0.2153009,
2,1,0,1,0,30748.8,0.218,0.217696,41.817,16,0.0121155,10,0.0091034,-1.37865,-0.395649,-0.149122,-242.93,0.217696,
2,1,0,1,0,30748.8,0.220408,0.220145,41.2273,16,0.0122815,10,0.00907597,-1.38482,-0.364407,-0.161907,-259.907,0.220145,
2,1,0,1,0,30748.8,0.222805,0.222513,40.5862,16,0.0124451,10,0.00903095,-1.39162,-0.343524,-0.171749,-271.476,0.222513,
2,1,0,1,0,30748.9,0.225202,0.224883,39.9002,16,0.012606,10,0.00897287,-1.39902,-0.321964,-0.18325,-285.039,0.224883,
2,1,0,1,0,30748.9,0.227605,0.227284,39.2143,16,0.0127641,10,0.00891276,-1.40656,-0.310189,-0.190207,-290.843,0.227284,
2,1,0,1,0,30748.9,0.230008,0.229658,38.5157,16,0.0129195,10,0.00884543,-1.41436,-0.30313,-0.194636,-292.288,0.229658,
2,1,0,1,0,30748.9,0.232405,0.232067,37.8074,16,0.0130721,10,0.00877386,-1.42242,-0.295652,-0.199559,-294.237,0.232067,
2,1,0,1,0,30748.9,0.234802,0.234491,37.0918,16,0.0132218,10,0.0086977,-1.43072,-0.289872,-0.203538,-294.502,0.234491,
2,1,0,1,0,30748.9,0.237207,0.236912,36.3812,16,0.0133687,10,0.00861915,-1.43912,-0.285355,-0.20676,-293.514,0.236912,
2,1,0,1,0,30748.9,0.239604,0.23932,35.6701,16,0.0135127,10,0.00853658,-1.4477,-0.283898,-0.207821,-289.422,0.23932,
2,1,0,1,0,30748.9,0.242002,0.241705,34.9785,16,0.013654,10,0.00845449,-1.4562,-0.283862,-0.207848,-283.932,0.241705,
2,1,0,1,0,30748.9,0.244404,0.244092,34.3131,16,0.0137925,10,0.00837555,-1.46454,-0.283247,-0.208299,-278.991,0.244092,
2,1,0,1,0,30748.9,0.246807,0.246496,33.66,16,0.0139283,10,0.00829707,-1.47289,-0.28833,-0.204626,-268.881,0.246496,
2,1,0,1,0,30748.9,0.249204,0.24888,33.0031,16,0.0140616,10,0.0082138,-1.48145,-0.291149,-0.202645,-261.324,0.24888,
2,1,0,1,0,30748.9,0.251601,0.25132,32.3933,16,0.0141923,10,0.00814108,-1.48954,-0.295655,-0.199557,-252.567,0.25132,
2,1,0,1,0,30748.9,0.254006,0.253691,31.8047,16,0.0143207,10,0.00806856,-1.49751,-0.303353,-0.194493,-241.605,0.253691,
2,1,0,1,0,30748.9,0.256404,0.256117,31.2301,16,0.0144467,10,0.00799856,-1.50543,-0.306661,-0.192395,-234.71,0.256117,
2,1,0,1,0,30748.9,0.258801,0.258473,30.6853,16,0.0145705,10,0.00793132,-1.51307,-0.315446,-0.187037,-224.202,0.258473,
2,1,0,1,0,30748.9,0.261203,0.260872,30.1513,16,0.0146921,10,0.00786564,-1.52069,-0.323677,-0.182281,-214.775,0.260872,
2,1,0,1,0,30748.9,0.263606,0.2633,29.6503,16,0.0148116,10,0.00780692,-1.52797,-0.332343,-0.177527,-205.688,0.2633,
2,1,0,1,0,30748.9,0.266003,0.265683,29.1756,16,0.0149292,10,0.00775145,-1.53498,-0.346698,-0.170177,-193.986,0.265683,
2,1,0,1,0,30748.9,0.2684,0.268065,28.7124,16,0.0150449,10,0.00769679,-1.54193,-0.353667,-0.166823,-187.161,0.268065,
2,1,0,1,0,30748.9,0.270808,0.270492,28.2852,16,0.0151589,10,0.00765091,-1.54844,-0.363868,-0.162147,-179.115,0.2704919,
2,1,0,1,0,30748.9,0.273205,0.272852,27.8625,16,0.0152711,10,0.00760234,-1.55498,-0.378971,-0.155685,-169.466,0.272852,
2,1,0,1,0,30748.9,0.275603,0.275308,27.4515,16,0.0153817,10,0.00755763,-1.56143,-0.387589,-0.152223,-163.348,0.275308,
2,1,0,1,0,30748.9,0.278008,0.277658,27.0867,16,0.0154907,10,0.00752083,-1.56724,-0.40226,-0.146671,-155.183,0.277658,
2,1,0,1,0,30748.9,0.280405,0.280063,26.7218,16,0.0155983,10,0.00748378,-1.57314,-0.4179,-0.141182,-147.331,0.280063,
2,1,0,1,0,30748.9,0.282802,0.282456,26.3721,16,0.0157045,10,0.00744896,-1.57886,-0.428238,-0.137774,-141.947,0.282456,
2,1,0,1,0,30749,0.285199,0.284893,26.0394,16,0.0158093,10,0.00741844,-1.58437,-0.447321,-0.131896,-134.195,0.284893,
2,1,0,1,0,30749,0.287608,0.287256,25.7243,16,0.0159128,10,0.00738945,-1.58966,-0.464754,-0.126949,-127.595,0.287256,
2,1,0,1,0,30749,0.290005,0.289698,25.4288,16,0.016015,10,0.00736667,-1.59467,-0.479588,-0.123022,-122.191,0.289698,
2,1,0,1,0,30749,0.292402,0.29207,25.1454,16,0.0161161,10,0.00734422,-1.59954,-0.49594,-0.118966,-116.812,0.29207,
2,1,0,1,0,30749,0.294807,0.294461,24.8702,16,0.0162161,10,0.00732332,-1.60432,-0.507968,-0.116149,-112.837,0.294461,
2,1,0,1,0,30749,0.297204,0.296857,24.6028,16,0.0163151,10,0.0073035,-1.60902,-0.511455,-0.115357,-111.286,0.296857,
2,1,0,1,0,30749,0.299421,0.299132,24.3642,16,0.0164056,10,0.00728814,-1.61325,-0.113956,-0.517743,-479.918,0.299132,
2,1,0,0,0,30749,0.300012,0.299689,24.2975,16,0.01643,10,0.0072817,-1.61444,0.00193321,30.5192,25661.4,0.2996892,
2,1,0,1,0,30749,0.299243,0.299053,22.6667,16,0.0164598,10,0.00677853,-1.64461,0.0260475,2.26509,1745.15,0.299053,
2,1,0,1,0,30749,0.296846,0.296629,18.7515,16,0.0165419,10,0.00556222,-1.72696,0.0299528,1.96976,1398.12,0.296629,
2,1,0,1,0,30749,0.294449,0.294193,15.7443,16,0.0166104,10,0.00463186,-1.80288,0.0308498,1.91249,1204.1,0.294193,
2,1,0,1,0,30749,0.292041,0.291751,13.1988,16,0.016668,10,0.00385077,-1.87946,0.0304887,1.93514,1005.4,0.291751,
2,1,0,1,0,30749,0.289644,0.289359,10.9938,16,0.016716,10,0.00318116,-1.95885,0.0287731,2.05053,879.868,0.289359,
2,1,0,1,0,30749,0.287247,0.286973,9.04328,16,0.0167559,10,0.00259518,-2.04367,0.0265877,2.21907,776.201,0.286973,
2,1,0,1,0,30749,0.284841,0.28461,7.3126,16,0.0167884,10,0.00208124,-2.13593,0.0236801,2.49155,695.227,0.28461,
2,1,0,1,0,30749,0.282444,0.282151,5.7474,16,0.0168143,10,0.00162163,-2.24053,0.0203008,2.90629,624.872,0.282151,
2,1,0,1,0,30749,0.280047,0.279769,4.3271,16,0.0168342,10,0.00121059,-2.3638,0.0162559,3.62946,564.073,0.279769,
2,1,0,1,0,30749,0.27765,0.277371,3.04327,16,0.0168488,10,0.000844115,-2.51666,0.0111796,5.27745,517.206,0.277371,
2,1,0,1,0,30749,0.275242,0.274942,1.8593,16,0.0168585,10,0.000511201,-2.73065,0.00708945,8.32223,471.93,0.2749424,
2,1,0,1,0,30749,0.272845,0.272589,0.80204,16,0.0168637,10,0.000218627,-3.0958,0.0220659,2.67381,431.495,0.272589,
2,1,0,1,0,30749,0.270448,0.270192,-0.192855,16,0.0168648,10,-5.21079e-05,-3.71477,-0.46383,-0.127202,396.601,0.270192,
2,0,0,1,0,30749,0.268039,0.267737,-1.11365,16,0.016862,10,-0.000298166,-2.95325,-0.0180855,-3.26227,367.11,0.267737,
2,0,0,1,0,30749,0.265642,0.265337,-1.95011,16,0.0168558,10,-0.000517436,-2.70994,-0.00769367,-7.66864,338.135,0.265337,
2,0,0,1,0,30749,0.263245,0.262963,-2.73189,16,0.0168464,10,-0.000718387,-2.56354,-0.0168439,-3.50276,314.38,0.262963,
2,0,0,1,0,30749,0.260843,0.260553,-3.45217,16,0.0168339,10,-0.000899471,-2.46191,-0.0247742,-2.38151,292.954,0.2605527,
2,0,0,1,0,30749,0.258443,0.258158,-4.12498,16,0.0168187,10,-0.0010649,-2.38458,-0.032942,-1.79103,272.33,0.258158,
2,0,0,1,0,30749.1,0.256046,0.255717,-4.76833,16,0.0168008,10,-0.00121934,-2.32163,-0.0411491,-1.43381,255.9,0.255717,
2,0,0,1,0,30749.1,0.253649,0.253343,-5.35171,16,0.0167805,10,-0.00135582,-2.27151,-0.0500248,-1.17941,239.043,0.253343,
2,0,0,1,0,30749.1,0.25124,0.250933,-5.91393,16,0.0167579,10,-0.001484,-2.22812,-0.0593555,-0.99401,223.931,0.250933,
2,0,0,1,0,30749.1,0.248843,0.248508,-6.43194,16,0.0167332,10,-0.00159839,-2.19166,-0.0682711,-0.864202,213.068,0.248508,
2,0,0,1,0,30749.1,0.246446,0.24616,-6.90854,16,0.0167064,10,-0.0017006,-2.16061,-0.0788977,-0.747804,199.117,0.24616,
2,0,0,1,0,30749.1,0.244041,0.243763,-7.39284,16,0.0166778,10,-0.0018021,-2.13119,-0.0889592,-0.663226,188.91,0.243763,
2,0,0,1,0,30749.1,0.241644,0.241359,-7.82015,16,0.0166473,10,-0.00188747,-2.10678,-0.099712,-0.591704,178.623,0.241359,
2,0,0,1,0,30749.1,0.239246,0.238939,-8.23944,16,0.0166151,10,-0.00196873,-2.0841,-0.112065,-0.526482,167.945,0.238939,
2,0,0,1,0,30749.1,0.236849,0.236549,-8.62519,16,0.0165813,10,-0.00204028,-2.06423,-0.12321,-0.478857,160.178,0.236549,
2,0,0,1,0,30749.1,0.234441,0.234148,-9.00776,16,0.016546,10,-0.00210915,-2.04538,-0.135081,-0.436774,152.661,0.2341475,
2,0,0,1,0,30749.1,0.232044,0.231693,-9.36853,16,0.0165093,10,-0.00217062,-2.02833,-0.145439,-0.40567,147.488,0.231693,
2,0,0,1,0,30749.1,0.229647,0.229289,-9.71273,16,0.0164711,10,-0.00222702,-2.01266,-0.159536,-0.369822,139.465,0.229289,
2,0,0,1,0,30749.1,0.227239,0.226941,-10.0423,16,0.0164315,10,-0.00227901,-1.99817,-0.17305,-0.340943,132.93,0.226941,
2,0,0,1,0,30749.1,0.224842,0.22453,-10.3491,16,0.0163907,10,-0.00232368,-1.9851,-0.184594,-0.319621,128.643,0.22453,
2,0,0,1,0,30749.1,0.222445,0.222135,-10.639,16,0.0163487,10,-0.0023633,-1.9731,-0.197376,-0.298922,123.941,0.222135,
2,0,0,1,0,30749.1,0.220047,0.219767,-10.9376,16,0.0163055,10,-0.00240373,-1.96108,-0.212196,-0.278045,118.358,0.219767,
2,0,0,1,0,30749.1,0.217642,0.217374,-11.228,16,0.0162611,10,-0.00244069,-1.9497,-0.224578,-0.262715,114.635,0.217374,
2,0,0,1,0,30749.1,0.215245,0.214931,-11.4852,16,0.0162157,10,-0.00246853,-1.93986,-0.238298,-0.247589,110.762,0.214931,
2,0,0,1,0,30749.1,0.212848,0.212528,-11.7403,16,0.0161692,10,-0.00249515,-1.93032,-0.254778,-0.231574,106.011,0.212528,
2,0,0,1,0,30749.1,0.21044,0.210131,-12.0049,16,0.0161217,10,-0.0025226,-1.92064,-0.261839,-0.22533,105.389,0.210131,
2,0,0,1,0,30749.1,0.208043,0.207765,-12.2468,16,0.0160732,10,-0.00254444,-1.91198,-0.275381,-0.214248,102.208,0.207765,
2,0,0,1,0,30749.1,0.205645,0.205325,-12.4976,16,0.0160237,10,-0.00256606,-1.90317,-0.294167,-0.200566,97.5887,0.205325,
2,0,0,1,0,30749.1,0.203246,0.202942,-12.7201,16,0.0159732,10,-0.00258144,-1.89551,-0.306435,-0.192537,95.4462,0.202942,
2,0,0,1,0,30749.1,0.200843,0.200532,-12.9417,16,0.0159218,10,-0.00259522,-1.88801,-0.323352,-0.182464,92.0999,0.200532,
2,0,0,1,0,30749.1,0.198446,0.198103,-13.1689,16,0.0158696,10,-0.0026088,-1.88045,-0.324507,-0.181814,93.4116,0.198103,
2,0,0,1,0,30749.2,0.196049,0.195748,-13.3796,16,0.0158164,10,-0.00261903,-1.87356,-0.33582,-0.175689,91.7262,0.195748,
2,0,0,1,0,30749.2,0.19364,0.193314,-13.6194,16,0.0157624,10,-0.00263283,-1.86584,-0.349593,-0.168768,89.53,0.193314,
2,0,0,1,0,30749.2,0.191243,0.190918,-13.8235,16,0.0157075,10,-0.00263916,-1.85938,-0.355694,-0.165873,89.3654,0.190918,
2,0,0,1,0,30749.2,0.188846,0.188529,-14.0261,16,0.0156518,10,-0.00264432,-1.85306,-0.373483,-0.157973,86.4949,0.188529,
2,0,0,1,0,30749.2,0.186444,0.186132,-14.2389,16,0.0155953,10,-0.00265032,-1.84652,-0.378699,-0.155797,86.5569,0.186132,
2,0,0,1,0,30749.2,0.184041,0.183736,-14.4479,16,0.0155379,10,-0.0026546,-1.84019,-0.378951,-0.155693,87.7598,0.1837358,
2,0,0,1,0,30749.2,0.181644,0.1813,-14.656,16,0.0154796,10,-0.00265714,-1.83398,-0.390493,-0.151091,86.3951,0.1813,
2,0,0,1,0,30749.2,0.179247,0.17893,-14.8685,16,0.0154205,10,-0.00266042,-1.82773,-0.395602,-0.14914,86.4962,0.17893,
2,0,0,1,0,30749.2,0.176841,0.176486,-15.0723,16,0.0153607,10,-0.00266005,-1.82182,-0.392807,-0.150201,88.3668,0.176486,
2,0,0,1,0,30749.2,0.174444,0.174101,-15.2813,16,0.0152999,10,-0.00266049,-1.81584,-0.396274,-0.148887,88.8481,0.174101,
2,0,0,1,0,30749.2,0.172047,0.171732,-15.5015,16,0.0152383,10,-0.00266211,-1.80963,-0.387559,-0.152235,92.1376,0.171732,
2,0,0,1,0,30749.2,0.169644,0.169335,-15.7209,16,0.0151759,10,-0.00266211,-1.80352,-0.393288,-0.150017,92.0251,0.169335,
2,0,0,1,0,30749.2,0.167242,0.166936,-15.9522,16,0.0151125,10,-0.002663,-1.79718,-0.389359,-0.151531,94.3222,0.166936,
2,0,0,1,0,30749.2,0.164845,0.164517,-16.1633,16,0.0150483,10,-0.00265913,-1.79147,-0.381169,-0.154787,97.7806,0.164517,
2,0,0,1,0,30749.2,0.162448,0.162142,-16.4061,16,0.0149831,10,-0.00266012,-1.78499,-0.377709,-0.156205,100.151,0.162142,
2,0,0,1,0,30749.2,0.160042,0.159719,-16.6613,16,0.0149169,10,-0.00266112,-1.77829,-0.356116,-0.165676,107.81,0.159719,
2,0,0,1,0,30749.2,0.157645,0.157334,-16.9139,16,0.0148497,10,-0.00266113,-1.77176,-0.348562,-0.169267,111.881,0.157334,
2,0,0,1,0,30749.2,0.155248,0.154948,-17.1949,16,0.0147815,10,-0.00266431,-1.7646,-0.33962,-0.173724,116.713,0.154948,
2,0,0,1,0,30749.2,0.152845,0.152562,-17.4779,16,0.0147121,10,-0.00266646,-1.75751,-0.323256,-0.182518,124.687,0.152562,
2,0,0,1,0,30749.2,0.150443,0.150135,-17.7798,16,0.0146416,10,-0.00266937,-1.75007,-0.313243,-0.188352,130.963,0.1501347,
2,0,0,1,0,30749.2,0.148046,0.147751,-18.1087,16,0.0145698,10,-0.00267558,-1.74211,-0.296967,-0.198675,140.728,0.1477509,
2,0,0,1,0,30749.2,0.145648,0.145348,-18.4521,16,0.0144966,10,-0.00268198,-1.73395,-0.281645,-0.209484,151.216,0.145348,
2,0,0,1,0,30749.2,0.14324,0.142891,-18.8389,16,0.014422,10,-0.00269191,-1.72495,-0.269765,-0.218709,161.09,0.142891,
2,0,0,1,0,30749.2,0.140843,0.140534,-19.2317,16,0.0143458,10,-0.0027027,-1.71598,-0.252014,-0.234114,176.209,0.140534,
2,0,0,1,0,30749.2,0.138446,0.138132,-19.6583,16,0.014268,10,-0.00271543,-1.70645,-0.240453,-0.24537,188.912,0.138132,
2,0,0,1,0,30749.3,0.136041,0.135746,-20.1441,16,0.0141884,10,-0.00273448,-1.69585,-0.229809,-0.256735,202.266,0.135746,
2,0,0,1,0,30749.3,0.133644,0.133337,-20.6438,16,0.0141068,10,-0.00275258,-1.68521,-0.220065,-0.268103,216.404,0.133337,
2,0,0,1,0,30749.3,0.131246,0.130932,-21.1738,16,0.0140231,10,-0.00277233,-1.6742,-0.213002,-0.276993,229.504,0.130932,
2,0,0,1,0,30749.3,0.128849,0.128506,-21.7414,16,0.0139372,10,-0.0027939,-1.66271,-0.203295,-0.290218,246.959,0.128506,
2,0,0,1,0,30749.3,0.126441,0.126112,-22.3551,16,0.013849,10,-0.00281925,-1.65062,-0.196109,-0.300853,263.129,0.126112,
2,0,0,1,0,30749.3,0.124044,0.123768,-23.007,16,0.0137582,10,-0.00284752,-1.63814,-0.190292,-0.31005,278.937,0.123768,
2,0,0,1,0,30749.3,0.121647,0.121353,-23.6942,16,0.0136647,10,-0.00287537,-1.62536,-0.187309,-0.314988,291.594,0.121353,
2,0,0,1,0,30749.3,0.119241,0.118923,-24.4145,16,0.0135684,10,-0.00290343,-1.61235,-0.188329,-0.313281,298.54,0.118923,
2,0,0,1,0,30749.3,0.116844,0.116561,-25.1401,16,0.0134693,10,-0.00293036,-1.59963,-0.188818,-0.31247,306.604,0.116561,
2,0,0,1,0,30749.3,0.114447,0.114128,-25.8849,16,0.0133671,10,-0.00295418,-1.58695,-0.189384,-0.311537,314.771,0.114128,
2,0,0,1,0,30749.3,0.11205,0.111718,-26.6483,16,0.013262,10,-0.0029771,-1.57433,-0.193331,-0.305176,317.227,0.111718,
2,0,0,1,0,30749.3,0.109642,0.109366,-27.4225,16,0.0131537,10,-0.0029991,-1.56189,-0.198247,-0.297609,318.033,0.109366,
2,0,0,1,0,30749.3,0.107245,0.106952,-28.1885,16,0.0130424,10,-0.00301481,-1.54993,-0.202857,-0.290845,319.557,0.106952,
2,0,0,1,0,30749.3,0.104848,0.104536,-28.9353,16,0.0129281,10,-0.00302479,-1.53857,-0.210133,-0.280775,316.89,0.104536,
2,0,0,1,0,30749.3,0.10244,0.102128,-29.713,16,0.0128107,10,-0.00303452,-1.52705,-0.218266,-0.270312,312.942,0.102128,
2,0,0,1,0,30749.3,0.100042,0.0997516,-30.4694,16,0.0126903,10,-0.00303937,-1.51614,-0.227833,-0.258962,307.041,0.0997516,
2,0,0,1,0,30749.3,0.0976454,0.0973582,-31.1907,16,0.0125669,10,-0.00303667,-1.50598,-0.238714,-0.247158,300.211,0.0973582,
2,0,0,1,0,30749.3,0.0952427,0.094967,-31.8734,16,0.0124407,10,-0.00302693,-1.49657,-0.247593,-0.238294,296.3,0.094967,
2,0,0,1,0,30749.3,0.0928428,0.0925843,-32.5781,16,0.0123117,10,-0.00301622,-1.48707,-0.257893,-0.228777,290.729,0.0925843,
2,0,0,1,0,30749.3,0.0904457,0.0902196,-33.2937,16,0.0121799,10,-0.00300374,-1.47764,-0.267489,-0.22057,286.069,0.0902196,
2,0,0,1,0,30749.3,0.0880486,0.0877881,-33.973,16,0.0120453,10,-0.00298242,-1.46887,-0.279077,-0.211411,279.742,0.0877881,
2,0,0,1,0,30749.3,0.0856404,0.0853333,-34.6294,16,0.011908,10,-0.00295504,-1.46056,-0.300097,-0.196603,265.115,0.0853333,
2,0,0,1,0,30749.3,0.0832433,0.0829696,-35.2677,16,0.0117682,10,-0.00292615,-1.45262,-0.315999,-0.18671,256.405,0.0829696,
2,0,0,1,0,30749.3,0.0808462,0.0806038,-35.843,16,0.0116259,10,-0.00288908,-1.4456,-0.336474,-0.175348,244.925,0.0806038,
2,0,0,1,0,30749.3,0.0784408,0.0781978,-36.432,16,0.0114813,10,-0.0028489,-1.43852,-0.360771,-0.163538,232.085,0.0781978,
2,0,0,1,0,30749.4,0.0760437,0.0757461,-36.9775,16,0.0113344,10,-0.0028009,-1.43206,-0.385119,-0.153199,220.585,0.0757461,
2,0,0,1,0,30749.4,0.0736466,0.0734313,-37.4814,16,0.0111854,10,-0.00275231,-1.42618,-0.417016,-0.141481,206.597,0.0734313,
2,0,0,1,0,30749.4,0.0712495,0.0709828,-37.9652,16,0.0110345,10,-0.00269488,-1.42061,-0.44696,-0.132003,195.273,0.0709828,
2,0,0,1,0,30749.4,0.0688413,0.0685841,-38.4182,16,0.0108817,10,-0.00263488,-1.41546,-0.48001,-0.122914,184.013,0.0685841,
2,0,0,1,0,30749.4,0.0664442,0.0661685,-38.8477,16,0.0107271,10,-0.0025705,-1.41063,-0.517386,-0.114035,172.633,0.0661685,
2,0,0,1,0,30749.4,0.0640471,0.0638028,-39.2532,16,0.0105709,10,-0.00250446,-1.40612,-0.558867,-0.105571,161.465,0.0638028,
2,0,0,1,0,30749.4,0.0616389,0.0613543,-39.6274,16,0.0104131,10,-0.00243131,-1.402,-0.61795,-0.095477,147.382,0.06135428,
2,0,0,1,0,30749.4,0.0592417,0.0589641,-39.9715,16,0.0102538,10,-0.00235688,-1.39825,-0.698656,-0.0844478,131.451,0.0589641,
2,0,0,1,0,30749.4,0.0568446,0.0565379,-40.2671,16,0.0100933,10,-0.00227662,-1.39505,-0.767321,-0.0768909,120.649,0.0565379,
2,0,0,1,0,30749.4,0.0544475,0.054134,-40.5242,16,0.00993173,10,-0.00219373,-1.39229,-0.877837,-0.0672106,106.182,0.054134,
2,0,0,1,0,30749.4,0.0520421,0.0517268,-40.789,16,0.00976906,10,-0.00210989,-1.38946,-0.986857,-0.0597858,95.0147,0.0517268,
2,0,0,1,0,30749.4,0.049645,0.0493325,-40.9942,16,0.00960546,10,-0.00202234,-1.38728,-1.09969,-0.0536517,85.7103,0.0493325,
2,0,0,1,0,30749.4,0.0472479,0.0469264,-41.1803,16,0.00944109,10,-0.00193244,-1.38531,-1.3241,-0.0445585,71.5244,0.04692639,
2,0,0,1,0,30749.4,0.0448397,0.0445341,-41.347,16,0.00927603,10,-0.00184135,-1.38356,-1.48094,-0.0398397,64.2177,0.0445341,
2,0,0,1,0,30749.4,0.0424426,0.042162,-41.4731,16,0.00911038,10,-0.00174859,-1.38223,-1.72426,-0.0342176,55.345,0.042162,
2,0,0,1,0,30749.4,0.0400455,0.0397071,-41.6123,16,0.00894421,10,-0.0016523,-1.38078,-2.06235,-0.0286081,46.4115,0.0397071,
2,0,0,1,0,30749.4,0.0376456,0.0373668,-41.7094,16,0.00877756,10,-0.00155855,-1.37977,-2.44561,-0.0241249,39.2246,0.0373668,
2,0,0,1,0,30749.4,0.035243,0.0349343,-41.7925,16,0.00861053,10,-0.00145999,-1.3789,-3.32923,-0.0177218,28.8756,0.0349343,
2,0,0,1,0,30749.4,0.0328459,0.0325653,-41.8495,16,0.00844324,10,-0.00136284,-1.37831,-3.89946,-0.0151303,24.699,0.0325653,
2,0,0,1,0,30749.4,0.0304488,0.0301402,-41.8885,16,0.00827575,10,-0.00126253,-1.3779,-5.19028,-0.0113674,18.5802,0.0301402,
2,0,0,1,0,30749.4,0.0280406,0.0277458,-41.947,16,0.00810808,10,-0.00116385,-1.3773,-7.27171,-0.00811364,13.2719,0.0277458,
2,0,0,1,0,30749.4,0.0256435,0.0253132,-41.9713,16,0.00794023,10,-0.00106243,-1.37705,-11.4175,-0.00516749,8.45593,0.0253132,
2,0,0,1,0,30749.4,0.0232463,0.022922,-41.9775,16,0.00777234,10,-0.000962207,-1.37698,-99.8617,-0.000590817,0.967311,0.022922,
2,0,0,1,0,30749.4,0.0208437,0.0204958,-41.9701,16,0.00760446,10,-0.000860209,-1.37706,26.9771,0.00218704,-3.58093,0.0204958,
2,0,0,1,0,30749.4,0.018441,0.0181395,-41.9563,16,0.0074366,10,-0.000761068,-1.3772,13.8525,0.00425917,-6.97204,0.0181395,
2,0,0,1,0,30749.5,0.0160439,0.0157504,-41.937,16,0.00726882,10,-0.000660527,-1.3774,9.01431,0.00654515,-10.7076,0.0157504,
2,0,0,1,0,30749.5,0.0136468,0.013338,-41.9107,16,0.00710112,10,-0.000559005,-1.37768,6.19962,0.00951671,-15.5551,0.013338,
2,0,0,1,0,30749.5,0.0112414,0.0109489,-41.8679,16,0.00693356,10,-0.000458408,-1.37812,4.76944,0.0123704,-20.1993,0.0109489,
2,0,0,1,0,30749.5,0.00884431,0.00850998,-41.8065,16,0.00676621,10,-0.000355773,-1.37876,3.92029,0.0150499,-24.5469,0.00850998,
2,0,0,1,0,30749.5,0.0064472,0.00610816,-41.7423,16,0.00659912,10,-0.000254969,-1.37942,4.15874,0.014187,-23.1191,0.00610816,
2,0,0,1,0,30749.5,0.00404455,0.00372649,-41.6748,16,0.00643232,10,-0.000155301,-1.38013,3.36543,0.0175312,-28.5091,0.00372649,
2,0,0,1,0,30749.5,0.0016419,0.00125892,-41.6438,16,0.00626574,10,-5.24264e-05,-1.38045,2.6671,0.0221214,-35.8885,0.00125892,
2,0,0,1,0,30749.5,-0.000755207,-0.0011588,-41.5309,16,0.00609941,10,4.81262e-05,-1.38163,2.31407,0.0254962,-41.2703,-0.0011588,
2,0,0,1,0,30749.5,-0.00315231,-0.00348852,-41.3979,16,0.00593357,10,0.000144417,-1.38302,1.80308,0.0327218,-52.8564,-0.00348852,
2,0,0,1,0,30749.5,-0.00555774,-0.0058808,-41.2783,16,0.00576821,10,0.000242749,-1.38428,1.6775,0.0351714,-56.6338,-0.0058808,
2,0,0,1,0,30749.5,-0.00795485,-0.00832291,-41.1374,16,0.00560339,10,0.000342383,-1.38576,1.59392,0.0370157,-59.39,-0.00832291,
2,0,0,1,0,30749.5,-0.010352,-0.0107279,-40.989,16,0.00543915,10,0.000439726,-1.38733,1.421,0.04152,-66.3688,-0.0107279,
2,0,0,1,0,30749.5,-0.0127546,-0.0131085,-40.8265,16,0.00527552,10,0.000535176,-1.38906,1.30509,0.0452075,-71.9679,-0.0131085,
2,0,0,1,0,30749.5,-0.0151573,-0.0154955,-40.6401,16,0.0051126,10,0.000629739,-1.39104,1.20888,0.0488053,-77.3645,-0.0154955,
2,0,0,1,0,30749.5,-0.0175544,-0.0179207,-40.4466,16,0.00495044,10,0.00072483,-1.39312,1.14854,0.0513698,-81.0682,-0.0179207,
2,0,0,1,0,30749.5,-0.0199515,-0.0203066,-40.2479,16,0.00478907,10,0.000817297,-1.39526,1.09599,0.0538326,-84.524,-0.0203066,
2,0,0,1,0,30749.5,-0.0223597,-0.0226872,-40.05,16,0.00462849,10,0.000908622,-1.3974,1.02564,0.0575252,-89.8308,-0.0226872,
2,0,0,1,0,30749.5,-0.0247568,-0.0251219,-39.8265,16,0.00446876,10,0.00100052,-1.39983,0.999929,0.0590042,-91.6606,-0.0251219,
2,0,0,1,0,30749.5,-0.0271539,-0.0275354,-39.5829,16,0.00430996,10,0.00108993,-1.40249,0.959998,0.0614585,-94.9592,-0.0275354,
2,0,0,1,0,30749.5,-0.0295593,-0.0299382,-39.3651,16,0.00415209,10,0.00117852,-1.40489,0.934489,0.0631361,-96.9813,-0.0299382,
2,0,0,1,0,30749.5,-0.0319564,-0.0323263,-39.1347,16,0.00399513,10,0.00126508,-1.40744,0.93353,0.0632009,-96.4956,-0.0323263,
2,0,0,1,0,30749.5,-0.0343535,-0.0347196,-38.8957,16,0.0038391,10,0.00135044,-1.4101,0.918675,0.0642229,-97.4908,-0.03471962,
2,0,0,1,0,30749.5,-0.0367506,-0.0370536,-38.6645,16,0.003684,10,0.00143266,-1.41269,0.911864,0.0647027,-97.6303,-0.0370536,
2,0,0,1,0,30749.5,-0.0391588,-0.0395137,-38.4316,16,0.00352983,10,0.00151857,-1.41531,0.936667,0.0629893,-94.495,-0.0395137,
2,0,0,1,0,30749.5,-0.0415559,-0.0419442,-38.1957,16,0.00337661,10,0.00160209,-1.41799,0.959903,0.0614646,-91.678,-0.04194418,
2,0,0,1,0,30749.6,-0.043953,-0.0443354,-37.987,16,0.00322428,10,0.00168417,-1.42036,0.967497,0.0609821,-90.4316,-0.0443354,
2,0,0,1,0,30749.6,-0.0463585,-0.0467393,-37.7765,16,0.00307276,10,0.00176565,-1.42278,0.998785,0.0590718,-87.092,-0.0467393,
2,0,0,1,0,30749.6,-0.0487556,-0.0490786,-37.5666,16,0.00292209,10,0.00184372,-1.4252,1.02578,0.0575175,-84.359,-0.0490786,
2,0,0,1,0,30749.6,-0.0511527,-0.051509,-37.3627,16,0.00277223,10,0.00192452,-1.42756,1.08666,0.0542948,-79.2403,-0.051509,
2,0,0,1,0,30749.6,-0.0535498,-0.0539278,-37.1778,16,0.00262317,10,0.00200492,-1.42972,1.16771,0.0505263,-73.3781,-0.0539278,
2,0,0,1,0,30749.6,-0.055958,-0.0563137,-37.0178,16,0.00247478,10,0.00208461,-1.43159,1.26116,0.0467823,-67.6178,-0.0563137,
2,0,0,1,0,30749.6,-0.0583551,-0.0587081,-36.86,16,0.00232704,10,0.00216398,-1.43344,1.33845,0.0440808,-63.4344,-0.0587081,
2,0,0,1,0,30749.6,-0.0607522,-0.0611641,-36.7098,16,0.00217992,10,0.00224532,-1.43522,1.40962,0.0418551,-59.9951,-0.0611641,
2,0,0,1,0,30749.6,-0.0631604,-0.0635044,-36.5703,16,0.00203338,10,0.00232238,-1.43687,1.54828,0.0381068,-54.4282,-0.0635044,
2,0,0,1,0,30749.6,-0.0655575,-0.0659327,-36.4407,16,0.00188736,10,0.00240264,-1.43841,1.74363,0.0338374,-48.1727,-0.0659327,
2,0,0,1,0,30749.6,-0.0679546,-0.0683112,-36.3373,16,0.00174182,10,0.00248225,-1.43965,1.96438,0.030035,-42.6262,-0.0683112,
2,0,0,1,0,30749.6,-0.0703573,-0.0707363,-36.2487,16,0.00159666,10,0.0025641,-1.44071,2.25565,0.0261565,-37.0169,-0.0707363,
2,0,0,1,0,30749.6,-0.0727571,-0.0731127,-36.1608,16,0.00145185,10,0.00264381,-1.44176,2.46595,0.0239259,-33.7783,-0.0731127,
2,0,0,1,0,30749.6,-0.0751543,-0.0755548,-36.0846,16,0.00130739,10,0.00272636,-1.44268,2.98216,0.0197843,-27.8852,-0.0755548,
2,0,0,1,0,30749.6,-0.0775514,-0.0779174,-36.0128,16,0.0011632,10,0.00280603,-1.44354,3.72321,0.0158466,-22.297,-0.0779174,
2,0,0,1,0,30749.6,-0.0799595,-0.0803023,-35.9819,16,0.00101924,10,0.00288943,-1.44392,4.64949,0.0126896,-17.8281,-0.0803023,
2,0,0,1,0,30749.6,-0.0823567,-0.0827243,-35.9465,16,0.0008754,10,0.00297364,-1.44434,7.16104,0.00823902,-11.5618,-0.0827243,
2,0,0,1,0,30749.6,-0.0847538,-0.0851059,-35.9143,16,0.000731683,10,0.00305652,-1.44473,8.5765,0.00687926,-9.64784,-0.0851059,
2,0,0,1,0,30749.6,-0.0871592,-0.0875597,-35.9013,16,0.000588072,10,0.00314351,-1.44489,15.2918,0.00385828,-5.4088,-0.0875597,
2,0,0,1,0,30749.6,-0.0895563,-0.0899053,-35.8893,16,0.00044448,10,0.00322664,-1.44504,-73.0588,-0.000807569,1.13208,-0.0899053,
2,0,0,1,0,30749.6,-0.0919534,-0.0923146,-35.8946,16,0.00030092,10,0.00331359,-1.44497,-14.0538,-0.00419815,5.8867,-0.0923146,
2,0,0,1,0,30749.6,-0.0943505,-0.0947164,-35.9252,16,0.00015727,10,0.0034027,-1.4446,-8.74291,-0.00674833,9.464,-0.0947164,
2,0,0,1,0,30749.6,-0.0967587,-0.0970917,-35.9575,16,1.34952e-05,10,0.00349117,-1.44421,-6.14319,-0.00960413,13.474,-0.0970917,
2,0,0,1,0,30749.6,-0.0991558,-0.0995232,-35.9803,16,-0.000130372,10,0.00358088,-1.44393,3.87269,0.0152349,-21.3245,-0.0995232,
2,0,0,1,0,30749.6,-0.0999548,-0.100247,-36.0015,16,-0.000177151,10,0.00360906,-1.44368,0.023017,2.56332,-3375.49,-0.100247,
2,0,0,1,1,30749.6,-0.0999548,-0.100324,-35.8056,16,-0.00019866,10,0.00359215,-1.44605,-0.0315305,-1.8712,2315.41,-0.1003238,
2,0,0,1,1,30749.6,-0.0979573,-0.0983769,-31.6193,16,-0.000301508,10,0.00311061,-1.50005,-0.0402054,-1.46747,1712.8,-0.0983769,
2,0,0,1,1,30749.7,-0.0955546,-0.0959836,-27.7846,16,-0.00041972,10,0.00266687,-1.5562,-0.0419749,-1.4056,1544.38,-0.09598358,
2,0,0,1,1,30749.7,-0.093152,-0.0935574,-24.5427,16,-0.000523927,10,0.00229615,-1.61008,-0.0437707,-1.34793,1306.12,-0.0935574,
2,0,0,1,1,30749.7,-0.0907548,-0.0911757,-21.6774,16,-0.000615995,10,0.00197646,-1.66399,-0.0434104,-1.35912,1154.88,-0.09117569,
2,0,0,1,1,30749.7,-0.0883577,-0.0887824,-19.0876,16,-0.000697207,10,0.00169464,-1.71925,-0.0420665,-1.40254,1045.03,-0.0887824,
2,0,0,1,1,30749.7,-0.0859523,-0.0863837,-16.6979,16,-0.000768494,10,0.00144243,-1.77734,-0.0398268,-1.48141,962.986,-0.0863837,
2,0,0,1,1,30749.7,-0.0835552,-0.0839617,-14.515,16,-0.000830652,10,0.0012187,-1.83818,-0.0374736,-1.57444,884.878,-0.08396174,
2,0,0,1,1,30749.7,-0.0811581,-0.0816225,-12.4778,16,-0.000884395,10,0.00101847,-1.90386,-0.0342608,-1.72209,826.86,-0.0816225,
2,0,0,1,1,30749.7,-0.0787555,-0.0791369,-10.5526,16,-0.000930249,10,0.000835098,-1.97664,-0.0306166,-1.92706,777.703,-0.0791369,
2,0,0,1,1,30749.7,-0.0763528,-0.0767796,-8.75667,16,-0.000968646,10,0.000672334,-2.05766,-0.0268534,-2.19711,728.21,-0.0767796,
2,0,0,1,1,30749.7,-0.0739557,-0.0743704,-7.05575,16,-0.00100007,10,0.000524738,-2.15146,-0.0225139,-2.62061,687.559,-0.0743704,
2,0,0,1,1,30749.7,-0.0715586,-0.0719887,-5.46242,16,-0.00102493,10,0.000393232,-2.26262,-0.0177417,-3.3255,649.077,-0.0719887,
2,0,0,1,1,30749.7,-0.0691532,-0.0695413,-3.95502,16,-0.00104359,10,0.000275037,-2.40285,-0.0121923,-4.83913,615.06,-0.0695413,
2,0,0,1,1,30749.7,-0.0667561,-0.0671596,-2.51253,16,-0.00105636,10,0.000168741,-2.59989,-0.00622239,-9.48189,582.417,-0.0671596,
2,0,0,1,1,30749.7,-0.0643589,-0.0647705,-1.15125,16,-0.00106352,10,7.4567e-05,-2.93883,-0.020984,-2.81167,559.754,-0.06477049,
2,0,0,1,1,30749.7,-0.0619563,-0.0623453,0.154029,16,-0.00106537,10,-9.60301e-06,-3.8124,1.18491,0.0497926,529.83,-0.0623453,
2,1,0,1,1,30749.7,-0.0595536,-0.0599965,1.38768,16,-0.00106213,10,-8.32562e-05,-2.85771,0.0189086,3.12028,506.16,-0.0599965,
2,1,0,1,1,30749.7,-0.0571565,-0.0575862,2.55971,16,-0.0010541,10,-0.000147404,-2.59181,0.00644292,9.15734,479.642,-0.0575862,
2,1,0,1,1,30749.7,-0.0547594,-0.0552088,3.68849,16,-0.0010415,10,-0.000203637,-2.43315,0.0154479,3.81929,458.964,-0.0552088,
2,1,0,1,1,30749.7,-0.0523512,-0.0527465,4.75802,16,-0.00102448,10,-0.000250969,-2.32257,0.022697,2.59946,438.748,-0.0527465,
2,1,0,1,1,30749.7,-0.0499541,-0.0504221,5.78199,16,-0.00100329,10,-0.00029154,-2.23792,0.0300388,1.96413,418.009,-0.0504221,
2,1,0,1,1,30749.7,-0.047557,-0.048015,6.75908,16,-0.0009781,10,-0.000324537,-2.17011,0.0371295,1.58903,402.669,-0.048015,
2,1,0,1,1,30749.7,-0.0451544,-0.0455952,7.70708,16,-0.000949067,10,-0.000351406,-2.11311,0.0448359,1.31591,383.964,-0.0455952,
2,1,0,1,1,30749.7,-0.0427545,-0.0431902,8.60608,16,-0.000916347,10,-0.000371698,-2.06519,0.0524373,1.12515,369.147,-0.0431902,
2,1,0,1,1,30749.7,-0.0403574,-0.0408074,9.4737,16,-0.00088008,10,-0.000386597,-2.02348,0.0609757,0.967599,351.234,-0.0408074,
2,1,0,1,1,30749.7,-0.0379603,-0.0384162,10.3024,16,-0.000840434,10,-0.000395781,-1.98706,0.0690045,0.855016,338.443,-0.0384162,
2,1,0,1,1,30749.8,-0.0355521,-0.0359317,11.1012,16,-0.000797538,10,-0.000398886,-1.95463,0.0784585,0.75199,321.36,-0.0359317,
2,1,0,1,1,30749.8,-0.033155,-0.0335998,11.8519,16,-0.000751547,10,-0.00039822,-1.92621,0.087407,0.675003,308.915,-0.0335998,
2,1,0,1,1,30749.8,-0.0307579,-0.0311651,12.5723,16,-0.000702631,10,-0.000391819,-1.90058,0.0971552,0.607276,295.431,-0.0311651,
2,1,0,1,1,30749.8,-0.0283524,-0.0287898,13.2762,16,-0.000650859,10,-0.000382219,-1.87693,0.10771,0.547767,281.378,-0.0287898,
2,1,0,1,1,30749.8,-0.0259553,-0.0263329,13.937,16,-0.000596347,10,-0.000367002,-1.85583,0.117941,0.500249,270.006,-0.0263329,
2,1,0,1,1,30749.8,-0.0235582,-0.0239544,14.5659,16,-0.000539278,10,-0.000348916,-1.83666,0.130355,0.452609,255.708,-0.0239544,
2,1,0,1,1,30749.8,-0.0211611,-0.0215483,15.1689,16,-0.000479741,10,-0.000326865,-1.81904,0.140479,0.419993,247.334,-0.0215483,
2,1,0,1,1,30749.8,-0.0187529,-0.0191285,15.7467,16,-0.000417825,10,-0.000301209,-1.80281,0.153371,0.384687,235.267,-0.0191285,
2,1,0,1,1,30749.8,-0.0163558,-0.0167627,16.304,16,-0.000353669,10,-0.0002733,-1.7877,0.165382,0.356749,225.906,-0.0167627,
2,1,0,1,1,30749.8,-0.0139587,-0.0143301,16.8301,16,-0.000287345,10,-0.000241178,-1.77391,0.178904,0.329785,215.704,-0.0143301,
2,1,0,1,1,30749.8,-0.0115505,-0.0119813,17.3302,16,-0.000218971,10,-0.000207638,-1.7612,0.194752,0.30295,204.133,-0.0119813,
2,1,0,1,1,30749.8,-0.0091534,-0.0095392,17.8151,16,-0.000148625,10,-0.000169942,-1.74921,0.208318,0.28322,196.246,-0.0095392,
2,1,0,1,1,30749.8,-0.00675629,-0.00716177,18.2639,16,-7.64183e-05,10,-0.000130802,-1.73841,0.223458,0.264032,187.748,-0.00716177,
2,1,0,1,1,30749.8,-0.00435919,-0.00473874,18.7124,16,-2.41162e-06,10,-8.86732e-05,-1.72787,0.249224,0.236735,171.726,-0.00473874,
2,1,0,1,1,30749.8,-0.00195376,-0.00233904,19.1405,16,7.33597e-05,10,-4.47703e-05,-1.71805, , , ,-0.00233904,
2,1,0,0,1,30749.8,-7.54729e-05,-0.00042076,19.381,16,0.000133137,10,-8.15475e-06,-1.71262, , , ,-0.00042076,