File: Figure_codes/Fig_3-5/rawdata_trumpetplot_data/after 10th/20221101_1-115_003_TrumpetPlot_ParaChange_from10_every3_08_CV_C01_13.csv
mode,ox/red,error,control changes,counter inc.,time/s,control/V,Ewe/V,<I>/mA,cycle number,(Q-Qo)/C,I Range,P/W,log(|I|),Tafel slope mV/dec,alpha_eff,dI/d(E-IR),E-IR/V,
2,0,0,0,0,26786.7,2.44065e-05,-0.000363498,-4.01481,14,0.0000000E+000,10,1.45937e-06,-2.39634, , , ,-0.000363498,
2,0,0,1,0,26786.7,0.0012943,0.000919101,-2.15503,14,-4.62668e-05,10,-1.98069e-06,-2.66655, , , ,0.000919101,
2,0,0,1,0,26786.7,0.00279784,0.00250539,-0.80159,14,-7.30252e-05,10,-2.0083e-06,-3.09605,-0.0044105,-13.3772,757.977,0.00250539,
2,0,0,1,0,26786.8,0.00429425,0.0039996,0.0948314,14,-7.89366e-05,10,3.79288e-07,-4.02305,-0.035527,-1.66071,524.678,0.0039996,
2,1,0,1,0,26786.8,0.00579065,0.00545779,0.735137,14,-7.06515e-05,10,4.01222e-06,-3.13363,0.00451994,13.0533,393.281,0.00545779,
2,1,0,1,0,26786.8,0.0072942,0.00698785,1.22896,14,-5.16531e-05,10,8.58781e-06,-2.91046,0.00788445,7.48309,299.295,0.006987846,
2,1,0,1,0,26786.8,0.00878347,0.0085012,1.61194,14,-2.47552e-05,10,1.37034e-05,-2.79265,0.0148454,3.97431,232.822,0.0085012,
2,1,0,1,0,26786.8,0.010287,0.00997637,1.9216,14,8.85969e-06,10,1.91706e-05,-2.71634,0.0230334,2.5615,184.276,0.00997637,
2,1,0,1,0,26786.9,0.0117905,0.011473,2.16481,14,4.76776e-05,10,2.48369e-05,-2.66458,0.0319275,1.84794,152.474,0.011473,
2,1,0,1,0,26786.9,0.013278,0.0129226,2.36756,14,9.02044e-05,10,3.05952e-05,-2.6257,0.0426656,1.38285,126.257,0.0129226,
2,1,0,1,0,26786.9,0.0147816,0.0144731,2.54225,14,0.000136702,10,3.67944e-05,-2.59478,0.054183,1.0889,107.147,0.0144731,
2,1,0,1,0,26786.9,0.0162851,0.015949,2.69272,14,0.000186309,10,4.29462e-05,-2.56981,0.0671876,0.878139,91.5265,0.015949,
2,1,0,1,0,26786.9,0.0177744,0.0174583,2.82357,14,0.000237939,10,4.92946e-05,-2.5492,0.082375,0.716237,78.525,0.0174583,
2,1,0,1,0,26787,0.0192779,0.018988,2.93749,14,0.00029233,10,5.57769e-05,-2.53202,0.0958898,0.61529,70.236,0.018988,
2,1,0,1,0,26787,0.0207743,0.020491,3.04575,14,0.000348526,10,6.24106e-05,-2.51631,0.105905,0.557103,65.8689,0.020491,
2,1,0,1,0,26787,0.0222707,0.0219564,3.14515,14,0.000406569,10,6.90561e-05,-2.50236,0.119511,0.493678,60.3721,0.0219564,
2,1,0,1,0,26787,0.0237743,0.0234357,3.2349,14,0.000466701,10,7.58119e-05,-2.49014,0.126635,0.465905,58.628,0.02343566,
2,1,0,1,0,26787,0.0252636,0.0249623,3.31376,14,0.000527748,10,8.2719e-05,-2.47968,0.139063,0.424267,54.7848,0.0249623,
2,1,0,1,0,26787,0.0267671,0.0264596,3.39641,14,0.000590959,10,8.98677e-05,-2.46898,0.138531,0.425898,56.2846,0.02645964,
2,1,0,1,0,26787.1,0.0282706,0.0280016,3.48061,14,0.000655744,10,9.74628e-05,-2.45834,0.143078,0.412362,55.7853,0.0280016,
2,1,0,1,0,26787.1,0.0297581,0.0294383,3.5466,14,0.000721255,10,0.000104406,-2.45019,0.156847,0.376163,52.0085,0.0294383,
2,1,0,1,0,26787.1,0.0312617,0.0309302,3.61553,14,0.000788862,10,0.000111829,-2.44183,0.163385,0.36111,51.0093,0.03093016,
2,1,0,1,0,26787.1,0.0327652,0.0324551,3.6861,14,0.000857791,10,0.000119633,-2.43343,0.171371,0.344283,49.5686,0.0324551,
2,1,0,1,0,26787.1,0.0342545,0.0339166,3.75887,14,0.000927356,10,0.000127488,-2.42494,0.174685,0.337752,49.5818,0.0339166,
2,1,0,1,0,26787.2,0.035758,0.0354433,3.82949,14,0.000999024,10,0.00013573,-2.41686,0.196035,0.300967,44.9499,0.03544328,
2,1,0,1,0,26787.2,0.0372544,0.0369081,3.8964,14,0.00107162,10,0.000143809,-2.40934,0.205383,0.287268,43.7357,0.0369081,
2,1,0,1,0,26787.2,0.0387508,0.0384635,3.96807,14,0.00114538,10,0.000152626,-2.40142,0.211123,0.279457,43.3397,0.0384635,
2,1,0,1,0,26787.2,0.0402544,0.039954,4.03704,14,0.00122092,10,0.000161296,-2.39394,0.209081,0.282188,44.4745,0.039954,
2,1,0,1,0,26787.2,0.0417437,0.0414493,4.11148,14,0.00129699,10,0.000170418,-2.386,0.223124,0.264426,42.3878,0.04144932,
2,1,0,1,0,26787.3,0.0432472,0.0429702,4.18158,14,0.00137516,10,0.000179683,-2.37866,0.232464,0.253803,41.3474,0.0429702,
2,1,0,1,0,26787.3,0.0447507,0.0444484,4.24073,14,0.00145451,10,0.000188494,-2.37256,0.232572,0.253685,42.0219,0.0444484,
2,1,0,1,0,26787.3,0.0462382,0.0459447,4.31372,14,0.00153422,10,0.000198193,-2.36515,0.225056,0.262157,44.0738,0.0459447,
2,1,0,1,0,26787.3,0.0477418,0.0474192,4.38109,14,0.00161609,10,0.000207748,-2.35842,0.227163,0.259725,44.3452,0.0474192,
2,1,0,1,0,26787.3,0.0492453,0.0489571,4.44441,14,0.00169924,10,0.000217585,-2.35219,0.232708,0.253537,43.9148,0.0489571,
2,1,0,1,0,26787.3,0.0507346,0.0504262,4.50436,14,0.00178263,10,0.000227138,-2.34637,0.240603,0.245217,43.1367,0.0504262,
2,1,0,1,0,26787.4,0.0522381,0.0519173,4.56484,14,0.00186811,10,0.000236994,-2.34057,0.2253,0.261873,46.6848,0.0519173,
2,1,0,1,0,26787.4,0.0537345,0.0534555,4.63414,14,0.00195438,10,0.00024772,-2.33403,0.232375,0.253899,45.8702,0.0534555,
2,1,0,1,0,26787.4,0.0552309,0.0549284,4.6934,14,0.0020419,10,0.000257801,-2.32851,0.244872,0.240942,44.1277,0.05492837,
2,1,0,1,0,26787.4,0.0567345,0.0564267,4.74927,14,0.00213101,10,0.000267986,-2.32337,0.268016,0.220136,40.8904,0.0564267,
2,1,0,1,0,26787.4,0.0582237,0.057908,4.81422,14,0.0022203,10,0.000278782,-2.31747,0.266755,0.221177,41.5967,0.057908,
2,1,0,1,0,26787.5,0.0597273,0.0594279,4.87681,14,0.00231169,10,0.000289818,-2.31186,0.286651,0.205825,39.1952,0.0594279,
2,1,0,1,0,26787.5,0.0612308,0.0608976,4.94275,14,0.00240426,10,0.000301001,-2.30603,0.299799,0.196798,37.9034,0.0608976,
2,1,0,1,0,26787.5,0.0627183,0.0624488,4.99217,14,0.00249693,10,0.000311755,-2.30171,0.319823,0.184477,35.9764,0.0624488,
2,1,0,1,0,26787.5,0.0642219,0.0639509,5.04689,14,0.00259158,10,0.000322753,-2.29698,0.305994,0.192814,38.0677,0.0639509,
2,1,0,1,0,26787.5,0.0657254,0.0654203,5.11194,14,0.00268739,10,0.000334425,-2.29141,0.314655,0.187507,37.3868,0.0654203,
2,1,0,1,0,26787.6,0.0672147,0.0669193,5.17679,14,0.00278332,10,0.000346427,-2.28594,0.324313,0.181923,36.6806,0.06691929,
2,1,0,1,0,26787.6,0.0687182,0.0684166,5.231,14,0.00288132,10,0.000357887,-2.28142,0.378483,0.155885,31.7887,0.0684166,
2,1,0,1,0,26787.6,0.0702146,0.0699542,5.28084,14,0.00297977,10,0.000369417,-2.2773,0.354874,0.166256,34.2684,0.0699542,
2,1,0,1,0,26787.6,0.071711,0.0714314,5.33877,14,0.00307918,10,0.000381356,-2.27256,0.325511,0.181253,37.6989,0.0714314,
2,1,0,1,0,26787.6,0.0732145,0.0728752,5.38501,14,0.00318016,10,0.000392434,-2.26881,0.352121,0.167556,35.2094,0.0728752,
2,1,0,1,0,26787.6,0.0747038,0.0743964,5.43576,14,0.00328103,10,0.000404401,-2.26474,0.370354,0.159307,33.7776,0.0743964,
2,1,0,1,0,26787.7,0.0762074,0.0758931,5.4787,14,0.00338383,10,0.000415795,-2.26132,0.398902,0.147906,31.631,0.0758931,
2,1,0,1,0,26787.7,0.0777109,0.0774112,5.52374,14,0.00348752,10,0.000427599,-2.25777,0.366995,0.160765,34.6712,0.07741119,
2,1,0,1,0,26787.7,0.0791984,0.0788608,5.57529,14,0.003591,10,0.000439672,-2.25373,0.376393,0.156751,34.1071,0.0788608,
2,1,0,1,0,26787.7,0.0807019,0.0804086,5.61623,14,0.00369651,10,0.000451593,-2.25056,0.421695,0.139912,30.6736,0.0804086,
2,1,0,1,0,26787.7,0.0822055,0.0818889,5.65624,14,0.00380287,10,0.000463183,-2.24747,0.461278,0.127906,28.2638,0.0818889,
2,1,0,1,0,26787.8,0.0836947,0.0833801,5.69996,14,0.0039088,10,0.000475263,-2.24413,0.49825,0.118414,26.3816,0.0833801,
2,1,0,1,0,26787.8,0.0851983,0.0848406,5.74581,14,0.00401669,10,0.000487478,-2.24065,0.491676,0.119998,26.9237,0.0848406,
2,1,0,1,0,26787.8,0.0866947,0.0863706,5.78888,14,0.00412483,10,0.000499989,-2.23741,0.534773,0.110327,24.9182,0.0863706,
2,1,0,1,0,26787.8,0.0881911,0.0878724,5.8296,14,0.00423375,10,0.000512261,-2.23436,0.540145,0.10923,24.8737,0.0878724,
2,1,0,1,0,26787.8,0.0896946,0.0893738,5.87072,14,0.00434394,10,0.000524689,-2.23131,0.536506,0.109971,25.2156,0.08937382,
2,1,0,1,0,26787.9,0.0911839,0.0908517,5.91884,14,0.00445379,10,0.000537737,-2.22776,0.434272,0.13586,31.3541,0.0908517,
2,1,0,1,0,26787.9,0.0926857,0.0923889,5.9676,14,0.00456567,10,0.00055134,-2.2242,0.426178,0.13844,32.2257,0.0923889,
2,1,0,1,0,26787.9,0.0941892,0.0938815,6.01479,14,0.00467849,10,0.000564678,-2.22078,0.419419,0.140671,33.0101,0.0938815,
2,1,0,1,0,26787.9,0.0956785,0.0953601,6.06436,14,0.00479099,10,0.000578298,-2.21721,0.375236,0.157235,37.246,0.0953601,
2,1,0,1,0,26787.9,0.097182,0.0968622,6.12146,14,0.00490572,10,0.000592938,-2.21315,0.32692,0.180472,43.1129,0.0968622,
2,1,0,1,0,26787.9,0.0986856,0.0984025,6.18515,14,0.00502163,10,0.000608634,-2.20865,0.309799,0.190446,45.9904,0.0984025,
2,1,0,1,0,26788,0.100175,0.0998159,6.24652,14,0.00513748,10,0.000623502,-2.20436,0.31252,0.188788,46.0725,0.0998159,
2,1,0,1,0,26788,0.101678,0.101339,6.31327,14,0.00525585,10,0.000639781,-2.19975,0.283319,0.208246,51.3858,0.101339,
2,1,0,1,0,26788,0.103175,0.102877,6.39504,14,0.00537492,10,0.000657903,-2.19416,0.271292,0.217478,54.3182,0.102877,
2,1,0,1,0,26788,0.104671,0.104374,6.47302,14,0.00549548,10,0.000675613,-2.18889,0.256663,0.229873,58.1487,0.104374,
2,1,0,1,0,26788,0.106175,0.105887,6.55887,14,0.00561832,10,0.000694497,-2.18317,0.249739,0.236247,60.5534,0.105887,
2,1,0,1,0,26788.1,0.107662,0.10734,6.65205,14,0.00574156,10,0.000714034,-2.17704,0.234744,0.251338,65.36,0.10734,
2,1,0,1,0,26788.1,0.109166,0.108837,6.75675,14,0.00586789,10,0.000735383,-2.17026,0.232965,0.253256,66.8687,0.108837,
2,1,0,1,0,26788.1,0.110669,0.11036,6.86035,14,0.00599622,10,0.000757108,-2.16365,0.225891,0.261187,69.9727,0.11036,
2,1,0,1,0,26788.1,0.112159,0.111805,6.96276,14,0.00612513,10,0.00077847,-2.15722,0.240643,0.245177,66.6748,0.111805,
2,1,0,1,0,26788.1,0.113662,0.113371,7.07621,14,0.00625735,10,0.00080224,-2.1502,0.244319,0.241487,66.6459,0.113371,
2,1,0,1,0,26788.2,0.115166,0.114858,7.17558,14,0.0063915,10,0.000824176,-2.14414,0.245232,0.240588,67.3819,0.114858,
2,1,0,1,0,26788.2,0.116655,0.116324,7.28569,14,0.00652615,10,0.000847503,-2.13753,0.250674,0.235365,66.8457,0.116324,
2,1,0,1,0,26788.2,0.118158,0.117843,7.39034,14,0.00666426,10,0.000870896,-2.13134,0.256501,0.230019,66.2226,0.117843,
2,1,0,1,0,26788.2,0.119655,0.119351,7.48667,14,0.00680347,10,0.000893545,-2.12571,0.270367,0.218222,63.6739,0.119351,
2,1,0,1,0,26788.2,0.121151,0.120792,7.5729,14,0.00694438,10,0.000914742,-2.12074,0.286408,0.206,60.8266,0.120792,
2,1,0,1,0,26788.2,0.122655,0.122328,7.66399,14,0.00708776,10,0.000937521,-2.11555,0.290838,0.202862,60.5857,0.122328,
2,1,0,1,0,26788.3,0.124142,0.12385,7.74249,14,0.00723123,10,0.000958905,-2.11112,0.316029,0.186692,56.3677,0.12385,
2,1,0,1,0,26788.3,0.125646,0.12533,7.81523,14,0.00737774,10,0.00097948,-2.10706,0.372197,0.158518,48.3127,0.12533,
2,1,0,1,0,26788.3,0.127149,0.126843,7.8829,14,0.00752566,10,0.000999887,-2.10331,0.388857,0.151727,46.6677,0.126843,
2,1,0,1,0,26788.3,0.128639,0.128338,7.95033,14,0.00767316,10,0.00102033,-2.09961,0.428763,0.137605,42.714,0.128338,
2,1,0,1,0,26788.3,0.130142,0.12984,8.0114,14,0.00782348,10,0.0010402,-2.09629,0.447522,0.131837,41.2248,0.12984,
2,1,0,1,0,26788.4,0.131646,0.131357,8.0681,14,0.00797499,10,0.0010598,-2.09323,0.542501,0.108756,34.2416,0.131357,
2,1,0,1,0,26788.4,0.133135,0.132818,8.1227,14,0.00812592,10,0.00107884,-2.0903,0.560613,0.105242,33.3582,0.132818,
2,1,0,1,0,26788.4,0.134639,0.134338,8.16874,14,0.00827933,10,0.00109738,-2.08784,0.62687,0.0941184,30.0273,0.134338,
2,1,0,1,0,26788.4,0.136135,0.135854,8.22145,14,0.00843287,10,0.00111691,-2.08505,0.658982,0.0895321,28.7176,0.135854,
2,1,0,1,0,26788.4,0.137631,0.137318,8.26725,14,0.00858725,10,0.00113524,-2.08264,0.765056,0.0771185,24.8547,0.137318,
2,1,0,1,0,26788.5,0.139135,0.138835,8.30273,14,0.00874322,10,0.00115271,-2.08078,0.993113,0.0594092,19.2309,0.138835,
2,1,0,1,0,26788.5,0.140622,0.140319,8.33041,14,0.00889804,10,0.00116892,-2.07933,1.27997,0.0460948,14.9767,0.140319,
2,1,0,1,0,26788.5,0.142126,0.141826,8.34626,14,0.009055,10,0.00118372,-2.07851,1.68825,0.0349474,11.3688,0.141826,
2,1,0,1,0,26788.5,0.143629,0.143327,8.36547,14,0.00921229,10,0.00119899,-2.07751,18.0533,0.00326811,1.06374,0.143327,
2,1,0,1,0,26788.5,0.145119,0.144851,8.34778,14,0.00936794,10,0.00120918,-2.07843,-1.34209,-0.0439612,-14.2882,0.144851,
2,1,0,1,0,26788.5,0.146622,0.146309,8.31439,14,0.00952479,10,0.00121647,-2.08017,-0.679253,-0.0868601,-28.1225,0.146309,
2,1,0,1,0,26788.6,0.148126,0.147775,8.25913,14,0.00968083,10,0.00122049,-2.08307,-0.448366,-0.131589,-42.2861,0.147775,
2,1,0,1,0,26788.6,0.149615,0.149313,8.18339,14,0.009834,10,0.00122189,-2.08707,-0.302228,-0.195217,-62.1228,0.149313,
2,1,0,1,0,26788.6,0.151119,0.150777,8.06594,14,0.00998704,10,0.00121616,-2.09334,-0.221331,-0.266569,-83.6566,0.1507774,
2,1,0,1,0,26788.6,0.152615,0.152316,7.92266,14,0.0101369,10,0.00120675,-2.10113,-0.180276,-0.327276,-100.941,0.152316,
2,1,0,1,0,26788.6,0.154111,0.153779,7.75127,14,0.0102838,10,0.00119198,-2.11063,-0.141494,-0.416978,-125.862,0.153779,
2,1,0,1,0,26788.7,0.155615,0.155301,7.55375,14,0.010428,10,0.00117311,-2.12184,-0.123549,-0.477544,-140.39,0.155301,
2,1,0,1,0,26788.7,0.157103,0.156777,7.33517,14,0.0105668,10,0.00114999,-2.13459,-0.106096,-0.556102,-158.687,0.156777,
2,1,0,1,0,26788.7,0.158606,0.158333,7.09246,14,0.0107027,10,0.00112297,-2.1492,-0.0946137,-0.623588,-172.159,0.158333,
2,1,0,1,0,26788.7,0.16011,0.159793,6.82689,14,0.0108337,10,0.00109089,-2.16578,-0.0891166,-0.662054,-176.203,0.159793,
2,1,0,1,0,26788.7,0.161599,0.1613,6.56868,14,0.0109585,10,0.00105953,-2.18252,-0.0842577,-0.700233,-179.182,0.1612996,
2,1,0,1,0,26788.8,0.163102,0.162782,6.29787,14,0.0110796,10,0.00102518,-2.20081,-0.0812172,-0.726447,-178.541,0.162782,
2,1,0,1,0,26788.8,0.164606,0.16431,6.0486,14,0.0111957,10,0.000993843,-2.21835,-0.083098,-0.710005,-167.503,0.16431,
2,1,0,1,0,26788.8,0.166095,0.165763,5.79516,14,0.0113059,10,0.000960622,-2.23693,-0.0841551,-0.701087,-158.725,0.165763,
2,1,0,1,0,26788.8,0.167599,0.167275,5.56466,14,0.0114127,10,0.000930829,-2.25456,-0.0873333,-0.675573,-146.791,0.167275,
2,1,0,1,0,26788.8,0.169095,0.168808,5.35392,14,0.0115149,10,0.000903786,-2.27133,-0.0909133,-0.64897,-135.658,0.168808,
2,1,0,1,0,26788.8,0.170592,0.170315,5.15463,14,0.0116132,10,0.000877911,-2.2878,-0.0958081,-0.615814,-124.012,0.170315,
2,1,0,1,0,26788.9,0.172095,0.171792,4.96527,14,0.0117085,10,0.000852991,-2.30406,-0.101037,-0.583943,-113.484,0.171792,
2,1,0,1,0,26788.9,0.173583,0.17329,4.80574,14,0.0117996,10,0.000832784,-2.31824,-0.111656,-0.528409,-99.3088,0.17329,
2,1,0,1,0,26788.9,0.175086,0.174768,4.6578,14,0.0118888,10,0.000814033,-2.33182,-0.118051,-0.499784,-91.0732,0.174768,
2,1,0,1,0,26788.9,0.17659,0.176299,4.52381,14,0.0119753,10,0.000797543,-2.3445,-0.123831,-0.476457,-84.3407,0.176299,
2,1,0,1,0,26788.9,0.178079,0.17774,4.40791,14,0.0120587,10,0.000783461,-2.35577,-0.134401,-0.438985,-75.7015,0.17774,
2,1,0,1,0,26789,0.179582,0.179273,4.30347,14,0.0121408,10,0.000771497,-2.36618,-0.143592,-0.410885,-69.2009,0.179273,
2,1,0,1,0,26789,0.181086,0.18076,4.19995,14,0.012221,10,0.000759186,-2.37676,-0.161945,-0.36432,-59.9801,0.18076,
2,1,0,1,0,26789,0.182575,0.182316,4.1265,14,0.0122987,10,0.000752329,-2.38442,-0.166333,-0.354709,-57.1167,0.182316,
2,1,0,1,0,26789,0.184079,0.18375,4.04511,14,0.0123757,10,0.000743289,-2.39307,-0.179952,-0.327865,-51.8583,0.18375,
2,1,0,1,0,26789,0.185582,0.185286,3.97542,14,0.0124513,10,0.000736589,-2.40062,-0.203109,-0.290485,-45.1287,0.185286,
2,1,0,1,0,26789.1,0.18707,0.186777,3.91593,14,0.0125248,10,0.000731406,-2.40716,-0.223141,-0.264407,-40.4238,0.1867771,
2,1,0,1,0,26789.1,0.188573,0.188302,3.85678,14,0.012598,10,0.000726239,-2.41378,-0.239462,-0.246386,-37.0865,0.188302,
2,1,0,1,0,26789.1,0.19007,0.189789,3.80862,14,0.0126699,10,0.000722834,-2.41923,-0.254932,-0.231435,-34.3513,0.189789,
2,1,0,1,0,26789.1,0.191566,0.191255,3.75465,14,0.0127407,10,0.000718095,-2.42543,-0.296266,-0.199145,-29.1935,0.191255,
2,1,0,1,0,26789.1,0.19307,0.192746,3.7089,14,0.012811,10,0.000714876,-2.43075,-0.35443,-0.166464,-24.1194,0.192746,
2,1,0,1,0,26789.1,0.194559,0.194271,3.67283,14,0.0128799,10,0.000713523,-2.435,-0.381499,-0.154653,-22.1791,0.194271,
2,1,0,1,0,26789.2,0.196063,0.195778,3.62886,14,0.0129488,10,0.000710451,-2.44023,-0.35755,-0.165012,-23.4125,0.195778,
2,1,0,1,0,26789.2,0.197566,0.197241,3.58693,14,0.013017,10,0.00070749,-2.44528,-0.381771,-0.154543,-21.7216,0.197241,
2,1,0,1,0,26789.2,0.199055,0.198751,3.56697,14,0.0130838,10,0.00070894,-2.4477,-0.436402,-0.135196,-18.8421,0.198751,
2,1,0,1,0,26789.2,0.200559,0.200229,3.53173,14,0.0131508,10,0.000707154,-2.45201,-0.481853,-0.122444,-16.9321,0.200229,
2,1,0,1,0,26789.2,0.202062,0.201751,3.51044,14,0.0132172,10,0.000708235,-2.45464,-0.453356,-0.13014,-17.8213,0.201751,
2,1,0,1,0,26789.3,0.20355,0.203214,3.48267,14,0.0132826,10,0.000707727,-2.45809,-0.467066,-0.12632,-17.1925,0.203214,
2,1,0,1,0,26789.3,0.205053,0.204741,3.4613,14,0.0133481,10,0.000708669,-2.46076,-0.577182,-0.102221,-13.8579,0.204741,
2,1,0,1,0,26789.3,0.20655,0.206279,3.44629,14,0.0134129,10,0.000710899,-2.46265,-0.5462,-0.108019,-14.5234,0.206279,
2,1,0,1,0,26789.3,0.208046,0.207712,3.43069,14,0.0134774,10,0.000712595,-2.46462,-0.590053,-0.099991,-13.3694,0.207712,
2,1,0,1,0,26789.3,0.20955,0.209236,3.40895,14,0.0135419,10,0.000713274,-2.46738,-0.515244,-0.114509,-15.2318,0.2092357,
2,1,0,1,0,26789.4,0.211039,0.210746,3.3919,14,0.0136053,10,0.00071483,-2.46956,-0.531848,-0.110934,-14.6837,0.210746,
2,1,0,1,0,26789.4,0.212543,0.212265,3.37972,14,0.013669,10,0.000717396,-2.47112,-0.71599,-0.0824034,-10.8462,0.212265,
2,1,0,1,0,26789.4,0.214046,0.213746,3.36411,14,0.0137326,10,0.000719065,-2.47313,-0.836261,-0.0705521,-9.25064,0.213746,
2,1,0,1,0,26789.4,0.215535,0.215252,3.3494,14,0.0137951,10,0.000720967,-2.47503,-0.857125,-0.0688347,-8.98155,0.2152523,
2,1,0,1,0,26789.4,0.217039,0.216792,3.32234,14,0.013858,10,0.000720256,-2.47856,-1.02555,-0.0575301,-7.47814,0.216792,
2,1,0,1,0,26789.4,0.218543,0.218227,3.31801,14,0.0139206,10,0.000724079,-2.47912,-2.00973,-0.0293571,-3.79658,0.218227,
2,1,0,1,0,26789.5,0.22003,0.219756,3.31107,14,0.0139825,10,0.000727626,-2.48003,-1.59037,-0.0370983,-4.78231,0.219756,
2,1,0,1,0,26789.5,0.221534,0.22129,3.29396,14,0.0140447,10,0.00072892,-2.48228,-1.03399,-0.0570605,-7.33226,0.22129,
2,1,0,1,0,26789.5,0.22303,0.222739,3.27664,14,0.0141065,10,0.000729833,-2.48457,-1.24499,-0.0473898,-6.07078,0.222739,
2,1,0,1,0,26789.5,0.224526,0.224229,3.26621,14,0.0141679,10,0.000732379,-2.48596,-1.14369,-0.0515874,-6.58509,0.224229,
2,1,0,1,0,26789.5,0.22603,0.225756,3.26073,14,0.0142295,10,0.000736131,-2.48668,-1.05869,-0.0557292,-7.08981,0.225756,
2,1,0,1,0,26789.6,0.227519,0.227245,3.25007,14,0.0142904,10,0.000738563,-2.48811,-0.938372,-0.0628748,-7.97834,0.2272449,
2,1,0,1,0,26789.6,0.229023,0.228692,3.24132,14,0.0143517,10,0.000741265,-2.48928,-0.835908,-0.070582,-8.93854,0.2286925,
2,1,0,1,0,26789.6,0.230526,0.230218,3.23039,14,0.0144128,10,0.000743694,-2.49074,-0.89709,-0.0657682,-8.31263,0.2302178,
2,1,0,1,0,26789.6,0.232016,0.231717,3.22969,14,0.0144731,10,0.000748374,-2.49084,-1.29311,-0.0456265,-5.7484,0.231717,
2,1,0,1,0,26789.6,0.233519,0.233244,3.2267,14,0.0145339,10,0.00075261,-2.49124,-0.994783,-0.0593094,-7.45346,0.233244,
2,1,0,1,0,26789.7,0.235023,0.234712,3.22146,14,0.0145946,10,0.000756114,-2.49195,-1.06731,-0.055279,-6.93227,0.2347118,
2,1,0,1,0,26789.7,0.23651,0.236166,3.2062,14,0.0146545,10,0.000757194,-2.49401,-1.56606,-0.0376741,-4.71072,0.236166,
2,1,0,1,0,26789.7,0.238014,0.237673,3.19862,14,0.0147149,10,0.000760228,-2.49504,-3.69924,-0.0159492,-1.98881,0.2376734,
2,1,0,1,0,26789.7,0.23951,0.239198,3.19101,14,0.0147748,10,0.000763284,-2.49607,-3.64855,-0.0161708,-2.01413,0.239198,
2,1,0,1,0,26789.7,0.241006,0.240693,3.18773,14,0.0148347,10,0.000767265,-2.49652,-2.03952,-0.0289284,-3.59284,0.240693,
2,1,0,1,0,26789.7,0.24251,0.242175,3.17042,14,0.0148947,10,0.000767797,-2.49888,-5.78786,-0.0101937,-1.26412,0.242175,
2,1,0,1,0,26789.8,0.243999,0.243699,3.16701,14,0.0149539,10,0.000771797,-2.49935,-6.70023,-0.00880567,-1.09007,0.243699,
2,1,0,1,0,26789.8,0.245503,0.245252,3.1661,14,0.0150137,10,0.000776493,-2.49948,-2.73998,-0.021533,-2.66078,0.2452521,
2,1,0,1,0,26789.8,0.247006,0.246726,3.15856,14,0.0150734,10,0.000779298,-2.50051,-2.2064,-0.0267404,-3.29672,0.246726,
2,1,0,1,0,26789.8,0.248496,0.24819,3.14587,14,0.0151324,10,0.000780775,-2.50226,-2.03276,-0.0290245,-3.57343,0.24819,
2,1,0,1,0,26789.8,0.249999,0.249724,3.14293,14,0.0151918,10,0.000784865,-2.50267,-1.4654,-0.0402622,-4.94872,0.249724,
2,1,0,1,0,26789.9,0.251503,0.251211,3.1372,14,0.0152511,10,0.000788097,-2.50346,-1.84558,-0.0319682,-3.92193,0.251211,
2,1,0,1,0,26789.9,0.25299,0.252687,3.13354,14,0.0153098,10,0.000791803,-2.50396,-1.04344,-0.0565436,-6.92096,0.252687,
2,1,0,1,0,26789.9,0.254494,0.254211,3.12973,14,0.0153689,10,0.00079561,-2.50449,-1.09564,-0.0538497,-6.58452,0.2542105,
2,1,0,1,0,26789.9,0.25599,0.255691,3.12609,14,0.0154276,10,0.000799312,-2.505,-1.70485,-0.0346072,-4.22574,0.255691,
2,1,0,1,0,26789.9,0.257487,0.257188,3.12339,14,0.0154862,10,0.000803299,-2.50537,-2.2069,-0.0267344,-3.25452,0.2571885,
2,1,0,1,0,26790,0.25899,0.258733,3.12638,14,0.0155451,10,0.000808896,-2.50496,-2.99225,-0.0197176,-2.39743,0.258733,
2,1,0,1,0,26790,0.260479,0.26025,3.11923,14,0.0156033,10,0.000811779,-2.50595,-1.28125,-0.0460489,-5.59179,0.26025,
2,1,0,1,0,26790,0.261983,0.261643,3.11187,14,0.0156619,10,0.000814201,-2.50698,-2.30354,-0.0256127,-3.10436,0.261643,
2,1,0,1,0,26790,0.263486,0.2632,3.1042,14,0.0157205,10,0.000817025,-2.50805,22.3786,0.00263644,0.318723,0.2632,
2,1,0,1,0,26790,0.264974,0.264707,3.09903,14,0.0157784,10,0.000820334,-2.50877,-5.64849,-0.0104453,-1.26274,0.264707,
2,1,0,1,0,26790,0.266477,0.266173,3.08975,14,0.0158368,10,0.000822407,-2.51008,-2.79808,-0.0210859,-2.54266,0.266173,
2,1,0,1,0,26790.1,0.267981,0.267668,3.07962,14,0.0158951,10,0.000824318,-2.5115,-3.56761,-0.0165377,-1.99308,0.267668,
2,1,0,1,0,26790.1,0.26947,0.269205,3.07761,14,0.0159526,10,0.000828507,-2.51179,-15.7128,-0.00375489,-0.45154,0.269205,
2,1,0,1,0,26790.1,0.270974,0.27075,3.07553,14,0.0160107,10,0.000832701,-2.51208,-3.36934,-0.0175109,-2.10159,0.27075,
2,1,0,1,0,26790.1,0.27247,0.272187,3.07121,14,0.0160685,10,0.000835944,-2.51269,-1.6581,-0.0355829,-4.26037,0.272187,
2,1,0,1,0,26790.1,0.273967,0.273664,3.05952,14,0.0161261,10,0.000837278,-2.51435,-1.2048,-0.0489707,-5.86604,0.273664,
2,1,0,1,0,26790.2,0.27547,0.275199,3.05627,14,0.0161839,10,0.000841085,-2.51481,-1.20464,-0.0489772,-5.85154,0.275199,
2,1,0,1,0,26790.2,0.276959,0.276687,3.05352,14,0.016241,10,0.000844869,-2.5152,-1.75116,-0.033692,-4.01818,0.276687,
2,1,0,1,0,26790.2,0.278463,0.278159,3.05292,14,0.0162987,10,0.000849197,-2.51528,-1.20741,-0.0488648,-5.81528,0.278159,
2,1,0,1,0,26790.2,0.279967,0.279703,3.0455,14,0.0163562,10,0.000851836,-2.51634,-1.23905,-0.0476172,-5.65892,0.279703,
2,1,0,1,0,26790.2,0.281454,0.281155,3.04377,14,0.016413,10,0.000855773,-2.51659,-2.00499,-0.0294265,-3.49434,0.281155,
2,1,0,1,0,26790.3,0.282958,0.282652,3.03386,14,0.0164703,10,0.000857526,-2.518,-2.12566,-0.0277561,-3.28581,0.282652,
2,1,0,1,0,26790.3,0.284461,0.284143,3.03498,14,0.0165275,10,0.000862368,-2.51784,-4.01572,-0.0146922,-1.73569,0.284143,
2,1,0,1,0,26790.3,0.28595,0.285649,3.02667,14,0.016584,10,0.000864566,-2.51903,-1.76116,-0.0335006,-3.95471,0.2856487,
2,1,0,1,0,26790.3,0.287454,0.287132,3.01655,14,0.016641,10,0.000866149,-2.52049,-2.56432,-0.0230081,-2.71014,0.287132,
2,1,0,1,0,26790.3,0.28895,0.288704,3.01552,14,0.0166976,10,0.000870592,-2.52064,-57.745,-0.00102173,-0.120132,0.288704,
2,1,0,1,0,26790.3,0.290447,0.290157,3.00278,14,0.0167541,10,0.000871279,-2.52248,-3.54632,-0.0166369,-1.95322,0.290157,
2,1,0,1,0,26790.4,0.29195,0.291622,3.00079,14,0.0168109,10,0.000875096,-2.52276,-2.63991,-0.0223492,-2.6185,0.291622,
2,1,0,1,0,26790.4,0.29344,0.293094,2.99225,14,0.0168669,10,0.000877012,-2.524,-2.30889,-0.0255534,-2.98828,0.293094,
2,1,0,1,0,26790.4,0.294943,0.294643,2.98551,14,0.0169234,10,0.00087966,-2.52498,-3.47965,-0.0169557,-1.9821,0.294643,
2,1,0,1,0,26790.4,0.296447,0.296164,2.9862,14,0.0169798,10,0.000884405,-2.52488,-2.43195,-0.0242604,-2.82551,0.296164,
2,1,0,1,0,26790.4,0.297934,0.297621,2.97963,14,0.0170356,10,0.000886799,-2.52584,-1.46604,-0.0402445,-4.67692,0.297621,
2,1,0,1,0,26790.5,0.299438,0.299177,2.97066,14,0.0170918,10,0.000888752,-2.52715,-0.0266525,-2.21368,-234.302,0.299177,
2,1,0,1,0,26790.5,0.300012,0.29967,2.97518,14,0.0171127,10,0.000891574,-2.52649,0.00132873,44.4032,3019.74,0.29967,
2,1,0,1,0,26790.5,0.298737,0.298418,1.27633,14,0.0171438,10,0.000380881,-2.89404,0.00239586,24.6258,882.928,0.298418,
2,1,0,1,0,26790.5,0.29724,0.296956,0.349283,14,0.0171579,10,0.000103722,-3.45682,0.00529937,11.1334,521.013,0.2969563,
2,0,0,1,0,26790.5,0.295744,0.295448,-0.189324,14,0.0171588,10,-5.59355e-05,-3.72279,-24.818,-0.00237731,297.672,0.295448,
2,0,0,1,0,26790.5,0.29424,0.293902,-0.515166,14,0.0171518,10,-0.000151408,-3.28805,-0.00285302,-20.6798,192.44,0.293902,
2,0,0,1,0,26790.6,0.292751,0.292391,-0.730531,14,0.0171398,10,-0.000213601,-3.13636,-0.0111589,-5.28725,133.087,0.292391,
2,0,0,1,0,26790.6,0.291248,0.290937,-0.893957,14,0.0171242,10,-0.000260085,-3.04868,-0.020265,-2.91143,96.296,0.290937,
2,0,0,1,0,26790.6,0.289744,0.289437,-1.01792,14,0.017106,10,-0.000294622,-2.99229,-0.0302704,-1.9491,75.1111,0.289437,
2,0,0,1,0,26790.6,0.288257,0.287921,-1.10927,14,0.017086,10,-0.000319382,-2.95496,-0.0421217,-1.4007,59.583,0.2879208,
2,0,0,1,0,26790.6,0.286753,0.28639,-1.18427,14,0.0170641,10,-0.000339164,-2.92655,-0.0549119,-1.07445,49.348,0.28639,
2,0,0,1,0,26790.6,0.285249,0.28495,-1.25354,14,0.0170409,10,-0.000357196,-2.90186,-0.0677683,-0.870614,42.4531,0.28495,
2,0,0,1,0,26790.7,0.28376,0.283408,-1.31253,14,0.0170167,10,-0.000371983,-2.88189,-0.0799102,-0.738329,37.7776,0.283408,
2,0,0,1,0,26790.7,0.282257,0.281949,-1.37064,14,0.0169912,10,-0.00038645,-2.86308,-0.101077,-0.583711,31.1395,0.281949,
2,0,0,1,0,26790.7,0.28076,0.280453,-1.41883,14,0.0169649,10,-0.000397914,-2.84807,-0.122842,-0.480293,26.5223,0.280453,
2,0,0,1,0,26790.7,0.279264,0.278935,-1.46499,14,0.0169377,10,-0.000408637,-2.83417,-0.131901,-0.447305,25.4525,0.278935,
2,0,0,1,0,26790.7,0.27776,0.277431,-1.50983,14,0.0169097,10,-0.000418875,-2.82107,-0.139799,-0.422035,24.6753,0.277431,
2,0,0,1,0,26790.8,0.276271,0.27596,-1.54542,14,0.0168812,10,-0.000426474,-2.81095,-0.15038,-0.392338,23.5524,0.27596,
2,0,0,1,0,26790.8,0.274767,0.274443,-1.58238,14,0.0168517,10,-0.000434273,-2.80069,-0.165821,-0.355804,21.8736,0.274443,
2,0,0,1,0,26790.8,0.273264,0.272983,-1.61002,14,0.0168216,10,-0.000439508,-2.79317,-0.160185,-0.368325,23.1054,0.272983,
2,0,0,1,0,26790.8,0.271776,0.27145,-1.63729,14,0.0167912,10,-0.000444441,-2.78588,-0.152387,-0.387173,24.764,0.27145,
2,0,0,1,0,26790.8,0.270273,0.269966,-1.67685,14,0.0167599,10,-0.000452693,-2.77551,-0.162854,-0.362287,23.6376,0.269966,
2,0,0,1,0,26790.9,0.268769,0.268475,-1.69839,14,0.016728,10,-0.000455976,-2.76996,-0.193251,-0.305302,20.2247,0.268475,
2,0,0,1,0,26790.9,0.26728,0.266982,-1.72314,14,0.0166959,10,-0.000460048,-2.76368,-0.210872,-0.279791,18.8658,0.266982,
2,0,0,1,0,26790.9,0.265777,0.265486,-1.75286,14,0.016663,10,-0.000465359,-2.75625,-0.214838,-0.274625,18.7542,0.265486,
2,0,0,1,0,26790.9,0.26428,0.263918,-1.77378,14,0.0166298,10,-0.000468131,-2.7511,-0.229302,-0.257302,17.8661,0.263918,
2,0,0,1,0,26790.9,0.262784,0.262447,-1.80425,14,0.016596,10,-0.000473521,-2.7437,-0.261908,-0.22527,15.8531,0.262447,
2,0,0,1,0,26790.9,0.26128,0.260954,-1.82277,14,0.0165617,10,-0.000475659,-2.73927,-0.305668,-0.19302,13.7632,0.260954,
2,0,0,1,0,26791,0.259791,0.259473,-1.8485,14,0.0165273,10,-0.000479635,-2.73318,-0.293618,-0.200941,14.5268,0.259473,
2,0,0,1,0,26791,0.258287,0.257978,-1.87204,14,0.0164921,10,-0.000482944,-2.72769,-0.333502,-0.176911,12.9354,0.257978,
2,0,0,1,0,26791,0.256786,0.256499,-1.89468,14,0.0164565,10,-0.000485985,-2.72246,-0.349163,-0.168975,12.4823,0.256499,
2,0,0,1,0,26791,0.255296,0.254965,-1.92566,14,0.0164208,10,-0.000490976,-2.71542,-0.400454,-0.147333,11.0061,0.254965,
2,0,0,1,0,26791,0.253793,0.253461,-1.93971,14,0.0163844,10,-0.00049164,-2.71226,-0.389524,-0.151467,11.4614,0.253461,
2,0,0,1,0,26791.1,0.252289,0.251968,-1.96406,14,0.0163476,10,-0.000494879,-2.70685,-0.309105,-0.190874,14.5915,0.251968,
2,0,0,1,0,26791.1,0.2508,0.250456,-1.97962,14,0.0163108,10,-0.000495808,-2.70342,-0.366842,-0.160832,12.4301,0.250456,
2,0,0,1,0,26791.1,0.249296,0.249006,-1.99717,14,0.0162732,10,-0.000497308,-2.69958,-0.360317,-0.163744,12.7621,0.249006,
2,0,0,1,0,26791.1,0.2478,0.247481,-2.01435,14,0.0162355,10,-0.000498514,-2.69587,-0.338153,-0.174477,13.7434,0.247481,
2,0,0,1,0,26791.1,0.246304,0.246039,-2.03274,14,0.0161975,10,-0.000500134,-2.69192,-0.298807,-0.197452,15.6693,0.246039,
2,0,0,1,0,26791.2,0.2448,0.244478,-2.05605,14,0.0161588,10,-0.00050266,-2.68697,-0.303768,-0.194227,15.5789,0.244478,
2,0,0,1,0,26791.2,0.243313,0.242998,-2.07059,14,0.0161202,10,-0.00050315,-2.68391,-0.35247,-0.16739,13.54,0.242998,
2,0,0,1,0,26791.2,0.241809,0.241489,-2.07937,14,0.0160809,10,-0.000502144,-2.68207,-0.414434,-0.142363,11.6245,0.241489,
2,0,0,1,0,26791.2,0.240306,0.240008,-2.10123,14,0.0160413,10,-0.00050431,-2.67753,-0.390083,-0.15125,12.4474,0.240008,
2,0,0,1,0,26791.2,0.238816,0.238524,-2.12139,14,0.0160017,10,-0.000506003,-2.67338,-0.467505,-0.126202,10.4532,0.238524,
2,0,0,1,0,26791.2,0.237313,0.237012,-2.14105,14,0.0159614,10,-0.000507455,-2.66937,-0.477194,-0.123639,10.3254,0.237012,
2,0,0,1,0,26791.3,0.235809,0.235482,-2.15458,14,0.0159208,10,-0.000507366,-2.66664,-0.529748,-0.111374,9.37433,0.235482,
2,0,0,1,0,26791.3,0.23432,0.233999,-2.18206,14,0.0158803,10,-0.0005106,-2.66113,-0.507886,-0.116168,9.87709,0.233999,
2,0,0,1,0,26791.3,0.232816,0.232492,-2.19117,14,0.015839,10,-0.000509428,-2.65932,-0.444504,-0.132732,11.3578,0.232492,
2,0,0,1,0,26791.3,0.23132,0.231038,-2.2123,14,0.0157976,10,-0.000511125,-2.65516,-0.574037,-0.102781,8.86791,0.231038,
2,0,0,1,0,26791.3,0.229824,0.229512,-2.23412,14,0.0157559,10,-0.000512758,-2.65089,-0.58609,-0.100667,8.74657,0.229512,
2,0,0,1,0,26791.4,0.22832,0.228003,-2.24253,14,0.0157137,10,-0.000511303,-2.64926,-0.531194,-0.11107,9.72729,0.228003,
2,0,0,1,0,26791.4,0.226833,0.226539,-2.264,14,0.0156717,10,-0.000512885,-2.64512,-0.38566,-0.152984,13.4587,0.226539,
2,0,0,1,0,26791.4,0.225329,0.225027,-2.2765,14,0.0156289,10,-0.000512275,-2.64273,-0.392278,-0.150404,13.3502,0.225027,
2,0,0,1,0,26791.4,0.223825,0.223543,-2.29076,14,0.0155858,10,-0.000512082,-2.64002,-0.539763,-0.109307,9.76739,0.223543,
2,0,0,1,0,26791.4,0.222336,0.222022,-2.30323,14,0.0155428,10,-0.000511368,-2.63766,-0.450712,-0.130904,11.7918,0.222022,
2,0,0,1,0,26791.5,0.220833,0.220521,-2.32025,14,0.0154992,10,-0.000511665,-2.63446,-0.446411,-0.132165,11.988,0.220521,
2,0,0,1,0,26791.5,0.219329,0.219019,-2.34069,14,0.0154552,10,-0.000512655,-2.63066,-0.416299,-0.141725,12.9375,0.219019,
2,0,0,1,0,26791.5,0.21784,0.217538,-2.35684,14,0.0154113,10,-0.000512701,-2.62767,-0.514184,-0.114745,10.5299,0.217538,
2,0,0,1,0,26791.5,0.216336,0.216065,-2.36442,14,0.0153666,10,-0.000510867,-2.62628,-0.666659,-0.088501,8.18865,0.216065,
2,0,0,1,0,26791.5,0.21484,0.214504,-2.38409,14,0.015322,10,-0.000511397,-2.62268,-0.606043,-0.0973529,9.07186,0.214504,
2,0,0,1,0,26791.5,0.213343,0.21303,-2.39902,14,0.0152771,10,-0.000511063,-2.61997,-0.518693,-0.113747,10.6586,0.21303,
2,0,0,1,0,26791.6,0.21184,0.211488,-2.41853,14,0.0152316,10,-0.000511489,-2.61645,-0.65202,-0.090488,8.52592,0.211488,
2,0,0,1,0,26791.6,0.210352,0.210048,-2.43465,14,0.0151862,10,-0.000511393,-2.61356,-0.666057,-0.088581,8.42677,0.210048,
2,0,0,1,0,26791.6,0.208849,0.208553,-2.44596,14,0.0151402,10,-0.000510111,-2.61155,-0.535628,-0.110151,10.5487,0.208553,
2,0,0,1,0,26791.6,0.207345,0.207023,-2.46776,14,0.0150938,10,-0.000510882,-2.6077,-0.457963,-0.128832,12.3992,0.207023,
2,0,0,1,0,26791.6,0.205856,0.205564,-2.49321,14,0.0150475,10,-0.000512516,-2.60324,-0.564932,-0.104437,10.1222,0.205564,
2,0,0,1,0,26791.7,0.204353,0.204047,-2.51056,14,0.0150003,10,-0.000512273,-2.60023,-0.784715,-0.0751866,7.34011,0.204047,
2,0,0,1,0,26791.7,0.202849,0.202529,-2.51992,14,0.014953,10,-0.000510356,-2.59861,-0.536212,-0.110031,10.8095,0.202529,
2,0,0,1,0,26791.7,0.20136,0.201029,-2.53615,14,0.0149059,10,-0.00050984,-2.59582,-0.425794,-0.138565,13.6917,0.201029,
2,0,0,1,0,26791.7,0.199856,0.19954,-2.55271,14,0.0148579,10,-0.000509367,-2.593,-0.426328,-0.138391,13.7791,0.19954,
2,0,0,1,0,26791.7,0.19836,0.198029,-2.57013,14,0.0148099,10,-0.000508961,-2.59004,-0.504946,-0.116844,11.7016,0.198029,
2,0,0,1,0,26791.8,0.196863,0.196556,-2.5814,14,0.0147615,10,-0.000507391,-2.58814,-0.397615,-0.148385,14.9491,0.196556,
2,0,0,1,0,26791.8,0.19536,0.195,-2.5998,14,0.0147126,10,-0.00050696,-2.58506,-0.40589,-0.14536,14.7828,0.195,
2,0,0,1,0,26791.8,0.193872,0.193505,-2.62256,14,0.0146638,10,-0.000507478,-2.58127,-0.396429,-0.148829,15.2265,0.193505,
2,0,0,1,0,26791.8,0.192369,0.192041,-2.6377,14,0.0146141,10,-0.000506548,-2.57877,-0.559399,-0.10547,10.854,0.192041,
2,0,0,1,0,26791.8,0.190865,0.190534,-2.64718,14,0.0145641,10,-0.000504376,-2.57722,-0.518502,-0.113789,11.8015,0.190534,
2,0,0,1,0,26791.8,0.189376,0.189019,-2.67528,14,0.0145143,10,-0.000505678,-2.57263,-0.614331,-0.0960395,10.0471,0.189019,
2,0,0,1,0,26791.9,0.187872,0.187539,-2.69359,14,0.0144636,10,-0.000505151,-2.56967,-0.532261,-0.110848,11.6746,0.187539,
2,0,0,1,0,26791.9,0.186369,0.18606,-2.71847,14,0.0144125,10,-0.000505798,-2.56568,-0.488257,-0.120838,12.8064,0.18606,
2,0,0,1,0,26791.9,0.18488,0.184562,-2.7455,14,0.0143615,10,-0.000506713,-2.56138,-0.576583,-0.102327,10.9332,0.184562,
2,0,0,1,0,26791.9,0.183376,0.183059,-2.76686,14,0.0143096,10,-0.000506498,-2.55801,-0.479716,-0.122989,13.2567,0.183059,
2,0,0,1,0,26791.9,0.18188,0.181562,-2.78681,14,0.0142576,10,-0.000505978,-2.55489,-0.399003,-0.147869,16.0491,0.181562,
2,0,0,1,0,26792,0.180383,0.180043,-2.81643,14,0.0142051,10,-0.000507079,-2.5503,-0.384875,-0.153296,16.7941,0.180043,
2,0,0,1,0,26792,0.17888,0.178549,-2.83899,14,0.0141519,10,-0.000506899,-2.54684,-0.428189,-0.13779,15.2209,0.1785491,
2,0,0,1,0,26792,0.177392,0.177115,-2.85341,14,0.0140988,10,-0.000505381,-2.54464,-0.368615,-0.160059,17.8555,0.177115,
2,0,0,1,0,26792,0.175889,0.175561,-2.87968,14,0.0140448,10,-0.00050556,-2.54066,-0.300724,-0.196193,22.0835,0.175561,
2,0,0,1,0,26792,0.174385,0.174059,-2.90842,14,0.0139901,10,-0.000506237,-2.53634,-0.299699,-0.196864,22.3498,0.174059,
2,0,0,1,0,26792.1,0.172896,0.17255,-2.93984,14,0.0139355,10,-0.00050727,-2.53168,-0.334811,-0.176219,20.2062,0.17255,
2,0,0,1,0,26792.1,0.171392,0.171064,-2.96405,14,0.0138798,10,-0.000507042,-2.52811,-0.337367,-0.174884,20.272,0.171064,
2,0,0,1,0,26792.1,0.169889,0.169598,-2.99125,14,0.0138236,10,-0.00050731,-2.52415,-0.28231,-0.20899,24.5176,0.1695978,
2,0,0,1,0,26792.1,0.1684,0.168079,-3.03798,14,0.0137672,10,-0.000510619,-2.51742,-0.287645,-0.205114,24.3055,0.168079,
2,0,0,1,0,26792.1,0.166896,0.166546,-3.07362,14,0.0137095,10,-0.0005119,-2.51235,-0.297989,-0.197994,23.735,0.166546,
2,0,0,1,0,26792.1,0.165392,0.165044,-3.1076,14,0.0136512,10,-0.00051289,-2.50758,-0.281063,-0.209917,25.5273,0.165044,
2,0,0,1,0,26792.2,0.163905,0.163608,-3.15336,14,0.0135928,10,-0.000515916,-2.50123,-0.278481,-0.211864,26.1174,0.163608,
2,0,0,1,0,26792.2,0.162401,0.162082,-3.20069,14,0.0135328,10,-0.000518773,-2.49476,-0.250372,-0.23565,29.4361,0.162082,
2,0,0,1,0,26792.2,0.160905,0.160589,-3.24704,14,0.0134723,10,-0.000521439,-2.48851,-0.233621,-0.252546,32.011,0.160589,
2,0,0,1,0,26792.2,0.159409,0.159041,-3.30462,14,0.0134109,10,-0.000525572,-2.48088,-0.22681,-0.260129,33.544,0.159041,
2,0,0,1,0,26792.2,0.157905,0.157576,-3.35618,14,0.0133482,10,-0.000528854,-2.47415,-0.206051,-0.286336,37.5598,0.157576,
2,0,0,1,0,26792.3,0.156416,0.156068,-3.41784,14,0.0132851,10,-0.000533414,-2.46625,-0.177972,-0.331512,44.2832,0.156068,
2,0,0,1,0,26792.3,0.154912,0.154556,-3.48955,14,0.01322,10,-0.000539329,-2.45723,-0.162998,-0.361969,49.2822,0.154556,
2,0,0,1,0,26792.3,0.153409,0.153095,-3.56456,14,0.0131536,10,-0.000545715,-2.44799,-0.156158,-0.377823,52.5678,0.1530948,
2,0,0,1,0,26792.3,0.151919,0.151584,-3.63703,14,0.0130865,10,-0.000551316,-2.43925,-0.147277,-0.400607,56.9786,0.151584,
2,0,0,1,0,26792.3,0.150416,0.150104,-3.72091,14,0.0130171,10,-0.000558522,-2.42935,-0.130527,-0.452013,65.8138,0.150104,
2,0,0,1,0,26792.4,0.148912,0.148595,-3.8209,14,0.0129459,10,-0.000567767,-2.41783,-0.12656,-0.466183,69.6335,0.148595,
2,0,0,1,0,26792.4,0.147425,0.147128,-3.92668,14,0.0128736,10,-0.000577725,-2.40597,-0.120971,-0.487719,74.9241,0.147128,
2,0,0,1,0,26792.4,0.145921,0.145598,-4.037,14,0.0127985,10,-0.000587777,-2.39394,-0.115308,-0.511675,80.9875,0.145598,
2,0,0,1,0,26792.4,0.144425,0.144087,-4.17157,14,0.0127214,10,-0.00060107,-2.3797,-0.106792,-0.552478,90.2131,0.144087,
2,0,0,1,0,26792.4,0.142929,0.142619,-4.31658,14,0.0126419,10,-0.000615624,-2.36486,-0.102144,-0.577618,97.4719,0.142619,
2,0,0,1,0,26792.4,0.141425,0.141109,-4.46591,14,0.0125591,10,-0.00063018,-2.35009,-0.101077,-0.583711,101.961,0.141109,
2,0,0,1,0,26792.5,0.139936,0.139586,-4.63544,14,0.0124742,10,-0.000647043,-2.33391,-0.0961219,-0.613804,111.163,0.139586,
2,0,0,1,0,26792.5,0.138432,0.138077,-4.81004,14,0.0123852,10,-0.000664155,-2.31785,-0.0953512,-0.618765,116.344,0.138077,
2,0,0,1,0,26792.5,0.136929,0.136621,-4.99922,14,0.0122929,10,-0.000682997,-2.3011,-0.0950244,-0.620893,120.987,0.136621,
2,0,0,1,0,26792.5,0.135439,0.135152,-5.18494,14,0.0121981,10,-0.000700757,-2.28526,-0.0933126,-0.632283,127.924,0.135152,
2,0,0,1,0,26792.5,0.133936,0.133604,-5.39691,14,0.0120986,10,-0.000721048,-2.26785,-0.0914585,-0.645101,135.526,0.1336039,
2,0,0,1,0,26792.6,0.132432,0.13213,-5.59056,14,0.0119953,10,-0.00073868,-2.25254,-0.0918346,-0.642459,140.033,0.13213,
2,0,0,1,0,26792.6,0.130945,0.130627,-5.79919,14,0.0118892,10,-0.000757532,-2.23663,-0.0949213,-0.621567,140.53,0.1306273,
2,0,0,1,0,26792.6,0.129441,0.129124,-6.00416,14,0.011778,10,-0.00077528,-2.22155,-0.0992725,-0.594324,139.179,0.129124,
2,0,0,1,0,26792.6,0.127945,0.127628,-6.20936,14,0.0116635,10,-0.000792491,-2.20695,-0.104792,-0.56302,136.258,0.127628,
2,0,0,1,0,26792.6,0.126448,0.126132,-6.40073,14,0.0115453,10,-0.000807334,-2.19377,-0.110302,-0.534894,133.687,0.126132,
2,0,0,1,0,26792.7,0.124945,0.12461,-6.59171,14,0.0114228,10,-0.000821391,-2.181,-0.116708,-0.505533,130.112,0.1246097,
2,0,0,1,0,26792.7,0.123456,0.123131,-6.79147,14,0.011298,10,-0.000836238,-2.16804,-0.125673,-0.469471,124.27,0.123131,
2,0,0,1,0,26792.7,0.121952,0.121662,-6.97225,14,0.0111683,10,-0.000848258,-2.15663,-0.138728,-0.425292,115.501,0.121662,
2,0,0,1,0,26792.7,0.120449,0.120192,-7.13404,14,0.0110354,10,-0.000857457,-2.14666,-0.150273,-0.392619,109.221,0.120192,
2,0,0,1,0,26792.7,0.118959,0.118698,-7.29255,14,0.0109009,10,-0.000865612,-2.13712,-0.16024,-0.368197,104.84,0.118698,
2,0,0,1,0,26792.7,0.117456,0.117129,-7.45364,14,0.010762,10,-0.000873036,-2.12763,-0.17851,-0.330513,96.0374,0.117129,
2,0,0,1,0,26792.8,0.115952,0.11562,-7.60061,14,0.0106202,10,-0.000878781,-2.11915,-0.195747,-0.30141,89.2414,0.1156199,
2,0,0,1,0,26792.8,0.114465,0.114131,-7.73692,14,0.0104774,10,-0.000883021,-2.11143,-0.219101,-0.269282,81.1552,0.114131,
2,0,0,1,0,26792.8,0.112961,0.112637,-7.85312,14,0.0103307,10,-0.000884548,-2.10496,-0.233747,-0.25241,77.258,0.1126365,
2,0,0,1,0,26792.8,0.111465,0.111145,-7.96892,14,0.0101827,10,-0.000885707,-2.0986,-0.253924,-0.232353,72.1337,0.111145,
2,0,0,1,0,26792.8,0.109968,0.109665,-8.07313,14,0.0100326,10,-0.000885337,-2.09296,-0.282624,-0.208758,65.6241,0.109665,
2,0,0,1,0,26792.9,0.108465,0.108182,-8.15956,14,0.00987981,10,-0.00088272,-2.08833,-0.329507,-0.179056,56.9098,0.108182,
2,0,0,1,0,26792.9,0.106976,0.106676,-8.23727,14,0.00972717,10,-0.000878721,-2.08422,-0.385784,-0.152935,49.0698,0.106676,
2,0,0,1,0,26792.9,0.105472,0.105158,-8.30086,14,0.00957158,10,-0.000872902,-2.08088,-0.445059,-0.132567,42.879,0.105158,
2,0,0,1,0,26792.9,0.103968,0.103616,-8.35691,14,0.00941481,10,-0.000865907,-2.07795,-0.539088,-0.109444,35.6315,0.103616,
2,0,0,1,0,26792.9,0.102479,0.10213,-8.39667,14,0.0092588,10,-0.000857551,-2.07589,-0.7905,-0.0746363,24.4199,0.10213,
2,0,0,1,0,26793,0.100976,0.100616,-8.41193,14,0.00910051,10,-0.000846377,-2.0751,-1.16547,-0.0506233,16.6204,0.100616,
2,0,0,1,0,26793,0.0994721,0.0991728,-8.43447,14,0.00894184,10,-0.00083647,-2.07394,-2.788,-0.0211621,6.95929,0.0991728,
2,0,0,1,0,26793,0.0979846,0.0976376,-8.43822,14,0.00878463,10,-0.000823887,-2.07375,50.7109,0.00116346,-0.382676,0.0976376,
2,0,0,1,0,26793,0.0964811,0.0961566,-8.42656,14,0.00862578,10,-0.00081027,-2.07435,1.5236,0.038724,-12.7281,0.0961566,
2,0,0,1,0,26793,0.0949847,0.0946443,-8.40537,14,0.00846803,10,-0.00079552,-2.07544,0.903634,0.0652919,-21.4086,0.0946443,
2,0,0,1,0,26793,0.0934883,0.0931797,-8.37173,14,0.00831088,10,-0.000780075,-2.07718,0.727352,0.0811162,-26.5112,0.0931797,
2,0,0,1,0,26793.1,0.0919847,0.0916224,-8.33237,14,0.00815357,10,-0.000763431,-2.07923,0.583918,0.101042,-32.8448,0.0916224,
2,0,0,1,0,26793.1,0.0904955,0.0901458,-8.29273,14,0.00799875,10,-0.000747556,-2.0813,0.501682,0.117604,-37.9978,0.0901458,
2,0,0,1,0,26793.1,0.0889919,0.0886628,-8.2362,14,0.00784329,10,-0.000730244,-2.08427,0.440917,0.133812,-42.9428,0.0886628,
2,0,0,1,0,26793.1,0.0874884,0.087188,-8.16772,14,0.00768902,10,-0.000712127,-2.0879,0.415265,0.142078,-45.2425,0.087188,
2,0,0,1,0,26793.1,0.0860009,0.0856828,-8.09826,14,0.00753765,10,-0.000693882,-2.09161,0.40115,0.147077,-46.4433,0.0856828,
2,0,0,1,0,26793.2,0.0844973,0.0841947,-8.02414,14,0.00738597,10,-0.00067559,-2.0956,0.393912,0.14978,-46.8847,0.08419469,
2,0,0,1,0,26793.2,0.0829938,0.0826735,-7.94969,14,0.00723563,10,-0.000657229,-2.09965,0.380145,0.155204,-48.1426,0.0826735,
2,0,0,1,0,26793.2,0.0815045,0.0812641,-7.87667,14,0.00708834,10,-0.00064009,-2.10366,0.38882,0.151741,-46.6567,0.0812641,
2,0,0,1,0,26793.2,0.080001,0.0796853,-7.80027,14,0.00694081,10,-0.000621567,-2.10789,0.429734,0.137294,-41.822,0.0796853,
2,0,0,1,0,26793.2,0.0785046,0.0782038,-7.73781,14,0.00679531,10,-0.000605127,-2.11138,0.436781,0.135079,-40.8181,0.0782038,
2,0,0,1,0,26793.3,0.0770082,0.0766651,-7.67049,14,0.00665098,10,-0.000588059,-2.11518,0.413718,0.142609,-42.7244,0.0766651,
2,0,0,1,0,26793.3,0.0755046,0.0751752,-7.60543,14,0.0065071,10,-0.00057174,-2.11888,0.453769,0.130022,-38.6681,0.0751752,
2,0,0,1,0,26793.3,0.0740154,0.0737117,-7.55382,14,0.00636588,10,-0.000556805,-2.12183,0.47555,0.124067,-36.6116,0.0737117,
2,0,0,1,0,26793.3,0.0725118,0.072169,-7.50106,14,0.00622411,10,-0.000541344,-2.12488,0.515942,0.114354,-33.5122,0.072169,
2,0,0,1,0,26793.3,0.0710083,0.0706682,-7.45587,14,0.00608325,10,-0.000526893,-2.1275,0.516001,0.114341,-33.2686,0.0706682,
2,0,0,1,0,26793.3,0.0695208,0.069191,-7.40968,14,0.00594476,10,-0.000512684,-2.1302,0.523327,0.11274,-32.6205,0.069191,
2,0,0,1,0,26793.4,0.0680173,0.0677206,-7.36522,14,0.00580571,10,-0.000498777,-2.13281,0.590183,0.099969,-28.7753,0.0677206,
2,0,0,1,0,26793.4,0.0665137,0.066163,-7.32647,14,0.00566742,10,-0.000484741,-2.13511,0.64943,0.0908488,-25.9871,0.066163,
2,0,0,1,0,26793.4,0.0650244,0.0647191,-7.29716,14,0.00553125,10,-0.000472266,-2.13685,0.652691,0.090395,-25.7101,0.0647191,
2,0,0,1,0,26793.4,0.0635209,0.0631601,-7.26412,14,0.00539431,10,-0.000458803,-2.13882,0.637258,0.0925842,-26.2084,0.0631601,
2,0,0,1,0,26793.4,0.0620245,0.0617029,-7.22,14,0.00525889,10,-0.000445495,-2.14146,0.66169,0.0891657,-25.1107,0.0617029,
2,0,0,1,0,26793.5,0.0605281,0.0601917,-7.18526,14,0.00512414,10,-0.000432493,-2.14356,0.708155,0.0833151,-23.3427,0.0601917,
2,0,0,1,0,26793.5,0.0590246,0.0586899,-7.14712,14,0.00498933,10,-0.000419464,-2.14587,0.7671,0.0769131,-21.4508,0.05868993,
2,0,0,1,0,26793.5,0.0575353,0.0571878,-7.111,14,0.0048566,10,-0.000406663,-2.14807,0.706897,0.0834634,-23.1479,0.0571878,
2,0,0,1,0,26793.5,0.0560317,0.0557045,-7.06469,14,0.00472318,10,-0.000393535,-2.15091,0.721274,0.0817998,-22.5708,0.0557045,
2,0,0,1,0,26793.5,0.0545282,0.0541884,-7.03247,14,0.00459049,10,-0.000381078,-2.15289,0.78186,0.0754611,-20.7146,0.0541884,
2,0,0,1,0,26793.6,0.0530407,0.0527064,-7.00125,14,0.00445986,10,-0.000369011,-2.15482,0.779561,0.0756836,-20.6587,0.0527064,
2,0,0,1,0,26793.6,0.0515372,0.0511968,-6.95964,14,0.00432844,10,-0.000356311,-2.15741,0.649776,0.0908005,-24.6389,0.0511968,
2,0,0,1,0,26793.6,0.0500336,0.0496811,-6.90937,14,0.00419773,10,-0.000343265,-2.16056,0.605916,0.0973733,-26.2928,0.0496811,
2,0,0,1,0,26793.6,0.0485444,0.0482246,-6.87623,14,0.00406924,10,-0.000331604,-2.16265,0.562815,0.10483,-28.1572,0.0482246,
2,0,0,1,0,26793.6,0.0470408,0.046714,-6.83978,14,0.00394006,10,-0.000319513,-2.16496,0.560324,0.105296,-28.1087,0.046714,
2,0,0,1,0,26793.6,0.0455444,0.0452285,-6.8013,14,0.00381225,10,-0.000307613,-2.16741,0.507725,0.116205,-30.8339,0.0452285,
2,0,0,1,0,26793.7,0.044048,0.0436808,-6.7652,14,0.00368523,10,-0.000295509,-2.16972,0.504488,0.11695,-30.8716,0.0436808,
2,0,0,1,0,26793.7,0.0425445,0.0422033,-6.72105,14,0.00355832,10,-0.00028365,-2.17256,0.54672,0.107916,-28.311,0.0422033,
2,0,0,1,0,26793.7,0.0410552,0.0407465,-6.68777,14,0.00343353,10,-0.000272503,-2.17472,0.528714,0.111591,-29.0911,0.0407465,
2,0,0,1,0,26793.7,0.0395517,0.0392113,-6.65271,14,0.0033081,10,-0.000260862,-2.177,0.5152,0.114519,-29.6423,0.0392113,
2,0,0,1,0,26793.7,0.0380481,0.0376731,-6.59781,14,0.0031835,10,-0.00024856,-2.1806,0.517415,0.114028,-29.3436,0.0376731,
2,0,0,1,0,26793.8,0.0365606,0.0362531,-6.54758,14,0.00306113,10,-0.00023737,-2.18392,0.527092,0.111935,-28.6031,0.0362531,
2,0,0,1,0,26793.8,0.0350571,0.0347469,-6.49883,14,0.00293833,10,-0.000225815,-2.18716,0.531354,0.111037,-28.1773,0.0347469,
2,0,0,1,0,26793.8,0.0335535,0.0332121,-6.45274,14,0.00281636,10,-0.000214309,-2.19026,0.528595,0.111617,-28.1026,0.0332121,
2,0,0,1,0,26793.8,0.0320643,0.0317485,-6.40052,14,0.0026966,10,-0.000203207,-2.19378,0.453749,0.130028,-32.4808,0.0317485,
2,0,0,1,0,26793.8,0.0305607,0.0302328,-6.34236,14,0.00257654,10,-0.000191747,-2.19775,0.443575,0.13301,-32.9667,0.0302328,
2,0,0,1,0,26793.9,0.0290643,0.0287213,-6.29237,14,0.00245813,10,-0.000180725,-2.20119,0.455636,0.129489,-31.8216,0.0287213,
2,0,0,1,0,26793.9,0.0275679,0.0272269,-6.24698,14,0.00234064,10,-0.000170086,-2.20433,0.425618,0.138622,-33.7954,0.0272269,
2,0,0,1,0,26793.9,0.0260644,0.0257507,-6.19068,14,0.00222347,10,-0.000159414,-2.20826,0.361643,0.163144,-39.4029,0.02575068,
2,0,0,1,0,26793.9,0.0245751,0.0242898,-6.12772,14,0.00210862,10,-0.000148841,-2.2127,0.363842,0.162158,-38.8418,0.0242898,
2,0,0,1,0,26793.9,0.0230716,0.0227407,-6.07834,14,0.00199362,10,-0.000138226,-2.21622,0.35414,0.166601,-39.5377,0.0227407,
2,0,0,1,0,26793.9,0.021568,0.0212161,-6.02746,14,0.00187962,10,-0.000127879,-2.21987,0.366604,0.160937,-37.8511,0.02121608,
2,0,0,1,0,26794,0.0200805,0.019759,-5.97869,14,0.00176785,10,-0.000118133,-2.22339,0.348016,0.169532,-39.5045,0.019759,
2,0,0,1,0,26794,0.018577,0.0182119,-5.9222,14,0.00165588,10,-0.000107854,-2.22752,0.354682,0.166346,-38.4122,0.01821187,
2,0,0,1,0,26794,0.0170735,0.0167674,-5.8694,14,0.00154496,10,-9.84144e-05,-2.23141,0.376237,0.156816,-35.9345,0.01676737,
2,0,0,1,0,26794,0.0155842,0.0152554,-5.81849,14,0.00143619,10,-8.87633e-05,-2.23519,0.413257,0.142768,-32.4189,0.0152554,
2,0,0,1,0,26794,0.0140806,0.0137148,-5.77363,14,0.00132711,10,-7.91839e-05,-2.23855,0.39463,0.149507,-33.641,0.0137148,
2,0,0,1,0,26794.1,0.0125842,0.0122657,-5.729,14,0.00121945,10,-7.02703e-05,-2.24192,0.441863,0.133526,-29.8051,0.0122657,
2,0,0,1,0,26794.1,0.0110878,0.0107572,-5.66944,14,0.00111278,10,-6.09876e-05,-2.24646,0.45532,0.129579,-28.7229,0.01075725,
2,0,0,1,0,26794.1,0.00958429,0.00925174,-5.6266,14,0.00100637,10,-5.20559e-05,-2.24975,0.501944,0.117543,-25.8247,0.009251738,
2,0,0,1,0,26794.1,0.0080968,0.00773975,-5.58549,14,0.000901835,10,-4.32303e-05,-2.25294,0.524714,0.112442,-24.5461,0.00773975,
2,0,0,1,0,26794.1,0.00659326,0.00628264,-5.5431,14,0.000796925,10,-3.48253e-05,-2.25625,0.560589,0.105246,-22.8193,0.00628264,
2,0,0,1,0,26794.1,0.00508972,0.00477269,-5.50739,14,0.000692693,10,-2.62851e-05,-2.25905,0.552393,0.106808,-23.0097,0.00477269,
2,0,0,1,0,26794.2,0.00360044,0.00325457,-5.47685,14,0.000590224,10,-1.78248e-05,-2.26147,1.07614,0.0548253,-11.7852,0.003254571,
2,0,0,1,0,26794.2,0.0020969,0.00175758,-5.50078,14,0.000487064,10,-9.66806e-06,-2.25958,1.03548,0.0569782,-12.1566,0.00175758,
2,0,0,1,0,26794.2,0.000593362,0.000198214,-5.44927,14,0.000383884,10,-1.08012e-06,-2.26366, , , ,0.000198214,
2,0,0,1,0,26794.2,0.000199195,-0.000140177,-5.44302,14,0.000357146,10,7.62983e-07,-2.26416, , , ,-0.000140177,