File: Figure_codes/Fig_3-5/rawdata_trumpetplot_data/after 10th/20221101_1-115_003_TrumpetPlot_ParaChange_from10_every3_08_CV_C01_2.csv
mode,ox/red,error,control changes,counter inc.,time/s,control/V,Ewe/V,<I>/mA,cycle number,(Q-Qo)/C,I Range,P/W,log(|I|),Tafel slope mV/dec,alpha_eff,dI/d(E-IR),E-IR/V,
2,0,0,0,0,5115.28,2.44065e-05,-0.000401673,-3.94739,3,0.0000000E+000,10,1.58556e-06,-2.40369, , , ,-0.000401673,
2,0,0,1,0,5115.3,0.0012943,0.000930349,-1.68292,3,-4.16879e-05,10,-1.5657e-06,-2.77394, , , ,0.000930349,
2,0,0,1,0,5115.31,0.00279784,0.00248699,-0.0785242,3,-5.68908e-05,10,-1.95289e-07,-4.105,-0.0118338,-4.9857,868.755,0.00248699,
2,1,0,1,0,5115.33,0.00429425,0.00398282,0.862725,3,-4.87052e-05,10,3.43607e-06,-3.06413,0.00816805,7.22327,545.153,0.00398282,
2,1,0,1,0,5115.35,0.00579065,0.00549529,1.47364,3,-2.62544e-05,10,8.09806e-06,-2.83161,0.00732289,8.05693,363.404,0.00549529,
2,1,0,1,0,5115.37,0.0072942,0.00698921,1.90564,3,6.0437e-06,10,1.33189e-05,-2.71996,0.0159195,3.70614,253.571,0.00698921,
2,1,0,1,0,5115.39,0.00878347,0.00848586,2.21915,3,4.48822e-05,10,1.88314e-05,-2.65381,0.0263393,2.24,185.884,0.00848586,
2,1,0,1,0,5115.41,0.010287,0.00999069,2.44979,3,8.91677e-05,10,2.44751e-05,-2.61087,0.0398133,1.48192,138.501,0.00999069,
2,1,0,1,0,5115.43,0.0117905,0.0114727,2.6252,3,0.000137299,10,3.01181e-05,-2.58084,0.054513,1.08231,109.653,0.0114727,
2,1,0,1,0,5115.45,0.013278,0.0129421,2.76538,3,0.00018781,10,3.57898e-05,-2.55824,0.0720702,0.818646,88.0744,0.0129421,
2,1,0,1,0,5115.46,0.0147816,0.0144268,2.8912,3,0.000241351,10,4.17107e-05,-2.53892,0.0898255,0.656829,73.8839,0.0144268,
2,1,0,1,0,5115.48,0.0162851,0.0159207,2.99945,3,0.000297112,10,4.77534e-05,-2.52296,0.106147,0.555834,64.7522,0.0159207,
2,1,0,1,0,5115.5,0.0177744,0.0174341,3.10085,3,0.000354109,10,5.40603e-05,-2.50852,0.126028,0.468151,56.3745,0.0174341,
2,1,0,1,0,5115.52,0.0192779,0.0189812,3.17979,3,0.000413297,10,6.03562e-05,-2.4976,0.139066,0.42426,52.5663,0.0189812,
2,1,0,1,0,5115.54,0.0207743,0.0204427,3.26251,3,0.000473731,10,6.66944e-05,-2.48645,0.146517,0.402682,51.0997,0.0204427,
2,1,0,1,0,5115.56,0.0222707,0.0219956,3.34508,3,0.000535647,10,7.35771e-05,-2.47559,0.158377,0.372529,48.4249,0.0219956,
2,1,0,1,0,5115.58,0.0237743,0.0234919,3.41532,3,0.000599309,10,8.02323e-05,-2.46657,0.171084,0.344861,45.8317,0.0234919,
2,1,0,1,0,5115.59,0.0252636,0.0250175,3.4766,3,0.000663547,10,8.69759e-05,-2.45885,0.168776,0.349576,47.484,0.0250175,
2,1,0,1,0,5115.61,0.0267671,0.0264965,3.54756,3,0.000729737,10,9.39976e-05,-2.45007,0.161625,0.365043,50.5127,0.0264965,
2,1,0,1,0,5115.63,0.0282706,0.0279113,3.62686,3,0.000797359,10,0.00010123,-2.44047,0.159396,0.370148,52.2066,0.0279113,
2,1,0,1,0,5115.65,0.0297581,0.0294611,3.68477,3,0.000865615,10,0.000108558,-2.43359,0.17794,0.331572,47.6548,0.0294611,
2,1,0,1,0,5115.67,0.0312617,0.0309544,3.74785,3,0.000935823,10,0.000116012,-2.42622,0.187198,0.315174,46.2242,0.0309544,
2,1,0,1,0,5115.69,0.0327652,0.0324469,3.81673,3,0.00100725,10,0.000123841,-2.41831,0.182664,0.322998,48.2137,0.0324469,
2,1,0,1,0,5115.71,0.0342545,0.0339606,3.89402,3,0.00107927,10,0.000132243,-2.4096,0.188831,0.312448,47.4647,0.0339606,
2,1,0,1,0,5115.73,0.035758,0.0354692,3.96027,3,0.00115339,10,0.000140468,-2.40227,0.207193,0.284759,43.9999,0.0354692,
2,1,0,1,0,5115.74,0.0372544,0.0369298,4.02777,3,0.00122845,10,0.000148745,-2.39494,0.205602,0.286962,45.1668,0.0369298,
2,1,0,1,0,5115.76,0.0387508,0.0384076,4.09915,3,0.00130469,10,0.000157439,-2.38731,0.20556,0.28702,46.0085,0.0384076,
2,1,0,1,0,5115.78,0.0402544,0.0399683,4.17588,3,0.00138276,10,0.000166903,-2.37925,0.204733,0.28818,46.9824,0.0399683,
2,1,0,1,0,5115.8,0.0417437,0.0414565,4.26565,3,0.00146142,10,0.000176839,-2.37002,0.215244,0.274107,45.4794,0.0414565,
2,1,0,1,0,5115.82,0.0432472,0.0429289,4.33132,3,0.00154226,10,0.000185939,-2.36338,0.22071,0.267319,45.0549,0.0429289,
2,1,0,1,0,5115.84,0.0447507,0.0444331,4.39153,3,0.00162438,10,0.000195129,-2.35738,0.207361,0.284528,48.785,0.0444331,
2,1,0,1,0,5115.86,0.0462382,0.045944,4.46831,3,0.00170694,10,0.000205292,-2.34986,0.205697,0.28683,49.9418,0.045944,
2,1,0,1,0,5115.88,0.0477418,0.0474417,4.54165,3,0.0017918,10,0.000215464,-2.34279,0.209402,0.281754,49.8653,0.0474417,
2,1,0,1,0,5115.89,0.0492453,0.048937,4.615,3,0.00187803,10,0.000225844,-2.33583,0.211651,0.278761,50.1473,0.048937,
2,1,0,1,0,5115.91,0.0507346,0.0504353,4.67752,3,0.00196464,10,0.000235913,-2.32998,0.211917,0.278411,50.9,0.0504353,
2,1,0,1,0,5115.93,0.0522381,0.0519259,4.75146,3,0.00205351,10,0.000246724,-2.32317,0.209723,0.281324,52.2137,0.0519259,
2,1,0,1,0,5115.95,0.0537345,0.0534038,4.83492,3,0.00214338,10,0.000258203,-2.31561,0.207868,0.283834,53.4656,0.0534038,
2,1,0,1,0,5115.97,0.0552309,0.0549509,4.8992,3,0.00223465,10,0.000269215,-2.30988,0.231757,0.254577,48.6364,0.0549509,
2,1,0,1,0,5115.99,0.0567345,0.056378,4.96296,3,0.00232772,10,0.000279802,-2.30426,0.243298,0.242501,47.0492,0.056378,
2,1,0,1,0,5116.01,0.0582237,0.0579336,5.0323,3,0.002421,10,0.00029154,-2.29823,0.246241,0.239603,47.1628,0.0579336,
2,1,0,1,0,5116.03,0.0597273,0.0594272,5.10891,3,0.00251663,10,0.000303608,-2.29167,0.257743,0.22891,45.6551,0.0594272,
2,1,0,1,0,5116.04,0.0612308,0.0609027,5.17974,3,0.00261366,10,0.00031546,-2.28569,0.267321,0.220709,44.5836,0.0609027,
2,1,0,1,0,5116.06,0.0627183,0.0624096,5.24746,3,0.00271094,10,0.000327492,-2.28005,0.282799,0.208629,42.7481,0.0624096,
2,1,0,1,0,5116.08,0.0642219,0.0639154,5.30762,3,0.0028104,10,0.000339239,-2.2751,0.282858,0.208585,43.298,0.0639154,
2,1,0,1,0,5116.1,0.0657254,0.0654111,5.38674,3,0.00291118,10,0.000352353,-2.26867,0.274368,0.21504,45.1539,0.0654111,
2,1,0,1,0,5116.12,0.0672147,0.0669445,5.45989,3,0.00301222,10,0.00036551,-2.26282,0.285686,0.20652,43.9069,0.0669445,
2,1,0,1,0,5116.14,0.0687182,0.0684023,5.5261,3,0.0031156,10,0.000377998,-2.25758,0.311643,0.189319,40.7436,0.0684023,
2,1,0,1,0,5116.16,0.0702146,0.0699963,5.58726,3,0.00321958,10,0.000391088,-2.2528,0.300869,0.196098,42.7147,0.06999629,
2,1,0,1,0,5116.18,0.071711,0.0713803,5.64681,3,0.00332475,10,0.000403071,-2.2482,0.292774,0.201521,44.3563,0.0713803,
2,1,0,1,0,5116.19,0.0732146,0.0729383,5.70707,3,0.00343168,10,0.000416264,-2.24359,0.296506,0.198984,44.3234,0.0729383,
2,1,0,1,0,5116.21,0.0747038,0.0743835,5.7712,3,0.00353867,10,0.000429282,-2.23873,0.296074,0.199275,44.8642,0.07438346,
2,1,0,1,0,5116.23,0.0762074,0.0758896,5.82792,3,0.00364797,10,0.000442279,-2.23449,0.319623,0.184592,42.0259,0.0758896,
2,1,0,1,0,5116.25,0.0777109,0.0773965,5.88998,3,0.0037584,10,0.000455864,-2.22989,0.325168,0.181444,41.7191,0.0773965,
2,1,0,1,0,5116.27,0.0791984,0.078901,5.95045,3,0.0038688,10,0.000469497,-2.22545,0.332503,0.177442,41.2077,0.078901,
2,1,0,1,0,5116.29,0.0807019,0.0804379,6.00352,3,0.00398148,10,0.00048291,-2.22159,0.374392,0.157589,36.9379,0.0804379,
2,1,0,1,0,5116.31,0.0822055,0.0818872,6.06047,3,0.00409527,10,0.000496274,-2.21749,0.379689,0.15539,36.7667,0.0818872,
2,1,0,1,0,5116.33,0.0836947,0.0834114,6.11573,3,0.00420879,10,0.000510122,-2.21355,0.411912,0.143234,34.2203,0.0834114,
2,1,0,1,0,5116.34,0.0851983,0.0849013,6.1737,3,0.00432463,10,0.000524155,-2.20945,0.395726,0.149093,35.9528,0.0849013,
2,1,0,1,0,5116.36,0.0866947,0.086339,6.23303,3,0.00444095,10,0.000538154,-2.2053,0.402665,0.146524,35.6559,0.086339,
2,1,0,1,0,5116.38,0.0881911,0.087855,6.29564,3,0.00455833,10,0.000553104,-2.20096,0.411481,0.143384,35.2301,0.087855,
2,1,0,1,0,5116.4,0.0896946,0.0893258,6.35105,3,0.00467739,10,0.000567312,-2.19715,0.385761,0.152945,37.934,0.0893258,
2,1,0,1,0,5116.42,0.0911839,0.0908398,6.42341,3,0.00479635,10,0.000583501,-2.19223,0.352773,0.167246,41.8886,0.0908398,
2,1,0,1,0,5116.44,0.0926857,0.0923658,6.48705,3,0.0049178,10,0.000599181,-2.18795,0.355566,0.165933,41.9563,0.0923658,
2,1,0,1,0,5116.46,0.0941892,0.0938672,6.54915,3,0.00504049,10,0.00061475,-2.18382,0.341801,0.172615,44.1013,0.0938672,
2,1,0,1,0,5116.48,0.0956785,0.0953645,6.61342,3,0.00516302,10,0.000630686,-2.17957,0.317818,0.185641,47.9172,0.0953645,
2,1,0,1,0,5116.49,0.097182,0.0968257,6.68148,3,0.00528814,10,0.000646939,-2.17513,0.28387,0.207841,54.2563,0.0968257,
2,1,0,1,0,5116.51,0.0986856,0.098366,6.75773,3,0.00541469,10,0.000664731,-2.1702,0.265294,0.222395,58.7264,0.098366,
2,1,0,1,0,5116.53,0.100175,0.0998385,6.84898,3,0.00554148,10,0.000683792,-2.16437,0.258562,0.228186,60.9952,0.0998385,
2,1,0,1,0,5116.55,0.101678,0.101364,6.93167,3,0.00567129,10,0.000702622,-2.15916,0.249108,0.236846,64.1786,0.101364,
2,1,0,1,0,5116.57,0.103175,0.102895,7.03325,3,0.0058022,10,0.000723688,-2.15284,0.234669,0.251418,69.1098,0.102895,
2,1,0,1,0,5116.59,0.104671,0.104381,7.13913,3,0.00593496,10,0.000745191,-2.14635,0.236024,0.249974,69.6982,0.104381,
2,1,0,1,0,5116.61,0.106175,0.105838,7.24882,3,0.00607051,10,0.000767198,-2.13973,0.233303,0.25289,71.5315,0.105838,
2,1,0,1,0,5116.62,0.107662,0.107305,7.35667,3,0.00620663,10,0.000789404,-2.13332,0.230542,0.255919,73.5427,0.107305,
2,1,0,1,0,5116.64,0.109166,0.108868,7.46837,3,0.00634627,10,0.000813067,-2.12677,0.221247,0.26667,77.8565,0.1088681,
2,1,0,1,0,5116.66,0.110669,0.110375,7.59593,3,0.00648819,10,0.000838398,-2.11942,0.212263,0.277957,82.4564,0.110375,
2,1,0,1,0,5116.68,0.112159,0.111856,7.72481,3,0.00663092,10,0.000864067,-2.11211,0.226706,0.260248,78.4115,0.111856,
2,1,0,1,0,5116.7,0.113662,0.113339,7.85507,3,0.00677753,10,0.000890283,-2.10485,0.22707,0.259832,79.5499,0.113339,
2,1,0,1,0,5116.72,0.115166,0.114853,7.97063,3,0.00692639,10,0.000915453,-2.09851,0.224612,0.262675,81.6866,0.114853,
2,1,0,1,0,5116.74,0.116655,0.116365,8.09846,3,0.00707598,10,0.00094238,-2.0916,0.225629,0.261491,82.5852,0.116365,
2,1,0,1,0,5116.76,0.118158,0.117867,8.2246,3,0.00722958,10,0.000969412,-2.08489,0.231274,0.255109,81.7694,0.117867,
2,1,0,1,0,5116.77,0.119655,0.119376,8.34527,3,0.00738467,10,0.000996226,-2.07856,0.250386,0.235636,76.588,0.119376,
2,1,0,1,0,5116.79,0.121151,0.120849,8.44669,3,0.00754181,10,0.00102077,-2.07331,0.258625,0.22813,75.1884,0.1208488,
2,1,0,1,0,5116.81,0.122655,0.122365,8.55802,3,0.0077019,10,0.0010472,-2.06763,0.258423,0.228308,76.2161,0.122365,
2,1,0,1,0,5116.83,0.124142,0.123855,8.65872,3,0.0078623,10,0.00107243,-2.06255,0.273035,0.21609,73.0563,0.123855,
2,1,0,1,0,5116.85,0.125646,0.125318,8.76172,3,0.00802642,10,0.001098,-2.05741,0.29684,0.19876,67.9326,0.1253183,
2,1,0,1,0,5116.87,0.127149,0.126807,8.85059,3,0.00819241,10,0.00112232,-2.05303,0.326182,0.180881,62.5301,0.126807,
2,1,0,1,0,5116.89,0.128639,0.128367,8.94635,3,0.00835827,10,0.00114842,-2.04835,0.347934,0.169572,59.256,0.128367,
2,1,0,1,0,5116.91,0.130142,0.129849,9.04115,3,0.00852766,10,0.00117398,-2.04378,0.361199,0.163345,57.6023,0.129849,
2,1,0,1,0,5116.92,0.131646,0.131386,9.12878,3,0.0086988,10,0.00119939,-2.03959,0.400595,0.147281,52.4523,0.131386,
2,1,0,1,0,5116.94,0.133135,0.132848,9.20988,3,0.00886962,10,0.00122351,-2.03575,0.433452,0.136116,48.9317,0.132848,
2,1,0,1,0,5116.96,0.134639,0.134358,9.28456,3,0.00904371,10,0.00124746,-2.03224,0.448151,0.131652,47.7368,0.134358,
2,1,0,1,0,5116.98,0.136135,0.135834,9.37238,3,0.00921836,10,0.00127309,-2.02815,0.434706,0.135724,49.6013,0.135834,
2,1,0,1,0,5117,0.137631,0.137354,9.44822,3,0.00939443,10,0.00129775,-2.02465,0.474361,0.124378,45.7983,0.137354,
2,1,0,1,0,5117.02,0.139135,0.138862,9.51855,3,0.00957281,10,0.00132177,-2.02143,0.548149,0.107635,39.8986,0.138862,
2,1,0,1,0,5117.04,0.140622,0.140356,9.56621,3,0.00975041,10,0.00134267,-2.01926,0.596389,0.0989287,36.9011,0.140356,
2,1,0,1,0,5117.06,0.142126,0.141836,9.61704,3,0.00993086,10,0.00136405,-2.01696,0.678232,0.0869909,32.6041,0.141836,
2,1,0,1,0,5117.07,0.143629,0.143315,9.65515,3,0.0101123,10,0.00138373,-2.01524,0.971504,0.0607306,22.837,0.143315,
2,1,0,1,0,5117.09,0.145119,0.144836,9.67456,3,0.0102923,10,0.00140123,-2.01437,3.99263,0.0147772,5.56689,0.144836,
2,1,0,1,0,5117.11,0.146622,0.146311,9.6586,3,0.0104743,10,0.00141316,-2.01509,-1.80048,-0.032769,-12.3327,0.146311,
2,1,0,1,0,5117.13,0.148126,0.147822,9.62768,3,0.0106559,10,0.00142318,-2.01648,-0.759029,-0.0777309,-29.1363,0.147822,
2,1,0,1,0,5117.15,0.149615,0.14932,9.57055,3,0.0108348,10,0.00142907,-2.01906,-0.409139,-0.144205,-53.6747,0.14932,
2,1,0,1,0,5117.17,0.151119,0.150784,9.46504,3,0.0110141,10,0.00142718,-2.02388,-0.269042,-0.219297,-80.7435,0.150784,
2,1,0,1,0,5117.19,0.152615,0.152326,9.32098,3,0.0111901,10,0.00141982,-2.03054,-0.193413,-0.305047,-110.583,0.1523255,
2,1,0,1,0,5117.21,0.154111,0.153832,9.13943,3,0.0113631,10,0.00140594,-2.03908,-0.152571,-0.386705,-137.504,0.153832,
2,1,0,1,0,5117.22,0.155615,0.15529,8.91693,3,0.0115332,10,0.00138471,-2.04978,-0.126755,-0.465463,-161.424,0.15529,
2,1,0,1,0,5117.24,0.157103,0.156812,8.65844,3,0.011697,10,0.00135775,-2.06256,-0.104469,-0.564759,-190.03,0.156812,
2,1,0,1,0,5117.26,0.158606,0.158301,8.36276,3,0.0118573,10,0.00132383,-2.07765,-0.0907286,-0.650291,-211.399,0.1583005,
2,1,0,1,0,5117.28,0.16011,0.159793,8.03246,3,0.0120115,10,0.00128353,-2.09515,-0.0835292,-0.70634,-220.836,0.159793,
2,1,0,1,0,5117.3,0.161599,0.161302,7.70292,3,0.012158,10,0.0012425,-2.11334,-0.0786859,-0.749817,-224.777,0.161302,
2,1,0,1,0,5117.32,0.163102,0.16282,7.35648,3,0.0122996,10,0.00119778,-2.13333,-0.0740881,-0.79635,-228.248,0.16282,
2,1,0,1,0,5117.34,0.164606,0.164267,7.0158,3,0.0124348,10,0.00115246,-2.15392,-0.0741441,-0.795747,-217.783,0.164267,
2,1,0,1,0,5117.36,0.166095,0.165772,6.69225,3,0.0125623,10,0.00110939,-2.17443,-0.0745275,-0.791654,-207.07,0.165772,
2,1,0,1,0,5117.37,0.167599,0.167306,6.38893,3,0.0126853,10,0.00106891,-2.19457,-0.0776289,-0.760027,-189.858,0.167306,
2,1,0,1,0,5117.39,0.169095,0.16879,6.11526,3,0.0128024,10,0.00103219,-2.21358,-0.0844644,-0.69852,-167.21,0.16879,
2,1,0,1,0,5117.41,0.170592,0.170304,5.86727,3,0.0129146,10,0.000999221,-2.23156,-0.0860102,-0.685965,-157.578,0.170304,
2,1,0,1,0,5117.43,0.172095,0.171781,5.6373,3,0.0130229,10,0.000968381,-2.24893,-0.0928166,-0.635662,-140.41,0.171781,
2,1,0,1,0,5117.45,0.173583,0.173284,5.44282,3,0.0131262,10,0.000943153,-2.26418,-0.102763,-0.574137,-122.344,0.173284,
2,1,0,1,0,5117.47,0.175086,0.174808,5.27062,3,0.0132272,10,0.000921346,-2.27814,-0.110265,-0.535074,-110.321,0.174808,
2,1,0,1,0,5117.49,0.17659,0.176329,5.11204,3,0.0133251,10,0.000901402,-2.29141,-0.116018,-0.508541,-101.657,0.176329,
2,1,0,1,0,5117.51,0.178079,0.177804,4.97088,3,0.0134191,10,0.000883841,-2.30357,-0.124883,-0.472441,-91.9614,0.177804,
2,1,0,1,0,5117.52,0.179582,0.179268,4.8425,3,0.0135116,10,0.000868106,-2.31493,-0.135742,-0.434647,-82.4554,0.179268,
2,1,0,1,0,5117.54,0.181086,0.180765,4.72614,3,0.0136018,10,0.000854322,-2.32549,-0.144394,-0.408605,-75.6047,0.180765,
2,1,0,1,0,5117.56,0.182575,0.182298,4.63792,3,0.0136891,10,0.000845482,-2.33368,-0.15028,-0.392602,-70.9157,0.182298,
2,1,0,1,0,5117.58,0.184079,0.183786,4.53711,3,0.0137754,10,0.000833857,-2.34322,-0.157157,-0.37542,-66.3825,0.183786,
2,1,0,1,0,5117.6,0.185582,0.185292,4.43912,3,0.0138598,10,0.000822532,-2.3527,-0.170035,-0.346987,-60.2062,0.185292,
2,1,0,1,0,5117.62,0.18707,0.186781,4.36556,3,0.0139418,10,0.000815404,-2.35996,-0.190631,-0.309498,-52.684,0.186781,
2,1,0,1,0,5117.64,0.188573,0.188239,4.28584,3,0.0140232,10,0.00080676,-2.36796,-0.211701,-0.278695,-46.6097,0.188239,
2,1,0,1,0,5117.65,0.19007,0.189747,4.22376,3,0.0141028,10,0.000801445,-2.3743,-0.223157,-0.264388,-43.4873,0.189747,
2,1,0,1,0,5117.67,0.191566,0.191279,4.14724,3,0.0141811,10,0.000793282,-2.38224,-0.245118,-0.2407,-38.982,0.191279,
2,1,0,1,0,5117.69,0.19307,0.192714,4.0843,3,0.0142587,10,0.000787101,-2.38888,-0.275599,-0.214079,-34.1731,0.192714,
2,1,0,1,0,5117.71,0.194559,0.194285,4.03607,3,0.0143345,10,0.000784147,-2.39404,-0.274672,-0.214802,-33.8435,0.194285,
2,1,0,1,0,5117.73,0.196063,0.195789,3.97871,3,0.0144101,10,0.000778987,-2.40026,-0.264648,-0.222938,-34.6457,0.195789,
2,1,0,1,0,5117.75,0.197566,0.197276,3.91553,3,0.0144847,10,0.000772443,-2.40721,-0.275006,-0.214541,-32.9688,0.197276,
2,1,0,1,0,5117.77,0.199055,0.198756,3.88356,3,0.0145575,10,0.000771882,-2.41077,-0.28827,-0.204669,-31.0604,0.198756,
2,1,0,1,0,5117.79,0.200559,0.200306,3.84019,3,0.0146303,10,0.000769212,-2.41565,-0.319388,-0.184728,-27.7045,0.200306,
2,1,0,1,0,5117.8,0.202062,0.201778,3.80053,3,0.0147025,10,0.000766863,-2.42016,-0.295049,-0.199967,-29.6636,0.201778,
2,1,0,1,0,5117.82,0.20355,0.203211,3.76146,3,0.0147731,10,0.00076437,-2.42464,-0.317226,-0.185987,-27.3509,0.203211,
2,1,0,1,0,5117.84,0.205053,0.204784,3.72828,3,0.0148437,10,0.000763491,-2.42849,-0.397737,-0.148339,-21.6495,0.204784,
2,1,0,1,0,5117.86,0.20655,0.206232,3.69768,3,0.0149134,10,0.000762581,-2.43207,-0.443025,-0.133175,-19.2496,0.206232,
2,1,0,1,0,5117.88,0.208046,0.207735,3.68639,3,0.0149827,10,0.000765793,-2.4334,-0.362006,-0.162981,-23.3588,0.207735,
2,1,0,1,0,5117.9,0.20955,0.209285,3.64897,3,0.0150518,10,0.000763676,-2.43783,-0.379639,-0.155411,-22.1067,0.209285,
2,1,0,1,0,5117.92,0.211039,0.21075,3.61913,3,0.0151195,10,0.000762731,-2.4414,-0.493567,-0.119538,-16.8812,0.21075,
2,1,0,1,0,5117.94,0.212543,0.21226,3.59502,3,0.0151874,10,0.000763079,-2.4443,-0.592992,-0.0994954,-13.9442,0.21226,
2,1,0,1,0,5117.95,0.214046,0.213687,3.57066,3,0.0152549,10,0.000763006,-2.44725,-0.607908,-0.0970541,-13.5172,0.213687,
2,1,0,1,0,5117.97,0.215535,0.215204,3.54869,3,0.0153212,10,0.000763693,-2.44993,-0.666797,-0.0884827,-12.2313,0.215204,
2,1,0,1,0,5117.99,0.217039,0.216804,3.516,3,0.0153878,10,0.000762284,-2.45395,-0.789265,-0.0747531,-10.2837,0.216804,
2,1,0,1,0,5118.01,0.218543,0.218218,3.49676,3,0.0154541,10,0.000763054,-2.45633,-1.32065,-0.0446748,-6.10806,0.218218,
2,1,0,1,0,5118.03,0.22003,0.219726,3.48609,3,0.0155193,10,0.000765984,-2.45766,-0.873902,-0.0675133,-9.19466,0.219726,
2,1,0,1,0,5118.05,0.221534,0.221211,3.46436,3,0.015585,10,0.000766354,-2.46038,-0.681515,-0.0865719,-11.7143,0.221211,
2,1,0,1,0,5118.07,0.22303,0.222703,3.44249,3,0.0156499,10,0.000766654,-2.46313,-0.611087,-0.0965493,-13.0121,0.222703,
2,1,0,1,0,5118.09,0.224526,0.224213,3.43114,3,0.0157145,10,0.000769306,-2.46456,-0.654186,-0.0901884,-12.105,0.224213,
2,1,0,1,0,5118.1,0.22603,0.225764,3.41831,3,0.0157792,10,0.000771729,-2.46619,-0.629165,-0.093775,-12.5118,0.225764,
2,1,0,1,0,5118.12,0.227519,0.227236,3.40464,3,0.0158429,10,0.000773655,-2.46793,-0.537794,-0.109707,-14.5946,0.2272357,
2,1,0,1,0,5118.14,0.229023,0.228734,3.39292,3,0.0159071,10,0.000776077,-2.46943,-0.632258,-0.0933164,-12.3656,0.228734,
2,1,0,1,0,5118.16,0.230526,0.230212,3.37947,3,0.0159709,10,0.000777993,-2.47115,-0.784702,-0.0751877,-9.93414,0.230212,
2,1,0,1,0,5118.18,0.232016,0.231717,3.37198,3,0.0160339,10,0.000781346,-2.47211,-0.970031,-0.0608228,-7.99168,0.231717,
2,1,0,1,0,5118.2,0.233519,0.233228,3.36758,3,0.0160973,10,0.000785415,-2.47268,-0.825048,-0.071511,-9.36654,0.233228,
2,1,0,1,0,5118.22,0.235023,0.234741,3.3556,3,0.0161606,10,0.000787697,-2.47423,-1.20318,-0.0490366,-6.40016,0.234741,
2,1,0,1,0,5118.24,0.23651,0.236236,3.33809,3,0.0162229,10,0.000788575,-2.4765,-1.19212,-0.0494916,-6.4429,0.236236,
2,1,0,1,0,5118.25,0.238014,0.237783,3.32684,3,0.0162857,10,0.000791064,-2.47797,-2.46837,-0.0239024,-3.09763,0.237783,
2,1,0,1,0,5118.27,0.23951,0.239217,3.31901,3,0.016348,10,0.000793965,-2.47899,-2.7358,-0.0215659,-2.78787,0.239217,
2,1,0,1,0,5118.29,0.241006,0.240718,3.30141,3,0.01641,10,0.000794708,-2.4813,-1.49705,-0.0394108,-5.08244,0.240718,
2,1,0,1,0,5118.31,0.24251,0.242178,3.28477,3,0.0164722,10,0.000795499,-2.4835,-2.24992,-0.0262232,-3.37231,0.242178,
2,1,0,1,0,5118.33,0.243999,0.243705,3.27883,3,0.0165336,10,0.000799068,-2.48428,-2.52765,-0.0233418,-2.99455,0.243705,
2,1,0,1,0,5118.35,0.245503,0.245231,3.2765,3,0.0165955,10,0.0008035,-2.48459,-1.52578,-0.0386687,-4.94619,0.2452313,
2,1,0,1,0,5118.37,0.247006,0.246693,3.26352,3,0.0166573,10,0.000805089,-2.48631,-0.882964,-0.0668204,-8.51024,0.246693,
2,1,0,1,0,5118.39,0.248496,0.248208,3.25465,3,0.0167182,10,0.00080783,-2.4875,-0.999262,-0.0590435,-7.51198,0.248208,
2,1,0,1,0,5118.4,0.249999,0.249694,3.2501,3,0.0167796,10,0.000811531,-2.4881,-1.02018,-0.057833,-7.33454,0.249694,
2,1,0,1,0,5118.42,0.251503,0.251228,3.24089,3,0.0168408,10,0.000814204,-2.48934,-1.32212,-0.0446254,-5.64465,0.251228,
2,1,0,1,0,5118.44,0.25299,0.252712,3.23764,3,0.0169013,10,0.000818189,-2.48977,-0.886181,-0.0665778,-8.4008,0.2527118,
2,1,0,1,0,5118.46,0.254494,0.254199,3.22679,3,0.0169623,10,0.000820244,-2.49123,-0.971673,-0.06072,-7.64817,0.254199,
2,1,0,1,0,5118.48,0.25599,0.255731,3.21859,3,0.0170227,10,0.000823092,-2.49233,-1.29773,-0.0454639,-5.72433,0.255731,
2,1,0,1,0,5118.5,0.257487,0.257188,3.21393,3,0.017083,10,0.000826587,-2.49296,-2.17345,-0.0271458,-3.39915,0.257188,
2,1,0,1,0,5118.52,0.25899,0.258689,3.21226,3,0.0171436,10,0.000830976,-2.49319,-2.33739,-0.0252419,-3.15328,0.2586889,
2,1,0,1,0,5118.54,0.260479,0.260173,3.20424,3,0.0172034,10,0.000833656,-2.49428,-1.97841,-0.0298219,-3.72359,0.260173,
2,1,0,1,0,5118.55,0.261983,0.261716,3.1915,3,0.0172636,10,0.000835267,-2.496,-2.38708,-0.0247164,-3.07634,0.261716,
2,1,0,1,0,5118.57,0.263486,0.263191,3.18145,3,0.0173238,10,0.000837327,-2.49738,-30.3258,-0.00194554,-0.241458,0.263191,
2,1,0,1,0,5118.59,0.264974,0.2647,3.17712,3,0.0173832,10,0.000840984,-2.49797,-3.88585,-0.0151833,-1.88251,0.2646997,
2,1,0,1,0,5118.61,0.266477,0.266204,3.16624,3,0.0174431,10,0.000842865,-2.49946,-1.63968,-0.0359826,-4.45224,0.266204,
2,1,0,1,0,5118.63,0.267981,0.26768,3.153,3,0.0175028,10,0.000843996,-2.50128,-2.30754,-0.0255684,-3.15681,0.26768,
2,1,0,1,0,5118.65,0.26947,0.269178,3.14984,3,0.0175617,10,0.00084787,-2.50171,-2.49532,-0.0236443,-2.91241,0.269178,
2,1,0,1,0,5118.67,0.270974,0.270688,3.14617,3,0.0176211,10,0.000851631,-2.50222,-1.4785,-0.0399054,-4.8981,0.270688,
2,1,0,1,0,5118.68,0.27247,0.272163,3.14362,3,0.0176803,10,0.000855577,-2.50257,-0.936314,-0.0630131,-7.71378,0.272163,
2,1,0,1,0,5118.7,0.273967,0.273649,3.1312,3,0.0177392,10,0.000856851,-2.50429,-0.789151,-0.0747639,-9.15734,0.273649,
2,1,0,1,0,5118.72,0.27547,0.275138,3.1245,3,0.0177983,10,0.000859669,-2.50522,-0.878815,-0.0671359,-8.20685,0.275138,
2,1,0,1,0,5118.74,0.276959,0.276665,3.12316,3,0.0178566,10,0.00086407,-2.50541,-1.01078,-0.058371,-7.11437,0.276665,
2,1,0,1,0,5118.76,0.278463,0.278194,3.12164,3,0.0179155,10,0.000868423,-2.50562,-0.897127,-0.0657655,-7.99002,0.278194,
2,1,0,1,0,5118.78,0.279967,0.279661,3.11277,3,0.0179742,10,0.000870518,-2.50685,-1.30244,-0.0452995,-5.4966,0.279661,
2,1,0,1,0,5118.8,0.281454,0.281148,3.11001,3,0.0180322,10,0.000874374,-2.50724,-1.9055,-0.0309629,-3.75134,0.2811482,
2,1,0,1,0,5118.82,0.282958,0.282661,3.09817,3,0.0180906,10,0.000875729,-2.5089,-44.9252,-0.0013133,-0.158658,0.282661,
2,1,0,1,0,5118.83,0.284461,0.284168,3.09368,3,0.018149,10,0.000879124,-2.50952,-3.8463,-0.0153394,-1.84999,0.284168,
2,1,0,1,0,5118.85,0.28595,0.285633,3.0818,3,0.0182067,10,0.000880263,-2.5112,-1.56251,-0.0377597,-4.5436,0.2856327,
2,1,0,1,0,5118.87,0.287454,0.287136,3.06797,3,0.0182648,10,0.000880924,-2.51315,-1.60215,-0.0368255,-4.41952,0.287136,
2,1,0,1,0,5118.89,0.28895,0.28866,3.06525,3,0.0183224,10,0.000884817,-2.51353,-24.6811,-0.00239049,-0.28618,0.28866,
2,1,0,1,0,5118.91,0.290447,0.290151,3.05489,3,0.0183799,10,0.000886379,-2.515,-4.40116,-0.0134056,-1.60385,0.290151,
2,1,0,1,0,5118.93,0.29195,0.291674,3.05,3,0.0184377,10,0.000889607,-2.5157,-1.21908,-0.0483973,-5.76613,0.291674,
2,1,0,1,0,5118.95,0.29344,0.293112,3.04213,3,0.0184947,10,0.000891686,-2.51682,-1.17357,-0.0502739,-5.9853,0.293112,
2,1,0,1,0,5118.97,0.294943,0.294638,3.03732,3,0.0185521,10,0.000894908,-2.51751,-1.65495,-0.0356506,-4.23496,0.2946378,
2,1,0,1,0,5118.98,0.296447,0.296168,3.03675,3,0.0186095,10,0.000899387,-2.51759,-1.60399,-0.0367834,-4.35741,0.296168,
2,1,0,1,0,5119,0.297934,0.297668,3.03548,3,0.0186662,10,0.000903565,-2.51777,-1.18109,-0.049954,-5.91218,0.297668,
2,1,0,1,0,5119.02,0.299438,0.299172,3.02065,3,0.0187233,10,0.000903694,-2.5199,-0.0208212,-2.83365,-297.472,0.299172,
2,1,0,1,0,5119.03,0.300012,0.299689,3.01271,3,0.0187445,10,0.000902877,-2.52104,0.000833228,70.8089,3678.97,0.2996892,
2,1,0,1,0,5119.05,0.298737,0.298437,0.867125,3,0.018772,10,0.000258782,-3.06192,0.00348573,16.9262,1006.01,0.298437,
2,0,0,1,0,5119.06,0.29724,0.296913,-0.138921,3,0.0187773,10,-4.12475e-05,-3.85723,0.01241,4.75423,544.344,0.296913,
2,0,0,1,0,5119.08,0.295744,0.295399,-0.599179,3,0.0187698,10,-0.000176997,-3.22244,-0.00450147,-13.1068,251.146,0.295399,
2,0,0,1,0,5119.1,0.29424,0.293951,-0.836737,3,0.0187558,10,-0.00024596,-3.07741,-0.0120588,-4.89271,136.606,0.293951,
2,0,0,1,0,5119.12,0.292751,0.29244,-0.977794,3,0.0187385,10,-0.000285946,-3.00975,-0.0242693,-2.43106,89.0029,0.29244,
2,0,0,1,0,5119.14,0.291248,0.290928,-1.08866,3,0.0187188,10,-0.000316722,-2.96311,-0.0380451,-1.55079,64.7003,0.290928,
2,0,0,1,0,5119.16,0.289744,0.289403,-1.17432,3,0.0186973,10,-0.000339852,-2.93021,-0.049538,-1.191,53.7921,0.289403,
2,0,0,1,0,5119.18,0.288257,0.287975,-1.24172,3,0.0186745,10,-0.000357586,-2.90597,-0.0694302,-0.849774,40.8735,0.287975,
2,0,0,1,0,5119.19,0.286753,0.286448,-1.29926,3,0.0186503,10,-0.000372172,-2.8863,-0.0838947,-0.703263,35.5899,0.286448,
2,0,0,1,0,5119.21,0.285249,0.284945,-1.35589,3,0.0186251,10,-0.000386355,-2.86777,-0.0954797,-0.617933,32.6404,0.284945,
2,0,0,1,0,5119.23,0.28376,0.283483,-1.40985,3,0.0185991,10,-0.000399668,-2.85083,-0.110074,-0.536005,29.4049,0.2834833,
2,0,0,1,0,5119.25,0.282257,0.281969,-1.45918,3,0.018572,10,-0.000411444,-2.83589,-0.131775,-0.447734,25.3189,0.281969,
2,0,0,1,0,5119.27,0.28076,0.280459,-1.50315,3,0.0185442,10,-0.000421573,-2.823,-0.142368,-0.414419,24.1534,0.280459,
2,0,0,1,0,5119.29,0.279264,0.278976,-1.53872,3,0.0185158,10,-0.000429265,-2.81284,-0.142193,-0.41493,24.7964,0.278976,
2,0,0,1,0,5119.31,0.27776,0.277432,-1.57738,3,0.0184864,10,-0.000437615,-2.80206,-0.135061,-0.43684,26.7121,0.277432,
2,0,0,1,0,5119.33,0.276271,0.275957,-1.61128,3,0.0184566,10,-0.000444645,-2.79283,-0.149405,-0.3949,24.7318,0.275957,
2,0,0,1,0,5119.34,0.274767,0.274449,-1.64663,3,0.0184259,10,-0.000451916,-2.7834,-0.160869,-0.366758,23.4234,0.274449,
2,0,0,1,0,5119.36,0.273264,0.272941,-1.6692,3,0.0183947,10,-0.000455593,-2.77749,-0.158786,-0.37157,24.2227,0.272941,
2,0,0,1,0,5119.38,0.271776,0.271448,-1.69491,3,0.0183631,10,-0.000460081,-2.77085,-0.156293,-0.377496,25.0358,0.271448,
2,0,0,1,0,5119.4,0.270273,0.269992,-1.73158,3,0.0183307,10,-0.000467511,-2.76156,-0.185122,-0.318708,21.4977,0.269992,
2,0,0,1,0,5119.42,0.268769,0.26846,-1.75481,3,0.0182976,10,-0.000471097,-2.75577,-0.217307,-0.271505,18.5793,0.26846,
2,0,0,1,0,5119.44,0.26728,0.266953,-1.77439,3,0.0182645,10,-0.000473678,-2.75095,-0.245412,-0.240412,16.7426,0.266953,
2,0,0,1,0,5119.46,0.265777,0.265453,-1.80419,3,0.0182306,10,-0.000478929,-2.74372,-0.298239,-0.197828,13.9696,0.265453,
2,0,0,1,0,5119.48,0.26428,0.26399,-1.83551,3,0.0181963,10,-0.000484555,-2.73624,-0.280993,-0.209969,15.0462,0.26399,
2,0,0,1,0,5119.49,0.262784,0.262495,-1.8556,3,0.0181615,10,-0.000487087,-2.73151,-0.349692,-0.16872,12.2273,0.262495,
2,0,0,1,0,5119.51,0.26128,0.260964,-1.88015,3,0.0181261,10,-0.000490652,-2.72581,-0.379563,-0.155442,11.4203,0.260964,
2,0,0,1,0,5119.53,0.259791,0.259476,-1.90464,3,0.0180908,10,-0.000494207,-2.72019,-0.312116,-0.189033,14.1111,0.259476,
2,0,0,1,0,5119.55,0.258287,0.257946,-1.93123,3,0.0180546,10,-0.000498153,-2.71417,-0.306907,-0.19224,14.4558,0.257946,
2,0,0,1,0,5119.57,0.256786,0.25648,-1.95527,3,0.0180179,10,-0.000501487,-2.70879,-0.358765,-0.164453,12.4794,0.25648,
2,0,0,1,0,5119.59,0.255296,0.254986,-1.98079,3,0.0179812,10,-0.000505075,-2.70316,-0.380351,-0.15512,11.9407,0.254986,
2,0,0,1,0,5119.61,0.253793,0.253443,-1.99288,3,0.0179438,10,-0.000505083,-2.70052,-0.309223,-0.190801,14.8248,0.2534433,
2,0,0,1,0,5119.63,0.252289,0.252,-2.01521,3,0.017906,10,-0.000507835,-2.69568,-0.274484,-0.214948,16.8562,0.252,
2,0,0,1,0,5119.64,0.2508,0.250487,-2.03481,3,0.0178682,10,-0.000509693,-2.69148,-0.288217,-0.204707,16.2406,0.250487,
2,0,0,1,0,5119.66,0.249296,0.248999,-2.0551,3,0.0178296,10,-0.000511719,-2.68717,-0.3521,-0.167566,13.4241,0.248999,
2,0,0,1,0,5119.68,0.2478,0.247481,-2.06565,3,0.0177909,10,-0.000511211,-2.68494,-0.323839,-0.182189,14.7391,0.247481,
2,0,0,1,0,5119.7,0.246304,0.246012,-2.08503,3,0.0177518,10,-0.000512943,-2.68089,-0.285124,-0.206928,16.892,0.246012,
2,0,0,1,0,5119.72,0.2448,0.24452,-2.10858,3,0.0177121,10,-0.00051559,-2.67601,-0.31825,-0.185389,15.2682,0.24452,
2,0,0,1,0,5119.74,0.243313,0.243005,-2.12253,3,0.0176725,10,-0.000515784,-2.67315,-0.428322,-0.137747,11.4369,0.243005,
2,0,0,1,0,5119.76,0.241809,0.241487,-2.13655,3,0.017632,10,-0.000515949,-2.67029,-0.423304,-0.13938,11.6752,0.241487,
2,0,0,1,0,5119.78,0.240306,0.239989,-2.15826,3,0.0175914,10,-0.000517959,-2.6659,-0.570238,-0.103466,8.74492,0.239989,
2,0,0,1,0,5119.79,0.238816,0.238544,-2.18222,3,0.0175508,10,-0.000520556,-2.6611,-0.507628,-0.116227,9.88217,0.238544,
2,0,0,1,0,5119.81,0.237313,0.236993,-2.19966,3,0.0175094,10,-0.000521304,-2.65764,-0.51166,-0.115311,9.89013,0.236993,
2,0,0,1,0,5119.83,0.235809,0.235526,-2.22137,3,0.0174676,10,-0.000523192,-2.65338,-0.634228,-0.0930265,8.0594,0.235526,
2,0,0,1,0,5119.85,0.23432,0.233972,-2.23427,3,0.0174261,10,-0.000522755,-2.65086,-0.542738,-0.108708,9.50373,0.233972,
2,0,0,1,0,5119.87,0.232816,0.232513,-2.25655,3,0.0173837,10,-0.000524678,-2.64655,-0.478185,-0.123383,10.8574,0.232513,
2,0,0,1,0,5119.89,0.23132,0.231023,-2.28167,3,0.0173412,10,-0.00052712,-2.64175,-0.469455,-0.125678,11.1402,0.231023,
2,0,0,1,0,5119.91,0.229824,0.229508,-2.29474,3,0.0172983,10,-0.000526661,-2.63927,-0.416587,-0.141627,12.6539,0.229508,
2,0,0,1,0,5119.93,0.22832,0.228036,-2.30875,3,0.017255,10,-0.00052648,-2.63662,-0.388777,-0.151758,13.658,0.228036,
2,0,0,1,0,5119.94,0.226833,0.226495,-2.32395,3,0.0172118,10,-0.000526364,-2.63377,-0.333351,-0.17699,15.998,0.2264954,
2,0,0,1,0,5119.96,0.225329,0.225018,-2.33836,3,0.0171678,10,-0.000526173,-2.63109,-0.38674,-0.152557,13.9372,0.225018,
2,0,0,1,0,5119.98,0.223825,0.223478,-2.35673,3,0.0171234,10,-0.000526677,-2.62769,-0.450638,-0.130925,12.0522,0.223478,
2,0,0,1,0,5120,0.222336,0.222036,-2.36732,3,0.0170792,10,-0.000525629,-2.62574,-0.42685,-0.138222,12.8032,0.222036,
2,0,0,1,0,5120.02,0.220833,0.220549,-2.38231,3,0.0170343,10,-0.000525416,-2.623,-0.421504,-0.139975,13.0789,0.220549,
2,0,0,1,0,5120.04,0.219329,0.218969,-2.40605,3,0.016989,10,-0.00052685,-2.6187,-0.463029,-0.127422,11.9732,0.218969,
2,0,0,1,0,5120.06,0.21784,0.217532,-2.42411,3,0.0169437,10,-0.000527322,-2.61545,-0.59968,-0.0983858,9.30823,0.217532,
2,0,0,1,0,5120.08,0.216336,0.216061,-2.43951,3,0.0168977,10,-0.000527082,-2.6127,-0.831563,-0.0709507,6.76828,0.216061,
2,0,0,1,0,5120.09,0.21484,0.214476,-2.46484,3,0.0168517,10,-0.000528649,-2.60821,-0.599014,-0.0984953,9.48741,0.214476,
2,0,0,1,0,5120.11,0.213343,0.213036,-2.48107,3,0.0168053,10,-0.000528557,-2.60536,-0.549618,-0.107347,10.3963,0.213036,
2,0,0,1,0,5120.13,0.21184,0.211553,-2.50391,3,0.0167583,10,-0.000529711,-2.60138,-0.809852,-0.0728528,7.10144,0.211553,
2,0,0,1,0,5120.15,0.210352,0.210057,-2.52457,3,0.0167115,10,-0.000530305,-2.59781,-0.506589,-0.116465,11.4306,0.210057,
2,0,0,1,0,5120.17,0.208849,0.208555,-2.53928,3,0.0166638,10,-0.000529578,-2.59529,-0.423586,-0.139287,13.8131,0.208555,
2,0,0,1,0,5120.19,0.207345,0.207053,-2.5582,3,0.0166158,10,-0.000529683,-2.59207,-0.375052,-0.157312,15.7023,0.207053,
2,0,0,1,0,5120.21,0.205856,0.205542,-2.58805,3,0.0165678,10,-0.000531952,-2.58703,-0.364872,-0.161701,16.2491,0.205542,
2,0,0,1,0,5120.22,0.204353,0.204019,-2.602,3,0.0165189,10,-0.000530856,-2.58469,-0.488547,-0.120766,12.2463,0.204019,
2,0,0,1,0,5120.24,0.202849,0.20258,-2.60981,3,0.0164698,10,-0.000528694,-2.58339,-0.385168,-0.15318,15.6414,0.20258,
2,0,0,1,0,5120.26,0.20136,0.201059,-2.63279,3,0.0164208,10,-0.000529345,-2.57958,-0.356088,-0.165689,17.0307,0.2010588,
2,0,0,1,0,5120.28,0.199856,0.199536,-2.65472,3,0.0163709,10,-0.000529711,-2.57598,-0.353919,-0.166705,17.2965,0.199536,
2,0,0,1,0,5120.3,0.19836,0.198043,-2.67639,3,0.0163207,10,-0.000530038,-2.57245,-0.384764,-0.153341,16.0394,0.198043,
2,0,0,1,0,5120.32,0.196863,0.19657,-2.69242,3,0.0162703,10,-0.000529248,-2.56986,-0.419566,-0.140621,14.8257,0.19657,
2,0,0,1,0,5120.34,0.19536,0.195037,-2.71632,3,0.0162192,10,-0.000529783,-2.56602,-0.372101,-0.158559,16.8727,0.195037,
2,0,0,1,0,5120.36,0.193872,0.193561,-2.75027,3,0.0161681,10,-0.000532345,-2.56062,-0.383639,-0.153791,16.4765,0.193561,
2,0,0,1,0,5120.37,0.192369,0.192051,-2.77148,3,0.0161159,10,-0.000532266,-2.55729,-0.483302,-0.122077,13.1925,0.192051,
2,0,0,1,0,5120.39,0.190865,0.19056,-2.79285,3,0.0160634,10,-0.000532204,-2.55395,-0.48663,-0.121242,13.2504,0.19056,
2,0,0,1,0,5120.41,0.189376,0.189044,-2.82126,3,0.016011,10,-0.000533341,-2.54956,-0.458603,-0.128652,14.1773,0.189044,
2,0,0,1,0,5120.43,0.187872,0.18752,-2.8522,3,0.0159575,10,-0.000534846,-2.54482,-0.36814,-0.160265,17.8343,0.18752,
2,0,0,1,0,5120.45,0.186369,0.186044,-2.88224,3,0.0159034,10,-0.000536223,-2.54027,-0.384583,-0.153413,17.248,0.186044,
2,0,0,1,0,5120.47,0.18488,0.184569,-2.91909,3,0.0158494,10,-0.000538775,-2.53475,-0.317373,-0.185901,21.1069,0.184569,
2,0,0,1,0,5120.49,0.183376,0.183057,-2.94438,3,0.0157943,10,-0.00053899,-2.53101,-0.329953,-0.178813,20.5548,0.183057,
2,0,0,1,0,5120.51,0.18188,0.181589,-2.98022,3,0.0157388,10,-0.000541176,-2.52575,-0.271451,-0.21735,25.2177,0.181589,
2,0,0,1,0,5120.52,0.180383,0.180038,-3.01527,3,0.0156827,10,-0.000542863,-2.52067,-0.245652,-0.240177,28.2091,0.1800379,
2,0,0,1,0,5120.54,0.17888,0.178583,-3.05109,3,0.0156256,10,-0.000544871,-2.51555,-0.257859,-0.228808,27.2109,0.1785825,
2,0,0,1,0,5120.56,0.177392,0.177096,-3.07648,3,0.0155684,10,-0.000544832,-2.51195,-0.253263,-0.232959,28.0542,0.177096,
2,0,0,1,0,5120.58,0.175889,0.175566,-3.11892,3,0.01551,10,-0.000547578,-2.506,-0.225911,-0.261165,31.8162,0.175566,
2,0,0,1,0,5120.6,0.174385,0.174056,-3.16696,3,0.0154506,10,-0.000551228,-2.49936,-0.226912,-0.260012,32.1643,0.174056,
2,0,0,1,0,5120.62,0.172896,0.172611,-3.21099,3,0.015391,10,-0.00055425,-2.49336,-0.244349,-0.241458,30.325,0.172611,
2,0,0,1,0,5120.64,0.171392,0.171112,-3.25898,3,0.0153299,10,-0.000557651,-2.48692,-0.217654,-0.271073,34.6075,0.171112,
2,0,0,1,0,5120.66,0.169889,0.169592,-3.312,3,0.0152679,10,-0.000561689,-2.47991,-0.217613,-0.271123,35.1567,0.169592,
2,0,0,1,0,5120.67,0.1684,0.168054,-3.38674,3,0.0152054,10,-0.000569155,-2.47022,-0.20294,-0.290727,38.379,0.168054,
2,0,0,1,0,5120.69,0.166896,0.166553,-3.44647,3,0.015141,10,-0.000574021,-2.46263,-0.199852,-0.295218,39.6751,0.166553,
2,0,0,1,0,5120.71,0.165392,0.165115,-3.51019,3,0.0150754,10,-0.000579586,-2.45467,-0.186019,-0.317172,43.4851,0.165115,
2,0,0,1,0,5120.73,0.163905,0.163584,-3.58091,3,0.0150094,10,-0.000585779,-2.44601,-0.167059,-0.353169,49.4826,0.163584,
2,0,0,1,0,5120.75,0.162401,0.16211,-3.65932,3,0.0149412,10,-0.000593214,-2.4366,-0.148906,-0.396223,56.6549,0.16211,
2,0,0,1,0,5120.77,0.160905,0.160605,-3.75278,3,0.0148718,10,-0.000602715,-2.42565,-0.144725,-0.407671,59.6984,0.160605,
2,0,0,1,0,5120.79,0.159409,0.159073,-3.84383,3,0.0148006,10,-0.00061145,-2.41524,-0.133566,-0.441728,66.2422,0.159073,
2,0,0,1,0,5120.81,0.157905,0.157536,-3.93826,3,0.0147274,10,-0.000620418,-2.4047,-0.124978,-0.472082,72.6776,0.157536,
2,0,0,1,0,5120.82,0.156416,0.156093,-4.05347,3,0.014653,10,-0.000632719,-2.39217,-0.114589,-0.514884,81.4474,0.1560932,
2,0,0,1,0,5120.84,0.154912,0.15458,-4.1748,3,0.0145755,10,-0.000645339,-2.37936,-0.107661,-0.548018,89.388,0.15458,
2,0,0,1,0,5120.86,0.153409,0.153095,-4.3078,3,0.0144956,10,-0.000659504,-2.36574,-0.107021,-0.551293,92.7838,0.153095,
2,0,0,1,0,5120.88,0.151919,0.151619,-4.43787,3,0.014414,10,-0.000672864,-2.35283,-0.103582,-0.569595,99.1215,0.151619,
2,0,0,1,0,5120.9,0.150416,0.150115,-4.5976,3,0.0143288,10,-0.000690169,-2.33747,-0.0946828,-0.623133,112.196,0.150115,
2,0,0,1,0,5120.92,0.148912,0.148579,-4.77593,3,0.0142404,10,-0.000709603,-2.32094,-0.0920689,-0.640824,119.701,0.148579,
2,0,0,1,0,5120.94,0.147425,0.147146,-4.95431,3,0.0141496,10,-0.000729009,-2.30502,-0.0903936,-0.652701,126.522,0.147146,
2,0,0,1,0,5120.96,0.145921,0.145615,-5.15298,3,0.0140543,10,-0.000750351,-2.28794,-0.0888376,-0.664133,133.971,0.145615,
2,0,0,1,0,5120.97,0.144425,0.144095,-5.3751,3,0.0139556,10,-0.000774525,-2.26961,-0.086282,-0.683804,143.643,0.144095,
2,0,0,1,0,5120.99,0.142929,0.142607,-5.60389,3,0.0138528,10,-0.000799152,-2.25151,-0.083328,-0.708045,154.967,0.142607,
2,0,0,1,0,5121.01,0.141425,0.141112,-5.84901,3,0.013745,10,-0.000825369,-2.23292,-0.0840873,-0.701652,159.926,0.1411124,
2,0,0,1,0,5121.03,0.139936,0.139585,-6.09872,3,0.0136338,10,-0.000851288,-2.21476,-0.085921,-0.686677,163.223,0.139585,
2,0,0,1,0,5121.05,0.138432,0.138081,-6.34719,3,0.0135167,10,-0.000876424,-2.19742,-0.085582,-0.689397,170.801,0.138081,
2,0,0,1,0,5121.07,0.136929,0.136622,-6.60981,3,0.0133949,10,-0.000903044,-2.17981,-0.085606,-0.689204,177.64,0.136622,
2,0,0,1,0,5121.09,0.135439,0.135133,-6.87675,3,0.0132694,10,-0.000929273,-2.16262,-0.0900505,-0.655188,175.377,0.1351326,
2,0,0,1,0,5121.11,0.133936,0.133626,-7.14189,3,0.0131374,10,-0.000954345,-2.14619,-0.0920579,-0.640901,178.013,0.1336264,
2,0,0,1,0,5121.12,0.132432,0.132114,-7.37776,3,0.0130008,10,-0.000974706,-2.13208,-0.0992453,-0.594487,171.259,0.132114,
2,0,0,1,0,5121.14,0.130945,0.130643,-7.63985,3,0.0128609,10,-0.00099809,-2.11692,-0.100494,-0.587097,174.676,0.130643,
2,0,0,1,0,5121.16,0.129441,0.129112,-7.88593,3,0.0127147,10,-0.00101817,-2.10315,-0.110208,-0.53535,164.643,0.129112,
2,0,0,1,0,5121.18,0.127945,0.127627,-8.13037,3,0.0125646,10,-0.00103766,-2.08989,-0.119655,-0.493084,156.162,0.127627,
2,0,0,1,0,5121.2,0.126448,0.126119,-8.34023,3,0.0124102,10,-0.00105186,-2.07882,-0.130131,-0.453391,147.657,0.126119,
2,0,0,1,0,5121.22,0.124945,0.124667,-8.56418,3,0.0122509,10,-0.00106767,-2.06731,-0.147063,-0.40119,133.889,0.124667,
2,0,0,1,0,5121.24,0.123456,0.123138,-8.75933,3,0.0120894,10,-0.00107861,-2.05753,-0.16217,-0.363815,124.162,0.123138,
2,0,0,1,0,5121.25,0.121952,0.121628,-8.94279,3,0.0119228,10,-0.00108769,-2.04853,-0.190028,-0.310481,108.084,0.121628,
2,0,0,1,0,5121.27,0.120449,0.120146,-9.10788,3,0.0117528,10,-0.00109428,-2.04058,-0.207556,-0.28426,100.888,0.120146,
2,0,0,1,0,5121.29,0.118959,0.11863,-9.2543,3,0.011582,10,-0.00109784,-2.03366,-0.239629,-0.246213,88.8024,0.1186299,
2,0,0,1,0,5121.31,0.117456,0.117173,-9.3899,3,0.0114066,10,-0.00110025,-2.02734,-0.264288,-0.223242,81.5848,0.117173,
2,0,0,1,0,5121.33,0.115952,0.115639,-9.50602,3,0.0112288,10,-0.00109926,-2.022,-0.303798,-0.194208,71.8567,0.115639,
2,0,0,1,0,5121.35,0.114465,0.11417,-9.6051,3,0.0110509,10,-0.00109661,-2.0175,-0.379846,-0.155326,58.0978,0.11417,
2,0,0,1,0,5121.37,0.112961,0.112692,-9.67617,3,0.0108695,10,-0.00109042,-2.0143,-0.444244,-0.13281,50.1051,0.112692,
2,0,0,1,0,5121.39,0.111465,0.111161,-9.74479,3,0.0106878,10,-0.00108324,-2.01123,-0.560502,-0.105263,39.957,0.111161,
2,0,0,1,0,5121.4,0.109968,0.109666,-9.80166,3,0.0105048,10,-0.00107491,-2.0087,-0.761418,-0.077487,29.5603,0.109666,
2,0,0,1,0,5121.42,0.108465,0.108144,-9.82954,3,0.0103202,10,-0.00106301,-2.00747,-1.37115,-0.0430296,16.4744,0.108144,
2,0,0,1,0,5121.44,0.106976,0.10669,-9.82926,3,0.0101372,10,-0.00104869,-2.00748,-3.59599,-0.0164071,6.29052,0.10669,
2,0,0,1,0,5121.46,0.105472,0.105174,-9.83266,3,0.00995204,10,-0.00103414,-2.00733,-48.9297,-0.00120581,0.462653,0.105174,
2,0,0,1,0,5121.48,0.103968,0.103681,-9.8254,3,0.00976694,10,-0.00101871,-2.00765,2.19513,0.0268777,-10.2991,0.103681,
2,0,0,1,0,5121.5,0.102479,0.102175,-9.80168,3,0.00958407,10,-0.00100148,-2.0087,0.909606,0.0648632,-24.7771,0.102175,
2,0,0,1,0,5121.52,0.100976,0.100627,-9.74966,3,0.00939997,10,-0.000981078,-2.01101,0.616068,0.0957687,-36.4293,0.100627,
2,0,0,1,0,5121.54,0.0994721,0.0991571,-9.69439,3,0.00921689,10,-0.000961268,-2.01348,0.518515,0.113787,-43.0352,0.0991571,
2,0,0,1,0,5121.55,0.0979846,0.097655,-9.63298,3,0.00903691,10,-0.000940709,-2.01624,0.441039,0.133775,-50.2341,0.097655,
2,0,0,1,0,5121.57,0.0964811,0.096186,-9.55451,3,0.00885637,10,-0.00091901,-2.01979,0.347314,0.169875,-63.2152,0.096186,
2,0,0,1,0,5121.59,0.0949847,0.094669,-9.4601,3,0.00867839,10,-0.000895578,-2.0241,0.31715,0.186032,-68.5826,0.094669,
2,0,0,1,0,5121.61,0.0934883,0.093179,-9.35728,3,0.00850238,10,-0.000871902,-2.02885,0.307978,0.191572,-69.9354,0.093179,
2,0,0,1,0,5121.63,0.0919847,0.0916663,-9.24936,3,0.0083274,10,-0.000847855,-2.03389,0.283463,0.20814,-75.0293,0.0916663,
2,0,0,1,0,5121.65,0.0904955,0.0902222,-9.13274,3,0.00815627,10,-0.000823976,-2.0394,0.26597,0.22183,-78.9733,0.09022218,
2,0,0,1,0,5121.67,0.0889919,0.0886478,-9.01556,3,0.00798556,10,-0.00079921,-2.04501,0.254878,0.231484,-81.3827,0.0886478,
2,0,0,1,0,5121.69,0.0874884,0.0871597,-8.88418,3,0.00781722,10,-0.000774342,-2.05138,0.26002,0.226905,-78.7136,0.0871597,
2,0,0,1,0,5121.7,0.0860009,0.0856723,-8.7706,3,0.00765294,10,-0.000751397,-2.05697,0.270625,0.218014,-74.5806,0.0856723,
2,0,0,1,0,5121.72,0.0844973,0.0841657,-8.64806,3,0.00748906,10,-0.00072787,-2.06308,0.269288,0.219096,-73.9689,0.0841657,
2,0,0,1,0,5121.74,0.0829938,0.0826697,-8.53291,3,0.00732733,10,-0.000705414,-2.0689,0.268069,0.220092,-73.327,0.0826697,
2,0,0,1,0,5121.76,0.0815045,0.0811721,-8.41451,3,0.00716948,10,-0.000683023,-2.07497,0.278118,0.21214,-69.8078,0.0811721,
2,0,0,1,0,5121.78,0.080001,0.0796751,-8.31145,3,0.00701198,10,-0.000662215,-2.08032,0.29553,0.199641,-64.8864,0.0796751,
2,0,0,1,0,5121.8,0.0785046,0.0782295,-8.22714,3,0.00685705,10,-0.000643605,-2.08475,0.319719,0.184537,-59.2985,0.0782295,
2,0,0,1,0,5121.82,0.0770082,0.0766566,-8.14302,3,0.00670378,10,-0.000624216,-2.08921,0.311156,0.189616,-60.2573,0.07665655,
2,0,0,1,0,5121.84,0.0755046,0.0751449,-8.04872,3,0.00655133,10,-0.00060482,-2.09427,0.330502,0.178516,-56.2087,0.0751449,
2,0,0,1,0,5121.85,0.0740154,0.0736823,-7.98412,3,0.00640204,10,-0.000588289,-2.09777,0.352905,0.167184,-52.1,0.0736823,
2,0,0,1,0,5121.87,0.0725118,0.0722164,-7.91658,3,0.00625246,10,-0.000571707,-2.10146,0.374698,0.15746,-48.6328,0.0722164,
2,0,0,1,0,5121.89,0.0710083,0.0706751,-7.85078,3,0.00610415,10,-0.000554855,-2.10509,0.397245,0.148523,-45.4827,0.07067506,
2,0,0,1,0,5121.91,0.0695208,0.0692476,-7.7948,3,0.00595857,10,-0.000539771,-2.10819,0.444068,0.132863,-40.4031,0.0692476,
2,0,0,1,0,5121.93,0.0680173,0.0677227,-7.73308,3,0.00581261,10,-0.000523705,-2.11165,0.481135,0.122627,-37.0136,0.0677227,
2,0,0,1,0,5121.95,0.0665137,0.06621,-7.67984,3,0.00566762,10,-0.000508482,-2.11465,0.552615,0.106765,-31.9858,0.06621,
2,0,0,1,0,5121.97,0.0650244,0.0647345,-7.62881,3,0.00552514,10,-0.000493847,-2.11754,0.527416,0.111866,-33.2824,0.0647345,
2,0,0,1,0,5121.99,0.0635209,0.0632181,-7.57663,3,0.00538207,10,-0.00047898,-2.12052,0.537928,0.10968,-32.4144,0.0632181,
2,0,0,1,0,5122,0.0620245,0.0616752,-7.52401,3,0.0052408,10,-0.000464045,-2.12355,0.56391,0.104627,-30.7206,0.0616752,
2,0,0,1,0,5122.02,0.0605281,0.0602346,-7.47165,3,0.00510045,10,-0.000450052,-2.12658,0.569778,0.103549,-30.1858,0.0602346,
2,0,0,1,0,5122.04,0.0590246,0.0586947,-7.42662,3,0.00496018,10,-0.000435903,-2.12921,0.555465,0.106217,-30.7782,0.0586947,
2,0,0,1,0,5122.06,0.0575353,0.0572236,-7.37291,3,0.00482233,10,-0.000421904,-2.13236,0.496109,0.118926,-34.2417,0.0572236,
2,0,0,1,0,5122.08,0.0560317,0.0557109,-7.31976,3,0.00468397,10,-0.000407791,-2.1355,0.497028,0.118706,-33.9375,0.0557109,
2,0,0,1,0,5122.1,0.0545282,0.0542191,-7.27556,3,0.00454653,10,-0.000394474,-2.13813,0.529236,0.111482,-31.669,0.0542191,
2,0,0,1,0,5122.12,0.0530407,0.0526839,-7.23001,3,0.00441142,10,-0.000380905,-2.14086,0.506125,0.116572,-32.9086,0.0526839,
2,0,0,1,0,5122.14,0.0515372,0.0512009,-7.18094,3,0.00427572,10,-0.00036767,-2.14382,0.470671,0.125353,-35.1198,0.0512009,
2,0,0,1,0,5122.15,0.0500336,0.0497223,-7.12304,3,0.00414097,10,-0.000354174,-2.14733,0.436948,0.135027,-37.5718,0.0497223,
2,0,0,1,0,5122.17,0.0485444,0.0482158,-7.08061,3,0.0040087,10,-0.000341397,-2.14993,0.412528,0.14302,-39.5191,0.0482158,
2,0,0,1,0,5122.19,0.0470408,0.0467157,-7.02672,3,0.00387594,10,-0.000328258,-2.15325,0.4359,0.135352,-37.1199,0.0467157,
2,0,0,1,0,5122.21,0.0455444,0.0452117,-6.98255,3,0.00374484,10,-0.000315693,-2.15599,0.408419,0.144459,-39.2641,0.0452117,
2,0,0,1,0,5122.23,0.044048,0.0437548,-6.92598,3,0.00361472,10,-0.000303045,-2.15952,0.391623,0.150655,-40.6687,0.0437548,
2,0,0,1,0,5122.25,0.0425445,0.0422428,-6.86119,3,0.00348512,10,-0.000289836,-2.1636,0.412197,0.143135,-38.3528,0.0422428,
2,0,0,1,0,5122.27,0.0410552,0.040771,-6.80531,3,0.00335795,10,-0.000277459,-2.16715,0.458274,0.128744,-34.164,0.040771,
2,0,0,1,0,5122.28,0.0395517,0.0392556,-6.75052,3,0.00323041,10,-0.000264996,-2.17066,0.406127,0.145275,-38.1982,0.0392556,
2,0,0,1,0,5122.3,0.0380481,0.0376953,-6.68596,3,0.00310398,10,-0.000252029,-2.17484,0.371854,0.158664,-41.3546,0.0376953,
2,0,0,1,0,5122.32,0.0365606,0.0362231,-6.6081,3,0.00298023,10,-0.000239366,-2.17992,0.342344,0.172341,-44.4786,0.0362231,
2,0,0,1,0,5122.34,0.0350571,0.0347497,-6.53716,3,0.00285641,10,-0.000227164,-2.18461,0.368517,0.160101,-40.8586,0.0347497,
2,0,0,1,0,5122.36,0.0335535,0.0332636,-6.47089,3,0.00273381,10,-0.000215245,-2.18904,0.339176,0.173951,-43.9513,0.0332636,
2,0,0,1,0,5122.38,0.0320643,0.0317213,-6.39642,3,0.00261382,10,-0.000202903,-2.19406,0.293111,0.201289,-50.3054,0.03172126,
2,0,0,1,0,5122.4,0.0305607,0.0302734,-6.32171,3,0.00249391,10,-0.000191379,-2.19917,0.293956,0.20071,-49.5997,0.0302734,
2,0,0,1,0,5122.42,0.0290643,0.0287703,-6.25666,3,0.00237603,10,-0.000180006,-2.20366,0.303026,0.194703,-47.5781,0.0287703,
2,0,0,1,0,5122.43,0.0275679,0.0272633,-6.19255,3,0.00225945,10,-0.00016883,-2.20813,0.293163,0.201253,-48.6188,0.0272633,
2,0,0,1,0,5122.45,0.0260644,0.0257647,-6.12002,3,0.00214353,10,-0.00015768,-2.21325,0.273859,0.21544,-51.4067,0.0257647,
2,0,0,1,0,5122.47,0.0245751,0.024238,-6.05168,3,0.00203018,10,-0.000146681,-2.21812,0.282945,0.208521,-49.2444,0.024238,
2,0,0,1,0,5122.49,0.0230716,0.0227642,-5.98071,3,0.00191704,10,-0.000136146,-2.22325,0.296988,0.198661,-46.4063,0.0227642,
2,0,0,1,0,5122.51,0.021568,0.0212447,-5.91796,3,0.00180513,10,-0.000125725,-2.22783,0.314646,0.187512,-43.2784,0.02124471,
2,0,0,1,0,5122.53,0.0200805,0.0197392,-5.85281,3,0.00169555,10,-0.00011553,-2.23264,0.327403,0.180206,-41.126,0.0197392,
2,0,0,1,0,5122.55,0.018577,0.0182753,-5.79187,3,0.00158598,10,-0.000105848,-2.23718,0.348101,0.169491,-38.3102,0.0182753,
2,0,0,1,0,5122.57,0.0170735,0.016765,-5.72514,3,0.0014776,10,-9.59818e-05,-2.24221,0.388894,0.151712,-33.9538,0.016765,
2,0,0,1,0,5122.58,0.0155842,0.0152711,-5.67767,3,0.00137137,10,-8.6704e-05,-2.24583,0.412434,0.143053,-31.705,0.01527106,
2,0,0,1,0,5122.6,0.0140806,0.0137635,-5.62983,3,0.0012649,10,-7.74862e-05,-2.2495,0.427837,0.137903,-30.2911,0.0137635,
2,0,0,1,0,5122.62,0.0125842,0.0122308,-5.58332,3,0.00115985,10,-6.82886e-05,-2.25311,0.415621,0.141956,-30.9217,0.0122308,
2,0,0,1,0,5122.64,0.0110878,0.010763,-5.52662,3,0.00105579,10,-5.94833e-05,-2.25754,0.489884,0.120437,-26.0501,0.010763,
2,0,0,1,0,5122.66,0.00958429,0.00926128,-5.48944,3,0.000951953,10,-5.08392e-05,-2.26047,0.549365,0.107397,-23.0385,0.00926128,
2,0,0,1,0,5122.68,0.0080968,0.00779326,-5.4573,3,0.000849844,10,-4.25302e-05,-2.26302,0.563547,0.104694,-22.3464,0.00779326,
2,0,0,1,0,5122.7,0.00659326,0.00631365,-5.43243,3,0.000747252,10,-3.42985e-05,-2.26501,0.591644,0.0997221,-21.1563,0.00631365,
2,0,0,1,0,5122.72,0.00508972,0.00479076,-5.38823,3,0.000645219,10,-2.58137e-05,-2.26855,0.652649,0.0904008,-19.0683,0.00479076,
2,0,0,1,0,5122.73,0.00360044,0.00329615,-5.37368,3,0.000544819,10,-1.77125e-05,-2.26973,1.81369,0.0325303,-6.85845,0.00329615,
2,0,0,1,0,5122.75,0.0020969,0.00173747,-5.4153,3,0.000443583,10,-9.40893e-06,-2.26638,1.70034,0.034699,-7.27457,0.00173747,
2,0,0,1,0,5122.77,0.000593362,0.000193102,-5.37498,3,0.000342055,10,-1.03792e-06,-2.26962, , , ,0.000193102,
2,0,0,1,0,5122.78,0.000199195,-0.000147811,-5.35766,3,0.00031571,10,7.91924e-07,-2.27102, , , ,-0.000147811,