File: Figure_codes/Fig_3-5/rawdata_trumpetplot_data/after 10th/20221101_1-115_003_TrumpetPlot_ParaChange_from10_every3_03_CV_C01_20.csv
mode,ox/red,error,control changes,counter inc.,time/s,control/V,Ewe/V,<I>/mA,cycle number,(Q-Qo)/C,I Range,P/W,log(|I|),Tafel slope mV/dec,alpha_eff,dI/d(E-IR),E-IR/V,
2,0,0,1,0,40342.6,2.44065e-05,-0.00042076,-0.104482,21,0.0000000E+000,10,4.3962e-08,-3.98096, , , ,-0.00042076,
2,1,0,0,0,40342.9,0.00129787,0.00091005,0.126784,21,2.01196e-05,10,1.1538e-07,-3.89693, , , ,0.00091005,
2,1,0,0,0,40343.2,0.00279606,0.00249854,0.170762,21,7.0277e-05,10,4.26655e-07,-3.76761,0.0138495,4.26007,22.6531,0.00249854,
2,1,0,1,0,40343.5,0.00429469,0.00394416,0.182328,21,0.000126984,10,7.1913e-07,-3.73915,0.0547117,1.07838,7.59919,0.00394416,
2,1,0,1,0,40343.8,0.00579255,0.00546126,0.190958,21,0.000187076,10,1.04287e-06,-3.71906,0.0652865,0.90371,6.7398,0.00546126,
2,1,0,1,0,40344.1,0.00729041,0.00697217,0.201921,21,0.000250026,10,1.40783e-06,-3.69482,0.083782,0.704209,5.5011,0.00697217,
2,1,0,1,0,40344.4,0.00878882,0.00846226,0.209782,21,0.000315696,10,1.77523e-06,-3.67823,0.10107,0.583756,4.75633,0.00846226,
2,1,0,1,0,40344.7,0.010287,0.00996804,0.215742,21,0.000383431,10,2.15053e-06,-3.66607,0.127151,0.464017,3.8994,0.00996804,
2,1,0,1,0,40345,0.0117852,0.0114293,0.221501,21,0.000453064,10,2.5316e-06,-3.65462,0.135828,0.434374,3.77164,0.0114293,
2,1,0,1,0,40345.3,0.0132836,0.0129108,0.228595,21,0.000524436,10,2.95135e-06,-3.64093,0.125225,0.471152,4.20281,0.0129108,
2,1,0,1,0,40345.6,0.0147815,0.0144534,0.233021,21,0.000597726,10,3.36795e-06,-3.6326,0.158346,0.372602,3.39617,0.0144534,
2,1,0,1,0,40345.9,0.0162793,0.0159589,0.239605,21,0.000672805,10,3.82383e-06,-3.6205,0.185569,0.317941,2.96138,0.0159589,
2,1,0,0,0,40346.2,0.017778,0.0173782,0.244671,21,0.000749431,10,4.25194e-06,-3.61142,0.172325,0.342376,3.27032,0.0173782,
2,1,0,0,0,40346.5,0.0192761,0.0189327,0.250705,21,0.000827241,10,4.74652e-06,-3.60084,0.175469,0.336242,3.28122,0.0189327,
2,1,0,1,0,40346.8,0.0207747,0.020441,0.256456,21,0.00090708,10,5.24221e-06,-3.59099,0.151473,0.389509,3.86586,0.020441,
2,1,0,1,0,40347.1,0.0222725,0.0219423,0.261068,21,0.00098849,10,5.72844e-06,-3.58325,0.165607,0.356266,3.62398,0.0219423,
2,1,0,1,0,40347.4,0.0237704,0.0235058,0.265482,21,0.00107139,10,6.24035e-06,-3.57597,0.168598,0.349945,3.64158,0.0235058,
2,1,0,1,0,40347.7,0.0252689,0.0249442,0.270666,21,0.00115563,10,6.75154e-06,-3.56757,0.181678,0.324751,3.44355,0.0249442,
2,1,0,1,0,40348,0.0267671,0.026433,0.276296,21,0.0012416,10,7.30333e-06,-3.55863,0.15832,0.372662,4.00817,0.026433,
2,1,0,1,0,40348.3,0.0282657,0.0279489,0.282918,21,0.00132935,10,7.90724e-06,-3.54834,0.178178,0.331129,3.64172,0.0279489,
2,1,0,1,0,40348.6,0.0297635,0.0293977,0.288314,21,0.00141874,10,8.47577e-06,-3.54013,0.208426,0.283074,3.17229,0.0293977,
2,1,0,1,0,40348.9,0.0312613,0.030897,0.291077,21,0.00150942,10,8.9934e-06,-3.53599,0.20454,0.288453,3.2956,0.030897,
2,1,0,0,0,40349.2,0.0327599,0.0323988,0.297584,21,0.00160166,10,9.64137e-06,-3.52639,0.179034,0.329546,3.82759,0.03239882,
2,1,0,0,0,40349.5,0.034258,0.0339226,0.303361,21,0.0016958,10,1.02908e-05,-3.51804,0.20234,0.291589,3.44659,0.0339226,
2,1,0,1,0,40349.8,0.0357567,0.0354321,0.308337,21,0.00179156,10,1.0925e-05,-3.51097,0.246447,0.239403,2.87719,0.0354321,
2,1,0,1,0,40350.1,0.0372545,0.0368951,0.312695,21,0.00188873,10,1.15369e-05,-3.50488,0.220986,0.266985,3.26911,0.0368951,
2,1,0,1,0,40350.4,0.0387524,0.0384335,0.318176,21,0.00198718,10,1.22286e-05,-3.49733,0.212423,0.277748,3.47156,0.0384335,
2,1,0,1,0,40350.7,0.0402508,0.0399245,0.324521,21,0.00208742,10,1.29564e-05,-3.48876,0.206291,0.286003,3.6148,0.0399245,
2,1,0,1,0,40351,0.041749,0.0414091,0.32957,21,0.00218946,10,1.36472e-05,-3.48205,0.2166,0.272392,3.49684,0.0414091,
2,1,0,1,0,40351.3,0.0432472,0.0429149,0.335836,21,0.00229288,10,1.44124e-05,-3.47387,0.264872,0.222749,2.90466,0.0429149,
2,1,0,1,0,40351.6,0.0447456,0.0444369,0.339481,21,0.0023977,10,1.50855e-05,-3.46918,0.215091,0.274302,3.63493,0.0444369,
2,1,0,1,0,40351.9,0.0462435,0.0458691,0.345262,21,0.00250404,10,1.58369e-05,-3.46185,0.217878,0.270793,3.63937,0.0458691,
2,1,0,1,0,40352.2,0.0477413,0.0474318,0.349711,21,0.00261208,10,1.65874e-05,-3.45629,0.264098,0.223402,3.04522,0.04743176,
2,1,0,0,0,40352.5,0.0492399,0.0489125,0.354643,21,0.0027216,10,1.73465e-05,-3.45021,0.311871,0.189181,2.62171,0.0489125,
2,1,0,0,0,40352.8,0.0507381,0.0504321,0.357598,21,0.00283219,10,1.80344e-05,-3.44661,0.264092,0.223407,3.12863,0.05043209,
2,1,0,1,0,40353.1,0.0522367,0.0518925,0.363172,21,0.00294429,10,1.88459e-05,-3.43989,0.227759,0.259046,3.66917,0.0518925,
2,1,0,1,0,40353.4,0.0537345,0.0533981,0.369923,21,0.00305801,10,1.97532e-05,-3.43189,0.246516,0.239335,3.43324,0.0533981,
2,1,0,1,0,40353.7,0.0552323,0.0549066,0.372966,21,0.00317309,10,2.04783e-05,-3.42833,0.332552,0.177416,2.57261,0.0549066,
2,1,0,1,0,40354,0.0567309,0.056399,0.3747,21,0.0032894,10,2.11327e-05,-3.42632,0.308277,0.191386,2.80632,0.056399,
2,1,0,1,0,40354.3,0.0582291,0.057908,0.380579,21,0.00340666,10,2.20385e-05,-3.41956,0.342141,0.172443,2.56153,0.057908,
2,1,0,1,0,40354.6,0.0597277,0.0593983,0.384661,21,0.00352545,10,2.28482e-05,-3.41492,0.354832,0.166276,2.49565,0.05939829,
2,1,0,1,0,40354.9,0.0612255,0.0608887,0.388888,21,0.00364549,10,2.36789e-05,-3.41018,0.395287,0.149259,2.26015,0.0608887,
2,1,0,1,0,40355.2,0.0627233,0.0624217,0.392199,21,0.00376671,10,2.44817e-05,-3.40649,0.308231,0.191415,2.93675,0.0624217,
2,1,0,0,0,40355.5,0.0642218,0.0639194,0.396599,21,0.00388884,10,2.53504e-05,-3.40165,0.361051,0.163412,2.53715,0.0639194,
2,1,0,0,0,40355.8,0.06572,0.0654273,0.399835,21,0.00401236,10,2.61601e-05,-3.39812,0.337956,0.174579,2.72528,0.0654273,
2,1,0,1,0,40356.1,0.0672187,0.0669174,0.405793,21,0.00413725,10,2.71546e-05,-3.3917,0.377694,0.156211,2.45972,0.0669174,
2,1,0,1,0,40356.4,0.0687165,0.0684294,0.408491,21,0.00426302,10,2.79528e-05,-3.38882,0.522952,0.112821,1.79442,0.0684294,
2,1,0,1,0,40356.7,0.0702144,0.0698968,0.411214,21,0.00438952,10,2.87425e-05,-3.38593,0.45608,0.129363,2.07376,0.0698968,
2,1,0,1,0,40357,0.0717128,0.0713995,0.413742,21,0.00451714,10,2.9541e-05,-3.38327,0.418753,0.140895,2.27603,0.07139951,
2,1,0,1,0,40357.3,0.073211,0.0728671,0.417342,21,0.00464574,10,3.04105e-05,-3.37951,0.428394,0.137724,2.24805,0.0728671,
2,1,0,1,0,40357.6,0.0747092,0.0744386,0.420087,21,0.00477535,10,3.12707e-05,-3.37666,0.503386,0.117206,1.92213,0.0744386,
2,1,0,1,0,40357.9,0.0762076,0.0758875,0.422447,21,0.00490565,10,3.20585e-05,-3.37423,0.646622,0.0912433,1.50678,0.0758875,
2,1,0,1,0,40358.2,0.0777054,0.0773962,0.42607,21,0.00503676,10,3.29762e-05,-3.37052,0.426717,0.138265,2.29711,0.0773962,
2,1,0,1,0,40358.5,0.0792033,0.0788717,0.429659,21,0.00516884,10,3.3888e-05,-3.36688,0.438374,0.134588,2.24797,0.0788717,
2,1,0,0,0,40358.8,0.0807019,0.0803801,0.432552,21,0.00530213,10,3.47686e-05,-3.36396,0.630394,0.0935922,1.57303,0.08038009,
2,1,0,0,0,40359.1,0.0822001,0.081889,0.433314,21,0.00543607,10,3.54836e-05,-3.3632,0.487467,0.121034,2.05669,0.081889,
2,1,0,1,0,40359.4,0.0836986,0.0833739,0.438621,21,0.00557068,10,3.65695e-05,-3.35791,0.393819,0.149815,2.56849,0.0833739,
2,1,0,1,0,40359.7,0.0851965,0.0848518,0.441353,21,0.00570658,10,3.74497e-05,-3.35521,0.357775,0.164908,2.84781,0.0848518,
2,1,0,1,0,40360,0.0866944,0.0863678,0.446202,21,0.00584369,10,3.85375e-05,-3.35047,0.423137,0.139435,2.4236,0.0863678,
2,1,0,1,0,40360.3,0.0881929,0.0879015,0.44983,21,0.00598211,10,3.95407e-05,-3.34695,0.361252,0.163321,2.87824,0.0879015,
2,1,0,1,0,40360.6,0.0896911,0.0893511,0.454228,21,0.00612143,10,4.05857e-05,-3.34273,0.304371,0.193842,3.44655,0.0893511,
2,1,0,1,0,40360.9,0.0911897,0.0908668,0.460992,21,0.0062626,10,4.18888e-05,-3.33631,0.272253,0.216711,3.89224,0.0908668,
2,1,0,1,0,40361.2,0.0926875,0.0923839,0.46683,21,0.00640569,10,4.31275e-05,-3.33084,0.265952,0.221844,4.03657,0.0923839,
2,1,0,1,0,40361.5,0.0941853,0.093883,0.472399,21,0.00655048,10,4.43502e-05,-3.32569,0.269703,0.218759,4.04431,0.093883,
2,1,0,0,0,40361.8,0.0956838,0.0953424,0.477714,21,0.00669685,10,4.55464e-05,-3.32083,0.241953,0.243849,4.5651,0.09534242,
2,1,0,0,0,40362.1,0.097182,0.0968641,0.486203,21,0.00684545,10,4.70956e-05,-3.31318,0.199772,0.295336,5.60115,0.0968641,
2,1,0,1,0,40362.4,0.0986807,0.0983385,0.494339,21,0.00699643,10,4.86126e-05,-3.30597,0.204881,0.287972,5.54963,0.0983385,
2,1,0,1,0,40362.7,0.100179,0.099844,0.501863,21,0.00714984,10,5.0108e-05,-3.29941,0.207569,0.284243,5.56,0.099844,
2,1,0,1,0,40363,0.101676,0.101336,0.50743,21,0.00730549,10,5.14207e-05,-3.29462,0.211123,0.279458,5.56143,0.101336,
2,1,0,1,0,40363.3,0.103175,0.102856,0.518247,21,0.0074635,10,5.33051e-05,-3.28546,0.214281,0.275339,5.5712,0.102856,
2,1,0,1,0,40363.6,0.104673,0.104346,0.52884,21,0.00762428,10,5.51826e-05,-3.27668,0.211787,0.278582,5.71729,0.104346,
2,1,0,1,0,40363.9,0.106171,0.105849,0.536548,21,0.00778766,10,5.67931e-05,-3.27039,0.245891,0.239943,4.99849,0.105849,
2,1,0,1,0,40364.2,0.10767,0.107336,0.541691,21,0.0079533,10,5.81428e-05,-3.26625,0.233379,0.252807,5.35328,0.107336,
2,1,0,1,0,40364.5,0.109167,0.108824,0.549802,21,0.0081209,10,5.98318e-05,-3.25979,0.247725,0.238167,5.12274,0.108824,
2,1,0,1,0,40364.8,0.110665,0.110332,0.556578,21,0.00829098,10,6.14083e-05,-3.25447,0.277965,0.212257,4.61717,0.110332,
2,1,0,0,0,40365.1,0.112164,0.111817,0.564719,21,0.00846327,10,6.31451e-05,-3.24817,0.355674,0.165882,3.64745,0.1118169,
2,1,0,0,0,40365.4,0.113662,0.113354,0.570796,21,0.00863736,10,6.47023e-05,-3.24352,0.336407,0.175383,3.89934,0.1133545,
2,1,0,1,0,40365.7,0.115161,0.114831,0.576011,21,0.00881291,10,6.61438e-05,-3.23957,0.368274,0.160207,3.59702,0.114831,
2,1,0,1,0,40365.9,0.116658,0.11632,0.580931,21,0.00899026,10,6.75742e-05,-3.23588,0.375026,0.157323,3.55949,0.11632,
2,1,0,1,0,40366.2,0.118156,0.117845,0.586873,21,0.00916946,10,6.91599e-05,-3.23146,0.422238,0.139732,3.19397,0.117845,
2,1,0,1,0,40366.5,0.119655,0.119346,0.591083,21,0.00934994,10,7.05433e-05,-3.22835,0.571238,0.103284,2.38163,0.119346,
2,1,0,1,0,40366.8,0.121153,0.120828,0.594171,21,0.00953141,10,7.17926e-05,-3.22609,0.488978,0.12066,2.8012,0.120828,
2,1,0,1,0,40367.1,0.122652,0.122321,0.598178,21,0.00971425,10,7.31695e-05,-3.22317,0.37339,0.158012,3.68923,0.122321,
2,1,0,1,0,40367.4,0.124149,0.123846,0.603199,21,0.00989853,10,7.47038e-05,-3.21954,0.466511,0.126471,2.97214,0.123846,
2,1,0,1,0,40367.7,0.125647,0.125342,0.606621,21,0.0100839,10,7.60352e-05,-3.21708,0.731897,0.0806124,1.90553,0.125342,
2,1,0,0,0,40368,0.127146,0.12684,0.606377,21,0.0102702,10,7.69127e-05,-3.21726,0.856868,0.0688554,1.63597,0.12684,
2,1,0,0,0,40368.3,0.128644,0.128326,0.612691,21,0.010457,10,7.86244e-05,-3.21276,0.901728,0.0654299,1.56347,0.128326,
2,1,0,1,0,40368.6,0.130143,0.129835,0.614515,21,0.0106448,10,7.97854e-05,-3.21147,1.58361,0.0372567,0.88997,0.129835,
2,1,0,1,0,40368.9,0.131641,0.131298,0.613581,21,0.0108331,10,8.05617e-05,-3.21213,-1.46839,-0.04018,-0.95817,0.131298,
2,1,0,1,0,40369.2,0.133138,0.132842,0.612159,21,0.0110209,10,8.13201e-05,-3.21314,-0.676184,-0.0872544,-2.07966,0.1328415,
2,1,0,1,0,40369.5,0.134637,0.134325,0.60717,21,0.0112076,10,8.15581e-05,-3.21669,-0.395062,-0.149344,-3.53574,0.134325,
2,1,0,1,0,40369.8,0.136135,0.135764,0.601584,21,0.0113929,10,8.16734e-05,-3.2207,-0.257257,-0.229342,-5.3543,0.135764,
2,1,0,1,0,40370.1,0.137633,0.137324,0.591935,21,0.0115759,10,8.12868e-05,-3.22773,-0.172852,-0.341333,-7.84037,0.137324,
2,1,0,1,0,40370.4,0.139132,0.138854,0.580363,21,0.0117554,10,8.05859e-05,-3.2363,-0.141355,-0.417389,-9.38929,0.138854,
2,1,0,1,0,40370.7,0.140629,0.140284,0.563776,21,0.0119304,10,7.9089e-05,-3.24889,-0.115982,-0.5087,-11.1321,0.140284,
2,1,0,1,0,40371,0.142127,0.141822,0.546325,21,0.0121005,10,7.74808e-05,-3.26255,-0.110046,-0.536137,-11.3814,0.141822,
2,1,0,0,0,40371.3,0.143626,0.143291,0.527917,21,0.0122654,10,7.56457e-05,-3.27743,-0.0885329,-0.666419,-13.657,0.143291,
2,1,0,0,0,40371.6,0.145124,0.144769,0.505605,21,0.0124241,10,7.31959e-05,-3.29619,-0.0774401,-0.761879,-15.0151,0.144769,
2,1,0,1,0,40371.9,0.146623,0.14626,0.480416,21,0.0125759,10,7.02658e-05,-3.31838,-0.0760723,-0.775578,-14.6167,0.14626,
2,1,0,1,0,40372.2,0.14812,0.147813,0.460904,21,0.0127211,10,6.81278e-05,-3.33639,-0.0791591,-0.745335,-13.4096,0.147813,
2,1,0,1,0,40372.5,0.149618,0.149297,0.441026,21,0.0128599,10,6.58437e-05,-3.35554,-0.0789597,-0.747217,-12.8794,0.1492966,
2,1,0,1,0,40372.8,0.151117,0.150772,0.421523,21,0.012993,10,6.35539e-05,-3.37518,-0.0804908,-0.733003,-12.078,0.150772,
2,1,0,1,0,40373.1,0.152615,0.152311,0.403511,21,0.0131205,10,6.14591e-05,-3.39414,-0.0909203,-0.64892,-10.288,0.152311,
2,1,0,1,0,40373.4,0.154114,0.153785,0.39009,21,0.0132434,10,5.999e-05,-3.40884,-0.106221,-0.555444,-8.49591,0.153785,
2,1,0,1,0,40373.7,0.155612,0.155322,0.378394,21,0.0133623,10,5.8773e-05,-3.42206,-0.110227,-0.53526,-7.91794,0.155322,
2,1,0,1,0,40374,0.157109,0.156777,0.365936,21,0.0134779,10,5.73703e-05,-3.43659,-0.122264,-0.482563,-6.91344,0.156777,
2,1,0,0,0,40374.3,0.158608,0.158333,0.356448,21,0.0135903,10,5.64374e-05,-3.448,-0.147946,-0.398794,-5.59304,0.158333,
2,1,0,0,0,40374.6,0.160106,0.159754,0.349892,21,0.0136999,10,5.58965e-05,-3.45607,-0.168903,-0.349314,-4.79027,0.159754,
2,1,0,1,0,40374.9,0.161605,0.161268,0.344526,21,0.0138077,10,5.55612e-05,-3.46278,-0.227291,-0.25958,-3.48536,0.161268,
2,1,0,1,0,40375.2,0.163102,0.162774,0.337896,21,0.0139137,10,5.50006e-05,-3.47122,-0.245264,-0.240557,-3.17707,0.162774,
2,1,0,1,0,40375.5,0.1646,0.164286,0.33397,21,0.0140182,10,5.48665e-05,-3.47629,-0.241205,-0.244605,-3.18773,0.164286,
2,1,0,1,0,40375.8,0.166099,0.165747,0.328515,21,0.014121,10,5.44505e-05,-3.48344,-0.280352,-0.21045,-2.70009,0.165747,
2,1,0,1,0,40376.1,0.167597,0.167243,0.325459,21,0.0142228,10,5.44308e-05,-3.4875,-0.361325,-0.163288,-2.06838,0.167243,
2,1,0,1,0,40376.4,0.169095,0.168783,0.322338,21,0.0143237,10,5.44051e-05,-3.49169,-0.343989,-0.171517,-2.15851,0.168783,
2,1,0,1,0,40376.7,0.170594,0.170259,0.318319,21,0.0144236,10,5.41967e-05,-3.49714,-0.424488,-0.138991,-1.7348,0.170259,
2,1,0,1,0,40377,0.172091,0.171733,0.315474,21,0.0145224,10,5.41772e-05,-3.50104,-0.4227,-0.139579,-1.72603,0.171733,
2,1,0,1,0,40377.3,0.173589,0.17327,0.314299,21,0.0146206,10,5.44587e-05,-3.50266,-0.606491,-0.097281,-1.19303,0.17327,
2,1,0,0,0,40377.6,0.175088,0.174728,0.313318,21,0.0147182,10,5.47454e-05,-3.50401,-0.661745,-0.0891582,-1.08772,0.174728,
2,1,0,0,0,40377.9,0.176586,0.176261,0.309228,21,0.0148152,10,5.45049e-05,-3.50972,-0.451666,-0.130627,-1.5763,0.176261,
2,1,0,1,0,40378.2,0.178085,0.177785,0.307392,21,0.0149117,10,5.46496e-05,-3.51231,-0.747391,-0.0789413,-0.949623,0.177785,
2,1,0,1,0,40378.5,0.179582,0.179257,0.306837,21,0.0150075,10,5.50026e-05,-3.51309,-0.626294,-0.094205,-1.12961,0.1792568,
2,1,0,1,0,40378.8,0.18108,0.180774,0.3051,21,0.015103,10,5.51542e-05,-3.51556,-0.540139,-0.109231,-1.30532,0.180774,
2,1,0,1,0,40379.1,0.182579,0.182269,0.303754,21,0.0151981,10,5.53651e-05,-3.51748,-0.576477,-0.102346,-1.21075,0.182269,
2,1,0,1,0,40379.4,0.184077,0.183751,0.303012,21,0.0152927,10,5.56787e-05,-3.51854,-1.05006,-0.0561871,-0.66415,0.183751,
2,1,0,1,0,40379.7,0.185576,0.185235,0.301298,21,0.0153869,10,5.58108e-05,-3.521,-0.671215,-0.0879003,-1.03424,0.185235,
2,1,0,1,0,40380,0.187074,0.186757,0.300891,21,0.0154809,10,5.61935e-05,-3.52159,-1.12247,-0.0525625,-0.615626,0.186757,
2,1,0,1,0,40380.3,0.188571,0.188256,0.299588,21,0.0155745,10,5.63994e-05,-3.52347,-1.36453,-0.0432382,-0.504754,0.188256,
2,1,0,0,0,40380.6,0.19007,0.189733,0.298088,21,0.0156679,10,5.65572e-05,-3.52566,-1.06311,-0.0554978,-0.646079,0.189733,
2,1,0,0,0,40380.9,0.191568,0.191267,0.297416,21,0.0157608,10,5.68858e-05,-3.52664,-1.19169,-0.0495097,-0.575009,0.1912668,
2,1,0,1,0,40381.2,0.193067,0.192762,0.297235,21,0.0158536,10,5.72957e-05,-3.5269,-25.5001,-0.00231372,-0.0267644,0.192762,
2,1,0,1,0,40381.5,0.194564,0.194301,0.296637,21,0.0159463,10,5.76367e-05,-3.52777,-1.12538,-0.0524269,-0.605829,0.194301,
2,1,0,1,0,40381.8,0.196062,0.195727,0.295647,21,0.0160387,10,5.7866e-05,-3.52923,-1.09418,-0.0539216,-0.622278,0.195727,
2,1,0,1,0,40382.1,0.197561,0.197272,0.293494,21,0.0161307,10,5.78981e-05,-3.5324,-1.98061,-0.0297888,-0.342288,0.197272,
2,1,0,1,0,40382.4,0.199059,0.198754,0.293771,21,0.0162226,10,5.83882e-05,-3.53199,-3.02929,-0.0194765,-0.223429,0.198754,
2,1,0,1,0,40382.7,0.200557,0.200231,0.294121,21,0.0163144,10,5.88924e-05,-3.53147,-3.58083,-0.0164766,-0.187993,0.200231,
2,1,0,1,0,40383,0.202056,0.201735,0.293199,21,0.0164062,10,5.91487e-05,-3.53284,-1.34195,-0.043966,-0.501338,0.201735,
2,1,0,1,0,40383.3,0.203553,0.203261,0.290884,21,0.0164975,10,5.91254e-05,-3.53628,-0.891478,-0.0661822,-0.755611,0.203261,
2,1,0,1,0,40383.6,0.205051,0.204733,0.291758,21,0.0165885,10,5.97324e-05,-3.53498,1.51113,0.0390437,0.448055,0.204733,
2,1,0,0,0,40383.9,0.20655,0.206235,0.291159,21,0.0166795,10,6.00473e-05,-3.53587,-1.9585,-0.0301251,-0.342275,0.2062355,
2,1,0,0,0,40384.2,0.208048,0.207716,0.290292,21,0.0167707,10,6.02982e-05,-3.53717,-0.82973,-0.0711075,-0.804567,0.207716,
2,1,0,1,0,40384.5,0.209547,0.209227,0.290072,21,0.0168614,10,6.06911e-05,-3.53749,-1.70664,-0.0345708,-0.391293,0.209227,
2,1,0,1,0,40384.8,0.211044,0.210756,0.289791,21,0.0169517,10,6.10752e-05,-3.53791,-3.22423,-0.018299,-0.206599,0.210756,
2,1,0,1,0,40385.1,0.212542,0.212235,0.289426,21,0.0170421,10,6.14264e-05,-3.53846,-1.64998,-0.0357581,-0.402942,0.212235,
2,1,0,1,0,40385.4,0.214041,0.213687,0.288824,21,0.0171324,10,6.17179e-05,-3.53937,-1.52674,-0.0386445,-0.434836,0.213687,
2,1,0,1,0,40385.7,0.215539,0.215228,0.288485,21,0.0172225,10,6.209e-05,-3.53988,-1.77567,-0.033227,-0.373225,0.215228,
2,1,0,1,0,40386,0.217038,0.216724,0.287623,21,0.0173123,10,6.23348e-05,-3.54118,-2.21919,-0.0265862,-0.298569,0.216724,
2,1,0,1,0,40386.3,0.218535,0.218207,0.287339,21,0.0174021,10,6.26996e-05,-3.5416,9.12228,0.00646768,0.072311,0.218207,
2,1,0,1,0,40386.6,0.220033,0.21976,0.287248,21,0.017492,10,6.31255e-05,-3.54174,-1.93791,-0.0304452,-0.34122,0.2197597,
2,1,0,0,0,40386.9,0.221532,0.22124,0.286105,21,0.0175816,10,6.32978e-05,-3.54348,-1.31656,-0.0448138,-0.502059,0.22124,
2,1,0,0,0,40387.2,0.22303,0.222704,0.284657,21,0.0176708,10,6.33942e-05,-3.54568,-1.87628,-0.0314452,-0.351123,0.222704,
2,1,0,1,0,40387.5,0.224529,0.22418,0.285317,21,0.0177599,10,6.39624e-05,-3.54467,-5.10622,-0.0115545,-0.128494,0.2241801,
2,1,0,1,0,40387.8,0.226026,0.225703,0.284927,21,0.017849,10,6.43087e-05,-3.54527,-2.33283,-0.0252912,-0.280563,0.225703,
2,1,0,1,0,40388.1,0.227524,0.227192,0.283437,21,0.0179379,10,6.43948e-05,-3.54754,-1.71456,-0.0344112,-0.380726,0.227192,
2,1,0,1,0,40388.4,0.229023,0.228698,0.283432,21,0.0180265,10,6.48204e-05,-3.54755,-33.4266,-0.00176506,-0.0195758,0.228698,
2,1,0,1,0,40388.7,0.230521,0.230237,0.282748,21,0.018115,10,6.50989e-05,-3.5486,-25.5669,-0.00230768,-0.0255678,0.230237,
2,1,0,1,0,40389,0.232019,0.231671,0.283171,21,0.0182035,10,6.56026e-05,-3.54795,-3.3923,-0.0173923,-0.19208,0.231671,
2,1,0,1,0,40389.3,0.233518,0.233163,0.282972,21,0.0182921,10,6.59785e-05,-3.54826,-1.58121,-0.0373132,-0.410678,0.233163,
2,1,0,1,0,40389.6,0.235015,0.234741,0.283384,21,0.0183804,10,6.6522e-05,-3.54762,-12.7806,-0.00461637,-0.0508736,0.234741,
2,1,0,1,0,40389.9,0.236513,0.236204,0.281813,21,0.0184684,10,6.65655e-05,-3.55004,2.34036,0.0252099,0.277402,0.236204,
2,1,0,0,0,40390.2,0.238012,0.2377,0.281158,21,0.0185565,10,6.68311e-05,-3.55105,-8.21279,-0.00718392,-0.0787425,0.2377,
2,1,0,0,0,40390.5,0.23951,0.239189,0.281788,21,0.0186446,10,6.74004e-05,-3.55008,-1.23794,-0.04766,-0.523945,0.239189,
2,1,0,1,0,40390.8,0.241009,0.240709,0.280639,21,0.0187325,10,6.75522e-05,-3.55185,-2.77401,-0.0212689,-0.233527,0.240709,
2,1,0,1,0,40391.1,0.242506,0.242193,0.279958,21,0.0188201,10,6.78039e-05,-3.55291,-1.93182,-0.0305411,-0.334936,0.242193,
2,1,0,1,0,40391.4,0.244004,0.243712,0.279699,21,0.0189078,10,6.8166e-05,-3.55331,2.75913,0.0213835,0.233862,0.2437119,
2,1,0,1,0,40391.7,0.245503,0.245194,0.28067,21,0.0189954,10,6.88186e-05,-3.5518,-3.12524,-0.0188786,-0.206171,0.245194,
2,1,0,1,0,40392,0.247001,0.246694,0.279431,21,0.0190829,10,6.89339e-05,-3.55373,-1.3002,-0.0453778,-0.495232,0.246694,
2,1,0,1,0,40392.3,0.2485,0.248197,0.278169,21,0.0191702,10,6.90407e-05,-3.55569,-1.14191,-0.0516677,-0.561944,0.248197,
2,1,0,1,0,40392.6,0.249997,0.249662,0.279332,21,0.0192574,10,6.97385e-05,-3.55388,-2.59071,-0.0227737,-0.247867,0.249662,
2,1,0,1,0,40392.9,0.251495,0.251159,0.278768,21,0.0193445,10,7.00153e-05,-3.55476,-83.9412,-0.000702873,-0.00763304,0.2511594,
2,1,0,0,0,40393.2,0.252994,0.252674,0.278131,21,0.0194315,10,7.02763e-05,-3.55575,-1.53965,-0.0383203,-0.415151,0.252674,
2,1,0,0,0,40393.5,0.254492,0.254153,0.277584,21,0.0195185,10,7.05489e-05,-3.5566,-1.64626,-0.0358388,-0.388644,0.254153,
2,1,0,1,0,40393.8,0.255991,0.255637,0.277424,21,0.0196052,10,7.092e-05,-3.55686,-3.26529,-0.0180688,-0.196176,0.2556372,
2,1,0,1,0,40394.1,0.257488,0.257175,0.277575,21,0.0196919,10,7.13854e-05,-3.55662,-6.68425,-0.00882672,-0.095402,0.257175,
2,1,0,1,0,40394.4,0.258986,0.258701,0.277496,21,0.0197786,10,7.17884e-05,-3.55674,-2.02537,-0.0291304,-0.314437,0.258701,
2,1,0,1,0,40394.7,0.260485,0.260185,0.277169,21,0.0198652,10,7.21152e-05,-3.55726,-1.75683,-0.0335832,-0.362766,0.260185,
2,1,0,1,0,40395,0.261983,0.261677,0.276089,21,0.0199515,10,7.22459e-05,-3.55895,-1.80157,-0.0327491,-0.35268,0.2616767,
2,1,0,1,0,40395.3,0.263481,0.263173,0.275846,21,0.0200379,10,7.25952e-05,-3.55933,3.81952,0.015447,0.166223,0.263173,
2,1,0,1,0,40395.6,0.26498,0.264598,0.275719,21,0.0201242,10,7.29547e-05,-3.55953,-6.22815,-0.00947311,-0.101963,0.264598,
2,1,0,1,0,40395.9,0.266477,0.266175,0.274696,21,0.0202104,10,7.3117e-05,-3.56115,-3.47153,-0.0169954,-0.18276,0.266175,
2,1,0,0,0,40396.2,0.267976,0.267675,0.274097,21,0.0202963,10,7.33689e-05,-3.5621,-4.66985,-0.0126342,-0.135777,0.267675,
2,1,0,0,0,40396.5,0.269474,0.269163,0.274503,21,0.0203822,10,7.38861e-05,-3.56145,-5.36497,-0.0109973,-0.11787,0.269163,
2,1,0,0,0,40396.8,0.270972,0.270651,0.275906,21,0.0204682,10,7.46742e-05,-3.55924,-7.05985,-0.00835712,-0.0893486,0.270651,
2,1,0,1,0,40397.1,0.27247,0.272159,0.274986,21,0.0205541,10,7.48398e-05,-3.56069,-1.31099,-0.045004,-0.481103,0.2721591,
2,1,0,1,0,40397.4,0.273968,0.273669,0.272722,21,0.0206397,10,7.46356e-05,-3.56428,-2.611,-0.0225967,-0.24133,0.273669,
2,1,0,1,0,40397.7,0.275466,0.27515,0.272802,21,0.0207252,10,7.50615e-05,-3.56415,-4.93135,-0.0119643,-0.127584,0.27515,
2,1,0,1,0,40398,0.276965,0.276652,0.272938,21,0.0208106,10,7.55087e-05,-3.56394,-2.51192,-0.023488,-0.250495,0.276652,
2,1,0,1,0,40398.3,0.278463,0.278184,0.271907,21,0.0208959,10,7.56402e-05,-3.56558,-1.17298,-0.0502993,-0.533026,0.278184,
2,1,0,1,0,40398.6,0.279962,0.279649,0.272579,21,0.0209811,10,7.62264e-05,-3.56451,-1.6442,-0.0358838,-0.380951,0.279649,
2,1,0,1,0,40398.9,0.281459,0.281137,0.271916,21,0.0210661,10,7.64457e-05,-3.56557,-1.88711,-0.0312647,-0.33127,0.281137,
2,1,0,1,0,40399.2,0.282957,0.282683,0.271074,21,0.021151,10,7.6628e-05,-3.56691,-6.39888,-0.00922036,-0.0974262,0.282683,
2,1,0,0,0,40399.5,0.284456,0.284133,0.271496,21,0.0212359,10,7.71411e-05,-3.56624,-3.4338,-0.0171821,-0.181591,0.284133,
2,1,0,0,0,40399.8,0.285954,0.285659,0.271648,21,0.0213207,10,7.75987e-05,-3.56599,-3.24681,-0.0181717,-0.19178,0.285659,
2,1,0,0,0,40400.1,0.287452,0.28714,0.270129,21,0.0214052,10,7.7565e-05,-3.56843,-2.09966,-0.0280998,-0.296345,0.28714,
2,1,0,1,0,40400.4,0.28895,0.288609,0.269789,21,0.0214897,10,7.78636e-05,-3.56898,5.26478,0.0112065,0.117904,0.288609,
2,1,0,1,0,40400.7,0.290448,0.290117,0.26935,21,0.0215741,10,7.81429e-05,-3.56968,-2.64286,-0.0223243,-0.234965,0.290117,
2,1,0,1,0,40401,0.291947,0.291693,0.268777,21,0.0216584,10,7.84003e-05,-3.57061,-3.39697,-0.0173684,-0.182784,0.291693,
2,1,0,1,0,40401.3,0.293445,0.293139,0.26778,21,0.0217425,10,7.84969e-05,-3.57222,-2.71381,-0.0217407,-0.228495,0.293139,
2,1,0,1,0,40401.6,0.294943,0.294659,0.268162,21,0.0218265,10,7.90161e-05,-3.5716,-1.80377,-0.0327093,-0.342924,0.294659,
2,1,0,1,0,40401.9,0.296442,0.296143,0.269084,21,0.0219105,10,7.96875e-05,-3.57011,-5.11395,-0.0115371,-0.120654,0.296143,
2,1,0,1,0,40402.2,0.297939,0.297598,0.268368,21,0.0219945,10,7.98658e-05,-3.57127,-2.22518,-0.0265147,-0.276552,0.297598,
2,1,0,1,0,40402.5,0.299437,0.299155,0.266855,21,0.0220782,10,7.98311e-05,-3.57372,-0.00266816,-22.1127,-118.385,0.299155,
2,1,0,1,0,40402.7,0.299737,0.299411,0.126355,21,0.0221175,10,3.7832e-05,-3.89841,0.000950666,62.0617,215.002,0.299411,
2,1,0,1,0,40403,0.29824,0.297911,0.0248069,21,0.0221304,10,7.39024e-06,-4.60543,0.00168365,35.0429,69.8289,0.297911,
2,1,0,0,0,40403.3,0.296741,0.29644,0.00449411,21,0.0221308,10,1.33224e-06,-5.34736,0.0086512,6.81986,11.6342,0.29644,
2,1,0,0,0,40403.6,0.295243,0.294927,-0.00795267,21,0.0221266,10,-2.34546e-06,-5.09949,-0.0126643,-4.65876,7.20745,0.294927,
2,0,0,1,0,40403.9,0.293744,0.293398,-0.0182329,21,0.0221193,10,-5.34949e-06,-4.73915,-0.00489017,-12.065,5.80225,0.293398,
2,0,0,1,0,40404.2,0.292246,0.291947,-0.025639,21,0.0221095,10,-7.48523e-06,-4.5911,-0.0109663,-5.38011,4.74959,0.291947,
2,0,0,1,0,40404.5,0.290749,0.290448,-0.0326498,21,0.0220974,10,-9.48307e-06,-4.48612,-0.0146718,-4.02132,4.64643,0.290448,
2,0,0,1,0,40404.8,0.28925,0.288959,-0.0375311,21,0.0220834,10,-1.08449e-05,-4.42561,-0.022851,-2.58194,3.71909,0.288959,
2,0,0,1,0,40405.1,0.287752,0.287455,-0.0429536,21,0.0220678,10,-1.23472e-05,-4.367,-0.0296206,-1.99186,3.31089,0.2874552,
2,0,0,1,0,40405.4,0.286253,0.285976,-0.047264,21,0.0220507,10,-1.35164e-05,-4.32547,-0.0350097,-1.68525,3.1666,0.285976,
2,0,0,1,0,40405.7,0.284755,0.284464,-0.0523144,21,0.0220321,10,-1.48815e-05,-4.28138,-0.0371161,-1.58961,3.21036,0.284464,
2,0,0,1,0,40406,0.283257,0.282956,-0.0572786,21,0.022012,10,-1.62073e-05,-4.24201,-0.0439613,-1.34209,2.96668,0.282956,
2,0,0,0,0,40406.3,0.281759,0.281466,-0.062089,21,0.0219905,10,-1.74759e-05,-4.20699,-0.0543521,-1.08552,2.58473,0.281466,
2,0,0,0,0,40406.6,0.280261,0.27997,-0.0649821,21,0.021968,10,-1.8193e-05,-4.18721,-0.0601904,-0.980223,2.49063,0.27997,
2,0,0,0,0,40406.9,0.278763,0.278485,-0.0690139,21,0.0219443,10,-1.92194e-05,-4.16106,-0.0686464,-0.859477,2.28382,0.278485,
2,0,0,1,0,40407.2,0.277264,0.27697,-0.0733039,21,0.0219194,10,-2.03029e-05,-4.13487,-0.067544,-0.873504,2.45231,0.27697,
2,0,0,1,0,40407.5,0.275766,0.275456,-0.0757396,21,0.0218936,10,-2.08629e-05,-4.12068,-0.0899395,-0.655996,1.94188,0.275456,
2,0,0,1,0,40407.8,0.274269,0.273926,-0.0786205,21,0.0218667,10,-2.15362e-05,-4.10446,-0.091474,-0.644992,1.99602,0.2739259,
2,0,0,1,0,40408.1,0.27277,0.272467,-0.0830707,21,0.021839,10,-2.26341e-05,-4.08055,-0.0810012,-0.728385,2.36083,0.2724674,
2,0,0,1,0,40408.4,0.271272,0.270985,-0.0856899,21,0.0218102,10,-2.32207e-05,-4.06707,-0.0792912,-0.744093,2.45761,0.270985,
2,0,0,1,0,40408.7,0.269773,0.269497,-0.088747,21,0.0217804,10,-2.3917e-05,-4.05185,-0.0977966,-0.603293,2.07682,0.269497,
2,0,0,1,0,40409,0.268275,0.267936,-0.0917642,21,0.0217497,10,-2.45869e-05,-4.03733,-0.0926106,-0.637076,2.26497,0.267936,
2,0,0,1,0,40409.3,0.266778,0.266445,-0.0945328,21,0.0217184,10,-2.51878e-05,-4.02442,-0.11329,-0.520788,1.90723,0.266445,
2,0,0,0,0,40409.6,0.265279,0.264993,-0.0966762,21,0.0216861,10,-2.56185e-05,-4.01468,-0.109048,-0.541046,2.0278,0.264993,
2,0,0,0,0,40409.9,0.263781,0.26346,-0.099319,21,0.021653,10,-2.61666e-05,-4.00297,-0.142928,-0.412795,1.60034,0.26346,
2,0,0,1,0,40410.2,0.262282,0.261963,-0.102034,21,0.0216191,10,-2.67292e-05,-3.99125,-0.148199,-0.398113,1.58325,0.261963,
2,0,0,1,0,40410.5,0.260784,0.260486,-0.103484,21,0.0215847,10,-2.69562e-05,-3.98513,-0.166364,-0.354644,1.44199,0.260486,
2,0,0,1,0,40410.8,0.259286,0.258996,-0.106805,21,0.0215495,10,-2.7662e-05,-3.97141,-0.120857,-0.488182,2.03399,0.258996,
2,0,0,1,0,40411.1,0.257788,0.257491,-0.109575,21,0.0215134,10,-2.82146e-05,-3.96029,-0.165426,-0.356656,1.52454,0.257491,
2,0,0,1,0,40411.4,0.25629,0.255938,-0.111227,21,0.0214767,10,-2.84672e-05,-3.95379,-0.212656,-0.277444,1.20054,0.255938,
2,0,0,1,0,40411.7,0.254791,0.254466,-0.11196,21,0.0214395,10,-2.849e-05,-3.95094,-0.172043,-0.342937,1.51318,0.254466,
2,0,0,1,0,40412,0.253293,0.253007,-0.115657,21,0.0214017,10,-2.9262e-05,-3.93683,-0.194454,-0.303414,1.37159,0.253007,
2,0,0,1,0,40412.3,0.251795,0.251501,-0.1175,21,0.0213632,10,-2.95513e-05,-3.92996,-0.190193,-0.310211,1.42862,0.251501,
2,0,0,0,0,40412.6,0.250297,0.249912,-0.119352,21,0.0213239,10,-2.98276e-05,-3.92317,-0.189187,-0.311861,1.44618,0.249912,
2,0,0,0,0,40412.9,0.248799,0.24848,-0.121898,21,0.0212841,10,-3.02892e-05,-3.914,-0.201855,-0.292289,1.39516,0.24848,
2,0,0,0,0,40413.2,0.247301,0.246984,-0.123345,21,0.0212438,10,-3.04642e-05,-3.90888,-0.2036,-0.289784,1.40687,0.246984,
2,0,0,1,0,40413.5,0.245802,0.245475,-0.125767,21,0.0212028,10,-3.08726e-05,-3.90043,-0.237612,-0.248304,1.21588,0.245475,
2,0,0,1,0,40413.8,0.244304,0.244007,-0.128398,21,0.0211609,10,-3.13302e-05,-3.89144,-0.214389,-0.275201,1.37453,0.244007,
2,0,0,1,0,40414.1,0.242806,0.242491,-0.131062,21,0.0211186,10,-3.17812e-05,-3.88252,-0.266178,-0.221656,1.12619,0.242491,
2,0,0,1,0,40414.4,0.241308,0.240982,-0.131076,21,0.0210759,10,-3.1587e-05,-3.88248,-0.220704,-0.267327,1.37565,0.240982,
2,0,0,1,0,40414.7,0.23981,0.239461,-0.133553,21,0.0210324,10,-3.19807e-05,-3.87435,-0.168708,-0.349716,1.81742,0.239461,
2,0,0,1,0,40415,0.238311,0.237999,-0.135182,21,0.0209884,10,-3.2173e-05,-3.86908,-0.273632,-0.215618,1.14535,0.237999,
2,0,0,1,0,40415.3,0.236813,0.236439,-0.137211,21,0.0209439,10,-3.24421e-05,-3.86261,-0.246916,-0.238947,1.28466,0.236439,
2,0,0,1,0,40415.6,0.235316,0.234978,-0.137652,21,0.0208989,10,-3.23451e-05,-3.86122,-0.27201,-0.216904,1.17877,0.234978,
2,0,0,0,0,40415.9,0.233817,0.233511,-0.140043,21,0.0208534,10,-3.27015e-05,-3.85374,-0.268897,-0.219415,1.20482,0.233511,
2,0,0,0,0,40416.2,0.232319,0.231979,-0.143806,21,0.0208072,10,-3.33599e-05,-3.84222,-0.262169,-0.225046,1.2444,0.231979,
2,0,0,1,0,40416.5,0.23082,0.230502,-0.144457,21,0.0207605,10,-3.32976e-05,-3.84026,-0.358655,-0.164504,0.92553,0.230502,
2,0,0,1,0,40416.8,0.229322,0.229002,-0.144662,21,0.0207134,10,-3.31278e-05,-3.83965,-0.244304,-0.241502,1.37683,0.229002,
2,0,0,1,0,40417.1,0.227825,0.227513,-0.146902,21,0.0206658,10,-3.3422e-05,-3.83297,-0.237804,-0.248103,1.43974,0.227513,
2,0,0,1,0,40417.4,0.226326,0.226038,-0.148982,21,0.0206177,10,-3.36756e-05,-3.82686,-0.311472,-0.189423,1.10668,0.2260375,
2,0,0,1,0,40417.7,0.224828,0.224522,-0.15086,21,0.0205689,10,-3.38713e-05,-3.82143,-0.285122,-0.206929,1.21726,0.224522,
2,0,0,1,0,40418,0.223329,0.223075,-0.152788,21,0.0205196,10,-3.40832e-05,-3.81591,-0.305435,-0.193167,1.15091,0.223075,
2,0,0,1,0,40418.3,0.221831,0.221569,-0.154835,21,0.02047,10,-3.43066e-05,-3.81013,-0.277824,-0.212365,1.28413,0.221569,
2,0,0,1,0,40418.6,0.220333,0.22002,-0.157225,21,0.0204196,10,-3.45926e-05,-3.80348,-0.267874,-0.220253,1.34365,0.22002,
2,0,0,0,0,40418.9,0.218835,0.218499,-0.158202,21,0.0203686,10,-3.4567e-05,-3.80079,-0.301544,-0.19566,1.20439,0.218499,
2,0,0,0,0,40419.2,0.217337,0.217021,-0.160033,21,0.0203173,10,-3.47306e-05,-3.79579,-0.449036,-0.131393,0.820041,0.217021,
2,0,0,0,0,40419.5,0.215839,0.215483,-0.160639,21,0.0202656,10,-3.4615e-05,-3.79415,-0.250917,-0.235137,1.48346,0.215483,
2,0,0,1,0,40419.8,0.21434,0.214055,-0.162046,21,0.0202132,10,-3.46866e-05,-3.79036,-0.243456,-0.242344,1.53983,0.214055,
2,0,0,1,0,40420.1,0.212842,0.212502,-0.164514,21,0.0201602,10,-3.49596e-05,-3.7838,-0.355219,-0.166095,1.07192,0.212502,
2,0,0,1,0,40420.4,0.211344,0.210991,-0.166622,21,0.0201067,10,-3.51558e-05,-3.77827,-0.423944,-0.139169,0.901503,0.210991,
2,0,0,1,0,40420.7,0.209846,0.209534,-0.166459,21,0.0200528,10,-3.48788e-05,-3.77869,-0.341675,-0.172679,1.13404,0.209534,
2,0,0,1,0,40421,0.208348,0.208047,-0.17008,21,0.0199984,10,-3.53847e-05,-3.76935,-0.27697,-0.21302,1.41203,0.208047,
2,0,0,1,0,40421.3,0.206849,0.206558,-0.17294,21,0.0199432,10,-3.57222e-05,-3.76211,-0.3396,-0.173734,1.1671,0.206558,
2,0,0,1,0,40421.6,0.205351,0.205018,-0.173507,21,0.0198875,10,-3.55722e-05,-3.76068,-0.457924,-0.128842,0.870956,0.205018,
2,0,0,1,0,40421.9,0.203854,0.203567,-0.17515,21,0.0198313,10,-3.56547e-05,-3.75659,-0.409019,-0.144248,0.989416,0.203567,
2,0,0,0,0,40422.2,0.202355,0.20199,-0.177028,21,0.0197747,10,-3.57579e-05,-3.75196,-0.321209,-0.183681,1.27158,0.20199,
2,0,0,0,0,40422.5,0.200857,0.20051,-0.178632,21,0.0197176,10,-3.58175e-05,-3.74804,-0.354124,-0.166608,1.16786,0.20051,
2,0,0,1,0,40422.8,0.199358,0.19905,-0.180463,21,0.0196597,10,-3.59211e-05,-3.74361,-0.340261,-0.173396,1.22156,0.19905,
2,0,0,1,0,40423.1,0.19786,0.19754,-0.182906,21,0.0196013,10,-3.61312e-05,-3.73777,-0.373864,-0.157811,1.12549,0.19754,
2,0,0,1,0,40423.4,0.196363,0.196039,-0.185125,21,0.0195424,10,-3.62916e-05,-3.73254,-0.323851,-0.182183,1.30971,0.196039,
2,0,0,1,0,40423.7,0.194864,0.194517,-0.187172,21,0.0194828,10,-3.64082e-05,-3.72776,-0.27559,-0.214086,1.56155,0.194517,
2,0,0,1,0,40424,0.193366,0.193029,-0.18945,21,0.0194224,10,-3.65694e-05,-3.72251,-0.376133,-0.156859,1.15666,0.1930292,
2,0,0,1,0,40424.2,0.191867,0.191493,-0.190791,21,0.0193615,10,-3.65352e-05,-3.71944,-0.395116,-0.149323,1.11288,0.191493,
2,0,0,1,0,40424.5,0.190369,0.190041,-0.192371,21,0.0193002,10,-3.65584e-05,-3.71586,-0.298749,-0.19749,1.49131,0.1900409,
2,0,0,1,0,40424.8,0.188871,0.188515,-0.195165,21,0.0192382,10,-3.67916e-05,-3.7096,-0.227006,-0.259905,1.97453,0.188515,
2,0,0,0,0,40425.1,0.187373,0.187053,-0.198219,21,0.0191754,10,-3.70774e-05,-3.70285,-0.302262,-0.195195,1.50466,0.187053,
2,0,0,0,0,40425.4,0.185875,0.185576,-0.19898,21,0.019112,10,-3.69259e-05,-3.70119,-0.283139,-0.208378,1.62071,0.185576,
2,0,0,0,0,40425.7,0.184377,0.184072,-0.200467,21,0.0190478,10,-3.69004e-05,-3.69796,-0.294282,-0.200488,1.57587,0.184072,
2,0,0,1,0,40426,0.182878,0.182508,-0.205306,21,0.018983,10,-3.74699e-05,-3.6876,-0.298601,-0.197588,1.57438,0.182508,
2,0,0,1,0,40426.3,0.181381,0.181058,-0.206738,21,0.0189174,10,-3.74317e-05,-3.68458,-0.238383,-0.247501,1.99692,0.181058,
2,0,0,1,0,40426.6,0.179882,0.179561,-0.208986,21,0.018851,10,-3.75257e-05,-3.67988,-0.426609,-0.1383,1.12601,0.179561,
2,0,0,1,0,40426.9,0.178384,0.178046,-0.211827,21,0.0187838,10,-3.77149e-05,-3.67402,-0.357027,-0.165254,1.36782,0.178046,
2,0,0,1,0,40427.2,0.176886,0.176561,-0.215158,21,0.018716,10,-3.79885e-05,-3.66724,-0.258654,-0.228104,1.916,0.176561,
2,0,0,1,0,40427.5,0.175387,0.175017,-0.217797,21,0.0186472,10,-3.81181e-05,-3.66195,-0.248597,-0.237331,2.01563,0.175017,
2,0,0,1,0,40427.8,0.173889,0.173534,-0.221413,21,0.0185775,10,-3.84227e-05,-3.6548,-0.278752,-0.211658,1.82136,0.173534,
2,0,0,1,0,40428.1,0.172392,0.172064,-0.223512,21,0.0185069,10,-3.84585e-05,-3.6507,-0.229179,-0.257441,2.25077,0.172064,
2,0,0,0,0,40428.4,0.170893,0.170599,-0.227381,21,0.0184355,10,-3.8791e-05,-3.64325,-0.203082,-0.290523,2.57691,0.170599,
2,0,0,0,0,40428.7,0.169395,0.169065,-0.230838,21,0.018363,10,-3.90266e-05,-3.63669,-0.175254,-0.336655,3.03001,0.169065,
2,0,0,1,0,40429,0.167896,0.167586,-0.234592,21,0.0182892,10,-3.93142e-05,-3.62969,-0.203004,-0.290634,2.66555,0.167586,
2,0,0,1,0,40429.3,0.166398,0.166069,-0.238002,21,0.0182145,10,-3.95248e-05,-3.62342,-0.210627,-0.280116,2.61653,0.1660693,
2,0,0,1,0,40429.6,0.164901,0.164588,-0.241594,21,0.0181387,10,-3.97636e-05,-3.61691,-0.2002,-0.294706,2.79254,0.164588,
2,0,0,1,0,40429.9,0.163402,0.163099,-0.246668,21,0.0180615,10,-4.02313e-05,-3.60789,-0.167175,-0.352923,3.39994,0.163099,
2,0,0,1,0,40430.2,0.161904,0.161556,-0.252354,21,0.017983,10,-4.07694e-05,-3.59799,-0.180155,-0.327495,3.21023,0.161556,
2,0,0,1,0,40430.5,0.160405,0.160109,-0.257098,21,0.0179029,10,-4.11635e-05,-3.5899,-0.173498,-0.340062,3.39333,0.160109,
2,0,0,1,0,40430.8,0.158907,0.158566,-0.260289,21,0.0178215,10,-4.1273e-05,-3.58454,-0.149298,-0.395183,4.04232,0.1585658,
2,0,0,1,0,40431.1,0.157409,0.15707,-0.26707,21,0.0177386,10,-4.19487e-05,-3.57337,-0.15082,-0.391196,4.10208,0.15707,
2,0,0,0,0,40431.4,0.155911,0.155586,-0.273477,21,0.0176536,10,-4.25492e-05,-3.56308,-0.148561,-0.397144,4.24648,0.155586,
2,0,0,0,0,40431.7,0.154413,0.154042,-0.279662,21,0.0175666,10,-4.30798e-05,-3.55337,-0.146341,-0.403169,4.40637,0.154042,
2,0,0,0,0,40432,0.152915,0.152614,-0.287521,21,0.0174776,10,-4.38797e-05,-3.54133,-0.126196,-0.467526,5.26938,0.152614,
2,0,0,1,0,40432.3,0.151416,0.151108,-0.296328,21,0.0173864,10,-4.47776e-05,-3.52823,-0.113951,-0.517765,5.99795,0.151108,
2,0,0,1,0,40432.6,0.149919,0.1496,-0.305852,21,0.0172923,10,-4.57555e-05,-3.51449,-0.0987626,-0.597392,7.12423,0.1496,
2,0,0,1,0,40432.9,0.14842,0.148087,-0.316734,21,0.0171951,10,-4.69043e-05,-3.4993,-0.0971565,-0.607268,7.49037,0.148087,
2,0,0,1,0,40433.2,0.146922,0.146627,-0.327494,21,0.0170946,10,-4.80194e-05,-3.4848,-0.0917389,-0.64313,8.23371,0.146627,
2,0,0,1,0,40433.5,0.145424,0.145119,-0.34067,21,0.0169907,10,-4.94376e-05,-3.46767,-0.0885506,-0.666286,8.88213,0.145119,
2,0,0,1,0,40433.8,0.143925,0.143606,-0.354716,21,0.0168825,10,-5.09392e-05,-3.45012,-0.0766048,-0.770187,10.6577,0.143606,
2,0,0,1,0,40434.1,0.142427,0.142084,-0.37085,21,0.0167696,10,-5.26919e-05,-3.4308,-0.0780447,-0.755977,10.9386,0.142084,
2,0,0,1,0,40434.4,0.14093,0.140591,-0.386272,21,0.0166521,10,-5.43065e-05,-3.41311,-0.083869,-0.703478,10.6355,0.140591,
2,0,0,0,0,40434.7,0.139431,0.139113,-0.402191,21,0.0165297,10,-5.59499e-05,-3.39557,-0.0798812,-0.738597,11.6547,0.139113,
2,0,0,0,0,40435,0.137933,0.137618,-0.421903,21,0.0164022,10,-5.80614e-05,-3.37479,-0.0797606,-0.739714,12.1774,0.137618,
2,0,0,1,0,40435.3,0.136434,0.136099,-0.44082,21,0.0162687,10,-5.9995e-05,-3.35574,-0.0776314,-0.760002,13.0544,0.136099,
2,0,0,1,0,40435.6,0.134936,0.1346,-0.460205,21,0.0161297,10,-6.19435e-05,-3.33705,-0.0862344,-0.684182,12.2538,0.1346,
2,0,0,1,0,40435.9,0.133439,0.13314,-0.478459,21,0.0159847,10,-6.3702e-05,-3.32015,-0.0876933,-0.6728,12.5601,0.13314,
2,0,0,1,0,40436.2,0.13194,0.131642,-0.497766,21,0.0158342,10,-6.55271e-05,-3.30297,-0.0916961,-0.643429,12.5266,0.131642,
2,0,0,1,0,40436.5,0.130442,0.130148,-0.516588,21,0.0156781,10,-6.7233e-05,-3.28686,-0.101942,-0.57876,11.6357,0.130148,
2,0,0,1,0,40436.8,0.128943,0.128647,-0.533666,21,0.0155163,10,-6.86546e-05,-3.27273,-0.116496,-0.506457,10.4883,0.128647,
2,0,0,1,0,40437.1,0.127445,0.127089,-0.550019,21,0.0153497,10,-6.99012e-05,-3.25962,-0.128213,-0.460172,9.83141,0.127089,
2,0,0,1,0,40437.4,0.125947,0.125625,-0.563079,21,0.0151789,10,-7.07367e-05,-3.24943,-0.142685,-0.413497,9.05857,0.125625,
2,0,0,0,0,40437.7,0.124449,0.124109,-0.575922,21,0.0150038,10,-7.14772e-05,-3.23964,-0.15807,-0.373252,8.35395,0.124109,
2,0,0,0,0,40438,0.122951,0.122613,-0.587279,21,0.0148251,10,-7.2008e-05,-3.23116,-0.201969,-0.292125,6.67387,0.1226129,
2,0,0,0,0,40438.3,0.121453,0.12112,-0.59647,21,0.0146434,10,-7.22444e-05,-3.22441,-0.260336,-0.22663,5.2636,0.12112,
2,0,0,1,0,40438.6,0.119954,0.11967,-0.60266,21,0.0144594,10,-7.21203e-05,-3.21993,-0.310628,-0.189938,4.46109,0.11967,
2,0,0,1,0,40438.9,0.118456,0.118142,-0.608872,21,0.0142735,10,-7.19335e-05,-3.21547,-0.352139,-0.167548,3.97223,0.118142,
2,0,0,1,0,40439.2,0.116958,0.116608,-0.614148,21,0.0140859,10,-7.16145e-05,-3.21173,-0.668697,-0.0882312,2.10659,0.116608,
2,0,0,1,0,40439.5,0.11546,0.115154,-0.615736,21,0.0138973,10,-7.09044e-05,-3.21061,-1.97088,-0.0299359,0.71767,0.115154,
2,0,0,1,0,40439.8,0.113962,0.113644,-0.61529,21,0.0137085,10,-6.9924e-05,-3.21092,-29.2665,-0.00201596,0.0484757,0.113644,
2,0,0,1,0,40440.1,0.112463,0.112157,-0.617716,21,0.0135197,10,-6.92811e-05,-3.20921,3.34455,0.0176407,-0.424063,0.112157,
2,0,0,1,0,40440.4,0.110965,0.110639,-0.617154,21,0.0133307,10,-6.82813e-05,-3.20961,3.1558,0.0186957,-0.44903,0.110639,
2,0,0,1,0,40440.7,0.109468,0.109106,-0.614967,21,0.0131421,10,-6.70966e-05,-3.21115,0.860947,0.0685292,-1.64235,0.1091059,
2,0,0,0,0,40441,0.107969,0.107623,-0.61344,21,0.0129537,10,-6.60203e-05,-3.21223,1.01043,0.058391,-1.39718,0.107623,
2,0,0,0,0,40441.3,0.106471,0.106146,-0.612352,21,0.0127663,10,-6.49986e-05,-3.213,1.56216,0.0377683,-0.903951,0.106146,
2,0,0,1,0,40441.6,0.104972,0.104648,-0.609709,21,0.0125791,10,-6.3805e-05,-3.21488,1.00626,0.0586332,-1.39377,0.1046483,
2,0,0,1,0,40441.9,0.103474,0.103146,-0.607525,21,0.0123923,10,-6.26638e-05,-3.21644,0.659704,0.089434,-2.11777,0.103146,
2,0,0,1,0,40442.2,0.101977,0.10164,-0.604716,21,0.0122065,10,-6.14635e-05,-3.21845,0.741008,0.0796212,-1.87947,0.10164,
2,0,0,1,0,40442.5,0.100478,0.100163,-0.601236,21,0.0120218,10,-6.02217e-05,-3.22095,0.703318,0.0838881,-1.96993,0.100163,
2,0,0,1,0,40442.8,0.0989798,0.0986657,-0.599991,21,0.0118378,10,-5.91985e-05,-3.22186,0.8335,0.0707858,-1.6513,0.0986657,
2,0,0,1,0,40443.1,0.0974812,0.0971213,-0.596617,21,0.0116544,10,-5.79443e-05,-3.2243,0.68808,0.0857458,-1.99302,0.0971213,
2,0,0,1,0,40443.4,0.0959834,0.0956095,-0.592392,21,0.0114721,10,-5.66383e-05,-3.22739,0.582067,0.101363,-2.34518,0.0956095,
2,0,0,1,0,40443.7,0.0944855,0.0941562,-0.587943,21,0.011291,10,-5.53584e-05,-3.23066,0.596606,0.0988928,-2.27371,0.0941562,
2,0,0,0,0,40444,0.0929871,0.0926872,-0.584937,21,0.0111108,10,-5.42161e-05,-3.23289,0.835447,0.0706209,-1.61475,0.0926872,
2,0,0,0,0,40444.3,0.0914889,0.0912015,-0.584564,21,0.0109314,10,-5.33132e-05,-3.23317,0.604667,0.0975744,-2.21491,0.0912015,
2,0,0,0,0,40444.6,0.0899907,0.0896608,-0.578712,21,0.0107531,10,-5.18878e-05,-3.23754,0.42908,0.137504,-3.09997,0.0896608,
2,0,0,1,0,40444.9,0.0884923,0.0881548,-0.57223,21,0.0105761,10,-5.04448e-05,-3.24243,0.541926,0.108871,-2.4413,0.0881548,
2,0,0,1,0,40445.2,0.0869946,0.0866507,-0.569835,21,0.0104007,10,-4.93766e-05,-3.24425,0.54206,0.108844,-2.42434,0.0866507,
2,0,0,1,0,40445.5,0.0854961,0.0852283,-0.566141,21,0.0102261,10,-4.82512e-05,-3.24708,0.524327,0.112525,-2.48796,0.0852283,
2,0,0,1,0,40445.8,0.083998,0.0836642,-0.562618,21,0.0100526,10,-4.7071e-05,-3.24979,0.426242,0.138419,-3.03666,0.0836642,
2,0,0,1,0,40446.1,0.0824998,0.0821722,-0.558422,21,0.00988054,10,-4.58868e-05,-3.25304,0.483989,0.121904,-2.65941,0.0821722,
2,0,0,1,0,40446.4,0.0810014,0.0806758,-0.554711,21,0.00970986,10,-4.47517e-05,-3.25593,0.524737,0.112437,-2.4331,0.0806758,
2,0,0,1,0,40446.7,0.0795035,0.0791978,-0.550223,21,0.00954026,10,-4.35765e-05,-3.25946,0.563789,0.104649,-2.25014,0.0791978,
2,0,0,1,0,40447,0.0780056,0.0776309,-0.546337,21,0.00937171,10,-4.24126e-05,-3.26254,0.521255,0.113188,-2.41248,0.0776309,
2,0,0,0,0,40447.3,0.076507,0.0761766,-0.543358,21,0.00920414,10,-4.13912e-05,-3.26491,0.483444,0.122041,-2.58527,0.0761766,
2,0,0,0,0,40447.6,0.0750088,0.0746687,-0.539483,21,0.00903806,10,-4.02825e-05,-3.26802,0.486355,0.12131,-2.55523,0.0746687,
2,0,0,1,0,40447.9,0.0735103,0.0731965,-0.536232,21,0.00887304,10,-3.92503e-05,-3.27065,0.674771,0.0874371,-1.8272,0.0731965,
2,0,0,1,0,40448.2,0.0720124,0.0716626,-0.532362,21,0.00870901,10,-3.81504e-05,-3.27379,0.527671,0.111812,-2.32646,0.0716626,
2,0,0,1,0,40448.5,0.0705146,0.0702228,-0.528821,21,0.00854601,10,-3.71353e-05,-3.27669,0.498476,0.118361,-2.44415,0.07022278,
2,0,0,1,0,40448.8,0.069016,0.0686955,-0.523548,21,0.00838419,10,-3.59654e-05,-3.28104,0.589689,0.100053,-2.05419,0.0686955,
2,0,0,1,0,40449.1,0.0675179,0.0671971,-0.522268,21,0.00822335,10,-3.50949e-05,-3.28211,0.64174,0.0919375,-1.87216,0.0671971,
2,0,0,1,0,40449.4,0.0660192,0.065707,-0.521116,21,0.00806326,10,-3.42409e-05,-3.28307,0.52558,0.112257,-2.26969,0.065707,
2,0,0,1,0,40449.7,0.0645214,0.0641982,-0.515581,21,0.00790399,10,-3.30994e-05,-3.2877,0.493632,0.119522,-2.39963,0.0641982,
2,0,0,1,0,40450,0.0630235,0.0627319,-0.511259,21,0.00774606,10,-3.20722e-05,-3.29136,0.468972,0.125807,-2.51826,0.0627319,
2,0,0,0,0,40450.3,0.0615251,0.0612313,-0.508542,21,0.00758928,10,-3.11387e-05,-3.29367,0.581854,0.1014,-2.01751,0.0612313,
2,0,0,0,0,40450.6,0.0600269,0.0597138,-0.504767,21,0.00743328,10,-3.01416e-05,-3.29691,0.561184,0.105135,-2.07258,0.0597138,
2,0,0,0,0,40450.9,0.0585287,0.05826,-0.501706,21,0.00727814,10,-2.92294e-05,-3.29955,0.410342,0.143783,-2.81395,0.05826,
2,0,0,1,0,40451.2,0.0570303,0.0566851,-0.499724,21,0.00712402,10,-2.83269e-05,-3.30127,0.545145,0.108228,-2.11075,0.0566851,
2,0,0,1,0,40451.5,0.0555325,0.0552115,-0.495863,21,0.00697123,10,-2.73773e-05,-3.30464,0.559162,0.105515,-2.04166,0.0552115,
2,0,0,1,0,40451.8,0.0540342,0.0537596,-0.491848,21,0.0068191,10,-2.64416e-05,-3.30817,0.579343,0.10184,-1.95708,0.0537596,
2,0,0,1,0,40452.1,0.052536,0.0522252,-0.490776,21,0.00666774,10,-2.56309e-05,-3.30912,0.494639,0.119279,-2.27502,0.05222524,
2,0,0,1,0,40452.4,0.0510378,0.0507301,-0.4865,21,0.00651748,10,-2.46802e-05,-3.31292,0.416965,0.141499,-2.68263,0.0507301,
2,0,0,1,0,40452.7,0.0495394,0.0492368,-0.481722,21,0.00636869,10,-2.37184e-05,-3.3172,0.543098,0.108636,-2.04755,0.0492368,
2,0,0,1,0,40453,0.0480415,0.0477442,-0.47857,21,0.00622075,10,-2.28489e-05,-3.32005,0.932397,0.0632778,-1.18038,0.0477442,
2,0,0,1,0,40453.3,0.0465436,0.0461783,-0.475074,21,0.00607363,10,-2.19381e-05,-3.32324,0.509772,0.115738,-2.1491,0.0461783,
2,0,0,0,0,40453.6,0.045045,0.0447388,-0.47233,21,0.00592756,10,-2.11314e-05,-3.32575,0.431603,0.1367,-2.5191,0.0447388,
2,0,0,0,0,40453.9,0.0435468,0.043251,-0.466495,21,0.00578276,10,-2.01764e-05,-3.33115,0.484477,0.121781,-2.22506,0.043251,
2,0,0,1,0,40454.2,0.0420483,0.0417353,-0.465856,21,0.00563894,10,-1.94426e-05,-3.33175,0.674045,0.0875312,-1.58724,0.0417353,
2,0,0,1,0,40454.5,0.0405504,0.040248,-0.46423,21,0.00549587,10,-1.86843e-05,-3.33327,0.493526,0.119548,-2.152,0.040248,
2,0,0,1,0,40454.8,0.0390526,0.0386905,-0.459549,21,0.00535373,10,-1.77802e-05,-3.33767,0.405931,0.145345,-2.59672,0.0386905,
2,0,0,1,0,40455.1,0.0375541,0.0372025,-0.45352,21,0.00521279,10,-1.6872e-05,-3.3434,0.467202,0.126284,-2.24565,0.0372025,
2,0,0,1,0,40455.4,0.0360559,0.0357624,-0.451348,21,0.00507317,10,-1.61413e-05,-3.34549,0.405663,0.145441,-2.56851,0.0357624,
2,0,0,1,0,40455.7,0.0345572,0.034287,-0.447532,21,0.00493431,10,-1.53445e-05,-3.34918,0.474119,0.124441,-2.18055,0.034287,
2,0,0,1,0,40456,0.0330594,0.0326977,-0.445027,21,0.00479637,10,-1.45513e-05,-3.35161,0.415825,0.141887,-2.46205,0.0326977,
2,0,0,1,0,40456.3,0.0315615,0.0312665,-0.443362,21,0.0046594,10,-1.38623e-05,-3.35324,0.424858,0.13887,-2.39442,0.0312665,
2,0,0,0,0,40456.6,0.0300631,0.0297595,-0.439469,21,0.0045237,10,-1.30784e-05,-3.35707,0.477084,0.123668,-2.11996,0.0297595,
2,0,0,0,0,40456.9,0.0285649,0.0282314,-0.435479,21,0.00438884,10,-1.22942e-05,-3.36103,0.586257,0.100638,-1.7101,0.02823142,
2,0,0,0,0,40457.2,0.0270667,0.0267394,-0.434696,21,0.00425457,10,-1.16235e-05,-3.36181,0.52574,0.112223,-1.89605,0.0267394,
2,0,0,1,0,40457.5,0.0255683,0.0252504,-0.431115,21,0.00412117,10,-1.08858e-05,-3.36541,0.448173,0.131646,-2.21141,0.0252504,
2,0,0,1,0,40457.8,0.0240706,0.023781,-0.427249,21,0.00398894,10,-1.01604e-05,-3.36932,0.604255,0.0976409,-1.63228,0.023781,
2,0,0,1,0,40458.1,0.0225722,0.0222868,-0.423954,21,0.00385732,10,-9.44858e-06,-3.37268,0.90658,0.0650797,-1.07869,0.0222868,
2,0,0,1,0,40458.4,0.021074,0.0207396,-0.422987,21,0.0037263,10,-8.7726e-06,-3.37367,0.726041,0.0812626,-1.34317,0.02073965,
2,0,0,1,0,40458.7,0.0195758,0.0192625,-0.421217,21,0.00359588,10,-8.1137e-06,-3.37549,0.696407,0.0847206,-1.39189,0.0192625,
2,0,0,1,0,40459,0.0180774,0.0177607,-0.416942,21,0.0034663,10,-7.40518e-06,-3.37992,0.83556,0.0706113,-1.15499,0.0177607,
2,0,0,1,0,40459.3,0.0165795,0.0162341,-0.417748,21,0.00333727,10,-6.78177e-06,-3.37909,1.95014,0.0302542,-0.492849,0.0162341,
2,0,0,1,0,40459.6,0.0150817,0.01477,-0.41646,21,0.00320846,10,-6.1511e-06,-3.38043,1.08632,0.0543116,-0.882705,0.01476996,
2,0,0,0,0,40459.9,0.013583,0.0132627,-0.414224,21,0.00307989,10,-5.49374e-06,-3.38276,0.818215,0.0721082,-1.16654,0.0132627,
2,0,0,0,0,40460.2,0.0120848,0.011776,-0.414041,21,0.00295182,10,-4.87577e-06,-3.38296,1.68585,0.0349972,-0.566299,0.011776,
2,0,0,1,0,40460.5,0.0105863,0.0102943,-0.412543,21,0.00282414,10,-4.24686e-06,-3.38453,2.44485,0.0241323,-0.389809,0.0102943,
2,0,0,1,0,40460.8,0.00908846,0.00879629,-0.412141,21,0.00269649,10,-3.62531e-06,-3.38495,13.731,0.00429684,-0.0692944,0.00879629,
2,0,0,1,0,40461.1,0.0075906,0.00727081,-0.41308,21,0.00256894,10,-3.00342e-06,-3.38397,1.7773,0.0331964,-0.533745,0.00727081,
2,0,0,1,0,40461.4,0.00609207,0.00576671,-0.412784,21,0.00244132,10,-2.38041e-06,-3.38428,-7486.69,-7.88065e-06,0.00012691,0.00576671,
2,0,0,1,0,40461.7,0.00459389,0.0042885,-0.412631,21,0.00231403,10,-1.76957e-06,-3.38444,-6.28423,-0.00938858,0.151262,0.0042885,
2,0,0,1,0,40462,0.00309525,0.00273128,-0.414273,21,0.00218637,10,-1.1315e-06,-3.38271,-0.893882,-0.0660042,1.06524,0.002731283,
2,0,0,1,0,40462.3,0.00159739,0.00124715,-0.417776,21,0.00205678,10,-5.21029e-07,-3.37906, , , ,0.00124715,
2,0,0,0,0,40462.6,0.000199195,-0.000184077,-0.415785,21,0.00193664,10,7.65367e-08,-3.38113, , , ,-0.000184077,