File: Figure_codes/Fig_3-5/rawdata_trumpetplot_data/after 10th/20221101_1-115_003_TrumpetPlot_ParaChange_from10_every3_04_CV_C01_30.csv
mode,ox/red,error,control changes,counter inc.,time/s,control/V,Ewe/V,<I>/mA,cycle number,(Q-Qo)/C,I Range,P/W,log(|I|),Tafel slope mV/dec,alpha_eff,dI/d(E-IR),E-IR/V,
2,0,0,1,0,60163.9,2.44065e-05,-0.000458935,-0.394513,31,0.0000000E+000,10,1.81056e-07,-3.40394, , , ,-0.000458935,
2,1,0,1,0,60164.1,0.00129787,0.000893084,0.0784093,31,-8.75764e-06,10,7.0026e-08,-4.10563, , , ,0.000893084,
2,1,0,1,0,60164.2,0.00279606,0.00245082,0.230335,31,1.84142e-05,10,5.64511e-07,-3.63764,0.00375432,15.7152,79.6185,0.00245082,
2,1,0,1,0,60164.4,0.00429425,0.00394599,0.282876,31,5.92326e-05,10,1.11623e-06,-3.5484,0.0193657,3.04662,30.5752,0.00394599,
2,1,0,1,0,60164.5,0.00579244,0.0054242,0.315216,31,0.000106294,10,1.7098e-06,-3.50139,0.0355141,1.66131,19.8097,0.0054242,
2,1,0,1,0,60164.7,0.00729063,0.00693528,0.341314,31,0.000157412,10,2.36711e-06,-3.46685,0.0530432,1.1123,14.5665,0.00693528,
2,1,0,1,0,60164.8,0.00878882,0.00845484,0.359167,31,0.000211908,10,3.0367e-06,-3.4447,0.0670468,0.879982,12.2289,0.00845484,
2,1,0,1,0,60165,0.010287,0.00992669,0.376523,31,0.000269041,10,3.73762e-06,-3.42421,0.09192,0.641862,9.36109,0.00992669,
2,1,0,1,0,60165.1,0.0117852,0.0114102,0.38982,31,0.000328539,10,4.44792e-06,-3.40914,0.0926813,0.63659,9.67903,0.0114102,
2,1,0,1,0,60165.3,0.0132838,0.012949,0.403153,31,0.000389899,10,5.22042e-06,-3.39453,0.103469,0.570219,8.98402,0.012949,
2,1,0,1,0,60165.4,0.0147814,0.0144373,0.415608,31,0.000453333,10,6.00027e-06,-3.38132,0.114595,0.514856,8.32835,0.0144373,
2,1,0,1,0,60165.6,0.0162789,0.0159458,0.427789,31,0.000518651,10,6.82145e-06,-3.36877,0.144823,0.407393,6.77713,0.0159458,
2,1,0,1,0,60165.7,0.017778,0.0174216,0.437446,31,0.000585555,10,7.62103e-06,-3.35908,0.155564,0.379266,6.47611,0.0174216,
2,1,0,1,0,60165.9,0.0192761,0.0189253,0.447805,31,0.000653685,10,8.47485e-06,-3.34891,0.150022,0.393276,6.86449,0.0189253,
2,1,0,1,0,60166,0.0207743,0.0204618,0.45901,31,0.000723553,10,9.39217e-06,-3.33818,0.147833,0.399099,7.11559,0.0204618,
2,1,0,1,0,60166.2,0.0222725,0.0218997,0.468644,31,0.000794964,10,1.02632e-05,-3.32916,0.167538,0.352158,6.44439,0.0218997,
2,1,0,1,0,60166.3,0.0237707,0.0233854,0.478565,31,0.000867929,10,1.11914e-05,-3.32006,0.176444,0.334384,6.24537,0.0233854,
2,1,0,1,0,60166.5,0.0252689,0.0249293,0.486683,31,0.000942218,10,1.21327e-05,-3.31275,0.171096,0.344835,6.56953,0.0249293,
2,1,0,1,0,60166.6,0.0267671,0.0264383,0.498314,31,0.00101809,10,1.31746e-05,-3.3025,0.15807,0.373252,7.24768,0.0264383,
2,1,0,1,0,60166.8,0.0282662,0.0279224,0.510037,31,0.00109559,10,1.42415e-05,-3.2924,0.166496,0.354364,7.02636,0.0279224,
2,1,0,1,0,60166.9,0.0297635,0.0294476,0.518606,31,0.00117455,10,1.52717e-05,-3.28516,0.190595,0.309557,6.25308,0.0294476,
2,1,0,1,0,60167.1,0.031261,0.0309654,0.526502,31,0.00125483,10,1.63034e-05,-3.2786,0.177827,0.331783,6.83105,0.0309654,
2,1,0,1,0,60167.2,0.0327599,0.0323956,0.538228,31,0.00133658,10,1.74362e-05,-3.26903,0.187098,0.315343,6.62543,0.0323956,
2,1,0,1,0,60167.4,0.034258,0.0339173,0.546879,31,0.0014198,10,1.85487e-05,-3.26211,0.197634,0.298531,6.37394,0.0339173,
2,1,0,1,0,60167.5,0.0357562,0.0353998,0.556687,31,0.00150459,10,1.97066e-05,-3.25439,0.232524,0.253737,5.5049,0.0353998,
2,1,0,1,0,60167.7,0.0372544,0.0368896,0.56636,31,0.00159069,10,2.08928e-05,-3.24691,0.220625,0.267422,5.91249,0.0368896,
2,1,0,1,0,60167.8,0.0387526,0.03837,0.576054,31,0.00167804,10,2.21032e-05,-3.23954,0.197683,0.298457,6.72771,0.03837,
2,1,0,1,0,60168,0.0402508,0.0399001,0.586239,31,0.00176695,10,2.3391e-05,-3.23193,0.206849,0.285233,6.52275,0.0399001,
2,1,0,1,0,60168.1,0.041749,0.0414123,0.596601,31,0.00185754,10,2.47066e-05,-3.22432,0.228108,0.258649,6.00469,0.0414123,
2,1,0,1,0,60168.3,0.0432472,0.0429138,0.605096,31,0.00194943,10,2.5967e-05,-3.21818,0.223352,0.264157,6.22983,0.0429138,
2,1,0,1,0,60168.4,0.0447458,0.0443922,0.614134,31,0.00204263,10,2.72627e-05,-3.21174,0.226701,0.260255,6.22912,0.0443922,
2,1,0,1,0,60168.5,0.0462433,0.0458848,0.623846,31,0.00213728,10,2.8625e-05,-3.20492,0.202597,0.291218,7.06976,0.0458848,
2,1,0,1,0,60168.7,0.0477409,0.0474368,0.632075,31,0.00223342,10,2.99836e-05,-3.19923,0.221318,0.266585,6.57875,0.0474368,
2,1,0,1,0,60168.8,0.0492399,0.0488881,0.640561,31,0.00233092,10,3.13158e-05,-3.19344,0.285972,0.206314,5.15949,0.0488881,
2,1,0,1,0,60169,0.0507381,0.050395,0.648523,31,0.00242957,10,3.26823e-05,-3.18807,0.243848,0.241954,6.13929,0.050395,
2,1,0,1,0,60169.1,0.0522363,0.0518393,0.657133,31,0.00252945,10,3.40653e-05,-3.18235,0.248061,0.237845,6.10074,0.0518393,
2,1,0,1,0,60169.3,0.0537345,0.0533758,0.668338,31,0.00263084,10,3.5673e-05,-3.175,0.276922,0.213057,5.54349,0.0533758,
2,1,0,1,0,60169.4,0.0552327,0.0549155,0.676438,31,0.00273352,10,3.71469e-05,-3.16977,0.318245,0.185392,4.87463,0.0549155,
2,1,0,1,0,60169.6,0.0567309,0.0563693,0.681473,31,0.00283725,10,3.84142e-05,-3.16655,0.305924,0.192859,5.14535,0.0563693,
2,1,0,1,0,60169.7,0.0582291,0.057838,0.689571,31,0.00294196,10,3.98834e-05,-3.16142,0.298363,0.197746,5.32872,0.057838,
2,1,0,1,0,60169.9,0.0597282,0.0593532,0.699243,31,0.00304806,10,4.15023e-05,-3.15537,0.291766,0.202217,5.50749,0.0593532,
2,1,0,1,0,60170,0.0612255,0.0608707,0.705158,31,0.00315523,10,4.29234e-05,-3.15171,0.36611,0.161154,4.42989,0.06087067,
2,1,0,1,0,60170.2,0.062723,0.0623536,0.712614,31,0.00326347,10,4.44341e-05,-3.14715,0.346596,0.170227,4.73594,0.0623536,
2,1,0,1,0,60170.3,0.0642218,0.0638643,0.717975,31,0.00337261,10,4.58529e-05,-3.14389,0.315316,0.187114,5.25769,0.0638643,
2,1,0,1,0,60170.5,0.06572,0.0653838,0.726726,31,0.00348284,10,4.75161e-05,-3.13863,0.335957,0.175618,4.97242,0.0653838,
2,1,0,1,0,60170.6,0.0672182,0.0668101,0.734444,31,0.00359437,10,4.90682e-05,-3.13404,0.412023,0.143196,4.08723,0.0668101,
2,1,0,1,0,60170.8,0.0687164,0.0683636,0.740112,31,0.00370677,10,5.05967e-05,-3.1307,0.525563,0.112261,3.23782,0.0683636,
2,1,0,1,0,60170.9,0.0702146,0.0698556,0.744888,31,0.00381986,10,5.20346e-05,-3.12791,0.493391,0.119581,3.47689,0.0698556,
2,1,0,1,0,60171.1,0.0717128,0.0713645,0.751723,31,0.00393386,10,5.36463e-05,-3.12394,0.404668,0.145798,4.27089,0.0713645,
2,1,0,1,0,60171.2,0.073211,0.0728533,0.757853,31,0.00404879,10,5.52121e-05,-3.12041,0.434657,0.135739,4.00855,0.0728533,
2,1,0,1,0,60171.4,0.0747092,0.0743464,0.762081,31,0.00416461,10,5.6658e-05,-3.118,0.500283,0.117933,3.50868,0.0743464,
2,1,0,1,0,60171.5,0.0762078,0.0758548,0.765729,31,0.00428116,10,5.80842e-05,-3.11593,0.491509,0.120038,3.59576,0.0758548,
2,1,0,1,0,60171.7,0.0777053,0.077358,0.773085,31,0.00439846,10,5.98043e-05,-3.11177,0.421729,0.1399,4.22032,0.077358,
2,1,0,1,0,60171.8,0.0792029,0.0788977,0.778794,31,0.0045167,10,6.14451e-05,-3.10858,0.483975,0.121907,3.70182,0.0788977,
2,1,0,1,0,60172,0.0807019,0.0803249,0.784275,31,0.00463589,10,6.29968e-05,-3.10553,0.670312,0.0880188,2.68674,0.08032494,
2,1,0,1,0,60172.1,0.0822001,0.0818509,0.786787,31,0.00475565,10,6.43992e-05,-3.10414,0.651606,0.0905455,2.7885,0.0818509,
2,1,0,1,0,60172.3,0.0836983,0.0833354,0.794363,31,0.004876,10,6.61986e-05,-3.09998,0.470396,0.125426,3.89085,0.0833354,
2,1,0,1,0,60172.4,0.0851965,0.084819,0.799711,31,0.00499748,10,6.78306e-05,-3.09707,0.415928,0.141852,4.43652,0.084819,
2,1,0,1,0,60172.6,0.0866947,0.0863703,0.807852,31,0.00511997,10,6.97745e-05,-3.09267,0.534433,0.110397,3.48425,0.0863703,
2,1,0,1,0,60172.7,0.0881929,0.0878135,0.814775,31,0.00524347,10,7.15483e-05,-3.08896,0.399203,0.147794,4.69989,0.0878135,
2,1,0,1,0,60172.9,0.0896911,0.0893236,0.820859,31,0.00536781,10,7.3322e-05,-3.08573,0.327804,0.179986,5.7799,0.0893236,
2,1,0,1,0,60173,0.0911902,0.0908409,0.83159,31,0.00549354,10,7.55424e-05,-3.08009,0.295196,0.199867,6.48056,0.0908409,
2,1,0,1,0,60173.2,0.0926875,0.0923857,0.841333,31,0.00562077,10,7.77271e-05,-3.07503,0.271448,0.217353,7.12361,0.0923857,
2,1,0,1,0,60173.3,0.094185,0.0938298,0.850737,31,0.00574953,10,7.98245e-05,-3.0702,0.267755,0.22035,7.3243,0.0938298,
2,1,0,1,0,60173.5,0.0956838,0.095282,0.859601,31,0.0058797,10,8.19045e-05,-3.0657,0.253427,0.232808,7.8456,0.095282,
2,1,0,1,0,60173.6,0.097182,0.0968365,0.873593,31,0.00601173,10,8.45958e-05,-3.05869,0.205615,0.286944,9.78808,0.0968365,
2,1,0,1,0,60173.8,0.0986802,0.0983253,0.888375,31,0.00614579,10,8.73498e-05,-3.0514,0.20782,0.283899,9.85118,0.0983253,
2,1,0,1,0,60173.9,0.100178,0.0998226,0.902088,31,0.00628209,10,9.00488e-05,-3.04475,0.22006,0.268109,9.44002,0.09982264,
2,1,0,1,0,60174.1,0.101677,0.101325,0.916372,31,0.00642046,10,9.28516e-05,-3.03793,0.215206,0.274156,9.82046,0.101325,
2,1,0,1,0,60174.2,0.103175,0.102836,0.932774,31,0.00656091,10,9.5923e-05,-3.03022,0.208946,0.282369,10.2898,0.102836,
2,1,0,1,0,60174.4,0.104673,0.104361,0.95096,31,0.00670386,10,9.92433e-05,-3.02184,0.199334,0.295985,10.9485,0.104361,
2,1,0,1,0,60174.5,0.106171,0.105839,0.966018,31,0.00684936,10,0.000102243,-3.01501,0.221949,0.265827,9.98885,0.105839,
2,1,0,1,0,60174.7,0.10767,0.107319,0.978693,31,0.00699723,10,0.000105033,-3.00935,0.22677,0.260175,9.94723,0.107319,
2,1,0,1,0,60174.8,0.109167,0.108797,0.994491,31,0.00714705,10,0.000108197,-3.0024,0.234383,0.251724,9.79075,0.108797,
2,1,0,1,0,60175,0.110665,0.110316,1.00769,31,0.00729911,10,0.000111164,-2.99667,0.237754,0.248155,9.76037,0.110316,
2,1,0,1,0,60175.1,0.112164,0.111851,1.02439,31,0.00745356,10,0.000114578,-2.98954,0.27943,0.211144,8.40779,0.111851,
2,1,0,1,0,60175.3,0.113662,0.113321,1.03433,31,0.00760979,10,0.000117211,-2.98534,0.321335,0.183609,7.3973,0.113321,
2,1,0,1,0,60175.4,0.11516,0.114788,1.04551,31,0.00776744,10,0.000120012,-2.98067,0.338679,0.174206,7.10385,0.114788,
2,1,0,1,0,60175.6,0.116658,0.116264,1.05537,31,0.00792671,10,0.000122702,-2.97659,0.359266,0.164224,6.74769,0.116264,
2,1,0,1,0,60175.7,0.118157,0.117771,1.06557,31,0.00808761,10,0.000125493,-2.97242,0.452012,0.130527,5.41536,0.117771,
2,1,0,1,0,60175.9,0.119655,0.119286,1.07134,31,0.00824963,10,0.000127797,-2.97007,0.698328,0.0844875,3.53122,0.1192864,
2,1,0,1,0,60176,0.121153,0.120827,1.07735,31,0.00841244,10,0.000130173,-2.96764,0.669834,0.0880815,3.70461,0.120827,
2,1,0,1,0,60176.2,0.122652,0.122287,1.08229,31,0.00857627,10,0.00013235,-2.96566,0.533467,0.110597,4.66798,0.122287,
2,1,0,1,0,60176.3,0.124149,0.123813,1.08887,31,0.00874093,10,0.000134816,-2.96303,0.677331,0.0871066,3.70124,0.123813,
2,1,0,1,0,60176.5,0.125647,0.125263,1.09189,31,0.00890643,10,0.000136773,-2.96182,0.973543,0.0606034,2.5788,0.125263,
2,1,0,1,0,60176.6,0.127146,0.126821,1.09577,31,0.00907267,10,0.000138966,-2.96028,1.26812,0.0465256,1.9905,0.126821,
2,1,0,1,0,60176.8,0.128644,0.128285,1.09847,31,0.00923904,10,0.000140917,-2.95921,2.18395,0.0270152,1.15852,0.128285,
2,1,0,1,0,60176.9,0.130142,0.129764,1.10266,31,0.00940594,10,0.000143086,-2.95756,2.87104,0.02055,0.882937,0.129764,
2,1,0,1,0,60177.1,0.13164,0.131267,1.10047,31,0.00957318,10,0.000144456,-2.95842,-2.15469,-0.0273821,-1.17317,0.131267,
2,1,0,1,0,60177.2,0.133139,0.132843,1.10016,31,0.00974024,10,0.000146148,-2.95854,-0.917485,-0.0643062,-2.75714,0.132843,
2,1,0,1,0,60177.4,0.134637,0.134298,1.09461,31,0.00990642,10,0.000147004,-2.96074,-0.488281,-0.120832,-5.14707,0.134298,
2,1,0,1,0,60177.5,0.136135,0.135775,1.08607,31,0.0100718,10,0.000147461,-2.96414,-0.345055,-0.170987,-7.22055,0.135775,
2,1,0,1,0,60177.7,0.137633,0.137307,1.07323,31,0.0102354,10,0.000147362,-2.96931,-0.231194,-0.255197,-10.6355,0.137307,
2,1,0,1,0,60177.8,0.139132,0.138796,1.05631,31,0.0103969,10,0.000146612,-2.97621,-0.174235,-0.338623,-13.8664,0.138796,
2,1,0,1,0,60178,0.140629,0.140231,1.03075,31,0.010555,10,0.000144543,-2.98685,-0.137797,-0.428166,-17.1484,0.140231,
2,1,0,1,0,60178.1,0.142127,0.141771,1.00265,31,0.0107093,10,0.000142146,-2.99885,-0.119597,-0.493323,-19.2345,0.141771,
2,1,0,1,0,60178.3,0.143626,0.143257,0.971807,31,0.0108594,10,0.000139218,-3.01242,-0.101678,-0.580264,-21.9261,0.143257,
2,1,0,1,0,60178.4,0.145124,0.14477,0.93603,31,0.0110043,10,0.000135509,-3.02871,-0.0870202,-0.678004,-24.7273,0.1447701,
2,1,0,1,0,60178.6,0.146622,0.146312,0.896991,31,0.0111437,10,0.00013124,-3.04721,-0.0814142,-0.72469,-25.3945,0.146312,
2,1,0,1,0,60178.7,0.14812,0.147778,0.859954,31,0.0112773,10,0.000127083,-3.06552,-0.0810253,-0.728167,-24.427,0.147778,
2,1,0,1,0,60178.9,0.149619,0.149247,0.821989,31,0.0114053,10,0.00012268,-3.08513,-0.0788401,-0.74835,-24.0433,0.149247,
2,1,0,1,0,60179,0.151117,0.150751,0.787408,31,0.0115278,10,0.000118702,-3.1038,-0.0762712,-0.773555,-23.7526,0.150751,
2,1,0,1,0,60179.2,0.152615,0.152263,0.750589,31,0.011645,10,0.000114287,-3.1246,-0.0809159,-0.729152,-21.4724,0.152263,
2,1,0,1,0,60179.3,0.154114,0.153781,0.722048,31,0.0117574,10,0.000111037,-3.14143,-0.0910628,-0.647905,-18.3555,0.153781,
2,1,0,1,0,60179.5,0.155612,0.155253,0.697912,31,0.0118655,10,0.000108353,-3.1562,-0.0965659,-0.610982,-16.6648,0.155253,
2,1,0,1,0,60179.6,0.157109,0.156768,0.67215,31,0.0119701,10,0.000105372,-3.17253,-0.106293,-0.555067,-14.6,0.156768,
2,1,0,1,0,60179.8,0.158608,0.158273,0.653406,31,0.0120714,10,0.000103417,-3.18482,-0.120064,-0.491405,-12.5822,0.158273,
2,1,0,1,0,60179.9,0.160106,0.159773,0.63504,31,0.0121697,10,0.000101462,-3.1972,-0.136196,-0.433199,-10.7826,0.159773,
2,1,0,1,0,60180.1,0.161604,0.161272,0.621012,31,0.0122659,10,0.000100152,-3.2069,-0.152272,-0.387465,-9.4036,0.161272,
2,1,0,1,0,60180.2,0.163102,0.162762,0.608506,31,0.0123599,10,9.90417e-05,-3.21573,-0.176587,-0.334114,-7.95586,0.162762,
2,1,0,1,0,60180.4,0.164601,0.164252,0.598663,31,0.0124522,10,9.83315e-05,-3.22282,-0.206178,-0.28616,-6.69841,0.164252,
2,1,0,1,0,60180.5,0.166099,0.165777,0.589361,31,0.0125429,10,9.77023e-05,-3.22962,-0.241808,-0.243995,-5.61977,0.165777,
2,1,0,1,0,60180.7,0.167597,0.167209,0.580727,31,0.0126324,10,9.7103e-05,-3.23603,-0.299465,-0.197018,-4.4731,0.167209,
2,1,0,1,0,60180.8,0.169095,0.168781,0.575737,31,0.0127208,10,9.71733e-05,-3.23978,-0.309804,-0.190443,-4.27108,0.168781,
2,1,0,1,0,60181,0.170594,0.170264,0.568688,31,0.0128084,10,9.68271e-05,-3.24513,-0.311584,-0.189355,-4.20648,0.170264,
2,1,0,1,0,60181.1,0.172091,0.171761,0.560791,31,0.0128949,10,9.63222e-05,-3.2512,-0.386212,-0.152766,-3.35809,0.171761,
2,1,0,1,0,60181.3,0.173589,0.173242,0.558395,31,0.0129806,10,9.67376e-05,-3.25306,-0.483476,-0.122033,-2.65897,0.173242,
2,1,0,1,0,60181.4,0.175088,0.17468,0.553684,31,0.0130658,10,9.67175e-05,-3.25674,-0.506849,-0.116405,-2.51289,0.17468,
2,1,0,1,0,60181.6,0.176586,0.176197,0.549326,31,0.0131504,10,9.67898e-05,-3.26017,-0.527488,-0.111851,-2.40096,0.176197,
2,1,0,1,0,60181.7,0.178084,0.177709,0.544453,31,0.0132343,10,9.67544e-05,-3.26404,-0.467196,-0.126285,-2.69376,0.177709,
2,1,0,1,0,60181.9,0.179582,0.179245,0.543184,31,0.0133178,10,9.73629e-05,-3.26505,-0.738161,-0.0799284,-1.70097,0.179245,
2,1,0,1,0,60182,0.181081,0.180747,0.541452,31,0.0134009,10,9.78656e-05,-3.26644,-0.767849,-0.076838,-1.624,0.1807465,
2,1,0,1,0,60182.2,0.182579,0.182262,0.539341,31,0.0134838,10,9.83013e-05,-3.26814,-0.596277,-0.0989474,-2.08348,0.182262,
2,1,0,1,0,60182.3,0.184077,0.183773,0.537327,31,0.0135662,10,9.87461e-05,-3.26976,-0.674734,-0.0874419,-1.83293,0.183773,
2,1,0,1,0,60182.5,0.185576,0.185201,0.535325,31,0.0136482,10,9.91426e-05,-3.27138,-1.08375,-0.0544407,-1.13792,0.185201,
2,1,0,1,0,60182.6,0.187074,0.186764,0.53322,31,0.01373,10,9.95865e-05,-3.27309,-5.08375,-0.0116056,-0.24085,0.1867643,
2,1,0,1,0,60182.8,0.188571,0.188248,0.531095,31,0.0138116,10,9.99778e-05,-3.27483,-1.44941,-0.0407063,-0.844035,0.188248,
2,1,0,1,0,60182.9,0.19007,0.189709,0.52922,31,0.0138929,10,0.000100398,-3.27636,-1.20426,-0.0489926,-1.01198,0.189709,
2,1,0,1,0,60183.1,0.191568,0.191234,0.527244,31,0.0139739,10,0.000100827,-3.27799,-1.17045,-0.050408,-1.03844,0.191234,
2,1,0,1,0,60183.2,0.193066,0.19274,0.526329,31,0.0140547,10,0.000101444,-3.27874,-2.30141,-0.0256365,-0.526235,0.19274,
2,1,0,1,0,60183.4,0.194564,0.194191,0.525548,31,0.0141354,10,0.000102057,-3.27939,-1.03655,-0.0569197,-1.16769,0.1941914,
2,1,0,1,0,60183.5,0.196063,0.195741,0.523799,31,0.0142159,10,0.000102529,-3.28084,-0.779386,-0.0757006,-1.55188,0.195741,
2,1,0,1,0,60183.7,0.197561,0.197254,0.521273,31,0.014296,10,0.000102823,-3.28293,-1.13162,-0.0521377,-1.06325,0.197254,
2,1,0,1,0,60183.8,0.199059,0.19875,0.52205,31,0.014376,10,0.000103758,-3.28229,-1.12598,-0.0523986,-1.06671,0.19875,
2,1,0,1,0,60184,0.200557,0.2002,0.521769,31,0.0144559,10,0.000104458,-3.28252,-2.17603,-0.0271136,-0.550989,0.2002,
2,1,0,1,0,60184.1,0.202056,0.201715,0.518783,31,0.0145357,10,0.000104646,-3.28501,-1.98161,-0.0297737,-0.602925,0.201715,
2,1,0,1,0,60184.3,0.203553,0.203244,0.518141,31,0.0146153,10,0.000105309,-3.28555,-1.8958,-0.0311214,-0.629788,0.203244,
2,1,0,1,0,60184.4,0.205051,0.204709,0.51696,31,0.0146947,10,0.000105826,-3.28654,3.10761,0.0189856,0.385048,0.204709,
2,1,0,1,0,60184.6,0.20655,0.206191,0.517895,31,0.0147741,10,0.000106785,-3.28576,-7.35378,-0.00802309,-0.161943,0.206191,
2,1,0,1,0,60184.7,0.208048,0.207696,0.517192,31,0.0148537,10,0.000107418,-3.28635,-1.17844,-0.0500661,-1.00698,0.207696,
2,1,0,1,0,60184.9,0.209546,0.2092,0.515987,31,0.014933,10,0.000107945,-3.28736,-1.18342,-0.0498553,-1.00428,0.2092,
2,1,0,1,0,60185,0.211044,0.210727,0.515325,31,0.0150119,10,0.000108593,-3.28792,-1.42643,-0.041362,-0.831155,0.210727,
2,1,0,1,0,60185.2,0.212543,0.212255,0.513985,31,0.0150907,10,0.000109096,-3.28905,-11.0459,-0.00534137,-0.106889,0.212255,
2,1,0,1,0,60185.3,0.214041,0.213699,0.513649,31,0.0151696,10,0.000109766,-3.28933,-5.09314,-0.0115842,-0.232202,0.213699,
2,1,0,1,0,60185.5,0.215539,0.215237,0.513007,31,0.0152482,10,0.000110418,-3.28988,-2.14243,-0.0275389,-0.551424,0.215237,
2,1,0,1,0,60185.6,0.217038,0.216701,0.511682,31,0.0153268,10,0.000110882,-3.291,-5.10134,-0.0115656,-0.231499,0.216701,
2,1,0,1,0,60185.8,0.218535,0.218173,0.511421,31,0.0154052,10,0.000111579,-3.29122,1.97158,0.0299253,0.596098,0.218173,
2,1,0,1,0,60185.9,0.220033,0.2197,0.511029,31,0.0154837,10,0.000112273,-3.29155,-9.79828,-0.00602146,-0.120237,0.2197,
2,1,0,1,0,60186.1,0.221532,0.221198,0.510711,31,0.0155621,10,0.000112968,-3.29183,-2.30939,-0.0255479,-0.508787,0.221198,
2,1,0,1,0,60186.2,0.22303,0.222674,0.5066,31,0.0156402,10,0.000112807,-3.29533,-3.05914,-0.0192865,-0.383253,0.222674,
2,1,0,1,0,60186.4,0.224528,0.22421,0.507681,31,0.0157183,10,0.000113827,-3.29441,-36.9615,-0.00159625,-0.0316736,0.22421,
2,1,0,1,0,60186.5,0.226026,0.225724,0.508458,31,0.0157964,10,0.000114771,-3.29374,-1.91966,-0.0307346,-0.610184,0.225724,
2,1,0,1,0,60186.7,0.227524,0.22714,0.506488,31,0.0158744,10,0.000115044,-3.29543,-0.783792,-0.0752751,-1.49007,0.22714,
2,1,0,1,0,60186.8,0.229023,0.228652,0.507525,31,0.0159523,10,0.000116047,-3.29454,-1.13902,-0.0517991,-1.02843,0.228652,
2,1,0,1,0,60187,0.230521,0.230213,0.506214,31,0.01603,10,0.000116537,-3.29567,-2.65241,-0.0222439,-0.439923,0.2302134,
2,1,0,1,0,60187.1,0.232019,0.231662,0.507032,31,0.0161077,10,0.00011746,-3.29496,-5.10317,-0.0115615,-0.22861,0.231662,
2,1,0,1,0,60187.3,0.233518,0.233174,0.505911,31,0.0161854,10,0.000117965,-3.29593,-1.97148,-0.0299267,-0.589702,0.233174,
2,1,0,1,0,60187.4,0.235015,0.234658,0.505398,31,0.016263,10,0.000118596,-3.29637,-9.03787,-0.00652808,-0.128763,0.234658,
2,1,0,1,0,60187.6,0.236513,0.236212,0.503468,31,0.0163403,10,0.000118925,-3.29803,-1.84525,-0.0319739,-0.628484,0.236212,
2,1,0,1,0,60187.7,0.238012,0.237677,0.504035,31,0.0164177,10,0.000119797,-3.29754,8.59708,0.0068628,0.135111,0.237677,
2,1,0,1,0,60187.9,0.23951,0.239164,0.502622,31,0.016495,10,0.000120209,-3.29876,-2.07672,-0.0284102,-0.556395,0.239164,
2,1,0,1,0,60188,0.241008,0.24068,0.50266,31,0.0165722,10,0.00012098,-3.29873,-2.55105,-0.0231277,-0.454439,0.24068,
2,1,0,1,0,60188.2,0.242506,0.242147,0.50034,31,0.0166491,10,0.000121156,-3.30073,-6.60985,-0.00892608,-0.175165,0.242147,
2,1,0,1,0,60188.3,0.244005,0.243624,0.50243,31,0.0167261,10,0.000122404,-3.29892,4.19486,0.0140648,0.275392,0.243624,
2,1,0,1,0,60188.5,0.245503,0.245175,0.50236,31,0.0168031,10,0.000123166,-3.29899,-2.89203,-0.0204009,-0.398227,0.245175,
2,1,0,1,0,60188.6,0.247001,0.246677,0.501662,31,0.01688,10,0.000123749,-3.29959,-1.48358,-0.0397686,-0.776112,0.246677,
2,1,0,1,0,60188.8,0.2485,0.248165,0.49792,31,0.0169568,10,0.000123567,-3.30284,-3.03515,-0.0194389,-0.379387,0.248165,
2,1,0,1,0,60188.9,0.249997,0.249653,0.498436,31,0.0170333,10,0.000124436,-3.30239,-13.7765,-0.00428266,-0.0834728,0.249653,
2,1,0,1,0,60189.1,0.251495,0.251179,0.498861,31,0.01711,10,0.000125303,-3.30202,-12.1549,-0.00485402,-0.0945655,0.251179,
2,1,0,1,0,60189.2,0.252994,0.252658,0.497357,31,0.0171865,10,0.000125661,-3.30333,-1.34942,-0.0437226,-0.849324,0.252658,
2,1,0,1,0,60189.4,0.254492,0.254152,0.496874,31,0.017263,10,0.000126282,-3.30375,-2.57142,-0.0229445,-0.445394,0.254152,
2,1,0,1,0,60189.5,0.25599,0.255684,0.495428,31,0.0173391,10,0.000126673,-3.30502,-4.07353,-0.0144838,-0.281263,0.255684,
2,1,0,1,0,60189.7,0.257488,0.257175,0.4967,31,0.0174152,10,0.000127739,-3.30391,-3.83858,-0.0153703,-0.297172,0.2571753,
2,1,0,1,0,60189.8,0.258987,0.258658,0.496886,31,0.0174915,10,0.000128523,-3.30374,16.8372,0.00350415,0.0677452,0.258658,
2,1,0,1,0,60190,0.260485,0.26016,0.494957,31,0.0175676,10,0.000128768,-3.30543,-1.54812,-0.0381107,-0.738215,0.26016,
2,1,0,1,0,60190.1,0.261983,0.261669,0.495446,31,0.0176434,10,0.000129643,-3.305,-2.33932,-0.025221,-0.487224,0.261669,
2,1,0,1,0,60190.3,0.263481,0.263137,0.494857,31,0.0177193,10,0.000130215,-3.30552,3.54657,0.0166358,0.320668,0.263137,
2,1,0,1,0,60190.4,0.26498,0.264676,0.492646,31,0.0177951,10,0.000130391,-3.30747,-3.41592,-0.0172721,-0.33267,0.264676,
2,1,0,1,0,60190.6,0.266477,0.266141,0.492516,31,0.0178708,10,0.000131079,-3.30758,-14.7748,-0.0039933,-0.0770025,0.266141,
2,1,0,1,0,60190.7,0.267976,0.267622,0.491232,31,0.0179463,10,0.000131465,-3.30871,-2.14584,-0.027495,-0.528883,0.267622,
2,1,0,1,0,60190.9,0.269474,0.269153,0.491114,31,0.0180218,10,0.000132185,-3.30882,8.04003,0.00733828,0.140773,0.269153,
2,1,0,1,0,60191,0.270972,0.270622,0.491703,31,0.0180971,10,0.000133066,-3.3083,-2.21235,-0.0266685,-0.511044,0.270622,
2,1,0,1,0,60191.2,0.27247,0.272154,0.490296,31,0.0181725,10,0.000133436,-3.30954,-0.882666,-0.0668429,-1.27519,0.272154,
2,1,0,1,0,60191.3,0.273968,0.273665,0.487145,31,0.0182476,10,0.000133314,-3.31234,-1.83728,-0.0321127,-0.613157,0.273665,
2,1,0,1,0,60191.5,0.275467,0.275122,0.488491,31,0.0183224,10,0.000134394,-3.31114,-1.25627,-0.0469645,-0.895615,0.275122,
2,1,0,1,0,60191.6,0.276965,0.276598,0.486989,31,0.0183973,10,0.0001347,-3.31248,-11.3372,-0.00520411,-0.0989526,0.276598,
2,1,0,1,0,60191.8,0.278463,0.278129,0.48761,31,0.018472,10,0.000135619,-3.31193,-1.05604,-0.0558693,-1.06027,0.278129,
2,1,0,1,0,60191.9,0.279962,0.279657,0.48667,31,0.0185468,10,0.000136101,-3.31277,-1.48579,-0.0397096,-0.752084,0.279657,
2,1,0,1,0,60192.1,0.281459,0.281149,0.484751,31,0.0186212,10,0.000136287,-3.31448,-3.69045,-0.0159872,-0.302925,0.281149,
2,1,0,1,0,60192.2,0.282957,0.282621,0.483782,31,0.0186955,10,0.000136727,-3.31535,-8.43604,-0.0069938,-0.131819,0.282621,
2,1,0,1,0,60192.4,0.284456,0.284131,0.484733,31,0.01877,10,0.000137728,-3.3145,-2.53432,-0.0232804,-0.439035,0.284131,
2,1,0,1,0,60192.5,0.285954,0.285597,0.48314,31,0.0188441,10,0.000137984,-3.31593,-1.25283,-0.0470935,-0.888107,0.285597,
2,1,0,1,0,60192.7,0.287452,0.287113,0.481188,31,0.0189181,10,0.000138155,-3.31769,-2.55024,-0.0231351,-0.436237,0.287113,
2,1,0,1,0,60192.8,0.28895,0.288608,0.479775,31,0.0189919,10,0.000138467,-3.31896,6.73158,0.00876465,0.164252,0.288608,
2,1,0,1,0,60193,0.290449,0.290149,0.48014,31,0.0190658,10,0.000139312,-3.31863,-5.5976,-0.0105402,-0.198036,0.290149,
2,1,0,1,0,60193.1,0.291947,0.291609,0.479092,31,0.0191395,10,0.000139707,-3.31958,-0.879811,-0.0670598,-1.25476,0.291609,
2,1,0,1,0,60193.3,0.293445,0.293102,0.477902,31,0.019213,10,0.000140074,-3.32066,-5.25707,-0.011223,-0.210007,0.293102,
2,1,0,1,0,60193.4,0.294943,0.294569,0.478719,31,0.0192864,10,0.000141016,-3.31992,-3.05385,-0.0193199,-0.360463,0.294569,
2,1,0,1,0,60193.6,0.296442,0.296081,0.479728,31,0.0193598,10,0.000142038,-3.319,-2.40738,-0.0245079,-0.456914,0.2960811,
2,1,0,1,0,60193.7,0.297939,0.297595,0.476186,31,0.0194331,10,0.000141711,-3.32222,-1.90417,-0.0309846,-0.574695,0.297595,
2,1,0,1,0,60193.9,0.299437,0.299104,0.474962,31,0.0195061,10,0.000142063,-3.32334,-0.00336666,-17.5248,-187.25,0.299104,
2,1,0,1,0,60194,0.299738,0.299384,0.288607,31,0.0195425,10,8.64043e-05,-3.53969,0.000670672,87.9714,395.138,0.299384,
2,1,0,1,0,60194.1,0.29824,0.297946,0.0337289,31,0.0195587,10,1.00494e-05,-4.472,0.0032239,18.3008,136.367,0.297946,
2,0,0,1,0,60194.3,0.296741,0.296446,-0.0218776,31,0.0195572,10,-6.48555e-06,-4.66,0.0393147,1.50071,31.4581,0.296446,
2,0,0,1,0,60194.4,0.295243,0.294908,-0.0485056,31,0.01955,10,-1.43047e-05,-4.31421,-0.00425471,-13.867,16.0978,0.294908,
2,0,0,1,0,60194.6,0.293745,0.293431,-0.0666826,31,0.0195394,10,-1.95667e-05,-4.17599,-0.0120826,-4.88305,11.5499,0.293431,
2,0,0,1,0,60194.7,0.292246,0.291903,-0.0825598,31,0.0195264,10,-2.40994e-05,-4.08323,-0.0197113,-2.99321,9.31508,0.291903,
2,0,0,1,0,60194.9,0.290748,0.290397,-0.0951538,31,0.0195112,10,-2.76324e-05,-4.02157,-0.0252476,-2.33686,8.35631,0.290397,
2,0,0,1,0,60195,0.28925,0.288874,-0.10528,31,0.0194942,10,-3.04127e-05,-3.97765,-0.0342332,-1.72347,7.10134,0.288874,
2,0,0,1,0,60195.2,0.287752,0.287428,-0.116016,31,0.0194757,10,-3.33463e-05,-3.93548,-0.0413268,-1.42764,6.42647,0.287428,
2,0,0,1,0,60195.3,0.286253,0.285916,-0.124687,31,0.0194558,10,-3.56501e-05,-3.90418,-0.0514929,-1.14579,5.58764,0.285916,
2,0,0,1,0,60195.5,0.284755,0.284452,-0.133156,31,0.0194345,10,-3.78765e-05,-3.87564,-0.0540293,-1.092,5.64286,0.284452,
2,0,0,1,0,60195.6,0.283258,0.282891,-0.142225,31,0.0194121,10,-4.02342e-05,-3.84702,-0.0626517,-0.941715,5.18971,0.282891,
2,0,0,1,0,60195.8,0.281759,0.28144,-0.148448,31,0.0193886,10,-4.17791e-05,-3.82843,-0.0810103,-0.728302,4.18162,0.28144,
2,0,0,1,0,60195.9,0.280261,0.279952,-0.15406,31,0.019364,10,-4.31295e-05,-3.81231,-0.0820325,-0.719227,4.35216,0.279952,
2,0,0,1,0,60196.1,0.278763,0.278462,-0.161584,31,0.0193386,10,-4.49949e-05,-3.7916,-0.0827136,-0.713304,4.49048,0.278462,
2,0,0,1,0,60196.2,0.277264,0.276939,-0.168775,31,0.0193121,10,-4.67403e-05,-3.77269,-0.097207,-0.606952,3.9685,0.276939,
2,0,0,1,0,60196.4,0.275766,0.275417,-0.173156,31,0.0192847,10,-4.76902e-05,-3.76156,-0.131116,-0.449984,3.03283,0.275417,
2,0,0,1,0,60196.5,0.274268,0.273895,-0.179119,31,0.0192564,10,-4.90597e-05,-3.74686,-0.113322,-0.520642,3.65389,0.273895,
2,0,0,1,0,60196.7,0.27277,0.272431,-0.184867,31,0.0192275,10,-5.03635e-05,-3.73314,-0.112196,-0.525863,3.80497,0.272431,
2,0,0,1,0,60196.8,0.271272,0.27092,-0.190311,31,0.0191976,10,-5.15592e-05,-3.72054,-0.126463,-0.466539,3.44801,0.27092,
2,0,0,1,0,60197,0.269773,0.269474,-0.196369,31,0.0191668,10,-5.29164e-05,-3.70693,-0.14858,-0.397091,3.00677,0.269474,
2,0,0,1,0,60197.1,0.268275,0.267917,-0.199907,31,0.0191354,10,-5.35586e-05,-3.69917,-0.152341,-0.387288,3.01172,0.267917,
2,0,0,1,0,60197.3,0.266778,0.266415,-0.204182,31,0.0191034,10,-5.43973e-05,-3.68998,-0.140406,-0.42021,3.34049,0.266415,
2,0,0,1,0,60197.4,0.265279,0.264922,-0.208847,31,0.0190705,10,-5.53282e-05,-3.68017,-0.118419,-0.498232,4.05686,0.264922,
2,0,0,1,0,60197.6,0.263781,0.263468,-0.213629,31,0.0190369,10,-5.62845e-05,-3.67034,-0.170956,-0.345119,2.88124,0.263468,
2,0,0,1,0,60197.7,0.262283,0.261968,-0.218412,31,0.0190027,10,-5.72169e-05,-3.66072,-0.179486,-0.328716,2.79467,0.261968,
2,0,0,1,0,60197.8,0.260784,0.260443,-0.220649,31,0.0189679,10,-5.74667e-05,-3.6563,-0.185799,-0.317547,2.75788,0.260443,
2,0,0,1,0,60198,0.259286,0.258916,-0.226427,31,0.0189324,10,-5.86256e-05,-3.64507,-0.160194,-0.368302,3.24794,0.2589165,
2,0,0,1,0,60198.1,0.257788,0.257471,-0.231724,31,0.0188962,10,-5.96622e-05,-3.63503,-0.188721,-0.312631,2.8127,0.257471,
2,0,0,1,0,60198.3,0.25629,0.255948,-0.235808,31,0.0188594,10,-6.03547e-05,-3.62744,-0.279023,-0.211452,1.93011,0.255948,
2,0,0,1,0,60198.4,0.254791,0.254448,-0.23856,31,0.0188221,10,-6.0701e-05,-3.6224,-0.221131,-0.26681,2.486,0.254448,
2,0,0,1,0,60198.6,0.253293,0.252923,-0.242045,31,0.0187844,10,-6.12186e-05,-3.6161,-0.205377,-0.287277,2.72339,0.252923,
2,0,0,1,0,60198.7,0.251796,0.251453,-0.246077,31,0.0187459,10,-6.18767e-05,-3.60893,-0.197558,-0.298646,2.86992,0.251453,
2,0,0,1,0,60198.9,0.250297,0.249944,-0.24963,31,0.0187069,10,-6.23936e-05,-3.6027,-0.297543,-0.198291,1.93157,0.2499444,
2,0,0,1,0,60199,0.248799,0.248469,-0.253087,31,0.0186674,10,-6.28844e-05,-3.59673,-0.262666,-0.22462,2.21921,0.248469,
2,0,0,1,0,60199.2,0.247301,0.246983,-0.255602,31,0.0186275,10,-6.31292e-05,-3.59244,-0.215744,-0.273472,2.73925,0.246983,
2,0,0,1,0,60199.3,0.245802,0.245471,-0.260136,31,0.018587,10,-6.38558e-05,-3.5848,-0.238273,-0.247615,2.51048,0.245471,
2,0,0,1,0,60199.5,0.244304,0.243966,-0.264312,31,0.0185458,10,-6.4483e-05,-3.57788,-0.348962,-0.169073,1.73157,0.243966,
2,0,0,1,0,60199.6,0.242806,0.242495,-0.266726,31,0.0185042,10,-6.46798e-05,-3.57393,-0.343916,-0.171554,1.79427,0.242495,
2,0,0,1,0,60199.8,0.241308,0.240951,-0.268841,31,0.0184624,10,-6.47774e-05,-3.57051,-0.317677,-0.185723,1.95283,0.240951,
2,0,0,1,0,60199.9,0.23981,0.239461,-0.273013,31,0.0184199,10,-6.5376e-05,-3.56382,-0.273922,-0.21539,2.29363,0.239461,
2,0,0,1,0,60200.1,0.238311,0.238001,-0.275001,31,0.0183769,10,-6.54505e-05,-3.56067,-0.321256,-0.183654,1.98109,0.238001,
2,0,0,1,0,60200.2,0.236814,0.236478,-0.279558,31,0.0183335,10,-6.61092e-05,-3.55353,-0.28248,-0.208865,2.2729,0.236478,
2,0,0,1,0,60200.4,0.235316,0.234984,-0.28004,31,0.0182897,10,-6.58051e-05,-3.55278,-0.28305,-0.208444,2.29048,0.234984,
2,0,0,1,0,60200.5,0.233817,0.233469,-0.284044,31,0.0182455,10,-6.63153e-05,-3.54662,-0.254974,-0.231396,2.57019,0.233469,
2,0,0,1,0,60200.7,0.232319,0.231957,-0.287989,31,0.0182007,10,-6.6801e-05,-3.54062,-0.312288,-0.188928,2.11707,0.231957,
2,0,0,1,0,60200.8,0.230821,0.230467,-0.291747,31,0.0181554,10,-6.72379e-05,-3.53499,-0.403245,-0.146313,1.65732,0.230467,
2,0,0,1,0,60201,0.229322,0.228981,-0.294217,31,0.0181098,10,-6.73702e-05,-3.53133,-0.446329,-0.13219,1.51296,0.2289812,
2,0,0,1,0,60201.1,0.227824,0.227506,-0.295795,31,0.0180638,10,-6.72953e-05,-3.52901,-0.367858,-0.160388,1.85966,0.227506,
2,0,0,1,0,60201.3,0.226326,0.225993,-0.298846,31,0.0180173,10,-6.75371e-05,-3.52455,-0.315863,-0.18679,2.18485,0.225993,
2,0,0,1,0,60201.4,0.224828,0.224488,-0.302206,31,0.0179703,10,-6.78416e-05,-3.5197,-0.413147,-0.142806,1.67954,0.224488,
2,0,0,1,0,60201.6,0.223329,0.222999,-0.305687,31,0.0179229,10,-6.8168e-05,-3.51472,-0.497353,-0.118628,1.41165,0.222999,
2,0,0,1,0,60201.7,0.221831,0.221481,-0.308805,31,0.0178752,10,-6.83944e-05,-3.51032,-0.344046,-0.171489,2.06551,0.221481,
2,0,0,1,0,60201.9,0.220334,0.219956,-0.311971,31,0.0178269,10,-6.86198e-05,-3.50589,-0.304294,-0.193891,2.34775,0.219956,
2,0,0,1,0,60202,0.218835,0.218458,-0.314314,31,0.017778,10,-6.86643e-05,-3.50264,-0.318205,-0.185415,2.27322,0.218458,
2,0,0,1,0,60202.2,0.217337,0.216964,-0.317282,31,0.0177287,10,-6.88387e-05,-3.49855,-0.474031,-0.124465,1.53958,0.2169636,
2,0,0,1,0,60202.3,0.215839,0.215438,-0.318857,31,0.0176792,10,-6.86939e-05,-3.4964,-0.404667,-0.145799,1.81625,0.215438,
2,0,0,1,0,60202.5,0.21434,0.213992,-0.321985,31,0.0176292,10,-6.89022e-05,-3.49216,-0.312785,-0.188628,2.36728,0.213992,
2,0,0,1,0,60202.6,0.212842,0.212499,-0.325695,31,0.0175787,10,-6.92099e-05,-3.48719,-0.38396,-0.153662,1.95225,0.212499,
2,0,0,1,0,60202.8,0.211344,0.211002,-0.32831,31,0.0175278,10,-6.9274e-05,-3.48372,-0.400582,-0.147286,1.88573,0.211002,
2,0,0,1,0,60202.9,0.209846,0.209461,-0.328981,31,0.0174765,10,-6.89088e-05,-3.48283,-0.365905,-0.161244,2.08172,0.209461,
2,0,0,1,0,60203.1,0.208348,0.208024,-0.335948,31,0.0174248,10,-6.98854e-05,-3.47373,-0.274077,-0.215268,2.81989,0.2080244,
2,0,0,1,0,60203.2,0.206849,0.206522,-0.341178,31,0.0173724,10,-7.04608e-05,-3.46702,-0.355721,-0.16586,2.17978,0.206522,
2,0,0,1,0,60203.4,0.205352,0.204965,-0.340063,31,0.0173194,10,-6.97011e-05,-3.46844,-0.481279,-0.12259,1.62573,0.204965,
2,0,0,1,0,60203.5,0.203854,0.203491,-0.342398,31,0.0172663,10,-6.96749e-05,-3.46547,-0.435533,-0.135466,1.82154,0.203491,
2,0,0,1,0,60203.7,0.202355,0.202032,-0.345306,31,0.0172128,10,-6.97628e-05,-3.4618,-0.370708,-0.159155,2.15883,0.202032,
2,0,0,1,0,60203.8,0.200857,0.200479,-0.349016,31,0.0171587,10,-6.99702e-05,-3.45715,-0.341819,-0.172606,2.35244,0.200479,
2,0,0,1,0,60204,0.199359,0.199001,-0.353869,31,0.0171042,10,-7.04203e-05,-3.45116,-0.48731,-0.121073,1.66373,0.199001,
2,0,0,1,0,60204.1,0.19786,0.197479,-0.355627,31,0.0170492,10,-7.02286e-05,-3.44901,-0.474145,-0.124435,1.72421,0.197479,
2,0,0,1,0,60204.3,0.196362,0.196028,-0.358601,31,0.0169939,10,-7.02958e-05,-3.44539,-0.522965,-0.112818,1.57976,0.196028,
2,0,0,1,0,60204.4,0.194864,0.19454,-0.362181,31,0.016938,10,-7.04588e-05,-3.44107,-0.324761,-0.181672,2.55917,0.19454,
2,0,0,1,0,60204.6,0.193366,0.193009,-0.365491,31,0.0168815,10,-7.05431e-05,-3.43712,-0.488324,-0.120821,1.7238,0.193009,
2,0,0,1,0,60204.7,0.191867,0.191475,-0.367273,31,0.0168246,10,-7.03235e-05,-3.43501,-0.563907,-0.104627,1.5065,0.191475,
2,0,0,1,0,60204.9,0.190369,0.190033,-0.369638,31,0.0167674,10,-7.02432e-05,-3.43222,-0.415862,-0.141874,2.05952,0.190033,
2,0,0,1,0,60205,0.188872,0.188494,-0.373886,31,0.0167097,10,-7.04754e-05,-3.42726,-0.322427,-0.182987,2.67081,0.1884944,
2,0,0,1,0,60205.2,0.187373,0.187029,-0.377175,31,0.0166514,10,-7.05428e-05,-3.42346,-0.328811,-0.179434,2.64401,0.187029,
2,0,0,1,0,60205.3,0.185875,0.185548,-0.38047,31,0.0165927,10,-7.05955e-05,-3.41968,-0.379775,-0.155355,2.3042,0.185548,
2,0,0,1,0,60205.5,0.184377,0.184036,-0.382605,31,0.0165335,10,-7.0413e-05,-3.41725,-0.33513,-0.176051,2.6365,0.184036,
2,0,0,1,0,60205.6,0.182878,0.182538,-0.387178,31,0.0164738,10,-7.06745e-05,-3.41209,-0.335209,-0.17601,2.66502,0.182538,
2,0,0,1,0,60205.8,0.18138,0.18107,-0.392107,31,0.0164135,10,-7.09988e-05,-3.4066,-0.36521,-0.161551,2.47369,0.18107,
2,0,0,1,0,60205.9,0.179882,0.179514,-0.396076,31,0.0163525,10,-7.11014e-05,-3.40222,-0.484046,-0.121889,1.88033,0.179514,
2,0,0,1,0,60206.1,0.178384,0.178034,-0.399151,31,0.0162911,10,-7.10624e-05,-3.39886,-0.454417,-0.129837,2.02646,0.178034,
2,0,0,1,0,60206.2,0.176886,0.176554,-0.403317,31,0.0162293,10,-7.12071e-05,-3.39435,-0.405821,-0.145384,2.29012,0.176554,
2,0,0,1,0,60206.4,0.175387,0.175028,-0.408422,31,0.0161666,10,-7.14854e-05,-3.38889,-0.293805,-0.200814,3.18023,0.175028,
2,0,0,1,0,60206.5,0.17389,0.173544,-0.412755,31,0.0161033,10,-7.1631e-05,-3.38431,-0.326932,-0.180465,2.89866,0.173544,
2,0,0,1,0,60206.7,0.172392,0.172031,-0.416308,31,0.0160394,10,-7.16178e-05,-3.38059,-0.344479,-0.171273,2.77959,0.172031,
2,0,0,1,0,60206.8,0.170893,0.170519,-0.419583,31,0.0159749,10,-7.15468e-05,-3.37718,-0.289629,-0.203709,3.34318,0.170519,
2,0,0,1,0,60207,0.169395,0.169077,-0.42546,31,0.0159096,10,-7.19355e-05,-3.37114,-0.258557,-0.22819,3.78338,0.169077,
2,0,0,1,0,60207.1,0.167897,0.167548,-0.430072,31,0.0158434,10,-7.20575e-05,-3.36646,-0.29277,-0.201524,3.39095,0.167548,
2,0,0,1,0,60207.3,0.166398,0.16606,-0.435934,31,0.0157766,10,-7.23912e-05,-3.36058,-0.295062,-0.199958,3.40585,0.16606,
2,0,0,1,0,60207.4,0.1649,0.164541,-0.439371,31,0.0157089,10,-7.22947e-05,-3.35717,-0.268431,-0.219796,3.79331,0.164541,
2,0,0,1,0,60207.6,0.163402,0.163045,-0.447672,31,0.0156404,10,-7.29907e-05,-3.34904,-0.235499,-0.250531,4.38383,0.163045,
2,0,0,1,0,60207.7,0.161904,0.161521,-0.456052,31,0.0155708,10,-7.36621e-05,-3.34099,-0.226329,-0.260682,4.63071,0.161521,
2,0,0,1,0,60207.9,0.160405,0.160064,-0.462181,31,0.0155001,10,-7.39785e-05,-3.33519,-0.231276,-0.255106,4.599,0.160064,
2,0,0,1,0,60208,0.158907,0.158579,-0.469277,31,0.0154283,10,-7.44172e-05,-3.32857,-0.201225,-0.293204,5.37771,0.158579,
2,0,0,1,0,60208.2,0.15741,0.157124,-0.477043,31,0.0153555,10,-7.4955e-05,-3.32144,-0.179224,-0.329196,6.15062,0.157124,
2,0,0,1,0,60208.3,0.155911,0.155584,-0.486961,31,0.0152813,10,-7.57634e-05,-3.31251,-0.162321,-0.363477,6.93212,0.155584,
2,0,0,1,0,60208.5,0.154413,0.154045,-0.497662,31,0.0152055,10,-7.66626e-05,-3.30307,-0.17828,-0.330939,6.40708,0.154045,
2,0,0,1,0,60208.6,0.152915,0.152562,-0.508259,31,0.0151282,10,-7.75411e-05,-3.29391,-0.155217,-0.380114,7.54599,0.152562,
2,0,0,1,0,60208.8,0.151417,0.15104,-0.518165,31,0.0150495,10,-7.82638e-05,-3.28553,-0.156433,-0.377159,7.64653,0.15104,
2,0,0,1,0,60208.9,0.149918,0.149564,-0.532075,31,0.0149689,10,-7.95794e-05,-3.27403,-0.131368,-0.44912,9.33457,0.149564,
2,0,0,1,0,60209.1,0.14842,0.148075,-0.547072,31,0.0148862,10,-8.10079e-05,-3.26196,-0.124984,-0.472059,10.0718,0.148075,
2,0,0,1,0,60209.2,0.146922,0.146566,-0.561989,31,0.0148012,10,-8.23688e-05,-3.25027,-0.118367,-0.498452,10.9487,0.146566,
2,0,0,1,0,60209.4,0.145424,0.145048,-0.578871,31,0.0147137,10,-8.3964e-05,-3.23742,-0.10394,-0.567636,12.8883,0.145048,
2,0,0,1,0,60209.5,0.143925,0.14356,-0.601565,31,0.0146232,10,-8.63603e-05,-3.22072,-0.0953712,-0.618635,14.5216,0.14356,
2,0,0,1,0,60209.7,0.142428,0.142045,-0.622909,31,0.0145295,10,-8.84813e-05,-3.20558,-0.0919099,-0.641933,15.6276,0.142045,
2,0,0,1,0,60209.8,0.14093,0.140575,-0.646247,31,0.0144324,10,-9.08461e-05,-3.1896,-0.0949774,-0.6212,15.7215,0.140575,
2,0,0,1,0,60210,0.139431,0.139108,-0.668802,31,0.0143316,10,-9.30353e-05,-3.1747,-0.0844017,-0.699038,18.3492,0.139108,
2,0,0,1,0,60210.1,0.137933,0.137577,-0.698813,31,0.014227,10,-9.61408e-05,-3.15564,-0.0834176,-0.707285,19.3174,0.137577,
2,0,0,1,0,60210.3,0.136435,0.136058,-0.728418,31,0.014118,10,-9.91069e-05,-3.13762,-0.0836463,-0.705351,20.0402,0.136058,
2,0,0,1,0,60210.4,0.134936,0.134601,-0.758974,31,0.0140045,10,-0.000102158,-3.11977,-0.0905128,-0.651842,19.2424,0.134601,
2,0,0,1,0,60210.6,0.133438,0.133106,-0.787946,31,0.0138865,10,-0.00010488,-3.1035,-0.0894026,-0.659936,20.3278,0.133106,
2,0,0,1,0,60210.7,0.13194,0.131589,-0.819962,31,0.0137642,10,-0.000107898,-3.08621,-0.0896915,-0.65781,21.0791,0.131589,
2,0,0,1,0,60210.9,0.130442,0.130089,-0.850995,31,0.013637,10,-0.000110705,-3.07007,-0.0946887,-0.623094,20.6686,0.130089,
2,0,0,1,0,60211,0.128943,0.128607,-0.880985,31,0.013505,10,-0.000113301,-3.05503,-0.101838,-0.579349,19.8686,0.128607,
2,0,0,1,0,60211.2,0.127445,0.127095,-0.911463,31,0.0133687,10,-0.000115843,-3.04026,-0.109401,-0.539302,19.1163,0.127095,
2,0,0,1,0,60211.3,0.125948,0.125595,-0.936713,31,0.0132283,10,-0.000117647,-3.02839,-0.117189,-0.503461,18.385,0.125595,
2,0,0,1,0,60211.5,0.124449,0.12408,-0.965761,31,0.0130834,10,-0.000119832,-3.01513,-0.122083,-0.483276,18.1735,0.1240805,
2,0,0,1,0,60211.6,0.122951,0.122664,-0.992088,31,0.0129347,10,-0.000121693,-3.00345,-0.135793,-0.434484,16.7712,0.1226638,
2,0,0,1,0,60211.8,0.121453,0.121094,-1.01565,31,0.0127822,10,-0.000122989,-2.99326,-0.159835,-0.36913,14.5833,0.121094,
2,0,0,1,0,60211.9,0.119955,0.119648,-1.03216,31,0.0126266,10,-0.000123496,-2.98625,-0.192439,-0.306591,12.3685,0.119648,
2,0,0,1,0,60212.1,0.118456,0.11809,-1.05419,31,0.012468,10,-0.000124489,-2.97708,-0.189376,-0.31155,12.7831,0.11809,
2,0,0,1,0,60212.2,0.116958,0.11661,-1.07205,31,0.0123066,10,-0.000125012,-2.96978,-0.246736,-0.239122,9.9747,0.11661,
2,0,0,1,0,60212.4,0.11546,0.115103,-1.08516,31,0.0121429,10,-0.000124905,-2.96451,-0.335803,-0.175698,7.4132,0.1151031,
2,0,0,1,0,60212.5,0.113962,0.113584,-1.09265,31,0.0119775,10,-0.000124107,-2.96152,-0.420987,-0.140147,5.97657,0.113584,
2,0,0,1,0,60212.7,0.112463,0.112121,-1.10335,31,0.0118108,10,-0.000123708,-2.95729,-0.578043,-0.102069,4.38786,0.1121208,
2,0,0,1,0,60212.8,0.110966,0.110644,-1.10909,31,0.011643,10,-0.000122714,-2.95503,-0.784533,-0.075204,3.24734,0.110644,
2,0,0,1,0,60213,0.109468,0.109119,-1.11267,31,0.0114745,10,-0.000121414,-2.95363,-2.08188,-0.0283398,1.22714,0.109119,
2,0,0,1,0,60213.1,0.107969,0.107599,-1.11253,31,0.0113056,10,-0.000119707,-2.95369,-169.942,-0.000347177,0.01508,0.1075986,
2,0,0,1,0,60213.3,0.106471,0.106141,-1.1125,31,0.0111371,10,-0.000118081,-2.9537,7.67353,0.00768877,-0.334296,0.106141,
2,0,0,1,0,60213.4,0.104973,0.10464,-1.11113,31,0.0109684,10,-0.000116268,-2.95424,2.43644,0.0242157,-1.04829,0.10464,
2,0,0,1,0,60213.6,0.103474,0.103148,-1.10977,31,0.0107999,10,-0.00011447,-2.95477,1.02235,0.0577103,-2.49448,0.103148,
2,0,0,1,0,60213.7,0.101976,0.101614,-1.10604,31,0.010632,10,-0.000112389,-2.95623,0.884909,0.0666735,-2.87131,0.101614,
2,0,0,1,0,60213.9,0.100478,0.100146,-1.09948,31,0.010465,10,-0.000110109,-2.95881,0.76591,0.0770325,-3.30721,0.100146,
2,0,0,1,0,60214,0.0989798,0.0986191,-1.09516,31,0.0102985,10,-0.000108003,-2.96052,0.963488,0.0612358,-2.61575,0.0986191,
2,0,0,1,0,60214.2,0.0974808,0.0971703,-1.09116,31,0.0101326,10,-0.000106028,-2.96211,0.829036,0.071167,-3.02962,0.0971703,
2,0,0,1,0,60214.3,0.0959833,0.0956075,-1.08573,31,0.00996745,10,-0.000103804,-2.96428,0.680544,0.0866953,-3.6702,0.0956075,
2,0,0,1,0,60214.5,0.0944857,0.0941523,-1.07859,31,0.00980314,10,-0.000101552,-2.96714,0.904903,0.0652004,-2.7524,0.0941523,
2,0,0,1,0,60214.6,0.0929871,0.092666,-1.07444,31,0.0096395,10,-9.9564e-05,-2.96882,0.952683,0.0619303,-2.6001,0.09266597,
2,0,0,1,0,60214.8,0.0914889,0.0911231,-1.07249,31,0.00947655,10,-9.77286e-05,-2.96961,0.805518,0.0732448,-3.06241,0.0911231,
2,0,0,1,0,60214.9,0.0899907,0.0896862,-1.06729,31,0.00931421,10,-9.57215e-05,-2.97172,0.640489,0.092117,-3.82749,0.0896862,
2,0,0,1,0,60215.1,0.0884925,0.0881444,-1.05965,31,0.00915275,10,-9.34024e-05,-2.97484,0.656686,0.0898451,-3.72128,0.0881444,
2,0,0,1,0,60215.2,0.0869943,0.0866513,-1.05647,31,0.00899218,10,-9.15447e-05,-2.97614,0.843605,0.069938,-2.88465,0.08665134,
2,0,0,1,0,60215.4,0.0854961,0.0851519,-1.05174,31,0.00883224,10,-8.95577e-05,-2.97809,0.650421,0.0907105,-3.72283,0.0851519,
2,0,0,1,0,60215.5,0.083998,0.0836133,-1.04769,31,0.00867291,10,-8.76011e-05,-2.97977,0.572224,0.103106,-4.21131,0.0836133,
2,0,0,1,0,60215.7,0.0824998,0.082169,-1.04203,31,0.00851432,10,-8.56229e-05,-2.98212,0.674842,0.0874279,-3.55469,0.082169,
2,0,0,1,0,60215.8,0.0810011,0.0806522,-1.03632,31,0.00835663,10,-8.35815e-05,-2.98451,0.737392,0.0800117,-3.24298,0.0806522,
2,0,0,1,0,60216,0.0795036,0.0791352,-1.03256,31,0.00819972,10,-8.17116e-05,-2.98609,0.780475,0.075595,-3.04288,0.0791352,
2,0,0,1,0,60216.1,0.0780061,0.0776663,-1.02733,31,0.00804331,10,-7.97889e-05,-2.98829,0.727714,0.0810758,-3.24649,0.0776663,
2,0,0,1,0,60216.3,0.076507,0.0761586,-1.02151,31,0.00788776,10,-7.77968e-05,-2.99076,0.575872,0.102453,-4.08375,0.0761586,
2,0,0,1,0,60216.4,0.0750088,0.0746613,-1.01375,31,0.0077333,10,-7.5688e-05,-2.99407,0.675981,0.0872805,-3.46066,0.0746613,
2,0,0,1,0,60216.6,0.0735106,0.0731725,-1.01058,31,0.00757961,10,-7.39469e-05,-2.99543,0.777423,0.0758918,-2.99092,0.07317251,
2,0,0,1,0,60216.7,0.0720124,0.0716614,-1.00477,31,0.00742653,10,-7.20033e-05,-2.99793,0.671167,0.0879066,-3.45014,0.0716614,
2,0,0,1,0,60216.9,0.0705142,0.0701461,-0.999373,31,0.00727434,10,-7.01021e-05,-3.00027,0.531379,0.111032,-4.32927,0.0701461,
2,0,0,1,0,60217,0.069016,0.0686658,-0.990545,31,0.00712311,10,-6.80166e-05,-3.00413,0.591908,0.0996776,-3.86454,0.0686658,
2,0,0,1,0,60217.2,0.0675179,0.0671791,-0.987663,31,0.00697288,10,-6.63503e-05,-3.00539,0.744294,0.0792697,-3.05939,0.0671791,
2,0,0,1,0,60217.3,0.0660188,0.0656716,-0.985668,31,0.00682315,10,-6.47304e-05,-3.00627,0.768497,0.0767732,-2.94366,0.0656716,
2,0,0,1,0,60217.5,0.0645213,0.0641773,-0.977978,31,0.00667413,10,-6.2764e-05,-3.00967,0.539909,0.109278,-4.1616,0.0641773,
2,0,0,1,0,60217.6,0.0630237,0.0627087,-0.970432,31,0.00652609,10,-6.08546e-05,-3.01304,0.541297,0.108998,-4.1324,0.0627087,
2,0,0,1,0,60217.8,0.0615251,0.0612132,-0.964159,31,0.00637915,10,-5.90193e-05,-3.01585,0.531615,0.110983,-4.18056,0.06121324,
2,0,0,1,0,60217.9,0.0600269,0.0596597,-0.959436,31,0.006233,10,-5.72397e-05,-3.01798,0.585692,0.100736,-3.77281,0.0596597,
2,0,0,1,0,60218.1,0.0585287,0.0581911,-0.952319,31,0.0060877,10,-5.54165e-05,-3.02122,0.469091,0.125775,-4.67579,0.0581911,
2,0,0,1,0,60218.2,0.0570305,0.0566503,-0.948935,31,0.00594321,10,-5.37575e-05,-3.02276,0.553381,0.106617,-3.94651,0.0566503,
2,0,0,1,0,60218.4,0.0555323,0.0551954,-0.940688,31,0.00579982,10,-5.19217e-05,-3.02655,0.588337,0.100283,-3.68658,0.05519544,
2,0,0,1,0,60218.5,0.0540342,0.0536759,-0.936957,31,0.00565716,10,-5.0292e-05,-3.02828,0.601778,0.0980428,-3.57698,0.0536759,
2,0,0,1,0,60218.7,0.052536,0.0521902,-0.931038,31,0.00551525,10,-4.85911e-05,-3.03103,0.539088,0.109444,-3.96791,0.05219024,
2,0,0,1,0,60218.8,0.0510378,0.0507216,-0.924878,31,0.00537432,10,-4.69113e-05,-3.03392,0.479291,0.123098,-4.43881,0.0507216,
2,0,0,1,0,60219,0.0495391,0.0491964,-0.916014,31,0.00523447,10,-4.50646e-05,-3.0381,0.478253,0.123366,-4.41857,0.0491964,
2,0,0,1,0,60219.1,0.0480416,0.0476772,-0.911057,31,0.00509561,10,-4.34366e-05,-3.04045,0.657123,0.0897853,-3.1919,0.0476772,
2,0,0,1,0,60219.3,0.0465441,0.0462125,-0.903722,31,0.00495755,10,-4.17633e-05,-3.04396,0.589011,0.100168,-3.53628,0.0462125,
2,0,0,1,0,60219.4,0.045045,0.0446794,-0.898704,31,0.00482031,10,-4.01535e-05,-3.04638,0.462472,0.127575,-4.47491,0.0446794,
2,0,0,1,0,60219.6,0.0435468,0.043181,-0.890032,31,0.00468423,10,-3.84325e-05,-3.05059,0.495375,0.119102,-4.14884,0.043181,
2,0,0,1,0,60219.7,0.0420486,0.0417039,-0.884782,31,0.00454924,10,-3.68988e-05,-3.05316,0.562191,0.104947,-3.62968,0.0417039,
2,0,0,1,0,60219.9,0.0405504,0.0401875,-0.881457,31,0.00441491,10,-3.54236e-05,-3.0548,0.547197,0.107822,-3.69683,0.0401875,
2,0,0,1,0,60220,0.0390523,0.0386987,-0.874081,31,0.00428146,10,-3.38258e-05,-3.05845,0.401141,0.147081,-5.00922,0.0386987,
2,0,0,1,0,60220.2,0.0375541,0.0371791,-0.867394,31,0.00414903,10,-3.22489e-05,-3.06178,0.461501,0.127844,-4.33033,0.0371791,
2,0,0,1,0,60220.3,0.0360559,0.0357264,-0.860977,31,0.00401785,10,-3.07596e-05,-3.06501,0.465875,0.126643,-4.26001,0.0357264,
2,0,0,1,0,60220.5,0.0345568,0.0342015,-0.855054,31,0.0038873,10,-2.92442e-05,-3.06801,0.511852,0.115268,-3.84399,0.0342015,
2,0,0,1,0,60220.6,0.0330593,0.0326815,-0.848103,31,0.00375778,10,-2.77173e-05,-3.07155,0.417704,0.141248,-4.67013,0.0326815,
2,0,0,1,0,60220.8,0.0315618,0.0311947,-0.842419,31,0.00362918,10,-2.6279e-05,-3.07447,0.44824,0.131626,-4.32316,0.0311947,
2,0,0,1,0,60220.9,0.0300631,0.029699,-0.833033,31,0.00350176,10,-2.47403e-05,-3.07934,0.431306,0.136794,-4.45884,0.029699,
2,0,0,1,0,60221.1,0.0285649,0.0282441,-0.829597,31,0.00337515,10,-2.34313e-05,-3.08113,0.53382,0.110524,-3.57111,0.0282441,
2,0,0,1,0,60221.2,0.0270667,0.0267373,-0.821358,31,0.00324936,10,-2.19609e-05,-3.08547,0.464607,0.126989,-4.07923,0.0267373,
2,0,0,1,0,60221.4,0.0255685,0.0252305,-0.816959,31,0.00312449,10,-2.06123e-05,-3.0878,0.429691,0.137308,-4.37657,0.0252305,
2,0,0,1,0,60221.5,0.0240704,0.0237141,-0.808584,31,0.00300068,10,-1.91748e-05,-3.09227,0.475085,0.124188,-3.93407,0.02371409,
2,0,0,1,0,60221.7,0.0225722,0.0222666,-0.804297,31,0.00287768,10,-1.7909e-05,-3.09458,0.637995,0.0924772,-2.90101,0.0222666,
2,0,0,1,0,60221.8,0.021074,0.0207471,-0.799933,31,0.00275541,10,-1.65963e-05,-3.09695,0.708815,0.0832375,-2.60106,0.0207471,
2,0,0,1,0,60222,0.0195758,0.0192127,-0.796367,31,0.00263391,10,-1.53003e-05,-3.09889,0.532799,0.110736,-3.43389,0.0192127,
2,0,0,1,0,60222.1,0.0180772,0.0177519,-0.788987,31,0.00251307,10,-1.40061e-05,-3.10293,0.630183,0.0936236,-2.88764,0.0177519,
2,0,0,1,0,60222.3,0.0165796,0.0162365,-0.78699,31,0.00239313,10,-1.2778e-05,-3.10403,0.973422,0.0606109,-1.86387,0.0162365,
2,0,0,1,0,60222.4,0.0150821,0.0147154,-0.782776,31,0.00227358,10,-1.15189e-05,-3.10636,1.02846,0.0573676,-1.75202,0.0147154,
2,0,0,1,0,60222.6,0.013583,0.0132521,-0.77956,31,0.00215433,10,-1.03308e-05,-3.10815,0.708783,0.0832413,-2.53151,0.01325212,
2,0,0,1,0,60222.7,0.0120848,0.011723,-0.775879,31,0.00203574,10,-9.09564e-06,-3.11021,0.922396,0.0639639,-1.93988,0.011723,
2,0,0,1,0,60222.9,0.0105866,0.0102384,-0.77403,31,0.00191776,10,-7.92486e-06,-3.11124,1.03937,0.0567649,-1.71742,0.0102384,
2,0,0,1,0,60223,0.00908846,0.00872737,-0.770048,31,0.00180005,10,-6.72049e-06,-3.11348,1.68006,0.0351177,-1.05711,0.00872737,
2,0,0,1,0,60223.2,0.00759027,0.00722053,-0.770782,31,0.00168257,10,-5.56545e-06,-3.11307,1.60743,0.0367046,-1.10415,0.00722053,
2,0,0,1,0,60223.3,0.00609207,0.0057858,-0.770072,31,0.00156532,10,-4.45548e-06,-3.11347,2.01038,0.0293477,-0.880857,0.0057858,
2,0,0,1,0,60223.5,0.00459389,0.004227,-0.768293,31,0.00144843,10,-3.24758e-06,-3.11447,3.94446,0.0149577,-0.448472,0.004227,
2,0,0,1,0,60223.6,0.0030948,0.00273376,-0.76765,31,0.00133138,10,-2.09857e-06,-3.11484,-1.13069,-0.0521803,1.56661,0.00273376,
2,0,0,1,0,60223.8,0.00159728,0.00123195,-0.77493,31,0.00121331,10,-9.54679e-07,-3.11074, , , ,0.00123195,
2,0,0,1,0,60223.9,0.000199195,-0.00022607,-0.76727,31,0.00110346,10,1.73456e-07,-3.11505, , , ,-0.00022607,