File: Figure_codes/Fig_3-5/rawdata_trumpetplot_data/after 10th/20221101_1-115_003_TrumpetPlot_ParaChange_from10_every3_12_CV_C01_10.csv
mode,ox/red,error,control changes,counter inc.,time/s,control/V,Ewe/V,<I>/mA,cycle number,(Q-Qo)/C,I Range,P/W,log(|I|),Tafel slope mV/dec,alpha_eff,dI/d(E-IR),E-IR/V,
2,1,0,1,0,20897.8,2.44065e-05,-0.000325324,17.0366,11,0.0000000E+000,10,-5.5424e-06,-1.76862, , , ,-0.000325324,
2,1,0,1,0,20897.8,0.00200257,0.0016025,18.0196,11,5.47537e-05,10,2.88763e-05,-1.74426, , , ,0.0016025,
2,1,0,1,0,20897.8,0.004408,0.00404567,18.8709,11,0.000128708,10,7.63454e-05,-1.72421, , , ,0.00404567,
2,1,0,1,0,20897.8,0.0068051,0.00646658,19.5575,11,0.000205681,10,0.00012647,-1.70869,0.159169,0.370676,279.716,0.00646658,
2,1,0,1,0,20897.8,0.00920221,0.00888537,20.1633,11,0.000285201,10,0.000179158,-1.69544,0.186574,0.316229,247.243,0.00888537,
2,1,0,1,0,20897.8,0.0115993,0.0112363,20.7143,11,0.000367035,10,0.000232752,-1.68373,0.208311,0.283231,227.994,0.0112363,
2,1,0,1,0,20897.8,0.0140075,0.0136402,21.2431,11,0.00045102,10,0.00028976,-1.67278,0.232843,0.253389,209.146,0.01364023,
2,1,0,1,0,20897.9,0.0164046,0.0160092,21.7331,11,0.000537034,10,0.00034793,-1.66288,0.25528,0.231118,195.192,0.01600918,
2,1,0,1,0,20897.9,0.0188017,0.0184661,22.1671,11,0.000624894,10,0.000409341,-1.65429,0.279978,0.210731,181.791,0.0184661,
2,1,0,1,0,20897.9,0.0212099,0.0208637,22.5935,11,0.000714447,10,0.000471384,-1.64602,0.30645,0.192527,169.364,0.0208637,
2,1,0,1,0,20897.9,0.023607,0.0232443,22.989,11,0.000805672,10,0.000534364,-1.63848,0.322507,0.182942,163.82,0.0232443,
2,1,0,1,0,20897.9,0.0260041,0.025661,23.3678,11,0.00089842,10,0.000599641,-1.63138,0.344143,0.17144,156.142,0.025661,
2,1,0,1,0,20897.9,0.0284012,0.0280745,23.7411,11,0.000992683,10,0.00066652,-1.6245,0.36313,0.162476,150.29,0.0280745,
2,1,0,1,0,20897.9,0.0308067,0.0304901,24.0966,11,0.00108842,10,0.000734706,-1.61804,0.383628,0.153795,144.372,0.0304901,
2,1,0,1,0,20897.9,0.0332038,0.0328219,24.4284,11,0.0011855,10,0.000801788,-1.6121,0.39818,0.148174,141.153,0.0328219,
2,1,0,1,0,20897.9,0.0356009,0.0352513,24.7524,11,0.00128391,10,0.000872554,-1.60638,0.417578,0.141291,136.447,0.0352513,
2,1,0,1,0,20897.9,0.0380091,0.0376277,25.0896,11,0.00138363,10,0.000944063,-1.60051,0.430422,0.137075,134.122,0.0376277,
2,1,0,1,0,20897.9,0.0404062,0.0400783,25.4048,11,0.00148465,10,0.00101818,-1.59508,0.44402,0.132877,131.619,0.0400783,
2,1,0,1,0,20897.9,0.0428033,0.0424928,25.7255,11,0.00158696,10,0.00109315,-1.58964,0.457011,0.1291,129.522,0.0424928,
2,1,0,1,0,20897.9,0.0452032,0.0448819,26.02,11,0.00169047,10,0.00116783,-1.58469,0.463178,0.127381,129.353,0.0448819,
2,1,0,1,0,20897.9,0.0476058,0.0472424,26.3349,11,0.00179523,10,0.00124412,-1.57947,0.470982,0.12527,128.757,0.0472424,
2,1,0,1,0,20897.9,0.0500029,0.0496675,26.6452,11,0.00190121,10,0.0013234,-1.57438,0.465027,0.126874,131.936,0.0496675,
2,1,0,1,0,20897.9,0.0524,0.0520587,26.9572,11,0.00200844,10,0.00140336,-1.56933,0.478384,0.123332,129.718,0.0520587,
2,1,0,1,0,20897.9,0.0548082,0.0544415,27.2812,11,0.00211693,10,0.00148523,-1.56414,0.48518,0.121604,129.375,0.0544415,
2,1,0,1,0,20897.9,0.0572053,0.0568009,27.5748,11,0.00222668,10,0.00156627,-1.55949,0.482843,0.122193,131.539,0.0568009,
2,1,0,1,0,20897.9,0.0596024,0.0592557,27.8857,11,0.00233763,10,0.00165239,-1.55462,0.488797,0.120704,131.462,0.0592557,
2,1,0,1,0,20897.9,0.0620051,0.0616512,28.219,11,0.00244988,10,0.00173973,-1.54946,0.483115,0.122124,134.483,0.0616512,
2,1,0,1,0,20897.9,0.0644077,0.064035,28.5424,11,0.00256343,10,0.00182771,-1.54451,0.485801,0.121449,135.232,0.064035,
2,1,0,1,0,20897.9,0.0668048,0.0664167,28.868,11,0.00267827,10,0.00191731,-1.53958,0.49029,0.120337,135.558,0.0664167,
2,1,0,1,0,20897.9,0.0692019,0.0688768,29.1868,11,0.00279441,10,0.00201029,-1.53481,0.487324,0.121069,137.967,0.0688768,
2,1,0,1,0,20897.9,0.0716074,0.0712447,29.5194,11,0.00291185,10,0.0021031,-1.52989,0.494137,0.1194,137.592,0.0712447,
2,1,0,1,0,20897.9,0.0740045,0.0736349,29.8669,11,0.00303065,10,0.00219924,-1.52481,0.486112,0.121371,141.425,0.0736349,
2,1,0,1,0,20898,0.0764016,0.0760738,30.1967,11,0.00315082,10,0.00229718,-1.52004,0.489555,0.120518,142.024,0.0760738,
2,1,0,1,0,20898,0.0788042,0.0784268,30.5374,11,0.00327231,10,0.00239495,-1.51517,0.499263,0.118174,140.842,0.0784268,
2,1,0,1,0,20898,0.0812069,0.0808435,30.8827,11,0.00339519,10,0.00249667,-1.51028,0.486622,0.121244,146.149,0.0808435,
2,1,0,1,0,20898,0.083604,0.08324,31.2197,11,0.00351944,10,0.00259872,-1.50557,0.489689,0.120485,146.87,0.08324,
2,1,0,1,0,20898,0.0860011,0.0855867,31.587,11,0.00364509,10,0.00270343,-1.50049,0.49251,0.119794,147.683,0.0855867,
2,1,0,1,0,20898,0.0884065,0.0879959,31.9428,11,0.0037722,10,0.00281084,-1.49563,0.488483,0.120782,150.549,0.0879959,
2,1,0,1,0,20898,0.0908036,0.0904741,32.305,11,0.00390073,10,0.00292276,-1.49073,0.495688,0.119027,150.058,0.0904741,
2,1,0,1,0,20898,0.0932007,0.0928579,32.6676,11,0.00403073,10,0.00303345,-1.48588,0.498091,0.118452,151.008,0.09285789,
2,1,0,1,0,20898,0.0956034,0.0952099,33.031,11,0.00416216,10,0.00314488,-1.48108,0.500368,0.117913,151.987,0.0952099,
2,1,0,1,0,20898,0.098006,0.0976435,33.3997,11,0.00429506,10,0.00326126,-1.47626,0.511928,0.115251,150.149,0.09764351,
2,1,0,1,0,20898,0.100403,0.100057,33.7615,11,0.00442942,10,0.00337807,-1.47158,0.518422,0.113807,149.875,0.100057,
2,1,0,1,0,20898,0.1028,0.102446,34.1073,11,0.0045652,10,0.00349416,-1.46715,0.533254,0.110641,147.231,0.102446,
2,1,0,1,0,20898,0.105208,0.104791,34.467,11,0.00470239,10,0.00361182,-1.4626,0.528181,0.111704,150.285,0.104791,
2,1,0,1,0,20898,0.107606,0.107183,34.8042,11,0.00484098,10,0.00373042,-1.45837,0.514174,0.114747,156.052,0.107183,
2,1,0,1,0,20898,0.110003,0.109597,35.1952,11,0.00498099,10,0.00385731,-1.45352,0.522001,0.113027,155.306,0.109597,
2,1,0,1,0,20898,0.112408,0.111994,35.5973,11,0.0051226,10,0.00398668,-1.44858,0.51397,0.114793,159.356,0.111994,
2,1,0,1,0,20898,0.114805,0.114405,35.9602,11,0.00526577,10,0.00411404,-1.44418,0.519591,0.113551,159.354,0.114405,
2,1,0,1,0,20898,0.117202,0.11687,36.3478,11,0.00541042,10,0.00424796,-1.43952,0.525704,0.112231,159.267,0.11687,
2,1,0,1,0,20898,0.119599,0.119254,36.734,11,0.00555664,10,0.00438066,-1.43493,0.518259,0.113843,163.24,0.119254,
2,1,0,1,0,20898,0.122008,0.121669,37.1382,11,0.00570443,10,0.00451857,-1.43018,0.516667,0.114194,165.498,0.121669,
2,1,0,1,0,20898,0.124405,0.124049,37.5344,11,0.0058538,10,0.00465609,-1.42557,0.511639,0.115316,168.928,0.124049,
2,1,0,1,0,20898,0.126802,0.126456,37.9343,11,0.00600479,10,0.00479702,-1.42097,0.512171,0.115196,170.616,0.126456,
2,1,0,1,0,20898,0.129207,0.128819,38.3499,11,0.00615738,10,0.00494022,-1.41624,0.505082,0.116813,174.912,0.128819,
2,1,0,1,0,20898,0.131604,0.131261,38.7746,11,0.00631167,10,0.00508958,-1.41145,0.492867,0.119708,181.25,0.131261,
2,1,0,1,0,20898,0.134001,0.133648,39.2133,11,0.00646771,10,0.00524076,-1.40657,0.488055,0.120888,185.103,0.1336475,
2,1,0,1,0,20898.1,0.136399,0.136041,39.6716,11,0.00662553,10,0.00539696,-1.40152,0.484817,0.121695,188.42,0.136041,
2,1,0,1,0,20898.1,0.138807,0.138448,40.1322,11,0.00678521,10,0.00555622,-1.39651,0.480327,0.122833,192.373,0.138448,
2,1,0,1,0,20898.1,0.141204,0.140864,40.584,11,0.00694668,10,0.00571681,-1.39164,0.477407,0.123584,195.853,0.140864,
2,1,0,1,0,20898.1,0.143601,0.143247,41.0601,11,0.00711002,10,0.00588174,-1.38658,0.477039,0.12368,198.265,0.143247,
2,1,0,1,0,20898.1,0.146009,0.145669,41.5574,11,0.00727529,10,0.00605363,-1.38135,0.47675,0.123755,200.619,0.145669,
2,1,0,1,0,20898.1,0.148406,0.148038,42.0336,11,0.00744252,10,0.00622258,-1.3764,0.484163,0.12186,199.793,0.148038,
2,1,0,1,0,20898.1,0.150803,0.15045,42.5072,11,0.00761166,10,0.00639519,-1.37154,0.497662,0.118554,196.602,0.15045,
2,1,0,1,0,20898.1,0.153206,0.152833,42.9753,11,0.00778267,10,0.00656806,-1.36678,0.503165,0.117258,196.644,0.152833,
2,1,0,1,0,20898.1,0.155606,0.155247,43.4403,11,0.00795555,10,0.00674398,-1.36211,0.52038,0.113379,192.143,0.1552469,
2,1,0,1,0,20898.1,0.158003,0.157641,43.922,11,0.00813032,10,0.00692392,-1.35732,0.531852,0.110933,189.993,0.157641,
2,1,0,1,0,20898.1,0.1604,0.160061,44.354,11,0.00830691,10,0.00709935,-1.35307,0.552577,0.106772,184.683,0.160061,
2,1,0,1,0,20898.1,0.162808,0.162474,44.8069,11,0.00848529,10,0.00727993,-1.34866,0.588166,0.100312,175.233,0.162474,
2,1,0,1,0,20898.1,0.165205,0.164841,45.2123,11,0.00866538,10,0.00745286,-1.34474,0.597631,0.0987231,174.086,0.164841,
2,1,0,1,0,20898.1,0.167602,0.167277,45.6105,11,0.00884706,10,0.0076296,-1.34093,0.639712,0.092229,164.095,0.167277,
2,1,0,1,0,20898.1,0.170008,0.169653,46.0237,11,0.00903037,10,0.00780804,-1.33702,0.674105,0.0875235,156.991,0.169653,
2,1,0,1,0,20898.1,0.172405,0.172067,46.3811,11,0.00921524,10,0.00798066,-1.33366,0.731468,0.0806597,145.762,0.172067,
2,1,0,1,0,20898.1,0.174802,0.174429,46.7174,11,0.00940148,10,0.00814885,-1.33052,0.823664,0.0716311,130.403,0.174429,
2,1,0,1,0,20898.1,0.177199,0.17685,47.0058,11,0.00958896,10,0.00831295,-1.32785,0.926823,0.0636584,116.62,0.17685,
2,1,0,1,0,20898.1,0.179607,0.17925,47.2753,11,0.00977755,10,0.0084741,-1.32537,1.09394,0.0539333,99.3353,0.17925,
2,1,0,1,0,20898.1,0.182005,0.181713,47.506,11,0.00996715,10,0.00863243,-1.32325,1.33744,0.0441141,81.5993,0.181713,
2,1,0,1,0,20898.1,0.184402,0.184049,47.673,11,0.0101575,10,0.00877415,-1.32173,1.87104,0.0315332,58.5236,0.184049,
2,1,0,1,0,20898.1,0.18681,0.186449,47.7891,11,0.0103485,10,0.00891026,-1.32067,3.70148,0.0159396,29.64,0.186449,
2,1,0,1,0,20898.1,0.189207,0.188841,47.8365,11,0.0105398,10,0.00903348,-1.32024,30.9246,0.00190786,3.55091,0.1888406,
2,1,0,1,0,20898.1,0.191604,0.191251,47.7887,11,0.010731,10,0.00913963,-1.32067,-4.26235,-0.0138421,-25.7494,0.191251,
2,1,0,1,0,20898.1,0.194001,0.19366,47.7071,11,0.010922,10,0.00923897,-1.32142,-1.86745,-0.0315939,-58.6345,0.19366,
2,1,0,1,0,20898.2,0.196407,0.196066,47.5415,11,0.0111126,10,0.00932128,-1.32293,-1.20572,-0.0489333,-90.4293,0.196066,
2,1,0,1,0,20898.2,0.198804,0.198462,47.2724,11,0.0113022,10,0.00938176,-1.32539,-0.861397,-0.0684934,-125.898,0.198462,
2,1,0,1,0,20898.2,0.201201,0.200873,46.9186,11,0.0114906,10,0.00942467,-1.32866,-0.663798,-0.0888825,-162.192,0.200873,
2,1,0,1,0,20898.2,0.203609,0.203289,46.4949,11,0.0116773,10,0.00945189,-1.33259,-0.548385,-0.107589,-194.545,0.203289,
2,1,0,1,0,20898.2,0.206006,0.205684,45.9816,11,0.0118623,10,0.00945768,-1.33742,-0.463147,-0.127389,-227.771,0.205684,
2,1,0,1,0,20898.2,0.208403,0.208056,45.4058,11,0.012045,10,0.00944696,-1.34289,-0.399785,-0.147579,-260.526,0.208056,
2,1,0,1,0,20898.2,0.210803,0.210492,44.7276,11,0.0122252,10,0.00941481,-1.34942,-0.354033,-0.166651,-289.907,0.210492,
2,1,0,1,0,20898.2,0.213206,0.212882,43.9956,11,0.0124026,10,0.00936587,-1.35659,-0.317405,-0.185883,-318.164,0.212882,
2,1,0,1,0,20898.2,0.215603,0.215291,43.1964,11,0.012577,10,0.0092998,-1.36455,-0.294382,-0.20042,-337.01,0.215291,
2,1,0,1,0,20898.2,0.218,0.217674,42.3458,11,0.012748,10,0.00921758,-1.37319,-0.272852,-0.216234,-356.623,0.217674,
2,1,0,1,0,20898.2,0.220408,0.220112,41.4856,11,0.0129155,10,0.00913148,-1.3821,-0.257336,-0.229272,-370.362,0.220112,
2,1,0,1,0,20898.2,0.222805,0.22249,40.569,11,0.0130796,10,0.00902622,-1.39181,-0.246009,-0.239828,-379.037,0.22249,
2,1,0,1,0,20898.2,0.225202,0.2249,39.6378,11,0.0132399,10,0.00891453,-1.40189,-0.235378,-0.25066,-387.431,0.2249,
2,1,0,1,0,20898.2,0.227605,0.227288,38.7018,11,0.0133965,10,0.00879645,-1.41227,-0.230929,-0.255489,-385.763,0.227288,
2,1,0,1,0,20898.2,0.230008,0.229674,37.7811,11,0.0135494,10,0.00867733,-1.42273,-0.227854,-0.258938,-381.753,0.229674,
2,1,0,1,0,20898.2,0.232405,0.232086,36.8674,11,0.0136986,10,0.00855641,-1.43336,-0.225519,-0.261619,-376.48,0.232086,
2,1,0,1,0,20898.2,0.234802,0.234495,35.9746,11,0.0138442,10,0.00843588,-1.444,-0.225278,-0.261899,-367.873,0.234495,
2,1,0,1,0,20898.2,0.237207,0.236847,35.1028,11,0.0139862,10,0.00831401,-1.45466,-0.228388,-0.258333,-354.23,0.236847,
2,1,0,1,0,20898.2,0.239604,0.239247,34.2593,11,0.0141249,10,0.00819644,-1.46522,-0.231247,-0.255139,-341.637,0.239247,
2,1,0,1,0,20898.2,0.242002,0.24171,33.4582,11,0.0142602,10,0.00808719,-1.4755,-0.239079,-0.246781,-322.789,0.24171,
2,1,0,1,0,20898.2,0.244404,0.244086,32.6982,11,0.0143924,10,0.00798117,-1.48548,-0.24346,-0.242339,-309.668,0.244086,
2,1,0,1,0,20898.2,0.246807,0.246533,31.9764,11,0.0145217,10,0.00788324,-1.49517,-0.248414,-0.237507,-296.764,0.246533,
2,1,0,1,0,20898.2,0.249204,0.248898,31.2708,11,0.0146481,10,0.00778323,-1.50486,-0.257752,-0.228902,-279.906,0.248898,
2,1,0,1,0,20898.2,0.251601,0.251286,30.6165,11,0.0147718,10,0.0076935,-1.51404,-0.264522,-0.223044,-267.041,0.251286,
2,1,0,1,0,20898.2,0.254006,0.253705,30.0058,11,0.014893,10,0.00761262,-1.52279,-0.275912,-0.213836,-250.771,0.253705,
2,1,0,1,0,20898.3,0.256404,0.256126,29.4148,11,0.0150118,10,0.00753388,-1.53143,-0.285655,-0.206543,-237.512,0.256126,
2,1,0,1,0,20898.3,0.258801,0.258512,28.8597,11,0.0151283,10,0.00746059,-1.53971,-0.295804,-0.199456,-225.07,0.2585125,
2,1,0,1,0,20898.3,0.261203,0.260856,28.3435,11,0.0152426,10,0.00739357,-1.54755,-0.309298,-0.190755,-211.363,0.260856,
2,1,0,1,0,20898.3,0.263606,0.263289,27.8488,11,0.015355,10,0.00733226,-1.55519,-0.319354,-0.184748,-201.108,0.263289,
2,1,0,1,0,20898.3,0.266003,0.265694,27.3925,11,0.0154654,10,0.00727801,-1.56237,-0.339533,-0.173768,-186.085,0.265694,
2,1,0,1,0,20898.3,0.2684,0.268023,26.947,11,0.015574,10,0.00722243,-1.56949,-0.355409,-0.166006,-174.93,0.268023,
2,1,0,1,0,20898.3,0.270808,0.270467,26.5549,11,0.015681,10,0.00718225,-1.57585,-0.366203,-0.161113,-167.149,0.270467,
2,1,0,1,0,20898.3,0.273205,0.272884,26.1702,11,0.0157864,10,0.00714143,-1.58219,-0.394218,-0.149664,-153.039,0.272884,
2,1,0,1,0,20898.3,0.275603,0.275278,25.7905,11,0.0158903,10,0.00709955,-1.58854,-0.405653,-0.145445,-146.69,0.2752775,
2,1,0,1,0,20898.3,0.278008,0.277679,25.4693,11,0.0159928,10,0.00707229,-1.59398,-0.420741,-0.140229,-139.524,0.277679,
2,1,0,1,0,20898.3,0.280405,0.280089,25.1436,11,0.016094,10,0.00704244,-1.59957,-0.443586,-0.133007,-130.592,0.280089,
2,1,0,1,0,20898.3,0.282802,0.282484,24.8308,11,0.0161939,10,0.0070143,-1.60501,-0.454239,-0.129888,-126.023,0.282484,
2,1,0,1,0,20898.3,0.285199,0.284882,24.5363,11,0.0162926,10,0.00698994,-1.61019,-0.480026,-0.12291,-117.874,0.284882,
2,1,0,1,0,20898.3,0.287608,0.287255,24.2625,11,0.0163902,10,0.00696953,-1.61506,-0.504424,-0.116965,-110.902,0.287255,
2,1,0,1,0,20898.3,0.290005,0.289688,24.012,11,0.0164867,10,0.00695601,-1.61957,-0.529097,-0.111511,-104.581,0.289688,
2,1,0,1,0,20898.3,0.292402,0.292074,23.7672,11,0.0165822,10,0.00694179,-1.62402,-0.552541,-0.106779,-99.11,0.292074,
2,1,0,1,0,20898.3,0.294807,0.294476,23.5329,11,0.0166768,10,0.00692988,-1.62832,-0.563964,-0.104617,-96.1684,0.294476,
2,1,0,1,0,20898.3,0.297204,0.296867,23.3098,11,0.0167704,10,0.00691993,-1.63246,-0.578315,-0.102021,-93.1995,0.296867,
2,1,0,1,0,20898.3,0.299421,0.29915,23.1021,11,0.0168563,10,0.00691101,-1.63635,-0.105723,-0.55806,-487.809,0.2991499,
2,1,0,0,0,20898.3,0.300012,0.299746,23.0522,11,0.0168794,10,0.00690981,-1.63729,0.00183161,32.2122,25126.3,0.299746,
2,1,0,1,0,20898.3,0.299243,0.299054,21.2998,11,0.0169075,10,0.0063698,-1.67162,0.021827,2.70308,1897.95,0.299054,
2,1,0,1,0,20898.3,0.296846,0.296616,16.9958,11,0.0169832,10,0.00504124,-1.76966,0.0245765,2.40067,1522.67,0.296616,
2,1,0,1,0,20898.3,0.294449,0.294194,13.6962,11,0.0170441,10,0.00402935,-1.8634,0.0244486,2.41323,1318.82,0.294194,
2,1,0,1,0,20898.3,0.292041,0.291793,10.9422,11,0.017093,10,0.00319286,-1.9609,0.0233037,2.53179,1083.34,0.291793,
2,1,0,1,0,20898.3,0.289644,0.289424,8.60018,11,0.0171318,10,0.0024891,-2.06549,0.0209205,2.8202,931.724,0.289424,
2,1,0,1,0,20898.3,0.287247,0.286985,6.56262,11,0.0171618,10,0.00188338,-2.18292,0.0180671,3.26561,801.225,0.286985,
2,1,0,1,0,20898.4,0.284841,0.284618,4.77356,11,0.0171842,10,0.00135864,-2.32116,0.0141854,4.15919,702.331,0.284618,
2,1,0,1,0,20898.4,0.282444,0.282114,3.18681,11,0.0171999,10,0.000899042,-2.49664,0.00867485,6.80127,629.536,0.282114,
2,1,0,1,0,20898.4,0.280047,0.279709,1.77672,11,0.0172097,10,0.000496965,-2.75038,0.0110946,5.31791,558.036,0.279709,
2,1,0,1,0,20898.4,0.27765,0.277374,0.511797,11,0.0172141,10,0.000141959,-3.2909,0.0334385,1.76443,505.205,0.277374,
2,0,0,1,0,20898.4,0.275242,0.27492,-0.637936,11,0.0172137,10,-0.000175382,-3.19522,-0.0588321,-1.00285,455.577,0.27492,
2,0,0,1,0,20898.4,0.272845,0.272543,-1.64863,11,0.017209,10,-0.000449321,-2.78288,-0.0116314,-5.07246,410.975,0.272543,
2,0,0,1,0,20898.4,0.270448,0.270137,-2.58419,11,0.0172004,10,-0.000698086,-2.58767,-0.0116668,-5.05709,373.895,0.270137,
2,0,0,1,0,20898.4,0.268039,0.267736,-3.4492,11,0.0171882,10,-0.000923474,-2.46228,-0.0203121,-2.90467,339.378,0.267736,
2,0,0,1,0,20898.4,0.265642,0.265353,-4.21498,11,0.0171728,10,-0.00111846,-2.3752,-0.0286498,-2.05935,312.54,0.265353,
2,0,0,1,0,20898.4,0.263245,0.262889,-4.92497,11,0.0171544,10,-0.00129472,-2.3076,-0.0379742,-1.55369,283.885,0.262889,
2,0,0,1,0,20898.4,0.260843,0.260576,-5.57227,11,0.0171334,10,-0.001452,-2.25397,-0.0471013,-1.25262,263.062,0.260576,
2,0,0,1,0,20898.4,0.258443,0.258123,-6.17806,11,0.0171098,10,-0.0015947,-2.20915,-0.0566109,-1.0422,244.717,0.258123,
2,0,0,1,0,20898.4,0.256046,0.255736,-6.7448,11,0.0170839,10,-0.00172489,-2.17103,-0.0673535,-0.875976,225.735,0.255736,
2,0,0,1,0,20898.4,0.253649,0.253353,-7.25864,11,0.0170558,10,-0.00183899,-2.13914,-0.0779462,-0.756932,210.988,0.253353,
2,0,0,1,0,20898.4,0.25124,0.250913,-7.75365,11,0.0170257,10,-0.00194549,-2.11049,-0.0901807,-0.654242,195.137,0.250913,
2,0,0,1,0,20898.4,0.248843,0.248531,-8.20195,11,0.0169938,10,-0.00203844,-2.08608,-0.101511,-0.58122,184.029,0.248531,
2,0,0,1,0,20898.4,0.246446,0.246144,-8.61664,11,0.0169601,10,-0.00212093,-2.06466,-0.114467,-0.515432,171.955,0.246144,
2,0,0,1,0,20898.4,0.244041,0.243717,-9.03193,11,0.0169248,10,-0.00220123,-2.04422,-0.127787,-0.461708,161.293,0.243717,
2,0,0,1,0,20898.4,0.241644,0.241365,-9.39546,11,0.0168878,10,-0.00226773,-2.02708,-0.141358,-0.41738,151.951,0.241365,
2,0,0,1,0,20898.4,0.239247,0.238965,-9.74485,11,0.0168495,10,-0.00232868,-2.01122,-0.155847,-0.378576,143.332,0.238965,
2,0,0,1,0,20898.4,0.236849,0.236524,-10.0784,11,0.0168098,10,-0.00238379,-1.99661,-0.169263,-0.34857,136.575,0.236524,
2,0,0,1,0,20898.4,0.234441,0.234153,-10.4027,11,0.0167688,10,-0.00243583,-1.98285,-0.182763,-0.322822,130.517,0.234153,
2,0,0,1,0,20898.4,0.232044,0.23172,-10.7126,11,0.0167265,10,-0.00248234,-1.9701,-0.195916,-0.301149,125.368,0.23172,
2,0,0,1,0,20898.4,0.229647,0.229351,-10.9996,11,0.0166831,10,-0.00252277,-1.95862,-0.213209,-0.276724,118.386,0.229351,
2,0,0,1,0,20898.4,0.227239,0.226956,-11.2779,11,0.0166385,10,-0.00255959,-1.94777,-0.229868,-0.256669,112.604,0.226956,
2,0,0,1,0,20898.5,0.224842,0.224538,-11.541,11,0.0165929,10,-0.00259139,-1.93776,-0.243629,-0.242171,108.822,0.2245381,
2,0,0,1,0,20898.5,0.222445,0.222178,-11.7872,11,0.0165462,10,-0.00261885,-1.92859,-0.257846,-0.228819,105.163,0.222178,
2,0,0,1,0,20898.5,0.220047,0.21975,-12.0444,11,0.0164985,10,-0.00264676,-1.91922,-0.273254,-0.215916,101.272,0.21975,
2,0,0,1,0,20898.5,0.217642,0.217341,-12.2891,11,0.0164498,10,-0.00267092,-1.91048,-0.290118,-0.203365,97.243,0.217341,
2,0,0,1,0,20898.5,0.215245,0.214984,-12.5086,11,0.0164001,10,-0.00268914,-1.90279,-0.30465,-0.193665,94.4317,0.214984,
2,0,0,1,0,20898.5,0.212848,0.212488,-12.7295,11,0.0163496,10,-0.00270485,-1.89519,-0.321396,-0.183574,91.1455,0.212488,
2,0,0,1,0,20898.5,0.21044,0.21011,-12.9547,11,0.0162983,10,-0.00272192,-1.88757,-0.328755,-0.179465,90.6477,0.21011,
2,0,0,1,0,20898.5,0.208043,0.207727,-13.1653,11,0.016246,10,-0.00273479,-1.88057,-0.340343,-0.173354,88.9698,0.207727,
2,0,0,1,0,20898.5,0.205645,0.205303,-13.3861,11,0.0161929,10,-0.0027482,-1.87335,-0.357858,-0.16487,85.9853,0.205303,
2,0,0,1,0,20898.5,0.203246,0.202919,-13.5808,11,0.0161389,10,-0.0027558,-1.86707,-0.371862,-0.158661,83.989,0.202919,
2,0,0,1,0,20898.5,0.200843,0.200504,-13.7807,11,0.0160842,10,-0.00276309,-1.86073,-0.388506,-0.151864,81.63,0.200504,
2,0,0,1,0,20898.5,0.198446,0.198138,-13.9707,11,0.0160287,10,-0.00276813,-1.85478,-0.38608,-0.152818,83.3699,0.198138,
2,0,0,1,0,20898.5,0.196049,0.19573,-14.1675,11,0.0159723,10,-0.00277301,-1.84871,-0.400634,-0.147266,81.4188,0.19573,
2,0,0,1,0,20898.5,0.19364,0.193278,-14.3845,11,0.0159152,10,-0.00278022,-1.8421,-0.410908,-0.143584,80.4355,0.1932784,
2,0,0,1,0,20898.5,0.191243,0.190944,-14.559,11,0.0158573,10,-0.00277997,-1.83687,-0.414283,-0.142415,80.8818,0.190944,
2,0,0,1,0,20898.5,0.188846,0.188517,-14.7446,11,0.0157987,10,-0.0027796,-1.83137,-0.430208,-0.137143,78.9881,0.188517,
2,0,0,1,0,20898.5,0.186444,0.18613,-14.944,11,0.0157393,10,-0.00278153,-1.82553,-0.428179,-0.137793,80.3529,0.1861302,
2,0,0,1,0,20898.5,0.184041,0.183743,-15.1377,11,0.0156791,10,-0.00278145,-1.81994,-0.425598,-0.138628,81.8843,0.183743,
2,0,0,1,0,20898.5,0.181644,0.181328,-15.3318,11,0.0156182,10,-0.00278008,-1.81441,-0.434075,-0.135921,81.33,0.181328,
2,0,0,1,0,20898.5,0.179247,0.178895,-15.5325,11,0.0155564,10,-0.00277868,-1.80876,-0.428996,-0.13753,83.3809,0.178895,
2,0,0,1,0,20898.5,0.176841,0.176506,-15.7267,11,0.0154939,10,-0.00277586,-1.80336,-0.423523,-0.139308,85.5735,0.176506,
2,0,0,1,0,20898.5,0.174444,0.174137,-15.9387,11,0.0154305,10,-0.00277551,-1.79755,-0.416918,-0.141515,88.0911,0.174137,
2,0,0,1,0,20898.5,0.172047,0.171707,-16.1551,11,0.0153663,10,-0.00277394,-1.79169,-0.408187,-0.144541,91.1627,0.171707,
2,0,0,1,0,20898.5,0.169644,0.169326,-16.3754,11,0.0153013,10,-0.00277278,-1.78581,-0.411033,-0.143541,91.7347,0.169326,
2,0,0,1,0,20898.5,0.167242,0.166898,-16.6027,11,0.0152353,10,-0.00277094,-1.77982,-0.400439,-0.147338,95.501,0.166898,
2,0,0,1,0,20898.6,0.164845,0.164527,-16.8203,11,0.0151684,10,-0.00276738,-1.77417,-0.382499,-0.154249,101.48,0.164527,
2,0,0,1,0,20898.6,0.162448,0.162125,-17.0702,11,0.0151006,10,-0.0027675,-1.76776,-0.373075,-0.158145,105.565,0.162125,
2,0,0,1,0,20898.6,0.160042,0.15973,-17.3492,11,0.0150317,10,-0.00277119,-1.76072,-0.351788,-0.167714,113.641,0.1597303,
2,0,0,1,0,20898.6,0.157645,0.157303,-17.6155,11,0.0149618,10,-0.00277097,-1.75411,-0.336507,-0.175331,120.728,0.157303,
2,0,0,1,0,20898.6,0.155248,0.154891,-17.9153,11,0.0148907,10,-0.00277491,-1.74678,-0.326113,-0.180919,126.736,0.154891,
2,0,0,1,0,20898.6,0.152845,0.152521,-18.2297,11,0.0148184,10,-0.0027804,-1.73922,-0.306383,-0.192569,137.285,0.1525206,
2,0,0,1,0,20898.6,0.150443,0.150148,-18.5635,11,0.0147448,10,-0.00278729,-1.73134,-0.292576,-0.201657,146.456,0.150148,
2,0,0,1,0,20898.6,0.148046,0.147693,-18.9349,11,0.0146697,10,-0.00279654,-1.72274,-0.275482,-0.21417,158.637,0.147693,
2,0,0,1,0,20898.6,0.145648,0.145292,-19.3211,11,0.0145932,10,-0.0028072,-1.71397,-0.260541,-0.226452,171.22,0.145292,
2,0,0,1,0,20898.6,0.14324,0.142941,-19.7494,11,0.014515,10,-0.00282299,-1.70445,-0.249494,-0.236478,182.724,0.142941,
2,0,0,1,0,20898.6,0.140843,0.140549,-20.2072,11,0.014435,10,-0.0028401,-1.69449,-0.233028,-0.253188,200.255,0.140549,
2,0,0,1,0,20898.6,0.138446,0.138094,-20.6888,11,0.0143532,10,-0.002857,-1.68426,-0.222052,-0.265704,215.342,0.138094,
2,0,0,1,0,20898.6,0.136041,0.1357,-21.2418,11,0.0142693,10,-0.00288253,-1.67281,-0.213178,-0.276764,229.984,0.1357,
2,0,0,1,0,20898.6,0.133644,0.133333,-21.8184,11,0.0141832,10,-0.00290911,-1.66118,-0.201528,-0.292763,249.726,0.133333,
2,0,0,1,0,20898.6,0.131246,0.130946,-22.4158,11,0.0140947,10,-0.00293525,-1.64945,-0.195134,-0.302357,265.351,0.130946,
2,0,0,1,0,20898.6,0.128849,0.128568,-23.0676,11,0.0140036,10,-0.00296576,-1.637,-0.187476,-0.314707,284.36,0.128568,
2,0,0,1,0,20898.6,0.126441,0.126133,-23.7805,11,0.0139098,10,-0.00299951,-1.62378,-0.180486,-0.326896,304.158,0.126133,
2,0,0,1,0,20898.6,0.124044,0.123762,-24.5398,11,0.0138131,10,-0.0030371,-1.61013,-0.177757,-0.331913,318.26,0.123762,
2,0,0,1,0,20898.6,0.121647,0.121379,-25.3257,11,0.0137133,10,-0.00307399,-1.59644,-0.175171,-0.336813,333.082,0.121379,
2,0,0,1,0,20898.6,0.119241,0.11893,-26.135,11,0.0136103,10,-0.00310824,-1.58278,-0.177813,-0.331809,338.464,0.11893,
2,0,0,1,0,20898.6,0.116844,0.116572,-26.9653,11,0.0135041,10,-0.00314339,-1.5692,-0.179128,-0.329374,346.56,0.116572,
2,0,0,1,0,20898.6,0.114447,0.114122,-27.8026,11,0.0133944,10,-0.0031729,-1.55591,-0.180828,-0.326277,353.967,0.114122,
2,0,0,1,0,20898.6,0.11205,0.111746,-28.664,11,0.0132814,10,-0.00320308,-1.54266,-0.185774,-0.31759,354.978,0.111746,
2,0,0,1,0,20898.6,0.109642,0.109339,-29.53,11,0.0131649,10,-0.00322878,-1.52974,-0.190094,-0.310373,357.179,0.109339,
2,0,0,1,0,20898.6,0.107245,0.106945,-30.3824,11,0.013045,10,-0.00324926,-1.51738,-0.195487,-0.30181,357.433,0.106945,
2,0,0,1,0,20898.7,0.104848,0.104501,-31.2391,11,0.0129217,10,-0.00326452,-1.5053,-0.204888,-0.287962,350.365,0.104501,
2,0,0,1,0,20898.7,0.10244,0.102156,-32.0919,11,0.0127949,10,-0.00327836,-1.4936,-0.214467,-0.2751,343.594,0.102156,
2,0,0,1,0,20898.7,0.100042,0.0997707,-32.8824,11,0.0126649,10,-0.00328069,-1.48304,-0.221581,-0.266268,341.24,0.09977068,
2,0,0,1,0,20898.7,0.0976454,0.0973477,-33.6801,11,0.0125317,10,-0.00327868,-1.47263,-0.232007,-0.254302,334.098,0.0973477,
2,0,0,1,0,20898.7,0.0952427,0.0949724,-34.4907,11,0.0123953,10,-0.00327566,-1.4623,-0.24172,-0.244084,328.004,0.0949724,
2,0,0,1,0,20898.7,0.0928428,0.092596,-35.2857,11,0.0122556,10,-0.00326731,-1.4524,-0.250626,-0.23541,323.405,0.092596,
2,0,0,1,0,20898.7,0.0904457,0.0901687,-36.0318,11,0.0121129,10,-0.00324894,-1.44331,-0.265858,-0.221923,311.519,0.0901687,
2,0,0,1,0,20898.7,0.0880486,0.0878019,-36.7673,11,0.0119672,10,-0.00322824,-1.43454,-0.283669,-0.207989,297.911,0.0878019,
2,0,0,1,0,20898.7,0.0856404,0.0853534,-37.4872,11,0.0118186,10,-0.00319966,-1.42612,-0.301721,-0.195545,285.313,0.0853534,
2,0,0,1,0,20898.7,0.0832433,0.0829664,-38.1545,11,0.0116673,10,-0.00316554,-1.41845,-0.321942,-0.183263,272.221,0.08296641,
2,0,0,1,0,20898.7,0.0808462,0.0805572,-38.7741,11,0.0115134,10,-0.00312353,-1.41146,-0.344847,-0.17109,258.495,0.0805572,
2,0,0,1,0,20898.7,0.0784408,0.078184,-39.3855,11,0.011357,10,-0.00307932,-1.40466,-0.369241,-0.159787,245.18,0.078184,
2,0,0,1,0,20898.7,0.0760437,0.0757631,-39.9662,11,0.0111982,10,-0.00302796,-1.39831,-0.393544,-0.14992,233.329,0.0757631,
2,0,0,1,0,20898.7,0.0736466,0.0733888,-40.5027,11,0.0110372,10,-0.00297244,-1.39252,-0.42724,-0.138096,217.862,0.0733888,
2,0,0,1,0,20898.7,0.0712495,0.0709955,-41.0052,11,0.0108741,10,-0.00291118,-1.38716,-0.460461,-0.128133,204.702,0.0709955,
2,0,0,1,0,20898.7,0.0688413,0.0685682,-41.4804,11,0.0107091,10,-0.00284424,-1.38216,-0.502411,-0.117434,189.786,0.0685682,
2,0,0,1,0,20898.7,0.0664442,0.0662184,-41.92,11,0.0105423,10,-0.00277588,-1.37758,-0.550902,-0.107097,174.893,0.0662184,
2,0,0,1,0,20898.7,0.0640471,0.063754,-42.3312,11,0.0103737,10,-0.00269879,-1.37334,-0.613231,-0.0962118,158.587,0.063754,
2,0,0,1,0,20898.7,0.0616389,0.0613405,-42.6937,11,0.0102036,10,-0.00261886,-1.36964,-0.706118,-0.0835554,138.878,0.0613405,
2,0,0,1,0,20898.7,0.0592417,0.0589906,-42.9993,11,0.0100322,10,-0.00253656,-1.36654,-0.829047,-0.071166,119.153,0.0589906,
2,0,0,1,0,20898.7,0.0568446,0.056539,-43.2643,11,0.00985962,10,-0.00244612,-1.36387,-0.960909,-0.0614002,103.493,0.056539,
2,0,0,1,0,20898.7,0.0544475,0.0541478,-43.4759,11,0.00968611,10,-0.00235412,-1.36175,-1.14462,-0.0515455,87.3449,0.0541478,
2,0,0,1,0,20898.7,0.0520421,0.0517215,-43.6892,11,0.00951173,10,-0.00225967,-1.35963,-1.38539,-0.0425872,72.4857,0.0517215,
2,0,0,1,0,20898.7,0.049645,0.0493409,-43.8421,11,0.00933662,10,-0.00216321,-1.35811,-1.62883,-0.0362222,61.8785,0.0493409,
2,0,0,1,0,20898.7,0.0472479,0.0469084,-43.9624,11,0.00916098,10,-0.0020622,-1.35692,-2.22129,-0.0265611,45.5138,0.0469084,
2,0,0,1,0,20898.8,0.0448397,0.0445394,-44.0704,11,0.00898491,10,-0.00196287,-1.35585,-2.86889,-0.0205655,35.3237,0.0445394,
2,0,0,1,0,20898.8,0.0424426,0.0421397,-44.1253,11,0.00880852,10,-0.00185943,-1.35531,-4.01761,-0.0146854,25.265,0.0421397,
2,0,0,1,0,20898.8,0.0400455,0.0397549,-44.1808,11,0.0086319,10,-0.0017564,-1.35477,-6.95171,-0.00848712,14.6205,0.03975486,
2,0,0,1,0,20898.8,0.0376456,0.0373477,-44.2039,11,0.00845513,10,-0.00165092,-1.35454,-15.2005,-0.00388145,6.68901,0.0373477,
2,0,0,1,0,20898.8,0.035243,0.0349109,-44.2112,11,0.00827827,10,-0.00154345,-1.35447,33.1275,0.001781,-3.06984,0.0349109,
2,0,0,1,0,20898.8,0.0328459,0.0325197,-44.1897,11,0.00810146,10,-0.00143704,-1.35468,15.5379,0.00379716,-6.54595,0.0325197,
2,0,0,1,0,20898.8,0.0304488,0.03012,-44.1512,11,0.00792476,10,-0.00132983,-1.35506,8.05861,0.00732136,-12.6152,0.03012001,
2,0,0,1,0,20898.8,0.0280406,0.0276906,-44.1407,11,0.00774819,10,-0.00122228,-1.35516,5.6051,0.0105261,-18.1175,0.0276906,
2,0,0,1,0,20898.8,0.0256435,0.0253174,-44.0902,11,0.00757174,10,-0.00111625,-1.35566,4.8089,0.0122689,-21.0918,0.0253174,
2,0,0,1,0,20898.8,0.0232463,0.0229336,-44.016,11,0.00739554,10,-0.00100945,-1.35639,3.615,0.0163209,-28.0302,0.0229336,
2,0,0,1,0,20898.8,0.0208437,0.0205106,-43.9485,11,0.00721963,10,-0.00090141,-1.35706,3.12631,0.0188721,-32.3586,0.0205106,
2,0,0,1,0,20898.8,0.018441,0.0181353,-43.8729,11,0.00704397,10,-0.000795647,-1.3578,3.06245,0.0192656,-32.9756,0.0181353,
2,0,0,1,0,20898.8,0.0160439,0.0157091,-43.7792,11,0.00686868,10,-0.000687732,-1.35873,2.66862,0.0221088,-37.7646,0.0157091,
2,0,0,1,0,20898.8,0.0136468,0.0133433,-43.6998,11,0.00669373,10,-0.0005831,-1.35952,2.44985,0.0240831,-41.0492,0.0133433,
2,0,0,1,0,20898.8,0.0112414,0.0109574,-43.5877,11,0.00651915,10,-0.000477608,-1.36064,2.22463,0.0265212,-45.0891,0.0109574,
2,0,0,1,0,20898.8,0.00884431,0.00849089,-43.477,11,0.00634503,10,-0.000369158,-1.36174,1.99179,0.0296216,-50.2389,0.00849089,
2,0,0,1,0,20898.8,0.0064472,0.00611771,-43.3468,11,0.00617141,10,-0.000265183,-1.36304,2.14464,0.0275104,-46.5552,0.00611771,
2,0,0,1,0,20898.8,0.00404455,0.00373073,-43.2168,11,0.0059983,10,-0.00016123,-1.36435,1.86182,0.0316894,-53.4505,0.00373073,
2,0,0,1,0,20898.8,0.0016419,0.00127271,-43.1368,11,0.00582566,10,-5.49007e-05,-1.36515,1.64999,0.0357579,-60.0861,0.001272709,
2,0,0,1,0,20898.8,-0.000755208,-0.00114502,-42.9619,11,0.00565349,10,4.91922e-05,-1.36692,1.51162,0.039031,-65.3487,-0.00114502,
2,0,0,1,0,20898.8,-0.00315231,-0.00352139,-42.7676,11,0.00548205,10,0.000150601,-1.36889,1.23833,0.0476448,-79.4976,-0.00352139,
2,0,0,1,0,20898.8,-0.00555774,-0.00592321,-42.586,11,0.00531134,10,0.000252246,-1.37073,1.17658,0.0501454,-83.2945,-0.00592321,
2,0,0,1,0,20898.8,-0.00795485,-0.00833564,-42.373,11,0.00514142,10,0.000353206,-1.37291,1.12405,0.0524887,-86.7485,-0.00833564,
2,0,0,1,0,20898.8,-0.010352,-0.0107205,-42.1644,11,0.00497236,10,0.000452023,-1.37505,1.01354,0.0582117,-95.701,-0.0107205,
2,0,0,1,0,20898.8,-0.0127546,-0.0131637,-41.9311,11,0.00480419,10,0.000551968,-1.37746,0.956497,0.0616834,-100.836,-0.0131637,
2,0,0,1,0,20898.9,-0.0151573,-0.0155157,-41.668,11,0.00463701,10,0.000646506,-1.3802,0.882306,0.0668702,-108.679,-0.0155157,
2,0,0,1,0,20898.9,-0.0175544,-0.017927,-41.4058,11,0.0044709,10,0.000742283,-1.38294,0.83107,0.0709928,-114.654,-0.017927,
2,0,0,1,0,20898.9,-0.0199515,-0.0202642,-41.1272,11,0.00430587,10,0.000833407,-1.38587,0.809736,0.0728633,-116.879,-0.0202642,
2,0,0,1,0,20898.9,-0.0223597,-0.0227031,-40.8374,11,0.00414196,10,0.000927135,-1.38894,0.760656,0.0775646,-123.535,-0.0227031,
2,0,0,1,0,20898.9,-0.0247568,-0.0251537,-40.5415,11,0.00397922,10,0.00101977,-1.3921,0.750689,0.0785945,-124.292,-0.0251537,
2,0,0,1,0,20898.9,-0.0271539,-0.0275311,-40.2194,11,0.00381772,10,0.00110729,-1.39556,0.729209,0.0809096,-127.013,-0.0275311,
2,0,0,1,0,20898.9,-0.0295593,-0.0299573,-39.9224,11,0.00365748,10,0.00119597,-1.39878,0.712948,0.082755,-128.929,-0.0299573,
2,0,0,1,0,20898.9,-0.0319564,-0.0323146,-39.6166,11,0.00349844,10,0.0012802,-1.40212,0.718641,0.0820994,-126.9,-0.0323146,
2,0,0,1,0,20898.9,-0.0343535,-0.0347419,-39.3053,11,0.00334064,10,0.00136554,-1.40555,0.715459,0.0824646,-126.522,-0.0347419,
2,0,0,1,0,20898.9,-0.0367506,-0.0371543,-38.9982,11,0.00318408,10,0.00144895,-1.40896,0.725018,0.0813773,-123.91,-0.0371543,
2,0,0,1,0,20898.9,-0.0391588,-0.0395402,-38.7099,11,0.00302867,10,0.0015306,-1.41218,0.740809,0.0796426,-120.364,-0.0395402,
2,0,0,1,0,20898.9,-0.0415559,-0.0419633,-38.4211,11,0.00287447,10,0.00161227,-1.41543,0.770463,0.0765774,-114.895,-0.0419633,
2,0,0,1,0,20898.9,-0.043953,-0.0443407,-38.1499,11,0.00272137,10,0.00169159,-1.41851,0.789093,0.0747694,-111.398,-0.0443407,
2,0,0,1,0,20898.9,-0.0463585,-0.0467404,-37.8968,11,0.0025693,10,0.00177131,-1.4214,0.832161,0.0708998,-104.918,-0.0467404,
2,0,0,1,0,20898.9,-0.0487556,-0.049086,-37.6465,11,0.00241825,10,0.00184792,-1.42427,0.866706,0.0680739,-100.074,-0.049086,
2,0,0,1,0,20898.9,-0.0511527,-0.0515197,-37.4184,11,0.00226814,10,0.00192778,-1.42691,0.934672,0.0631238,-92.271,-0.0515197,
2,0,0,1,0,20898.9,-0.0535498,-0.0539257,-37.1907,11,0.00211895,10,0.00200554,-1.42957,1.02192,0.0577346,-83.9093,-0.0539257,
2,0,0,1,0,20898.9,-0.055958,-0.0562819,-37.0164,11,0.00197054,10,0.00208336,-1.43161,1.08731,0.0542621,-78.4391,-0.0562819,
2,0,0,1,0,20898.9,-0.0583551,-0.05874,-36.8365,11,0.00182284,10,0.00216377,-1.43372,1.25258,0.0471026,-67.7665,-0.05874,
2,0,0,1,0,20898.9,-0.0607522,-0.0611333,-36.6643,11,0.00167587,10,0.00224141,-1.43576,1.33041,0.0443473,-63.5312,-0.0611333,
2,0,0,1,0,20898.9,-0.0631604,-0.0635298,-36.5399,11,0.00152946,10,0.00232137,-1.43723,1.49348,0.039505,-56.3769,-0.0635298,
2,0,0,1,0,20898.9,-0.0655575,-0.0659751,-36.4006,11,0.0013836,10,0.00240153,-1.43889,1.79958,0.0327854,-46.6268,-0.0659751,
2,0,0,1,0,20898.9,-0.0679546,-0.06829,-36.2981,11,0.00123823,10,0.0024788,-1.44012,1.95815,0.0301304,-42.726,-0.06828998,
2,0,0,1,0,20898.9,-0.0703573,-0.0706918,-36.2187,11,0.00109322,10,0.00256036,-1.44107,2.39318,0.0246534,-34.8623,-0.0706918,
2,0,0,1,0,20898.9,-0.0727571,-0.0731117,-36.1305,11,0.00094854,10,0.00264156,-1.44213,2.84719,0.0207222,-29.2414,-0.0731117,
2,0,0,1,0,20899,-0.0751542,-0.0755209,-36.0678,11,0.00080415,10,0.00272387,-1.44288,3.71434,0.0158844,-22.3857,-0.07552091,
2,0,0,1,0,20899,-0.0775514,-0.0778835,-36.0176,11,0.000659984,10,0.00280517,-1.44349,5.20874,0.0113271,-15.938,-0.0778835,
2,0,0,1,0,20899,-0.0799595,-0.0803267,-36.003,11,0.000515952,10,0.002892,-1.44366,7.39812,0.007975,-11.209,-0.0803267,
2,0,0,1,0,20899,-0.0823567,-0.0827402,-35.977,11,0.000372003,10,0.00297675,-1.44397,25.5279,0.0023112,-3.24733,-0.0827402,
2,0,0,1,0,20899,-0.0847538,-0.0851229,-35.9602,11,0.000228119,10,0.00306103,-1.44418,-805.881,-7.32118e-05,0.10287,-0.0851229,
2,0,0,1,0,20899,-0.0871592,-0.0875237,-35.9863,11,8.42521e-05,10,0.00314965,-1.44386,-13.4789,-0.00437722,6.15094,-0.0875237,
2,0,0,1,0,20899,-0.0895563,-0.0899329,-36.004,11,-5.97288e-05,10,0.00323794,-1.44365,-6.47307,-0.00911468,12.8135,-0.0899329,
2,0,0,1,0,20899,-0.0919534,-0.0922934,-36.0358,11,-0.000203807,10,0.00332586,-1.44327,-5.06372,-0.0116515,16.3994,-0.0922934,
2,0,0,1,0,20899,-0.0943505,-0.0947111,-36.083,11,-0.000348046,10,0.00341746,-1.4427,-3.87923,-0.0152092,21.4317,-0.0947111,
2,0,0,1,0,20899,-0.0967587,-0.0971097,-36.1435,11,-0.000492509,10,0.00350988,-1.44197,-3.10472,-0.0190033,26.8057,-0.0971097,
2,0,0,1,0,20899,-0.0991558,-0.0995169,-36.2094,11,-0.000637214,10,0.00360344,-1.44118,12.6712,0.00465623,-6.55358,-0.0995169,
2,0,0,1,0,20899,-0.0999548,-0.100362,-36.2521,11,-0.0006843,10,0.00363833,-1.44067,0.0226524,2.60458,-3434.82,-0.100362,
2,0,0,1,1,20899,-0.0999548,-0.100362,-36.046,11,-0.000705953,10,0.00361765,-1.44314,-0.0286736,-2.05764,2535.01,-0.100362,
2,0,0,1,1,20899,-0.0979573,-0.098449,-31.5433,11,-0.000808951,10,0.0031054,-1.50109,-0.0369986,-1.59466,1840.85,-0.098449,
2,0,0,1,1,20899,-0.0955546,-0.0960186,-27.3412,11,-0.000926081,10,0.00262526,-1.56318,-0.0380125,-1.55212,1673.69,-0.0960186,
2,0,0,1,1,20899,-0.0931519,-0.0935871,-23.7805,11,-0.00102783,10,0.00222554,-1.62378,-0.0387366,-1.52311,1428.09,-0.0935871,
2,0,0,1,1,20899,-0.0907548,-0.0911566,-20.6391,11,-0.00111626,10,0.00188139,-1.68531,-0.037782,-1.56159,1260.16,-0.0911566,
2,0,0,1,1,20899,-0.0883578,-0.0888311,-17.8081,11,-0.0011928,10,0.00158191,-1.74938,-0.0357678,-1.64953,1142.13,-0.0888311,
2,0,0,1,1,20899,-0.0859523,-0.0863805,-15.1957,11,-0.00125849,10,0.00131261,-1.81828,-0.0331135,-1.78175,1048.05,-0.0863805,
2,0,0,1,1,20899,-0.0835552,-0.0839936,-12.8234,11,-0.00131424,10,0.00107708,-1.892,-0.0302617,-1.94966,959.091,-0.0839936,
2,0,0,1,1,20899,-0.0811581,-0.0815864,-10.6091,11,-0.00136084,10,0.00086556,-1.97432,-0.026454,-2.23029,896.99,-0.0815864,
2,0,0,1,1,20899,-0.0787555,-0.079157,-8.52975,11,-0.00139888,10,0.00067519,-2.06906,-0.0226139,-2.60902,830.663,-0.07915704,
2,0,0,1,1,20899,-0.0763528,-0.0767945,-6.5971,11,-0.00142891,10,0.00050662,-2.18065,-0.0178907,-3.29781,784.191,-0.0767945,
2,0,0,1,1,20899,-0.0739557,-0.0743226,-4.79016,11,-0.00145148,10,0.000356018,-2.31965,-0.0125762,-4.6914,737.519,-0.0743226,
2,0,0,1,1,20899,-0.0715586,-0.071994,-3.0868,11,-0.00146705,10,0.000222231,-2.51049,-0.00426421,-13.8361,689.649,-0.071994,
2,0,0,1,1,20899,-0.0691532,-0.0696028,-1.48329,11,-0.00147601,10,0.000103241,-2.82877,-0.0185064,-3.18809,654.543,-0.0696028,
2,0,0,1,1,20899,-0.066756,-0.0671755,0.0366108,11,-0.00147872,10,-2.45935e-06,-4.43639,-0.251395,-0.234691,614.33,-0.0671755,
2,1,0,1,1,20899.1,-0.0643589,-0.0647737,1.46005,11,-0.00147554,10,-9.45728e-05,-2.83563,0.02175,2.71264,580.935,-0.0647737,
2,1,0,1,1,20899.1,-0.0619563,-0.0623687,2.82632,11,-0.00146681,10,-0.000176274,-2.54878,0.00442458,13.3346,551.675,-0.0623687,
2,1,0,1,1,20899.1,-0.0595536,-0.0599711,4.11209,11,-0.00145277,10,-0.000246607,-2.38594,0.0147775,3.99255,525.019,-0.05997109,
2,1,0,1,1,20899.1,-0.0571565,-0.0576106,5.31331,11,-0.00143378,10,-0.000306103,-2.27464,0.0222283,2.65427,499.489,-0.0576106,
2,1,0,1,1,20899.1,-0.0547594,-0.0552067,6.4829,11,-0.00141005,10,-0.000357899,-2.18823,0.0297012,1.98645,472.594,-0.0552067,
2,1,0,1,1,20899.1,-0.0523512,-0.0528335,7.58903,11,-0.00138178,10,-0.000400955,-2.11981,0.0373033,1.58163,448.162,-0.05283349,
2,1,0,1,1,20899.1,-0.0499541,-0.050403,8.63389,11,-0.00134923,10,-0.000435174,-2.06379,0.0448972,1.31411,429.096,-0.050403,
2,1,0,1,1,20899.1,-0.047557,-0.0479705,9.63366,11,-0.00131258,10,-0.000462131,-2.01621,0.0533946,1.10498,405.769,-0.04797047,
2,1,0,1,1,20899.1,-0.0451544,-0.0456482,10.5844,11,-0.00127204,10,-0.000483159,-1.97533,0.0614424,0.960248,389.219,-0.0456482,
2,1,0,1,1,20899.1,-0.0427545,-0.0431955,11.4998,11,-0.00122777,10,-0.000496741,-1.93931,0.070239,0.839989,370.715,-0.0431955,
2,1,0,1,1,20899.1,-0.0403574,-0.0408286,12.3604,11,-0.00117995,10,-0.00050466,-1.90797,0.0806177,0.731849,348.281,-0.0408286,
2,1,0,1,1,20899.1,-0.0379603,-0.0384395,13.1669,11,-0.0011288,10,-0.00050613,-1.88052,0.0904499,0.652295,331.751,-0.0384395,
2,1,0,1,1,20899.1,-0.0355521,-0.0359592,13.9589,11,-0.00107445,10,-0.000501951,-1.85515,0.101223,0.582871,314.489,-0.03595924,
2,1,0,1,1,20899.1,-0.033155,-0.033567,14.6941,11,-0.00101706,10,-0.000493236,-1.83286,0.112032,0.526634,299.525,-0.033567,
2,1,0,1,1,20899.1,-0.0307579,-0.0311598,15.4012,11,-0.000956789,10,-0.000479898,-1.81245,0.123683,0.477025,284.568,-0.0311598,
2,1,0,1,1,20899.1,-0.0283524,-0.0287251,16.0766,11,-0.000893779,10,-0.000461803,-1.79381,0.135893,0.434166,270.363,-0.0287251,
2,1,0,1,1,20899.1,-0.0259553,-0.0263488,16.6937,11,-0.000828135,10,-0.000439859,-1.77745,0.149634,0.394295,255.379,-0.0263488,
2,1,0,1,1,20899.1,-0.0235582,-0.0239713,17.2884,11,-0.000760104,10,-0.000414426,-1.76224,0.163578,0.360685,242.299,-0.0239713,
2,1,0,1,1,20899.1,-0.0211611,-0.0215674,17.8509,11,-0.000689748,10,-0.000384997,-1.74834,0.177038,0.333262,231.278,-0.0215674,
2,1,0,1,1,20899.1,-0.0187529,-0.0191285,18.4019,11,-0.000617169,10,-0.000352,-1.73514,0.192975,0.30574,218.613,-0.01912846,
2,1,0,1,1,20899.1,-0.0163558,-0.0167362,18.9169,11,-0.00054247,10,-0.000316597,-1.72315,0.208164,0.28343,208.34,-0.0167362,
2,1,0,1,1,20899.1,-0.0139587,-0.0143354,19.3949,11,-0.0004658,10,-0.000278035,-1.71231,0.226167,0.260869,196.786,-0.01433542,
2,1,0,1,1,20899.1,-0.0115505,-0.0119506,19.8544,11,-0.000387248,10,-0.000237272,-1.70214,0.244498,0.24131,186.426,-0.0119506,
2,1,0,1,1,20899.1,-0.0091534,-0.00955086,20.2866,11,-0.00030691,10,-0.000193755,-1.69279,0.263165,0.224194,177.025,-0.00955086,
2,1,0,1,1,20899.1,-0.00675629,-0.00716707,20.7008,11,-0.000224861,10,-0.000148364,-1.68401,0.281912,0.209285,168.703,-0.00716707,
2,1,0,1,1,20899.2,-0.00435919,-0.0047398,21.0936,11,-0.000141232,10,-9.99795e-05,-1.67585,0.317081,0.186072,152.322,-0.0047398,
2,1,0,1,1,20899.2,-0.00195376,-0.00233692,21.4763,11,-5.60138e-05,10,-5.01883e-05,-1.66804, , , ,-0.00233692,
2,1,0,0,1,20899.2,-7.54729e-05,-0.000401673,21.6802,11,1.0951e-05,10,-8.70837e-06,-1.66394, , , ,-0.000401673,