File: Figure_codes/Fig_3-5/rawdata_trumpetplot_data/after 10th/20221101_1-115_003_TrumpetPlot_ParaChange_from10_every3_08_CV_C01_34.csv
mode,ox/red,error,control changes,counter inc.,time/s,control/V,Ewe/V,<I>/mA,cycle number,(Q-Qo)/C,I Range,P/W,log(|I|),Tafel slope mV/dec,alpha_eff,dI/d(E-IR),E-IR/V,
2,0,0,0,0,68159.5,2.44065e-05,-0.000401673,-3.93657,35,0.0000000E+000,10,1.58121e-06,-2.40488, , , ,-0.000401673,
2,0,0,1,0,68159.5,0.0012943,0.000965797,-2.45015,35,-4.83158e-05,10,-2.36635e-06,-2.61081, , , ,0.000965797,
2,0,0,1,0,68159.5,0.00279784,0.00252619,-1.34332,35,-8.31167e-05,10,-3.39349e-06,-2.87182,-0.00433759,-13.602,636.259,0.00252619,
2,0,0,1,0,68159.5,0.00429425,0.00396274,-0.558521,35,-0.00010032,10,-2.21328e-06,-3.25296,-0.00449927,-13.1132,469.694,0.00396274,
2,0,0,1,0,68159.5,0.00579065,0.00548404,0.0452635,35,-0.000104669,10,2.48227e-07,-4.34425,-0.0521924,-1.13043,371.811,0.005484038,
2,1,0,1,0,68159.5,0.00729419,0.00694694,0.534508,35,-9.88135e-05,10,3.7132e-06,-3.27205,0.00454065,12.9937,298.627,0.00694694,
2,1,0,1,0,68159.6,0.00878347,0.00846439,0.930467,35,-8.48118e-05,10,7.87583e-06,-3.0313,0.00730724,8.07418,242.956,0.00846439,
2,1,0,1,0,68159.6,0.010287,0.00997365,1.25974,35,-6.39356e-05,10,1.25642e-05,-2.89972,0.0131972,4.47064,203.199,0.00997365,
2,1,0,1,0,68159.6,0.0117905,0.0114969,1.53223,35,-3.73744e-05,10,1.76159e-05,-2.81468,0.0198349,2.97455,170.362,0.0114969,
2,1,0,1,0,68159.6,0.013278,0.0129468,1.76571,35,-6.43241e-06,10,2.28603e-05,-2.75308,0.0266747,2.21183,148.698,0.0129468,
2,1,0,1,0,68159.6,0.0147816,0.0144564,1.9628,35,2.89461e-05,10,2.83751e-05,-2.70712,0.0354215,1.66566,125.69,0.0144564,
2,1,0,1,0,68159.7,0.0162851,0.0159432,2.14009,35,6.79467e-05,10,3.41199e-05,-2.66957,0.0435082,1.35607,111.876,0.0159432,
2,1,0,1,0,68159.7,0.0177744,0.0174729,2.29504,35,0.000109567,10,4.0101e-05,-2.63921,0.0544539,1.08348,96.276,0.0174729,
2,1,0,1,0,68159.7,0.0192779,0.0189276,2.42788,35,0.000154286,10,4.59541e-05,-2.61477,0.066356,0.889143,83.8625,0.0189276,
2,1,0,1,0,68159.7,0.0207743,0.0204532,2.55591,35,0.000201179,10,5.22765e-05,-2.59245,0.0762356,0.773917,76.7004,0.0204532,
2,1,0,1,0,68159.7,0.0222707,0.0219731,2.6649,35,0.000250257,10,5.85561e-05,-2.57432,0.0879423,0.670895,69.611,0.0219731,
2,1,0,1,0,68159.7,0.0237743,0.0234721,2.77121,35,0.0003016,10,6.50462e-05,-2.55733,0.104667,0.563694,60.6978,0.02347213,
2,1,0,1,0,68159.8,0.0252636,0.0249306,2.8594,35,0.000354181,10,7.12867e-05,-2.54372,0.113439,0.520102,57.9883,0.0249306,
2,1,0,1,0,68159.8,0.0267671,0.0264767,2.9507,35,0.000408993,10,7.81246e-05,-2.53008,0.120947,0.487819,55.9795,0.0264767,
2,1,0,1,0,68159.8,0.0282706,0.0279665,3.0355,35,0.000465442,10,8.48925e-05,-2.51777,0.130927,0.450633,53.1724,0.0279665,
2,1,0,1,0,68159.8,0.0297581,0.0294253,3.11404,35,0.000522797,10,9.16316e-05,-2.50668,0.139618,0.42258,51.2303,0.02942533,
2,1,0,1,0,68159.8,0.0312617,0.0309288,3.17989,35,0.000582166,10,9.83502e-05,-2.49759,0.14913,0.395629,49.0788,0.0309288,
2,1,0,1,0,68159.9,0.0327652,0.0324694,3.25429,35,0.000642892,10,0.000105665,-2.48754,0.155529,0.37935,48.1402,0.0324694,
2,1,0,1,0,68159.9,0.0342545,0.0339204,3.3259,35,0.000704271,10,0.000112816,-2.47809,0.158788,0.371566,48.1629,0.0339204,
2,1,0,1,0,68159.9,0.035758,0.035477,3.3944,35,0.000767629,10,0.000120423,-2.46924,0.176627,0.334037,44.1475,0.035477,
2,1,0,1,0,68159.9,0.0372544,0.0369338,3.45562,35,0.000831943,10,0.000127629,-2.46147,0.185163,0.318638,42.954,0.0369338,
2,1,0,1,0,68159.9,0.0387508,0.0384189,3.51679,35,0.000897369,10,0.000135111,-2.45385,0.188953,0.312247,42.9106,0.0384189,
2,1,0,1,0,68160,0.0402544,0.0399005,3.57941,35,0.000964367,10,0.00014282,-2.44619,0.194975,0.302602,42.3398,0.0399005,
2,1,0,1,0,68160,0.0417436,0.0414278,3.64851,35,0.00103191,10,0.00015115,-2.43788,0.201032,0.293485,41.7459,0.04142784,
2,1,0,1,0,68160,0.0432472,0.0429466,3.70693,35,0.00110133,10,0.0001592,-2.43099,0.222336,0.265364,38.4223,0.0429466,
2,1,0,1,0,68160,0.0447507,0.0444096,3.76803,35,0.00117187,10,0.000167336,-2.42389,0.228577,0.258119,37.9932,0.0444096,
2,1,0,1,0,68160,0.0462382,0.0459287,3.83083,35,0.00124279,10,0.000175945,-2.41671,0.228204,0.258541,38.6441,0.0459287,
2,1,0,1,0,68160,0.0477418,0.0474363,3.8925,35,0.0013156,10,0.000184645,-2.40977,0.230945,0.255472,38.7657,0.0474363,
2,1,0,1,0,68160.1,0.0492453,0.0489564,3.95392,35,0.00138955,10,0.00019357,-2.40297,0.245875,0.239959,36.9454,0.0489564,
2,1,0,1,0,68160.1,0.0507346,0.0504006,4.00409,35,0.00146377,10,0.000201808,-2.3975,0.242936,0.242862,37.968,0.0504006,
2,1,0,1,0,68160.1,0.0522381,0.0519231,4.06494,35,0.00153982,10,0.000211065,-2.39095,0.248037,0.237868,37.7207,0.05192313,
2,1,0,1,0,68160.1,0.0537345,0.0534404,4.12847,35,0.00161661,10,0.000220627,-2.38421,0.231348,0.255027,41.0138,0.0534404,
2,1,0,1,0,68160.1,0.0552309,0.0549123,4.18435,35,0.0016945,10,0.000229773,-2.37837,0.256534,0.229989,37.4929,0.0549123,
2,1,0,1,0,68160.2,0.0567345,0.0563896,4.23349,35,0.00177386,10,0.000238725,-2.3733,0.25941,0.227439,37.5974,0.0563896,
2,1,0,1,0,68160.2,0.0582237,0.0578838,4.29188,35,0.00185337,10,0.00024843,-2.36735,0.258155,0.228545,38.2862,0.0578838,
2,1,0,1,0,68160.2,0.0597273,0.0594057,4.3443,35,0.00193478,10,0.000258076,-2.36208,0.259157,0.227661,38.6148,0.0594057,
2,1,0,1,0,68160.2,0.0612308,0.0609153,4.39497,35,0.00201725,10,0.000267721,-2.35704,0.273955,0.215364,36.9659,0.0609153,
2,1,0,1,0,68160.2,0.0627183,0.0624355,4.45521,35,0.00209986,10,0.000278163,-2.35113,0.284681,0.20725,35.996,0.0624355,
2,1,0,1,0,68160.3,0.0642219,0.0639366,4.50159,35,0.00218427,10,0.000287816,-2.34663,0.29301,0.201358,35.4285,0.0639366,
2,1,0,1,0,68160.3,0.0657254,0.0654073,4.55308,35,0.0022697,10,0.000297805,-2.34169,0.305916,0.192864,34.2884,0.0654073,
2,1,0,1,0,68160.3,0.0672147,0.0669319,4.61272,35,0.00235527,10,0.000308738,-2.33604,0.315625,0.186931,33.6345,0.0669319,
2,1,0,1,0,68160.3,0.0687182,0.0684098,4.66142,35,0.0024427,10,0.000318887,-2.33148,0.35408,0.166629,30.2973,0.0684098,
2,1,0,1,0,68160.3,0.0702146,0.0698841,4.7082,35,0.00253055,10,0.000329028,-2.32715,0.372398,0.158433,29.1042,0.0698841,
2,1,0,1,0,68160.3,0.071711,0.0714195,4.7543,35,0.00261925,10,0.00033955,-2.32291,0.353314,0.16699,31.0054,0.07141947,
2,1,0,1,0,68160.4,0.0732146,0.0729038,4.80885,35,0.00270935,10,0.000350584,-2.31796,0.360748,0.163549,30.6613,0.0729038,
2,1,0,1,0,68160.4,0.0747038,0.0743661,4.85676,35,0.0027994,10,0.000361179,-2.31365,0.391114,0.150851,28.5245,0.07436607,
2,1,0,1,0,68160.4,0.0762074,0.0759306,4.89441,35,0.00289122,10,0.000371635,-2.3103,0.394435,0.149581,28.5653,0.0759306,
2,1,0,1,0,68160.4,0.0777109,0.0773655,4.94395,35,0.00298383,10,0.000382491,-2.30593,0.379606,0.155424,29.9233,0.0773655,
2,1,0,1,0,68160.4,0.0791984,0.0789082,4.98554,35,0.00307626,10,0.0003934,-2.30229,0.396198,0.148915,28.9109,0.0789082,
2,1,0,1,0,68160.5,0.0807019,0.0804048,5.02058,35,0.00317046,10,0.000403679,-2.29925,0.427535,0.138,26.9936,0.0804048,
2,1,0,1,0,68160.5,0.0822055,0.0819352,5.05377,35,0.00326544,10,0.000414082,-2.29638,0.416489,0.14166,27.972,0.0819352,
2,1,0,1,0,68160.5,0.0836947,0.0834022,5.09457,35,0.00336006,10,0.000424898,-2.29289,0.434513,0.135784,27.0207,0.0834022,
2,1,0,1,0,68160.5,0.0851983,0.0848385,5.13081,35,0.00345646,10,0.00043529,-2.28981,0.452113,0.130498,26.145,0.0848385,
2,1,0,1,0,68160.5,0.0866947,0.0863554,5.16763,35,0.00355307,10,0.000446253,-2.28671,0.497425,0.118611,23.9317,0.0863554,
2,1,0,1,0,68160.6,0.0881911,0.0879034,5.20497,35,0.00365037,10,0.000457535,-2.28358,0.510914,0.115479,23.4655,0.0879034,
2,1,0,1,0,68160.6,0.0896946,0.0893612,5.23915,35,0.0037488,10,0.000468176,-2.28074,0.540372,0.109184,22.3546,0.0893612,
2,1,0,1,0,68160.6,0.0911839,0.0908367,5.28087,35,0.00384688,10,0.000479697,-2.27729,0.478028,0.123424,25.437,0.0908367,
2,1,0,1,0,68160.6,0.0926857,0.0923903,5.31993,35,0.00394679,10,0.00049151,-2.27409,0.490398,0.12031,24.9889,0.0923903,
2,1,0,1,0,68160.6,0.0941892,0.0938825,5.36085,35,0.00404746,10,0.00050329,-2.27077,0.514473,0.114681,23.9981,0.0938825,
2,1,0,1,0,68160.6,0.0956785,0.0953621,5.39912,35,0.00414776,10,0.000514872,-2.26768,0.471771,0.125061,26.3779,0.0953621,
2,1,0,1,0,68160.7,0.097182,0.0968693,5.44717,35,0.00424992,10,0.000527664,-2.26383,0.416387,0.141695,30.0952,0.0968693,
2,1,0,1,0,68160.7,0.0986856,0.0983554,5.49217,35,0.00435296,10,0.000540185,-2.26026,0.383826,0.153716,32.9608,0.09835542,
2,1,0,1,0,68160.7,0.100175,0.0998702,5.54541,35,0.00445578,10,0.000553821,-2.25607,0.366033,0.161188,34.8773,0.0998702,
2,1,0,1,0,68160.7,0.101678,0.10136,5.59637,35,0.0045607,10,0.000567248,-2.25209,0.325685,0.181157,39.5871,0.10136,
2,1,0,1,0,68160.7,0.103175,0.102895,5.66004,35,0.00466613,10,0.00058239,-2.24718,0.305986,0.192819,42.5942,0.102895,
2,1,0,1,0,68160.8,0.104671,0.104405,5.72673,35,0.00477274,10,0.000597897,-2.24209,0.276811,0.213142,47.6132,0.104405,
2,1,0,1,0,68160.8,0.106175,0.105837,5.79299,35,0.00488121,10,0.000613113,-2.2371,0.277025,0.212977,48.1398,0.105837,
2,1,0,1,0,68160.8,0.107662,0.10733,5.8605,35,0.00498985,10,0.000629006,-2.23207,0.260445,0.226536,51.8653,0.10733,
2,1,0,1,0,68160.8,0.109166,0.108847,5.93252,35,0.00510098,10,0.000645739,-2.22676,0.258099,0.228595,53.0283,0.108847,
2,1,0,1,0,68160.8,0.110669,0.110342,6.01616,35,0.00521361,10,0.000663833,-2.22068,0.250218,0.235794,55.4081,0.110342,
2,1,0,1,0,68160.9,0.112159,0.111843,6.1049,35,0.00532662,10,0.000682788,-2.21432,0.251529,0.234566,55.8756,0.111843,
2,1,0,1,0,68160.9,0.113662,0.11334,6.18887,35,0.00544244,10,0.000701446,-2.20839,0.258057,0.228631,55.2163,0.11334,
2,1,0,1,0,68160.9,0.115166,0.11482,6.27009,35,0.00555981,10,0.000719929,-2.20273,0.264657,0.22293,54.5819,0.1148196,
2,1,0,1,0,68160.9,0.116655,0.116311,6.36038,35,0.00567753,10,0.000739783,-2.19652,0.266452,0.221428,54.9558,0.116311,
2,1,0,1,0,68160.9,0.118158,0.117852,6.4488,35,0.00579817,10,0.000760002,-2.19052,0.277669,0.212483,53.4451,0.117852,
2,1,0,1,0,68160.9,0.119655,0.119381,6.53417,35,0.00591976,10,0.000780059,-2.18481,0.308868,0.19102,48.627,0.119381,
2,1,0,1,0,68161,0.121151,0.120856,6.60777,35,0.00604277,10,0.000798586,-2.17995,0.306084,0.192758,49.6895,0.120856,
2,1,0,1,0,68161,0.122655,0.122339,6.68546,35,0.00616786,10,0.000817892,-2.17487,0.293136,0.201272,52.4576,0.122339,
2,1,0,1,0,68161,0.124142,0.12381,6.76294,35,0.0062931,10,0.000837317,-2.16986,0.302888,0.194791,51.3467,0.12381,
2,1,0,1,0,68161,0.125646,0.125296,6.83141,35,0.00642107,10,0.000855951,-2.16549,0.347579,0.169746,45.1941,0.125296,
2,1,0,1,0,68161,0.127149,0.12678,6.89133,35,0.00655031,10,0.000873684,-2.1617,0.384439,0.153471,41.2518,0.1267802,
2,1,0,1,0,68161.1,0.128639,0.12833,6.94674,35,0.00667923,10,0.000891477,-2.15822,0.415773,0.141905,38.4765,0.12833,
2,1,0,1,0,68161.1,0.130142,0.129815,7.00135,35,0.00681058,10,0.000908883,-2.15482,0.444579,0.13271,36.2376,0.129815,
2,1,0,1,0,68161.1,0.131646,0.131343,7.04725,35,0.00694296,10,0.00092561,-2.15198,0.531077,0.111095,30.5357,0.131343,
2,1,0,1,0,68161.1,0.133135,0.132833,7.09295,35,0.00707477,10,0.000942174,-2.14917,0.5948,0.099193,27.4557,0.132833,
2,1,0,1,0,68161.1,0.134639,0.134278,7.13204,35,0.00720868,10,0.000957679,-2.14679,0.696562,0.0847017,23.5776,0.134278,
2,1,0,1,0,68161.2,0.136135,0.135795,7.16731,35,0.00734268,10,0.000973282,-2.14464,0.745867,0.0791026,22.1118,0.135795,
2,1,0,1,0,68161.2,0.137631,0.137322,7.19953,35,0.00747725,10,0.00098865,-2.1427,0.991691,0.0594944,16.7076,0.1373215,
2,1,0,1,0,68161.2,0.139135,0.138814,7.22632,35,0.00761311,10,0.00100311,-2.14108,1.22006,0.0483583,13.6198,0.138814,
2,1,0,1,0,68161.2,0.140622,0.140348,7.24069,35,0.00774788,10,0.00101621,-2.14022,2.25793,0.0261302,7.37756,0.140348,
2,1,0,1,0,68161.2,0.142126,0.141848,7.25572,35,0.00788437,10,0.00102921,-2.13932,4.81412,0.0122556,3.46503,0.141848,
2,1,0,1,0,68161.2,0.143629,0.143319,7.26255,35,0.00802103,10,0.00104086,-2.13891,-8.36043,-0.00705705,-1.99663,0.143319,
2,1,0,1,0,68161.3,0.145119,0.144819,7.25259,35,0.00815619,10,0.00105032,-2.13951,-1.18767,-0.0496772,-14.0248,0.144819,
2,1,0,1,0,68161.3,0.146622,0.146298,7.22129,35,0.00829246,10,0.00105646,-2.14139,-0.764151,-0.0772098,-21.7275,0.146298,
2,1,0,1,0,68161.3,0.148126,0.147788,7.18312,35,0.0084281,10,0.00106158,-2.14369,-0.540431,-0.109172,-30.519,0.147788,
2,1,0,1,0,68161.3,0.149615,0.149296,7.13395,35,0.00856143,10,0.00106507,-2.14667,-0.38817,-0.151995,-42.187,0.149296,
2,1,0,1,0,68161.3,0.151119,0.150812,7.05174,35,0.00869497,10,0.00106349,-2.1517,-0.291801,-0.202192,-55.4803,0.150812,
2,1,0,1,0,68161.4,0.152615,0.15233,6.95117,35,0.0088262,10,0.00105887,-2.15794,-0.24345,-0.24235,-65.6332,0.1523301,
2,1,0,1,0,68161.4,0.154111,0.153832,6.84322,35,0.00895543,10,0.00105271,-2.16474,-0.196561,-0.300162,-79.9701,0.153832,
2,1,0,1,0,68161.4,0.155615,0.155307,6.70942,35,0.00908309,10,0.00104202,-2.17332,-0.167835,-0.351535,-91.8444,0.1553072,
2,1,0,1,0,68161.4,0.157103,0.15682,6.56352,35,0.00920686,10,0.00102929,-2.18286,-0.146876,-0.4017,-102.617,0.15682,
2,1,0,1,0,68161.4,0.158606,0.158273,6.40034,35,0.00932901,10,0.001013,-2.1938,-0.127617,-0.462323,-115.348,0.158273,
2,1,0,1,0,68161.5,0.16011,0.159818,6.22161,35,0.00944792,10,0.000994327,-2.2061,-0.117854,-0.500619,-121.513,0.159818,
2,1,0,1,0,68161.5,0.161599,0.16126,6.05196,35,0.00956231,10,0.000975938,-2.2181,-0.114887,-0.513547,-121.107,0.16126,
2,1,0,1,0,68161.5,0.163102,0.16277,5.86846,35,0.00967453,10,0.000955208,-2.23148,-0.107248,-0.550128,-125.847,0.16277,
2,1,0,1,0,68161.5,0.164606,0.164304,5.6828,35,0.00978332,10,0.000933706,-2.24544,-0.106978,-0.551518,-122.34,0.164304,
2,1,0,1,0,68161.5,0.166095,0.165775,5.50815,35,0.00988754,10,0.000913111,-2.25899,-0.108774,-0.542409,-116.672,0.165775,
2,1,0,1,0,68161.5,0.167599,0.167292,5.33633,35,0.00998962,10,0.000892724,-2.27276,-0.109772,-0.537479,-111.996,0.167292,
2,1,0,1,0,68161.6,0.169095,0.168755,5.17486,35,0.0100881,10,0.000873283,-2.2861,-0.115919,-0.508978,-102.866,0.168755,
2,1,0,1,0,68161.6,0.170592,0.170305,5.02624,35,0.0101836,10,0.000855993,-2.29876,-0.115,-0.513042,-100.624,0.170305,
2,1,0,1,0,68161.6,0.172095,0.17178,4.87699,35,0.0102768,10,0.000837771,-2.31185,-0.122896,-0.480082,-91.4623,0.17178,
2,1,0,1,0,68161.6,0.173583,0.173257,4.74446,35,0.0103664,10,0.00082201,-2.32381,-0.130548,-0.451942,-83.7591,0.173257,
2,1,0,1,0,68161.6,0.175086,0.174811,4.61594,35,0.0104545,10,0.000806918,-2.33574,-0.138159,-0.427044,-77.034,0.174811,
2,1,0,1,0,68161.7,0.17659,0.176266,4.49928,35,0.0105405,10,0.000793071,-2.34686,-0.143314,-0.411684,-72.3733,0.176266,
2,1,0,1,0,68161.7,0.178079,0.177771,4.39303,35,0.0106234,10,0.000780952,-2.35724,-0.150931,-0.390907,-67.1398,0.177771,
2,1,0,1,0,68161.7,0.179582,0.17928,4.29221,35,0.0107053,10,0.000769509,-2.36732,-0.162466,-0.363152,-61.0508,0.17928,
2,1,0,1,0,68161.7,0.181086,0.180808,4.20488,35,0.0107855,10,0.000760276,-2.37625,-0.175639,-0.335916,-55.2375,0.180808,
2,1,0,1,0,68161.7,0.182575,0.1823,4.12427,35,0.0108632,10,0.000751856,-2.38465,-0.17312,-0.340805,-54.8967,0.1823004,
2,1,0,1,0,68161.8,0.184079,0.183756,4.04886,35,0.0109403,10,0.000744002,-2.39267,-0.178118,-0.331241,-52.3782,0.183756,
2,1,0,1,0,68161.8,0.185582,0.185244,3.97259,35,0.0110159,10,0.000735898,-2.40093,-0.197661,-0.298491,-46.4017,0.185244,
2,1,0,1,0,68161.8,0.18707,0.186776,3.91612,35,0.0110895,10,0.000731439,-2.40714,-0.207107,-0.284877,-43.5177,0.186776,
2,1,0,1,0,68161.8,0.188573,0.188235,3.8539,35,0.0111627,10,0.000725439,-2.4141,-0.22346,-0.264029,-39.7278,0.188235,
2,1,0,1,0,68161.8,0.19007,0.189765,3.8027,35,0.0112345,10,0.000721619,-2.41991,-0.239126,-0.246732,-36.5637,0.189765,
2,1,0,1,0,68161.8,0.191566,0.191232,3.74863,35,0.0113052,10,0.000716858,-2.42613,-0.253304,-0.232922,-34.0692,0.191232,
2,1,0,1,0,68161.9,0.19307,0.192709,3.69561,35,0.0113753,10,0.000712177,-2.43231,-0.292692,-0.201577,-29.085,0.192709,
2,1,0,1,0,68161.9,0.194559,0.194225,3.65615,35,0.0114439,10,0.000710115,-2.43698,-0.314085,-0.187847,-26.805,0.194225,
2,1,0,1,0,68161.9,0.196063,0.195744,3.61618,35,0.0115123,10,0.000707848,-2.44175,-0.317461,-0.185849,-26.1862,0.195744,
2,1,0,1,0,68161.9,0.197566,0.197242,3.56769,35,0.0115801,10,0.000703699,-2.44761,-0.355806,-0.165821,-23.1252,0.197242,
2,1,0,1,0,68161.9,0.199055,0.198738,3.5331,35,0.0116463,10,0.000702162,-2.45184,-0.376977,-0.156508,-21.6118,0.198738,
2,1,0,1,0,68162,0.200559,0.200252,3.50207,35,0.0117127,10,0.000701295,-2.45568,-0.43481,-0.135691,-18.5629,0.200252,
2,1,0,1,0,68162,0.202062,0.20177,3.47351,35,0.0117785,10,0.000700849,-2.45923,-0.424077,-0.139126,-18.8497,0.20177,
2,1,0,1,0,68162,0.20355,0.203212,3.4396,35,0.0118431,10,0.000698968,-2.46349,-0.419461,-0.140657,-18.9107,0.203212,
2,1,0,1,0,68162,0.205053,0.204728,3.41043,35,0.0119077,10,0.000698213,-2.46719,-0.476907,-0.123714,-16.5239,0.204728,
2,1,0,1,0,68162,0.20655,0.206254,3.3864,35,0.0119715,10,0.00069846,-2.47026,-0.537424,-0.109783,-14.5361,0.206254,
2,1,0,1,0,68162.1,0.208046,0.207703,3.36943,35,0.0120351,10,0.000699842,-2.47244,-0.465027,-0.126874,-16.6839,0.207703,
2,1,0,1,0,68162.1,0.20955,0.209266,3.34764,35,0.0120985,10,0.000700548,-2.47526,-0.450182,-0.131058,-17.1321,0.209266,
2,1,0,1,0,68162.1,0.211039,0.210731,3.32459,35,0.0121607,10,0.000700595,-2.47826,-0.490863,-0.120197,-15.6019,0.210731,
2,1,0,1,0,68162.1,0.212543,0.212277,3.30743,35,0.0122233,10,0.000702089,-2.48051,-0.552303,-0.106825,-13.7819,0.212277,
2,1,0,1,0,68162.1,0.214046,0.213751,3.29444,35,0.0122855,10,0.000704189,-2.48222,-0.65379,-0.0902431,-11.5825,0.213751,
2,1,0,1,0,68162.1,0.215535,0.215187,3.27387,35,0.0123467,10,0.000704493,-2.48494,-0.694187,-0.0849915,-10.8512,0.215187,
2,1,0,1,0,68162.2,0.217039,0.216723,3.25266,35,0.0124083,10,0.000704925,-2.48776,-0.728048,-0.0810387,-10.3001,0.216723,
2,1,0,1,0,68162.2,0.218543,0.218247,3.23875,35,0.0124695,10,0.000706846,-2.48962,-1.04661,-0.0563725,-7.12989,0.218247,
2,1,0,1,0,68162.2,0.22003,0.219783,3.23081,35,0.0125298,10,0.000710076,-2.49069,-1.13868,-0.0518146,-6.52245,0.2197828,
2,1,0,1,0,68162.2,0.221534,0.221218,3.21355,35,0.0125906,10,0.000710896,-2.49301,-0.905147,-0.0651828,-8.16752,0.221218,
2,1,0,1,0,68162.2,0.22303,0.222704,3.19635,35,0.0126508,10,0.000711842,-2.49535,-0.83972,-0.0702615,-8.77011,0.222704,
2,1,0,1,0,68162.3,0.224526,0.224255,3.18033,35,0.0127107,10,0.000713207,-2.49753,-0.973292,-0.060619,-7.53464,0.224255,
2,1,0,1,0,68162.3,0.22603,0.225738,3.16909,35,0.0127707,10,0.000715384,-2.49907,-1.40156,-0.0420958,-5.21742,0.225738,
2,1,0,1,0,68162.3,0.227519,0.227223,3.16392,35,0.0128298,10,0.000718917,-2.49977,-0.796322,-0.0740906,-9.14085,0.227223,
2,1,0,1,0,68162.3,0.229023,0.228691,3.14995,35,0.0128895,10,0.000720363,-2.5017,-0.960305,-0.0614388,-7.55763,0.228691,
2,1,0,1,0,68162.3,0.230526,0.230248,3.13684,35,0.0129488,10,0.000722252,-2.50351,-1.03582,-0.0569595,-6.98901,0.230248,
2,1,0,1,0,68162.4,0.232016,0.23168,3.13548,35,0.0130074,10,0.000726428,-2.5037,-0.855884,-0.0689346,-8.43686,0.23168,
2,1,0,1,0,68162.4,0.233519,0.233215,3.12445,35,0.0130665,10,0.000728667,-2.50523,-1.20209,-0.0490813,-5.98766,0.233215,
2,1,0,1,0,68162.4,0.235023,0.234722,3.12213,35,0.0131254,10,0.000732832,-2.50555,-1.06641,-0.0553257,-6.73326,0.234722,
2,1,0,1,0,68162.4,0.23651,0.236208,3.10856,35,0.0131835,10,0.000734267,-2.50744,-1.05008,-0.056186,-6.82036,0.236208,
2,1,0,1,0,68162.4,0.238014,0.237671,3.10435,35,0.0132421,10,0.000737815,-2.50803,-1.20284,-0.0490505,-5.9319,0.237671,
2,1,0,1,0,68162.4,0.23951,0.239213,3.09695,35,0.0133002,10,0.000740832,-2.50907,-2.34896,-0.0251175,-3.03238,0.239213,
2,1,0,1,0,68162.5,0.241006,0.240714,3.08556,35,0.0133582,10,0.000742736,-2.51067,-1.64069,-0.0359604,-4.3301,0.240714,
2,1,0,1,0,68162.5,0.24251,0.242231,3.07497,35,0.0134164,10,0.000744855,-2.51216,-1.94749,-0.0302954,-3.64003,0.2422315,
2,1,0,1,0,68162.5,0.243999,0.243726,3.07542,35,0.0134738,10,0.000749559,-2.5121,-3.97957,-0.0148257,-1.77835,0.243726,
2,1,0,1,0,68162.5,0.245503,0.245233,3.06908,35,0.0135317,10,0.00075264,-2.51299,-2.86987,-0.0205585,-2.45777,0.245233,
2,1,0,1,0,68162.5,0.247006,0.246727,3.05634,35,0.0135895,10,0.000754083,-2.5148,-1.62153,-0.0363854,-4.34145,0.246727,
2,1,0,1,0,68162.6,0.248496,0.248178,3.04727,35,0.0136466,10,0.000756266,-2.51609,-2.31452,-0.0254913,-3.03719,0.248178,
2,1,0,1,0,68162.6,0.249999,0.249703,3.0447,35,0.0137041,10,0.000760271,-2.51646,-1.71368,-0.0344288,-4.09425,0.249703,
2,1,0,1,0,68162.6,0.251503,0.251181,3.03669,35,0.0137616,10,0.000762759,-2.5176,-4.23743,-0.0139235,-1.65341,0.251181,
2,1,0,1,0,68162.6,0.25299,0.25269,3.03644,35,0.0138183,10,0.000767276,-2.51764,-1.67974,-0.0351246,-4.16,0.25269,
2,1,0,1,0,68162.6,0.254494,0.254196,3.02879,35,0.0138756,10,0.000769905,-2.51873,-1.3902,-0.04244,-5.01569,0.254196,
2,1,0,1,0,68162.7,0.25599,0.25571,3.02305,35,0.0139324,10,0.000773024,-2.51956,-1.33491,-0.0441977,-5.22096,0.2557103,
2,1,0,1,0,68162.7,0.257487,0.257192,3.02007,35,0.0139892,10,0.000776737,-2.51998,-2.06064,-0.0286319,-3.37672,0.2571919,
2,1,0,1,0,68162.7,0.25899,0.25876,3.01933,35,0.0140461,10,0.000781284,-2.52009,-2.64727,-0.0222871,-2.62283,0.25876,
2,1,0,1,0,68162.7,0.260479,0.260163,3.01738,35,0.0141024,10,0.000785012,-2.52037,-1.23846,-0.0476398,-5.59584,0.260163,
2,1,0,1,0,68162.7,0.261983,0.261718,3.01115,35,0.0141592,10,0.000788073,-2.52127,-1.90672,-0.0309432,-3.63202,0.261718,
2,1,0,1,0,68162.7,0.263486,0.263191,2.9989,35,0.0142158,10,0.000789282,-2.52304,-6.56998,-0.00898024,-1.05137,0.263191,
2,1,0,1,0,68162.8,0.264974,0.264628,3.00148,35,0.0142718,10,0.000794276,-2.52266,-5.06206,-0.0116553,-1.36214,0.264628,
2,1,0,1,0,68162.8,0.266477,0.266155,2.99161,35,0.0143283,10,0.000796231,-2.5241,-2.86936,-0.020562,-2.40169,0.266155,
2,1,0,1,0,68162.8,0.267981,0.267689,2.98296,35,0.0143847,10,0.000798506,-2.52535,-1.94333,-0.0303603,-3.5376,0.2676889,
2,1,0,1,0,68162.8,0.26947,0.269176,2.97954,35,0.0144404,10,0.00080202,-2.52585,-6.05204,-0.00974878,-1.1358,0.269176,
2,1,0,1,0,68162.8,0.270974,0.270691,2.98212,35,0.0144967,10,0.000807234,-2.52548,-2.73011,-0.0216108,-2.51034,0.270691,
2,1,0,1,0,68162.9,0.27247,0.272162,2.96918,35,0.0145526,10,0.000808099,-2.52736,-2.06667,-0.0285484,-3.3093,0.272162,
2,1,0,1,0,68162.9,0.273967,0.273665,2.96685,35,0.0146083,10,0.000811925,-2.5277,-1.52848,-0.0386004,-4.47248,0.273665,
2,1,0,1,0,68162.9,0.27547,0.275172,2.96334,35,0.0146643,10,0.000815428,-2.52822,-1.63475,-0.0360911,-4.17093,0.275172,
2,1,0,1,0,68162.9,0.276959,0.276658,2.95425,35,0.0147195,10,0.000817314,-2.52955,-2.0524,-0.0287469,-3.31975,0.276658,
2,1,0,1,0,68162.9,0.278463,0.278112,2.95095,35,0.0147753,10,0.000820694,-2.53004,-1.15668,-0.0510081,-5.87654,0.278112,
2,1,0,1,0,68163,0.279967,0.27966,2.94723,35,0.014831,10,0.000824222,-2.53059,-1.42749,-0.0413313,-4.75607,0.27966,
2,1,0,1,0,68163,0.281454,0.281131,2.94531,35,0.014886,10,0.000828019,-2.53087,-1.52307,-0.0387375,-4.45052,0.281131,
2,1,0,1,0,68163,0.282958,0.28263,2.94199,35,0.0149415,10,0.000831493,-2.53136,-2.79192,-0.0211324,-2.42293,0.28263,
2,1,0,1,0,68163,0.284461,0.284209,2.94,35,0.0149969,10,0.000835574,-2.53165,-3.51445,-0.0167878,-1.92085,0.284209,
2,1,0,1,0,68163,0.28595,0.285653,2.93128,35,0.0150517,10,0.000837328,-2.53294,-1.66875,-0.0353558,-4.04446,0.285653,
2,1,0,1,0,68163,0.287454,0.287148,2.92506,35,0.015107,10,0.000839923,-2.53387,-2.26702,-0.0260253,-2.97103,0.287148,
2,1,0,1,0,68163.1,0.28895,0.288647,2.92157,35,0.0151618,10,0.000843301,-2.53438,-15.2411,-0.00387111,-0.440881,0.288647,
2,1,0,1,0,68163.1,0.290447,0.29016,2.91668,35,0.0152166,10,0.000846303,-2.53511,-5.15771,-0.0114392,-1.30235,0.29016,
2,1,0,1,0,68163.1,0.29195,0.291673,2.90646,35,0.0152715,10,0.000847736,-2.53664,-3.49841,-0.0168648,-1.9149,0.291673,
2,1,0,1,0,68163.1,0.29344,0.293119,2.90545,35,0.0153259,10,0.000851643,-2.53679,-3.45106,-0.0170962,-1.93725,0.293119,
2,1,0,1,0,68163.1,0.294943,0.294684,2.89837,35,0.0153806,10,0.000854102,-2.53785,-8.43569,-0.00699409,-0.791799,0.294684,
2,1,0,1,0,68163.2,0.296447,0.296166,2.896,35,0.0154354,10,0.000857696,-2.5382,-2.93754,-0.0200849,-2.26875,0.296166,
2,1,0,1,0,68163.2,0.297934,0.297634,2.8886,35,0.0154894,10,0.000859748,-2.53931,-2.14236,-0.0275398,-3.10785,0.297634,
2,1,0,1,0,68163.2,0.299438,0.299132,2.88639,35,0.015544,10,0.000863412,-2.53965,-0.0350829,-1.68173,-176.625,0.2991322,
2,1,0,1,0,68163.2,0.300012,0.299766,2.89568,35,0.0155643,10,0.000868025,-2.53825,0.00217977,27.067,2109.44,0.299766,
2,1,0,1,0,68163.2,0.298737,0.298418,1.60797,35,0.015598,10,0.000479845,-2.79372,0.00477987,12.3434,709.939,0.298418,
2,1,0,1,0,68163.2,0.29724,0.296942,0.815883,35,0.0156199,10,0.00024227,-3.08837,0.00363371,16.2369,453.398,0.296942,
2,1,0,1,0,68163.3,0.295744,0.29543,0.292549,35,0.0156298,10,8.64278e-05,-3.5338,0.00519202,11.3636,302.922,0.29543,
2,0,0,1,0,68163.3,0.29424,0.293907,-0.0764458,35,0.0156314,10,-2.2468e-05,-4.11665,0.202068,0.291981,214.435,0.293907,
2,0,0,1,0,68163.3,0.292751,0.292438,-0.350337,35,0.0156271,10,-0.000102452,-3.45551,-0.00313473,-18.8214,163.834,0.292438,
2,0,0,1,0,68163.3,0.291248,0.290923,-0.560977,35,0.0156183,10,-0.000163201,-3.25105,-0.00871178,-6.77244,126.284,0.290923,
2,0,0,1,0,68163.3,0.289744,0.289456,-0.724562,35,0.015606,10,-0.000209729,-3.13992,-0.0152229,-3.87574,102.358,0.289456,
2,0,0,1,0,68163.3,0.288257,0.287913,-0.857675,35,0.015591,10,-0.000246936,-3.06668,-0.0235152,-2.50901,80.9027,0.287913,
2,0,0,1,0,68163.4,0.286753,0.286443,-0.961972,35,0.0155736,10,-0.00027555,-3.01684,-0.030376,-1.94233,71.6868,0.286443,
2,0,0,1,0,68163.4,0.285249,0.28495,-1.05347,35,0.0155543,10,-0.000300186,-2.97738,-0.0413197,-1.42789,58.2105,0.28495,
2,0,0,1,0,68163.4,0.28376,0.283429,-1.13631,35,0.0155336,10,-0.000322063,-2.9445,-0.0523759,-1.12647,49.6143,0.283429,
2,0,0,1,0,68163.4,0.282257,0.28194,-1.21085,35,0.0155113,10,-0.000341389,-2.91691,-0.064231,-0.91856,43.0153,0.28194,
2,0,0,1,0,68163.4,0.28076,0.280458,-1.27394,35,0.0154878,10,-0.000357285,-2.89485,-0.0776197,-0.760116,37.5602,0.280458,
2,0,0,1,0,68163.5,0.279264,0.278954,-1.32651,35,0.0154633,10,-0.000370035,-2.87729,-0.0886679,-0.665404,34.4342,0.278954,
2,0,0,1,0,68163.5,0.27776,0.277451,-1.38011,35,0.0154376,10,-0.000382912,-2.86009,-0.101104,-0.583558,31.3404,0.277451,
2,0,0,1,0,68163.5,0.276271,0.275954,-1.4351,35,0.0154113,10,-0.00039602,-2.84312,-0.111524,-0.529033,29.3977,0.275954,
2,0,0,1,0,68163.5,0.274767,0.274462,-1.47389,35,0.0153838,10,-0.000404526,-2.83154,-0.126833,-0.465179,26.6331,0.274462,
2,0,0,1,0,68163.5,0.273264,0.272912,-1.514,35,0.0153556,10,-0.000413189,-2.81987,-0.134509,-0.438632,25.7688,0.272912,
2,0,0,1,0,68163.6,0.271776,0.271477,-1.54696,35,0.015327,10,-0.000419963,-2.81052,-0.134813,-0.437642,26.3611,0.271477,
2,0,0,1,0,68163.6,0.270273,0.269925,-1.5841,35,0.0152974,10,-0.000427588,-2.80022,-0.144764,-0.407559,25.1181,0.269925,
2,0,0,1,0,68163.6,0.268769,0.268467,-1.61489,35,0.0152672,10,-0.000433545,-2.79186,-0.167393,-0.352463,22.187,0.268467,
2,0,0,1,0,68163.6,0.26728,0.26692,-1.64094,35,0.0152367,10,-0.000438001,-2.78491,-0.179222,-0.329201,21.1218,0.26692,
2,0,0,1,0,68163.6,0.265777,0.265464,-1.67085,35,0.0152053,10,-0.000443552,-2.77706,-0.182412,-0.323444,21.1267,0.265464,
2,0,0,1,0,68163.6,0.26428,0.263969,-1.69653,35,0.0151735,10,-0.000447832,-2.77044,-0.202693,-0.291081,19.3343,0.263969,
2,0,0,1,0,68163.7,0.262784,0.262448,-1.72903,35,0.0151411,10,-0.000453779,-2.7622,-0.233208,-0.252994,17.0588,0.262448,
2,0,0,1,0,68163.7,0.26128,0.260972,-1.75298,35,0.0151082,10,-0.000457479,-2.75622,-0.269036,-0.219301,15.0192,0.260972,
2,0,0,1,0,68163.7,0.259791,0.259473,-1.77822,35,0.0150751,10,-0.000461401,-2.75001,-0.250922,-0.235133,16.3575,0.259473,
2,0,0,1,0,68163.7,0.258287,0.25798,-1.80416,35,0.0150412,10,-0.000465438,-2.74372,-0.258324,-0.228395,16.0703,0.2579799,
2,0,0,1,0,68163.7,0.256786,0.256439,-1.82943,35,0.0150068,10,-0.000469139,-2.73768,-0.306596,-0.192436,13.7167,0.2564393,
2,0,0,1,0,68163.8,0.255296,0.254964,-1.85717,35,0.0149724,10,-0.000473511,-2.73115,-0.320665,-0.183993,13.2927,0.254964,
2,0,0,1,0,68163.8,0.253793,0.253461,-1.87333,35,0.0149372,10,-0.000474817,-2.72739,-0.365986,-0.161208,11.7613,0.253461,
2,0,0,1,0,68163.8,0.252289,0.251976,-1.89392,35,0.0149016,10,-0.000477223,-2.72264,-0.341207,-0.172916,12.7601,0.251976,
2,0,0,1,0,68163.8,0.2508,0.250466,-1.91698,35,0.014866,10,-0.000480138,-2.71738,-0.310614,-0.189946,14.1953,0.250466,
2,0,0,1,0,68163.8,0.249296,0.249006,-1.94101,35,0.0148296,10,-0.000483323,-2.71197,-0.367624,-0.16049,12.1137,0.249006,
2,0,0,1,0,68163.9,0.2478,0.247451,-1.95426,35,0.0147931,10,-0.000483584,-2.70902,-0.357163,-0.165191,12.6085,0.247451,
2,0,0,1,0,68163.9,0.246304,0.246018,-1.97672,35,0.0147562,10,-0.00048631,-2.70405,-0.29356,-0.200981,15.4846,0.246018,
2,0,0,1,0,68163.9,0.2448,0.244495,-1.9953,35,0.0147187,10,-0.000487842,-2.69999,-0.296971,-0.198673,15.4333,0.244495,
2,0,0,1,0,68163.9,0.243313,0.24298,-2.00679,35,0.0146812,10,-0.000487609,-2.6975,-0.404058,-0.146019,11.4363,0.24298,
2,0,0,1,0,68163.9,0.241809,0.241472,-2.02112,35,0.0146431,10,-0.000488045,-2.69441,-0.367277,-0.160642,12.7151,0.241472,
2,0,0,1,0,68163.9,0.240306,0.239955,-2.04219,35,0.0146047,10,-0.000490033,-2.6899,-0.370713,-0.159153,12.6996,0.239955,
2,0,0,1,0,68164,0.238816,0.238516,-2.05935,35,0.0145662,10,-0.000491188,-2.68627,-0.391107,-0.150854,12.1257,0.2385156,
2,0,0,1,0,68164,0.237313,0.236981,-2.07976,35,0.0145271,10,-0.000492864,-2.68199,-0.56174,-0.105031,8.51112,0.236981,
2,0,0,1,0,68164,0.235809,0.23548,-2.09624,35,0.0144876,10,-0.000493624,-2.67856,-0.474816,-0.124259,10.1657,0.23548,
2,0,0,1,0,68164,0.23432,0.234003,-2.11074,35,0.0144483,10,-0.00049392,-2.67556,-0.522868,-0.112839,9.30979,0.234003,
2,0,0,1,0,68164,0.232816,0.23248,-2.13362,35,0.0144083,10,-0.000496024,-2.67088,-0.491117,-0.120134,9.9731,0.2324803,
2,0,0,1,0,68164.1,0.23132,0.230972,-2.15008,35,0.0143681,10,-0.000496608,-2.66755,-0.549817,-0.107308,8.98099,0.230972,
2,0,0,1,0,68164.1,0.229824,0.22953,-2.16875,35,0.0143276,10,-0.000497793,-2.66379,-0.527316,-0.111887,9.43515,0.22953,
2,0,0,1,0,68164.1,0.22832,0.22798,-2.17783,35,0.0142867,10,-0.000496502,-2.66198,-0.491511,-0.120038,10.2029,0.22798,
2,0,0,1,0,68164.1,0.226833,0.226556,-2.19503,35,0.0142458,10,-0.000497298,-2.65856,-0.422026,-0.139802,11.9504,0.226556,
2,0,0,1,0,68164.1,0.225329,0.225028,-2.21283,35,0.0142043,10,-0.000497948,-2.65505,-0.473533,-0.124595,10.7401,0.225028,
2,0,0,1,0,68164.2,0.223825,0.223471,-2.2237,35,0.0141624,10,-0.000496931,-2.65292,-0.465959,-0.126621,10.9943,0.223471,
2,0,0,1,0,68164.2,0.222336,0.222057,-2.23514,35,0.0141207,10,-0.000496328,-2.65069,-0.529805,-0.111362,9.72559,0.222057,
2,0,0,1,0,68164.2,0.220833,0.220544,-2.25098,35,0.0140783,10,-0.000496439,-2.64763,-0.402921,-0.146431,12.8749,0.220544,
2,0,0,1,0,68164.2,0.219329,0.219045,-2.26669,35,0.0140356,10,-0.000496507,-2.64461,-0.464212,-0.127097,11.2699,0.219045,
2,0,0,1,0,68164.2,0.21784,0.217517,-2.28089,35,0.0139931,10,-0.000496131,-2.6419,-0.553316,-0.10663,9.48975,0.217517,
2,0,0,1,0,68164.2,0.216336,0.216021,-2.29193,35,0.0139498,10,-0.000495104,-2.6398,-0.527047,-0.111944,10.0403,0.216021,
2,0,0,1,0,68164.3,0.21484,0.214557,-2.3083,35,0.0139065,10,-0.000495261,-2.63671,-0.587573,-0.100413,9.08336,0.214557,
2,0,0,1,0,68164.3,0.213343,0.213048,-2.32758,35,0.0138629,10,-0.000495885,-2.6331,-0.567131,-0.104032,9.46248,0.2130477,
2,0,0,1,0,68164.3,0.21184,0.211546,-2.34116,35,0.0138187,10,-0.000495263,-2.63057,-0.775736,-0.0760568,6.94914,0.211546,
2,0,0,1,0,68164.3,0.210352,0.21003,-2.35936,35,0.0137748,10,-0.000495536,-2.62721,-0.664867,-0.0887395,8.16917,0.21003,
2,0,0,1,0,68164.3,0.208849,0.208546,-2.37103,35,0.0137302,10,-0.000494468,-2.62506,-0.576203,-0.102394,9.50286,0.2085458,
2,0,0,1,0,68164.4,0.207345,0.207029,-2.38773,35,0.0136853,10,-0.000494331,-2.62201,-0.512596,-0.1151,10.7277,0.2070294,
2,0,0,1,0,68164.4,0.205856,0.205528,-2.40877,35,0.0136405,10,-0.000495069,-2.6182,-0.606716,-0.0972449,9.11154,0.2055276,
2,0,0,1,0,68164.4,0.204353,0.203999,-2.42029,35,0.0135949,10,-0.000493737,-2.61613,-0.70299,-0.0839272,7.92346,0.203999,
2,0,0,1,0,68164.4,0.202849,0.202489,-2.43462,35,0.0135491,10,-0.000492984,-2.61357,-0.568959,-0.103698,9.8463,0.202489,
2,0,0,1,0,68164.4,0.20136,0.201024,-2.45248,35,0.0135036,10,-0.000493006,-2.61039,-0.447813,-0.131752,12.586,0.2010237,
2,0,0,1,0,68164.5,0.199856,0.199517,-2.46257,35,0.0134572,10,-0.000491325,-2.60861,-0.564493,-0.104519,10.0417,0.199517,
2,0,0,1,0,68164.5,0.19836,0.198041,-2.47485,35,0.0134108,10,-0.000490122,-2.60645,-0.497946,-0.118487,11.4629,0.198041,
2,0,0,1,0,68164.5,0.196863,0.196555,-2.48724,35,0.0133642,10,-0.000488879,-2.60428,-0.514809,-0.114606,11.1557,0.1965549,
2,0,0,1,0,68164.5,0.19536,0.195022,-2.50402,35,0.013317,10,-0.000488339,-2.60136,-0.486547,-0.121263,11.8714,0.195022,
2,0,0,1,0,68164.5,0.193872,0.193507,-2.52674,35,0.01327,10,-0.000488941,-2.59744,-0.468121,-0.126036,12.4236,0.193507,
2,0,0,1,0,68164.5,0.192369,0.192071,-2.53987,35,0.0132222,10,-0.000487837,-2.59519,-0.545512,-0.108155,10.7091,0.192071,
2,0,0,1,0,68164.6,0.190865,0.190541,-2.55052,35,0.013174,10,-0.000485979,-2.59337,-0.562352,-0.104917,10.4703,0.190541,
2,0,0,1,0,68164.6,0.189376,0.18903,-2.57067,35,0.0131262,10,-0.000485935,-2.58995,-0.666802,-0.088482,8.89368,0.18903,
2,0,0,1,0,68164.6,0.187872,0.187546,-2.58512,35,0.0130775,10,-0.000484828,-2.58752,-0.622966,-0.0947083,9.56723,0.1875457,
2,0,0,1,0,68164.6,0.186369,0.186037,-2.60948,35,0.0130284,10,-0.00048546,-2.58345,-0.68294,-0.0863912,8.77759,0.186037,
2,0,0,1,0,68164.6,0.18488,0.184522,-2.62713,35,0.0129795,10,-0.000484765,-2.58052,-0.634877,-0.0929313,9.52338,0.184522,
2,0,0,1,0,68164.7,0.183376,0.183049,-2.63874,35,0.0129299,10,-0.000483019,-2.5786,-0.583511,-0.101112,10.4357,0.183049,
2,0,0,1,0,68164.7,0.18188,0.181568,-2.66716,35,0.0128801,10,-0.000484271,-2.57395,-0.440296,-0.134001,13.9054,0.181568,
2,0,0,1,0,68164.7,0.180383,0.180103,-2.68609,35,0.01283,10,-0.000483772,-2.57088,-0.446853,-0.132035,13.7972,0.180103,
2,0,0,1,0,68164.7,0.17888,0.178546,-2.70053,35,0.0127792,10,-0.000482169,-2.56855,-0.477645,-0.123523,12.9971,0.178546,
2,0,0,1,0,68164.7,0.177392,0.177097,-2.71601,35,0.0127287,10,-0.000480998,-2.56607,-0.423484,-0.13932,14.8023,0.177097,
2,0,0,1,0,68164.8,0.175889,0.175516,-2.73651,35,0.0126772,10,-0.0004803,-2.5628,-0.40325,-0.146311,15.6366,0.175516,
2,0,0,1,0,68164.8,0.174385,0.174059,-2.76139,35,0.0126253,10,-0.000480645,-2.55887,-0.38711,-0.152411,16.4154,0.174059,
2,0,0,1,0,68164.8,0.172896,0.172579,-2.78064,35,0.0125736,10,-0.00047988,-2.55585,-0.423869,-0.139194,15.0999,0.172579,
2,0,0,1,0,68164.8,0.171392,0.171082,-2.79412,35,0.0125209,10,-0.000478023,-2.55376,-0.385787,-0.152934,16.7303,0.171082,
2,0,0,1,0,68164.8,0.169889,0.169592,-2.82695,35,0.0124677,10,-0.000479428,-2.54868,-0.391701,-0.150625,16.6375,0.1695917,
2,0,0,1,0,68164.8,0.1684,0.168088,-2.85252,35,0.0124147,10,-0.000479475,-2.54477,-0.364183,-0.162006,18.045,0.1680882,
2,0,0,1,0,68164.9,0.166896,0.166602,-2.87506,35,0.0123606,10,-0.000478992,-2.54135,-0.418328,-0.141038,15.8387,0.166602,
2,0,0,1,0,68164.9,0.165392,0.165035,-2.90778,35,0.012306,10,-0.000479885,-2.53644,-0.389562,-0.151452,17.1752,0.165035,
2,0,0,1,0,68164.9,0.163905,0.163558,-2.9316,35,0.0122515,10,-0.000479487,-2.53289,-0.394936,-0.149391,17.1399,0.163558,
2,0,0,1,0,68164.9,0.162401,0.162069,-2.96661,35,0.0121959,10,-0.000480795,-2.52774,-0.320792,-0.18392,21.2806,0.162069,
2,0,0,1,0,68164.9,0.160905,0.160582,-3.00296,35,0.0121399,10,-0.000482223,-2.52245,-0.322297,-0.183061,21.4167,0.160582,
2,0,0,1,0,68165,0.159409,0.159089,-3.04184,35,0.0120834,10,-0.000483921,-2.51686,-0.30124,-0.195857,23.1947,0.159089,
2,0,0,1,0,68165,0.157905,0.157564,-3.07225,35,0.0120258,10,-0.000484075,-2.51254,-0.268671,-0.219599,26.3287,0.157564,
2,0,0,1,0,68165,0.156416,0.156053,-3.11237,35,0.0119681,10,-0.000485695,-2.50691,-0.241906,-0.243897,29.6534,0.156053,
2,0,0,1,0,68165,0.154912,0.154566,-3.15566,35,0.011909,10,-0.000487757,-2.50091,-0.229492,-0.25709,31.6864,0.154566,
2,0,0,1,0,68165,0.153409,0.15307,-3.20194,35,0.0118491,10,-0.000490121,-2.49459,-0.22589,-0.261189,32.6388,0.1530699,
2,0,0,1,0,68165.1,0.151919,0.151596,-3.24462,35,0.0117889,10,-0.00049187,-2.48884,-0.208431,-0.283068,35.9898,0.151596,
2,0,0,1,0,68165.1,0.150416,0.150109,-3.30055,35,0.0117272,10,-0.000495441,-2.48141,-0.185279,-0.318439,41.1109,0.150109,
2,0,0,1,0,68165.1,0.148912,0.148632,-3.36514,35,0.0116643,10,-0.000500167,-2.473,-0.170835,-0.345363,45.3744,0.148632,
2,0,0,1,0,68165.1,0.147425,0.147094,-3.4292,35,0.0116009,10,-0.000504415,-2.46481,-0.163468,-0.360926,48.4068,0.147094,
2,0,0,1,0,68165.1,0.145921,0.145579,-3.49929,35,0.0115354,10,-0.000509423,-2.45602,-0.151827,-0.3886,53.295,0.145579,
2,0,0,1,0,68165.1,0.144425,0.144085,-3.58494,35,0.0114689,10,-0.000516538,-2.44552,-0.145498,-0.405505,56.906,0.144085,
2,0,0,1,0,68165.2,0.142929,0.142588,-3.67979,35,0.0114007,10,-0.000524695,-2.43418,-0.134102,-0.439963,63.2643,0.142588,
2,0,0,1,0,68165.2,0.141425,0.14111,-3.77866,35,0.0113304,10,-0.000533208,-2.42266,-0.13183,-0.447547,66.0235,0.14111,
2,0,0,1,0,68165.2,0.139936,0.139573,-3.88631,35,0.0112589,10,-0.000542424,-2.41046,-0.126889,-0.464972,70.5895,0.139573,
2,0,0,1,0,68165.2,0.138432,0.138082,-4.00061,35,0.0111847,10,-0.00055241,-2.39787,-0.117823,-0.500749,78.32,0.138082,
2,0,0,1,0,68165.2,0.136929,0.136582,-4.12534,35,0.0111081,10,-0.000563445,-2.38454,-0.112801,-0.523047,84.2745,0.136582,
2,0,0,1,0,68165.3,0.135439,0.135111,-4.26235,35,0.0110299,10,-0.00057589,-2.37035,-0.109103,-0.540772,89.8916,0.135111,
2,0,0,1,0,68165.3,0.133936,0.133619,-4.40367,35,0.0109484,10,-0.000588414,-2.35619,-0.109265,-0.539972,92.6505,0.133619,
2,0,0,1,0,68165.3,0.132432,0.132106,-4.54597,35,0.0108642,10,-0.000600547,-2.34237,-0.106037,-0.556412,98.6071,0.132106,
2,0,0,1,0,68165.3,0.130945,0.130628,-4.69318,35,0.0107782,10,-0.000613059,-2.32853,-0.104836,-0.562785,102.941,0.130628,
2,0,0,1,0,68165.3,0.129441,0.129107,-4.84592,35,0.0106884,10,-0.000625642,-2.31462,-0.107535,-0.548656,103.662,0.129107,
2,0,0,1,0,68165.4,0.127945,0.127639,-4.9949,35,0.0105961,10,-0.000637546,-2.30147,-0.111076,-0.531166,103.527,0.127639,
2,0,0,1,0,68165.4,0.126448,0.126143,-5.14493,35,0.0105011,10,-0.000649,-2.28862,-0.116173,-0.507864,101.95,0.126143,
2,0,0,1,0,68165.4,0.124945,0.124627,-5.29672,35,0.0104027,10,-0.000660113,-2.27599,-0.117669,-0.501408,103.628,0.124627,
2,0,0,1,0,68165.4,0.123456,0.123136,-5.44998,35,0.0103024,10,-0.000671087,-2.2636,-0.126275,-0.467233,99.3223,0.123136,
2,0,0,1,0,68165.4,0.121952,0.121669,-5.59897,35,0.0101983,10,-0.00068122,-2.25189,-0.135009,-0.437008,95.3837,0.121669,
2,0,0,1,0,68165.4,0.120449,0.120133,-5.73757,35,0.0100914,10,-0.000689273,-2.24127,-0.141655,-0.416505,93.2884,0.120133,
2,0,0,1,0,68165.5,0.118959,0.118624,-5.88041,35,0.00998309,10,-0.000697559,-2.23059,-0.152929,-0.385799,88.5619,0.1186241,
2,0,0,1,0,68165.5,0.117456,0.117153,-6.02376,35,0.00987097,10,-0.000705702,-2.22013,-0.156643,-0.376653,88.4888,0.117153,
2,0,0,1,0,68165.5,0.115952,0.115625,-6.15914,35,0.00975624,10,-0.000712152,-2.21048,-0.169259,-0.348578,83.5743,0.115625,
2,0,0,1,0,68165.5,0.114465,0.114118,-6.28264,35,0.00964034,10,-0.000716963,-2.20186,-0.181051,-0.325875,79.8116,0.114118,
2,0,0,1,0,68165.5,0.112961,0.112647,-6.39994,35,0.00952098,10,-0.000720933,-2.19382,-0.187883,-0.314025,78.3861,0.112647,
2,0,0,1,0,68165.6,0.111465,0.111152,-6.51818,35,0.00939998,10,-0.000724505,-2.18587,-0.198555,-0.297146,75.4951,0.111152,
2,0,0,1,0,68165.6,0.109968,0.109649,-6.62983,35,0.00927687,10,-0.000726954,-2.1785,-0.219394,-0.268923,69.4779,0.109649,
2,0,0,1,0,68165.6,0.108465,0.108122,-6.73402,35,0.00915107,10,-0.000728098,-2.17173,-0.233913,-0.25223,66.1304,0.108122,
2,0,0,1,0,68165.6,0.106976,0.106629,-6.81622,35,0.00902488,10,-0.000726807,-2.16646,-0.257862,-0.228805,60.8361,0.1066291,
2,0,0,1,0,68165.6,0.105472,0.105163,-6.90561,35,0.00889565,10,-0.000726217,-2.1608,-0.275414,-0.214223,57.6874,0.105163,
2,0,0,1,0,68165.7,0.103968,0.10368,-6.98598,35,0.00876485,10,-0.00072431,-2.15577,-0.320893,-0.183862,50.0788,0.10368,
2,0,0,1,0,68165.7,0.102479,0.102125,-7.05328,35,0.00863404,10,-0.000720317,-2.15161,-0.38233,-0.154317,42.4236,0.102125,
2,0,0,1,0,68165.7,0.100976,0.100623,-7.10709,35,0.00850064,10,-0.000715139,-2.14831,-0.436304,-0.135227,37.4988,0.1006234,
2,0,0,1,0,68165.7,0.0994721,0.0991377,-7.15598,35,0.00836628,10,-0.000709427,-2.14533,-0.544698,-0.108317,30.2352,0.0991377,
2,0,0,1,0,68165.7,0.0979846,0.0976628,-7.2027,35,0.0082325,10,-0.000703436,-2.1425,-0.716337,-0.0823634,23.1137,0.0976628,
2,0,0,1,0,68165.7,0.0964811,0.0961375,-7.23108,35,0.0080966,10,-0.000695179,-2.1408,-1.11603,-0.0528658,14.8954,0.0961375,
2,0,0,1,0,68165.8,0.0949847,0.094611,-7.24791,35,0.00796098,10,-0.000685733,-2.13979,-2.07279,-0.0284641,8.04322,0.094611,
2,0,0,1,0,68165.8,0.0934883,0.0932018,-7.26048,35,0.00782516,10,-0.00067669,-2.13903,-6.1421,-0.00960584,2.71954,0.0932018,
2,0,0,1,0,68165.8,0.0919847,0.0916149,-7.26435,35,0.00768846,10,-0.000665522,-2.1388,19.3338,0.00305166,-0.864159,0.0916149,
2,0,0,1,0,68165.8,0.0904955,0.0901717,-7.26624,35,0.00755318,10,-0.00065521,-2.13869,2.42281,0.0243519,-6.88993,0.0901717,
2,0,0,1,0,68165.8,0.0889919,0.0886935,-7.25174,35,0.00741665,10,-0.000643182,-2.13956,1.32158,0.0446436,-12.6146,0.0886935,
2,0,0,1,0,68165.9,0.0874884,0.0871764,-7.22913,35,0.00728049,10,-0.00063021,-2.14091,1.10822,0.0532387,-14.9965,0.0871764,
2,0,0,1,0,68165.9,0.0860009,0.0856774,-7.20339,35,0.00714618,10,-0.000617168,-2.14246,1.07222,0.055026,-15.4454,0.0856774,
2,0,0,1,0,68165.9,0.0844974,0.0841609,-7.16935,35,0.00701095,10,-0.00060338,-2.14452,0.872244,0.0676416,-18.9115,0.0841609,
2,0,0,1,0,68165.9,0.0829938,0.0826909,-7.13752,35,0.00687629,10,-0.000590208,-2.14645,0.719634,0.0819861,-22.8135,0.0826909,
2,0,0,1,0,68165.9,0.0815045,0.0811918,-7.09506,35,0.00674375,10,-0.000576061,-2.14904,0.756313,0.07801,-21.6081,0.08119183,
2,0,0,1,0,68166,0.080001,0.0796587,-7.0636,35,0.00661045,10,-0.000562678,-2.15097,0.761408,0.077488,-21.3599,0.0796587,
2,0,0,1,0,68166,0.0785046,0.0781834,-7.02873,35,0.00647843,10,-0.00054953,-2.15312,0.801914,0.073574,-20.1903,0.0781834,
2,0,0,1,0,68166,0.0770082,0.0766678,-6.99495,35,0.00634709,10,-0.000536287,-2.15522,0.675842,0.0872985,-23.8288,0.0766678,
2,0,0,1,0,68166,0.0755046,0.0751981,-6.95176,35,0.00621568,10,-0.000522759,-2.15791,0.745636,0.079127,-21.508,0.0751981,
2,0,0,1,0,68166,0.0740154,0.0736677,-6.92892,35,0.00608632,10,-0.000510438,-2.15933,0.729091,0.0809227,-21.8969,0.0736677,
2,0,0,1,0,68166,0.0725118,0.0721952,-6.90126,35,0.00595612,10,-0.000498238,-2.16107,0.823918,0.071609,-19.2922,0.0721952,
2,0,0,1,0,68166.1,0.0710083,0.0706454,-6.86994,35,0.00582645,10,-0.00048533,-2.16305,0.798734,0.0738669,-19.8044,0.0706454,
2,0,0,1,0,68166.1,0.0695208,0.0691811,-6.84579,35,0.00569865,10,-0.0004736,-2.16458,0.768804,0.0767425,-20.5008,0.0691811,
2,0,0,1,0,68166.1,0.0680173,0.0676736,-6.81614,35,0.00557008,10,-0.000461272,-2.16646,0.856505,0.0688846,-18.3398,0.0676736,
2,0,0,1,0,68166.1,0.0665137,0.0662096,-6.79615,35,0.00544196,10,-0.000449971,-2.16774,1.04557,0.0564286,-14.9638,0.0662096,
2,0,0,1,0,68166.1,0.0650244,0.0647198,-6.77363,35,0.0053156,10,-0.000438388,-2.16918,1.02919,0.0573266,-15.1423,0.0647198,
2,0,0,1,0,68166.2,0.0635209,0.0631461,-6.75312,35,0.00518834,10,-0.000426434,-2.1705,0.873209,0.0675669,-17.7813,0.0631461,
2,0,0,1,0,68166.2,0.0620245,0.0617061,-6.7281,35,0.00506222,10,-0.000415165,-2.17211,1.01459,0.0581514,-15.2551,0.0617061,
2,0,0,1,0,68166.2,0.0605281,0.0602336,-6.7006,35,0.00493656,10,-0.000403602,-2.17389,1.00805,0.0585286,-15.2945,0.0602336,
2,0,0,1,0,68166.2,0.0590246,0.058707,-6.67985,35,0.00481065,10,-0.000392154,-2.17523,1.10566,0.0533619,-13.8964,0.058707,
2,0,0,1,0,68166.2,0.0575353,0.057226,-6.64842,35,0.00468654,10,-0.000380463,-2.17728,1.05156,0.0561071,-14.5613,0.057226,
2,0,0,1,0,68166.3,0.0560317,0.0556871,-6.61624,35,0.00456162,10,-0.000368439,-2.17939,0.980383,0.0601805,-15.5483,0.0556871,
2,0,0,1,0,68166.3,0.0545282,0.0542255,-6.59465,35,0.00443719,10,-0.000357598,-2.18081,0.94492,0.0624392,-16.0762,0.0542255,
2,0,0,1,0,68166.3,0.0530407,0.0527149,-6.5688,35,0.00431455,10,-0.000346274,-2.18251,0.922756,0.0639389,-16.3946,0.0527149,
2,0,0,1,0,68166.3,0.0515372,0.0512026,-6.54116,35,0.00419105,10,-0.000334924,-2.18435,0.776102,0.0760209,-19.401,0.0512026,
2,0,0,1,0,68166.3,0.0500336,0.0497141,-6.50813,35,0.0040681,10,-0.000323546,-2.18654,0.697744,0.0845582,-21.4959,0.0497141,
2,0,0,1,0,68166.3,0.0485444,0.0481708,-6.4795,35,0.00394705,10,-0.000312122,-2.18846,0.691692,0.0852981,-21.583,0.0481708,
2,0,0,1,0,68166.4,0.0470408,0.0467253,-6.45356,35,0.00382524,10,-0.000301544,-2.1902,0.653612,0.0902676,-22.7234,0.0467253,
2,0,0,1,0,68166.4,0.0455444,0.0452065,-6.42532,35,0.00370462,10,-0.000290466,-2.19211,0.603362,0.0977854,-24.4931,0.0452065,
2,0,0,1,0,68166.4,0.044048,0.0436911,-6.39266,35,0.00358463,10,-0.000279302,-2.19432,0.617185,0.0955953,-23.8416,0.0436911,
2,0,0,1,0,68166.4,0.0425445,0.0422128,-6.35641,35,0.00346465,10,-0.000268322,-2.19679,0.669213,0.0881633,-21.8842,0.0422128,
2,0,0,1,0,68166.4,0.0410552,0.0406964,-6.32922,35,0.00334653,10,-0.000257577,-2.19865,0.693605,0.0850628,-20.9935,0.0406964,
2,0,0,1,0,68166.5,0.0395516,0.0391963,-6.29845,35,0.00322773,10,-0.000246876,-2.20077,0.675641,0.0873245,-21.4314,0.0391963,
2,0,0,1,0,68166.5,0.0380481,0.0376864,-6.26453,35,0.00310956,10,-0.000236087,-2.20311,0.613441,0.0961788,-23.4709,0.0376864,
2,0,0,1,0,68166.5,0.0365606,0.0362531,-6.2181,35,0.00299336,10,-0.000225426,-2.20634,0.608142,0.0970169,-23.5375,0.0362531,
2,0,0,1,0,68166.5,0.0350571,0.0347664,-6.17911,35,0.00287664,10,-0.000214825,-2.20907,0.660991,0.0892599,-21.5238,0.0347664,
2,0,0,1,0,68166.5,0.0335535,0.033265,-6.142,35,0.00276062,10,-0.000204313,-2.21169,0.611693,0.0964536,-23.1186,0.03326495,
2,0,0,1,0,68166.6,0.0320643,0.0317594,-6.0988,35,0.00264654,10,-0.000193694,-2.21476,0.519562,0.113557,-27.0334,0.03175943,
2,0,0,1,0,68166.6,0.0305607,0.030229,-6.05319,35,0.00253202,10,-0.000182982,-2.21802,0.474732,0.124281,-29.3902,0.030229,
2,0,0,1,0,68166.6,0.0290643,0.028744,-6.01232,35,0.00241896,10,-0.000172818,-2.22096,0.490058,0.120394,-28.2533,0.028744,
2,0,0,1,0,68166.6,0.0275679,0.0272054,-5.97725,35,0.00230663,10,-0.000162613,-2.2235,0.481633,0.1225,-28.547,0.0272054,
2,0,0,1,0,68166.6,0.0260644,0.0257425,-5.928,35,0.00219452,10,-0.000152601,-2.22709,0.42285,0.13953,-32.2862,0.0257425,
2,0,0,1,0,68166.6,0.0245751,0.0242625,-5.88434,35,0.00208438,10,-0.000142769,-2.2303,0.43639,0.1352,-31.046,0.0242625,
2,0,0,1,0,68166.7,0.0230716,0.0227369,-5.84766,35,0.00197395,10,-0.000132958,-2.23302,0.416899,0.141521,-32.2766,0.0227369,
2,0,0,1,0,68166.7,0.021568,0.0212338,-5.80271,35,0.00186433,10,-0.000123214,-2.23637,0.44642,0.132163,-29.9099,0.0212338,
2,0,0,1,0,68166.7,0.0200805,0.0197402,-5.76048,35,0.00175666,10,-0.000113713,-2.23954,0.467939,0.126085,-28.323,0.0197402,
2,0,0,1,0,68166.7,0.018577,0.0182596,-5.72051,35,0.00164863,10,-0.000104454,-2.24256,0.442555,0.133317,-29.73,0.0182596,
2,0,0,1,0,68166.7,0.0170735,0.0167261,-5.66907,35,0.00154143,10,-9.48216e-05,-2.24649,0.509528,0.115793,-25.6524,0.0167261,
2,0,0,1,0,68166.8,0.0155842,0.0152639,-5.63069,35,0.00143617,10,-8.59462e-05,-2.24944,0.507285,0.116305,-25.5544,0.0152639,
2,0,0,1,0,68166.8,0.0140806,0.0137805,-5.59687,35,0.00133043,10,-7.71279e-05,-2.25205,0.513926,0.114803,-25.0554,0.0137805,
2,0,0,1,0,68166.8,0.0125842,0.0122443,-5.55685,35,0.00122599,10,-6.804e-05,-2.25517,0.543289,0.108598,-23.549,0.0122443,
2,0,0,1,0,68166.8,0.0110878,0.0107801,-5.51666,35,0.00112233,10,-5.94701e-05,-2.25832,0.570994,0.103329,-22.2567,0.0107801,
2,0,0,1,0,68166.8,0.00958428,0.00924253,-5.48374,35,0.00101876,10,-5.06837e-05,-2.26092,0.6525,0.0904215,-19.3445,0.00924253,
2,0,0,1,0,68166.8,0.0080968,0.00776906,-5.4447,35,0.000916905,10,-4.23002e-05,-2.26403,0.609976,0.0967251,-20.576,0.00776906,
2,0,0,1,0,68166.9,0.00659326,0.00626287,-5.41141,35,0.000814581,10,-3.38909e-05,-2.26669,0.632085,0.0933419,-19.7378,0.00626287,
2,0,0,1,0,68166.9,0.00508972,0.00479144,-5.37861,35,0.000712856,10,-2.57713e-05,-2.26933,0.633447,0.0931412,-19.6007,0.00479144,
2,0,0,1,0,68166.9,0.00360044,0.00327877,-5.35657,35,0.000612747,10,-1.7563e-05,-2.27111,1.06718,0.0552857,-11.5921,0.00327877,
2,0,0,1,0,68166.9,0.0020969,0.00171463,-5.3726,35,0.000511927,10,-9.21204e-06,-2.26982,1.03134,0.0572072,-11.9333,0.00171463,
2,0,0,1,0,68166.9,0.000593362,0.0002006,-5.3288,35,0.000411147,10,-1.06896e-06,-2.27337, , , ,0.0002006,
2,0,0,1,0,68166.9,0.000199195,-0.000178351,-5.3216,35,0.000384994,10,9.49113e-07,-2.27396, , , ,-0.000178351,