File: Figure_codes/Fig_3-5/rawdata_trumpetplot_data/after 10th/20221101_1-115_003_TrumpetPlot_ParaChange_from10_every3_13_CV_C01_24.csv
mode,ox/red,error,control changes,counter inc.,time/s,control/V,Ewe/V,<I>/mA,cycle number,(Q-Qo)/C,I Range,P/W,log(|I|),Tafel slope mV/dec,alpha_eff,dI/d(E-IR),E-IR/V,
2,1,0,1,0,48481,2.44065e-05,-0.000268062,16.674,25,0.0000000E+000,10,-4.46967e-06,-1.77796, , , ,-0.000268062,
2,1,0,1,0,48481,0.00266289,0.00226419,17.8933,25,5.40904e-05,10,4.05138e-05,-1.74731, , , ,0.00226419,
2,1,0,1,0,48481,0.00586735,0.00548146,18.9222,25,0.000127891,10,0.000103721,-1.72303, , , ,0.00548146,
2,1,0,1,0,48481,0.00906349,0.00869237,19.8177,25,0.000205476,10,0.000172263,-1.70295,0.164723,0.358176,273.958,0.00869237,
2,1,0,1,0,48481,0.0122624,0.0119139,20.6316,25,0.000286473,10,0.000245803,-1.68547,0.189294,0.311685,249.166,0.0119139,
2,1,0,1,0,48481,0.0154641,0.0150962,21.4087,25,0.00037065,10,0.00032319,-1.66941,0.210265,0.280599,233.036,0.0150962,
2,1,0,1,0,48481,0.0186602,0.0183516,22.129,25,0.000457815,10,0.000406102,-1.65504,0.229588,0.256982,220.778,0.0183516,
2,1,0,1,0,48481,0.0218675,0.0215445,22.8127,25,0.000547782,10,0.000491488,-1.64182,0.250583,0.235451,208.775,0.0215445,
2,1,0,1,0,48481,0.0250636,0.0247056,23.4558,25,0.000640397,10,0.000579488,-1.62975,0.268048,0.22011,200.9,0.0247056,
2,1,0,1,0,48481,0.0282597,0.0279122,24.0844,25,0.000735541,10,0.00067225,-1.61826,0.287722,0.205059,192.248,0.0279122,
2,1,0,1,0,48481,0.031467,0.0311094,24.692,25,0.000833193,10,0.000768152,-1.60744,0.305176,0.193331,185.808,0.0311094,
2,1,0,1,0,48481,0.0346631,0.0343489,25.2743,25,0.000933186,10,0.000868145,-1.59732,0.324126,0.182028,179.109,0.0343489,
2,1,0,1,0,48481,0.0378704,0.037511,25.8351,25,0.00103546,10,0.000969102,-1.58779,0.34399,0.171516,172.581,0.037511,
2,1,0,1,0,48481,0.0410665,0.0407029,26.3753,25,0.00113992,10,0.00107355,-1.5788,0.357489,0.16504,169.674,0.0407029,
2,1,0,1,0,48481,0.0442626,0.0439297,26.9045,25,0.00124654,10,0.00118191,-1.57017,0.375823,0.156989,164.668,0.0439297,
2,1,0,1,0,48481,0.0474671,0.0471194,27.4411,25,0.00135528,10,0.00129301,-1.5616,0.389948,0.151302,161.77,0.0471194,
2,1,0,1,0,48481,0.0506632,0.0503292,27.9459,25,0.00146611,10,0.00140649,-1.55368,0.40368,0.146155,159.181,0.0503292,
2,1,0,1,0,48481.1,0.0538621,0.0534829,28.4427,25,0.00157892,10,0.0015212,-1.54603,0.421175,0.140084,155.384,0.0534829,
2,1,0,1,0,48481.1,0.0570638,0.0566789,28.934,25,0.00169375,10,0.00163995,-1.53859,0.429458,0.137382,155.083,0.0566789,
2,1,0,1,0,48481.1,0.06026,0.0598909,29.4256,25,0.00181052,10,0.00176233,-1.53127,0.441301,0.133696,153.486,0.0598909,
2,1,0,1,0,48481.1,0.0634672,0.0630987,29.9262,25,0.00192929,10,0.0018883,-1.52395,0.453323,0.13015,151.87,0.0630987,
2,1,0,1,0,48481.1,0.0666633,0.0663106,30.4116,25,0.00205003,10,0.00201661,-1.51696,0.460179,0.128211,152.055,0.0663106,
2,1,0,1,0,48481.1,0.0698595,0.0695343,30.8863,25,0.00217269,10,0.00214766,-1.51023,0.473378,0.124636,150.201,0.06953425,
2,1,0,1,0,48481.1,0.0730667,0.0726932,31.3723,25,0.00229726,10,0.00228055,-1.50345,0.474572,0.124323,152.235,0.0726932,
2,1,0,1,0,48481.1,0.0762628,0.0759211,31.8521,25,0.00242376,10,0.00241825,-1.49686,0.481136,0.122627,152.423,0.0759211,
2,1,0,1,0,48481.1,0.0794701,0.0791161,32.3611,25,0.00255222,10,0.00256028,-1.48998,0.489504,0.12053,152.092,0.0791161,
2,1,0,1,0,48481.1,0.0826662,0.0823037,32.8327,25,0.00268265,10,0.00270225,-1.48369,0.496727,0.118778,152.119,0.0823037,
2,1,0,1,0,48481.1,0.0858624,0.0854552,33.3133,25,0.00281497,10,0.00284679,-1.47738,0.507516,0.116252,151.161,0.0854552,
2,1,0,1,0,48481.1,0.0890668,0.0887191,33.799,25,0.00294925,10,0.00299861,-1.4711,0.506036,0.116593,153.824,0.08871913,
2,1,0,1,0,48481.1,0.092263,0.0918961,34.2929,25,0.00308547,10,0.00315138,-1.4648,0.512289,0.115169,154.13,0.0918961,
2,1,0,1,0,48481.1,0.0954674,0.0950784,34.7977,25,0.00322371,10,0.00330851,-1.45845,0.518842,0.113715,154.333,0.0950784,
2,1,0,1,0,48481.1,0.0986636,0.0982713,35.2886,25,0.00336393,10,0.00346786,-1.45237,0.521749,0.113081,155.686,0.0982713,
2,1,0,1,0,48481.1,0.10186,0.1015,35.7715,25,0.00350611,10,0.00363081,-1.44646,0.536348,0.110003,153.582,0.1015,
2,1,0,1,0,48481.1,0.105067,0.104662,36.2804,25,0.00365025,10,0.00379719,-1.44033,0.537445,0.109779,155.423,0.104662,
2,1,0,1,0,48481.1,0.108263,0.107915,36.7691,25,0.00379641,10,0.00396793,-1.43452,0.538941,0.109474,157.08,0.1079146,
2,1,0,1,0,48481.1,0.111465,0.11111,37.284,25,0.00394458,10,0.00414261,-1.42848,0.549183,0.107432,156.273,0.11111,
2,1,0,1,0,48481.1,0.114666,0.114279,37.7788,25,0.00409477,10,0.00431733,-1.42275,0.548572,0.107552,158.545,0.114279,
2,1,0,1,0,48481.1,0.117863,0.117469,38.2817,25,0.00424694,10,0.00449691,-1.41701,0.552685,0.106752,159.537,0.117469,
2,1,0,1,0,48481.1,0.12107,0.12068,38.793,25,0.00440114,10,0.00468153,-1.41125,0.549635,0.107344,162.577,0.1206798,
2,1,0,1,0,48481.1,0.124266,0.123877,39.3208,25,0.00455739,10,0.00487094,-1.40538,0.550089,0.107255,164.623,0.123877,
2,1,0,1,0,48481.1,0.127462,0.127049,39.8548,25,0.0047158,10,0.0050635,-1.39952,0.55234,0.106818,166.105,0.127049,
2,1,0,1,0,48481.1,0.130667,0.130302,40.3943,25,0.00487635,10,0.00526346,-1.39368,0.556722,0.105978,167.027,0.130302,
2,1,0,1,0,48481.2,0.133863,0.13346,40.9158,25,0.00503901,10,0.00546062,-1.38811,0.56463,0.104493,166.854,0.13346,
2,1,0,1,0,48481.2,0.137067,0.136719,41.4659,25,0.0052038,10,0.00566919,-1.38231,0.566364,0.104173,168.535,0.136719,
2,1,0,1,0,48481.2,0.140263,0.13987,41.9941,25,0.00537078,10,0.00587371,-1.37681,0.548394,0.107587,176.483,0.13987,
2,1,0,1,0,48481.2,0.143459,0.142991,42.5329,25,0.00553988,10,0.0060818,-1.37128,0.54631,0.107997,179.554,0.142991,
2,1,0,1,0,48481.2,0.146667,0.146224,43.1685,25,0.00571136,10,0.00631226,-1.36483,0.538463,0.109571,184.58,0.1462239,
2,1,0,1,0,48481.2,0.149863,0.149475,43.7562,25,0.00588527,10,0.00654046,-1.35896,0.538559,0.109552,186.965,0.149475,
2,1,0,1,0,48481.2,0.153064,0.152666,44.356,25,0.00606155,10,0.00677164,-1.35305,0.557412,0.105846,183.14,0.152666,
2,1,0,1,0,48481.2,0.156266,0.155914,44.949,25,0.00624023,10,0.00700818,-1.34728,0.563871,0.104634,183.436,0.1559139,
2,1,0,1,0,48481.2,0.159462,0.159074,45.5218,25,0.00642125,10,0.00724133,-1.34178,0.585067,0.100843,179.045,0.1590739,
2,1,0,1,0,48481.2,0.16267,0.162286,46.1062,25,0.00660456,10,0.00748238,-1.33624,0.605346,0.0974649,175.194,0.162286,
2,1,0,1,0,48481.2,0.165866,0.165483,46.6508,25,0.00679013,10,0.00771992,-1.33114,0.630846,0.0935252,170.108,0.165483,
2,1,0,1,0,48481.2,0.169062,0.16868,47.1856,25,0.00697783,10,0.00795928,-1.32619,0.656626,0.0898533,165.359,0.16868,
2,1,0,1,0,48481.2,0.172266,0.171908,47.705,25,0.0071677,10,0.00820087,-1.32144,0.680342,0.0867211,161.345,0.171908,
2,1,0,1,0,48481.2,0.175462,0.175071,48.2203,25,0.0073596,10,0.00844199,-1.31677,0.72064,0.0818717,153.905,0.175071,
2,1,0,1,0,48481.2,0.178667,0.17824,48.7091,25,0.00755352,10,0.00868189,-1.31239,0.766603,0.0769629,146.081,0.17824,
2,1,0,1,0,48481.2,0.181863,0.181531,49.1635,25,0.00774932,10,0.0089247,-1.30836,0.825231,0.0714952,136.977,0.181531,
2,1,0,1,0,48481.2,0.185059,0.184724,49.5772,25,0.00794685,10,0.0091581,-1.30472,0.910772,0.0647802,125.166,0.184724,
2,1,0,1,0,48481.2,0.188266,0.18787,49.9735,25,0.008146,10,0.00938854,-1.30126,0.998881,0.0590661,115.017,0.18787,
2,1,0,1,0,48481.2,0.191463,0.191085,50.3169,25,0.00834665,10,0.00961483,-1.29829,1.14896,0.0513507,100.641,0.191085,
2,1,0,1,0,48481.2,0.194664,0.194324,50.6348,25,0.0085486,10,0.00983956,-1.29555,1.38459,0.0426118,84.0003,0.194324,
2,1,0,1,0,48481.2,0.197866,0.197522,50.8652,25,0.00875165,10,0.010047,-1.29358,1.72175,0.0342674,67.8713,0.197522,
2,1,0,1,0,48481.2,0.201062,0.200715,51.0525,25,0.00895552,10,0.010247,-1.29198,2.36143,0.0249848,49.6822,0.200715,
2,1,0,1,0,48481.2,0.204269,0.2039,51.1867,25,0.00916002,10,0.010437,-1.29084,3.68175,0.016025,31.9387,0.2039,
2,1,0,1,0,48481.2,0.207465,0.207112,51.2702,25,0.00936495,10,0.0106187,-1.29013,8.88367,0.0066414,13.2544,0.207112,
2,1,0,1,0,48481.2,0.210662,0.210293,51.2731,25,0.00957006,10,0.0107823,-1.29011,-15.7658,-0.00374228,-7.4688,0.210293,
2,1,0,1,0,48481.3,0.213866,0.21353,51.2223,25,0.00977507,10,0.0109375,-1.29054,-4.42152,-0.0133438,-26.6107,0.21353,
2,1,0,1,0,48481.3,0.217062,0.216707,51.091,25,0.00997971,10,0.0110718,-1.29166,-2.55882,-0.0230575,-45.8741,0.216707,
2,1,0,1,0,48481.3,0.220267,0.21997,50.9281,25,0.0101837,10,0.0112026,-1.29304,-1.80977,-0.0326008,-64.6432,0.21997,
2,1,0,1,0,48481.3,0.223463,0.22309,50.686,25,0.010387,10,0.0113075,-1.29511,-1.4139,-0.0417285,-82.3394,0.22309,
2,1,0,1,0,48481.3,0.226659,0.226316,50.3958,25,0.0105891,10,0.0114054,-1.29761,-1.12549,-0.0524218,-102.843,0.226316,
2,1,0,1,0,48481.3,0.229866,0.229549,50.0337,25,0.01079,10,0.0114852,-1.30074,-0.959148,-0.0615129,-119.824,0.229549,
2,1,0,1,0,48481.3,0.233062,0.232734,49.6154,25,0.0109892,10,0.0115472,-1.30438,-0.833589,-0.0707783,-136.769,0.232734,
2,1,0,1,0,48481.3,0.236264,0.235925,49.1481,25,0.0111867,10,0.0115952,-1.30849,-0.735701,-0.0801956,-153.501,0.235925,
2,1,0,1,0,48481.3,0.239466,0.239141,48.6418,25,0.0113823,10,0.0116322,-1.31299,-0.668956,-0.0881972,-167.072,0.239141,
2,1,0,1,0,48481.3,0.242662,0.242342,48.0698,25,0.0115757,10,0.0116493,-1.31813,-0.6086,-0.0969439,-181.508,0.242342,
2,1,0,1,0,48481.3,0.245869,0.245531,47.4773,25,0.0117667,10,0.0116572,-1.32351,-0.559312,-0.105487,-195.058,0.245531,
2,1,0,1,0,48481.3,0.249065,0.24875,46.8201,25,0.0119553,10,0.0116465,-1.32957,-0.528058,-0.11173,-203.845,0.24875,
2,1,0,1,0,48481.3,0.252261,0.251957,46.1419,25,0.0121411,10,0.0116258,-1.3359,-0.49644,-0.118846,-213.8,0.251957,
2,1,0,1,0,48481.3,0.255466,0.255188,45.4513,25,0.0123243,10,0.0115986,-1.34245,-0.474962,-0.12422,-220.081,0.255188,
2,1,0,1,0,48481.3,0.258662,0.258331,44.7407,25,0.0125046,10,0.0115579,-1.3493,-0.45621,-0.129326,-225.536,0.258331,
2,1,0,1,0,48481.3,0.261866,0.261552,44.0028,25,0.012682,10,0.011509,-1.35652,-0.439988,-0.134095,-230.095,0.261552,
2,1,0,1,0,48481.3,0.265063,0.264736,43.2598,25,0.0128565,10,0.0114524,-1.36392,-0.433483,-0.136107,-229.746,0.264736,
2,1,0,1,0,48481.3,0.268259,0.267943,42.5165,25,0.0130279,10,0.011392,-1.37144,-0.42538,-0.1387,-230.131,0.267943,
2,1,0,1,0,48481.3,0.271466,0.271146,41.7965,25,0.0131965,10,0.011333,-1.37886,-0.423412,-0.139344,-227.238,0.271146,
2,1,0,1,0,48481.3,0.274662,0.27434,41.0598,25,0.0133621,10,0.0112643,-1.38658,-0.417744,-0.141235,-226.286,0.27434,
2,1,0,1,0,48481.3,0.277869,0.277561,40.3456,25,0.0135248,10,0.0111983,-1.3942,-0.416206,-0.141757,-223.23,0.277561,
2,1,0,1,0,48481.3,0.281065,0.280723,39.6246,25,0.0136847,10,0.0111235,-1.40204,-0.419005,-0.14081,-217.886,0.280723,
2,1,0,1,0,48481.3,0.284262,0.283954,38.9374,25,0.0138417,10,0.0110564,-1.40963,-0.420797,-0.14021,-213.233,0.283954,
2,1,0,1,0,48481.3,0.287469,0.287139,38.271,25,0.0139961,10,0.0109891,-1.41713,-0.427449,-0.138028,-206.234,0.287139,
2,1,0,1,0,48481.3,0.290665,0.29033,37.6227,25,0.0141478,10,0.010923,-1.42455,-0.433617,-0.136065,-199.89,0.29033,
2,1,0,1,0,48481.4,0.293861,0.293564,36.9762,25,0.014297,10,0.0108549,-1.43208,-0.436026,-0.135313,-195.791,0.2935642,
2,1,0,1,0,48481.4,0.297066,0.296763,36.3769,25,0.0144436,10,0.0107953,-1.43917,-0.443756,-0.132956,-190.498,0.296763,
2,1,0,1,0,48481.4,0.299638,0.299222,35.9054,25,0.0145592,10,0.0107437,-1.44484,-0.133119,-0.443211,-611.44,0.299222,
2,1,0,1,0,48481.4,0.300012,0.299804,35.818,25,0.0145772,10,0.0107384,-1.4459,0.012461,4.73477,6007.56,0.299804,
2,1,0,1,0,48481.4,0.298983,0.298807,33.7706,25,0.0146216,10,0.0100909,-1.47146,0.0447164,1.31943,1555.18,0.298807,
2,1,0,1,0,48481.4,0.295787,0.295524,28.9299,25,0.0147461,10,0.00854949,-1.53865,0.0498373,1.18385,1306.1,0.295524,
2,1,0,1,0,48481.4,0.292579,0.292297,25.1366,25,0.0148536,10,0.00734735,-1.59969,0.0514826,1.14602,1147.75,0.292297,
2,1,0,1,0,48481.4,0.289383,0.28912,21.864,25,0.0149472,10,0.00632132,-1.66027,0.0516795,1.14165,982.156,0.28912,
2,1,0,1,0,48481.4,0.286187,0.28591,18.9686,25,0.0150285,10,0.0054233,-1.72197,0.0502744,1.17356,871.016,0.28591,
2,1,0,1,0,48481.4,0.282983,0.282713,16.3478,25,0.0150988,10,0.00462173,-1.78654,0.0477895,1.23458,786.323,0.282713,
2,1,0,1,0,48481.4,0.279786,0.279492,13.9828,25,0.0151592,10,0.00390808,-1.85441,0.0447701,1.31784,714.073,0.279492,
2,1,0,1,0,48481.4,0.276582,0.276325,11.8031,25,0.0152105,10,0.00326149,-1.928,0.0408047,1.44591,657.327,0.276325,
2,1,0,1,0,48481.4,0.273386,0.273072,9.80108,25,0.0152534,10,0.0026764,-2.00873,0.0364941,1.6167,605.452,0.273072,
2,1,0,1,0,48481.4,0.27019,0.269937,7.94994,25,0.0152887,10,0.00214599,-2.09964,0.0316739,1.86273,558.405,0.269937,
2,1,0,1,0,48481.4,0.266982,0.266702,6.23933,25,0.0153168,10,0.00166404,-2.20486,0.0260716,2.263,519.166,0.266702,
2,1,0,1,0,48481.4,0.263786,0.263521,4.65307,25,0.0153384,10,0.00122618,-2.33226,0.0197324,2.99001,481.098,0.263521,
2,1,0,1,0,48481.4,0.260585,0.260309,3.17493,25,0.0153539,10,0.000826463,-2.49827,0.0116915,5.0464,448.201,0.260309,
2,1,0,1,0,48481.4,0.257383,0.257113,1.78008,25,0.0153637,10,0.000457681,-2.74956,0.0157082,3.756,419.84,0.257113,
2,1,0,1,0,48481.4,0.254187,0.2539,0.501338,25,0.0153681,10,0.00012729,-3.29987,0.0539573,1.09346,391.061,0.2539,
2,0,0,1,0,48481.4,0.25098,0.250736,-0.714296,25,0.0153675,10,-0.0001791,-3.14612,-0.0601798,-0.980395,365.486,0.2507365,
2,0,0,1,0,48481.4,0.247783,0.247492,-1.83735,25,0.0153623,10,-0.000454729,-2.73581,-0.0143691,-4.10603,344.091,0.247492,
2,0,0,1,0,48481.4,0.244587,0.244286,-2.9079,25,0.0153527,10,-0.000710359,-2.53642,-0.0154498,-3.81883,321.991,0.244286,
2,0,0,1,0,48481.4,0.241383,0.241085,-3.9082,25,0.0153389,10,-0.000942207,-2.40802,-0.0258704,-2.2806,305.14,0.241085,
2,0,0,1,0,48481.4,0.238187,0.237878,-4.85462,25,0.0153213,10,-0.00115481,-2.31385,-0.0360185,-1.63805,287.734,0.237878,
2,0,0,1,0,48481.4,0.234982,0.23468,-5.74676,25,0.0152999,10,-0.00134865,-2.24058,-0.0463723,-1.27231,271.221,0.23468,
2,0,0,1,0,48481.4,0.231786,0.231487,-6.59063,25,0.0152752,10,-0.00152564,-2.18107,-0.0569875,-1.03531,257.093,0.231487,
2,0,0,1,0,48481.4,0.22859,0.228277,-7.38189,25,0.0152471,10,-0.00168512,-2.13183,-0.0679403,-0.86841,243.812,0.228277,
2,0,0,1,0,48481.5,0.225383,0.22504,-8.15527,25,0.015216,10,-0.00183526,-2.08856,-0.0790756,-0.746121,232.582,0.22504,
2,0,0,1,0,48481.5,0.222187,0.221887,-8.86579,25,0.0151818,10,-0.0019672,-2.05228,-0.0908193,-0.649641,221.055,0.221887,
2,0,0,1,0,48481.5,0.218979,0.218683,-9.56871,25,0.0151449,10,-0.00209251,-2.01915,-0.103614,-0.569421,209.533,0.218683,
2,0,0,1,0,48481.5,0.215783,0.215491,-10.2084,25,0.0151053,10,-0.00219981,-1.99104,-0.116013,-0.508563,200.383,0.2154907,
2,0,0,1,0,48481.5,0.212587,0.212282,-10.8284,25,0.0150631,10,-0.00229868,-1.96543,-0.129242,-0.456507,191.481,0.212282,
2,0,0,1,0,48481.5,0.20938,0.209065,-11.4352,25,0.0150185,10,-0.00239069,-1.94176,-0.142885,-0.41292,182.783,0.209065,
2,0,0,1,0,48481.5,0.206184,0.205882,-12.0197,25,0.0149716,10,-0.00247464,-1.92011,-0.15572,-0.378886,176.303,0.205882,
2,0,0,1,0,48481.5,0.202988,0.202639,-12.5575,25,0.0149223,10,-0.00254464,-1.9011,-0.170337,-0.346373,168.727,0.202639,
2,0,0,1,0,48481.5,0.199783,0.199459,-13.0891,25,0.014871,10,-0.00261074,-1.88309,-0.185085,-0.318773,162.132,0.199459,
2,0,0,1,0,48481.5,0.196587,0.196291,-13.5904,25,0.0148176,10,-0.00266768,-1.86677,-0.198872,-0.296673,156.72,0.196291,
2,0,0,1,0,48481.5,0.193382,0.193049,-14.1003,25,0.0147621,10,-0.00272206,-1.85077,-0.212697,-0.27739,151.959,0.193049,
2,0,0,1,0,48481.5,0.190186,0.189838,-14.5636,25,0.0147047,10,-0.00276473,-1.83673,-0.226391,-0.260611,147.637,0.189838,
2,0,0,1,0,48481.5,0.18699,0.18669,-15.0295,25,0.0146455,10,-0.00280586,-1.82306,-0.241037,-0.244776,143.249,0.18669,
2,0,0,1,0,48481.5,0.183783,0.183478,-15.4821,25,0.0145844,10,-0.00284063,-1.81017,-0.252231,-0.233913,141.007,0.183478,
2,0,0,1,0,48481.5,0.180587,0.180293,-15.9277,25,0.0145215,10,-0.00287165,-1.79785,-0.268232,-0.219959,136.412,0.180293,
2,0,0,1,0,48481.5,0.17738,0.17707,-16.364,25,0.0144569,10,-0.00289757,-1.78611,-0.28144,-0.209636,133.551,0.17707,
2,0,0,1,0,48481.5,0.174183,0.173825,-16.7844,25,0.0143906,10,-0.00291756,-1.77509,-0.292007,-0.20205,132.171,0.173825,
2,0,0,1,0,48481.5,0.170987,0.170651,-17.1951,25,0.0143226,10,-0.00293437,-1.76459,-0.302191,-0.19524,130.961,0.170651,
2,0,0,1,0,48481.5,0.16778,0.167459,-17.624,25,0.0142529,10,-0.00295129,-1.7539,-0.306553,-0.192463,132.305,0.167459,
2,0,0,1,0,48481.5,0.164584,0.164289,-18.0378,25,0.0141815,10,-0.00296342,-1.74382,-0.311843,-0.189198,133.139,0.164289,
2,0,0,1,0,48481.5,0.161382,0.161077,-18.4711,25,0.0141085,10,-0.00297526,-1.73351,-0.318604,-0.185183,133.451,0.161077,
2,0,0,1,0,48481.5,0.158183,0.15789,-18.8941,25,0.0140337,10,-0.0029832,-1.72367,-0.319712,-0.184541,136.085,0.1578905,
2,0,0,1,0,48481.5,0.154987,0.154651,-19.3332,25,0.0139572,10,-0.0029899,-1.7137,-0.321166,-0.183706,138.693,0.154651,
2,0,0,1,0,48481.5,0.151783,0.15149,-19.7796,25,0.0138789,10,-0.00299641,-1.70378,-0.317182,-0.186013,143.737,0.15149,
2,0,0,1,0,48481.5,0.148587,0.14828,-20.2459,25,0.0137988,10,-0.00300206,-1.69366,-0.309013,-0.19093,151.149,0.14828,
2,0,0,1,0,48481.6,0.145385,0.145089,-20.7341,25,0.0137168,10,-0.0030083,-1.68331,-0.304894,-0.19351,156.851,0.1450893,
2,0,0,1,0,48481.6,0.142183,0.141858,-21.2668,25,0.0136328,10,-0.00301687,-1.6723,-0.292685,-0.201582,167.575,0.141858,
2,0,0,1,0,48481.6,0.138987,0.138663,-21.7915,25,0.0135466,10,-0.00302168,-1.66171,-0.285102,-0.206943,176.454,0.138663,
2,0,0,1,0,48481.6,0.13578,0.135477,-22.3914,25,0.0134582,10,-0.00303352,-1.64992,-0.273843,-0.215452,188.808,0.135477,
2,0,0,1,0,48481.6,0.132584,0.132238,-23.0017,25,0.0133673,10,-0.00304171,-1.63824,-0.260181,-0.226765,204.166,0.132238,
2,0,0,1,0,48481.6,0.129388,0.129046,-23.6858,25,0.0132739,10,-0.00305657,-1.62551,-0.25235,-0.233802,216.749,0.129046,
2,0,0,1,0,48481.6,0.12618,0.1259,-24.3973,25,0.0131776,10,-0.00307162,-1.61266,-0.24086,-0.244955,233.835,0.1259,
2,0,0,1,0,48481.6,0.122984,0.12265,-25.1716,25,0.0130784,10,-0.0030873,-1.59909,-0.234689,-0.251397,247.591,0.12265,
2,0,0,1,0,48481.6,0.119782,0.119506,-25.979,25,0.0129761,10,-0.00310464,-1.58538,-0.229441,-0.257147,261.28,0.1195059,
2,0,0,1,0,48481.6,0.116584,0.116261,-26.8513,25,0.0128703,10,-0.00312176,-1.57103,-0.223001,-0.264573,277.746,0.116261,
2,0,0,1,0,48481.6,0.113387,0.113088,-27.7447,25,0.0127611,10,-0.00313761,-1.55682,-0.222922,-0.264666,286.887,0.113088,
2,0,0,1,0,48481.6,0.110183,0.109932,-28.7041,25,0.0126481,10,-0.00315549,-1.54206,-0.223014,-0.264558,296.327,0.1099315,
2,0,0,1,0,48481.6,0.106987,0.106706,-29.6512,25,0.0125313,10,-0.00316395,-1.52796,-0.226084,-0.260964,301.835,0.106706,
2,0,0,1,0,48481.6,0.103785,0.103501,-30.6324,25,0.0124106,10,-0.00317049,-1.51382,-0.232419,-0.253852,303.266,0.103501,
2,0,0,1,0,48481.6,0.100583,0.100275,-31.6121,25,0.012286,10,-0.00316992,-1.50015,-0.238227,-0.247663,305.159,0.100275,
2,0,0,1,0,48481.6,0.0973873,0.0970826,-32.6008,25,0.0121575,10,-0.00316497,-1.48677,-0.245584,-0.240244,305.145,0.0970826,
2,0,0,1,0,48481.6,0.0941801,0.0938515,-33.5738,25,0.012025,10,-0.00315095,-1.474,-0.255119,-0.231265,302.417,0.0938515,
2,0,0,1,0,48481.6,0.0909839,0.0907074,-34.5364,25,0.0118887,10,-0.00313271,-1.46172,-0.266316,-0.221541,298.015,0.0907074,
2,0,0,1,0,48481.6,0.0877878,0.0874997,-35.4757,25,0.0117486,10,-0.00310411,-1.45007,-0.281159,-0.209846,289.747,0.0874997,
2,0,0,1,0,48481.6,0.0845806,0.0843142,-36.4059,25,0.0116047,10,-0.00306954,-1.43883,-0.295931,-0.199371,282.519,0.0843142,
2,0,0,1,0,48481.6,0.0813844,0.0811659,-37.2494,25,0.0114573,10,-0.00302338,-1.42888,-0.308845,-0.191034,277.458,0.0811659,
2,0,0,1,0,48481.6,0.0781828,0.0779422,-38.1428,25,0.0113064,10,-0.00297293,-1.41859,-0.329457,-0.179083,266.172,0.0779422,
2,0,0,1,0,48481.6,0.0749838,0.0747589,-39.0108,25,0.011152,10,-0.0029164,-1.40882,-0.343065,-0.171979,261.08,0.0747589,
2,0,0,1,0,48481.6,0.0717877,0.071513,-39.8133,25,0.0109942,10,-0.00284716,-1.39997,-0.364572,-0.161834,250.902,0.071513,
2,0,0,1,0,48481.6,0.0685832,0.0683487,-40.5957,25,0.0108333,10,-0.00277467,-1.39152,-0.396311,-0.148873,235.367,0.0683487,
2,0,0,1,0,48481.7,0.0653871,0.0651527,-41.3517,25,0.0106693,10,-0.00269417,-1.38351,-0.422187,-0.139748,224.919,0.0651527,
2,0,0,1,0,48481.7,0.0621854,0.0618548,-42.048,25,0.0105024,10,-0.00260087,-1.37626,-0.458752,-0.12861,210.472,0.0618548,
2,0,0,1,0,48481.7,0.0589837,0.0586799,-42.6996,25,0.0103328,10,-0.00250561,-1.36958,-0.495313,-0.119117,198.071,0.0586799,
2,0,0,1,0,48481.7,0.0557876,0.055503,-43.2994,25,0.0101608,10,-0.00240324,-1.36352,-0.531016,-0.111108,187.432,0.055503,
2,0,0,1,0,48481.7,0.0525804,0.0523472,-43.8881,25,0.00998634,10,-0.00229742,-1.35765,-0.57502,-0.102605,175.43,0.0523472,
2,0,0,1,0,48481.7,0.0493842,0.0491776,-44.4241,25,0.00980964,10,-0.00218467,-1.35238,-0.617477,-0.0955501,165.376,0.0491776,
2,0,0,1,0,48481.7,0.0461881,0.0459148,-44.939,25,0.00963085,10,-0.00206337,-1.34738,-0.672021,-0.0877948,153.735,0.0459148,
2,0,0,1,0,48481.7,0.0429808,0.0427155,-45.4141,25,0.00945007,10,-0.00193989,-1.34281,-0.726077,-0.0812586,143.789,0.0427155,
2,0,0,1,0,48481.7,0.0397847,0.0395014,-45.8629,25,0.00926748,10,-0.00181165,-1.33854,-0.78978,-0.0747044,133.508,0.0395014,
2,0,0,1,0,48481.7,0.036583,0.0363329,-46.271,25,0.00908316,10,-0.00168116,-1.33469,-0.86127,-0.0685035,123.514,0.0363329,
2,0,0,1,0,48481.7,0.0333841,0.0330414,-46.6577,25,0.00889725,10,-0.00154164,-1.33108,-0.949733,-0.0621227,112.936,0.0330414,
2,0,0,1,0,48481.7,0.030188,0.0299185,-46.9947,25,0.00870991,10,-0.00140601,-1.32795,-1.06586,-0.0553543,101.36,0.0299185,
2,0,0,1,0,48481.7,0.0269835,0.0266991,-47.3088,25,0.00852125,10,-0.0012631,-1.32506,-1.17876,-0.0500524,92.2857,0.0266991,
2,0,0,1,0,48481.7,0.0237874,0.0234776,-47.574,25,0.00833144,10,-0.00111692,-1.32263,-1.30744,-0.0451262,83.7118,0.02347762,
2,0,0,1,0,48481.7,0.0205857,0.0202847,-47.835,25,0.00814059,10,-0.00097032,-1.32025,-1.44728,-0.0407663,76.0406,0.0202847,
2,0,0,1,0,48481.7,0.017384,0.0170123,-48.0751,25,0.00794872,10,-0.00081787,-1.31808,-1.60955,-0.0366562,68.6857,0.0170123,
2,0,0,1,0,48481.7,0.0141879,0.0138714,-48.2842,25,0.00775597,10,-0.00066977,-1.31619,-1.86176,-0.0316905,59.6314,0.0138714,
2,0,0,1,0,48481.7,0.0109806,0.0106679,-48.4539,25,0.00756246,10,-0.000516902,-1.31467,-2.22304,-0.0265402,50.1252,0.0106679,
2,0,0,1,0,48481.7,0.00778448,0.0075079,-48.5969,25,0.00736834,10,-0.000364861,-1.31339,-2.39819,-0.0246019,46.6461,0.0075079,
2,0,0,1,0,48481.7,0.00458834,0.00427896,-48.7134,25,0.00717369,10,-0.000208443,-1.31235,-2.91477,-0.0202417,38.4716,0.00427896,
2,0,0,1,0,48481.7,0.0013811,0.00103836,-48.8828,25,0.0069785,10,-5.07579e-05,-1.31084,-3.57759,-0.0164915,31.4078,0.00103836,
2,0,0,1,0,48481.7,-0.00181504,-0.00215028,-48.947,25,0.00678282,10,0.00010525,-1.31027,-4.84473,-0.0121782,23.2232,-0.00215028,
2,0,0,1,0,48481.7,-0.0050195,-0.00539513,-49.0022,25,0.00658692,10,0.000264373,-1.30978,-10.2598,-0.00575058,10.9864,-0.00539513,
2,0,0,1,0,48481.7,-0.00821564,-0.00857211,-49.0118,25,0.00639088,10,0.000420135,-1.3097,-20.8983,-0.0028232,5.39683,-0.008572109,
2,0,0,1,0,48481.7,-0.0114118,-0.0117883,-49.0237,25,0.0061948,10,0.000577908,-1.30959,61.7253,0.000955848,-1.82753,-0.0117883,
2,0,0,1,0,48481.8,-0.0146162,-0.0149833,-49.0163,25,0.00599868,10,0.000734427,-1.30966,14.0197,0.00420837,-8.04122,-0.0149833,
2,0,0,1,0,48481.8,-0.0178124,-0.0181752,-48.9788,25,0.00580269,10,0.000890197,-1.30999,7.01701,0.00840814,-16.053,-0.0181752,
2,0,0,1,0,48481.8,-0.0210196,-0.0213945,-48.9087,25,0.00560691,10,0.00104638,-1.31061,4.62292,0.0127625,-24.3363,-0.0213945,
2,0,0,1,0,48481.8,-0.0242158,-0.0246033,-48.818,25,0.00541145,10,0.00120109,-1.31142,3.78576,0.0155847,-29.6742,-0.0246033,
2,0,0,1,0,48481.8,-0.0274119,-0.0277983,-48.7044,25,0.0052164,10,0.0013539,-1.31243,3.17399,0.0185886,-35.3166,-0.0277983,
2,0,0,1,0,48481.8,-0.0306191,-0.0309891,-48.5986,25,0.00502179,10,0.00150603,-1.31338,2.78129,0.0212132,-40.2028,-0.0309891,
2,0,0,1,0,48481.8,-0.0338153,-0.0342053,-48.4563,25,0.00482768,10,0.00165746,-1.31465,2.4671,0.0239148,-45.1868,-0.0342053,
2,0,0,1,0,48481.8,-0.037017,-0.0373759,-48.3045,25,0.00463417,10,0.00180543,-1.31601,2.18311,0.0270257,-50.914,-0.0373759,
2,0,0,1,0,48481.8,-0.0402187,-0.040572,-48.1272,25,0.00444133,10,0.00195262,-1.31761,2.07844,0.0283867,-53.3033,-0.04057201,
2,0,0,1,0,48481.8,-0.0434148,-0.0437819,-47.9472,25,0.0042492,10,0.00209922,-1.31924,1.97611,0.0298567,-55.8669,-0.0437819,
2,0,0,1,0,48481.8,-0.0466193,-0.0469981,-47.7744,25,0.00405777,10,0.00224531,-1.3208,1.88595,0.0312839,-58.3018,-0.04699808,
2,0,0,1,0,48481.8,-0.0498154,-0.050192,-47.5885,25,0.00386706,10,0.00238856,-1.3225,1.838,0.0321001,-59.5875,-0.050192,
2,0,0,1,0,48481.8,-0.0530115,-0.0533892,-47.3799,25,0.00367713,10,0.00252957,-1.32441,1.76833,0.0333648,-61.6915,-0.0533892,
2,0,0,1,0,48481.8,-0.056216,-0.0565852,-47.1843,25,0.00348801,10,0.00266993,-1.3262,1.8172,0.0324676,-59.813,-0.0565852,
2,0,0,1,0,48481.8,-0.0594121,-0.0598258,-46.983,25,0.00329968,10,0.0028108,-1.32806,1.82855,0.0322659,-59.1843,-0.0598258,
2,0,0,1,0,48481.8,-0.0626194,-0.0630038,-46.8222,25,0.00311209,10,0.00294998,-1.32955,1.86822,0.0315808,-57.6987,-0.0630038,
2,0,0,1,0,48481.8,-0.0658155,-0.0661914,-46.6222,25,0.0029252,10,0.00308599,-1.33141,1.92815,0.0305994,-55.6823,-0.0661914,
2,0,0,1,0,48481.8,-0.0690117,-0.0693748,-46.4464,25,0.00273907,10,0.00322221,-1.33305,1.94023,0.0304087,-55.1478,-0.0693748,
2,0,0,1,0,48481.8,-0.0722189,-0.0725677,-46.2735,25,0.00255363,10,0.00335796,-1.33467,2.12935,0.0277079,-50.0674,-0.0725677,
2,0,0,1,0,48481.8,-0.075415,-0.0757711,-46.1181,25,0.00236887,10,0.00349442,-1.33613,2.25841,0.0261245,-47.0471,-0.0757711,
2,0,0,1,0,48481.8,-0.0786167,-0.0790065,-45.9806,25,0.00218469,10,0.00363277,-1.33743,2.42523,0.0243276,-43.6674,-0.0790065,
2,0,0,1,0,48481.8,-0.0818184,-0.082175,-45.8442,25,0.00200105,10,0.00376724,-1.33872,2.71479,0.0217328,-38.9035,-0.082175,
2,0,0,1,0,48481.8,-0.0850146,-0.0853763,-45.7142,25,0.00181793,10,0.00390291,-1.33995,2.83809,0.0207886,-37.1123,-0.08537633,
2,0,0,1,0,48481.8,-0.088219,-0.0886106,-45.6186,25,0.0016353,10,0.00404229,-1.34086,3.3648,0.0175345,-31.2342,-0.0886106,
2,0,0,1,0,48481.8,-0.0914152,-0.0917695,-45.5069,25,0.00145306,10,0.00417615,-1.34192,3.95018,0.014936,-26.5477,-0.0917695,
2,0,0,1,0,48481.9,-0.0946141,-0.0950345,-45.4425,25,0.00127117,10,0.00431861,-1.34254,4.54518,0.0129808,-23.0357,-0.0950345,
2,0,0,1,0,48481.9,-0.0978158,-0.0982072,-45.3736,25,0.00108953,10,0.00445602,-1.3432,5.98351,0.00986044,-17.469,-0.09820725,
2,0,0,1,0,48481.9,-0.101012,-0.101393,-45.3242,25,0.000908133,10,0.00459554,-1.34367,7.18419,0.00821248,-14.5349,-0.1013927,
2,0,0,1,0,48481.9,-0.104219,-0.104586,-45.2831,25,0.000726945,10,0.00473596,-1.34406,11.5473,0.00510942,-9.0362,-0.1045856,
2,0,0,1,0,48481.9,-0.107415,-0.10779,-45.2571,25,0.000545859,10,0.00487827,-1.34431,33.1166,0.00178158,-3.14997,-0.10779,
2,0,0,1,0,48481.9,-0.110611,-0.110975,-45.2582,25,0.000364817,10,0.00502251,-1.3443,-162.93,-0.000362118,0.640013,-0.110975,
2,0,0,1,0,48481.9,-0.113819,-0.114205,-45.2838,25,0.000183712,10,0.00517162,-1.34406,-19.9917,-0.00295123,5.21643,-0.114205,
2,0,0,1,0,48481.9,-0.117015,-0.117392,-45.2913,25,2.55242e-06,10,0.00531684,-1.34399,-11.9492,-0.00493757,8.73194,-0.117392,
2,0,0,1,0,48481.9,-0.120216,-0.120594,-45.3239,25,-0.00017866,10,0.00546577,-1.34367,-7.76514,-0.00759806,13.4534,-0.1205935,
2,0,0,1,0,48481.9,-0.123418,-0.123786,-45.3701,25,-0.00036005,10,0.0056162,-1.34323,-5.5754,-0.0105822,18.7543,-0.123786,
2,0,0,1,0,48481.9,-0.126614,-0.126986,-45.4558,25,-0.000541701,10,0.00577223,-1.34241,-4.62767,-0.0127494,22.6237,-0.126986,
2,0,0,1,0,48481.9,-0.129819,-0.130182,-45.5311,25,-0.000723683,10,0.00592732,-1.34169,-4.10223,-0.0143824,25.5578,-0.1301817,
2,0,0,1,0,48481.9,-0.133015,-0.133382,-45.6132,25,-0.000905988,10,0.00608398,-1.34091,-3.66912,-0.0160802,28.6411,-0.133382,
2,0,0,1,0,48481.9,-0.136214,-0.136556,-45.6965,25,-0.00108862,10,0.00624012,-1.34012,-3.24468,-0.0181836,32.4583,-0.136556,
2,0,0,1,0,48481.9,-0.139416,-0.139796,-45.8227,25,-0.00127168,10,0.00640585,-1.33892,-2.85364,-0.0206753,36.9953,-0.139796,
2,0,0,1,0,48481.9,-0.142612,-0.142987,-45.9468,25,-0.00145523,10,0.0065698,-1.33775,-2.65289,-0.0222399,39.8841,-0.142987,
2,0,0,1,0,48481.9,-0.145819,-0.146158,-46.0858,25,-0.00163931,10,0.00673581,-1.33643,-2.62886,-0.0224432,40.3606,-0.146158,
2,0,0,1,0,48481.9,-0.149015,-0.149388,-46.2082,25,-0.00182392,10,0.00690295,-1.33528,-2.5377,-0.0232494,41.9332,-0.149388,
2,0,0,1,0,48481.9,-0.152211,-0.152553,-46.3376,25,-0.00200902,10,0.00706894,-1.33407,-2.45014,-0.0240803,43.5725,-0.1525531,
2,0,0,1,0,48481.9,-0.155418,-0.155802,-46.4841,25,-0.0021947,10,0.00724233,-1.3327,-2.34494,-0.0251606,45.6608,-0.155802,
2,0,0,1,0,48481.9,-0.158615,-0.158985,-46.6447,25,-0.00238097,10,0.00741579,-1.3312,-2.27231,-0.0259648,47.2609,-0.1589845,
2,0,0,1,0,48481.9,-0.161816,-0.162226,-46.7945,25,-0.00256786,10,0.00759128,-1.32981,-2.35448,-0.0250586,45.7445,-0.162226,
2,0,0,1,0,48481.9,-0.165018,-0.165358,-46.9427,25,-0.00275534,10,0.00776233,-1.32843,-2.43004,-0.0242794,44.4666,-0.165358,
2,0,0,1,0,48481.9,-0.168214,-0.168568,-47.0681,25,-0.00294337,10,0.0079342,-1.32727,-2.46722,-0.0239136,43.9321,-0.168568,
2,0,0,1,0,48481.9,-0.171419,-0.17175,-47.2124,25,-0.00313194,10,0.00810871,-1.32594,-2.49711,-0.0236273,43.5423,-0.17175,
2,0,0,1,0,48482,-0.174615,-0.174941,-47.3531,25,-0.00332111,10,0.00828402,-1.32465,-2.50729,-0.0235314,43.4799,-0.1749415,
2,0,0,1,0,48482,-0.177814,-0.178153,-47.4999,25,-0.00351084,10,0.00846227,-1.32331,-2.66292,-0.0221561,41.0503,-0.178153,
2,0,0,1,0,48482,-0.181015,-0.181345,-47.6237,25,-0.00370114,10,0.00863633,-1.32218,-2.77936,-0.0212279,39.4389,-0.1813453,
2,0,0,1,0,48482,-0.184211,-0.184538,-47.7373,25,-0.00389189,10,0.00880936,-1.32114,-2.84422,-0.0207438,38.6536,-0.184538,
2,0,0,1,0,48482,-0.187419,-0.187749,-47.8582,25,-0.0040831,10,0.00898533,-1.32004,-2.99773,-0.0196816,36.7611,-0.187749,
2,0,0,1,0,48482,-0.190615,-0.190912,-47.9931,25,-0.00427482,10,0.00916246,-1.31882,-2.97667,-0.0198208,37.1105,-0.190912,
2,0,0,1,0,48482,-0.193811,-0.194179,-48.0955,25,-0.00446702,10,0.00933915,-1.3179,-3.41049,-0.0172996,32.4453,-0.194179,
2,0,0,1,0,48482,-0.197018,-0.197354,-48.2129,25,-0.00465967,10,0.00951503,-1.31684,-5.69572,-0.0103587,19.4395,-0.197354,
2,0,0,1,0,48482,-0.199647,-0.199998,-48.2556,25,-0.00481887,10,0.00965101,-1.31645,0.253697,0.232561,-426.232,-0.199998,
2,0,0,1,0,48482,-0.200134,-0.200475,-48.179,25,-0.00484782,10,0.00965867,-1.31714,-0.0162879,-3.62232,6281.17,-0.200475,
2,0,0,1,1,48482,-0.198935,-0.199456,-45.8464,25,-0.00491762,10,0.00914434,-1.33869,-0.0607822,-0.970679,1604.73,-0.199456,
2,0,0,1,1,48482,-0.195739,-0.196182,-40.8529,25,-0.00509005,10,0.00801463,-1.38878,-0.0688044,-0.857503,1354.8,-0.196182,
2,0,0,1,1,48482,-0.192535,-0.192963,-36.9668,25,-0.0052451,10,0.00713322,-1.43219,-0.0742823,-0.794267,1170.69,-0.192963,
2,0,0,1,1,48482,-0.189339,-0.189754,-33.6546,25,-0.00538589,10,0.0063861,-1.47296,-0.0783254,-0.753267,1000.64,-0.189754,
2,0,0,1,1,48482,-0.186137,-0.186516,-30.6975,25,-0.00551421,10,0.00572557,-1.5129,-0.0804496,-0.733379,885.225,-0.186516,
2,0,0,1,1,48482,-0.182935,-0.183364,-28.0266,25,-0.00563132,10,0.00513908,-1.55243,-0.0805744,-0.732242,804.991,-0.1833643,
2,0,0,1,1,48482,-0.179739,-0.180108,-25.5869,25,-0.00573823,10,0.0046084,-1.59198,-0.0794155,-0.742928,743.931,-0.1801078,
2,0,0,1,1,48482,-0.176532,-0.17691,-23.3147,25,-0.00583577,10,0.00412459,-1.63237,-0.0783288,-0.753235,685.937,-0.17691,
2,0,0,1,1,48482,-0.173336,-0.173753,-21.2027,25,-0.00592455,10,0.00368403,-1.67361,-0.074976,-0.786919,650.061,-0.173753,
2,0,0,1,1,48482,-0.17014,-0.170492,-19.197,25,-0.00600513,10,0.00327294,-1.71677,-0.0720128,-0.819299,612.012,-0.170492,
2,0,0,1,1,48482,-0.166932,-0.167342,-17.2881,25,-0.00607787,10,0.00289302,-1.76225,-0.0685621,-0.860534,578.427,-0.167342,
2,0,0,1,1,48482,-0.163736,-0.164136,-15.4971,25,-0.00614324,10,0.00254362,-1.80975,-0.0638658,-0.923811,555.234,-0.164136,
2,0,0,1,1,48482,-0.160532,-0.160913,-13.776,25,-0.00620159,10,0.00221675,-1.86088,-0.0595314,-0.991073,527.761,-0.160913,
2,0,0,1,1,48482,-0.157336,-0.157783,-12.1406,25,-0.00625325,10,0.00191558,-1.91576,-0.0544145,-1.08427,506.335,-0.157783,
2,0,0,1,1,48482,-0.154139,-0.154581,-10.5534,25,-0.00629846,10,0.00163134,-1.97661,-0.0488742,-1.20718,487.877,-0.154581,
2,0,0,1,1,48482,-0.150935,-0.151337,-9.01642,25,-0.00633744,10,0.00136452,-2.04497,-0.0432983,-1.36264,467.842,-0.151337,
2,0,0,1,1,48482.1,-0.147739,-0.148161,-7.55439,25,-0.00637041,10,0.00111927,-2.1218,-0.037254,-1.58372,450.321,-0.148161,
2,0,0,1,1,48482.1,-0.144532,-0.144941,-6.13276,25,-0.00639764,10,0.000888891,-2.21234,-0.0305344,-1.93225,436.191,-0.144941,
2,0,0,1,1,48482.1,-0.141335,-0.141748,-4.77437,25,-0.0064193,10,0.000676755,-2.32108,-0.023317,-2.53034,423.323,-0.141748,
2,0,0,1,1,48482.1,-0.138139,-0.138543,-3.43588,25,-0.00643557,10,0.000476017,-2.46396,-0.0151883,-3.88458,410.646,-0.138543,
2,0,0,1,1,48482.1,-0.134932,-0.135353,-2.13265,25,-0.00644656,10,0.000288661,-2.67108,-0.0109615,-5.3825,399.465,-0.1353533,
2,0,0,1,1,48482.1,-0.131736,-0.132157,-0.88295,25,-0.00645245,10,0.000116688,-3.05406,-0.0362629,-1.62701,387.825,-0.132157,
2,1,0,1,1,48482.1,-0.12854,-0.128978,0.326571,25,-0.00645342,10,-4.21205e-05,-3.48602,0.126904,0.464919,376.589,-0.128978,
2,1,0,1,1,48482.1,-0.125333,-0.125751,1.52507,25,-0.00644958,10,-0.000191779,-2.81671,0.020046,2.94323,368.975,-0.125751,
2,1,0,1,1,48482.1,-0.122136,-0.122546,2.69056,25,-0.00644102,10,-0.000329717,-2.57016,0.0108525,5.43651,360.108,-0.1225457,
2,1,0,1,1,48482.1,-0.118932,-0.119375,3.83333,25,-0.00642786,10,-0.000457604,-2.41642,0.0213982,2.75724,352.097,-0.119375,
2,1,0,1,1,48482.1,-0.115736,-0.116179,4.93565,25,-0.0064102,10,-0.000573418,-2.30666,0.0303109,1.9465,344.497,-0.116179,
2,1,0,1,1,48482.1,-0.11254,-0.112999,6.01517,25,-0.0063882,10,-0.000679707,-2.22075,0.0391242,1.50802,336.275,-0.112999,
2,1,0,1,1,48482.1,-0.109335,-0.109819,7.07497,25,-0.00636188,10,-0.000776964,-2.15028,0.0475631,1.24046,330.745,-0.1098187,
2,1,0,1,1,48482.1,-0.106139,-0.106607,8.12701,25,-0.00633137,10,-0.000866394,-2.09007,0.0561745,1.0503,324.111,-0.106607,
2,1,0,1,1,48482.1,-0.102932,-0.103403,9.16116,25,-0.00629668,10,-0.000947293,-2.03805,0.0651593,0.905473,316.359,-0.103403,
2,1,0,1,1,48482.1,-0.0997357,-0.100212,10.1594,25,-0.00625792,10,-0.0010181,-1.99313,0.0740514,0.796744,310.458,-0.100212,
2,1,0,1,1,48482.1,-0.0965395,-0.0969825,11.1358,25,-0.00621522,10,-0.00107998,-1.95328,0.0834338,0.707148,303.373,-0.0969825,
2,1,0,1,1,48482.1,-0.0933323,-0.0937928,12.1052,25,-0.00616864,10,-0.00113538,-1.91703,0.0922097,0.639846,298.953,-0.0937928,
2,1,0,1,1,48482.1,-0.0901362,-0.0905734,13.0534,25,-0.00611822,10,-0.00118229,-1.88428,0.101352,0.582128,293.668,-0.0905734,
2,1,0,1,1,48482.1,-0.0869345,-0.0874049,13.9883,25,-0.00606405,10,-0.00122264,-1.85424,0.111579,0.528775,286.046,-0.0874049,
2,1,0,1,1,48482.1,-0.0837328,-0.0841675,14.8992,25,-0.00600617,10,-0.00125403,-1.82684,0.120826,0.488305,281.697,-0.0841675,
2,1,0,1,1,48482.1,-0.0805366,-0.0809481,15.7794,25,-0.00594474,10,-0.00127731,-1.80191,0.131782,0.447708,274.069,-0.0809481,
2,1,0,1,1,48482.1,-0.0773322,-0.0777827,16.6565,25,-0.00587978,10,-0.00129559,-1.77842,0.14184,0.415962,268.91,-0.0777827,
2,1,0,1,1,48482.1,-0.074136,-0.0745368,17.515,25,-0.00581135,10,-0.00130551,-1.75659,0.1516,0.389181,264.567,-0.0745368,
2,1,0,1,1,48482.1,-0.0709371,-0.0713334,18.3504,25,-0.00573953,10,-0.001309,-1.73635,0.163585,0.36067,256.999,-0.0713334,
2,1,0,1,1,48482.2,-0.0677354,-0.0681394,19.1681,25,-0.00566439,10,-0.00130611,-1.71742,0.173486,0.340086,253.391,-0.0681394,
2,1,0,1,1,48482.2,-0.0645393,-0.0649306,19.9595,25,-0.00558603,10,-0.00129598,-1.69985,0.184279,0.320167,248.631,-0.0649306,
2,1,0,1,1,48482.2,-0.061332,-0.0617314,20.7598,25,-0.00550452,10,-0.00128153,-1.68278,0.195395,0.301952,243.803,-0.0617314,
2,1,0,1,1,48482.2,-0.0581359,-0.0585417,21.5308,25,-0.00541984,10,-0.00126045,-1.66694,0.205976,0.286441,239.856,-0.0585417,
2,1,0,1,1,48482.2,-0.0549398,-0.0553424,22.2881,25,-0.00533212,10,-0.00123348,-1.65193,0.219574,0.268702,232.993,-0.0553424,
2,1,0,1,1,48482.2,-0.0517325,-0.0521464,23.0258,25,-0.0052414,10,-0.00120071,-1.63778,0.232715,0.253529,227.146,-0.0521464,
2,1,0,1,1,48482.2,-0.0485364,-0.0489259,23.7434,25,-0.0051478,10,-0.00116166,-1.62446,0.244427,0.24138,223.153,-0.0489259,
2,1,0,1,1,48482.2,-0.0453347,-0.0457139,24.4446,25,-0.00505134,10,-0.00111746,-1.61182,0.25792,0.228753,217.76,-0.0457139,
2,1,0,1,1,48482.2,-0.042133,-0.0425338,25.1464,25,-0.00495208,10,-0.00106957,-1.59952,0.270325,0.218256,213.659,-0.0425338,
2,1,0,1,1,48482.2,-0.0389369,-0.0393557,25.8111,25,-0.00485009,10,-0.00101582,-1.58819,0.284374,0.207473,208.512,-0.0393557,
2,1,0,1,1,48482.2,-0.0357324,-0.0361469,26.4737,25,-0.00474546,10,-0.000956943,-1.57719,0.300587,0.196283,202.37,-0.0361469,
2,1,0,1,1,48482.2,-0.0325363,-0.0329572,27.1045,25,-0.00463822,10,-0.000893289,-1.56696,0.31586,0.186791,197.255,-0.03295723,
2,1,0,1,1,48482.2,-0.0293374,-0.029758,27.7318,25,-0.0045285,10,-0.000825242,-1.55702,0.332069,0.177674,191.972,-0.02975798,
2,1,0,1,1,48482.2,-0.0261357,-0.0265057,28.3459,25,-0.00441626,10,-0.000751327,-1.54751,0.346903,0.170076,187.778,-0.0265057,
2,1,0,1,1,48482.2,-0.0229395,-0.023333,28.9336,25,-0.00430164,10,-0.000675108,-1.5386,0.36727,0.160645,181.062,-0.023333,
2,1,0,1,1,48482.2,-0.0197323,-0.0201465,29.5101,25,-0.00418468,10,-0.000594523,-1.53003,0.385965,0.152863,175.722,-0.0201465,
2,1,0,1,1,48482.2,-0.0165361,-0.0169016,30.0596,25,-0.00406549,10,-0.000508056,-1.52202,0.401567,0.146925,172.161,-0.0169016,
2,1,0,1,1,48482.2,-0.01334,-0.0137193,30.5927,25,-0.00394411,10,-0.000419711,-1.51438,0.423899,0.139184,166.007,-0.0137193,
2,1,0,1,1,48482.2,-0.0101328,-0.0105031,31.1424,25,-0.00382058,10,-0.000327092,-1.50665,0.441173,0.133734,162.229,-0.01050311,
2,1,0,1,1,48482.2,-0.00693663,-0.00733143,31.6375,25,-0.00369496,10,-0.000231948,-1.4998,0.462819,0.12748,157.059,-0.00733143,
2,1,0,1,1,48482.2,-0.00373494,-0.00414491,32.1291,25,-0.00356736,10,-0.000133172,-1.4931, , , ,-0.00414491,
2,1,0,1,1,48482.2,-0.000774628,-0.0011588,32.5655,25,-0.00344766,10,-3.7737e-05,-1.48724, , , ,-0.0011588,
2,1,0,0,1,48482.2,-0.000125413,-0.000535284,32.6766,25,-0.00342158,10,-1.74913e-05,-1.48576, , , ,-0.000535284,