File: Figure_codes/Fig_3-5/rawdata_trumpetplot_data/after 10th/20221101_1-115_003_TrumpetPlot_ParaChange_from10_every3_03_CV_C01_25.csv
mode,ox/red,error,control changes,counter inc.,time/s,control/V,Ewe/V,<I>/mA,cycle number,(Q-Qo)/C,I Range,P/W,log(|I|),Tafel slope mV/dec,alpha_eff,dI/d(E-IR),E-IR/V,
2,0,0,1,0,50193.3,2.44065e-05,-0.000306236,-0.098758,26,0.0000000E+000,10,3.02433e-08,-4.00543, , , ,-0.000306236,
2,1,0,0,0,50193.5,0.00129787,0.000958829,0.124604,26,1.97315e-05,10,1.19474e-07,-3.90447, , , ,0.000958829,
2,1,0,0,0,50193.8,0.00279606,0.00248263,0.16775,26,6.92561e-05,10,4.16461e-07,-3.77534,0.0135569,4.35203,22.6393,0.00248263,
2,1,0,1,0,50194.1,0.00429469,0.00395912,0.179237,26,0.000125452,10,7.09621e-07,-3.74657,0.0541403,1.08976,7.58065,0.00395912,
2,1,0,1,0,50194.4,0.00579255,0.00542857,0.188827,26,0.000184955,10,1.02506e-06,-3.72394,0.0649775,0.908006,6.69388,0.005428568,
2,1,0,1,0,50194.7,0.00729041,0.00698374,0.198705,26,0.000247359,10,1.38771e-06,-3.70179,0.0847172,0.696435,5.37734,0.006983737,
2,1,0,1,0,50195,0.00878882,0.00844212,0.206686,26,0.000312359,10,1.74487e-06,-3.68469,0.103218,0.571607,4.59984,0.00844212,
2,1,0,1,0,50195.3,0.010287,0.00998607,0.213902,26,0.000379464,10,2.13604e-06,-3.66979,0.120856,0.488186,4.04027,0.00998607,
2,1,0,1,0,50195.6,0.0117852,0.011494,0.218439,26,0.000448484,10,2.51073e-06,-3.66067,0.128884,0.457774,3.92031,0.011494,
2,1,0,1,0,50195.9,0.0132836,0.0129629,0.225265,26,0.000519159,10,2.92009e-06,-3.64731,0.133279,0.44268,3.90829,0.0129629,
2,1,0,1,0,50196.2,0.0147815,0.0144938,0.230794,26,0.000591676,10,3.34507e-06,-3.63678,0.143756,0.410418,3.70063,0.0144938,
2,1,0,1,0,50196.5,0.0162793,0.015978,0.235837,26,0.000666098,10,3.76821e-06,-3.62739,0.164811,0.357985,3.29619,0.015978,
2,1,0,0,0,50196.8,0.017778,0.0173803,0.242074,26,0.000741861,10,4.20732e-06,-3.61605,0.176248,0.334755,3.16404,0.0173803,
2,1,0,0,0,50197.1,0.0192761,0.0189497,0.2469,26,0.000818905,10,4.67868e-06,-3.60748,0.16683,0.353653,3.39457,0.0189497,
2,1,0,1,0,50197.4,0.0207747,0.0204378,0.252493,26,0.000897785,10,5.1604e-06,-3.59775,0.16094,0.366597,3.58384,0.0204378,
2,1,0,1,0,50197.7,0.0222725,0.0220007,0.25727,26,0.000978192,10,5.66011e-06,-3.58961,0.182203,0.323815,3.24404,0.0220007,
2,1,0,1,0,50198,0.0237704,0.0234665,0.26142,26,0.00106006,10,6.13462e-06,-3.58266,0.188102,0.313659,3.19975,0.0234665,
2,1,0,1,0,50198.3,0.0252689,0.024942,0.266981,26,0.00114319,10,6.65905e-06,-3.57352,0.164459,0.358751,3.73996,0.02494204,
2,1,0,1,0,50198.6,0.0267671,0.0264902,0.27134,26,0.0012281,10,7.18787e-06,-3.56649,0.146027,0.404036,4.2718,0.0264902,
2,1,0,1,0,50198.9,0.0282657,0.0279274,0.278622,26,0.00131476,10,7.78119e-06,-3.55498,0.179334,0.328995,3.56922,0.0279274,
2,1,0,1,0,50199.2,0.0297635,0.0294328,0.283049,26,0.00140295,10,8.33092e-06,-3.54814,0.195602,0.301633,3.33075,0.0294328,
2,1,0,1,0,50199.5,0.0312613,0.0309511,0.286431,26,0.0014925,10,8.86535e-06,-3.54298,0.19006,0.310428,3.48858,0.0309511,
2,1,0,0,0,50199.8,0.0327599,0.0324582,0.293175,26,0.0015836,10,9.51592e-06,-3.53287,0.183865,0.320888,3.68086,0.0324582,
2,1,0,0,0,50200.1,0.034258,0.0339194,0.298749,26,0.00167641,10,1.01334e-05,-3.52469,0.192278,0.306847,3.57845,0.0339194,
2,1,0,1,0,50200.4,0.0357567,0.0353927,0.303876,26,0.00177086,10,1.0755e-05,-3.5173,0.239508,0.246339,2.91329,0.03539272,
2,1,0,1,0,50200.7,0.0372545,0.0369289,0.308286,26,0.0018668,10,1.13847e-05,-3.51105,0.20555,0.287035,3.46496,0.0369289,
2,1,0,1,0,50201,0.0387524,0.0384154,0.313959,26,0.00196395,10,1.20609e-05,-3.50313,0.197347,0.298966,3.677,0.0384154,
2,1,0,1,0,50201.3,0.0402508,0.0399171,0.31805,26,0.00206282,10,1.26957e-05,-3.4975,0.194405,0.303491,3.78216,0.0399171,
2,1,0,1,0,50201.6,0.041749,0.0414441,0.325172,26,0.00216348,10,1.34765e-05,-3.48789,0.249103,0.23685,2.98779,0.0414441,
2,1,0,1,0,50201.9,0.0432472,0.0429732,0.330563,26,0.00226546,10,1.42054e-05,-3.48075,0.248139,0.23777,3.05747,0.0429732,
2,1,0,1,0,50202.2,0.0447456,0.0443911,0.333623,26,0.0023686,10,1.48099e-05,-3.47674,0.234984,0.251081,3.26717,0.04439114,
2,1,0,1,0,50202.5,0.0462435,0.0459315,0.339292,26,0.00247337,10,1.55842e-05,-3.46943,0.206893,0.285171,3.76209,0.0459315,
2,1,0,1,0,50202.8,0.0477413,0.0473977,0.344108,26,0.00257976,10,1.63099e-05,-3.46331,0.243689,0.242112,3.24672,0.0473977,
2,1,0,0,0,50203.1,0.0492399,0.0489051,0.348162,26,0.00268759,10,1.70269e-05,-3.45822,0.295151,0.199897,2.71667,0.0489051,
2,1,0,0,0,50203.4,0.0507381,0.0504098,0.352002,26,0.00279651,10,1.77443e-05,-3.45346,0.243526,0.242274,3.33652,0.0504098,
2,1,0,1,0,50203.7,0.0522367,0.0519308,0.356658,26,0.00290689,10,1.85215e-05,-3.44775,0.223673,0.263778,3.67139,0.0519308,
2,1,0,1,0,50204,0.0537345,0.0533822,0.363406,26,0.00301894,10,1.93994e-05,-3.43961,0.288204,0.204716,2.88758,0.0533822,
2,1,0,1,0,50204.3,0.0552323,0.0549203,0.366656,26,0.0031322,10,2.01369e-05,-3.43574,0.340553,0.173248,2.47362,0.0549203,
2,1,0,1,0,50204.6,0.0567309,0.0564001,0.368061,26,0.00324663,10,2.07587e-05,-3.43408,0.303575,0.194351,2.80539,0.0564001,
2,1,0,1,0,50204.9,0.0582291,0.0578889,0.373375,26,0.00336207,10,2.16142e-05,-3.42785,0.343882,0.171571,2.50765,0.0578889,
2,1,0,1,0,50205.2,0.0597277,0.0593707,0.378651,26,0.00347895,10,2.24808e-05,-3.42176,0.328902,0.179385,2.64604,0.0593707,
2,1,0,1,0,50205.5,0.0612255,0.0608982,0.381641,26,0.00359716,10,2.32413e-05,-3.41834,0.381005,0.154853,2.3003,0.0608982,
2,1,0,1,0,50205.8,0.0627233,0.0624124,0.386066,26,0.0037165,10,2.40953e-05,-3.41334,0.341331,0.172853,2.60766,0.0624124,
2,1,0,0,0,50206.1,0.0642218,0.0639003,0.38817,26,0.0038366,10,2.48042e-05,-3.41098,0.339486,0.173792,2.64743,0.0639003,
2,1,0,0,0,50206.4,0.06572,0.0653912,0.393451,26,0.00395817,10,2.57283e-05,-3.40511,0.338676,0.174208,2.67054,0.0653912,
2,1,0,1,0,50206.7,0.0672187,0.0669174,0.397654,26,0.00408109,10,2.661e-05,-3.4005,0.4334,0.136133,2.10436,0.0669174,
2,1,0,1,0,50207,0.0687165,0.0684027,0.400545,26,0.00420478,10,2.73984e-05,-3.39735,0.419557,0.140625,2.19752,0.0684027,
2,1,0,1,0,50207.3,0.0702144,0.0698977,0.402986,26,0.00432917,10,2.81678e-05,-3.39471,0.409474,0.144087,2.2658,0.0698977,
2,1,0,1,0,50207.6,0.0717128,0.0713666,0.406802,26,0.00445478,10,2.90321e-05,-3.39062,0.376039,0.156899,2.48125,0.0713666,
2,1,0,1,0,50207.9,0.073211,0.0728533,0.409427,26,0.00458138,10,2.98281e-05,-3.38782,0.454592,0.129787,2.07737,0.0728533,
2,1,0,1,0,50208.2,0.0747092,0.0744036,0.412093,26,0.0047088,10,3.06612e-05,-3.38501,0.593599,0.0993938,1.59951,0.0744036,
2,1,0,1,0,50208.5,0.0762076,0.0758663,0.414652,26,0.00483696,10,3.14581e-05,-3.38232,0.486564,0.121258,1.96801,0.0758663,
2,1,0,1,0,50208.8,0.0777054,0.0773959,0.417897,26,0.00496595,10,3.23435e-05,-3.37893,0.412882,0.142898,2.33001,0.0773959,
2,1,0,1,0,50209.1,0.0792033,0.0788515,0.422757,26,0.00509592,10,3.3335e-05,-3.37391,0.474853,0.124249,2.04381,0.0788515,
2,1,0,0,0,50209.4,0.0807019,0.0803822,0.424302,26,0.00522696,10,3.41063e-05,-3.37233,0.496222,0.118898,1.96561,0.0803822,
2,1,0,0,0,50209.7,0.0822001,0.081871,0.426519,26,0.00535871,10,3.49195e-05,-3.37006,0.459386,0.128432,2.14222,0.081871,
2,1,0,1,0,50210,0.0836986,0.0833942,0.431066,26,0.00549122,10,3.59484e-05,-3.36546,0.417531,0.141307,2.37639,0.0833942,
2,1,0,1,0,50210.3,0.0851965,0.0848712,0.434727,26,0.00562505,10,3.68958e-05,-3.36178,0.385861,0.152905,2.59528,0.0848712,
2,1,0,1,0,50210.6,0.0866944,0.0863711,0.436781,26,0.00576,10,3.77252e-05,-3.35974,0.508523,0.116022,1.98236,0.0863711,
2,1,0,1,0,50210.9,0.0881929,0.0878464,0.442352,26,0.00589619,10,3.8859e-05,-3.35423,0.372819,0.158254,2.73743,0.0878464,
2,1,0,1,0,50211.2,0.0896911,0.0893893,0.446639,26,0.00603323,10,3.99248e-05,-3.35004,0.313867,0.187978,3.28534,0.0893893,
2,1,0,1,0,50211.5,0.0911897,0.0908224,0.451904,26,0.00617203,10,4.10431e-05,-3.34495,0.267793,0.220319,3.88461,0.0908224,
2,1,0,1,0,50211.8,0.0926875,0.0923478,0.45821,26,0.00631266,10,4.23147e-05,-3.33894,0.265745,0.222018,3.96708,0.0923478,
2,1,0,1,0,50212.1,0.0941853,0.0938343,0.464197,26,0.0064549,10,4.35576e-05,-3.3333,0.269343,0.219052,3.973,0.0938343,
2,1,0,0,0,50212.4,0.0956838,0.0953785,0.468763,26,0.00659877,10,4.471e-05,-3.32905,0.23578,0.250233,4.60056,0.0953785,
2,1,0,0,0,50212.7,0.097182,0.0968609,0.476409,26,0.00674488,10,4.61454e-05,-3.32202,0.192597,0.306339,5.6944,0.0968609,
2,1,0,1,0,50213,0.0986807,0.0983407,0.484215,26,0.0068933,10,4.7618e-05,-3.31496,0.216303,0.272766,5.16563,0.0983407,
2,1,0,1,0,50213.3,0.100179,0.0998843,0.491699,26,0.00704384,10,4.9113e-05,-3.3083,0.22233,0.265371,5.09776,0.0998843,
2,1,0,1,0,50213.6,0.101676,0.101357,0.497854,26,0.00719665,10,5.04609e-05,-3.3029,0.189604,0.311175,6.07039,0.101357,
2,1,0,1,0,50213.9,0.103175,0.102876,0.508925,26,0.00735187,10,5.23559e-05,-3.29335,0.199039,0.296425,5.88395,0.102876,
2,1,0,1,0,50214.2,0.104673,0.104385,0.518159,26,0.0075098,10,5.40878e-05,-3.28554,0.225057,0.262155,5.28412,0.104385,
2,1,0,1,0,50214.5,0.106171,0.105826,0.526173,26,0.00767041,10,5.56826e-05,-3.27887,0.243023,0.242776,4.95914,0.105826,
2,1,0,1,0,50214.8,0.10767,0.107354,0.531147,26,0.00783312,10,5.70208e-05,-3.27478,0.257966,0.228712,4.75197,0.107354,
2,1,0,1,0,50215.1,0.109167,0.108873,0.539428,26,0.00799767,10,5.87291e-05,-3.26807,0.256034,0.230438,4.85816,0.108873,
2,1,0,1,0,50215.4,0.110665,0.110361,0.545768,26,0.00816443,10,6.02313e-05,-3.26299,0.265748,0.222015,4.73673,0.1103607,
2,1,0,0,0,50215.7,0.112164,0.111809,0.553228,26,0.00833348,10,6.18561e-05,-3.2571,0.353182,0.167053,3.5932,0.111809,
2,1,0,0,0,50216,0.113662,0.113356,0.559143,26,0.00850429,10,6.3382e-05,-3.25248,0.360803,0.163524,3.559,0.113356,
2,1,0,1,0,50216.3,0.115161,0.114829,0.564294,26,0.0086763,10,6.47972e-05,-3.24849,0.358789,0.164442,3.61813,0.114829,
2,1,0,1,0,50216.6,0.116658,0.116323,0.570722,26,0.00885023,10,6.63883e-05,-3.24358,0.348158,0.169463,3.75486,0.116323,
2,1,0,1,0,50216.9,0.118156,0.117826,0.574236,26,0.00902596,10,6.76598e-05,-3.24091,0.41733,0.141375,3.15996,0.1178257,
2,1,0,1,0,50217.2,0.119655,0.119335,0.577843,26,0.00920269,10,6.8957e-05,-3.23819,0.599501,0.0984152,2.22038,0.119335,
2,1,0,1,0,50217.5,0.121153,0.120813,0.580012,26,0.00938035,10,7.00732e-05,-3.23656,0.46005,0.128247,2.90996,0.120813,
2,1,0,1,0,50217.8,0.122652,0.122288,0.584145,26,0.00955946,10,7.14337e-05,-3.23348,0.472295,0.124922,2.8487,0.122288,
2,1,0,1,0,50218.1,0.124149,0.12384,0.588798,26,0.00973965,10,7.29167e-05,-3.23003,0.689283,0.0855962,1.96694,0.12384,
2,1,0,1,0,50218.4,0.125647,0.125314,0.591606,26,0.00992084,10,7.41363e-05,-3.22797,0.988495,0.0596867,1.37647,0.125314,
2,1,0,0,0,50218.7,0.127146,0.126778,0.591765,26,0.0101028,10,7.50229e-05,-3.22785,0.976617,0.0604126,1.39906,0.126778,
2,1,0,0,0,50219,0.128644,0.128353,0.596141,26,0.010285,10,7.65164e-05,-3.22465,1.58878,0.0371354,0.863139,0.128353,
2,1,0,1,0,50219.3,0.130143,0.129833,0.597948,26,0.0104681,10,7.76332e-05,-3.22334,2.42046,0.0243756,0.566149,0.1298327,
2,1,0,1,0,50219.6,0.131641,0.131309,0.596778,26,0.0106514,10,7.83626e-05,-3.22419,-0.745316,-0.079161,-1.83308,0.131309,
2,1,0,1,0,50219.9,0.133138,0.132819,0.592662,26,0.010834,10,7.87168e-05,-3.22719,-0.564659,-0.104488,-2.41443,0.132819,
2,1,0,1,0,50220.2,0.134637,0.134333,0.588281,26,0.0110151,10,7.90253e-05,-3.23041,-0.375852,-0.156976,-3.59963,0.134333,
2,1,0,1,0,50220.5,0.136135,0.135808,0.582009,26,0.0111947,10,7.90413e-05,-3.23507,-0.231128,-0.25527,-5.76803,0.135808,
2,1,0,1,0,50220.8,0.137633,0.137288,0.572329,26,0.0113718,10,7.85739e-05,-3.24235,-0.173749,-0.339571,-7.54278,0.137288,
2,1,0,1,0,50221.1,0.139132,0.138807,0.559065,26,0.0115456,10,7.7602e-05,-3.25254,-0.141022,-0.418375,-9.07849,0.138807,
2,1,0,1,0,50221.4,0.140629,0.140326,0.543086,26,0.0117147,10,7.62091e-05,-3.26513,-0.115203,-0.51214,-10.8297,0.140326,
2,1,0,1,0,50221.7,0.142127,0.141784,0.526773,26,0.0118791,10,7.46881e-05,-3.27838,-0.102925,-0.573232,-11.721,0.141784,
2,1,0,0,0,50222,0.143626,0.143309,0.507969,26,0.0120384,10,7.27965e-05,-3.29416,-0.0872953,-0.675867,-13.3257,0.143309,
2,1,0,0,0,50222.3,0.145124,0.144784,0.486144,26,0.0121915,10,7.03858e-05,-3.31324,-0.0785119,-0.751478,-14.2521,0.144784,
2,1,0,1,0,50222.6,0.146623,0.146292,0.463352,26,0.0123379,10,6.77848e-05,-3.33409,-0.0799454,-0.738004,-13.4093,0.146292,
2,1,0,1,0,50222.9,0.14812,0.147803,0.443976,26,0.012478,10,6.56209e-05,-3.35264,-0.0800874,-0.736695,-12.7708,0.147803,
2,1,0,1,0,50223.2,0.149618,0.149296,0.42482,26,0.0126124,10,6.34238e-05,-3.3718,-0.0806917,-0.731178,-12.1594,0.149296,
2,1,0,1,0,50223.5,0.151117,0.150783,0.408096,26,0.0127411,10,6.15338e-05,-3.38924,-0.0841248,-0.701339,-11.1855,0.1507826,
2,1,0,1,0,50223.8,0.152615,0.152307,0.390367,26,0.0128648,10,5.94558e-05,-3.40853,-0.0933699,-0.631895,-9.69032,0.152307,
2,1,0,1,0,50224.1,0.154114,0.153746,0.378757,26,0.012984,10,5.82323e-05,-3.42164,-0.10737,-0.549499,-8.15249,0.1537459,
2,1,0,1,0,50224.4,0.155612,0.155245,0.366626,26,0.0130996,10,5.69168e-05,-3.43578,-0.126638,-0.465894,-6.69287,0.155245,
2,1,0,1,0,50224.7,0.157109,0.156822,0.358286,26,0.0132123,10,5.61872e-05,-3.44577,-0.131206,-0.449674,-6.28989,0.156822,
2,1,0,0,0,50225,0.158608,0.158281,0.349871,26,0.0133223,10,5.53779e-05,-3.45609,-0.168875,-0.349371,-4.78182,0.158281,
2,1,0,0,0,50225.3,0.160106,0.159757,0.342471,26,0.0134297,10,5.47121e-05,-3.46538,-0.183237,-0.321987,-4.31887,0.159757,
2,1,0,1,0,50225.6,0.161605,0.161283,0.337856,26,0.0135354,10,5.44905e-05,-3.47127,-0.220389,-0.267708,-3.52329,0.161283,
2,1,0,1,0,50225.9,0.163102,0.16277,0.332265,26,0.0136395,10,5.40826e-05,-3.47852,-0.239529,-0.246317,-3.19426,0.16277,
2,1,0,1,0,50226.2,0.1646,0.164279,0.32803,26,0.0137421,10,5.38885e-05,-3.48409,-0.29075,-0.202924,-2.59279,0.164279,
2,1,0,1,0,50226.5,0.166099,0.165763,0.323539,26,0.0138434,10,5.36308e-05,-3.49007,-0.328046,-0.179853,-2.27619,0.165763,
2,1,0,1,0,50226.8,0.167597,0.167266,0.319991,26,0.0139437,10,5.35235e-05,-3.49486,-0.410549,-0.14371,-1.79747,0.167266,
2,1,0,1,0,50227.1,0.169095,0.168786,0.317605,26,0.0140432,10,5.36072e-05,-3.49811,-0.359705,-0.164023,-2.03652,0.168786,
2,1,0,1,0,50227.4,0.170594,0.170257,0.31509,26,0.0141418,10,5.36463e-05,-3.50157,-0.421724,-0.139902,-1.72262,0.170257,
2,1,0,1,0,50227.7,0.172091,0.171829,0.312037,26,0.0142395,10,5.36171e-05,-3.50579,-0.392868,-0.150178,-1.83292,0.171829,
2,1,0,1,0,50228,0.173589,0.173211,0.310481,26,0.0143366,10,5.37786e-05,-3.50797,-0.655213,-0.0900471,-1.09141,0.173211,
2,1,0,0,0,50228.3,0.175088,0.174738,0.308563,26,0.0144332,10,5.39177e-05,-3.51066,-0.621427,-0.0949427,-1.14276,0.174738,
2,1,0,0,0,50228.6,0.176586,0.176227,0.307186,26,0.0145292,10,5.41346e-05,-3.5126,-0.720261,-0.0819147,-0.978089,0.176227,
2,1,0,1,0,50228.9,0.178085,0.177763,0.304815,26,0.0146248,10,5.41847e-05,-3.51596,-1.17174,-0.0503524,-0.6,0.177763,
2,1,0,1,0,50229.2,0.179582,0.17928,0.304158,26,0.0147199,10,5.45294e-05,-3.5169,-0.830209,-0.0710665,-0.846859,0.17928,
2,1,0,1,0,50229.5,0.18108,0.180775,0.302783,26,0.0148149,10,5.47356e-05,-3.51887,-0.919014,-0.0641993,-0.759829,0.180775,
2,1,0,1,0,50229.8,0.182579,0.182226,0.301913,26,0.0149095,10,5.50163e-05,-3.52012,-0.603453,-0.0977707,-1.15125,0.182226,
2,1,0,1,0,50230.1,0.184077,0.183765,0.300367,26,0.0150037,10,5.5197e-05,-3.52235,-0.989957,-0.0595985,-0.701534,0.183765,
2,1,0,1,0,50230.4,0.185576,0.185224,0.300515,26,0.0150974,10,5.56627e-05,-3.52213,-1.18656,-0.0497235,-0.582103,0.185224,
2,1,0,1,0,50230.7,0.187074,0.186759,0.298936,26,0.0151911,10,5.5829e-05,-3.52442,-1.88961,-0.0312234,-0.363371,0.1867592,
2,1,0,1,0,50231,0.188571,0.188245,0.297923,26,0.0152844,10,5.60827e-05,-3.5259,-0.85921,-0.0686677,-0.797822,0.188245,
2,1,0,0,0,50231.3,0.19007,0.189717,0.297153,26,0.0153775,10,5.63748e-05,-3.52702,-1.19432,-0.0494003,-0.571733,0.1897165,
2,1,0,0,0,50231.6,0.191568,0.191233,0.295496,26,0.0154702,10,5.65086e-05,-3.52945,-1.26002,-0.0468246,-0.541824,0.191233,
2,1,0,1,0,50231.9,0.193067,0.192757,0.294619,26,0.0155626,10,5.67898e-05,-3.53074,-13.0843,-0.00450923,-0.0518814,0.192757,
2,1,0,1,0,50232.2,0.194564,0.194224,0.294855,26,0.015655,10,5.7268e-05,-3.53039,-2.59993,-0.0226929,-0.261067,0.194224,
2,1,0,1,0,50232.5,0.196062,0.195737,0.294598,26,0.0157472,10,5.76639e-05,-3.53077,-1.34918,-0.0437301,-0.50287,0.1957373,
2,1,0,1,0,50232.8,0.197561,0.197272,0.292123,26,0.0158391,10,5.76277e-05,-3.53443,-1.65221,-0.0357097,-0.409657,0.197272,
2,1,0,1,0,50233.1,0.199059,0.198733,0.293809,26,0.0159307,10,5.83896e-05,-3.53193,-13.8157,-0.0042705,-0.0487916,0.198733,
2,1,0,1,0,50233.4,0.200557,0.20019,0.293203,26,0.0160224,10,5.86963e-05,-3.53283,-1.8058,-0.0326725,-0.372693,0.2001901,
2,1,0,1,0,50233.7,0.202056,0.201729,0.29276,26,0.0161139,10,5.90582e-05,-3.53349,-1.05274,-0.0560441,-0.637452,0.201729,
2,1,0,1,0,50234,0.203553,0.203228,0.291051,26,0.0162051,10,5.91498e-05,-3.53603,-2.05848,-0.028662,-0.325585,0.203228,
2,1,0,1,0,50234.3,0.205051,0.2047,0.29069,26,0.016296,10,5.9504e-05,-3.53657,20.2081,0.00291962,0.033328,0.2047,
2,1,0,0,0,50234.6,0.20655,0.206234,0.290089,26,0.016387,10,5.98263e-05,-3.53747,-1.52748,-0.0386257,-0.438072,0.206234,
2,1,0,0,0,50234.9,0.208048,0.207757,0.289525,26,0.0164779,10,6.01508e-05,-3.53831,-0.710286,-0.0830651,-0.93726,0.207757,
2,1,0,1,0,50235.2,0.209547,0.20923,0.289319,26,0.0165685,10,6.05343e-05,-3.53862,-2.73396,-0.0215804,-0.243212,0.20923,
2,1,0,1,0,50235.5,0.211044,0.210706,0.289107,26,0.0166586,10,6.09166e-05,-3.53894,-2.01435,-0.0292899,-0.330219,0.2107064,
2,1,0,1,0,50235.8,0.212542,0.212241,0.288157,26,0.0167489,10,6.11588e-05,-3.54037,-11.2136,-0.00526145,-0.0590885,0.212241,
2,1,0,1,0,50236.1,0.214041,0.213744,0.2884,26,0.016839,10,6.16438e-05,-3.54,-3.79077,-0.0155641,-0.174719,0.213744,
2,1,0,1,0,50236.4,0.215539,0.215227,0.287403,26,0.016929,10,6.18568e-05,-3.54151,-2.12462,-0.0277696,-0.312192,0.215227,
2,1,0,1,0,50236.7,0.217038,0.216716,0.286701,26,0.0170187,10,6.21326e-05,-3.54257,-1.87215,-0.0315146,-0.352743,0.216716,
2,1,0,1,0,50237,0.218535,0.218211,0.286662,26,0.0171084,10,6.25527e-05,-3.54263,2.64439,0.0223114,0.249383,0.218211,
2,1,0,1,0,50237.3,0.220033,0.219711,0.286827,26,0.0171981,10,6.30189e-05,-3.54238,-1.71795,-0.0343433,-0.383897,0.219711,
2,1,0,0,0,50237.6,0.221532,0.221215,0.286081,26,0.0172876,10,6.32853e-05,-3.54351,-3.74903,-0.0157374,-0.175883,0.2212148,
2,1,0,0,0,50237.9,0.22303,0.222735,0.283627,26,0.0173768,10,6.31737e-05,-3.54725,-2.29956,-0.0256571,-0.285581,0.222735,
2,1,0,1,0,50238.2,0.224529,0.22423,0.285216,26,0.017466,10,6.3954e-05,-3.54483,-2.48259,-0.0237655,-0.264487,0.22423,
2,1,0,1,0,50238.5,0.226026,0.225764,0.285428,26,0.017555,10,6.44394e-05,-3.5445,-1.85018,-0.0318887,-0.354065,0.2257642,
2,1,0,1,0,50238.8,0.227524,0.227201,0.283969,26,0.017644,10,6.45178e-05,-3.54673,-1.03025,-0.0572674,-0.634588,0.227201,
2,1,0,1,0,50239.1,0.229023,0.228717,0.283132,26,0.0177329,10,6.47571e-05,-3.54801,-1.49108,-0.0395688,-0.438342,0.228717,
2,1,0,1,0,50239.4,0.230521,0.230196,0.282786,26,0.0178214,10,6.50963e-05,-3.54854,-4.09709,-0.0144005,-0.159639,0.230196,
2,1,0,1,0,50239.7,0.232019,0.231742,0.282082,26,0.01791,10,6.53705e-05,-3.54962,-2.03098,-0.02905,-0.321093,0.231742,
2,1,0,1,0,50240,0.233518,0.233233,0.283207,26,0.0179986,10,6.60532e-05,-3.5479,-2.20715,-0.0267313,-0.294106,0.233233,
2,1,0,1,0,50240.3,0.235015,0.234693,0.283069,26,0.0180869,10,6.64343e-05,-3.54811,-1.41803,-0.0416069,-0.457628,0.234693,
2,1,0,1,0,50240.6,0.236513,0.236183,0.282091,26,0.018175,10,6.66251e-05,-3.54961,-8.2228,-0.00717517,-0.0788254,0.236183,
2,1,0,0,0,50240.9,0.238012,0.23772,0.281334,26,0.018263,10,6.68788e-05,-3.55078,1.91409,0.030824,0.337809,0.23772,
2,1,0,0,0,50241.2,0.23951,0.239209,0.28113,26,0.0183511,10,6.72487e-05,-3.55109,-2.3507,-0.0250989,-0.274707,0.239209,
2,1,0,1,0,50241.5,0.241009,0.240693,0.280879,26,0.0184391,10,6.76056e-05,-3.55148,-5.72623,-0.0103035,-0.112839,0.240693,
2,1,0,1,0,50241.8,0.242506,0.242168,0.279654,26,0.0185267,10,6.77234e-05,-3.55338,-3.67225,-0.0160665,-0.1761,0.242168,
2,1,0,1,0,50242.1,0.244004,0.243688,0.280257,26,0.0186145,10,6.82953e-05,-3.55244,3.09464,0.0190652,0.208406,0.243688,
2,1,0,1,0,50242.4,0.245503,0.245208,0.280722,26,0.0187023,10,6.88351e-05,-3.55172,-2.09276,-0.0281924,-0.308008,0.245208,
2,1,0,1,0,50242.7,0.247001,0.246697,0.279707,26,0.0187899,10,6.90031e-05,-3.5533,-2.40152,-0.0245678,-0.268014,0.246697,
2,1,0,1,0,50243,0.2485,0.248174,0.278524,26,0.0188775,10,6.91223e-05,-3.55514,-1.88045,-0.0313755,-0.341647,0.248174,
2,1,0,1,0,50243.3,0.249997,0.249648,0.279026,26,0.0189648,10,6.96582e-05,-3.55435,-4.62283,-0.0127628,-0.139069,0.249648,
2,1,0,1,0,50243.6,0.251495,0.251155,0.279053,26,0.0190522,10,7.00856e-05,-3.55431,-3.33442,-0.0176942,-0.192887,0.251155,
2,1,0,0,0,50243.9,0.252994,0.252681,0.278397,26,0.0191395,10,7.03457e-05,-3.55534,-1.19966,-0.0491807,-0.533966,0.252681,
2,1,0,0,0,50244.2,0.254492,0.254187,0.278272,26,0.0192267,10,7.07331e-05,-3.55553,-2.13001,-0.0276994,-0.300961,0.254187,
2,1,0,1,0,50244.5,0.255991,0.25568,0.278256,26,0.0193137,10,7.11447e-05,-3.55555,-4.32429,-0.0136439,-0.148138,0.25568,
2,1,0,1,0,50244.8,0.257488,0.257152,0.277267,26,0.0194006,10,7.12998e-05,-3.5571,-3.7802,-0.0156076,-0.169191,0.257152,
2,1,0,1,0,50245.1,0.258986,0.258691,0.278008,26,0.0194876,10,7.19184e-05,-3.55594,-2.40368,-0.0245457,-0.265783,0.258691,
2,1,0,1,0,50245.4,0.260485,0.260207,0.27782,26,0.0195744,10,7.22907e-05,-3.55624,-4.04657,-0.0145802,-0.157449,0.260207,
2,1,0,1,0,50245.7,0.261983,0.261683,0.27675,26,0.0196609,10,7.24207e-05,-3.55791,40.6026,0.00145311,0.0156993,0.261683,
2,1,0,1,0,50246,0.263481,0.26312,0.276169,26,0.0197475,10,7.26656e-05,-3.55882,2.69217,0.0219154,0.236353,0.26312,
2,1,0,1,0,50246.3,0.26498,0.264654,0.27554,26,0.019834,10,7.29227e-05,-3.55981,17.2785,0.00341466,0.0367983,0.264654,
2,1,0,1,0,50246.6,0.266477,0.266174,0.275876,26,0.0199204,10,7.34309e-05,-3.55929,-2.1455,-0.0274994,-0.296354,0.266174,
2,1,0,0,0,50246.9,0.267976,0.267665,0.274288,26,0.0200066,10,7.34172e-05,-3.56179,-1.52199,-0.038765,-0.417146,0.267665,
2,1,0,0,0,50247.2,0.269474,0.269147,0.275251,26,0.0200927,10,7.4083e-05,-3.56027,308.964,0.000190961,0.00204662,0.269147,
2,1,0,0,0,50247.5,0.270972,0.270635,0.276087,26,0.0201787,10,7.47188e-05,-3.55895,-1.86086,-0.0317057,-0.339984,0.270635,
2,1,0,1,0,50247.8,0.27247,0.272199,0.274687,26,0.0202647,10,7.47696e-05,-3.56116,-3.35578,-0.0175816,-0.188016,0.272199,
2,1,0,1,0,50248.1,0.273968,0.273609,0.273373,26,0.0203505,10,7.47974e-05,-3.56324,22.998,0.00256544,0.0274796,0.273609,
2,1,0,1,0,50248.4,0.275466,0.275175,0.27432,26,0.0204362,10,7.54861e-05,-3.56174,-4.25216,-0.0138753,-0.148429,0.275175,
2,1,0,1,0,50248.7,0.276965,0.276624,0.273402,26,0.0205218,10,7.56295e-05,-3.5632,-4.94207,-0.0119383,-0.127389,0.276624,
2,1,0,1,0,50249,0.278463,0.278146,0.272708,26,0.0206072,10,7.58527e-05,-3.5643,-2.37451,-0.0248473,-0.264258,0.278146,
2,1,0,1,0,50249.3,0.279962,0.279707,0.272489,26,0.0206926,10,7.62171e-05,-3.56465,-2.08944,-0.0282372,-0.300447,0.279707,
2,1,0,1,0,50249.6,0.281459,0.281169,0.272061,26,0.0207776,10,7.64952e-05,-3.56533,-2.4312,-0.0242678,-0.257835,0.281169,
2,1,0,1,0,50249.9,0.282957,0.28264,0.272023,26,0.0208626,10,7.68845e-05,-3.56539,-2.01363,-0.0293003,-0.310813,0.28264,
2,1,0,0,0,50250.2,0.284456,0.284126,0.27206,26,0.0209477,10,7.72993e-05,-3.56533,-1.4015,-0.0420977,-0.445804,0.284126,
2,1,0,0,0,50250.5,0.285954,0.285631,0.270721,26,0.0210325,10,7.73263e-05,-3.56748,-1.60695,-0.0367156,-0.388309,0.2856313,
2,1,0,0,0,50250.8,0.287452,0.287125,0.270799,26,0.021117,10,7.77532e-05,-3.56735,-2.05454,-0.028717,-0.303087,0.287125,
2,1,0,1,0,50251.1,0.28895,0.288659,0.269648,26,0.0212016,10,7.78362e-05,-3.5692,4.79919,0.0122937,0.129537,0.288659,
2,1,0,1,0,50251.4,0.290448,0.29015,0.269827,26,0.021286,10,7.82901e-05,-3.56892,-9.99563,-0.00590258,-0.0621738,0.29015,
2,1,0,1,0,50251.7,0.291947,0.29166,0.269736,26,0.0213705,10,7.8671e-05,-3.56906,-3.13265,-0.0188339,-0.19829,0.29166,
2,1,0,1,0,50252,0.293445,0.293119,0.267555,26,0.0214546,10,7.84254e-05,-3.57259,-2.77273,-0.0212787,-0.22324,0.293119,
2,1,0,1,0,50252.3,0.294943,0.29465,0.269153,26,0.0215387,10,7.93059e-05,-3.57,-17.2126,-0.00342772,-0.0359074,0.29465,
2,1,0,1,0,50252.6,0.296442,0.296116,0.269311,26,0.0216228,10,7.97472e-05,-3.56975,-112.448,-0.000524689,-0.005491,0.296116,
2,1,0,1,0,50252.9,0.297939,0.297655,0.268077,26,0.0217069,10,7.97946e-05,-3.57174,-1.74086,-0.0338914,-0.354187,0.297655,
2,1,0,1,0,50253.2,0.299437,0.299146,0.267082,26,0.0217907,10,7.98963e-05,-3.57336,-0.00279851,-21.0827,-116.084,0.299146,
2,1,0,1,0,50253.3,0.299737,0.299426,0.131568,26,0.0218302,10,3.93949e-05,-3.88085,0.0010512,56.1262,204.767,0.299426,
2,1,0,1,0,50253.6,0.29824,0.297946,0.0273104,26,0.0218443,10,8.13704e-06,-4.56367,0.00153461,38.4462,70.1449,0.297946,
2,1,0,0,0,50253.9,0.296741,0.296425,0.00685862,26,0.0218456,10,2.03307e-06,-5.16376,0.00653206,9.03238,12.0529,0.296425,
2,0,0,0,0,50254.2,0.295243,0.294951,-0.00556461,26,0.0218421,10,-1.64129e-06,-5.25457,-0.0282553,-2.0881,7.13625,0.2949512,
2,0,0,1,0,50254.5,0.293744,0.293435,-0.0148613,26,0.0218356,10,-4.36083e-06,-4.82794,-0.00332529,-17.7428,5.70636,0.293435,
2,0,0,1,0,50254.8,0.292246,0.291897,-0.0228072,26,0.0218266,10,-6.65735e-06,-4.64193,-0.00950609,-6.20655,4.89119,0.291897,
2,0,0,1,0,50255.1,0.290749,0.290474,-0.0302507,26,0.0218152,10,-8.78703e-06,-4.51926,-0.0145533,-4.05407,4.333,0.290474,
2,0,0,1,0,50255.4,0.28925,0.288949,-0.0352446,26,0.0218019,10,-1.01839e-05,-4.45291,-0.0213426,-2.76443,3.74785,0.288949,
2,0,0,1,0,50255.7,0.287752,0.287477,-0.0409336,26,0.0217869,10,-1.17675e-05,-4.38792,-0.0289616,-2.03718,3.25281,0.287477,
2,0,0,1,0,50256,0.286253,0.285934,-0.0454261,26,0.0217705,10,-1.29889e-05,-4.34269,-0.0309523,-1.90616,3.37983,0.285934,
2,0,0,1,0,50256.3,0.284755,0.284432,-0.0507897,26,0.0217525,10,-1.44462e-05,-4.29422,-0.0357855,-1.64871,3.20967,0.284432,
2,0,0,1,0,50256.6,0.283257,0.282933,-0.0551921,26,0.021733,10,-1.56157e-05,-4.25812,-0.0442534,-1.33323,2.82036,0.282933,
2,0,0,0,0,50256.9,0.281759,0.281414,-0.0593373,26,0.0217123,10,-1.66983e-05,-4.22667,-0.0528065,-1.11729,2.55131,0.281414,
2,0,0,0,0,50257.2,0.280261,0.279924,-0.0619182,26,0.0216905,10,-1.73324e-05,-4.20818,-0.055115,-1.07049,2.60649,0.279924,
2,0,0,0,0,50257.5,0.278763,0.278477,-0.0668014,26,0.0216675,10,-1.86026e-05,-4.17521,-0.0609297,-0.96833,2.4867,0.278477,
2,0,0,1,0,50257.8,0.277264,0.276948,-0.0704897,26,0.0216432,10,-1.9522e-05,-4.15187,-0.0819873,-0.719624,1.97897,0.276948,
2,0,0,1,0,50258.1,0.275766,0.275419,-0.0749612,26,0.0216179,10,-2.06457e-05,-4.12516,-0.0943787,-0.625141,1.77888,0.275419,
2,0,0,1,0,50258.4,0.274269,0.273953,-0.0769988,26,0.0215915,10,-2.10941e-05,-4.11352,-0.0894927,-0.659271,1.98485,0.273953,
2,0,0,1,0,50258.7,0.27277,0.27241,-0.0789571,26,0.0215644,10,-2.15087e-05,-4.10261,-0.0961805,-0.61343,1.93325,0.27241,
2,0,0,1,0,50259,0.271272,0.270945,-0.084038,26,0.0215362,10,-2.27696e-05,-4.07552,-0.0979292,-0.602476,1.95056,0.270945,
2,0,0,1,0,50259.3,0.269773,0.269446,-0.0868131,26,0.021507,10,-2.33915e-05,-4.06141,-0.0967402,-0.609881,2.0385,0.269446,
2,0,0,1,0,50259.6,0.268275,0.267946,-0.0887326,26,0.021477,10,-2.37755e-05,-4.05192,-0.108497,-0.543795,1.8741,0.267946,
2,0,0,1,0,50259.9,0.266778,0.266498,-0.0919155,26,0.0214462,10,-2.44953e-05,-4.03661,-0.112513,-0.524384,1.8788,0.266498,
2,0,0,0,0,50260.2,0.265279,0.264957,-0.094456,26,0.0214146,10,-2.50267e-05,-4.02477,-0.105337,-0.560104,2.0596,0.264957,
2,0,0,0,0,50260.5,0.263781,0.263474,-0.0974182,26,0.021382,10,-2.56672e-05,-4.01136,-0.116434,-0.506725,1.92501,0.263474,
2,0,0,1,0,50260.8,0.262282,0.261967,-0.0997736,26,0.0213486,10,-2.61374e-05,-4.00098,-0.124051,-0.47561,1.84705,0.261967,
2,0,0,1,0,50261.1,0.260784,0.260486,-0.101742,26,0.0213147,10,-2.65023e-05,-3.9925,-0.149668,-0.394205,1.56974,0.260486,
2,0,0,1,0,50261.4,0.259286,0.259001,-0.104172,26,0.0212801,10,-2.69807e-05,-3.98225,-0.138344,-0.426474,1.73319,0.259001,
2,0,0,1,0,50261.7,0.257788,0.257483,-0.107125,26,0.0212447,10,-2.75829e-05,-3.97011,-0.137855,-0.427987,1.76831,0.2574828,
2,0,0,1,0,50262,0.25629,0.255971,-0.109002,26,0.0212085,10,-2.79014e-05,-3.96256,-0.167397,-0.352455,1.48866,0.255971,
2,0,0,1,0,50262.3,0.254791,0.254486,-0.110211,26,0.0211717,10,-2.80471e-05,-3.95778,-0.177643,-0.332127,1.43315,0.254486,
2,0,0,1,0,50262.6,0.253293,0.252968,-0.112782,26,0.0211344,10,-2.85303e-05,-3.94776,-0.205735,-0.286777,1.26645,0.252968,
2,0,0,1,0,50262.9,0.251795,0.251493,-0.115005,26,0.0210964,10,-2.8923e-05,-3.93928,-0.182817,-0.322727,1.45622,0.251493,
2,0,0,0,0,50263.2,0.250297,0.249922,-0.118094,26,0.0210576,10,-2.95142e-05,-3.92777,-0.228955,-0.257693,1.17956,0.249922,
2,0,0,0,0,50263.5,0.248799,0.248465,-0.119454,26,0.0210181,10,-2.96802e-05,-3.9228,-0.212301,-0.277908,1.29317,0.248465,
2,0,0,0,0,50263.8,0.247301,0.246985,-0.121642,26,0.0209782,10,-3.00436e-05,-3.91492,-0.202876,-0.290818,1.38162,0.246985,
2,0,0,1,0,50264.1,0.245802,0.245479,-0.124463,26,0.0209376,10,-3.05529e-05,-3.90496,-0.220189,-0.267952,1.29142,0.245479,
2,0,0,1,0,50264.4,0.244304,0.243958,-0.12617,26,0.0208963,10,-3.07801e-05,-3.89905,-0.221626,-0.266214,1.29769,0.243958,
2,0,0,1,0,50264.7,0.242806,0.242455,-0.128123,26,0.0208545,10,-3.1064e-05,-3.89237,-0.233712,-0.252448,1.25642,0.242455,
2,0,0,1,0,50265,0.241308,0.240997,-0.128516,26,0.0208123,10,-3.09719e-05,-3.89104,-0.220483,-0.267595,1.35704,0.240997,
2,0,0,1,0,50265.3,0.23981,0.239447,-0.131154,26,0.0207694,10,-3.14046e-05,-3.88222,-0.182288,-0.323664,1.65286,0.239447,
2,0,0,1,0,50265.6,0.238311,0.23799,-0.133483,26,0.0207259,10,-3.17677e-05,-3.87457,-0.213491,-0.276358,1.44088,0.23799,
2,0,0,1,0,50265.9,0.236813,0.236453,-0.134971,26,0.0206818,10,-3.19143e-05,-3.86976,-0.33537,-0.175925,0.926352,0.236453,
2,0,0,1,0,50266.2,0.235316,0.235042,-0.136017,26,0.0206373,10,-3.19697e-05,-3.86641,-0.261766,-0.225392,1.20674,0.235042,
2,0,0,0,0,50266.5,0.233817,0.233458,-0.139844,26,0.0205922,10,-3.26477e-05,-3.85436,-0.220442,-0.267644,1.45171,0.233458,
2,0,0,0,0,50266.8,0.232319,0.231987,-0.14201,26,0.0205464,10,-3.29445e-05,-3.84768,-0.351093,-0.168047,0.923825,0.231987,
2,0,0,1,0,50267.1,0.23082,0.230516,-0.142657,26,0.0205,10,-3.28848e-05,-3.84571,-0.320027,-0.18436,1.0246,0.230516,
2,0,0,1,0,50267.4,0.229322,0.229029,-0.143956,26,0.0204531,10,-3.29701e-05,-3.84177,-0.231615,-0.254733,1.43687,0.2290291,
2,0,0,1,0,50267.7,0.227825,0.227475,-0.145799,26,0.0204059,10,-3.31657e-05,-3.83624,-0.324344,-0.181906,1.0415,0.227475,
2,0,0,1,0,50268,0.226326,0.22597,-0.147833,26,0.0203579,10,-3.34057e-05,-3.83023,-0.313294,-0.188322,1.08737,0.22597,
2,0,0,1,0,50268.3,0.224828,0.224489,-0.1486,26,0.0203095,10,-3.3359e-05,-3.82798,-0.378354,-0.155939,0.909988,0.224489,
2,0,0,1,0,50268.6,0.223329,0.223014,-0.151311,26,0.0202605,10,-3.37444e-05,-3.82013,-0.263269,-0.224105,1.32505,0.223014,
2,0,0,1,0,50268.9,0.221831,0.221525,-0.153173,26,0.0202112,10,-3.39317e-05,-3.81482,-0.29873,-0.197503,1.18204,0.221525,
2,0,0,1,0,50269.2,0.220333,0.220001,-0.153866,26,0.0201613,10,-3.38506e-05,-3.81286,-0.259202,-0.227622,1.36859,0.220001,
2,0,0,0,0,50269.5,0.218835,0.218543,-0.156531,26,0.0201107,10,-3.42087e-05,-3.8054,-0.31823,-0.185401,1.13065,0.218543,
2,0,0,0,0,50269.8,0.217337,0.217022,-0.158549,26,0.0200597,10,-3.44087e-05,-3.79984,-0.583178,-0.10117,0.622075,0.217022,
2,0,0,0,0,50270.1,0.215839,0.215529,-0.158809,26,0.0200083,10,-3.42279e-05,-3.79913,-0.305832,-0.192916,1.20029,0.215529,
2,0,0,1,0,50270.4,0.21434,0.213983,-0.160776,26,0.0199564,10,-3.44032e-05,-3.79378,-0.272249,-0.216714,1.35865,0.213983,
2,0,0,1,0,50270.7,0.212842,0.212518,-0.162928,26,0.0199038,10,-3.46251e-05,-3.78801,-0.42864,-0.137644,0.87241,0.212518,
2,0,0,1,0,50271,0.211344,0.211038,-0.165032,26,0.0198506,10,-3.4828e-05,-3.78243,-0.389245,-0.151575,0.973048,0.211038,
2,0,0,1,0,50271.3,0.209846,0.209548,-0.164883,26,0.0197972,10,-3.4551e-05,-3.78282,-0.33782,-0.174649,1.1329,0.209548,
2,0,0,1,0,50271.6,0.208348,0.208005,-0.167701,26,0.0197432,10,-3.48827e-05,-3.77546,-0.256374,-0.230132,1.51008,0.208005,
2,0,0,1,0,50271.9,0.206849,0.206553,-0.172792,26,0.0196883,10,-3.56908e-05,-3.76248,-0.287741,-0.205046,1.35745,0.206553,
2,0,0,1,0,50272.2,0.205351,0.205034,-0.171925,26,0.0196329,10,-3.52504e-05,-3.76466,-0.473098,-0.12471,0.833355,0.205034,
2,0,0,1,0,50272.5,0.203854,0.203522,-0.173712,26,0.019577,10,-3.53543e-05,-3.76017,-0.280565,-0.21029,1.43024,0.203522,
2,0,0,0,0,50272.8,0.202355,0.202047,-0.174568,26,0.0195209,10,-3.52709e-05,-3.75804,-0.26716,-0.220841,1.52126,0.202047,
2,0,0,0,0,50273.1,0.200857,0.200534,-0.177442,26,0.0194638,10,-3.55831e-05,-3.75094,-0.302056,-0.195328,1.34709,0.200534,
2,0,0,1,0,50273.4,0.199358,0.199043,-0.179353,26,0.0194063,10,-3.56991e-05,-3.74629,-0.498707,-0.118306,0.826321,0.199043,
2,0,0,1,0,50273.7,0.19786,0.197506,-0.181399,26,0.0193483,10,-3.58275e-05,-3.74136,-0.383089,-0.154011,1.08658,0.197506,
2,0,0,1,0,50274,0.196363,0.196057,-0.183353,26,0.0192899,10,-3.59476e-05,-3.73671,-0.348096,-0.169493,1.2103,0.196057,
2,0,0,1,0,50274.3,0.194864,0.194549,-0.185298,26,0.0192307,10,-3.60495e-05,-3.73213,-0.224957,-0.262272,1.88866,0.194549,
2,0,0,1,0,50274.6,0.193366,0.192995,-0.186897,26,0.0191707,10,-3.60702e-05,-3.7284,-0.355112,-0.166145,1.2153,0.192995,
2,0,0,1,0,50274.9,0.191867,0.191543,-0.188907,26,0.0191102,10,-3.61839e-05,-3.72375,-0.39168,-0.150633,1.11611,0.191543,
2,0,0,1,0,50275.2,0.190369,0.190001,-0.18995,26,0.0190493,10,-3.60906e-05,-3.72136,-0.301612,-0.195616,1.45951,0.190001,
2,0,0,1,0,50275.5,0.188871,0.188562,-0.192973,26,0.0189877,10,-3.63874e-05,-3.7145,-0.289067,-0.204105,1.53559,0.188562,
2,0,0,0,0,50275.8,0.187373,0.187048,-0.195508,26,0.0189254,10,-3.65696e-05,-3.70883,-0.323017,-0.182653,1.39186,0.187048,
2,0,0,0,0,50276.1,0.185875,0.185548,-0.197553,26,0.0188625,10,-3.66557e-05,-3.70432,-0.287815,-0.204993,1.57368,0.185548,
2,0,0,0,0,50276.4,0.184377,0.184053,-0.198525,26,0.018799,10,-3.65391e-05,-3.70219,-0.3523,-0.167471,1.30088,0.184053,
2,0,0,1,0,50276.7,0.182878,0.182566,-0.2013,26,0.0187349,10,-3.67505e-05,-3.69616,-0.27738,-0.212705,1.67572,0.182566,
2,0,0,1,0,50277,0.181381,0.181076,-0.20294,26,0.01867,10,-3.67477e-05,-3.69263,-0.280736,-0.210162,1.67682,0.181076,
2,0,0,1,0,50277.3,0.179882,0.17956,-0.206094,26,0.0186043,10,-3.70063e-05,-3.68593,-0.307384,-0.191942,1.54265,0.17956,
2,0,0,1,0,50277.6,0.178384,0.178036,-0.208803,26,0.0185379,10,-3.71745e-05,-3.68026,-0.295879,-0.199406,1.63165,0.178036,
2,0,0,1,0,50277.9,0.176886,0.176584,-0.211826,26,0.018471,10,-3.74052e-05,-3.67402,-0.267148,-0.220852,1.82451,0.176584,
2,0,0,1,0,50278.2,0.175387,0.175071,-0.214996,26,0.0184029,10,-3.76395e-05,-3.66757,-0.221197,-0.266731,2.22629,0.175071,
2,0,0,1,0,50278.5,0.173889,0.173507,-0.218057,26,0.0183341,10,-3.78344e-05,-3.66143,-0.280936,-0.210012,1.77397,0.173507,
2,0,0,1,0,50278.8,0.172392,0.172084,-0.22051,26,0.0182644,10,-3.79461e-05,-3.65657,-0.270909,-0.217785,1.86977,0.172084,
2,0,0,0,0,50279.1,0.170893,0.170566,-0.222351,26,0.0181941,10,-3.79255e-05,-3.65296,-0.298208,-0.197848,1.72151,0.170566,
2,0,0,0,0,50279.4,0.169395,0.16907,-0.225227,26,0.0181226,10,-3.80792e-05,-3.64738,-0.192805,-0.306008,2.69904,0.16907,
2,0,0,1,0,50279.7,0.167896,0.167552,-0.229352,26,0.01805,10,-3.84284e-05,-3.6395,-0.225359,-0.261804,2.35523,0.167552,
2,0,0,1,0,50280,0.166398,0.166038,-0.231632,26,0.0179764,10,-3.84596e-05,-3.6352,-0.24229,-0.24351,2.2217,0.1660375,
2,0,0,1,0,50280.3,0.164901,0.16455,-0.236325,26,0.0179019,10,-3.88874e-05,-3.62649,-0.229718,-0.256836,2.381,0.16455,
2,0,0,1,0,50280.6,0.163402,0.163076,-0.240449,26,0.0178262,10,-3.92114e-05,-3.61898,-0.189415,-0.311486,2.924,0.163076,
2,0,0,1,0,50280.9,0.161904,0.16158,-0.244827,26,0.0177494,10,-3.95591e-05,-3.61114,-0.223272,-0.264252,2.51811,0.16158,
2,0,0,1,0,50281.2,0.160405,0.16008,-0.249768,26,0.017671,10,-3.99829e-05,-3.60246,-0.185394,-0.318242,3.09324,0.1600799,
2,0,0,1,0,50281.5,0.158907,0.158586,-0.253447,26,0.0175914,10,-4.01931e-05,-3.59611,-0.169185,-0.34873,3.46629,0.158586,
2,0,0,1,0,50281.8,0.157409,0.1571,-0.259623,26,0.0175103,10,-4.07868e-05,-3.58566,-0.16287,-0.362253,3.68793,0.1571,
2,0,0,0,0,50282.1,0.155911,0.155623,-0.265099,26,0.0174274,10,-4.12557e-05,-3.57659,-0.147607,-0.399709,4.15314,0.155623,
2,0,0,0,0,50282.4,0.154413,0.154084,-0.271438,26,0.0173425,10,-4.18241e-05,-3.56633,-0.155711,-0.378907,4.01256,0.154084,
2,0,0,0,0,50282.7,0.152915,0.152565,-0.278688,26,0.0172557,10,-4.25181e-05,-3.55488,-0.146373,-0.403081,4.4072,0.152565,
2,0,0,1,0,50283,0.151416,0.151026,-0.286719,26,0.017167,10,-4.33021e-05,-3.54254,-0.126221,-0.467432,5.23695,0.151026,
2,0,0,1,0,50283.3,0.149919,0.149538,-0.29529,26,0.0170758,10,-4.4157e-05,-3.52975,-0.112102,-0.526306,6.05515,0.149538,
2,0,0,1,0,50283.6,0.14842,0.148065,-0.303281,26,0.0169817,10,-4.49052e-05,-3.51816,-0.102397,-0.576188,6.83653,0.148065,
2,0,0,1,0,50283.9,0.146922,0.14661,-0.314825,26,0.0168846,10,-4.61564e-05,-3.50193,-0.103364,-0.570801,7.02589,0.14661,
2,0,0,1,0,50284.2,0.145424,0.145125,-0.325576,26,0.0167846,10,-4.72493e-05,-3.48735,-0.0932739,-0.632545,8.06151,0.145125,
2,0,0,1,0,50284.5,0.143925,0.143574,-0.339012,26,0.0166807,10,-4.86732e-05,-3.46978,-0.0781741,-0.754726,9.9807,0.143574,
2,0,0,1,0,50284.8,0.142427,0.142093,-0.35292,26,0.0165725,10,-5.01474e-05,-3.45232,-0.0823458,-0.716491,9.88335,0.142093,
2,0,0,1,0,50285.1,0.14093,0.140615,-0.368297,26,0.01646,10,-5.17881e-05,-3.4338,-0.0864636,-0.682368,9.82895,0.140615,
2,0,0,0,0,50285.4,0.139431,0.139116,-0.383375,26,0.0163431,10,-5.33336e-05,-3.41638,-0.0802557,-0.73515,11.0413,0.139116,
2,0,0,0,0,50285.7,0.137933,0.13763,-0.401412,26,0.0162213,10,-5.52465e-05,-3.39641,-0.0808479,-0.729766,11.4091,0.13763,
2,0,0,1,0,50286,0.136434,0.136109,-0.419005,26,0.0160942,10,-5.70305e-05,-3.37778,-0.084152,-0.701112,11.4368,0.136109,
2,0,0,1,0,50286.3,0.134936,0.134568,-0.436853,26,0.0159617,10,-5.87864e-05,-3.35966,-0.0838175,-0.70391,11.9496,0.134568,
2,0,0,1,0,50286.6,0.133439,0.133106,-0.453846,26,0.0158238,10,-6.04095e-05,-3.34309,-0.0878814,-0.671359,11.9185,0.133106,
2,0,0,1,0,50286.9,0.13194,0.1316,-0.47173,26,0.0156806,10,-6.20796e-05,-3.32631,-0.0873622,-0.675349,12.4847,0.1316,
2,0,0,1,0,50287.2,0.130442,0.13012,-0.490702,26,0.0155318,10,-6.385e-05,-3.30918,-0.0962144,-0.613214,11.7312,0.13012,
2,0,0,1,0,50287.5,0.128943,0.12861,-0.508577,26,0.0153774,10,-6.54082e-05,-3.29364,-0.110001,-0.536361,10.6027,0.12861,
2,0,0,1,0,50287.8,0.127445,0.127116,-0.524846,26,0.0152183,10,-6.67165e-05,-3.27997,-0.12102,-0.487522,9.93985,0.127116,
2,0,0,1,0,50288.1,0.125947,0.125655,-0.537885,26,0.0150548,10,-6.75882e-05,-3.26931,-0.133704,-0.441273,9.2369,0.125655,
2,0,0,0,0,50288.4,0.124449,0.124117,-0.55076,26,0.0148871,10,-6.83585e-05,-3.25904,-0.149379,-0.394968,8.46407,0.124117,
2,0,0,0,0,50288.7,0.122951,0.122584,-0.563008,26,0.0147155,10,-6.9016e-05,-3.24949,-0.184632,-0.319554,6.9956,0.122584,
2,0,0,0,0,50289,0.121453,0.121134,-0.572292,26,0.0145407,10,-6.93238e-05,-3.24238,-0.226028,-0.261029,5.81765,0.121134,
2,0,0,1,0,50289.3,0.119954,0.119637,-0.580006,26,0.0143634,10,-6.93903e-05,-3.23657,-0.270549,-0.218075,4.93279,0.119637,
2,0,0,1,0,50289.6,0.118456,0.118097,-0.586764,26,0.0141839,10,-6.92949e-05,-3.23154,-0.305665,-0.193022,4.4126,0.118097,
2,0,0,1,0,50289.9,0.116958,0.116636,-0.59324,26,0.0140023,10,-6.91935e-05,-3.22677,-0.485047,-0.121638,2.80438,0.116636,
2,0,0,1,0,50290.2,0.11546,0.115068,-0.595782,26,0.0138197,10,-6.85555e-05,-3.22491,-1.2136,-0.0486159,1.12707,0.115068,
2,0,0,1,0,50290.5,0.113962,0.113624,-0.595243,26,0.0136364,10,-6.76338e-05,-3.22531,-1.45978,-0.0404169,0.940749,0.113624,
2,0,0,1,0,50290.8,0.112463,0.112136,-0.598653,26,0.0134528,10,-6.71305e-05,-3.22282,-2.36176,-0.0249814,0.582769,0.112136,
2,0,0,1,0,50291.1,0.110965,0.110603,-0.600048,26,0.0132688,10,-6.63672e-05,-3.22181,-13.8555,-0.00425825,0.0994236,0.110603,
2,0,0,1,0,50291.4,0.109468,0.109175,-0.59818,26,0.0130848,10,-6.53062e-05,-3.22317,1.02347,0.0576471,-1.34216,0.1091748,
2,0,0,0,0,50291.7,0.107969,0.107626,-0.596903,26,0.012901,10,-6.42424e-05,-3.2241,1.4548,0.0405554,-0.944383,0.107626,
2,0,0,0,0,50292,0.106471,0.106142,-0.595126,26,0.0127182,10,-6.31677e-05,-3.22539,1.73709,0.0339649,-0.790216,0.1061416,
2,0,0,1,0,50292.3,0.104972,0.104651,-0.594561,26,0.0125354,10,-6.22217e-05,-3.2258,1.55992,0.0378224,-0.875489,0.104651,
2,0,0,1,0,50292.6,0.103474,0.103088,-0.593002,26,0.0123527,10,-6.11311e-05,-3.22694,0.813046,0.0725667,-1.67332,0.103088,
2,0,0,1,0,50292.9,0.101977,0.101594,-0.590862,26,0.0121709,10,-6.00281e-05,-3.22851,0.74911,0.0787601,-1.81311,0.101594,
2,0,0,1,0,50293.2,0.100478,0.100161,-0.587057,26,0.01199,10,-5.88001e-05,-3.23132,0.92997,0.0634429,-1.45595,0.100161,
2,0,0,1,0,50293.5,0.0989798,0.0986329,-0.585545,26,0.0118097,10,-5.7754e-05,-3.23244,1.41008,0.0418415,-0.954684,0.0986329,
2,0,0,1,0,50293.8,0.0974812,0.0971288,-0.58352,26,0.0116298,10,-5.66766e-05,-3.23394,0.730414,0.0807761,-1.83966,0.0971288,
2,0,0,1,0,50294.1,0.0959834,0.0956381,-0.581845,26,0.0114508,10,-5.56465e-05,-3.23519,0.782388,0.0754102,-1.70922,0.0956381,
2,0,0,1,0,50294.4,0.0944855,0.0941731,-0.57567,26,0.0112728,10,-5.42127e-05,-3.23983,0.860596,0.0685572,-1.54644,0.0941731,
2,0,0,0,0,50294.7,0.0929871,0.092649,-0.574993,26,0.0110957,10,-5.32725e-05,-3.24034,1.16788,0.0505189,-1.13252,0.09264899,
2,0,0,0,0,50295,0.0914889,0.091175,-0.573872,26,0.0109189,10,-5.23228e-05,-3.24118,0.71504,0.0825129,-1.84046,0.091175,
2,0,0,0,0,50295.3,0.0899907,0.0896533,-0.570303,26,0.0107432,10,-5.11296e-05,-3.24389,0.512505,0.115121,-2.55028,0.0896533,
2,0,0,1,0,50295.6,0.0884923,0.0881791,-0.563751,26,0.0105686,10,-4.97111e-05,-3.24891,0.510907,0.115481,-2.5473,0.0881791,
2,0,0,1,0,50295.9,0.0869946,0.0867057,-0.561507,26,0.0103953,10,-4.86858e-05,-3.25065,0.516881,0.114146,-2.50791,0.0867057,
2,0,0,1,0,50296.2,0.0854961,0.0851668,-0.558524,26,0.0102228,10,-4.75677e-05,-3.25296,0.498576,0.118337,-2.58122,0.0851668,
2,0,0,1,0,50296.5,0.083998,0.0836408,-0.555223,26,0.0100515,10,-4.64393e-05,-3.25553,0.368822,0.159969,-3.45609,0.0836408,
2,0,0,1,0,50296.8,0.0824998,0.0821732,-0.551011,26,0.0098813,10,-4.52783e-05,-3.25884,0.486655,0.121236,-2.61094,0.0821732,
2,0,0,1,0,50297.1,0.0810014,0.0806546,-0.548086,26,0.00971248,10,-4.42056e-05,-3.26115,0.589934,0.100011,-2.13911,0.0806546,
2,0,0,1,0,50297.4,0.0795035,0.0791289,-0.544442,26,0.0095445,10,-4.30811e-05,-3.26405,0.503374,0.117209,-2.49068,0.0791289,
2,0,0,1,0,50297.7,0.0780056,0.0776945,-0.541978,26,0.00937748,10,-4.21087e-05,-3.26602,0.567078,0.104042,-2.19549,0.0776945,
2,0,0,0,0,50298,0.076507,0.0761671,-0.5378,26,0.00921149,10,-4.09626e-05,-3.26938,0.502043,0.11752,-2.4621,0.0761671,
2,0,0,0,0,50298.3,0.0750088,0.0746815,-0.533431,26,0.00904695,10,-3.98374e-05,-3.27292,0.56788,0.103895,-2.16617,0.0746815,
2,0,0,1,0,50298.6,0.0735103,0.0732094,-0.530064,26,0.00888331,10,-3.88056e-05,-3.27567,0.626678,0.0941472,-1.94523,0.0732094,
2,0,0,1,0,50298.9,0.0720124,0.0716701,-0.527486,26,0.00872041,10,-3.78049e-05,-3.27779,0.623871,0.0945709,-1.9472,0.0716701,
2,0,0,1,0,50299.2,0.0705146,0.0701781,-0.523801,26,0.00855862,10,-3.67594e-05,-3.28083,0.496657,0.118794,-2.42859,0.0701781,
2,0,0,1,0,50299.5,0.069016,0.0686838,-0.518767,26,0.00839794,10,-3.56309e-05,-3.28503,0.457459,0.128973,-2.61774,0.0686838,
2,0,0,1,0,50299.8,0.0675179,0.0671759,-0.517235,26,0.00823835,10,-3.47457e-05,-3.28631,0.694463,0.0849578,-1.71433,0.06717591,
2,0,0,1,0,50300.1,0.0660192,0.0656941,-0.516168,26,0.00807961,10,-3.39091e-05,-3.28721,0.5742,0.102752,-2.05983,0.0656941,
2,0,0,1,0,50300.4,0.0645214,0.0641633,-0.511697,26,0.0079216,10,-3.28322e-05,-3.29099,0.442447,0.133349,-2.65089,0.0641633,
2,0,0,1,0,50300.7,0.0630235,0.0626618,-0.505663,26,0.00776481,10,-3.16858e-05,-3.29614,0.527491,0.11185,-2.21453,0.0626618,
2,0,0,0,0,50301,0.0615251,0.0611613,-0.503336,26,0.0076093,10,-3.07847e-05,-3.29814,0.604695,0.0975699,-1.92271,0.0611613,
2,0,0,0,0,50301.3,0.0600269,0.0596778,-0.500754,26,0.00745442,10,-2.98839e-05,-3.30038,0.559186,0.105511,-2.06252,0.0596778,
2,0,0,0,0,50301.6,0.0585287,0.0581709,-0.497205,26,0.0073005,10,-2.89229e-05,-3.30346,0.380691,0.154981,-3.00392,0.0581709,
2,0,0,1,0,50301.9,0.0570303,0.0566819,-0.495374,26,0.00714746,10,-2.80787e-05,-3.30507,0.468207,0.126013,-2.43067,0.0566819,
2,0,0,1,0,50302.2,0.0555325,0.0551872,-0.492013,26,0.00699587,10,-2.71528e-05,-3.30802,0.556895,0.105945,-2.03068,0.0551872,
2,0,0,1,0,50302.5,0.0540342,0.0536483,-0.48756,26,0.00684497,10,-2.61568e-05,-3.31197,0.598878,0.0985175,-1.8714,0.0536483,
2,0,0,1,0,50302.8,0.052536,0.0521998,-0.485657,26,0.00669478,10,-2.53512e-05,-3.31367,0.466553,0.126459,-2.38852,0.0521998,
2,0,0,1,0,50303.1,0.0510378,0.0506961,-0.480003,26,0.0065458,10,-2.43343e-05,-3.31876,0.436784,0.135078,-2.53711,0.0506961,
2,0,0,1,0,50303.4,0.0495394,0.0492377,-0.476929,26,0.00639819,10,-2.34829e-05,-3.32155,0.448978,0.131409,-2.44671,0.0492377,
2,0,0,1,0,50303.7,0.0480415,0.0477368,-0.473003,26,0.00625144,10,-2.25796e-05,-3.32514,0.672804,0.0876927,-1.61965,0.0477368,
2,0,0,1,0,50304,0.0465436,0.0462197,-0.469527,26,0.00610568,10,-2.17014e-05,-3.32834,0.496877,0.118742,-2.1812,0.0462197,
2,0,0,0,0,50304.3,0.045045,0.044673,-0.467961,26,0.00596091,10,-2.09052e-05,-3.32979,0.406346,0.145196,-2.64435,0.044673,
2,0,0,0,0,50304.6,0.0435468,0.0432054,-0.462381,26,0.00581733,10,-1.99774e-05,-3.335,0.487063,0.121134,-2.18797,0.0432054,
2,0,0,1,0,50304.9,0.0420483,0.0416824,-0.459469,26,0.00567468,10,-1.91517e-05,-3.33774,0.56263,0.104865,-1.88183,0.0416824,
2,0,0,1,0,50305.2,0.0405504,0.0402193,-0.458702,26,0.00553302,10,-1.84487e-05,-3.33847,0.454275,0.129877,-2.31478,0.0402193,
2,0,0,1,0,50305.5,0.0390526,0.0387255,-0.452902,26,0.00539223,10,-1.75388e-05,-3.344,0.451439,0.130693,-2.30809,0.0387255,
2,0,0,1,0,50305.8,0.0375541,0.0372258,-0.44871,26,0.00525252,10,-1.67036e-05,-3.34803,0.476743,0.123757,-2.17332,0.03722579,
2,0,0,1,0,50306.1,0.0360559,0.0357126,-0.447033,26,0.0051141,10,-1.59647e-05,-3.34966,0.442579,0.133309,-2.33091,0.0357126,
2,0,0,1,0,50306.4,0.0345572,0.0342308,-0.443059,26,0.00497642,10,-1.51662e-05,-3.35354,0.527775,0.11179,-1.93357,0.0342308,
2,0,0,1,0,50306.7,0.0330594,0.0326999,-0.439964,26,0.00483982,10,-1.43868e-05,-3.35658,0.419715,0.140572,-2.41201,0.03269992,
2,0,0,1,0,50307,0.0315615,0.0312177,-0.437304,26,0.00470427,10,-1.36516e-05,-3.35922,0.478421,0.123322,-2.10234,0.0312177,
2,0,0,0,0,50307.3,0.0300631,0.0297054,-0.434182,26,0.00456985,10,-1.28976e-05,-3.36233,0.524723,0.11244,-1.90127,0.0297054,
2,0,0,0,0,50307.6,0.0285649,0.0282102,-0.429196,26,0.00443626,10,-1.21077e-05,-3.36734,0.641438,0.0919809,-1.54601,0.0282102,
2,0,0,0,0,50307.9,0.0270667,0.0267055,-0.428754,26,0.0043035,10,-1.14501e-05,-3.36779,0.638267,0.0924379,-1.54562,0.0267055,
2,0,0,1,0,50308.2,0.0255683,0.0252398,-0.426187,26,0.00417142,10,-1.07569e-05,-3.3704,0.509861,0.115718,-1.92467,0.0252398,
2,0,0,1,0,50308.5,0.0240706,0.0237112,-0.421703,26,0.00404045,10,-9.9991e-06,-3.37499,0.584148,0.101002,-1.66982,0.0237112,
2,0,0,1,0,50308.8,0.0225722,0.0222741,-0.420234,26,0.00390991,10,-9.36031e-06,-3.37651,1.0363,0.0569332,-0.934482,0.0222741,
2,0,0,1,0,50309.1,0.021074,0.0207556,-0.419115,26,0.00378009,10,-8.69896e-06,-3.37767,0.712262,0.0828346,-1.35497,0.0207556,
2,0,0,1,0,50309.4,0.0195758,0.019272,-0.416475,26,0.00365081,10,-8.02633e-06,-3.38041,0.676267,0.0872437,-1.41698,0.01927205,
2,0,0,1,0,50309.7,0.0180774,0.0177002,-0.413403,26,0.00352219,10,-7.31731e-06,-3.38363,0.805474,0.0732488,-1.18647,0.0177002,
2,0,0,1,0,50310,0.0165795,0.0162119,-0.412186,26,0.00339418,10,-6.68232e-06,-3.38491,1.02925,0.0573235,-0.924886,0.0162119,
2,0,0,1,0,50310.3,0.0150817,0.0147288,-0.412683,26,0.00326642,10,-6.07833e-06,-3.38438,1.49191,0.0395468,-0.636587,0.0147288,
2,0,0,0,0,50310.6,0.013583,0.013233,-0.410766,26,0.00313889,10,-5.43567e-06,-3.38641,0.911936,0.0646975,-1.03579,0.013233,
2,0,0,0,0,50310.9,0.0120848,0.0117601,-0.409242,26,0.00301185,10,-4.81273e-06,-3.38802,1.17357,0.0502738,-0.8066,0.0117601,
2,0,0,1,0,50311.2,0.0105863,0.0102443,-0.409149,26,0.00288522,10,-4.19145e-06,-3.38812,4.72324,0.0124914,-0.199512,0.01024431,
2,0,0,1,0,50311.5,0.00908846,0.00876015,-0.408338,26,0.00275852,10,-3.57711e-06,-3.38898,3.80648,0.0154999,-0.247395,0.00876015,
2,0,0,1,0,50311.8,0.0075906,0.00727062,-0.408491,26,0.00263181,10,-2.96998e-06,-3.38882,27.4339,0.00215063,-0.0343394,0.00727062,
2,0,0,1,0,50312.1,0.00609207,0.00576565,-0.409701,26,0.00250515,10,-2.36219e-06,-3.38753,-5.53395,-0.0106615,0.170318,0.00576565,
2,0,0,1,0,50312.4,0.00459389,0.00424397,-0.409172,26,0.00237864,10,-1.73651e-06,-3.38809,-5.00588,-0.0117861,0.188291,0.00424397,
2,0,0,1,0,50312.7,0.00309525,0.00275877,-0.410418,26,0.00225179,10,-1.13225e-06,-3.38677,-0.78436,-0.0752205,1.20409,0.00275877,
2,0,0,1,0,50313,0.00159739,0.00120574,-0.41489,26,0.00212313,10,-5.00251e-07,-3.38207, , , ,0.00120574,
2,0,0,0,0,50313.2,0.000199195,-0.00019553,-0.411749,26,0.00200372,10,8.05093e-08,-3.38537, , , ,-0.00019553,