File: Figure_codes/Fig_3-5/rawdata_trumpetplot_data/after 10th/20221101_1-115_003_TrumpetPlot_ParaChange_from10_every3_03_CV_C01_16.csv
mode,ox/red,error,control changes,counter inc.,time/s,control/V,Ewe/V,<I>/mA,cycle number,(Q-Qo)/C,I Range,P/W,log(|I|),Tafel slope mV/dec,alpha_eff,dI/d(E-IR),E-IR/V,
2,0,0,1,0,32462.1,2.44065e-05,-0.000344411,-0.114023,17,0.0000000E+000,10,3.92707e-08,-3.94301, , , ,-0.000344411,
2,1,0,0,0,32462.4,0.00129787,0.000947164,0.138651,17,2.53356e-05,10,1.31325e-07,-3.85808, , , ,0.000947164,
2,1,0,0,0,32462.7,0.00279606,0.00246249,0.174022,17,7.89848e-05,10,4.28526e-07,-3.7594,0.0181501,3.25067,18.6819,0.00246249,
2,1,0,1,0,32463,0.00429469,0.00398482,0.184184,17,0.000137825,10,7.33941e-07,-3.73475,0.0668342,0.882781,6.38514,0.00398482,
2,1,0,1,0,32463.3,0.00579255,0.00542011,0.193426,17,0.000199821,10,1.04839e-06,-3.71349,0.0694815,0.849147,6.39424,0.00542011,
2,1,0,1,0,32463.6,0.00729041,0.00696467,0.202878,17,0.000264687,10,1.41298e-06,-3.69277,0.0818589,0.720753,5.67565,0.00696467,
2,1,0,1,0,32463.9,0.00878882,0.00847075,0.211886,17,0.00033208,10,1.79483e-06,-3.6739,0.095917,0.615115,5.05855,0.00847075,
2,1,0,1,0,32464.2,0.010287,0.00992245,0.217824,17,0.000401541,10,2.16135e-06,-3.66189,0.122928,0.479954,4.06091,0.00992245,
2,1,0,1,0,32464.5,0.0117852,0.0114653,0.222987,17,0.000472927,10,2.55662e-06,-3.65172,0.132192,0.44632,3.89848,0.0114653,
2,1,0,1,0,32464.8,0.0132836,0.0129533,0.229645,17,0.00054584,10,2.97465e-06,-3.63894,0.124173,0.475145,4.27558,0.0129533,
2,1,0,1,0,32465.1,0.0147815,0.0144333,0.236044,17,0.000620783,10,3.4069e-06,-3.62701,0.139003,0.42445,3.89802,0.01443334,
2,1,0,1,0,32465.4,0.0162793,0.0159323,0.241259,17,0.000697608,10,3.8438e-06,-3.61752,0.159388,0.370166,3.47656,0.0159323,
2,1,0,0,0,32465.7,0.017778,0.0174577,0.246624,17,0.000775921,10,4.30548e-06,-3.60797,0.166445,0.354472,3.4032,0.0174577,
2,1,0,0,0,32466,0.0192761,0.0189401,0.25169,17,0.000855407,10,4.76704e-06,-3.59913,0.169572,0.347935,3.41672,0.0189401,
2,1,0,1,0,32466.3,0.0207747,0.0204486,0.257998,17,0.000936799,10,5.27569e-06,-3.58838,0.171655,0.343713,3.43223,0.0204486,
2,1,0,1,0,32466.6,0.0222725,0.021923,0.262829,17,0.00101988,10,5.76201e-06,-3.58033,0.172152,0.342721,3.4904,0.021923,
2,1,0,1,0,32466.9,0.0237704,0.0234467,0.266637,17,0.00110454,10,6.25175e-06,-3.57408,0.187465,0.314725,3.28711,0.0234467,
2,1,0,1,0,32467.2,0.0252689,0.0249686,0.271433,17,0.00119049,10,6.77729e-06,-3.56634,0.167132,0.353014,3.76936,0.0249686,
2,1,0,1,0,32467.4,0.0267671,0.0264446,0.277503,17,0.00127818,10,7.33848e-06,-3.55673,0.156412,0.377208,4.08831,0.0264446,
2,1,0,1,0,32467.7,0.0282657,0.0279318,0.284495,17,0.00136779,10,7.94646e-06,-3.54593,0.183397,0.321707,3.56012,0.0279318,
2,1,0,1,0,32468,0.0297635,0.0294507,0.289771,17,0.00145894,10,8.53397e-06,-3.53794,0.20505,0.287735,3.25011,0.0294507,
2,1,0,1,0,32468.3,0.0312613,0.0309584,0.293461,17,0.00155156,10,9.08508e-06,-3.53245,0.203025,0.290604,3.34776,0.0309584,
2,1,0,0,0,32468.6,0.0327599,0.0324412,0.299832,17,0.00164572,10,9.72693e-06,-3.52312,0.204052,0.289142,3.39204,0.0324412,
2,1,0,0,0,32468.9,0.034258,0.0339587,0.305555,17,0.00174158,10,1.03762e-05,-3.51491,0.196315,0.300538,3.57554,0.0339587,
2,1,0,1,0,32469.2,0.0357567,0.0354142,0.311067,17,0.00183928,10,1.10162e-05,-3.50715,0.23701,0.248934,3.00416,0.0354142,
2,1,0,1,0,32469.5,0.0372545,0.0368992,0.316244,17,0.00193839,10,1.16692e-05,-3.49998,0.208703,0.282698,3.49376,0.0368992,
2,1,0,1,0,32469.8,0.0387524,0.038409,0.321318,17,0.00203879,10,1.23415e-05,-3.49307,0.179184,0.32927,4.14901,0.038409,
2,1,0,1,0,32470.1,0.0402508,0.039933,0.326765,17,0.00214115,10,1.30487e-05,-3.48576,0.210953,0.279683,3.56245,0.039933,
2,1,0,1,0,32470.4,0.041749,0.0414367,0.332675,17,0.00224525,10,1.37849e-05,-3.47798,0.255848,0.230606,2.97718,0.0414367,
2,1,0,1,0,32470.7,0.0432472,0.0429159,0.337377,17,0.0023507,10,1.44789e-05,-3.47188,0.246087,0.239753,3.15269,0.0429159,
2,1,0,1,0,32471,0.0447456,0.0444124,0.342784,17,0.00245732,10,1.52239e-05,-3.46498,0.221249,0.266668,3.55849,0.0444124,
2,1,0,1,0,32471.3,0.0462435,0.0459094,0.348754,17,0.00256577,10,1.60111e-05,-3.45748,0.199401,0.295886,4.00421,0.0459094,
2,1,0,1,0,32471.6,0.0477413,0.0473513,0.351984,17,0.00267575,10,1.66669e-05,-3.45348,0.254487,0.231839,3.18917,0.0473513,
2,1,0,0,0,32471.9,0.0492399,0.0488924,0.356302,17,0.00278734,10,1.74205e-05,-3.44818,0.281973,0.20924,2.92238,0.0488924,
2,1,0,0,0,32472.2,0.0507381,0.0503473,0.360188,17,0.00289997,10,1.81345e-05,-3.44347,0.277733,0.212434,3.00059,0.0503473,
2,1,0,1,0,32472.5,0.0522367,0.0518883,0.36531,17,0.00301415,10,1.89553e-05,-3.43734,0.22311,0.264444,3.77904,0.05188835,
2,1,0,1,0,32472.8,0.0537345,0.0534108,0.372603,17,0.00312984,10,1.9901e-05,-3.42875,0.267463,0.220591,3.19639,0.0534108,
2,1,0,1,0,32473.1,0.0552323,0.0549108,0.375449,17,0.0032469,10,2.06162e-05,-3.42545,0.314931,0.187342,2.7359,0.0549108,
2,1,0,1,0,32473.4,0.0567309,0.0564054,0.375949,17,0.00336513,10,2.12055e-05,-3.42487,0.31881,0.185063,2.73589,0.0564054,
2,1,0,1,0,32473.7,0.0582291,0.0578899,0.383382,17,0.00348443,10,2.2194e-05,-3.41637,0.317178,0.186015,2.78245,0.0578899,
2,1,0,1,0,32474,0.0597277,0.0594111,0.388343,17,0.00360534,10,2.30719e-05,-3.41078,0.308773,0.191079,2.89019,0.05941112,
2,1,0,1,0,32474.3,0.0612255,0.0609015,0.390803,17,0.00372742,10,2.38005e-05,-3.40804,0.532963,0.110702,1.68967,0.0609015,
2,1,0,1,0,32474.6,0.0627233,0.0623803,0.394863,17,0.00385076,10,2.46317e-05,-3.40355,0.324419,0.181863,2.80934,0.0623803,
2,1,0,0,0,32474.9,0.0642218,0.0639014,0.398435,17,0.00397496,10,2.54605e-05,-3.39964,0.352036,0.167597,2.61484,0.0639014,
2,1,0,0,0,32475.2,0.06572,0.0653563,0.402877,17,0.00410052,10,2.63305e-05,-3.39483,0.340562,0.173243,2.72334,0.0653563,
2,1,0,1,0,32475.5,0.0672187,0.0668785,0.408095,17,0.00422759,10,2.72928e-05,-3.38924,0.326632,0.180632,2.86661,0.0668785,
2,1,0,1,0,32475.8,0.0687165,0.0683956,0.411292,17,0.00435546,10,2.81306e-05,-3.38585,0.517327,0.114048,1.82801,0.0683956,
2,1,0,1,0,32476.1,0.0702144,0.0698447,0.412824,17,0.00448401,10,2.88336e-05,-3.38423,0.338145,0.174481,2.81809,0.0698447,
2,1,0,1,0,32476.4,0.0717128,0.0713772,0.41699,17,0.0046137,10,2.97636e-05,-3.37987,0.387791,0.152144,2.47167,0.0713772,
2,1,0,1,0,32476.7,0.073211,0.0728979,0.41998,17,0.00474448,10,3.06157e-05,-3.37677,0.415098,0.142135,2.33389,0.0728979,
2,1,0,1,0,32477,0.0747092,0.0743421,0.4236,17,0.00487625,10,3.14914e-05,-3.37304,0.523797,0.112639,1.85855,0.0743421,
2,1,0,1,0,32477.3,0.0762076,0.0758758,0.424401,17,0.00500875,10,3.22018e-05,-3.37222,0.451597,0.130647,2.17737,0.0758758,
2,1,0,1,0,32477.6,0.0777054,0.0773632,0.428037,17,0.00514192,10,3.31143e-05,-3.36852,0.413155,0.142804,2.3905,0.0773632,
2,1,0,1,0,32477.9,0.0792033,0.0788634,0.434411,17,0.00527629,10,3.42591e-05,-3.3621,0.442151,0.133439,2.24984,0.07886339,
2,1,0,0,0,32478.2,0.0807019,0.0803483,0.437274,17,0.00541187,10,3.51342e-05,-3.35925,0.545285,0.1082,1.83526,0.0803483,
2,1,0,0,0,32478.5,0.0822001,0.0819028,0.438604,17,0.00554814,10,3.59229e-05,-3.35793,0.451636,0.130636,2.23727,0.0819028,
2,1,0,1,0,32478.8,0.0836986,0.083376,0.443044,17,0.00568514,10,3.69393e-05,-3.35355,0.464224,0.127094,2.19414,0.083376,
2,1,0,1,0,32479.1,0.0851965,0.0848435,0.445448,17,0.00582348,10,3.77933e-05,-3.3512,0.363223,0.162434,2.83183,0.0848435,
2,1,0,1,0,32479.4,0.0866944,0.086388,0.448837,17,0.00596302,10,3.87742e-05,-3.34791,0.483951,0.121913,2.13922,0.086388,
2,1,0,1,0,32479.7,0.0881929,0.0878644,0.453761,17,0.00610389,10,3.98694e-05,-3.34317,0.325718,0.181138,3.2173,0.0878644,
2,1,0,1,0,32480,0.0896911,0.0893543,0.45906,17,0.00624585,10,4.1019e-05,-3.33813,0.283544,0.208081,3.73328,0.0893543,
2,1,0,1,0,32480.3,0.0911897,0.0908784,0.464842,17,0.00638984,10,4.22441e-05,-3.33269,0.269621,0.218825,3.96687,0.09087842,
2,1,0,1,0,32480.6,0.0926875,0.0923999,0.471735,17,0.00653583,10,4.35883e-05,-3.3263,0.250162,0.235847,4.34494,0.09239985,
2,1,0,1,0,32480.9,0.0941853,0.0938437,0.478522,17,0.00668345,10,4.49063e-05,-3.3201,0.269033,0.219304,4.09655,0.0938437,
2,1,0,0,0,32481.2,0.0956838,0.0953732,0.484498,17,0.00683291,10,4.62081e-05,-3.31471,0.23307,0.253143,4.79918,0.0953732,
2,1,0,0,0,32481.5,0.097182,0.0968206,0.491862,17,0.00698477,10,4.76224e-05,-3.30816,0.17361,0.339843,6.52813,0.0968206,
2,1,0,1,0,32481.8,0.0986807,0.0983278,0.500245,17,0.00713915,10,4.9188e-05,-3.30082,0.197549,0.298661,5.84156,0.0983278,
2,1,0,1,0,32482.1,0.100179,0.0998503,0.509931,17,0.00729595,10,5.09168e-05,-3.29249,0.210653,0.280082,5.56597,0.0998503,
2,1,0,1,0,32482.4,0.101676,0.101328,0.516406,17,0.0074551,10,5.23265e-05,-3.28701,0.190258,0.310105,6.27165,0.101328,
2,1,0,1,0,32482.7,0.103175,0.102816,0.527884,17,0.00761688,10,5.4275e-05,-3.27746,0.202818,0.290901,5.9824,0.102816,
2,1,0,1,0,32483,0.104673,0.104346,0.538316,17,0.00778161,10,5.61713e-05,-3.26896,0.193175,0.305422,6.3832,0.104346,
2,1,0,1,0,32483.3,0.106171,0.10587,0.545275,17,0.00794899,10,5.77283e-05,-3.26338,0.247526,0.238359,5.05223,0.10587,
2,1,0,1,0,32483.6,0.10767,0.107332,0.552145,17,0.00811882,10,5.92627e-05,-3.25795,0.267251,0.220766,4.76428,0.107332,
2,1,0,1,0,32483.9,0.109167,0.108859,0.559609,17,0.00829058,10,6.09187e-05,-3.25212,0.254682,0.231662,5.073,0.108859,
2,1,0,1,0,32484.2,0.110665,0.11033,0.567942,17,0.00846479,10,6.2661e-05,-3.2457,0.284965,0.207043,4.58434,0.11033,
2,1,0,0,0,32484.5,0.112164,0.111834,0.574781,17,0.00864139,10,6.42799e-05,-3.2405,0.32122,0.183675,4.10481,0.111834,
2,1,0,0,0,32484.8,0.113662,0.113383,0.581558,17,0.00881987,10,6.59388e-05,-3.23541,0.357397,0.165082,3.73478,0.113383,
2,1,0,1,0,32485.1,0.115161,0.114822,0.587749,17,0.00899982,10,6.74868e-05,-3.23081,0.367375,0.160599,3.66796,0.114822,
2,1,0,1,0,32485.4,0.116658,0.116281,0.592602,17,0.00918168,10,6.89084e-05,-3.22724,0.372524,0.158379,3.64908,0.1162812,
2,1,0,1,0,32485.7,0.118156,0.117841,0.598424,17,0.00936551,10,7.05186e-05,-3.22299,0.375591,0.157086,3.6525,0.117841,
2,1,0,1,0,32486,0.119655,0.119361,0.602152,17,0.00955052,10,7.18733e-05,-3.22029,0.580906,0.101565,2.3855,0.119361,
2,1,0,1,0,32486.3,0.121153,0.12083,0.603876,17,0.00973653,10,7.29666e-05,-3.21905,0.443513,0.133029,3.15014,0.12083,
2,1,0,1,0,32486.6,0.122652,0.122337,0.610066,17,0.00992414,10,7.46335e-05,-3.21462,0.367708,0.160454,3.81522,0.122337,
2,1,0,1,0,32486.9,0.124149,0.123829,0.614577,17,0.0101133,10,7.61026e-05,-3.21142,0.489163,0.120614,2.89162,0.123829,
2,1,0,1,0,32487.2,0.125647,0.125317,0.619213,17,0.0103038,10,7.75976e-05,-3.20816,0.54471,0.108314,2.61266,0.125317,
2,1,0,0,0,32487.5,0.127146,0.126865,0.619834,17,0.0104953,10,7.86354e-05,-3.20772,0.723515,0.0815463,1.9789,0.126865,
2,1,0,0,0,32487.8,0.128644,0.128285,0.624516,17,0.0106875,10,8.01161e-05,-3.20446,0.96164,0.0613535,1.49403,0.128285,
2,1,0,1,0,32488.1,0.130143,0.129803,0.628154,17,0.0108808,10,8.15363e-05,-3.20193,2.61705,0.0225445,0.549513,0.129803,
2,1,0,1,0,32488.4,0.131641,0.13132,0.628155,17,0.0110746,10,8.24893e-05,-3.20193,-2.42999,-0.0242799,-0.591673,0.1313201,
2,1,0,1,0,32488.7,0.133138,0.132841,0.625633,17,0.011268,10,8.31099e-05,-3.20368,-0.618537,-0.0953864,-2.32227,0.132841,
2,1,0,1,0,32489,0.134637,0.134328,0.620261,17,0.0114601,10,8.33186e-05,-3.20743,-0.364969,-0.161658,-3.90707,0.134328,
2,1,0,1,0,32489.3,0.136135,0.135822,0.613818,17,0.0116507,10,8.33703e-05,-3.21196,-0.241154,-0.244657,-5.83619,0.135822,
2,1,0,1,0,32489.6,0.137633,0.137308,0.605082,17,0.0118387,10,8.30826e-05,-3.21819,-0.163942,-0.359883,-8.43115,0.137308,
2,1,0,1,0,32489.9,0.139132,0.138814,0.591686,17,0.0120233,10,8.21344e-05,-3.22791,-0.141512,-0.416926,-9.55817,0.138814,
2,1,0,1,0,32490.2,0.140629,0.140299,0.573792,17,0.0122028,10,8.05027e-05,-3.24125,-0.110538,-0.533752,-11.9088,0.140299,
2,1,0,1,0,32490.5,0.142127,0.141778,0.555936,17,0.0123773,10,7.88195e-05,-3.25498,-0.0986198,-0.598257,-12.9029,0.141778,
2,1,0,0,0,32490.8,0.143626,0.143298,0.535314,17,0.0125462,10,7.67096e-05,-3.27139,-0.0829481,-0.711288,-14.7702,0.143298,
2,1,0,0,0,32491.1,0.145124,0.144787,0.511136,17,0.0127081,10,7.40059e-05,-3.29146,-0.0729229,-0.809074,-16.1505,0.144787,
2,1,0,1,0,32491.4,0.146623,0.146302,0.487548,17,0.012863,10,7.13291e-05,-3.31198,-0.0748216,-0.788543,-15.0212,0.146302,
2,1,0,1,0,32491.7,0.14812,0.147784,0.466764,17,0.0130111,10,6.89801e-05,-3.3309,-0.0757199,-0.779187,-14.1606,0.1477837,
2,1,0,1,0,32492,0.149618,0.149276,0.44375,17,0.0131525,10,6.62415e-05,-3.35286,-0.0747319,-0.789488,-13.7224,0.149276,
2,1,0,1,0,32492.3,0.151117,0.150772,0.424637,17,0.0132878,10,6.40234e-05,-3.37198,-0.0747829,-0.78895,-13.0873,0.150772,
2,1,0,1,0,32492.6,0.152615,0.152331,0.40505,17,0.0134173,10,6.17016e-05,-3.39249,-0.0843564,-0.699413,-11.1306,0.152331,
2,1,0,1,0,32492.9,0.154114,0.153748,0.391776,17,0.0135418,10,6.02347e-05,-3.40696,-0.0943847,-0.625101,-9.59761,0.153748,
2,1,0,1,0,32493.2,0.155612,0.155308,0.379358,17,0.0136623,10,5.89171e-05,-3.42095,-0.108106,-0.545761,-8.08921,0.155308,
2,1,0,1,0,32493.5,0.157109,0.156801,0.366817,17,0.0137792,10,5.75172e-05,-3.43555,-0.11483,-0.513805,-7.3787,0.156801,
2,1,0,0,0,32493.8,0.158608,0.158311,0.356717,17,0.0138929,10,5.64725e-05,-3.44768,-0.152595,-0.386644,-5.42031,0.158311,
2,1,0,0,0,32494.1,0.160106,0.159811,0.350149,17,0.0140037,10,5.59577e-05,-3.45575,-0.151815,-0.388632,-5.32263,0.159811,
2,1,0,1,0,32494.4,0.161605,0.16129,0.344483,17,0.0141126,10,5.55615e-05,-3.46283,-0.199995,-0.295007,-3.95795,0.16129,
2,1,0,1,0,32494.7,0.163102,0.162809,0.336968,17,0.0142195,10,5.48614e-05,-3.47241,-0.21696,-0.271939,-3.58591,0.162809,
2,1,0,1,0,32495,0.1646,0.164304,0.332378,17,0.0143247,10,5.46108e-05,-3.47837,-0.213343,-0.27655,-3.5814,0.164304,
2,1,0,1,0,32495.3,0.166099,0.165826,0.326915,17,0.0144284,10,5.42109e-05,-3.48556,-0.311585,-0.189354,-2.42404,0.165826,
2,1,0,1,0,32495.6,0.167597,0.167295,0.324102,17,0.0145309,10,5.42207e-05,-3.48932,-0.424603,-0.138953,-1.75373,0.167295,
2,1,0,1,0,32495.9,0.169095,0.168753,0.320396,17,0.0146326,10,5.40678e-05,-3.49431,-0.361267,-0.163314,-2.04531,0.168753,
2,1,0,1,0,32496.2,0.170594,0.170289,0.317016,17,0.0147332,10,5.39843e-05,-3.49892,-0.306101,-0.192747,-2.39312,0.170289,
2,1,0,1,0,32496.5,0.172091,0.171768,0.314669,17,0.0148326,10,5.405e-05,-3.50215,-0.493246,-0.119616,-1.4704,0.171768,
2,1,0,1,0,32496.8,0.173589,0.173293,0.311827,17,0.0149314,10,5.40373e-05,-3.50609,-0.708927,-0.0832244,-1.01079,0.173293,
2,1,0,0,0,32497.1,0.175088,0.174767,0.310637,17,0.0150297,10,5.42891e-05,-3.50775,-0.616923,-0.0956359,-1.15694,0.1747669,
2,1,0,0,0,32497.4,0.176586,0.176292,0.30792,17,0.0151272,10,5.42837e-05,-3.51156,-0.389129,-0.151621,-1.82275,0.176292,
2,1,0,1,0,32497.7,0.178085,0.177719,0.304878,17,0.0152242,10,5.41828e-05,-3.51587,-0.613616,-0.0961513,-1.14914,0.177719,
2,1,0,1,0,32498,0.179582,0.179266,0.30452,17,0.0153206,10,5.45901e-05,-3.51638,-0.936491,-0.0630011,-0.749436,0.179266,
2,1,0,1,0,32498.3,0.18108,0.18078,0.30346,17,0.0154166,10,5.48595e-05,-3.5179,-0.828597,-0.0712047,-0.844234,0.18078,
2,1,0,1,0,32498.6,0.182579,0.182276,0.301689,17,0.0155124,10,5.49905e-05,-3.52044,-0.516338,-0.114266,-1.3436,0.182276,
2,1,0,1,0,32498.9,0.184077,0.183772,0.300253,17,0.0156077,10,5.51781e-05,-3.52251,-0.829193,-0.0711536,-0.836279,0.183772,
2,1,0,1,0,32499.2,0.185576,0.185263,0.299442,17,0.0157022,10,5.54757e-05,-3.52369,-1.00497,-0.0587082,-0.687791,0.185263,
2,1,0,1,0,32499.5,0.187074,0.186721,0.299138,17,0.0157968,10,5.58554e-05,-3.52413,-2.17216,-0.027162,-0.316244,0.1867211,
2,1,0,1,0,32499.8,0.188571,0.188275,0.29784,17,0.0158911,10,5.60759e-05,-3.52602,-1.0743,-0.0549196,-0.637878,0.188275,
2,1,0,0,0,32500.1,0.19007,0.189736,0.296961,17,0.0159852,10,5.63441e-05,-3.5273,-1.88438,-0.0313101,-0.362637,0.189736,
2,1,0,0,0,32500.4,0.191568,0.191214,0.29581,17,0.0160788,10,5.65629e-05,-3.52899,-1.23826,-0.0476474,-0.551099,0.191214,
2,1,0,1,0,32500.7,0.193067,0.192733,0.295107,17,0.0161723,10,5.68768e-05,-3.53002,-2.18578,-0.0269926,-0.31086,0.192733,
2,1,0,1,0,32501,0.194564,0.194293,0.294301,17,0.0162656,10,5.71807e-05,-3.53121,-1.23984,-0.0475866,-0.546691,0.194293,
2,1,0,1,0,32501.3,0.196062,0.195735,0.294011,17,0.0163587,10,5.75483e-05,-3.53164,-0.946253,-0.0623512,-0.717515,0.195735,
2,1,0,1,0,32501.6,0.197561,0.197261,0.291845,17,0.0164513,10,5.75697e-05,-3.53485,-1.54143,-0.0382763,-0.437897,0.197261,
2,1,0,1,0,32501.9,0.199059,0.198736,0.292702,17,0.0165438,10,5.81705e-05,-3.53357,-1.02464,-0.0575814,-0.656999,0.198736,
2,1,0,1,0,32502.2,0.200557,0.200262,0.292289,17,0.0166362,10,5.85345e-05,-3.53419,-1.11651,-0.0528435,-0.601892,0.200262,
2,1,0,1,0,32502.5,0.202056,0.201755,0.291265,17,0.0167284,10,5.87641e-05,-3.53571,-1.21462,-0.0485749,-0.550788,0.2017546,
2,1,0,1,0,32502.8,0.203553,0.203217,0.290271,17,0.0168202,10,5.89881e-05,-3.5372,-1.46346,-0.0403155,-0.456658,0.2032174,
2,1,0,1,0,32503.1,0.205051,0.20474,0.288897,17,0.0169117,10,5.91487e-05,-3.53926,5.7464,0.0102673,0.116769,0.20474,
2,1,0,0,0,32503.4,0.20655,0.206205,0.289164,17,0.0170033,10,5.9627e-05,-3.53886,-2.2916,-0.0257462,-0.290874,0.206205,
2,1,0,0,0,32503.7,0.208048,0.207767,0.287708,17,0.0170948,10,5.97761e-05,-3.54105,-0.732583,-0.080537,-0.904503,0.207767,
2,1,0,1,0,32504,0.209547,0.209245,0.28789,17,0.0171859,10,6.02397e-05,-3.54077,-1.10522,-0.0533831,-0.599115,0.209245,
2,1,0,1,0,32504.3,0.211044,0.210729,0.287324,17,0.0172766,10,6.05477e-05,-3.54163,-1.31309,-0.0449323,-0.501632,0.210729,
2,1,0,1,0,32504.6,0.212542,0.212226,0.287151,17,0.0173673,10,6.09411e-05,-3.54189,-8.00987,-0.00736592,-0.0821929,0.212226,
2,1,0,1,0,32504.9,0.214041,0.213739,0.285651,17,0.0174579,10,6.10548e-05,-3.54416,-3.0237,-0.0195125,-0.217383,0.213739,
2,1,0,1,0,32505.2,0.215539,0.215187,0.285918,17,0.0175483,10,6.15259e-05,-3.54376,-1.55334,-0.0379827,-0.422861,0.215187,
2,1,0,1,0,32505.5,0.217038,0.216716,0.284315,17,0.0176384,10,6.16157e-05,-3.5462,-2.23665,-0.0263788,-0.293077,0.216716,
2,1,0,1,0,32505.8,0.218535,0.218241,0.28453,17,0.0177285,10,6.20963e-05,-3.54587,8.6054,0.00685616,0.075866,0.218241,
2,1,0,1,0,32506.1,0.220033,0.21972,0.284337,17,0.0178186,10,6.24747e-05,-3.54617,-1.9679,-0.0299811,-0.332437,0.21972,
2,1,0,0,0,32506.4,0.221532,0.221284,0.283711,17,0.0179085,10,6.27805e-05,-3.54712,-3.78335,-0.0155946,-0.172999,0.221284,
2,1,0,0,0,32506.7,0.22303,0.222705,0.280876,17,0.0179981,10,6.25525e-05,-3.55148,-1.18291,-0.0498768,-0.550589,0.222705,
2,1,0,1,0,32507,0.224529,0.224236,0.283868,17,0.0180876,10,6.36535e-05,-3.54688,-3.71065,-0.0159002,-0.174814,0.224236,
2,1,0,1,0,32507.3,0.226026,0.225719,0.28246,17,0.018177,10,6.37568e-05,-3.54904,-4.92399,-0.0119822,-0.131392,0.225719,
2,1,0,1,0,32507.6,0.227524,0.227161,0.281984,17,0.0182663,10,6.40558e-05,-3.54978,-1.49974,-0.0393401,-0.432094,0.227161,
2,1,0,1,0,32507.9,0.229023,0.228711,0.280822,17,0.0183554,10,6.4227e-05,-3.55157,-0.958737,-0.0615393,-0.675918,0.228711,
2,1,0,1,0,32508.2,0.230521,0.230179,0.280573,17,0.0184443,10,6.45822e-05,-3.55195,-3.85768,-0.0152942,-0.16818,0.230179,
2,1,0,1,0,32508.5,0.232019,0.231704,0.279771,17,0.0185331,10,6.48241e-05,-3.5532,4.21614,0.0139938,0.153298,0.231704,
2,1,0,1,0,32508.8,0.233518,0.233184,0.279683,17,0.0186221,10,6.52175e-05,-3.55333,-1.09114,-0.0540719,-0.588469,0.233184,
2,1,0,1,0,32509.1,0.235015,0.234722,0.280168,17,0.0187107,10,6.57617e-05,-3.55258,-0.977842,-0.060337,-0.65639,0.234722,
2,1,0,1,0,32509.4,0.236513,0.236164,0.279354,17,0.018799,10,6.59732e-05,-3.55385,-2.56574,-0.0229953,-0.249488,0.236164,
2,1,0,0,0,32509.7,0.238012,0.237736,0.278555,17,0.0188874,10,6.62225e-05,-3.55509,3.70477,0.0159254,0.172801,0.237736,
2,1,0,0,0,32510,0.23951,0.239174,0.278316,17,0.0189757,10,6.65659e-05,-3.55546,-1.15908,-0.0509023,-0.552982,0.239174,
2,1,0,1,0,32510.3,0.241009,0.240714,0.27705,17,0.0190638,10,6.66897e-05,-3.55744,-1.17398,-0.0502564,-0.54558,0.240714,
2,1,0,1,0,32510.6,0.242506,0.242189,0.275933,17,0.0191517,10,6.68279e-05,-3.5592,-6.17579,-0.00955343,-0.103619,0.242189,
2,1,0,1,0,32510.9,0.244004,0.243675,0.277096,17,0.0192395,10,6.75213e-05,-3.55737,1.84214,0.032028,0.345949,0.243675,
2,1,0,1,0,32511.2,0.245503,0.245173,0.276511,17,0.0193274,10,6.77929e-05,-3.55829,-1.4171,-0.0416344,-0.450267,0.245173,
2,1,0,1,0,32511.5,0.247001,0.246686,0.277321,17,0.0194152,10,6.84111e-05,-3.55702,-1.04447,-0.0564881,-0.608965,0.246686,
2,1,0,1,0,32511.8,0.2485,0.24818,0.275408,17,0.0195027,10,6.83507e-05,-3.56002,-1.70911,-0.0345208,-0.370844,0.24818,
2,1,0,1,0,32512.1,0.249997,0.2497,0.276186,17,0.0195901,10,6.89638e-05,-3.5588,-8.87104,-0.00665086,-0.0715597,0.2497,
2,1,0,1,0,32512.4,0.251495,0.251167,0.275166,17,0.0196774,10,6.91125e-05,-3.56041,-5.23634,-0.0112674,-0.120904,0.251167,
2,1,0,0,0,32512.7,0.252994,0.252655,0.274521,17,0.0197648,10,6.93589e-05,-3.56143,-0.761246,-0.0775045,-0.829982,0.252655,
2,1,0,0,0,32513,0.254492,0.254167,0.275095,17,0.0198519,10,6.992e-05,-3.56052,-1.67951,-0.0351292,-0.37772,0.254167,
2,1,0,1,0,32513.3,0.255991,0.25567,0.274674,17,0.0199389,10,7.0226e-05,-3.56118,-14.8206,-0.00398096,-0.0427758,0.25567,
2,1,0,1,0,32513.6,0.257488,0.257153,0.27445,17,0.0200259,10,7.05756e-05,-3.56154,-289.179,-0.000204026,-0.00218241,0.257153,
2,1,0,1,0,32513.9,0.258986,0.25872,0.274745,17,0.0201129,10,7.10821e-05,-3.56107,-1.9425,-0.0303732,-0.324106,0.25872,
2,1,0,1,0,32514.2,0.260485,0.260176,0.273475,17,0.0201997,10,7.11518e-05,-3.56308,-2.15642,-0.0273602,-0.291669,0.260176,
2,1,0,1,0,32514.5,0.261983,0.261689,0.273369,17,0.0202862,10,7.15378e-05,-3.56325,-2.66958,-0.0221008,-0.235207,0.261689,
2,1,0,1,0,32514.8,0.263481,0.26317,0.272298,17,0.0203727,10,7.16605e-05,-3.56496,3.66485,0.0160989,0.171139,0.26317,
2,1,0,1,0,32515.1,0.26498,0.264663,0.271862,17,0.0204592,10,7.19517e-05,-3.56565,4.83374,0.0122059,0.130243,0.264663,
2,1,0,1,0,32515.4,0.266477,0.266181,0.272243,17,0.0205455,10,7.24659e-05,-3.56504,-1.15932,-0.0508918,-0.539944,0.266181,
2,1,0,0,0,32515.7,0.267976,0.267635,0.271376,17,0.0206317,10,7.26297e-05,-3.56643,-2.37997,-0.0247902,-0.26368,0.267635,
2,1,0,0,0,32516,0.269474,0.269194,0.271342,17,0.0207178,10,7.30436e-05,-3.56648,-2.66089,-0.022173,-0.235234,0.269194,
2,1,0,0,0,32516.3,0.270972,0.270664,0.271857,17,0.0208038,10,7.35818e-05,-3.56566,-4.60844,-0.0128026,-0.135349,0.270664,
2,1,0,1,0,32516.6,0.27247,0.272138,0.271158,17,0.0208898,10,7.37923e-05,-3.56678,5.81964,0.0101381,0.106935,0.272138,
2,1,0,1,0,32516.9,0.273968,0.273608,0.269091,17,0.0209754,10,7.36256e-05,-3.5701,-3.09887,-0.0190392,-0.200933,0.273608,
2,1,0,1,0,32517.2,0.275466,0.275135,0.270295,17,0.0210609,10,7.43677e-05,-3.56816,-3.66274,-0.0161081,-0.169794,0.275135,
2,1,0,1,0,32517.5,0.276965,0.276689,0.269085,17,0.0211465,10,7.44528e-05,-3.57011,-1.49207,-0.0395425,-0.415606,0.276689,
2,1,0,1,0,32517.8,0.278463,0.278123,0.268446,17,0.0212319,10,7.46609e-05,-3.57114,-1.23553,-0.0477528,-0.499883,0.278123,
2,1,0,1,0,32518.1,0.279962,0.279657,0.268289,17,0.0213172,10,7.5029e-05,-3.5714,-1.51529,-0.0389364,-0.409253,0.279657,
2,1,0,1,0,32518.4,0.281459,0.281132,0.268869,17,0.0214022,10,7.55876e-05,-3.57046,-3.43405,-0.0171809,-0.180375,0.281132,
2,1,0,1,0,32518.7,0.282957,0.282614,0.267909,17,0.0214872,10,7.57147e-05,-3.57201,-1.71457,-0.034411,-0.360335,0.282614,
2,1,0,0,0,32519,0.284456,0.284145,0.268175,17,0.0215722,10,7.62005e-05,-3.57158,-3.91584,-0.015067,-0.157147,0.284145,
2,1,0,0,0,32519.3,0.285954,0.285673,0.267627,17,0.0216569,10,7.64538e-05,-3.57247,-1.63125,-0.0361686,-0.37679,0.285673,
2,1,0,0,0,32519.6,0.287452,0.287145,0.266459,17,0.0217413,10,7.65121e-05,-3.57437,-2.43993,-0.024181,-0.251653,0.287145,
2,1,0,1,0,32519.9,0.28895,0.28865,0.266676,17,0.0218258,10,7.69761e-05,-3.57402,1.27868,0.0461413,0.478076,0.28865,
2,1,0,1,0,32520.2,0.290448,0.290107,0.265959,17,0.0219102,10,7.71567e-05,-3.57518,-2.07802,-0.0283924,-0.295473,0.290107,
2,1,0,1,0,32520.5,0.291947,0.291618,0.265065,17,0.0219945,10,7.7298e-05,-3.57665,-1.34259,-0.043945,-0.456112,0.291618,
2,1,0,1,0,32520.8,0.293445,0.293111,0.264619,17,0.0220786,10,7.7563e-05,-3.57738,-3.64857,-0.0161707,-0.1678,0.293111,
2,1,0,1,0,32521.1,0.294943,0.294634,0.264886,17,0.0221625,10,7.80444e-05,-3.57694,-3.16309,-0.0186526,-0.193234,0.294634,
2,1,0,1,0,32521.4,0.296442,0.296146,0.266361,17,0.0222465,10,7.8882e-05,-3.57453,-2.04374,-0.0288686,-0.297591,0.296146,
2,1,0,1,0,32521.7,0.297939,0.297665,0.264902,17,0.0223305,10,7.8852e-05,-3.57691,-1.16981,-0.0504354,-0.520183,0.2976647,
2,1,0,1,0,32522,0.299437,0.299136,0.262693,17,0.0224142,10,7.85809e-05,-3.58055,-0.00243707,-24.2094,-121.804,0.299136,
2,1,0,1,0,32522.2,0.299737,0.299432,0.110409,17,0.0224524,10,3.306e-05,-3.957,0.000925872,63.7237,213.141,0.299432,
2,1,0,1,0,32522.5,0.29824,0.297926,0.0231104,17,0.0224621,10,6.88518e-06,-4.63619,0.00156317,37.7438,71.0065,0.297926,
2,1,0,0,0,32522.8,0.296741,0.296439,0.00468846,17,0.0224611,10,1.38984e-06,-5.32897,0.00841258,7.01331,10.2287,0.296439,
2,0,0,0,0,32523.1,0.295243,0.294906,-0.0079939,17,0.0224558,10,-2.35745e-06,-5.09724,-0.0132169,-4.46398,6.46021,0.294906,
2,0,0,1,0,32523.4,0.293744,0.293386,-0.0175873,17,0.0224476,10,-5.15985e-06,-4.7548,-0.0047988,-12.2947,5.65096,0.293386,
2,0,0,1,0,32523.7,0.292246,0.291941,-0.0243146,17,0.022437,10,-7.09842e-06,-4.61413,-0.0102351,-5.76446,4.79871,0.291941,
2,0,0,1,0,32524,0.290749,0.290407,-0.0304462,17,0.0224242,10,-8.84179e-06,-4.51647,-0.0146766,-4.02001,4.61498,0.2904067,
2,0,0,1,0,32524.3,0.28925,0.288936,-0.0360868,17,0.0224094,10,-1.04268e-05,-4.44265,-0.021488,-2.74572,3.83746,0.288936,
2,0,0,1,0,32524.6,0.287752,0.287431,-0.0416992,17,0.022393,10,-1.19856e-05,-4.37987,-0.0273225,-2.15939,3.50914,0.287431,
2,0,0,1,0,32524.9,0.286253,0.285913,-0.0457135,17,0.0223753,10,-1.30701e-05,-4.33996,-0.0363382,-1.62363,2.9425,0.285913,
2,0,0,1,0,32525.2,0.284755,0.284424,-0.050842,17,0.022356,10,-1.44607e-05,-4.29378,-0.0361772,-1.63086,3.22,0.284424,
2,0,0,1,0,32525.5,0.283257,0.282954,-0.0561959,17,0.0223353,10,-1.59009e-05,-4.2503,-0.0444819,-1.32638,2.8547,0.282954,
2,0,0,0,0,32525.7,0.281759,0.281416,-0.0595714,17,0.0223133,10,-1.67644e-05,-4.22496,-0.0474956,-1.24222,2.85975,0.281416,
2,0,0,0,0,32526,0.280261,0.279945,-0.0625174,17,0.0222902,10,-1.75015e-05,-4.204,-0.0537905,-1.09685,2.69153,0.2799454,
2,0,0,0,0,32526.3,0.278763,0.278467,-0.0676754,17,0.0222661,10,-1.88454e-05,-4.16957,-0.0650955,-0.90636,2.34995,0.278467,
2,0,0,1,0,32526.6,0.277264,0.276969,-0.0704266,17,0.0222407,10,-1.9506e-05,-4.15226,-0.0579537,-1.01805,2.78016,0.276969,
2,0,0,1,0,32526.9,0.275766,0.275464,-0.0741863,17,0.0222143,10,-2.04357e-05,-4.12968,-0.109627,-0.538188,1.52672,0.275464,
2,0,0,1,0,32527.2,0.274269,0.273919,-0.0763375,17,0.022187,10,-2.09103e-05,-4.11726,-0.0876952,-0.672785,2.02476,0.273919,
2,0,0,1,0,32527.5,0.27277,0.272483,-0.0791544,17,0.022159,10,-2.15683e-05,-4.10152,-0.0865511,-0.681678,2.15282,0.272483,
2,0,0,1,0,32527.8,0.271272,0.270972,-0.083106,17,0.0221298,10,-2.25194e-05,-4.08037,-0.0930931,-0.633774,2.04727,0.270972,
2,0,0,1,0,32528.1,0.269773,0.269425,-0.0865675,17,0.0220996,10,-2.33234e-05,-4.06265,-0.113434,-0.520128,1.73232,0.2694248,
2,0,0,1,0,32528.4,0.268275,0.267952,-0.0881419,17,0.0220687,10,-2.36178e-05,-4.05482,-0.105498,-0.559251,1.93425,0.267952,
2,0,0,1,0,32528.7,0.266778,0.266392,-0.0917191,17,0.0220372,10,-2.44332e-05,-4.03754,-0.114353,-0.515948,1.84738,0.266392,
2,0,0,0,0,32529,0.265279,0.264939,-0.0942705,17,0.0220046,10,-2.49759e-05,-4.02562,-0.101961,-0.578653,2.11156,0.264939,
2,0,0,0,0,32529.3,0.263781,0.263473,-0.0962212,17,0.0219712,10,-2.53517e-05,-4.01673,-0.14769,-0.399486,1.50692,0.263473,
2,0,0,1,0,32529.6,0.262282,0.261935,-0.0996178,17,0.0219371,10,-2.60934e-05,-4.00166,-0.136604,-0.431905,1.67431,0.261935,
2,0,0,1,0,32529.9,0.260784,0.260511,-0.100107,17,0.0219025,10,-2.60791e-05,-3.99953,-0.161553,-0.365204,1.44651,0.260511,
2,0,0,1,0,32530.2,0.259286,0.258942,-0.104327,17,0.0218669,10,-2.70148e-05,-3.9816,-0.108425,-0.544153,2.18958,0.258942,
2,0,0,1,0,32530.5,0.257788,0.257468,-0.106237,17,0.0218307,10,-2.73527e-05,-3.97372,-0.168374,-0.350411,1.44748,0.257468,
2,0,0,1,0,32530.8,0.25629,0.25598,-0.108637,17,0.0217937,10,-2.7809e-05,-3.96402,-0.198755,-0.296847,1.24793,0.25598,
2,0,0,1,0,32531.1,0.254791,0.254447,-0.109479,17,0.0217562,10,-2.78566e-05,-3.96067,-0.197697,-0.298437,1.28753,0.254447,
2,0,0,1,0,32531.4,0.253293,0.252945,-0.113313,17,0.021718,10,-2.8662e-05,-3.94572,-0.183617,-0.32132,1.41532,0.252945,
2,0,0,1,0,32531.7,0.251795,0.25149,-0.114714,17,0.0216791,10,-2.88494e-05,-3.94038,-0.162088,-0.363999,1.6294,0.2514897,
2,0,0,0,0,32532,0.250297,0.249971,-0.117137,17,0.0216396,10,-2.92808e-05,-3.93131,-0.317,-0.18612,0.843639,0.249971,
2,0,0,0,0,32532.3,0.248799,0.248464,-0.118716,17,0.0215994,10,-2.94968e-05,-3.92549,-0.220722,-0.267304,1.25028,0.248464,
2,0,0,0,0,32532.6,0.247301,0.246987,-0.120888,17,0.0215589,10,-2.98577e-05,-3.91762,-0.20497,-0.287846,1.36399,0.246987,
2,0,0,1,0,32532.9,0.245802,0.245509,-0.123241,17,0.0215175,10,-3.02567e-05,-3.90925,-0.191703,-0.307767,1.46808,0.245509,
2,0,0,1,0,32533.2,0.244304,0.244021,-0.124449,17,0.0214754,10,-3.03682e-05,-3.90501,-0.267641,-0.220445,1.07481,0.244021,
2,0,0,1,0,32533.5,0.242806,0.242448,-0.126166,17,0.021433,10,-3.05888e-05,-3.89906,-0.213071,-0.276903,1.37093,0.242448,
2,0,0,1,0,32533.8,0.241308,0.240979,-0.128945,17,0.02139,10,-3.10729e-05,-3.8896,-0.286412,-0.205997,1.03717,0.240979,
2,0,0,1,0,32534.1,0.23981,0.239442,-0.129442,17,0.0213463,10,-3.09939e-05,-3.88792,-0.192197,-0.306977,1.55328,0.239442,
2,0,0,1,0,32534.4,0.238311,0.238,-0.132742,17,0.0213021,10,-3.15925e-05,-3.87699,-0.250717,-0.235326,1.22373,0.238,
2,0,0,1,0,32534.7,0.236813,0.23647,-0.134424,17,0.0212573,10,-3.17872e-05,-3.87152,-0.317872,-0.185609,0.971051,0.23647,
2,0,0,1,0,32535,0.235316,0.23499,-0.1343,17,0.0212121,10,-3.15591e-05,-3.87193,-0.232515,-0.253747,1.3481,0.23499,
2,0,0,0,0,32535.3,0.233817,0.233526,-0.138073,17,0.0211664,10,-3.22436e-05,-3.85989,-0.257895,-0.228776,1.22579,0.233526,
2,0,0,0,0,32535.6,0.232319,0.231992,-0.14016,17,0.02112,10,-3.25161e-05,-3.85337,-0.343723,-0.17165,0.930194,0.231992,
2,0,0,1,0,32535.9,0.23082,0.230501,-0.14157,17,0.021073,10,-3.26322e-05,-3.84903,-0.377245,-0.156397,0.86214,0.230501,
2,0,0,1,0,32536.2,0.229322,0.228965,-0.141688,17,0.0210257,10,-3.24417e-05,-3.84867,-0.381492,-0.154656,0.861851,0.228965,
2,0,0,1,0,32536.5,0.227825,0.227511,-0.144397,17,0.0209779,10,-3.28519e-05,-3.84044,-0.305172,-0.193334,1.09422,0.227511,
2,0,0,1,0,32536.8,0.226326,0.226025,-0.146166,17,0.0209295,10,-3.30371e-05,-3.83515,-0.275288,-0.214321,1.22553,0.226025,
2,0,0,1,0,32537.1,0.224828,0.224538,-0.148265,17,0.0208804,10,-3.32912e-05,-3.82896,-0.385708,-0.152966,0.883285,0.224538,
2,0,0,1,0,32537.4,0.223329,0.222985,-0.149977,17,0.0208308,10,-3.34426e-05,-3.82398,-0.323074,-0.182621,1.069,0.222985,
2,0,0,1,0,32537.7,0.221831,0.221524,-0.151813,17,0.0207809,10,-3.36302e-05,-3.81869,-0.33151,-0.177974,1.05669,0.2215243,
2,0,0,1,0,32538,0.220333,0.220052,-0.153647,17,0.0207303,10,-3.38103e-05,-3.81348,-0.291379,-0.202485,1.21414,0.220052,
2,0,0,0,0,32538.3,0.218835,0.218513,-0.155652,17,0.0206791,10,-3.4012e-05,-3.80785,-0.284754,-0.207197,1.2535,0.218513,
2,0,0,0,0,32538.6,0.217337,0.216964,-0.156609,17,0.0206273,10,-3.39784e-05,-3.80518,-0.416293,-0.141727,0.871611,0.216964,
2,0,0,0,0,32538.9,0.215839,0.215511,-0.157656,17,0.0205753,10,-3.39766e-05,-3.80229,-0.451626,-0.130639,0.810067,0.215511,
2,0,0,1,0,32539.2,0.21434,0.214003,-0.160049,17,0.0205227,10,-3.4251e-05,-3.79575,-0.204987,-0.287824,1.79671,0.214003,
2,0,0,1,0,32539.5,0.212842,0.212482,-0.162382,17,0.0204694,10,-3.45034e-05,-3.78946,-0.222979,-0.264599,1.684,0.212482,
2,0,0,1,0,32539.8,0.211344,0.211031,-0.163227,17,0.0204156,10,-3.44459e-05,-3.78721,-0.344142,-0.171441,1.09891,0.211031,
2,0,0,1,0,32540.1,0.209846,0.209511,-0.164761,17,0.0203613,10,-3.45193e-05,-3.78315,-0.272141,-0.2168,1.39573,0.2095111,
2,0,0,1,0,32540.4,0.208348,0.208023,-0.167394,17,0.0203066,10,-3.48218e-05,-3.77626,-0.271302,-0.21747,1.42784,0.208023,
2,0,0,1,0,32540.7,0.206849,0.206539,-0.172702,17,0.020251,10,-3.56698e-05,-3.7627,-0.29588,-0.199405,1.31784,0.206539,
2,0,0,1,0,32541,0.205351,0.204978,-0.171585,17,0.0201947,10,-3.51712e-05,-3.76552,-0.417252,-0.141401,0.944219,0.204978,
2,0,0,1,0,32541.3,0.203854,0.203514,-0.173613,17,0.0201382,10,-3.53326e-05,-3.76042,-0.314074,-0.187854,1.27193,0.203514,
2,0,0,0,0,32541.6,0.202355,0.202085,-0.173769,17,0.0200812,10,-3.5116e-05,-3.76003,-0.316513,-0.186406,1.27681,0.202085,
2,0,0,0,0,32541.9,0.200857,0.200539,-0.176507,17,0.0200235,10,-3.53965e-05,-3.75324,-0.342009,-0.17251,1.19386,0.200539,
2,0,0,1,0,32542.2,0.199358,0.199024,-0.179554,17,0.0199651,10,-3.57357e-05,-3.7458,-0.483387,-0.122055,0.849146,0.199024,
2,0,0,1,0,32542.5,0.19786,0.197506,-0.180805,17,0.0199063,10,-3.571e-05,-3.74279,-0.336891,-0.175131,1.2315,0.197506,
2,0,0,1,0,32542.8,0.196363,0.196063,-0.182898,17,0.0198471,10,-3.58595e-05,-3.73779,-0.316108,-0.186645,1.32786,0.1960633,
2,0,0,1,0,32543.1,0.194864,0.194543,-0.185232,17,0.019787,10,-3.60356e-05,-3.73228,-0.267082,-0.220906,1.58525,0.194543,
2,0,0,1,0,32543.4,0.193366,0.193009,-0.187573,17,0.019726,10,-3.62033e-05,-3.72683,-0.356386,-0.165551,1.20697,0.193009,
2,0,0,1,0,32543.7,0.191867,0.191518,-0.189019,17,0.0196647,10,-3.62004e-05,-3.7235,-0.461696,-0.12779,0.946738,0.191518,
2,0,0,1,0,32544,0.190369,0.190013,-0.190487,17,0.0196028,10,-3.61951e-05,-3.72013,-0.297044,-0.198624,1.48316,0.190013,
2,0,0,1,0,32544.3,0.188871,0.188542,-0.193339,17,0.0195401,10,-3.64524e-05,-3.71368,-0.276462,-0.213411,1.60427,0.188542,
2,0,0,0,0,32544.6,0.187373,0.187055,-0.1956,17,0.0194767,10,-3.65879e-05,-3.70863,-0.330478,-0.178529,1.36636,0.187055,
2,0,0,0,0,32544.9,0.185875,0.185576,-0.198369,17,0.0194126,10,-3.68125e-05,-3.70253,-0.313243,-0.188352,1.45478,0.1855756,
2,0,0,0,0,32545.2,0.184377,0.184035,-0.198353,17,0.0193478,10,-3.65038e-05,-3.70256,-0.39429,-0.149636,1.16655,0.184035,
2,0,0,1,0,32545.5,0.182878,0.182533,-0.203067,17,0.0192825,10,-3.70664e-05,-3.69236,-0.285988,-0.206302,1.63238,0.182533,
2,0,0,1,0,32545.8,0.181381,0.181112,-0.205491,17,0.0192163,10,-3.7217e-05,-3.68721,-0.291114,-0.20267,1.61686,0.181112,
2,0,0,1,0,32546.1,0.179882,0.179571,-0.207266,17,0.0191492,10,-3.72189e-05,-3.68347,-0.496102,-0.118927,0.960374,0.179571,
2,0,0,1,0,32546.4,0.178384,0.178085,-0.21052,17,0.0190813,10,-3.74904e-05,-3.67671,-0.294465,-0.200363,1.652,0.178085,
2,0,0,1,0,32546.7,0.176886,0.176576,-0.212387,17,0.0190129,10,-3.75024e-05,-3.67287,-0.224245,-0.263105,2.19892,0.176576,
2,0,0,1,0,32547,0.175387,0.175021,-0.216627,17,0.0189433,10,-3.79143e-05,-3.66429,-0.233724,-0.252434,2.13186,0.175021,
2,0,0,1,0,32547.3,0.173889,0.173584,-0.220546,17,0.0188728,10,-3.82832e-05,-3.6565,-0.242584,-0.243214,2.08319,0.173584,
2,0,0,1,0,32547.6,0.172392,0.17206,-0.222302,17,0.0188014,10,-3.82494e-05,-3.65306,-0.213433,-0.276433,2.40687,0.1720601,
2,0,0,0,0,32547.9,0.170893,0.170597,-0.22711,17,0.0187291,10,-3.87443e-05,-3.64376,-0.249722,-0.236262,2.08265,0.170597,
2,0,0,0,0,32548.2,0.169395,0.169053,-0.22985,17,0.0186555,10,-3.88569e-05,-3.63856,-0.181463,-0.325135,2.90893,0.169053,
2,0,0,1,0,32548.5,0.167896,0.167555,-0.234526,17,0.0185806,10,-3.9296e-05,-3.62981,-0.208465,-0.283021,2.59233,0.167555,
2,0,0,1,0,32548.8,0.166398,0.166068,-0.237574,17,0.0185046,10,-3.94536e-05,-3.6242,-0.202065,-0.291986,2.72806,0.166068,
2,0,0,1,0,32549.1,0.164901,0.164558,-0.242714,17,0.0184276,10,-3.99405e-05,-3.6149,-0.197801,-0.29828,2.83095,0.164558,
2,0,0,1,0,32549.4,0.163402,0.163109,-0.24766,17,0.018349,10,-4.03955e-05,-3.60614,-0.16806,-0.351065,3.39034,0.163109,
2,0,0,1,0,32549.7,0.161904,0.161574,-0.252959,17,0.0182689,10,-4.08717e-05,-3.59695,-0.160278,-0.368109,3.63353,0.161574,
2,0,0,1,0,32550,0.160405,0.160063,-0.257333,17,0.0181873,10,-4.11894e-05,-3.5895,-0.16954,-0.348,3.51023,0.160063,
2,0,0,1,0,32550.3,0.158907,0.1586,-0.261746,17,0.0181041,10,-4.15129e-05,-3.58212,-0.150552,-0.391892,4.03548,0.1586,
2,0,0,1,0,32550.6,0.157409,0.157104,-0.270797,17,0.018019,10,-4.25433e-05,-3.56736,-0.137036,-0.430544,4.56251,0.157104,
2,0,0,0,0,32550.9,0.155911,0.155562,-0.276745,17,0.0179318,10,-4.3051e-05,-3.55792,-0.132376,-0.445701,4.83692,0.155562,
2,0,0,0,0,32551.2,0.154413,0.154078,-0.284259,17,0.0178422,10,-4.37981e-05,-3.54629,-0.140827,-0.418954,4.65695,0.154078,
2,0,0,0,0,32551.5,0.152915,0.152578,-0.293568,17,0.0177504,10,-4.4792e-05,-3.53229,-0.11748,-0.502211,5.76793,0.152578,
2,0,0,1,0,32551.8,0.151416,0.151073,-0.302694,17,0.0176561,10,-4.57288e-05,-3.519,-0.10762,-0.548228,6.48724,0.151073,
2,0,0,1,0,32552.1,0.149919,0.149576,-0.314004,17,0.0175585,10,-4.69675e-05,-3.50306,-0.0916965,-0.643427,7.85839,0.149576,
2,0,0,1,0,32552.4,0.14842,0.14812,-0.325811,17,0.0174574,10,-4.82591e-05,-3.48703,-0.0895301,-0.658997,8.37547,0.14812,
2,0,0,1,0,32552.7,0.146922,0.146609,-0.337626,17,0.0173527,10,-4.9499e-05,-3.47156,-0.0869437,-0.6786,8.96576,0.146609,
2,0,0,1,0,32553,0.145424,0.145108,-0.352648,17,0.0172441,10,-5.11722e-05,-3.45266,-0.0799508,-0.737954,10.1766,0.145108,
2,0,0,1,0,32553.3,0.143925,0.143588,-0.368255,17,0.0171307,10,-5.28772e-05,-3.43385,-0.0714622,-0.825612,11.8784,0.143588,
2,0,0,1,0,32553.6,0.142427,0.14208,-0.386073,17,0.0170121,10,-5.48533e-05,-3.41333,-0.0743532,-0.79351,11.9785,0.14208,
2,0,0,1,0,32553.9,0.14093,0.140583,-0.402714,17,0.0168884,10,-5.66148e-05,-3.395,-0.0749784,-0.786894,12.4422,0.140583,
2,0,0,0,0,32554.2,0.139431,0.139117,-0.421276,17,0.0167592,10,-5.86067e-05,-3.37543,-0.075277,-0.783772,12.9605,0.139117,
2,0,0,0,0,32554.5,0.137933,0.137585,-0.444318,17,0.0166242,10,-6.11314e-05,-3.35231,-0.0741954,-0.795198,13.7519,0.137585,
2,0,0,1,0,32554.8,0.136434,0.136102,-0.463917,17,0.0164829,10,-6.31401e-05,-3.33356,-0.0763419,-0.772839,13.9625,0.136102,
2,0,0,1,0,32555.1,0.134936,0.134604,-0.485389,17,0.0163352,10,-6.53353e-05,-3.31391,-0.0836449,-0.705363,13.2836,0.134604,
2,0,0,1,0,32555.4,0.133439,0.133081,-0.50376,17,0.0161814,10,-6.70407e-05,-3.29778,-0.0871201,-0.677226,13.3296,0.133081,
2,0,0,1,0,32555.7,0.13194,0.131615,-0.524032,17,0.016022,10,-6.89703e-05,-3.28064,-0.0918522,-0.642337,13.1547,0.131615,
2,0,0,1,0,32556,0.130442,0.130082,-0.542875,17,0.0158565,10,-7.06185e-05,-3.2653,-0.107969,-0.546455,11.5416,0.130082,
2,0,0,1,0,32556.3,0.128943,0.128644,-0.561309,17,0.0156853,10,-7.22091e-05,-3.2508,-0.120264,-0.490587,10.6706,0.128644,
2,0,0,1,0,32556.6,0.127445,0.127149,-0.577134,17,0.0155095,10,-7.33821e-05,-3.23872,-0.137735,-0.428358,9.58796,0.127149,
2,0,0,1,0,32556.9,0.125947,0.125587,-0.589471,17,0.0153296,10,-7.40297e-05,-3.22954,-0.149446,-0.394791,9.04974,0.125587,
2,0,0,0,0,32557.2,0.124449,0.124148,-0.602535,17,0.0151455,10,-7.48037e-05,-3.22002,-0.184732,-0.319381,7.47012,0.124148,
2,0,0,0,0,32557.5,0.122951,0.122604,-0.612576,17,0.0149579,10,-7.51045e-05,-3.21284,-0.222566,-0.26509,6.30453,0.122604,
2,0,0,0,0,32557.8,0.121453,0.121135,-0.620322,17,0.0147679,10,-7.51425e-05,-3.20738,-0.329498,-0.17906,4.32111,0.1211347,
2,0,0,1,0,32558.1,0.119954,0.11964,-0.623389,17,0.0145761,10,-7.45825e-05,-3.20524,-0.433063,-0.136239,3.3147,0.11964,
2,0,0,1,0,32558.4,0.118456,0.118153,-0.629285,17,0.0143829,10,-7.4352e-05,-3.20115,-0.528537,-0.111629,2.73084,0.118153,
2,0,0,1,0,32558.7,0.116958,0.116601,-0.633536,17,0.0141884,10,-7.38712e-05,-3.19823,-1.14875,-0.0513603,1.26303,0.116601,
2,0,0,1,0,32559,0.11546,0.115095,-0.63193,17,0.0139934,10,-7.27317e-05,-3.19933,6.24202,0.00945207,-0.232899,0.115095,
2,0,0,1,0,32559.3,0.113962,0.113595,-0.629936,17,0.0137986,10,-7.15577e-05,-3.2007,1.73243,0.0340562,-0.839177,0.113595,
2,0,0,1,0,32559.6,0.112463,0.112096,-0.631781,17,0.0136042,10,-7.08198e-05,-3.19943,1.89711,0.0311,-0.765039,0.112096,
2,0,0,1,0,32559.9,0.110965,0.110624,-0.630518,17,0.0134098,10,-6.97505e-05,-3.2003,1.64568,0.0358514,-0.879582,0.110624,
2,0,0,1,0,32560.2,0.109468,0.109155,-0.627381,17,0.013216,10,-6.84816e-05,-3.20247,0.629466,0.0937303,-2.29141,0.109155,
2,0,0,0,0,32560.5,0.107969,0.107657,-0.624678,17,0.0130228,10,-6.7251e-05,-3.20434,0.730531,0.0807632,-1.96946,0.107657,
2,0,0,0,0,32560.8,0.106471,0.106146,-0.621336,17,0.012831,10,-6.59523e-05,-3.20667,0.846162,0.0697266,-1.6968,0.106146,
2,0,0,1,0,32561.1,0.104972,0.104621,-0.619028,17,0.0126395,10,-6.47631e-05,-3.20829,0.725922,0.0812759,-1.96126,0.104621,
2,0,0,1,0,32561.4,0.103474,0.103142,-0.616169,17,0.0124489,10,-6.35527e-05,-3.2103,0.5842,0.100993,-2.42457,0.103142,
2,0,0,1,0,32561.7,0.101977,0.101677,-0.612198,17,0.0122595,10,-6.22462e-05,-3.21311,0.533588,0.110572,-2.63922,0.101677,
2,0,0,1,0,32562,0.100478,0.100151,-0.609166,17,0.0120714,10,-6.10088e-05,-3.21526,0.543892,0.108477,-2.57362,0.100151,
2,0,0,1,0,32562.3,0.0989799,0.09867,-0.606032,17,0.0118842,10,-5.97971e-05,-3.2175,0.586195,0.100649,-2.36936,0.09867,
2,0,0,1,0,32562.6,0.0974812,0.0971063,-0.601194,17,0.011698,10,-5.83798e-05,-3.22099,0.568509,0.10378,-2.43421,0.0971063,
2,0,0,1,0,32562.9,0.0959834,0.0956488,-0.597588,17,0.0115131,10,-5.71586e-05,-3.2236,0.461714,0.127785,-2.97661,0.0956488,
2,0,0,1,0,32563.2,0.0944855,0.0941435,-0.589526,17,0.0113298,10,-5.55e-05,-3.2295,0.554302,0.10644,-2.46572,0.0941435,
2,0,0,0,0,32563.5,0.0929871,0.0926575,-0.5879,17,0.0111474,10,-5.44734e-05,-3.2307,0.798736,0.0738668,-1.69326,0.0926575,
2,0,0,0,0,32563.8,0.0914889,0.0911358,-0.58649,17,0.0109659,10,-5.34502e-05,-3.23174,0.472634,0.124832,-2.84609,0.0911358,
2,0,0,0,0,32564.1,0.0899907,0.0896703,-0.581655,17,0.0107858,10,-5.21572e-05,-3.23533,0.402993,0.146405,-3.31245,0.0896703,
2,0,0,1,0,32564.4,0.0884923,0.0881824,-0.573599,17,0.0106072,10,-5.05813e-05,-3.24139,0.488504,0.120777,-2.71073,0.08818236,
2,0,0,1,0,32564.7,0.0869946,0.0866654,-0.570996,17,0.0104301,10,-4.94855e-05,-3.24337,0.470356,0.125437,-2.79809,0.0866654,
2,0,0,1,0,32565,0.0854962,0.08517,-0.567069,17,0.0102539,10,-4.82972e-05,-3.24636,0.423788,0.139221,-3.08083,0.08517,
2,0,0,1,0,32565.3,0.083998,0.0836918,-0.562548,17,0.0100792,10,-4.70806e-05,-3.24984,0.370248,0.159353,-3.49535,0.0836918,
2,0,0,1,0,32565.6,0.0824998,0.0821669,-0.558399,17,0.0099058,10,-4.58819e-05,-3.25306,0.510408,0.115594,-2.51855,0.08216688,
2,0,0,1,0,32565.9,0.0810014,0.0807224,-0.554863,17,0.00973394,10,-4.47899e-05,-3.25581,0.656172,0.0899155,-1.94917,0.0807224,
2,0,0,1,0,32566.2,0.0795035,0.0791873,-0.550878,17,0.00956305,10,-4.36226e-05,-3.25894,0.484191,0.121853,-2.61181,0.0791873,
2,0,0,1,0,32566.5,0.0780056,0.0776712,-0.546583,17,0.00939313,10,-4.24538e-05,-3.26234,0.514814,0.114604,-2.44286,0.0776712,
2,0,0,0,0,32566.8,0.076507,0.0761533,-0.544169,17,0.00922453,10,-4.14403e-05,-3.26427,0.45165,0.130632,-2.76673,0.0761533,
2,0,0,0,0,32567.1,0.0750088,0.0746581,-0.53863,17,0.00905746,10,-4.02131e-05,-3.26871,0.449331,0.131306,-2.762,0.0746581,
2,0,0,1,0,32567.4,0.0735103,0.0731563,-0.535915,17,0.00889119,10,-3.92056e-05,-3.2709,0.657658,0.0897123,-1.86998,0.0731563,
2,0,0,1,0,32567.7,0.0720124,0.0717007,-0.531968,17,0.00872608,10,-3.81425e-05,-3.27411,0.439043,0.134383,-2.7934,0.0717007,
2,0,0,1,0,32568,0.0705146,0.0702025,-0.527972,17,0.00856202,10,-3.7065e-05,-3.27739,0.574628,0.102675,-2.11607,0.0702025,
2,0,0,1,0,32568.3,0.0690161,0.0687061,-0.521983,17,0.00839927,10,-3.58634e-05,-3.28234,0.55938,0.105474,-2.1589,0.06870608,
2,0,0,1,0,32568.6,0.0675179,0.067143,-0.521883,17,0.00823745,10,-3.50408e-05,-3.28243,0.700778,0.0841921,-1.70975,0.06714303,
2,0,0,1,0,32568.9,0.0660192,0.0656813,-0.521211,17,0.00807632,10,-3.42338e-05,-3.28299,0.542643,0.108727,-2.19751,0.0656813,
2,0,0,1,0,32569.2,0.0645214,0.0642162,-0.515743,17,0.0079162,10,-3.3119e-05,-3.28757,0.431023,0.136884,-2.74303,0.0642162,
2,0,0,1,0,32569.5,0.0630235,0.0627043,-0.510241,17,0.00775725,10,-3.19943e-05,-3.29222,0.509477,0.115805,-2.31005,0.06270425,
2,0,0,0,0,32569.8,0.0615251,0.0611973,-0.507409,17,0.00759961,10,-3.10521e-05,-3.29464,0.488272,0.120834,-2.39753,0.0611973,
2,0,0,0,0,32570.1,0.0600269,0.0597075,-0.504636,17,0.00744269,10,-3.01305e-05,-3.29702,0.489818,0.120453,-2.37583,0.05970747,
2,0,0,0,0,32570.4,0.0585287,0.0581847,-0.500352,17,0.00728675,10,-2.91128e-05,-3.30072,0.422211,0.13974,-2.72899,0.0581847,
2,0,0,1,0,32570.7,0.0570303,0.0566724,-0.4987,17,0.00713175,10,-2.82626e-05,-3.30216,0.479876,0.122948,-2.38827,0.0566724,
2,0,0,1,0,32571,0.0555325,0.0551935,-0.49468,17,0.00697818,10,-2.73032e-05,-3.30568,0.57851,0.101986,-1.96965,0.0551935,
2,0,0,1,0,32571.3,0.0540342,0.0536759,-0.490168,17,0.00682526,10,-2.63102e-05,-3.30966,0.502216,0.117479,-2.25331,0.0536759,
2,0,0,1,0,32571.6,0.052536,0.0522083,-0.488073,17,0.00667317,10,-2.54814e-05,-3.31152,0.470787,0.125322,-2.38464,0.0522083,
2,0,0,1,0,32571.9,0.0510378,0.0506993,-0.485649,17,0.00652215,10,-2.46221e-05,-3.31368,0.403023,0.146394,-2.76858,0.0506993,
2,0,0,1,0,32572.2,0.0495394,0.0492146,-0.479731,17,0.00637256,10,-2.36098e-05,-3.319,0.521845,0.11306,-2.12059,0.0492146,
2,0,0,1,0,32572.5,0.0480415,0.0477241,-0.477159,17,0.00622383,10,-2.2772e-05,-3.32134,0.871288,0.0677159,-1.2593,0.0477241,
2,0,0,1,0,32572.8,0.0465436,0.0462026,-0.47385,17,0.00607601,10,-2.18931e-05,-3.32436,0.453949,0.12997,-2.40149,0.0462026,
2,0,0,0,0,32573.1,0.045045,0.044726,-0.470039,17,0.00592912,10,-2.1023e-05,-3.32787,0.467599,0.126176,-2.31278,0.044726,
2,0,0,0,0,32573.4,0.0435468,0.0432712,-0.465427,17,0.00578359,10,-2.01396e-05,-3.33215,0.485337,0.121565,-2.21257,0.0432712,
2,0,0,1,0,32573.7,0.0420483,0.04169,-0.463384,17,0.00563915,10,-1.93185e-05,-3.33406,0.524673,0.112451,-2.03743,0.04169,
2,0,0,1,0,32574,0.0405504,0.0402076,-0.462012,17,0.00549552,10,-1.85764e-05,-3.33535,0.537543,0.109759,-1.9687,0.0402076,
2,0,0,1,0,32574.3,0.0390526,0.0386822,-0.457516,17,0.00535265,10,-1.76977e-05,-3.33959,0.385681,0.152976,-2.71989,0.0386822,
2,0,0,1,0,32574.6,0.0375541,0.0372078,-0.450853,17,0.00521101,10,-1.67752e-05,-3.34596,0.540394,0.10918,-1.9345,0.0372078,
2,0,0,1,0,32574.9,0.0360559,0.035719,-0.450064,17,0.00507084,10,-1.60758e-05,-3.34673,0.458056,0.128805,-2.26526,0.035719,
2,0,0,1,0,32575.2,0.0345572,0.0342318,-0.445265,17,0.00493112,10,-1.52422e-05,-3.35138,0.441524,0.133628,-2.32863,0.0342318,
2,0,0,1,0,32575.5,0.0330594,0.0327104,-0.442712,17,0.00479259,10,-1.44813e-05,-3.35388,0.406005,0.145319,-2.50874,0.0327104,
2,0,0,1,0,32575.8,0.0315615,0.03124,-0.441043,17,0.00465506,10,-1.37782e-05,-3.35552,0.492978,0.119681,-2.05237,0.03124,
2,0,0,0,0,32576.1,0.0300631,0.0298029,-0.437414,17,0.00451869,10,-1.30362e-05,-3.35911,0.585746,0.100726,-1.71526,0.0298029,
2,0,0,0,0,32576.4,0.0285649,0.0282632,-0.43395,17,0.00438299,10,-1.22648e-05,-3.36256,0.56033,0.105295,-1.78199,0.0282632,
2,0,0,0,0,32576.7,0.0270667,0.0267055,-0.431263,17,0.00424814,10,-1.15171e-05,-3.36526,0.546367,0.107986,-1.81529,0.0267055,
2,0,0,1,0,32577,0.0255683,0.025243,-0.428679,17,0.00411414,10,-1.08211e-05,-3.36787,0.477743,0.123497,-2.06376,0.025243,
2,0,0,1,0,32577.3,0.0240706,0.0237622,-0.423202,17,0.00398134,10,-1.00562e-05,-3.37345,0.586636,0.100573,-1.67236,0.0237622,
2,0,0,1,0,32577.6,0.0225722,0.0222168,-0.422779,17,0.00384902,10,-9.39281e-06,-3.37389,1.32143,0.0446487,-0.736725,0.0222168,
2,0,0,1,0,32577.9,0.021074,0.0207587,-0.421379,17,0.0037173,10,-8.7473e-06,-3.37533,0.583151,0.101175,-1.6634,0.0207587,
2,0,0,1,0,32578.2,0.0195758,0.019289,-0.418463,17,0.00358616,10,-8.07173e-06,-3.37834,0.685359,0.0860863,-1.40723,0.019289,
2,0,0,1,0,32578.5,0.0180774,0.0177459,-0.414928,17,0.00345588,10,-7.36327e-06,-3.38203,0.693338,0.0850956,-1.38665,0.01774588,
2,0,0,1,0,32578.8,0.0165795,0.0162702,-0.414998,17,0.0033262,10,-6.75208e-06,-3.38195,0.945124,0.0624257,-1.01083,0.0162702,
2,0,0,1,0,32579.1,0.0150817,0.0147267,-0.415286,17,0.00319677,10,-6.11579e-06,-3.38165,2.4712,0.023875,-0.385523,0.0147267,
2,0,0,0,0,32579.4,0.013583,0.0132585,-0.412925,17,0.00306754,10,-5.47477e-06,-3.38413,1.21132,0.0487072,-0.784208,0.0132585,
2,0,0,0,0,32579.7,0.0120848,0.0117432,-0.41203,17,0.0029389,10,-4.83854e-06,-3.38507,0.968432,0.0609232,-0.980621,0.0117432,
2,0,0,1,0,32580,0.0105863,0.0102742,-0.410498,17,0.0028106,10,-4.21754e-06,-3.38669,1.34381,0.0439049,-0.704334,0.0102742,
2,0,0,1,0,32580.3,0.00908846,0.0087538,-0.410359,17,0.00268243,10,-3.5922e-06,-3.38684,2.25449,0.0261699,-0.42015,0.0087538,
2,0,0,1,0,32580.6,0.0075906,0.00727914,-0.41097,17,0.00255418,10,-2.99151e-06,-3.38619,26.2819,0.00224489,-0.0359444,0.00727914,
2,0,0,1,0,32580.9,0.00609208,0.00576247,-0.411814,17,0.00242601,10,-2.37306e-06,-3.3853,4.88305,0.0120826,-0.193744,0.00576247,
2,0,0,1,0,32581.2,0.00459389,0.00429593,-0.410926,17,0.00229798,10,-1.76531e-06,-3.38624,-6.79364,-0.00868459,0.139188,0.00429593,
2,0,0,1,0,32581.5,0.00309525,0.00277388,-0.41296,17,0.00216962,10,-1.1455e-06,-3.38409,-0.863834,-0.0683002,1.09739,0.00277388,
2,0,0,1,0,32581.8,0.00159739,0.00119849,-0.416655,17,0.00203922,10,-4.99359e-07,-3.38022, , , ,0.00119849,
2,0,0,0,0,32582.1,0.000199195,-0.000205073,-0.41343,17,0.00191852,10,8.47834e-08,-3.3836, , , ,-0.000205073,