File: Figure_codes/Fig_3-5/rawdata_trumpetplot_data/after 10th/20221101_1-115_003_TrumpetPlot_ParaChange_from10_every3_14_CV_C01_4.csv
mode,ox/red,error,control changes,counter inc.,time/s,control/V,Ewe/V,<I>/mA,cycle number,(Q-Qo)/C,I Range,P/W,log(|I|),Tafel slope mV/dec,alpha_eff,dI/d(E-IR),E-IR/V,
2,1,0,1,0,9079.63,2.44065e-05,-0.000115363,44.9507,5,0.0000000E+000,10,-5.18565e-06,-1.34726, , , ,-0.000115363,
2,1,0,1,0,9079.63,0.00332042,0.00297148,46.3341,5,0.000142041,10,0.000137681,-1.3341, , , ,0.00297148,
2,1,0,1,0,9079.64,0.0073156,0.00695225,47.3996,5,0.000329678,10,0.000329534,-1.32422, , , ,0.00695225,
2,1,0,1,0,9079.64,0.0113108,0.010986,48.3013,5,0.000521214,10,0.000530639,-1.31604,0.51263,0.115093,215.772,0.010986,
2,1,0,1,0,9079.64,0.0153059,0.0149626,49.0858,5,0.000716083,10,0.000734449,-1.30904,0.58734,0.100453,191.789,0.0149626,
2,1,0,1,0,9079.65,0.0193011,0.0189539,49.7827,5,0.000913916,10,0.000943577,-1.30292,0.672015,0.0877956,170.112,0.0189539,
2,1,0,1,0,9079.65,0.0233462,0.0229877,50.4751,5,0.00111456,10,0.00116031,-1.29692,0.759099,0.0777237,152.564,0.0229877,
2,1,0,1,0,9079.66,0.0273414,0.0269621,51.019,5,0.00131762,10,0.00137558,-1.29227,0.845239,0.0698028,138.625,0.0269621,
2,1,0,1,0,9079.66,0.0313366,0.0309577,51.5261,5,0.00152279,10,0.00159513,-1.28797,0.958341,0.0615647,123.628,0.0309577,
2,1,0,1,0,9079.66,0.0353317,0.035,52.0071,5,0.0017299,10,0.00182025,-1.28394,1.03226,0.0571561,115.862,0.035,
2,1,0,1,0,9079.67,0.0393269,0.0389309,52.4461,5,0.00193886,10,0.00204177,-1.28029,1.10449,0.0534184,109.227,0.0389309,
2,1,0,1,0,9079.67,0.0433221,0.0429849,52.8754,5,0.00214955,10,0.00227284,-1.27675,1.15526,0.0510707,105.32,0.0429849,
2,1,0,1,0,9079.68,0.0473173,0.0469232,53.2699,5,0.00236188,10,0.0024996,-1.27352,1.19174,0.0495074,102.918,0.0469232,
2,1,0,1,0,9079.68,0.0513124,0.0509326,53.6851,5,0.00257584,10,0.00273432,-1.27015,1.21366,0.0486132,101.849,0.0509326,
2,1,0,1,0,9079.68,0.0553076,0.0549632,54.0961,5,0.00279144,10,0.0029733,-1.26683,1.1738,0.0502639,106.163,0.0549632,
2,1,0,1,0,9079.69,0.0593028,0.0589259,54.499,5,0.00300866,10,0.0032114,-1.26361,1.20379,0.049012,104.277,0.0589259,
2,1,0,1,0,9079.69,0.0633479,0.0630149,54.9783,5,0.0032276,10,0.00346445,-1.25981,1.21519,0.048552,104.066,0.06301488,
2,1,0,1,0,9079.7,0.0673431,0.0669501,55.3553,5,0.0034483,10,0.00370604,-1.25684,1.13954,0.0517755,111.918,0.0669501,
2,1,0,1,0,9079.7,0.0713383,0.0708937,55.7539,5,0.00367054,10,0.0039526,-1.25372,1.09816,0.0537261,117.225,0.07089369,
2,1,0,1,0,9079.7,0.0753334,0.0748914,56.2858,5,0.00389468,10,0.00421533,-1.2496,1.01745,0.0579884,127.575,0.0748914,
2,1,0,1,0,9079.71,0.0793286,0.0789602,56.8475,5,0.00412097,10,0.00448869,-1.24529,0.948151,0.0622263,138.074,0.0789602,
2,1,0,1,0,9079.71,0.0833238,0.082977,57.4,5,0.00434953,10,0.00476288,-1.24109,0.93687,0.0629757,141.11,0.082977,
2,1,0,1,0,9079.72,0.0873189,0.0869599,57.9723,5,0.00458033,10,0.00504126,-1.23678,0.912576,0.0646522,146.379,0.0869599,
2,1,0,1,0,9079.72,0.0913141,0.0909937,58.558,5,0.00481344,10,0.00532841,-1.23241,0.873622,0.067535,154.526,0.0909937,
2,1,0,1,0,9079.72,0.0953093,0.0950052,59.1961,5,0.00504902,10,0.00562394,-1.22771,0.833677,0.0707708,163.705,0.0950052,
2,1,0,1,0,9079.73,0.0993045,0.0989913,59.8746,5,0.00528721,10,0.00592706,-1.22276,0.791122,0.0745777,174.475,0.09899129,
2,1,0,1,0,9079.73,0.103319,0.102947,60.5894,5,0.00552818,10,0.00623747,-1.2176,0.771133,0.0765108,181.049,0.102947,
2,1,0,1,0,9079.74,0.107345,0.10703,61.356,5,0.00577222,10,0.00656695,-1.21214,0.756997,0.0779395,186.632,0.10703,
2,1,0,1,0,9079.74,0.11134,0.111005,62.0928,5,0.00601916,10,0.00689259,-1.20696,0.743346,0.0793708,192.431,0.111005,
2,1,0,1,0,9079.74,0.115335,0.115007,62.8636,5,0.00626914,10,0.00722972,-1.2016,0.733904,0.080392,197.403,0.115007,
2,1,0,1,0,9079.75,0.11933,0.119017,63.6818,5,0.00652231,10,0.00757922,-1.19598,0.720775,0.0818564,203.507,0.119017,
2,1,0,1,0,9079.75,0.123325,0.122994,64.5072,5,0.00677876,10,0.00793397,-1.19039,0.707665,0.0833728,209.951,0.122994,
2,1,0,1,0,9079.76,0.127321,0.12697,65.3419,5,0.00703854,10,0.00829647,-1.18481,0.699606,0.0843332,215.183,0.12697,
2,1,0,1,0,9079.76,0.131316,0.130974,66.216,5,0.00730172,10,0.00867258,-1.17904,0.685124,0.0861157,222.718,0.130974,
2,1,0,1,0,9079.76,0.135311,0.13494,67.1082,5,0.00756844,10,0.00905559,-1.17322,0.666761,0.0884875,231.985,0.13494,
2,1,0,1,0,9079.77,0.139306,0.138955,68.0621,5,0.00783888,10,0.00945755,-1.16709,0.646603,0.0912461,242.664,0.138955,
2,1,0,1,0,9079.77,0.143301,0.14293,69.0444,5,0.00811316,10,0.00986854,-1.16087,0.630791,0.0935334,252.273,0.14293,
2,1,0,1,0,9079.78,0.147346,0.147016,70.1087,5,0.00839161,10,0.0103071,-1.15423,0.618833,0.0953408,260.925,0.147016,
2,1,0,1,0,9079.78,0.151342,0.150967,71.1514,5,0.00867422,10,0.0107415,-1.14782,0.611616,0.0964658,267.949,0.150967,
2,1,0,1,0,9079.78,0.155337,0.154927,72.2295,5,0.00896106,10,0.0111903,-1.14129,0.60538,0.0974595,274.901,0.154927,
2,1,0,1,0,9079.79,0.159332,0.158981,73.3451,5,0.00925233,10,0.0116604,-1.13463,0.606106,0.0973428,278.692,0.158981,
2,1,0,1,0,9079.79,0.163327,0.162937,74.4854,5,0.0095481,10,0.0121364,-1.12793,0.607347,0.0971438,282.32,0.162937,
2,1,0,1,0,9079.8,0.167322,0.166976,75.6129,5,0.00984841,10,0.0126255,-1.1214,0.617101,0.0956083,282.008,0.166976,
2,1,0,1,0,9079.8,0.171317,0.170939,76.7501,5,0.0101533,10,0.0131196,-1.11492,0.634777,0.0929461,278.185,0.170939,
2,1,0,1,0,9079.8,0.175313,0.174983,77.8579,5,0.0104626,10,0.0136238,-1.1087,0.653331,0.0903065,274.136,0.174983,
2,1,0,1,0,9079.81,0.179308,0.178943,78.938,5,0.0107763,10,0.0141254,-1.10271,0.681029,0.0866336,266.668,0.178943,
2,1,0,1,0,9079.81,0.183303,0.182957,79.994,5,0.0110943,10,0.0146355,-1.09694,0.724473,0.0814385,253.858,0.182957,
2,1,0,1,0,9079.82,0.187348,0.186997,81.0321,5,0.0114164,10,0.0151527,-1.09134,0.784534,0.0752039,237.207,0.186997,
2,1,0,1,0,9079.82,0.191343,0.19099,81.9214,5,0.0117424,10,0.0156462,-1.0866,0.879307,0.0670983,213.934,0.19099,
2,1,0,1,0,9079.82,0.195338,0.194942,82.7331,5,0.0120718,10,0.0161282,-1.08232,1.03718,0.0568851,183.131,0.194942,
2,1,0,1,0,9079.83,0.199334,0.198989,83.4236,5,0.0124042,10,0.0166004,-1.07871,1.27346,0.0463304,150.293,0.198989,
2,1,0,1,0,9079.83,0.203329,0.203011,83.9649,5,0.0127391,10,0.0170458,-1.0759,1.79445,0.0328791,107.26,0.2030108,
2,1,0,1,0,9079.84,0.207324,0.207029,84.3319,5,0.0130758,10,0.0174591,-1.07401,3.39291,0.0173892,56.9236,0.207029,
2,1,0,1,0,9079.84,0.211319,0.210978,84.4531,5,0.0134135,10,0.0178177,-1.07338,-61.9767,-0.000951971,-3.11857,0.210978,
2,1,0,1,0,9079.84,0.215314,0.214993,84.3347,5,0.0137511,10,0.0181314,-1.07399,-2.71814,-0.0217061,-70.9579,0.214993,
2,1,0,1,0,9079.85,0.219309,0.218997,83.915,5,0.0140876,10,0.0183772,-1.07616,-1.3484,-0.0437556,-142.256,0.218997,
2,1,0,1,0,9079.85,0.223305,0.223005,83.1983,5,0.0144219,10,0.0185536,-1.07989,-0.871562,-0.0676945,-218.145,0.223005,
2,1,0,1,0,9079.86,0.227314,0.227039,82.1684,5,0.0147526,10,0.0186554,-1.0853,-0.632066,-0.0933446,-296.931,0.227039,
2,1,0,1,0,9079.86,0.231345,0.231049,80.8322,5,0.0150786,10,0.0186762,-1.09242,-0.49448,-0.119317,-373.299,0.231049,
2,1,0,1,0,9079.86,0.23534,0.235051,79.1482,5,0.0153984,10,0.0186039,-1.10156,-0.405304,-0.14557,-446.231,0.235051,
2,1,0,1,0,9079.87,0.239335,0.239051,77.2083,5,0.015711,10,0.0184567,-1.11234,-0.346758,-0.170147,-509.279,0.239051,
2,1,0,1,0,9079.87,0.24333,0.243031,75.0322,5,0.0160153,10,0.0182351,-1.12475,-0.308585,-0.191195,-556.696,0.243031,
2,1,0,1,0,9079.88,0.247326,0.247014,72.7013,5,0.0163106,10,0.0179583,-1.13846,-0.281724,-0.209425,-591.503,0.247014,
2,1,0,1,0,9079.88,0.251321,0.251049,70.242,5,0.0165963,10,0.0176342,-1.1534,-0.264073,-0.223423,-610.623,0.251049,
2,1,0,1,0,9079.88,0.255316,0.255058,67.7402,5,0.016872,10,0.0172777,-1.16915,-0.251924,-0.234198,-618.107,0.255058,
2,1,0,1,0,9079.89,0.259311,0.259044,65.2542,5,0.0171377,10,0.0169037,-1.18539,-0.2449,-0.240915,-613.169,0.259044,
2,1,0,1,0,9079.89,0.263306,0.263044,62.7936,5,0.0173936,10,0.0165175,-1.20208,-0.244511,-0.241298,-592.089,0.263044,
2,1,0,1,0,9079.9,0.267302,0.267042,60.4355,5,0.0176398,10,0.0161389,-1.21871,-0.244473,-0.241336,-570.447,0.267042,
2,1,0,1,0,9079.9,0.271347,0.271092,58.2464,5,0.0178769,10,0.0157901,-1.23473,-0.248899,-0.237044,-539.857,0.271092,
2,1,0,1,0,9079.9,0.275342,0.275077,56.108,5,0.0181053,10,0.015434,-1.25097,-0.254797,-0.231556,-508.457,0.275077,
2,1,0,1,0,9079.91,0.279337,0.279086,54.1328,5,0.0183256,10,0.0151077,-1.26654,-0.260037,-0.226891,-481.105,0.279086,
2,1,0,1,0,9079.91,0.283332,0.283063,52.2898,5,0.0185382,10,0.0148013,-1.28158,-0.273531,-0.215698,-441.954,0.283063,
2,1,0,1,0,9079.92,0.287327,0.28699,50.598,5,0.0187438,10,0.0145211,-1.29587,-0.286358,-0.206035,-408.54,0.28699,
2,1,0,1,0,9079.92,0.291322,0.291043,49.052,5,0.0189429,10,0.0142762,-1.30934,-0.30398,-0.194092,-373.451,0.2910426,
2,1,0,1,0,9079.92,0.295318,0.295024,47.6215,5,0.0191361,10,0.0140495,-1.3222,-0.315173,-0.187199,-353.028,0.295024,
2,1,0,1,0,9079.93,0.299013,0.298754,46.43,5,0.01931,10,0.0138711,-1.3332,-0.118438,-0.498151,-886.341,0.298754,
2,1,0,0,0,9079.93,0.300012,0.299689,46.1147,5,0.0193563,10,0.0138201,-1.33616,0.00282536,20.8823,32205.8,0.2996892,
2,1,0,1,0,9079.93,0.298714,0.298665,42.2962,5,0.0194123,10,0.0126324,-1.3737,0.0298643,1.9756,2657.74,0.298665,
2,1,0,1,0,9079.93,0.294718,0.294551,32.3901,5,0.0195598,10,0.00954055,-1.48959,0.0331866,1.77783,2098.46,0.294551,
2,1,0,1,0,9079.94,0.290723,0.290603,24.7658,5,0.0196729,10,0.00719701,-1.60615,0.0320015,1.84366,1801.96,0.290603,
2,1,0,1,0,9079.94,0.286728,0.286537,18.5151,5,0.0197586,10,0.00530525,-1.73247,0.0283427,2.08167,1472.07,0.2865369,
2,1,0,1,0,9079.95,0.282733,0.282559,13.2749,5,0.0198214,10,0.00375094,-1.87697,0.0231072,2.55332,1230.42,0.282559,
2,1,0,1,0,9079.95,0.278738,0.27854,8.82067,5,0.0198649,10,0.00245691,-2.0545,0.0154213,3.82588,1050.45,0.27854,
2,1,0,1,0,9079.95,0.274742,0.274533,4.9937,5,0.019892,10,0.00137094,-2.30158,0.0156336,3.77393,900.497,0.274533,
2,1,0,1,0,9079.96,0.270747,0.270525,1.69517,5,0.019905,10,0.000458585,-2.77079,0.0428367,1.37732,779.023,0.270525,
2,0,0,1,0,9079.96,0.266702,0.266444,-1.23662,5,0.0199054,10,-0.00032949,-2.90776,-0.221772,-0.266039,680.148,0.266444,
2,0,0,1,0,9079.97,0.262707,0.26245,-3.71428,5,0.0198952,10,-0.000974812,-2.43013,-0.0241421,-2.44386,593.79,0.26245,
2,0,0,1,0,9079.97,0.258712,0.258521,-5.8969,5,0.0198757,10,-0.00152447,-2.22938,-0.0179748,-3.28236,521.558,0.258521,
2,0,0,1,0,9079.97,0.254717,0.254472,-7.83662,5,0.019848,10,-0.0019942,-2.10587,-0.0336316,-1.7543,461.711,0.254472,
2,0,0,1,0,9079.98,0.250722,0.250474,-9.56634,5,0.0198129,10,-0.00239611,-2.01925,-0.0493289,-1.19605,409.81,0.2504735,
2,0,0,1,0,9079.98,0.246726,0.246469,-11.0926,5,0.0197714,10,-0.00273398,-1.95497,-0.0657622,-0.897171,367.736,0.246469,
2,0,0,1,0,9079.99,0.242731,0.242466,-12.4762,5,0.0197241,10,-0.00302506,-1.90392,-0.0837503,-0.704475,330.315,0.242466,
2,0,0,1,0,9079.99,0.238736,0.23849,-13.7139,5,0.0196716,10,-0.00327064,-1.86284,-0.102094,-0.577898,301.164,0.23849,
2,0,0,1,0,9079.99,0.234741,0.234484,-14.848,5,0.0196143,10,-0.00348162,-1.82833,-0.121666,-0.484935,275.96,0.234484,
2,0,0,1,0,9080,0.230746,0.2305,-15.9021,5,0.0195527,10,-0.00366542,-1.79855,-0.143259,-0.411842,251.62,0.2305,
2,0,0,1,0,9080,0.226701,0.226396,-16.911,5,0.019487,10,-0.00382859,-1.77183,-0.164979,-0.357621,232.34,0.226396,
2,0,0,1,0,9080.01,0.222705,0.222366,-17.7709,5,0.0194175,10,-0.00395166,-1.75029,-0.189253,-0.311752,213.718,0.222366,
2,0,0,1,0,9080.01,0.21871,0.218396,-18.5858,5,0.0193447,10,-0.00405906,-1.73082,-0.213939,-0.27578,198.554,0.218396,
2,0,0,1,0,9080.01,0.214715,0.214405,-19.3418,5,0.0192688,10,-0.00414698,-1.7135,-0.23554,-0.250488,188.015,0.214405,
2,0,0,1,0,9080.02,0.21072,0.210457,-20.0758,5,0.0191898,10,-0.00422509,-1.69733,-0.259076,-0.227732,177.478,0.210457,
2,0,0,1,0,9080.02,0.206725,0.206401,-20.7727,5,0.0191081,10,-0.0042875,-1.68251,-0.279712,-0.210932,170.156,0.206401,
2,0,0,1,0,9080.03,0.20273,0.202431,-21.4193,5,0.0190236,10,-0.00433592,-1.66919,-0.303133,-0.194634,162.143,0.202431,
2,0,0,1,0,9080.03,0.198734,0.198444,-22.0577,5,0.0189366,10,-0.00437722,-1.65644,-0.321395,-0.183575,157.64,0.198444,
2,0,0,1,0,9080.03,0.194739,0.194466,-22.6686,5,0.0188471,10,-0.00440827,-1.64458,-0.335282,-0.175971,155.497,0.194466,
2,0,0,1,0,9080.04,0.190744,0.190484,-23.2818,5,0.0187551,10,-0.00443482,-1.63298,-0.345865,-0.170587,154.984,0.1904842,
2,0,0,1,0,9080.04,0.186735,0.18641,-23.9105,5,0.0186607,10,-0.00445715,-1.62141,-0.356461,-0.165516,154.29,0.18641,
2,0,0,1,0,9080.05,0.182704,0.182388,-24.5461,5,0.0185636,10,-0.00447691,-1.61002,-0.364585,-0.161828,154.757,0.182388,
2,0,0,1,0,9080.05,0.178709,0.178415,-25.1452,5,0.0184642,10,-0.00448627,-1.59955,-0.370332,-0.159316,156.308,0.178415,
2,0,0,1,0,9080.05,0.174713,0.17442,-25.7678,5,0.0183623,10,-0.00449443,-1.58892,-0.371123,-0.158977,160.102,0.1744201,
2,0,0,1,0,9080.06,0.170718,0.170418,-26.4101,5,0.0182579,10,-0.00450076,-1.57823,-0.363751,-0.162199,167.478,0.170418,
2,0,0,1,0,9080.06,0.166723,0.166401,-27.1056,5,0.0181508,10,-0.00451041,-1.56694,-0.355145,-0.16613,176.042,0.166401,
2,0,0,1,0,9080.07,0.162728,0.162477,-27.8144,5,0.0180409,10,-0.0045192,-1.55573,-0.339929,-0.173566,188.929,0.162477,
2,0,0,1,0,9080.07,0.158733,0.158414,-28.5855,5,0.017928,10,-0.00452836,-1.54385,-0.324847,-0.181624,203.394,0.158414,
2,0,0,1,0,9080.07,0.154737,0.154449,-29.4271,5,0.017812,10,-0.004545,-1.53125,-0.30739,-0.191938,221.36,0.154449,
2,0,0,1,0,9080.08,0.150742,0.150475,-30.3449,5,0.0176923,10,-0.00456615,-1.51791,-0.283868,-0.207843,247.561,0.150475,
2,0,0,1,0,9080.08,0.146747,0.146466,-31.3586,5,0.0175689,10,-0.00459296,-1.50364,-0.268295,-0.219907,270.676,0.146466,
2,0,0,1,0,9080.09,0.142702,0.142443,-32.5395,5,0.017441,10,-0.00463501,-1.48759,-0.253465,-0.232774,296.774,0.142443,
2,0,0,1,0,9080.09,0.138707,0.138481,-33.7494,5,0.0173083,10,-0.00467364,-1.47173,-0.238727,-0.247144,327.096,0.138481,
2,0,0,1,0,9080.09,0.134712,0.134427,-35.1076,5,0.0171705,10,-0.0047194,-1.4546,-0.228265,-0.258471,356.208,0.134427,
2,0,0,1,0,9080.1,0.130717,0.130437,-36.6017,5,0.017027,10,-0.0047742,-1.4365,-0.216904,-0.27201,390.502,0.130437,
2,0,0,1,0,9080.1,0.126721,0.126443,-38.2387,5,0.0168772,10,-0.00483501,-1.4175,-0.208292,-0.283257,424.347,0.126443,
2,0,0,1,0,9080.11,0.122726,0.122479,-39.998,5,0.0167206,10,-0.00489893,-1.39796,-0.203467,-0.289974,453.994,0.122479,
2,0,0,1,0,9080.11,0.118731,0.118507,-41.8631,5,0.0165567,10,-0.00496107,-1.37817,-0.200983,-0.293557,480.663,0.118507,
2,0,0,1,0,9080.11,0.114736,0.11447,-43.8504,5,0.0163851,10,-0.00501956,-1.35803,-0.200689,-0.293988,503.616,0.11447,
2,0,0,1,0,9080.12,0.110741,0.110494,-45.905,5,0.0162054,10,-0.00507221,-1.33814,-0.201994,-0.292088,523.572,0.110494,
2,0,0,1,0,9080.12,0.106745,0.10652,-48.0353,5,0.0160173,10,-0.00511673,-1.31844,-0.207172,-0.284787,533.288,0.10652,
2,0,0,1,0,9080.13,0.102703,0.102483,-50.2527,5,0.0158205,10,-0.00515006,-1.29884,-0.216056,-0.273077,533.42,0.1024832,
2,0,0,1,0,9080.13,0.0987052,0.0985035,-52.3652,5,0.0156151,10,-0.00515815,-1.28096,-0.227299,-0.25957,528.355,0.0985035,
2,0,0,1,0,9080.13,0.09471,0.0944909,-54.4411,5,0.0154012,10,-0.00514419,-1.26407,-0.243835,-0.241967,512.211,0.0944909,
2,0,0,1,0,9080.14,0.0907148,0.0904868,-56.5066,5,0.0151792,10,-0.0051131,-1.2479,-0.261552,-0.225577,494.845,0.0904868,
2,0,0,1,0,9080.14,0.0867197,0.0865082,-58.4353,5,0.014949,10,-0.00505513,-1.23332,-0.278067,-0.212179,481.941,0.0865082,
2,0,0,1,0,9080.15,0.0827245,0.0825942,-60.2378,5,0.0147115,10,-0.00497529,-1.22013,-0.299834,-0.196776,461.545,0.0825942,
2,0,0,1,0,9080.15,0.0787293,0.0785382,-62.1294,5,0.0144666,10,-0.00487953,-1.2067,-0.322342,-0.183035,442.196,0.0785382,
2,0,0,1,0,9080.15,0.0747341,0.0745892,-63.8441,5,0.0142145,10,-0.00476208,-1.19488,-0.346974,-0.170041,421.818,0.0745892,
2,0,0,1,0,9080.16,0.070739,0.0705172,-65.5064,5,0.0139556,10,-0.00461933,-1.18372,-0.382386,-0.154294,392.651,0.0705172,
2,0,0,1,0,9080.16,0.0667438,0.0665418,-67.009,5,0.0136904,10,-0.0044589,-1.17387,-0.420079,-0.14045,365.798,0.0665418,
2,0,0,1,0,9080.17,0.0627403,0.0626087,-68.3841,5,0.0134194,10,-0.00428144,-1.16504,-0.467143,-0.1263,335.946,0.0626087,
2,0,0,1,0,9080.17,0.0587035,0.0585453,-69.7129,5,0.013143,10,-0.00408136,-1.15669,-0.521302,-0.113178,306.748,0.0585453,
2,0,0,1,0,9080.17,0.0547083,0.0545337,-70.876,5,0.0128616,10,-0.00386514,-1.1495,-0.591944,-0.0996715,274.556,0.0545337,
2,0,0,1,0,9080.18,0.0507132,0.0504533,-71.9441,5,0.0125758,10,-0.00362982,-1.143,-0.692549,-0.0851926,238.086,0.0504533,
2,0,0,1,0,9080.18,0.046718,0.0464259,-72.8272,5,0.0122862,10,-0.00338107,-1.13771,-0.826353,-0.071398,201.991,0.0464259,
2,0,0,1,0,9080.19,0.0427228,0.0424737,-73.5393,5,0.0119933,10,-0.00312349,-1.13348,-1.02507,-0.0575569,164.542,0.0424737,
2,0,0,1,0,9080.19,0.0387276,0.0384272,-74.1294,5,0.0116979,10,-0.00284859,-1.13001,-1.30087,-0.0453541,130.743,0.03842723,
2,0,0,1,0,9080.19,0.0347325,0.0344687,-74.5742,5,0.0114004,10,-0.00257048,-1.12741,-1.7062,-0.0345798,100.326,0.0344687,
2,0,0,1,0,9080.2,0.0307373,0.0304805,-74.912,5,0.0111014,10,-0.00228336,-1.12545,-2.38263,-0.0247626,72.1955,0.0304805,
2,0,0,1,0,9080.2,0.0267421,0.0264383,-75.1481,5,0.0108012,10,-0.00198679,-1.12408,-3.27742,-0.0180019,52.689,0.0264383,
2,0,0,1,0,9080.21,0.022747,0.0224363,-75.2839,5,0.0105003,10,-0.00168909,-1.1233,-5.51805,-0.0106922,31.3643,0.0224363,
2,0,0,1,0,9080.21,0.0187018,0.0184364,-75.419,5,0.0101988,10,-0.00139046,-1.12252,-12.9244,-0.00456502,13.4074,0.0184364,
2,0,0,1,0,9080.21,0.0147067,0.0144366,-75.4152,5,0.00989716,10,-0.00108874,-1.12254,164.166,0.000359392,-1.05581,0.0144366,
2,0,0,1,0,9080.22,0.0107115,0.0104198,-75.3628,5,0.00959559,10,-0.000785264,-1.12284,9.29101,0.00635022,-18.6541,0.0104198,
2,0,0,1,0,9080.22,0.00671632,0.00640614,-75.267,5,0.00929433,10,-0.00048217,-1.1234,6.20091,0.00951473,-27.9207,0.00640614,
2,0,0,1,0,9080.23,0.00272115,0.00246036,-75.1209,5,0.00899357,10,-0.000184825,-1.12424,4.40462,0.013395,-39.2326,0.00246036,
2,0,0,1,0,9080.23,-0.00127403,-0.00161054,-74.9671,5,0.00869332,10,0.000120737,-1.12513,3.46218,0.0170413,-49.7925,-0.00161054,
2,0,0,1,0,9080.23,-0.0052692,-0.00560191,-74.7343,5,0.00839393,10,0.000418655,-1.12648,2.87964,0.0204887,-59.6832,-0.00560191,
2,0,0,1,0,9080.24,-0.00926438,-0.00957949,-74.471,5,0.00809552,10,0.000713394,-1.12801,2.31579,0.0254772,-73.951,-0.00957949,
2,0,0,1,0,9080.24,-0.0132596,-0.0136059,-74.1621,5,0.00779827,10,0.00100904,-1.12982,2.06125,0.0286235,-82.7415,-0.01360586,
2,0,0,1,0,9080.25,-0.0172547,-0.017575,-73.7865,5,0.00750239,10,0.0012968,-1.13202,1.77853,0.0331735,-95.4213,-0.017575,
2,0,0,1,0,9080.25,-0.0212915,-0.021631,-73.408,5,0.00720809,10,0.00158789,-1.13426,1.52823,0.0386067,-110.404,-0.021631,
2,0,0,1,0,9080.25,-0.025295,-0.0256022,-72.9421,5,0.00691541,10,0.00186748,-1.13702,1.35957,0.0433962,-123.282,-0.0256022,
2,0,0,1,0,9080.26,-0.0292902,-0.0295989,-72.3964,5,0.00662477,10,0.00214285,-1.14028,1.18526,0.0497781,-140.416,-0.0295989,
2,0,0,1,0,9080.26,-0.0332854,-0.033638,-71.8063,5,0.00633639,10,0.00241542,-1.14384,1.05894,0.0557159,-155.876,-0.033638,
2,0,0,1,0,9080.27,-0.0372805,-0.0376251,-71.1622,5,0.00605051,10,0.00267749,-1.14775,0.979384,0.0602419,-167.041,-0.0376251,
2,0,0,1,0,9080.27,-0.0412757,-0.0416197,-70.4453,5,0.00576737,10,0.00293191,-1.15215,0.914508,0.0645156,-177.21,-0.0416197,
2,0,0,1,0,9080.27,-0.0452709,-0.045627,-69.719,5,0.00548711,10,0.00318107,-1.15665,0.870156,0.0678039,-184.386,-0.045627,
2,0,0,1,0,9080.28,-0.0492661,-0.0496067,-68.9765,5,0.0052098,10,0.00342169,-1.1613,0.856163,0.0689121,-185.441,-0.0496067,
2,0,0,1,0,9080.28,-0.0532612,-0.0535885,-68.2188,5,0.00493547,10,0.00365574,-1.1661,0.843298,0.0699634,-186.277,-0.0535885,
2,0,0,1,0,9080.29,-0.0572564,-0.0576096,-67.4801,5,0.00466414,10,0.0038875,-1.17082,0.870176,0.0678024,-178.71,-0.0576096,
2,0,0,1,0,9080.29,-0.0612544,-0.061584,-66.7466,5,0.00439579,10,0.00411052,-1.17557,0.900583,0.0655131,-170.893,-0.061584,
2,0,0,1,0,9080.29,-0.0652967,-0.065605,-66.1174,5,0.00413002,10,0.00433763,-1.17968,0.939021,0.0628314,-162.266,-0.065605,
2,0,0,1,0,9080.3,-0.0692919,-0.0696197,-65.4791,5,0.0038669,10,0.00455864,-1.1839,1.01276,0.0582567,-149.016,-0.0696197,
2,0,0,1,0,9080.3,-0.0732871,-0.0736058,-64.8845,5,0.00360625,10,0.00477588,-1.18786,1.06231,0.0555391,-140.857,-0.0736058,
2,0,0,1,0,9080.31,-0.0772822,-0.077646,-64.3531,5,0.00334784,10,0.00499676,-1.19143,1.16614,0.0505941,-127.268,-0.077646,
2,0,0,1,0,9080.31,-0.0812774,-0.0815875,-63.8661,5,0.00309147,10,0.00521068,-1.19473,1.33391,0.044231,-110.47,-0.0815875,
2,0,0,1,0,9080.31,-0.0852726,-0.0856298,-63.4416,5,0.0028369,10,0.00543249,-1.19763,1.52693,0.0386397,-95.8835,-0.0856298,
2,0,0,1,0,9080.32,-0.0892678,-0.0896201,-63.1154,5,0.00258382,10,0.00565641,-1.19986,1.80777,0.0326369,-80.5231,-0.0896201,
2,0,0,1,0,9080.32,-0.0932629,-0.0936284,-62.8206,5,0.00233201,10,0.0058818,-1.2019,2.21614,0.0266228,-65.3729,-0.0936284,
2,0,0,1,0,9080.33,-0.0972581,-0.0976049,-62.5764,5,0.00208123,10,0.00610776,-1.20359,2.95693,0.0199531,-48.8431,-0.09760493,
2,0,0,1,0,9080.33,-0.101253,-0.101581,-62.3988,5,0.00183132,10,0.00633856,-1.20482,4.00672,0.0147253,-35.9363,-0.101581,
2,0,0,1,0,9080.33,-0.105298,-0.105643,-62.3328,5,0.00158188,10,0.00658502,-1.20528,6.22362,0.00948002,-23.0832,-0.105643,
2,0,0,1,0,9080.34,-0.109294,-0.109632,-62.2455,5,0.00133273,10,0.00682411,-1.20589,12.1022,0.00487514,-11.854,-0.109632,
2,0,0,1,0,9080.34,-0.113289,-0.113632,-62.2064,5,0.00108386,10,0.00706864,-1.20616,27.7021,0.0021298,-5.17763,-0.113632,
2,0,0,1,0,9080.35,-0.117284,-0.117613,-62.2087,5,0.000835005,10,0.00731654,-1.20615,-30.8296,-0.00191374,4.65173,-0.1176127,
2,0,0,1,0,9080.35,-0.121279,-0.121613,-62.2501,5,0.000586087,10,0.0075704,-1.20586,-9.4668,-0.00623231,15.1598,-0.121613,
2,0,0,1,0,9080.35,-0.125274,-0.1256,-62.3198,5,0.000336958,10,0.00782735,-1.20537,-5.88651,-0.0100229,24.41,-0.1256,
2,0,0,1,0,9080.36,-0.129269,-0.129638,-62.4491,5,8.74053e-05,10,0.00809575,-1.20447,-4.40537,-0.0133927,32.6732,-0.1296377,
2,0,0,1,0,9080.36,-0.133265,-0.133607,-62.5991,5,-0.000162675,10,0.00836367,-1.20343,-3.55582,-0.0165925,40.5655,-0.133607,
2,0,0,1,0,9080.37,-0.13726,-0.13762,-62.7732,5,-0.000413427,10,0.00863887,-1.20223,-2.88959,-0.0204181,50.0806,-0.13762,
2,0,0,1,0,9080.37,-0.141255,-0.141619,-62.9697,5,-0.000664943,10,0.00891772,-1.20087,-2.56819,-0.0229734,56.5302,-0.141619,
2,0,0,1,0,9080.37,-0.145286,-0.145597,-63.2483,5,-0.000917346,10,0.00920875,-1.19895,-2.32307,-0.0253975,62.717,-0.145597,
2,0,0,1,0,9080.38,-0.149295,-0.149629,-63.5048,5,-0.0011709,10,0.00950214,-1.19719,-2.16681,-0.0272289,67.4868,-0.149629,
2,0,0,1,0,9080.38,-0.15329,-0.153663,-63.7793,5,-0.00142549,10,0.00980054,-1.19532,-2.16559,-0.0272444,67.8253,-0.153663,
2,0,0,1,0,9080.39,-0.157286,-0.157603,-64.0483,5,-0.00168117,10,0.0100942,-1.19349,-2.05559,-0.0287022,71.7742,-0.157603,
2,0,0,1,0,9080.39,-0.161281,-0.161609,-64.3343,5,-0.00193796,10,0.010397,-1.19156,-1.96985,-0.0299515,75.2504,-0.161609,
2,0,0,1,0,9080.39,-0.165276,-0.165569,-64.6489,5,-0.00219596,10,0.0107038,-1.18944,-1.87932,-0.0313944,79.2446,-0.165569,
2,0,0,1,0,9080.4,-0.169271,-0.169579,-64.977,5,-0.00245524,10,0.0110187,-1.18724,-1.80362,-0.032712,82.9748,-0.169579,
2,0,0,1,0,9080.4,-0.173266,-0.173534,-65.3108,5,-0.00271585,10,0.0113337,-1.18501,-1.77337,-0.03327,84.8181,-0.173534,
2,0,0,1,0,9080.41,-0.177261,-0.177573,-65.659,5,-0.00297783,10,0.0116593,-1.18271,-1.73491,-0.0340076,87.1593,-0.177573,
2,0,0,1,0,9080.41,-0.181257,-0.181539,-66.0035,5,-0.00324119,10,0.0119822,-1.18043,-1.61372,-0.0365615,94.2652,-0.181539,
2,0,0,1,0,9080.41,-0.185252,-0.185565,-66.3703,5,-0.00350597,10,0.012316,-1.17803,-1.58666,-0.0371851,96.4027,-0.185565,
2,0,0,1,0,9080.42,-0.189297,-0.189573,-66.8227,5,-0.00377247,10,0.0126678,-1.17508,-1.5345,-0.0384489,100.244,-0.189573,
2,0,0,1,0,9080.42,-0.193292,-0.193607,-67.2046,5,-0.00404057,10,0.0130113,-1.1726,-1.50253,-0.039267,102.868,-0.193607,
2,0,0,1,0,9080.43,-0.197287,-0.197594,-67.6129,5,-0.00431026,10,0.0133599,-1.16997,-2.31223,-0.0255165,66.9085,-0.197594,
2,0,0,0,0,9080.43,-0.199984,-0.200303,-67.8864,5,-0.00449317,10,0.0135979,-1.16822,0.0617922,0.954814,-2344.74,-0.200303,
2,0,0,0,1,9080.43,-0.199984,-0.200532,-67.556,5,-0.00453375,10,0.0135472,-1.17034,-0.0351944,-1.6764,3840.04,-0.200532,
2,0,0,1,1,9080.43,-0.196688,-0.197179,-58.828,5,-0.00472637,10,0.0115997,-1.23042,-0.0580663,-1.01608,2176.06,-0.197179,
2,0,0,1,1,9080.44,-0.192693,-0.193162,-50.596,5,-0.00494392,10,0.00977324,-1.29588,-0.0604279,-0.97637,1945.44,-0.193162,
2,0,0,1,1,9080.44,-0.188698,-0.189163,-43.6439,5,-0.00513144,10,0.00825579,-1.36008,-0.0609763,-0.967589,1664.36,-0.1891626,
2,0,0,1,1,9080.44,-0.184653,-0.185077,-37.4885,5,-0.00529292,10,0.00693826,-1.4261,-0.059189,-0.996807,1463.15,-0.185077,
2,0,0,1,1,9080.45,-0.180657,-0.181074,-32.0227,5,-0.00543126,10,0.00579847,-1.49454,-0.0558938,-1.05557,1314.82,-0.181074,
2,0,0,1,1,9080.45,-0.176662,-0.177079,-27.0639,5,-0.00554883,10,0.00479245,-1.56761,-0.0511377,-1.15375,1203.95,-0.177079,
2,0,0,1,1,9080.46,-0.172667,-0.173086,-22.5056,5,-0.0056474,10,0.0038954,-1.64771,-0.045988,-1.28294,1102.22,-0.173086,
2,0,0,1,1,9080.46,-0.168672,-0.169115,-18.2707,5,-0.00572845,10,0.00308984,-1.73825,-0.0392871,-1.50177,1031.31,-0.169115,
2,0,0,1,1,9080.46,-0.164677,-0.165036,-14.3458,5,-0.00579323,10,0.00236757,-1.84328,-0.0321799,-1.83344,960.184,-0.165036,
2,0,0,1,1,9080.47,-0.160682,-0.161159,-10.6456,5,-0.00584276,10,0.00171564,-1.97283,-0.024004,-2.45792,895.305,-0.161159,
2,0,0,1,1,9080.47,-0.156686,-0.157131,-7.18603,5,-0.00587802,10,0.00112915,-2.14351,-0.0129531,-4.55489,848.174,-0.157131,
2,0,0,1,1,9080.48,-0.152691,-0.153098,-3.93113,5,-0.00589986,10,0.000601849,-2.40548,-0.0227612,-2.59213,796.106,-0.153098,
2,0,0,1,1,9080.48,-0.148696,-0.149122,-0.847403,5,-0.00590906,10,0.000126366,-3.07191,-0.0965189,-0.611279,756.124,-0.149122,
2,1,0,1,1,9080.48,-0.14467,-0.145142,2.10598,5,-0.00590626,10,-0.000305665,-2.67655,0.0563873,1.04633,718.589,-0.145142,
2,1,0,1,1,9080.49,-0.140656,-0.141138,4.90671,5,-0.00589187,10,-0.000692522,-2.30921,0.0148902,3.96233,680.958,-0.141138,
2,1,0,1,1,9080.49,-0.136661,-0.137124,7.54758,5,-0.00586666,10,-0.00103496,-2.12219,0.0207436,2.84425,645.183,-0.1371242,
2,1,0,1,1,9080.5,-0.132665,-0.133136,10.0381,5,-0.00583121,10,-0.00133644,-1.99835,0.033442,1.76425,615.671,-0.133136,
2,1,0,1,1,9080.5,-0.12867,-0.129155,12.4203,5,-0.00578603,10,-0.00160415,-1.90587,0.0453686,1.30046,590.02,-0.129155,
2,1,0,1,1,9080.5,-0.124675,-0.125156,14.746,5,-0.00573146,10,-0.00184555,-1.83133,0.057451,1.02696,564.322,-0.125156,
2,1,0,1,1,9080.51,-0.12068,-0.121172,16.9594,5,-0.00566779,10,-0.00205501,-1.77059,0.0695936,0.847779,541.963,-0.121172,
2,1,0,1,1,9080.51,-0.116685,-0.117106,19.0843,5,-0.00559546,10,-0.00223488,-1.71932,0.0827217,0.713234,517.491,-0.117106,
2,1,0,1,1,9080.52,-0.112689,-0.113132,21.1041,5,-0.00551487,10,-0.00238756,-1.67563,0.0963431,0.612395,494.248,-0.113132,
2,1,0,1,1,9080.52,-0.108694,-0.109104,23.053,5,-0.00542632,10,-0.00251517,-1.63727,0.109475,0.538936,477.45,-0.109104,
2,1,0,1,1,9080.52,-0.104699,-0.105089,24.9085,5,-0.00533019,10,-0.00261762,-1.60365,0.124014,0.475754,456.531,-0.105089,
2,1,0,1,1,9080.53,-0.100654,-0.101059,26.746,5,-0.00522661,10,-0.00270292,-1.57274,0.139371,0.423331,436.149,-0.101059,
2,1,0,1,1,9080.53,-0.0966588,-0.0970726,28.4359,5,-0.00511605,10,-0.00276035,-1.54613,0.154952,0.380764,418.003,-0.0970726,
2,1,0,1,1,9080.54,-0.0926637,-0.0930505,30.0547,5,-0.0049989,10,-0.0027966,-1.52209,0.172333,0.342361,398.426,-0.0930505,
2,1,0,1,1,9080.54,-0.0886685,-0.0890411,31.6167,5,-0.00487538,10,-0.00281518,-1.50008,0.188788,0.31252,383.003,-0.0890411,
2,1,0,1,1,9080.54,-0.0846733,-0.0850614,33.1198,5,-0.00474573,10,-0.00281721,-1.47991,0.205837,0.286635,368.153,-0.0850614,
2,1,0,1,1,9080.55,-0.0806781,-0.0810615,34.5682,5,-0.0046102,10,-0.00280215,-1.46132,0.223062,0.2645,354.823,-0.0810615,
2,1,0,1,1,9080.55,-0.076683,-0.0770596,35.9418,5,-0.004469,10,-0.00276966,-1.4444,0.242485,0.243314,339.622,-0.0770596,
2,1,0,1,1,9080.56,-0.0726878,-0.0730639,37.2857,5,-0.00432238,10,-0.00272424,-1.42846,0.261587,0.225547,326.662,-0.07306394,
2,1,0,1,1,9080.56,-0.0686926,-0.0690768,38.5485,5,-0.00417058,10,-0.00266281,-1.41399,0.277834,0.212357,318.505,-0.0690768,
2,1,0,1,1,9080.56,-0.0646974,-0.0651226,39.7749,5,-0.00401378,10,-0.00259024,-1.40039,0.301674,0.195575,302.723,-0.0651226,
2,1,0,1,1,9080.57,-0.0606523,-0.0610739,41.0333,5,-0.00385208,10,-0.00250607,-1.38686,0.324342,0.181907,289.842,-0.0610739,
2,1,0,1,1,9080.57,-0.0566571,-0.0570423,42.1359,5,-0.00368562,10,-0.00240353,-1.37535,0.349774,0.16868,276.206,-0.0570423,
2,1,0,1,1,9080.58,-0.052662,-0.0530498,43.1938,5,-0.00351484,10,-0.00229142,-1.36458,0.382838,0.154112,259.07,-0.0530498,
2,1,0,1,1,9080.58,-0.0486668,-0.0490372,44.2177,5,-0.00333991,10,-0.00216831,-1.3544,0.40584,0.145378,250.239,-0.0490372,
2,1,0,1,1,9080.58,-0.0446716,-0.0450628,45.1813,5,-0.00316098,10,-0.002036,-1.34504,0.436246,0.135245,237.901,-0.0450628,
2,1,0,1,1,9080.59,-0.0406764,-0.0410577,46.1358,5,-0.00297823,10,-0.00189423,-1.33596,0.466512,0.126471,227.088,-0.04105768,
2,1,0,1,1,9080.59,-0.0366813,-0.0370303,47.0048,5,-0.00279185,10,-0.0017406,-1.32786,0.498839,0.118275,216.445,-0.03703025,
2,1,0,1,1,9080.6,-0.0326861,-0.0330527,47.8476,5,-0.00260203,10,-0.00158149,-1.32014,0.54122,0.109013,203.11,-0.0330527,
2,1,0,1,1,9080.6,-0.0286909,-0.0290645,48.6441,5,-0.00240895,10,-0.00141381,-1.31297,0.569994,0.10351,196.149,-0.0290645,
2,1,0,1,1,9080.6,-0.0246957,-0.0250731,49.3825,5,-0.00221282,10,-0.00123817,-1.30643,0.611793,0.0964379,185.625,-0.0250731,
2,1,0,1,1,9080.61,-0.0206756,-0.0210457,50.1402,5,-0.00201371,10,-0.00105523,-1.29981,0.666896,0.0884696,172.689,-0.0210457,
2,1,0,1,1,9080.61,-0.0166554,-0.0170257,50.8226,5,-0.00181167,10,-0.000865289,-1.29394,0.715462,0.0824642,163.101,-0.0170257,
2,1,0,1,1,9080.62,-0.0126603,-0.0130301,51.413,5,-0.0016071,10,-0.000669915,-1.28893,0.792685,0.0744306,149.08,-0.01303006,
2,1,0,1,1,9080.62,-0.0086651,-0.00903763,51.9979,5,-0.00140021,10,-0.000469937,-1.28401,0.865573,0.0681629,138.056,-0.00903763,
2,1,0,1,1,9080.62,-0.00466992,-0.0050664,52.5224,5,-0.00119111,10,-0.0002661,-1.27966, , , ,-0.0050664,
2,1,0,1,1,9080.63,-0.000974387,-0.00134968,52.9868,5,-0.000995886,10,-7.1515e-05,-1.27583, , , ,-0.00134968,
2,1,0,0,1,9080.63,-0.000175352,-0.000649808,53.071,5,-0.000953472,10,-3.44859e-05,-1.27514, , , ,-0.000649808,