File: Figure_codes/Fig_3-5/rawdata_trumpetplot_data/after 10th/20221101_1-115_003_TrumpetPlot_ParaChange_from10_every3_02_CV_C01_4.csv
mode,ox/red,error,control changes,counter inc.,time/s,control/V,Ewe/V,<I>/mA,cycle number,(Q-Qo)/C,I Range,P/W,log(|I|),Tafel slope mV/dec,alpha_eff,dI/d(E-IR),E-IR/V,
2,0,0,1,0,8220.55,2.44065e-05,-0.00042076,-0.347446,5,0.0000000E+000,10,1.46192e-07,-3.45911, , , ,-0.00042076,
2,0,0,1,0,8221.83,0.00129791,0.000968367,-0.170866,5,-0.000240514,10,-1.65461e-07,-3.76734, , , ,0.000968367,
2,0,0,1,0,8223.32,0.00279612,0.00247845,-0.137546,5,-0.000443653,10,-3.409e-07,-3.86155,-0.0179578,-3.28548,19.0767,0.00247845,
2,0,0,1,0,8224.82,0.00429431,0.00400333,-0.11881,5,-0.000611255,10,-4.75634e-07,-3.92515,-0.0252821,-2.33366,10.9854,0.00400333,
2,0,0,1,0,8226.32,0.00579242,0.00553125,-0.104729,5,-0.000754774,10,-5.79284e-07,-3.97993,-0.0290586,-2.03038,8.42605,0.00553125,
2,0,0,1,0,8227.82,0.00729061,0.00701799,-0.0934875,5,-0.000879256,10,-6.56094e-07,-4.02925,-0.0323902,-1.82154,6.75372,0.00701799,
2,0,0,1,0,8229.32,0.00878882,0.00851424,-0.08401,5,-0.000989233,10,-7.15282e-07,-4.07567,-0.0345735,-1.70651,5.68424,0.00851424,
2,0,0,1,0,8230.81,0.010287,0.00997228,-0.0770432,5,-0.00108674,10,-7.68296e-07,-4.11327,-0.0369896,-1.59504,4.8467,0.00997228,
2,0,0,1,0,8232.31,0.0117852,0.011441,-0.0702918,5,-0.00117357,10,-8.0421e-07,-4.1531,-0.0384328,-1.53515,4.22957,0.011441,
2,0,0,1,0,8233.81,0.0132834,0.0129627,-0.0645211,5,-0.00125156,10,-8.36366e-07,-4.1903,-0.0401582,-1.46919,3.68193,0.0129627,
2,0,0,1,0,8235.31,0.0147815,0.014462,-0.0588347,5,-0.00132112,10,-8.50869e-07,-4.23037,-0.0398158,-1.48182,3.39995,0.014462,
2,0,0,1,0,8236.81,0.0162797,0.0159656,-0.0542214,5,-0.00138294,10,-8.65676e-07,-4.26583,-0.046049,-1.28124,2.74034,0.01596559,
2,0,0,1,0,8238.31,0.0177779,0.0174428,-0.0496311,5,-0.00143797,10,-8.65707e-07,-4.30425,-0.0432302,-1.36479,2.67528,0.0174428,
2,0,0,1,0,8239.8,0.0192761,0.0189497,-0.0459073,5,-0.00148764,10,-8.69928e-07,-4.33812,-0.0418943,-1.40831,2.5283,0.0189497,
2,0,0,1,0,8241.3,0.0207743,0.0204788,-0.0421816,5,-0.00153114,10,-8.63826e-07,-4.37488,-0.0405123,-1.45635,2.40923,0.0204788,
2,0,0,1,0,8242.8,0.0222725,0.0219633,-0.0385487,5,-0.00156886,10,-8.46657e-07,-4.41399,-0.0401739,-1.46861,2.23537,0.0219633,
2,0,0,1,0,8244.3,0.0237707,0.0234638,-0.0347136,5,-0.00160163,10,-8.14513e-07,-4.4595,-0.0419651,-1.40593,1.96118,0.0234638,
2,0,0,1,0,8245.8,0.0252689,0.0249484,-0.0328929,5,-0.0016305,10,-8.20626e-07,-4.4829,-0.0371195,-1.58946,1.9952,0.0249484,
2,0,0,1,0,8247.29,0.0267671,0.026468,-0.0297917,5,-0.00165446,10,-7.88528e-07,-4.5259,-0.0325463,-1.8128,2.12822,0.026468,
2,0,0,1,0,8248.79,0.0282653,0.0279547,-0.0269664,5,-0.00167383,10,-7.53838e-07,-4.56918,-0.0346152,-1.70445,1.76765,0.0279547,
2,0,0,1,0,8250.29,0.0297635,0.0294637,-0.0240542,5,-0.00168896,10,-7.08723e-07,-4.61881,-0.0282543,-2.08818,1.94538,0.0294637,
2,0,0,1,0,8251.79,0.0312617,0.0309504,-0.0217371,5,-0.00169987,10,-6.72772e-07,-4.6628,-0.0262956,-2.24372,1.84727,0.0309504,
2,0,0,1,0,8253.29,0.0327599,0.032454,-0.0179401,5,-0.00170621,10,-5.82227e-07,-4.74618,-0.0217681,-2.71038,1.92105,0.032454,
2,0,0,1,0,8254.79,0.0342581,0.0339047,-0.0159892,5,-0.00170846,10,-5.4211e-07,-4.79617,-0.0203625,-2.89749,1.72692,0.0339047,
2,0,0,1,0,8256.28,0.0357563,0.0354306,-0.0130422,5,-0.00170655,10,-4.62091e-07,-4.88465,-0.0171153,-3.44721,1.70192,0.0354306,
2,0,0,1,0,8257.78,0.0372544,0.0369394,-0.0107237,5,-0.00170069,10,-3.96127e-07,-4.96966,-0.0141433,-4.17159,1.68402,0.0369394,
2,0,0,1,0,8259.28,0.0387526,0.0384653,-0.00796029,5,-0.0016912,10,-3.06195e-07,-5.09907,-0.0109444,-5.39086,1.548,0.0384653,
2,0,0,1,0,8260.78,0.0402508,0.0399468,-0.00576679,5,-0.00167756,10,-2.30365e-07,-5.23907,-0.00757223,-7.79163,1.60522,0.0399468,
2,0,0,1,0,8262.28,0.041749,0.0414356,-0.00367578,5,-0.00166073,10,-1.52308e-07,-5.43465,-0.00544838,-10.8289,1.26561,0.0414356,
2,0,0,1,0,8263.77,0.0432472,0.0429149,-0.00129327,5,-0.00164059,10,-5.55006e-08,-5.88831,-0.00833064,-7.08229,1.5624,0.0429149,
2,0,0,1,0,8265.27,0.0447454,0.0444281,0.000519121,5,-0.00161753,10,2.30636e-08,-6.28473,0.0161747,3.64768,1.48112,0.0444281,
2,0,0,1,0,8266.77,0.0462435,0.0459508,0.00356093,5,-0.00159046,10,1.63627e-07,-5.44844,0.00268105,22.0063,1.39913,0.0459508,
2,0,0,1,0,8268.27,0.0477417,0.0474184,0.0060852,5,-0.00155973,10,2.8855e-07,-5.21572,0.00745268,7.91662,1.37749,0.0474184,
2,1,0,1,0,8269.77,0.0492399,0.0489348,0.00731605,5,-0.00152621,10,3.58009e-07,-5.13572,0.0123231,4.78775,1.44635,0.0489348,
2,1,0,1,0,8271.27,0.0507381,0.050431,0.00909021,5,-0.00148993,10,4.58428e-07,-5.04143,0.0142714,4.13414,1.48685,0.050431,
2,1,0,1,0,8272.76,0.0522363,0.0519326,0.0117394,5,-0.00144971,10,6.09657e-07,-4.93035,0.0192246,3.06899,1.33809,0.0519326,
2,1,0,1,0,8274.26,0.0537345,0.0534065,0.0136168,5,-0.00140644,10,7.27226e-07,-4.86592,0.0256596,2.29933,1.20207,0.0534065,
2,1,0,1,0,8275.76,0.0552327,0.0548985,0.0153405,5,-0.00136061,10,8.42168e-07,-4.81416,0.0314879,1.87373,1.11656,0.05489853,
2,1,0,1,0,8277.26,0.0567309,0.0564308,0.0170012,5,-0.00131204,10,9.59394e-07,-4.76952,0.0275814,2.13912,1.42599,0.0564308,
2,1,0,1,0,8278.76,0.0582291,0.0579334,0.0199327,5,-0.0012605,10,1.15477e-06,-4.70043,0.0339548,1.73761,1.28564,0.0579334,
2,1,0,1,0,8280.25,0.0597273,0.0594011,0.0212503,5,-0.00120576,10,1.26229e-06,-4.67264,0.043617,1.35268,1.11075,0.0594011,
2,1,0,1,0,8281.75,0.0612255,0.0609429,0.0230837,5,-0.00114827,10,1.40679e-06,-4.63669,0.0563637,1.04677,0.932705,0.0609429,
2,1,0,1,0,8283.25,0.0627237,0.0624391,0.024726,5,-0.00108791,10,1.54387e-06,-4.60685,0.0451264,1.30744,1.27529,0.0624391,
2,1,0,1,0,8284.75,0.0642219,0.0639396,0.027035,5,-0.0010253,10,1.7286e-06,-4.56807,0.0458513,1.28677,1.35368,0.0639396,
2,1,0,1,0,8286.25,0.0657201,0.065421,0.0286879,5,-0.000959509,10,1.87679e-06,-4.5423,0.0669987,0.880614,0.969198,0.065421,
2,1,0,1,0,8287.75,0.0672183,0.0669278,0.0305132,5,-0.000890666,10,2.04218e-06,-4.51551,0.0784409,0.752159,0.87586,0.06692782,
2,1,0,1,0,8289.24,0.0687164,0.0684144,0.0320434,5,-0.00082009,10,2.19223e-06,-4.49426,0.0733239,0.804649,0.999713,0.0684144,
2,1,0,1,0,8290.74,0.0702146,0.0698979,0.0332096,5,-0.000747753,10,2.32128e-06,-4.47874,0.0612254,0.963653,1.2414,0.0698979,
2,1,0,1,0,8292.24,0.0717128,0.0713518,0.0345276,5,-0.000672446,10,2.4636e-06,-4.46183,0.0605825,0.973879,1.30078,0.0713518,
2,1,0,1,0,8293.74,0.073211,0.0729296,0.036098,5,-0.000594613,10,2.63261e-06,-4.44252,0.0770272,0.765963,1.08468,0.0729296,
2,1,0,1,0,8295.24,0.0747092,0.0743676,0.0376026,5,-0.000514436,10,2.79641e-06,-4.42478,0.0886095,0.665843,0.994272,0.0743676,
2,1,0,1,0,8296.73,0.0762074,0.0758787,0.0388607,5,-0.000432453,10,2.9487e-06,-4.41049,0.0768453,0.767776,1.18244,0.0758787,
2,1,0,1,0,8298.23,0.0777055,0.0773621,0.0410978,5,-0.000347786,10,3.17941e-06,-4.38618,0.0740786,0.796451,1.2589,0.07736209,
2,1,0,1,0,8299.73,0.0792037,0.0788923,0.0432066,5,-0.000260411,10,3.40867e-06,-4.36445,0.0988972,0.596579,0.980795,0.0788923,
2,1,0,1,0,8301.23,0.0807019,0.0803895,0.0435063,5,-0.000171046,10,3.49745e-06,-4.36145,0.111175,0.530695,0.906161,0.0803895,
2,1,0,1,0,8302.73,0.0822001,0.0819102,0.0451426,5,-7.96839e-05,10,3.69764e-06,-4.34541,0.11569,0.509984,0.901289,0.0819102,
2,1,0,1,0,8304.23,0.0836983,0.0833832,0.0466313,5,1.37102e-05,10,3.88827e-06,-4.33132,0.0977864,0.603356,1.11387,0.0833832,
2,1,0,1,0,8305.72,0.0851965,0.0848677,0.0483829,5,0.000109706,10,4.10615e-06,-4.31531,0.0894145,0.659848,1.25477,0.0848677,
2,1,0,1,0,8307.22,0.0866947,0.0864212,0.0503378,5,0.000208855,10,4.35025e-06,-4.29811,0.0947243,0.62286,1.22242,0.0864212,
2,1,0,1,0,8308.72,0.0881929,0.0878581,0.0520891,5,0.000310547,10,4.57645e-06,-4.28325,0.0961338,0.613728,1.25867,0.0878581,
2,1,0,1,0,8310.22,0.0896911,0.0894042,0.0544296,5,0.000414688,10,4.86623e-06,-4.26417,0.0927005,0.636458,1.35881,0.0894042,
2,1,0,1,0,8311.72,0.0911893,0.0908464,0.0566849,5,0.000522198,10,5.14962e-06,-4.24653,0.0853466,0.691299,1.5177,0.0908464,
2,1,0,1,0,8313.21,0.0926875,0.0924072,0.0588153,5,0.000633793,10,5.43496e-06,-4.23051,0.0913533,0.645845,1.46982,0.0924072,
2,1,0,1,0,8314.71,0.0941857,0.0938695,0.0611099,5,0.000748212,10,5.73636e-06,-4.21389,0.0917983,0.642713,1.52577,0.0938695,
2,1,0,1,0,8316.21,0.0956839,0.0953647,0.0632263,5,0.000865619,10,6.02955e-06,-4.1991,0.0889906,0.662991,1.6256,0.09536472,
2,1,0,1,0,8317.71,0.0971821,0.0968313,0.0657941,5,0.000987442,10,6.37093e-06,-4.18181,0.0735808,0.801839,2.05349,0.0968313,
2,1,0,1,0,8319.21,0.0986803,0.0983912,0.0681073,5,0.00111301,10,6.70116e-06,-4.16681,0.10603,0.556446,1.48623,0.09839116,
2,1,0,1,0,8320.71,0.100178,0.099864,0.0707989,5,0.00124197,10,7.07026e-06,-4.14997,0.119057,0.49556,1.37326,0.099864,
2,1,0,1,0,8322.2,0.101677,0.101415,0.0727072,5,0.00137436,10,7.37363e-06,-4.13842,0.0948643,0.621941,1.78,0.101415,
2,1,0,1,0,8323.7,0.103175,0.102834,0.0755522,5,0.00151076,10,7.76935e-06,-4.12175,0.0925696,0.637358,1.86898,0.102834,
2,1,0,1,0,8325.2,0.104673,0.104323,0.0789289,5,0.00165173,10,8.2341e-06,-4.10276,0.114148,0.516874,1.57233,0.104323,
2,1,0,1,0,8326.7,0.106171,0.10588,0.0814034,5,0.00179641,10,8.61897e-06,-4.08936,0.121818,0.48433,1.51916,0.10588,
2,1,0,1,0,8328.2,0.107669,0.107353,0.0825582,5,0.00194405,10,8.86283e-06,-4.08324,0.126179,0.467591,1.51676,0.107353,
2,1,0,1,0,8329.69,0.109167,0.108886,0.085503,5,0.00209493,10,9.31007e-06,-4.06802,0.133814,0.440912,1.47074,0.108886,
2,1,0,1,0,8331.19,0.110666,0.11031,0.0864519,5,0.00225003,10,9.53651e-06,-4.06323,0.141225,0.417772,1.42464,0.11031,
2,1,0,1,0,8332.69,0.112164,0.111839,0.0893851,5,0.00240833,10,9.99675e-06,-4.04873,0.206458,0.285773,0.994969,0.111839,
2,1,0,1,0,8334.19,0.113662,0.113392,0.0912766,5,0.00256977,10,1.035e-05,-4.03964,0.190359,0.309941,1.1051,0.113392,
2,1,0,1,0,8335.69,0.11516,0.114846,0.0938648,5,0.0027332,10,1.078e-05,-4.0275,0.176645,0.334003,1.21784,0.114846,
2,1,0,1,0,8337.19,0.116658,0.116329,0.0955174,5,0.00290054,10,1.11114e-05,-4.01992,0.153717,0.383823,1.42456,0.116329,
2,1,0,1,0,8338.68,0.118157,0.117841,0.0976223,5,0.00307117,10,1.15039e-05,-4.01045,0.166946,0.353408,1.34424,0.117841,
2,1,0,1,0,8340.18,0.119655,0.119362,0.100003,5,0.00324475,10,1.19366e-05,-3.99999,0.167109,0.353063,1.3715,0.119362,
2,1,0,1,0,8341.68,0.121153,0.120857,0.101371,5,0.00342064,10,1.22514e-05,-3.99409,0.144847,0.407326,1.62797,0.120857,
2,1,0,1,0,8343.18,0.122651,0.122351,0.103675,5,0.0036007,10,1.26847e-05,-3.98433,0.116934,0.504556,2.03915,0.122351,
2,1,0,1,0,8344.68,0.124149,0.123828,0.106815,5,0.00378486,10,1.32268e-05,-3.97137,0.173103,0.340837,1.4167,0.1238282,
2,1,0,1,0,8346.17,0.125648,0.125348,0.108471,5,0.00397233,10,1.35966e-05,-3.96469,0.206065,0.286318,1.21331,0.125348,
2,1,0,1,0,8347.67,0.127146,0.126879,0.109114,5,0.00416245,10,1.38443e-05,-3.96212,0.240496,0.245326,1.05345,0.126879,
2,1,0,1,0,8349.17,0.128644,0.12835,0.112704,5,0.00435546,10,1.44655e-05,-3.94806,0.293616,0.200943,0.873782,0.12835,
2,1,0,1,0,8350.67,0.130142,0.129792,0.114049,5,0.00455078,10,1.48027e-05,-3.94291,0.332619,0.17738,0.782608,0.129792,
2,1,0,1,0,8352.17,0.13164,0.131334,0.114159,5,0.00474793,10,1.49929e-05,-3.94249,4.48795,0.0131463,0.058079,0.131334,
2,1,0,1,0,8353.67,0.133139,0.13282,0.113833,5,0.0049456,10,1.51194e-05,-3.94373,-1.0484,-0.0562763,-0.250625,0.13282,
2,1,0,1,0,8355.16,0.134637,0.134342,0.113858,5,0.00514268,10,1.52959e-05,-3.94364,-0.543906,-0.108475,-0.48027,0.134342,
2,1,0,1,0,8356.66,0.136135,0.135826,0.112258,5,0.00533903,10,1.52475e-05,-3.94978,-0.23495,-0.251118,-1.1011,0.135826,
2,1,0,1,0,8358.16,0.137633,0.137314,0.111033,5,0.0055328,10,1.52464e-05,-3.95455,-0.138363,-0.426415,-1.83064,0.137314,
2,1,0,1,0,8359.66,0.139131,0.138805,0.108835,5,0.00572297,10,1.51068e-05,-3.96323,-0.119592,-0.493343,-2.0698,0.138805,
2,1,0,1,0,8361.16,0.14063,0.140293,0.104814,5,0.00590758,10,1.47047e-05,-3.97958,-0.0902104,-0.654026,-2.64317,0.140293,
2,1,0,1,0,8362.65,0.142128,0.141838,0.101023,5,0.00608671,10,1.43289e-05,-3.99558,-0.08645,-0.682476,-2.65598,0.141838,
2,1,0,1,0,8364.15,0.143626,0.143352,0.0953829,5,0.0062594,10,1.36734e-05,-4.02053,-0.0630502,-0.935762,-3.4691,0.143352,
2,1,0,1,0,8365.65,0.145124,0.144824,0.0905363,5,0.00642394,10,1.31118e-05,-4.04318,-0.0585233,-1.00815,-3.58521,0.144824,
2,1,0,1,0,8367.15,0.146622,0.146297,0.0849798,5,0.00658015,10,1.24323e-05,-4.07068,-0.0639405,-0.922733,-3.10577,0.146297,
2,1,0,1,0,8368.65,0.14812,0.147818,0.0816651,5,0.0067298,10,1.20715e-05,-4.08796,-0.0689121,-0.856163,-2.70407,0.147818,
2,1,0,1,0,8370.15,0.149619,0.149361,0.0766601,5,0.00687285,10,1.145e-05,-4.11543,-0.0651791,-0.905198,-2.72989,0.149361,
2,1,0,1,0,8371.64,0.151117,0.150836,0.0732859,5,0.00700918,10,1.10541e-05,-4.13498,-0.0652942,-0.903602,-2.58769,0.150836,
2,1,0,1,0,8373.14,0.152615,0.152326,0.0690542,5,0.00713989,10,1.05187e-05,-4.16081,-0.0751168,-0.785443,-2.13102,0.152326,
2,1,0,1,0,8374.64,0.154113,0.153786,0.066866,5,0.00726572,10,1.0283e-05,-4.17479,-0.0805478,-0.732485,-1.90936,0.153786,
2,1,0,1,0,8376.14,0.155611,0.155268,0.0642252,5,0.00738754,10,9.97212e-06,-4.19229,-0.0918503,-0.64235,-1.6134,0.155268,
2,1,0,1,0,8377.64,0.15711,0.156769,0.0614526,5,0.0075059,10,9.63385e-06,-4.21146,-0.0889787,-0.66308,-1.60148,0.156769,
2,1,0,1,0,8379.14,0.158608,0.158349,0.0595987,5,0.00762078,10,9.43737e-06,-4.22476,-0.100776,-0.58546,-1.3743,0.158349,
2,1,0,1,0,8380.63,0.160106,0.159775,0.0579484,5,0.00773204,10,9.2587e-06,-4.23696,-0.130177,-0.45323,-1.0302,0.159775,
2,1,0,1,0,8382.13,0.161604,0.161325,0.056296,5,0.00784127,10,9.08196e-06,-4.24952,-0.139675,-0.422408,-0.936429,0.161325,
2,1,0,1,0,8383.63,0.163102,0.162803,0.0554809,5,0.00794846,10,9.03247e-06,-4.25586,-0.153351,-0.384739,-0.830479,0.162803,
2,1,0,1,0,8385.13,0.164601,0.164287,0.0540193,5,0.00805359,10,8.87466e-06,-4.26745,-0.158361,-0.372566,-0.786271,0.164287,
2,1,0,1,0,8386.63,0.166099,0.165816,0.053036,5,0.00815667,10,8.79422e-06,-4.27543,-0.220835,-0.267168,-0.552371,0.165816,
2,1,0,1,0,8388.12,0.167597,0.16729,0.0525827,5,0.00825886,10,8.79656e-06,-4.27916,-0.30036,-0.196431,-0.400569,0.1672899,
2,1,0,1,0,8389.62,0.169095,0.16878,0.051781,5,0.00836001,10,8.73959e-06,-4.28583,-0.20672,-0.28541,-0.57664,0.16878,
2,1,0,1,0,8391.12,0.170593,0.170308,0.0511582,5,0.0084598,10,8.71264e-06,-4.29108,-0.338272,-0.174416,-0.350045,0.170308,
2,1,0,1,0,8392.62,0.172091,0.17177,0.0502841,5,0.00855852,10,8.6373e-06,-4.29857,-0.416294,-0.141727,-0.281355,0.17177,
2,1,0,1,0,8394.12,0.17359,0.173325,0.0498046,5,0.0086568,10,8.63236e-06,-4.30273,-0.275819,-0.213908,-0.415971,0.173325,
2,1,0,1,0,8395.62,0.175088,0.174782,0.0499501,5,0.00875423,10,8.73036e-06,-4.30146,-0.324607,-0.181758,-0.351798,0.174782,
2,1,0,1,0,8397.11,0.176586,0.176254,0.0493768,5,0.0088507,10,8.70284e-06,-4.30648,-0.376999,-0.156499,-0.299539,0.1762535,
2,1,0,1,0,8398.61,0.178084,0.177736,0.0484442,5,0.00894641,10,8.61028e-06,-4.31476,-0.498442,-0.118369,-0.224971,0.177736,
2,1,0,1,0,8400.11,0.179582,0.179283,0.0488216,5,0.00904157,10,8.75288e-06,-4.31139,-2.64473,-0.0223085,-0.0421426,0.179283,
2,1,0,1,0,8401.61,0.181081,0.180788,0.0479925,5,0.00913632,10,8.67646e-06,-4.31883,-0.770653,-0.0765585,-0.145762,0.180788,
2,1,0,1,0,8403.11,0.182579,0.182294,0.0480563,5,0.00923082,10,8.76035e-06,-4.31825,-1.90221,-0.0310166,-0.0580679,0.182294,
2,1,0,1,0,8404.6,0.184077,0.183747,0.0480278,5,0.00932548,10,8.82498e-06,-4.31851,-0.594728,-0.099205,-0.186123,0.183747,
2,1,0,1,0,8406.1,0.185575,0.185305,0.0478694,5,0.00941979,10,8.87045e-06,-4.31994,-0.800606,-0.0736941,-0.138892,0.185305,
2,1,0,1,0,8407.6,0.187073,0.186792,0.0479137,5,0.00951381,10,8.9499e-06,-4.31954,0.565431,0.104345,0.198111,0.186792,
2,1,0,1,0,8409.1,0.188572,0.188253,0.0483831,5,0.00960809,10,9.10827e-06,-4.31531,10.729,0.00549911,0.0103128,0.188253,
2,1,0,1,0,8410.6,0.19007,0.189758,0.0484228,5,0.00970253,10,9.18861e-06,-4.31495,3.46772,0.0170141,0.0319849,0.189758,
2,1,0,1,0,8412.1,0.191568,0.191252,0.0481327,5,0.00979674,10,9.20548e-06,-4.31756,1.53709,0.0383841,0.0722383,0.191252,
2,1,0,1,0,8413.59,0.193066,0.192775,0.0482749,5,0.00989122,10,9.30619e-06,-4.31628,0.748051,0.0788717,0.149587,0.192775,
2,1,0,1,0,8415.09,0.194564,0.194243,0.0482705,5,0.00998565,10,9.37623e-06,-4.31632,2.65359,0.022234,0.0419371,0.194243,
2,1,0,1,0,8416.59,0.196063,0.195742,0.0484469,5,0.01008,10,9.48309e-06,-4.31473,-4.7284,-0.0124778,-0.0236151,0.1957417,
2,1,0,1,0,8418.09,0.197561,0.197322,0.0483439,5,0.0101743,10,9.53929e-06,-4.31566,1.11216,0.0530499,0.101129,0.197322,
2,1,0,1,0,8419.59,0.199059,0.198756,0.0483471,5,0.0102687,10,9.60931e-06,-4.31563,3.87517,0.0152251,0.0288203,0.198756,
2,1,0,1,0,8421.08,0.200557,0.200272,0.048517,5,0.0103635,10,9.71659e-06,-4.31411,1.05492,0.0559287,0.105179,0.200272,
2,1,0,1,0,8422.58,0.202055,0.20174,0.0483953,5,0.0104582,10,9.76329e-06,-4.3152,-0.626433,-0.0941841,-0.178029,0.20174,
2,1,0,1,0,8424.08,0.203554,0.203256,0.047672,5,0.0105526,10,9.68961e-06,-4.32174,-0.611614,-0.0964661,-0.182124,0.203256,
2,1,0,1,0,8425.58,0.205052,0.204729,0.0482523,5,0.0106467,10,9.87863e-06,-4.31648,-5.41731,-0.010891,-0.0207967,0.2047286,
2,1,0,1,0,8427.08,0.20655,0.206257,0.0482407,5,0.0107409,10,9.94996e-06,-4.31659,-1.5115,-0.0390342,-0.0732944,0.206257,
2,1,0,1,0,8428.58,0.208048,0.20776,0.0483022,5,0.0108356,10,1.00353e-05,-4.31603,-1.67289,-0.0352683,-0.066701,0.20776,
2,1,0,1,0,8430.07,0.209546,0.209235,0.0486282,5,0.0109298,10,1.01747e-05,-4.31311,-1.51097,-0.0390477,-0.0741834,0.209235,
2,1,0,1,0,8431.57,0.211044,0.210735,0.0484234,5,0.0110239,10,1.02045e-05,-4.31494,2.98793,0.0197461,0.0375332,0.210735,
2,1,0,1,0,8433.07,0.212543,0.212259,0.0487376,5,0.0111184,10,1.0345e-05,-4.31214,0.967969,0.0609524,0.115993,0.212259,
2,1,0,1,0,8434.57,0.214041,0.213724,0.0490938,5,0.0112134,10,1.04925e-05,-4.30897,0.874546,0.0674635,0.128444,0.213724,
2,1,0,1,0,8436.07,0.215539,0.215265,0.0492714,5,0.0113086,10,1.06064e-05,-4.3074,1.17528,0.0502008,0.0959508,0.215265,
2,1,0,1,0,8437.56,0.217037,0.216768,0.0491264,5,0.0114037,10,1.06491e-05,-4.30868,2.57427,0.0229191,0.0440815,0.216768,
2,1,0,1,0,8439.06,0.218535,0.218215,0.0497701,5,0.0114994,10,1.08606e-05,-4.30303,0.879982,0.0670468,0.128358,0.218215,
2,1,0,1,0,8440.56,0.220034,0.219769,0.0495857,5,0.0115954,10,1.08974e-05,-4.30464,0.959568,0.061486,0.119138,0.219769,
2,1,0,1,0,8442.06,0.221532,0.221246,0.0498833,5,0.0116913,10,1.10365e-05,-4.30204,0.613096,0.0962328,0.187161,0.221246,
2,1,0,1,0,8443.56,0.22303,0.222707,0.0493208,5,0.0117873,10,1.09841e-05,-4.30697,-5.04233,-0.0117009,-0.0227384,0.222707,
2,1,0,1,0,8445.06,0.224528,0.224247,0.0499885,5,0.0118836,10,1.12098e-05,-4.30113,0.750594,0.0786044,0.153351,0.224247,
2,1,0,1,0,8446.55,0.226026,0.225732,0.050381,5,0.0119805,10,1.13726e-05,-4.29773,0.898711,0.0656496,0.128793,0.225732,
2,1,0,1,0,8448.05,0.227525,0.227181,0.0508163,5,0.0120777,10,1.15445e-05,-4.294,0.503374,0.117209,0.232676,0.227181,
2,1,0,1,0,8449.55,0.229023,0.22875,0.0511466,5,0.0121754,10,1.16998e-05,-4.29118,0.366117,0.16115,0.319746,0.22875,
2,1,0,1,0,8451.05,0.230521,0.230234,0.0512069,5,0.0122735,10,1.17895e-05,-4.29067,3.93752,0.0149841,0.0300863,0.230234,
2,1,0,1,0,8452.55,0.232019,0.231701,0.0514414,5,0.012372,10,1.1919e-05,-4.28869,-4.71243,-0.0125201,-0.0252114,0.231701,
2,1,0,1,0,8454.04,0.233517,0.233215,0.0516218,5,0.0124706,10,1.2039e-05,-4.28717,-1.60486,-0.0367634,-0.074069,0.233215,
2,1,0,1,0,8455.54,0.235016,0.234679,0.0516681,5,0.0125694,10,1.21254e-05,-4.28678,0.556726,0.105977,0.211872,0.234679,
2,1,0,1,0,8457.04,0.236514,0.236179,0.0518137,5,0.012668,10,1.22373e-05,-4.28556,1.26699,0.0465672,0.0942171,0.236179,
2,1,0,1,0,8458.54,0.238012,0.237698,0.0515544,5,0.0127667,10,1.22544e-05,-4.28773,0.463426,0.127313,0.258707,0.237698,
2,1,0,1,0,8460.04,0.23951,0.239213,0.0524644,5,0.0128659,10,1.25502e-05,-4.28014,1.51186,0.0390247,0.0790169,0.239213,
2,1,0,1,0,8461.54,0.241008,0.240687,0.0525203,5,0.0129656,10,1.2641e-05,-4.27967,3.58059,0.0164777,0.0336062,0.240687,
2,1,0,1,0,8463.03,0.242506,0.242215,0.0523601,5,0.0130651,10,1.26824e-05,-4.281,0.772841,0.0763417,0.157544,0.242215,
2,1,0,1,0,8464.53,0.244005,0.243707,0.0531118,5,0.0131653,10,1.29437e-05,-4.27481,0.420531,0.140299,0.288019,0.243707,
2,1,0,1,0,8466.03,0.245503,0.245198,0.0529839,5,0.0132661,10,1.29916e-05,-4.27586,0.622412,0.0947926,0.197158,0.245198,
2,1,0,1,0,8467.53,0.247001,0.24673,0.0531257,5,0.0133667,10,1.31077e-05,-4.27469,4.41996,0.0133485,0.0278283,0.24673,
2,1,0,1,0,8469.03,0.248499,0.248218,0.0530938,5,0.0134673,10,1.31788e-05,-4.27496,1.16348,0.0507099,0.105267,0.248218,
2,1,0,1,0,8470.52,0.249997,0.249698,0.053054,5,0.0135677,10,1.32475e-05,-4.27528,210.153,0.000280747,0.000585035,0.249698,
2,1,0,1,0,8472.02,0.251496,0.251181,0.0535815,5,0.013669,10,1.34586e-05,-4.27099,0.387276,0.152346,0.318459,0.251181,
2,1,0,1,0,8473.52,0.252994,0.2527,0.0532511,5,0.0137705,10,1.34566e-05,-4.27367,-6.25742,-0.0094288,-0.0197544,0.2527,
2,1,0,1,0,8475.02,0.254492,0.254154,0.0540255,5,0.0138724,10,1.37308e-05,-4.2674,-1.72669,-0.0341693,-0.0722371,0.254154,
2,1,0,1,0,8476.52,0.25599,0.255698,0.0542522,5,0.0139742,10,1.38722e-05,-4.26558,0.710331,0.0830599,0.175468,0.2556982,
2,1,0,1,0,8478.02,0.257488,0.257166,0.0543069,5,0.0140764,10,1.39659e-05,-4.26514,0.58713,0.100489,0.21364,0.257166,
2,1,0,1,0,8479.51,0.258987,0.25869,0.0546712,5,0.014179,10,1.41429e-05,-4.26224,5.4617,0.0108025,0.0230303,0.25869,
2,1,0,1,0,8481.01,0.260485,0.260184,0.0550472,5,0.0142822,10,1.43224e-05,-4.25926,0.446353,0.132182,0.282742,0.260184,
2,1,0,1,0,8482.51,0.261983,0.261698,0.0546637,5,0.0143852,10,1.43054e-05,-4.2623,-2.19395,-0.0268921,-0.0578442,0.261698,
2,1,0,1,0,8484.01,0.263481,0.263199,0.0560778,5,0.014489,10,1.47597e-05,-4.25121,-10.2351,-0.00576448,-0.0124211,0.263199,
2,1,0,1,0,8485.51,0.264979,0.264718,0.0559097,5,0.0145928,10,1.48003e-05,-4.25251,-1.35002,-0.043703,-0.0949351,0.264718,
2,1,0,1,0,8487,0.266477,0.26616,0.0557139,5,0.0146967,10,1.48288e-05,-4.25404,1.1042,0.0534324,0.116896,0.26616,
2,1,0,1,0,8488.5,0.267976,0.267668,0.0555548,5,0.0148007,10,1.48702e-05,-4.25528,1.56855,0.0376144,0.081792,0.267668,
2,1,0,1,0,8490,0.269474,0.269153,0.055861,5,0.0149051,10,1.50351e-05,-4.25289,0.667057,0.0884482,0.191873,0.269153,
2,1,0,1,0,8491.5,0.270972,0.270664,0.0562003,5,0.0150095,10,1.52114e-05,-4.25026,5.05125,0.0116803,0.0255317,0.270664,
2,1,0,1,0,8493,0.27247,0.272155,0.0564248,5,0.0151144,10,1.53563e-05,-4.24853,0.52443,0.112503,0.248255,0.272155,
2,1,0,1,0,8494.5,0.273968,0.273708,0.0560319,5,0.0152194,10,1.53364e-05,-4.25156,1.0056,0.0586714,0.129904,0.273708,
2,1,0,1,0,8495.99,0.275467,0.275179,0.0563473,5,0.015325,10,1.55056e-05,-4.24913,2.09963,0.0281002,0.0622977,0.275179,
2,1,0,1,0,8497.49,0.276965,0.276656,0.0569106,5,0.0154307,10,1.57447e-05,-4.24481,4.72045,0.0124988,0.028019,0.276656,
2,1,0,1,0,8498.99,0.278463,0.278118,0.0575368,5,0.0155369,10,1.6002e-05,-4.24005,1.99215,0.0296163,0.0661489,0.278118,
2,1,0,1,0,8500.49,0.279961,0.279661,0.0570451,5,0.0156433,10,1.59533e-05,-4.24378,1.04625,0.056392,0.125936,0.279661,
2,1,0,1,0,8501.99,0.281459,0.281165,0.0575583,5,0.0157495,10,1.61834e-05,-4.23989,1.3271,0.0444577,0.0993411,0.281165,
2,1,0,1,0,8503.48,0.282958,0.282644,0.0576636,5,0.015856,10,1.62983e-05,-4.2391,0.992471,0.0594476,0.133773,0.282644,
2,1,0,1,0,8504.98,0.284456,0.284136,0.058239,5,0.015963,10,1.65478e-05,-4.23479,1.56882,0.0376079,0.0842125,0.284136,
2,1,0,1,0,8506.48,0.285954,0.285663,0.058042,5,0.01607,10,1.65805e-05,-4.23626,2.32416,0.0253855,0.0570577,0.285663,
2,1,0,1,0,8507.98,0.287452,0.28711,0.0581056,5,0.0161768,10,1.66827e-05,-4.23578,0.626413,0.094187,0.212432,0.28711,
2,1,0,1,0,8509.48,0.28895,0.288647,0.0584137,5,0.016284,10,1.6861e-05,-4.23349,0.462644,0.127528,0.288584,0.2886472,
2,1,0,1,0,8510.98,0.290448,0.290162,0.0585588,5,0.0163917,10,1.69916e-05,-4.23241,4.48962,0.0131414,0.0299215,0.290162,
2,1,0,1,0,8512.47,0.291947,0.291645,0.0582225,5,0.0164996,10,1.69803e-05,-4.23491,0.61168,0.0964557,0.220913,0.291645,
2,1,0,1,0,8513.97,0.293445,0.293138,0.0592977,5,0.0166076,10,1.73824e-05,-4.22696,0.955562,0.0617438,0.141123,0.293138,
2,1,0,1,0,8515.47,0.294943,0.294634,0.0590348,5,0.016716,10,1.73937e-05,-4.22889,1.07238,0.055018,0.126707,0.294634,
2,1,0,1,0,8516.97,0.296441,0.296142,0.0590114,5,0.0168244,10,1.74758e-05,-4.22906,1.23094,0.0479309,0.110726,0.296142,
2,1,0,1,0,8518.47,0.297939,0.297628,0.0592355,5,0.0169333,10,1.76301e-05,-4.22742,0.873125,0.0675733,0.156323,0.297628,
2,1,0,1,0,8519.96,0.299438,0.299137,0.0597198,5,0.0170424,10,1.78644e-05,-4.22388,-0.00586428,-10.0609,-16.5438,0.299137,
2,1,0,1,0,8520.81,0.299737,0.299429,0.0341083,5,0.0170905,10,1.0213e-05,-4.46714,0.00274823,21.4683,31.5118,0.299429,
2,1,0,1,0,8522.31,0.298239,0.297912,0.0233743,5,0.0171115,10,6.96348e-06,-4.63126,0.00668614,8.82423,11.7504,0.297912,
2,1,0,1,0,8523.81,0.296741,0.296438,0.0187773,5,0.0171227,10,5.5663e-06,-4.72637,0.0173522,3.40014,2.5987,0.296438,
2,1,0,1,0,8525.31,0.295243,0.294911,0.0154506,5,0.0171282,10,4.55655e-06,-4.81105,0.0212732,2.77344,1.76603,0.294911,
2,1,0,1,0,8526.81,0.293745,0.293432,0.0127434,5,0.0171297,10,3.7393e-06,-4.89472,0.0209837,2.8117,1.50499,0.293432,
2,1,0,1,0,8528.31,0.292246,0.291932,0.0113661,5,0.0171281,10,3.31813e-06,-4.94439,0.0243584,2.42217,1.07855,0.291932,
2,0,0,1,0,8529.8,0.290748,0.290432,0.00973828,5,0.0171238,10,2.82831e-06,-5.01152,0.0201098,2.93389,1.11848,0.290432,
2,1,0,1,0,8531.3,0.28925,0.288903,0.00834705,5,0.0171171,10,2.41148e-06,-5.07847,0.0167536,3.52164,1.06144,0.288903,
2,1,0,1,0,8532.8,0.287752,0.287461,0.00718466,5,0.0171085,10,2.06531e-06,-5.14359,0.0148094,3.98394,1.0281,0.287461,
2,1,0,1,0,8534.3,0.286254,0.285961,0.00572532,5,0.0170979,10,1.63722e-06,-5.2422,0.0136928,4.30883,0.902101,0.285961,
2,1,0,1,0,8535.8,0.284755,0.284452,0.00390238,5,0.0170849,10,1.11004e-06,-5.40867,0.0121676,4.84893,0.797406,0.284452,
2,1,0,1,0,8537.29,0.283257,0.282961,0.00306251,5,0.01707,10,8.66571e-07,-5.51392,0.00827496,7.12994,0.799863,0.282961,
2,0,0,1,0,8538.79,0.281759,0.281429,0.00224066,5,0.0170535,10,6.30586e-07,-5.64962,0.00344718,17.1154,0.861031,0.281429,
2,1,0,1,0,8540.29,0.280261,0.279957,0.00110086,5,0.0170353,10,3.08193e-07,-5.95827,0.0101962,5.78648,0.939361,0.279957,
2,1,0,1,0,8541.79,0.278763,0.278456,-0.000390888,5,0.0170152,10,-1.08845e-07,-6.40795,-0.0215163,-2.7421,0.801032,0.278456,
2,1,0,1,0,8543.29,0.277264,0.277019,-0.00165678,5,0.0169933,10,-4.5896e-07,-5.78073,-0.00354892,-16.6248,0.609367,0.277019,
2,0,0,1,0,8544.79,0.275766,0.275449,-0.00228866,5,0.01697,10,-6.30409e-07,-5.64042,-0.0113225,-5.21085,0.521224,0.275449,
2,0,0,1,0,8546.28,0.274268,0.273957,-0.00337022,5,0.0169452,10,-9.23296e-07,-5.47234,-0.0098469,-5.99173,0.721644,0.273957,
2,0,0,1,0,8547.78,0.27277,0.272433,-0.004471,5,0.016919,10,-1.21805e-06,-5.3496,-0.015035,-3.92417,0.638702,0.272433,
2,0,0,1,0,8549.28,0.271272,0.270961,-0.00547713,5,0.0168914,10,-1.48409e-06,-5.26145,-0.0254374,-2.31942,0.493887,0.2709606,
2,1,0,1,0,8550.78,0.269774,0.269482,-0.00608293,5,0.0168627,10,-1.63924e-06,-5.21589,-0.0256029,-2.30442,0.533044,0.269482,
2,0,0,1,0,8552.28,0.268275,0.267972,-0.00687901,5,0.0168327,10,-1.84338e-06,-5.16247,-0.0229456,-2.5713,0.612237,0.267972,
2,1,0,1,0,8553.77,0.266777,0.266459,-0.00715239,5,0.0168017,10,-1.90582e-06,-5.14555,-0.0327385,-1.80216,0.527396,0.266459,
2,1,0,1,0,8555.27,0.265279,0.264988,-0.00770635,5,0.0167696,10,-2.04209e-06,-5.11315,-0.0417803,-1.41215,0.443693,0.264988,
2,1,0,1,0,8556.77,0.263781,0.263495,-0.00892929,5,0.0167363,10,-2.35283e-06,-5.04918,-0.036087,-1.63494,0.573666,0.263495,
2,0,0,1,0,8558.27,0.262283,0.261998,-0.0092401,5,0.016702,10,-2.42089e-06,-5.03432,-0.0466028,-1.26602,0.485232,0.261998,
2,1,0,1,0,8559.77,0.260784,0.260519,-0.0100157,5,0.0166668,10,-2.60928e-06,-4.99932,-0.0408309,-1.44498,0.566986,0.2605187,
2,0,0,1,0,8561.27,0.259286,0.25899,-0.0113771,5,0.0166301,10,-2.94654e-06,-4.94397,-0.0381234,-1.5476,0.635614,0.25899,
2,0,0,1,0,8562.76,0.257788,0.257465,-0.0120637,5,0.0165924,10,-3.10597e-06,-4.91852,-0.0772863,-0.763395,0.351679,0.257465,
2,1,0,1,0,8564.26,0.25629,0.255939,-0.0119894,5,0.0165539,10,-3.06855e-06,-4.9212,-0.0595667,-0.990486,0.47708,0.2559388,
2,0,0,1,0,8565.76,0.254792,0.254453,-0.0127,5,0.0165144,10,-3.23157e-06,-4.89619,-0.0559964,-1.05364,0.542362,0.254453,
2,0,0,1,0,8567.26,0.253293,0.252973,-0.0137398,5,0.0164739,10,-3.47581e-06,-4.86202,-0.0756211,-0.780205,0.425086,0.252973,
2,0,0,1,0,8568.76,0.251795,0.251492,-0.0142197,5,0.0164318,10,-3.57613e-06,-4.84711,-0.0749759,-0.786919,0.441314,0.251492,
2,0,0,1,0,8570.25,0.250297,0.250003,-0.0149431,5,0.0163888,10,-3.73581e-06,-4.82556,-0.10663,-0.553313,0.320579,0.250003,
2,0,0,1,0,8571.75,0.248799,0.248458,-0.015582,5,0.0163449,10,-3.87147e-06,-4.80738,-0.141798,-0.416084,0.252007,0.2484577,
2,0,0,1,0,8573.25,0.247301,0.246983,-0.0161899,5,0.0163004,10,-3.99862e-06,-4.79076,-0.122873,-0.48017,0.304179,0.246983,
2,0,0,1,0,8574.75,0.245802,0.245517,-0.0165177,5,0.0162554,10,-4.05538e-06,-4.78205,-0.113591,-0.519409,0.334508,0.245517,
2,1,0,1,0,8576.25,0.244304,0.243972,-0.0168284,5,0.0162093,10,-4.10567e-06,-4.77396,-0.0730781,-0.807356,0.534443,0.243972,
2,1,0,1,0,8577.75,0.242806,0.242512,-0.0178971,5,0.0161622,10,-4.34027e-06,-4.74722,-0.0782234,-0.75425,0.521003,0.242512,
2,0,0,1,0,8579.24,0.241308,0.241016,-0.0184627,5,0.016114,10,-4.4498e-06,-4.7337,-0.0940278,-0.627474,0.455799,0.241016,
2,0,0,1,0,8580.74,0.23981,0.239492,-0.019398,5,0.0160648,10,-4.64566e-06,-4.71224,-0.0813603,-0.725169,0.532394,0.239492,
2,0,0,1,0,8582.24,0.238312,0.237941,-0.0190966,5,0.0160148,10,-4.54385e-06,-4.71904,-0.156649,-0.376637,0.290081,0.237941,
2,0,0,1,0,8583.74,0.236813,0.236453,-0.0199569,5,0.0159641,10,-4.71886e-06,-4.69991,-0.15197,-0.388236,0.305181,0.236453,
2,0,0,1,0,8585.24,0.235315,0.234979,-0.0210757,5,0.0159124,10,-4.95234e-06,-4.67622,-0.0873826,-0.675191,0.544457,0.234979,
2,0,0,1,0,8586.73,0.233817,0.233473,-0.0214589,5,0.0158598,10,-5.01007e-06,-4.66839,-0.161663,-0.364956,0.308519,0.233473,
2,0,0,1,0,8588.23,0.232319,0.232034,-0.0221251,5,0.0158061,10,-5.13377e-06,-4.65512,-0.140018,-0.421375,0.360308,0.232034,
2,0,0,1,0,8589.73,0.230821,0.230537,-0.0227314,5,0.0157515,10,-5.24041e-06,-4.64337,-0.119112,-0.495331,0.438054,0.230537,
2,0,0,1,0,8591.23,0.229322,0.229014,-0.0227909,5,0.0156962,10,-5.21943e-06,-4.64224,-0.132732,-0.444505,0.395512,0.229014,
2,0,0,1,0,8592.73,0.227824,0.227519,-0.0230558,5,0.0156402,10,-5.24564e-06,-4.63722,-0.117737,-0.501115,0.467632,0.2275189,
2,0,0,1,0,8594.23,0.226326,0.226039,-0.0241218,5,0.0155832,10,-5.45246e-06,-4.61759,-0.131704,-0.447973,0.424492,0.226039,
2,0,0,1,0,8595.72,0.224828,0.224499,-0.0246991,5,0.015525,10,-5.54492e-06,-4.60732,-0.16577,-0.355915,0.347448,0.224499,
2,0,0,1,0,8597.22,0.22333,0.223,-0.0258626,5,0.015466,10,-5.76737e-06,-4.58733,-0.0987026,-0.597755,0.597474,0.223,
2,0,0,1,0,8598.72,0.221831,0.221519,-0.0262846,5,0.0154063,10,-5.82254e-06,-4.5803,-0.209879,-0.281115,0.288048,0.221519,
2,0,0,1,0,8600.22,0.220333,0.220021,-0.0268718,5,0.0153454,10,-5.91235e-06,-4.5707,-0.130939,-0.450591,0.476347,0.220021,
2,0,0,1,0,8601.72,0.218835,0.218513,-0.0279534,5,0.0152836,10,-6.10819e-06,-4.55356,-0.223852,-0.263567,0.280931,0.218513,
2,0,0,1,0,8603.22,0.217337,0.21704,-0.0280872,5,0.0152206,10,-6.09605e-06,-4.55149,-0.175224,-0.336712,0.367012,0.21704,
2,0,0,1,0,8604.71,0.215839,0.215511,-0.0284544,5,0.0151572,10,-6.13223e-06,-4.54585,-0.575997,-0.102431,0.115303,0.215511,
2,0,0,1,0,8606.21,0.21434,0.213988,-0.0289162,5,0.0150928,10,-6.18773e-06,-4.53886,-0.132673,-0.444703,0.500565,0.213988,
2,0,0,1,0,8607.71,0.212842,0.212541,-0.0293824,5,0.0150279,10,-6.24495e-06,-4.53191,-0.167316,-0.352626,0.405466,0.212541,
2,0,0,1,0,8609.21,0.211344,0.211037,-0.0297134,5,0.014962,10,-6.27064e-06,-4.52705,-0.138481,-0.42605,0.499095,0.211037,
2,0,0,1,0,8610.71,0.209846,0.20951,-0.0305155,5,0.0148955,10,-6.39331e-06,-4.51548,-0.269829,-0.218657,0.260126,0.20951,
2,0,0,1,0,8612.2,0.208348,0.208089,-0.0311254,5,0.0148281,10,-6.47685e-06,-4.50689,-0.150342,-0.392439,0.475524,0.208089,
2,0,0,1,0,8613.7,0.20685,0.206528,-0.0324623,5,0.0147593,10,-6.70437e-06,-4.48862,-0.185217,-0.318545,0.393901,0.2065282,
2,0,0,1,0,8615.2,0.205351,0.20503,-0.0324516,5,0.0146894,10,-6.65355e-06,-4.48876,-0.208943,-0.282374,0.356497,0.20503,
2,0,0,1,0,8616.7,0.203853,0.203493,-0.033011,5,0.0146191,10,-6.71751e-06,-4.48134,-0.167011,-0.35327,0.459976,0.203493,
2,0,0,1,0,8618.2,0.202355,0.202052,-0.0333045,5,0.0145475,10,-6.72926e-06,-4.4775,-0.182061,-0.324068,0.427249,0.202052,
2,0,0,1,0,8619.7,0.200857,0.200546,-0.0336903,5,0.0144751,10,-6.75647e-06,-4.4725,-0.21978,-0.26845,0.361277,0.200546,
2,0,0,1,0,8621.19,0.199359,0.199062,-0.0346833,5,0.0144018,10,-6.90411e-06,-4.45988,-0.257825,-0.228837,0.308794,0.199062,
2,0,0,1,0,8622.69,0.19786,0.197545,-0.035095,5,0.0143277,10,-6.93286e-06,-4.45475,-0.182649,-0.323025,0.446536,0.197545,
2,0,0,1,0,8624.19,0.196362,0.196065,-0.036082,5,0.0142528,10,-7.07443e-06,-4.44271,-0.172613,-0.341806,0.480598,0.196065,
2,0,0,1,0,8625.69,0.194864,0.194561,-0.037097,5,0.0141763,10,-7.21765e-06,-4.43066,-0.162785,-0.362441,0.516076,0.194561,
2,0,0,1,0,8627.19,0.193366,0.193034,-0.0372,5,0.0140986,10,-7.18088e-06,-4.42946,-0.235962,-0.25004,0.362807,0.193034,
2,0,0,1,0,8628.68,0.191868,0.191585,-0.0379597,5,0.0140201,10,-7.2725e-06,-4.42068,-0.168891,-0.349339,0.518783,0.191585,
2,0,0,1,0,8630.18,0.190369,0.190024,-0.0390418,5,0.0139409,10,-7.41889e-06,-4.40847,-0.165338,-0.356845,0.536609,0.190024,
2,0,0,1,0,8631.68,0.188871,0.188546,-0.0398347,5,0.0138601,10,-7.51066e-06,-4.39974,-0.184235,-0.320243,0.492288,0.1885457,
2,0,0,1,0,8633.18,0.187373,0.187087,-0.0394481,5,0.013778,10,-7.38021e-06,-4.40397,-0.23206,-0.254244,0.395549,0.187087,
2,0,0,1,0,8634.68,0.185875,0.18554,-0.0404062,5,0.0136953,10,-7.49695e-06,-4.39355,-0.186275,-0.316737,0.507483,0.18554,
2,0,0,1,0,8636.18,0.184377,0.184094,-0.0414309,5,0.0136114,10,-7.6272e-06,-4.38268,-0.14948,-0.394702,0.637944,0.184094,
2,0,0,1,0,8637.67,0.182878,0.18257,-0.0427127,5,0.0135262,10,-7.79808e-06,-4.36944,-0.200857,-0.293742,0.486572,0.18257,
2,0,0,1,0,8639.17,0.18138,0.181108,-0.0433629,5,0.013439,10,-7.85337e-06,-4.36288,-0.176852,-0.333613,0.561524,0.181108,
2,0,0,1,0,8640.67,0.179882,0.179594,-0.043971,5,0.0133509,10,-7.89692e-06,-4.35683,-0.290999,-0.20275,0.352083,0.179594,
2,0,0,1,0,8642.17,0.178384,0.178122,-0.045224,5,0.0132612,10,-8.05539e-06,-4.34463,-0.175104,-0.336942,0.596281,0.178122,
2,0,0,1,0,8643.67,0.176886,0.176616,-0.0460937,5,0.0131702,10,-8.14089e-06,-4.33636,-0.147322,-0.400484,0.723084,0.176616,
2,0,0,1,0,8645.16,0.175388,0.175106,-0.04703,5,0.0130774,10,-8.23524e-06,-4.32763,-0.140718,-0.419277,0.777367,0.175106,
2,0,0,1,0,8646.66,0.173889,0.173551,-0.0481608,5,0.012983,10,-8.35834e-06,-4.31731,-0.132157,-0.446438,0.84377,0.173551,
2,0,0,1,0,8648.16,0.172391,0.17207,-0.0498151,5,0.0128862,10,-8.5717e-06,-4.30264,-0.125129,-0.471513,0.912242,0.17207,
2,0,0,1,0,8649.66,0.170893,0.170599,-0.0511032,5,0.0127877,10,-8.71818e-06,-4.29155,-0.139442,-0.423115,0.845805,0.170599,
2,0,0,1,0,8651.16,0.169395,0.169089,-0.0528531,5,0.0126869,10,-8.9369e-06,-4.27693,-0.133486,-0.441993,0.898649,0.169089,
2,0,0,1,0,8652.66,0.167897,0.167604,-0.0537096,5,0.0125834,10,-9.00194e-06,-4.26995,-0.126434,-0.466648,0.984043,0.167604,
2,0,0,1,0,8654.15,0.166398,0.166108,-0.0548246,5,0.0124785,10,-9.10678e-06,-4.26102,-0.138171,-0.427007,0.927146,0.166108,
2,0,0,1,0,8655.65,0.1649,0.164614,-0.0561571,5,0.0123715,10,-9.24422e-06,-4.2506,-0.123772,-0.476685,1.05877,0.164614,
2,0,0,1,0,8657.15,0.163402,0.163074,-0.0587389,5,0.0122613,10,-9.57878e-06,-4.23107,-0.106502,-0.55398,1.26442,0.163074,
2,0,0,1,0,8658.65,0.161904,0.161597,-0.0602675,5,0.0121482,10,-9.73902e-06,-4.21992,-0.104019,-0.567202,1.34131,0.161597,
2,0,0,1,0,8660.15,0.160406,0.160124,-0.0622276,5,0.0120319,10,-9.96411e-06,-4.20602,-0.0971901,-0.607058,1.47686,0.160124,
2,0,0,1,0,8661.64,0.158907,0.158561,-0.0649834,5,0.0119123,10,-1.03038e-05,-4.1872,-0.0888415,-0.664104,1.69897,0.158561,
2,0,0,1,0,8663.14,0.157409,0.157089,-0.0680886,5,0.0117886,10,-1.0696e-05,-4.16693,-0.0816981,-0.722171,1.91182,0.157089,
2,0,0,1,0,8664.64,0.155911,0.1556,-0.0708612,5,0.01166,10,-1.1026e-05,-4.14959,-0.0853981,-0.690882,1.90418,0.1556001,
2,0,0,1,0,8666.14,0.154413,0.154102,-0.0732334,5,0.0115271,10,-1.12854e-05,-4.13529,-0.0849349,-0.69465,1.99783,0.154102,
2,0,0,1,0,8667.64,0.152915,0.152617,-0.0769097,5,0.0113895,10,-1.17377e-05,-4.11402,-0.0784392,-0.752175,2.27942,0.152617,
2,0,0,1,0,8669.14,0.151417,0.151138,-0.0804697,5,0.0112467,10,-1.2162e-05,-4.09437,-0.0698587,-0.844562,2.66326,0.151138,
2,0,0,1,0,8670.63,0.149918,0.1496,-0.0851112,5,0.0110978,10,-1.27326e-05,-4.07001,-0.0645982,-0.913338,3.02795,0.1496,
2,0,0,1,0,8672.13,0.14842,0.14812,-0.0895842,5,0.0109423,10,-1.32692e-05,-4.04777,-0.0660922,-0.892693,3.11778,0.14812,
2,0,0,1,0,8673.63,0.146922,0.146627,-0.0945471,5,0.0107794,10,-1.38632e-05,-4.02435,-0.0639844,-0.922099,3.37823,0.146627,
2,0,0,1,0,8675.13,0.145424,0.145137,-0.0989162,5,0.0106094,10,-1.43564e-05,-4.00473,-0.0610395,-0.966587,3.75029,0.145137,
2,0,0,1,0,8676.63,0.143926,0.143639,-0.104592,5,0.0104311,10,-1.50234e-05,-3.9805,-0.0612967,-0.962531,3.93327,0.143639,
2,0,0,1,0,8678.12,0.142427,0.142149,-0.110647,5,0.0102434,10,-1.57284e-05,-3.95606,-0.0660567,-0.893172,3.85626,0.142149,
2,0,0,1,0,8679.62,0.140929,0.140608,-0.116194,5,0.010047,10,-1.63378e-05,-3.93482,-0.0666988,-0.884574,4.02988,0.140608,
2,0,0,1,0,8681.12,0.139431,0.139096,-0.121879,5,0.00984184,10,-1.69529e-05,-3.91407,-0.0754565,-0.781907,3.72538,0.1390959,
2,0,0,1,0,8682.62,0.137933,0.137655,-0.128265,5,0.00962787,10,-1.76562e-05,-3.89189,-0.0829669,-0.711127,3.54505,0.1376548,
2,0,0,1,0,8684.12,0.136435,0.136124,-0.134148,5,0.00940555,10,-1.82607e-05,-3.87242,-0.0928069,-0.635729,3.30349,0.136124,
2,0,0,1,0,8685.62,0.134936,0.134595,-0.138759,5,0.00917504,10,-1.86764e-05,-3.85774,-0.0982953,-0.600232,3.22559,0.134595,
2,0,0,1,0,8687.11,0.133438,0.133138,-0.142475,5,0.00893777,10,-1.89688e-05,-3.84626,-0.128328,-0.459758,2.55454,0.133138,
2,0,0,1,0,8688.61,0.13194,0.131634,-0.146217,5,0.00869475,10,-1.92471e-05,-3.835,-0.16019,-0.368313,2.10913,0.131634,
2,0,0,1,0,8690.11,0.130442,0.130129,-0.14944,5,0.00844614,10,-1.94465e-05,-3.82553,-0.165211,-0.35712,2.08635,0.130129,
2,0,0,1,0,8691.61,0.128944,0.128623,-0.152562,5,0.00819289,10,-1.9623e-05,-3.81655,-0.274395,-0.215019,1.27154,0.128623,
2,0,0,1,0,8693.11,0.127445,0.127131,-0.154724,5,0.00793642,10,-1.96702e-05,-3.81044,-0.266657,-0.221258,1.33398,0.127131,
2,0,0,1,0,8694.6,0.125947,0.125636,-0.155197,5,0.00767873,10,-1.94984e-05,-3.80912,-0.436802,-0.135073,0.819362,0.125636,
2,0,0,1,0,8696.1,0.124449,0.124145,-0.156639,5,0.00741869,10,-1.9446e-05,-3.8051,-0.847961,-0.0695787,0.423066,0.124145,
2,0,0,1,0,8697.6,0.122951,0.122668,-0.156872,5,0.0071579,10,-1.92431e-05,-3.80446,3.22374,0.0183017,-0.111636,0.122668,
2,0,0,1,0,8699.1,0.121453,0.121166,-0.156868,5,0.00689702,10,-1.90071e-05,-3.80447,1.0674,0.0552743,-0.336532,0.1211665,
2,0,0,1,0,8700.6,0.119955,0.119654,-0.155843,5,0.00663762,10,-1.86473e-05,-3.80731,0.841504,0.0701126,-0.428338,0.119654,
2,0,0,1,0,8702.1,0.118456,0.118153,-0.155334,5,0.00637855,10,-1.83532e-05,-3.80873,5.61812,0.0105017,-0.063651,0.118153,
2,0,0,1,0,8703.59,0.116958,0.116614,-0.155091,5,0.00612017,10,-1.80858e-05,-3.80941,0.469958,0.125543,-0.757083,0.116614,
2,0,0,1,0,8705.09,0.11546,0.115182,-0.153021,5,0.00586336,10,-1.76253e-05,-3.81525,0.634145,0.0930386,-0.558705,0.115182,
2,0,0,1,0,8706.59,0.113962,0.113671,-0.151469,5,0.0056087,10,-1.72175e-05,-3.81968,0.590733,0.099876,-0.595288,0.113671,
2,0,0,1,0,8708.09,0.112464,0.112138,-0.151806,5,0.00535546,10,-1.70233e-05,-3.81871,0.403702,0.146147,-0.861577,0.112138,
2,0,0,1,0,8709.59,0.110965,0.110641,-0.151106,5,0.00510322,10,-1.67185e-05,-3.82072,0.538358,0.109592,-0.643208,0.110641,
2,0,0,1,0,8711.08,0.109467,0.109151,-0.150362,5,0.00485265,10,-1.64122e-05,-3.82286,0.408783,0.144331,-0.839961,0.109151,
2,0,0,1,0,8712.58,0.107969,0.107694,-0.148451,5,0.00460364,10,-1.59873e-05,-3.82842,0.507275,0.116308,-0.675784,0.107694,
2,0,0,1,0,8714.08,0.106471,0.106165,-0.148055,5,0.00435655,10,-1.57183e-05,-3.82958,0.629275,0.0937588,-0.539734,0.106165,
2,0,0,1,0,8715.58,0.104973,0.104658,-0.146227,5,0.00411068,10,-1.53038e-05,-3.83497,0.487186,0.121104,-0.692245,0.104658,
2,0,0,1,0,8717.08,0.103474,0.103155,-0.145556,5,0.00386567,10,-1.50149e-05,-3.83697,0.285137,0.206918,-1.17201,0.103155,
2,0,0,1,0,8718.58,0.101976,0.101679,-0.144917,5,0.00362304,10,-1.47351e-05,-3.83888,0.29554,0.199634,-1.12417,0.101679,
2,0,0,1,0,8720.07,0.100478,0.100156,-0.143134,5,0.00338314,10,-1.43356e-05,-3.84426,0.338274,0.174415,-0.972823,0.100156,
2,0,0,1,0,8721.57,0.0989798,0.0986753,-0.141737,5,0.00314478,10,-1.3986e-05,-3.84852,0.352929,0.167172,-0.918727,0.0986753,
2,0,0,1,0,8723.07,0.0974816,0.0971461,-0.139786,5,0.00290868,10,-1.35796e-05,-3.85454,0.275795,0.213927,-1.16964,0.0971461,
2,0,0,1,0,8724.57,0.0959834,0.0956361,-0.13826,5,0.0026749,10,-1.32226e-05,-3.8593,0.35732,0.165118,-0.894101,0.0956361,
2,0,0,1,0,8726.07,0.0944852,0.0941876,-0.136692,5,0.00244418,10,-1.28746e-05,-3.86426,0.326909,0.180478,-0.965854,0.09418761,
2,0,0,1,0,8727.56,0.0929871,0.0926617,-0.135548,5,0.00221472,10,-1.25601e-05,-3.86791,0.429023,0.137522,-0.724692,0.0926617,
2,0,0,1,0,8729.06,0.0914889,0.0911814,-0.134299,5,0.00198753,10,-1.22456e-05,-3.87193,0.258694,0.228068,-1.19397,0.0911814,
2,0,0,1,0,8730.56,0.0899907,0.0896735,-0.132585,5,0.00176301,10,-1.18894e-05,-3.8775,0.298106,0.197916,-1.02474,0.0896735,
2,0,0,1,0,8732.06,0.0884925,0.0881486,-0.1303,5,0.00154086,10,-1.14858e-05,-3.88506,0.351965,0.16763,-0.856564,0.0881486,
2,0,0,1,0,8733.56,0.0869943,0.0866958,-0.130283,5,0.00132063,10,-1.1295e-05,-3.88511,0.429141,0.137484,-0.696816,0.0866958,
2,0,0,1,0,8735.06,0.0854961,0.0851678,-0.12909,5,0.00110179,10,-1.09943e-05,-3.88911,0.441936,0.133503,-0.67002,0.0851678,
2,0,0,1,0,8736.55,0.083998,0.0836982,-0.128032,5,0.000884449,10,-1.0716e-05,-3.89268,0.316792,0.186242,-0.929718,0.0836982,
2,0,0,1,0,8738.05,0.0824998,0.0822146,-0.126935,5,0.000668776,10,-1.04359e-05,-3.89642,0.397087,0.148582,-0.735566,0.0822146,
2,0,0,1,0,8739.55,0.0810016,0.0806675,-0.125933,5,0.000455134,10,-1.01587e-05,-3.89986,0.398631,0.148006,-0.730049,0.0806675,
2,0,0,1,0,8741.05,0.0795034,0.079219,-0.125021,5,0.00024274,10,-9.90403e-06,-3.90302,0.537621,0.109743,-0.535994,0.079219,
2,0,0,1,0,8742.55,0.0780052,0.0777047,-0.124317,5,3.13884e-05,10,-9.66003e-06,-3.90547,0.471984,0.125004,-0.604473,0.0777047,
2,0,0,1,0,8744.04,0.076507,0.0761671,-0.123622,5,-0.000178415,10,-9.41594e-06,-3.9079,0.467389,0.126233,-0.606942,0.0761671,
2,0,0,1,0,8745.54,0.0750088,0.0746857,-0.122599,5,-0.000386614,10,-9.15639e-06,-3.91151,0.561444,0.105086,-0.502114,0.0746857,
2,0,0,1,0,8747.04,0.0735106,0.0731577,-0.121671,5,-0.000594054,10,-8.90116e-06,-3.91481,0.618225,0.0954345,-0.45339,0.0731577,
2,0,0,1,0,8748.54,0.0720124,0.0717028,-0.120574,5,-0.000800609,10,-8.64549e-06,-3.91875,0.582403,0.101304,-0.478619,0.0717028,
2,0,0,1,0,8750.04,0.0705142,0.0701726,-0.119992,5,-0.00100565,10,-8.42012e-06,-3.92085,0.673565,0.0875936,-0.411612,0.0701726,
2,0,0,1,0,8751.54,0.069016,0.0687124,-0.118902,5,-0.00120929,10,-8.17006e-06,-3.92481,1.63357,0.0361172,-0.168135,0.0687124,
2,0,0,1,0,8753.03,0.0675178,0.0671833,-0.118796,5,-0.00141228,10,-7.9811e-06,-3.9252,1.38013,0.0427496,-0.198084,0.0671833,
2,0,0,1,0,8754.53,0.0660196,0.0657051,-0.120104,5,-0.00161467,10,-7.89142e-06,-3.92044,0.736109,0.0801511,-0.370488,0.0657051,
2,0,0,1,0,8756.03,0.0645214,0.0642247,-0.117778,5,-0.00181605,10,-7.56426e-06,-3.92894,0.648755,0.0909434,-0.415935,0.0642247,
2,0,0,1,0,8757.53,0.0630233,0.0626873,-0.116178,5,-0.00201589,10,-7.28287e-06,-3.93488,0.626471,0.0941783,-0.429043,0.06268727,
2,0,0,1,0,8759.03,0.0615251,0.0612186,-0.116146,5,-0.00221483,10,-7.11029e-06,-3.935,0.715602,0.0824481,-0.374099,0.0612186,
2,0,0,1,0,8760.53,0.0600269,0.0597043,-0.115503,5,-0.00241288,10,-6.89604e-06,-3.93741,0.47784,0.123472,-0.557389,0.0597043,
2,0,0,1,0,8762.02,0.0585287,0.0582335,-0.114702,5,-0.00261007,10,-6.67951e-06,-3.94043,0.355084,0.166158,-0.742346,0.0582335,
2,0,0,1,0,8763.52,0.0570305,0.0566959,-0.114001,5,-0.00280621,10,-6.46337e-06,-3.94309,0.624844,0.0944235,-0.421828,0.0566959,
2,0,0,1,0,8765.02,0.0555323,0.0552378,-0.113642,5,-0.00300088,10,-6.27734e-06,-3.94446,1.42134,0.0415102,-0.184467,0.0552378,
2,0,0,1,0,8766.52,0.0540342,0.0537353,-0.113694,5,-0.0031952,10,-6.1094e-06,-3.94426,0.915781,0.0644259,-0.28346,0.0537353,
2,0,0,1,0,8768.02,0.052536,0.0522232,-0.112662,5,-0.00338881,10,-5.88357e-06,-3.94822,0.437689,0.134799,-0.593528,0.0522232,
2,0,0,1,0,8769.51,0.0510378,0.0507302,-0.112058,5,-0.0035815,10,-5.68472e-06,-3.95056,0.671281,0.0878916,-0.383628,0.0507302,
2,0,0,1,0,8771.01,0.0495396,0.0492488,-0.110812,5,-0.00377232,10,-5.45736e-06,-3.95541,0.41251,0.143027,-0.622095,0.0492488,
2,0,0,1,0,8772.51,0.0480414,0.047726,-0.11022,5,-0.00396253,10,-5.26034e-06,-3.95774,10.3836,0.00568203,-0.0244603,0.047726,
2,0,0,1,0,8774.01,0.0465432,0.0462552,-0.110147,5,-0.00415197,10,-5.09485e-06,-3.95803,0.607236,0.0971615,-0.41745,0.0462552,
2,0,0,1,0,8775.51,0.045045,0.0447261,-0.109279,5,-0.00434067,10,-4.88762e-06,-3.96146,0.561097,0.105151,-0.448398,0.0447261,
2,0,0,1,0,8777.01,0.0435468,0.0432797,-0.107892,5,-0.00452776,10,-4.66951e-06,-3.96701,0.452699,0.13033,-0.552054,0.0432797,
2,0,0,1,0,8778.5,0.0420486,0.0417304,-0.1074,5,-0.00471374,10,-4.48184e-06,-3.969,0.556894,0.105945,-0.446453,0.0417304,
2,0,0,1,0,8780,0.0405504,0.0402246,-0.107625,5,-0.00489881,10,-4.32917e-06,-3.96809,0.536846,0.109901,-0.460737,0.0402246,
2,0,0,1,0,8781.5,0.0390522,0.0386923,-0.107032,5,-0.00508321,10,-4.14131e-06,-3.97049,0.816073,0.0722975,-0.299462,0.0386923,
2,0,0,1,0,8783,0.037554,0.0372247,-0.105904,5,-0.00526644,10,-3.94224e-06,-3.97509,0.843412,0.069954,-0.289256,0.0372247,
2,0,0,1,0,8784.5,0.0360558,0.0357104,-0.106083,5,-0.00544901,10,-3.78827e-06,-3.97435,2.42508,0.0243291,-0.100483,0.0357104,
2,0,0,1,0,8785.99,0.0345576,0.034212,-0.104869,5,-0.00563084,10,-3.58777e-06,-3.97935,0.584156,0.101,-0.414773,0.034212,
2,0,0,1,0,8787.49,0.0330594,0.0327561,-0.104478,5,-0.00581193,10,-3.4223e-06,-3.98097,0.51228,0.115171,-0.470223,0.03275612,
2,0,0,1,0,8788.99,0.0315613,0.031208,-0.103501,5,-0.005992,10,-3.23006e-06,-3.98506,0.505027,0.116825,-0.474499,0.031208,
2,0,0,1,0,8790.49,0.0300631,0.0297584,-0.103154,5,-0.00617078,10,-3.0697e-06,-3.98651,0.633479,0.0931365,-0.375503,0.0297584,
2,0,0,1,0,8791.99,0.0285649,0.0282643,-0.103479,5,-0.00634944,10,-2.92477e-06,-3.98515,0.54142,0.108973,-0.437104,0.0282643,
2,0,0,1,0,8793.49,0.0270667,0.0267235,-0.102116,5,-0.00652708,10,-2.7289e-06,-3.99091,0.564115,0.104589,-0.417388,0.0267235,
2,0,0,1,0,8794.98,0.0255685,0.0253036,-0.101976,5,-0.00670418,10,-2.58036e-06,-3.9915,3.86314,0.0152726,-0.0607853,0.0253036,
2,0,0,1,0,8796.48,0.0240703,0.0237894,-0.101298,5,-0.00688,10,-2.40982e-06,-3.9944,2.50016,0.0235985,-0.0942087,0.0237894,
2,0,0,1,0,8797.98,0.0225722,0.0222657,-0.101202,5,-0.00705622,10,-2.25333e-06,-3.99481,-0.988079,-0.0597119,0.237096,0.02226565,
2,0,0,1,0,8799.48,0.021074,0.0207716,-0.101418,5,-0.00723226,10,-2.1066e-06,-3.99389,6.16107,0.00957626,-0.0379212,0.0207716,
2,0,0,1,0,8800.98,0.0195758,0.019236,-0.101844,5,-0.00740792,10,-1.95908e-06,-3.99206,0.849635,0.0694416,-0.274726,0.019236,
2,0,0,1,0,8802.47,0.0180776,0.0177006,-0.100671,5,-0.00758322,10,-1.78194e-06,-3.9971,3.55837,0.0165806,-0.0652004,0.0177006,
2,0,0,1,0,8803.97,0.0165794,0.0162637,-0.100921,5,-0.00775797,10,-1.64134e-06,-3.99602,1.48166,0.0398201,-0.157215,0.0162637,
2,0,0,1,0,8805.47,0.0150812,0.0147452,-0.101549,5,-0.00793293,10,-1.49736e-06,-3.99332,-9.77163,-0.00603789,0.0237754,0.0147452,
2,0,0,1,0,8806.97,0.013583,0.0132617,-0.101557,5,-0.00810806,10,-1.34682e-06,-3.99329,-0.959731,-0.0614756,0.24159,0.0132617,
2,0,0,1,0,8808.47,0.0120848,0.0117941,-0.100924,5,-0.00828311,10,-1.19031e-06,-3.996,-0.683451,-0.0863266,0.342823,0.01179407,
2,0,0,1,0,8809.97,0.0105866,0.0102851,-0.102393,5,-0.00845862,10,-1.05312e-06,-3.98973,-0.496807,-0.118758,0.473126,0.0102851,
2,0,0,1,0,8811.46,0.00908843,0.00880267,-0.102563,5,-0.00863534,10,-9.02832e-07,-3.98901,-0.709577,-0.0831482,0.333358,0.00880267,
2,0,0,1,0,8812.96,0.00759024,0.00729793,-0.103013,5,-0.00881287,10,-7.51785e-07,-3.98711,-1.11179,-0.0530674,0.213403,0.00729793,
2,0,0,1,0,8814.46,0.00609203,0.00578045,-0.103908,5,-0.00899112,10,-6.00636e-07,-3.98335,-0.729686,-0.0808568,0.32666,0.00578045,
2,0,0,1,0,8815.96,0.00459384,0.00428102,-0.104304,5,-0.00916952,10,-4.46528e-07,-3.9817,-0.598003,-0.0986616,0.40137,0.00428102,
2,0,0,1,0,8817.46,0.00309563,0.0027742,-0.105006,5,-0.0093492,10,-2.91306e-07,-3.97879,-0.374803,-0.157416,0.644831,0.002774195,
2,0,0,1,0,8818.95,0.00159744,0.00121859,-0.106207,5,-0.00953265,10,-1.29423e-07,-3.97385, , , ,0.00121859,
2,0,0,1,0,8820.35,0.000199235,-0.000168782,-0.1066,5,-0.0097026,10,1.79921e-08,-3.97224, , , ,-0.000168782,