File: Figure_codes/Fig_3-5/rawdata_trumpetplot_data/after 10th/20221101_1-115_003_TrumpetPlot_ParaChange_from10_every3_03_CV_C01_2.csv
mode,ox/red,error,control changes,counter inc.,time/s,control/V,Ewe/V,<I>/mA,cycle number,(Q-Qo)/C,I Range,P/W,log(|I|),Tafel slope mV/dec,alpha_eff,dI/d(E-IR),E-IR/V,
2,0,0,1,0,4880.28,2.44065e-05,-0.000287149,-0.105754,3,0.0000000E+000,10,3.03672e-08,-3.9757, , , ,-0.0002871489,
2,1,0,0,0,4880.53,0.00129787,0.000886721,0.152059,3,3.13625e-05,10,1.34834e-07,-3.81799, , , ,0.000886721,
2,1,0,0,0,4880.83,0.00279606,0.00251763,0.182615,3,8.87452e-05,10,4.59757e-07,-3.73846,0.0238343,2.47543,15.667,0.00251763,
2,1,0,1,0,4881.13,0.00429469,0.00402369,0.192566,3,0.000150275,10,7.74825e-07,-3.71542,0.0919551,0.641618,4.873,0.004023694,
2,1,0,1,0,4881.43,0.00579255,0.00550058,0.200466,3,0.000214772,10,1.10268e-06,-3.69796,0.0730962,0.807155,6.30622,0.00550058,
2,1,0,1,0,4881.73,0.00729041,0.00699326,0.210029,3,0.000282023,10,1.46878e-06,-3.67772,0.085714,0.688336,5.61524,0.00699326,
2,1,0,1,0,4882.03,0.00878882,0.00845272,0.216701,3,0.000351587,10,1.83171e-06,-3.66414,0.109163,0.540477,4.56311,0.00845272,
2,1,0,1,0,4882.33,0.010287,0.00999137,0.224455,3,0.000423258,10,2.24261e-06,-3.64887,0.140641,0.419507,3.63352,0.00999137,
2,1,0,1,0,4882.63,0.0117852,0.0114918,0.227388,3,0.000496652,10,2.61311e-06,-3.64323,0.15458,0.38168,3.40117,0.0114918,
2,1,0,1,0,4882.93,0.0132836,0.0129661,0.234375,3,0.000571356,10,3.03894e-06,-3.63009,0.146187,0.403592,3.71637,0.0129661,
2,1,0,1,0,4883.23,0.0147815,0.0144586,0.239121,3,0.000647837,10,3.45736e-06,-3.62138,0.155318,0.379865,3.54742,0.0144586,
2,1,0,1,0,4883.53,0.0162793,0.0159898,0.245089,3,0.000726161,10,3.91891e-06,-3.61068,0.244871,0.240943,2.29308,0.0159898,
2,1,0,0,0,4883.83,0.017778,0.0174874,0.249243,3,0.000805719,10,4.3586e-06,-3.60338,0.193936,0.304224,2.96767,0.0174874,
2,1,0,0,0,4884.13,0.0192761,0.0189868,0.255618,3,0.000886391,10,4.85336e-06,-3.59241,0.177221,0.332918,3.29154,0.0189868,
2,1,0,1,0,4884.43,0.0207747,0.0204813,0.259193,3,0.000968874,10,5.30862e-06,-3.58638,0.16045,0.367715,3.71407,0.0204813,
2,1,0,1,0,4884.73,0.0222725,0.0219422,0.263317,3,0.00105284,10,5.77775e-06,-3.57952,0.185915,0.317349,3.27221,0.0219422,
2,1,0,1,0,4885.03,0.0237704,0.0234699,0.268853,3,0.00113823,10,6.30994e-06,-3.57049,0.209928,0.281049,2.94766,0.0234699,
2,1,0,1,0,4885.32,0.0252689,0.024959,0.272526,3,0.0012249,10,6.80197e-06,-3.56459,0.185347,0.318321,3.40494,0.024959,
2,1,0,1,0,4885.62,0.0267671,0.0264362,0.278056,3,0.00131314,10,7.35072e-06,-3.55587,0.177015,0.333305,3.61324,0.0264362,
2,1,0,1,0,4885.92,0.0282657,0.0279543,0.284477,3,0.00140309,10,7.95234e-06,-3.54595,0.184574,0.319655,3.54019,0.0279543,
2,1,0,1,0,4886.22,0.0297635,0.0294987,0.288357,3,0.00149446,10,8.50614e-06,-3.54007,0.176196,0.334854,3.77188,0.0294987,
2,1,0,1,0,4886.52,0.0312613,0.030985,0.29133,3,0.00158723,10,9.02685e-06,-3.53561,0.229273,0.257335,2.95431,0.030985,
2,1,0,0,0,4886.82,0.0327599,0.0324646,0.299346,3,0.00168159,10,9.71815e-06,-3.52383,0.185329,0.318353,3.72001,0.0324646,
2,1,0,0,0,4887.12,0.034258,0.0339619,0.305107,3,0.0017776,10,1.0362e-05,-3.51555,0.201519,0.292776,3.4816,0.0339619,
2,1,0,1,0,4887.42,0.0357567,0.0354374,0.310944,3,0.0018754,10,1.1019e-05,-3.50732,0.255642,0.230792,2.78391,0.0354374,
2,1,0,1,0,4887.72,0.0372545,0.0369258,0.31534,3,0.00197475,10,1.16442e-05,-3.50122,0.222033,0.265726,3.28113,0.0369258,
2,1,0,1,0,4888.02,0.0387524,0.0384491,0.3206,3,0.00207541,10,1.23268e-05,-3.49404,0.187695,0.31434,3.96412,0.03844909,
2,1,0,1,0,4888.32,0.0402508,0.0399627,0.326811,3,0.00217804,10,1.30602e-05,-3.4857,0.218298,0.270273,3.45902,0.0399627,
2,1,0,1,0,4888.62,0.041749,0.0413868,0.333112,3,0.00228274,10,1.37865e-05,-3.47741,0.222878,0.264718,3.43373,0.0413868,
2,1,0,1,0,4888.92,0.0432472,0.0429912,0.339083,3,0.00238886,10,1.45776e-05,-3.46969,0.210356,0.280478,3.7076,0.0429912,
2,1,0,1,0,4889.22,0.0447456,0.0444327,0.344865,3,0.00249643,10,1.53233e-05,-3.46235,0.204684,0.288249,3.86666,0.0444327,
2,1,0,1,0,4889.52,0.0462435,0.0458849,0.350651,3,0.00260604,10,1.60896e-05,-3.45512,0.202709,0.291058,3.96422,0.0458849,
2,1,0,1,0,4889.82,0.0477413,0.0474275,0.354913,3,0.00271736,10,1.68326e-05,-3.44988,0.217193,0.271648,3.77498,0.0474275,
2,1,0,0,0,4890.12,0.0492399,0.0489518,0.361733,3,0.00283036,10,1.77075e-05,-3.44161,0.233121,0.253088,3.57655,0.0489518,
2,1,0,0,0,4890.42,0.0507381,0.0504416,0.365283,3,0.00294468,10,1.84255e-05,-3.43737,0.242449,0.24335,3.4845,0.0504416,
2,1,0,1,0,4890.72,0.0522367,0.0519075,0.371805,3,0.00306098,10,1.92995e-05,-3.42968,0.199416,0.295864,4.2908,0.0519075,
2,1,0,1,0,4891.02,0.0537345,0.0534607,0.378695,3,0.0031791,10,2.02453e-05,-3.42171,0.224744,0.262521,3.86668,0.0534607,
2,1,0,1,0,4891.32,0.0552323,0.0548907,0.384,3,0.00329896,10,2.10781e-05,-3.41567,0.258239,0.228471,3.40846,0.0548907,
2,1,0,1,0,4891.62,0.0567309,0.056416,0.386391,3,0.00342033,10,2.17987e-05,-3.41297,0.272326,0.216652,3.28872,0.056416,
2,1,0,1,0,4891.92,0.0582291,0.0579292,0.394049,3,0.00354305,10,2.28269e-05,-3.40445,0.27218,0.216768,3.32804,0.0579292,
2,1,0,1,0,4892.22,0.0597277,0.0594279,0.399412,3,0.00366769,10,2.37362e-05,-3.39858,0.249889,0.236105,3.68132,0.0594279,
2,1,0,1,0,4892.52,0.0612255,0.060913,0.404703,3,0.00379399,10,2.46517e-05,-3.39286,0.357068,0.165235,2.60188,0.060913,
2,1,0,1,0,4892.82,0.0627233,0.0624186,0.409203,3,0.0039218,10,2.55419e-05,-3.38806,0.336515,0.175327,2.80956,0.0624186,
2,1,0,0,0,4893.12,0.0642218,0.0639385,0.415225,3,0.00405063,10,2.65489e-05,-3.38172,0.24764,0.238249,3.8687,0.0639385,
2,1,0,0,0,4893.42,0.06572,0.0654549,0.420039,3,0.00418133,10,2.74936e-05,-3.37671,0.285074,0.206964,3.38909,0.0654549,
2,1,0,1,0,4893.71,0.0672187,0.0668518,0.425715,3,0.0043139,10,2.84598e-05,-3.37088,0.302418,0.195094,3.23141,0.06685178,
2,1,0,1,0,4894.01,0.0687165,0.0683935,0.430715,3,0.00444773,10,2.94581e-05,-3.36581,0.395154,0.149309,2.50382,0.0683935,
2,1,0,1,0,4894.31,0.0702144,0.0699264,0.43443,3,0.00458245,10,3.03781e-05,-3.36208,0.34331,0.171856,2.91514,0.0699264,
2,1,0,1,0,4894.61,0.0717128,0.0714154,0.439188,3,0.00471895,10,3.13648e-05,-3.35735,0.244153,0.241652,4.1322,0.0714154,
2,1,0,1,0,4894.91,0.073211,0.0728661,0.442353,3,0.00485682,10,3.22326e-05,-3.35423,0.402035,0.146754,2.54291,0.07286606,
2,1,0,1,0,4895.21,0.0747092,0.0744079,0.448208,3,0.004996,10,3.33502e-05,-3.34852,0.409887,0.143942,2.51784,0.07440789,
2,1,0,1,0,4895.51,0.0762076,0.0758789,0.45098,3,0.00513625,10,3.42198e-05,-3.34584,0.348853,0.169126,2.98233,0.0758789,
2,1,0,1,0,4895.81,0.0777054,0.077396,0.456921,3,0.00527798,10,3.53638e-05,-3.34016,0.332163,0.177624,3.16287,0.077396,
2,1,0,1,0,4896.11,0.0792033,0.0788823,0.463661,3,0.00542111,10,3.65746e-05,-3.3338,0.391086,0.150862,2.71076,0.0788823,
2,1,0,0,0,4896.41,0.0807019,0.0803918,0.46484,3,0.00556571,10,3.73693e-05,-3.3327,0.478047,0.123419,2.23733,0.0803918,
2,1,0,0,0,4896.71,0.0822001,0.0818997,0.467219,3,0.00571133,10,3.82651e-05,-3.33048,0.404384,0.145901,2.67479,0.0818997,
2,1,0,1,0,4897.01,0.0836986,0.0833825,0.473489,3,0.00585803,10,3.94807e-05,-3.32469,0.381353,0.154712,2.8666,0.08338251,
2,1,0,1,0,4897.31,0.0851965,0.0849134,0.47811,3,0.00600631,10,4.05979e-05,-3.32047,0.33868,0.174206,3.26116,0.0849134,
2,1,0,1,0,4897.61,0.0866944,0.0863965,0.482165,3,0.00615617,10,4.16574e-05,-3.3168,0.489881,0.120437,2.27207,0.0863965,
2,1,0,1,0,4897.91,0.0881929,0.0878803,0.487867,3,0.00630743,10,4.28739e-05,-3.3117,0.336902,0.175125,3.34891,0.0878803,
2,1,0,1,0,4898.21,0.0896911,0.0893628,0.493015,3,0.00645974,10,4.40572e-05,-3.30714,0.285071,0.206966,3.98981,0.0893628,
2,1,0,1,0,4898.51,0.0911897,0.0909062,0.501139,3,0.00661425,10,4.55566e-05,-3.30004,0.262967,0.224363,4.37613,0.0909062,
2,1,0,1,0,4898.81,0.0926875,0.0923947,0.507203,3,0.00677105,10,4.68628e-05,-3.29482,0.239183,0.246673,4.87914,0.0923947,
2,1,0,1,0,4899.11,0.0941853,0.0938775,0.514146,3,0.00692942,10,4.82668e-05,-3.28891,0.278557,0.211806,4.26259,0.0938775,
2,1,0,0,0,4899.41,0.0956838,0.0953817,0.520067,3,0.0070897,10,4.96049e-05,-3.28394,0.219096,0.269289,5.48583,0.0953817,
2,1,0,0,0,4899.71,0.097182,0.0968588,0.529915,3,0.00725271,10,5.1327e-05,-3.27579,0.185744,0.317641,6.55617,0.0968588,
2,1,0,1,0,4900.01,0.0986807,0.0983672,0.53953,3,0.00741855,10,5.3072e-05,-3.26798,0.20703,0.284983,5.99391,0.0983672,
2,1,0,1,0,4900.31,0.100179,0.0998949,0.548723,3,0.0075869,10,5.48146e-05,-3.26065,0.209347,0.281828,6.03621,0.0998949,
2,1,0,1,0,4900.61,0.101676,0.101364,0.554891,3,0.00775775,10,5.62461e-05,-3.25579,0.201224,0.293205,6.382,0.101364,
2,1,0,1,0,4900.91,0.103175,0.102854,0.567057,3,0.00793167,10,5.83243e-05,-3.24637,0.194843,0.302807,6.71423,0.102854,
2,1,0,1,0,4901.21,0.104673,0.104355,0.581217,3,0.00810896,10,6.06528e-05,-3.23566,0.19317,0.305431,6.88093,0.104355,
2,1,0,1,0,4901.51,0.106171,0.105856,0.5886,3,0.00828954,10,6.23071e-05,-3.23018,0.214035,0.275656,6.3039,0.105856,
2,1,0,1,0,4901.8,0.10767,0.107373,0.596429,3,0.00847313,10,6.40403e-05,-3.22444,0.213386,0.276494,6.453,0.107373,
2,1,0,1,0,4902.1,0.109167,0.108891,0.607828,3,0.0086591,10,6.6187e-05,-3.21622,0.205679,0.286855,6.82251,0.108891,
2,1,0,1,0,4902.4,0.110665,0.110374,0.618061,3,0.00884878,10,6.8218e-05,-3.20897,0.195058,0.302473,7.28991,0.110374,
2,1,0,0,0,4902.7,0.112164,0.111837,0.627824,3,0.00904152,10,7.0214e-05,-3.20216,0.278749,0.21166,5.17929,0.111837,
2,1,0,0,0,4903,0.113662,0.11331,0.639367,3,0.00923709,10,7.24467e-05,-3.19425,0.246415,0.239434,5.95956,0.11331,
2,1,0,1,0,4903.3,0.115161,0.114834,0.648253,3,0.00943485,10,7.44415e-05,-3.18826,0.257155,0.229434,5.78161,0.114834,
2,1,0,1,0,4903.6,0.116658,0.116351,0.654587,3,0.00963567,10,7.6162e-05,-3.18403,0.232722,0.253521,6.4591,0.1163513,
2,1,0,1,0,4903.9,0.118156,0.117847,0.664697,3,0.00983947,10,7.83325e-05,-3.17738,0.268344,0.219867,5.69077,0.117847,
2,1,0,1,0,4904.2,0.119655,0.119353,0.672435,3,0.0100455,10,8.02573e-05,-3.17235,0.332514,0.177436,4.65832,0.119353,
2,1,0,1,0,4904.5,0.121153,0.120822,0.677656,3,0.0102533,10,8.18756e-05,-3.16899,0.28569,0.206517,5.47895,0.120822,
2,1,0,1,0,4904.8,0.122652,0.122333,0.686205,3,0.0104637,10,8.39458e-05,-3.16355,0.252114,0.234021,6.26822,0.122333,
2,1,0,1,0,4905.1,0.124149,0.123807,0.695496,3,0.0106765,10,8.61073e-05,-3.15771,0.293027,0.201347,5.45516,0.123807,
2,1,0,1,0,4905.4,0.125647,0.125342,0.703356,3,0.0108919,10,8.816e-05,-3.15283,0.344572,0.171227,4.69264,0.125342,
2,1,0,0,0,4905.7,0.127146,0.12684,0.705186,3,0.0111093,10,8.94456e-05,-3.1517,0.344807,0.17111,4.73762,0.12684,
2,1,0,0,0,4906,0.128644,0.128318,0.718774,3,0.0113287,10,9.22316e-05,-3.14341,0.359785,0.163987,4.59626,0.128318,
2,1,0,1,0,4906.3,0.130143,0.12985,0.72799,3,0.0115508,10,9.45293e-05,-3.13787,0.422975,0.139488,3.93223,0.1298496,
2,1,0,1,0,4906.6,0.131641,0.131327,0.731239,3,0.011775,10,9.60317e-05,-3.13594,0.712651,0.0827895,2.35002,0.131327,
2,1,0,1,0,4906.9,0.133138,0.132845,0.733017,3,0.0120002,10,9.73773e-05,-3.13489,1.1131,0.053005,1.51835,0.132845,
2,1,0,1,0,4907.2,0.134637,0.134346,0.735314,3,0.0122258,10,9.87867e-05,-3.13353,6.77607,0.00870712,0.249329,0.134346,
2,1,0,1,0,4907.5,0.136135,0.135817,0.735122,3,0.012452,10,9.98422e-05,-3.13364,-1.58503,-0.0372234,-1.06352,0.1358171,
2,1,0,1,0,4907.8,0.137633,0.137343,0.732014,3,0.0126774,10,0.000100537,-3.13548,-0.352348,-0.167448,-4.74278,0.137343,
2,1,0,1,0,4908.1,0.139132,0.138835,0.725753,3,0.0129011,10,0.00010076,-3.13921,-0.251474,-0.234616,-6.57749,0.138835,
2,1,0,1,0,4908.4,0.140629,0.140292,0.711357,3,0.0131213,10,9.97977e-05,-3.14791,-0.1951,-0.302409,-8.35707,0.140292,
2,1,0,1,0,4908.7,0.142127,0.141813,0.696469,3,0.0133378,10,9.87685e-05,-3.1571,-0.149154,-0.395564,-10.6812,0.141813,
2,1,0,0,0,4909,0.143626,0.1433,0.678124,3,0.0135498,10,9.71754e-05,-3.16869,-0.118017,-0.499929,-13.1681,0.1433,
2,1,0,0,0,4909.3,0.145124,0.144821,0.654685,3,0.0137553,10,9.48121e-05,-3.18397,-0.0893551,-0.660287,-16.8742,0.144821,
2,1,0,1,0,4909.6,0.146623,0.146315,0.627934,3,0.0139535,10,9.18763e-05,-3.20209,-0.0844069,-0.698995,-17.1745,0.146315,
2,1,0,1,0,4909.9,0.14812,0.147807,0.604038,3,0.0141441,10,8.92811e-05,-3.21894,-0.0822291,-0.717508,-16.8797,0.147807,
2,1,0,1,0,4910.19,0.149618,0.149276,0.577306,3,0.0143267,10,8.61781e-05,-3.23859,-0.0768091,-0.768138,-17.2816,0.149276,
2,1,0,1,0,4910.49,0.151117,0.150836,0.552727,3,0.0145016,10,8.33709e-05,-3.25749,-0.0749847,-0.786828,-16.9373,0.150836,
2,1,0,1,0,4910.79,0.152615,0.152301,0.524893,3,0.0146686,10,7.99418e-05,-3.27993,-0.076053,-0.775775,-15.9629,0.1523011,
2,1,0,1,0,4911.09,0.154114,0.153802,0.503445,3,0.0148283,10,7.7431e-05,-3.29805,-0.0764134,-0.772116,-15.2121,0.153802,
2,1,0,1,0,4911.39,0.155612,0.15533,0.482697,3,0.0149815,10,7.49772e-05,-3.31633,-0.0819023,-0.72037,-13.5698,0.15533,
2,1,0,1,0,4911.69,0.157109,0.156815,0.461901,3,0.0151288,10,7.2433e-05,-3.33545,-0.0808128,-0.730083,-13.1551,0.156815,
2,1,0,0,0,4911.99,0.158608,0.158305,0.444465,3,0.0152706,10,7.03611e-05,-3.35216,-0.0945152,-0.624238,-10.9098,0.158305,
2,1,0,0,0,4912.29,0.160106,0.159777,0.42925,3,0.0154068,10,6.85843e-05,-3.36729,-0.101101,-0.583576,-9.82903,0.159777,
2,1,0,1,0,4912.59,0.161605,0.161247,0.41726,3,0.0155393,10,6.7282e-05,-3.37959,-0.113881,-0.518084,-8.43705,0.1612471,
2,1,0,1,0,4912.89,0.163102,0.162806,0.404444,3,0.0156679,10,6.58457e-05,-3.39314,-0.123743,-0.476794,-7.52206,0.162806,
2,1,0,1,0,4913.19,0.1646,0.164272,0.393584,3,0.0157931,10,6.46548e-05,-3.40496,-0.128853,-0.457885,-7.0417,0.164272,
2,1,0,1,0,4913.49,0.166099,0.165753,0.383326,3,0.0159149,10,6.35376e-05,-3.41643,-0.142276,-0.414688,-6.21795,0.165753,
2,1,0,1,0,4913.79,0.167597,0.16731,0.374457,3,0.0160342,10,6.26505e-05,-3.4266,-0.177651,-0.332111,-4.86716,0.16731,
2,1,0,1,0,4914.09,0.169095,0.168814,0.367441,3,0.0161511,10,6.20291e-05,-3.43481,-0.170377,-0.34629,-4.98113,0.168814,
2,1,0,1,0,4914.39,0.170594,0.170291,0.361269,3,0.0162658,10,6.1521e-05,-3.44217,-0.19085,-0.309143,-4.37752,0.170291,
2,1,0,1,0,4914.69,0.172091,0.171802,0.353196,3,0.0163783,10,6.06798e-05,-3.45198,-0.21576,-0.273451,-3.78776,0.171802,
2,1,0,1,0,4914.99,0.173589,0.173291,0.349,3,0.0164892,10,6.04784e-05,-3.45717,-0.255773,-0.230674,-3.14511,0.173291,
2,1,0,0,0,4915.29,0.175088,0.174745,0.345279,3,0.0165985,10,6.03357e-05,-3.46183,-0.260872,-0.226165,-3.04216,0.174745,
2,1,0,0,0,4915.59,0.176586,0.176267,0.339842,3,0.0167064,10,5.9903e-05,-3.46872,-0.235462,-0.250571,-3.32101,0.176267,
2,1,0,1,0,4915.89,0.178085,0.17775,0.333821,3,0.0168129,10,5.93366e-05,-3.47649,-0.279644,-0.210982,-2.76753,0.17775,
2,1,0,1,0,4916.19,0.179582,0.179266,0.332866,3,0.0169179,10,5.96716e-05,-3.47773,-0.330482,-0.178527,-2.31254,0.179266,
2,1,0,1,0,4916.49,0.18108,0.180787,0.328221,3,0.0170221,10,5.93379e-05,-3.48383,-0.316917,-0.186168,-2.39042,0.180787,
2,1,0,1,0,4916.79,0.182579,0.182263,0.325278,3,0.0171255,10,5.92861e-05,-3.48775,-0.264031,-0.223459,-2.82663,0.1822629,
2,1,0,1,0,4917.09,0.184077,0.183789,0.322207,3,0.0172277,10,5.9218e-05,-3.49187,-0.358599,-0.164529,-2.07255,0.183789,
2,1,0,1,0,4917.39,0.185576,0.185262,0.319131,3,0.017329,10,5.9123e-05,-3.49603,-0.47109,-0.125242,-1.56319,0.185262,
2,1,0,1,0,4917.69,0.187074,0.18678,0.31718,3,0.0174296,10,5.9243e-05,-3.49869,-0.442177,-0.133431,-1.64626,0.18678,
2,1,0,1,0,4917.99,0.188571,0.188279,0.314035,3,0.0175297,10,5.91264e-05,-3.50302,-0.409291,-0.144152,-1.77231,0.188279,
2,1,0,0,0,4918.29,0.19007,0.189731,0.311622,3,0.0176289,10,5.91245e-05,-3.50637,-0.495055,-0.119179,-1.45523,0.189731,
2,1,0,0,0,4918.58,0.191568,0.191264,0.310424,3,0.0177273,10,5.93728e-05,-3.50804,-0.57592,-0.102445,-1.24042,0.191264,
2,1,0,1,0,4918.88,0.193067,0.192787,0.308608,3,0.0178255,10,5.94956e-05,-3.51059,-2.3912,-0.0246738,-0.296495,0.192787,
2,1,0,1,0,4919.18,0.194564,0.194269,0.305895,3,0.0179233,10,5.94259e-05,-3.51443,-0.773405,-0.076286,-0.914171,0.194269,
2,1,0,1,0,4919.48,0.196062,0.19577,0.303585,3,0.0180204,10,5.94328e-05,-3.51772,-0.564934,-0.104437,-1.24949,0.19577,
2,1,0,1,0,4919.78,0.197561,0.197274,0.301232,3,0.0181169,10,5.94253e-05,-3.5211,-0.656898,-0.0898161,-1.06248,0.197274,
2,1,0,1,0,4920.08,0.199059,0.198699,0.30191,3,0.0182129,10,5.99892e-05,-3.52012,-0.692585,-0.0851881,-0.999562,0.198699,
2,1,0,1,0,4920.38,0.200557,0.200212,0.301001,3,0.0183086,10,6.02641e-05,-3.52143,-0.798743,-0.0738661,-0.863138,0.200212,
2,1,0,1,0,4920.68,0.202056,0.201764,0.300861,3,0.0184038,10,6.07029e-05,-3.52163,-0.82337,-0.0716567,-0.835113,0.201764,
2,1,0,1,0,4920.98,0.203553,0.203284,0.296577,3,0.0184987,10,6.02895e-05,-3.52786,-1.24504,-0.0473879,-0.550015,0.203284,
2,1,0,1,0,4921.28,0.205051,0.204785,0.296425,3,0.018593,10,6.07033e-05,-3.52808,-3.65061,-0.0161617,-0.188985,0.204785,
2,1,0,0,0,4921.58,0.20655,0.206267,0.294759,3,0.0186871,10,6.07991e-05,-3.53053,-0.639379,-0.092277,-1.06598,0.206267,
2,1,0,0,0,4921.88,0.208048,0.207717,0.294043,3,0.0187812,10,6.10777e-05,-3.53159,-0.602701,-0.0978927,-1.11948,0.2077169,
2,1,0,1,0,4922.18,0.209547,0.209255,0.293189,3,0.0188746,10,6.13512e-05,-3.53285,-0.745812,-0.0791084,-0.904725,0.2092547,
2,1,0,1,0,4922.48,0.211044,0.21074,0.291927,3,0.0189674,10,6.15208e-05,-3.53473,-1.17132,-0.0503704,-0.574568,0.21074,
2,1,0,1,0,4922.78,0.212542,0.212237,0.29122,3,0.0190602,10,6.18076e-05,-3.53578,-1.31924,-0.0447228,-0.507381,0.212237,
2,1,0,1,0,4923.08,0.214041,0.213754,0.290567,3,0.0191528,10,6.21098e-05,-3.53675,-1.14035,-0.0517385,-0.587442,0.213754,
2,1,0,1,0,4923.38,0.215539,0.215217,0.2884,3,0.0192449,10,6.20686e-05,-3.54,-1.1378,-0.0518547,-0.583835,0.215217,
2,1,0,1,0,4923.68,0.217038,0.216721,0.288639,3,0.0193367,10,6.25542e-05,-3.53964,-1.4655,-0.0402592,-0.453759,0.216721,
2,1,0,1,0,4923.98,0.218535,0.218256,0.286676,3,0.0194282,10,6.25689e-05,-3.54261,-16.6692,-0.00353946,-0.0397243,0.218256,
2,1,0,1,0,4924.28,0.220033,0.219769,0.286552,3,0.0195197,10,6.29752e-05,-3.5428,-0.85991,-0.0686119,-0.767912,0.219769,
2,1,0,0,0,4924.58,0.221532,0.221247,0.284235,3,0.0196109,10,6.2886e-05,-3.54632,-0.938892,-0.06284,-0.702246,0.221247,
2,1,0,0,0,4924.88,0.22303,0.222744,0.28339,3,0.0197016,10,6.31233e-05,-3.54762,-0.869683,-0.0678408,-0.754068,0.222744,
2,1,0,1,0,4925.18,0.224529,0.224277,0.2841,3,0.0197922,10,6.37169e-05,-3.54653,-1.3561,-0.0435071,-0.480138,0.224277,
2,1,0,1,0,4925.48,0.226026,0.225705,0.2838,3,0.0198827,10,6.40551e-05,-3.54699,-2.33931,-0.0252211,-0.278581,0.225705,
2,1,0,1,0,4925.78,0.227524,0.227221,0.28218,3,0.0199728,10,6.4117e-05,-3.54947,-0.569524,-0.103595,-1.13972,0.227221,
2,1,0,1,0,4926.08,0.229023,0.228727,0.280949,3,0.0200628,10,6.42605e-05,-3.55137,-1.46486,-0.0402768,-0.443138,0.228727,
2,1,0,1,0,4926.38,0.230521,0.230233,0.281133,3,0.0201524,10,6.47259e-05,-3.55109,28.8432,0.00204555,0.0225591,0.230233,
2,1,0,1,0,4926.67,0.232019,0.231727,0.280395,3,0.020242,10,6.49749e-05,-3.55223,-1.38025,-0.0427459,-0.46835,0.231727,
2,1,0,1,0,4926.97,0.233518,0.233257,0.279949,3,0.0203316,10,6.53002e-05,-3.55292,-0.779712,-0.0756689,-0.824155,0.233257,
2,1,0,1,0,4927.27,0.235015,0.234699,0.278947,3,0.0204208,10,6.54686e-05,-3.55448,-1.77267,-0.0332832,-0.362743,0.234699,
2,1,0,1,0,4927.57,0.236513,0.236196,0.279703,3,0.0205097,10,6.60647e-05,-3.5533,-4.3448,-0.0135794,-0.147526,0.236196,
2,1,0,0,0,4927.87,0.238012,0.237773,0.278184,3,0.0205986,10,6.61446e-05,-3.55567,8.98351,0.00656759,0.0709717,0.237773,
2,1,0,0,0,4928.17,0.23951,0.239275,0.278182,3,0.0206874,10,6.65619e-05,-3.55567,-2.13954,-0.027576,-0.297975,0.239275,
2,1,0,1,0,4928.47,0.241009,0.240734,0.27656,3,0.0207759,10,6.65774e-05,-3.55821,-1.3019,-0.0453183,-0.49045,0.240734,
2,1,0,1,0,4928.77,0.242506,0.242195,0.275497,3,0.0208641,10,6.6724e-05,-3.55988,-1.90623,-0.0309511,-0.3338,0.242195,
2,1,0,1,0,4929.07,0.244004,0.243736,0.275446,3,0.0209523,10,6.71362e-05,-3.55996,17.8248,0.00330999,0.0356325,0.243736,
2,1,0,1,0,4929.37,0.245503,0.245203,0.275335,3,0.0210404,10,6.7513e-05,-3.56014,-4.60578,-0.01281,-0.138072,0.245203,
2,1,0,1,0,4929.67,0.247001,0.246749,0.275569,3,0.0211283,10,6.79964e-05,-3.55977,-1.10854,-0.0532233,-0.570713,0.246749,
2,1,0,1,0,4929.97,0.2485,0.248179,0.274097,3,0.021216,10,6.80251e-05,-3.5621,-1.92911,-0.030584,-0.327534,0.248179,
2,1,0,1,0,4930.27,0.249997,0.249719,0.274168,3,0.0213035,10,6.84648e-05,-3.56198,-2.21432,-0.0266448,-0.284903,0.2497187,
2,1,0,1,0,4930.57,0.251495,0.251235,0.274136,3,0.021391,10,6.88724e-05,-3.56203,-3.20875,-0.0183872,-0.196419,0.251235,
2,1,0,0,0,4930.87,0.252994,0.252698,0.273098,3,0.0214784,10,6.90115e-05,-3.56368,-0.682509,-0.0864457,-0.920243,0.252698,
2,1,0,0,0,4931.17,0.254492,0.254196,0.272156,3,0.0215656,10,6.91809e-05,-3.56518,-0.961513,-0.0613616,-0.656181,0.254196,
2,1,0,1,0,4931.47,0.255991,0.255685,0.272677,3,0.0216525,10,6.97193e-05,-3.56435,-12.9872,-0.00454292,-0.0484252,0.255685,
2,1,0,1,0,4931.77,0.257488,0.257218,0.271504,3,0.0217395,10,6.98358e-05,-3.56622,-1.191,-0.0495381,-0.525956,0.257218,
2,1,0,1,0,4932.07,0.258986,0.258666,0.273434,3,0.0218263,10,7.07282e-05,-3.56315,-1.33308,-0.0442583,-0.46901,0.258666,
2,1,0,1,0,4932.37,0.260485,0.260188,0.270645,3,0.021913,10,7.04187e-05,-3.5676,-6.37035,-0.00926166,-0.097875,0.260188,
2,1,0,1,0,4932.67,0.261983,0.261684,0.27094,3,0.0219993,10,7.09007e-05,-3.56713,-1.54634,-0.0381546,-0.402163,0.261684,
2,1,0,1,0,4932.97,0.263481,0.263176,0.269605,3,0.0220857,10,7.09537e-05,-3.56927,-5.3318,-0.0110657,-0.116269,0.263176,
2,1,0,1,0,4933.27,0.26498,0.264685,0.268491,3,0.0221719,10,7.10656e-05,-3.57107,-0.979835,-0.0602142,-0.633334,0.264685,
2,1,0,1,0,4933.57,0.266477,0.266172,0.268023,3,0.0222579,10,7.13402e-05,-3.57183,25.0728,0.00235315,0.0247086,0.266172,
2,1,0,0,0,4933.87,0.267976,0.267679,0.266748,3,0.0223437,10,7.14028e-05,-3.5739,-1.2261,-0.04812,-0.504282,0.267679,
2,1,0,0,0,4934.17,0.269474,0.269193,0.2673,3,0.0224294,10,7.19554e-05,-3.573,2.28964,0.0257683,0.268889,0.2691929,
2,1,0,0,0,4934.47,0.270972,0.270689,0.269644,3,0.0225151,10,7.29898e-05,-3.56921,-3.07686,-0.0191754,-0.199727,0.270689,
2,1,0,1,0,4934.77,0.27247,0.272161,0.267484,3,0.0226008,10,7.27989e-05,-3.5727,-2.36081,-0.0249915,-0.259734,0.272161,
2,1,0,1,0,4935.06,0.273968,0.273677,0.264627,3,0.0226862,10,7.24223e-05,-3.57737,-1.90895,-0.0309071,-0.322097,0.273677,
2,1,0,1,0,4935.36,0.275466,0.275169,0.266342,3,0.0227714,10,7.32891e-05,-3.57456,-3.77867,-0.015614,-0.162452,0.275169,
2,1,0,1,0,4935.66,0.276965,0.276676,0.266632,3,0.0228566,10,7.37707e-05,-3.57409,-7.35967,-0.00801666,-0.0831907,0.276676,
2,1,0,1,0,4935.96,0.278463,0.278218,0.26594,3,0.0229418,10,7.39893e-05,-3.57522,-1.22973,-0.0479782,-0.498158,0.278218,
2,1,0,1,0,4936.26,0.279962,0.279717,0.266106,3,0.0230269,10,7.44344e-05,-3.57494,-4.60279,-0.0128183,-0.1327,0.279717,
2,1,0,1,0,4936.56,0.281459,0.281137,0.265501,3,0.0231116,10,7.46419e-05,-3.57593,-2.35896,-0.0250111,-0.259347,0.281137,
2,1,0,1,0,4936.86,0.282957,0.282636,0.265035,3,0.0231964,10,7.49087e-05,-3.5767,-5.99429,-0.0098427,-0.101505,0.2826364,
2,1,0,0,0,4937.16,0.284456,0.284183,0.265588,3,0.0232811,10,7.54756e-05,-3.57579,-1.79438,-0.0328805,-0.339032,0.284183,
2,1,0,0,0,4937.46,0.285954,0.285683,0.264984,3,0.0233657,10,7.57016e-05,-3.57678,-1.52897,-0.038588,-0.397494,0.285683,
2,1,0,0,0,4937.76,0.287452,0.287174,0.264007,3,0.0234499,10,7.5816e-05,-3.57838,-2.27749,-0.0259057,-0.266834,0.287174,
2,1,0,1,0,4938.06,0.28895,0.288675,0.262735,3,0.0235343,10,7.58449e-05,-3.58048,20.0435,0.00294359,0.0302204,0.288675,
2,1,0,1,0,4938.36,0.290448,0.29016,0.262224,3,0.0236185,10,7.60869e-05,-3.58133,-1.61952,-0.0364306,-0.375001,0.29016,
2,1,0,1,0,4938.66,0.291947,0.291667,0.262206,3,0.0237027,10,7.6477e-05,-3.58136,-1.52913,-0.038584,-0.395779,0.291667,
2,1,0,1,0,4938.96,0.293445,0.293153,0.261078,3,0.0237865,10,7.65359e-05,-3.58323,-17.9122,-0.00329384,-0.0338025,0.293153,
2,1,0,1,0,4939.26,0.294943,0.29465,0.261359,3,0.0238703,10,7.70094e-05,-3.58276,-2.03333,-0.0290164,-0.29601,0.29465,
2,1,0,1,0,4939.56,0.296442,0.296123,0.263348,3,0.0239542,10,7.79834e-05,-3.57947,-3.31559,-0.0177947,-0.180905,0.296123,
2,1,0,1,0,4939.86,0.297939,0.297659,0.261703,3,0.0240379,10,7.78985e-05,-3.58219,-1.51242,-0.0390102,-0.396984,0.297659,
2,1,0,1,0,4940.16,0.299437,0.299201,0.25947,3,0.0241214,10,7.76337e-05,-3.58591,-0.00222003,-26.5763,-121.857,0.299201,
2,1,0,1,0,4940.33,0.299737,0.299434,0.0836245,3,0.0241581,10,2.504e-05,-4.07767,0.000864613,68.2386,200.482,0.299434,
2,1,0,1,0,4940.63,0.29824,0.29791,0.0174283,3,0.024164,10,5.19207e-06,-4.75874,0.00229476,25.7107,71.0661,0.29791,
2,1,0,0,0,4940.93,0.296741,0.296488,0.000941465,3,0.024161,10,2.79133e-07,-6.0262,0.0181381,3.25281,10.0572,0.296488,
2,0,0,0,0,4941.23,0.295243,0.294974,-0.0111844,3,0.0241539,10,-3.29909e-06,-4.95139,-0.00502771,-11.735,6.15785,0.294974,
2,0,0,1,0,4941.53,0.293744,0.293425,-0.0196376,3,0.024144,10,-5.76216e-06,-4.70691,-0.006921,-8.52478,5.33836,0.293425,
2,0,0,1,0,4941.83,0.292246,0.291944,-0.0274547,3,0.0241319,10,-8.01525e-06,-4.56138,-0.0129916,-4.54138,4.44433,0.291944,
2,0,0,1,0,4942.13,0.290749,0.290431,-0.0328152,3,0.0241176,10,-9.53057e-06,-4.48392,-0.0176023,-3.35184,4.19485,0.290431,
2,0,0,1,0,4942.43,0.28925,0.288945,-0.0391727,3,0.0241014,10,-1.13188e-05,-4.40702,-0.0250787,-2.3526,3.38209,0.288945,
2,0,0,1,0,4942.73,0.287752,0.287427,-0.0437648,3,0.0240837,10,-1.25792e-05,-4.35887,-0.0346395,-1.70326,2.94356,0.287427,
2,0,0,1,0,4943.03,0.286253,0.28599,-0.0462822,3,0.0240647,10,-1.32363e-05,-4.33459,-0.0341319,-1.72859,3.20235,0.28599,
2,0,0,1,0,4943.33,0.284755,0.284501,-0.0514944,3,0.0240442,10,-1.46502e-05,-4.28824,-0.0345771,-1.70633,3.47867,0.284501,
2,0,0,1,0,4943.62,0.283257,0.282955,-0.0569719,3,0.0240222,10,-1.61205e-05,-4.24434,-0.0533321,-1.10628,2.43595,0.282955,
2,0,0,0,0,4943.92,0.281759,0.28147,-0.0599866,3,0.0239992,10,-1.68844e-05,-4.22195,-0.0600061,-0.983234,2.31707,0.28147,
2,0,0,0,0,4944.22,0.280261,0.27996,-0.0629768,3,0.0239751,10,-1.7631e-05,-4.20082,-0.066099,-0.8926,2.20623,0.27996,
2,0,0,0,0,4944.52,0.278763,0.278482,-0.067254,3,0.02395,10,-1.8729e-05,-4.17228,-0.0673665,-0.875806,2.2677,0.278482,
2,0,0,1,0,4944.82,0.277264,0.276915,-0.0703203,3,0.0239237,10,-1.94727e-05,-4.15292,-0.0691286,-0.853481,2.34666,0.276915,
2,0,0,1,0,4945.12,0.275766,0.275484,-0.0740184,3,0.0238965,10,-2.03909e-05,-4.13066,-0.103554,-0.569752,1.62764,0.275484,
2,0,0,1,0,4945.42,0.274269,0.273995,-0.0766884,3,0.0238684,10,-2.10122e-05,-4.11527,-0.098006,-0.602004,1.81339,0.273995,
2,0,0,1,0,4945.72,0.27277,0.272494,-0.0799244,3,0.0238395,10,-2.17789e-05,-4.09732,-0.0952127,-0.619665,1.93703,0.272494,
2,0,0,1,0,4946.02,0.271272,0.270975,-0.0825937,3,0.0238096,10,-2.23809e-05,-4.08305,-0.0959593,-0.614844,1.99707,0.270975,
2,0,0,1,0,4946.32,0.269773,0.269474,-0.0857862,3,0.0237788,10,-2.31171e-05,-4.06658,-0.123118,-0.479214,1.58766,0.269474,
2,0,0,1,0,4946.62,0.268275,0.267974,-0.0893669,3,0.023747,10,-2.3948e-05,-4.04882,-0.12356,-0.477501,1.64483,0.267974,
2,0,0,1,0,4946.92,0.266778,0.266443,-0.0908068,3,0.0237147,10,-2.41948e-05,-4.04188,-0.117984,-0.500069,1.77795,0.266443,
2,0,0,0,0,4947.22,0.265279,0.264982,-0.0946135,3,0.0236816,10,-2.50709e-05,-4.02405,-0.113639,-0.519186,1.87961,0.264982,
2,0,0,0,0,4947.52,0.263781,0.263466,-0.0964362,3,0.0236476,10,-2.54076e-05,-4.01576,-0.13621,-0.433156,1.63989,0.263466,
2,0,0,1,0,4947.82,0.262282,0.261944,-0.0989119,3,0.023613,10,-2.59093e-05,-4.00475,-0.140956,-0.41857,1.62331,0.261944,
2,0,0,1,0,4948.12,0.260784,0.260503,-0.0998474,3,0.0235778,10,-2.60105e-05,-4.00066,-0.167657,-0.351909,1.37516,0.260503,
2,0,0,1,0,4948.42,0.259286,0.25898,-0.103996,3,0.0235418,10,-2.6933e-05,-3.98298,-0.119463,-0.493878,1.98999,0.25898,
2,0,0,1,0,4948.72,0.257788,0.257479,-0.106585,3,0.023505,10,-2.74433e-05,-3.9723,-0.161246,-0.3659,1.51205,0.257479,
2,0,0,1,0,4949.02,0.25629,0.256021,-0.108957,3,0.0234674,10,-2.78951e-05,-3.96275,-0.150107,-0.393053,1.64593,0.256021,
2,0,0,1,0,4949.32,0.254791,0.254486,-0.109704,3,0.0234293,10,-2.79182e-05,-3.95978,-0.151019,-0.390678,1.68441,0.254486,
2,0,0,1,0,4949.62,0.253293,0.252986,-0.112519,3,0.0233906,10,-2.84657e-05,-3.94878,-0.170569,-0.345901,1.52377,0.252986,
2,0,0,1,0,4949.92,0.251795,0.251481,-0.114263,3,0.0233511,10,-2.8735e-05,-3.94209,-0.170525,-0.345991,1.55075,0.251481,
2,0,0,0,0,4950.22,0.250297,0.249954,-0.115439,3,0.0233111,10,-2.88545e-05,-3.93765,-0.286772,-0.205739,0.93548,0.249954,
2,0,0,0,0,4950.52,0.248799,0.248456,-0.118229,3,0.0232704,10,-2.93747e-05,-3.92728,-0.181795,-0.324541,1.50296,0.2484556,
2,0,0,0,0,4950.82,0.247301,0.246943,-0.120545,3,0.0232292,10,-2.97678e-05,-3.91885,-0.185553,-0.317968,1.50836,0.246943,
2,0,0,1,0,4951.12,0.245802,0.245521,-0.122964,3,0.0231872,10,-3.01903e-05,-3.91022,-0.155136,-0.380312,1.82552,0.245521,
2,0,0,1,0,4951.42,0.244304,0.244006,-0.124632,3,0.0231445,10,-3.04111e-05,-3.90437,-0.224565,-0.26273,1.27323,0.244006,
2,0,0,1,0,4951.72,0.242806,0.242535,-0.126524,3,0.0231013,10,-3.06866e-05,-3.89783,-0.194544,-0.303273,1.50178,0.242535,
2,0,0,1,0,4952.01,0.241308,0.241004,-0.128743,3,0.0230578,10,-3.10275e-05,-3.89028,-0.219922,-0.268277,1.35372,0.241004,
2,0,0,1,0,4952.31,0.23981,0.239528,-0.131842,3,0.0230135,10,-3.15799e-05,-3.87995,-0.152587,-0.386665,1.9735,0.239528,
2,0,0,1,0,4952.61,0.238311,0.238017,-0.132649,3,0.0229685,10,-3.15726e-05,-3.8773,-0.195952,-0.301095,1.56257,0.238017,
2,0,0,1,0,4952.91,0.236813,0.23652,-0.134726,3,0.022923,10,-3.18654e-05,-3.87055,-0.206469,-0.285757,1.51017,0.23652,
2,0,0,1,0,4953.21,0.235316,0.235015,-0.136003,3,0.0228771,10,-3.19628e-05,-3.86645,-0.220771,-0.267245,1.42268,0.235015,
2,0,0,0,0,4953.51,0.233817,0.23351,-0.138974,3,0.0228305,10,-3.24518e-05,-3.85707,-0.212134,-0.278126,1.50119,0.23351,
2,0,0,0,0,4953.81,0.232319,0.232001,-0.14106,3,0.0227834,10,-3.27261e-05,-3.8506,-0.314505,-0.187596,1.02969,0.232001,
2,0,0,1,0,4954.11,0.23082,0.230528,-0.143433,3,0.0227356,10,-3.30653e-05,-3.84335,-0.291482,-0.202414,1.12458,0.230528,
2,0,0,1,0,4954.41,0.229322,0.228993,-0.142107,3,0.0226874,10,-3.25414e-05,-3.84739,-0.283944,-0.207788,1.17009,0.228993,
2,0,0,1,0,4954.71,0.227825,0.227498,-0.145243,3,0.0226387,10,-3.30426e-05,-3.8379,-0.289889,-0.203526,1.1604,0.227498,
2,0,0,1,0,4955.01,0.226326,0.226032,-0.146905,3,0.0225893,10,-3.32053e-05,-3.83296,-0.228449,-0.258263,1.49679,0.226032,
2,0,0,1,0,4955.31,0.224828,0.224534,-0.148267,3,0.0225394,10,-3.32909e-05,-3.82896,-0.418093,-0.141117,0.818692,0.224534,
2,0,0,1,0,4955.61,0.223329,0.22304,-0.152054,3,0.0224888,10,-3.39142e-05,-3.818,-0.376705,-0.156621,0.921346,0.22304,
2,0,0,1,0,4955.91,0.221831,0.221536,-0.153848,3,0.0224379,10,-3.40829e-05,-3.81291,-0.293526,-0.201004,1.19929,0.221536,
2,0,0,1,0,4956.21,0.220333,0.220056,-0.154962,3,0.0223863,10,-3.41002e-05,-3.80978,-0.248462,-0.237461,1.42763,0.220056,
2,0,0,0,0,4956.51,0.218835,0.218533,-0.157098,3,0.022334,10,-3.4331e-05,-3.80383,-0.28573,-0.206489,1.26755,0.218533,
2,0,0,0,0,4956.81,0.217337,0.217024,-0.158333,3,0.0222813,10,-3.43621e-05,-3.80043,-0.44958,-0.131233,0.812074,0.217024,
2,0,0,0,0,4957.11,0.215839,0.215549,-0.158916,3,0.0222282,10,-3.42542e-05,-3.79883,-0.267541,-0.220527,1.38171,0.215549,
2,0,0,1,0,4957.41,0.21434,0.214062,-0.163253,3,0.0221744,10,-3.49462e-05,-3.78714,-0.19557,-0.301682,1.903,0.214062,
2,0,0,1,0,4957.71,0.212842,0.212523,-0.165241,3,0.0221197,10,-3.51175e-05,-3.78188,-0.277367,-0.212715,1.36762,0.212523,
2,0,0,1,0,4958.01,0.211344,0.211048,-0.166884,3,0.0220646,10,-3.52205e-05,-3.77759,-0.305936,-0.192851,1.25245,0.211048,
2,0,0,1,0,4958.31,0.209846,0.209544,-0.16657,3,0.022009,10,-3.49038e-05,-3.7784,-0.297933,-0.198031,1.30253,0.209544,
2,0,0,1,0,4958.61,0.208348,0.208034,-0.17068,3,0.0219528,10,-3.55072e-05,-3.76782,-0.242344,-0.243455,1.61909,0.208034,
2,0,0,1,0,4958.91,0.206849,0.206558,-0.17547,3,0.0218957,10,-3.62448e-05,-3.7558,-0.263654,-0.223778,1.50416,0.206558,
2,0,0,1,0,4959.21,0.205351,0.205041,-0.173649,3,0.0218379,10,-3.5605e-05,-3.76033,-0.334872,-0.176187,1.19992,0.205041,
2,0,0,1,0,4959.51,0.203854,0.203528,-0.17671,3,0.0217797,10,-3.59653e-05,-3.75274,-0.374233,-0.157656,1.09157,0.203528,
2,0,0,0,0,4959.81,0.202355,0.202051,-0.178788,3,0.021721,10,-3.61242e-05,-3.74766,-0.271071,-0.217655,1.52611,0.202051,
2,0,0,0,0,4960.11,0.200857,0.200549,-0.181479,3,0.0216614,10,-3.63953e-05,-3.74117,-0.297689,-0.198193,1.40648,0.200549,
2,0,0,1,0,4960.4,0.199358,0.199037,-0.183635,3,0.0216012,10,-3.65502e-05,-3.73604,-0.429216,-0.13746,0.982412,0.199037,
2,0,0,1,0,4960.7,0.19786,0.197567,-0.185898,3,0.0215403,10,-3.67272e-05,-3.73073,-0.337948,-0.174583,1.26144,0.197567,
2,0,0,1,0,4961,0.196363,0.196034,-0.188357,3,0.0214789,10,-3.69242e-05,-3.72502,-0.24712,-0.238751,1.75014,0.196034,
2,0,0,1,0,4961.3,0.194864,0.194567,-0.191055,3,0.0214166,10,-3.71729e-05,-3.71884,-0.206026,-0.286372,2.12705,0.194567,
2,0,0,1,0,4961.6,0.193366,0.193013,-0.193767,3,0.0213533,10,-3.73996e-05,-3.71272,-0.251793,-0.23432,1.76955,0.193013,
2,0,0,1,0,4961.9,0.191867,0.19158,-0.195243,3,0.0212893,10,-3.74046e-05,-3.70943,-0.274326,-0.215072,1.65003,0.19158,
2,0,0,1,0,4962.2,0.190369,0.190031,-0.19801,3,0.0212246,10,-3.7628e-05,-3.70331,-0.269512,-0.218914,1.69856,0.190031,
2,0,0,1,0,4962.5,0.188871,0.188578,-0.203249,3,0.0211588,10,-3.83282e-05,-3.69197,-0.16336,-0.361166,2.84051,0.188578,
2,0,0,0,0,4962.8,0.187373,0.18705,-0.205448,3,0.0210922,10,-3.8429e-05,-3.6873,-0.239731,-0.246109,1.96717,0.18705,
2,0,0,0,0,4963.1,0.185875,0.185569,-0.209079,3,0.0210247,10,-3.87986e-05,-3.67969,-0.20254,-0.291301,2.36276,0.185569,
2,0,0,0,0,4963.4,0.184377,0.184099,-0.209364,3,0.0209563,10,-3.85439e-05,-3.6791,-0.211199,-0.279357,2.29754,0.1840995,
2,0,0,1,0,4963.7,0.182878,0.182607,-0.214022,3,0.0208869,10,-3.9082e-05,-3.66954,-0.217486,-0.271282,2.27578,0.182607,
2,0,0,1,0,4964,0.181381,0.181119,-0.219456,3,0.0208163,10,-3.97477e-05,-3.65865,-0.185757,-0.31762,2.69618,0.181119,
2,0,0,1,0,4964.3,0.179882,0.17961,-0.221031,3,0.0207445,10,-3.96993e-05,-3.65555,-0.290156,-0.203339,1.75532,0.17961,
2,0,0,1,0,4964.6,0.178384,0.178099,-0.226238,3,0.0206716,10,-4.02927e-05,-3.64543,-0.217073,-0.271798,2.41079,0.178099,
2,0,0,1,0,4964.9,0.176886,0.176566,-0.230944,3,0.0205978,10,-4.07769e-05,-3.63649,-0.206217,-0.286107,2.58593,0.176566,
2,0,0,1,0,4965.2,0.175387,0.175054,-0.236361,3,0.0205223,10,-4.1376e-05,-3.62642,-0.169502,-0.348078,3.20279,0.175054,
2,0,0,1,0,4965.5,0.173889,0.17357,-0.241588,3,0.0204453,10,-4.19323e-05,-3.61693,-0.136811,-0.431251,4.04984,0.17357,
2,0,0,1,0,4965.8,0.172392,0.172076,-0.24658,3,0.0203668,10,-4.24306e-05,-3.60804,-0.154056,-0.382979,3.68395,0.172076,
2,0,0,0,0,4966.1,0.170893,0.170602,-0.25221,3,0.0202868,10,-4.30274e-05,-3.59824,-0.143297,-0.411734,4.04171,0.170602,
2,0,0,0,0,4966.4,0.169395,0.169089,-0.259085,3,0.0202047,10,-4.38086e-05,-3.58656,-0.122203,-0.482803,4.85864,0.169089,
2,0,0,1,0,4966.7,0.167896,0.167619,-0.265491,3,0.0201207,10,-4.45014e-05,-3.57595,-0.127569,-0.462495,4.79239,0.167619,
2,0,0,1,0,4967,0.166398,0.166085,-0.272459,3,0.0200347,10,-4.52515e-05,-3.5647,-0.126145,-0.467715,4.9921,0.166085,
2,0,0,1,0,4967.3,0.164901,0.164577,-0.278063,3,0.0199467,10,-4.57627e-05,-3.55586,-0.1193,-0.49455,5.42161,0.1645766,
2,0,0,1,0,4967.6,0.163402,0.163114,-0.28776,3,0.019856,10,-4.69376e-05,-3.54097,-0.100987,-0.584231,6.55876,0.163114,
2,0,0,1,0,4967.9,0.161904,0.16157,-0.298535,3,0.0197626,10,-4.82344e-05,-3.525,-0.107633,-0.548159,6.37989,0.16157,
2,0,0,1,0,4968.2,0.160405,0.16009,-0.308379,3,0.0196662,10,-4.93686e-05,-3.51091,-0.103165,-0.571899,6.87555,0.16009,
2,0,0,1,0,4968.49,0.158907,0.158591,-0.317042,3,0.0195665,10,-5.02802e-05,-3.49888,-0.0937561,-0.629292,7.86848,0.158591,
2,0,0,1,0,4968.79,0.157409,0.157102,-0.331179,3,0.0194634,10,-5.20288e-05,-3.47994,-0.0864169,-0.682737,8.89464,0.157102,
2,0,0,0,0,4969.09,0.155911,0.155574,-0.346257,3,0.019356,10,-5.38684e-05,-3.4606,-0.0811035,-0.727465,9.87258,0.155574,
2,0,0,0,0,4969.39,0.154413,0.154092,-0.36118,3,0.0192441,10,-5.5655e-05,-3.44228,-0.0829487,-0.711283,10.0547,0.154092,
2,0,0,0,0,4969.69,0.152915,0.152612,-0.378973,3,0.0191276,10,-5.78358e-05,-3.42139,-0.0783457,-0.753072,11.1507,0.152612,
2,0,0,1,0,4969.99,0.151416,0.151116,-0.397489,3,0.0190061,10,-6.00671e-05,-3.40067,-0.0725926,-0.812755,12.5801,0.1511164,
2,0,0,1,0,4970.29,0.149919,0.149596,-0.417311,3,0.0188786,10,-6.24281e-05,-3.37954,-0.0681963,-0.86515,14.0618,0.149596,
2,0,0,1,0,4970.59,0.14842,0.148154,-0.438482,3,0.0187448,10,-6.49627e-05,-3.35805,-0.066331,-0.889478,15.2506,0.148154,
2,0,0,1,0,4970.89,0.146922,0.146601,-0.461577,3,0.0186041,10,-6.76679e-05,-3.33576,-0.063593,-0.927775,16.7492,0.146601,
2,0,0,1,0,4971.19,0.145424,0.145134,-0.485801,3,0.0184565,10,-7.05062e-05,-3.31354,-0.0648432,-0.909887,17.3007,0.145134,
2,0,0,1,0,4971.49,0.143925,0.143629,-0.513498,3,0.0183007,10,-7.37531e-05,-3.28946,-0.0636276,-0.927271,18.5236,0.143629,
2,0,0,1,0,4971.79,0.142427,0.1421,-0.539158,3,0.0181367,10,-7.66143e-05,-3.26828,-0.0672847,-0.876871,18.5181,0.1421,
2,0,0,1,0,4972.09,0.14093,0.140618,-0.567592,3,0.0179646,10,-7.98135e-05,-3.24596,-0.0766141,-0.770093,17.0811,0.140618,
2,0,0,0,0,4972.39,0.139431,0.139164,-0.592245,3,0.0177845,10,-8.24191e-05,-3.2275,-0.0765696,-0.77054,17.8452,0.139164,
2,0,0,0,0,4972.69,0.137933,0.13759,-0.621136,3,0.0175967,10,-8.54622e-05,-3.20681,-0.0859726,-0.686265,16.5285,0.1375901,
2,0,0,1,0,4972.99,0.136434,0.136086,-0.645812,3,0.017401,10,-8.7886e-05,-3.18989,-0.0994453,-0.593291,14.8507,0.136086,
2,0,0,1,0,4973.29,0.134936,0.134653,-0.665823,3,0.0171987,10,-8.9655e-05,-3.17664,-0.124011,-0.475765,12.3015,0.134653,
2,0,0,1,0,4973.59,0.133439,0.133136,-0.684442,3,0.0169902,10,-9.11236e-05,-3.16466,-0.130874,-0.450814,12.0229,0.133136,
2,0,0,1,0,4973.89,0.13194,0.13166,-0.700905,3,0.0167767,10,-9.22814e-05,-3.15434,-0.153253,-0.384984,10.5432,0.1316603,
2,0,0,1,0,4974.19,0.130442,0.130121,-0.714908,3,0.0165584,10,-9.30243e-05,-3.14575,-0.186567,-0.31624,8.81369,0.130121,
2,0,0,1,0,4974.49,0.128943,0.128659,-0.728353,3,0.0163359,10,-9.37092e-05,-3.13766,-0.28925,-0.203976,5.75347,0.1286591,
2,0,0,1,0,4974.79,0.127445,0.12714,-0.736157,3,0.0161108,10,-9.35948e-05,-3.13303,-0.414902,-0.142202,4.06646,0.12714,
2,0,0,1,0,4975.09,0.125947,0.125627,-0.740024,3,0.0158843,10,-9.29668e-05,-3.13075,-0.569554,-0.10359,2.98837,0.125627,
2,0,0,0,0,4975.39,0.124449,0.124122,-0.7444,3,0.0156562,10,-9.23963e-05,-3.12819,-1.01098,-0.0583593,1.68641,0.124122,
2,0,0,0,0,4975.69,0.122951,0.12264,-0.745797,3,0.0154274,10,-9.14649e-05,-3.12738,12.2102,0.00483201,-0.13991,0.12264,
2,0,0,0,0,4975.99,0.121453,0.121139,-0.745063,3,0.0151987,10,-9.02561e-05,-3.12781,2.52501,0.0233663,-0.677102,0.121139,
2,0,0,1,0,4976.29,0.119954,0.119671,-0.739586,3,0.014971,10,-8.85071e-05,-3.13101,0.789391,0.0747411,-2.15922,0.119671,
2,0,0,1,0,4976.59,0.118456,0.118158,-0.737608,3,0.0147438,10,-8.71547e-05,-3.13217,1.15128,0.0512473,-1.47185,0.118158,
2,0,0,1,0,4976.88,0.116958,0.116633,-0.73417,3,0.0145176,10,-8.56287e-05,-3.1342,0.626977,0.0941024,-2.69066,0.116633,
2,0,0,1,0,4977.18,0.11546,0.115112,-0.727797,3,0.0142928,10,-8.37778e-05,-3.13799,0.374371,0.157598,-4.46128,0.1151116,
2,0,0,1,0,4977.48,0.113962,0.113668,-0.716464,3,0.0140701,10,-8.14393e-05,-3.14481,0.377505,0.15629,-4.39588,0.113668,
2,0,0,1,0,4977.78,0.112463,0.112169,-0.714692,3,0.0138495,10,-8.01661e-05,-3.14588,0.35564,0.165898,-4.62883,0.112169,
2,0,0,1,0,4978.08,0.110965,0.110641,-0.70856,3,0.0136304,10,-7.83957e-05,-3.14962,0.354591,0.166389,-4.59154,0.1106409,
2,0,0,1,0,4978.38,0.109468,0.109176,-0.70096,3,0.0134133,10,-7.65279e-05,-3.15431,0.272669,0.216379,-5.90075,0.109176,
2,0,0,0,0,4978.68,0.107969,0.107665,-0.692398,3,0.0131983,10,-7.45473e-05,-3.15964,0.305682,0.193011,-5.22948,0.107665,
2,0,0,0,0,4978.98,0.106471,0.106183,-0.684729,3,0.0129862,10,-7.27066e-05,-3.16448,0.31922,0.184825,-4.96307,0.106183,
2,0,0,1,0,4979.28,0.104972,0.104626,-0.678428,3,0.0127758,10,-7.09812e-05,-3.1685,0.300425,0.196388,-5.19171,0.104626,
2,0,0,1,0,4979.58,0.103474,0.10315,-0.670363,3,0.0125675,10,-6.91481e-05,-3.17369,0.279065,0.21142,-5.52318,0.10315,
2,0,0,1,0,4979.88,0.101977,0.101687,-0.662841,3,0.0123619,10,-6.74024e-05,-3.17859,0.263438,0.223962,-5.79366,0.1016872,
2,0,0,1,0,4980.18,0.100478,0.100155,-0.654488,3,0.0121589,10,-6.555e-05,-3.1841,0.277382,0.212703,-5.42971,0.100155,
2,0,0,1,0,4980.48,0.0989799,0.0986573,-0.647316,3,0.0119582,10,-6.38625e-05,-3.18888,0.330593,0.178467,-4.50541,0.0986573,
2,0,0,1,0,4980.78,0.0974812,0.0972104,-0.639947,3,0.0117597,10,-6.22095e-05,-3.19386,0.278569,0.211797,-5.28454,0.0972104,
2,0,0,1,0,4981.08,0.0959834,0.0956838,-0.630075,3,0.0115636,10,-6.0288e-05,-3.20061,0.278896,0.211549,-5.21529,0.0956838,
2,0,0,1,0,4981.38,0.0944855,0.0942186,-0.621453,3,0.0113702,10,-5.85524e-05,-3.20659,0.294593,0.200276,-4.8794,0.0942186,
2,0,0,0,0,4981.68,0.0929871,0.09272,-0.61495,3,0.0111789,10,-5.70181e-05,-3.21116,0.331303,0.178085,-4.2821,0.09272,
2,0,0,0,0,4981.98,0.0914889,0.0911729,-0.611519,3,0.0109893,10,-5.5754e-05,-3.21359,0.288093,0.204795,-4.86785,0.0911729,
2,0,0,0,0,4982.28,0.0899907,0.0896502,-0.603238,3,0.0108021,10,-5.40804e-05,-3.21951,0.265688,0.222065,-5.2024,0.0896502,
2,0,0,1,0,4982.58,0.0884923,0.0882056,-0.591584,3,0.0106171,10,-5.21811e-05,-3.22798,0.330047,0.178762,-4.14895,0.08820565,
2,0,0,1,0,4982.88,0.0869946,0.0867014,-0.587944,3,0.0104344,10,-5.09756e-05,-3.23066,0.329024,0.179318,-4.11992,0.0867014,
2,0,0,1,0,4983.18,0.0854962,0.085188,-0.582363,3,0.0102532,10,-4.96103e-05,-3.23481,0.328071,0.179839,-4.08555,0.085188,
2,0,0,1,0,4983.48,0.083998,0.0836971,-0.577128,3,0.0100737,10,-4.83039e-05,-3.23873,0.2922,0.201917,-4.52966,0.0836971,
2,0,0,1,0,4983.78,0.0824998,0.0822337,-0.572198,3,0.0098958,10,-4.7054e-05,-3.24245,0.345962,0.170539,-3.8039,0.08223369,
2,0,0,1,0,4984.08,0.0810014,0.0807086,-0.565385,3,0.00971995,10,-4.56315e-05,-3.24766,0.441677,0.133582,-2.96266,0.0807086,
2,0,0,1,0,4984.38,0.0795035,0.0792267,-0.560988,3,0.00954533,10,-4.44452e-05,-3.25105,0.401142,0.14708,-3.22155,0.0792267,
2,0,0,1,0,4984.68,0.0780056,0.0776912,-0.557626,3,0.0093718,10,-4.33226e-05,-3.25366,0.409634,0.144031,-3.128,0.0776912,
2,0,0,0,0,4984.98,0.076507,0.0761851,-0.5529,3,0.00919971,10,-4.21227e-05,-3.25735,0.436499,0.135166,-2.91826,0.07618513,
2,0,0,0,0,4985.27,0.0750088,0.0747546,-0.548552,3,0.00902946,10,-4.10068e-05,-3.26078,0.502286,0.117463,-2.51568,0.0747546,
2,0,0,1,0,4985.57,0.0735103,0.0732505,-0.544114,3,0.00885993,10,-3.98566e-05,-3.26431,0.629649,0.093703,-1.99053,0.07325048,
2,0,0,1,0,4985.87,0.0720124,0.0716741,-0.54011,3,0.00869161,10,-3.87119e-05,-3.26752,0.43038,0.137088,-2.89268,0.0716741,
2,0,0,1,0,4986.17,0.0705146,0.0702249,-0.536368,3,0.00852461,10,-3.76664e-05,-3.27054,0.471789,0.125056,-2.62065,0.0702249,
2,0,0,1,0,4986.47,0.0690161,0.0686817,-0.530197,3,0.00835887,10,-3.64148e-05,-3.27556,0.535135,0.110253,-2.28899,0.0686817,
2,0,0,1,0,4986.77,0.0675179,0.0671611,-0.528867,3,0.00819422,10,-3.55193e-05,-3.27665,0.494857,0.119226,-2.45789,0.0671611,
2,0,0,1,0,4987.07,0.0660192,0.0657005,-0.527628,3,0.00803057,10,-3.46654e-05,-3.27767,0.452125,0.130495,-2.67079,0.0657005,
2,0,0,1,0,4987.37,0.0645214,0.064213,-0.52184,3,0.00786791,10,-3.35089e-05,-3.28246,0.384044,0.153628,-3.1132,0.064213,
2,0,0,1,0,4987.67,0.0630235,0.0627256,-0.514239,3,0.00770685,10,-3.22559e-05,-3.28883,0.459932,0.12828,-2.59201,0.0627256,
2,0,0,0,0,4987.97,0.0615251,0.0612228,-0.512039,3,0.00754708,10,-3.13485e-05,-3.2907,0.463472,0.1273,-2.55309,0.0612228,
2,0,0,0,0,4988.27,0.0600269,0.0596969,-0.509018,3,0.00738827,10,-3.03868e-05,-3.29327,0.401156,0.147075,-2.92452,0.0596969,
2,0,0,0,0,4988.57,0.0585287,0.058225,-0.504322,3,0.00723063,10,-2.93642e-05,-3.29729,0.314801,0.18742,-3.69135,0.058225,
2,0,0,1,0,4988.87,0.0570303,0.0567424,-0.501095,3,0.00707419,10,-2.84333e-05,-3.30008,0.431745,0.136655,-2.67188,0.0567424,
2,0,0,1,0,4989.17,0.0555325,0.0552252,-0.49655,3,0.00691941,10,-2.74221e-05,-3.30404,0.438563,0.13453,-2.60646,0.0552252,
2,0,0,1,0,4989.47,0.0540342,0.053731,-0.493382,3,0.00676553,10,-2.65099e-05,-3.30682,0.414992,0.142172,-2.73289,0.053731,
2,0,0,1,0,4989.77,0.052536,0.0522221,-0.489938,3,0.00661267,10,-2.55856e-05,-3.30986,0.427792,0.137917,-2.62394,0.0522221,
2,0,0,1,0,4990.07,0.0510378,0.0507757,-0.483908,3,0.00646126,10,-2.45707e-05,-3.31524,0.321397,0.183574,-3.46392,0.0507757,
2,0,0,1,0,4990.37,0.0495394,0.0492388,-0.479131,3,0.00631159,10,-2.35918e-05,-3.31955,0.424412,0.139016,-2.60392,0.0492388,
2,0,0,1,0,4990.67,0.0480415,0.0477335,-0.474552,3,0.00616295,10,-2.2652e-05,-3.32372,0.530619,0.111191,-2.05406,0.04773346,
2,0,0,1,0,4990.97,0.0465436,0.046229,-0.471192,3,0.00601542,10,-2.17827e-05,-3.3268,0.36215,0.162916,-3.00103,0.046229,
2,0,0,0,0,4991.27,0.045045,0.0447271,-0.465723,3,0.00586939,10,-2.08305e-05,-3.33187,0.362706,0.162666,-2.9701,0.0447271,
2,0,0,0,0,4991.57,0.0435468,0.0432637,-0.45958,3,0.00572497,10,-1.98831e-05,-3.33764,0.394511,0.149552,-2.69259,0.0432637,
2,0,0,1,0,4991.87,0.0420483,0.0417395,-0.457538,3,0.00558153,10,-1.90974e-05,-3.33957,0.478493,0.123304,-2.20257,0.0417395,
2,0,0,1,0,4992.17,0.0405504,0.0401865,-0.456465,3,0.00543923,10,-1.83437e-05,-3.34059,0.370515,0.159238,-2.81524,0.0401865,
2,0,0,1,0,4992.47,0.0390526,0.0387341,-0.449687,3,0.00529811,10,-1.74182e-05,-3.34709,0.344501,0.171262,-3.00422,0.0387341,
2,0,0,1,0,4992.77,0.0375541,0.0372269,-0.443539,3,0.00515848,10,-1.65116e-05,-3.35307,0.340121,0.173468,-3.02004,0.0372269,
2,0,0,1,0,4993.07,0.0360559,0.0357677,-0.440927,3,0.00502024,10,-1.5771e-05,-3.35563,0.405212,0.145603,-2.51512,0.03576773,
2,0,0,1,0,4993.36,0.0345572,0.0342488,-0.436678,3,0.00488286,10,-1.49557e-05,-3.35984,0.399034,0.147857,-2.52893,0.0342488,
2,0,0,1,0,4993.66,0.0330594,0.0327594,-0.434087,3,0.0047466,10,-1.42204e-05,-3.36242,0.325407,0.181311,-3.06663,0.0327594,
2,0,0,1,0,4993.96,0.0315615,0.0312866,-0.430589,3,0.00461153,10,-1.34717e-05,-3.36594,0.397019,0.148608,-2.49538,0.0312866,
2,0,0,0,0,4994.26,0.0300631,0.0297542,-0.427955,3,0.00447775,10,-1.27334e-05,-3.3686,0.42402,0.139144,-2.31843,0.0297542,
2,0,0,0,0,4994.56,0.0285649,0.0282569,-0.424216,3,0.00434465,10,-1.1987e-05,-3.37241,0.517662,0.113974,-1.88437,0.0282569,
2,0,0,0,0,4994.86,0.0270667,0.0267479,-0.420556,3,0.00421244,10,-1.1249e-05,-3.37618,0.465986,0.126613,-2.081,0.0267479,
2,0,0,1,0,4995.16,0.0255683,0.0252726,-0.418669,3,0.00408109,10,-1.05809e-05,-3.37813,0.464367,0.127055,-2.07166,0.0252726,
2,0,0,1,0,4995.46,0.0240706,0.0237704,-0.414339,3,0.00395092,10,-9.84902e-06,-3.38264,0.669025,0.0881881,-1.43282,0.0237704,
2,0,0,1,0,4995.76,0.0225722,0.0222401,-0.412905,3,0.00382125,10,-9.18306e-06,-3.38415,1.45984,0.0404154,-0.651383,0.0222401,
2,0,0,1,0,4996.06,0.021074,0.020745,-0.411509,3,0.0036921,10,-8.53674e-06,-3.38562,0.661861,0.0891426,-1.43331,0.020745,
2,0,0,1,0,4996.36,0.0195758,0.0192498,-0.409015,3,0.00356354,10,-7.87345e-06,-3.38826,0.702983,0.0839281,-1.34029,0.0192498,
2,0,0,1,0,4996.66,0.0180774,0.0177756,-0.405836,3,0.00343552,10,-7.21396e-06,-3.39165,1.43851,0.0410146,-0.653877,0.0177756,
2,0,0,1,0,4996.96,0.0165795,0.0162765,-0.407159,3,0.00330804,10,-6.62711e-06,-3.39024,0.973398,0.0606124,-0.962316,0.0162765,
2,0,0,1,0,4997.26,0.0150817,0.0147477,-0.407915,3,0.00318056,10,-6.01581e-06,-3.38943,0.886825,0.0665295,-1.05472,0.0147477,
2,0,0,0,0,4997.56,0.013583,0.0132542,-0.404801,3,0.00305325,10,-5.36533e-06,-3.39276,0.887572,0.0664735,-1.04938,0.0132542,
2,0,0,0,0,4997.86,0.0120848,0.0117538,-0.404148,3,0.00292641,10,-4.75026e-06,-3.39346,2.81753,0.0209403,-0.331359,0.0117538,
2,0,0,1,0,4998.16,0.0105863,0.0102965,-0.40477,3,0.00279981,10,-4.1677e-06,-3.39279,-3.7011,-0.0159412,0.251956,0.01029647,
2,0,0,1,0,4998.46,0.00908846,0.00876334,-0.404696,3,0.00267292,10,-3.54649e-06,-3.39287,-1.7587,-0.0335475,0.530457,0.00876334,
2,0,0,1,0,4998.76,0.0075906,0.0072696,-0.405591,3,0.00254588,10,-2.94849e-06,-3.39191,-4.68397,-0.0125961,0.199217,0.0072696,
2,0,0,1,0,4999.06,0.00609208,0.00576459,-0.406353,3,0.00241875,10,-2.34246e-06,-3.3911,-1.65715,-0.0356032,0.564937,0.005764591,
2,0,0,1,0,4999.36,0.00459389,0.00427896,-0.407092,3,0.00229168,10,-1.74193e-06,-3.39031,-1.16825,-0.0505029,0.801554,0.00427896,
2,0,0,1,0,4999.66,0.00309525,0.00280053,-0.409847,3,0.00216401,10,-1.14779e-06,-3.38738,-0.802125,-0.0735546,1.17179,0.00280053,
2,0,0,1,0,4999.96,0.00159739,0.00125021,-0.413026,3,0.00203396,10,-5.16369e-07,-3.38402, , , ,0.00125021,
2,0,0,0,0,5000.24,0.000199195,-0.000197438,-0.409998,3,0.00191378,10,8.09493e-08,-3.38722, , , ,-0.000197438,