File: Figure_codes/Fig_3-5/rawdata_trumpetplot_data/after 10th/20221101_1-115_003_TrumpetPlot_ParaChange_from10_every3_08_CV_C01_30.csv
mode,ox/red,error,control changes,counter inc.,time/s,control/V,Ewe/V,<I>/mA,cycle number,(Q-Qo)/C,I Range,P/W,log(|I|),Tafel slope mV/dec,alpha_eff,dI/d(E-IR),E-IR/V,
2,0,0,0,0,60278.9,2.44065e-05,-0.000478022,-3.99891,31,0.0000000E+000,10,1.91157e-06,-2.39806, , , ,-0.000478022,
2,0,0,1,0,60278.9,0.0012943,0.00089013,-2.62121,31,-5.02943e-05,10,-2.33322e-06,-2.5815, , , ,0.0008901296,
2,0,0,1,0,60279,0.00279784,0.00247097,-1.56831,31,-8.88978e-05,10,-3.87524e-06,-2.80457,-0.00568842,-10.3719,608.545,0.00247097,
2,0,0,1,0,60279,0.00429425,0.00393312,-0.814014,31,-0.000110589,10,-3.20162e-06,-3.08937,-0.00249257,-23.6704,459.051,0.00393312,
2,0,0,1,0,60279,0.00579065,0.0054278,-0.218485,31,-0.000119747,10,-1.18589e-06,-3.66058,-0.00983041,-6.00179,368.741,0.0054278,
2,1,0,1,0,60279,0.00729419,0.00693263,0.277137,31,-0.000118824,10,1.92129e-06,-3.55731,0.0131811,4.47611,300.112,0.00693263,
2,1,0,1,0,60279,0.00878347,0.00842996,0.675883,31,-0.000109672,10,5.69767e-06,-3.17013,0.004148,14.2237,247.787,0.00842996,
2,1,0,1,0,60279.1,0.010287,0.00991093,1.01336,31,-9.35448e-05,10,1.00433e-05,-2.99424,0.0100175,5.8897,206.768,0.00991093,
2,1,0,1,0,60279.1,0.0117905,0.011427,1.29377,31,-7.15901e-05,10,1.47839e-05,-2.88814,0.0155719,3.78887,180.811,0.01142701,
2,1,0,1,0,60279.1,0.013278,0.0129148,1.53264,31,-4.50099e-05,10,1.97937e-05,-2.81456,0.0220546,2.67517,155.718,0.0129148,
2,1,0,1,0,60279.1,0.0147816,0.0144602,1.75042,31,-1.38434e-05,10,2.53114e-05,-2.75686,0.0291857,2.02154,135.304,0.0144602,
2,1,0,1,0,60279.1,0.0162851,0.0159299,1.93667,31,2.11922e-05,10,3.0851e-05,-2.71294,0.037461,1.57497,117.144,0.0159299,
2,1,0,1,0,60279.2,0.0177744,0.0173979,2.1014,31,5.90698e-05,10,3.656e-05,-2.67749,0.0455067,1.29651,105.426,0.0173979,
2,1,0,1,0,60279.2,0.0192779,0.0189123,2.24721,31,0.00010019,10,4.24999e-05,-2.64836,0.0544996,1.08258,94.3904,0.0189123,
2,1,0,1,0,60279.2,0.0207743,0.0204427,2.38352,31,0.00014379,10,4.87255e-05,-2.62278,0.0636484,0.926968,85.5656,0.0204427,
2,1,0,1,0,60279.2,0.0222707,0.0218937,2.50526,31,0.000189748,10,5.48493e-05,-2.60115,0.0759976,0.77634,75.5577,0.0218937,
2,1,0,1,0,60279.2,0.0237743,0.0234196,2.61509,31,0.000238131,10,6.12445e-05,-2.58251,0.0856612,0.68876,70.0674,0.0234196,
2,1,0,1,0,60279.2,0.0252636,0.0249044,2.71634,31,0.000287947,10,6.76487e-05,-2.56602,0.0972339,0.606784,64.1326,0.0249044,
2,1,0,1,0,60279.3,0.0267671,0.0263751,2.81486,31,0.000340154,10,7.42423e-05,-2.55054,0.106012,0.556539,60.9248,0.0263751,
2,1,0,1,0,60279.3,0.0282706,0.027912,2.90942,31,0.00039414,10,8.12077e-05,-2.53619,0.114587,0.514891,58.257,0.027912,
2,1,0,1,0,60279.3,0.0297581,0.0294557,2.99672,31,0.000449186,10,8.82703e-05,-2.52335,0.125623,0.46966,54.68,0.0294557,
2,1,0,1,0,60279.3,0.0312617,0.0308899,3.06802,31,0.000506373,10,9.4771e-05,-2.51314,0.134373,0.439078,52.567,0.03088994,
2,1,0,1,0,60279.3,0.0327652,0.0324139,3.14742,31,0.000564985,10,0.00010202,-2.50205,0.138919,0.424708,52.0919,0.0324139,
2,1,0,1,0,60279.4,0.0342545,0.0339173,3.2268,31,0.000624435,10,0.000109445,-2.49123,0.142939,0.412765,51.8534,0.0339173,
2,1,0,1,0,60279.4,0.035758,0.0354348,3.29885,31,0.000685952,10,0.000116894,-2.48164,0.157633,0.374287,48.0606,0.0354348,
2,1,0,1,0,60279.4,0.0372544,0.0369022,3.36627,31,0.000748488,10,0.000124223,-2.47285,0.164546,0.358563,47.0784,0.0369022,
2,1,0,1,0,60279.4,0.0387508,0.0384066,3.43214,31,0.000812239,10,0.000131817,-2.46444,0.170996,0.345037,46.2536,0.0384066,
2,1,0,1,0,60279.4,0.0402544,0.0399135,3.49905,31,0.000877638,10,0.000139659,-2.45605,0.168869,0.349382,47.7021,0.0399135,
2,1,0,1,0,60279.5,0.0417437,0.0413835,3.56989,31,0.000943645,10,0.000147735,-2.44735,0.179282,0.32909,45.7723,0.0413835,
2,1,0,1,0,60279.5,0.0432472,0.0428986,3.63497,31,0.0010116,10,0.000155935,-2.4395,0.196245,0.300644,42.6021,0.0428986,
2,1,0,1,0,60279.5,0.0447507,0.0444177,3.69033,31,0.00108073,10,0.000163916,-2.43294,0.207679,0.284092,40.9793,0.0444177,
2,1,0,1,0,60279.5,0.0462382,0.0458793,3.76316,31,0.00115029,10,0.000172651,-2.42445,0.203551,0.289854,42.5245,0.0458793,
2,1,0,1,0,60279.5,0.0477418,0.0474035,3.81986,31,0.00122179,10,0.000181075,-2.41795,0.218673,0.269809,40.254,0.0474035,
2,1,0,1,0,60279.5,0.0492453,0.0488811,3.87854,31,0.00129448,10,0.000189587,-2.41133,0.228519,0.258184,39.1144,0.0488811,
2,1,0,1,0,60279.6,0.0507346,0.0503675,3.94098,31,0.00136747,10,0.000198497,-2.4044,0.237678,0.248235,38.2065,0.0503675,
2,1,0,1,0,60279.6,0.0522381,0.0519218,4.00011,31,0.00144236,10,0.000207693,-2.39793,0.240658,0.245161,38.294,0.05192177,
2,1,0,1,0,60279.6,0.0537345,0.0533762,4.06772,31,0.00151799,10,0.000217119,-2.39065,0.242967,0.242831,38.4657,0.0533762,
2,1,0,1,0,60279.6,0.0552309,0.0548568,4.12567,31,0.00159473,10,0.000226321,-2.38451,0.25737,0.229242,36.8507,0.0548568,
2,1,0,1,0,60279.6,0.0567345,0.0563684,4.17576,31,0.00167293,10,0.000235381,-2.37926,0.258744,0.228025,37.1555,0.0563684,
2,1,0,1,0,60279.7,0.0582237,0.0578641,4.23463,31,0.00175132,10,0.000245033,-2.37318,0.245069,0.240749,39.7784,0.0578641,
2,1,0,1,0,60279.7,0.0597273,0.0593648,4.2866,31,0.00183162,10,0.000254473,-2.36789,0.250237,0.235776,39.4491,0.0593648,
2,1,0,1,0,60279.7,0.0612308,0.0608901,4.3443,31,0.00191301,10,0.000264525,-2.36208,0.267569,0.220504,37.3604,0.06089009,
2,1,0,1,0,60279.7,0.0627183,0.0623697,4.39641,31,0.00199457,10,0.000274203,-2.3569,0.279527,0.211071,36.223,0.0623697,
2,1,0,1,0,60279.7,0.0642219,0.0639151,4.44679,31,0.00207792,10,0.000284217,-2.35195,0.287988,0.204869,35.5884,0.0639151,
2,1,0,1,0,60279.8,0.0657254,0.0654056,4.49694,31,0.0021623,10,0.000294125,-2.34708,0.278679,0.211713,37.2086,0.0654056,
2,1,0,1,0,60279.8,0.0672147,0.0668576,4.55593,31,0.00224678,10,0.000304598,-2.34142,0.303856,0.194171,34.5012,0.0668576,
2,1,0,1,0,60279.8,0.0687182,0.0683672,4.60964,31,0.00233318,10,0.000315148,-2.33633,0.355859,0.165796,29.7895,0.0683672,
2,1,0,1,0,60279.8,0.0702146,0.0698703,4.65037,31,0.00242001,10,0.000324922,-2.33251,0.341027,0.173007,31.4093,0.0698703,
2,1,0,1,0,60279.8,0.071711,0.0713847,4.70634,31,0.00250774,10,0.00033596,-2.32732,0.355305,0.166054,30.483,0.0713847,
2,1,0,1,0,60279.8,0.0732146,0.072836,4.75438,31,0.00259687,10,0.00034629,-2.32291,0.371802,0.158687,29.43,0.072836,
2,1,0,1,0,60279.9,0.0747038,0.0743535,4.80512,31,0.00268593,10,0.000357277,-2.3183,0.375614,0.157076,29.417,0.0743535,
2,1,0,1,0,60279.9,0.0762074,0.0758498,4.8436,31,0.00277681,10,0.000367386,-2.31483,0.369976,0.15947,30.125,0.0758498,
2,1,0,1,0,60279.9,0.0777109,0.0773614,4.89022,31,0.00286849,10,0.000378314,-2.31067,0.375937,0.156941,29.9357,0.07736142,
2,1,0,1,0,60279.9,0.0791984,0.0788536,4.93943,31,0.00296005,10,0.000389492,-2.30632,0.378745,0.155778,29.9697,0.0788536,
2,1,0,1,0,60279.9,0.0807019,0.0803656,4.97818,31,0.00305339,10,0.000400074,-2.30293,0.410784,0.143628,27.8738,0.0803656,
2,1,0,1,0,60280,0.0822055,0.0818718,5.01133,31,0.00314752,10,0.000410287,-2.30005,0.409894,0.14394,28.155,0.0818718,
2,1,0,1,0,60280,0.0836947,0.0832925,5.05754,31,0.00324134,10,0.000421255,-2.29606,0.420346,0.14036,27.6926,0.0832925,
2,1,0,1,0,60280,0.0851983,0.0848634,5.08827,31,0.00333693,10,0.000431808,-2.29343,0.442848,0.133228,26.4794,0.0848634,
2,1,0,1,0,60280,0.0866947,0.0863551,5.13024,31,0.00343277,10,0.000443022,-2.28986,0.441025,0.133779,26.777,0.0863551,
2,1,0,1,0,60280,0.0881911,0.0878472,5.16648,31,0.0035293,10,0.000453861,-2.28681,0.471741,0.125069,25.2376,0.0878472,
2,1,0,1,0,60280.1,0.0896946,0.0893551,5.20111,31,0.00362702,10,0.000464746,-2.2839,0.463752,0.127223,25.8454,0.0893551,
2,1,0,1,0,60280.1,0.0911839,0.0908415,5.24238,31,0.00372443,10,0.000476226,-2.28047,0.44355,0.133018,27.2311,0.0908415,
2,1,0,1,0,60280.1,0.0926857,0.0923688,5.2853,31,0.00382363,10,0.000488197,-2.27693,0.450834,0.130869,27.0004,0.0923688,
2,1,0,1,0,60280.1,0.0941892,0.0938481,5.32361,31,0.00392362,10,0.000499611,-2.27379,0.484295,0.121827,25.3217,0.0938481,
2,1,0,1,0,60280.1,0.0956785,0.0953222,5.3628,31,0.00402325,10,0.000511194,-2.27061,0.466987,0.126342,26.4746,0.0953222,
2,1,0,1,0,60280.1,0.097182,0.0968121,5.4056,31,0.00412473,10,0.000523328,-2.26716,0.428915,0.137556,29.0529,0.0968121,
2,1,0,1,0,60280.2,0.0986856,0.0982975,5.45474,31,0.00422709,10,0.000536187,-2.26323,0.396342,0.148861,31.7212,0.0982975,
2,1,0,1,0,60280.2,0.100175,0.0998354,5.51115,31,0.00432927,10,0.000550207,-2.25876,0.392906,0.150163,32.2855,0.0998354,
2,1,0,1,0,60280.2,0.101678,0.101325,5.56007,31,0.00443351,10,0.000563376,-2.25492,0.356764,0.165375,35.9051,0.1013252,
2,1,0,1,0,60280.2,0.103175,0.102786,5.62159,31,0.00453818,10,0.000577819,-2.25014,0.318102,0.185475,40.6919,0.102786,
2,1,0,1,0,60280.2,0.104671,0.104296,5.68809,31,0.004644,10,0.000593247,-2.24503,0.29969,0.19687,43.6743,0.104296,
2,1,0,1,0,60280.3,0.106175,0.105842,5.74861,31,0.00475164,10,0.000608443,-2.24044,0.274276,0.215112,48.2599,0.105842,
2,1,0,1,0,60280.3,0.107662,0.107295,5.8178,31,0.00485943,10,0.00062422,-2.23524,0.263804,0.223651,50.8143,0.107295,
2,1,0,1,0,60280.3,0.109166,0.108807,5.89265,31,0.00496967,10,0.00064116,-2.22969,0.253987,0.232295,53.4386,0.108807,
2,1,0,1,0,60280.3,0.110669,0.11029,5.96483,31,0.00508139,10,0.000657864,-2.2244,0.249279,0.236682,55.147,0.11029,
2,1,0,1,0,60280.3,0.112159,0.111783,6.0471,31,0.00519341,10,0.000675965,-2.21845,0.256289,0.230209,54.3646,0.111783,
2,1,0,1,0,60280.4,0.113662,0.113307,6.12811,31,0.00530816,10,0.000694358,-2.21267,0.264344,0.223194,53.4108,0.113307,
2,1,0,1,0,60280.4,0.115166,0.114808,6.20777,31,0.00542439,10,0.000712702,-2.20706,0.266914,0.221045,53.571,0.114808,
2,1,0,1,0,60280.4,0.116655,0.116276,6.29384,31,0.0055409,10,0.00073182,-2.20108,0.26191,0.225268,55.3224,0.116276,
2,1,0,1,0,60280.4,0.118158,0.117819,6.37519,31,0.00566026,10,0.000751119,-2.19551,0.278198,0.212079,52.7584,0.117819,
2,1,0,1,0,60280.4,0.119655,0.119282,6.45584,31,0.00578048,10,0.000770066,-2.19005,0.297958,0.198014,49.8938,0.119282,
2,1,0,1,0,60280.4,0.121151,0.120802,6.53788,31,0.00590215,10,0.000789789,-2.18456,0.302724,0.194897,49.7007,0.1208021,
2,1,0,1,0,60280.5,0.122655,0.12229,6.61261,31,0.00602595,10,0.000808658,-2.17963,0.31105,0.18968,48.927,0.12229,
2,1,0,1,0,60280.5,0.124142,0.123802,6.69255,31,0.00614983,10,0.00082855,-2.17441,0.323488,0.182387,47.5739,0.123802,
2,1,0,1,0,60280.5,0.125646,0.125292,6.76111,31,0.0062764,10,0.000847116,-2.16998,0.353075,0.167103,44.0046,0.125292,
2,1,0,1,0,60280.5,0.127149,0.126785,6.81552,31,0.00640424,10,0.000864105,-2.1665,0.375488,0.157129,41.7759,0.126785,
2,1,0,1,0,60280.5,0.128639,0.128268,6.87925,31,0.00653177,10,0.000882387,-2.16246,0.411024,0.143544,38.507,0.128268,
2,1,0,1,0,60280.6,0.130142,0.129797,6.93086,31,0.0066618,10,0.000899608,-2.15921,0.427889,0.137886,37.2837,0.129797,
2,1,0,1,0,60280.6,0.131646,0.131287,6.98438,31,0.00679284,10,0.00091696,-2.15587,0.499414,0.118138,32.1738,0.131287,
2,1,0,1,0,60280.6,0.133135,0.132807,7.0253,31,0.0069234,10,0.000933009,-2.15334,0.551044,0.107069,29.3569,0.132807,
2,1,0,1,0,60280.6,0.134639,0.134296,7.06995,31,0.00705614,10,0.00094947,-2.15058,0.584248,0.100985,27.8665,0.134296,
2,1,0,1,0,60280.6,0.136135,0.135788,7.11085,31,0.00718896,10,0.000965568,-2.14808,0.626001,0.0942491,26.1476,0.135788,
2,1,0,1,0,60280.7,0.137631,0.137278,7.14771,31,0.00732252,10,0.000981225,-2.14583,0.73618,0.0801435,22.3325,0.137278,
2,1,0,1,0,60280.7,0.139135,0.138821,7.17838,31,0.00745742,10,0.000996509,-2.14397,0.976981,0.0603901,16.8986,0.138821,
2,1,0,1,0,60280.7,0.140622,0.140258,7.19959,31,0.00759136,10,0.0010098,-2.14269,1.15891,0.0509097,14.3016,0.140258,
2,1,0,1,0,60280.7,0.142126,0.141804,7.21642,31,0.00772715,10,0.00102331,-2.14168,1.83112,0.0322207,9.0704,0.141804,
2,1,0,1,0,60280.7,0.143629,0.143268,7.22973,31,0.00786328,10,0.00103579,-2.14088,6.00531,0.00982464,2.77066,0.143268,
2,1,0,1,0,60280.7,0.145119,0.144777,7.23483,31,0.00799807,10,0.00104744,-2.14057,-2.51625,-0.0234476,-6.60989,0.144777,
2,1,0,1,0,60280.8,0.146622,0.146268,7.22202,31,0.00813419,10,0.00105635,-2.14134,-1.1595,-0.0508838,-14.3249,0.146268,
2,1,0,1,0,60280.8,0.148126,0.147768,7.19815,31,0.00826993,10,0.00106366,-2.14278,-0.779699,-0.0756702,-21.2106,0.147768,
2,1,0,1,0,60280.8,0.149615,0.14925,7.15699,31,0.00840362,10,0.00106818,-2.14527,-0.51358,-0.11488,-32.0079,0.1492497,
2,1,0,1,0,60280.8,0.151119,0.15076,7.10308,31,0.00853785,10,0.00107086,-2.14855,-0.367375,-0.160599,-44.371,0.15076,
2,1,0,1,0,60280.8,0.152615,0.152258,7.02061,31,0.00867009,10,0.00106894,-2.15363,-0.292208,-0.201911,-55.203,0.152258,
2,1,0,1,0,60280.9,0.154111,0.153752,6.92624,31,0.00880065,10,0.00106492,-2.1595,-0.237293,-0.248638,-67.0802,0.153752,
2,1,0,1,0,60280.9,0.155615,0.155307,6.8119,31,0.00893002,10,0.00105794,-2.16673,-0.200505,-0.294257,-78.0533,0.1553072,
2,1,0,1,0,60280.9,0.157102,0.156759,6.68483,31,0.00905584,10,0.0010479,-2.17491,-0.172238,-0.342549,-89.1467,0.156759,
2,1,0,1,0,60280.9,0.158606,0.158294,6.54035,31,0.00918041,10,0.0010353,-2.1844,-0.149732,-0.394038,-100.368,0.158294,
2,1,0,1,0,60280.9,0.16011,0.159689,6.3776,31,0.00930205,10,0.00101844,-2.19534,-0.137654,-0.428611,-106.581,0.159689,
2,1,0,1,0,60281,0.161599,0.161285,6.21367,31,0.0094194,10,0.00100217,-2.20665,-0.126499,-0.466408,-112.999,0.161285,
2,1,0,1,0,60281,0.163102,0.162778,6.04116,31,0.00953485,10,0.000983367,-2.21888,-0.120547,-0.489436,-115.324,0.162778,
2,1,0,1,0,60281,0.164606,0.164267,5.86848,31,0.00964705,10,0.000963998,-2.23147,-0.11396,-0.517725,-118.505,0.164267,
2,1,0,1,0,60281,0.166095,0.165735,5.69527,31,0.00975476,10,0.000943906,-2.24449,-0.111489,-0.529202,-117.668,0.165735,
2,1,0,1,0,60281,0.167599,0.167223,5.52031,31,0.00986038,10,0.000923124,-2.25804,-0.113446,-0.520071,-112.207,0.167223,
2,1,0,1,0,60281,0.169095,0.168777,5.36743,31,0.00996236,10,0.0009059,-2.27023,-0.115341,-0.511528,-107.091,0.168777,
2,1,0,1,0,60281.1,0.170592,0.170241,5.21194,31,0.0100614,10,0.000887285,-2.283,-0.116907,-0.504673,-102.657,0.170241,
2,1,0,1,0,60281.1,0.172095,0.171741,5.05784,31,0.0101581,10,0.000868641,-2.29603,-0.11925,-0.49476,-97.7872,0.171741,
2,1,0,1,0,60281.1,0.173583,0.173199,4.92195,31,0.010251,10,0.000852475,-2.30786,-0.125491,-0.470151,-90.3856,0.173199,
2,1,0,1,0,60281.1,0.175086,0.174718,4.79228,31,0.0103424,10,0.000837298,-2.31946,-0.133249,-0.442781,-82.8385,0.174718,
2,1,0,1,0,60281.1,0.17659,0.176216,4.66847,31,0.0104315,10,0.00082266,-2.33083,-0.137827,-0.428073,-78.0124,0.176216,
2,1,0,1,0,60281.2,0.178079,0.177782,4.55409,31,0.0105175,10,0.000809634,-2.3416,-0.145491,-0.405523,-72.2002,0.177782,
2,1,0,1,0,60281.2,0.179582,0.179229,4.4487,31,0.0106023,10,0.000797335,-2.35177,-0.156079,-0.378013,-65.7771,0.179229,
2,1,0,1,0,60281.2,0.181086,0.180779,4.34943,31,0.0106852,10,0.000786286,-2.36157,-0.167204,-0.352863,-60.033,0.180779,
2,1,0,1,0,60281.2,0.182575,0.18226,4.26206,31,0.0107655,10,0.000776801,-2.37038,-0.172849,-0.341338,-56.85,0.18226,
2,1,0,1,0,60281.2,0.184079,0.183748,4.17563,31,0.0108451,10,0.000767265,-2.37928,-0.180368,-0.327109,-53.3972,0.183748,
2,1,0,1,0,60281.2,0.185582,0.185295,4.0999,31,0.0109231,10,0.000759691,-2.38723,-0.185859,-0.317445,-50.8817,0.1852951,
2,1,0,1,0,60281.3,0.18707,0.186731,4.02906,31,0.0109989,10,0.000752349,-2.3948,-0.192587,-0.306355,-48.1942,0.186731,
2,1,0,1,0,60281.3,0.188573,0.188244,3.96035,31,0.0110743,10,0.000745512,-2.40227,-0.208742,-0.282645,-43.7564,0.188244,
2,1,0,1,0,60281.3,0.19007,0.189703,3.9016,31,0.011148,10,0.000740146,-2.40876,-0.216263,-0.272816,-41.5753,0.189703,
2,1,0,1,0,60281.3,0.191566,0.191205,3.84325,31,0.0112207,10,0.000734848,-2.4153,-0.223258,-0.264268,-39.6935,0.191205,
2,1,0,1,0,60281.3,0.19307,0.192719,3.79347,31,0.0112926,10,0.000731072,-2.42096,-0.255282,-0.231117,-34.2136,0.1927187,
2,1,0,1,0,60281.4,0.194559,0.19422,3.75006,31,0.0113629,10,0.000728337,-2.42596,-0.269034,-0.219303,-32.0748,0.19422,
2,1,0,1,0,60281.4,0.196063,0.195767,3.7015,31,0.0114331,10,0.00072463,-2.43162,-0.269073,-0.219272,-31.6576,0.195767,
2,1,0,1,0,60281.4,0.197566,0.197207,3.65484,31,0.0115024,10,0.00072076,-2.43713,-0.310148,-0.190232,-27.1534,0.197207,
2,1,0,1,0,60281.4,0.199055,0.198683,3.61763,31,0.0115701,10,0.000718761,-2.44158,-0.334538,-0.176363,-24.878,0.198683,
2,1,0,1,0,60281.4,0.200559,0.200237,3.57768,31,0.0116378,10,0.000716383,-2.4464,-0.380874,-0.154907,-21.6228,0.200237,
2,1,0,1,0,60281.5,0.202062,0.201741,3.54667,31,0.0117049,10,0.00071551,-2.45018,-0.419481,-0.14065,-19.4491,0.201741,
2,1,0,1,0,60281.5,0.20355,0.203193,3.50757,31,0.0117707,10,0.000712712,-2.45499,-0.410231,-0.143821,-19.7102,0.203193,
2,1,0,1,0,60281.5,0.205054,0.204713,3.47379,31,0.0118365,10,0.000711131,-2.4592,-0.475868,-0.123984,-16.8615,0.204713,
2,1,0,1,0,60281.5,0.20655,0.206226,3.44618,31,0.0119015,10,0.000710693,-2.46266,-0.483692,-0.121978,-16.4288,0.206226,
2,1,0,1,0,60281.5,0.208046,0.207727,3.42363,31,0.0119661,10,0.000711179,-2.46551,-0.437534,-0.134847,-18.0177,0.207727,
2,1,0,1,0,60281.5,0.20955,0.209219,3.39964,31,0.0120305,10,0.000711268,-2.46857,-0.424393,-0.139022,-18.4448,0.209219,
2,1,0,1,0,60281.6,0.211039,0.210708,3.37651,31,0.0120937,10,0.000711459,-2.47153,-0.488659,-0.120739,-15.9195,0.210708,
2,1,0,1,0,60281.6,0.212543,0.212206,3.34961,31,0.0121571,10,0.000710809,-2.47501,-0.51334,-0.114934,-15.0458,0.212206,
2,1,0,1,0,60281.6,0.214046,0.213677,3.33044,31,0.0122202,10,0.000711636,-2.4775,-0.538353,-0.109594,-14.2524,0.213677,
2,1,0,1,0,60281.6,0.215535,0.215194,3.31091,31,0.0122821,10,0.00071249,-2.48005,-0.532902,-0.110715,-14.3156,0.215194,
2,1,0,1,0,60281.6,0.217039,0.216688,3.29335,31,0.0123444,10,0.000713631,-2.48236,-0.559248,-0.105499,-13.5663,0.216688,
2,1,0,1,0,60281.7,0.218543,0.218208,3.27679,31,0.0124064,10,0.000715023,-2.48455,-0.792775,-0.0744222,-9.51613,0.218208,
2,1,0,1,0,60281.7,0.22003,0.219724,3.26695,31,0.0124673,10,0.000717827,-2.48586,-0.831937,-0.0709189,-9.02672,0.219724,
2,1,0,1,0,60281.7,0.221534,0.221208,3.25103,31,0.0125287,10,0.000719154,-2.48798,-0.786343,-0.0750308,-9.49656,0.2212082,
2,1,0,1,0,60281.7,0.22303,0.222718,3.22655,31,0.0125895,10,0.000718613,-2.49126,-0.901908,-0.0654169,-8.2502,0.222718,
2,1,0,1,0,60281.7,0.224526,0.224189,3.21999,31,0.0126499,10,0.000721887,-2.49215,-0.927631,-0.0636028,-7.98197,0.224189,
2,1,0,1,0,60281.8,0.22603,0.225731,3.20124,31,0.0127105,10,0.000722618,-2.49468,-0.972717,-0.0606548,-7.57615,0.225731,
2,1,0,1,0,60281.8,0.227519,0.227173,3.18944,31,0.0127701,10,0.000724555,-2.49629,-0.827377,-0.0713097,-8.87172,0.227173,
2,1,0,1,0,60281.8,0.229023,0.228687,3.17586,31,0.0128302,10,0.000726276,-2.49814,-0.916094,-0.0644039,-7.98835,0.228687,
2,1,0,1,0,60281.8,0.230526,0.230179,3.1637,31,0.01289,10,0.000728218,-2.4998,-1.15155,-0.0512352,-6.33396,0.230179,
2,1,0,1,0,60281.8,0.232016,0.231662,3.15309,31,0.012949,10,0.00073045,-2.50126,-1.22342,-0.0482254,-5.93845,0.231662,
2,1,0,1,0,60281.8,0.233519,0.233177,3.14699,31,0.0130085,10,0.000733804,-2.50211,-0.84336,-0.0699582,-8.58346,0.233177,
2,1,0,1,0,60281.9,0.235023,0.234677,3.13647,31,0.0130677,10,0.000736057,-2.50356,-0.902714,-0.0653585,-7.99554,0.234677,
2,1,0,1,0,60281.9,0.23651,0.236163,3.12652,31,0.0131261,10,0.00073837,-2.50494,-0.937693,-0.0629204,-7.68181,0.236163,
2,1,0,1,0,60281.9,0.238014,0.237656,3.11752,31,0.013185,10,0.000740897,-2.50619,-1.43009,-0.0412562,-5.01648,0.237656,
2,1,0,1,0,60281.9,0.23951,0.239149,3.1117,31,0.0132434,10,0.000744159,-2.507,-1.33389,-0.0442317,-5.36848,0.239149,
2,1,0,1,0,60281.9,0.241006,0.240638,3.09986,31,0.0133017,10,0.000745945,-2.50866,-1.08074,-0.0545925,-6.60655,0.240638,
2,1,0,1,0,60282,0.24251,0.242152,3.0913,31,0.0133601,10,0.000748565,-2.50986,-0.99048,-0.0595671,-7.18852,0.242152,
2,1,0,1,0,60282,0.243999,0.243652,3.08329,31,0.0134177,10,0.000751251,-2.51099,-1.78196,-0.0331097,-3.9852,0.243652,
2,1,0,1,0,60282,0.245503,0.245178,3.08295,31,0.0134758,10,0.000755871,-2.51103,-1.46298,-0.0403286,-4.84281,0.245178,
2,1,0,1,0,60282,0.247006,0.246669,3.07364,31,0.0135339,10,0.00075817,-2.51235,-1.40525,-0.0419854,-5.02323,0.246669,
2,1,0,1,0,60282,0.248496,0.24817,3.05966,31,0.0135911,10,0.000759314,-2.51433,-1.663,-0.035478,-4.24102,0.24817,
2,1,0,1,0,60282.1,0.249999,0.249653,3.0547,31,0.0136488,10,0.000762615,-2.51503,-1.90132,-0.031031,-3.70191,0.249653,
2,1,0,1,0,60282.1,0.251503,0.251133,3.04777,31,0.0137064,10,0.000765396,-2.51602,-2.36118,-0.0249875,-2.97344,0.251133,
2,1,0,1,0,60282.1,0.25299,0.252641,3.04307,31,0.0137633,10,0.000768804,-2.51669,-1.75313,-0.033654,-3.9995,0.252641,
2,1,0,1,0,60282.1,0.254494,0.254152,3.03577,31,0.0138207,10,0.000771545,-2.51773,-1.78979,-0.0329648,-3.90919,0.254152,
2,1,0,1,0,60282.1,0.25599,0.255617,3.02713,31,0.0138776,10,0.000773787,-2.51897,-1.98279,-0.029756,-3.52224,0.255617,
2,1,0,1,0,60282.1,0.257487,0.257178,3.02307,31,0.0139345,10,0.000777466,-2.51955,-2.24801,-0.0262454,-3.10016,0.257178,
2,1,0,1,0,60282.2,0.25899,0.258704,3.01993,31,0.0139915,10,0.000781268,-2.52,-1.39582,-0.042269,-4.98262,0.258704,
2,1,0,1,0,60282.2,0.260479,0.260169,3.01863,31,0.0140479,10,0.000785353,-2.52019,-1.2672,-0.0465592,-5.481,0.260169,
2,1,0,1,0,60282.2,0.261983,0.261625,3.00981,31,0.0141047,10,0.000787442,-2.52146,-1.42039,-0.0415379,-4.88265,0.261625,
2,1,0,1,0,60282.2,0.263486,0.263111,3.0043,31,0.0141614,10,0.000790465,-2.52226,-1.74251,-0.0338592,-3.96693,0.263111,
2,1,0,1,0,60282.2,0.264974,0.264697,3.00084,31,0.0142175,10,0.000794312,-2.52276,-2.20518,-0.0267552,-3.13103,0.2646966,
2,1,0,1,0,60282.3,0.266477,0.266137,2.99482,31,0.014274,10,0.000797031,-2.52363,-1.80791,-0.0326344,-3.81013,0.266137,
2,1,0,1,0,60282.3,0.267981,0.267651,2.98701,31,0.0143304,10,0.000799476,-2.52476,-2.24829,-0.0262421,-3.05976,0.267651,
2,1,0,1,0,60282.3,0.26947,0.269111,2.98324,31,0.0143862,10,0.000802823,-2.52531,-2.49318,-0.0236645,-2.75674,0.269111,
2,1,0,1,0,60282.3,0.270974,0.270631,2.98463,31,0.0144424,10,0.000807734,-2.52511,-3.59745,-0.0164005,-1.90636,0.2706314,
2,1,0,1,0,60282.3,0.27247,0.272102,2.97851,31,0.0144984,10,0.000810458,-2.526,-3.58401,-0.016462,-1.90939,0.272102,
2,1,0,1,0,60282.4,0.273967,0.273649,2.96358,31,0.0145541,10,0.000810982,-2.52818,-1.9012,-0.031033,-3.59784,0.273649,
2,1,0,1,0,60282.4,0.27547,0.27513,2.96213,31,0.0146101,10,0.000814972,-2.5284,-3.03876,-0.0194158,-2.24787,0.27513,
2,1,0,1,0,60282.4,0.276959,0.276642,2.9568,31,0.0146654,10,0.000817975,-2.52918,-4.43147,-0.0133139,-1.53779,0.2766422,
2,1,0,1,0,60282.4,0.278463,0.278177,2.95522,31,0.0147212,10,0.000822075,-2.52941,-1.86515,-0.0316328,-3.64504,0.278177,
2,1,0,1,0,60282.4,0.279967,0.279611,2.94705,31,0.014777,10,0.000824029,-2.53061,-2.23968,-0.026343,-3.03526,0.279611,
2,1,0,1,0,60282.4,0.281454,0.2811,2.93983,31,0.014832,10,0.000826386,-2.53168,-2.07754,-0.028399,-3.26574,0.2810998,
2,1,0,1,0,60282.5,0.282958,0.282622,2.9368,31,0.0148875,10,0.000830004,-2.53213,-1.79471,-0.0328744,-3.77062,0.282622,
2,1,0,1,0,60282.5,0.284461,0.284141,2.93564,31,0.0149429,10,0.000834136,-2.5323,-2.17073,-0.0271798,-3.11406,0.284141,
2,1,0,1,0,60282.5,0.28595,0.285625,2.93146,31,0.0149977,10,0.000837296,-2.53292,-1.2086,-0.0488169,-5.58716,0.2856245,
2,1,0,1,0,60282.5,0.287454,0.287112,2.92811,31,0.0150529,10,0.000840693,-2.53341,-1.35671,-0.0434875,-4.96456,0.287112,
2,1,0,1,0,60282.5,0.28895,0.288603,2.92141,31,0.0151078,10,0.000843127,-2.53441,-2.96234,-0.0199167,-2.27065,0.288603,
2,1,0,1,0,60282.6,0.290447,0.290068,2.91637,31,0.0151626,10,0.000845946,-2.53516,-2.40434,-0.0245389,-2.79309,0.290068,
2,1,0,1,0,60282.6,0.29195,0.291637,2.9154,31,0.0152176,10,0.000850239,-2.5353,-1.81147,-0.0325703,-3.70037,0.291637,
2,1,0,1,0,60282.6,0.29344,0.293091,2.90809,31,0.0152719,10,0.000852336,-2.53639,-2.33136,-0.0253072,-2.87016,0.293091,
2,1,0,1,0,60282.6,0.294943,0.294629,2.90224,31,0.0153267,10,0.000855084,-2.53727,-4.04413,-0.014589,-1.65338,0.294629,
2,1,0,1,0,60282.6,0.296447,0.296105,2.89636,31,0.0153814,10,0.000857628,-2.53815,-7.24131,-0.00814769,-0.921264,0.296105,
2,1,0,1,0,60282.7,0.297934,0.297623,2.88847,31,0.0154354,10,0.000859676,-2.53933,-4.6986,-0.0125569,-1.41782,0.297623,
2,1,0,1,0,60282.7,0.299438,0.299177,2.88339,31,0.01549,10,0.000862646,-2.5401,-0.0390346,-1.51148,-159.579,0.2991775,
2,1,0,1,0,60282.7,0.300012,0.29967,2.88678,31,0.0155102,10,0.00086508,-2.53959,0.00227606,25.922,2081.11,0.29967,
2,1,0,1,0,60282.7,0.298737,0.298409,1.69239,31,0.0155449,10,0.000505023,-2.7715,0.00528627,11.161,681.268,0.2984089,
2,1,0,1,0,60282.7,0.29724,0.296901,0.922616,31,0.0155686,10,0.000273926,-3.03498,0.0045956,12.8384,440.886,0.296901,
2,1,0,1,0,60282.7,0.295744,0.295379,0.400862,31,0.0155805,10,0.000118406,-3.39701,0.00318328,18.5343,300.777,0.295379,
2,1,0,1,0,60282.8,0.29424,0.293898,0.0310095,31,0.0155842,10,9.11364e-06,-4.5085,0.0169305,3.48484,218.284,0.293898,
2,0,0,1,0,60282.8,0.292751,0.292373,-0.242745,31,0.015582,10,-7.09721e-05,-3.61485,-0.00715413,-8.24698,163.603,0.292373,
2,0,0,1,0,60282.8,0.291248,0.290917,-0.45957,31,0.0155751,10,-0.000133697,-3.33765,-0.00614033,-9.6086,133.515,0.290917,
2,0,0,1,0,60282.8,0.289744,0.289407,-0.632809,31,0.0155646,10,-0.000183139,-3.19873,-0.0123977,-4.75895,106.858,0.289407,
2,0,0,1,0,60282.8,0.288257,0.287936,-0.763974,31,0.0155514,10,-0.000219976,-3.11692,-0.0193734,-3.04541,86.9007,0.287936,
2,0,0,1,0,60282.8,0.286753,0.286378,-0.880521,31,0.0155356,10,-0.000252162,-3.05526,-0.0265211,-2.22464,74.512,0.286378,
2,0,0,1,0,60282.9,0.285249,0.284909,-0.980491,31,0.0155179,10,-0.00027935,-3.00856,-0.0357844,-1.64876,62.2784,0.284909,
2,0,0,1,0,60282.9,0.28376,0.283435,-1.06547,31,0.0154986,10,-0.000301991,-2.97246,-0.04402,-1.3403,55.1986,0.283435,
2,0,0,1,0,60282.9,0.282257,0.281911,-1.13918,31,0.0154776,10,-0.000321147,-2.94341,-0.0553461,-1.06602,47.0044,0.281911,
2,0,0,1,0,60282.9,0.28076,0.280403,-1.20815,31,0.0154554,10,-0.000338769,-2.91788,-0.0658976,-0.895328,41.9473,0.280403,
2,0,0,1,0,60282.9,0.279264,0.278958,-1.2666,31,0.015432,10,-0.000353329,-2.89736,-0.0776156,-0.760157,37.4549,0.278958,
2,0,0,1,0,60283,0.27776,0.277413,-1.31782,31,0.0154075,10,-0.000365578,-2.88015,-0.0885027,-0.666646,34.169,0.2774125,
2,0,0,1,0,60283,0.276271,0.275889,-1.37179,31,0.0153823,10,-0.000378463,-2.86271,-0.0978486,-0.602972,32.1247,0.275889,
2,0,0,1,0,60283,0.274767,0.274406,-1.41637,31,0.0153559,10,-0.000388659,-2.84882,-0.118169,-0.499285,27.4804,0.2744059,
2,0,0,1,0,60283,0.273264,0.272916,-1.46087,31,0.0153287,10,-0.000398695,-2.83539,-0.132443,-0.445473,25.2754,0.272916,
2,0,0,1,0,60283,0.271776,0.271437,-1.49772,31,0.015301,10,-0.000406537,-2.82457,-0.131295,-0.44937,26.1747,0.271437,
2,0,0,1,0,60283.1,0.270273,0.26992,-1.53928,31,0.0152723,10,-0.000415482,-2.81268,-0.153256,-0.384976,23.0098,0.26992,
2,0,0,1,0,60283.1,0.268769,0.268434,-1.56821,31,0.0152429,10,-0.000420962,-2.80459,-0.163149,-0.361633,22.0499,0.268434,
2,0,0,1,0,60283.1,0.26728,0.266919,-1.59859,31,0.0152133,10,-0.000426696,-2.79626,-0.173012,-0.341016,21.2761,0.266919,
2,0,0,1,0,60283.1,0.265777,0.26537,-1.63029,31,0.0151828,10,-0.00043263,-2.78774,-0.172042,-0.342939,21.7942,0.26537,
2,0,0,1,0,60283.1,0.26428,0.263881,-1.65846,31,0.0151518,10,-0.000437635,-2.7803,-0.17882,-0.329941,21.3273,0.263881,
2,0,0,1,0,60283.1,0.262784,0.262437,-1.68797,31,0.0151203,10,-0.000442987,-2.77263,-0.211966,-0.278346,18.3027,0.262437,
2,0,0,1,0,60283.2,0.26128,0.26092,-1.71238,31,0.0150881,10,-0.000446795,-2.7664,-0.224722,-0.262546,17.5692,0.26092,
2,0,0,1,0,60283.2,0.259791,0.259453,-1.73913,31,0.0150558,10,-0.000451222,-2.75967,-0.2225,-0.265168,18.0311,0.2594527,
2,0,0,1,0,60283.2,0.258287,0.257927,-1.76717,31,0.0150226,10,-0.000455801,-2.75272,-0.230507,-0.255958,17.6295,0.257927,
2,0,0,1,0,60283.2,0.256786,0.256437,-1.79014,31,0.0149889,10,-0.000459058,-2.74711,-0.263498,-0.223911,15.6538,0.256437,
2,0,0,1,0,60283.2,0.255296,0.254948,-1.8125,31,0.0149551,10,-0.000462093,-2.74172,-0.308138,-0.191472,13.5449,0.254948,
2,0,0,1,0,60283.3,0.253793,0.253478,-1.83368,31,0.0149206,10,-0.000464797,-2.73668,-0.317287,-0.185951,13.3108,0.253478,
2,0,0,1,0,60283.3,0.252289,0.251938,-1.85702,31,0.0148857,10,-0.000467853,-2.73118,-0.364036,-0.162072,11.7467,0.251938,
2,0,0,1,0,60283.3,0.2508,0.250453,-1.88137,31,0.0148508,10,-0.000471194,-2.72553,-0.354327,-0.166513,12.2078,0.2504527,
2,0,0,1,0,60283.3,0.249296,0.248904,-1.898,31,0.0148151,10,-0.000472419,-2.7217,-0.380666,-0.154991,11.4828,0.248904,
2,0,0,1,0,60283.3,0.2478,0.247481,-1.91713,31,0.0147792,10,-0.000474455,-2.71735,-0.379191,-0.155595,11.6646,0.247481,
2,0,0,1,0,60283.4,0.246304,0.245956,-1.94017,31,0.0147429,10,-0.000477195,-2.71216,-0.34735,-0.169858,12.8495,0.245956,
2,0,0,1,0,60283.4,0.2448,0.244463,-1.96295,31,0.0147061,10,-0.000479869,-2.70709,-0.325221,-0.181415,13.8621,0.244463,
2,0,0,1,0,60283.4,0.243313,0.24296,-1.98073,31,0.0146693,10,-0.000481239,-2.70317,-0.331746,-0.177847,13.7233,0.24296,
2,0,0,1,0,60283.4,0.241809,0.241431,-1.99326,31,0.0146317,10,-0.000481235,-2.70044,-0.347708,-0.169683,13.2209,0.241431,
2,0,0,1,0,60283.4,0.240306,0.239972,-2.00905,31,0.0145939,10,-0.000482116,-2.69701,-0.349605,-0.168762,13.2625,0.239972,
2,0,0,1,0,60283.4,0.238816,0.238402,-2.02816,31,0.0145561,10,-0.000483517,-2.6929,-0.351362,-0.167918,13.3126,0.238402,
2,0,0,1,0,60283.5,0.237313,0.236952,-2.04728,31,0.0145176,10,-0.000485105,-2.68882,-0.403094,-0.146368,11.6974,0.2369515,
2,0,0,1,0,60283.5,0.235809,0.235447,-2.06255,31,0.0144787,10,-0.00048562,-2.6856,-0.444583,-0.132709,10.6842,0.235447,
2,0,0,1,0,60283.5,0.23432,0.233942,-2.07576,31,0.0144399,10,-0.000485608,-2.68282,-0.417507,-0.141315,11.4824,0.2339422,
2,0,0,1,0,60283.5,0.232816,0.232486,-2.09268,31,0.0144005,10,-0.000486519,-2.6793,-0.475634,-0.124045,10.1655,0.232486,
2,0,0,1,0,60283.5,0.23132,0.230978,-2.1128,31,0.0143609,10,-0.000488011,-2.67514,-0.560283,-0.105304,8.6885,0.230978,
2,0,0,1,0,60283.6,0.229824,0.229447,-2.13141,31,0.014321,10,-0.000489046,-2.67133,-0.528457,-0.111646,9.27058,0.229447,
2,0,0,1,0,60283.6,0.22832,0.227984,-2.14419,31,0.0142806,10,-0.00048884,-2.66874,-0.569821,-0.103541,8.67124,0.2279842,
2,0,0,1,0,60283.6,0.226832,0.226474,-2.16527,31,0.0142404,10,-0.000490377,-2.66449,-0.501529,-0.11764,9.91103,0.226474,
2,0,0,1,0,60283.6,0.225329,0.224934,-2.17905,31,0.0141994,10,-0.000490142,-2.66173,-0.476814,-0.123738,10.508,0.224934,
2,0,0,1,0,60283.6,0.223825,0.223535,-2.19374,31,0.0141581,10,-0.000490378,-2.65881,-0.544143,-0.108427,9.28338,0.223535,
2,0,0,1,0,60283.7,0.222336,0.221975,-2.21031,31,0.014117,10,-0.000490633,-2.65555,-0.498084,-0.118454,10.1935,0.221975,
2,0,0,1,0,60283.7,0.220833,0.220485,-2.22523,31,0.0140752,10,-0.00049063,-2.65262,-0.454606,-0.129783,11.266,0.2204846,
2,0,0,1,0,60283.7,0.219329,0.218998,-2.24203,31,0.014033,10,-0.000491001,-2.64936,-0.422829,-0.139536,12.1885,0.218998,
2,0,0,1,0,60283.7,0.21784,0.217497,-2.25426,31,0.013991,10,-0.000490297,-2.647,-0.475632,-0.124045,10.8973,0.217497,
2,0,0,1,0,60283.7,0.216336,0.215968,-2.26595,31,0.0139483,10,-0.000489371,-2.64475,-0.470426,-0.125418,11.1085,0.215968,
2,0,0,1,0,60283.7,0.21484,0.214425,-2.28186,31,0.0139056,10,-0.000489288,-2.64171,-0.525522,-0.112269,10.0126,0.214425,
2,0,0,1,0,60283.8,0.213343,0.212995,-2.2965,31,0.0138626,10,-0.000489141,-2.63893,-0.469171,-0.125754,11.2859,0.212995,
2,0,0,1,0,60283.8,0.21184,0.211477,-2.30847,31,0.013819,10,-0.00048819,-2.63667,-0.543841,-0.108488,9.77288,0.211477,
2,0,0,1,0,60283.8,0.210352,0.210025,-2.32446,31,0.0137756,10,-0.000488194,-2.63368,-0.591364,-0.0997693,9.05502,0.210025,
2,0,0,1,0,60283.8,0.208849,0.208503,-2.33894,31,0.0137316,10,-0.000487674,-2.63098,-0.526111,-0.112144,10.2633,0.208503,
2,0,0,1,0,60283.8,0.207345,0.206985,-2.35079,31,0.0136872,10,-0.000486579,-2.62879,-0.519343,-0.113605,10.46,0.206985,
2,0,0,1,0,60283.9,0.205856,0.205476,-2.37817,31,0.013643,10,-0.000488657,-2.62376,-0.604714,-0.0975668,9.0203,0.205476,
2,0,0,1,0,60283.9,0.204353,0.203982,-2.39099,31,0.013598,10,-0.000487719,-2.62142,-0.722783,-0.0816289,7.60903,0.203982,
2,0,0,1,0,60283.9,0.202849,0.202499,-2.40052,31,0.0135528,10,-0.000486103,-2.61969,-0.618348,-0.0954155,8.94321,0.2024989,
2,0,0,1,0,60283.9,0.20136,0.201007,-2.42083,31,0.0135078,10,-0.000486603,-2.61604,-0.582716,-0.10125,9.55292,0.201007,
2,0,0,1,0,60283.9,0.199856,0.199527,-2.4351,31,0.013462,10,-0.000485868,-2.61348,-0.581377,-0.101483,9.63787,0.199527,
2,0,0,1,0,60284,0.19836,0.198009,-2.45318,31,0.0134162,10,-0.000485752,-2.61027,-0.597301,-0.0987776,9.44068,0.198009,
2,0,0,1,0,60284,0.196863,0.196527,-2.46502,31,0.0133701,10,-0.000484442,-2.60818,-0.53529,-0.110221,10.5897,0.196527,
2,0,0,1,0,60284,0.19536,0.195,-2.47649,31,0.0133235,10,-0.000482915,-2.60616,-0.467725,-0.126142,12.1975,0.195,
2,0,0,1,0,60284,0.193872,0.193491,-2.49819,31,0.013277,10,-0.000483376,-2.60237,-0.457068,-0.129084,12.5609,0.193491,
2,0,0,1,0,60284,0.192369,0.191967,-2.50906,31,0.0132298,10,-0.000481657,-2.60049,-0.537364,-0.109795,10.7478,0.191967,
2,0,0,1,0,60284,0.190865,0.190496,-2.52231,31,0.0131823,10,-0.000480489,-2.5982,-0.501899,-0.117554,11.6017,0.190496,
2,0,0,1,0,60284.1,0.189376,0.189046,-2.53749,31,0.013135,10,-0.000479701,-2.5956,-0.513841,-0.114822,11.3992,0.189046,
2,0,0,1,0,60284.1,0.187872,0.187529,-2.55422,31,0.0130868,10,-0.00047899,-2.59274,-0.49134,-0.12008,11.9785,0.187529,
2,0,0,1,0,60284.1,0.186369,0.186035,-2.57428,31,0.0130384,10,-0.000478906,-2.58934,-0.559055,-0.105535,10.6011,0.186035,
2,0,0,1,0,60284.1,0.18488,0.184477,-2.58915,31,0.0129901,10,-0.00047764,-2.58684,-0.593639,-0.0993871,10.052,0.1844774,
2,0,0,1,0,60284.1,0.183376,0.183038,-2.60478,31,0.0129411,10,-0.000476773,-2.58423,-0.60541,-0.0974547,9.9288,0.183038,
2,0,0,1,0,60284.2,0.18188,0.181525,-2.62399,31,0.0128919,10,-0.00047632,-2.58104,-0.61809,-0.0954553,9.78459,0.181525,
2,0,0,1,0,60284.2,0.180383,0.180015,-2.64883,31,0.0128424,10,-0.000476829,-2.57695,-0.47918,-0.123127,12.7102,0.1800154,
2,0,0,1,0,60284.2,0.17888,0.178485,-2.66876,31,0.0127923,10,-0.000476335,-2.57369,-0.583237,-0.10116,10.5129,0.178485,
2,0,0,1,0,60284.2,0.177392,0.17704,-2.68556,31,0.0127424,10,-0.000475451,-2.57097,-0.487709,-0.120974,12.6856,0.17704,
2,0,0,1,0,60284.2,0.175889,0.17553,-2.70203,31,0.0126916,10,-0.000474285,-2.56831,-0.431482,-0.136738,14.4235,0.17553,
2,0,0,1,0,60284.3,0.174385,0.174052,-2.72514,31,0.0126404,10,-0.000474317,-2.56461,-0.437834,-0.134754,14.3297,0.174052,
2,0,0,1,0,60284.3,0.172896,0.172585,-2.74731,31,0.0125893,10,-0.000474146,-2.56109,-0.409337,-0.144135,15.4428,0.172585,
2,0,0,1,0,60284.3,0.171392,0.171033,-2.76733,31,0.0125373,10,-0.000473305,-2.55794,-0.413003,-0.142856,15.4389,0.171033,
2,0,0,1,0,60284.3,0.169889,0.169496,-2.79126,31,0.0124848,10,-0.000473108,-2.5542,-0.369323,-0.159752,17.4146,0.169496,
2,0,0,1,0,60284.3,0.1684,0.168058,-2.81601,31,0.0124325,10,-0.000473253,-2.55037,-0.334155,-0.176565,19.3945,0.168058,
2,0,0,1,0,60284.3,0.166896,0.166539,-2.84046,31,0.0123791,10,-0.000473047,-2.54661,-0.372134,-0.158545,17.5717,0.166539,
2,0,0,1,0,60284.4,0.165392,0.164981,-2.86308,31,0.0123252,10,-0.000472353,-2.54317,-0.366264,-0.161086,18.0348,0.164981,
2,0,0,1,0,60284.4,0.163905,0.163564,-2.89148,31,0.0122715,10,-0.00047294,-2.53888,-0.359379,-0.164172,18.56,0.1635635,
2,0,0,1,0,60284.4,0.162401,0.162038,-2.91761,31,0.0122166,10,-0.000472763,-2.53497,-0.338937,-0.174074,19.8724,0.162038,
2,0,0,1,0,60284.4,0.160905,0.160514,-2.95433,31,0.0121614,10,-0.000474211,-2.52954,-0.324764,-0.18167,20.9558,0.160514,
2,0,0,1,0,60284.4,0.159409,0.159057,-2.99066,31,0.0121057,10,-0.000475686,-2.52423,-0.350364,-0.168396,19.65,0.159057,
2,0,0,1,0,60284.5,0.157905,0.157537,-3.02226,31,0.012049,10,-0.000476117,-2.51967,-0.297756,-0.198149,23.384,0.157537,
2,0,0,1,0,60284.5,0.156416,0.156065,-3.06445,31,0.0119922,10,-0.000478252,-2.51365,-0.262905,-0.224416,26.8542,0.156065,
2,0,0,1,0,60284.5,0.154912,0.154542,-3.10944,31,0.011934,10,-0.000480539,-2.50732,-0.247744,-0.238149,28.8802,0.154542,
2,0,0,1,0,60284.5,0.153409,0.15306,-3.14896,31,0.011875,10,-0.000481981,-2.50183,-0.254578,-0.231756,28.4874,0.15306,
2,0,0,1,0,60284.5,0.151919,0.151554,-3.19862,31,0.0118158,10,-0.000484766,-2.49504,-0.215047,-0.274358,34.2604,0.151554,
2,0,0,1,0,60284.6,0.150416,0.150017,-3.24876,31,0.0117551,10,-0.000487371,-2.48828,-0.198783,-0.296806,37.675,0.150017,
2,0,0,1,0,60284.6,0.148912,0.148553,-3.31038,31,0.0116933,10,-0.000491767,-2.48012,-0.177539,-0.332321,42.9208,0.148553,
2,0,0,1,0,60284.6,0.147425,0.147041,-3.368,31,0.011631,10,-0.000495235,-2.47263,-0.172905,-0.341227,44.9118,0.147041,
2,0,0,1,0,60284.6,0.145921,0.145574,-3.43397,31,0.0115669,10,-0.000499897,-2.4642,-0.159161,-0.370695,49.7828,0.145574,
2,0,0,1,0,60284.6,0.144425,0.144069,-3.50705,31,0.0115018,10,-0.000505258,-2.45506,-0.154347,-0.382256,52.4274,0.144069,
2,0,0,1,0,60284.6,0.142929,0.142589,-3.5898,31,0.0114352,10,-0.000511866,-2.44493,-0.141259,-0.417673,58.6654,0.142589,
2,0,0,1,0,60284.7,0.141425,0.141046,-3.68212,31,0.0113666,10,-0.000519349,-2.4339,-0.131709,-0.447957,64.5018,0.141046,
2,0,0,1,0,60284.7,0.139936,0.13956,-3.78058,31,0.0112969,10,-0.000527619,-2.42244,-0.125792,-0.469027,69.3652,0.13956,
2,0,0,1,0,60284.7,0.138432,0.138117,-3.88805,31,0.0112246,10,-0.000537004,-2.41027,-0.122003,-0.483595,73.6594,0.138117,
2,0,0,1,0,60284.7,0.136929,0.136568,-4.0083,31,0.0111501,10,-0.000547405,-2.39704,-0.114595,-0.514855,80.6653,0.136568,
2,0,0,1,0,60284.7,0.135439,0.135077,-4.14042,31,0.0110742,10,-0.000559275,-2.38296,-0.111606,-0.528646,85.4484,0.135077,
2,0,0,1,0,60284.8,0.133936,0.133589,-4.27732,31,0.0109949,10,-0.000571403,-2.36883,-0.109944,-0.536638,89.3915,0.1335889,
2,0,0,1,0,60284.8,0.132432,0.132098,-4.40743,31,0.0109132,10,-0.000582215,-2.35581,-0.108468,-0.543939,93.6352,0.132098,
2,0,0,1,0,60284.8,0.130945,0.130624,-4.54689,31,0.0108297,10,-0.000593932,-2.34229,-0.108734,-0.54261,96.3248,0.130624,
2,0,0,1,0,60284.8,0.129441,0.129062,-4.69844,31,0.0107426,10,-0.000606392,-2.32805,-0.109348,-0.539564,98.9346,0.129062,
2,0,0,1,0,60284.8,0.127945,0.127582,-4.85011,31,0.0106531,10,-0.000618785,-2.31425,-0.111773,-0.527856,99.86,0.127582,
2,0,0,1,0,60284.8,0.126448,0.12607,-4.99356,31,0.0105609,10,-0.000629537,-2.30159,-0.113674,-0.519028,101.161,0.12607,
2,0,0,1,0,60284.9,0.124945,0.124602,-5.14879,31,0.0104654,10,-0.00064155,-2.28829,-0.115738,-0.509774,102.345,0.124602,
2,0,0,1,0,60284.9,0.123456,0.123134,-5.30076,31,0.010368,10,-0.000652703,-2.27566,-0.121035,-0.487463,100.701,0.123134,
2,0,0,1,0,60284.9,0.121952,0.121625,-5.44432,31,0.0102668,10,-0.000662166,-2.26406,-0.126707,-0.465642,98.8051,0.121625,
2,0,0,1,0,60284.9,0.120449,0.120107,-5.58235,31,0.0101629,10,-0.00067048,-2.25318,-0.133533,-0.44184,96.2499,0.120107,
2,0,0,1,0,60284.9,0.118959,0.118609,-5.72799,31,0.0100575,10,-0.000679392,-2.242,-0.142184,-0.414956,92.6741,0.1186091,
2,0,0,1,0,60285,0.117456,0.117107,-5.86179,31,0.00994827,10,-0.000686454,-2.23197,-0.148235,-0.398017,91.0159,0.117107,
2,0,0,1,0,60285,0.115952,0.115615,-5.99626,31,0.00983647,10,-0.000693257,-2.22212,-0.158472,-0.372307,87.0524,0.115615,
2,0,0,1,0,60285,0.114465,0.114126,-6.12397,31,0.00972346,10,-0.000698906,-2.21297,-0.175878,-0.33546,80.1543,0.114126,
2,0,0,1,0,60285,0.112961,0.112606,-6.2459,31,0.00960692,10,-0.000703325,-2.2044,-0.181746,-0.32463,79.1371,0.112606,
2,0,0,1,0,60285,0.111465,0.111133,-6.36621,31,0.00948873,10,-0.000707498,-2.19612,-0.196537,-0.300198,74.5454,0.111133,
2,0,0,1,0,60285.1,0.109968,0.109633,-6.48764,31,0.00936837,10,-0.000711256,-2.18791,-0.206173,-0.286167,72.3149,0.109633,
2,0,0,1,0,60285.1,0.108465,0.108133,-6.5901,31,0.00924529,10,-0.000712604,-2.18111,-0.22629,-0.260727,66.9526,0.108133,
2,0,0,1,0,60285.1,0.106976,0.106587,-6.68838,31,0.00912164,10,-0.000712894,-2.17468,-0.240685,-0.245133,63.9125,0.106587,
2,0,0,1,0,60285.1,0.105472,0.105134,-6.7849,31,0.00899485,10,-0.000713322,-2.16846,-0.255941,-0.230522,60.9583,0.1051338,
2,0,0,1,0,60285.1,0.103968,0.103598,-6.86858,31,0.00886632,10,-0.000711569,-2.16313,-0.284167,-0.207624,55.6113,0.103598,
2,0,0,1,0,60285.1,0.102479,0.10213,-6.94753,31,0.00873763,10,-0.000709553,-2.15817,-0.329508,-0.179055,48.4715,0.10213,
2,0,0,1,0,60285.2,0.100976,0.100642,-7.01213,31,0.0086062,10,-0.000705719,-2.15415,-0.356749,-0.165383,45.2161,0.100642,
2,0,0,1,0,60285.2,0.0994721,0.0990732,-7.07579,31,0.00847357,10,-0.000701021,-2.15023,-0.398823,-0.147935,40.8043,0.0990732,
2,0,0,1,0,60285.2,0.0979846,0.0976134,-7.12412,31,0.00834128,10,-0.00069541,-2.14727,-0.481909,-0.12243,34.0114,0.0976134,
2,0,0,1,0,60285.2,0.0964811,0.0961157,-7.16965,31,0.00820665,10,-0.000689116,-2.1445,-0.66278,-0.089019,24.884,0.0961157,
2,0,0,1,0,60285.2,0.0949847,0.0946314,-7.19915,31,0.00807201,10,-0.000681266,-2.14272,-0.83684,-0.0705033,19.7961,0.0946314,
2,0,0,1,0,60285.3,0.0934883,0.0931166,-7.22164,31,0.00793693,10,-0.000672455,-2.14136,-1.36144,-0.0433364,12.2158,0.0931166,
2,0,0,1,0,60285.3,0.0919847,0.0916162,-7.23589,31,0.00780072,10,-0.000662925,-2.14051,-2.24142,-0.0263226,7.43181,0.0916162,
2,0,0,1,0,60285.3,0.0904955,0.0901353,-7.25037,31,0.00766569,10,-0.000653514,-2.13964,-22.508,-0.00262129,0.741069,0.0901353,
2,0,0,1,0,60285.3,0.0889919,0.0886366,-7.24986,31,0.00752918,10,-0.000642603,-2.13967,2.2718,0.0259706,-7.34299,0.0886366,
2,0,0,1,0,60285.3,0.0874884,0.0870902,-7.24182,31,0.00739281,10,-0.000630691,-2.14015,1.82334,0.0323581,-9.13818,0.0870902,
2,0,0,1,0,60285.4,0.0860009,0.0856252,-7.22463,31,0.00725812,10,-0.00061861,-2.14118,1.37673,0.0428552,-12.0744,0.0856252,
2,0,0,1,0,60285.4,0.0844973,0.0841425,-7.20751,31,0.00712228,10,-0.000606458,-2.14221,1.07301,0.0549857,-15.4491,0.0841425,
2,0,0,1,0,60285.4,0.0829938,0.082635,-7.18544,31,0.00698683,10,-0.000593769,-2.14355,0.867927,0.0679781,-19.0327,0.082635,
2,0,0,1,0,60285.4,0.0815045,0.0811864,-7.15408,31,0.00685341,10,-0.000580814,-2.14545,0.806257,0.0731777,-20.4271,0.0811864,
2,0,0,1,0,60285.4,0.080001,0.0796257,-7.12037,31,0.00671914,10,-0.000566964,-2.1475,0.897875,0.0657107,-18.2472,0.0796257,
2,0,0,1,0,60285.4,0.0785046,0.078139,-7.09114,31,0.00658607,10,-0.000554095,-2.14928,0.816054,0.0722991,-20.0011,0.078139,
2,0,0,1,0,60285.5,0.0770082,0.0766446,-7.05622,31,0.00645363,10,-0.000540821,-2.15143,0.743254,0.0793807,-21.8597,0.0766446,
2,0,0,1,0,60285.5,0.0755046,0.0751953,-7.0181,31,0.00632111,10,-0.000527728,-2.15378,0.800043,0.0737461,-20.2054,0.07519535,
2,0,0,1,0,60285.5,0.0740154,0.0736731,-6.98593,31,0.00619064,10,-0.000514675,-2.15578,0.86438,0.068257,-18.6262,0.0736731,
2,0,0,1,0,60285.5,0.0725118,0.0721311,-6.95491,31,0.00605933,10,-0.000501666,-2.15771,0.862335,0.0684189,-18.5861,0.0721311,
2,0,0,1,0,60285.5,0.0710083,0.0706256,-6.92609,31,0.00592851,10,-0.00048916,-2.15951,0.826647,0.0713726,-19.305,0.07062564,
2,0,0,1,0,60285.6,0.0695208,0.0691423,-6.89668,31,0.00579968,10,-0.000476853,-2.16136,0.846158,0.0697269,-18.7921,0.0691423,
2,0,0,1,0,60285.6,0.0680173,0.0676467,-6.87073,31,0.00567003,10,-0.000464782,-2.163,0.902532,0.0653717,-17.554,0.06764666,
2,0,0,1,0,60285.6,0.0665137,0.0661548,-6.84835,31,0.00554081,10,-0.000453051,-2.16441,0.94765,0.0622592,-16.6424,0.0661548,
2,0,0,1,0,60285.6,0.0650244,0.0646476,-6.82637,31,0.00541339,10,-0.000441308,-2.16581,0.85749,0.0688054,-18.3291,0.0646476,
2,0,0,1,0,60285.6,0.0635209,0.0631727,-6.80456,31,0.00528508,10,-0.000429862,-2.1672,0.812625,0.0726042,-19.2738,0.0631727,
2,0,0,1,0,60285.7,0.0620245,0.0616811,-6.78227,31,0.00515793,10,-0.000418338,-2.16862,0.948635,0.0621946,-16.4494,0.06168114,
2,0,0,1,0,60285.7,0.0605281,0.0601733,-6.75772,31,0.00503125,10,-0.000406634,-2.1702,0.947301,0.0622822,-16.4195,0.0601733,
2,0,0,1,0,60285.7,0.0590246,0.0586818,-6.73633,31,0.00490428,10,-0.0003953,-2.17158,0.934557,0.0631315,-16.5875,0.0586818,
2,0,0,1,0,60285.7,0.0575353,0.0571871,-6.7115,31,0.0047791,10,-0.000383812,-2.17318,0.916156,0.0643995,-16.8554,0.0571871,
2,0,0,1,0,60285.7,0.0560317,0.0556919,-6.68174,31,0.00465308,10,-0.000372118,-2.17511,1.02848,0.0573663,-14.9619,0.0556919,
2,0,0,1,0,60285.7,0.0545282,0.0541618,-6.6541,31,0.00452753,10,-0.000360398,-2.17691,1.21738,0.0484646,-12.5908,0.0541618,
2,0,0,1,0,60285.8,0.0530407,0.0527044,-6.63721,31,0.00440375,10,-0.00034981,-2.17801,1.03213,0.0571634,-14.8013,0.0527044,
2,0,0,1,0,60285.8,0.0515372,0.0512162,-6.60691,31,0.00427907,10,-0.000338381,-2.18,0.955593,0.0617418,-15.9118,0.0512162,
2,0,0,1,0,60285.8,0.0500336,0.0497049,-6.57001,31,0.0041549,10,-0.000326562,-2.18243,0.889971,0.0662943,-17.0222,0.0497049,
2,0,0,1,0,60285.8,0.0485444,0.0481871,-6.55097,31,0.00403264,10,-0.000315673,-2.18369,0.88558,0.066623,-17.0374,0.0481871,
2,0,0,1,0,60285.8,0.0470408,0.0466803,-6.52196,31,0.00390953,10,-0.000304447,-2.18562,0.860089,0.0685975,-17.4614,0.0466803,
2,0,0,1,0,60285.9,0.0455444,0.0451449,-6.49274,31,0.00378761,10,-0.000293114,-2.18757,0.682258,0.0864775,-21.9128,0.0451449,
2,0,0,1,0,60285.9,0.044048,0.0436795,-6.46325,31,0.00366621,10,-0.000282311,-2.18955,0.709675,0.0831366,-20.9772,0.0436795,
2,0,0,1,0,60285.9,0.0425445,0.0421757,-6.4308,31,0.00354481,10,-0.000271223,-2.19173,0.646661,0.091238,-22.9201,0.0421757,
2,0,0,1,0,60285.9,0.0410552,0.0406705,-6.39839,31,0.00342524,10,-0.000260226,-2.19393,0.698145,0.0845096,-21.1197,0.0406705,
2,0,0,1,0,60285.9,0.0395516,0.0391582,-6.37957,31,0.00330497,10,-0.000249812,-2.19521,0.651498,0.0905606,-22.5172,0.0391582,
2,0,0,1,0,60286,0.0380481,0.0377027,-6.34707,31,0.00318525,10,-0.000239302,-2.19743,0.611812,0.0964349,-23.8462,0.0377027,
2,0,0,1,0,60286,0.0365606,0.0362286,-6.30459,31,0.0030675,10,-0.000228406,-2.20034,0.593333,0.0994382,-24.4719,0.0362286,
2,0,0,1,0,60286,0.0350571,0.0347234,-6.27545,31,0.00294914,10,-0.000217905,-2.20236,0.657393,0.0897485,-21.9535,0.03472342,
2,0,0,1,0,60286,0.0335535,0.0331876,-6.23765,31,0.00283139,10,-0.000207012,-2.20498,0.617876,0.0954885,-23.2175,0.0331876,
2,0,0,1,0,60286,0.0320643,0.0316855,-6.1986,31,0.00271556,10,-0.000196406,-2.20771,0.573798,0.102824,-24.8773,0.0316855,
2,0,0,1,0,60286,0.0305607,0.0302117,-6.15262,31,0.00259926,10,-0.000185881,-2.21094,0.555744,0.106164,-25.527,0.0302117,
2,0,0,1,0,60286.1,0.0290643,0.0286746,-6.11647,31,0.0024843,10,-0.000175387,-2.2135,0.589981,0.100003,-23.8796,0.0286746,
2,0,0,1,0,60286.1,0.0275679,0.0272313,-6.08095,31,0.00237005,10,-0.000165592,-2.21603,0.535145,0.11025,-26.1446,0.0272313,
2,0,0,1,0,60286.1,0.0260644,0.0256968,-6.03287,31,0.00225595,10,-0.000155026,-2.21948,0.508688,0.115985,-27.322,0.0256968,
2,0,0,1,0,60286.1,0.0245751,0.0241835,-5.99343,31,0.00214387,10,-0.000144942,-2.22232,0.479682,0.122998,-28.7732,0.0241835,
2,0,0,1,0,60286.1,0.0230716,0.0227195,-5.948,31,0.00203143,10,-0.000135136,-2.22563,0.482139,0.122371,-28.4103,0.0227195,
2,0,0,1,0,60286.2,0.021568,0.0212164,-5.90231,31,0.00191976,10,-0.000125226,-2.22898,0.466549,0.126461,-29.1597,0.0212164,
2,0,0,1,0,60286.2,0.0200805,0.0196649,-5.86159,31,0.00181008,10,-0.000115268,-2.23198,0.430839,0.136942,-31.3409,0.0196649,
2,0,0,1,0,60286.2,0.018577,0.0182061,-5.8162,31,0.00170005,10,-0.00010589,-2.23536,0.454156,0.129911,-29.5061,0.0182061,
2,0,0,1,0,60286.2,0.0170735,0.0166944,-5.77334,31,0.00159087,10,-9.63827e-05,-2.23857,0.449412,0.131283,-29.6064,0.0166944,
2,0,0,1,0,60286.2,0.0155842,0.015225,-5.73709,31,0.00148364,10,-8.73474e-05,-2.24131,0.474777,0.124269,-27.8161,0.015225,
2,0,0,1,0,60286.3,0.0140806,0.0137298,-5.69989,31,0.00137597,10,-7.82581e-05,-2.24413,0.465856,0.126649,-28.1465,0.0137298,
2,0,0,1,0,60286.3,0.0125842,0.012169,-5.65973,31,0.00126963,10,-6.8873e-05,-2.2472,0.449086,0.131378,-28.9924,0.012169,
2,0,0,1,0,60286.3,0.0110878,0.0107313,-5.61711,31,0.00116411,10,-6.02792e-05,-2.25049,0.486766,0.121208,-26.5519,0.0107313,
2,0,0,1,0,60286.3,0.00958429,0.00925003,-5.57853,31,0.00105877,10,-5.16016e-05,-2.25348,0.557048,0.105915,-23.0473,0.00925003,
2,0,0,1,0,60286.3,0.0080968,0.00771316,-5.54333,31,0.000955227,10,-4.27566e-05,-2.25623,0.598249,0.0986212,-21.3296,0.00771316,
2,0,0,1,0,60286.3,0.00659326,0.00627718,-5.50414,31,0.000851244,10,-3.45505e-05,-2.25931,0.572674,0.103025,-22.1269,0.00627718,
2,0,0,1,0,60286.4,0.00508972,0.00475497,-5.46511,31,0.0007479,10,-2.59865e-05,-2.2624,0.641654,0.0919499,-19.6355,0.00475497,
2,0,0,1,0,60286.4,0.00360044,0.00324673,-5.43919,31,0.000646318,10,-1.76596e-05,-2.26447,0.906338,0.0650972,-13.8506,0.00324673,
2,0,0,1,0,60286.4,0.0020969,0.00169384,-5.437,31,0.00054407,10,-9.20942e-06,-2.26464,0.944663,0.0624561,-13.2044,0.001693842,
2,0,0,1,0,60286.4,0.000593362,0.000186285,-5.39545,31,0.000442024,10,-1.00509e-06,-2.26797, , , ,0.000186285,
2,0,0,1,0,60286.4,0.000199195,-0.000227978,-5.39105,31,0.000415544,10,1.22904e-06,-2.26833, , , ,-0.000227978,