File: Figure_codes/Fig_3-5/rawdata_trumpetplot_data/after 10th/20221101_1-115_003_TrumpetPlot_ParaChange_from10_every3_07_CV_C01_14.csv
mode,ox/red,error,control changes,counter inc.,time/s,control/V,Ewe/V,<I>/mA,cycle number,(Q-Qo)/C,I Range,P/W,log(|I|),Tafel slope mV/dec,alpha_eff,dI/d(E-IR),E-IR/V,
2,0,0,0,0,28746.8,2.44065e-05,-0.000363498,-2.7491,15,0.0000000E+000,10,9.99294e-07,-2.56081, , , ,-0.000363498,
2,0,0,1,0,28746.9,0.0013005,0.000943732,-1.31473,15,-4.00498e-05,10,-1.24075e-06,-2.88116, , , ,0.000943732,
2,0,0,1,0,28746.9,0.00279471,0.00251508,-0.320944,15,-5.9056e-05,10,-8.07198e-07,-3.49357,-0.00708423,-8.32835,548.209,0.00251508,
2,1,0,1,0,28746.9,0.00429425,0.00402091,0.312166,15,-5.82995e-05,10,1.25519e-06,-3.50561,0.0254773,2.31579,364.898,0.00402091,
2,1,0,1,0,28746.9,0.00579379,0.00545891,0.746941,15,-4.44095e-05,10,4.07748e-06,-3.12671,0.00414241,14.2429,257.514,0.00545891,
2,1,0,1,0,28747,0.007288,0.0069811,1.06334,15,-2.12304e-05,10,7.42328e-06,-2.97333,0.0112919,5.22499,193.898,0.0069811,
2,1,0,1,0,28747,0.00878882,0.00842621,1.3142,15,9.15331e-06,10,1.10738e-05,-2.88134,0.019321,3.05368,148.942,0.00842621,
2,1,0,1,0,28747,0.0102896,0.00996249,1.51732,15,4.50735e-05,10,1.51162e-05,-2.81892,0.0289139,2.04054,116.662,0.00996249,
2,1,0,1,0,28747,0.0117838,0.0114678,1.67362,15,8.51993e-05,10,1.91928e-05,-2.77634,0.0386229,1.52759,97.6548,0.0114678,
2,1,0,1,0,28747.1,0.0132834,0.0129682,1.79564,15,0.000128966,10,2.32863e-05,-2.74578,0.0489105,1.20629,83.9656,0.0129682,
2,1,0,1,0,28747.1,0.0147816,0.0144124,1.90943,15,0.000175783,10,2.75195e-05,-2.7191,0.0624664,0.944507,70.0386,0.0144124,
2,1,0,1,0,28747.1,0.0162811,0.0160059,2.01596,15,0.000225311,10,3.22674e-05,-2.69552,0.0747804,0.788977,61.5534,0.0160059,
2,1,0,1,0,28747.1,0.0177753,0.0174711,2.10075,15,0.000276904,10,3.67024e-05,-2.67763,0.0885518,0.666277,54.26,0.0174711,
2,1,0,1,0,28747.2,0.0192761,0.0189762,2.17064,15,0.000330664,10,4.11906e-05,-2.66341,0.0979518,0.602337,50.9868,0.0189762,
2,1,0,1,0,28747.2,0.020777,0.0204525,2.24669,15,0.000386282,10,4.59504e-05,-2.64846,0.111756,0.527935,46.2009,0.0204525,
2,1,0,1,0,28747.2,0.0222712,0.0219847,2.31693,15,0.000443456,10,5.09368e-05,-2.63509,0.123883,0.476256,42.9174,0.0219847,
2,1,0,1,0,28747.2,0.0237707,0.0234417,2.38001,15,0.000502526,10,5.57915e-05,-2.62342,0.12992,0.454127,42.0309,0.0234417,
2,1,0,1,0,28747.3,0.0252703,0.0249597,2.4323,15,0.000563109,10,6.07096e-05,-2.61398,0.141783,0.416129,39.6129,0.0249597,
2,1,0,1,0,28747.3,0.0267645,0.0264585,2.49244,15,0.000624891,10,6.59462e-05,-2.60337,0.14633,0.403198,39.2997,0.0264585,
2,1,0,1,0,28747.3,0.0282653,0.0279345,2.56023,15,0.000688437,10,7.15186e-05,-2.59172,0.159532,0.369833,36.8363,0.0279345,
2,1,0,1,0,28747.3,0.0297648,0.0294569,2.61836,15,0.000753483,10,7.71287e-05,-2.58197,0.162497,0.363083,36.9317,0.0294569,
2,1,0,1,0,28747.4,0.031259,0.030942,2.6606,15,0.000819602,10,8.23244e-05,-2.57502,0.168942,0.349233,36.3236,0.030942,
2,1,0,1,0,28747.4,0.0327585,0.0324742,2.71486,15,0.000887246,10,8.81627e-05,-2.56625,0.173086,0.340871,36.2041,0.0324742,
2,1,0,1,0,28747.4,0.034258,0.0339498,2.77661,15,0.000956306,10,9.42654e-05,-2.55649,0.179829,0.328089,35.501,0.0339498,
2,1,0,1,0,28747.4,0.0357576,0.0354598,2.83187,15,0.0010268,10,0.000100418,-2.54793,0.185048,0.318836,35.1511,0.0354598,
2,1,0,1,0,28747.5,0.0372518,0.0369336,2.87932,15,0.00109834,10,0.000106344,-2.54071,0.182094,0.324009,36.4373,0.0369336,
2,1,0,1,0,28747.5,0.0387526,0.0384398,2.93406,15,0.00117134,10,0.000112785,-2.53253,0.195986,0.301042,34.5054,0.0384398,
2,1,0,1,0,28747.5,0.0402534,0.0399381,2.99088,15,0.00124573,10,0.00011945,-2.5242,0.190863,0.309122,36.0122,0.0399381,
2,1,0,1,0,28747.5,0.0417476,0.0414798,3.04544,15,0.00132118,10,0.000126324,-2.51635,0.196243,0.300648,35.594,0.0414798,
2,1,0,1,0,28747.6,0.0432472,0.0429399,3.09026,15,0.00139824,10,0.000132696,-2.51001,0.204363,0.288701,34.8111,0.0429399,
2,1,0,1,0,28747.6,0.0447467,0.0444417,3.14076,15,0.00147651,10,0.00013958,-2.50297,0.215126,0.274257,33.6692,0.0444417,
2,1,0,1,0,28747.6,0.0462463,0.0459403,3.193,15,0.00155605,10,0.000146687,-2.4958,0.216823,0.272111,33.8927,0.0459403,
2,1,0,1,0,28747.6,0.0477391,0.0474512,3.24673,15,0.00163659,10,0.000154061,-2.48855,0.203802,0.289496,36.6242,0.0474512,
2,1,0,1,0,28747.7,0.0492399,0.0489616,3.29051,15,0.00171873,10,0.000161109,-2.48274,0.221715,0.266107,34.1929,0.0489616,
2,1,0,1,0,28747.7,0.0507408,0.050408,3.33936,15,0.00180205,10,0.000168331,-2.47634,0.244004,0.241799,31.5533,0.050408,
2,1,0,1,0,28747.7,0.052235,0.0519205,3.3935,15,0.00188625,10,0.000176192,-2.46935,0.24074,0.245078,32.4172,0.0519205,
2,1,0,1,0,28747.7,0.0537345,0.0534145,3.44705,15,0.00197204,10,0.000184122,-2.46255,0.245869,0.239965,32.1833,0.0534145,
2,1,0,1,0,28747.8,0.0552341,0.0549505,3.48902,15,0.00205913,10,0.000191723,-2.4573,0.252789,0.233397,31.7564,0.0549505,
2,1,0,1,0,28747.8,0.0567283,0.0564341,3.52818,15,0.00214692,10,0.000199109,-2.45245,0.283619,0.208026,28.7246,0.05643408,
2,1,0,1,0,28747.8,0.0582291,0.0579159,3.58172,15,0.00223619,10,0.000207438,-2.44591,0.28058,0.210279,29.3529,0.0579159,
2,1,0,1,0,28747.8,0.0597299,0.0594019,3.63173,15,0.00232668,10,0.000215732,-2.43989,0.261665,0.225479,31.8916,0.0594019,
2,1,0,1,0,28747.9,0.0612228,0.0608962,3.67052,15,0.00241791,10,0.000223521,-2.43527,0.280989,0.209973,30.0621,0.06089621,
2,1,0,1,0,28747.9,0.0627223,0.0624224,3.71448,15,0.00251068,10,0.000231867,-2.4301,0.294618,0.200259,29.0489,0.0624224,
2,1,0,1,0,28747.9,0.0642218,0.063896,3.75949,15,0.00260445,10,0.000240216,-2.42487,0.315581,0.186957,27.4265,0.063896,
2,1,0,1,0,28747.9,0.0657214,0.0653995,3.80564,15,0.00269936,10,0.000248887,-2.41957,0.287568,0.205169,30.4424,0.0653995,
2,1,0,1,0,28748,0.0672156,0.0669253,3.84768,15,0.00279501,10,0.000257507,-2.4148,0.295767,0.199481,29.9325,0.0669253,
2,1,0,1,0,28748,0.0687164,0.0683842,3.88696,15,0.00289208,10,0.000265807,-2.41039,0.360616,0.163609,24.831,0.0683842,
2,1,0,1,0,28748,0.0702172,0.0699112,3.92871,15,0.00299011,10,0.000274661,-2.40575,0.373239,0.158076,24.1935,0.0699112,
2,1,0,1,0,28748,0.0717114,0.071396,3.96703,15,0.00308874,10,0.00028323,-2.40153,0.33381,0.176747,27.3169,0.071396,
2,1,0,1,0,28748.1,0.073211,0.0729081,4.00051,15,0.00318871,10,0.000291669,-2.39789,0.349776,0.16868,26.3529,0.0729081,
2,1,0,1,0,28748.1,0.0747105,0.0743917,4.0377,15,0.00328964,10,0.000300371,-2.39387,0.404975,0.145688,22.9808,0.0743917,
2,1,0,1,0,28748.1,0.0762101,0.0758565,4.07325,15,0.00339144,10,0.000308982,-2.39006,0.419653,0.140592,22.3536,0.0758565,
2,1,0,1,0,28748.1,0.0777042,0.0773909,4.1112,15,0.00349368,10,0.00031817,-2.38603,0.399343,0.147743,23.6883,0.0773909,
2,1,0,1,0,28748.2,0.0792037,0.0788883,4.13958,15,0.0035972,10,0.000326565,-2.38304,0.387246,0.152358,24.606,0.07888829,
2,1,0,1,0,28748.2,0.0807046,0.0803507,4.17271,15,0.0037016,10,0.00033528,-2.37958,0.460937,0.128,20.8483,0.0803507,
2,1,0,1,0,28748.2,0.0821988,0.0818879,4.20903,15,0.00380637,10,0.000344668,-2.37582,0.534475,0.110389,18.1111,0.0818879,
2,1,0,1,0,28748.2,0.0836983,0.0833971,4.23463,15,0.00391224,10,0.000353156,-2.37318,0.485815,0.121445,20.0746,0.0833971,
2,1,0,1,0,28748.3,0.0851979,0.0848627,4.26295,15,0.00401891,10,0.000361766,-2.37029,0.395849,0.149047,24.8302,0.0848627,
2,1,0,1,0,28748.3,0.0866921,0.0863891,4.29444,15,0.00412592,10,0.000370993,-2.36709,0.542958,0.108664,18.2397,0.0863891,
2,1,0,1,0,28748.3,0.0881929,0.0878819,4.32917,15,0.00423415,10,0.000380456,-2.36359,0.532924,0.11071,18.6918,0.0878819,
2,1,0,1,0,28748.3,0.0896937,0.0893728,4.35969,15,0.00434307,10,0.000389637,-2.36054,0.453945,0.129972,22.1129,0.0893728,
2,1,0,1,0,28748.4,0.0911879,0.0908391,4.39639,15,0.00445238,10,0.000399364,-2.3569,0.386936,0.15248,26.1673,0.0908391,
2,1,0,1,0,28748.4,0.0926861,0.0923725,4.43181,15,0.00456309,10,0.000409377,-2.35342,0.383457,0.153863,26.6219,0.0923725,
2,1,0,1,0,28748.4,0.0941856,0.0938716,4.47149,15,0.0046748,10,0.000419746,-2.34955,0.435473,0.135485,23.6307,0.0938716,
2,1,0,1,0,28748.4,0.0956852,0.0953695,4.50751,15,0.00478738,10,0.000429879,-2.34606,0.378721,0.155787,27.4372,0.0953695,
2,1,0,1,0,28748.5,0.0971794,0.0968379,4.54729,15,0.0049005,10,0.00044035,-2.34225,0.312644,0.188713,33.5347,0.0968379,
2,1,0,1,0,28748.5,0.0986802,0.0983923,4.59578,15,0.00501527,10,0.00045219,-2.33764,0.312251,0.18895,33.9494,0.0983923,
2,1,0,1,0,28748.5,0.100181,0.0998798,4.65209,15,0.00513128,10,0.000464649,-2.33235,0.332408,0.177493,32.2137,0.0998798,
2,1,0,1,0,28748.5,0.101675,0.101369,4.70265,15,0.00524814,10,0.000476704,-2.32766,0.273153,0.215996,39.6921,0.101369,
2,1,0,1,0,28748.6,0.103175,0.102841,4.76471,15,0.00536684,10,0.000490007,-2.32196,0.247099,0.238771,44.491,0.102841,
2,1,0,1,0,28748.6,0.104674,0.10439,4.83332,15,0.00548725,10,0.000504549,-2.31575,0.236269,0.249715,47.1824,0.10439,
2,1,0,1,0,28748.6,0.106169,0.105888,4.91248,15,0.00560902,10,0.000520174,-2.3087,0.231796,0.254534,48.728,0.1058883,
2,1,0,1,0,28748.6,0.107668,0.107369,4.98582,15,0.00573309,10,0.000535321,-2.30226,0.229351,0.257248,50.0581,0.107369,
2,1,0,1,0,28748.7,0.109169,0.10886,5.05471,15,0.00585891,10,0.000550257,-2.2963,0.218707,0.269768,53.2982,0.10886,
2,1,0,1,0,28748.7,0.110663,0.11033,5.13065,15,0.00598617,10,0.000566066,-2.28983,0.223,0.264574,53.0275,0.11033,
2,1,0,1,0,28748.7,0.112163,0.111813,5.21738,15,0.00611598,10,0.000583369,-2.28255,0.235333,0.250709,51.0055,0.111813,
2,1,0,1,0,28748.7,0.113662,0.113313,5.30128,15,0.00624778,10,0.000600701,-2.27562,0.238633,0.247242,51.0582,0.113313,
2,1,0,1,0,28748.8,0.115162,0.114803,5.37095,15,0.00638149,10,0.0006166,-2.26995,0.236748,0.24921,52.2379,0.114803,
2,1,0,1,0,28748.8,0.116656,0.116361,5.44458,15,0.00651657,10,0.000633538,-2.26404,0.241912,0.24389,51.8858,0.116361,
2,1,0,1,0,28748.8,0.118157,0.117862,5.52334,15,0.00665413,10,0.000650992,-2.2578,0.283034,0.208455,44.8993,0.117862,
2,1,0,1,0,28748.8,0.119657,0.119319,5.59716,15,0.00679355,10,0.000667848,-2.25203,0.294603,0.20027,43.657,0.119319,
2,1,0,1,0,28748.9,0.121152,0.120865,5.65351,15,0.00693398,10,0.000683309,-2.24768,0.307963,0.191581,42.2994,0.120865,
2,1,0,1,0,28748.9,0.122651,0.122308,5.71729,15,0.0070765,10,0.000699272,-2.24281,0.34495,0.171039,38.1436,0.122308,
2,1,0,1,0,28748.9,0.124151,0.123851,5.77862,15,0.00722057,10,0.000715686,-2.23818,0.365699,0.161335,36.3362,0.123851,
2,1,0,1,0,28748.9,0.125649,0.125377,5.83022,15,0.007366,10,0.000730975,-2.23432,0.42322,0.139407,31.6851,0.125377,
2,1,0,1,0,28749,0.127143,0.12686,5.8694,15,0.00751207,10,0.000744595,-2.23141,0.41293,0.142881,32.722,0.1268605,
2,1,0,1,0,28749,0.128644,0.128336,5.91236,15,0.00765982,10,0.00075877,-2.22824,0.472375,0.124901,28.8352,0.128336,
2,1,0,1,0,28749,0.130145,0.129779,5.96041,15,0.00780865,10,0.000773538,-2.22472,0.537215,0.109826,25.5288,0.129779,
2,1,0,1,0,28749,0.131639,0.13135,6.00178,15,0.00795797,10,0.000788331,-2.22172,0.567152,0.104029,24.332,0.13135,
2,1,0,1,0,28749.1,0.133139,0.132828,6.03366,15,0.00810879,10,0.00080144,-2.21942,0.58043,0.101649,23.9381,0.132828,
2,1,0,1,0,28749.1,0.134638,0.134277,6.0595,15,0.00826036,10,0.000813651,-2.21756,0.669948,0.0880666,20.8611,0.134277,
2,1,0,1,0,28749.1,0.136132,0.135815,6.09325,15,0.00841218,10,0.000827553,-2.21515,0.770153,0.0766081,18.2165,0.1358147,
2,1,0,1,0,28749.1,0.137633,0.137317,6.13193,15,0.00856538,10,0.000842017,-2.2124,0.885727,0.066612,15.9041,0.137317,
2,1,0,1,0,28749.2,0.139133,0.138804,6.15205,15,0.00871919,10,0.00085393,-2.21098,1.05205,0.0560809,13.4388,0.138804,
2,1,0,1,0,28749.2,0.140627,0.140296,6.15437,15,0.00887279,10,0.000863432,-2.21082,2.58657,0.0228101,5.47714,0.140296,
2,1,0,1,0,28749.2,0.142126,0.141835,6.16348,15,0.00902726,10,0.0008742,-2.21017,-20.3233,-0.00290307,-0.697192,0.141835,
2,1,0,1,0,28749.2,0.143626,0.143323,6.16625,15,0.00918177,10,0.000883764,-2.20998,-1.22723,-0.0480757,-11.5287,0.143323,
2,1,0,1,0,28749.3,0.145125,0.144858,6.13664,15,0.00933591,10,0.000888939,-2.21207,-0.625186,-0.0943719,-22.5395,0.1448577,
2,1,0,1,0,28749.3,0.14662,0.146278,6.08475,15,0.00948852,10,0.000890064,-2.21576,-0.371149,-0.158966,-37.6824,0.146278,
2,1,0,1,0,28749.3,0.14812,0.147811,6.02312,15,0.00964035,10,0.000890284,-2.22018,-0.267744,-0.22036,-51.6521,0.147811,
2,1,0,1,0,28749.3,0.149621,0.149326,5.94704,15,0.0097903,10,0.000888048,-2.2257,-0.206168,-0.286174,-66.0736,0.149326,
2,1,0,1,0,28749.4,0.151115,0.150794,5.83026,15,0.00993725,10,0.000879166,-2.23431,-0.164168,-0.359387,-81.3514,0.150794,
2,1,0,1,0,28749.4,0.152615,0.152311,5.68576,15,0.0100817,10,0.000866004,-2.24521,-0.134527,-0.438574,-97.1405,0.152311,
2,1,0,1,0,28749.4,0.154115,0.153776,5.53338,15,0.0102224,10,0.0008509,-2.25701,-0.114442,-0.515543,-111.088,0.153776,
2,1,0,1,0,28749.4,0.155614,0.155316,5.36496,15,0.010359,10,0.000833263,-2.27043,-0.102915,-0.573286,-119.633,0.155316,
2,1,0,1,0,28749.5,0.157107,0.156758,5.17545,15,0.0104906,10,0.000811295,-2.28605,-0.0937045,-0.629639,-126.882,0.156758,
2,1,0,1,0,28749.5,0.158608,0.158277,4.98014,15,0.0106179,10,0.000788242,-2.30276,-0.0879785,-0.670619,-130.294,0.158277,
2,1,0,1,0,28749.5,0.160109,0.159807,4.78304,15,0.0107403,10,0.000764362,-2.3203,-0.0842432,-0.700353,-130.661,0.159807,
2,1,0,1,0,28749.5,0.161603,0.161305,4.59379,15,0.0108573,10,0.000741,-2.33783,-0.0841323,-0.701277,-125.639,0.161305,
2,1,0,1,0,28749.6,0.163102,0.162752,4.40988,15,0.0109701,10,0.000717715,-2.35557,-0.085141,-0.692968,-119.239,0.162752,
2,1,0,1,0,28749.6,0.164602,0.164261,4.2281,15,0.0110784,10,0.000694513,-2.37385,-0.0853131,-0.69157,-114.416,0.164261,
2,1,0,1,0,28749.6,0.166096,0.165764,4.06744,15,0.011182,10,0.000674234,-2.39068,-0.0885792,-0.666071,-105.994,0.165764,
2,1,0,1,0,28749.6,0.167597,0.167292,3.92417,15,0.0112821,10,0.000656483,-2.40625,-0.0986469,-0.598093,-91.6967,0.167292,
2,1,0,1,0,28749.7,0.169098,0.168779,3.79459,15,0.0113789,10,0.000640449,-2.42083,-0.106537,-0.553799,-82.07,0.168779,
2,1,0,1,0,28749.7,0.170592,0.170275,3.66759,15,0.0114721,10,0.000624499,-2.43562,-0.107775,-0.547434,-78.5679,0.170275,
2,1,0,1,0,28749.7,0.17209,0.171757,3.5527,15,0.0115628,10,0.000610201,-2.44944,-0.116599,-0.506006,-70.4486,0.171757,
2,1,0,1,0,28749.7,0.17359,0.173283,3.46571,15,0.0116509,10,0.000600549,-2.46021,-0.128866,-0.45784,-61.9404,0.173283,
2,1,0,1,0,28749.8,0.175089,0.174761,3.37329,15,0.0117366,10,0.000589519,-2.47195,-0.140158,-0.420953,-55.5547,0.174761,
2,1,0,1,0,28749.8,0.176583,0.176267,3.29231,15,0.01182,10,0.000580327,-2.4825,-0.150179,-0.392865,-50.5532,0.176267,
2,1,0,1,0,28749.8,0.178084,0.17777,3.21555,15,0.0119018,10,0.00057163,-2.49274,-0.15457,-0.381705,-48.102,0.17777,
2,1,0,1,0,28749.8,0.179585,0.179269,3.15612,15,0.0119818,10,0.000565794,-2.50085,-0.180292,-0.327246,-40.3881,0.179269,
2,1,0,1,0,28749.9,0.181079,0.180772,3.09733,15,0.01206,10,0.000559911,-2.50901,-0.202613,-0.291195,-35.2532,0.180772,
2,1,0,1,0,28749.9,0.182579,0.182308,3.04268,15,0.0121372,10,0.000554704,-2.51674,-0.208122,-0.283487,-33.7491,0.182308,
2,1,0,1,0,28749.9,0.184078,0.183768,3.00152,15,0.0122131,10,0.000551584,-2.52266,-0.211703,-0.278692,-32.6254,0.183768,
2,1,0,1,0,28749.9,0.185578,0.185249,2.95744,15,0.0122878,10,0.000547864,-2.52908,-0.253085,-0.233124,-26.9106,0.185249,
2,1,0,1,0,28750,0.187072,0.186782,2.91444,15,0.0123612,10,0.000544365,-2.53545,-0.304805,-0.193566,-22.0383,0.186782,
2,1,0,1,0,28750,0.188573,0.188289,2.87988,15,0.012434,10,0.000542251,-2.54063,-0.302049,-0.195332,-21.9683,0.188289,
2,1,0,1,0,28750,0.190072,0.189755,2.8505,15,0.012506,10,0.000540897,-2.54508,-0.282105,-0.209142,-23.2276,0.189755,
2,1,0,1,0,28750,0.191567,0.19125,2.81492,15,0.0125769,10,0.000538353,-2.55053,-0.33624,-0.17547,-19.3087,0.19125,
2,1,0,1,0,28750.1,0.193066,0.192775,2.79073,15,0.0126473,10,0.000537983,-2.55428,-0.476947,-0.123704,-13.484,0.192775,
2,1,0,1,0,28750.1,0.194566,0.194221,2.76469,15,0.0127171,10,0.000536962,-2.55835,-0.419164,-0.140756,-15.2125,0.194221,
2,1,0,1,0,28750.1,0.19606,0.195729,2.74147,15,0.0127861,10,0.000536585,-2.56202,-0.352168,-0.167534,-17.9431,0.195729,
2,1,0,1,0,28750.1,0.197561,0.197213,2.71903,15,0.0128548,10,0.000536228,-2.56559,-0.419174,-0.140753,-14.9392,0.197213,
2,1,0,1,0,28750.2,0.199062,0.198745,2.7032,15,0.0129229,10,0.000537248,-2.56812,-0.554798,-0.106345,-11.2207,0.198745,
2,1,0,1,0,28750.2,0.200556,0.200253,2.68468,15,0.0129903,10,0.000537614,-2.57111,-0.586331,-0.100626,-10.5348,0.200253,
2,1,0,1,0,28750.2,0.202055,0.201757,2.66561,15,0.0130576,10,0.000537806,-2.5742,-0.468434,-0.125952,-13.1014,0.201757,
2,1,0,1,0,28750.2,0.203553,0.203206,2.64951,15,0.0131244,10,0.000538397,-2.57683,-0.593637,-0.0993873,-10.2753,0.203206,
2,1,0,1,0,28750.3,0.205053,0.204719,2.63444,15,0.0131909,10,0.000539318,-2.57931,-0.944774,-0.0624488,-6.44828,0.204719,
2,1,0,1,0,28750.3,0.206547,0.206203,2.61645,15,0.0132567,10,0.000539519,-2.58229,-0.882292,-0.0668713,-6.8569,0.2062027,
2,1,0,1,0,28750.3,0.208048,0.207747,2.61349,15,0.0133226,10,0.000542946,-2.58278,-0.662223,-0.0890939,-9.08162,0.207747,
2,1,0,1,0,28750.3,0.209549,0.209254,2.60472,15,0.0133882,10,0.000545048,-2.58424,-0.63909,-0.0923188,-9.3661,0.209254,
2,1,0,1,0,28750.4,0.211043,0.210729,2.58986,15,0.0134532,10,0.000545757,-2.58672,-0.858315,-0.0687393,-6.95099,0.210729,
2,1,0,1,0,28750.4,0.212543,0.21228,2.5734,15,0.0135182,10,0.000546282,-2.58949,-1.00163,-0.0589041,-5.93486,0.21228,
2,1,0,1,0,28750.4,0.214042,0.213702,2.56943,15,0.0135829,10,0.00054909,-2.59016,-0.645983,-0.0913337,-9.1674,0.213702,
2,1,0,1,0,28750.4,0.215536,0.215188,2.56292,15,0.0136471,10,0.00055151,-2.59127,-0.830984,-0.0710002,-7.09138,0.215188,
2,1,0,1,0,28750.5,0.217036,0.216711,2.54866,15,0.0137113,10,0.000552323,-2.59369,-1.5056,-0.039187,-3.899,0.216711,
2,1,0,1,0,28750.5,0.218537,0.218233,2.53946,15,0.0137753,10,0.000554193,-2.59526,-3.48352,-0.0169369,-1.68062,0.218233,
2,1,0,1,0,28750.5,0.220031,0.219737,2.53557,15,0.0138389,10,0.000557158,-2.59592,-1.05785,-0.0557733,-5.52088,0.219737,
2,1,0,1,0,28750.5,0.22153,0.221226,2.53334,15,0.0139027,10,0.000560442,-2.59631,-0.985666,-0.059858,-5.90291,0.221226,
2,1,0,1,0,28750.6,0.22303,0.222729,2.51779,15,0.0139661,10,0.000560786,-2.59898,-1.48719,-0.0396722,-3.90342,0.222729,
2,1,0,1,0,28750.6,0.224529,0.224224,2.511,15,0.0140294,10,0.000563025,-2.60015,-1.2175,-0.0484601,-4.76167,0.224224,
2,1,0,1,0,28750.6,0.226024,0.225702,2.50465,15,0.0140923,10,0.000565304,-2.60125,-1.08474,-0.0543911,-5.32528,0.225702,
2,1,0,1,0,28750.6,0.227525,0.22723,2.50658,15,0.0141553,10,0.00056957,-2.60092,-0.855093,-0.0689983,-6.72586,0.22723,
2,1,0,1,0,28750.7,0.229025,0.228698,2.50135,15,0.0142181,10,0.000572055,-2.60183,-1.93784,-0.0304463,-2.96367,0.228698,
2,1,0,1,0,28750.7,0.23052,0.230201,2.47941,15,0.0142805,10,0.000570763,-2.60565,-1.91417,-0.0308227,-2.99875,0.230201,
2,1,0,1,0,28750.7,0.232019,0.231758,2.48284,15,0.014343,10,0.000575419,-2.60505,-1.51666,-0.0389013,-3.77366,0.231758,
2,1,0,1,0,28750.7,0.233519,0.233235,2.48182,15,0.0144054,10,0.000578848,-2.60523,-2.14116,-0.0275552,-2.66346,0.233235,
2,1,0,1,0,28750.8,0.235018,0.234704,2.47817,15,0.0144677,10,0.000581636,-2.60587,-1.73448,-0.034016,-3.28524,0.234704,
2,1,0,1,0,28750.8,0.236511,0.236236,2.46157,15,0.0145296,10,0.00058151,-2.60879,-1.84045,-0.0320574,-3.08871,0.236236,
2,1,0,1,0,28750.8,0.238012,0.237687,2.45836,15,0.0145916,10,0.000584321,-2.60935,-1.84012,-0.0320631,-3.08129,0.237687,
2,1,0,1,0,28750.8,0.239513,0.2392,2.46681,15,0.0146535,10,0.00059006,-2.60787,-2.06722,-0.0285407,-2.7383,0.2392,
2,1,0,1,0,28750.9,0.241007,0.240732,2.45721,15,0.0147151,10,0.00059153,-2.60956,-2.59054,-0.0227752,-2.17715,0.240732,
2,1,0,1,0,28750.9,0.242506,0.242209,2.44266,15,0.0147767,10,0.000591636,-2.61214,-1.99253,-0.0296106,-2.83302,0.242209,
2,1,0,1,0,28750.9,0.244006,0.243702,2.44065,15,0.0148382,10,0.000594791,-2.61249,-3.03207,-0.0194587,-1.85721,0.243702,
2,1,0,1,0,28750.9,0.2455,0.245227,2.44775,15,0.0148994,10,0.000600255,-2.61123,-1.6013,-0.0368451,-3.51164,0.245227,
2,1,0,1,0,28751,0.247001,0.246674,2.4423,15,0.0149608,10,0.00060245,-2.6122,-1.74035,-0.0339012,-3.22015,0.2466736,
2,1,0,1,0,28751,0.248502,0.248191,2.42787,15,0.015022,10,0.000602575,-2.61477,-1.96661,-0.0300008,-2.85005,0.248191,
2,1,0,1,0,28751,0.249995,0.249699,2.42603,15,0.0150829,10,0.000605778,-2.6151,-1.54221,-0.0382567,-3.62947,0.249699,
2,1,0,1,0,28751,0.251494,0.251171,2.42209,15,0.0151439,10,0.000608358,-2.61581,-1.54807,-0.0381121,-3.6013,0.251171,
2,1,0,1,0,28751.1,0.252994,0.252688,2.42003,15,0.0152048,10,0.000611513,-2.61618,-1.67947,-0.0351302,-3.31562,0.252688,
2,1,0,1,0,28751.1,0.254493,0.254172,2.41472,15,0.0152657,10,0.000613755,-2.61713,-2.97568,-0.0198274,-1.87061,0.2541723,
2,1,0,1,0,28751.1,0.255988,0.25565,2.40758,15,0.0153261,10,0.000615496,-2.61842,-1.49989,-0.0393363,-3.70763,0.25565,
2,1,0,1,0,28751.1,0.257488,0.25719,2.41258,15,0.0153867,10,0.00062049,-2.61752,-3.3505,-0.0176093,-1.65403,0.25719,
2,1,0,1,0,28751.2,0.258989,0.258712,2.4102,15,0.0154472,10,0.000623548,-2.61795,-6.11654,-0.00964597,-0.903973,0.258712,
2,1,0,1,0,28751.2,0.260483,0.260211,2.39771,15,0.0155075,10,0.00062391,-2.6202,-2.48168,-0.0237742,-2.22969,0.260211,
2,1,0,1,0,28751.2,0.261983,0.261661,2.38999,15,0.0155678,10,0.000625367,-2.6216,-1.4567,-0.0405025,-3.79422,0.261661,
2,1,0,1,0,28751.2,0.263482,0.263169,2.39464,15,0.015628,10,0.000630193,-2.62076,-1.69006,-0.0349099,-3.25782,0.2631686,
2,1,0,1,0,28751.3,0.264982,0.264647,2.38928,15,0.0156881,10,0.000632314,-2.62173,-6.11991,-0.00964066,-0.898434,0.264647,
2,1,0,1,0,28751.3,0.266476,0.266158,2.38267,15,0.015748,10,0.000634166,-2.62294,-2.47515,-0.023837,-2.21932,0.266158,
2,1,0,1,0,28751.3,0.267976,0.26763,2.37414,15,0.0158079,10,0.000635393,-2.62449,-1.04346,-0.0565429,-5.25468,0.26763,
2,1,0,1,0,28751.3,0.269477,0.269152,2.37827,15,0.0158677,10,0.000640117,-2.62374,-1.60326,-0.0368001,-3.41521,0.269152,
2,1,0,1,0,28751.4,0.270971,0.270675,2.37852,15,0.0159272,10,0.000643805,-2.62369,-5.86744,-0.0100555,-0.930175,0.270675,
2,1,0,1,0,28751.4,0.27247,0.272209,2.36997,15,0.015987,10,0.000645126,-2.62526,-1.42378,-0.0414389,-3.82901,0.272209,
2,1,0,1,0,28751.4,0.27397,0.273668,2.36608,15,0.0160466,10,0.000647523,-2.62597,-1.10783,-0.0532575,-4.91971,0.273668,
2,1,0,1,0,28751.4,0.275464,0.275166,2.36375,15,0.0161057,10,0.000650422,-2.6264,-1.1986,-0.049224,-4.54102,0.275166,
2,1,0,1,0,28751.5,0.276965,0.276689,2.35829,15,0.0161651,10,0.000652512,-2.6274,-3.53815,-0.0166754,-1.53524,0.276689,
2,1,0,1,0,28751.5,0.278466,0.278184,2.35461,15,0.0162244,10,0.000655016,-2.62808,-1.57685,-0.0374165,-3.43531,0.278184,
2,1,0,1,0,28751.5,0.27996,0.279648,2.35168,15,0.0162833,10,0.000657642,-2.62862,-1.42749,-0.0413313,-3.79066,0.279648,
2,1,0,1,0,28751.5,0.281458,0.281146,2.34608,15,0.0163423,10,0.000659592,-2.62966,-1.87936,-0.0313937,-2.87266,0.281146,
2,1,0,1,0,28751.6,0.282958,0.282646,2.34229,15,0.0164013,10,0.00066204,-2.63036,-15.7408,-0.00374821,-0.34222,0.282646,
2,1,0,1,0,28751.6,0.284457,0.284127,2.33621,15,0.0164602,10,0.00066378,-2.63149,-4.70996,-0.0125267,-1.14363,0.284127,
2,1,0,1,0,28751.6,0.285951,0.285639,2.33346,15,0.0165187,10,0.000666527,-2.632,-1.02526,-0.0575466,-5.23854,0.285639,
2,1,0,1,0,28751.6,0.287452,0.287071,2.3261,15,0.0165773,10,0.000667758,-2.63337,-1.55127,-0.0380334,-3.45509,0.287071,
2,1,0,1,0,28751.7,0.288953,0.288641,2.32618,15,0.0166358,10,0.000671433,-2.63336,-3.45203,-0.0170914,-1.55021,0.288641,
2,1,0,1,0,28751.7,0.290447,0.290164,2.32164,15,0.016694,10,0.000673657,-2.63421,-2.04009,-0.0289203,-2.61978,0.290164,
2,1,0,1,0,28751.7,0.291947,0.291636,2.31534,15,0.0167523,10,0.000675234,-2.63539,-1.34056,-0.0440115,-3.97778,0.291636,
2,1,0,1,0,28751.7,0.293446,0.293119,2.31275,15,0.0168105,10,0.000677911,-2.63587,-1.34202,-0.0439636,-3.9635,0.293119,
2,1,0,1,0,28751.8,0.29494,0.294645,2.30812,15,0.0168684,10,0.000680074,-2.63674,-6.16993,-0.00956251,-0.860717,0.294645,
2,1,0,1,0,28751.8,0.29644,0.296133,2.29952,15,0.0169264,10,0.000680965,-2.63836,-2.92016,-0.0202044,-1.81746,0.296133,
2,1,0,1,0,28751.8,0.297941,0.297668,2.30012,15,0.0169843,10,0.00068467,-2.63825,-1.29136,-0.0456882,-4.0985,0.297668,
2,1,0,1,0,28751.8,0.29944,0.299159,2.2985,15,0.0170421,10,0.000687615,-2.63856,-0.00784397,-7.5217,-522.661,0.299159,
2,1,0,1,0,28751.8,0.299736,0.299432,1.86565,15,0.0170719,10,0.000558635,-2.72917,0.00168903,34.9313,1530.77,0.299432,
2,1,0,1,0,28751.9,0.298238,0.297956,0.673393,15,0.017101,10,0.000200642,-3.17173,0.00168134,35.0912,629.654,0.297956,
2,1,0,1,0,28751.9,0.296744,0.296477,0.116053,15,0.0171097,10,3.44071e-05,-3.93534,0.00731788,8.06244,310.412,0.296477,
2,0,0,1,0,28751.9,0.295243,0.294947,-0.197904,15,0.0171079,10,-5.83711e-05,-3.70355,-0.0179684,-3.28355,173.924,0.294947,
2,0,0,1,0,28751.9,0.293742,0.293416,-0.394534,15,0.0171,10,-0.000115763,-3.40392,-0.00554254,-10.6449,112.437,0.293416,
2,0,0,1,0,28752,0.292248,0.291955,-0.520408,15,0.0170882,10,-0.000151936,-3.28366,-0.0136154,-4.33332,79.9911,0.291955,
2,0,0,1,0,28752,0.290748,0.290431,-0.616088,15,0.0170735,10,-0.000178931,-3.21036,-0.0223432,-2.64063,61.1225,0.290431,
2,0,0,1,0,28752,0.289249,0.288967,-0.697092,15,0.0170566,10,-0.000201436,-3.15671,-0.0328729,-1.79479,47.7504,0.288967,
2,0,0,1,0,28752,0.287754,0.287454,-0.767161,15,0.0170379,10,-0.000220523,-3.11511,-0.0422458,-1.39659,40.9413,0.287454,
2,0,0,1,0,28752.1,0.286254,0.285942,-0.813959,15,0.0170177,10,-0.000232746,-3.0894,-0.0518759,-1.13733,35.9883,0.285942,
2,0,0,1,0,28752.1,0.284754,0.284424,-0.865821,15,0.0169962,10,-0.00024626,-3.06257,-0.0626656,-0.941506,31.6566,0.2844243,
2,0,0,1,0,28752.1,0.28326,0.282944,-0.912733,15,0.0169737,10,-0.000258252,-3.03966,-0.0770317,-0.765918,27.042,0.2829439,
2,0,0,1,0,28752.1,0.28176,0.281433,-0.955175,15,0.01695,10,-0.000268818,-3.01992,-0.0851494,-0.6929,25.4603,0.281433,
2,0,0,1,0,28752.2,0.280261,0.27994,-0.980736,15,0.0169253,10,-0.000274547,-3.00845,-0.0964465,-0.611738,23.4871,0.27994,
2,0,0,1,0,28752.2,0.278761,0.278465,-1.01132,15,0.0169,10,-0.000281617,-2.99511,-0.119146,-0.49519,19.6639,0.2784653,
2,0,0,1,0,28752.2,0.277267,0.276901,-1.0488,15,0.0168738,10,-0.000290414,-2.97931,-0.129293,-0.456326,18.6287,0.276901,
2,0,0,1,0,28752.2,0.275766,0.275424,-1.08141,15,0.0168468,10,-0.000297845,-2.96601,-0.133722,-0.441215,18.4693,0.275424,
2,0,0,1,0,28752.3,0.274265,0.273977,-1.1051,15,0.0168191,10,-0.000302772,-2.9566,-0.138118,-0.427172,18.3952,0.273977,
2,0,0,1,0,28752.3,0.272771,0.272429,-1.12841,15,0.0167908,10,-0.000307411,-2.94753,-0.155414,-0.379631,16.7697,0.272429,
2,0,0,1,0,28752.3,0.271272,0.270962,-1.16088,15,0.0167618,10,-0.000314556,-2.93521,-0.172122,-0.34278,15.4463,0.270962,
2,0,0,1,0,28752.3,0.269772,0.269498,-1.18997,15,0.0167321,10,-0.000320694,-2.92446,-0.162085,-0.364006,16.7447,0.269498,
2,0,0,1,0,28752.4,0.268273,0.267934,-1.20609,15,0.0167018,10,-0.000323152,-2.91862,-0.176691,-0.333916,15.6789,0.267934,
2,0,0,1,0,28752.4,0.26678,0.266456,-1.21918,15,0.0166711,10,-0.000324858,-2.91393,-0.19924,-0.296126,14.1901,0.2664561,
2,0,0,1,0,28752.4,0.265279,0.264973,-1.2505,15,0.0166398,10,-0.00033135,-2.90292,-0.186731,-0.315963,15.3696,0.264973,
2,0,0,1,0,28752.4,0.263778,0.263436,-1.271,15,0.0166079,10,-0.000334826,-2.89586,-0.21812,-0.270493,13.3842,0.263436,
2,0,0,1,0,28752.5,0.262284,0.261976,-1.28923,15,0.0165756,10,-0.000337748,-2.88967,-0.223,-0.264574,13.291,0.261976,
2,0,0,1,0,28752.5,0.260784,0.260459,-1.29986,15,0.0165428,10,-0.00033856,-2.8861,-0.256992,-0.229579,11.7442,0.260459,
2,0,0,1,0,28752.5,0.259285,0.258983,-1.32244,15,0.0165095,10,-0.00034249,-2.87862,-0.265812,-0.221961,11.4862,0.258983,
2,0,0,1,0,28752.5,0.257791,0.257443,-1.35279,15,0.0164758,10,-0.000348266,-2.86877,-0.241915,-0.243888,12.7742,0.257443,
2,0,0,1,0,28752.6,0.25629,0.25597,-1.36167,15,0.0164415,10,-0.000348546,-2.86593,-0.240459,-0.245364,13.0088,0.25597,
2,0,0,1,0,28752.6,0.254789,0.254463,-1.37958,15,0.0164068,10,-0.000351051,-2.86025,-0.285608,-0.206577,11.1114,0.254463,
2,0,0,1,0,28752.6,0.253296,0.253007,-1.39722,15,0.0163719,10,-0.000353506,-2.85474,-0.315931,-0.186749,10.1869,0.253007,
2,0,0,1,0,28752.6,0.251797,0.251469,-1.41463,15,0.0163364,10,-0.000355736,-2.84936,-0.282571,-0.208797,11.5136,0.251469,
2,0,0,1,0,28752.7,0.250297,0.249981,-1.42777,15,0.0163004,10,-0.000356915,-2.84534,-0.305095,-0.193383,10.7886,0.249981,
2,0,0,1,0,28752.7,0.248797,0.248427,-1.44399,15,0.0162641,10,-0.000358726,-2.84044,-0.321002,-0.1838,10.3748,0.248427,
2,0,0,1,0,28752.7,0.247303,0.246971,-1.45608,15,0.0162276,10,-0.000359608,-2.83682,-0.393511,-0.149932,8.5333,0.2469707,
2,0,0,1,0,28752.7,0.245802,0.245512,-1.47778,15,0.0161905,10,-0.000362812,-2.83039,-0.294488,-0.200348,11.5029,0.245512,
2,0,0,1,0,28752.8,0.244302,0.243987,-1.49114,15,0.016153,10,-0.000363818,-2.82648,-0.297089,-0.198594,11.5332,0.243987,
2,0,0,1,0,28752.8,0.242807,0.242479,-1.50497,15,0.0161152,10,-0.000364924,-2.82247,-0.517704,-0.113965,6.7018,0.242479,
2,0,0,1,0,28752.8,0.241308,0.240999,-1.5171,15,0.0160771,10,-0.000365621,-2.81898,-0.412246,-0.143119,8.4788,0.240999,
2,0,0,1,0,28752.8,0.239808,0.239496,-1.53279,15,0.0160385,10,-0.000367096,-2.81452,-0.291032,-0.202727,12.1109,0.239496,
2,0,0,1,0,28752.9,0.238309,0.237999,-1.54593,15,0.0159996,10,-0.00036793,-2.81081,-0.330658,-0.178432,10.7812,0.237999,
2,0,0,1,0,28752.9,0.236815,0.236498,-1.56088,15,0.0159605,10,-0.000369145,-2.80663,-0.405404,-0.145534,8.86919,0.236498,
2,0,0,1,0,28752.9,0.235315,0.234996,-1.57074,15,0.0159209,10,-0.000369118,-2.8039,-0.440733,-0.133868,8.22909,0.234996,
2,0,0,1,0,28752.9,0.233814,0.233487,-1.58941,15,0.015881,10,-0.000371106,-2.79876,-0.394567,-0.149531,9.25677,0.233487,
2,0,0,1,0,28753,0.23232,0.231954,-1.60644,15,0.0158409,10,-0.00037262,-2.79414,-0.347145,-0.169958,10.6157,0.2319539,
2,0,0,1,0,28753,0.230821,0.230507,-1.61381,15,0.0158003,10,-0.000371995,-2.79215,-0.458183,-0.12877,8.09254,0.230507,
2,0,0,1,0,28753,0.229321,0.22899,-1.62553,15,0.0157593,10,-0.00037223,-2.78901,-0.546909,-0.107879,6.84661,0.22899,
2,0,0,1,0,28753,0.227827,0.227495,-1.64039,15,0.0157183,10,-0.000373181,-2.78505,-0.463957,-0.127167,8.14707,0.227495,
2,0,0,1,0,28753.1,0.226326,0.226007,-1.65133,15,0.0156767,10,-0.000373213,-2.78217,-0.374232,-0.157656,10.1799,0.226007,
2,0,0,1,0,28753.1,0.224825,0.224542,-1.66875,15,0.0156348,10,-0.000374705,-2.77761,-0.513991,-0.114788,7.46392,0.224542,
2,0,0,1,0,28753.1,0.223331,0.222992,-1.68272,15,0.0155927,10,-0.000375233,-2.77399,-0.516258,-0.114284,7.46868,0.222992,
2,0,0,1,0,28753.1,0.221831,0.221538,-1.69353,15,0.0155502,10,-0.000375181,-2.77121,-0.51897,-0.113687,7.50057,0.221538,
2,0,0,1,0,28753.2,0.220333,0.22001,-1.70504,15,0.0155073,10,-0.000375127,-2.76826,-0.339684,-0.173691,11.5618,0.22001,
2,0,0,1,0,28753.2,0.218834,0.218512,-1.71485,15,0.0154641,10,-0.000374717,-2.76577,-0.413187,-0.142792,9.58504,0.2185123,
2,0,0,1,0,28753.2,0.217339,0.217031,-1.73276,15,0.0154207,10,-0.000376064,-2.76126,-0.632563,-0.0932714,6.30265,0.217031,
2,0,0,1,0,28753.2,0.215839,0.215527,-1.74401,15,0.0153769,10,-0.000375881,-2.75845,-0.513798,-0.114831,7.80614,0.215527,
2,0,0,1,0,28753.3,0.214338,0.21401,-1.75274,15,0.0153328,10,-0.000375104,-2.75628,-0.385302,-0.153127,10.4803,0.21401,
2,0,0,1,0,28753.3,0.212844,0.212528,-1.76347,15,0.0152886,10,-0.000374787,-2.75363,-0.481642,-0.122498,8.45923,0.212528,
2,0,0,1,0,28753.3,0.211344,0.21105,-1.77873,15,0.0152438,10,-0.000375401,-2.74989,-0.741175,-0.0796033,5.52859,0.21105,
2,0,0,1,0,28753.3,0.209845,0.209478,-1.79293,15,0.0151987,10,-0.00037558,-2.74644,-0.540697,-0.109118,7.6266,0.209478,
2,0,0,1,0,28753.4,0.20835,0.208053,-1.80689,15,0.0151535,10,-0.000375929,-2.74307,-0.357319,-0.165118,11.6616,0.208053,
2,0,0,1,0,28753.4,0.206851,0.206526,-1.81709,15,0.0151078,10,-0.000375277,-2.74062,-0.44696,-0.132003,9.37932,0.206526,
2,0,0,1,0,28753.4,0.20535,0.205028,-1.83974,15,0.0150616,10,-0.000377197,-2.73524,-0.627855,-0.0939708,6.69781,0.205028,
2,0,0,1,0,28753.4,0.203856,0.203485,-1.85022,15,0.0150154,10,-0.000376493,-2.73278,-0.596357,-0.0989341,7.12187,0.203485,
2,0,0,1,0,28753.5,0.202356,0.202029,-1.8535,15,0.0149687,10,-0.000374461,-2.73201,-0.429087,-0.137501,9.97873,0.202029,
2,0,0,1,0,28753.5,0.200857,0.200582,-1.86559,15,0.0149217,10,-0.000374204,-2.72918,-0.498614,-0.118328,8.65105,0.200582,
2,0,0,1,0,28753.5,0.199357,0.199049,-1.88211,15,0.0148744,10,-0.000374633,-2.72536,-0.588974,-0.100174,7.36,0.199049,
2,0,0,1,0,28753.5,0.197863,0.197519,-1.90109,15,0.0148269,10,-0.000375501,-2.721,-0.559619,-0.105429,7.78511,0.197519,
2,0,0,1,0,28753.6,0.196362,0.196036,-1.90989,15,0.0147789,10,-0.000374407,-2.71899,-0.484725,-0.121719,9.07616,0.196036,
2,0,0,1,0,28753.6,0.194861,0.194484,-1.92045,15,0.0147306,10,-0.000373497,-2.7166,-0.391279,-0.150788,11.3325,0.194484,
2,0,0,1,0,28753.6,0.193367,0.193028,-1.94338,15,0.0146821,10,-0.000375127,-2.71144,-0.564133,-0.104585,7.90947,0.193028,
2,0,0,1,0,28753.6,0.191868,0.191531,-1.9586,15,0.0146329,10,-0.000375132,-2.70805,-0.421121,-0.140102,10.6766,0.191531,
2,0,0,1,0,28753.7,0.190368,0.190055,-1.9647,15,0.0145835,10,-0.000373402,-2.7067,-0.449185,-0.131349,10.0987,0.190055,
2,0,0,1,0,28753.7,0.18887,0.188538,-1.97653,15,0.0145338,10,-0.000372652,-2.7041,-0.445446,-0.132452,10.2596,0.188538,
2,0,0,1,0,28753.7,0.187376,0.187039,-1.99627,15,0.0144838,10,-0.00037338,-2.69978,-0.453517,-0.130094,10.1515,0.187039,
2,0,0,1,0,28753.7,0.185875,0.185538,-2.01829,15,0.0144332,10,-0.00037447,-2.69502,-0.459857,-0.128301,10.0646,0.185538,
2,0,0,1,0,28753.8,0.184374,0.184037,-2.02584,15,0.0143822,10,-0.000372828,-2.6934,-0.416928,-0.141511,11.2041,0.184037,
2,0,0,1,0,28753.8,0.18288,0.182582,-2.04067,15,0.0143311,10,-0.00037259,-2.69023,-0.423506,-0.139313,11.1511,0.182582,
2,0,0,1,0,28753.8,0.18138,0.181056,-2.06344,15,0.0142793,10,-0.000373598,-2.68541,-0.452248,-0.130459,10.5124,0.181056,
2,0,0,1,0,28753.8,0.179881,0.179563,-2.08964,15,0.014227,10,-0.000375221,-2.67993,-0.454999,-0.129671,10.5355,0.179563,
2,0,0,1,0,28753.9,0.178387,0.178058,-2.10431,15,0.0141745,10,-0.000374688,-2.67689,-0.394747,-0.149463,12.2738,0.178058,
2,0,0,1,0,28753.9,0.176886,0.176609,-2.11623,15,0.0141214,10,-0.000373746,-2.67444,-0.340978,-0.173032,14.3264,0.176609,
2,0,0,1,0,28753.9,0.175385,0.174998,-2.14256,15,0.0140678,10,-0.000374944,-2.66907,-0.374092,-0.157715,13.1703,0.174998,
2,0,0,1,0,28753.9,0.173892,0.173531,-2.16328,15,0.0140138,10,-0.000375396,-2.66489,-0.32763,-0.180081,15.1636,0.173531,
2,0,0,1,0,28754,0.172392,0.172024,-2.18635,15,0.013959,10,-0.000376103,-2.66028,-0.295137,-0.199907,17.0408,0.172024,
2,0,0,1,0,28754,0.170893,0.170595,-2.19973,15,0.0139038,10,-0.000375264,-2.65763,-0.324762,-0.181671,15.6777,0.170595,
2,0,0,1,0,28754,0.169393,0.169053,-2.23145,15,0.0138479,10,-0.000377234,-2.65141,-0.291264,-0.202565,17.6643,0.1690532,
2,0,0,1,0,28754,0.167899,0.167567,-2.26376,15,0.0137916,10,-0.000379333,-2.64517,-0.272125,-0.216812,19.1266,0.167567,
2,0,0,1,0,28754.1,0.166398,0.166057,-2.29212,15,0.0137343,10,-0.000380624,-2.63976,-0.273,-0.216117,19.2853,0.166057,
2,0,0,1,0,28754.1,0.164898,0.16455,-2.31001,15,0.0136763,10,-0.000380113,-2.63639,-0.266971,-0.220998,20.0006,0.16455,
2,0,0,1,0,28754.1,0.163403,0.163056,-2.34065,15,0.0136179,10,-0.000381657,-2.63066,-0.271184,-0.217565,19.9478,0.163056,
2,0,0,1,0,28754.1,0.161904,0.16155,-2.38405,15,0.0135584,10,-0.000385143,-2.62268,-0.240316,-0.24551,22.8071,0.16155,
2,0,0,1,0,28754.2,0.160404,0.16009,-2.42068,15,0.0134981,10,-0.000387527,-2.61606,-0.212596,-0.277522,26.1693,0.16009,
2,0,0,1,0,28754.2,0.158905,0.15862,-2.4502,15,0.0134367,10,-0.000388651,-2.6108,-0.202508,-0.291346,27.9682,0.15862,
2,0,0,1,0,28754.2,0.157411,0.157092,-2.49749,15,0.0133747,10,-0.000392335,-2.6025,-0.194305,-0.303646,29.719,0.157092,
2,0,0,1,0,28754.2,0.155911,0.155529,-2.54626,15,0.0133112,10,-0.000396016,-2.5941,-0.170388,-0.346269,34.4539,0.155529,
2,0,0,1,0,28754.3,0.15441,0.154104,-2.60192,15,0.0132464,10,-0.000400966,-2.58471,-0.160119,-0.368477,37.3578,0.154104,
2,0,0,1,0,28754.3,0.152916,0.152647,-2.65334,15,0.0131806,10,-0.000405024,-2.57621,-0.15358,-0.384165,39.8579,0.152647,
2,0,0,1,0,28754.3,0.151417,0.151065,-2.71123,15,0.0131131,10,-0.000409574,-2.56683,-0.153973,-0.383185,40.6872,0.151065,
2,0,0,1,0,28754.3,0.149917,0.149574,-2.78705,15,0.013044,10,-0.000416869,-2.55486,-0.136039,-0.4337,47.1538,0.149574,
2,0,0,1,0,28754.4,0.148423,0.148131,-2.85919,15,0.0129733,10,-0.000423534,-2.54376,-0.123326,-0.478406,53.4956,0.1481308,
2,0,0,1,0,28754.4,0.146922,0.146608,-2.93899,15,0.0129004,10,-0.00043088,-2.5318,-0.115736,-0.50978,58.6598,0.146608,
2,0,0,1,0,28754.4,0.145421,0.145121,-3.02731,15,0.0128254,10,-0.000439327,-2.51894,-0.110784,-0.532568,63.1976,0.145121,
2,0,0,1,0,28754.4,0.143927,0.1436,-3.13527,15,0.0127483,10,-0.000450224,-2.50373,-0.100118,-0.589307,72.1303,0.1436,
2,0,0,1,0,28754.5,0.142429,0.14211,-3.24552,15,0.0126681,10,-0.00046122,-2.48872,-0.0957094,-0.616449,78.1311,0.14211,
2,0,0,1,0,28754.5,0.140929,0.140579,-3.35991,15,0.0125851,10,-0.000472334,-2.47367,-0.095413,-0.618364,81.3281,0.140579,
2,0,0,1,0,28754.5,0.13943,0.139105,-3.48784,15,0.0124989,10,-0.000485174,-2.45744,-0.0924726,-0.638027,87.0739,0.139105,
2,0,0,1,0,28754.5,0.137935,0.137588,-3.62686,15,0.0124099,10,-0.000499011,-2.44047,-0.0917213,-0.643253,91.1393,0.137588,
2,0,0,1,0,28754.6,0.136435,0.136106,-3.77281,15,0.0123171,10,-0.0005135,-2.42334,-0.087266,-0.676094,99.4754,0.136106,
2,0,0,1,0,28754.6,0.134934,0.13461,-3.91879,15,0.0122205,10,-0.000527509,-2.40685,-0.088407,-0.667368,102.091,0.13461,
2,0,0,1,0,28754.6,0.13344,0.133108,-4.07098,15,0.0121205,10,-0.000541882,-2.3903,-0.0925481,-0.637506,101.324,0.133108,
2,0,0,1,0,28754.6,0.13194,0.13162,-4.22715,15,0.0120164,10,-0.000556378,-2.37395,-0.0968685,-0.609073,100.414,0.13162,
2,0,0,1,0,28754.7,0.13044,0.130144,-4.3728,15,0.0119085,10,-0.000569096,-2.35924,-0.0958936,-0.615265,105.126,0.130144,
2,0,0,1,0,28754.7,0.128941,0.128641,-4.53463,15,0.0117966,10,-0.000583341,-2.34346,-0.100829,-0.585151,103.379,0.128641,
2,0,0,1,0,28754.7,0.127447,0.127123,-4.68845,15,0.0116812,10,-0.000596009,-2.32897,-0.110038,-0.536178,97.9901,0.1271227,
2,0,0,1,0,28754.7,0.125946,0.125547,-4.84084,15,0.0115618,10,-0.000607752,-2.31508,-0.117795,-0.500871,94.3967,0.125547,
2,0,0,1,0,28754.8,0.124446,0.12415,-4.98414,15,0.0114387,10,-0.000618781,-2.30241,-0.120008,-0.491634,95.3227,0.12415,
2,0,0,1,0,28754.8,0.122952,0.122642,-5.11454,15,0.0113126,10,-0.000627255,-2.29119,-0.129773,-0.45464,90.6517,0.122642,
2,0,0,1,0,28754.8,0.121453,0.121144,-5.24769,15,0.0111826,10,-0.000635724,-2.28003,-0.146868,-0.401722,82.0883,0.121144,
2,0,0,1,0,28754.8,0.119953,0.119629,-5.3661,15,0.0110495,10,-0.000641943,-2.27034,-0.159174,-0.370663,77.5555,0.119629,
2,0,0,1,0,28754.9,0.118459,0.118146,-5.48591,15,0.010914,10,-0.000648139,-2.26075,-0.160718,-0.367102,78.4422,0.118146,
2,0,0,1,0,28754.9,0.116958,0.11663,-5.59035,15,0.0107751,10,-0.000652002,-2.25256,-0.183115,-0.322201,70.2026,0.11663,
2,0,0,1,0,28754.9,0.115457,0.115105,-5.6936,15,0.0106335,10,-0.000655361,-2.24461,-0.214899,-0.274547,60.8948,0.115105,
2,0,0,1,0,28754.9,0.113963,0.113598,-5.78222,15,0.0104902,10,-0.00065685,-2.23791,-0.233317,-0.252875,56.9577,0.113598,
2,0,0,1,0,28755,0.112464,0.11217,-5.8638,15,0.0103443,10,-0.000657741,-2.23182,-0.251669,-0.234435,53.5789,0.11217,
2,0,0,1,0,28755,0.110965,0.110647,-5.93465,15,0.0101964,10,-0.000656653,-2.22661,-0.279725,-0.210922,48.8075,0.1106473,
2,0,0,1,0,28755,0.109466,0.109156,-6.00145,15,0.0100466,10,-0.000655094,-2.22174,-0.344591,-0.171218,40.0777,0.109156,
2,0,0,1,0,28755,0.107972,0.107635,-6.06454,15,0.00989588,10,-0.000652756,-2.2172,-0.437684,-0.134801,31.8391,0.107635,
2,0,0,1,0,28755.1,0.106471,0.106168,-6.11263,15,0.0097433,10,-0.000648966,-2.21377,-0.458057,-0.128805,30.6747,0.106168,
2,0,0,1,0,28755.1,0.10497,0.104675,-6.14405,15,0.00958965,10,-0.000643126,-2.21155,-0.566166,-0.10421,24.9638,0.104675,
2,0,0,1,0,28755.1,0.103476,0.103128,-6.17748,15,0.00943569,10,-0.000637071,-2.20919,-1.06026,-0.0556466,13.3986,0.103128,
2,0,0,1,0,28755.1,0.101976,0.101638,-6.20417,15,0.00928052,10,-0.000630576,-2.20732,-2.07762,-0.0283979,6.86028,0.101638,
2,0,0,1,0,28755.2,0.100477,0.100149,-6.20459,15,0.00912509,10,-0.000621384,-2.20729,-5.49648,-0.0107341,2.59603,0.100149,
2,0,0,1,0,28755.2,0.0989825,0.0986472,-6.20302,15,0.00897018,10,-0.00061191,-2.2074,9.65386,0.00611155,-1.47795,0.0986472,
2,0,0,1,0,28755.2,0.0974817,0.0971385,-6.19375,15,0.00881476,10,-0.000601652,-2.20805,1.41368,0.041735,-10.0812,0.0971385,
2,0,0,1,0,28755.2,0.0959822,0.0956419,-6.18068,15,0.00865966,10,-0.000591132,-2.20896,0.896075,0.0658427,-15.8492,0.0956419,
2,0,0,1,0,28755.3,0.094488,0.0941675,-6.15087,15,0.00850578,10,-0.000579212,-2.21106,0.788895,0.0747882,-17.9258,0.0941675,
2,0,0,1,0,28755.3,0.0929884,0.0926609,-6.11597,15,0.00835204,10,-0.000566711,-2.21353,0.663871,0.0888726,-21.2099,0.0926609,
2,0,0,1,0,28755.3,0.0914889,0.0911359,-6.08358,15,0.00819915,10,-0.000554432,-2.21584,0.535697,0.110137,-26.1294,0.0911359,
2,0,0,1,0,28755.3,0.0899894,0.0896688,-6.04217,15,0.00804717,10,-0.000541794,-2.21881,0.439274,0.134312,-31.6106,0.0896688,
2,0,0,1,0,28755.4,0.0884951,0.0881645,-5.98997,15,0.00789693,10,-0.000528103,-2.22258,0.439466,0.134254,-31.3775,0.0881645,
2,0,0,1,0,28755.4,0.0869943,0.0866749,-5.94283,15,0.00774739,10,-0.000515094,-2.22601,0.44143,0.133656,-31.0057,0.0866749,
2,0,0,1,0,28755.4,0.0854935,0.0851723,-5.89372,15,0.00759902,10,-0.000501982,-2.22961,0.406347,0.145196,-33.405,0.0851723,
2,0,0,1,0,28755.4,0.0839993,0.083703,-5.85435,15,0.00745239,10,-0.000490026,-2.23252,0.39893,0.147895,-33.7332,0.083703,
2,0,0,1,0,28755.5,0.0824998,0.0821922,-5.80584,15,0.00730634,10,-0.000477195,-2.23613,0.447047,0.131977,-29.8671,0.0821922,
2,0,0,1,0,28755.5,0.0810002,0.0806462,-5.7494,15,0.00716159,10,-0.000463667,-2.24038,0.481027,0.122654,-27.5745,0.0806462,
2,0,0,1,0,28755.5,0.0795007,0.0791739,-5.70694,15,0.00701787,10,-0.00045184,-2.2436,0.499023,0.118231,-26.3792,0.0791739,
2,0,0,1,0,28755.5,0.0780078,0.0776737,-5.67501,15,0.00687571,10,-0.000440799,-2.24603,0.516923,0.114137,-25.2698,0.0776737,
2,0,0,1,0,28755.6,0.076507,0.0762188,-5.6391,15,0.00673389,10,-0.000429805,-2.24879,0.539933,0.109273,-24.04,0.0762188,
2,0,0,1,0,28755.6,0.0750062,0.0747019,-5.59149,15,0.00659311,10,-0.000417695,-2.25247,0.57104,0.10332,-22.5842,0.07470189,
2,0,0,1,0,28755.6,0.073512,0.0731727,-5.56322,15,0.00645372,10,-0.000407076,-2.25467,0.585079,0.100841,-21.9128,0.0731727,
2,0,0,1,0,28755.6,0.0720124,0.0717071,-5.53598,15,0.00631455,10,-0.000396969,-2.25681,0.599524,0.0984114,-21.2659,0.0717071,
2,0,0,1,0,28755.7,0.0705129,0.0701814,-5.50691,15,0.00617607,10,-0.000386483,-2.25909,0.698319,0.0844887,-18.1608,0.0701814,
2,0,0,1,0,28755.7,0.0690187,0.0687374,-5.47276,15,0.00603889,10,-0.000376183,-2.26179,0.734536,0.0803229,-17.183,0.0687374,
2,0,0,1,0,28755.7,0.0675179,0.0671835,-5.45094,15,0.00590187,10,-0.000366213,-2.26353,0.721357,0.0817903,-17.4215,0.0671835,
2,0,0,1,0,28755.7,0.066017,0.0656882,-5.43359,15,0.00576544,10,-0.000356922,-2.26491,0.75952,0.0776806,-16.444,0.0656882,
2,0,0,1,0,28755.8,0.0645242,0.0641588,-5.40671,15,0.00563011,10,-0.000346888,-2.26707,0.739098,0.0798271,-16.8142,0.0641588,
2,0,0,1,0,28755.8,0.0630246,0.0626664,-5.37748,15,0.0054949,10,-0.000336988,-2.26942,0.770266,0.076597,-16.0756,0.0626664,
2,0,0,1,0,28755.8,0.0615251,0.0612382,-5.34638,15,0.00536041,10,-0.000327403,-2.27194,0.674574,0.0874626,-18.2816,0.06123824,
2,0,0,1,0,28755.8,0.0600256,0.0597092,-5.32591,15,0.0052265,10,-0.000318006,-2.27361,0.667716,0.088361,-18.3683,0.0597092,
2,0,0,1,0,28755.9,0.0585314,0.0581924,-5.3029,15,0.00509377,10,-0.000308588,-2.27549,0.696783,0.0846748,-17.5122,0.0581924,
2,0,0,1,0,28755.9,0.0570305,0.0567181,-5.27178,15,0.00496112,10,-0.000299005,-2.27804,0.757904,0.0778463,-16.0211,0.05671813,
2,0,0,1,0,28755.9,0.0555297,0.0551909,-5.24755,15,0.00482921,10,-0.000289617,-2.28004,0.66726,0.0884213,-18.1191,0.0551909,
2,0,0,1,0,28755.9,0.0540355,0.0537349,-5.22358,15,0.00469844,10,-0.000280688,-2.28203,0.690475,0.0854485,-17.4009,0.0537349,
2,0,0,1,0,28756,0.052536,0.0521978,-5.2006,15,0.00456773,10,-0.00027146,-2.28395,0.720132,0.0819294,-16.6152,0.05219781,
2,0,0,1,0,28756,0.0510364,0.0506927,-5.16678,15,0.00443769,10,-0.000261918,-2.28678,0.609896,0.0967378,-19.5176,0.0506927,
2,0,0,1,0,28756,0.0495369,0.0492496,-5.13673,15,0.00430846,10,-0.000252982,-2.28931,0.534265,0.110432,-22.1711,0.0492496,
2,0,0,1,0,28756,0.0480427,0.0476828,-5.11262,15,0.00418047,10,-0.000243784,-2.29136,0.625922,0.094261,-18.797,0.0476828,
2,0,0,1,0,28756.1,0.0465432,0.0462394,-5.08568,15,0.00405263,10,-0.000235159,-2.29365,0.661639,0.0891724,-17.684,0.0462394,
2,0,0,1,0,28756.1,0.0450424,0.0447233,-5.05235,15,0.00392551,10,-0.000225957,-2.29651,0.612106,0.0963886,-18.9931,0.0447233,
2,0,0,1,0,28756.1,0.0435482,0.043227,-5.0185,15,0.00379964,10,-0.000216935,-2.29943,0.50836,0.11606,-22.7513,0.043227,
2,0,0,1,0,28756.1,0.0420486,0.041738,-4.98941,15,0.00367409,10,-0.000208248,-2.30195,0.536334,0.110006,-21.4282,0.041738,
2,0,0,1,0,28756.2,0.0405491,0.040213,-4.96782,15,0.00354929,10,-0.000199771,-2.30383,0.605301,0.0974721,-18.8707,0.040213,
2,0,0,1,0,28756.2,0.0390549,0.0387542,-4.93087,15,0.00342568,10,-0.000191092,-2.30708,0.545535,0.108151,-20.7957,0.0387542,
2,0,0,1,0,28756.2,0.0375541,0.0372355,-4.89372,15,0.00330242,10,-0.00018222,-2.31036,0.478109,0.123403,-23.5852,0.0372355,
2,0,0,1,0,28756.2,0.0360532,0.0357575,-4.86199,15,0.00318009,10,-0.000173853,-2.31319,0.456057,0.12937,-24.5539,0.0357575,
2,0,0,1,0,28756.3,0.034559,0.034241,-4.83288,15,0.00305902,10,-0.000165483,-2.31579,0.50956,0.115786,-21.8007,0.034241,
2,0,0,1,0,28756.3,0.0330595,0.0326999,-4.79342,15,0.00293831,10,-0.000156744,-2.31935,0.495025,0.119186,-22.2923,0.0326999,
2,0,0,1,0,28756.3,0.0315613,0.0312389,-4.75198,15,0.00281852,10,-0.000148447,-2.32312,0.427827,0.137906,-25.5997,0.0312389,
2,0,0,1,0,28756.3,0.0300618,0.0297684,-4.71569,15,0.00269975,10,-0.000140379,-2.32645,0.403402,0.146256,-26.9255,0.0297684,
2,0,0,1,0,28756.4,0.0285676,0.028214,-4.68074,15,0.00258238,10,-0.000132062,-2.32969,0.499205,0.118188,-21.5749,0.028214,
2,0,0,1,0,28756.4,0.0270667,0.0267234,-4.64491,15,0.00246542,10,-0.000124128,-2.33302,0.469417,0.125688,-22.7731,0.0267234,
2,0,0,1,0,28756.4,0.0255659,0.0252389,-4.60137,15,0.00234938,10,-0.000116133,-2.33711,0.37797,0.156097,-28.0435,0.0252389,
2,0,0,1,0,28756.4,0.0240717,0.023759,-4.56233,15,0.00223483,10,-0.000108396,-2.34081,0.378512,0.155873,-27.7646,0.023759,
2,0,0,1,0,28756.5,0.0225722,0.0222635,-4.52869,15,0.00212083,10,-0.000100824,-2.34403,0.448728,0.131483,-23.2142,0.02226348,
2,0,0,1,0,28756.5,0.0210726,0.0207698,-4.48494,15,0.00200772,10,-9.31511e-05,-2.34824,0.451903,0.130559,-22.8781,0.0207698,
2,0,0,1,0,28756.5,0.0195784,0.0192281,-4.45143,15,0.00189597,10,-8.55926e-05,-2.3515,0.40334,0.146279,-25.4364,0.0192281,
2,0,0,1,0,28756.5,0.0180789,0.0177519,-4.41654,15,0.00178469,10,-7.84018e-05,-2.35492,0.37996,0.15528,-26.7543,0.0177519,
2,0,0,1,0,28756.6,0.0165781,0.016296,-4.38696,15,0.00167434,10,-7.14897e-05,-2.35784,0.478463,0.123311,-21.0949,0.016296,
2,0,0,1,0,28756.6,0.0150839,0.0147428,-4.34994,15,0.00156526,10,-6.41305e-05,-2.36152,0.521283,0.113182,-19.2023,0.0147428,
2,0,0,1,0,28756.6,0.0135844,0.0132736,-4.31506,15,0.0014565,10,-5.72765e-05,-2.36501,0.459443,0.128416,-21.6325,0.0132736,
2,0,0,1,0,28756.6,0.0120848,0.011758,-4.28826,15,0.00134856,10,-5.04212e-05,-2.36772,0.459664,0.128355,-21.472,0.01175798,
2,0,0,1,0,28756.7,0.0105853,0.0102449,-4.25542,15,0.0012414,10,-4.35964e-05,-2.37106,0.541699,0.108917,-18.097,0.0102449,
2,0,0,1,0,28756.7,0.00909108,0.00873889,-4.2274,15,0.00113535,10,-3.69428e-05,-2.37393,0.598556,0.0985705,-16.2672,0.00873889,
2,0,0,1,0,28756.7,0.00759027,0.00728499,-4.20167,15,0.00102954,10,-3.06092e-05,-2.37658,0.537482,0.109771,-18.023,0.007284991,
2,0,0,1,0,28756.7,0.00608945,0.0057683,-4.18519,15,0.000924371,10,-2.41414e-05,-2.37829,0.596145,0.0989692,-16.1398,0.0057683,
2,0,0,1,0,28756.8,0.00459524,0.00429432,-4.15646,15,0.000820236,10,-1.78492e-05,-2.38128,0.755784,0.0780647,-12.6654,0.00429432,
2,0,0,1,0,28756.8,0.0030957,0.0027774,-4.13435,15,0.000716181,10,-1.14827e-05,-2.38359,2.16163,0.0272942,-4.4202,0.0027774,
2,0,0,1,0,28756.8,0.00159616,0.00121817,-4.14578,15,0.000612125,10,-5.05026e-06,-2.38239, , , ,0.00121817,
2,0,0,1,0,28756.8,0.000199195,-0.0002108,-4.11988,15,0.000515413,10,8.68469e-07,-2.38512, , , ,-0.0002108,