File: Figure_codes/Fig_3-5/rawdata_trumpetplot_data/after 10th/20221101_1-115_003_TrumpetPlot_ParaChange_from10_every3_08_CV_C01_22.csv
mode,ox/red,error,control changes,counter inc.,time/s,control/V,Ewe/V,<I>/mA,cycle number,(Q-Qo)/C,I Range,P/W,log(|I|),Tafel slope mV/dec,alpha_eff,dI/d(E-IR),E-IR/V,
2,0,0,0,0,44517.9,2.44065e-05,-0.000229887,-3.98428,23,0.0000000E+000,10,9.15933e-07,-2.39965, , , ,-0.000229887,
2,0,0,1,0,44517.9,0.0012943,0.000907513,-2.35755,23,-4.78134e-05,10,-2.13951e-06,-2.62754, , , ,0.000907513,
2,0,0,1,0,44517.9,0.00279784,0.00249585,-1.15308,23,-7.98936e-05,10,-2.87791e-06,-2.93814,-0.00278169,-21.2101,680.799,0.00249585,
2,0,0,1,0,44517.9,0.00429425,0.00399631,-0.326781,23,-9.30996e-05,10,-1.30592e-06,-3.48574,-0.00783766,-7.52775,505.672,0.003996308,
2,1,0,1,0,44518,0.00579065,0.00544825,0.291947,23,-9.29214e-05,10,1.5906e-06,-3.5347,0.0201179,2.93271,376.563,0.00544825,
2,1,0,1,0,44518,0.0072942,0.00695683,0.782924,23,-8.22955e-05,10,5.44667e-06,-3.10628,0.00360134,16.3828,300.672,0.00695683,
2,1,0,1,0,44518,0.00878347,0.00842689,1.18002,23,-6.36025e-05,10,9.94389e-06,-2.92811,0.00995017,5.92955,241.018,0.00842689,
2,1,0,1,0,44518,0.010287,0.00997978,1.50249,23,-3.80139e-05,10,1.49945e-05,-2.82319,0.0165071,3.57423,197.225,0.00997978,
2,1,0,1,0,44518,0.0117905,0.0114427,1.77158,23,-6.92256e-06,10,2.02716e-05,-2.75164,0.0238993,2.46869,164.825,0.01144269,
2,1,0,1,0,44518.1,0.013278,0.0129226,1.98182,23,2.83098e-05,10,2.56103e-05,-2.70294,0.0322656,1.82857,139.323,0.0129226,
2,1,0,1,0,44518.1,0.0147816,0.0144377,2.17556,23,6.78061e-05,10,3.14101e-05,-2.66243,0.0418589,1.4095,118.33,0.0144377,
2,1,0,1,0,44518.1,0.0162851,0.0159746,2.34612,23,0.000110685,10,3.74782e-05,-2.62965,0.0535233,1.10232,99.8497,0.0159746,
2,1,0,1,0,44518.1,0.0177744,0.0174528,2.49495,23,0.000155976,10,4.35438e-05,-2.60294,0.0645062,0.914641,88.1359,0.0174528,
2,1,0,1,0,44518.1,0.0192779,0.0189863,2.61991,23,0.000204202,10,4.97423e-05,-2.58171,0.0772403,0.76385,77.6332,0.0189863,
2,1,0,1,0,44518.1,0.0207743,0.0204354,2.73522,23,0.000254456,10,5.58954e-05,-2.56301,0.083073,0.710219,75.3119,0.0204354,
2,1,0,1,0,44518.2,0.0222707,0.0219417,2.84596,23,0.000306784,10,6.24453e-05,-2.54577,0.0955141,0.61771,68.1231,0.0219417,
2,1,0,1,0,44518.2,0.0237743,0.0234336,2.93838,23,0.000361293,10,6.88568e-05,-2.53189,0.111263,0.530273,60.5223,0.0234336,
2,1,0,1,0,44518.2,0.0252636,0.0249439,3.02037,23,0.000416895,10,7.53398e-05,-2.51994,0.116996,0.504291,59.4254,0.0249439,
2,1,0,1,0,44518.2,0.0267671,0.0264907,3.10827,23,0.000474684,10,8.23402e-05,-2.50748,0.12088,0.488086,59.0647,0.0264907,
2,1,0,1,0,44518.2,0.0282706,0.0279447,3.19028,23,0.000534089,10,8.91515e-05,-2.49617,0.13217,0.446396,55.4332,0.0279447,
2,1,0,1,0,44518.3,0.0297581,0.0294294,3.26297,23,0.00059437,10,9.60273e-05,-2.48639,0.145927,0.404312,51.4393,0.0294294,
2,1,0,1,0,44518.3,0.0312617,0.0309523,3.33217,23,0.000656667,10,0.000103138,-2.47727,0.150938,0.390888,50.8821,0.0309523,
2,1,0,1,0,44518.3,0.0327652,0.0324152,3.40606,23,0.000720321,10,0.000110408,-2.46775,0.161799,0.364649,48.4519,0.0324152,
2,1,0,1,0,44518.3,0.0342545,0.0339521,3.47442,23,0.000784625,10,0.000117964,-2.45912,0.169987,0.347084,47.1018,0.0339521,
2,1,0,1,0,44518.3,0.035758,0.03543,3.54149,23,0.00085092,10,0.000125475,-2.45081,0.182775,0.322802,44.642,0.03543,
2,1,0,1,0,44518.4,0.0372544,0.0369328,3.61683,23,0.000918197,10,0.00013358,-2.44167,0.191436,0.308196,43.4782,0.0369328,
2,1,0,1,0,44518.4,0.0387508,0.0384083,3.68051,23,0.00098665,10,0.000141362,-2.43409,0.208088,0.283533,40.7888,0.0384083,
2,1,0,1,0,44518.4,0.0402544,0.0399452,3.74908,23,0.00105676,10,0.000149757,-2.42608,0.200343,0.294496,43.052,0.03994517,
2,1,0,1,0,44518.4,0.0417437,0.0414036,3.82187,23,0.00112739,10,0.000158239,-2.41772,0.214387,0.275203,40.9733,0.0414036,
2,1,0,1,0,44518.4,0.0432472,0.0429286,3.89004,23,0.0012,10,0.000166994,-2.41005,0.216696,0.27227,41.2322,0.0429286,
2,1,0,1,0,44518.4,0.0447507,0.0444102,3.94776,23,0.00127378,10,0.000175321,-2.40365,0.216391,0.272655,41.9792,0.0444102,
2,1,0,1,0,44518.5,0.0462382,0.0459314,4.01133,23,0.00134796,10,0.000184246,-2.39671,0.208204,0.283377,44.3136,0.0459314,
2,1,0,1,0,44518.5,0.0477418,0.0474192,4.07786,23,0.00142416,10,0.000193369,-2.38957,0.211992,0.278313,44.2217,0.0474192,
2,1,0,1,0,44518.5,0.0492453,0.048908,4.1397,23,0.00150159,10,0.000202464,-2.38303,0.214559,0.274982,44.3621,0.048908,
2,1,0,1,0,44518.5,0.0507346,0.0504268,4.19589,23,0.00157932,10,0.000211586,-2.37718,0.236415,0.249561,40.8598,0.0504268,
2,1,0,1,0,44518.5,0.0522381,0.0519548,4.25196,23,0.001659,10,0.00022091,-2.37141,0.221897,0.265889,44.1831,0.0519548,
2,1,0,1,0,44518.6,0.0537345,0.0534137,4.32661,23,0.00173944,10,0.0002311,-2.36385,0.225731,0.261373,44.0667,0.0534137,
2,1,0,1,0,44518.6,0.0552309,0.0549444,4.38152,23,0.00182106,10,0.00024074,-2.35837,0.239697,0.246144,42.0389,0.0549444,
2,1,0,1,0,44518.6,0.0567345,0.0563998,4.43257,23,0.00190426,10,0.000249996,-2.35334,0.259201,0.227623,39.4319,0.0563998,
2,1,0,1,0,44518.6,0.0582237,0.057891,4.49538,23,0.00198758,10,0.000260242,-2.34723,0.275793,0.213928,37.5533,0.057891,
2,1,0,1,0,44518.6,0.0597273,0.0594367,4.55453,23,0.00207292,10,0.000270706,-2.34156,0.274516,0.214924,38.205,0.0594367,
2,1,0,1,0,44518.7,0.0612308,0.0609313,4.61399,23,0.00215937,10,0.000281136,-2.33592,0.295058,0.199961,35.992,0.0609313,
2,1,0,1,0,44518.7,0.0627183,0.0624126,4.67092,23,0.002246,10,0.000291524,-2.3306,0.307564,0.19183,34.9706,0.0624126,
2,1,0,1,0,44518.7,0.0642218,0.0639267,4.72243,23,0.00233453,10,0.000301889,-2.32583,0.319838,0.184468,34.0426,0.0639267,
2,1,0,1,0,44518.7,0.0657254,0.0654734,4.78237,23,0.00242413,10,0.000313118,-2.32036,0.295466,0.199685,37.2651,0.06547343,
2,1,0,1,0,44518.7,0.0672147,0.0669162,4.84793,23,0.00251385,10,0.000324405,-2.31444,0.306129,0.192729,36.3676,0.0669162,
2,1,0,1,0,44518.7,0.0687182,0.0684268,4.90021,23,0.00260559,10,0.000335306,-2.30978,0.327718,0.180033,34.3506,0.06842684,
2,1,0,1,0,44518.8,0.0702146,0.0698709,4.94578,23,0.00269779,10,0.000345566,-2.30577,0.340002,0.173529,33.4655,0.0698709,
2,1,0,1,0,44518.8,0.071711,0.0713697,4.9929,23,0.00279089,10,0.000356342,-2.30165,0.325109,0.181477,35.3539,0.0713697,
2,1,0,1,0,44518.8,0.0732146,0.0728912,5.04209,23,0.00288546,10,0.000367525,-2.29739,0.342528,0.172249,33.8787,0.0728912,
2,1,0,1,0,44518.8,0.0747038,0.0743981,5.09072,23,0.00297998,10,0.00037874,-2.29322,0.343351,0.171836,34.1512,0.0743981,
2,1,0,1,0,44518.8,0.0762074,0.075965,5.1346,23,0.00307635,10,0.00039005,-2.28949,0.35307,0.167106,33.5115,0.075965,
2,1,0,1,0,44518.9,0.0777109,0.0774139,5.18822,23,0.00317363,10,0.00040164,-2.28498,0.358336,0.16465,33.3082,0.0774139,
2,1,0,1,0,44518.9,0.0791984,0.0788836,5.2274,23,0.00327074,10,0.000412356,-2.28171,0.383299,0.153927,31.4117,0.07888364,
2,1,0,1,0,44518.9,0.0807019,0.0804321,5.27371,23,0.00336975,10,0.000424176,-2.27788,0.429213,0.137461,28.2817,0.0804321,
2,1,0,1,0,44518.9,0.0822055,0.0818609,5.30833,23,0.00346958,10,0.000434545,-2.27504,0.472261,0.124931,25.9058,0.0818609,
2,1,0,1,0,44518.9,0.0836947,0.0834059,5.35476,23,0.00356904,10,0.000446619,-2.27126,0.507744,0.1162,24.2963,0.0834059,
2,1,0,1,0,44519,0.0851983,0.0848648,5.38934,23,0.00367035,10,0.000457365,-2.26846,0.495171,0.119151,25.0863,0.0848648,
2,1,0,1,0,44519,0.0866947,0.0863808,5.44137,23,0.0037719,10,0.00047003,-2.26429,0.569013,0.103688,21.992,0.0863808,
2,1,0,1,0,44519,0.0881911,0.0878243,5.47686,23,0.00387418,10,0.000481001,-2.26147,0.563351,0.10473,22.3714,0.0878243,
2,1,0,1,0,44519,0.0896946,0.0893922,5.51668,23,0.00397767,10,0.000493148,-2.25832,0.515245,0.114509,24.6437,0.0893922,
2,1,0,1,0,44519,0.0911839,0.0908609,5.56433,23,0.00408081,10,0.00050558,-2.25459,0.453661,0.130053,28.2025,0.0908609,
2,1,0,1,0,44519,0.0926857,0.0923504,5.60558,23,0.00418589,10,0.000517678,-2.25138,0.433199,0.136196,29.7557,0.0923504,
2,1,0,1,0,44519.1,0.0941892,0.093845,5.64389,23,0.00429176,10,0.000529651,-2.24842,0.427855,0.137897,30.3644,0.093845,
2,1,0,1,0,44519.1,0.0956785,0.0953621,5.68107,23,0.0043973,10,0.000541759,-2.24557,0.387813,0.152135,33.7616,0.0953621,
2,1,0,1,0,44519.1,0.097182,0.096852,5.73267,23,0.00450484,10,0.00055522,-2.24164,0.358297,0.164668,36.8562,0.09685196,
2,1,0,1,0,44519.1,0.0986856,0.0983384,5.78719,23,0.00461337,10,0.000569103,-2.23753,0.343081,0.171971,38.8572,0.09833838,
2,1,0,1,0,44519.1,0.100175,0.0998395,5.83915,23,0.00472175,10,0.000582978,-2.23365,0.34292,0.172052,39.2573,0.0998395,
2,1,0,1,0,44519.2,0.101678,0.101345,5.89548,23,0.00483236,10,0.000597477,-2.22948,0.333334,0.176999,40.8031,0.101345,
2,1,0,1,0,44519.2,0.103175,0.102881,5.96611,23,0.00494352,10,0.000613798,-2.22431,0.292735,0.201547,46.9596,0.102881,
2,1,0,1,0,44519.2,0.104671,0.104372,6.04477,23,0.00505599,10,0.000630905,-2.21862,0.269277,0.219105,51.6816,0.104372,
2,1,0,1,0,44519.2,0.106175,0.105867,6.11894,23,0.00517057,10,0.000647792,-2.21332,0.275384,0.214246,51.1721,0.105867,
2,1,0,1,0,44519.2,0.107662,0.107365,6.19888,23,0.00528543,10,0.000665544,-2.20769,0.264473,0.223085,54.0138,0.107365,
2,1,0,1,0,44519.3,0.109166,0.108859,6.28231,23,0.00540298,10,0.000683885,-2.20188,0.263508,0.223902,54.9597,0.108859,
2,1,0,1,0,44519.3,0.110669,0.110322,6.37635,23,0.00552223,10,0.00070345,-2.19543,0.246029,0.239809,59.6418,0.1103218,
2,1,0,1,0,44519.3,0.112159,0.111882,6.47323,23,0.0056419,10,0.00072424,-2.18888,0.25007,0.235934,59.5256,0.111882,
2,1,0,1,0,44519.3,0.113662,0.113334,6.56631,23,0.00576457,10,0.000744185,-2.18268,0.254583,0.231752,59.311,0.113334,
2,1,0,1,0,44519.3,0.115166,0.114834,6.65611,23,0.00588896,10,0.000764347,-2.17678,0.242122,0.243679,63.2437,0.114834,
2,1,0,1,0,44519.3,0.116655,0.116299,6.74801,23,0.00601373,10,0.000784786,-2.17082,0.234441,0.251662,66.2533,0.116299,
2,1,0,1,0,44519.4,0.118158,0.117834,6.84618,23,0.00614169,10,0.000806712,-2.16455,0.243997,0.241806,64.5481,0.117834,
2,1,0,1,0,44519.4,0.119655,0.119287,6.93896,23,0.00627077,10,0.000827727,-2.15871,0.258896,0.227891,61.6406,0.119287,
2,1,0,1,0,44519.4,0.121151,0.120869,7.01936,23,0.00640149,10,0.00084842,-2.1537,0.266686,0.221234,60.5935,0.120869,
2,1,0,1,0,44519.4,0.122655,0.12235,7.10086,23,0.00653451,10,0.000868786,-2.14869,0.288224,0.204702,56.7323,0.12235,
2,1,0,1,0,44519.4,0.124142,0.123858,7.18118,23,0.00666765,10,0.000889445,-2.1438,0.313339,0.188295,52.7651,0.123858,
2,1,0,1,0,44519.5,0.125646,0.125318,7.2561,23,0.00680368,10,0.000909317,-2.1393,0.351489,0.167857,47.4816,0.125318,
2,1,0,1,0,44519.5,0.127149,0.126814,7.31569,23,0.00694103,10,0.000927734,-2.13574,0.380654,0.154996,44.29,0.126814,
2,1,0,1,0,44519.5,0.128639,0.128326,7.38317,23,0.00707806,10,0.000947449,-2.13176,0.428894,0.137563,39.6655,0.128326,
2,1,0,1,0,44519.5,0.130142,0.129841,7.44193,23,0.00721773,10,0.000966267,-2.12831,0.473118,0.124705,36.2335,0.129841,
2,1,0,1,0,44519.5,0.131646,0.131366,7.49924,23,0.00735854,10,0.000985147,-2.12498,0.539063,0.109449,32.0062,0.131366,
2,1,0,1,0,44519.6,0.133135,0.132838,7.55368,23,0.0074988,10,0.00100342,-2.12184,0.617569,0.0955359,28.1357,0.132838,
2,1,0,1,0,44519.6,0.134639,0.134349,7.59463,23,0.00764132,10,0.00102033,-2.11949,0.712046,0.0828598,24.5535,0.134349,
2,1,0,1,0,44519.6,0.136135,0.135845,7.63936,23,0.00778395,10,0.00103777,-2.11694,0.687041,0.0858755,25.5735,0.135845,
2,1,0,1,0,44519.6,0.137631,0.13732,7.67273,23,0.00792725,10,0.00105362,-2.11505,0.861353,0.0684969,20.4872,0.1373198,
2,1,0,1,0,44519.6,0.139135,0.138831,7.7068,23,0.00807198,10,0.00106995,-2.11313,1.00376,0.0587792,17.6461,0.138831,
2,1,0,1,0,44519.6,0.140622,0.140331,7.72584,23,0.00821561,10,0.00108418,-2.11205,1.14774,0.0514054,15.4803,0.140331,
2,1,0,1,0,44519.7,0.142126,0.141825,7.73981,23,0.00836116,10,0.0010977,-2.11127,1.58634,0.0371926,11.218,0.141825,
2,1,0,1,0,44519.7,0.143629,0.143294,7.74545,23,0.00850696,10,0.00110988,-2.11095,6.31745,0.00933921,2.81883,0.1432938,
2,1,0,1,0,44519.7,0.145119,0.144813,7.73838,23,0.00865126,10,0.00112061,-2.11135,-1.63564,-0.0360716,-10.8737,0.144813,
2,1,0,1,0,44519.7,0.146622,0.146301,7.70527,23,0.00879675,10,0.00112729,-2.11321,-0.772905,-0.0763354,-22.9385,0.146301,
2,1,0,1,0,44519.7,0.148126,0.147805,7.66578,23,0.0089416,10,0.00113304,-2.11544,-0.52969,-0.111386,-33.2547,0.147805,
2,1,0,1,0,44519.8,0.149615,0.149328,7.60792,23,0.00908392,10,0.00113608,-2.11873,-0.355741,-0.165851,-49.1324,0.149328,
2,1,0,1,0,44519.8,0.151119,0.150791,7.51947,23,0.00922638,10,0.00113387,-2.12381,-0.259121,-0.227693,-66.6041,0.150791,
2,1,0,1,0,44519.8,0.152615,0.152266,7.40794,23,0.00936631,10,0.00112797,-2.1303,-0.206365,-0.285901,-82.4105,0.152266,
2,1,0,1,0,44519.8,0.154111,0.153769,7.27421,23,0.00950382,10,0.00111855,-2.13821,-0.167751,-0.351712,-99.6302,0.153769,
2,1,0,1,0,44519.8,0.155615,0.155303,7.11755,23,0.00963936,10,0.00110538,-2.14767,-0.145726,-0.404871,-112.114,0.155303,
2,1,0,1,0,44519.9,0.157103,0.156803,6.94276,23,0.0097704,10,0.00108865,-2.15847,-0.123938,-0.476043,-128.58,0.156803,
2,1,0,1,0,44519.9,0.158606,0.15828,6.74753,23,0.00989928,10,0.001068,-2.17085,-0.113678,-0.519011,-136.295,0.1582797,
2,1,0,1,0,44519.9,0.16011,0.159793,6.5336,23,0.0100242,10,0.00104402,-2.18485,-0.104809,-0.562929,-143.301,0.159793,
2,1,0,1,0,44519.9,0.161599,0.161313,6.32198,23,0.0101439,10,0.00101982,-2.19915,-0.0990369,-0.595738,-146.598,0.161313,
2,1,0,1,0,44519.9,0.163102,0.162796,6.10019,23,0.0102608,10,0.000993086,-2.21466,-0.0963603,-0.612285,-145.512,0.162796,
2,1,0,1,0,44519.9,0.164606,0.164302,5.87933,23,0.0103735,10,0.000965986,-2.23067,-0.0939222,-0.62818,-143.998,0.1643021,
2,1,0,1,0,44520,0.166095,0.165753,5.66125,23,0.010481,10,0.000938369,-2.24709,-0.0933234,-0.63221,-139.856,0.165753,
2,1,0,1,0,44520,0.167599,0.167279,5.46135,23,0.0105857,10,0.00091357,-2.2627,-0.0983057,-0.600169,-128.098,0.167279,
2,1,0,1,0,44520,0.169095,0.168778,5.27587,23,0.0106863,10,0.00089045,-2.27771,-0.1009,-0.584739,-120.519,0.168778,
2,1,0,1,0,44520,0.170592,0.170249,5.10098,23,0.0107836,10,0.000868437,-2.29235,-0.102382,-0.576276,-114.869,0.170249,
2,1,0,1,0,44520,0.172095,0.171822,4.92952,23,0.0108781,10,0.000847001,-2.3072,-0.110797,-0.532507,-102.753,0.171822,
2,1,0,1,0,44520.1,0.173583,0.173269,4.77918,23,0.0109686,10,0.000828084,-2.32065,-0.118331,-0.498602,-93.2766,0.173269,
2,1,0,1,0,44520.1,0.175086,0.1748,4.64511,23,0.0110575,10,0.000811966,-2.333,-0.122015,-0.483547,-87.903,0.1748,
2,1,0,1,0,44520.1,0.17659,0.176269,4.52222,23,0.011144,10,0.00079713,-2.34465,-0.12687,-0.465044,-82.2237,0.1762695,
2,1,0,1,0,44520.1,0.178079,0.177761,4.41362,23,0.0112273,10,0.000784567,-2.35521,-0.136388,-0.43259,-74.5902,0.177761,
2,1,0,1,0,44520.1,0.179582,0.179273,4.30378,23,0.0113094,10,0.000771552,-2.36615,-0.148093,-0.398399,-67.1276,0.179273,
2,1,0,1,0,44520.2,0.181086,0.180743,4.21505,23,0.0113897,10,0.000761841,-2.3752,-0.161822,-0.364597,-60.0758,0.180743,
2,1,0,1,0,44520.2,0.182575,0.182248,4.13347,23,0.0114675,10,0.000753316,-2.38369,-0.16405,-0.359646,-57.9942,0.182248,
2,1,0,1,0,44520.2,0.184079,0.183825,4.05701,23,0.0115446,10,0.000745779,-2.39179,-0.177974,-0.331508,-52.4402,0.183825,
2,1,0,1,0,44520.2,0.185582,0.185253,3.97562,23,0.0116202,10,0.000736498,-2.40059,-0.199046,-0.296414,-46.0712,0.1852535,
2,1,0,1,0,44520.2,0.18707,0.186742,3.91292,23,0.0116937,10,0.000730706,-2.4075,-0.2218,-0.266005,-40.6644,0.186742,
2,1,0,1,0,44520.2,0.188573,0.188231,3.85568,23,0.0117669,10,0.000725759,-2.4139,-0.246256,-0.239588,-36.0184,0.188231,
2,1,0,1,0,44520.3,0.19007,0.189761,3.79891,23,0.0118387,10,0.000720883,-2.42034,-0.253629,-0.232623,-34.4909,0.189761,
2,1,0,1,0,44520.3,0.191566,0.191271,3.74564,23,0.0119093,10,0.000716432,-2.42647,-0.261252,-0.225835,-33.0408,0.191271,
2,1,0,1,0,44520.3,0.19307,0.192744,3.69481,23,0.0119795,10,0.000712151,-2.43241,-0.30567,-0.193018,-27.8837,0.192744,
2,1,0,1,0,44520.3,0.194559,0.194249,3.65568,23,0.0120481,10,0.000710113,-2.43703,-0.31431,-0.187713,-26.8126,0.194249,
2,1,0,1,0,44520.3,0.196063,0.195728,3.61604,23,0.0121167,10,0.000707759,-2.44177,-0.316633,-0.186336,-26.298,0.195728,
2,1,0,1,0,44520.4,0.197566,0.197256,3.5708,23,0.0121846,10,0.000704363,-2.44723,-0.329677,-0.178963,-25.035,0.197256,
2,1,0,1,0,44520.4,0.199055,0.198774,3.54501,23,0.0122511,10,0.000704655,-2.45038,-0.363834,-0.162162,-22.4574,0.198774,
2,1,0,1,0,44520.4,0.200559,0.200265,3.51515,23,0.0123177,10,0.000703963,-2.45406,-0.364275,-0.161966,-22.2002,0.200265,
2,1,0,1,0,44520.4,0.202062,0.201779,3.48846,23,0.0123837,10,0.000703897,-2.45737,-0.379893,-0.155307,-21.1242,0.201779,
2,1,0,1,0,44520.4,0.20355,0.20326,3.45794,23,0.0124485,10,0.00070286,-2.46118,-0.428317,-0.137748,-18.6162,0.20326,
2,1,0,1,0,44520.4,0.205053,0.204716,3.43635,23,0.0125135,10,0.000703478,-2.4639,-0.53129,-0.11105,-14.9108,0.204716,
2,1,0,1,0,44520.5,0.20655,0.206249,3.41365,23,0.0125778,10,0.000704062,-2.46678,-0.540775,-0.109103,-14.5219,0.206249,
2,1,0,1,0,44520.5,0.208046,0.207728,3.39928,23,0.0126417,10,0.000706125,-2.46861,-0.526069,-0.112153,-14.8468,0.207728,
2,1,0,1,0,44520.5,0.20955,0.209215,3.37663,23,0.0127055,10,0.000706443,-2.47152,-0.581873,-0.101397,-13.3404,0.209215,
2,1,0,1,0,44520.5,0.211039,0.210755,3.35494,23,0.0127683,10,0.00070707,-2.47432,-0.649182,-0.0908836,-11.8981,0.210755,
2,1,0,1,0,44520.5,0.212543,0.212214,3.33715,23,0.0128313,10,0.00070819,-2.47662,-0.652941,-0.0903604,-11.7517,0.212214,
2,1,0,1,0,44520.6,0.214046,0.213725,3.31893,23,0.0128941,10,0.000709339,-2.479,-1.07069,-0.0551048,-7.14492,0.2137253,
2,1,0,1,0,44520.6,0.215535,0.215224,3.30235,23,0.0129558,10,0.000710746,-2.48118,-0.812368,-0.0726272,-9.35351,0.215224,
2,1,0,1,0,44520.6,0.217039,0.216725,3.28146,23,0.013018,10,0.000711174,-2.48393,-0.972618,-0.060661,-7.78518,0.216725,
2,1,0,1,0,44520.6,0.218543,0.218281,3.26561,23,0.0130798,10,0.00071282,-2.48604,-1.42311,-0.0414586,-5.29291,0.218281,
2,1,0,1,0,44520.6,0.22003,0.219744,3.26044,23,0.0131408,10,0.000716462,-2.48672,-1.11237,-0.0530401,-6.744,0.219744,
2,1,0,1,0,44520.7,0.221534,0.221241,3.24749,23,0.0132022,10,0.000718478,-2.48845,-0.827554,-0.0712944,-9.0337,0.221241,
2,1,0,1,0,44520.7,0.22303,0.222719,3.2285,23,0.0132631,10,0.000719048,-2.491,-0.700035,-0.0842815,-10.6423,0.222719,
2,1,0,1,0,44520.7,0.224526,0.224211,3.22196,23,0.0133237,10,0.000722401,-2.49188,-0.791822,-0.0745117,-9.38511,0.224211,
2,1,0,1,0,44520.7,0.22603,0.225734,3.21619,23,0.0133844,10,0.000726003,-2.49266,-1.05742,-0.0557962,-7.00091,0.225734,
2,1,0,1,0,44520.7,0.227519,0.227218,3.20308,23,0.0134443,10,0.000727795,-2.49443,-0.841714,-0.0700951,-8.75426,0.227218,
2,1,0,1,0,44520.7,0.229023,0.228748,3.19536,23,0.0135046,10,0.000730934,-2.49548,-0.918038,-0.0642675,-8.00564,0.228748,
2,1,0,1,0,44520.8,0.230526,0.230215,3.18255,23,0.0135647,10,0.000732669,-2.49723,-1.02923,-0.0573243,-7.1287,0.230215,
2,1,0,1,0,44520.8,0.232016,0.231724,3.17515,23,0.0136241,10,0.000735759,-2.49824,-1.66931,-0.035344,-4.37802,0.231724,
2,1,0,1,0,44520.8,0.233519,0.233258,3.17369,23,0.0136839,10,0.00074029,-2.49844,-2.17694,-0.0271023,-3.35159,0.233258,
2,1,0,1,0,44520.8,0.235023,0.234687,3.16386,23,0.0137436,10,0.000742519,-2.49978,-1.4582,-0.0404608,-4.99127,0.234687,
2,1,0,1,0,44520.8,0.23651,0.236192,3.14968,23,0.0138025,10,0.000743931,-2.50173,-1.9577,-0.0301374,-3.70416,0.236192,
2,1,0,1,0,44520.9,0.238014,0.2377,3.14102,23,0.0138619,10,0.000746621,-2.50293,-2.45572,-0.0240255,-2.94559,0.2377,
2,1,0,1,0,44520.9,0.23951,0.239208,3.13676,23,0.0139208,10,0.00075034,-2.50352,-3.6759,-0.0160505,-1.96452,0.239208,
2,1,0,1,0,44520.9,0.241006,0.240677,3.12661,23,0.0139796,10,0.000752502,-2.50493,-1.67051,-0.0353187,-4.31445,0.240677,
2,1,0,1,0,44520.9,0.24251,0.242228,3.11428,23,0.0140386,10,0.000754366,-2.50664,-1.76624,-0.0334042,-4.06858,0.242228,
2,1,0,1,0,44520.9,0.243999,0.243697,3.11134,23,0.0140968,10,0.000758225,-2.50705,-2.18167,-0.0270435,-3.2911,0.243697,
2,1,0,1,0,44521,0.245503,0.245207,3.10882,23,0.0141556,10,0.000762305,-2.5074,-1.20501,-0.0489622,-5.94422,0.245207,
2,1,0,1,0,44521,0.247006,0.246749,3.10479,23,0.0142143,10,0.000766105,-2.50797,-1.11359,-0.0529817,-6.41702,0.246749,
2,1,0,1,0,44521,0.248496,0.248181,3.09731,23,0.0142722,10,0.000768694,-2.50902,-1.00045,-0.0589735,-7.13343,0.248181,
2,1,0,1,0,44521,0.249999,0.249677,3.09276,23,0.0143306,10,0.00077219,-2.50965,-1.40023,-0.042136,-5.08846,0.2496766,
2,1,0,1,0,44521,0.251503,0.251177,3.08944,23,0.0143889,10,0.000775994,-2.51012,-1.83975,-0.0320696,-3.86059,0.251177,
2,1,0,1,0,44521,0.25299,0.25265,3.08252,23,0.0144465,10,0.000778798,-2.51109,-1.47962,-0.039875,-4.79228,0.25265,
2,1,0,1,0,44521.1,0.254494,0.25417,3.07936,23,0.0145046,10,0.000782679,-2.51154,-1.50829,-0.0391172,-4.69668,0.25417,
2,1,0,1,0,44521.1,0.25599,0.2557,3.06988,23,0.0145623,10,0.000784969,-2.51288,-5.72655,-0.0103029,-1.23567,0.2557,
2,1,0,1,0,44521.1,0.257487,0.257144,3.06605,23,0.0146198,10,0.000788415,-2.51342,-3.76865,-0.0156555,-1.87251,0.2571435,
2,1,0,1,0,44521.1,0.25899,0.258711,3.06426,23,0.0146777,10,0.000792759,-2.51367,-17.1823,-0.00343377,-0.410316,0.258711,
2,1,0,1,0,44521.1,0.260479,0.260177,3.06331,23,0.0147348,10,0.000797003,-2.51381,-3.53483,-0.016691,-1.99074,0.260177,
2,1,0,1,0,44521.2,0.261983,0.261672,3.04667,23,0.0147924,10,0.000797229,-2.51617,-4.51109,-0.0130789,-1.55609,0.261672,
2,1,0,1,0,44521.2,0.263486,0.263179,3.04408,23,0.0148499,10,0.000801137,-2.51654,-12.3646,-0.00477169,-0.566714,0.263179,
2,1,0,1,0,44521.2,0.264974,0.26469,3.0372,23,0.0149068,10,0.000803917,-2.51753,-4.29106,-0.0137495,-1.63211,0.26469,
2,1,0,1,0,44521.2,0.266477,0.266147,3.03332,23,0.0149641,10,0.00080731,-2.51808,-1.76612,-0.0334066,-3.95639,0.266147,
2,1,0,1,0,44521.2,0.267981,0.267697,3.02774,23,0.0150214,10,0.000810518,-2.51888,-2.64575,-0.0222999,-2.63937,0.267697,
2,1,0,1,0,44521.3,0.26947,0.269175,3.02475,23,0.0150779,10,0.000814187,-2.51931,-1.64607,-0.0358429,-4.23548,0.269175,
2,1,0,1,0,44521.3,0.270974,0.270683,3.02436,23,0.015135,10,0.000818643,-2.51937,-1.51778,-0.0388726,-4.5824,0.270683,
2,1,0,1,0,44521.3,0.27247,0.272174,3.01832,23,0.0151917,10,0.000821509,-2.52023,-1.42377,-0.0414393,-4.87988,0.272174,
2,1,0,1,0,44521.3,0.273967,0.273678,3.01103,23,0.0152483,10,0.000824053,-2.52128,-1.49805,-0.0393845,-4.62939,0.273678,
2,1,0,1,0,44521.3,0.27547,0.275168,3.00993,23,0.0153051,10,0.000828235,-2.52144,-1.73906,-0.0339264,-3.98543,0.2751677,
2,1,0,1,0,44521.3,0.276959,0.276625,3.00987,23,0.0153612,10,0.000832606,-2.52145,-1.63221,-0.0361474,-4.23742,0.276625,
2,1,0,1,0,44521.4,0.278463,0.27815,2.99965,23,0.0154179,10,0.000834355,-2.52293,-1.73889,-0.0339298,-3.96511,0.27815,
2,1,0,1,0,44521.4,0.279967,0.279658,2.99296,23,0.0154744,10,0.000837006,-2.5239,-2.57267,-0.0229334,-2.67779,0.279658,
2,1,0,1,0,44521.4,0.281454,0.281149,2.98592,23,0.0155302,10,0.000839487,-2.52492,-4.04639,-0.0145809,-1.70165,0.281149,
2,1,0,1,0,44521.4,0.282958,0.282659,2.98535,23,0.0155866,10,0.000843837,-2.525,-9.0558,-0.00651516,-0.758585,0.282659,
2,1,0,1,0,44521.4,0.284461,0.284141,2.97602,23,0.0156429,10,0.000845612,-2.52636,-14.79,-0.00398917,-0.463775,0.284141,
2,1,0,1,0,44521.5,0.28595,0.285631,2.97265,23,0.0156985,10,0.000849081,-2.52686,-2.46461,-0.0239389,-2.77844,0.285631,
2,1,0,1,0,44521.5,0.287454,0.287157,2.96086,23,0.0157545,10,0.000850229,-2.52858,-2.97862,-0.0198078,-2.29457,0.287157,
2,1,0,1,0,44521.5,0.28895,0.288634,2.9589,23,0.0158102,10,0.00085404,-2.52887,-3.57337,-0.016511,-1.90749,0.288634,
2,1,0,1,0,44521.5,0.290447,0.290126,2.95534,23,0.0158658,10,0.000857423,-2.52939,-1.59002,-0.0371065,-4.28883,0.290126,
2,1,0,1,0,44521.5,0.29195,0.291632,2.95444,23,0.0159216,10,0.00086161,-2.52952,-1.71645,-0.0343732,-3.96109,0.291632,
2,1,0,1,0,44521.6,0.29344,0.293123,2.94333,23,0.0159767,10,0.000862758,-2.53116,-1.26941,-0.0464781,-5.35506,0.293123,
2,1,0,1,0,44521.6,0.294943,0.294644,2.94543,23,0.0160323,10,0.000867853,-2.53085,-1.52756,-0.0386238,-4.43473,0.294644,
2,1,0,1,0,44521.6,0.296447,0.296142,2.9374,23,0.0160878,10,0.000869887,-2.53204,-1.94728,-0.0302986,-3.47288,0.296142,
2,1,0,1,0,44521.6,0.297934,0.297626,2.9374,23,0.0161427,10,0.000874245,-2.53204,-1.49927,-0.0393525,-4.50492,0.297626,
2,1,0,1,0,44521.6,0.299438,0.299179,2.92827,23,0.016198,10,0.000876074,-2.53339,-0.0309589,-1.90575,-200.937,0.299179,
2,1,0,1,0,44521.6,0.300012,0.299766,2.91794,23,0.0162186,10,0.000874698,-2.53492,0.00175553,33.6082,2496.51,0.299766,
2,1,0,1,0,44521.7,0.298737,0.298446,1.48841,23,0.0162514,10,0.000444211,-2.82728,0.00400805,14.7204,745.076,0.298446,
2,1,0,1,0,44521.7,0.29724,0.296933,0.631779,23,0.0162703,10,0.000187596,-3.19943,0.00242063,24.3738,487.491,0.296933,
2,1,0,1,0,44521.7,0.295744,0.295444,0.0952374,23,0.0162765,10,2.81373e-05,-4.02119,0.0104138,5.66556,305.48,0.295444,
2,0,0,1,0,44521.7,0.29424,0.293919,-0.262309,23,0.0162745,10,-7.70975e-05,-3.58119,-0.0106804,-5.52413,207.928,0.293919,
2,0,0,1,0,44521.7,0.292751,0.292385,-0.507244,23,0.0162669,10,-0.00014831,-3.29478,-0.00597637,-9.87221,148.984,0.292385,
2,0,0,1,0,44521.7,0.291248,0.290925,-0.703091,23,0.0162552,10,-0.000204547,-3.15299,-0.0132757,-4.4442,110.924,0.290925,
2,0,0,1,0,44521.8,0.289744,0.289391,-0.850849,23,0.0162402,10,-0.000246228,-3.07015,-0.0210434,-2.80373,88.744,0.289391,
2,0,0,1,0,44521.8,0.288257,0.287941,-0.966112,23,0.0162231,10,-0.000278184,-3.01497,-0.0316505,-1.86411,68.4984,0.287941,
2,0,0,1,0,44521.8,0.286753,0.286446,-1.0641,23,0.0162037,10,-0.000304807,-2.97302,-0.0413584,-1.42655,58.3217,0.286446,
2,0,0,1,0,44521.8,0.285249,0.284937,-1.14292,23,0.0161827,10,-0.000325661,-2.94198,-0.0501321,-1.17689,52.1776,0.284937,
2,0,0,1,0,44521.8,0.28376,0.283444,-1.21367,23,0.0161606,10,-0.000344007,-2.9159,-0.0637584,-0.925369,43.5708,0.283444,
2,0,0,1,0,44521.9,0.282257,0.281898,-1.28434,23,0.0161369,10,-0.000362054,-2.89132,-0.0793823,-0.743239,36.8604,0.281898,
2,0,0,1,0,44521.9,0.28076,0.280422,-1.32925,23,0.0161123,10,-0.000372753,-2.87639,-0.0863322,-0.683407,35.3668,0.280422,
2,0,0,1,0,44521.9,0.279264,0.278905,-1.38281,23,0.0160867,10,-0.000385672,-2.85924,-0.0975077,-0.605081,32.504,0.278905,
2,0,0,1,0,44521.9,0.27776,0.277458,-1.43014,23,0.0160601,10,-0.000396805,-2.84462,-0.107511,-0.548779,30.4777,0.277458,
2,0,0,1,0,44521.9,0.276271,0.275951,-1.46946,23,0.016033,10,-0.000405499,-2.83284,-0.118513,-0.497837,28.4314,0.275951,
2,0,0,1,0,44522,0.274767,0.274419,-1.50806,23,0.0160048,10,-0.00041384,-2.82158,-0.133503,-0.441938,25.9333,0.274419,
2,0,0,1,0,44522,0.273264,0.272966,-1.53932,23,0.015976,10,-0.000420181,-2.81267,-0.146384,-0.403049,24.2616,0.272966,
2,0,0,1,0,44522,0.271776,0.271481,-1.56974,23,0.0159468,10,-0.000426154,-2.80417,-0.14385,-0.410149,25.2211,0.271481,
2,0,0,1,0,44522,0.270273,0.269969,-1.60507,23,0.0159166,10,-0.000433321,-2.7945,-0.165857,-0.355728,22.3149,0.269969,
2,0,0,1,0,44522,0.268769,0.268436,-1.63812,23,0.0158858,10,-0.00043973,-2.78565,-0.205003,-0.2878,18.3792,0.268436,
2,0,0,1,0,44522,0.26728,0.266954,-1.66645,23,0.0158548,10,-0.000444865,-2.77821,-0.233295,-0.252899,16.4622,0.266954,
2,0,0,1,0,44522.1,0.265777,0.265436,-1.69911,23,0.0158229,10,-0.000451006,-2.76978,-0.241281,-0.244528,16.1694,0.265436,
2,0,0,1,0,44522.1,0.26428,0.26398,-1.72563,23,0.0157907,10,-0.000455532,-2.76305,-0.265263,-0.222421,14.96,0.26398,
2,0,0,1,0,44522.1,0.262784,0.262427,-1.75422,23,0.015758,10,-0.000460354,-2.75592,-0.279544,-0.211058,14.3929,0.262427,
2,0,0,1,0,44522.1,0.26128,0.260956,-1.77676,23,0.0157247,10,-0.000463655,-2.75037,-0.312472,-0.188817,13.074,0.260956,
2,0,0,1,0,44522.1,0.259791,0.259476,-1.80154,23,0.0156912,10,-0.000467456,-2.74436,-0.26387,-0.223595,15.7433,0.259476,
2,0,0,1,0,44522.2,0.258287,0.257972,-1.82727,23,0.015657,10,-0.000471385,-2.7382,-0.253583,-0.232666,16.5618,0.257972,
2,0,0,1,0,44522.2,0.256786,0.256466,-1.85021,23,0.0156223,10,-0.000474517,-2.73278,-0.277704,-0.212456,15.3002,0.256466,
2,0,0,1,0,44522.2,0.255296,0.254933,-1.8694,23,0.0155875,10,-0.000476572,-2.7283,-0.310549,-0.189986,13.8441,0.254933,
2,0,0,1,0,44522.2,0.253793,0.2535,-1.88691,23,0.015552,10,-0.000478331,-2.72425,-0.286206,-0.206145,15.1885,0.2535,
2,0,0,1,0,44522.2,0.252289,0.251958,-1.90709,23,0.0155161,10,-0.000480508,-2.71963,-0.249888,-0.236106,17.5823,0.251958,
2,0,0,1,0,44522.3,0.2508,0.250473,-1.92881,23,0.0154802,10,-0.000483114,-2.71471,-0.318824,-0.185055,13.921,0.250473,
2,0,0,1,0,44522.3,0.249296,0.248963,-1.94647,23,0.0154436,10,-0.000484599,-2.71075,-0.334491,-0.176387,13.43,0.248963,
2,0,0,1,0,44522.3,0.2478,0.247442,-1.95629,23,0.0154067,10,-0.000484067,-2.70857,-0.363495,-0.162313,12.4772,0.247442,
2,0,0,1,0,44522.3,0.246304,0.246038,-1.98538,23,0.0153696,10,-0.000488477,-2.70216,-0.354727,-0.166325,12.885,0.246038,
2,0,0,1,0,44522.3,0.2448,0.244459,-2.00337,23,0.0153318,10,-0.000489742,-2.69824,-0.416898,-0.141521,11.0816,0.2444593,
2,0,0,1,0,44522.3,0.243313,0.242991,-2.02358,23,0.0152941,10,-0.000491712,-2.69388,-0.456517,-0.12924,10.1934,0.2429906,
2,0,0,1,0,44522.4,0.241809,0.241486,-2.03913,23,0.0152557,10,-0.000492422,-2.69055,-0.465986,-0.126613,10.0875,0.241486,
2,0,0,1,0,44522.4,0.240306,0.239996,-2.05875,23,0.015217,10,-0.000494093,-2.6864,-0.456684,-0.129192,10.3911,0.239996,
2,0,0,1,0,44522.4,0.238816,0.23851,-2.07874,23,0.0151783,10,-0.000495799,-2.6822,-0.48332,-0.122072,9.89722,0.23851,
2,0,0,1,0,44522.4,0.237313,0.237004,-2.09944,23,0.0151389,10,-0.000497574,-2.6779,-0.526793,-0.111998,9.14795,0.237004,
2,0,0,1,0,44522.4,0.235809,0.235447,-2.11452,23,0.0150991,10,-0.000497859,-2.67479,-0.456966,-0.129112,10.6347,0.235447,
2,0,0,1,0,44522.5,0.23432,0.233982,-2.12488,23,0.0150596,10,-0.000497184,-2.67267,-0.401504,-0.146947,12.2013,0.2339824,
2,0,0,1,0,44522.5,0.232816,0.232483,-2.14422,23,0.0150193,10,-0.000498495,-2.66873,-0.401187,-0.147063,12.2828,0.232483,
2,0,0,1,0,44522.5,0.23132,0.230991,-2.16649,23,0.0149788,10,-0.000500438,-2.66424,-0.372775,-0.158272,13.3541,0.230991,
2,0,0,1,0,44522.5,0.229824,0.229528,-2.17531,23,0.014938,10,-0.000499294,-2.66248,-0.396112,-0.148948,12.6481,0.229528,
2,0,0,1,0,44522.5,0.22832,0.227998,-2.18879,23,0.0148968,10,-0.00049904,-2.6598,-0.439459,-0.134256,11.4957,0.227998,
2,0,0,1,0,44522.6,0.226833,0.226478,-2.2053,23,0.0148557,10,-0.000499452,-2.65653,-0.372882,-0.158227,13.6247,0.226478,
2,0,0,1,0,44522.6,0.225329,0.225039,-2.21941,23,0.0148138,10,-0.000499454,-2.65376,-0.471806,-0.125051,10.8497,0.225039,
2,0,0,1,0,44522.6,0.223825,0.223479,-2.2367,23,0.0147717,10,-0.000499856,-2.65039,-0.524149,-0.112563,9.84218,0.223479,
2,0,0,1,0,44522.6,0.222336,0.222035,-2.25074,23,0.0147297,10,-0.000499745,-2.64767,-0.593349,-0.0994356,8.74948,0.222035,
2,0,0,1,0,44522.6,0.220833,0.220543,-2.26807,23,0.014687,10,-0.000500207,-2.64434,-0.56419,-0.104575,9.25208,0.220543,
2,0,0,1,0,44522.6,0.219329,0.219002,-2.29016,23,0.0146439,10,-0.00050155,-2.64013,-0.575526,-0.102515,9.13997,0.219002,
2,0,0,1,0,44522.7,0.21784,0.217475,-2.30441,23,0.014601,10,-0.000501152,-2.63744,-0.646227,-0.0912992,8.2009,0.217475,
2,0,0,1,0,44522.7,0.216336,0.216059,-2.31614,23,0.0145574,10,-0.000500421,-2.63524,-0.742993,-0.0794085,7.18748,0.216059,
2,0,0,1,0,44522.7,0.21484,0.214487,-2.33388,23,0.0145138,10,-0.000500587,-2.63192,-0.636544,-0.092688,8.43982,0.214487,
2,0,0,1,0,44522.7,0.213343,0.213017,-2.35423,23,0.0144698,10,-0.00050149,-2.62815,-0.5075,-0.116256,10.6501,0.213017,
2,0,0,1,0,44522.7,0.21184,0.211503,-2.36974,23,0.0144254,10,-0.000501208,-2.6253,-0.538294,-0.109606,10.1017,0.211503,
2,0,0,1,0,44522.8,0.210352,0.210038,-2.37818,23,0.0143811,10,-0.000499508,-2.62376,-0.485183,-0.121604,11.2733,0.210038,
2,0,0,1,0,44522.8,0.208849,0.208536,-2.39389,23,0.0143362,10,-0.000499211,-2.6209,-0.38084,-0.154921,14.484,0.208536,
2,0,0,1,0,44522.8,0.207345,0.207002,-2.40653,23,0.0142909,10,-0.000498157,-2.61861,-0.342372,-0.172327,16.2079,0.207002,
2,0,0,1,0,44522.8,0.205856,0.205527,-2.42673,23,0.0142456,10,-0.000498758,-2.61498,-0.397065,-0.14859,14.0677,0.205527,
2,0,0,1,0,44522.8,0.204353,0.204024,-2.4397,23,0.0141996,10,-0.000497758,-2.61266,-0.57358,-0.102863,9.80247,0.204024,
2,0,0,1,0,44522.9,0.202849,0.202518,-2.45118,23,0.0141534,10,-0.00049641,-2.61062,-0.53421,-0.110443,10.5786,0.202518,
2,0,0,1,0,44522.9,0.20136,0.20104,-2.46384,23,0.0141074,10,-0.00049533,-2.60839,-0.502994,-0.117298,11.3207,0.20104,
2,0,0,1,0,44522.9,0.199856,0.199512,-2.47692,23,0.0140606,10,-0.000494175,-2.60609,-0.589606,-0.100067,9.71332,0.199512,
2,0,0,1,0,44522.9,0.19836,0.198054,-2.49905,23,0.0140137,10,-0.000494949,-2.60222,-0.922186,-0.0639784,6.24581,0.198054,
2,0,0,1,0,44522.9,0.196863,0.196517,-2.51492,23,0.0139666,10,-0.000494225,-2.59948,-0.666703,-0.0884952,8.69927,0.196517,
2,0,0,1,0,44522.9,0.19536,0.195054,-2.53723,23,0.0139189,10,-0.000494896,-2.59564,-0.505315,-0.116759,11.5535,0.195054,
2,0,0,1,0,44523,0.193872,0.193554,-2.55692,23,0.0138714,10,-0.000494903,-2.59228,-0.536726,-0.109926,10.9489,0.193554,
2,0,0,1,0,44523,0.192369,0.192034,-2.57384,23,0.013823,10,-0.000494266,-2.58942,-0.572378,-0.103079,10.3241,0.192034,
2,0,0,1,0,44523,0.190865,0.190507,-2.58634,23,0.0137743,10,-0.000492715,-2.58731,-0.489412,-0.120553,12.1538,0.190507,
2,0,0,1,0,44523,0.189376,0.189011,-2.60634,23,0.0137259,10,-0.000492625,-2.58397,-0.495757,-0.11901,12.1024,0.189011,
2,0,0,1,0,44523,0.187872,0.187523,-2.62631,23,0.0136766,10,-0.000492493,-2.58065,-0.437461,-0.134869,13.8111,0.1875225,
2,0,0,1,0,44523.1,0.186369,0.186075,-2.63904,23,0.0136269,10,-0.000491059,-2.57855,-0.48548,-0.121529,12.5144,0.1860746,
2,0,0,1,0,44523.1,0.18488,0.184549,-2.65891,23,0.0135774,10,-0.000490698,-2.5753,-0.433783,-0.136013,14.1217,0.184549,
2,0,0,1,0,44523.1,0.183376,0.183073,-2.67671,23,0.0135271,10,-0.000490033,-2.5724,-0.443023,-0.133176,13.9274,0.183073,
2,0,0,1,0,44523.1,0.18188,0.181526,-2.69908,23,0.0134766,10,-0.000489953,-2.56878,-0.381065,-0.154829,16.3102,0.181526,
2,0,0,1,0,44523.1,0.180383,0.180088,-2.71834,23,0.0134258,10,-0.00048954,-2.5657,-0.386794,-0.152536,16.1905,0.180088,
2,0,0,1,0,44523.2,0.17888,0.178557,-2.74033,23,0.0133742,10,-0.000489306,-2.5622,-0.444704,-0.132672,14.1897,0.1785569,
2,0,0,1,0,44523.2,0.177392,0.177054,-2.75587,23,0.0133228,10,-0.000487939,-2.55974,-0.452691,-0.130332,14.067,0.177054,
2,0,0,1,0,44523.2,0.175889,0.175592,-2.78043,23,0.0132705,10,-0.000488222,-2.55589,-0.359449,-0.16414,17.8413,0.175592,
2,0,0,1,0,44523.2,0.174385,0.174043,-2.80705,23,0.0132177,10,-0.000488548,-2.55175,-0.469886,-0.125562,13.7699,0.1740431,
2,0,0,1,0,44523.2,0.172896,0.172569,-2.83528,23,0.013165,10,-0.000489282,-2.5474,-0.452948,-0.130258,14.406,0.1725693,
2,0,0,1,0,44523.2,0.171392,0.17104,-2.85366,23,0.0131113,10,-0.000488091,-2.5446,-0.441678,-0.133582,14.9152,0.17104,
2,0,0,1,0,44523.3,0.169889,0.169583,-2.88514,23,0.0130571,10,-0.000489271,-2.53983,-0.380343,-0.155123,17.5095,0.169583,
2,0,0,1,0,44523.3,0.1684,0.168029,-2.92303,23,0.013003,10,-0.000491152,-2.53417,-0.344807,-0.17111,19.4756,0.168029,
2,0,0,1,0,44523.3,0.166896,0.16656,-2.95435,23,0.0129476,10,-0.000492076,-2.52954,-0.325835,-0.181073,20.8017,0.16656,
2,0,0,1,0,44523.3,0.165392,0.165022,-2.97764,23,0.0128917,10,-0.000491377,-2.52613,-0.334425,-0.176422,20.5031,0.1650223,
2,0,0,1,0,44523.3,0.163905,0.16358,-3.0103,23,0.0128359,10,-0.000492424,-2.52139,-0.291095,-0.202683,23.8614,0.16358,
2,0,0,1,0,44523.4,0.162401,0.162093,-3.04797,23,0.0127787,10,-0.000494054,-2.51599,-0.243491,-0.242308,28.8399,0.162093,
2,0,0,1,0,44523.4,0.160905,0.160604,-3.08475,23,0.0127211,10,-0.000495424,-2.51078,-0.263891,-0.223577,26.9382,0.160604,
2,0,0,1,0,44523.4,0.159409,0.1591,-3.12896,23,0.0126628,10,-0.000497818,-2.5046,-0.249099,-0.236854,28.9381,0.1591,
2,0,0,1,0,44523.4,0.157905,0.157593,-3.165,23,0.0126034,10,-0.000498783,-2.49963,-0.229856,-0.256682,31.7925,0.157593,
2,0,0,1,0,44523.4,0.156416,0.156023,-3.21778,23,0.0125438,10,-0.000502049,-2.49244,-0.204179,-0.288962,36.3361,0.156023,
2,0,0,1,0,44523.5,0.154912,0.154573,-3.27447,23,0.0124825,10,-0.000506144,-2.48486,-0.213167,-0.276778,35.3939,0.154573,
2,0,0,1,0,44523.5,0.153409,0.153056,-3.33025,23,0.0124202,10,-0.000509716,-2.47752,-0.196483,-0.30028,39.1226,0.153056,
2,0,0,1,0,44523.5,0.151919,0.151611,-3.38806,23,0.0123575,10,-0.000513667,-2.47005,-0.19814,-0.297769,39.518,0.151611,
2,0,0,1,0,44523.5,0.150416,0.150062,-3.46128,23,0.0122928,10,-0.000519407,-2.46076,-0.170896,-0.345238,46.7137,0.150062,
2,0,0,1,0,44523.5,0.148912,0.148597,-3.53808,23,0.0122268,10,-0.000525749,-2.45123,-0.162122,-0.363924,50.2808,0.148597,
2,0,0,1,0,44523.5,0.147425,0.147113,-3.61891,23,0.0121601,10,-0.000532389,-2.44142,-0.151972,-0.38823,54.948,0.147113,
2,0,0,1,0,44523.6,0.145921,0.145533,-3.70761,23,0.0120911,10,-0.00053958,-2.43091,-0.131841,-0.447508,64.9189,0.145533,
2,0,0,1,0,44523.6,0.144425,0.144117,-3.8101,23,0.0120206,10,-0.000549101,-2.41906,-0.124924,-0.472288,70.4075,0.1441173,
2,0,0,1,0,44523.6,0.142929,0.142631,-3.9255,23,0.0119481,10,-0.000559895,-2.40611,-0.115603,-0.510367,78.2439,0.142631,
2,0,0,1,0,44523.6,0.141425,0.141094,-4.05293,23,0.0118729,10,-0.000571842,-2.39223,-0.109085,-0.540862,85.505,0.141094,
2,0,0,1,0,44523.6,0.139936,0.139625,-4.17969,23,0.0117962,10,-0.000583588,-2.37886,-0.1052,-0.560835,91.5669,0.1396246,
2,0,0,1,0,44523.7,0.138432,0.13813,-4.31805,23,0.0117162,10,-0.00059645,-2.36471,-0.100736,-0.585687,98.9088,0.13813,
2,0,0,1,0,44523.7,0.136929,0.136605,-4.46814,23,0.0116334,10,-0.000610372,-2.34987,-0.0986126,-0.598301,104.505,0.136605,
2,0,0,1,0,44523.7,0.135439,0.135093,-4.62325,23,0.0115486,10,-0.000624571,-2.33505,-0.0981299,-0.601244,108.605,0.135093,
2,0,0,1,0,44523.7,0.133936,0.133626,-4.79497,23,0.0114598,10,-0.000640735,-2.31921,-0.0986051,-0.598346,111.9,0.133626,
2,0,0,1,0,44523.7,0.132432,0.132119,-4.95665,23,0.0113679,10,-0.000654867,-2.30481,-0.100028,-0.589836,114.245,0.132119,
2,0,0,1,0,44523.8,0.130945,0.130578,-5.13066,23,0.0112737,10,-0.00066995,-2.28983,-0.100166,-0.58902,118.013,0.130578,
2,0,0,1,0,44523.8,0.129441,0.129108,-5.30967,23,0.0111753,10,-0.000685519,-2.27493,-0.105068,-0.561542,116.399,0.129108,
2,0,0,1,0,44523.8,0.127945,0.127605,-5.49267,23,0.011074,10,-0.000700895,-2.26022,-0.112568,-0.524128,112.189,0.127605,
2,0,0,1,0,44523.8,0.126448,0.126115,-5.66117,23,0.0109695,10,-0.00071396,-2.24709,-0.115416,-0.511192,112.899,0.126115,
2,0,0,1,0,44523.8,0.124945,0.124589,-5.83466,23,0.0108612,10,-0.000726932,-2.23398,-0.120323,-0.490347,111.562,0.124589,
2,0,0,1,0,44523.8,0.123456,0.123165,-6.00579,23,0.0107509,10,-0.000739702,-2.22143,-0.125154,-0.471419,110.285,0.123165,
2,0,0,1,0,44523.9,0.121952,0.121664,-6.17214,23,0.0106363,10,-0.000750929,-2.20956,-0.136203,-0.433177,104.025,0.121664,
2,0,0,1,0,44523.9,0.120449,0.120113,-6.31997,23,0.0105187,10,-0.000759108,-2.19928,-0.142284,-0.414663,102.144,0.120113,
2,0,0,1,0,44523.9,0.118959,0.118689,-6.47037,23,0.0103996,10,-0.00076796,-2.18907,-0.147383,-0.400318,101.046,0.118689,
2,0,0,1,0,44523.9,0.117456,0.117081,-6.62134,23,0.0102764,10,-0.000775234,-2.17905,-0.156739,-0.376421,97.0747,0.117081,
2,0,0,1,0,44523.9,0.115952,0.115618,-6.76388,23,0.0101504,10,-0.000782025,-2.1698,-0.167025,-0.35324,93.0068,0.115618,
2,0,0,1,0,44524,0.114465,0.114138,-6.88685,23,0.0100232,10,-0.000786053,-2.16198,-0.186692,-0.316028,84.8637,0.114138,
2,0,0,1,0,44524,0.112961,0.112631,-7.00652,23,0.00989233,10,-0.00078915,-2.1545,-0.20327,-0.290255,79.3487,0.1126307,
2,0,0,1,0,44524,0.111465,0.111162,-7.12223,23,0.00975991,10,-0.000791722,-2.14738,-0.213662,-0.276137,76.7064,0.111162,
2,0,0,1,0,44524,0.109968,0.109631,-7.23463,23,0.0096254,10,-0.000793142,-2.14058,-0.237632,-0.248283,69.9947,0.109631,
2,0,0,1,0,44524,0.108465,0.108126,-7.33235,23,0.0094882,10,-0.000792821,-2.13476,-0.288764,-0.204319,58.3903,0.108126,
2,0,0,1,0,44524,0.106976,0.106642,-7.41568,23,0.00935079,10,-0.000790821,-2.12985,-0.324633,-0.181744,52.5666,0.106642,
2,0,0,1,0,44524.1,0.105472,0.105172,-7.49444,23,0.00921037,10,-0.000788208,-2.12526,-0.342626,-0.172199,50.3262,0.105172,
2,0,0,1,0,44524.1,0.103968,0.103633,-7.56836,23,0.00906854,10,-0.000784335,-2.121,-0.438364,-0.134591,39.702,0.103633,
2,0,0,1,0,44524.1,0.102479,0.102161,-7.63283,23,0.00892697,10,-0.000779775,-2.11731,-0.529775,-0.111368,33.1034,0.102161,
2,0,0,1,0,44524.1,0.100976,0.100646,-7.67328,23,0.00878295,10,-0.000772285,-2.11502,-0.697071,-0.0846399,25.3155,0.100646,
2,0,0,1,0,44524.1,0.0994721,0.0991196,-7.71271,23,0.00863815,10,-0.00076448,-2.11279,-0.837986,-0.0704069,21.1649,0.0991196,
2,0,0,1,0,44524.2,0.0979846,0.0976662,-7.74277,23,0.00849433,10,-0.000756207,-2.1111,-1.21725,-0.04847,14.6117,0.0976662,
2,0,0,1,0,44524.2,0.0964811,0.0961505,-7.75251,23,0.00834854,10,-0.000745408,-2.11056,-3.38237,-0.0174434,5.26634,0.0961505,
2,0,0,1,0,44524.2,0.0949847,0.0946871,-7.7537,23,0.00820338,10,-0.000734175,-2.11049,167.752,0.000351709,-0.106271,0.09468706,
2,0,0,1,0,44524.2,0.0934883,0.0931831,-7.74345,23,0.00805834,10,-0.000721558,-2.11107,4.7449,0.0124344,-3.75527,0.0931831,
2,0,0,1,0,44524.2,0.0919847,0.0916346,-7.72741,23,0.00791271,10,-0.000708098,-2.11197,1.72739,0.0341556,-10.2948,0.0916346,
2,0,0,1,0,44524.3,0.0904955,0.0901823,-7.70358,23,0.00776891,10,-0.000694726,-2.11331,1.0567,0.0558342,-16.7695,0.0901823,
2,0,0,1,0,44524.3,0.0889919,0.0886615,-7.67415,23,0.0076241,10,-0.000680402,-2.11497,0.732261,0.0805724,-24.1103,0.0886615,
2,0,0,1,0,44524.3,0.0874884,0.0871365,-7.63333,23,0.00748005,10,-0.000665142,-2.11729,0.669773,0.0880895,-26.2326,0.0871365,
2,0,0,1,0,44524.3,0.0860009,0.0856545,-7.58935,23,0.00733829,10,-0.000650062,-2.1198,0.607081,0.0971864,-28.7701,0.0856545,
2,0,0,1,0,44524.3,0.0844974,0.0841241,-7.54515,23,0.00719579,10,-0.000634729,-2.12233,0.538509,0.109562,-32.2416,0.0841241,
2,0,0,1,0,44524.3,0.0829938,0.0826677,-7.49186,23,0.00705417,10,-0.000619335,-2.12541,0.500646,0.117848,-34.4719,0.0826677,
2,0,0,1,0,44524.4,0.0815045,0.081183,-7.44403,23,0.00691504,10,-0.000604329,-2.12819,0.48178,0.122463,-35.6114,0.081183,
2,0,0,1,0,44524.4,0.080001,0.0796536,-7.39591,23,0.00677532,10,-0.000589111,-2.13101,0.529253,0.111478,-32.2043,0.0796536,
2,0,0,1,0,44524.4,0.0785046,0.0781597,-7.35486,23,0.00663718,10,-0.000574854,-2.13343,0.547023,0.107856,-30.9578,0.0781597,
2,0,0,1,0,44524.4,0.0770082,0.0766549,-7.31363,23,0.00649991,10,-0.000560625,-2.13587,0.531007,0.11111,-31.6894,0.0766549,
2,0,0,1,0,44524.4,0.0755046,0.0751616,-7.26071,23,0.00636275,10,-0.000545727,-2.13902,0.561567,0.105063,-29.794,0.0751616,
2,0,0,1,0,44524.5,0.0740154,0.0736987,-7.22517,23,0.0062279,10,-0.000532485,-2.14115,0.648189,0.0910228,-25.6633,0.0736987,
2,0,0,1,0,44524.5,0.0725118,0.0721922,-7.18749,23,0.0060923,10,-0.000518881,-2.14342,0.732571,0.0805383,-22.5784,0.07219217,
2,0,0,1,0,44524.5,0.0710083,0.07064,-7.15333,23,0.00595739,10,-0.000505311,-2.14549,0.737937,0.0799526,-22.2919,0.07064,
2,0,0,1,0,44524.5,0.0695208,0.0691825,-7.11346,23,0.00582456,10,-0.000492127,-2.14792,0.836819,0.0705051,-19.5769,0.0691825,
2,0,0,1,0,44524.5,0.0680173,0.0676944,-7.0724,23,0.00569105,10,-0.000478762,-2.15043,0.796353,0.0740877,-20.4811,0.0676944,
2,0,0,1,0,44524.6,0.0665137,0.0661722,-7.04279,23,0.00555807,10,-0.000466037,-2.15226,0.99882,0.0590697,-16.2436,0.06617216,
2,0,0,1,0,44524.6,0.0650244,0.0647092,-7.01835,23,0.00542702,10,-0.000454152,-2.15376,0.842865,0.0699993,-19.167,0.0647092,
2,0,0,1,0,44524.6,0.0635209,0.0632027,-6.98714,23,0.00529511,10,-0.000441606,-2.1557,0.777542,0.0758801,-20.6891,0.0632027,
2,0,0,1,0,44524.6,0.0620245,0.0617111,-6.95253,23,0.00516453,10,-0.000429048,-2.15786,0.726111,0.0812548,-22.0753,0.0617111,
2,0,0,1,0,44524.6,0.0605281,0.0602101,-6.92436,23,0.00503455,10,-0.000416917,-2.15962,0.806034,0.0731979,-19.7865,0.0602101,
2,0,0,1,0,44524.6,0.0590246,0.0586893,-6.89413,23,0.00490441,10,-0.000404611,-2.16152,0.78044,0.0755984,-20.3444,0.0586893,
2,0,0,1,0,44524.7,0.0575353,0.0572205,-6.8694,23,0.00477621,10,-0.000393071,-2.16308,0.70283,0.0839464,-22.4919,0.0572205,
2,0,0,1,0,44524.7,0.0560317,0.0557106,-6.83665,23,0.00464725,10,-0.000380874,-2.16516,0.706253,0.0835394,-22.287,0.0557106,
2,0,0,1,0,44524.7,0.0545282,0.0542088,-6.80357,23,0.00451888,10,-0.000368814,-2.16726,0.789481,0.0747327,-19.8349,0.0542088,
2,0,0,1,0,44524.7,0.0530407,0.0526679,-6.78178,23,0.00439243,10,-0.000357182,-2.16866,0.772272,0.0763979,-20.1902,0.0526679,
2,0,0,1,0,44524.7,0.0515372,0.0511883,-6.7421,23,0.00426517,10,-0.000345116,-2.1712,0.694916,0.0849023,-22.3259,0.0511883,
2,0,0,1,0,44524.8,0.0500336,0.0496926,-6.70583,23,0.00413855,10,-0.000333231,-2.17355,0.742847,0.0794241,-20.7922,0.0496926,
2,0,0,1,0,44524.8,0.0485444,0.0481974,-6.67505,23,0.00401398,10,-0.00032172,-2.17555,0.692442,0.0852057,-22.1903,0.0481974,
2,0,0,1,0,44524.8,0.0470408,0.046713,-6.64001,23,0.00388866,10,-0.000310174,-2.17783,0.755907,0.078052,-20.2129,0.046713,
2,0,0,1,0,44524.8,0.0455444,0.0451877,-6.60465,23,0.00376464,10,-0.000298449,-2.18015,0.623606,0.0946111,-24.3711,0.0451877,
2,0,0,1,0,44524.8,0.044048,0.0437105,-6.56533,23,0.00364128,10,-0.000286974,-2.18274,0.629234,0.0937648,-24.0228,0.0437105,
2,0,0,1,0,44524.9,0.0425445,0.0422019,-6.52383,23,0.00351804,10,-0.000275318,-2.1855,0.659018,0.0895272,-22.8214,0.0422019,
2,0,0,1,0,44524.9,0.0410552,0.0407267,-6.48864,23,0.00339677,10,-0.000264261,-2.18785,0.672751,0.0876996,-22.2129,0.0407267,
2,0,0,1,0,44524.9,0.0395516,0.0391922,-6.45299,23,0.00327485,10,-0.000252907,-2.19024,0.54485,0.108287,-27.2666,0.0391922,
2,0,0,1,0,44524.9,0.0380481,0.0376966,-6.41421,23,0.00315365,10,-0.000241794,-2.19286,0.516607,0.114207,-28.5912,0.0376966,
2,0,0,1,0,44524.9,0.0365606,0.0362378,-6.36814,23,0.00303457,10,-0.000230767,-2.19599,0.48229,0.122333,-30.4118,0.0362378,
2,0,0,1,0,44524.9,0.0350571,0.0346856,-6.32439,23,0.00291498,10,-0.000219365,-2.19898,0.488652,0.12074,-29.8266,0.0346856,
2,0,0,1,0,44525,0.0335535,0.0332046,-6.28469,23,0.00279619,10,-0.000208681,-2.20172,0.47945,0.123058,-30.1907,0.0332046,
2,0,0,1,0,44525,0.0320643,0.031724,-6.24148,23,0.00267947,10,-0.000198005,-2.20471,0.449416,0.131281,-31.9683,0.031724,
2,0,0,1,0,44525,0.0305607,0.0302566,-6.19387,23,0.00256241,10,-0.000187406,-2.20804,0.415152,0.142116,-34.3672,0.0302566,
2,0,0,1,0,44525,0.0290643,0.0287351,-6.14887,23,0.00244684,10,-0.000176688,-2.2112,0.4679,0.126095,-30.2514,0.0287351,
2,0,0,1,0,44525,0.0275679,0.0272177,-6.10645,23,0.00233212,10,-0.000166203,-2.21421,0.446586,0.132113,-31.4609,0.0272177,
2,0,0,1,0,44525.1,0.0260644,0.0256972,-6.06216,23,0.00221765,10,-0.00015578,-2.21737,0.422181,0.13975,-33.012,0.0256972,
2,0,0,1,0,44525.1,0.0245751,0.0242472,-6.00425,23,0.00210531,10,-0.000145586,-2.22154,0.452949,0.130258,-30.517,0.02424721,
2,0,0,1,0,44525.1,0.0230716,0.0227223,-5.95632,23,0.00199274,10,-0.000135341,-2.22502,0.468646,0.125895,-29.2661,0.0227223,
2,0,0,1,0,44525.1,0.021568,0.0212587,-5.90556,23,0.00188105,10,-0.000125545,-2.22874,0.48809,0.120879,-27.8526,0.0212587,
2,0,0,1,0,44525.1,0.0200805,0.0197164,-5.85808,23,0.00177141,10,-0.0001155,-2.23224,0.416417,0.141685,-32.3985,0.01971636,
2,0,0,1,0,44525.2,0.018577,0.0182098,-5.80794,23,0.00166149,10,-0.000105762,-2.23598,0.445647,0.132392,-30.0477,0.0182098,
2,0,0,1,0,44525.2,0.0170735,0.0167139,-5.75897,23,0.00155251,10,-9.62546e-05,-2.23966,0.471275,0.125192,-28.1944,0.0167139,
2,0,0,1,0,44525.2,0.0155842,0.015221,-5.7194,23,0.00144549,10,-8.70547e-05,-2.24265,0.452393,0.130418,-29.1178,0.015221,
2,0,0,1,0,44525.2,0.0140806,0.0137601,-5.67785,23,0.00133807,10,-7.81277e-05,-2.24582,0.43886,0.134439,-29.8018,0.0137601,
2,0,0,1,0,44525.2,0.0125842,0.0122068,-5.63657,23,0.00123201,10,-6.88045e-05,-2.24899,0.428457,0.137703,-30.2904,0.0122068,
2,0,0,1,0,44525.2,0.0110878,0.010748,-5.59662,23,0.00112679,10,-6.01527e-05,-2.25207,0.437065,0.134991,-29.4973,0.010748,
2,0,0,1,0,44525.3,0.00958429,0.0092105,-5.55827,23,0.00102176,10,-5.11945e-05,-2.25506,0.514683,0.114634,-24.8753,0.0092105,
2,0,0,1,0,44525.3,0.0080968,0.00775679,-5.52431,23,0.000918491,10,-4.28509e-05,-2.25772,0.53346,0.110599,-23.8551,0.007756792,
2,0,0,1,0,44525.3,0.00659326,0.00624685,-5.49548,23,0.000814794,10,-3.43294e-05,-2.25999,0.539002,0.109462,-23.4651,0.00624685,
2,0,0,1,0,44525.3,0.00508972,0.00475429,-5.45757,23,0.000711684,10,-2.59468e-05,-2.263,0.613629,0.0961493,-20.4827,0.00475429,
2,0,0,1,0,44525.3,0.00360044,0.00324537,-5.43227,23,0.000610273,10,-1.76297e-05,-2.26502,1.15986,0.0508684,-10.8113,0.00324537,
2,0,0,1,0,44525.4,0.0020969,0.00165942,-5.45235,23,0.000508133,10,-9.04772e-06,-2.26342,1.71229,0.0344567,-7.28544,0.00165942,
2,0,0,1,0,44525.4,0.000593362,0.000247978,-5.40204,23,0.000406034,10,-1.33958e-06,-2.26744, , , ,0.0002479777,
2,0,0,1,0,44525.4,0.000199195,-0.000132542,-5.40358,23,0.000379523,10,7.162e-07,-2.26732, , , ,-0.000132542,