File: Figure_codes/Fig_3-5/rawdata_trumpetplot_data/after 10th/20221101_1-115_003_TrumpetPlot_ParaChange_from10_every3_12_CV_C01_6.csv
mode,ox/red,error,control changes,counter inc.,time/s,control/V,Ewe/V,<I>/mA,cycle number,(Q-Qo)/C,I Range,P/W,log(|I|),Tafel slope mV/dec,alpha_eff,dI/d(E-IR),E-IR/V,
2,1,0,1,0,13017.3,2.44065e-05,-0.000363498,17.9092,7,0.0000000E+000,10,-6.50997e-06,-1.74692, , , ,-0.000363498,
2,1,0,1,0,13017.3,0.00200257,0.00163855,18.8793,7,5.74064e-05,10,3.09346e-05,-1.72401, , , ,0.00163855,
2,1,0,1,0,13017.3,0.004408,0.0040637,19.7848,7,0.000134899,10,8.03996e-05,-1.70367, , , ,0.0040637,
2,1,0,1,0,13017.3,0.0068051,0.00644113,20.5036,7,0.000215573,10,0.000132066,-1.68817,0.157892,0.373672,295.569,0.00644113,
2,1,0,1,0,13017.3,0.00920221,0.008879,21.1458,7,0.000298963,10,0.000187754,-1.67478,0.187579,0.314534,257.766,0.008879004,
2,1,0,1,0,13017.3,0.0115993,0.0112586,21.7226,7,0.000384781,10,0.000244566,-1.66309,0.211332,0.279181,235.516,0.0112586,
2,1,0,1,0,13017.3,0.0140075,0.013672,22.2615,7,0.000472807,10,0.000304361,-1.65244,0.234834,0.251242,217.362,0.013672,
2,1,0,1,0,13017.3,0.0164046,0.0160537,22.7675,7,0.00056293,10,0.000365503,-1.64268,0.257747,0.228906,202.607,0.0160537,
2,1,0,1,0,13017.3,0.0188017,0.0184343,23.2228,7,0.000654972,10,0.000428096,-1.63409,0.283475,0.208131,188.052,0.0184343,
2,1,0,1,0,13017.3,0.0212099,0.0208404,23.664,7,0.000748787,10,0.000493167,-1.62591,0.311521,0.189393,174.388,0.0208404,
2,1,0,1,0,13017.3,0.023607,0.0232602,24.0646,7,0.000844289,10,0.000559749,-1.61862,0.332913,0.177224,166.09,0.0232602,
2,1,0,1,0,13017.3,0.0260041,0.0256366,24.4386,7,0.000941347,10,0.000626524,-1.61192,0.357075,0.165231,157.446,0.02563661,
2,1,0,1,0,13017.4,0.0284012,0.0280649,24.8223,7,0.00103992,10,0.000696637,-1.60516,0.376384,0.156755,151.617,0.0280649,
2,1,0,1,0,13017.4,0.0308067,0.0304943,25.184,7,0.00113999,10,0.000767968,-1.59888,0.393628,0.149888,147.055,0.0304943,
2,1,0,1,0,13017.4,0.0332038,0.0328378,25.5168,7,0.00124144,10,0.000837915,-1.59317,0.415603,0.141963,141.245,0.03283783,
2,1,0,1,0,13017.4,0.0356009,0.0352524,25.8527,7,0.00134422,10,0.000911368,-1.58749,0.427565,0.137991,139.176,0.03525237,
2,1,0,1,0,13017.4,0.0380091,0.0376584,26.1773,7,0.00144832,10,0.000985798,-1.58207,0.440469,0.133948,136.81,0.0376584,
2,1,0,1,0,13017.4,0.0404062,0.040055,26.5146,7,0.00155374,10,0.00106204,-1.57652,0.453023,0.130236,134.666,0.040055,
2,1,0,1,0,13017.4,0.0428033,0.0424812,26.8361,7,0.00166047,10,0.00114003,-1.57128,0.462742,0.127501,133.439,0.0424812,
2,1,0,1,0,13017.4,0.0452032,0.0448703,27.1479,7,0.00176847,10,0.00121813,-1.56626,0.472784,0.124793,132.199,0.0448703,
2,1,0,1,0,13017.4,0.0476058,0.0473187,27.4664,7,0.00187775,10,0.00129968,-1.5612,0.477398,0.123587,132.474,0.0473187,
2,1,0,1,0,13017.4,0.0500029,0.0496548,27.7837,7,0.00198829,10,0.00137959,-1.55621,0.469799,0.125586,136.241,0.0496548,
2,1,0,1,0,13017.4,0.0524,0.0520672,28.106,7,0.00210009,10,0.0014634,-1.5512,0.474868,0.124245,136.311,0.0520672,
2,1,0,1,0,13017.4,0.0548082,0.0544807,28.4572,7,0.00221324,10,0.00155037,-1.54581,0.477073,0.123671,137.241,0.0544807,
2,1,0,1,0,13017.4,0.0572053,0.0568603,28.767,7,0.00232774,10,0.0016357,-1.54111,0.476913,0.123712,138.895,0.0568603,
2,1,0,1,0,13017.4,0.0596024,0.0592207,29.0965,7,0.00244351,10,0.00172312,-1.53616,0.48683,0.121192,137.704,0.0592207,
2,1,0,1,0,13017.4,0.0620051,0.0616735,29.4402,7,0.00256061,10,0.00181568,-1.53106,0.475191,0.124161,142.688,0.0616735,
2,1,0,1,0,13017.4,0.0644077,0.0640997,29.7818,7,0.0026791,10,0.001909,-1.52605,0.473731,0.124543,144.781,0.0640997,
2,1,0,1,0,13017.4,0.0668048,0.0664654,30.1376,7,0.00279897,10,0.00200311,-1.52089,0.473894,0.1245,146.424,0.0664654,
2,1,0,1,0,13017.4,0.0692019,0.0688354,30.4885,7,0.00292027,10,0.00209869,-1.51586,0.472939,0.124752,148.422,0.0688354,
2,1,0,1,0,13017.4,0.0716074,0.0712426,30.8414,7,0.00304296,10,0.00219722,-1.51087,0.479409,0.123068,148.127,0.0712426,
2,1,0,1,0,13017.4,0.0740045,0.0736518,31.1996,7,0.00316708,10,0.0022979,-1.50585,0.47645,0.123833,150.815,0.0736518,
2,1,0,1,0,13017.4,0.0764016,0.0760335,31.5549,7,0.00329262,10,0.00239923,-1.50093,0.475581,0.124059,152.844,0.0760335,
2,1,0,1,0,13017.4,0.0788042,0.0784321,31.9359,7,0.00341963,10,0.0025048,-1.49572,0.478526,0.123295,153.643,0.0784321,
2,1,0,1,0,13017.4,0.0812069,0.0808339,32.3073,7,0.00354816,10,0.00261153,-1.4907,0.472489,0.124871,157.43,0.0808339,
2,1,0,1,0,13017.4,0.083604,0.0832379,32.6724,7,0.00367814,10,0.00271958,-1.48582,0.47373,0.124544,158.909,0.0832379,
2,1,0,1,0,13017.4,0.0860011,0.0856323,33.066,7,0.00380965,10,0.00283152,-1.48062,0.477445,0.123575,159.475,0.0856323,
2,1,0,1,0,13017.5,0.0884065,0.0880437,33.4632,7,0.00394278,10,0.00294622,-1.47543,0.472996,0.124737,162.829,0.0880437,
2,1,0,1,0,13017.5,0.0908036,0.0904402,33.8393,7,0.00407743,10,0.00306043,-1.47058,0.483861,0.121936,161,0.0904402,
2,1,0,1,0,13017.5,0.0932007,0.092842,34.2362,7,0.00421363,10,0.00317856,-1.46551,0.495158,0.119154,159.137,0.09284199,
2,1,0,1,0,13017.5,0.0956034,0.0952226,34.61,7,0.00435136,10,0.00329566,-1.4608,0.499494,0.11812,159.494,0.0952226,
2,1,0,1,0,13017.5,0.098006,0.0976456,34.9913,7,0.00449061,10,0.00341674,-1.45604,0.510743,0.115518,157.728,0.0976456,
2,1,0,1,0,13017.5,0.100403,0.100033,35.3692,7,0.00463139,10,0.00353808,-1.45137,0.500431,0.117898,162.824,0.100033,
2,1,0,1,0,13017.5,0.1028,0.102421,35.747,7,0.00477365,10,0.00366124,-1.44676,0.499087,0.118216,165.066,0.102421,
2,1,0,1,0,13017.5,0.105208,0.10484,36.176,7,0.00491756,10,0.00379271,-1.44158,0.495736,0.119015,168.005,0.10484,
2,1,0,1,0,13017.5,0.107606,0.107251,36.5767,7,0.0050631,10,0.00392289,-1.43679,0.489534,0.120523,172.008,0.1072508,
2,1,0,1,0,13017.5,0.110003,0.109644,36.984,7,0.00521025,10,0.00405508,-1.43199,0.509271,0.115852,167.17,0.109644,
2,1,0,1,0,13017.5,0.112408,0.112052,37.4038,7,0.00535906,10,0.00419118,-1.42708,0.515994,0.114342,166.783,0.112052,
2,1,0,1,0,13017.5,0.114805,0.114451,37.7826,7,0.00550948,10,0.00432426,-1.42271,0.517092,0.1141,168.255,0.114451,
2,1,0,1,0,13017.5,0.117202,0.116893,38.1849,7,0.00566148,10,0.00446355,-1.41811,0.523264,0.112754,168.114,0.116893,
2,1,0,1,0,13017.5,0.119599,0.119233,38.5975,7,0.0058151,10,0.00460211,-1.41344,0.512319,0.115163,173.534,0.119233,
2,1,0,1,0,13017.5,0.122008,0.121642,39.0159,7,0.00597038,10,0.00474595,-1.40876,0.505402,0.116739,177.822,0.121642,
2,1,0,1,0,13017.5,0.124405,0.124067,39.4513,7,0.00612734,10,0.00489459,-1.40394,0.50264,0.11738,180.778,0.124067,
2,1,0,1,0,13017.5,0.126802,0.126475,39.8888,7,0.00628607,10,0.00504493,-1.39915,0.496431,0.118848,185.062,0.1264749,
2,1,0,1,0,13017.5,0.129207,0.128878,40.341,7,0.00644656,10,0.00519905,-1.39425,0.491722,0.119987,188.954,0.128878,
2,1,0,1,0,13017.5,0.131604,0.131255,40.795,7,0.00660889,10,0.00535455,-1.38939,0.476033,0.123941,197.477,0.131255,
2,1,0,1,0,13017.5,0.134001,0.133668,41.2654,7,0.00677308,10,0.00551585,-1.38441,0.468517,0.125929,203.014,0.133668,
2,1,0,1,0,13017.5,0.136399,0.136042,41.778,7,0.00693923,10,0.00568356,-1.37905,0.46011,0.12823,209.13,0.136042,
2,1,0,1,0,13017.5,0.138807,0.138481,42.2905,7,0.00710743,10,0.00585642,-1.37376,0.453697,0.130043,214.618,0.138481,
2,1,0,1,0,13017.5,0.141204,0.140838,42.799,7,0.00727767,10,0.00602774,-1.36857,0.453211,0.130182,217.511,0.1408381,
2,1,0,1,0,13017.5,0.143601,0.143274,43.3271,7,0.00744995,10,0.00620764,-1.36324,0.45254,0.130375,220.514,0.143274,
2,1,0,1,0,13017.5,0.146009,0.145627,43.8629,7,0.0076244,10,0.00638762,-1.3579,0.450076,0.131089,224.415,0.1456269,
2,1,0,1,0,13017.6,0.148406,0.148068,44.4046,7,0.00780098,10,0.0065749,-1.35257,0.457357,0.129002,223.507,0.148068,
2,1,0,1,0,13017.6,0.150803,0.150419,44.9491,7,0.00797974,10,0.00676119,-1.34728,0.463558,0.127277,223.165,0.150419,
2,1,0,1,0,13017.6,0.153206,0.152904,45.4796,7,0.00816066,10,0.00695403,-1.34218,0.471741,0.125069,221.888,0.152904,
2,1,0,1,0,13017.6,0.155606,0.155247,46.0097,7,0.0083437,10,0.00714287,-1.33715,0.484319,0.12182,218.656,0.155247,
2,1,0,1,0,13017.6,0.158003,0.157648,46.5302,7,0.00852886,10,0.00733538,-1.33226,0.493251,0.119615,217.132,0.157648,
2,1,0,1,0,13017.6,0.1604,0.160027,47.05,7,0.00871608,10,0.00752929,-1.32744,0.513814,0.114828,210.701,0.160027,
2,1,0,1,0,13017.6,0.162808,0.162497,47.5624,7,0.00890536,10,0.00772875,-1.32274,0.537565,0.109754,203.472,0.162497,
2,1,0,1,0,13017.6,0.165205,0.164879,48.0391,7,0.00909661,10,0.00792062,-1.3184,0.564704,0.10448,195.671,0.164879,
2,1,0,1,0,13017.6,0.167602,0.167274,48.4889,7,0.0092897,10,0.00811094,-1.31436,0.597223,0.0987906,186.809,0.167274,
2,1,0,1,0,13017.6,0.170008,0.169677,48.9382,7,0.0094846,10,0.00830368,-1.31035,0.635561,0.0928314,177.11,0.169677,
2,1,0,1,0,13017.6,0.172405,0.172087,49.354,7,0.00968127,10,0.00849319,-1.30668,0.67912,0.0868771,167.111,0.172087,
2,1,0,1,0,13017.6,0.174802,0.174498,49.7427,7,0.00987951,10,0.00867999,-1.30327,0.750024,0.0786641,152.476,0.174498,
2,1,0,1,0,13017.6,0.177199,0.176883,50.0948,7,0.0100792,10,0.00886093,-1.30021,0.840266,0.0702159,137.035,0.176883,
2,1,0,1,0,13017.6,0.179607,0.179274,50.4015,7,0.0102803,10,0.00903565,-1.29756,0.986439,0.0598111,117.419,0.179274,
2,1,0,1,0,13017.6,0.182005,0.181663,50.6662,7,0.0104824,10,0.00920415,-1.29528,1.21636,0.0485054,95.695,0.181663,
2,1,0,1,0,13017.6,0.184402,0.184076,50.8675,7,0.0106855,10,0.00936349,-1.29356,1.70471,0.0346099,68.5214,0.184076,
2,1,0,1,0,13017.6,0.18681,0.186462,51.0114,7,0.0108893,10,0.00951169,-1.29233,3.25784,0.0181101,35.932,0.186462,
2,1,0,1,0,13017.6,0.189207,0.188872,51.0592,7,0.0110935,10,0.00964367,-1.29193,65.8901,0.00089543,1.7779,0.1888724,
2,1,0,1,0,13017.6,0.191604,0.191289,51.0121,7,0.0112976,10,0.00975805,-1.29233,-3.33292,-0.0177022,-35.1248,0.191289,
2,1,0,1,0,13017.6,0.194001,0.193675,50.8845,7,0.0115014,10,0.00985506,-1.29341,-1.50448,-0.0392163,-77.5737,0.193675,
2,1,0,1,0,13017.6,0.196407,0.196087,50.6733,7,0.0117046,10,0.0099364,-1.29522,-0.958279,-0.0615687,-121.175,0.196087,
2,1,0,1,0,13017.6,0.198804,0.198481,50.3138,7,0.0119066,10,0.00998633,-1.29831,-0.694531,-0.0849494,-166.038,0.198481,
2,1,0,1,0,13017.6,0.201201,0.200859,49.8524,7,0.0121069,10,0.0100133,-1.30231,-0.525765,-0.112217,-217.324,0.200859,
2,1,0,1,0,13017.6,0.203609,0.203289,49.2883,7,0.0123051,10,0.0100198,-1.30726,-0.434034,-0.135934,-260.205,0.203289,
2,1,0,1,0,13017.6,0.206006,0.205686,48.5873,7,0.0125008,10,0.00999373,-1.31348,-0.365548,-0.161401,-304.646,0.2056862,
2,1,0,1,0,13017.7,0.208403,0.208126,47.804,7,0.0126936,10,0.00994927,-1.32054,-0.31276,-0.188643,-350.368,0.208126,
2,1,0,1,0,13017.7,0.210803,0.21053,46.9062,7,0.0128829,10,0.00987517,-1.32877,-0.280383,-0.210427,-383.594,0.21053,
2,1,0,1,0,13017.7,0.213206,0.212867,45.9322,7,0.0130686,10,0.00977747,-1.33788,-0.250667,-0.235372,-420.304,0.212867,
2,1,0,1,0,13017.7,0.215603,0.215348,44.8812,7,0.0132501,10,0.00966506,-1.34794,-0.232591,-0.253664,-443.002,0.215348,
2,1,0,1,0,13017.7,0.218,0.217732,43.7665,7,0.0134273,10,0.00952939,-1.35886,-0.21806,-0.270568,-461.2,0.217732,
2,1,0,1,0,13017.7,0.220408,0.220117,42.659,7,0.0136,10,0.00938999,-1.36999,-0.206007,-0.286398,-475.845,0.2201173,
2,1,0,1,0,13017.7,0.222805,0.222486,41.496,7,0.0137682,10,0.00923229,-1.38199,-0.200251,-0.294631,-476.592,0.222486,
2,1,0,1,0,13017.7,0.225202,0.224881,40.3449,7,0.0139318,10,0.0090728,-1.39421,-0.195968,-0.30107,-473.948,0.224881,
2,1,0,1,0,13017.7,0.227605,0.227287,39.213,7,0.0140908,10,0.0089126,-1.40657,-0.194959,-0.302628,-463.282,0.2272867,
2,1,0,1,0,13017.7,0.230008,0.229736,38.1002,7,0.0142453,10,0.00875299,-1.41907,-0.19507,-0.302456,-450.162,0.229736,
2,1,0,1,0,13017.7,0.232405,0.232104,37.0402,7,0.0143955,10,0.00859718,-1.43133,-0.196879,-0.299676,-433.725,0.232104,
2,1,0,1,0,13017.7,0.234802,0.234509,36.0106,7,0.0145415,10,0.00844481,-1.44357,-0.197955,-0.298048,-419.511,0.234509,
2,1,0,1,0,13017.7,0.237207,0.236918,35.0355,7,0.0146835,10,0.00830056,-1.45549,-0.204248,-0.288865,-395.733,0.236918,
2,1,0,1,0,13017.7,0.239604,0.23926,34.1049,7,0.0148216,10,0.00815994,-1.46718,-0.210199,-0.280686,-374.466,0.23926,
2,1,0,1,0,13017.7,0.242002,0.241721,33.2345,7,0.0149562,10,0.00803347,-1.47841,-0.217673,-0.271049,-352.488,0.241721,
2,1,0,1,0,13017.7,0.244404,0.244095,32.4209,7,0.0150874,10,0.00791379,-1.48917,-0.228407,-0.25831,-327.606,0.244095,
2,1,0,1,0,13017.7,0.246807,0.246479,31.6655,7,0.0152155,10,0.00780489,-1.49941,-0.237055,-0.248887,-308.221,0.246479,
2,1,0,1,0,13017.7,0.249204,0.248918,30.9409,7,0.0153407,10,0.00770174,-1.50947,-0.248999,-0.236949,-286.857,0.248918,
2,1,0,1,0,13017.7,0.251601,0.251322,30.2753,7,0.015463,10,0.00760884,-1.51891,-0.259892,-0.227017,-268.911,0.251322,
2,1,0,1,0,13017.7,0.254006,0.253717,29.6607,7,0.0155828,10,0.00752545,-1.52782,-0.271826,-0.217051,-251.784,0.2537173,
2,1,0,1,0,13017.7,0.256404,0.256112,29.0752,7,0.0157002,10,0.00744649,-1.53648,-0.28695,-0.205611,-233.846,0.256112,
2,1,0,1,0,13017.7,0.258801,0.258457,28.539,7,0.0158154,10,0.00737611,-1.54456,-0.303185,-0.194601,-217.235,0.258457,
2,1,0,1,0,13017.7,0.261203,0.260891,28.0376,7,0.0159285,10,0.00731476,-1.55226,-0.319974,-0.18439,-202.168,0.260891,
2,1,0,1,0,13017.7,0.263606,0.263332,27.5721,7,0.0160397,10,0.00726061,-1.55953,-0.33664,-0.175261,-188.905,0.263332,
2,1,0,1,0,13017.7,0.266003,0.265709,27.1348,7,0.016149,10,0.00720998,-1.56647,-0.35796,-0.164823,-174.883,0.265709,
2,1,0,1,0,13017.8,0.2684,0.268102,26.7171,7,0.0162567,10,0.00716291,-1.57321,-0.371582,-0.158781,-165.91,0.268102,
2,1,0,1,0,13017.8,0.270808,0.270515,26.3545,7,0.0163628,10,0.00712929,-1.57915,-0.393291,-0.150016,-154.498,0.2705152,
2,1,0,1,0,13017.8,0.273205,0.27286,25.9913,7,0.0164675,10,0.00709199,-1.58517,-0.422229,-0.139735,-141.949,0.27286,
2,1,0,1,0,13017.8,0.275603,0.275278,25.6566,7,0.0165707,10,0.00706268,-1.5908,-0.434322,-0.135844,-136.239,0.275278,
2,1,0,1,0,13017.8,0.278008,0.277707,25.3537,7,0.0166727,10,0.00704089,-1.59596,-0.463594,-0.127267,-126.052,0.277707,
2,1,0,1,0,13017.8,0.280405,0.280074,25.0522,7,0.0167735,10,0.00701647,-1.60115,-0.4848,-0.1217,-119.106,0.2800737,
2,1,0,1,0,13017.8,0.282802,0.282502,24.7759,7,0.0168731,10,0.00699925,-1.60597,-0.501995,-0.117531,-113.783,0.282502,
2,1,0,1,0,13017.8,0.285199,0.284929,24.507,7,0.0169717,10,0.00698276,-1.61071,-0.530969,-0.111118,-106.406,0.284929,
2,1,0,1,0,13017.8,0.287608,0.287259,24.2668,7,0.0170692,10,0.00697086,-1.61499,-0.55754,-0.105822,-100.324,0.287259,
2,1,0,1,0,13017.8,0.290005,0.289693,24.0287,7,0.0171658,10,0.00696094,-1.61927,-0.584602,-0.100923,-94.7273,0.289693,
2,1,0,1,0,13017.8,0.292402,0.292082,23.8148,7,0.0172614,10,0.00695588,-1.62315,-0.609829,-0.0967485,-89.9778,0.292082,
2,1,0,1,0,13017.8,0.294807,0.294512,23.5992,7,0.0173562,10,0.00695026,-1.6271,-0.630508,-0.0935753,-86.2598,0.294512,
2,1,0,1,0,13017.8,0.297204,0.296906,23.3988,7,0.0174502,10,0.00694724,-1.63081,-0.630822,-0.0935287,-85.7166,0.296906,
2,1,0,1,0,13017.8,0.299421,0.29911,23.2164,7,0.0175364,10,0.00694425,-1.63421,-0.103669,-0.569119,-498.567,0.29911,
2,1,0,0,0,13017.8,0.300012,0.299785,23.1546,7,0.0175596,10,0.00694138,-1.63536,0.00202329,29.1605,22570.8,0.299785,
2,1,0,1,0,13017.8,0.299243,0.299058,21.3328,7,0.0175878,10,0.00637974,-1.67095,0.0195015,3.02541,2081.83,0.299058,
2,1,0,1,0,13017.8,0.296846,0.296607,16.6493,7,0.0176629,10,0.00493828,-1.7786,0.0219991,2.68193,1642.52,0.296607,
2,1,0,1,0,13017.8,0.294449,0.294214,13.0239,7,0.0177217,10,0.00383181,-1.88526,0.0213107,2.76856,1430.23,0.294214,
2,1,0,1,0,13017.8,0.292041,0.291799,10.0373,7,0.0177673,10,0.00292888,-1.99838,0.0194631,3.03137,1177.09,0.291799,
2,1,0,1,0,13017.8,0.289644,0.28939,7.50571,7,0.0178021,10,0.00217208,-2.12461,0.0167536,3.52164,993.299,0.28939,
2,1,0,1,0,13017.8,0.287247,0.287003,5.34564,7,0.0178275,10,0.00153422,-2.272,0.0130816,4.51016,850.388,0.287003,
2,1,0,1,0,13017.8,0.284841,0.284601,3.47468,7,0.0178448,10,0.000988896,-2.45909,0.00761466,7.74821,738.215,0.284601,
2,1,0,1,0,13017.8,0.282444,0.282158,1.83948,7,0.0178552,10,0.000519024,-2.73531,0.0121823,4.84307,643.2,0.282158,
2,1,0,1,0,13017.8,0.280047,0.279779,0.41035,7,0.0178595,10,0.000114807,-3.38685,0.040152,1.46942,569.158,0.279779,
2,0,0,1,0,13017.8,0.27765,0.277352,-0.86242,7,0.0178585,10,-0.000239194,-3.06428,-0.0454845,-1.29714,501.398,0.277352,
2,0,0,1,0,13017.8,0.275242,0.27498,-2.00124,7,0.0178526,10,-0.000550299,-2.6987,-0.00984813,-5.99098,447.774,0.27498,
2,0,0,1,0,13017.8,0.272845,0.272511,-2.99779,7,0.0178424,10,-0.000816931,-2.5232,-0.0130013,-4.53801,402.299,0.272511,
2,0,0,1,0,13017.9,0.270448,0.270144,-3.90389,7,0.0178285,10,-0.00105461,-2.4085,-0.0220504,-2.67569,359.663,0.270144,
2,0,0,1,0,13017.9,0.268039,0.267745,-4.72699,7,0.0178112,10,-0.00126563,-2.32542,-0.0307413,-1.91924,328.049,0.267745,
2,0,0,1,0,13017.9,0.265642,0.265376,-5.4551,7,0.0177907,10,-0.00144766,-2.2632,-0.0404131,-1.45992,295.853,0.265376,
2,0,0,1,0,13017.9,0.263245,0.262956,-6.1324,7,0.0177675,10,-0.00161255,-2.21237,-0.0507365,-1.16287,268.714,0.262956,
2,0,0,1,0,13017.9,0.260843,0.260565,-6.73776,7,0.0177417,10,-0.00175563,-2.17148,-0.0617655,-0.955225,244.783,0.260565,
2,0,0,1,0,13017.9,0.258443,0.258167,-7.3009,7,0.0177135,10,-0.00188485,-2.13662,-0.0731145,-0.806953,225.519,0.258167,
2,0,0,1,0,13017.9,0.256046,0.25572,-7.81874,7,0.0176832,10,-0.00199941,-2.10686,-0.0845625,-0.697709,209.756,0.25572,
2,0,0,1,0,13017.9,0.253649,0.25335,-8.29855,7,0.0176509,10,-0.00210244,-2.081,-0.0977687,-0.603465,193.005,0.25335,
2,0,0,1,0,13017.9,0.25124,0.250939,-8.75695,7,0.0176167,10,-0.00219746,-2.05765,-0.111152,-0.530807,179.171,0.250939,
2,0,0,1,0,13017.9,0.248843,0.248537,-9.15946,7,0.0175809,10,-0.00227647,-2.03813,-0.124129,-0.475313,168.499,0.248537,
2,0,0,1,0,13017.9,0.246446,0.246135,-9.53609,7,0.0175434,10,-0.00234717,-2.02063,-0.1398,-0.42203,156.244,0.2461354,
2,0,0,1,0,13017.9,0.244041,0.243748,-9.91647,7,0.0175045,10,-0.00241713,-2.00364,-0.153888,-0.383396,147.39,0.243748,
2,0,0,1,0,13017.9,0.241644,0.241351,-10.2551,7,0.0174641,10,-0.00247507,-1.98906,-0.167769,-0.351673,139.91,0.241351,
2,0,0,1,0,13017.9,0.239247,0.23893,-10.5755,7,0.0174224,10,-0.0025268,-1.9757,-0.186212,-0.316843,130.228,0.23893,
2,0,0,1,0,13017.9,0.236849,0.236519,-10.8816,7,0.0173794,10,-0.0025737,-1.96331,-0.198618,-0.297053,125.715,0.236519,
2,0,0,1,0,13017.9,0.234441,0.234109,-11.1718,7,0.0173353,10,-0.00261541,-1.95188,-0.214288,-0.27533,119.702,0.234109,
2,0,0,1,0,13017.9,0.232044,0.231805,-11.4551,7,0.01729,10,-0.00265535,-1.941,-0.226704,-0.260251,116.064,0.231805,
2,0,0,1,0,13017.9,0.229647,0.229333,-11.7242,7,0.0172436,10,-0.00268875,-1.93092,-0.244498,-0.24131,110.084,0.229333,
2,0,0,1,0,13017.9,0.227239,0.226961,-11.9909,7,0.0171962,10,-0.00272146,-1.92115,-0.266311,-0.221546,103.292,0.226961,
2,0,0,1,0,13017.9,0.224842,0.224565,-12.2225,7,0.0171477,10,-0.00274474,-1.91284,-0.283113,-0.208397,99.1798,0.224565,
2,0,0,1,0,13017.9,0.222445,0.222156,-12.4517,7,0.0170984,10,-0.00276623,-1.90477,-0.296063,-0.199282,96.8269,0.222156,
2,0,0,1,0,13017.9,0.220047,0.219723,-12.6774,7,0.0170481,10,-0.00278551,-1.89697,-0.310003,-0.190321,94.1036,0.219723,
2,0,0,1,0,13017.9,0.217642,0.217361,-12.9204,7,0.0169968,10,-0.00280839,-1.88872,-0.321945,-0.183261,92.1945,0.217361,
2,0,0,1,0,13017.9,0.215245,0.214952,-13.1271,7,0.0169447,10,-0.00282169,-1.88183,-0.327691,-0.180048,92.1444,0.214952,
2,0,0,1,0,13017.9,0.212848,0.212527,-13.3395,7,0.0168918,10,-0.00283501,-1.87486,-0.357135,-0.165204,85.9405,0.212527,
2,0,0,1,0,13018,0.21044,0.21015,-13.5594,7,0.016838,10,-0.00284952,-1.86776,-0.356873,-0.165325,87.3818,0.2101505,
2,0,0,1,0,13018,0.208042,0.20774,-13.7472,7,0.0167834,10,-0.00285585,-1.86178,-0.370721,-0.159149,85.3707,0.2077402,
2,0,0,1,0,13018,0.205645,0.20533,-13.9679,7,0.0167279,10,-0.00286802,-1.85487,-0.391053,-0.150874,82.1456,0.20533,
2,0,0,1,0,13018,0.203246,0.202936,-14.1583,7,0.0166716,10,-0.00287323,-1.84899,-0.396776,-0.148699,82.0558,0.202936,
2,0,0,1,0,13018,0.200843,0.200526,-14.35,7,0.0166146,10,-0.00287755,-1.84315,-0.417763,-0.141228,79.0506,0.200526,
2,0,0,1,0,13018,0.198446,0.198085,-14.5395,7,0.0165568,10,-0.00288005,-1.83745,-0.409753,-0.143989,81.7518,0.1980852,
2,0,0,1,0,13018,0.196049,0.195771,-14.7235,7,0.0164982,10,-0.00288243,-1.83199,-0.416386,-0.141695,81.4973,0.195771,
2,0,0,1,0,13018,0.19364,0.193316,-14.9448,7,0.0164389,10,-0.00288906,-1.82551,-0.423578,-0.13929,81.1296,0.193316,
2,0,0,1,0,13018,0.191243,0.190932,-15.1319,7,0.0163787,10,-0.00288917,-1.82011,-0.423265,-0.139393,82.2402,0.190932,
2,0,0,1,0,13018,0.188846,0.188513,-15.3161,7,0.0163178,10,-0.00288728,-1.81485,-0.44163,-0.133596,79.8948,0.188513,
2,0,0,1,0,13018,0.186444,0.186104,-15.5185,7,0.0162561,10,-0.00288806,-1.80915,-0.435146,-0.135587,82.137,0.186104,
2,0,0,1,0,13018,0.184041,0.183753,-15.7088,7,0.0161936,10,-0.00288654,-1.80386,-0.42574,-0.138582,85.0243,0.183753,
2,0,0,1,0,13018,0.181644,0.181343,-15.9195,7,0.0161303,10,-0.0028869,-1.79807,-0.426735,-0.138259,85.9339,0.1813435,
2,0,0,1,0,13018,0.179247,0.178912,-16.1324,7,0.0160662,10,-0.00288628,-1.7923,-0.42341,-0.139345,87.6955,0.178912,
2,0,0,1,0,13018,0.176841,0.176538,-16.3406,7,0.0160012,10,-0.00288473,-1.78673,-0.424769,-0.138899,88.5893,0.176538,
2,0,0,1,0,13018,0.174444,0.174158,-16.5502,7,0.0159354,10,-0.00288236,-1.7812,-0.413664,-0.142628,92.2369,0.1741582,
2,0,0,1,0,13018,0.172047,0.17171,-16.7729,7,0.0158688,10,-0.00288008,-1.77539,-0.397468,-0.14844,97.3586,0.17171,
2,0,0,1,0,13018,0.169644,0.169326,-17.0166,7,0.0158012,10,-0.00288135,-1.76913,-0.386139,-0.152795,101.571,0.169326,
2,0,0,1,0,13018,0.167242,0.16689,-17.2799,7,0.0157325,10,-0.00288384,-1.76246,-0.372273,-0.158486,106.88,0.16689,
2,0,0,1,0,13018,0.164845,0.164555,-17.5256,7,0.0156629,10,-0.00288393,-1.75633,-0.358682,-0.164491,112.664,0.164555,
2,0,0,1,0,13018,0.162448,0.162127,-17.7972,7,0.0155923,10,-0.0028854,-1.74965,-0.34789,-0.169594,118.065,0.162127,
2,0,0,1,0,13018,0.160042,0.159756,-18.0948,7,0.0155204,10,-0.00289075,-1.74245,-0.330219,-0.178669,126.405,0.159756,
2,0,0,1,0,13018,0.157645,0.157335,-18.408,7,0.0154474,10,-0.00289622,-1.73499,-0.313513,-0.18819,135.441,0.157335,
2,0,0,1,0,13018,0.155248,0.154915,-18.7442,7,0.0153731,10,-0.00290375,-1.72713,-0.300042,-0.196639,144.105,0.154915,
2,0,0,1,0,13018,0.152845,0.152503,-19.1007,7,0.0152973,10,-0.0029129,-1.71895,-0.284649,-0.207273,154.818,0.1525026,
2,0,0,1,0,13018.1,0.150443,0.150158,-19.4779,7,0.0152202,10,-0.00292476,-1.71046,-0.270748,-0.217915,166.064,0.150158,
2,0,0,1,0,13018.1,0.148046,0.147771,-19.8886,7,0.0151414,10,-0.00293897,-1.70139,-0.253214,-0.233004,181.464,0.147771,
2,0,0,1,0,13018.1,0.145648,0.145364,-20.3303,7,0.0150609,10,-0.00295529,-1.69186,-0.24053,-0.245292,195.324,0.145364,
2,0,0,1,0,13018.1,0.14324,0.142942,-20.8356,7,0.0149786,10,-0.00297828,-1.68119,-0.230919,-0.255501,208.164,0.142942,
2,0,0,1,0,13018.1,0.140843,0.140531,-21.3583,7,0.0148941,10,-0.0030015,-1.67043,-0.215871,-0.273312,228.327,0.1405306,
2,0,0,1,0,13018.1,0.138446,0.138129,-21.8958,7,0.0148076,10,-0.00302444,-1.65964,-0.208305,-0.283239,243.005,0.138129,
2,0,0,1,0,13018.1,0.136041,0.135778,-22.519,7,0.0147187,10,-0.00305758,-1.64745,-0.198991,-0.296496,261.367,0.135778,
2,0,0,1,0,13018.1,0.133644,0.133323,-23.173,7,0.0146272,10,-0.0030895,-1.63502,-0.189204,-0.311833,282.646,0.133323,
2,0,0,1,0,13018.1,0.131246,0.130948,-23.863,7,0.0145331,10,-0.0031248,-1.62228,-0.18458,-0.319645,298.523,0.130948,
2,0,0,1,0,13018.1,0.128849,0.128536,-24.6071,7,0.0144361,10,-0.0031629,-1.60894,-0.177599,-0.332209,319.873,0.128536,
2,0,0,1,0,13018.1,0.126441,0.12613,-25.399,7,0.014336,10,-0.00320359,-1.59518,-0.172969,-0.341101,338.857,0.12613,
2,0,0,1,0,13018.1,0.124044,0.123754,-26.2339,7,0.0142327,10,-0.00324655,-1.58114,-0.169429,-0.348229,357.136,0.123754,
2,0,0,1,0,13018.1,0.121647,0.121348,-27.116,7,0.0141259,10,-0.00329047,-1.56677,-0.168785,-0.349558,370.14,0.121348,
2,0,0,1,0,13018.1,0.119241,0.118967,-28.0246,7,0.0140155,10,-0.003334,-1.55246,-0.168587,-0.349968,382.669,0.118967,
2,0,0,1,0,13018.1,0.116844,0.116558,-28.9421,7,0.0139015,10,-0.00337344,-1.53847,-0.172793,-0.341449,385.483,0.116558,
2,0,0,1,0,13018.1,0.114447,0.114225,-29.8803,7,0.0137838,10,-0.00341308,-1.52461,-0.175109,-0.336933,392.751,0.114225,
2,0,0,1,0,13018.1,0.11205,0.111743,-30.8186,7,0.0136623,10,-0.00344375,-1.51119,-0.178725,-0.330116,396.832,0.111743,
2,0,0,1,0,13018.1,0.109642,0.109377,-31.7912,7,0.0135369,10,-0.00347722,-1.49769,-0.185101,-0.318745,394.931,0.1093769,
2,0,0,1,0,13018.1,0.107245,0.106989,-32.7395,7,0.0134078,10,-0.00350276,-1.48493,-0.188818,-0.312471,398.571,0.106989,
2,0,0,1,0,13018.1,0.104848,0.104574,-33.6917,7,0.0132748,10,-0.00352329,-1.47248,-0.20048,-0.294293,385.828,0.104574,
2,0,0,1,0,13018.1,0.10244,0.102198,-34.6229,7,0.0131381,10,-0.00353838,-1.46064,-0.20948,-0.28165,379.513,0.102198,
2,0,0,1,0,13018.1,0.100042,0.0998629,-35.4619,7,0.0129978,10,-0.00354133,-1.45024,-0.216777,-0.272169,376.681,0.0998629,
2,0,0,1,0,13018.1,0.0976454,0.0974028,-36.3775,7,0.012854,10,-0.00354327,-1.43917,-0.229235,-0.257378,365.126,0.0974028,
2,0,0,1,0,13018.1,0.0952427,0.0950095,-37.2946,7,0.0127066,10,-0.00354334,-1.42835,-0.23668,-0.249282,361.747,0.0950095,
2,0,0,1,0,13018.1,0.0928428,0.0925811,-38.1342,7,0.0125556,10,-0.00353051,-1.41869,-0.249343,-0.236622,351.298,0.0925811,
2,0,0,1,0,13018.2,0.0904457,0.0901931,-38.96,7,0.0124014,10,-0.00351392,-1.40938,-0.265404,-0.222303,337.455,0.0901931,
2,0,0,1,0,13018.2,0.0880486,0.087787,-39.7555,7,0.0122439,10,-0.00349002,-1.4006,-0.279733,-0.210915,326.613,0.087787,
2,0,0,1,0,13018.2,0.0856404,0.0853831,-40.5431,7,0.0120832,10,-0.00346169,-1.39208,-0.29931,-0.19712,311.03,0.0853831,
2,0,0,1,0,13018.2,0.0832433,0.0829951,-41.2651,7,0.0119195,10,-0.0034248,-1.38442,-0.320819,-0.183904,295.415,0.0829951,
2,0,0,1,0,13018.2,0.0808462,0.0806208,-41.9372,7,0.011753,10,-0.00338101,-1.3774,-0.346684,-0.170184,278.058,0.0806208,
2,0,0,1,0,13018.2,0.0784408,0.078166,-42.5977,7,0.0115839,10,-0.00332969,-1.37061,-0.369742,-0.159571,264.805,0.078166,
2,0,0,1,0,13018.2,0.0760437,0.0757705,-43.2159,7,0.0114122,10,-0.00327449,-1.36436,-0.396298,-0.148878,250.613,0.0757705,
2,0,0,1,0,13018.2,0.0736466,0.07341,-43.8033,7,0.0112381,10,-0.0032156,-1.35849,-0.426818,-0.138232,235.866,0.07341,
2,0,0,1,0,13018.2,0.0712495,0.0709881,-44.3513,7,0.0110617,10,-0.00314841,-1.35309,-0.465584,-0.126723,218.894,0.0709881,
2,0,0,1,0,13018.2,0.0688413,0.0685555,-44.8645,7,0.0108832,10,-0.00307571,-1.3481,-0.514184,-0.114745,200.44,0.0685555,
2,0,0,1,0,13018.2,0.0664442,0.0661505,-45.3217,7,0.0107028,10,-0.00299805,-1.34369,-0.571469,-0.103243,182.201,0.0661505,
2,0,0,1,0,13018.2,0.0640471,0.0637975,-45.7301,7,0.0105206,10,-0.00291746,-1.3398,-0.658161,-0.0896437,159.624,0.0637975,
2,0,0,1,0,13018.2,0.0616389,0.0613956,-46.0991,7,0.010337,10,-0.00283028,-1.33631,-0.769763,-0.0766469,137.543,0.0613956,
2,0,0,1,0,13018.2,0.0592417,0.0589567,-46.3967,7,0.0101519,10,-0.0027354,-1.33351,-0.925007,-0.0637833,115.21,0.0589567,
2,0,0,1,0,13018.2,0.0568446,0.0565156,-46.6469,7,0.00996578,10,-0.00263628,-1.33118,-1.12027,-0.0526658,95.697,0.0565156,
2,0,0,1,0,13018.2,0.0544475,0.0541615,-46.8402,7,0.00977878,10,-0.00253694,-1.32938,-1.42382,-0.0414379,75.6194,0.0541615,
2,0,0,1,0,13018.2,0.0520421,0.0517459,-47.0225,7,0.009591,10,-0.00243322,-1.32769,-1.8539,-0.0318248,58.2831,0.0517459,
2,0,0,1,0,13018.2,0.049645,0.0493303,-47.1246,7,0.00940267,10,-0.00232467,-1.32675,-2.5499,-0.0231382,42.4804,0.0493303,
2,0,0,1,0,13018.2,0.0472479,0.046919,-47.2062,7,0.00921399,10,-0.00221487,-1.326,-4.73776,-0.0124531,22.9068,0.046919,
2,0,0,1,0,13018.2,0.0448397,0.0445924,-47.2467,7,0.00902508,10,-0.00210685,-1.32563,-10.0396,-0.00587673,10.8199,0.0445924,
2,0,0,1,0,13018.2,0.0424426,0.0421111,-47.2432,7,0.0088361,10,-0.00198946,-1.32566,46.6838,0.00126382,-2.3278,0.04211108,
2,0,0,1,0,13018.2,0.0400455,0.0397782,-47.228,7,0.00864716,10,-0.00187864,-1.3258,8.18346,0.00720967,-13.2757,0.0397782,
2,0,0,1,0,13018.2,0.0376456,0.0373096,-47.1838,7,0.00845834,10,-0.00176041,-1.32621,5.01919,0.0117549,-21.6255,0.0373096,
2,0,0,1,0,13018.2,0.035243,0.034912,-47.1182,7,0.00826973,10,-0.00164499,-1.32681,3.49455,0.0168834,-31.0203,0.034912,
2,0,0,1,0,13018.2,0.0328459,0.0325229,-47.0359,7,0.0080814,10,-0.00152974,-1.32757,3.01748,0.0195528,-35.8739,0.0325229,
2,0,0,1,0,13018.3,0.0304488,0.030138,-46.9289,7,0.00789348,10,-0.00141435,-1.32856,2.64003,0.0223482,-40.9243,0.030138,
2,0,0,1,0,13018.3,0.0280406,0.0277267,-46.8401,7,0.00770597,10,-0.00129872,-1.32938,2.3072,0.0255721,-46.7188,0.0277267,
2,0,0,1,0,13018.3,0.0256435,0.025328,-46.726,7,0.00751886,10,-0.00118348,-1.33044,2.23295,0.0264224,-48.1539,0.025328,
2,0,0,1,0,13018.3,0.0232463,0.0229697,-46.5895,7,0.00733225,10,-0.00107015,-1.33171,2.03569,0.0289828,-52.6943,0.0229697,
2,0,0,1,0,13018.3,0.0208437,0.0205488,-46.4672,7,0.00714615,10,-0.000954844,-1.33285,1.87255,0.0315078,-57.1199,0.0205488,
2,0,0,1,0,13018.3,0.018441,0.0181194,-46.3338,7,0.00696056,10,-0.000839541,-1.3341,1.8955,0.0311263,-56.2646,0.0181194,
2,0,0,1,0,13018.3,0.0160439,0.0157568,-46.1793,7,0.00677556,10,-0.000727638,-1.33555,1.7441,0.0338284,-60.9609,0.0157568,
2,0,0,1,0,13018.3,0.0136468,0.0133157,-46.0464,7,0.00659112,10,-0.000613142,-1.3368,1.6384,0.0360108,-64.6803,0.0133157,
2,0,0,1,0,13018.3,0.0112414,0.0109807,-45.8839,7,0.00640727,10,-0.000503839,-1.33834,1.59108,0.0370817,-66.3659,0.01098073,
2,0,0,1,0,13018.3,0.00884431,0.00853119,-45.7137,7,0.00622408,10,-0.000389992,-1.33995,1.44834,0.0407364,-72.6503,0.00853119,
2,0,0,1,0,13018.3,0.0064472,0.00611877,-45.5396,7,0.0060416,10,-0.000278646,-1.34161,1.54832,0.0381058,-67.7451,0.006118766,
2,0,0,1,0,13018.3,0.00404455,0.00373179,-45.3501,7,0.00585985,10,-0.000169237,-1.34342,1.40657,0.0419461,-74.2456,0.00373179,
2,0,0,1,0,13018.3,0.0016419,0.00125468,-45.225,7,0.00567877,10,-5.6743e-05,-1.34462,1.27374,0.0463202,-81.6125,0.00125468,
2,0,0,1,0,13018.3,-0.000755207,-0.00113335,-44.9961,7,0.00549837,10,5.09965e-05,-1.34683,1.19748,0.04927,-86.3999,-0.00113335,
2,0,0,1,0,13018.3,-0.00315231,-0.0034917,-44.7553,7,0.0053189,10,0.000156272,-1.34916,1.00357,0.0587899,-102.633,-0.0034917,
2,0,0,1,0,13018.3,-0.00555774,-0.00588928,-44.5188,7,0.00514037,10,0.000262184,-1.35146,0.958344,0.0615645,-106.875,-0.00588928,
2,0,0,1,0,13018.3,-0.00795485,-0.00831549,-44.2428,7,0.00496286,10,0.000367901,-1.35416,0.919231,0.0641841,-110.763,-0.00831549,
2,0,0,1,0,13018.3,-0.010352,-0.0107237,-43.9711,7,0.00478646,10,0.000471532,-1.35683,0.843202,0.0699714,-119.987,-0.0107237,
2,0,0,1,0,13018.3,-0.0127546,-0.0131467,-43.6859,7,0.00461118,10,0.000574325,-1.35966,0.790683,0.074619,-127.059,-0.0131467,
2,0,0,1,0,13018.3,-0.0151573,-0.0155135,-43.3641,7,0.00443711,10,0.00067273,-1.36287,0.738785,0.0798608,-135.013,-0.0155135,
2,0,0,1,0,13018.3,-0.0175544,-0.0179069,-43.0241,7,0.00426437,10,0.000770428,-1.36629,0.695598,0.0848191,-142.339,-0.0179069,
2,0,0,1,0,13018.3,-0.0199515,-0.0203384,-42.673,7,0.00409301,10,0.000867901,-1.36985,0.666683,0.0884978,-147.319,-0.0203384,
2,0,0,1,0,13018.3,-0.0223597,-0.022736,-42.321,7,0.00392304,10,0.000962208,-1.37344,0.637598,0.0925348,-152.709,-0.022736,
2,0,0,1,0,13018.3,-0.0247568,-0.0250964,-41.9523,7,0.00375453,10,0.00105285,-1.37724,0.626688,0.0941458,-154.056,-0.0250964,
2,0,0,1,0,13018.3,-0.0271539,-0.0275195,-41.5562,7,0.00358754,10,0.0011436,-1.38136,0.608945,0.0968889,-157.161,-0.0275195,
2,0,0,1,0,13018.4,-0.0295593,-0.0299435,-41.1933,7,0.0034221,10,0.00123347,-1.38517,0.604549,0.0975934,-156.883,-0.0299435,
2,0,0,1,0,13018.4,-0.0319564,-0.0323231,-40.8142,7,0.00325813,10,0.00131924,-1.38919,0.61587,0.0957994,-152.61,-0.0323231,
2,0,0,1,0,13018.4,-0.0343535,-0.0347546,-40.4371,7,0.00309567,10,0.00140538,-1.39322,0.615624,0.0958377,-151.339,-0.0347546,
2,0,0,1,0,13018.4,-0.0367506,-0.0371299,-40.0895,7,0.00293467,10,0.00148852,-1.39697,0.624848,0.0944229,-147.784,-0.0371299,
2,0,0,1,0,13018.4,-0.0391588,-0.0395477,-39.7398,7,0.00277503,10,0.00157162,-1.40077,0.649591,0.0908264,-140.929,-0.0395477,
2,0,0,1,0,13018.4,-0.0415559,-0.0418816,-39.4016,7,0.0026168,10,0.0016502,-1.40449,0.672309,0.0877572,-135.073,-0.0418816,
2,0,0,1,0,13018.4,-0.043953,-0.0443375,-39.0866,7,0.00245986,10,0.001733,-1.40797,0.705647,0.0836113,-127.676,-0.0443375,
2,0,0,1,0,13018.4,-0.0463585,-0.0467171,-38.7946,7,0.00230412,10,0.00181237,-1.41123,0.761606,0.0774679,-117.398,-0.04671707,
2,0,0,1,0,13018.4,-0.0487556,-0.0490913,-38.5213,7,0.00214952,10,0.00189106,-1.4143,0.806402,0.0731645,-110.094,-0.04909132,
2,0,0,1,0,13018.4,-0.0511527,-0.051561,-38.2653,7,0.00199596,10,0.001973,-1.41719,0.878934,0.0671268,-100.364,-0.051561,
2,0,0,1,0,13018.4,-0.0535498,-0.0539183,-38.0318,7,0.0018434,10,0.00205061,-1.41985,0.958811,0.0615345,-91.4486,-0.0539183,
2,0,0,1,0,13018.4,-0.055958,-0.0563212,-37.8307,7,0.0016917,10,0.00213067,-1.42216,1.05086,0.0561445,-82.9727,-0.05632117,
2,0,0,1,0,13018.4,-0.0583551,-0.0587113,-37.6416,7,0.00154078,10,0.00220999,-1.42433,1.21335,0.0486257,-71.5206,-0.0587113,
2,0,0,1,0,13018.4,-0.0607522,-0.0611216,-37.472,7,0.00139059,10,0.00229035,-1.42629,1.32455,0.0445436,-65.2193,-0.0611216,
2,0,0,1,0,13018.4,-0.0631604,-0.0635054,-37.3461,7,0.00124096,10,0.00237168,-1.42775,1.51924,0.0388351,-56.6381,-0.0635054,
2,0,0,1,0,13018.4,-0.0655575,-0.0659157,-37.2049,7,0.00109188,10,0.00245239,-1.4294,1.87254,0.0315081,-45.8069,-0.0659157,
2,0,0,1,0,13018.4,-0.0679546,-0.0682879,-37.0992,7,0.000943291,10,0.00253343,-1.43064,2.18051,0.0270578,-39.2374,-0.0682879,
2,0,0,1,0,13018.4,-0.0703573,-0.0707279,-37.032,7,0.000795048,10,0.00261919,-1.43142,2.80611,0.0210256,-30.4088,-0.0707279,
2,0,0,1,0,13018.4,-0.0727571,-0.073117,-36.969,7,0.000647061,10,0.00270306,-1.43216,3.52486,0.0167382,-24.1588,-0.073117,
2,0,0,1,0,13018.4,-0.0751542,-0.0755336,-36.9125,7,0.000499316,10,0.00278813,-1.43283,4.93537,0.0119545,-17.2385,-0.0755336,
2,0,0,1,0,13018.4,-0.0775514,-0.0778973,-36.8671,7,0.000351764,10,0.00287184,-1.43336,8.61335,0.00684983,-9.87012,-0.07789728,
2,0,0,1,0,13018.4,-0.0799595,-0.0803352,-36.8664,7,0.000204307,10,0.00296167,-1.43337,24.1969,0.00243833,-3.511,-0.0803352,
2,0,0,1,0,13018.4,-0.0823567,-0.0827433,-36.874,7,5.68325e-05,10,0.00305108,-1.43328,-15.3282,-0.00384912,5.54213,-0.0827433,
2,0,0,1,0,13018.4,-0.0847538,-0.0851144,-36.8788,7,-9.06718e-05,10,0.00313892,-1.43322,-8.85512,-0.00666281,9.59826,-0.0851144,
2,0,0,1,0,13018.4,-0.0871592,-0.087512,-36.9203,7,-0.00023825,10,0.00323097,-1.43273,-6.09,-0.00968801,13.9669,-0.087512,
2,0,0,1,0,13018.5,-0.0895563,-0.089918,-36.9584,7,-0.000386022,10,0.00332322,-1.43229,-3.85433,-0.0153075,22.0947,-0.08991804,
2,0,0,1,0,13018.5,-0.0919534,-0.0922785,-37.0072,7,-0.000533955,10,0.00341497,-1.43171,-3.23813,-0.0182204,26.3435,-0.0922785,
2,0,0,1,0,13018.5,-0.0943505,-0.0946973,-37.0906,7,-0.000682155,10,0.00351238,-1.43074,-2.6584,-0.0221938,32.1447,-0.0946973,
2,0,0,1,0,13018.5,-0.0967587,-0.097132,-37.1738,7,-0.000830695,10,0.00361076,-1.42976,-2.28826,-0.0257838,37.3897,-0.09713199,
2,0,0,1,0,13018.5,-0.0991558,-0.0994903,-37.2661,7,-0.000979579,10,0.00370761,-1.42869,-17.3457,-0.00340143,4.92551,-0.0994903,
2,0,0,1,0,13018.5,-0.0999548,-0.100305,-37.3073,7,-0.00102804,10,0.00374209,-1.42821,0.0214269,2.75354,-3733.26,-0.100305,
2,0,0,1,1,13018.5,-0.0999548,-0.100343,-37.1184,7,-0.00105034,10,0.00372456,-1.43041,-0.0277656,-2.12493,2682.43,-0.100343,
2,0,0,1,1,13018.5,-0.0979573,-0.0984066,-32.4153,7,-0.00115635,10,0.00318988,-1.48925,-0.0348646,-1.69226,1991.82,-0.0984066,
2,0,0,1,1,13018.5,-0.0955546,-0.095991,-27.8793,7,-0.00127627,10,0.00267616,-1.55472,-0.0357349,-1.65105,1805.6,-0.095991,
2,0,0,1,1,13018.5,-0.0931519,-0.0936178,-23.9882,7,-0.00137948,10,0.00224572,-1.62,-0.0357184,-1.65181,1556.78,-0.0936178,
2,0,0,1,1,13018.5,-0.0907548,-0.0911661,-20.5489,7,-0.00146811,10,0.00187336,-1.68721,-0.034138,-1.72828,1382.84,-0.0911661,
2,0,0,1,1,13018.5,-0.0883578,-0.088777,-17.4242,7,-0.00154366,10,0.00154687,-1.75885,-0.0318615,-1.85176,1248.57,-0.08877705,
2,0,0,1,1,13018.5,-0.0859523,-0.0863572,-14.5573,7,-0.00160729,10,0.00125713,-1.83692,-0.0287249,-2.05397,1149.18,-0.0863572,
2,0,0,1,1,13018.5,-0.0835552,-0.0839776,-11.9518,7,-0.00165997,10,0.00100368,-1.92257,-0.025325,-2.32971,1055.87,-0.0839776,
2,0,0,1,1,13018.5,-0.0811581,-0.0815716,-9.52298,7,-0.00170264,10,0.000776805,-2.02123,-0.0213246,-2.76676,978.492,-0.0815716,
2,0,0,1,1,13018.5,-0.0787555,-0.0791549,-7.26454,7,-0.00173595,10,0.000575024,-2.13879,-0.0167852,-3.51501,911.383,-0.0791549,
2,0,0,1,1,13018.5,-0.0763528,-0.0767552,-5.16182,7,-0.00176055,10,0.000396197,-2.2872,-0.0113822,-5.18354,850.424,-0.0767552,
2,0,0,1,1,13018.5,-0.0739557,-0.0743778,-3.20263,7,-0.00177705,10,0.000238204,-2.49449,-0.00725894,-8.12791,796.653,-0.0743778,
2,0,0,1,1,13018.5,-0.0715586,-0.0719834,-1.36895,7,-0.00178597,10,9.85416e-05,-2.86361,-0.02287,-2.5798,743.382,-0.07198339,
2,0,0,1,1,13018.5,-0.0691532,-0.0695964,0.35028,7,-0.00178781,10,-2.43783e-05,-3.45558,0.257345,0.229264,697.072,-0.0695964,
2,1,0,1,1,13018.5,-0.0667561,-0.067167,1.96587,7,-0.00178299,10,-0.000132042,-2.70644,0.0173116,3.40811,653.877,-0.067167,
2,1,0,1,1,13018.5,-0.0643589,-0.0647769,3.48991,7,-0.00177189,10,-0.000226065,-2.45719,0.00764828,7.71415,618.304,-0.06477686,
2,1,0,1,1,13018.5,-0.0619563,-0.0623528,4.9283,7,-0.0017549,10,-0.000307293,-2.3073,0.0163337,3.61216,584.56,-0.0623528,
2,1,0,1,1,13018.5,-0.0595536,-0.0600103,6.27739,7,-0.00173232,10,-0.000376708,-2.20222,0.0240179,2.4565,548.252,-0.0600103,
2,1,0,1,1,13018.5,-0.0571565,-0.0576308,7.54037,7,-0.00170455,10,-0.000434558,-2.12261,0.0314757,1.87446,521.789,-0.0576308,
2,1,0,1,1,13018.5,-0.0547594,-0.0552014,8.73968,7,-0.00167186,10,-0.000482442,-2.0585,0.0395878,1.49036,489.313,-0.0552014,
2,1,0,1,1,13018.6,-0.0523512,-0.0527996,9.91305,7,-0.00163441,10,-0.000523405,-2.00379,0.0475029,1.24203,465.625,-0.0527996,
2,1,0,1,1,13018.6,-0.0499541,-0.0503903,10.9846,7,-0.00159249,10,-0.000553517,-1.95922,0.0558497,1.05641,441.93,-0.0503903,
2,1,0,1,1,13018.6,-0.047557,-0.0480139,12.0182,7,-0.00154634,10,-0.000577042,-1.92016,0.0655727,0.899765,414.16,-0.0480139,
2,1,0,1,1,13018.6,-0.0451544,-0.0456132,12.977,7,-0.00149624,10,-0.000591922,-1.88683,0.0744637,0.792332,395.397,-0.0456132,
2,1,0,1,1,13018.6,-0.0427545,-0.0431732,13.8999,7,-0.00144236,10,-0.000600104,-1.85699,0.0853912,0.690938,370.027,-0.04317319,
2,1,0,1,1,13018.6,-0.0403574,-0.0408011,14.7762,7,-0.00138491,10,-0.000602883,-1.83044,0.0952985,0.619107,353.021,-0.0408011,
2,1,0,1,1,13018.6,-0.0379603,-0.0383865,15.5806,7,-0.00132411,10,-0.000598086,-1.80742,0.10715,0.550628,331.758,-0.0383865,
2,1,0,1,1,13018.6,-0.0355521,-0.0359847,16.3761,7,-0.00126009,10,-0.000589287,-1.78579,0.121179,0.486885,308.22,-0.0359847,
2,1,0,1,1,13018.6,-0.033155,-0.0335691,17.0862,7,-0.00119309,10,-0.000573566,-1.76736,0.132549,0.445118,294.649,-0.0335691,
2,1,0,1,1,13018.6,-0.0307579,-0.0311312,17.7566,7,-0.00112332,10,-0.000552784,-1.75064,0.148365,0.397667,274.123,-0.0311312,
2,1,0,1,1,13018.6,-0.0283524,-0.0287442,18.4217,7,-0.0010509,10,-0.000529518,-1.73467,0.162658,0.362725,259.145,-0.02874423,
2,1,0,1,1,13018.6,-0.0259553,-0.0263562,19.0154,7,-0.000975948,10,-0.000501175,-1.72089,0.177358,0.33266,245.534,-0.0263562,
2,1,0,1,1,13018.6,-0.0235582,-0.0239332,19.5832,7,-0.000898684,10,-0.000468689,-1.70812,0.195396,0.301951,229.849,-0.0239332,
2,1,0,1,1,13018.6,-0.0211611,-0.0215165,20.1173,7,-0.000819212,10,-0.000432855,-1.69643,0.211676,0.278728,218.005,-0.0215165,
2,1,0,1,1,13018.6,-0.0187529,-0.019138,20.6297,7,-0.000737647,10,-0.000394811,-1.68551,0.230904,0.255518,204.934,-0.019138,
2,1,0,1,1,13018.6,-0.0163558,-0.0167797,21.1032,7,-0.00065413,10,-0.000354104,-1.67565,0.250244,0.23577,193.515,-0.0167797,
2,1,0,1,1,13018.6,-0.0139587,-0.0143375,21.5497,7,-0.00056877,10,-0.00030897,-1.66656,0.274044,0.215294,180.551,-0.0143375,
2,1,0,1,1,13018.6,-0.0115505,-0.0119315,21.9722,7,-0.000481669,10,-0.000262161,-1.65813,0.300525,0.196323,167.816,-0.0119315,
2,1,0,1,1,13018.6,-0.0091534,-0.00949572,22.3706,7,-0.000392933,10,-0.000212425,-1.65032,0.321654,0.183427,159.683,-0.00949572,
2,1,0,1,1,13018.6,-0.00675629,-0.00713208,22.7222,7,-0.000302705,10,-0.000162056,-1.64355,0.347557,0.169756,150.299,-0.00713208,
2,1,0,1,1,13018.6,-0.00435919,-0.00474828,23.081,7,-0.000211048,10,-0.000109595,-1.63675,0.401465,0.146962,131.755,-0.00474828,
2,1,0,1,1,13018.6,-0.00195376,-0.00232419,23.4162,7,-0.00011799,10,-5.44236e-05,-1.63048, , , ,-0.00232419,
2,1,0,0,1,13018.6,-7.54729e-05,-0.000287149,23.5839,7,-4.50518e-05,10,-6.77209e-06,-1.62738, , , ,-0.0002871489,