File: Figure_codes/Fig_3-5/rawdata_trumpetplot_data/after 10th/20221101_1-115_003_TrumpetPlot_ParaChange_from10_every3_09_CV_C01_24.csv
mode,ox/red,error,control changes,counter inc.,time/s,control/V,Ewe/V,<I>/mA,cycle number,(Q-Qo)/C,I Range,P/W,log(|I|),Tafel slope mV/dec,alpha_eff,dI/d(E-IR),E-IR/V,
2,0,0,0,0,48465.6,2.44065e-05,-0.000401673,-5.24871,25,0.0000000E+000,10,2.10826e-06,-2.27995, , , ,-0.000401673,
2,0,0,1,0,48465.7,0.00179726,0.00141951,-3.12964,25,-7.11646e-05,10,-4.44254e-06,-2.50451, , , ,0.00141951,
2,0,0,1,0,48465.7,0.00379485,0.0034299,-1.62847,25,-0.000117303,10,-5.58549e-06,-2.78822,-0.00544118,-10.8432,632.976,0.0034299,
2,0,0,1,0,48465.7,0.00579244,0.00547515,-0.562515,25,-0.000138386,10,-3.07985e-06,-3.24987,-0.00508641,-11.5995,467.597,0.00547515,
2,1,0,1,0,48465.7,0.00779002,0.00747143,0.26134,25,-0.00014081,10,1.95258e-06,-3.58279,0.0193068,3.05591,367.058,0.00747143,
2,1,0,1,0,48465.7,0.00978761,0.00947775,0.906671,25,-0.000128654,10,8.5932e-06,-3.04255,0.00547354,10.7791,288.139,0.00947775,
2,1,0,1,0,48465.8,0.0117852,0.0114971,1.42129,25,-0.000104964,10,1.63408e-05,-2.84732,0.0130153,4.53313,233.755,0.0114971,
2,1,0,1,0,48465.8,0.0137828,0.0134978,1.84638,25,-7.19811e-05,10,2.49221e-05,-2.73368,0.0208937,2.82381,196.449,0.0134978,
2,1,0,1,0,48465.8,0.0157804,0.0154634,2.20046,25,-3.11915e-05,10,3.40265e-05,-2.65749,0.0297949,1.98021,166.869,0.0154634,
2,1,0,1,0,48465.8,0.017778,0.0174483,2.50559,25,1.60181e-05,10,4.37183e-05,-2.60109,0.0404567,1.45835,140.548,0.0174483,
2,1,0,1,0,48465.8,0.0197755,0.0194408,2.75949,25,6.89111e-05,10,5.36467e-05,-2.55917,0.0531178,1.11074,118.603,0.0194408,
2,1,0,1,0,48465.9,0.0217731,0.0214496,2.98015,25,0.000126558,10,6.3923e-05,-2.52576,0.0647402,0.911334,105.49,0.02144957,
2,1,0,1,0,48465.9,0.0237707,0.0234512,3.18254,25,0.000188426,10,7.46346e-05,-2.49723,0.0764492,0.771754,95.3917,0.02345125,
2,1,0,1,0,48465.9,0.0257683,0.0254504,3.3618,25,0.000253706,10,8.5559e-05,-2.47343,0.0912777,0.646379,84.4606,0.0254504,
2,1,0,1,0,48465.9,0.0277659,0.0274394,3.51938,25,0.000322727,10,9.65695e-05,-2.45353,0.105213,0.560769,76.8673,0.02743935,
2,1,0,1,0,48465.9,0.0297635,0.0294244,3.66727,25,0.000394845,10,0.000107907,-2.43566,0.119125,0.495278,70.7164,0.0294244,
2,1,0,1,0,48466,0.0317611,0.031426,3.8013,25,0.000469779,10,0.00011946,-2.42007,0.129171,0.456759,67.7431,0.031426,
2,1,0,1,0,48466,0.0337586,0.0333978,3.93644,25,0.000547028,10,0.000131469,-2.4049,0.139346,0.423406,64.965,0.0333978,
2,1,0,1,0,48466,0.0357562,0.0354796,4.06464,25,0.000627265,10,0.000144212,-2.39098,0.154895,0.380904,60.2765,0.0354796,
2,1,0,1,0,48466,0.0377538,0.0373638,4.1755,25,0.000709894,10,0.000156013,-2.37929,0.163183,0.361558,58.97,0.0373638,
2,1,0,1,0,48466,0.0397514,0.0393999,4.29583,25,0.000794784,10,0.000169255,-2.36695,0.16456,0.358531,60.1067,0.0393999,
2,1,0,1,0,48466.1,0.041749,0.0414009,4.41815,25,0.000881633,10,0.000182915,-2.35476,0.184629,0.31956,54.9747,0.0414009,
2,1,0,1,0,48466.1,0.0437466,0.0435182,4.52223,25,0.000971191,10,0.0001968,-2.34465,0.203964,0.289267,51.0233,0.0435182,
2,1,0,1,0,48466.1,0.0457442,0.0454105,4.62274,25,0.00106279,10,0.000209921,-2.3351,0.200788,0.293842,53.0464,0.0454105,
2,1,0,1,0,48466.1,0.0477418,0.0474494,4.73076,25,0.00115658,10,0.000224472,-2.32507,0.196136,0.300812,55.5619,0.0474494,
2,1,0,1,0,48466.1,0.0497484,0.0494036,4.8446,25,0.00125248,10,0.000239341,-2.31474,0.211353,0.279153,52.6643,0.0494036,
2,1,0,1,0,48466.2,0.0517369,0.0513996,4.9388,25,0.00134997,10,0.000253853,-2.30638,0.231083,0.25532,49.2455,0.0513996,
2,1,0,1,0,48466.2,0.0537345,0.053393,5.04106,25,0.00144991,10,0.000269158,-2.29748,0.231046,0.255361,50.212,0.053393,
2,1,0,1,0,48466.2,0.0557321,0.0553918,5.13925,25,0.00155193,10,0.000284673,-2.2891,0.246563,0.23929,47.9663,0.0553918,
2,1,0,1,0,48466.2,0.0577206,0.0573878,5.23268,25,0.00165531,10,0.000300292,-2.28128,0.245103,0.240716,49.1953,0.0573878,
2,1,0,1,0,48466.2,0.0597273,0.0593772,5.33532,25,0.00176126,10,0.000316796,-2.27284,0.249192,0.236765,49.2537,0.0593772,
2,1,0,1,0,48466.3,0.0617249,0.0613792,5.42927,25,0.0018691,10,0.000333244,-2.26526,0.283996,0.20775,43.9741,0.0613792,
2,1,0,1,0,48466.3,0.0637225,0.0634172,5.51297,25,0.00197871,10,0.000349617,-2.25861,0.283504,0.20811,44.8195,0.0634172,
2,1,0,1,0,48466.3,0.06572,0.0653767,5.60844,25,0.00209013,10,0.000366661,-2.25116,0.271623,0.217213,47.5276,0.0653767,
2,1,0,1,0,48466.3,0.0677176,0.0673782,5.70123,25,0.00220298,10,0.000384139,-2.24403,0.296317,0.199111,44.2685,0.0673782,
2,1,0,1,0,48466.3,0.0697152,0.0693923,5.7862,25,0.0023181,10,0.000401518,-2.23761,0.310279,0.190152,42.9511,0.0693923,
2,1,0,1,0,48466.4,0.0717128,0.0714276,5.87516,25,0.00243487,10,0.000419649,-2.23098,0.321282,0.183639,42.0703,0.0714276,
2,1,0,1,0,48466.4,0.0737104,0.0734007,5.95483,25,0.00255335,10,0.000437089,-2.22513,0.324616,0.181753,42.2618,0.0734007,
2,1,0,1,0,48466.4,0.075708,0.0753676,6.04167,25,0.00267295,10,0.000455346,-2.21884,0.340637,0.173205,40.8026,0.0753676,
2,1,0,1,0,48466.4,0.0777056,0.0774073,6.11832,25,0.00279467,10,0.000473603,-2.21337,0.373892,0.157799,37.6694,0.0774073,
2,1,0,1,0,48466.4,0.0797031,0.0793694,6.19241,25,0.00291799,10,0.000491488,-2.20814,0.38221,0.154366,37.3059,0.0793694,
2,1,0,1,0,48466.5,0.0817007,0.0813988,6.26722,25,0.00304276,10,0.000510144,-2.20293,0.384506,0.153444,37.5288,0.0813988,
2,1,0,1,0,48466.5,0.0836983,0.0833547,6.34198,25,0.00316839,10,0.000528634,-2.19778,0.414519,0.142333,35.1984,0.0833547,
2,1,0,1,0,48466.5,0.0856959,0.0853518,6.40636,25,0.00329605,10,0.000546795,-2.19339,0.450332,0.131014,32.7615,0.0853518,
2,1,0,1,0,48466.5,0.0876935,0.0873614,6.47324,25,0.00342504,10,0.000565511,-2.18888,0.473119,0.124704,31.486,0.0873614,
2,1,0,1,0,48466.5,0.0896911,0.0893768,6.53309,25,0.00355529,10,0.000583907,-2.18488,0.452875,0.130279,33.2532,0.08937677,
2,1,0,1,0,48466.6,0.0916887,0.0914062,6.60774,25,0.00368622,10,0.000603988,-2.17995,0.425351,0.138709,35.7512,0.0914062,
2,1,0,1,0,48466.6,0.0936863,0.0933713,6.6759,25,0.00381924,10,0.000623337,-2.17549,0.470525,0.125392,32.6488,0.09337128,
2,1,0,1,0,48466.6,0.0956838,0.0953347,6.736,25,0.00395353,10,0.000642175,-2.1716,0.452641,0.130346,34.3036,0.0953347,
2,1,0,1,0,48466.6,0.0976814,0.0973189,6.81132,25,0.00408917,10,0.00066287,-2.16677,0.401265,0.147035,39.1,0.09731888,
2,1,0,1,0,48466.6,0.099679,0.0993312,6.89227,25,0.00422565,10,0.000684617,-2.16164,0.41496,0.142183,38.2229,0.0993312,
2,1,0,1,0,48466.7,0.101677,0.101364,6.96592,25,0.00436444,10,0.00070609,-2.15702,0.394591,0.149522,40.6964,0.101364,
2,1,0,1,0,48466.7,0.103674,0.103368,7.05656,25,0.00450485,10,0.000729424,-2.15141,0.33002,0.178777,49.2772,0.103368,
2,1,0,1,0,48466.7,0.105672,0.10531,7.16039,25,0.00464726,10,0.000754062,-2.14506,0.298303,0.197785,55.3114,0.10531,
2,1,0,1,0,48466.7,0.107667,0.107334,7.27589,25,0.00479105,10,0.000780948,-2.13811,0.296571,0.198941,56.482,0.107334,
2,1,0,1,0,48466.7,0.109667,0.109384,7.39048,25,0.00493787,10,0.000808399,-2.13133,0.285756,0.20647,59.577,0.109384,
2,1,0,1,0,48466.8,0.111665,0.111308,7.51266,25,0.00508709,10,0.000836217,-2.12421,0.268896,0.219416,64.3694,0.111308,
2,1,0,1,0,48466.8,0.113662,0.113339,7.64506,25,0.00523888,10,0.000866482,-2.11662,0.273918,0.215393,64.2224,0.113339,
2,1,0,1,0,48466.8,0.11566,0.115294,7.76869,25,0.00539319,10,0.000895686,-2.10965,0.264001,0.223484,67.8516,0.115294,
2,1,0,1,0,48466.8,0.117657,0.117324,7.91546,25,0.00554951,10,0.000928672,-2.10152,0.256809,0.229742,70.9384,0.117324,
2,1,0,1,0,48466.8,0.119655,0.119355,8.05672,25,0.00570946,10,0.000961607,-2.09384,0.26854,0.219707,69.0517,0.119355,
2,1,0,1,0,48466.9,0.121652,0.121336,8.19247,25,0.00587215,10,0.000994038,-2.08659,0.284226,0.207581,66.3382,0.121336,
2,1,0,1,0,48466.9,0.12365,0.123354,8.32202,25,0.00603756,10,0.00102655,-2.07977,0.289909,0.203512,66.1105,0.123354,
2,1,0,1,0,48466.9,0.125648,0.125327,8.45634,25,0.00620481,10,0.00105981,-2.07282,0.305272,0.193271,63.7127,0.125327,
2,1,0,1,0,48466.9,0.127645,0.127293,8.57299,25,0.00637529,10,0.00109128,-2.06687,0.351925,0.167649,56.0556,0.1272929,
2,1,0,1,0,48466.9,0.129643,0.12931,8.6796,25,0.00654802,10,0.00112236,-2.0615,0.376993,0.156502,53.0146,0.12931,
2,1,0,1,0,48467,0.13164,0.131342,8.78763,25,0.00672293,10,0.00115418,-2.05613,0.407506,0.144783,49.6005,0.131342,
2,1,0,1,0,48467,0.133638,0.1333,8.8775,25,0.00689896,10,0.00118337,-2.05171,0.461912,0.12773,44.2378,0.1333,
2,1,0,1,0,48467,0.135636,0.135276,8.96167,25,0.00707758,10,0.0012123,-2.04761,0.516884,0.114146,39.9014,0.135276,
2,1,0,1,0,48467,0.137633,0.1373,9.03712,25,0.00725779,10,0.0012408,-2.04397,0.576697,0.102307,36.0704,0.1373,
2,1,0,1,0,48467,0.139631,0.139301,9.10686,25,0.00743944,10,0.00126859,-2.04063,0.637737,0.0925146,32.8661,0.1393009,
2,1,0,1,0,48467.1,0.141628,0.141306,9.16877,25,0.00762145,10,0.0012956,-2.03769,0.792703,0.0744289,26.6067,0.141306,
2,1,0,1,0,48467.1,0.143626,0.143289,9.21296,25,0.00780547,10,0.00132012,-2.0356,1.18185,0.0499215,17.9333,0.143289,
2,1,0,1,0,48467.1,0.145624,0.145317,9.24071,25,0.00799022,10,0.00134283,-2.03429,2.99299,0.0197128,7.09881,0.145317,
2,1,0,1,0,48467.1,0.147621,0.147329,9.24164,25,0.00817521,10,0.00136156,-2.03425,-7.15318,-0.00824808,-2.97265,0.147329,
2,1,0,1,0,48467.1,0.149619,0.149282,9.22892,25,0.00835919,10,0.00137771,-2.03485,-1.18364,-0.0498462,-17.9093,0.149282,
2,1,0,1,0,48467.2,0.151616,0.15128,9.17089,25,0.0085434,10,0.00138737,-2.03759,-0.536916,-0.109887,-39.2389,0.15128,
2,1,0,1,0,48467.2,0.153614,0.153308,9.07097,25,0.00872605,10,0.00139065,-2.04235,-0.366309,-0.161066,-56.9268,0.153308,
2,1,0,1,0,48467.2,0.155611,0.15529,8.94259,25,0.00890642,10,0.0013887,-2.04854,-0.275144,-0.214433,-74.6559,0.15529,
2,1,0,1,0,48467.2,0.157609,0.157306,8.77247,25,0.00908283,10,0.00137996,-2.05688,-0.198745,-0.296863,-101.259,0.157306,
2,1,0,1,0,48467.2,0.159607,0.159261,8.54054,25,0.00925618,10,0.00136017,-2.06851,-0.159783,-0.36925,-122.845,0.159261,
2,1,0,1,0,48467.3,0.161604,0.161303,8.28145,25,0.00942458,10,0.00133582,-2.08189,-0.140188,-0.420864,-135.73,0.161303,
2,1,0,1,0,48467.3,0.163602,0.163296,7.99278,25,0.0095875,10,0.00130519,-2.0973,-0.122172,-0.482925,-150.373,0.163296,
2,1,0,1,0,48467.3,0.165606,0.165281,7.68327,25,0.00974438,10,0.0012699,-2.11445,-0.112207,-0.525814,-157.497,0.165281,
2,1,0,1,0,48467.3,0.167597,0.167278,7.3657,25,0.00989419,10,0.00123212,-2.13279,-0.106507,-0.553952,-159.14,0.167278,
2,1,0,1,0,48467.3,0.169595,0.169272,7.04812,25,0.0100384,10,0.00119305,-2.15193,-0.103119,-0.572152,-157.344,0.169272,
2,1,0,1,0,48467.4,0.171592,0.171275,6.73671,25,0.0101764,10,0.00115383,-2.17155,-0.102973,-0.572964,-150.782,0.171275,
2,1,0,1,0,48467.4,0.173581,0.173259,6.44696,25,0.0103077,10,0.00111699,-2.19064,-0.108994,-0.541312,-136.437,0.173259,
2,1,0,1,0,48467.4,0.175587,0.175299,6.18777,25,0.0104342,10,0.00108471,-2.20847,-0.113233,-0.521048,-125.911,0.175299,
2,1,0,1,0,48467.4,0.177585,0.177257,5.94358,25,0.0105556,10,0.00105354,-2.22595,-0.115008,-0.513008,-119.139,0.177257,
2,1,0,1,0,48467.4,0.179582,0.179227,5.71973,25,0.0106722,10,0.00102513,-2.24262,-0.12691,-0.464897,-103.995,0.179227,
2,1,0,1,0,48467.5,0.18158,0.181281,5.52515,25,0.0107847,10,0.0010016,-2.25766,-0.139349,-0.423399,-91.4362,0.181281,
2,1,0,1,0,48467.5,0.183578,0.183255,5.35147,25,0.0108931,10,0.000980684,-2.27153,-0.146281,-0.403333,-84.3056,0.183255,
2,1,0,1,0,48467.5,0.185575,0.185255,5.19006,25,0.0109986,10,0.000961486,-2.28483,-0.159007,-0.371052,-75.297,0.185255,
2,1,0,1,0,48467.5,0.187573,0.187247,5.05085,25,0.0111011,10,0.000945758,-2.29664,-0.177001,-0.333332,-65.7723,0.1872474,
2,1,0,1,0,48467.5,0.18957,0.189298,4.92416,25,0.0112009,10,0.000932134,-2.30767,-0.191821,-0.307578,-59.1914,0.189298,
2,1,0,1,0,48467.6,0.191568,0.191263,4.81317,25,0.011298,10,0.00092058,-2.31757,-0.205793,-0.286695,-53.9018,0.191263,
2,1,0,1,0,48467.6,0.193566,0.193228,4.71233,25,0.0113934,10,0.000910554,-2.32676,-0.232277,-0.254007,-46.7773,0.1932279,
2,1,0,1,0,48467.6,0.195563,0.195274,4.62555,25,0.011487,10,0.000903248,-2.33484,-0.242154,-0.243646,-43.9766,0.195274,
2,1,0,1,0,48467.6,0.197561,0.197182,4.53846,25,0.0115788,10,0.000894901,-2.34309,-0.279901,-0.210789,-37.4378,0.197182,
2,1,0,1,0,48467.6,0.199558,0.199239,4.47709,25,0.0116687,10,0.000892012,-2.349,-0.313723,-0.188064,-32.8233,0.199239,
2,1,0,1,0,48467.7,0.201556,0.201204,4.40642,25,0.0117576,10,0.000886591,-2.35591,-0.312809,-0.188614,-32.4792,0.201204,
2,1,0,1,0,48467.7,0.203553,0.203208,4.3482,25,0.0118454,10,0.000883587,-2.36169,-0.342909,-0.172057,-29.1945,0.2032077,
2,1,0,1,0,48467.7,0.205551,0.205206,4.28961,25,0.0119319,10,0.000880251,-2.36758,-0.441512,-0.133632,-22.4398,0.205206,
2,1,0,1,0,48467.7,0.207549,0.207244,4.25761,25,0.0120171,10,0.000882367,-2.37083,-0.499016,-0.118233,-19.6111,0.207244,
2,1,0,1,0,48467.7,0.209546,0.20922,4.21087,25,0.012102,10,0.000881,-2.37563,-0.403054,-0.146382,-24.0478,0.20922,
2,1,0,1,0,48467.8,0.211544,0.211238,4.16159,25,0.0121859,10,0.000879084,-2.38074,-0.471946,-0.125014,-20.349,0.211238,
2,1,0,1,0,48467.8,0.213541,0.213146,4.13099,25,0.0122689,10,0.000880504,-2.38395,-0.643722,-0.0916545,-14.7807,0.213146,
2,1,0,1,0,48467.8,0.215539,0.215211,4.10286,25,0.0123509,10,0.00088298,-2.38691,-0.566085,-0.104225,-16.6642,0.215211,
2,1,0,1,0,48467.8,0.217537,0.217232,4.0629,25,0.0124327,10,0.000882592,-2.39116,-0.553339,-0.106625,-16.9311,0.217232,
2,1,0,1,0,48467.8,0.219534,0.219229,4.03482,25,0.0125138,10,0.000884551,-2.39418,-0.687102,-0.0858679,-13.5249,0.219229,
2,1,0,1,0,48467.9,0.221532,0.221219,4.00897,25,0.0125945,10,0.000886862,-2.39697,-0.734,-0.0803815,-12.5794,0.221219,
2,1,0,1,0,48467.9,0.223525,0.223172,3.98522,25,0.0126742,10,0.000889391,-2.39955,-0.837033,-0.0704871,-10.968,0.223172,
2,1,0,1,0,48467.9,0.225527,0.225203,3.96528,25,0.0127538,10,0.000892992,-2.40173,-0.931137,-0.0633634,-9.806,0.225203,
2,1,0,1,0,48467.9,0.227525,0.227204,3.94569,25,0.0128331,10,0.000896475,-2.40388,-0.743112,-0.0793958,-12.2115,0.227204,
2,1,0,1,0,48467.9,0.229522,0.229169,3.91684,25,0.0129118,10,0.00089762,-2.40706,-0.734994,-0.0802727,-12.2838,0.229169,
2,1,0,1,0,48468,0.23152,0.231209,3.89648,25,0.0129902,10,0.000900904,-2.40933,-1.30369,-0.0452562,-6.89343,0.231209,
2,1,0,1,0,48468,0.233517,0.233195,3.88909,25,0.0130679,10,0.000906917,-2.41015,-1.5361,-0.0384089,-5.82335,0.233195,
2,1,0,1,0,48468,0.235515,0.235191,3.8733,25,0.0131457,10,0.000910966,-2.41192,-0.931897,-0.0633117,-9.56224,0.235191,
2,1,0,1,0,48468,0.237512,0.23718,3.85099,25,0.013223,10,0.000913378,-2.41443,-1.01926,-0.0578854,-8.71058,0.23718,
2,1,0,1,0,48468,0.23951,0.239203,3.83836,25,0.0133001,10,0.000918145,-2.41585,-1.69347,-0.0348397,-5.22182,0.239203,
2,1,0,1,0,48468.1,0.241508,0.241204,3.82997,25,0.0133766,10,0.000923805,-2.4168,-1.37979,-0.0427602,-6.3842,0.241204,
2,1,0,1,0,48468.1,0.243505,0.243184,3.81294,25,0.0134532,10,0.000927245,-2.41874,-1.36793,-0.0431308,-6.4251,0.243184,
2,1,0,1,0,48468.1,0.245503,0.245219,3.80418,25,0.0135295,10,0.000932856,-2.41974,-1.64335,-0.0359022,-5.32746,0.245219,
2,1,0,1,0,48468.1,0.2475,0.247208,3.7915,25,0.0136056,10,0.000937288,-2.42119,-1.4674,-0.0402071,-5.95094,0.247208,
2,1,0,1,0,48468.1,0.249498,0.249159,3.78073,25,0.013681,10,0.000942003,-2.42242,-1.42805,-0.0413152,-6.09377,0.249159,
2,1,0,1,0,48468.2,0.251496,0.251203,3.76715,25,0.0137567,10,0.000946321,-2.42399,-1.52645,-0.0386518,-5.68576,0.251203,
2,1,0,1,0,48468.2,0.253493,0.253192,3.7578,25,0.0138321,10,0.000951445,-2.42507,-1.46623,-0.0402394,-5.89758,0.253192,
2,1,0,1,0,48468.2,0.255491,0.255177,3.74372,25,0.0139072,10,0.000955311,-2.4267,-1.68009,-0.0351172,-5.13612,0.255177,
2,1,0,1,0,48468.2,0.257488,0.257166,3.73739,25,0.0139818,10,0.00096113,-2.42743,-2.80185,-0.0210575,-3.07151,0.257166,
2,1,0,1,0,48468.2,0.259486,0.259224,3.73129,25,0.0140567,10,0.000967238,-2.42814,-1.57214,-0.0375285,-5.45788,0.259224,
2,1,0,1,0,48468.3,0.261484,0.261159,3.7156,25,0.0141313,10,0.000970361,-2.42997,-1.44963,-0.0407001,-5.90812,0.261159,
2,1,0,1,0,48468.3,0.263481,0.263195,3.70783,25,0.0142058,10,0.00097588,-2.43088,-3.30189,-0.0178686,-2.58749,0.263195,
2,1,0,1,0,48468.3,0.265479,0.265141,3.70529,25,0.0142797,10,0.000982425,-2.43118,-2.13517,-0.0276324,-3.99002,0.265141,
2,1,0,1,0,48468.3,0.267476,0.267153,3.69203,25,0.0143538,10,0.000986338,-2.43273,-1.28421,-0.0459426,-6.61972,0.267153,
2,1,0,1,0,48468.3,0.269474,0.269158,3.6787,25,0.0144277,10,0.000990152,-2.43431,-1.87956,-0.0313903,-4.51194,0.269158,
2,1,0,1,0,48468.4,0.271471,0.271146,3.67402,25,0.0145014,10,0.000996195,-2.43486,-4.67765,-0.0126132,-1.80907,0.271146,
2,1,0,1,0,48468.4,0.273469,0.273163,3.67146,25,0.0145746,10,0.00100291,-2.43516,-1.65865,-0.0355711,-5.08634,0.273163,
2,1,0,1,0,48468.4,0.275467,0.275116,3.65382,25,0.014648,10,0.00100523,-2.43725,-1.58347,-0.0372598,-5.32347,0.275116,
2,1,0,1,0,48468.4,0.277464,0.277118,3.6504,25,0.0147212,10,0.00101159,-2.43766,-2.69116,-0.0219236,-3.12081,0.277118,
2,1,0,1,0,48468.4,0.279462,0.279192,3.6411,25,0.0147943,10,0.00101657,-2.43877,-2.44299,-0.0241507,-3.43408,0.279192,
2,1,0,1,0,48468.5,0.281464,0.281146,3.63657,25,0.0148672,10,0.00102241,-2.43931,-2.03011,-0.0290625,-4.12048,0.281146,
2,1,0,1,0,48468.5,0.283457,0.283181,3.62467,25,0.0149396,10,0.00102644,-2.44073,-1.897,-0.0311018,-4.4035,0.283181,
2,1,0,1,0,48468.5,0.285455,0.285108,3.61912,25,0.0150122,10,0.00103184,-2.4414,-1.78243,-0.0331009,-4.67065,0.285108,
2,1,0,1,0,48468.5,0.287452,0.287082,3.60645,25,0.0150846,10,0.00103535,-2.44292,-1.48123,-0.0398319,-5.60854,0.287082,
2,1,0,1,0,48468.5,0.28945,0.289104,3.59671,25,0.0151568,10,0.00103982,-2.44409,-2.6003,-0.0226897,-3.18781,0.289104,
2,1,0,1,0,48468.6,0.291447,0.291141,3.59351,25,0.0152286,10,0.00104622,-2.44448,-1.83035,-0.0322343,-4.51334,0.291141,
2,1,0,1,0,48468.6,0.293445,0.293095,3.5787,25,0.0153005,10,0.0010489,-2.44627,-1.66258,-0.035487,-4.96298,0.293095,
2,1,0,1,0,48468.6,0.295442,0.295166,3.57353,25,0.0153722,10,0.00105478,-2.4469,-2.26059,-0.0260994,-3.63773,0.295166,
2,1,0,1,0,48468.6,0.29744,0.297113,3.56408,25,0.0154437,10,0.00105893,-2.44805,-1.98774,-0.0296819,-4.13008,0.297113,
2,1,0,1,0,48468.6,0.299438,0.299125,3.55718,25,0.0155148,10,0.00106404,-2.44889,-0.0393666,-1.49873,-194.999,0.299125,
2,1,0,1,0,48468.7,0.299737,0.299422,3.11372,25,0.015544,10,0.000932318,-2.50672,0.00434304,13.585,1239,0.299422,
2,1,0,1,0,48468.7,0.29774,0.297411,1.43391,25,0.015587,10,0.00042646,-2.84348,0.00506773,11.6423,654.526,0.297411,
2,1,0,1,0,48468.7,0.295742,0.295446,0.511342,25,0.0156055,10,0.000151074,-3.29129,0.00331489,17.7985,380.243,0.295446,
2,0,0,1,0,48468.7,0.293745,0.293406,-0.0888096,25,0.0156092,10,-2.60573e-05,-4.05154,0.520948,0.113255,250.336,0.293406,
2,0,0,1,0,48468.7,0.291747,0.291397,-0.502272,25,0.0156029,10,-0.000146361,-3.29906,-0.00416662,-14.1602,180.304,0.291397,
2,0,0,1,0,48468.8,0.289754,0.289406,-0.810059,25,0.0155897,10,-0.000234436,-3.09148,-0.0127072,-4.64302,133.624,0.2894063,
2,0,0,1,0,48468.8,0.287752,0.287399,-1.03654,25,0.015571,10,-0.0002979,-2.98442,-0.0225721,-2.61384,102.027,0.287399,
2,0,0,1,0,48468.8,0.285754,0.285409,-1.21791,25,0.0155483,10,-0.000347603,-2.91438,-0.0335648,-1.75779,81.6634,0.285409,
2,0,0,1,0,48468.8,0.283757,0.283453,-1.3588,25,0.0155224,10,-0.000385156,-2.86684,-0.0470828,-1.25311,65.7858,0.283453,
2,0,0,1,0,48468.8,0.281759,0.28141,-1.48101,25,0.0154939,10,-0.00041677,-2.82944,-0.0611626,-0.964641,55.2439,0.28141,
2,0,0,1,0,48468.9,0.279761,0.279418,-1.58168,25,0.0154632,10,-0.00044195,-2.80088,-0.0739082,-0.798287,49.1095,0.279418,
2,0,0,1,0,48468.9,0.277764,0.277447,-1.67563,25,0.0154305,10,-0.000464897,-2.77582,-0.0891824,-0.661566,43.0082,0.277447,
2,0,0,1,0,48468.9,0.275766,0.27544,-1.75279,25,0.0153961,10,-0.000482787,-2.75627,-0.113179,-0.521299,35.5177,0.27544,
2,0,0,1,0,48468.9,0.273769,0.273441,-1.8179,25,0.0153603,10,-0.000497089,-2.74043,-0.123822,-0.476491,33.8226,0.273441,
2,0,0,1,0,48468.9,0.271771,0.271487,-1.88648,25,0.0153233,10,-0.000512154,-2.72435,-0.129119,-0.456944,33.601,0.271487,
2,0,0,1,0,48469,0.269774,0.269447,-1.95208,25,0.0152848,10,-0.000525984,-2.7095,-0.160456,-0.367702,27.8663,0.269447,
2,0,0,1,0,48469,0.267776,0.267473,-1.99833,25,0.0152452,10,-0.0005345,-2.69933,-0.189316,-0.311648,24.3259,0.267473,
2,0,0,1,0,48469,0.265778,0.265472,-2.04879,25,0.0152047,10,-0.000543896,-2.6885,-0.183263,-0.321941,25.7519,0.265472,
2,0,0,1,0,48469,0.263781,0.263458,-2.10174,25,0.0151633,10,-0.000553719,-2.67742,-0.206446,-0.285789,23.3733,0.263458,
2,0,0,1,0,48469,0.261783,0.261435,-2.14315,25,0.0151208,10,-0.000560294,-2.66895,-0.242942,-0.242856,20.302,0.261435,
2,0,0,1,0,48469.1,0.259786,0.259463,-2.18285,25,0.0150775,10,-0.000566367,-2.66098,-0.241362,-0.244446,20.836,0.259463,
2,0,0,1,0,48469.1,0.257788,0.257482,-2.22551,25,0.0150333,10,-0.000573029,-2.65257,-0.24241,-0.243389,21.1348,0.257482,
2,0,0,1,0,48469.1,0.25579,0.255446,-2.26773,25,0.0149885,10,-0.000579283,-2.64441,-0.291109,-0.202673,17.8871,0.255446,
2,0,0,1,0,48469.1,0.253793,0.253446,-2.29771,25,0.0149428,10,-0.000582344,-2.63871,-0.323378,-0.182449,16.3797,0.253446,
2,0,0,1,0,48469.1,0.251795,0.251439,-2.33337,25,0.0148964,10,-0.0005867,-2.63202,-0.310531,-0.189997,17.2934,0.251439,
2,0,0,1,0,48469.2,0.249798,0.249434,-2.36708,25,0.0148493,10,-0.000590431,-2.62579,-0.315215,-0.187174,17.2936,0.249434,
2,0,0,1,0,48469.2,0.2478,0.24748,-2.40183,25,0.0148018,10,-0.000594405,-2.61946,-0.322419,-0.182992,17.1481,0.2474803,
2,0,0,1,0,48469.2,0.245802,0.245442,-2.43555,25,0.0147534,10,-0.000597785,-2.6134,-0.344619,-0.171204,16.2629,0.245442,
2,0,0,1,0,48469.2,0.243805,0.243506,-2.46647,25,0.0147044,10,-0.000600599,-2.60792,-0.441483,-0.133641,12.8359,0.243506,
2,0,0,1,0,48469.2,0.241807,0.241451,-2.48677,25,0.0146547,10,-0.000600433,-2.60436,-0.405402,-0.145535,14.1705,0.2414512,
2,0,0,1,0,48469.3,0.23981,0.239477,-2.52356,25,0.0146048,10,-0.000604334,-2.59799,-0.341155,-0.172942,17.0152,0.239477,
2,0,0,1,0,48469.3,0.237812,0.237409,-2.55555,25,0.0145539,10,-0.00060671,-2.59252,-0.418774,-0.140887,14.03,0.237409,
2,0,0,1,0,48469.3,0.235815,0.235458,-2.57995,25,0.0145026,10,-0.000607468,-2.58839,-0.509129,-0.115884,11.6614,0.235458,
2,0,0,1,0,48469.3,0.233817,0.233464,-2.60155,25,0.0144507,10,-0.000607368,-2.58477,-0.444087,-0.132857,13.516,0.233464,
2,0,0,1,0,48469.3,0.231815,0.231478,-2.63374,25,0.0143983,10,-0.000609652,-2.57943,-0.393373,-0.149985,15.4062,0.231478,
2,0,0,1,0,48469.4,0.229822,0.229498,-2.66266,25,0.0143455,10,-0.000611074,-2.57468,-0.478319,-0.123349,12.8007,0.229498,
2,0,0,1,0,48469.4,0.227824,0.227503,-2.68461,25,0.014292,10,-0.000610759,-2.57112,-0.538427,-0.109578,11.4843,0.227503,
2,0,0,1,0,48469.4,0.225827,0.225518,-2.70836,25,0.014238,10,-0.000610784,-2.56729,-0.495365,-0.119104,12.5963,0.225518,
2,0,0,1,0,48469.4,0.223829,0.223478,-2.73532,25,0.0141835,10,-0.000611284,-2.56299,-0.462632,-0.127531,13.6153,0.223478,
2,0,0,1,0,48469.4,0.221831,0.221508,-2.76296,25,0.0141287,10,-0.000612017,-2.55863,-0.539087,-0.109444,11.7829,0.221508,
2,0,0,1,0,48469.5,0.219834,0.219508,-2.7821,25,0.0140732,10,-0.000610693,-2.55563,-0.537958,-0.109674,11.9275,0.219508,
2,0,0,1,0,48469.5,0.217836,0.217524,-2.81047,25,0.0140171,10,-0.000611346,-2.55122,-0.543382,-0.108579,11.8896,0.217524,
2,0,0,1,0,48469.5,0.215839,0.215508,-2.82966,25,0.0139606,10,-0.000609814,-2.54827,-0.531863,-0.110931,12.2737,0.215508,
2,0,0,1,0,48469.5,0.213841,0.213508,-2.85977,25,0.0139039,10,-0.000610583,-2.54367,-0.466836,-0.126383,14.094,0.213508,
2,0,0,1,0,48469.5,0.211843,0.211549,-2.88546,25,0.0138464,10,-0.000610415,-2.53979,-0.63462,-0.092969,10.4515,0.211549,
2,0,0,1,0,48469.6,0.209846,0.20952,-2.90145,25,0.0137884,10,-0.000607912,-2.53739,-0.673543,-0.0875964,9.93278,0.20952,
2,0,0,1,0,48469.6,0.207848,0.207504,-2.92564,25,0.0137301,10,-0.00060708,-2.53378,-0.421813,-0.139872,16.0125,0.207504,
2,0,0,1,0,48469.6,0.205851,0.205521,-2.96549,25,0.0136713,10,-0.000609469,-2.5279,-0.474086,-0.12445,14.3476,0.205521,
2,0,0,1,0,48469.6,0.203853,0.203526,-2.9827,25,0.0136117,10,-0.000607058,-2.52539,-0.695379,-0.0848458,9.88501,0.203526,
2,0,0,1,0,48469.6,0.201856,0.20151,-3.00513,25,0.0135518,10,-0.000605565,-2.52214,-0.605334,-0.0974668,11.4325,0.20151,
2,0,0,1,0,48469.6,0.199858,0.199525,-3.02845,25,0.0134914,10,-0.00060425,-2.51878,-0.459749,-0.128331,15.203,0.199525,
2,0,0,1,0,48469.7,0.19786,0.197499,-3.06611,25,0.0134306,10,-0.000605555,-2.51341,-0.534428,-0.110398,13.1617,0.197499,
2,0,0,1,0,48469.7,0.195863,0.195507,-3.08133,25,0.0133692,10,-0.000602421,-2.51126,-0.613878,-0.0961102,11.5862,0.195507,
2,0,0,1,0,48469.7,0.193865,0.193549,-3.11188,25,0.0133072,10,-0.000602301,-2.50698,-0.515478,-0.114457,13.8878,0.193549,
2,0,0,1,0,48469.7,0.191868,0.191504,-3.13692,25,0.0132447,10,-0.000600733,-2.5035,-0.505879,-0.116629,14.2948,0.191504,
2,0,0,1,0,48469.7,0.18987,0.189523,-3.16943,25,0.0131819,10,-0.00060068,-2.49902,-0.548853,-0.107497,13.2698,0.189523,
2,0,0,1,0,48469.8,0.187872,0.187555,-3.18932,25,0.0131182,10,-0.000598174,-2.4963,-0.588365,-0.100278,12.5005,0.187555,
2,0,0,1,0,48469.8,0.185875,0.185556,-3.21902,25,0.0130541,10,-0.000597308,-2.49228,-0.592969,-0.0994993,12.4815,0.185556,
2,0,0,1,0,48469.8,0.183877,0.183545,-3.23938,25,0.0129894,10,-0.000594571,-2.48954,-0.462888,-0.127461,16.1738,0.183545,
2,0,0,1,0,48469.8,0.18188,0.181536,-3.28404,25,0.0129244,10,-0.000596171,-2.48359,-0.412654,-0.142977,18.2794,0.181536,
2,0,0,1,0,48469.8,0.179882,0.179532,-3.31273,25,0.0128583,10,-0.000594741,-2.47981,-0.568346,-0.10381,13.4133,0.179532,
2,0,0,1,0,48469.9,0.177885,0.177536,-3.33769,25,0.0127917,10,-0.00059256,-2.47655,-0.504831,-0.116871,15.2483,0.1775361,
2,0,0,1,0,48469.9,0.175887,0.175534,-3.37369,25,0.0127245,10,-0.000592198,-2.47189,-0.412846,-0.142911,18.8235,0.175534,
2,0,0,1,0,48469.9,0.173896,0.173558,-3.41257,25,0.012657,10,-0.000592279,-2.46692,-0.405186,-0.145612,19.3891,0.173558,
2,0,0,1,0,48469.9,0.171892,0.171579,-3.45039,25,0.0125882,10,-0.000592012,-2.46213,-0.422031,-0.1398,18.8231,0.171579,
2,0,0,1,0,48469.9,0.169894,0.169566,-3.48771,25,0.0125188,10,-0.000591397,-2.45746,-0.388934,-0.151697,20.6699,0.169566,
2,0,0,1,0,48470,0.167897,0.167596,-3.53271,25,0.0124485,10,-0.000592067,-2.45189,-0.365909,-0.161242,22.2257,0.167596,
2,0,0,1,0,48470,0.165899,0.16557,-3.57654,25,0.0123773,10,-0.000592165,-2.44654,-0.352377,-0.167434,23.3915,0.1655695,
2,0,0,1,0,48470,0.163901,0.163557,-3.62718,25,0.0123056,10,-0.000593251,-2.44043,-0.320479,-0.1841,26.0662,0.163557,
2,0,0,1,0,48470,0.161904,0.161606,-3.67986,25,0.0122324,10,-0.000594686,-2.43417,-0.299663,-0.196888,28.3011,0.161606,
2,0,0,1,0,48470,0.159906,0.159581,-3.73972,25,0.0121582,10,-0.000596787,-2.42716,-0.2911,-0.202679,29.5722,0.159581,
2,0,0,1,0,48470.1,0.157909,0.157611,-3.798,25,0.0120828,10,-0.000598605,-2.42044,-0.264474,-0.223084,33.131,0.157611,
2,0,0,1,0,48470.1,0.155911,0.155592,-3.87188,25,0.0120064,10,-0.000602432,-2.41208,-0.240288,-0.245538,37.108,0.155592,
2,0,0,1,0,48470.1,0.153913,0.153573,-3.94784,25,0.011928,10,-0.000606281,-2.40364,-0.2353,-0.250744,38.6456,0.153573,
2,0,0,1,0,48470.1,0.151916,0.151565,-4.02751,25,0.0118482,10,-0.000610427,-2.39496,-0.207628,-0.284162,44.77,0.1515646,
2,0,0,1,0,48470.1,0.149918,0.149561,-4.12745,25,0.0117665,10,-0.000617305,-2.38432,-0.1781,-0.331274,53.4407,0.149561,
2,0,0,1,0,48470.2,0.147921,0.147562,-4.24139,25,0.0116832,10,-0.000625869,-2.37249,-0.16957,-0.347939,57.5809,0.1475624,
2,0,0,1,0,48470.2,0.145923,0.145601,-4.35549,25,0.0115971,10,-0.000634162,-2.36096,-0.162053,-0.364078,62.012,0.145601,
2,0,0,1,0,48470.2,0.143926,0.143559,-4.48962,25,0.0115086,10,-0.000644527,-2.34779,-0.139516,-0.42289,74.3081,0.143559,
2,0,0,1,0,48470.2,0.141928,0.141602,-4.6526,25,0.0114171,10,-0.000658818,-2.3323,-0.123767,-0.476704,86.6932,0.141602,
2,0,0,1,0,48470.2,0.13993,0.139583,-4.83435,25,0.0113226,10,-0.000674793,-2.31566,-0.121655,-0.484979,91.4958,0.139583,
2,0,0,1,0,48470.3,0.137933,0.137584,-5.02024,25,0.0112241,10,-0.000690705,-2.29928,-0.117681,-0.501356,98.4144,0.137584,
2,0,0,1,0,48470.3,0.135935,0.135559,-5.23041,25,0.0111215,10,-0.000709027,-2.28146,-0.11274,-0.523328,106.819,0.135559,
2,0,0,1,0,48470.3,0.133938,0.1336,-5.44577,25,0.0110147,10,-0.000727557,-2.26394,-0.106421,-0.554402,118.144,0.1336,
2,0,0,1,0,48470.3,0.13194,0.13161,-5.69697,25,0.0109038,10,-0.000749775,-2.24436,-0.105608,-0.558668,124.094,0.13161,
2,0,0,1,0,48470.3,0.129942,0.12958,-5.94467,25,0.0107873,10,-0.000770311,-2.22587,-0.108359,-0.544489,126.337,0.12958,
2,0,0,1,0,48470.4,0.127945,0.127621,-6.2009,25,0.0106657,10,-0.000791364,-2.20755,-0.111742,-0.528004,127.646,0.127621,
2,0,0,1,0,48470.4,0.125947,0.125612,-6.45124,25,0.0105391,10,-0.00081035,-2.19036,-0.115089,-0.512649,129.147,0.125612,
2,0,0,1,0,48470.4,0.12395,0.123632,-6.71608,25,0.0104081,10,-0.00083032,-2.17288,-0.121227,-0.486691,127.31,0.123632,
2,0,0,1,0,48470.4,0.121952,0.121612,-6.96044,25,0.0102713,10,-0.000846472,-2.15736,-0.134408,-0.438961,119.095,0.121612,
2,0,0,1,0,48470.4,0.119955,0.119625,-7.19325,25,0.0101297,10,-0.000860492,-2.14308,-0.141232,-0.417752,117.234,0.119625,
2,0,0,1,0,48470.5,0.117957,0.117641,-7.42598,25,0.00998337,10,-0.000873598,-2.12925,-0.147749,-0.399326,115.684,0.117641,
2,0,0,1,0,48470.5,0.115955,0.11561,-7.6577,25,0.00983244,10,-0.000885308,-2.1159,-0.160698,-0.367149,109.495,0.11561,
2,0,0,1,0,48470.5,0.113962,0.113663,-7.86149,25,0.00967786,10,-0.000893563,-2.1045,-0.17527,-0.336624,103.262,0.113663,
2,0,0,1,0,48470.5,0.111964,0.111655,-8.06612,25,0.00951854,10,-0.000900623,-2.09334,-0.19279,-0.306032,96.1971,0.111655,
2,0,0,1,0,48470.5,0.109967,0.109621,-8.25036,25,0.0093553,10,-0.000904412,-2.08353,-0.212953,-0.277057,89.1502,0.109621,
2,0,0,1,0,48470.6,0.107969,0.107613,-8.42646,25,0.00918847,10,-0.000906797,-2.07435,-0.22661,-0.26036,85.5257,0.107613,
2,0,0,1,0,48470.6,0.105971,0.105697,-8.58596,25,0.00901912,10,-0.00090751,-2.06621,-0.256907,-0.229655,76.8837,0.105697,
2,0,0,1,0,48470.6,0.103974,0.103643,-8.73167,25,0.00884586,10,-0.000904979,-2.0589,-0.295847,-0.199427,67.892,0.1036433,
2,0,0,1,0,48470.6,0.101976,0.101636,-8.86166,25,0.00866981,10,-0.000900664,-2.05248,-0.348649,-0.169225,58.435,0.101636,
2,0,0,1,0,48470.6,0.0999786,0.0996436,-8.96539,25,0.00849147,10,-0.000893344,-2.04743,-0.402269,-0.146668,51.3055,0.09964364,
2,0,0,1,0,48470.7,0.0979811,0.0976619,-9.06556,25,0.00831193,10,-0.00088536,-2.04261,-0.492282,-0.11985,42.3276,0.0976619,
2,0,0,1,0,48470.7,0.0959835,0.0956594,-9.13403,25,0.00812984,10,-0.000873756,-2.03934,-0.731855,-0.0806171,28.7017,0.09565939,
2,0,0,1,0,48470.7,0.0939859,0.0936818,-9.17979,25,0.0079466,10,-0.000859979,-2.03717,-1.139,-0.0517998,18.5399,0.0936818,
2,0,0,1,0,48470.7,0.0919883,0.0916668,-9.20806,25,0.00776263,10,-0.000844073,-2.03583,-1.56714,-0.0376481,13.5276,0.0916668,
2,0,0,1,0,48470.7,0.0899907,0.0896727,-9.23403,25,0.00757898,10,-0.00082804,-2.03461,-7.47699,-0.00789087,2.83742,0.08967267,
2,0,0,1,0,48470.8,0.0879931,0.0876846,-9.21935,25,0.00739436,10,-0.000808395,-2.0353,2.36565,0.0249403,-8.97029,0.0876846,
2,0,0,1,0,48470.8,0.0859955,0.0856513,-9.19795,25,0.00721009,10,-0.000787817,-2.03631,1.54512,0.0381848,-13.698,0.0856513,
2,0,0,1,0,48470.8,0.083998,0.0836745,-9.16442,25,0.00702639,10,-0.000766829,-2.03789,0.997668,0.0591379,-21.1325,0.08367449,
2,0,0,1,0,48470.8,0.0820004,0.0817178,-9.11483,25,0.00684441,10,-0.000744843,-2.04025,0.840665,0.0701825,-24.9634,0.0817178,
2,0,0,1,0,48470.8,0.0800028,0.0796439,-9.06381,25,0.00666257,10,-0.000721877,-2.04269,0.783164,0.0753354,-26.6383,0.0796439,
2,0,0,1,0,48470.9,0.0780052,0.0776331,-9.00602,25,0.00648181,10,-0.000699165,-2.04547,0.671253,0.0878953,-30.8786,0.07763309,
2,0,0,1,0,48470.9,0.0760076,0.0756351,-8.94002,25,0.00630231,10,-0.00067618,-2.04866,0.65149,0.0905616,-31.6095,0.0756351,
2,0,0,1,0,48470.9,0.07401,0.0736901,-8.88138,25,0.00612498,10,-0.00065447,-2.05152,0.683433,0.0863288,-29.9196,0.0736901,
2,0,0,1,0,48470.9,0.0720124,0.0716625,-8.82116,25,0.00594788,10,-0.000632147,-2.05447,0.713025,0.082746,-28.4965,0.0716625,
2,0,0,1,0,48470.9,0.0700148,0.0696939,-8.7675,25,0.00577197,10,-0.000611042,-2.05712,0.701961,0.0840502,-28.7469,0.0696939,
2,0,0,1,0,48471,0.0680173,0.0676754,-8.70655,25,0.00559726,10,-0.000589219,-2.06015,0.837781,0.0704242,-23.9635,0.0676754,
2,0,0,1,0,48471,0.0660106,0.0656487,-8.67057,25,0.00542356,10,-0.000569211,-2.06195,0.866618,0.0680808,-23.0096,0.06564869,
2,0,0,1,0,48471,0.0640221,0.0636417,-8.61373,25,0.00525157,10,-0.000548192,-2.06481,0.732655,0.080529,-27.0806,0.0636417,
2,0,0,1,0,48471,0.0620245,0.0616815,-8.56313,25,0.00507977,10,-0.000528187,-2.06737,0.786415,0.075024,-25.0745,0.0616815,
2,0,0,1,0,48471,0.0600269,0.0596694,-8.51413,25,0.00490896,10,-0.000508033,-2.06986,0.858067,0.0687592,-22.8552,0.0596694,
2,0,0,1,0,48471.1,0.0580361,0.0576585,-8.47119,25,0.00473991,10,-0.000488436,-2.07206,0.842781,0.0700063,-23.1357,0.0576585,
2,0,0,1,0,48471.1,0.0560317,0.0556921,-8.42211,25,0.00457084,10,-0.000469045,-2.07458,0.806188,0.0731839,-24.0586,0.0556921,
2,0,0,1,0,48471.1,0.0540342,0.0537005,-8.37596,25,0.00440278,10,-0.000449793,-2.07697,0.865559,0.068164,-22.2855,0.0537005,
2,0,0,1,0,48471.1,0.0520366,0.0516776,-8.33265,25,0.00423562,10,-0.000430612,-2.07922,0.783332,0.0753193,-24.4778,0.0516776,
2,0,0,1,0,48471.1,0.050039,0.0497281,-8.27873,25,0.00406943,10,-0.000411686,-2.08204,0.762891,0.0773374,-24.9995,0.0497281,
2,0,0,1,0,48471.2,0.0480414,0.0476988,-8.23318,25,0.00390503,10,-0.000392713,-2.08443,0.817339,0.0721855,-23.1909,0.0476988,
2,0,0,1,0,48471.2,0.0460438,0.0457025,-8.18537,25,0.00374078,10,-0.000374092,-2.08696,0.719843,0.0819623,-26.1691,0.0457025,
2,0,0,1,0,48471.2,0.0440462,0.0437265,-8.12923,25,0.00357759,10,-0.000355463,-2.08995,0.663027,0.0889858,-28.2314,0.0437265,
2,0,0,1,0,48471.2,0.0420486,0.0417315,-8.07326,25,0.00341556,10,-0.000336909,-2.09295,0.719034,0.0820546,-25.8656,0.0417315,
2,0,0,1,0,48471.2,0.040051,0.039706,-8.02523,25,0.00325529,10,-0.00031865,-2.09554,0.675812,0.0873023,-27.3206,0.039706,
2,0,0,1,0,48471.3,0.0380535,0.0377417,-7.96426,25,0.00309532,10,-0.000300585,-2.09885,0.575857,0.102456,-31.837,0.0377417,
2,0,0,1,0,48471.3,0.0360559,0.0357545,-7.89943,25,0.00293666,10,-0.00028244,-2.1024,0.574299,0.102734,-31.6736,0.0357545,
2,0,0,1,0,48471.3,0.0340583,0.0336865,-7.83582,25,0.00277924,10,-0.000263962,-2.10592,0.607103,0.0971828,-29.7319,0.0336865,
2,0,0,1,0,48471.3,0.0320607,0.0317098,-7.77917,25,0.00262377,10,-0.000246676,-2.10907,0.540981,0.109061,-33.0712,0.0317098,
2,0,0,1,0,48471.3,0.0300631,0.0297127,-7.7044,25,0.00246888,10,-0.000228919,-2.11326,0.493179,0.119632,-35.9852,0.0297127,
2,0,0,1,0,48471.4,0.0280655,0.027738,-7.63625,25,0.00231542,10,-0.000211814,-2.11712,0.4965,0.118832,-35.4036,0.027738,
2,0,0,1,0,48471.4,0.0260679,0.0257467,-7.56399,25,0.00216338,10,-0.000194748,-2.12125,0.466235,0.126546,-37.3436,0.0257467,
2,0,0,1,0,48471.4,0.0240704,0.0237447,-7.48712,25,0.00201359,10,-0.000177779,-2.12569,0.448636,0.13151,-38.4257,0.0237447,
2,0,0,1,0,48471.4,0.0220728,0.0217461,-7.41026,25,0.00186454,10,-0.000161144,-2.13017,0.431194,0.136829,-39.557,0.0217461,
2,0,0,1,0,48471.4,0.0200752,0.0197406,-7.32874,25,0.0017171,10,-0.000144674,-2.13497,0.422748,0.139563,-39.9237,0.01974065,
2,0,0,1,0,48471.5,0.0180776,0.0177334,-7.25006,25,0.00157125,10,-0.000128569,-2.13966,0.443396,0.133064,-37.6631,0.0177334,
2,0,0,1,0,48471.5,0.01608,0.0157109,-7.17696,25,0.0014277,10,-0.000112757,-2.14406,0.453999,0.129956,-36.4019,0.0157109,
2,0,0,1,0,48471.5,0.0140824,0.0137507,-7.10508,25,0.00128484,10,-9.77002e-05,-2.14843,0.417587,0.141288,-39.1478,0.0137507,
2,0,0,1,0,48471.5,0.0120848,0.0117769,-7.02295,25,0.00114352,10,-8.27084e-05,-2.15348,0.425321,0.138719,-38.0482,0.0117769,
2,0,0,1,0,48471.5,0.0100872,0.00971626,-6.95158,25,0.00100378,10,-6.75434e-05,-2.15792,0.490935,0.120179,-32.6286,0.009716264,
2,0,0,1,0,48471.6,0.00809193,0.00773213,-6.89098,25,0.000866083,10,-5.32819e-05,-2.16172,0.489094,0.120631,-32.4258,0.00773213,
2,0,0,1,0,48471.6,0.00609208,0.00578088,-6.82397,25,0.000728935,10,-3.94486e-05,-2.16596,0.464058,0.127139,-33.8572,0.00578088,
2,0,0,1,0,48471.6,0.00409449,0.00375936,-6.75647,25,0.000593096,10,-2.54e-05,-2.17028,0.785622,0.0750997,-19.8818,0.00375936,
2,0,0,1,0,48471.6,0.0020969,0.00171659,-6.74317,25,0.000458331,10,-1.15752e-05,-2.17114,0.769544,0.0766688,-20.0943,0.00171659,
2,0,0,1,0,48471.6,9.14991e-05,-0.000293222,-6.67504,25,0.000324133,10,1.95727e-06,-2.17555,0.54104,0.109049,-28.4557,-0.000293222,
2,0,0,1,0,48471.7,-0.00189827,-0.0022714,-6.62969,25,0.000191684,10,1.50587e-05,-2.17851,0.647033,0.0911854,-23.5865,-0.002271401,
2,0,0,1,0,48471.7,-0.00389586,-0.00428221,-6.58095,25,5.95569e-05,10,2.8181e-05,-2.18171,0.775529,0.0760771,-19.5658,-0.00428221,
2,0,0,1,0,48471.7,-0.00589345,-0.00632953,-6.55029,25,-7.1766e-05,10,4.14602e-05,-2.18374,0.856016,0.0689239,-17.6068,-0.00632953,
2,0,0,1,0,48471.7,-0.00789103,-0.0082947,-6.51031,25,-0.000202395,10,5.4001e-05,-2.1864,1.1023,0.0535245,-13.6274,-0.0082947,
2,0,0,1,0,48471.7,-0.00988862,-0.0102195,-6.49727,25,-0.000331941,10,6.63989e-05,-2.18727,1.87968,0.0313884,-7.95584,-0.0102195,
2,0,0,1,0,48471.8,-0.0118862,-0.0122336,-6.47897,25,-0.000461753,10,7.92614e-05,-2.18849,1.68355,0.0350451,-8.86173,-0.0122336,
2,0,0,1,0,48471.8,-0.0138838,-0.0142738,-6.46135,25,-0.000591234,10,9.22281e-05,-2.18968,2.08708,0.0282691,-7.13207,-0.01427382,
2,0,0,1,0,48471.8,-0.0158814,-0.016268,-6.45019,25,-0.000720403,10,0.000104932,-2.19043,15.5159,0.00380255,-0.958588,-0.016268,
2,0,0,1,0,48471.8,-0.017879,-0.018279,-6.45751,25,-0.000848946,10,0.000118037,-2.18994,-7.45475,-0.00791442,1.99353,-0.018279,
2,0,0,1,0,48471.8,-0.0198766,-0.0202521,-6.45814,25,-0.00097813,10,0.000130791,-2.18989,-21.4247,-0.00275383,0.69416,-0.0202521,
2,0,0,1,0,48471.9,-0.0218741,-0.0222828,-6.46029,25,-0.00110728,10,0.000143953,-2.18975,-4.41583,-0.013361,3.37103,-0.0222828,
2,0,0,1,0,48471.9,-0.0238717,-0.0242451,-6.4716,25,-0.00123662,10,0.000156904,-2.18899,-2.13911,-0.0275815,6.96893,-0.0242451,
2,0,0,1,0,48471.9,-0.0258693,-0.0262702,-6.48807,25,-0.00136563,10,0.000170443,-2.18788,-2.1876,-0.0269701,6.8261,-0.0262702,
2,0,0,1,0,48471.9,-0.0278669,-0.028244,-6.49889,25,-0.00149555,10,0.000183555,-2.18716,-1.69396,-0.0348297,8.84332,-0.028244,
2,0,0,1,0,48471.9,-0.0298645,-0.0302872,-6.5236,25,-0.00162579,10,0.000197582,-2.18551,-1.28945,-0.0457561,11.6463,-0.0302872,
2,0,0,1,0,48472,-0.0318621,-0.0322046,-6.54502,25,-0.00175652,10,0.00021078,-2.18409,-1.10144,-0.0535663,13.694,-0.0322046,
2,0,0,1,0,48472,-0.0338597,-0.0342211,-6.57747,25,-0.00188708,10,0.000225088,-2.18194,-1.0154,-0.058105,14.9102,-0.0342211,
2,0,0,1,0,48472,-0.0358573,-0.0362526,-6.60538,25,-0.00201893,10,0.000239462,-2.1801,-0.92405,-0.0638493,16.4727,-0.0362526,
2,0,0,1,0,48472,-0.0378548,-0.0382593,-6.64399,25,-0.00215148,10,0.000254194,-2.17757,-0.959056,-0.0615188,15.9349,-0.0382593,
2,0,0,1,0,48472,-0.0398524,-0.0402415,-6.66894,25,-0.00228463,10,0.000268368,-2.17594,-0.795076,-0.0742067,19.3517,-0.0402415,
2,0,0,1,0,48472.1,-0.04185,-0.0422034,-6.72031,25,-0.00241784,10,0.00028362,-2.17261,-0.728676,-0.0809688,21.2067,-0.0422034,
2,0,0,1,0,48472.1,-0.0438476,-0.0442236,-6.75339,25,-0.00255258,10,0.000298659,-2.17048,-0.91524,-0.064464,16.9927,-0.0442236,
2,0,0,1,0,48472.1,-0.0458452,-0.0462134,-6.78845,25,-0.00268807,10,0.000313718,-2.16823,-0.73064,-0.0807511,21.417,-0.0462134,
2,0,0,1,0,48472.1,-0.0478428,-0.0482007,-6.83856,25,-0.00282435,10,0.000329623,-2.16504,-0.605282,-0.0974753,26.0238,-0.0482007,
2,0,0,1,0,48472.1,-0.0498495,-0.0502539,-6.8936,25,-0.00296163,10,0.00034643,-2.16155,-0.654081,-0.0902029,24.2449,-0.0502539,
2,0,0,1,0,48472.2,-0.051838,-0.0522134,-6.93585,25,-0.0030993,10,0.000362144,-2.1589,-0.659803,-0.0894206,24.2237,-0.0522134,
2,0,0,1,0,48472.2,-0.0538355,-0.0542001,-6.9892,25,-0.00323852,10,0.000378815,-2.15557,-0.611521,-0.0964807,26.3131,-0.0542001,
2,0,0,1,0,48472.2,-0.0558331,-0.0562051,-7.04089,25,-0.00337882,10,0.000395734,-2.15237,-0.590032,-0.0999946,27.4889,-0.0562051,
2,0,0,1,0,48472.2,-0.0578216,-0.0581951,-7.09901,25,-0.00351953,10,0.000413127,-2.1488,-0.575625,-0.102497,28.3901,-0.0581951,
2,0,0,1,0,48472.2,-0.0598283,-0.0601871,-7.15393,25,-0.00366211,10,0.000430574,-2.14546,-0.543297,-0.108596,30.3442,-0.0601871,
2,0,0,1,0,48472.3,-0.0618259,-0.0622095,-7.22083,25,-0.00380585,10,0.000449204,-2.14141,-0.54575,-0.108108,30.4408,-0.0622095,
2,0,0,1,0,48472.3,-0.0638235,-0.064208,-7.27633,25,-0.00395087,10,0.000467199,-2.13809,-0.545632,-0.108131,30.7279,-0.064208,
2,0,0,1,0,48472.3,-0.0658211,-0.0661653,-7.34238,25,-0.0040971,10,0.000485811,-2.13416,-0.485268,-0.121582,34.8549,-0.0661653,
2,0,0,1,0,48472.3,-0.0678187,-0.0681982,-7.41541,25,-0.00424397,10,0.000505718,-2.12986,-0.482963,-0.122162,35.3443,-0.0681982,
2,0,0,1,0,48472.3,-0.0698162,-0.0701978,-7.48491,25,-0.00439297,10,0.000525424,-2.12581,-0.505333,-0.116755,34.0956,-0.0701978,
2,0,0,1,0,48472.4,-0.0718138,-0.0721588,-7.55045,25,-0.00454336,10,0.000544832,-2.12203,-0.482314,-0.122327,36.0739,-0.0721588,
2,0,0,1,0,48472.4,-0.0738114,-0.0741671,-7.6281,25,-0.00469518,10,0.000565754,-2.11758,-0.434702,-0.135725,40.4245,-0.07416714,
2,0,0,1,0,48472.4,-0.075809,-0.0761918,-7.71348,25,-0.00484794,10,0.000587704,-2.11275,-0.442578,-0.13331,40.097,-0.0761918,
2,0,0,1,0,48472.4,-0.0778066,-0.0781162,-7.78644,25,-0.00500302,10,0.000608247,-2.10866,-0.445518,-0.13243,40.281,-0.0781162,
2,0,0,1,0,48472.4,-0.0798042,-0.0801936,-7.87468,25,-0.00515966,10,0.000631499,-2.10377,-0.414489,-0.142344,43.7452,-0.0801936,
2,0,0,1,0,48472.5,-0.0818018,-0.0821609,-7.96338,25,-0.00531804,10,0.000654279,-2.0989,-0.410726,-0.143648,44.6481,-0.0821609,
2,0,0,1,0,48472.5,-0.0837994,-0.0842166,-8.0543,25,-0.00547745,10,0.000678306,-2.09397,-0.414344,-0.142394,44.7547,-0.0842166,
2,0,0,1,0,48472.5,-0.0857969,-0.0862029,-8.14428,25,-0.00563943,10,0.000702061,-2.08915,-0.404479,-0.145867,46.3696,-0.0862029,
2,0,0,1,0,48472.5,-0.0877945,-0.0881615,-8.23722,25,-0.00580325,10,0.000726205,-2.08422,-0.400201,-0.147426,47.3966,-0.0881615,
2,0,0,1,0,48472.5,-0.0897921,-0.0901636,-8.332,25,-0.00596897,10,0.000751243,-2.07925,-0.408744,-0.144345,46.9289,-0.0901636,
2,0,0,1,0,48472.6,-0.0917897,-0.0921558,-8.42467,25,-0.00613568,10,0.000776382,-2.07445,-0.406742,-0.145055,47.7059,-0.0921558,
2,0,0,1,0,48472.6,-0.0937873,-0.0941638,-8.52283,25,-0.00630519,10,0.000802543,-2.06942,-0.414415,-0.142369,47.3385,-0.0941638,
2,0,0,1,0,48472.6,-0.0957849,-0.0961945,-8.61585,25,-0.0064766,10,0.000828797,-2.0647,-0.433927,-0.135968,45.7096,-0.0961945,
2,0,0,1,0,48472.6,-0.0977825,-0.09817,-8.70595,25,-0.00664988,10,0.000854663,-2.06018,-0.413405,-0.142717,48.5173,-0.09816999,
2,0,0,1,0,48472.6,-0.0997501,-0.100121,-8.80638,25,-0.00682153,10,0.000881708,-2.0552,0.0101306,5.82397,-1782.1,-0.100121,
2,0,0,1,1,48472.7,-0.0987313,-0.0991079,-7.03456,25,-0.00694223,10,0.000697181,-2.15276,-0.013609,-4.33537,1168.63,-0.0991079,
2,0,0,1,1,48472.7,-0.0967337,-0.0971232,-5.30253,25,-0.00706418,10,0.000514998,-2.27552,-0.0163099,-3.61743,758.109,-0.0971232,
2,0,0,1,1,48472.7,-0.0947362,-0.0950935,-3.99121,25,-0.00715633,10,0.000379538,-2.3989,-0.0155245,-3.80045,592.392,-0.0950935,
2,0,0,1,1,48472.7,-0.0927386,-0.0931027,-2.92082,25,-0.00722482,10,0.000271937,-2.53449,-0.0134532,-4.38558,494.473,-0.0931027,
2,0,0,1,1,48472.7,-0.090741,-0.0910893,-2.01125,25,-0.00727341,10,0.000183203,-2.69653,-0.010757,-5.48482,420.081,-0.0910893,
2,0,0,1,1,48472.8,-0.0887434,-0.0891038,-1.24094,25,-0.0073055,10,0.000110572,-2.90625,-0.00720246,-8.19165,361.735,-0.0891038,
2,0,0,1,1,48472.8,-0.0867458,-0.0870652,-0.555588,25,-0.00732306,10,4.83724e-05,-3.25525,-0.00260752,-22.6269,321.468,-0.0870652,
2,0,0,1,1,48472.8,-0.0847482,-0.0851282,0.0370763,25,-0.00732783,10,-3.15624e-06,-4.4309,0.437086,0.134985,285.518,-0.0851282,
2,1,0,1,1,48472.8,-0.0827529,-0.0831327,0.567218,25,-0.00732153,10,-4.71543e-05,-3.24625,0.00275451,21.4194,250.809,-0.0831327,
2,1,0,1,1,48472.8,-0.080753,-0.0811441,1.03633,25,-0.00730517,10,-8.40924e-05,-2.9845,0.00979018,6.02645,221.47,-0.0811441,
2,1,0,1,1,48472.9,-0.0787555,-0.0791334,1.45293,25,-0.00727992,10,-0.000114975,-2.83776,0.016102,3.66413,199.665,-0.0791334,
2,1,0,1,1,48472.9,-0.0767579,-0.0771631,1.8312,25,-0.00724678,10,-0.000141301,-2.73726,0.0229395,2.57198,179.589,-0.0771631,
2,1,0,1,1,48472.9,-0.0747603,-0.0751203,2.17364,25,-0.00720644,10,-0.000163284,-2.66281,0.0301798,1.95495,163.644,-0.0751203,
2,1,0,1,1,48472.9,-0.0727627,-0.0731223,2.49245,25,-0.00715965,10,-0.000182254,-2.60337,0.0382254,1.54348,148.042,-0.0731223,
2,1,0,1,1,48472.9,-0.0707651,-0.0711231,2.76539,25,-0.00710679,10,-0.000196683,-2.55824,0.0475167,1.24167,133.216,-0.0711231,
2,1,0,1,1,48473,-0.0687675,-0.0691418,3.02272,25,-0.00704867,10,-0.000208996,-2.5196,0.0562793,1.04834,122.85,-0.0691418,
2,1,0,1,1,48473,-0.0667699,-0.0671525,3.25318,25,-0.00698568,10,-0.000218459,-2.48769,0.066891,0.882032,111.473,-0.0671525,
2,1,0,1,1,48473,-0.0647723,-0.0651832,3.464,25,-0.00691853,10,-0.000225794,-2.46042,0.0797772,0.73956,99.5253,-0.0651832,
2,1,0,1,1,48473,-0.0627748,-0.063156,3.65093,25,-0.00684713,10,-0.000230578,-2.4376,0.0926895,0.636534,90.5083,-0.063156,
2,1,0,1,1,48473,-0.0607772,-0.0611523,3.82883,25,-0.00677206,10,-0.000234141,-2.41693,0.104511,0.564532,84.0998,-0.0611523,
2,1,0,1,1,48473.1,-0.0587796,-0.0591434,3.9884,25,-0.00669367,10,-0.000235887,-2.3992,0.122513,0.48158,74.7513,-0.0591434,
2,1,0,1,1,48473.1,-0.056782,-0.0571296,4.12953,25,-0.00661272,10,-0.000235918,-2.3841,0.140112,0.421092,67.7432,-0.0571296,
2,1,0,1,1,48473.1,-0.0547844,-0.0551503,4.2589,25,-0.00652865,10,-0.00023488,-2.3707,0.161946,0.364319,60.4132,-0.0551503,
2,1,0,1,1,48473.1,-0.0527868,-0.0531366,4.37076,25,-0.00644216,10,-0.000232247,-2.35944,0.189962,0.310589,52.9098,-0.0531366,
2,1,0,1,1,48473.1,-0.0507892,-0.0511059,4.47289,25,-0.00635349,10,-0.000228591,-2.34941,0.200138,0.294797,51.4567,-0.0511059,
2,1,0,1,1,48473.2,-0.0487916,-0.0491498,4.5759,25,-0.00626324,10,-0.000224905,-2.33952,0.218895,0.269536,48.0369,-0.0491498,
2,1,0,1,1,48473.2,-0.0467941,-0.047176,4.66167,25,-0.00617068,10,-0.000219919,-2.33146,0.269303,0.219084,39.7997,-0.047176,
2,1,0,1,1,48473.2,-0.0447965,-0.0451597,4.73471,25,-0.00607651,10,-0.000213818,-2.32471,0.309698,0.190508,35.1782,-0.04515972,
2,1,0,1,1,48473.2,-0.0427989,-0.0431881,4.80195,25,-0.00598094,10,-0.000207387,-2.31858,0.329026,0.179317,33.6052,-0.0431881,
2,1,0,1,1,48473.2,-0.0408013,-0.0411365,4.86991,25,-0.00588448,10,-0.000200331,-2.31248,0.386035,0.152836,28.9882,-0.0411365,
2,1,0,1,1,48473.3,-0.0388037,-0.0391697,4.91844,25,-0.00578638,10,-0.000192654,-2.30817,0.457211,0.129043,24.7704,-0.0391697,
2,1,0,1,1,48473.3,-0.0368061,-0.0371995,4.96743,25,-0.00568735,10,-0.000184786,-2.30387,0.483941,0.121916,23.6258,-0.0371995,
2,1,0,1,1,48473.3,-0.0348085,-0.0351734,5.01286,25,-0.0055874,10,-0.000176319,-2.29991,0.56496,0.104432,20.4124,-0.0351734,
2,1,0,1,1,48473.3,-0.0328109,-0.0331785,5.04951,25,-0.00548714,10,-0.000167535,-2.29675,0.721558,0.0817675,16.0998,-0.0331785,
2,1,0,1,1,48473.3,-0.0308134,-0.0311488,5.07765,25,-0.00538572,10,-0.000158163,-2.29434,0.872241,0.0676418,13.4005,-0.0311488,
2,1,0,1,1,48473.4,-0.0288158,-0.0291797,5.10309,25,-0.00528374,10,-0.000148907,-2.29217,0.98001,0.0602034,11.9859,-0.0291797,
2,1,0,1,1,48473.4,-0.0268182,-0.0271864,5.12514,25,-0.00518128,10,-0.000139334,-2.29029,1.10245,0.0535173,10.7032,-0.0271864,
2,1,0,1,1,48473.4,-0.0248138,-0.0251618,5.1461,25,-0.00507846,10,-0.000129485,-2.28852,1.30841,0.0450927,9.05146,-0.0251618,
2,1,0,1,1,48473.4,-0.022823,-0.0231529,5.16165,25,-0.00497572,10,-0.000119507,-2.28721,1.80115,0.0327568,6.59553,-0.0231529,
2,1,0,1,1,48473.4,-0.0208254,-0.0211766,5.17238,25,-0.0048722,10,-0.000109533,-2.28631,3.27604,0.0180095,3.63295,-0.0211766,
2,1,0,1,1,48473.5,-0.0188278,-0.019189,5.17605,25,-0.00476858,10,-9.93233e-05,-2.286,4.15931,0.014185,2.86652,-0.019189,
2,1,0,1,1,48473.5,-0.0168393,-0.0172601,5.18361,25,-0.00466532,10,-8.94697e-05,-2.28537,3.05345,0.0193224,3.90918,-0.0172601,
2,1,0,1,1,48473.5,-0.0148327,-0.0151449,5.19186,25,-0.00456132,10,-7.86302e-05,-2.28468,6.95183,0.00848698,1.71808,-0.0151449,
2,1,0,1,1,48473.5,-0.0128351,-0.0131754,5.19063,25,-0.00445734,10,-6.83888e-05,-2.28478,61.5432,0.000958676,0.194263,-0.0131754,
2,1,0,1,1,48473.5,-0.0108375,-0.0112016,5.19263,25,-0.00435333,10,-5.81659e-05,-2.28461,7.7007,0.00766164,1.55298,-0.01120163,
2,1,0,1,1,48473.6,-0.00883989,-0.00918228,5.19683,25,-0.00424928,10,-4.77187e-05,-2.28426,-13.4437,-0.00438868,-0.889071,-0.00918228,
2,1,0,1,1,48473.6,-0.0068423,-0.00721585,5.18909,25,-0.00414571,10,-3.74437e-05,-2.28491,-4.9904,-0.0118227,-2.39566,-0.00721585,
2,1,0,1,1,48473.6,-0.00484471,-0.00525483,5.18742,25,-0.00404174,10,-2.7259e-05,-2.28505,55.6047,0.00106106,0.214897,-0.00525483,
2,1,0,1,1,48473.6,-0.00284713,-0.00322577,5.18994,25,-0.00393781,10,-1.67415e-05,-2.28484,-9.09289,-0.00648859,-1.31294,-0.00322577,
2,1,0,1,1,48473.6,-0.000849538,-0.00123197,5.18214,25,-0.0038339,10,-6.38425e-06,-2.28549, , , ,-0.00123197,
2,1,0,1,1,48473.6,-2.55332e-05,-0.000401673,5.19621,25,-0.00379187,10,-2.08718e-06,-2.28431, , , ,-0.000401673,