File: Figure_codes/Fig_3-5/rawdata_trumpetplot_data/after 10th/20221101_1-115_003_TrumpetPlot_ParaChange_from10_every3_13_CV_C01.mpt
EC-Lab ASCII FILE
Nb header lines : 94

Cyclic Voltammetry

Run on channel : 1 (SN 65296)
User :
CE vs. WE compliance from -10 V to 10 V
Electrode connection : standard
Potential control : Ewe
Ewe ctrl range : min = -1.00 V, max = 1.00 V
Safety Limits :
	Do not start on E overload
Acquisition started on : 11/08/2022 20:18:53.442
Loaded Setting File :  NONE
Saved on :
	File : 20221101_1-115_003_TrumpetPlot_ParaChange_from10_every3_13_CV_C01.mpr
	Directory : C:\Users\NakamuraT\Documents\EC-Lab\Data\Yatsuzuka\20221108_1-115_001_TrumpetPlot\
	Host : 192.109.209.100
Device : SP-50e (SN .003219)
Address : 192.109.209.128
EC-Lab for windows v11.43 (software)
Internet server v11.40 (firmware)
Command interpretor v11.40 (firmware)
Electrode material :
Initial state :
Electrolyte :
Comments :
Electrode surface area : 0.000 cm2
Characteristic mass : 0.001 g
Equivalent Weight : 0.000 g/eq.
Density : 0.000 g/cm3
Volume (V) : 0.001 cm3
Cycle Definition : Charge/Discharge alternance
Ei (V)              0.000
vs.                 Ref
dE/dt               800.000
dE/dt unit          mV/s
E1 (V)              0.300
vs.                 Ref
Step percent        50
N                   10
E range min (V)     -1.000
E range max (V)     1.000
I Range             100 mA
I Range min         Unset
I Range max         Unset
I Range init        Unset
Bandwidth           5
E2 (V)              -0.200
vs.                 Ref
nc cycles           0
Reverse Scan        1
Ef (V)              0.000
vs.                 Ref

Number of loops : 35
Loop 0 from point number 0 to 634
Loop 1 from point number 635 to 1269
Loop 2 from point number 1270 to 1904
Loop 3 from point number 1905 to 2539
Loop 4 from point number 2540 to 3174
Loop 5 from point number 3175 to 3809
Loop 6 from point number 3810 to 4444
Loop 7 from point number 4445 to 5079
Loop 8 from point number 5080 to 5714
Loop 9 from point number 5715 to 6349
Loop 10 from point number 6350 to 6984
Loop 11 from point number 6985 to 7619
Loop 12 from point number 7620 to 8254
Loop 13 from point number 8255 to 8889
Loop 14 from point number 8890 to 9524
Loop 15 from point number 9525 to 10159
Loop 16 from point number 10160 to 10794
Loop 17 from point number 10795 to 11429
Loop 18 from point number 11430 to 12064
Loop 19 from point number 12065 to 12699
Loop 20 from point number 12700 to 13334
Loop 21 from point number 13335 to 13969
Loop 22 from point number 13970 to 14604
Loop 23 from point number 14605 to 15239
Loop 24 from point number 15240 to 15874
Loop 25 from point number 15875 to 16509
Loop 26 from point number 16510 to 17144
Loop 27 from point number 17145 to 17779
Loop 28 from point number 17780 to 18414
Loop 29 from point number 18415 to 19049
Loop 30 from point number 19050 to 19684
Loop 31 from point number 19685 to 20319
Loop 32 from point number 20320 to 20954
Loop 33 from point number 20955 to 21589
Loop 34 from point number 21590 to 22224

mode	ox/red	error	control changes	counter inc.	time/s	control/V	Ewe/V	<I>/mA	cycle number	(Q-Qo)/C	I Range	P/W
2	1	0	0	0	1197.86	2.44065e-05	-0.000229887	28.723	1	0.0000000E+000	10	-6.60305e-06
2	1	0	1	0	1197.92	0.0522613	0.0519092	38.7862	1	0.00228927	10	0.00201336
2	1	0	1	0	1197.99	0.105067	0.104638	48.5642	1	0.00513025	10	0.00508166
2	1	0	1	0	1198.05	0.157864	0.157527	64.8031	1	0.00883919	10	0.0102082
2	1	0	1	0	1198.12	0.210662	0.210381	77.5797	1	0.0136763	10	0.0163213
2	1	0	1	0	1198.19	0.263464	0.263201	41.9116	1	0.0177249	10	0.0110312
2	1	0	1	0	1198.24	0.289383	0.289183	8.04814	1	0.0195677	10	0.00232738
2	0	0	1	0	1198.31	0.236586	0.23631	-17.1438	1	0.0189528	10	-0.00405126
2	0	0	1	0	1198.38	0.183783	0.183494	-23.3422	1	0.0176133	10	-0.00428315
2	0	0	1	0	1198.44	0.130986	0.130747	-38.0499	1	0.0156944	10	-0.00497492
2	0	0	1	0	1198.51	0.0781828	0.0779274	-66.2168	1	0.0122179	10	-0.0051601
2	0	0	1	0	1198.57	0.0253854	0.0250534	-71.2869	1	0.00750527	10	-0.00178598
2	0	0	1	0	1198.64	-0.0274119	-0.0277453	-58.5607	1	0.00315717	10	0.00162478
2	0	0	1	0	1198.71	-0.0802203	-0.0805695	-50.0671	1	-0.000323505	10	0.00403388
2	0	0	1	0	1198.77	-0.133015	-0.133336	-54.1315	1	-0.00372223	10	0.00721769
2	0	0	1	0	1198.84	-0.185815	-0.186119	-62.4507	1	-0.00756236	10	0.0116233
2	0	0	1	1	1198.9	-0.166932	-0.16736	-9.72372	1	-0.0100576	10	0.00162736
2	1	0	1	1	1198.96	-0.114138	-0.114517	27.8281	1	-0.00928875	10	-0.0031868
2	1	0	1	1	1199.03	-0.0613321	-0.0617165	44.0847	1	-0.00683609	10	-0.00272075
2	1	0	1	1	1199.1	-0.0085347	-0.00886796	49.5071	1	-0.00370048	10	-0.000439027
2	1	0	1	0	3168.04	0.0394684	0.0391504	36.2865	2	0.0016162	10	0.00142063
2	1	0	1	0	3168.1	0.092263	0.09186	45.0426	2	0.00426985	10	0.00413762
2	1	0	1	0	3168.17	0.145063	0.144691	58.8077	2	0.00767284	10	0.00850892
2	1	0	1	0	3168.23	0.197866	0.1975	73.8628	2	0.0121076	10	0.0145879
2	1	0	1	0	3168.3	0.250663	0.250354	48.4756	2	0.0164177	10	0.012136
2	1	0	1	0	3168.36	0.300012	0.299804	31.0401	2	0.0187311	10	0.00930594
2	0	0	1	0	3168.42	0.249381	0.2491	-13.6913	2	0.0186954	10	-0.0034105
2	0	0	1	0	3168.49	0.196587	0.196301	-20.8314	2	0.0175266	10	-0.00408921
2	0	0	1	0	3168.56	0.143781	0.143494	-30.3031	2	0.0159003	10	-0.00434833
2	0	0	1	0	3168.62	0.0909839	0.0907371	-56.0682	2	0.0130972	10	-0.00508746
2	0	0	1	0	3168.69	0.0381866	0.037879	-69.3484	2	0.0088027	10	-0.00262685
2	0	0	1	0	3168.75	-0.0146162	-0.0149558	-61.9865	2	0.00441579	10	0.000927056
2	0	0	1	0	3168.82	-0.0674136	-0.0677789	-50.399	2	0.000766083	10	0.00341599
2	0	0	1	0	3168.89	-0.120216	-0.120524	-51.6071	2	-0.00254821	10	0.00621987
2	0	0	1	0	3168.95	-0.173017	-0.173333	-58.7033	2	-0.0061753	10	0.0101752
2	0	0	1	1	3169.01	-0.179739	-0.18018	-25.5695	2	-0.00929482	10	0.0046071
2	1	0	1	1	3169.08	-0.126931	-0.127367	18.1856	2	-0.00932996	10	-0.00231625
2	1	0	1	1	3169.14	-0.074136	-0.0745125	38.3354	2	-0.00737999	10	-0.00285646
2	1	0	1	1	3169.21	-0.0213415	-0.0217137	46.9464	2	-0.00451553	10	-0.00101938
2	1	0	1	0	5138.15	0.0266617	0.0263206	33.3286	3	0.00100823	10	0.000877229
2	1	0	1	0	5138.22	0.0794701	0.0790991	41.6754	3	0.00347286	10	0.00329648
2	1	0	1	0	5138.28	0.132265	0.131902	53.6706	3	0.00660144	10	0.00707926
2	1	0	1	0	5138.35	0.185059	0.184703	68.9975	3	0.0106586	10	0.012744
2	1	0	1	0	5138.41	0.237868	0.237596	55.3656	3	0.0150811	10	0.0131546
2	1	0	1	0	5138.48	0.290665	0.290378	33.0999	3	0.0178319	10	0.00961149
2	0	0	1	0	5138.54	0.262188	0.261909	-8.66024	3	0.0184319	10	-0.00226819
2	0	0	1	0	5138.61	0.20938	0.209094	-18.4993	3	0.0174698	10	-0.00386809
2	0	0	1	0	5138.67	0.156585	0.156241	-25.5008	3	0.016041	10	-0.00398425
2	0	0	1	0	5138.74	0.103785	0.103522	-46.5708	3	0.0137672	10	-0.00482112
2	0	0	1	0	5138.8	0.0509823	0.0507184	-65.4577	3	0.00995345	10	-0.00331991
2	0	0	1	0	5138.87	-0.00181504	-0.00215665	-62.806	3	0.00565801	10	0.00013545
2	0	0	1	0	5138.94	-0.0546179	-0.0549554	-52.0741	3	0.0018541	10	0.00286175
2	0	0	1	0	5139	-0.107415	-0.107793	-50.1727	3	-0.00145542	10	0.00540829
2	0	0	1	0	5139.07	-0.160213	-0.160535	-56.0385	3	-0.0049381	10	0.00899614
2	0	0	1	1	5139.13	-0.192535	-0.192981	-44.7363	3	-0.00837197	10	0.00863327
2	1	0	1	1	5139.19	-0.139737	-0.140252	8.91349	3	-0.00924442	10	-0.00125014
2	1	0	1	1	5139.26	-0.0869345	-0.087266	32.5681	3	-0.00778129	10	-0.00284209
2	1	0	1	1	5139.32	-0.0341343	-0.0345203	43.7548	3	-0.00521097	10	-0.00151043
2	1	0	1	0	7108.26	0.013866	0.0135098	31.0012	4	0.000496607	10	0.00041882
2	1	0	1	0	7108.33	0.0666633	0.0663223	39.9879	4	0.00285524	10	0.00265209
2	1	0	1	0	7108.4	0.119461	0.119103	50.9957	4	0.00584038	10	0.00607373
2	1	0	1	0	7108.46	0.172266	0.171888	65.6251	4	0.0096717	10	0.0112802
2	1	0	1	0	7108.53	0.225061	0.224817	62.6738	4	0.0141744	10	0.0140901
2	1	0	1	0	7108.59	0.277869	0.277549	35.9587	4	0.0172985	10	0.00998029
2	0	0	1	0	7108.65	0.274984	0.274722	-2.38681	4	0.0185531	10	-0.000655709
2	0	0	1	0	7108.72	0.222187	0.221915	-17.1306	4	0.0177779	10	-0.00380152
2	0	0	1	0	7108.79	0.169384	0.169113	-23.3121	4	0.0164451	10	-0.00394238
2	0	0	1	0	7108.85	0.116584	0.116279	-39.0388	4	0.0144987	10	-0.00453939
2	0	0	1	0	7108.92	0.063789	0.063526	-62.1387	4	0.011088	10	-0.00394742
2	0	0	1	0	7108.98	0.0109806	0.0106297	-64.2187	4	0.0068115	10	-0.000682628
2	0	0	1	0	7109.05	-0.0418167	-0.0422114	-55.4173	4	0.00281576	10	0.00233924
2	0	0	1	0	7109.12	-0.0946141	-0.0949762	-50.1076	4	-0.000593798	10	0.00475903
2	0	0	1	0	7109.18	-0.147417	-0.147771	-54.4472	4	-0.00401117	10	0.0080457
2	0	0	1	0	7109.25	-0.199647	-0.199974	-61.4469	4	-0.00779416	10	0.0122878
2	0	0	1	1	7109.31	-0.152533	-0.152955	-0.278437	4	-0.0092873	10	4.25883e-05
2	1	0	1	1	7109.37	-0.0997357	-0.100133	27.6789	4	-0.00827544	10	-0.00277157
2	1	0	1	1	7109.44	-0.0469383	-0.0473003	41.6844	4	-0.00592984	10	-0.00197169
2	1	0	1	0	9078.38	0.00106482	0.00067464	26.1706	5	2.87294e-05	10	1.76558e-05
2	1	0	1	0	9078.44	0.0538621	0.0534924	37.3569	5	0.00219224	10	0.00199831
2	1	0	1	0	9078.51	0.106665	0.106302	47.4195	5	0.00497365	10	0.00504077
2	1	0	1	0	9078.58	0.159462	0.159144	60.9479	5	0.00852502	10	0.00969948
2	1	0	1	0	9078.64	0.212268	0.211951	65.9616	5	0.0128884	10	0.0139806
2	1	0	1	0	9078.71	0.265063	0.264788	38.8397	5	0.0163186	10	0.0102843
2	1	0	1	0	9078.77	0.287785	0.287554	8.83502	5	0.0180996	10	0.00254054
2	0	0	1	0	9078.83	0.234982	0.234682	-14.8902	5	0.0176455	10	-0.00349446
2	0	0	1	0	9078.9	0.182185	0.181879	-21.2781	5	0.0164376	10	-0.00387003
2	0	0	1	0	9078.97	0.129388	0.129127	-32.4667	5	0.0147435	10	-0.00419232
2	0	0	1	0	9079.03	0.0765819	0.0763929	-56.4541	5	0.0117873	10	-0.0043127
2	0	0	1	0	9079.1	0.0237874	0.0234755	-63.1135	5	0.00770971	10	-0.00148162
2	0	0	1	0	9079.16	-0.0290155	-0.0293794	-56.8824	5	0.00370727	10	0.00167117
2	0	0	1	0	9079.23	-0.0818184	-0.0821495	-49.4901	5	0.000254237	10	0.00406558
2	0	0	1	0	9079.3	-0.134613	-0.134948	-52.0679	5	-0.00305684	10	0.00702647
2	0	0	1	0	9079.36	-0.187419	-0.187735	-58.5429	5	-0.00670429	10	0.0109906
2	0	0	1	1	9079.42	-0.165334	-0.165727	-10.5729	5	-0.00897846	10	0.00175221
2	1	0	1	1	9079.49	-0.11254	-0.112914	21.4423	5	-0.00849209	10	-0.00242114
2	1	0	1	1	9079.55	-0.059734	-0.060092	37.8556	5	-0.00647609	10	-0.00227482
2	1	0	1	1	9079.62	-0.00693663	-0.00733355	45.3543	5	-0.0036871	10	-0.000332608
2	1	0	1	0	11048.6	0.0410665	0.040722	34.7911	6	0.00157396	10	0.00141676
2	1	0	1	0	11048.6	0.093861	0.0934729	43.9817	6	0.00416101	10	0.0041111
2	1	0	1	0	11048.7	0.146667	0.146334	55.7921	6	0.0074364	10	0.00816429
2	1	0	1	0	11048.8	0.199464	0.199103	66.9002	6	0.011549	10	0.01332
2	1	0	1	0	11048.8	0.252261	0.251944	46.9366	6	0.0154777	10	0.0118254
2	1	0	0	0	11048.9	0.299862	0.299766	32.122	6	0.0177683	10	0.00962906
2	0	0	1	0	11048.9	0.247783	0.247451	-11.4686	6	0.0179117	10	-0.00283791
2	0	0	1	0	11049	0.194986	0.194663	-19.6466	6	0.0168447	10	-0.00382446
2	0	0	1	0	11049.1	0.142183	0.141896	-27.4663	6	0.0153276	10	-0.00389736
2	0	0	1	0	11049.1	0.0893859	0.0891475	-48.8293	6	0.0128646	10	-0.00435301
2	0	0	1	0	11049.2	0.036583	0.0362979	-62.0655	6	0.00908724	10	-0.00225285
2	0	0	1	0	11049.3	-0.0162143	-0.0165792	-59.4613	6	0.0050365	10	0.000985824
2	0	0	1	0	11049.3	-0.0690117	-0.0694151	-51.048	6	0.00139536	10	0.0035435
2	0	0	1	0	11049.4	-0.12182	-0.122174	-50.5461	6	-0.00190789	10	0.0061754
2	0	0	1	0	11049.5	-0.174615	-0.174964	-55.6813	6	-0.00540146	10	0.0097422
2	0	0	1	1	11049.5	-0.178135	-0.178574	-24.0481	6	-0.00828041	10	0.00429438
2	1	0	1	1	11049.6	-0.125333	-0.125828	12.9589	6	-0.00848552	10	-0.00163058
2	1	0	1	1	11049.7	-0.072538	-0.0728868	32.3489	6	-0.00692717	10	-0.00235781
2	1	0	1	1	11049.7	-0.0197323	-0.0201189	42.7347	6	-0.00440635	10	-0.000859774
2	1	0	1	0	13018.7	0.0282597	0.0279324	30.5757	7	0.000963899	10	0.000854052
2	1	0	1	0	13018.7	0.0810682	0.0807067	39.2971	7	0.00326825	10	0.00317154
2	1	0	1	0	13018.8	0.133863	0.133534	49.6955	7	0.0061946	10	0.00663605
2	1	0	1	0	13018.9	0.186668	0.186337	62.0265	7	0.00989598	10	0.0115578
2	1	0	1	0	13018.9	0.239466	0.239181	52.6003	7	0.0138983	10	0.012581
2	1	0	1	0	13019	0.292263	0.291963	34.1825	7	0.0166606	10	0.00998002
2	0	0	1	0	13019.1	0.260585	0.260348	-5.40987	7	0.0173774	10	-0.00140845
2	0	0	1	0	13019.1	0.207782	0.207495	-16.6228	7	0.0165787	10	-0.00344916
2	0	0	1	0	13019.2	0.154987	0.154642	-23.1484	7	0.0152743	10	-0.00357972
2	0	0	1	0	13019.3	0.102182	0.101916	-39.9958	7	0.0132816	10	-0.00407621
2	0	0	1	0	13019.3	0.0493842	0.0490981	-57.0866	7	0.0099947	10	-0.00280284
2	0	0	1	0	13019.4	-0.00341311	-0.0037568	-58.0894	7	0.00613723	10	0.00021823
2	0	0	1	0	13019.5	-0.056216	-0.0565799	-51.5773	7	0.00248852	10	0.00291824
2	0	0	1	0	13019.5	-0.109013	-0.109396	-48.8	7	-0.000773408	10	0.0053385
2	0	0	1	0	13019.6	-0.161816	-0.162188	-52.8143	7	-0.00410536	10	0.00856584
2	0	0	1	1	13019.7	-0.190937	-0.191393	-39.7828	7	-0.00727423	10	0.00761414
2	1	0	1	1	13019.7	-0.138139	-0.138633	4.41622	7	-0.00820463	10	-0.000612234
2	1	0	1	1	13019.8	-0.0853308	-0.0857634	25.9217	7	-0.00713573	10	-0.00222314
2	1	0	1	1	13019.8	-0.0325363	-0.0328925	38.1119	7	-0.00498049	10	-0.0012536
2	1	0	1	0	14988.8	0.0154641	0.0151004	29.5521	8	0.000523773	10	0.000446249
2	1	0	1	0	14988.9	0.0682614	0.0679246	38.6348	8	0.00278878	10	0.00262425
2	1	0	1	0	14988.9	0.12107	0.120688	48.8025	8	0.00566239	10	0.00588989
2	1	0	1	0	14989	0.173864	0.173526	61.6075	8	0.00930218	10	0.0106905
2	1	0	1	0	14989.1	0.226659	0.226378	56.6799	8	0.0134266	10	0.0128311
2	1	0	1	0	14989.1	0.279467	0.279168	35.0018	8	0.0163603	10	0.00977137
2	0	0	1	0	14989.2	0.273386	0.273088	-1.57181	8	0.0175622	10	-0.000429241
2	0	0	1	0	14989.2	0.220588	0.220279	-16.2573	8	0.0168539	10	-0.00358114
2	0	0	1	0	14989.3	0.16778	0.167483	-22.3059	8	0.0155779	10	-0.00373586
2	0	0	1	0	14989.4	0.114986	0.114675	-36.3526	8	0.0137418	10	-0.00416873
2	0	0	1	0	14989.4	0.0621854	0.0619587	-56.6656	8	0.0106048	10	-0.00351093
2	0	0	1	0	14989.5	0.00938255	0.00908048	-59.3726	8	0.00669275	10	-0.000539132
2	0	0	1	0	14989.6	-0.0434148	-0.0437553	-52.9677	8	0.00294679	10	0.00231762
2	0	0	1	0	14989.6	-0.0962177	-0.0965488	-48.5908	8	-0.000350371	10	0.00469138
2	0	0	1	0	14989.7	-0.149015	-0.14936	-52.089	8	-0.00364474	10	0.00778002
2	0	0	0	0	14989.8	-0.199984	-0.200284	-57.4358	8	-0.00713536	10	0.0115035
2	0	0	1	1	14989.8	-0.150935	-0.151392	-1.23923	8	-0.00855982	10	0.00018761
2	1	0	1	1	14989.9	-0.0981376	-0.0984978	23.7343	8	-0.00773386	10	-0.00233778
2	1	0	1	1	14990	-0.0453347	-0.0457447	37.8493	8	-0.00565518	10	-0.00173141
2	1	0	1	0	16958.9	0.00266289	0.002296	26.2792	9	7.98104e-05	10	6.03372e-05
2	1	0	1	0	16959	0.0554658	0.0551276	37.3107	9	0.00223284	10	0.00205685
2	1	0	1	0	16959	0.108263	0.107879	46.9936	9	0.00500297	10	0.0050696
2	1	0	1	0	16959.1	0.16106	0.160708	59.5478	9	0.00850195	10	0.00956981
2	1	0	1	0	16959.2	0.213866	0.213546	62.4487	9	0.012691	10	0.0133357
2	1	0	1	0	16959.2	0.266661	0.2663	39.2006	9	0.0160348	10	0.0104391
2	1	0	1	0	16959.3	0.286187	0.285942	8.56866	9	0.0178033	10	0.00245014
2	0	0	1	0	16959.4	0.233384	0.233045	-14.6935	9	0.0173758	10	-0.00342425
2	0	0	1	0	16959.4	0.180587	0.180252	-21.3384	9	0.0161673	10	-0.0038463
2	0	0	1	0	16959.5	0.127778	0.127492	-31.7471	9	0.0144874	10	-0.0040475
2	0	0	1	0	16959.6	0.0749838	0.0747334	-53.8337	9	0.0116419	10	-0.00402318
2	0	0	1	0	16959.6	0.0221893	0.0219284	-60.6399	9	0.0077542	10	-0.00132973
2	0	0	1	0	16959.7	-0.0306191	-0.0309573	-55.8637	9	0.00386741	10	0.00172939
2	0	0	1	0	16959.8	-0.0834165	-0.0837656	-49.4873	9	0.000434148	10	0.00414533
2	0	0	1	0	16959.8	-0.136214	-0.136499	-51.4609	9	-0.00286073	10	0.00702434
2	0	0	1	0	16959.9	-0.189017	-0.189365	-56.6435	9	-0.00642909	10	0.0107263
2	0	0	1	1	16959.9	-0.163736	-0.164162	-10.2201	9	-0.00854267	10	0.00167776
2	1	0	1	1	16960	-0.110933	-0.111359	18.8936	9	-0.00815199	10	-0.00210398
2	1	0	1	1	16960.1	-0.0581359	-0.0585311	35.3693	9	-0.00631247	10	-0.00207021
2	1	0	1	1	16960.1	-0.00533856	-0.0057281	44.1533	9	-0.00364751	10	-0.000252915
2	1	0	1	0	18929.1	0.0426646	0.0422998	32.1651	10	0.00148758	10	0.00136058
2	1	0	1	0	18929.1	0.0954674	0.0951081	41.0244	10	0.00389586	10	0.00390175
2	1	0	1	0	18929.2	0.148265	0.147908	51.7638	10	0.0069428	10	0.00765627
2	1	0	1	0	18929.3	0.201062	0.20073	61.1978	10	0.0107332	10	0.0122842
2	1	0	1	0	18929.3	0.253868	0.253529	46.2517	10	0.0144044	10	0.0117261
2	1	0	1	0	18929.4	0.298983	0.298831	31.161	10	0.0166973	10	0.00931188
2	0	0	1	0	18929.5	0.246185	0.245859	-8.70459	10	0.0170055	10	-0.0021401
2	0	0	1	0	18929.5	0.193382	0.193098	-17.8015	10	0.016088	10	-0.00343744
2	0	0	1	0	18929.6	0.140585	0.140284	-25.3243	10	0.0146921	10	-0.00355258
2	0	0	1	0	18929.7	0.0877878	0.087558	-44.1728	10	0.0124443	10	-0.00386768
2	0	0	1	0	18929.7	0.0349822	0.0347137	-56.3291	10	0.00903202	10	-0.00195539
2	0	0	1	0	18929.8	-0.0178124	-0.0181932	-55.7246	10	0.00529462	10	0.00101381
2	0	0	1	0	18929.9	-0.0706153	-0.0709633	-49.6531	10	0.0018178	10	0.00352355
2	0	0	1	0	18929.9	-0.123418	-0.1238	-49.074	10	-0.00140088	10	0.00607537
2	0	0	1	0	18930	-0.176213	-0.176542	-53.2672	10	-0.00476908	10	0.00940389
2	0	0	1	1	18930.1	-0.176532	-0.176953	-22.992	10	-0.00746677	10	0.0040685
2	1	0	1	1	18930.1	-0.123734	-0.124242	9.40243	10	-0.00778283	10	-0.00116818
2	1	0	1	1	18930.2	-0.0709371	-0.0713312	27.6076	10	-0.00651039	10	-0.00196928
2	1	0	1	1	18930.3	-0.0181342	-0.0185283	38.448	10	-0.00429333	10	-0.000712374
2	1	0	1	0	20899.2	0.0298689	0.0295082	29.023	11	0.000955883	10	0.000856415
2	1	0	1	0	20899.3	0.0826662	0.0823026	37.6077	11	0.0031568	10	0.00309521
2	1	0	1	0	20899.3	0.135461	0.135115	47.4017	11	0.00595276	10	0.00640468
2	1	0	1	0	20899.4	0.188266	0.187931	58.229	11	0.00945993	10	0.010943
2	1	0	1	0	20899.5	0.241064	0.240782	50.552	11	0.0132157	10	0.012172
2	1	0	1	0	20899.5	0.293861	0.293532	34.2423	11	0.0159472	10	0.0100512
2	0	0	1	0	20899.6	0.258981	0.258763	-4.01696	11	0.0166785	10	-0.00103944
2	0	0	1	0	20899.7	0.206184	0.205846	-15.749	11	0.0159559	10	-0.00324187
2	0	0	1	0	20899.7	0.153386	0.153092	-22.298	11	0.0147044	10	-0.00341365
2	0	0	1	0	20899.8	0.100583	0.100306	-37.8026	11	0.0128013	10	-0.00379183
2	0	0	1	0	20899.9	0.0477861	0.0474831	-53.037	11	0.00972875	10	-0.00251836
2	0	0	1	0	20899.9	-0.0050195	-0.00536544	-54.8587	11	0.00611972	10	0.000294341
2	0	0	1	0	20900	-0.0578141	-0.0581578	-49.7307	11	0.0026442	10	0.00289223
2	0	0	1	0	20900	-0.110611	-0.110974	-47.3053	11	-0.000518229	10	0.00524964
2	0	0	1	0	20900.1	-0.16342	-0.163757	-50.502	11	-0.00372896	10	0.00827008
2	0	0	1	1	20900.2	-0.189339	-0.189751	-35.4542	11	-0.00669371	10	0.00672748
2	1	0	1	1	20900.2	-0.136536	-0.136994	2.53537	11	-0.00758782	10	-0.00034733
2	1	0	1	1	20900.3	-0.0837328	-0.0841346	22.4026	11	-0.00671205	10	-0.00188483
2	1	0	1	1	20900.4	-0.0309382	-0.0313178	34.7902	11	-0.00478877	10	-0.00108955
2	1	0	1	0	22869.3	0.0170622	0.0166687	28.2083	12	0.000546667	10	0.000470197
2	1	0	1	0	22869.4	0.0698595	0.0695088	37.4072	12	0.00272845	10	0.00260013
2	1	0	1	0	22869.4	0.122668	0.122247	47.1729	12	0.00551161	10	0.00576675
2	1	0	1	0	22869.5	0.175462	0.175108	58.9247	12	0.00901782	10	0.0103182
2	1	0	1	0	22869.6	0.228268	0.227941	55.4263	12	0.0129627	10	0.0126339
2	1	0	1	0	22869.6	0.281065	0.280776	36.8939	12	0.015961	10	0.0103589
2	1	0	1	0	22869.7	0.271788	0.271535	0.665293	12	0.0172416	10	0.000180651
2	0	0	1	0	22869.8	0.218979	0.21866	-15.0882	12	0.0166521	10	-0.00329918
2	0	0	1	0	22869.8	0.166182	0.165862	-21.7832	12	0.015427	10	-0.003613
2	0	0	1	0	22869.9	0.113387	0.11311	-35.1805	12	0.0136373	10	-0.00397925
2	0	0	1	0	22870	0.0605818	0.0603352	-53.5434	12	0.010645	10	-0.00323055
2	0	0	1	0	22870	0.00778448	0.00744003	-56.9894	12	0.00693006	10	-0.000424003
2	0	0	1	0	22870.1	-0.0450129	-0.0454234	-52.2344	12	0.0032904	10	0.00237266
2	0	0	1	0	22870.2	-0.0978158	-0.0981723	-48.4872	12	6.88355e-06	10	0.0047601
2	0	0	1	0	22870.2	-0.150613	-0.150985	-51.1913	12	-0.00325836	10	0.0077291
2	0	0	1	0	22870.3	-0.200134	-0.200494	-54.9209	12	-0.00655111	10	0.0110113
2	0	0	1	1	22870.4	-0.149337	-0.149763	-2.80514	12	-0.00799157	10	0.000420107
2	1	0	1	1	22870.4	-0.0965395	-0.0969517	20.2198	12	-0.00735026	10	-0.00196035
2	1	0	1	1	22870.5	-0.0437311	-0.0441403	34.5342	12	-0.00550453	10	-0.00152435
2	1	0	1	0	24839.4	0.0042665	0.00390464	23.3242	13	0.000114926	10	9.10724e-05
2	1	0	1	0	24839.5	0.0570638	0.0566652	33.909	13	0.00204812	10	0.00192146
2	1	0	1	0	24839.6	0.109861	0.10949	42.9869	13	0.00457844	10	0.00470665
2	1	0	1	0	24839.6	0.16267	0.16233	54.0963	13	0.00776904	10	0.00878148
2	1	0	1	0	24839.7	0.215464	0.21516	57.5298	13	0.0115719	10	0.0123781
2	1	0	1	0	24839.8	0.268259	0.267934	40.4594	13	0.0148309	10	0.0108404
2	1	0	1	0	24839.8	0.284581	0.284355	11.2512	13	0.0166723	10	0.00319934
2	0	0	1	0	24839.9	0.231786	0.231486	-11.6746	13	0.0164714	10	-0.00270252
2	0	0	1	0	24839.9	0.178989	0.178689	-19.2871	13	0.0154242	10	-0.00344639
2	0	0	1	0	24840	0.12618	0.12587	-28.9115	13	0.0138904	10	-0.0036391
2	0	0	1	0	24840.1	0.0733858	0.0731386	-47.9669	13	0.0113354	10	-0.00350823
2	0	0	1	0	24840.1	0.0205857	0.0202349	-55.069	13	0.00785386	10	-0.00111432
2	0	0	1	0	24840.2	-0.0322172	-0.0325787	-52.6084	13	0.0042619	10	0.00171391
2	0	0	1	0	24840.3	-0.0850146	-0.0854071	-47.8095	13	0.000973681	10	0.00408327
2	0	0	1	0	24840.3	-0.137817	-0.138169	-48.989	13	-0.00219048	10	0.00676874
2	0	0	1	0	24840.4	-0.190615	-0.190937	-52.8133	13	-0.00555255	10	0.010084
2	0	0	1	1	24840.5	-0.162138	-0.162558	-11.5081	13	-0.00751142	10	0.00187074
2	1	0	1	1	24840.5	-0.109335	-0.109784	13.9052	13	-0.00735113	10	-0.00152657
2	1	0	1	1	24840.6	-0.0565378	-0.0569288	29.6705	13	-0.00587298	10	-0.0016891
2	1	0	1	1	24840.7	-0.00373494	-0.00411204	39.1305	13	-0.00356851	10	-0.000160906
2	1	0	1	0	26809.6	0.0442626	0.0438936	32.0715	14	0.00153023	10	0.00140774
2	1	0	1	0	26809.7	0.0970655	0.096687	40.8335	14	0.00393158	10	0.00394807
2	1	0	1	0	26809.7	0.149863	0.149461	51.3323	14	0.00695866	10	0.0076722
2	1	0	1	0	26809.8	0.202666	0.202289	59.2843	14	0.010679	10	0.0119925
2	1	0	1	0	26809.9	0.255466	0.25514	45.7388	14	0.0142448	10	0.0116698
2	1	0	1	0	26809.9	0.297385	0.297235	28.0632	14	0.0165251	10	0.00834137
2	0	0	1	0	26810	0.244587	0.244303	-8.59738	14	0.0168088	10	-0.00210037
2	0	0	1	0	26810.1	0.191784	0.191454	-18.0342	14	0.0158857	10	-0.00345272
2	0	0	1	0	26810.1	0.138987	0.138695	-25.6071	14	0.014471	10	-0.00355158
2	0	0	1	0	26810.2	0.0861787	0.0859886	-43.7982	14	0.0122187	10	-0.00376614
2	0	0	1	0	26810.3	0.0333841	0.0330637	-54.8263	14	0.00887768	10	-0.00181276
2	0	0	1	0	26810.3	-0.0194105	-0.019787	-54.4276	14	0.00523135	10	0.00107696
2	0	0	1	0	26810.4	-0.0722189	-0.0726196	-49.052	14	0.00182045	10	0.00356214
2	0	0	1	0	26810.5	-0.125016	-0.125336	-48.4881	14	-0.00136402	10	0.00607729
2	0	0	1	0	26810.5	-0.177814	-0.178099	-51.9162	14	-0.00467266	10	0.00924625
2	0	0	1	1	26810.6	-0.174934	-0.175326	-20.9794	14	-0.00721329	10	0.00367824
2	1	0	1	1	26810.6	-0.122136	-0.122578	8.56601	14	-0.00750979	10	-0.00105
2	1	0	1	1	26810.7	-0.0693335	-0.0697862	26.2277	14	-0.00631844	10	-0.00183033
2	1	0	1	1	26810.8	-0.0165361	-0.0168952	37.408	14	-0.00418455	10	-0.000632017
2	1	0	1	0	28779.7	0.031467	0.0311666	26.8222	15	0.000917995	10	0.000835957
2	1	0	1	0	28779.8	0.0842643	0.0839134	35.2189	15	0.00297047	10	0.00295534
2	1	0	1	0	28779.9	0.137067	0.136608	44.2928	15	0.00558821	10	0.00605076
2	1	0	1	0	28779.9	0.189864	0.189518	54.1682	15	0.00885827	10	0.0102659
2	1	0	1	0	28780	0.242662	0.242326	49.3164	15	0.0124014	10	0.0119507
2	1	0	1	0	28780.1	0.295467	0.295174	35.1253	15	0.0151522	10	0.0103681
2	0	0	1	0	28780.1	0.257383	0.257098	-1.68474	15	0.0159615	10	-0.000433143
2	0	0	1	0	28780.2	0.204586	0.204234	-14.1304	15	0.0153709	10	-0.00288592
2	0	0	1	0	28780.2	0.151783	0.151491	-20.9507	15	0.014212	10	-0.00317384
2	0	0	1	0	28780.3	0.0989854	0.0986679	-34.9905	15	0.0124335	10	-0.00345244
2	0	0	1	0	28780.4	0.0461881	0.0458978	-48.8563	15	0.00960445	10	-0.0022424
2	0	0	1	0	28780.4	-0.00661757	-0.0069815	-51.7538	15	0.00623964	10	0.000361319
2	0	0	1	0	28780.5	-0.0594121	-0.0597537	-48.1505	15	0.00291981	10	0.00287717
2	0	0	1	0	28780.6	-0.112221	-0.112579	-46.0722	15	-0.000159434	10	0.00518676
2	0	0	1	0	28780.6	-0.165018	-0.16531	-48.6281	15	-0.00326851	10	0.0080387
2	0	0	1	1	28780.7	-0.187741	-0.188121	-33.036	15	-0.00608116	10	0.00621476
2	1	0	1	1	28780.8	-0.134932	-0.13534	0.462823	15	-0.00699913	10	-6.26382e-05
2	1	0	1	1	28780.8	-0.0821347	-0.082526	19.0448	15	-0.00631161	10	-0.00157169
2	1	0	1	1	28780.9	-0.0293374	-0.0297251	31.304	15	-0.00461939	10	-0.000930516
2	1	0	1	0	30749.8	0.0186602	0.0182806	24.5065	16	0.000511746	10	0.000447993
2	1	0	1	0	30749.9	0.0714686	0.0710708	33.6029	16	0.00244624	10	0.00238818
2	1	0	1	0	30750	0.124266	0.123912	42.5065	16	0.00495205	10	0.00526706
2	1	0	1	0	30750	0.177061	0.176724	52.7654	16	0.00809771	10	0.00932494
2	1	0	1	0	30750.1	0.229866	0.229575	52.9192	16	0.0117022	10	0.0121489
2	1	0	1	0	30750.2	0.282663	0.282315	38.6631	16	0.014726	10	0.0109152
2	1	0	1	0	30750.2	0.27019	0.2699	4.77692	16	0.0161417	10	0.00128929
2	0	0	1	0	30750.3	0.217381	0.21709	-12.0303	16	0.0157973	10	-0.00261166
2	0	0	1	0	30750.4	0.164584	0.164219	-19.4578	16	0.0147421	10	-0.00319533
2	0	0	1	0	30750.4	0.111787	0.11148	-31.0154	16	0.0131439	10	-0.00345759
2	0	0	1	0	30750.5	0.0589837	0.0587425	-47.0608	16	0.0105221	10	-0.00276447
2	0	0	1	0	30750.6	0.00618641	0.00587593	-52.2214	16	0.00718974	10	-0.00030685
2	0	0	1	0	30750.6	-0.0466193	-0.0469705	-49.9015	16	0.00378661	10	0.0023439
2	0	0	1	0	30750.7	-0.0994138	-0.099748	-46.7691	16	0.000620218	10	0.00466512
2	0	0	1	0	30750.8	-0.152211	-0.15258	-48.4336	16	-0.00249982	10	0.00738999
2	0	0	0	1	30750.8	-0.199984	-0.200456	-50.9352	16	-0.00550754	10	0.0102103
2	0	0	1	1	30750.9	-0.147739	-0.148161	-5.64118	16	-0.007006	10	0.000835802
2	1	0	1	1	30750.9	-0.0949359	-0.0953749	15.0896	16	-0.00664167	10	-0.00143917
2	1	0	1	1	30751	-0.042133	-0.0425412	28.8826	16	-0.00515875	10	-0.0012287
2	1	0	1	0	32719.9	0.00586735	0.00553024	23.661	17	0.000160586	10	0.000130851
2	1	0	1	0	32720	0.0586619	0.0583056	34.0678	17	0.00210586	10	0.00198635
2	1	0	1	0	32720.1	0.111465	0.111084	42.9813	17	0.00464162	10	0.00477455
2	1	0	1	0	32720.1	0.164268	0.163881	53.7813	17	0.0078252	10	0.00881372
2	1	0	1	0	32720.2	0.217062	0.216737	56.0513	17	0.0115662	10	0.0121484
2	1	0	1	0	32720.3	0.269868	0.269545	40.3968	17	0.0147723	10	0.0108888
2	1	0	1	0	32720.3	0.282983	0.282743	10.6258	17	0.0165818	10	0.00300436
2	0	0	1	0	32720.4	0.230188	0.229893	-11.7216	17	0.0163756	10	-0.00269471
2	0	0	1	0	32720.5	0.17738	0.177086	-19.5847	17	0.015317	10	-0.00346817
2	0	0	1	0	32720.5	0.124582	0.124282	-29.4139	17	0.0137576	10	-0.00365562
2	0	0	1	0	32720.6	0.0717877	0.0714918	-47.7441	17	0.0111842	10	-0.00341331
2	0	0	1	0	32720.7	0.0189821	0.0186422	-54.266	17	0.007746	10	-0.00101164
2	0	0	1	0	32720.7	-0.0338153	-0.0342064	-51.7779	17	0.00420869	10	0.00177114
2	0	0	1	0	32720.8	-0.0866126	-0.0870009	-47.6238	17	0.000952078	10	0.00414332
2	0	0	1	0	32720.9	-0.139416	-0.139812	-48.9263	17	-0.00220645	10	0.0068405
2	0	0	1	0	32720.9	-0.192213	-0.19256	-52.2544	17	-0.00555087	10	0.0100621
2	0	0	1	1	32721	-0.160532	-0.160944	-10.7813	17	-0.00740097	10	0.00173519
2	1	0	1	1	32721.1	-0.107737	-0.108216	13.3551	17	-0.0072445	10	-0.00144524
2	1	0	1	1	32721.1	-0.0549398	-0.0553679	28.9741	17	-0.00581136	10	-0.00160423
2	1	0	1	1	32721.2	-0.00213132	-0.00257339	38.7564	17	-0.0035437	10	-9.97351e-05
2	1	0	1	0	34690.1	0.0458662	0.04555	29.1594	18	0.00141844	10	0.00132821
2	1	0	1	0	34690.2	0.0986636	0.0982861	37.4288	18	0.00361396	10	0.00367873
2	1	0	1	0	34690.3	0.151461	0.151082	47.0047	18	0.00638676	10	0.00710155
2	1	0	1	0	34690.3	0.204269	0.203916	54.2351	18	0.00978861	10	0.0110594
2	1	0	1	0	34690.4	0.257064	0.256768	44.0154	18	0.013115	10	0.0113017
2	1	0	1	0	34690.5	0.295787	0.295528	26.3472	18	0.0153435	10	0.00778634
2	0	0	1	0	34690.5	0.242981	0.242681	-6.22452	18	0.0157273	10	-0.00151057
2	0	0	1	0	34690.6	0.190186	0.189873	-15.9689	18	0.0149518	10	-0.00303207
2	0	0	1	0	34690.7	0.137389	0.137089	-23.4146	18	0.0136713	10	-0.00320988
2	0	0	1	0	34690.7	0.0845806	0.0843884	-39.6512	18	0.0116188	10	-0.00334611
2	0	0	1	0	34690.8	0.031786	0.031437	-49.8693	18	0.00859306	10	-0.00156774
2	0	0	1	0	34690.8	-0.0210196	-0.0213606	-50.4767	18	0.0052441	10	0.00107821
2	0	0	1	0	34690.9	-0.073817	-0.0741911	-46.5855	18	0.00204251	10	0.00345623
2	0	0	1	0	34691	-0.126614	-0.12694	-46.3078	18	-0.000995274	10	0.00587832
2	0	0	1	0	34691	-0.179417	-0.179775	-49.4336	18	-0.00415018	10	0.00888691
2	0	0	1	1	34691.1	-0.173336	-0.173731	-20.4002	18	-0.00653576	10	0.00354413
2	1	0	1	1	34691.2	-0.120538	-0.121004	6.09291	18	-0.00691315	10	-0.000737265
2	1	0	1	1	34691.2	-0.0677354	-0.06815	22.5548	18	-0.00593111	10	-0.00153711
2	1	0	1	1	34691.3	-0.0149381	-0.0153195	33.412	18	-0.00405449	10	-0.000511854
2	1	0	1	0	36660.2	0.033065	0.0326979	26.25	19	0.000934346	10	0.000858317
2	1	0	1	0	36660.3	0.0858624	0.0855029	34.6942	19	0.00295182	10	0.00296646
2	1	0	1	0	36660.4	0.138665	0.138205	43.5208	19	0.00552868	10	0.0060148
2	1	0	1	0	36660.4	0.191463	0.191147	52.8563	19	0.0087339	10	0.0101033
2	1	0	1	0	36660.5	0.244265	0.243973	48.9213	19	0.0121988	10	0.0119355
2	1	0	1	0	36660.6	0.297066	0.296788	36.0675	19	0.0149834	10	0.0107044
2	0	0	1	0	36660.6	0.255785	0.255512	-0.569174	19	0.015824	10	-0.000145431
2	0	0	1	0	36660.7	0.202988	0.202659	-13.5835	19	0.0152896	10	-0.00275282
2	0	0	1	0	36660.8	0.150185	0.149867	-20.8003	19	0.0141509	10	-0.00311728
2	0	0	1	0	36660.8	0.0973873	0.0970645	-34.4799	19	0.0123874	10	-0.00334678
2	0	0	1	0	36660.9	0.0445789	0.044339	-47.5911	19	0.00962173	10	-0.00211014
2	0	0	1	0	36661	-0.00821564	-0.00856999	-50.8272	19	0.00633214	10	0.000435588
2	0	0	1	0	36661	-0.0610102	-0.061392	-47.9155	19	0.00305315	10	0.00294163
2	0	0	1	0	36661.1	-0.113819	-0.114187	-46.1001	19	-2.46757e-05	10	0.00526401
2	0	0	1	0	36661.2	-0.166616	-0.166995	-48.2784	19	-0.00312511	10	0.00806224
2	0	0	1	1	36661.2	-0.186137	-0.186573	-31.2614	19	-0.00586851	10	0.00583253
2	0	0	1	1	36661.3	-0.133334	-0.133748	-0.256105	19	-0.00677093	10	3.42535e-05
2	1	0	1	1	36661.4	-0.0805366	-0.0809205	17.6729	19	-0.00615742	10	-0.0014301
2	1	0	1	1	36661.4	-0.0277337	-0.0281143	29.97	19	-0.00455687	10	-0.000842587
2	1	0	1	0	38630.4	0.0202638	0.0199253	24.8596	20	0.000560895	10	0.000495333
2	1	0	1	0	38630.4	0.0730667	0.0726911	33.8232	20	0.00251397	10	0.00245865
2	1	0	1	0	38630.5	0.125864	0.125437	42.5288	20	0.00502858	10	0.00533467
2	1	0	1	0	38630.6	0.178667	0.178294	52.4431	20	0.00816991	10	0.00935028
2	1	0	1	0	38630.6	0.231464	0.231122	51.6391	20	0.0117143	10	0.0119349
2	1	0	1	0	38630.7	0.284262	0.283934	38.018	20	0.0146737	10	0.0107946
2	1	0	1	0	38630.7	0.26858	0.268297	4.05068	20	0.0160164	10	0.00108678
2	0	0	1	0	38630.8	0.215783	0.215472	-12.3648	20	0.0156438	10	-0.00266427
2	0	0	1	0	38630.9	0.162986	0.162719	-19.8116	20	0.014566	10	-0.00322371
2	0	0	1	0	38630.9	0.110183	0.109919	-31.5268	20	0.0129388	10	-0.00346539
2	0	0	1	0	38631	0.0573857	0.0570957	-46.88	20	0.010303	10	-0.00267665
2	0	0	1	0	38631.1	0.00458834	0.00423442	-51.5507	20	0.00700232	10	-0.000218287
2	0	0	1	0	38631.1	-0.0482173	-0.0485866	-49.1082	20	0.00365	10	0.002386
2	0	0	1	0	38631.2	-0.101012	-0.101375	-46.4009	20	0.000521555	10	0.00470388
2	0	0	1	0	38631.3	-0.15382	-0.154166	-48.1368	20	-0.00257851	10	0.00742105
2	0	0	1	1	38631.3	-0.198935	-0.199433	-47.7049	20	-0.0055097	10	0.00951391
2	0	0	1	1	38631.4	-0.146141	-0.146545	-4.97182	20	-0.00693753	10	0.000728595
2	1	0	1	1	38631.5	-0.0933323	-0.0937854	15.0335	20	-0.00655841	10	-0.00140992
2	1	0	1	1	38631.5	-0.0405349	-0.0409368	28.7088	20	-0.005085	10	-0.00117525
2	1	0	1	0	40600.5	0.00746542	0.00710176	19.5132	21	0.000167413	10	0.000138578
2	1	0	1	0	40600.5	0.06026	0.0599418	29.6204	21	0.00182219	10	0.0017755
2	1	0	1	0	40600.6	0.113068	0.11271	37.8724	21	0.00404763	10	0.00426859
2	1	0	1	0	40600.7	0.165866	0.165505	47.2629	21	0.00684875	10	0.00782226
2	1	0	1	0	40600.7	0.21866	0.218295	52.0002	21	0.0101957	10	0.0113514
2	1	0	1	0	40600.8	0.271466	0.271122	42.1498	21	0.0133564	10	0.0114277
2	1	0	1	0	40600.9	0.281384	0.281109	14.9597	21	0.0153008	10	0.00420531
2	0	0	1	0	40600.9	0.22859	0.228287	-7.53644	21	0.0154028	10	-0.00172047
2	0	0	1	0	40601	0.175782	0.175457	-16.5606	21	0.0145762	10	-0.00290568
2	0	0	1	0	40601.1	0.122984	0.122686	-25.3572	21	0.013228	10	-0.00311098
2	0	0	1	0	40601.1	0.0701813	0.0699404	-40.8528	21	0.0110356	10	-0.00285726
2	0	0	1	0	40601.2	0.017384	0.0170452	-48.7227	21	0.00802537	10	-0.000830487
2	0	0	1	0	40601.3	-0.0354134	-0.0357578	-48.9518	21	0.0047675	10	0.00175041
2	0	0	1	0	40601.3	-0.088219	-0.0885766	-46.0746	21	0.00163828	10	0.00408113
2	0	0	1	0	40601.4	-0.141014	-0.141404	-46.4919	21	-0.00139377	10	0.00657414
2	0	0	1	0	40601.5	-0.193811	-0.194166	-49.0906	21	-0.00454949	10	0.00953171
2	0	0	1	1	40601.5	-0.158934	-0.159316	-13.1657	21	-0.00635289	10	0.00209751
2	1	0	1	1	40601.6	-0.106139	-0.106581	8.4887	21	-0.00644811	10	-0.000904736
2	1	0	1	1	40601.6	-0.0533306	-0.0537921	23.1439	21	-0.00537435	10	-0.00124496
2	1	0	1	1	40601.7	-0.000774629	-0.00116676	32.9338	21	-0.00350591	10	-3.84257e-05
2	1	0	1	0	42570.7	0.0474671	0.047112	28.6013	22	0.00142354	10	0.00134746
2	1	0	1	0	42570.7	0.100262	0.0999117	36.8797	22	0.00358431	10	0.00368471
2	1	0	1	0	42570.8	0.153064	0.152668	46.2282	22	0.0063144	10	0.00705757
2	1	0	1	0	42570.9	0.205867	0.205489	52.8998	22	0.00964256	10	0.0108703
2	1	0	1	0	42570.9	0.258662	0.258349	44.4642	22	0.0129316	10	0.0114873
2	1	0	1	0	42571	0.294183	0.293937	25.8589	22	0.0151973	10	0.0076009
2	0	0	1	0	42571	0.241383	0.241049	-5.14352	22	0.015642	10	-0.00123984
2	0	0	1	0	42571.1	0.188588	0.188244	-15.5473	22	0.014915	10	-0.00292668
2	0	0	1	0	42571.2	0.13578	0.135444	-23.3181	22	0.0136494	10	-0.0031583
2	0	0	1	0	42571.2	0.0829825	0.0827437	-38.9006	22	0.0116205	10	-0.00321878
2	0	0	1	0	42571.3	0.030188	0.0298475	-48.7328	22	0.00866513	10	-0.00145455
2	0	0	1	0	42571.4	-0.0226177	-0.0229958	-49.8094	22	0.00537618	10	0.00114541
2	0	0	1	0	42571.4	-0.075415	-0.0758263	-46.6399	22	0.00219303	10	0.00353653
2	0	0	1	0	42571.5	-0.128218	-0.12856	-46.334	22	-0.000850924	10	0.00595671
2	0	0	1	0	42571.6	-0.181015	-0.181354	-48.9019	22	-0.00399109	10	0.00886854
2	0	0	1	1	42571.6	-0.171738	-0.172131	-19.826	22	-0.00629628	10	0.00341268
2	1	0	1	1	42571.7	-0.118932	-0.119399	5.10564	22	-0.00669947	10	-0.000609611
2	1	0	1	1	42571.8	-0.0661374	-0.0665117	21.2141	22	-0.0057986	10	-0.00141099
2	1	0	1	1	42571.8	-0.01334	-0.0137352	32.2345	22	-0.00400694	10	-0.000442749
2	1	0	1	0	44540.8	0.0346631	0.0342863	26.9838	23	0.00100622	10	0.000925177
2	1	0	1	0	44540.8	0.087466	0.08712	35.3068	23	0.00306736	10	0.00307593
2	1	0	1	0	44540.9	0.140263	0.139825	44.1022	23	0.00568186	10	0.00616661
2	1	0	1	0	44541	0.193061	0.19272	52.7723	23	0.00891532	10	0.0101702
2	1	0	1	0	44541	0.245869	0.245572	47.4161	23	0.0123169	10	0.0116441
2	1	0	1	0	44541.1	0.298664	0.29838	35.1231	23	0.0150159	10	0.01048
2	0	0	1	0	44541.2	0.254187	0.253864	-1.53831	23	0.015752	10	-0.000390521
2	0	0	1	0	44541.2	0.201381	0.20106	-14.174	23	0.0151702	10	-0.00284981
2	0	0	1	0	44541.3	0.148587	0.148276	-21.3865	23	0.0139952	10	-0.0031711
2	0	0	1	0	44541.4	0.0957893	0.0955142	-35.4849	23	0.0121765	10	-0.00338931
2	0	0	1	0	44541.4	0.0429808	0.0426678	-47.858	23	0.009365	10	-0.002042
2	0	0	1	0	44541.5	-0.00981371	-0.0101532	-50.4142	23	0.00608105	10	0.000511864
2	0	0	1	0	44541.6	-0.0626194	-0.0629699	-47.3201	23	0.00284309	10	0.00297974
2	0	0	1	0	44541.6	-0.115417	-0.115802	-46.0057	23	-0.000211969	10	0.00532753
2	0	0	1	0	44541.7	-0.168214	-0.168527	-48.3283	23	-0.00331443	10	0.00814462
2	0	0	1	1	44541.7	-0.184533	-0.184944	-29.1765	23	-0.00600753	10	0.00539602
2	1	0	1	1	44541.8	-0.131736	-0.132213	0.676918	23	-0.0068201	10	-8.94977e-05
2	1	0	1	1	44541.9	-0.0789386	-0.0793225	18.355	23	-0.00615567	10	-0.00145597
2	1	0	1	1	44541.9	-0.0261357	-0.0265365	30.6116	23	-0.0045115	10	-0.000812323
2	1	0	1	0	46510.9	0.0218675	0.0215254	23.6851	24	0.000571072	10	0.00050983
2	1	0	1	0	46510.9	0.0746648	0.0743114	32.4215	24	0.00243787	10	0.00240929
2	1	0	1	0	46511	0.127462	0.127131	40.8231	24	0.00485078	10	0.0051899
2	1	0	1	0	46511.1	0.180265	0.17992	50.1644	24	0.00786151	10	0.0090256
2	1	0	1	0	46511.1	0.233062	0.232701	49.5144	24	0.0112461	10	0.0115221
2	1	0	1	0	46511.2	0.285865	0.285567	37.6484	24	0.0141278	10	0.0107511
2	1	0	1	0	46511.3	0.266982	0.266715	4.90003	24	0.0154539	10	0.00130691
2	0	0	1	0	46511.3	0.214185	0.213897	-11.2712	24	0.0151534	10	-0.00241088
2	0	0	1	0	46511.4	0.161382	0.161134	-18.9505	24	0.0141396	10	-0.00305357
2	0	0	1	0	46511.5	0.108585	0.108291	-30.3256	24	0.0125752	10	-0.00328399
2	0	0	1	0	46511.5	0.0557876	0.0555581	-44.6559	24	0.0100545	10	-0.00248099
2	0	0	1	0	46511.6	0.00297917	0.00267881	-49.4548	24	0.00690172	10	-0.00013248
2	0	0	1	0	46511.7	-0.0498154	-0.0501867	-47.5576	24	0.00367322	10	0.00238676
2	0	0	1	0	46511.7	-0.10261	-0.102967	-45.3623	24	0.000626445	10	0.00467084
2	0	0	1	0	46511.8	-0.155418	-0.155776	-46.9425	24	-0.00240256	10	0.0073125
2	0	0	1	1	46511.9	-0.197337	-0.197801	-43.3792	24	-0.00524637	10	0.00858044
2	0	0	1	1	46511.9	-0.144532	-0.144922	-5.28443	24	-0.00660435	10	0.000765833
2	1	0	1	1	46512	-0.0917342	-0.0921608	13.7174	24	-0.00628406	10	-0.0012642
2	1	0	1	1	46512.1	-0.0389369	-0.039361	26.999	24	-0.00491247	10	-0.00106271
2	1	0	1	0	48481	0.00906349	0.00869237	19.8177	25	0.000205476	10	0.000172263
2	1	0	1	0	48481.1	0.0618636	0.0614964	29.6817	25	0.00186966	10	0.00182532
2	1	0	1	0	48481.1	0.114666	0.114279	37.7788	25	0.00409477	10	0.00431733
2	1	0	1	0	48481.2	0.167464	0.167114	46.9097	25	0.00688371	10	0.00783927
2	1	0	1	0	48481.3	0.220267	0.21997	50.9281	25	0.0101837	10	0.0112026
2	1	0	1	0	48481.3	0.273064	0.272737	41.4296	25	0.0132797	10	0.0112994
2	1	0	1	0	48481.4	0.279786	0.279492	13.9828	25	0.0151592	10	0.00390808
2	0	0	1	0	48481.5	0.226981	0.22671	-7.77623	25	0.0152319	10	-0.00176295
2	0	0	1	0	48481.5	0.174183	0.173825	-16.7844	25	0.0143906	10	-0.00291756
2	0	0	1	0	48481.6	0.121386	0.121109	-25.5711	25	0.0130277	10	-0.00309689
2	0	0	1	0	48481.6	0.0685832	0.0683487	-40.5957	25	0.0108333	10	-0.00277467
2	0	0	1	0	48481.7	0.0157859	0.0154917	-48.1806	25	0.00785245	10	-0.0007464
2	0	0	1	0	48481.8	-0.037017	-0.0373759	-48.3045	25	0.00463417	10	0.00180543
2	0	0	1	0	48481.8	-0.0898171	-0.0901821	-45.5685	25	0.00154413	10	0.00410946
2	0	0	1	0	48481.9	-0.142612	-0.142987	-45.9468	25	-0.00145523	10	0.0065698
2	0	0	1	0	48482	-0.19542	-0.195769	-48.1659	25	-0.00456329	10	0.00942939
2	0	0	1	1	48482	-0.157336	-0.157783	-12.1406	25	-0.00625325	10	0.00191558
2	1	0	1	1	48482.1	-0.104541	-0.105012	8.64767	25	-0.00631454	10	-0.000908108
2	1	0	1	1	48482.2	-0.0517325	-0.0521464	23.0258	25	-0.0052414	10	-0.00120071
2	1	0	0	1	48482.2	-0.000125413	-0.000535284	32.6766	25	-0.00342158	10	-1.74913e-05
2	1	0	1	0	50451.2	0.0490652	0.0487354	27.7354	26	0.00141251	10	0.0013517
2	1	0	1	0	50451.2	0.10186	0.101475	35.8202	26	0.00351159	10	0.00363485
2	1	0	1	0	50451.3	0.154668	0.154273	44.733	26	0.00615946	10	0.00690112
2	1	0	1	0	50451.4	0.207465	0.207128	50.8544	26	0.00936687	10	0.0105334
2	1	0	1	0	50451.4	0.260263	0.25995	43.6569	26	0.0125521	10	0.0113486
2	1	0	1	0	50451.5	0.292579	0.292314	24.7235	26	0.0147813	10	0.00722704
2	0	0	1	0	50451.6	0.239785	0.239467	-4.41579	26	0.0152464	10	-0.00105743
2	0	0	1	0	50451.6	0.18699	0.186692	-14.9811	26	0.0145631	10	-0.00279685
2	0	0	1	0	50451.7	0.134182	0.133824	-22.7385	26	0.0133323	10	-0.00304295
2	0	0	1	0	50451.8	0.0813844	0.0811574	-37.427	26	0.0113665	10	-0.00303748
2	0	0	1	0	50451.8	0.0285816	0.0282569	-46.9837	26	0.00852441	10	-0.00132761
2	0	0	1	0	50451.9	-0.0242158	-0.0246203	-48.415	26	0.00534024	10	0.00119199
2	0	0	1	0	50452	-0.0770131	-0.0774063	-45.7539	26	0.00223103	10	0.00354164
2	0	0	1	0	50452	-0.129819	-0.130174	-45.4516	26	-0.000758036	10	0.00591663
2	0	0	1	0	50452.1	-0.182613	-0.182996	-47.6391	26	-0.00382803	10	0.00871777
2	0	0	1	1	50452.2	-0.17014	-0.170537	-18.8903	26	-0.00602287	10	0.00322149
2	1	0	1	1	50452.2	-0.117334	-0.117761	4.47866	26	-0.00642511	10	-0.000527412
2	1	0	1	1	50452.3	-0.0645393	-0.0650017	19.9803	26	-0.00558836	10	-0.00129875
2	1	0	1	1	50452.4	-0.0117308	-0.0121181	30.8608	26	-0.00388498	10	-0.000373975
2	1	0	1	0	52421.3	0.0362612	0.0359098	24.9206	27	0.000956314	10	0.000894894
2	1	0	1	0	52421.4	0.0890668	0.0886396	33.0763	27	0.00287723	10	0.00293187
2	1	0	1	0	52421.4	0.141861	0.141387	41.3774	27	0.00532863	10	0.00585024
2	1	0	1	0	52421.5	0.194664	0.194284	49.5	27	0.00835634	10	0.00961704
2	1	0	1	0	52421.6	0.247467	0.24714	46.2525	27	0.0115958	10	0.0114308
2	1	0	1	0	52421.6	0.299638	0.29925	35.7766	27	0.0142615	10	0.0107062
2	1	0	1	0	52421.7	0.252583	0.252289	0.512151	27	0.0150928	10	0.00012921
2	0	0	1	0	52421.7	0.199783	0.19945	-12.5128	27	0.0146367	10	-0.00249568
2	0	0	1	0	52421.8	0.146989	0.146679	-20.0402	27	0.0135577	10	-0.00293948
2	0	0	1	0	52421.9	0.0941801	0.0938621	-33.0521	27	0.0118543	10	-0.00310234
2	0	0	1	0	52421.9	0.0413828	0.0410995	-44.6629	27	0.0092372	10	-0.00183562
2	0	0	1	0	52422	-0.0114118	-0.0117629	-47.9266	27	0.00614398	10	0.000563754
2	0	0	1	0	52422.1	-0.0642174	-0.0645574	-45.9123	27	0.00303368	10	0.00296398
2	0	0	1	0	52422.1	-0.117015	-0.117382	-44.7982	27	5.86087e-05	10	0.00525849
2	0	0	1	0	52422.2	-0.169818	-0.170155	-46.8003	27	-0.00295391	10	0.00796329
2	0	0	1	1	52422.3	-0.182935	-0.183339	-27.9067	27	-0.00552722	10	0.00511638
2	0	0	1	1	52422.3	-0.130138	-0.130609	-0.83606	27	-0.00636791	10	0.000109197
2	1	0	1	1	52422.4	-0.0773322	-0.0777806	15.8024	27	-0.00584257	10	-0.00122912
2	1	0	1	1	52422.5	-0.0245376	-0.024983	27.6567	27	-0.00438348	10	-0.000690946
2	1	0	1	0	54391.4	0.0234655	0.0230736	23.375	28	0.000600781	10	0.000539344
2	1	0	1	0	54391.5	0.0762629	0.0758235	31.9727	28	0.00244186	10	0.00242428
2	1	0	1	0	54391.5	0.129066	0.128667	40.1805	28	0.00481886	10	0.00516989
2	1	0	1	0	54391.6	0.181863	0.18151	48.9639	28	0.00777607	10	0.00888743
2	1	0	1	0	54391.7	0.23466	0.234295	47.535	28	0.0110443	10	0.0111372
2	1	0	1	0	54391.7	0.287469	0.287153	36.7921	28	0.0138303	10	0.010565
2	1	0	1	0	54391.8	0.265384	0.26508	4.68088	28	0.0150925	10	0.00124081
2	0	0	1	0	54391.9	0.212587	0.212271	-10.9544	28	0.0148027	10	-0.00232531
2	0	0	1	0	54391.9	0.159781	0.159447	-18.6847	28	0.0138088	10	-0.00297923
2	0	0	1	0	54392	0.106987	0.106678	-30.0836	28	0.0122578	10	-0.00320926
2	0	0	1	0	54392.1	0.054184	0.0538986	-43.6389	28	0.00977657	10	-0.00235207
2	0	0	1	0	54392.1	0.0013811	0.000991701	-48.1182	28	0.00670759	10	-4.77189e-05
2	0	0	1	0	54392.2	-0.0514135	-0.0518325	-46.4159	28	0.00356741	10	0.00240585
2	0	0	1	0	54392.3	-0.104219	-0.104638	-44.7224	28	0.000577134	10	0.00467964
2	0	0	1	0	54392.3	-0.157017	-0.157437	-46.3017	28	-0.00241197	10	0.00728962
2	0	0	1	1	54392.4	-0.195739	-0.196188	-39.9439	28	-0.00519585	10	0.00783651
2	0	0	1	1	54392.4	-0.142933	-0.143375	-4.69727	28	-0.0064504	10	0.000673472
2	1	0	1	1	54392.5	-0.0901362	-0.090584	13.402	28	-0.00612491	10	-0.00121401
2	1	0	1	1	54392.6	-0.0373388	-0.0377916	26.2839	28	-0.00478899	10	-0.000993312
2	1	0	1	0	56361.5	0.0106616	0.0103063	18.1255	29	0.000218602	10	0.000186807
2	1	0	1	0	56361.6	0.0634672	0.0631018	27.6088	29	0.0017545	10	0.00174217
2	1	0	1	0	56361.7	0.116265	0.115827	35.3599	29	0.00383334	10	0.00409565
2	1	0	1	0	56361.7	0.169062	0.168646	43.9208	29	0.00644557	10	0.00740707
2	1	0	1	0	56361.8	0.221865	0.221467	47.4689	29	0.00952399	10	0.0105128
2	1	0	1	0	56361.9	0.274662	0.274305	39.7967	29	0.0124444	10	0.0109164
2	1	0	1	0	56361.9	0.278188	0.27789	14.1548	29	0.014257	10	0.00393349
2	0	0	1	0	56362	0.225383	0.225041	-6.22304	29	0.0144054	10	-0.00140044
2	0	0	1	0	56362	0.172585	0.172238	-15.2584	29	0.0136672	10	-0.00262807
2	0	0	1	0	56362.1	0.119782	0.119435	-23.9119	29	0.0124054	10	-0.00285591
2	0	0	1	0	56362.2	0.0669852	0.0666712	-37.7595	29	0.0103578	10	-0.00251747
2	0	0	1	0	56362.2	0.0141879	0.0138778	-44.891	29	0.00758716	10	-0.000622986
2	0	0	1	0	56362.3	-0.0386206	-0.0389846	-45.5583	29	0.00457165	10	0.00177607
2	0	0	1	0	56362.4	-0.0914152	-0.0917706	-43.7035	29	0.00163084	10	0.0040107
2	0	0	1	0	56362.4	-0.14421	-0.144629	-44.197	29	-0.00125345	10	0.00639216
2	0	0	1	0	56362.5	-0.197018	-0.19742	-46.2368	29	-0.00424089	10	0.00912807
2	0	0	1	1	56362.6	-0.155737	-0.1562	-11.9939	29	-0.00582827	10	0.00187344
2	1	0	1	1	56362.6	-0.102932	-0.103413	7.17766	29	-0.00593993	10	-0.000742262
2	1	0	1	1	56362.7	-0.0501345	-0.0505377	20.6826	29	-0.00499498	10	-0.00104525
2	1	0	1	1	56362.8	2.44065e-05	-0.000363498	29.7337	29	-0.00339451	10	-1.08081e-05
2	1	0	1	0	58331.7	0.0506632	0.0502794	26.3031	30	0.00136435	10	0.00132251
2	1	0	1	0	58331.8	0.103463	0.103064	34.1976	30	0.00336387	10	0.00352456
2	1	0	1	0	58331.8	0.156266	0.155817	42.6741	30	0.00589239	10	0.00664937
2	1	0	1	0	58331.9	0.209064	0.208683	48.4604	30	0.00895057	10	0.0101128
2	1	0	1	0	58332	0.261866	0.261543	42.5398	30	0.0120109	10	0.011126
2	1	0	1	0	58332	0.290981	0.290675	23.9988	30	0.0141962	10	0.00697584
2	0	0	1	0	58332.1	0.238187	0.23787	-3.15945	30	0.0147086	10	-0.000751537
2	0	0	1	0	58332.2	0.185381	0.185029	-13.8316	30	0.0141071	10	-0.00255925
2	0	0	1	0	58332.2	0.132584	0.132241	-21.6236	30	0.012948	10	-0.00285953
2	0	0	1	0	58332.3	0.0797864	0.0794925	-35.4897	30	0.01108	10	-0.00282117
2	0	0	1	0	58332.4	0.0269835	0.0266398	-44.7049	30	0.00838316	10	-0.00119093
2	0	0	1	0	58332.4	-0.0258138	-0.0262343	-46.6117	30	0.00533588	10	0.00122282
2	0	0	1	0	58332.5	-0.0786167	-0.0789895	-44.6956	30	0.00232006	10	0.00353048
2	0	0	1	0	58332.6	-0.131417	-0.131836	-44.5491	30	-0.000607941	10	0.00587318
2	0	0	1	0	58332.6	-0.184211	-0.184604	-46.5656	30	-0.00361264	10	0.00859619
2	0	0	1	1	58332.7	-0.16853	-0.16893	-18.3676	30	-0.00571985	10	0.00310283
2	1	0	1	1	58332.7	-0.115736	-0.116213	3.59592	30	-0.00614169	10	-0.000417892
2	1	0	1	1	58332.8	-0.0629412	-0.0634142	18.4085	30	-0.00538818	10	-0.00116736
2	1	0	1	1	58332.9	-0.0101328	-0.0105826	28.9638	30	-0.00380122	10	-0.000306513
2	1	0	1	0	60301.8	0.0378704	0.0374697	23.1522	31	0.000911703	10	0.000867506
2	1	0	1	0	60301.9	0.0906649	0.0902949	31.2828	31	0.0027161	10	0.00282468
2	1	0	1	0	60301.9	0.143459	0.143083	39.2984	31	0.00504046	10	0.00562293
2	1	0	1	0	60302	0.196268	0.195861	46.7855	31	0.00790648	10	0.00916347
2	1	0	1	0	60302.1	0.249065	0.248722	44.6734	31	0.0109899	10	0.0111112
2	1	0	0	0	60302.1	0.299862	0.299517	36.0539	31	0.0135542	10	0.0107988
2	1	0	1	0	60302.2	0.25098	0.250678	2.15152	31	0.0144863	10	0.00053934
2	0	0	1	0	60302.3	0.198185	0.197822	-10.9753	31	0.0141394	10	-0.00217116
2	0	0	1	0	60302.3	0.145385	0.145032	-18.7011	31	0.0131527	10	-0.00271226
2	0	0	1	0	60302.4	0.092582	0.0922832	-30.8161	31	0.0115602	10	-0.0028438
2	0	0	1	0	60302.5	0.0397847	0.0394781	-41.9335	31	0.00911511	10	-0.00165545
2	0	0	1	0	60302.5	-0.0130182	-0.0133927	-45.8494	31	0.00618386	10	0.000614049
2	0	0	1	0	60302.6	-0.0658155	-0.0661628	-44.7146	31	0.00318037	10	0.00295844
2	0	0	1	0	60302.7	-0.118613	-0.119013	-43.8145	31	0.000271932	10	0.00521451
2	0	0	1	0	60302.7	-0.171419	-0.171735	-45.3332	31	-0.00266089	10	0.00778528
2	0	0	1	1	60302.8	-0.181337	-0.181759	-26.5887	31	-0.00511945	10	0.00483273
2	0	0	1	1	60302.9	-0.12854	-0.128994	-1.70368	31	-0.00595961	10	0.000219764
2	1	0	1	1	60302.9	-0.0757341	-0.0761709	14.015	31	-0.00552478	10	-0.00106754
2	1	0	1	1	60303	-0.0229395	-0.023386	25.431	31	-0.00420034	10	-0.000594728
2	1	0	1	0	62271.9	0.0250636	0.0246981	20.3715	32	0.000547701	10	0.000503138
2	1	0	1	0	62272	0.0778609	0.0774566	28.8733	32	0.00218776	10	0.00223643
2	1	0	1	0	62272.1	0.130667	0.130286	36.5633	32	0.00434632	10	0.00476368
2	1	0	1	0	62272.1	0.183461	0.183075	44.6854	32	0.00703654	10	0.00818079
2	1	0	1	0	62272.2	0.236264	0.235897	45.5882	32	0.0100805	10	0.0107541
2	1	0	1	0	62272.3	0.289067	0.288744	37.4489	32	0.0128406	10	0.0108131
2	1	0	1	0	62272.3	0.263786	0.263494	7.54278	32	0.0141892	10	0.00198748
2	0	0	1	0	62272.4	0.210983	0.210706	-8.35693	32	0.0140874	10	-0.00176086
2	0	0	1	0	62272.5	0.158183	0.157859	-16.5677	32	0.0132462	10	-0.00261536
2	0	0	1	0	62272.5	0.105389	0.105079	-26.8016	32	0.0118581	10	-0.00281629
2	0	0	1	0	62272.6	0.0525804	0.0523292	-39.3153	32	0.00964311	10	-0.00205734
2	0	0	1	0	62272.6	-0.000216969	-0.000599969	-44.7448	32	0.00683438	10	2.68455e-05
2	0	0	1	0	62272.7	-0.0530115	-0.0534093	-44.512	32	0.00386617	10	0.00237736
2	0	0	1	0	62272.8	-0.105817	-0.106198	-43.2135	32	0.000980219	10	0.00458921
2	0	0	1	0	62272.8	-0.158615	-0.159001	-44.3315	32	-0.00189556	10	0.00704877
2	0	0	1	1	62272.9	-0.194133	-0.194578	-37.1325	32	-0.00454141	10	0.00722518
2	0	0	1	1	62273	-0.141335	-0.141737	-6.59847	32	-0.00581899	10	0.000935248
2	1	0	1	1	62273	-0.0885381	-0.089004	10.2167	32	-0.00566576	10	-0.000909326
2	1	0	1	1	62273.1	-0.0357324	-0.0361331	22.4714	32	-0.00456438	10	-0.000811961
2	1	0	1	0	64242	0.0122624	0.0119043	18.7792	33	0.000259256	10	0.000223554
2	1	0	1	0	64242.1	0.0650653	0.0647009	28.1664	33	0.00183421	10	0.00182239
2	1	0	1	0	64242.2	0.117863	0.117486	35.9116	33	0.00394946	10	0.00421911
2	1	0	1	0	64242.2	0.170668	0.170311	44.3956	33	0.00659869	10	0.00756106
2	1	0	1	0	64242.3	0.223463	0.223153	47.0772	33	0.00968163	10	0.0105054
2	1	0	1	0	64242.4	0.27626	0.275902	39.2657	33	0.012565	10	0.0108335
2	1	0	1	0	64242.4	0.276582	0.276289	13.1328	33	0.0143174	10	0.00362846
2	0	0	1	0	64242.5	0.223785	0.22347	-6.60794	33	0.0144264	10	-0.00147668
2	0	0	1	0	64242.6	0.170987	0.170678	-15.6664	33	0.0136633	10	-0.00267391
2	0	0	1	0	64242.6	0.118182	0.117914	-24.7214	33	0.0123645	10	-0.002915
2	0	0	1	0	64242.7	0.0653871	0.0651336	-38.5127	33	0.0102587	10	-0.00250847
2	0	0	1	0	64242.8	0.0125842	0.0122193	-45.1309	33	0.00745707	10	-0.000551467
2	0	0	1	0	64242.8	-0.0402187	-0.0406091	-45.454	33	0.00443924	10	0.00184585
2	0	0	1	0	64242.9	-0.0930132	-0.0933548	-43.7602	33	0.00150184	10	0.00408522
2	0	0	1	0	64243	-0.145819	-0.146205	-44.3669	33	-0.00139169	10	0.00648669
2	0	0	1	0	64243	-0.198616	-0.198979	-46.0934	33	-0.00438102	10	0.00917162
2	0	0	1	1	64243.1	-0.154139	-0.15453	-10.9482	33	-0.00587182	10	0.00169182
2	1	0	1	1	64243.2	-0.101334	-0.101801	7.82291	33	-0.00593065	10	-0.00079638
2	1	0	1	1	64243.2	-0.0485364	-0.0489344	21.2567	33	-0.00494663	10	-0.00104018
2	1	0	1	0	66212.2	2.44065e-05	-0.000344411	14.7176	34	0.0000000E+000	10	-5.0689e-06
2	1	0	1	0	66212.2	0.0522613	0.0518541	26.147	34	0.00138941	10	0.00135583
2	1	0	1	0	66212.3	0.105067	0.104757	33.9762	34	0.00337709	10	0.00355923
2	1	0	1	0	66212.4	0.157864	0.157512	42.2057	34	0.00588315	10	0.0066479
2	1	0	1	0	66212.4	0.210662	0.21032	47.8214	34	0.00890158	10	0.0100578
2	1	0	1	0	66212.5	0.263464	0.26314	42.4716	34	0.0119378	10	0.011176
2	1	0	1	0	66212.5	0.289383	0.289171	23.3477	34	0.0141105	10	0.00675147
2	0	0	1	0	66212.6	0.236586	0.236261	-2.89377	34	0.0146267	10	-0.000683684
2	0	0	1	0	66212.7	0.183783	0.183506	-13.7336	34	0.0140375	10	-0.0025202
2	0	0	1	0	66212.7	0.130986	0.130672	-21.6771	34	0.0128791	10	-0.00283258
2	0	0	1	0	66212.8	0.0781828	0.0779454	-35.2373	34	0.0110138	10	-0.00274659
2	0	0	1	0	66212.9	0.0253854	0.0251223	-44.2262	34	0.00834446	10	-0.00111106
2	0	0	1	0	66212.9	-0.0274119	-0.0277835	-46.2322	34	0.00532656	10	0.00128449
2	0	0	1	0	66213	-0.0802204	-0.0806087	-44.5741	34	0.0023272	10	0.00359306
2	0	0	1	0	66213.1	-0.133015	-0.13338	-44.4989	34	-0.000596115	10	0.00593526
2	0	0	1	0	66213.1	-0.185815	-0.186141	-46.4467	34	-0.0035955	10	0.00864565
2	0	0	1	1	66213.2	-0.166932	-0.167336	-18.0344	34	-0.00565185	10	0.00301781
2	1	0	1	1	66213.3	-0.114138	-0.114534	3.33094	34	-0.00607625	10	-0.000381507
2	1	0	1	1	66213.3	-0.0613321	-0.0617293	18.0214	34	-0.00534607	10	-0.00111245
2	1	0	1	1	66213.4	-0.0085347	-0.00889341	28.5756	34	-0.00378569	10	-0.000254134
2	1	0	1	0	68182.3	0.0394684	0.0391229	25.4144	35	0.00105499	10	0.000994282
2	1	0	1	0	68182.4	0.092263	0.0919088	33.4315	35	0.00300372	10	0.00307265
2	1	0	1	0	68182.5	0.145063	0.144716	41.5993	35	0.00547235	10	0.00602009
2	1	0	1	0	68182.5	0.197866	0.197506	48.529	35	0.00848489	10	0.00958478
2	1	0	1	0	68182.6	0.250663	0.250335	44.24	35	0.0116131	10	0.0110748
2	1	0	1	0	68182.7	0.300012	0.299651	35.0732	35	0.0140523	10	0.0105097
2	0	0	1	0	68182.7	0.249381	0.249102	-0.332464	35	0.0148668	10	-8.28177e-05
2	0	0	1	0	68182.8	0.196587	0.196293	-12.8361	35	0.0143782	10	-0.00251964
2	0	0	1	0	68182.9	0.143781	0.143469	-20.4628	35	0.0132762	10	-0.00293577
2	0	0	1	0	68182.9	0.090984	0.0907053	-33.6236	35	0.0115335	10	-0.00304984
2	0	0	1	0	68183	0.0381866	0.0378843	-44.3613	35	0.00890926	10	-0.0016806
2	0	0	1	0	68183.1	-0.0146162	-0.014977	-47.1378	35	0.00585291	10	0.000705982
2	0	0	1	0	68183.1	-0.0674136	-0.0677555	-45.1859	35	0.00279804	10	0.00306159
2	0	0	1	0	68183.2	-0.120216	-0.120585	-44.549	35	-0.000146031	10	0.00537194
2	0	0	1	0	68183.3	-0.173017	-0.173355	-46.5431	35	-0.00314572	10	0.00806849
2	0	0	1	1	68183.3	-0.179739	-0.180154	-24.9001	35	-0.00560276	10	0.00448587
2	0	0	1	1	68183.4	-0.126931	-0.127354	0.274663	35	-0.00632233	10	-3.49794e-05
2	1	0	1	1	68183.4	-0.074136	-0.0745241	16.333	35	-0.00574602	10	-0.0012172
2	1	0	1	1	68183.5	-0.0213415	-0.0217646	27.9588	35	-0.00426051	10	-0.000608512
2	1	0	1	1	68183.5	2.44065e-05	-0.000382585	31.4898	35	-0.00346499	10	-1.20475e-05