File: Figure_codes/Fig_3-5/rawdata_trumpetplot_data/after 10th/20221101_1-115_003_TrumpetPlot_ParaChange_from10_every3_13_CV_C01_15.csv
mode,ox/red,error,control changes,counter inc.,time/s,control/V,Ewe/V,<I>/mA,cycle number,(Q-Qo)/C,I Range,P/W,log(|I|),Tafel slope mV/dec,alpha_eff,dI/d(E-IR),E-IR/V,
2,1,0,1,0,30749.8,2.44065e-05,-0.000306236,18.8912,16,0.0000000E+000,10,-5.78518e-06,-1.72374, , , ,-0.000306236,
2,1,0,1,0,30749.8,0.00266289,0.00227479,20.1592,16,6.10375e-05,10,4.58581e-05,-1.69553, , , ,0.00227479,
2,1,0,1,0,30749.8,0.00586735,0.00552706,21.2412,16,0.000144012,10,0.000117401,-1.67282, , , ,0.00552706,
2,1,0,1,0,30749.8,0.00906349,0.00867223,22.1679,16,0.000230948,10,0.000192245,-1.65428,0.178356,0.330798,283.003,0.00867223,
2,1,0,1,0,30749.8,0.0122624,0.0119192,23.0049,16,0.000321395,10,0.0002742,-1.63818,0.205362,0.287298,256.033,0.01191919,
2,1,0,1,0,30749.8,0.0154641,0.0150792,23.7829,16,0.000415075,10,0.000358628,-1.62373,0.230192,0.256308,236.602,0.0150792,
2,1,0,1,0,30749.8,0.0186602,0.0182806,24.5065,16,0.000511746,10,0.000447993,-1.61072,0.252449,0.233711,222.564,0.0182806,
2,1,0,1,0,30749.8,0.0218675,0.0215031,25.2037,16,0.000611246,10,0.000541958,-1.59854,0.274924,0.214605,210.264,0.0215031,
2,1,0,1,0,30749.8,0.0250636,0.0247162,25.8531,16,0.000713445,10,0.000638989,-1.58749,0.29617,0.19921,200.333,0.0247162,
2,1,0,1,0,30749.8,0.0282597,0.0278847,26.4755,16,0.000818185,10,0.00073826,-1.57716,0.318989,0.184959,190.593,0.02788467,
2,1,0,1,0,30749.9,0.031467,0.031086,27.0718,16,0.000925384,10,0.000841557,-1.56748,0.337799,0.17466,184.127,0.031086,
2,1,0,1,0,30749.9,0.0346631,0.0342938,27.6415,16,0.00103486,10,0.000947931,-1.55844,0.358797,0.164438,177.116,0.0342938,
2,1,0,1,0,30749.9,0.0378703,0.037492,28.2054,16,0.00114661,10,0.00105748,-1.54967,0.376297,0.156791,172.314,0.037492,
2,1,0,1,0,30749.9,0.0410665,0.0407474,28.7537,16,0.00126058,10,0.00117164,-1.54131,0.39293,0.150154,168.234,0.0407474,
2,1,0,1,0,30749.9,0.0442626,0.0438862,29.2775,16,0.0013767,10,0.00128488,-1.53347,0.411752,0.14329,163.534,0.0438862,
2,1,0,1,0,30749.9,0.0474671,0.0471416,29.8029,16,0.00149492,10,0.00140496,-1.52574,0.424218,0.13908,161.601,0.0471416,
2,1,0,1,0,30749.9,0.0506632,0.0503398,30.3065,16,0.00161518,10,0.00152562,-1.51846,0.436501,0.135166,159.782,0.05033984,
2,1,0,1,0,30749.9,0.0538621,0.0535051,30.8153,16,0.00173746,10,0.00164878,-1.51123,0.446262,0.132209,158.934,0.0535051,
2,1,0,1,0,30749.9,0.0570638,0.0567033,31.3255,16,0.00186181,10,0.00177626,-1.5041,0.456146,0.129345,158.029,0.0567033,
2,1,0,1,0,30749.9,0.06026,0.0598633,31.8248,16,0.00198818,10,0.00190514,-1.49723,0.467375,0.126237,156.715,0.0598633,
2,1,0,1,0,30749.9,0.0634672,0.0631241,32.3268,16,0.00211654,10,0.0020406,-1.49044,0.475198,0.124159,156.59,0.0631241,
2,1,0,1,0,30749.9,0.0666633,0.0663308,32.8253,16,0.0022469,10,0.00217733,-1.48379,0.477481,0.123565,158.309,0.0663308,
2,1,0,1,0,30749.9,0.0698595,0.0694929,33.3282,16,0.00237928,10,0.00231607,-1.47719,0.481523,0.122528,159.399,0.0694929,
2,1,0,1,0,30749.9,0.0730667,0.0726709,33.8524,16,0.00251372,10,0.00246009,-1.47041,0.486582,0.121254,160.136,0.0726709,
2,1,0,1,0,30749.9,0.0762629,0.0758925,34.362,16,0.00265019,10,0.00260782,-1.46392,0.493688,0.119509,160.192,0.0758925,
2,1,0,1,0,30749.9,0.0794701,0.079133,34.8754,16,0.0027887,10,0.0027598,-1.45748,0.500327,0.117923,160.484,0.079133,
2,1,0,1,0,30749.9,0.0826662,0.0823302,35.3846,16,0.00292927,10,0.00291322,-1.45119,0.503586,0.11716,161.828,0.0823302,
2,1,0,1,0,30749.9,0.0858624,0.0854976,35.9109,16,0.0030719,10,0.0030703,-1.44477,0.503062,0.117282,164.39,0.08549761,
2,1,0,1,0,30749.9,0.0890668,0.0887541,36.4434,16,0.00321666,10,0.0032345,-1.43838,0.502816,0.117339,166.853,0.0887541,
2,1,0,1,0,30749.9,0.092263,0.091912,36.9761,16,0.00336355,10,0.00339855,-1.43208,0.511414,0.115366,166.443,0.091912,
2,1,0,1,0,30749.9,0.0954674,0.0950529,37.5074,16,0.00351258,10,0.00356519,-1.42588,0.516762,0.114172,167.083,0.0950529,
2,1,0,1,0,30749.9,0.0986636,0.0983201,38.0451,16,0.00366373,10,0.0037406,-1.4197,0.518315,0.11383,169.024,0.0983201,
2,1,0,1,0,30749.9,0.10186,0.101496,38.5724,16,0.00381703,10,0.00391494,-1.41372,0.523169,0.112774,169.815,0.101496,
2,1,0,1,0,30749.9,0.105067,0.104711,39.1395,16,0.00397251,10,0.00409834,-1.40738,0.52756,0.111836,170.755,0.104711,
2,1,0,1,0,30749.9,0.108263,0.107847,39.68,16,0.00413022,10,0.00427936,-1.40143,0.528763,0.111581,172.735,0.107847,
2,1,0,1,0,30750,0.111465,0.11106,40.2205,16,0.00429007,10,0.00446688,-1.39555,0.532581,0.110781,173.974,0.11106,
2,1,0,1,0,30750,0.114666,0.114283,40.7812,16,0.00445213,10,0.00466061,-1.38954,0.533581,0.110574,176.068,0.114283,
2,1,0,1,0,30750,0.117863,0.117476,41.3603,16,0.00461645,10,0.00485886,-1.38342,0.535319,0.110215,177.873,0.117476,
2,1,0,1,0,30750,0.12107,0.120693,41.9417,16,0.00478311,10,0.00506205,-1.37735,0.543927,0.108471,177.413,0.120693,
2,1,0,1,0,30750,0.124266,0.123912,42.5065,16,0.00495205,10,0.00526706,-1.37154,0.54922,0.107425,178.148,0.123912,
2,1,0,1,0,30750,0.127462,0.127116,43.0579,16,0.00512324,10,0.00547337,-1.36595,0.560795,0.105208,176.797,0.127116,
2,1,0,1,0,30750,0.130667,0.130301,43.645,16,0.0052967,10,0.00568698,-1.36007,0.541757,0.108905,185.636,0.130301,
2,1,0,1,0,30750,0.133863,0.133442,44.1958,16,0.00547245,10,0.00589756,-1.35462,0.529302,0.111468,192.599,0.133442,
2,1,0,1,0,30750,0.137067,0.136635,44.8683,16,0.00565061,10,0.00613057,-1.34806,0.521835,0.113062,198.117,0.136635,
2,1,0,1,0,30750,0.140263,0.139854,45.5112,16,0.00583145,10,0.00636492,-1.34188,0.511558,0.115334,204.813,0.139854,
2,1,0,1,0,30750,0.143459,0.143083,46.1773,16,0.00601489,10,0.00660719,-1.33557,0.522376,0.112946,203.502,0.143083,
2,1,0,1,0,30750,0.146667,0.146329,46.8352,16,0.00620098,10,0.00685335,-1.32943,0.523334,0.112739,205.997,0.1463289,
2,1,0,1,0,30750,0.149863,0.149525,47.4915,16,0.0063897,10,0.00710117,-1.32338,0.531591,0.110988,205.687,0.149525,
2,1,0,1,0,30750,0.153064,0.152674,48.1521,16,0.00658107,10,0.0073516,-1.31738,0.541211,0.109015,204.782,0.152674,
2,1,0,1,0,30750,0.156266,0.155931,48.82,16,0.00677508,10,0.00761254,-1.3114,0.549786,0.107314,204.33,0.155931,
2,1,0,1,0,30750,0.159462,0.159119,49.4545,16,0.00697171,10,0.00786918,-1.30579,0.566468,0.104154,200.913,0.159119,
2,1,0,1,0,30750,0.16267,0.162327,50.1074,16,0.00717088,10,0.0081338,-1.3001,0.584123,0.101006,197.387,0.162327,
2,1,0,1,0,30750,0.165866,0.16548,50.7249,16,0.00737263,10,0.00839395,-1.29478,0.600076,0.0983209,194.495,0.16548,
2,1,0,1,0,30750,0.169062,0.16874,51.3482,16,0.00757683,10,0.00866448,-1.28947,0.635062,0.0929043,185.971,0.16874,
2,1,0,1,0,30750,0.172266,0.1719,51.9402,16,0.00778349,10,0.00892849,-1.2845,0.663853,0.0888751,179.914,0.1719,
2,1,0,1,0,30750,0.175462,0.17516,52.494,16,0.00799242,10,0.00919486,-1.27989,0.703431,0.0838746,171.651,0.17516,
2,1,0,1,0,30750,0.178667,0.178312,53.0336,16,0.00820353,10,0.00945651,-1.27545,0.753028,0.0783503,161.968,0.178312,
2,1,0,1,0,30750,0.181863,0.181534,53.5445,16,0.00841676,10,0.00972017,-1.27129,0.801993,0.0735667,153.502,0.181534,
2,1,0,1,0,30750,0.185059,0.184692,54.0122,16,0.00863195,10,0.00997563,-1.26751,0.901525,0.0654447,137.689,0.184692,
2,1,0,1,0,30750,0.188266,0.187888,54.4478,16,0.00884896,10,0.0102301,-1.26402,1.02673,0.0574641,121.822,0.187888,
2,1,0,1,0,30750.1,0.191463,0.191097,54.794,16,0.00906751,10,0.010471,-1.26127,1.22771,0.048057,102.53,0.191097,
2,1,0,1,0,30750.1,0.194664,0.194338,55.1042,16,0.00928734,10,0.0107088,-1.25882,1.56286,0.0377513,80.9793,0.194338,
2,1,0,1,0,30750.1,0.197866,0.197526,55.3281,16,0.00950827,10,0.0109288,-1.25705,2.13081,0.0276891,59.6235,0.197526,
2,1,0,1,0,30750.1,0.201062,0.200677,55.4834,16,0.00972994,10,0.0111342,-1.25584,3.78519,0.0155871,33.6512,0.200677,
2,1,0,1,0,30750.1,0.204269,0.203921,55.5586,16,0.00995206,10,0.0113295,-1.25525,20.5168,0.00287569,6.21388,0.203921,
2,1,0,1,0,30750.1,0.207465,0.207111,55.5341,16,0.0101742,10,0.0115017,-1.25544,-6.25878,-0.00942676,-20.3639,0.207111,
2,1,0,1,0,30750.1,0.210662,0.210333,55.4076,16,0.0103961,10,0.011654,-1.25643,-2.60536,-0.0226456,-48.8248,0.210333,
2,1,0,1,0,30750.1,0.213866,0.21354,55.2214,16,0.0106174,10,0.011792,-1.25789,-1.68882,-0.0349356,-75.0602,0.21354,
2,1,0,1,0,30750.1,0.217062,0.216744,54.9324,16,0.0108377,10,0.0119063,-1.26017,-1.21962,-0.0483759,-103.355,0.216744,
2,1,0,1,0,30750.1,0.220267,0.219904,54.5738,16,0.0110567,10,0.012001,-1.26302,-0.953917,-0.0618502,-131.256,0.219904,
2,1,0,1,0,30750.1,0.223463,0.223118,54.0862,16,0.011274,10,0.0120676,-1.26691,-0.791277,-0.074563,-156.904,0.223118,
2,1,0,1,0,30750.1,0.226659,0.226345,53.5406,16,0.0114893,10,0.0121187,-1.27132,-0.675942,-0.0872856,-181.892,0.226345,
2,1,0,1,0,30750.1,0.229866,0.229575,52.9192,16,0.0117022,10,0.0121489,-1.27639,-0.595854,-0.0990176,-203.908,0.229575,
2,1,0,1,0,30750.1,0.233062,0.232764,52.2348,16,0.0119124,10,0.0121584,-1.28204,-0.530472,-0.111222,-226.056,0.232764,
2,1,0,1,0,30750.1,0.236264,0.235957,51.4684,16,0.0121198,10,0.0121443,-1.28846,-0.480143,-0.12288,-246.158,0.235957,
2,1,0,1,0,30750.1,0.239466,0.239157,50.6444,16,0.012324,10,0.012112,-1.29547,-0.444933,-0.132604,-261.557,0.239157,
2,1,0,1,0,30750.1,0.242662,0.242358,49.7725,16,0.0125247,10,0.0120628,-1.30301,-0.41736,-0.141365,-274.156,0.242358,
2,1,0,1,0,30750.1,0.245869,0.245572,48.8846,16,0.012722,10,0.0120047,-1.31083,-0.395339,-0.149239,-284.267,0.245572,
2,1,0,1,0,30750.1,0.249065,0.248759,47.9585,16,0.0129156,10,0.0119301,-1.31913,-0.379558,-0.155444,-290.544,0.248759,
2,1,0,1,0,30750.1,0.252261,0.251927,47.0142,16,0.0131054,10,0.0118442,-1.32777,-0.365353,-0.161488,-296.032,0.251927,
2,1,0,1,0,30750.1,0.255466,0.25513,46.0619,16,0.0132915,10,0.0117518,-1.33666,-0.358118,-0.16475,-296.004,0.25513,
2,1,0,1,0,30750.1,0.258662,0.258326,45.1091,16,0.0134737,10,0.0116529,-1.34574,-0.355468,-0.165978,-292.218,0.258326,
2,1,0,1,0,30750.1,0.261866,0.261565,44.1677,16,0.0136522,10,0.0115528,-1.35489,-0.350341,-0.168408,-290.37,0.261565,
2,1,0,1,0,30750.1,0.265063,0.264769,43.2617,16,0.0138269,10,0.0114543,-1.3639,-0.352323,-0.16746,-282.803,0.264769,
2,1,0,1,0,30750.1,0.268259,0.267912,42.3503,16,0.0139981,10,0.0113461,-1.37314,-0.352932,-0.167171,-276.45,0.267912,
2,1,0,1,0,30750.2,0.271466,0.271138,41.4859,16,0.0141657,10,0.0112484,-1.3821,-0.355912,-0.165771,-268.609,0.271138,
2,1,0,1,0,30750.2,0.274662,0.27437,40.628,16,0.0143298,10,0.0111471,-1.39117,-0.364007,-0.162085,-257.292,0.27437,
2,1,0,1,0,30750.2,0.277869,0.277567,39.824,16,0.0144906,10,0.0110538,-1.39986,-0.368853,-0.159955,-248.885,0.277567,
2,1,0,1,0,30750.2,0.281065,0.280765,39.0433,16,0.0146483,10,0.010962,-1.40845,-0.378095,-0.156045,-238.02,0.280765,
2,1,0,1,0,30750.2,0.284262,0.283959,38.2949,16,0.0148029,10,0.0108742,-1.41686,-0.384625,-0.153396,-229.516,0.283959,
2,1,0,1,0,30750.2,0.287469,0.287176,37.5798,16,0.0149546,10,0.010792,-1.42505,-0.393777,-0.149831,-219.97,0.287176,
2,1,0,1,0,30750.2,0.290665,0.290349,36.8903,16,0.0151034,10,0.0107111,-1.43309,-0.408182,-0.144543,-208.419,0.290349,
2,1,0,1,0,30750.2,0.293861,0.293563,36.2281,16,0.0152496,10,0.0106352,-1.44095,-0.420663,-0.140255,-198.999,0.293563,
2,1,0,1,0,30750.2,0.297066,0.296742,35.6306,16,0.0153932,10,0.0105731,-1.44818,-0.426846,-0.138223,-194.042,0.296742,
2,1,0,1,0,30750.2,0.299638,0.299346,35.1581,16,0.0155065,10,0.0105244,-1.45397,-0.122525,-0.481535,-648.103,0.299346,
2,1,0,1,0,30750.2,0.300012,0.299746,35.0668,16,0.015524,10,0.0105112,-1.4551,0.0100539,5.86838,7164.56,0.299746,
2,1,0,1,0,30750.2,0.298983,0.298849,32.8021,16,0.0155672,10,0.0098029,-1.4841,0.0382752,1.54147,1724.9,0.298849,
2,1,0,1,0,30750.2,0.295787,0.29558,27.3042,16,0.0156864,10,0.00807057,-1.56377,0.041363,1.42639,1474.28,0.29558,
2,1,0,1,0,30750.2,0.292579,0.292319,23.0383,16,0.0157864,10,0.00673454,-1.63755,0.0423998,1.39152,1280.89,0.2923193,
2,1,0,1,0,30750.2,0.289383,0.28914,19.4302,16,0.0158709,10,0.00561804,-1.71152,0.0420754,1.40224,1071.69,0.28914,
2,1,0,1,0,30750.2,0.286187,0.285953,16.283,16,0.0159419,10,0.00465617,-1.78827,0.0396869,1.48664,943.437,0.285953,
2,1,0,1,0,30750.2,0.282983,0.282677,13.4761,16,0.016001,10,0.00380939,-1.87044,0.0366381,1.61034,838.804,0.282677,
2,1,0,1,0,30750.2,0.279786,0.279521,10.9642,16,0.0160496,10,0.00306472,-1.96002,0.0330229,1.78664,750.019,0.279521,
2,1,0,1,0,30750.2,0.276582,0.276335,8.6889,16,0.0160886,10,0.00240105,-2.06103,0.0283668,2.0799,680.855,0.276335,
2,1,0,1,0,30750.2,0.273386,0.273108,6.64922,16,0.016119,10,0.00181595,-2.17723,0.0232122,2.54177,615.309,0.273108,
2,1,0,1,0,30750.2,0.27019,0.2699,4.77692,16,0.0161417,10,0.00128929,-2.32085,0.0167446,3.52352,561.81,0.2699,
2,1,0,1,0,30750.2,0.266982,0.266695,3.07179,16,0.0161571,10,0.00081923,-2.51261,0.0060242,9.79384,515.157,0.266695,
2,1,0,1,0,30750.2,0.263786,0.263526,1.49288,16,0.0161661,10,0.000393412,-2.82598,0.0224562,2.62734,472.786,0.263526,
2,1,0,1,0,30750.2,0.260585,0.260297,0.0496848,16,0.016169,10,1.29328e-05,-4.30378,0.14384,0.410179,434.987,0.260297,
2,0,0,1,0,30750.2,0.257383,0.257082,-1.28333,16,0.0161663,10,-0.000329922,-2.89166,-0.0329124,-1.79264,402.207,0.257082,
2,0,0,1,0,30750.2,0.254187,0.253881,-2.50211,16,0.0161586,10,-0.000635237,-2.60169,-0.00649438,-9.08477,371.205,0.253881,
2,0,0,1,0,30750.2,0.25098,0.250726,-3.65545,16,0.0161461,10,-0.000916516,-2.43706,-0.0197602,-2.9858,345.533,0.2507259,
2,0,0,1,0,30750.3,0.247783,0.247455,-4.71755,16,0.0161293,10,-0.00116738,-2.32628,-0.0302165,-1.95258,322.823,0.247455,
2,0,0,1,0,30750.3,0.244587,0.244272,-5.70951,16,0.0161083,10,-0.00139468,-2.2434,-0.0411714,-1.43303,299.014,0.244272,
2,0,0,1,0,30750.3,0.241383,0.241091,-6.63088,16,0.0160835,10,-0.00159864,-2.17843,-0.0520403,-1.13374,280.678,0.241091,
2,0,0,1,0,30750.3,0.238187,0.237893,-7.4927,16,0.0160552,10,-0.00178246,-2.12536,-0.0634906,-0.929271,263.442,0.237893,
2,0,0,1,0,30750.3,0.234982,0.234669,-8.30611,16,0.0160235,10,-0.00194919,-2.0806,-0.07557,-0.780733,247.102,0.234669,
2,0,0,1,0,30750.3,0.231786,0.231486,-9.07797,16,0.0159886,10,-0.00210142,-2.04201,-0.0877909,-0.672051,233.51,0.2314859,
2,0,0,1,0,30750.3,0.22859,0.228291,-9.79383,16,0.0159508,10,-0.00223584,-2.00905,-0.100887,-0.584812,220.026,0.228291,
2,0,0,1,0,30750.3,0.225383,0.225099,-10.4802,16,0.0159101,10,-0.00235908,-1.97963,-0.114499,-0.51529,208.156,0.225099,
2,0,0,1,0,30750.3,0.222187,0.221924,-11.1103,16,0.0158669,10,-0.00246565,-1.95427,-0.128744,-0.458272,196.894,0.2219242,
2,0,0,1,0,30750.3,0.218979,0.21871,-11.7373,16,0.0158211,10,-0.00256707,-1.93043,-0.143556,-0.41099,186.636,0.21871,
2,0,0,1,0,30750.3,0.215783,0.215458,-12.3206,16,0.015773,10,-0.00265456,-1.90937,-0.157535,-0.37452,178.631,0.215458,
2,0,0,1,0,30750.3,0.212587,0.212275,-12.8737,16,0.0157225,10,-0.00273276,-1.8903,-0.173092,-0.340859,170.221,0.212275,
2,0,0,1,0,30750.3,0.20938,0.209084,-13.4041,16,0.0156699,10,-0.00280257,-1.87276,-0.189513,-0.311324,161.949,0.209084,
2,0,0,1,0,30750.3,0.206184,0.205908,-13.9166,16,0.0156152,10,-0.00286553,-1.85647,-0.203933,-0.289311,156.399,0.205908,
2,0,0,1,0,30750.3,0.202988,0.202671,-14.3913,16,0.0155585,10,-0.00291671,-1.8419,-0.219422,-0.268889,150.55,0.202671,
2,0,0,1,0,30750.3,0.199783,0.199457,-14.8783,16,0.0154999,10,-0.00296759,-1.82745,-0.235531,-0.250498,144.978,0.199457,
2,0,0,1,0,30750.3,0.196587,0.196277,-15.3321,16,0.0154395,10,-0.00300934,-1.8144,-0.24923,-0.23673,141.135,0.196277,
2,0,0,1,0,30750.3,0.193382,0.19304,-15.7821,16,0.0153772,10,-0.00304658,-1.80183,-0.267335,-0.220697,135.47,0.19304,
2,0,0,1,0,30750.3,0.190186,0.189878,-16.197,16,0.0153132,10,-0.00307544,-1.79057,-0.279847,-0.210829,133.029,0.189878,
2,0,0,1,0,30750.3,0.18699,0.186673,-16.6102,16,0.0152475,10,-0.00310067,-1.77963,-0.294779,-0.20015,129.644,0.186673,
2,0,0,1,0,30750.3,0.183783,0.183488,-17.0335,16,0.0151801,10,-0.00312543,-1.7687,-0.304354,-0.193853,128.669,0.183488,
2,0,0,1,0,30750.3,0.180587,0.180254,-17.4397,16,0.0151112,10,-0.00314358,-1.75846,-0.314863,-0.187383,127.339,0.180254,
2,0,0,1,0,30750.3,0.17738,0.177075,-17.8442,16,0.0150406,10,-0.00315977,-1.7485,-0.329285,-0.179176,124.594,0.177075,
2,0,0,1,0,30750.3,0.174183,0.173868,-18.2408,16,0.0149684,10,-0.00317149,-1.73896,-0.332022,-0.177699,126.473,0.173868,
2,0,0,1,0,30750.3,0.170987,0.170707,-18.6259,16,0.0148946,10,-0.00317957,-1.72988,-0.341967,-0.172531,125.505,0.170707,
2,0,0,1,0,30750.4,0.16778,0.167461,-19.0577,16,0.0148192,10,-0.00319142,-1.71993,-0.34132,-0.172859,128.526,0.167461,
2,0,0,1,0,30750.4,0.164584,0.164219,-19.4578,16,0.0147421,10,-0.00319533,-1.71091,-0.341035,-0.173003,131.362,0.164219,
2,0,0,1,0,30750.4,0.161382,0.161063,-19.8865,16,0.0146634,10,-0.00320299,-1.70144,-0.342626,-0.172199,133.716,0.161063,
2,0,0,1,0,30750.4,0.158183,0.157883,-20.3104,16,0.014583,10,-0.00320667,-1.69228,-0.333546,-0.176887,140.404,0.157883,
2,0,0,1,0,30750.4,0.154987,0.154725,-20.7607,16,0.0145008,10,-0.0032122,-1.68276,-0.328798,-0.179441,145.676,0.154725,
2,0,0,1,0,30750.4,0.151783,0.151486,-21.2456,16,0.0144167,10,-0.0032184,-1.67273,-0.319155,-0.184863,153.533,0.151486,
2,0,0,1,0,30750.4,0.148587,0.148307,-21.7449,16,0.0143307,10,-0.00322491,-1.66264,-0.308405,-0.191307,162.71,0.148307,
2,0,0,1,0,30750.4,0.145385,0.145044,-22.2817,16,0.0142426,10,-0.00323182,-1.65205,-0.297111,-0.198579,173.113,0.145044,
2,0,0,1,0,30750.4,0.142183,0.141826,-22.8594,16,0.0141523,10,-0.00324207,-1.64093,-0.280649,-0.210227,188.144,0.141826,
2,0,0,1,0,30750.4,0.138987,0.13866,-23.4659,16,0.0140595,10,-0.00325378,-1.62956,-0.266691,-0.22123,203.363,0.13866,
2,0,0,1,0,30750.4,0.13578,0.135464,-24.1611,16,0.0139642,10,-0.00327296,-1.61688,-0.253604,-0.232646,220.056,0.135464,
2,0,0,1,0,30750.4,0.132584,0.132298,-24.8738,16,0.0138661,10,-0.00329074,-1.60426,-0.240538,-0.245283,238.913,0.132298,
2,0,0,1,0,30750.4,0.129388,0.129062,-25.6683,16,0.0137649,10,-0.0033128,-1.5906,-0.232216,-0.254074,255.389,0.129062,
2,0,0,1,0,30750.4,0.12618,0.125911,-26.5118,16,0.0136605,10,-0.00333812,-1.57656,-0.223283,-0.264239,274.189,0.125911,
2,0,0,1,0,30750.4,0.122984,0.122705,-27.4196,16,0.0135526,10,-0.00336452,-1.56194,-0.216137,-0.272976,292.881,0.122705,
2,0,0,1,0,30750.4,0.119783,0.119511,-28.3797,16,0.0134409,10,-0.00339169,-1.54699,-0.211697,-0.2787,309.338,0.119511,
2,0,0,1,0,30750.4,0.116584,0.116322,-29.3998,16,0.0133253,10,-0.00341983,-1.53166,-0.208962,-0.282347,324.502,0.116322,
2,0,0,1,0,30750.4,0.113387,0.113148,-30.4599,16,0.0132054,10,-0.00344647,-1.51627,-0.208746,-0.28264,336.183,0.113148,
2,0,0,1,0,30750.4,0.110183,0.109896,-31.576,16,0.0130812,10,-0.00347009,-1.50064,-0.211151,-0.279421,344.116,0.1098965,
2,0,0,1,0,30750.4,0.106987,0.106731,-32.6761,16,0.0129526,10,-0.00348756,-1.48577,-0.216158,-0.272948,347.761,0.106731,
2,0,0,1,0,30750.4,0.103785,0.103491,-33.8151,16,0.0128195,10,-0.00349955,-1.47089,-0.222357,-0.26534,349.603,0.103491,
2,0,0,1,0,30750.4,0.100583,0.100279,-34.9353,16,0.0126819,10,-0.00350326,-1.45674,-0.230527,-0.255936,348.241,0.100279,
2,0,0,1,0,30750.4,0.0973873,0.0971175,-36.0436,16,0.0125398,10,-0.00350046,-1.44317,-0.240335,-0.245491,344.717,0.0971175,
2,0,0,1,0,30750.4,0.0941801,0.0938875,-37.1488,16,0.0123933,10,-0.00348781,-1.43006,-0.252247,-0.233897,338.217,0.0938875,
2,0,0,1,0,30750.4,0.0909839,0.090666,-38.236,16,0.0122424,10,-0.0034667,-1.41753,-0.265765,-0.222,330.206,0.090666,
2,0,0,1,0,30750.5,0.0877878,0.0875166,-39.2516,16,0.0120873,10,-0.00343517,-1.40614,-0.278133,-0.212129,324.335,0.0875166,
2,0,0,1,0,30750.5,0.0845806,0.0843513,-40.259,16,0.0119282,10,-0.0033959,-1.39514,-0.293464,-0.201047,315.508,0.0843513,
2,0,0,1,0,30750.5,0.0813844,0.0811574,-41.2776,16,0.0117651,10,-0.00334998,-1.38429,-0.309068,-0.190897,306.772,0.0811574,
2,0,0,1,0,30750.5,0.0781828,0.0779316,-42.2538,16,0.0115979,10,-0.00329291,-1.37413,-0.326704,-0.180592,296.921,0.07793162,
2,0,0,1,0,30750.5,0.0749839,0.0747631,-43.164,16,0.011427,10,-0.00322708,-1.36488,-0.352778,-0.167244,281.019,0.0747631,
2,0,0,1,0,30750.5,0.0717877,0.0715649,-44.0556,16,0.0112524,10,-0.00315284,-1.356,-0.378925,-0.155704,267.001,0.0715649,
2,0,0,1,0,30750.5,0.0685832,0.0683307,-44.8822,16,0.0110744,10,-0.00306683,-1.34793,-0.409305,-0.144147,251.767,0.0683307,
2,0,0,1,0,30750.5,0.0653871,0.0651431,-45.6683,16,0.0108932,10,-0.00297498,-1.34038,-0.447419,-0.131867,234.375,0.0651431,
2,0,0,1,0,30750.5,0.0621854,0.0619799,-46.3824,16,0.010709,10,-0.00287478,-1.33365,-0.48344,-0.122042,220.389,0.06197992,
2,0,0,1,0,30750.5,0.0589837,0.0587425,-47.0608,16,0.0105221,10,-0.00276447,-1.32734,-0.528103,-0.111721,204.795,0.0587425,
2,0,0,1,0,30750.5,0.0557876,0.055591,-47.6898,16,0.0103325,10,-0.00265112,-1.32157,-0.575781,-0.10247,190.33,0.055591,
2,0,0,1,0,30750.5,0.0525804,0.052309,-48.2967,16,0.0101404,10,-0.00252635,-1.31608,-0.632879,-0.0932248,175.292,0.05230901,
2,0,0,1,0,30750.5,0.0493842,0.0491416,-48.8259,16,0.00994611,10,-0.00239938,-1.31135,-0.698431,-0.0844751,160.622,0.0491416,
2,0,0,1,0,30750.5,0.0461881,0.0458723,-49.3169,16,0.00974976,10,-0.00226228,-1.307,-0.775134,-0.0761158,146.234,0.0458723,
2,0,0,1,0,30750.5,0.0429808,0.0426636,-49.7663,16,0.00955151,10,-0.00212321,-1.30306,-0.871555,-0.0676951,131.217,0.0426636,
2,0,0,1,0,30750.5,0.0397847,0.0394961,-50.1704,16,0.00935161,10,-0.00198153,-1.29955,-0.974061,-0.0605712,118.359,0.0394961,
2,0,0,1,0,30750.5,0.036583,0.0362492,-50.5176,16,0.00915019,10,-0.00183122,-1.29656,-1.11755,-0.0527939,103.898,0.0362492,
2,0,0,1,0,30750.5,0.0333841,0.0330945,-50.8293,16,0.00894746,10,-0.00168217,-1.29389,-1.26911,-0.0464893,92.093,0.0330945,
2,0,0,1,0,30750.5,0.030188,0.0298994,-51.0924,16,0.00874357,10,-0.00152764,-1.29164,-1.4466,-0.0407853,81.2325,0.0298994,
2,0,0,1,0,30750.5,0.0269835,0.0266705,-51.3515,16,0.00853864,10,-0.00136957,-1.28945,-1.66286,-0.035481,71.0131,0.0266705,
2,0,0,1,0,30750.5,0.0237874,0.023484,-51.5546,16,0.00833278,10,-0.00121071,-1.28773,-1.90596,-0.0309555,62.2046,0.023484,
2,0,0,1,0,30750.5,0.0205857,0.0202582,-51.7408,16,0.00812615,10,-0.00104818,-1.28617,-2.29974,-0.025655,51.7452,0.0202582,
2,0,0,1,0,30750.5,0.017384,0.017094,-51.889,16,0.00791886,10,-0.000886989,-1.28492,-2.73311,-0.0215871,43.6681,0.017094,
2,0,0,1,0,30750.5,0.0141879,0.0138947,-52.0126,16,0.00771106,10,-0.000722701,-1.28389,-3.40464,-0.0173293,35.1442,0.0138947,
2,0,0,1,0,30750.5,0.0109806,0.0107103,-52.1124,16,0.00750278,10,-0.000558141,-1.28306,-4.44399,-0.0132764,26.975,0.0107103,
2,0,0,1,0,30750.6,0.00778448,0.0074973,-52.1893,16,0.00729415,10,-0.000391278,-1.28242,-5.13326,-0.0114937,23.3983,0.0074973,
2,0,0,1,0,30750.6,0.00458834,0.00427366,-52.2348,16,0.00708528,10,-0.000223234,-1.28204,-8.428,-0.00700048,14.2626,0.00427366,
2,0,0,1,0,30750.6,0.0013811,0.0010373,-52.3134,16,0.00687619,10,-5.42647e-05,-1.28139,-16.9176,-0.00348749,7.1095,0.0010373,
2,0,0,1,0,30750.6,-0.00181504,-0.00220224,-52.2966,16,0.00666697,10,0.00011517,-1.28153,265.892,0.000221894,-0.45232,-0.002202244,
2,0,0,1,0,30750.6,-0.0050195,-0.00539513,-52.2809,16,0.00645783,10,0.000282062,-1.28166,10.2539,0.00575393,-11.7305,-0.00539513,
2,0,0,1,0,30750.6,-0.00821564,-0.00853499,-52.229,16,0.00624881,10,0.000445774,-1.28209,6.51317,0.00905857,-18.4466,-0.00853499,
2,0,0,1,0,30750.6,-0.0114118,-0.0117586,-52.1633,16,0.00604003,10,0.00061337,-1.28263,4.37158,0.0134963,-27.4447,-0.0117586,
2,0,0,1,0,30750.6,-0.0146162,-0.0149674,-52.0611,16,0.00583156,10,0.00077922,-1.28349,3.44906,0.0171061,-34.7187,-0.0149674,
2,0,0,1,0,30750.6,-0.0178124,-0.0181826,-51.93,16,0.00562358,10,0.000944221,-1.28458,2.85487,0.0206665,-41.8546,-0.0181826,
2,0,0,1,0,30750.6,-0.0210196,-0.0213914,-51.7827,16,0.00541616,10,0.0011077,-1.28582,2.37771,0.0248138,-50.1046,-0.0213914,
2,0,0,1,0,30750.6,-0.0242158,-0.0246298,-51.6246,16,0.00520936,10,0.00127151,-1.28714,2.1177,0.0278604,-56.0721,-0.02462985,
2,0,0,1,0,30750.6,-0.0274119,-0.0277835,-51.4189,16,0.00500327,10,0.0014286,-1.28888,1.82657,0.032301,-64.7555,-0.0277835,
2,0,0,1,0,30750.6,-0.0306191,-0.0309965,-51.2115,16,0.00479802,10,0.00158738,-1.29063,1.66748,0.0353827,-70.6635,-0.0309965,
2,0,0,1,0,30750.6,-0.0338153,-0.0341491,-50.9565,16,0.00459371,10,0.00174012,-1.2928,1.57027,0.0375732,-74.6946,-0.0341491,
2,0,0,1,0,30750.6,-0.037017,-0.0373781,-50.7238,16,0.00439038,10,0.00189596,-1.29479,1.45646,0.0405091,-80.151,-0.0373781,
2,0,0,1,0,30750.6,-0.0402187,-0.0406049,-50.4612,16,0.00418802,10,0.00204897,-1.29704,1.41103,0.0418135,-82.2895,-0.0406049,
2,0,0,1,0,30750.6,-0.0434148,-0.0437607,-50.1884,16,0.00398676,10,0.00219628,-1.2994,1.35001,0.0437034,-85.5743,-0.0437607,
2,0,0,1,0,30750.6,-0.0466193,-0.0469705,-49.9015,16,0.00378661,10,0.0023439,-1.30189,1.2902,0.0457294,-89.0425,-0.0469705,
2,0,0,1,0,30750.6,-0.0498154,-0.0502185,-49.625,16,0.0035876,10,0.00249209,-1.3043,1.31213,0.0449651,-87.089,-0.0502185,
2,0,0,1,0,30750.6,-0.0530115,-0.0533234,-49.3288,16,0.00338974,10,0.00263038,-1.3069,1.3069,0.0451451,-86.9354,-0.0533234,
2,0,0,1,0,30750.6,-0.056216,-0.0565884,-49.0713,16,0.00319296,10,0.00277686,-1.30917,1.34093,0.0439995,-84.2865,-0.0565884,
2,0,0,1,0,30750.6,-0.0594121,-0.059777,-48.7881,16,0.00299725,10,0.00291641,-1.31169,1.37595,0.0428796,-81.6676,-0.059777,
2,0,0,1,0,30750.6,-0.0626194,-0.062989,-48.5486,16,0.00280262,10,0.00305803,-1.31382,1.39222,0.0423782,-80.3079,-0.062989,
2,0,0,1,0,30750.6,-0.0658155,-0.0661819,-48.2786,16,0.00260899,10,0.00319517,-1.31625,1.51046,0.0390609,-73.6528,-0.0661819,
2,0,0,1,0,30750.6,-0.0690117,-0.0693504,-48.0464,16,0.00241635,10,0.00333204,-1.31834,1.56863,0.0376124,-70.5992,-0.0693504,
2,0,0,1,0,30750.7,-0.0722189,-0.0725783,-47.8453,16,0.00222459,10,0.00347253,-1.32016,1.73029,0.0340983,-63.7038,-0.0725783,
2,0,0,1,0,30750.7,-0.075415,-0.0757839,-47.6453,16,0.00203363,10,0.00361074,-1.32198,1.88816,0.0312474,-58.1357,-0.0757839,
2,0,0,1,0,30750.7,-0.0786167,-0.0789556,-47.4649,16,0.00184343,10,0.00374762,-1.32363,2.03244,0.0290291,-53.8124,-0.0789556,
2,0,0,1,0,30750.7,-0.0818184,-0.0821909,-47.2999,16,0.00165393,10,0.00388762,-1.32514,2.37426,0.0248499,-45.9217,-0.0821909,
2,0,0,1,0,30750.7,-0.0850146,-0.0854134,-47.1546,16,0.00146504,10,0.00402764,-1.32648,2.6504,0.0222608,-41.0076,-0.0854134,
2,0,0,1,0,30750.7,-0.088219,-0.0885692,-47.0582,16,0.00127666,10,0.0041679,-1.32737,3.1642,0.0186461,-34.2607,-0.0885692,
2,0,0,1,0,30750.7,-0.0914152,-0.0917557,-46.94,16,0.00108868,10,0.00430701,-1.32846,3.80328,0.0155129,-28.4385,-0.09175574,
2,0,0,1,0,30750.7,-0.0946141,-0.0949592,-46.8624,16,0.000901093,10,0.00445002,-1.32918,4.61959,0.0127717,-23.3809,-0.0949592,
2,0,0,1,0,30750.7,-0.0978158,-0.0981617,-46.7921,16,0.000713779,10,0.00459319,-1.32983,7.24716,0.00814112,-14.8835,-0.0981617,
2,0,0,1,0,30750.7,-0.101012,-0.10139,-46.7584,16,0.000526689,10,0.00474081,-1.33014,11.5686,0.00509999,-9.31546,-0.10139,
2,0,0,1,0,30750.7,-0.104219,-0.104607,-46.7487,16,0.00033969,10,0.00489024,-1.33023,35.672,0.00165396,-3.01912,-0.104607,
2,0,0,1,0,30750.7,-0.107415,-0.107776,-46.743,16,0.000152711,10,0.00503779,-1.33028,-33.2587,-0.00177397,3.23864,-0.107776,
2,0,0,1,0,30750.7,-0.110611,-0.110954,-46.7534,16,-3.42944e-05,10,0.0051875,-1.33019,-14.5223,-0.00406273,7.41978,-0.1109544,
2,0,0,1,0,30750.7,-0.113819,-0.114199,-46.7999,16,-0.000221408,10,0.00534451,-1.32976,-7.11625,-0.00829089,15.156,-0.114199,
2,0,0,1,0,30750.7,-0.117015,-0.117379,-46.8435,16,-0.000408704,10,0.00549846,-1.32935,-5.20974,-0.0113249,20.7225,-0.1173794,
2,0,0,1,0,30750.7,-0.120216,-0.120604,-46.9375,16,-0.000596265,10,0.00566085,-1.32848,-4.19003,-0.0140811,25.8089,-0.1206041,
2,0,0,1,0,30750.7,-0.123418,-0.123765,-47.0189,16,-0.000784183,10,0.0058193,-1.32773,-3.43548,-0.0171737,31.5311,-0.123765,
2,0,0,1,0,30750.7,-0.126614,-0.126982,-47.1298,16,-0.000972485,10,0.00598466,-1.3267,-3.07734,-0.0191724,35.2888,-0.126982,
2,0,0,1,0,30750.7,-0.129819,-0.130165,-47.2466,16,-0.00116124,10,0.00614985,-1.32563,-2.73178,-0.0215977,39.8462,-0.130165,
2,0,0,1,0,30750.7,-0.133015,-0.133377,-47.3882,16,-0.00135051,10,0.00632048,-1.32433,-2.41114,-0.0244698,45.2831,-0.1333767,
2,0,0,1,0,30750.7,-0.136214,-0.136563,-47.5289,16,-0.00154035,10,0.00649069,-1.32304,-2.27494,-0.0259348,48.1321,-0.136563,
2,0,0,1,0,30750.7,-0.139416,-0.139736,-47.7073,16,-0.00173086,10,0.00666643,-1.32141,-2.11849,-0.02785,51.8657,-0.139736,
2,0,0,1,0,30750.7,-0.142612,-0.14297,-47.863,16,-0.00192204,10,0.00684298,-1.32,-2.01584,-0.0292681,54.6884,-0.1429702,
2,0,0,1,0,30750.7,-0.145819,-0.146163,-48.0514,16,-0.00211388,10,0.00702334,-1.31829,-1.95727,-0.030144,56.5503,-0.146163,
2,0,0,1,0,30750.7,-0.149015,-0.149366,-48.229,16,-0.00230648,10,0.00720375,-1.31669,-1.84319,-0.0320097,60.2727,-0.149366,
2,0,0,1,0,30750.8,-0.152211,-0.15258,-48.4336,16,-0.00249982,10,0.00738999,-1.31485,-1.83215,-0.0322025,60.8776,-0.15258,
2,0,0,1,0,30750.8,-0.155418,-0.155764,-48.6341,16,-0.00269399,10,0.00757544,-1.31306,-1.82282,-0.0323673,61.4184,-0.155764,
2,0,0,1,0,30750.8,-0.158615,-0.158963,-48.8306,16,-0.00288894,10,0.00776227,-1.31131,-1.80817,-0.0326296,62.1808,-0.158963,
2,0,0,1,0,30750.8,-0.161816,-0.162179,-49.016,16,-0.00308464,10,0.00794939,-1.30966,-1.83306,-0.0321866,61.584,-0.162179,
2,0,0,1,0,30750.8,-0.165018,-0.165341,-49.2271,16,-0.00328115,10,0.00813924,-1.3078,-1.81709,-0.0324695,62.3795,-0.165341,
2,0,0,1,0,30750.8,-0.168214,-0.168536,-49.4206,16,-0.00347846,10,0.00832913,-1.30609,-1.83174,-0.0322097,62.1119,-0.168536,
2,0,0,1,0,30750.8,-0.171419,-0.171705,-49.6254,16,-0.00367658,10,0.00852094,-1.3043,-1.91679,-0.0307806,59.5926,-0.171705,
2,0,0,1,0,30750.8,-0.174615,-0.174933,-49.8081,16,-0.00387548,10,0.00871309,-1.3027,-1.95417,-0.0301919,58.675,-0.174933,
2,0,0,1,0,30750.8,-0.177814,-0.178153,-49.9907,16,-0.00407509,10,0.00890601,-1.30111,-2.0059,-0.0294132,57.3871,-0.178153,
2,0,0,1,0,30750.8,-0.181015,-0.18138,-50.1743,16,-0.00427545,10,0.00910063,-1.29952,-2.02976,-0.0290674,56.9147,-0.18138,
2,0,0,1,0,30750.8,-0.184211,-0.184542,-50.3621,16,-0.00447655,10,0.00929395,-1.2979,-2.07087,-0.0284904,55.9821,-0.184542,
2,0,0,1,0,30750.8,-0.187419,-0.18772,-50.5359,16,-0.00467837,10,0.00948663,-1.2964,-2.18392,-0.0270157,53.2585,-0.18772,
2,0,0,1,0,30750.8,-0.190615,-0.190968,-50.7081,16,-0.00488089,10,0.00968365,-1.29492,-2.24014,-0.0263377,52.1104,-0.190968,
2,0,0,1,0,30750.8,-0.193811,-0.194154,-50.8546,16,-0.00508405,10,0.00987362,-1.29367,-2.34336,-0.0251776,49.9585,-0.194154,
2,0,0,1,0,30750.8,-0.197018,-0.197425,-51.0335,16,-0.00528786,10,0.0100753,-1.29214,-2.88034,-0.0204837,40.6931,-0.197425,
2,0,0,1,0,30750.8,-0.199647,-0.200041,-51.1514,16,-0.00545647,10,0.0102324,-1.29114,0.264863,0.222757,-432.097,-0.200041,
2,0,0,1,0,30750.8,-0.200134,-0.200589,-51.0996,16,-0.00548716,10,0.01025,-1.29158,-0.0165681,-3.56106,6519.35,-0.200589,
2,0,0,1,1,30750.8,-0.198935,-0.199441,-48.57,16,-0.00556114,10,0.00968686,-1.31363,-0.0581181,-1.01517,1766.91,-0.199441,
2,0,0,1,1,30750.8,-0.195739,-0.196195,-43.0142,16,-0.00574327,10,0.00843918,-1.36639,-0.0654001,-0.902139,1495.53,-0.196195,
2,0,0,1,1,30750.8,-0.192535,-0.192954,-38.629,16,-0.0059059,10,0.0074536,-1.41309,-0.0690133,-0.854907,1316.36,-0.192954,
2,0,0,1,1,30750.8,-0.189339,-0.189747,-34.8842,16,-0.0060524,10,0.00661917,-1.45737,-0.071891,-0.820686,1130.49,-0.189747,
2,0,0,1,1,30750.8,-0.186137,-0.186517,-31.557,16,-0.00618485,10,0.00588592,-1.5009,-0.0730181,-0.808019,1002.46,-0.186517,
2,0,0,1,1,30750.8,-0.182935,-0.183411,-28.5617,16,-0.00630471,10,0.00523852,-1.54422,-0.0725822,-0.812872,909.416,-0.183411,
2,0,0,1,1,30750.8,-0.179739,-0.180165,-25.809,16,-0.00641311,10,0.00464989,-1.58823,-0.0709014,-0.832141,838.934,-0.180165,
2,0,0,1,1,30750.8,-0.176532,-0.176938,-23.2358,16,-0.0065109,10,0.0041113,-1.63384,-0.0691633,-0.853053,773.276,-0.176938,
2,0,0,1,1,30750.8,-0.173336,-0.17375,-20.8461,16,-0.00659877,10,0.003622,-1.68097,-0.0659533,-0.894572,726.105,-0.17375,
2,0,0,1,1,30750.8,-0.17014,-0.170531,-18.6021,16,-0.0066774,10,0.00317224,-1.73044,-0.0622401,-0.947942,684.676,-0.170531,
2,0,0,1,1,30750.9,-0.166932,-0.167319,-16.4817,16,-0.00674731,10,0.0027577,-1.783,-0.0578376,-1.0201,650.513,-0.167319,
2,0,0,1,1,30750.9,-0.163736,-0.164133,-14.4682,16,-0.00680899,10,0.00237471,-1.83959,-0.0532251,-1.1085,618.294,-0.164133,
2,0,0,1,1,30750.9,-0.160532,-0.160974,-12.5353,16,-0.0068628,10,0.00201786,-1.90187,-0.0482739,-1.22219,588.276,-0.1609738,
2,0,0,1,1,30750.9,-0.157336,-0.15776,-10.7055,16,-0.00690908,10,0.0016889,-1.97039,-0.0427071,-1.3815,563.435,-0.15776,
2,0,0,1,1,30750.9,-0.154139,-0.154512,-8.94727,16,-0.00694818,10,0.00138246,-2.04831,-0.0369498,-1.59676,538.061,-0.154512,
2,0,0,1,1,30750.9,-0.150935,-0.151332,-7.25553,16,-0.0069804,10,0.00109799,-2.13933,-0.0304433,-1.93803,518.966,-0.151332,
2,0,0,1,1,30750.9,-0.147739,-0.148161,-5.64118,16,-0.007006,10,0.000835802,-2.24863,-0.0234615,-2.51476,500.766,-0.148161,
2,0,0,1,1,30750.9,-0.144532,-0.144974,-4.07039,16,-0.00702527,10,0.000590102,-2.39036,-0.0156245,-3.77611,481.204,-0.144974,
2,0,0,1,1,30750.9,-0.141335,-0.141752,-2.55755,16,-0.00703835,10,0.000362538,-2.59218,-0.0101267,-5.82616,464.31,-0.1417518,
2,0,0,1,1,30750.9,-0.138139,-0.138544,-1.10217,16,-0.00704552,10,0.000152699,-2.95775,-0.0332139,-1.77637,448.268,-0.138544,
2,0,0,1,1,30750.9,-0.134932,-0.135351,0.3065,16,-0.00704694,10,-4.14852e-05,-3.51357,0.183486,0.32155,434.692,-0.135351,
2,1,0,1,1,30750.9,-0.131736,-0.132159,1.67418,16,-0.00704283,10,-0.000221259,-2.7762,0.0216274,2.72802,422.476,-0.132159,
2,1,0,1,1,30750.9,-0.12854,-0.12896,3.00289,16,-0.00703334,10,-0.000387253,-2.52246,0.0101537,5.81068,410.589,-0.12896,
2,1,0,1,1,30750.9,-0.125333,-0.125762,4.29799,16,-0.00701859,10,-0.000540523,-2.36673,0.021023,2.80645,399.362,-0.125762,
2,1,0,1,1,30750.9,-0.122136,-0.122579,5.55079,16,-0.00699875,10,-0.000680409,-2.25564,0.0301303,1.95816,388.458,-0.122579,
2,1,0,1,1,30750.9,-0.118932,-0.119407,6.76703,16,-0.00697398,10,-0.00080803,-2.1696,0.0390488,1.51093,378.179,-0.119407,
2,1,0,1,1,30750.9,-0.115736,-0.116212,7.95503,16,-0.0069444,10,-0.000924469,-2.09936,0.047826,1.23364,369.427,-0.116212,
2,1,0,1,1,30750.9,-0.11254,-0.112985,9.12992,16,-0.00691011,10,-0.00103155,-2.03953,0.0567214,1.04017,360.429,-0.112985,
2,1,0,1,1,30750.9,-0.109335,-0.109783,10.278,16,-0.00687115,10,-0.00112834,-1.98809,0.0656033,0.899344,352.615,-0.109783,
2,1,0,1,1,30750.9,-0.106139,-0.106581,11.3897,16,-0.00682769,10,-0.00121393,-1.94349,0.0750902,0.785722,343.073,-0.106581,
2,1,0,1,1,30750.9,-0.102932,-0.103392,12.4757,16,-0.00677985,10,-0.00128988,-1.90394,0.0846496,0.696991,334.556,-0.103392,
2,1,0,1,1,30750.9,-0.0997357,-0.100147,13.5344,16,-0.00672771,10,-0.00135543,-1.86856,0.0939107,0.628257,328.158,-0.100147,
2,1,0,1,1,30750.9,-0.0965395,-0.0969549,14.5695,16,-0.00667138,10,-0.00141259,-1.83655,0.103729,0.56879,320.331,-0.0969549,
2,1,0,1,1,30750.9,-0.0933323,-0.0937567,15.5982,16,-0.00661093,10,-0.00146244,-1.80692,0.113361,0.520463,313.949,-0.0937567,
2,1,0,1,1,30750.9,-0.0901361,-0.0905797,16.5797,16,-0.00654646,10,-0.00150178,-1.78042,0.123642,0.477185,306.396,-0.0905797,
2,1,0,1,1,30751,-0.0869345,-0.0873497,17.552,16,-0.00647811,10,-0.00153316,-1.75567,0.134916,0.43731,297.54,-0.0873497,
2,1,0,1,1,30751,-0.0837328,-0.0841558,18.4911,16,-0.00640591,10,-0.00155614,-1.73304,0.145528,0.405421,290.88,-0.0841558,
2,1,0,1,1,30751,-0.0805366,-0.0809523,19.4081,16,-0.00633003,10,-0.00157113,-1.71202,0.15647,0.37707,284.231,-0.0809523,
2,1,0,1,1,30751,-0.0773322,-0.0777382,20.315,16,-0.00625051,10,-0.00157925,-1.69218,0.168123,0.350934,276.823,-0.0777382,
2,1,0,1,1,30751,-0.074136,-0.0745453,21.1914,16,-0.0061674,10,-0.00157972,-1.67384,0.179088,0.329447,271.252,-0.0745453,
2,1,0,1,1,30751,-0.0709371,-0.0713471,22.0369,16,-0.00608085,10,-0.00157227,-1.65685,0.191765,0.307669,263.696,-0.0713471,
2,1,0,1,1,30751,-0.0677354,-0.0681468,22.8816,16,-0.00599091,10,-0.00155931,-1.64051,0.202683,0.291096,259.129,-0.06814684,
2,1,0,1,1,30751,-0.0645393,-0.0649243,23.694,16,-0.00589766,10,-0.00153832,-1.62536,0.215169,0.274203,252.767,-0.0649243,
2,1,0,1,1,30751,-0.0613321,-0.0617462,24.508,16,-0.00580118,10,-0.00151328,-1.61069,0.227719,0.259091,246.963,-0.06174621,
2,1,0,1,1,30751,-0.0581359,-0.0585258,25.2777,16,-0.00570152,10,-0.0014794,-1.59726,0.241406,0.244401,240.365,-0.0585258,
2,1,0,1,1,30751,-0.0549398,-0.0553817,26.0341,16,-0.00559881,10,-0.00144181,-1.58446,0.256271,0.230225,233.371,-0.0553817,
2,1,0,1,1,30751,-0.0517325,-0.0521315,26.769,16,-0.00549309,10,-0.00139551,-1.57237,0.2686,0.219658,229.012,-0.0521315,
2,1,0,1,1,30751,-0.0485364,-0.0489407,27.4965,16,-0.00538448,10,-0.0013457,-1.56072,0.28475,0.207199,221.838,-0.0489407,
2,1,0,1,1,30751,-0.0453347,-0.0457436,28.205,16,-0.005273,10,-0.0012902,-1.54967,0.298763,0.197481,216.811,-0.0457436,
2,1,0,1,1,30751,-0.042133,-0.0425412,28.8826,16,-0.00515875,10,-0.0012287,-1.53936,0.315782,0.186837,210.165,-0.0425412,
2,1,0,1,1,30751,-0.0389369,-0.0393525,29.5396,16,-0.00504183,10,-0.00116246,-1.5296,0.3348,0.176225,202.814,-0.03935254,
2,1,0,1,1,30751,-0.0357324,-0.0361215,30.1906,16,-0.00492233,10,-0.00109053,-1.52013,0.350584,0.168291,197.909,-0.03612148,
2,1,0,1,1,30751,-0.0325363,-0.0328872,30.8124,16,-0.00480025,10,-0.00101334,-1.51127,0.368214,0.160233,192.313,-0.0328872,
2,1,0,1,1,30751,-0.0293374,-0.0297251,31.419,16,-0.00467573,10,-0.000933934,-1.50281,0.390366,0.15114,184.967,-0.0297251,
2,1,0,1,1,30751,-0.0261357,-0.0265587,32,16,-0.00454882,10,-0.000849879,-1.49485,0.408418,0.14446,180.122,-0.0265587,
2,1,0,1,1,30751,-0.0229395,-0.0233372,32.5553,16,-0.00441964,10,-0.00075975,-1.48738,0.432059,0.136555,173.277,-0.0233372,
2,1,0,1,1,30751,-0.0197323,-0.0201146,33.1131,16,-0.00428825,10,-0.000666057,-1.48,0.457501,0.128961,166.366,-0.02011464,
2,1,0,1,1,30751,-0.0165361,-0.016944,33.6337,16,-0.00415471,10,-0.00056989,-1.47323,0.476449,0.123833,162.302,-0.016944,
2,1,0,1,1,30751,-0.01334,-0.0137352,34.1334,16,-0.00401911,10,-0.00046883,-1.46682,0.506956,0.116381,154.845,-0.0137352,
2,1,0,1,1,30751,-0.0101328,-0.010536,34.633,16,-0.0038815,10,-0.000364892,-1.46051,0.534182,0.110449,149.069,-0.010536,
2,1,0,1,1,30751.1,-0.00693663,-0.0073484,35.0898,16,-0.003742,10,-0.000257854,-1.45482,0.561373,0.105099,143.681,-0.0073484,
2,1,0,1,1,30751.1,-0.00373494,-0.00409083,35.5497,16,-0.00360068,10,-0.000145428,-1.44916, , , ,-0.00409083,
2,1,0,1,1,30751.1,-0.000774628,-0.00115244,35.9413,16,-0.00346841,10,-4.14202e-05,-1.44441, , , ,-0.001152441,
2,1,0,0,1,30751.1,-0.000125413,-0.000497109,36.0399,16,-0.00343963,10,-1.79158e-05,-1.44322, , , ,-0.000497109,