File: Figure_codes/Fig_3-5/rawdata_trumpetplot_data/after 10th/20221101_1-115_003_TrumpetPlot_ParaChange_from10_every3_07_CV_C01_17.csv
mode,ox/red,error,control changes,counter inc.,time/s,control/V,Ewe/V,<I>/mA,cycle number,(Q-Qo)/C,I Range,P/W,log(|I|),Tafel slope mV/dec,alpha_eff,dI/d(E-IR),E-IR/V,
2,0,0,0,0,34657.2,2.44065e-05,-0.000306236,-2.71476,18,0.0000000E+000,10,8.31357e-07,-2.56627, , , ,-0.000306236,
2,0,0,1,0,34657.3,0.0013005,0.000913343,-1.28961,18,-3.95683e-05,10,-1.17786e-06,-2.88954, , , ,0.000913343,
2,0,0,1,0,34657.3,0.00279471,0.00247097,-0.307703,18,-5.81334e-05,10,-7.60325e-07,-3.51187,-0.00721401,-8.17853,543.13,0.00247097,
2,1,0,1,0,34657.3,0.00429425,0.0040124,0.312355,18,-5.71748e-05,10,1.25329e-06,-3.50535,0.0228665,2.5802,367.985,0.0040124,
2,1,0,1,0,34657.3,0.00579379,0.00550559,0.746399,18,-4.31979e-05,10,4.10937e-06,-3.12703,0.00416283,14.1731,259.852,0.00550559,
2,1,0,1,0,34657.4,0.007288,0.00697558,1.062,18,-1.9951e-05,10,7.40803e-06,-2.97388,0.0111565,5.28838,196.269,0.00697558,
2,1,0,1,0,34657.4,0.00878882,0.00846991,1.31806,18,1.04532e-05,10,1.11638e-05,-2.88007,0.0197838,2.98224,145.585,0.00846991,
2,1,0,1,0,34657.4,0.0102896,0.00999313,1.51962,18,4.63824e-05,10,1.51857e-05,-2.81827,0.0293956,2.00711,114.64,0.00999313,
2,1,0,1,0,34657.4,0.0117838,0.01145,1.67381,18,8.64851e-05,10,1.91651e-05,-2.77629,0.0385958,1.52866,97.5541,0.01145,
2,1,0,1,0,34657.5,0.0132834,0.0129592,1.79826,18,0.000130279,10,2.3304e-05,-2.74515,0.0488304,1.20826,83.9956,0.0129592,
2,1,0,1,0,34657.5,0.0147816,0.014447,1.91001,18,0.000177088,10,2.75938e-05,-2.71897,0.0624539,0.944696,70.0166,0.014447,
2,1,0,1,0,34657.5,0.0162811,0.0159151,2.01397,18,0.000226605,10,3.20527e-05,-2.69595,0.0755876,0.780551,60.7583,0.0159151,
2,1,0,1,0,34657.5,0.0177753,0.0174502,2.09428,18,0.000278161,10,3.65457e-05,-2.67897,0.0893918,0.660016,53.6847,0.0174502,
2,1,0,1,0,34657.6,0.0192761,0.0189622,2.16804,18,0.000331849,10,4.11108e-05,-2.66393,0.0987101,0.59771,50.5304,0.0189622,
2,1,0,1,0,34657.6,0.020777,0.0204962,2.24557,18,0.000387421,10,4.60255e-05,-2.64867,0.109658,0.538034,46.9902,0.0204962,
2,1,0,1,0,34657.6,0.0222712,0.0219111,2.31347,18,0.00044454,10,5.06909e-05,-2.63574,0.122132,0.483082,43.4217,0.0219111,
2,1,0,1,0,34657.6,0.0237707,0.023467,2.38022,18,0.000503547,10,5.58567e-05,-2.62338,0.133604,0.441604,40.7814,0.023467,
2,1,0,1,0,34657.7,0.0252703,0.0249378,2.42493,18,0.000564023,10,6.04725e-05,-2.6153,0.140162,0.420942,40.0315,0.0249378,
2,1,0,1,0,34657.7,0.0267645,0.0264188,2.48525,18,0.000625669,10,6.56573e-05,-2.60463,0.153818,0.38357,37.2729,0.02641877,
2,1,0,1,0,34657.7,0.0282653,0.0279839,2.55274,18,0.000689061,10,7.14357e-05,-2.59299,0.154648,0.381512,37.8893,0.02798393,
2,1,0,1,0,34657.7,0.0297648,0.0294552,2.60655,18,0.000753838,10,7.67764e-05,-2.58393,0.15911,0.370811,37.602,0.0294552,
2,1,0,1,0,34657.8,0.031259,0.0309229,2.64956,18,0.000819716,10,8.19322e-05,-2.57683,0.166185,0.355027,36.7628,0.0309229,
2,1,0,1,0,34657.8,0.0327585,0.0323852,2.70525,18,0.000887139,10,8.761e-05,-2.56779,0.174267,0.338561,35.8115,0.0323852,
2,1,0,1,0,34657.8,0.034258,0.0339101,2.76229,18,0.000955928,10,9.36695e-05,-2.55873,0.18688,0.315711,34.0435,0.0339101,
2,1,0,1,0,34657.8,0.0357576,0.0354229,2.81773,18,0.00102608,10,9.98121e-05,-2.5501,0.181826,0.324485,35.5973,0.0354229,
2,1,0,1,0,34657.9,0.0372518,0.0368829,2.8617,18,0.00109727,10,0.000105548,-2.54338,0.193027,0.305657,34.2325,0.0368829,
2,1,0,1,0,34657.9,0.0387526,0.0384302,2.91605,18,0.00116993,10,0.000112065,-2.5352,0.209459,0.281678,32.1085,0.0384302,
2,1,0,1,0,34657.9,0.0402534,0.0399158,2.97291,18,0.0012439,10,0.000118666,-2.52682,0.199262,0.296093,34.2863,0.0399158,
2,1,0,1,0,34657.9,0.0417476,0.0414563,3.02787,18,0.00131895,10,0.000125524,-2.51886,0.20196,0.292137,34.4063,0.0414563,
2,1,0,1,0,34658,0.0432472,0.0429634,3.06874,18,0.00139556,10,0.000131843,-2.51304,0.209201,0.282026,33.8101,0.0429634,
2,1,0,1,0,34658,0.0447467,0.0444468,3.1207,18,0.00147334,10,0.000138705,-2.50575,0.22959,0.25698,31.313,0.0444468,
2,1,0,1,0,34658,0.0462463,0.0459622,3.17166,18,0.00155237,10,0.000145777,-2.49871,0.220942,0.267038,33.0176,0.0459622,
2,1,0,1,0,34658,0.0477391,0.0474163,3.22204,18,0.00163236,10,0.000152777,-2.49187,0.215876,0.273305,34.3467,0.0474163,
2,1,0,1,0,34658.1,0.0492399,0.0488883,3.27043,18,0.00171394,10,0.000159886,-2.4854,0.225542,0.261593,33.4074,0.0488883,
2,1,0,1,0,34658.1,0.0507408,0.0504231,3.31147,18,0.0017967,10,0.000166975,-2.47998,0.249256,0.236704,30.6767,0.0504231,
2,1,0,1,0,34658.1,0.052235,0.0519329,3.36851,18,0.00188031,10,0.000174937,-2.47256,0.240919,0.244896,32.1628,0.0519329,
2,1,0,1,0,34658.1,0.0537345,0.0533699,3.41904,18,0.00196552,10,0.000182473,-2.4661,0.242127,0.243674,32.4721,0.0533699,
2,1,0,1,0,34658.2,0.0552341,0.0548703,3.46168,18,0.00205197,10,0.000189943,-2.46071,0.262179,0.225037,30.396,0.0548703,
2,1,0,1,0,34658.2,0.0567283,0.0563931,3.50201,18,0.00213914,10,0.000197489,-2.45568,0.281541,0.209561,28.713,0.0563931,
2,1,0,1,0,34658.2,0.0582291,0.0578875,3.55572,18,0.00222772,10,0.000205832,-2.44907,0.292774,0.201521,27.9544,0.05788748,
2,1,0,1,0,34658.2,0.0597299,0.0593969,3.60406,18,0.00231756,10,0.00021407,-2.44321,0.256586,0.229942,32.2651,0.0593969,
2,1,0,1,0,34658.3,0.0612228,0.0609328,3.64281,18,0.00240813,10,0.000221967,-2.43856,0.289375,0.203888,28.9809,0.0609328,
2,1,0,1,0,34658.3,0.0627223,0.0624124,3.67926,18,0.00250018,10,0.000229631,-2.43424,0.293396,0.201094,28.9335,0.06241237,
2,1,0,1,0,34658.3,0.0642219,0.0639244,3.72968,18,0.00259322,10,0.000238417,-2.42833,0.332985,0.177185,25.7896,0.0639244,
2,1,0,1,0,34658.3,0.0657214,0.0653701,3.77332,18,0.00268737,10,0.000246662,-2.42328,0.287235,0.205407,30.2353,0.0653701,
2,1,0,1,0,34658.4,0.0672156,0.0669517,3.8111,18,0.00278224,10,0.00025516,-2.41895,0.295345,0.199767,29.7128,0.0669517,
2,1,0,1,0,34658.4,0.0687164,0.0684295,3.85376,18,0.00287854,10,0.000263711,-2.41412,0.367655,0.160477,24.1441,0.0684295,
2,1,0,1,0,34658.4,0.0702172,0.0699215,3.89452,18,0.00297573,10,0.000272311,-2.40955,0.405548,0.145482,22.0795,0.0699215,
2,1,0,1,0,34658.4,0.0717114,0.0713643,3.93239,18,0.00307351,10,0.000280632,-2.40534,0.323887,0.182162,27.9329,0.0713643,
2,1,0,1,0,34658.5,0.073211,0.0729086,3.96349,18,0.00317263,10,0.000288972,-2.40192,0.344909,0.17106,26.4871,0.0729086,
2,1,0,1,0,34658.5,0.0747105,0.0744302,4.00079,18,0.0032727,10,0.000297779,-2.39785,0.419726,0.140568,21.9668,0.0744302,
2,1,0,1,0,34658.5,0.0762101,0.0759025,4.03597,18,0.00337364,10,0.00030634,-2.39405,0.416448,0.141674,22.3275,0.0759025,
2,1,0,1,0,34658.5,0.0777042,0.0773648,4.0768,18,0.00347498,10,0.000315401,-2.38968,0.393626,0.149888,23.832,0.0773648,
2,1,0,1,0,34658.6,0.0792037,0.078871,4.10706,18,0.00357765,10,0.000323928,-2.38647,0.412728,0.142951,22.8943,0.078871,
2,1,0,1,0,34658.6,0.0807046,0.080356,4.1369,18,0.00368114,10,0.000332425,-2.38333,0.49302,0.119671,19.3039,0.080356,
2,1,0,1,0,34658.6,0.0821988,0.0818868,4.17241,18,0.00378499,10,0.000341665,-2.37961,0.512627,0.115093,18.7089,0.0818868,
2,1,0,1,0,34658.6,0.0836983,0.0833793,4.20184,18,0.00388996,10,0.000350347,-2.37656,0.455025,0.129663,21.2529,0.0833793,
2,1,0,1,0,34658.7,0.0851979,0.0848735,4.22542,18,0.00399567,10,0.000358626,-2.37413,0.480851,0.122699,20.256,0.08487349,
2,1,0,1,0,34658.7,0.0866921,0.0863477,4.25526,18,0.00410175,10,0.000367431,-2.37107,0.568272,0.103824,17.2559,0.0863477,
2,1,0,1,0,34658.7,0.0881929,0.0878448,4.2937,18,0.00420897,10,0.000377179,-2.36717,0.560005,0.105356,17.6262,0.0878448,
2,1,0,1,0,34658.7,0.0896937,0.0893645,4.32279,18,0.00431692,10,0.000386304,-2.36424,0.442977,0.13319,22.4426,0.0893645,
2,1,0,1,0,34658.8,0.0911879,0.0908901,4.35105,18,0.00442525,10,0.000395468,-2.36141,0.378351,0.15594,26.4877,0.0908901,
2,1,0,1,0,34658.8,0.0926861,0.0923947,4.38702,18,0.00453488,10,0.000405337,-2.35783,0.409883,0.143944,24.6596,0.0923947,
2,1,0,1,0,34658.8,0.0941856,0.093852,4.42986,18,0.00464547,10,0.000415751,-2.35361,0.397646,0.148373,25.6346,0.093852,
2,1,0,1,0,34658.8,0.0956852,0.0953929,4.46461,18,0.00475698,10,0.000425892,-2.35022,0.379013,0.155667,27.1278,0.0953929,
2,1,0,1,0,34658.9,0.0971794,0.0968532,4.49981,18,0.00486901,10,0.000435822,-2.34681,0.329639,0.178983,31.5138,0.0968532,
2,1,0,1,0,34658.9,0.0986802,0.0983639,4.54869,18,0.0049826,10,0.000447427,-2.34211,0.333717,0.176796,31.4214,0.0983639,
2,1,0,1,0,34658.9,0.100181,0.0998627,4.60563,18,0.00509746,10,0.000459931,-2.33671,0.329656,0.178975,32.1311,0.0998627,
2,1,0,1,0,34658.9,0.101675,0.101362,4.65456,18,0.00521314,10,0.000471795,-2.33212,0.272221,0.216736,39.4229,0.101362,
2,1,0,1,0,34659,0.103175,0.102845,4.71324,18,0.00533063,10,0.000484731,-2.32668,0.24682,0.23904,44.1008,0.102845,
2,1,0,1,0,34659,0.104674,0.104365,4.78372,18,0.00544977,10,0.000499252,-2.32023,0.23543,0.250605,46.8415,0.104365,
2,1,0,1,0,34659,0.106169,0.105864,4.86099,18,0.00557028,10,0.000514602,-2.31328,0.24337,0.24243,45.9383,0.105864,
2,1,0,1,0,34659,0.107668,0.107398,4.93329,18,0.00569308,10,0.000529824,-2.30686,0.227906,0.258879,49.8111,0.107398,
2,1,0,1,0,34659.1,0.109169,0.108839,5.00006,18,0.00581761,10,0.000544199,-2.30102,0.221014,0.266952,52.198,0.108839,
2,1,0,1,0,34659.1,0.110663,0.110335,5.07791,18,0.00594354,10,0.000560274,-2.29431,0.226518,0.260465,51.6699,0.110335,
2,1,0,1,0,34659.1,0.112163,0.111843,5.16386,18,0.00607196,10,0.000577539,-2.28703,0.234165,0.251959,50.705,0.111843,
2,1,0,1,0,34659.1,0.113662,0.113338,5.24249,18,0.00620241,10,0.000594173,-2.28046,0.23115,0.255245,52.1469,0.113338,
2,1,0,1,0,34659.2,0.115162,0.114855,5.31069,18,0.00633471,10,0.000609958,-2.27485,0.241467,0.244339,50.6888,0.114855,
2,1,0,1,0,34659.2,0.116656,0.116315,5.38306,18,0.00646838,10,0.00062613,-2.26897,0.247268,0.238608,50.1792,0.116315,
2,1,0,1,0,34659.2,0.118157,0.117855,5.46676,18,0.00660447,10,0.000644285,-2.26227,0.270559,0.218067,46.4422,0.117855,
2,1,0,1,0,34659.2,0.119658,0.119343,5.53511,18,0.00674238,10,0.000660578,-2.25687,0.295589,0.199602,43.045,0.119343,
2,1,0,1,0,34659.3,0.121152,0.120822,5.58839,18,0.00688127,10,0.000675202,-2.25271,0.305782,0.192948,42.1142,0.120822,
2,1,0,1,0,34659.3,0.122651,0.122292,5.6507,18,0.00702223,10,0.000691033,-2.2479,0.332747,0.177312,39.1084,0.1222916,
2,1,0,1,0,34659.3,0.124151,0.123793,5.7156,18,0.00716472,10,0.000707552,-2.24294,0.368336,0.16018,35.6613,0.123793,
2,1,0,1,0,34659.3,0.125649,0.125296,5.76741,18,0.00730859,10,0.000722635,-2.23902,0.407489,0.144789,32.5069,0.125296,
2,1,0,1,0,34659.4,0.127143,0.126808,5.80051,18,0.00745303,10,0.000735549,-2.23653,0.431617,0.136695,30.9591,0.126808,
2,1,0,1,0,34659.4,0.128644,0.128351,5.84431,18,0.00759901,10,0.000750122,-2.23327,0.542079,0.10884,24.8481,0.128351,
2,1,0,1,0,34659.4,0.130145,0.129826,5.88568,18,0.00774607,10,0.000764112,-2.2302,0.551273,0.107025,24.5586,0.129826,
2,1,0,1,0,34659.4,0.131639,0.131357,5.92651,18,0.00789351,10,0.000778491,-2.2272,0.637146,0.0926005,21.3659,0.1313573,
2,1,0,1,0,34659.5,0.133139,0.132826,5.95327,18,0.00804232,10,0.000790747,-2.22524,0.670581,0.0879834,20.4417,0.132826,
2,1,0,1,0,34659.5,0.134638,0.134338,5.97541,18,0.0081918,10,0.000802723,-2.22363,0.783558,0.0752975,17.5834,0.134338,
2,1,0,1,0,34659.5,0.136132,0.135791,6.0097,18,0.00834144,10,0.000816061,-2.22115,0.90471,0.0652142,15.2765,0.135791,
2,1,0,1,0,34659.5,0.137633,0.137329,6.03473,18,0.00849234,10,0.000828746,-2.21934,1.01103,0.0583566,13.7158,0.137329,
2,1,0,1,0,34659.6,0.139133,0.138799,6.05172,18,0.00864372,10,0.000839975,-2.21812,1.45244,0.0406214,9.57703,0.138799,
2,1,0,1,0,34659.6,0.140627,0.140296,6.04852,18,0.00879478,10,0.000848584,-2.21835,6.67183,0.00884315,2.087,0.1402961,
2,1,0,1,0,34659.6,0.142126,0.141791,6.05794,18,0.00894654,10,0.000858958,-2.21768,-2.38568,-0.0247309,-5.83329,0.141791,
2,1,0,1,0,34659.6,0.143626,0.143307,6.05127,18,0.00909823,10,0.000867191,-2.21815,-1.11113,-0.053099,-12.4873,0.143307,
2,1,0,1,0,34659.7,0.145125,0.144804,6.0135,18,0.00924942,10,0.000870777,-2.22087,-0.543941,-0.108468,-25.4113,0.144804,
2,1,0,1,0,34659.7,0.14662,0.146326,5.95755,18,0.00939898,10,0.000871746,-2.22493,-0.35042,-0.168369,-39.0987,0.1463263,
2,1,0,1,0,34659.7,0.14812,0.147829,5.89552,18,0.00954768,10,0.000871527,-2.22948,-0.247595,-0.238293,-54.6486,0.147829,
2,1,0,1,0,34659.7,0.149621,0.14926,5.81189,18,0.00969444,10,0.000867483,-2.23568,-0.202601,-0.291212,-65.7522,0.14926,
2,1,0,1,0,34659.8,0.151116,0.15081,5.69797,18,0.0098381,10,0.000859312,-2.24428,-0.159529,-0.369839,-81.8573,0.15081,
2,1,0,1,0,34659.8,0.152615,0.152296,5.55478,18,0.00997923,10,0.000845969,-2.25533,-0.133375,-0.442363,-95.6985,0.152296,
2,1,0,1,0,34659.8,0.154115,0.153749,5.40888,18,0.0101167,10,0.000831611,-2.26689,-0.116871,-0.504829,-106.233,0.1537493,
2,1,0,1,0,34659.8,0.155614,0.155303,5.2446,18,0.0102501,10,0.000814501,-2.28029,-0.105236,-0.560647,-114.335,0.155303,
2,1,0,1,0,34659.9,0.157107,0.156811,5.0581,18,0.0103788,10,0.000793164,-2.29601,-0.0951915,-0.619803,-122.145,0.156811,
2,1,0,1,0,34659.9,0.158608,0.15828,4.86916,18,0.0105034,10,0.000770693,-2.31255,-0.0891348,-0.661919,-125.841,0.15828,
2,1,0,1,0,34659.9,0.160109,0.159783,4.68508,18,0.0106232,10,0.000748594,-2.32928,-0.0860612,-0.685559,-125.381,0.1597826,
2,1,0,1,0,34659.9,0.161603,0.161303,4.5049,18,0.0107379,10,0.000726653,-2.34631,-0.0882017,-0.668921,-117.62,0.161303,
2,1,0,1,0,34660,0.163102,0.162781,4.32957,18,0.0108487,10,0.000704771,-2.36356,-0.0912213,-0.646779,-109.462,0.1627807,
2,1,0,1,0,34660,0.164602,0.164298,4.16926,18,0.0109554,10,0.000685001,-2.37994,-0.0908327,-0.649546,-105.902,0.164298,
2,1,0,1,0,34660,0.166096,0.165772,4.01687,18,0.0110576,10,0.000665886,-2.39611,-0.0945567,-0.623965,-98.1072,0.165772,
2,1,0,1,0,34660,0.167597,0.167262,3.88161,18,0.0111567,10,0.000649244,-2.41099,-0.103634,-0.569311,-86.3702,0.167262,
2,1,0,1,0,34660.1,0.169098,0.168784,3.75837,18,0.0112525,10,0.000634352,-2.425,-0.113142,-0.521469,-76.5811,0.168784,
2,1,0,1,0,34660.1,0.170592,0.170274,3.64139,18,0.011345,10,0.000620034,-2.43873,-0.112195,-0.52587,-74.8959,0.170274,
2,1,0,1,0,34660.1,0.17209,0.171765,3.53425,18,0.0114351,10,0.000607062,-2.4517,-0.119743,-0.492722,-68.1273,0.1717654,
2,1,0,1,0,34660.1,0.17359,0.173258,3.44307,18,0.0115227,10,0.000596539,-2.46305,-0.137084,-0.430394,-57.9252,0.173258,
2,1,0,1,0,34660.2,0.175089,0.174729,3.35665,18,0.011608,10,0.000586504,-2.47409,-0.145558,-0.405336,-53.2714,0.174729,
2,1,0,1,0,34660.2,0.176583,0.176257,3.28071,18,0.0116911,10,0.000578246,-2.48403,-0.147892,-0.398941,-51.1891,0.176257,
2,1,0,1,0,34660.2,0.178084,0.177745,3.21222,18,0.0117726,10,0.000570954,-2.49319,-0.160723,-0.36709,-46.0702,0.177745,
2,1,0,1,0,34660.2,0.179585,0.179261,3.14884,18,0.0118524,10,0.000564464,-2.50185,-0.177015,-0.333304,-40.9848,0.179261,
2,1,0,1,0,34660.3,0.181079,0.180793,3.0864,18,0.0119304,10,0.000558,-2.51055,-0.213581,-0.276241,-33.3492,0.180793,
2,1,0,1,0,34660.3,0.182579,0.182282,3.0395,18,0.0120074,10,0.000554045,-2.5172,-0.197393,-0.298896,-35.4738,0.182282,
2,1,0,1,0,34660.3,0.184078,0.183765,2.99316,18,0.0120831,10,0.000550039,-2.52387,-0.216352,-0.272703,-31.8279,0.183765,
2,1,0,1,0,34660.3,0.185578,0.185209,2.94609,18,0.0121576,10,0.000545643,-2.53075,-0.252347,-0.233805,-26.9316,0.185209,
2,1,0,1,0,34660.4,0.187072,0.186783,2.90515,18,0.0122308,10,0.000542631,-2.53683,-0.279345,-0.211208,-23.9422,0.186783,
2,1,0,1,0,34660.4,0.188573,0.188256,2.87026,18,0.0123034,10,0.000540344,-2.54208,-0.282363,-0.208951,-23.4374,0.188256,
2,1,0,1,0,34660.4,0.190072,0.189766,2.83875,18,0.0123752,10,0.000538696,-2.54687,-0.284447,-0.20742,-22.9714,0.189766,
2,1,0,1,0,34660.4,0.191567,0.191238,2.8073,18,0.0124458,10,0.000536862,-2.55171,-0.351253,-0.16797,-18.4078,0.191238,
2,1,0,1,0,34660.5,0.193066,0.192762,2.77483,18,0.0125159,10,0.000534882,-2.55676,-0.431605,-0.136699,-14.8197,0.1927617,
2,1,0,1,0,34660.5,0.194566,0.19426,2.75151,18,0.0125854,10,0.000534507,-2.56043,-0.377096,-0.156459,-16.8342,0.19426,
2,1,0,1,0,34660.5,0.19606,0.195749,2.73054,18,0.0126541,10,0.0005345,-2.56375,-0.347288,-0.169888,-18.0934,0.195749,
2,1,0,1,0,34660.5,0.197561,0.197228,2.70975,18,0.0127224,10,0.00053444,-2.56707,-0.423923,-0.139176,-14.6888,0.197228,
2,1,0,1,0,34660.6,0.199062,0.198782,2.68639,18,0.0127902,10,0.000534006,-2.57083,-0.555083,-0.10629,-11.1497,0.198782,
2,1,0,1,0,34660.6,0.200556,0.200223,2.66696,18,0.0128572,10,0.000533988,-2.57398,-0.524244,-0.112543,-11.7114,0.2002233,
2,1,0,1,0,34660.6,0.202055,0.20171,2.65271,18,0.0129241,10,0.000535079,-2.57631,-0.496666,-0.118792,-12.2769,0.20171,
2,1,0,1,0,34660.6,0.203553,0.203218,2.63738,18,0.0129906,10,0.000535963,-2.57883,-0.55397,-0.106504,-10.9486,0.2032177,
2,1,0,1,0,34660.7,0.205053,0.204774,2.61841,18,0.0130566,10,0.000536182,-2.58196,-1.0655,-0.0553731,-5.67054,0.204774,
2,1,0,1,0,34660.7,0.206547,0.206228,2.60085,18,0.013122,10,0.000536368,-2.58489,-0.741184,-0.0796024,-8.10726,0.206228,
2,1,0,1,0,34660.7,0.208048,0.207688,2.59666,18,0.0131874,10,0.000539294,-2.58559,-0.619098,-0.0952999,-9.63521,0.207688,
2,1,0,1,0,34660.7,0.209549,0.209248,2.5898,18,0.0132526,10,0.000541911,-2.58673,-0.747443,-0.0789358,-7.94337,0.2092479,
2,1,0,1,0,34660.8,0.211043,0.210696,2.56763,18,0.013317,10,0.000540989,-2.59047,-0.921774,-0.064007,-6.4218,0.2106958,
2,1,0,1,0,34660.8,0.212543,0.212272,2.55777,18,0.0133815,10,0.000542943,-2.59214,-0.959859,-0.0614674,-6.14031,0.212272,
2,1,0,1,0,34660.8,0.214042,0.213744,2.55068,18,0.0134457,10,0.000545191,-2.59334,-0.774486,-0.0761796,-7.57353,0.213744,
2,1,0,1,0,34660.8,0.215536,0.215233,2.54155,18,0.0135095,10,0.000547026,-2.5949,-0.889974,-0.0662941,-6.56744,0.215233,
2,1,0,1,0,34660.9,0.217036,0.216741,2.52467,18,0.0135731,10,0.0005472,-2.5978,-1.14102,-0.0517079,-5.10818,0.216741,
2,1,0,1,0,34660.9,0.218537,0.218278,2.51738,18,0.0136366,10,0.00054949,-2.59905,-1.62662,-0.0362716,-3.56894,0.218278,
2,1,0,1,0,34660.9,0.220031,0.219713,2.51929,18,0.0136997,10,0.000553521,-2.59872,-1.19729,-0.0492781,-4.83197,0.219713,
2,1,0,1,0,34660.9,0.22153,0.221259,2.51199,18,0.0137629,10,0.000555799,-2.59998,-1.12124,-0.0526204,-5.14107,0.221259,
2,1,0,1,0,34661,0.22303,0.222735,2.49758,18,0.0138258,10,0.000556299,-2.60248,-1.14534,-0.0515132,-5.02346,0.222735,
2,1,0,1,0,34661,0.22453,0.224232,2.48636,18,0.0138885,10,0.000557521,-2.60444,-0.954216,-0.0618309,-6.01787,0.224232,
2,1,0,1,0,34661,0.226024,0.22574,2.48748,18,0.0139509,10,0.000561524,-2.60424,-1.2554,-0.046997,-4.55618,0.22574,
2,1,0,1,0,34661,0.227525,0.22721,2.4835,18,0.0140133,10,0.000564276,-2.60494,-1.18262,-0.0498891,-4.82212,0.22721,
2,1,0,1,0,34661.1,0.229025,0.228715,2.47406,18,0.0140756,10,0.000565855,-2.60659,-1.88351,-0.0313246,-3.02188,0.228715,
2,1,0,1,0,34661.1,0.23052,0.230237,2.46538,18,0.0141374,10,0.000567622,-2.60812,-1.03973,-0.0567455,-5.47233,0.230237,
2,1,0,1,0,34661.1,0.232019,0.231695,2.45967,18,0.0141994,10,0.000569894,-2.60912,-1.33877,-0.0440703,-4.23064,0.231695,
2,1,0,1,0,34661.1,0.233519,0.233213,2.46196,18,0.0142612,10,0.000574161,-2.60872,-2.19829,-0.026839,-2.56909,0.233213,
2,1,0,1,0,34661.2,0.235018,0.234656,2.45015,18,0.014323,10,0.000574942,-2.61081,-2.94416,-0.0200397,-1.91805,0.234656,
2,1,0,1,0,34661.2,0.236511,0.236186,2.43763,18,0.0143842,10,0.000575735,-2.61303,-1.72578,-0.0341874,-3.26203,0.236186,
2,1,0,1,0,34661.2,0.238012,0.237704,2.44106,18,0.0144457,10,0.000580249,-2.61242,-1.43448,-0.0411299,-3.91233,0.237704,
2,1,0,1,0,34661.2,0.239513,0.239189,2.43687,18,0.0145071,10,0.000582871,-2.61317,-3.03037,-0.0194696,-1.85037,0.239189,
2,1,0,1,0,34661.3,0.241007,0.240707,2.42959,18,0.014568,10,0.000584819,-2.61447,-3.75085,-0.0157298,-1.49407,0.240707,
2,1,0,1,0,34661.3,0.242506,0.242181,2.42049,18,0.0146291,10,0.000586195,-2.6161,-1.58871,-0.0371371,-3.52125,0.242181,
2,1,0,1,0,34661.3,0.244006,0.243706,2.42188,18,0.0146901,10,0.000590225,-2.61585,-1.64226,-0.0359261,-3.39732,0.243706,
2,1,0,1,0,34661.3,0.2455,0.245196,2.4276,18,0.0147507,10,0.000595239,-2.61482,-2.00739,-0.0293914,-2.77466,0.245196,
2,1,0,1,0,34661.4,0.247001,0.246688,2.41492,18,0.0148116,10,0.000595731,-2.6171,-4.6647,-0.0126482,-1.18987,0.246688,
2,1,0,1,0,34661.4,0.248502,0.24822,2.40512,18,0.0148722,10,0.000596997,-2.61886,-1.13346,-0.0520531,-4.89873,0.2482197,
2,1,0,1,0,34661.4,0.249995,0.249692,2.41114,18,0.0149325,10,0.000602043,-2.61778,-1.7724,-0.0332882,-3.1263,0.249692,
2,1,0,1,0,34661.4,0.251494,0.251199,2.40266,18,0.014993,10,0.000603546,-2.61931,-19.1381,-0.00308285,-0.289074,0.251199,
2,1,0,1,0,34661.5,0.252994,0.252667,2.39842,18,0.0150534,10,0.000606001,-2.62007,-2.5199,-0.0234136,-2.19152,0.252667,
2,1,0,1,0,34661.5,0.254493,0.25418,2.39382,18,0.0151138,10,0.000608463,-2.62091,-1.76008,-0.0335212,-3.13697,0.25418,
2,1,0,1,0,34661.5,0.255988,0.255652,2.39134,18,0.0151736,10,0.00061135,-2.62136,-0.985816,-0.0598489,-5.58739,0.255652,
2,1,0,1,0,34661.5,0.257488,0.257192,2.39017,18,0.0152338,10,0.000614734,-2.62157,-10.0911,-0.00584676,-0.543941,0.257192,
2,1,0,1,0,34661.6,0.258989,0.258731,2.38706,18,0.0152938,10,0.000617607,-2.62214,-9.10901,-0.0064771,-0.602036,0.258731,
2,1,0,1,0,34661.6,0.260483,0.260203,2.38223,18,0.0153536,10,0.000619862,-2.62302,-1.31793,-0.0447673,-4.16646,0.260203,
2,1,0,1,0,34661.6,0.261983,0.261719,2.37544,18,0.0154133,10,0.000621697,-2.62426,-1.59774,-0.0369272,-3.42476,0.261719,
2,1,0,1,0,34661.6,0.263482,0.26315,2.37339,18,0.0154731,10,0.000624559,-2.62463,-3.32724,-0.0177324,-1.63974,0.2631503,
2,1,0,1,0,34661.7,0.264982,0.264649,2.36566,18,0.0155328,10,0.00062607,-2.62605,-8.88024,-0.00664397,-0.61451,0.264649,
2,1,0,1,0,34661.7,0.266476,0.26618,2.36241,18,0.0155921,10,0.000628826,-2.62664,-1.84335,-0.032007,-2.95644,0.26618,
2,1,0,1,0,34661.7,0.267976,0.267658,2.35917,18,0.0156515,10,0.000631452,-2.62724,-1.44732,-0.0407649,-3.7578,0.267658,
2,1,0,1,0,34661.7,0.269477,0.269163,2.35644,18,0.0157109,10,0.000634265,-2.62774,-6.83912,-0.00862684,-0.793512,0.269163,
2,1,0,1,0,34661.8,0.270971,0.270643,2.35756,18,0.0157699,10,0.000638057,-2.62754,-5.06646,-0.0116452,-1.07029,0.270643,
2,1,0,1,0,34661.8,0.27247,0.272114,2.34901,18,0.0158292,10,0.000639201,-2.62911,-1.51806,-0.0388653,-3.56388,0.272114,
2,1,0,1,0,34661.8,0.27397,0.273667,2.34502,18,0.0158883,10,0.000641755,-2.62985,-1.50006,-0.0393319,-3.60473,0.273667,
2,1,0,1,0,34661.8,0.275464,0.275168,2.34716,18,0.0159471,10,0.000645863,-2.62946,-3.14231,-0.018776,-1.71519,0.2751677,
2,1,0,1,0,34661.9,0.276965,0.276656,2.33844,18,0.016006,10,0.000646945,-2.63107,-11.8023,-0.00499903,-0.45667,0.276656,
2,1,0,1,0,34661.9,0.278466,0.278128,2.33569,18,0.0160648,10,0.000649621,-2.63159,-1.40298,-0.0420533,-3.8323,0.278128,
2,1,0,1,0,34661.9,0.27996,0.279678,2.3307,18,0.0161233,10,0.000651846,-2.63251,-1.50367,-0.0392374,-3.5717,0.279678,
2,1,0,1,0,34661.9,0.281458,0.281131,2.32956,18,0.0161818,10,0.00065491,-2.63273,-2.33375,-0.0252812,-2.29533,0.281131,
2,1,0,1,0,34662,0.282958,0.28264,2.32444,18,0.0162403,10,0.000656979,-2.63368,-6.04341,-0.00976271,-0.885364,0.28264,
2,1,0,1,0,34662,0.284457,0.284153,2.31697,18,0.0162988,10,0.000658374,-2.63508,-3.18651,-0.0185155,-1.6774,0.284153,
2,1,0,1,0,34662,0.285951,0.28565,2.31787,18,0.0163569,10,0.000662101,-2.63491,-1.14286,-0.0516248,-4.66767,0.28565,
2,1,0,1,0,34662,0.287452,0.287152,2.3127,18,0.0164152,10,0.000664096,-2.63588,-1.74966,-0.0337209,-3.04003,0.287152,
2,1,0,1,0,34662.1,0.288953,0.288654,2.30893,18,0.0164733,10,0.000666481,-2.63659,5.63746,0.0104657,0.941843,0.288654,
2,1,0,1,0,34662.1,0.290447,0.290127,2.30292,18,0.0165311,10,0.000668138,-2.63772,-2.32317,-0.0253963,-2.28823,0.290127,
2,1,0,1,0,34662.1,0.291947,0.291652,2.30285,18,0.016589,10,0.000671631,-2.63773,-0.92337,-0.0638964,-5.73464,0.291652,
2,1,0,1,0,34662.1,0.293446,0.293102,2.2956,18,0.0166469,10,0.000672846,-2.6391,-1.62472,-0.036314,-3.25181,0.293102,
2,1,0,1,0,34662.1,0.29494,0.294595,2.29313,18,0.0167043,10,0.000675545,-2.63957,-2.54146,-0.023215,-2.07795,0.294595,
2,1,0,1,0,34662.2,0.29644,0.296114,2.28904,18,0.016762,10,0.000677817,-2.64035,-9.8035,-0.00601826,-0.537953,0.296114,
2,1,0,1,0,34662.2,0.297941,0.297619,2.28498,18,0.0168195,10,0.000680056,-2.64112,-0.887395,-0.0664867,-5.92009,0.2976194,
2,1,0,1,0,34662.2,0.29944,0.299161,2.28233,18,0.016877,10,0.000682784,-2.64162,-0.00770527,-7.6571,-527.021,0.299161,
2,1,0,1,0,34662.2,0.299736,0.299437,1.85144,18,0.0169066,10,0.00055439,-2.73249,0.00166541,35.4267,1552.19,0.299437,
2,1,0,1,0,34662.3,0.298238,0.297938,0.670763,18,0.0169354,10,0.000199846,-3.17343,0.00158868,37.1378,585.497,0.297938,
2,1,0,1,0,34662.3,0.296744,0.296432,0.120008,18,0.0169441,10,3.55741e-05,-3.92079,0.00738356,7.99072,300.756,0.296432,
2,0,0,1,0,34662.3,0.295243,0.294912,-0.194954,18,0.0169424,10,-5.74941e-05,-3.71007,-0.0186372,-3.16571,172.294,0.294912,
2,0,0,1,0,34662.3,0.293742,0.293428,-0.391948,18,0.0169345,10,-0.000115008,-3.40677,-0.00528881,-11.1556,116.638,0.293428,
2,0,0,1,0,34662.4,0.292248,0.291899,-0.525183,18,0.0169226,10,-0.0001533,-3.27969,-0.0134661,-4.38137,81.1347,0.291899,
2,0,0,1,0,34662.4,0.290748,0.290464,-0.627421,18,0.0169077,10,-0.000182243,-3.20244,-0.0220005,-2.68176,62.9941,0.290464,
2,0,0,1,0,34662.4,0.289249,0.288888,-0.710135,18,0.0168905,10,-0.000205149,-3.14866,-0.0332359,-1.77519,47.8889,0.2888875,
2,0,0,1,0,34662.4,0.287754,0.287445,-0.778136,18,0.0168715,10,-0.000223671,-3.10894,-0.0419649,-1.40594,41.9949,0.287445,
2,0,0,1,0,34662.5,0.286254,0.285881,-0.828366,18,0.016851,10,-0.000236814,-3.08178,-0.0540473,-1.09164,35.1993,0.285881,
2,0,0,1,0,34662.5,0.284754,0.284433,-0.878734,18,0.0168292,10,-0.000249941,-3.05614,-0.0641212,-0.920133,31.4423,0.284433,
2,0,0,1,0,34662.5,0.28326,0.282952,-0.93208,18,0.0168063,10,-0.000263734,-3.03055,-0.0781921,-0.754552,26.9951,0.282952,
2,0,0,1,0,34662.5,0.28176,0.281402,-0.965708,18,0.0167822,10,-0.000271752,-3.01515,-0.0843073,-0.699821,26.0845,0.281402,
2,0,0,1,0,34662.6,0.280261,0.279947,-0.991136,18,0.0167572,10,-0.000277466,-3.00387,-0.101404,-0.58183,22.696,0.279947,
2,0,0,1,0,34662.6,0.278761,0.27848,-1.03003,18,0.0167315,10,-0.000286843,-2.98715,-0.121058,-0.48737,19.6275,0.27848,
2,0,0,1,0,34662.6,0.277267,0.276945,-1.06774,18,0.016705,10,-0.000295704,-2.97154,-0.122482,-0.481703,19.9348,0.276945,
2,0,0,1,0,34662.6,0.275766,0.275448,-1.09609,18,0.0166775,10,-0.000301916,-2.96015,-0.122939,-0.479913,20.3612,0.275448,
2,0,0,1,0,34662.7,0.274265,0.273937,-1.11826,18,0.0166494,10,-0.000306332,-2.95146,-0.142424,-0.414256,18.1138,0.273937,
2,0,0,1,0,34662.7,0.272771,0.272432,-1.14356,18,0.0166208,10,-0.000311544,-2.94174,-0.163962,-0.359839,16.0892,0.272432,
2,0,0,1,0,34662.7,0.271272,0.270962,-1.17248,18,0.0165914,10,-0.000317697,-2.9309,-0.163183,-0.361557,16.4775,0.270962,
2,0,0,1,0,34662.7,0.269772,0.269388,-1.20018,18,0.0165614,10,-0.000323313,-2.92076,-0.149576,-0.394449,18.3717,0.269388,
2,0,0,1,0,34662.8,0.268273,0.267935,-1.2194,18,0.0165307,10,-0.00032672,-2.91385,-0.18938,-0.311542,14.8266,0.267935,
2,0,0,1,0,34662.8,0.26678,0.266435,-1.23328,18,0.0164997,10,-0.000328589,-2.90894,-0.222634,-0.265008,12.8272,0.266435,
2,0,0,1,0,34662.8,0.265279,0.264932,-1.26244,18,0.0164681,10,-0.00033446,-2.89879,-0.197853,-0.298202,14.6424,0.264932,
2,0,0,1,0,34662.8,0.263778,0.263489,-1.2824,18,0.0164359,10,-0.000337897,-2.89198,-0.199416,-0.295864,14.7692,0.2634885,
2,0,0,1,0,34662.9,0.262284,0.261976,-1.29784,18,0.0164033,10,-0.000340002,-2.88678,-0.216907,-0.272007,13.8112,0.261976,
2,0,0,1,0,34662.9,0.260784,0.260455,-1.31281,18,0.0163702,10,-0.000341929,-2.8818,-0.264832,-0.222783,11.4676,0.2604554,
2,0,0,1,0,34662.9,0.259285,0.259018,-1.34141,18,0.0163366,10,-0.00034745,-2.87244,-0.25404,-0.232247,12.1083,0.259018,
2,0,0,1,0,34662.9,0.257791,0.257492,-1.35816,18,0.0163026,10,-0.000349714,-2.86705,-0.225982,-0.261082,13.812,0.257492,
2,0,0,1,0,34663,0.25629,0.255991,-1.37482,18,0.016268,10,-0.000351943,-2.86175,-0.286776,-0.205736,11.007,0.255991,
2,0,0,1,0,34663,0.254789,0.254462,-1.38467,18,0.016233,10,-0.000352345,-2.85865,-0.365912,-0.161241,8.73722,0.254462,
2,0,0,1,0,34663,0.253296,0.252956,-1.40662,18,0.0161979,10,-0.000355812,-2.85182,-0.315109,-0.187237,10.2725,0.252956,
2,0,0,1,0,34663,0.251797,0.251452,-1.42319,18,0.0161621,10,-0.000357864,-2.84674,-0.24492,-0.240895,13.3494,0.251452,
2,0,0,1,0,34663.1,0.250297,0.249978,-1.4317,18,0.016126,10,-0.000357893,-2.84415,-0.310572,-0.189972,10.67,0.249978,
2,0,0,1,0,34663.1,0.248797,0.248427,-1.44729,18,0.0160894,10,-0.000359546,-2.83944,-0.371237,-0.158928,9.01549,0.248427,
2,0,0,1,0,34663.1,0.247303,0.246978,-1.46681,18,0.0160527,10,-0.000362269,-2.83363,-0.361182,-0.163353,9.35887,0.246978,
2,0,0,1,0,34663.1,0.245802,0.245491,-1.48372,18,0.0160154,10,-0.00036424,-2.82865,-0.271138,-0.217601,12.5632,0.245491,
2,0,0,1,0,34663.2,0.244302,0.243995,-1.49714,18,0.0159777,10,-0.000365295,-2.82474,-0.302496,-0.195044,11.4007,0.243995,
2,0,0,1,0,34663.2,0.242807,0.242483,-1.51331,18,0.0159397,10,-0.000366951,-2.82007,-0.511886,-0.11526,6.8153,0.2424826,
2,0,0,1,0,34663.2,0.241308,0.240965,-1.52477,18,0.0159014,10,-0.000367415,-2.8168,-0.442851,-0.133228,7.92627,0.240965,
2,0,0,1,0,34663.2,0.239808,0.2395,-1.54203,18,0.0158626,10,-0.000369316,-2.81191,-0.301168,-0.195904,11.7546,0.2395,
2,0,0,1,0,34663.3,0.238309,0.23795,-1.55223,18,0.0158235,10,-0.000369354,-2.80904,-0.328093,-0.179827,10.9202,0.23795,
2,0,0,1,0,34663.3,0.236815,0.236523,-1.56718,18,0.0157842,10,-0.000370674,-2.80488,-0.490087,-0.120387,7.35569,0.236523,
2,0,0,1,0,34663.3,0.235315,0.235003,-1.576,18,0.0157445,10,-0.000370365,-2.80244,-0.504524,-0.116942,7.20145,0.235003,
2,0,0,1,0,34663.3,0.233814,0.233485,-1.59366,18,0.0157044,10,-0.000372095,-2.7976,-0.362522,-0.162749,10.1176,0.233485,
2,0,0,1,0,34663.4,0.23232,0.231965,-1.60408,18,0.0156642,10,-0.00037209,-2.79477,-0.336034,-0.175577,11.0123,0.231965,
2,0,0,1,0,34663.4,0.230821,0.230537,-1.6184,18,0.0156233,10,-0.000373101,-2.79091,-0.715537,-0.0824555,5.21079,0.230537,
2,0,0,1,0,34663.4,0.229321,0.228991,-1.63441,18,0.0155822,10,-0.000374266,-2.78664,-0.574901,-0.102626,6.53927,0.228991,
2,0,0,1,0,34663.4,0.227827,0.227528,-1.64727,18,0.015541,10,-0.000374799,-2.78324,-0.415096,-0.142136,9.12481,0.227528,
2,0,0,1,0,34663.5,0.226326,0.226023,-1.65794,18,0.0154993,10,-0.000374733,-2.78043,-0.375787,-0.157004,10.1563,0.226023,
2,0,0,1,0,34663.5,0.224825,0.224486,-1.66919,18,0.0154573,10,-0.00037471,-2.77749,-0.600359,-0.0982745,6.403,0.224486,
2,0,0,1,0,34663.5,0.223331,0.223015,-1.68655,18,0.0154151,10,-0.000376125,-2.773,-0.531633,-0.110979,7.27593,0.2230151,
2,0,0,1,0,34663.5,0.221831,0.221491,-1.6924,18,0.0153724,10,-0.000374851,-2.7715,-0.343601,-0.171711,11.3503,0.221491,
2,0,0,1,0,34663.6,0.220333,0.220003,-1.7054,18,0.0153295,10,-0.000375192,-2.76817,-0.372178,-0.158526,10.5745,0.220003,
2,0,0,1,0,34663.6,0.218834,0.21853,-1.7243,18,0.0152861,10,-0.000376811,-2.76339,-0.490856,-0.120198,8.0843,0.2185296,
2,0,0,1,0,34663.6,0.217339,0.217,-1.73736,18,0.0152426,10,-0.000377006,-2.76011,-0.622055,-0.0948469,6.4242,0.217,
2,0,0,1,0,34663.6,0.215839,0.215503,-1.74423,18,0.0151987,10,-0.000375886,-2.7584,-0.464083,-0.127132,8.64817,0.215503,
2,0,0,1,0,34663.7,0.214338,0.214022,-1.75719,18,0.0151545,10,-0.000376077,-2.75518,-0.38365,-0.153786,10.5502,0.214022,
2,0,0,1,0,34663.7,0.212844,0.212535,-1.77084,18,0.0151102,10,-0.000376365,-2.75182,-0.479363,-0.12308,8.5107,0.212535,
2,0,0,1,0,34663.7,0.211344,0.211013,-1.78322,18,0.0150653,10,-0.000376283,-2.74879,-0.751178,-0.0785433,5.45866,0.2110128,
2,0,0,1,0,34663.7,0.209845,0.209508,-1.79384,18,0.0150201,10,-0.000375825,-2.74622,-0.458673,-0.128632,9.0139,0.209508,
2,0,0,1,0,34663.8,0.20835,0.208007,-1.80243,18,0.0149749,10,-0.000374919,-2.74414,-0.384989,-0.153251,10.8463,0.208007,
2,0,0,1,0,34663.8,0.206851,0.206527,-1.82598,18,0.0149291,10,-0.000377114,-2.7385,-0.5362,-0.110033,7.83148,0.206527,
2,0,0,1,0,34663.8,0.20535,0.205028,-1.83778,18,0.0148829,10,-0.000376796,-2.73571,-0.613893,-0.096108,6.8563,0.205028,
2,0,0,1,0,34663.8,0.203856,0.203547,-1.85305,18,0.0148366,10,-0.000377182,-2.73211,-0.550227,-0.107228,7.71678,0.203547,
2,0,0,1,0,34663.9,0.202356,0.202027,-1.85363,18,0.0147899,10,-0.000374484,-2.73198,-0.438234,-0.134631,9.77213,0.202027,
2,0,0,1,0,34663.9,0.200857,0.200565,-1.86899,18,0.0147429,10,-0.000374854,-2.72839,-0.486014,-0.121396,8.87267,0.200565,
2,0,0,1,0,34663.9,0.199357,0.198974,-1.88556,18,0.0146955,10,-0.000375177,-2.72456,-0.687784,-0.0857827,6.30233,0.198974,
2,0,0,1,0,34663.9,0.197863,0.197581,-1.9002,18,0.0146479,10,-0.000375442,-2.7212,-0.477631,-0.123526,9.12503,0.197581,
2,0,0,1,0,34664,0.196362,0.196055,-1.90445,18,0.0146,10,-0.000373376,-2.72023,-0.486756,-0.121211,9.0344,0.196055,
2,0,0,1,0,34664,0.194861,0.194534,-1.92264,18,0.0145517,10,-0.000374019,-2.7161,-0.476898,-0.123716,9.29793,0.194534,
2,0,0,1,0,34664,0.193367,0.193013,-1.94536,18,0.0145031,10,-0.000375479,-2.711,-0.471751,-0.125066,9.45795,0.193013,
2,0,0,1,0,34664,0.191868,0.191495,-1.95342,18,0.014454,10,-0.000374071,-2.7092,-0.473838,-0.124515,9.49681,0.191495,
2,0,0,1,0,34664.1,0.190368,0.190015,-1.96122,18,0.0144046,10,-0.000372661,-2.70747,-0.39893,-0.147896,11.3797,0.190015,
2,0,0,1,0,34664.1,0.18887,0.188509,-1.9749,18,0.0143548,10,-0.000372285,-2.70446,-0.494265,-0.119369,9.25679,0.1885086,
2,0,0,1,0,34664.1,0.187376,0.187048,-1.99849,18,0.0143049,10,-0.000373814,-2.6993,-0.502968,-0.117304,9.129,0.187048,
2,0,0,1,0,34664.1,0.185875,0.185521,-2.01318,18,0.0142543,10,-0.000373486,-2.69612,-0.539328,-0.109395,8.57275,0.1855206,
2,0,0,1,0,34664.2,0.184374,0.18409,-2.02123,18,0.0142034,10,-0.000372088,-2.69438,-0.445141,-0.132542,10.4854,0.18409,
2,0,0,1,0,34664.2,0.18288,0.182513,-2.04144,18,0.0141523,10,-0.000372588,-2.69006,-0.405086,-0.145648,11.6475,0.182513,
2,0,0,1,0,34664.2,0.18138,0.181065,-2.06453,18,0.0141006,10,-0.000373814,-2.68518,-0.42563,-0.138618,11.1393,0.181065,
2,0,0,1,0,34664.2,0.179881,0.179549,-2.08295,18,0.0140484,10,-0.000373991,-2.68132,-0.378829,-0.155743,12.6257,0.179549,
2,0,0,1,0,34664.3,0.178387,0.178072,-2.09496,18,0.013996,10,-0.000373053,-2.67882,-0.432948,-0.136275,11.1584,0.178072,
2,0,0,1,0,34664.3,0.176886,0.176568,-2.11387,18,0.013943,10,-0.000373241,-2.67492,-0.396942,-0.148636,12.288,0.1765679,
2,0,0,1,0,34664.3,0.175385,0.175062,-2.13657,18,0.0138895,10,-0.000374033,-2.67028,-0.376844,-0.156564,13.0088,0.175062,
2,0,0,1,0,34664.3,0.173892,0.173543,-2.15918,18,0.0138356,10,-0.000374712,-2.66571,-0.338043,-0.174534,14.6684,0.173543,
2,0,0,1,0,34664.4,0.172392,0.172031,-2.17817,18,0.013781,10,-0.000374712,-2.66191,-0.293973,-0.200699,17.0313,0.172031,
2,0,0,1,0,34664.4,0.170893,0.170552,-2.19271,18,0.013726,10,-0.000373971,-2.65902,-0.378695,-0.155798,13.3859,0.170552,
2,0,0,1,0,34664.4,0.169393,0.169078,-2.22046,18,0.0136703,10,-0.000375432,-2.65356,-0.294344,-0.200446,17.3925,0.169078,
2,0,0,1,0,34664.4,0.167899,0.16758,-2.25255,18,0.0136142,10,-0.000377483,-2.64733,-0.264012,-0.223475,19.623,0.16758,
2,0,0,1,0,34664.5,0.166398,0.166059,-2.27315,18,0.0135572,10,-0.000377478,-2.64337,-0.308908,-0.190995,16.9604,0.166059,
2,0,0,1,0,34664.5,0.164898,0.164578,-2.29857,18,0.0134996,10,-0.000378294,-2.63854,-0.310926,-0.189756,17.0786,0.164578,
2,0,0,1,0,34664.5,0.163403,0.16308,-2.33235,18,0.0134415,10,-0.000380359,-2.63221,-0.277237,-0.212814,19.3773,0.16308,
2,0,0,1,0,34664.5,0.161904,0.161551,-2.36615,18,0.0133824,10,-0.000382254,-2.62596,-0.239446,-0.246402,22.747,0.161551,
2,0,0,1,0,34664.6,0.160404,0.160102,-2.39593,18,0.0133224,10,-0.000383594,-2.62053,-0.232565,-0.253693,23.7661,0.160102,
2,0,0,1,0,34664.6,0.158905,0.158557,-2.43095,18,0.0132615,10,-0.000385445,-2.61422,-0.226939,-0.259981,24.7513,0.158557,
2,0,0,1,0,34664.6,0.157411,0.157089,-2.47645,18,0.0132,10,-0.000389023,-2.60617,-0.20129,-0.29311,28.4118,0.157089,
2,0,0,1,0,34664.6,0.155911,0.155511,-2.52319,18,0.0131371,10,-0.000392384,-2.59805,-0.175388,-0.336397,33.1354,0.155511,
2,0,0,1,0,34664.7,0.15441,0.154082,-2.56961,18,0.0130729,10,-0.00039593,-2.59013,-0.169695,-0.347683,34.8865,0.154082,
2,0,0,1,0,34664.7,0.152916,0.15257,-2.62426,18,0.0130077,10,-0.000400385,-2.58099,-0.166834,-0.353645,36.3236,0.15257,
2,0,0,1,0,34664.7,0.151417,0.151094,-2.68161,18,0.012941,10,-0.000405177,-2.5716,-0.154468,-0.381956,40.1014,0.151094,
2,0,0,1,0,34664.7,0.149917,0.149604,-2.75245,18,0.0128726,10,-0.000411777,-2.56028,-0.135527,-0.435337,46.7752,0.149604,
2,0,0,1,0,34664.8,0.148423,0.148111,-2.82249,18,0.0128028,10,-0.000418042,-2.54937,-0.124818,-0.472688,52.1417,0.148111,
2,0,0,1,0,34664.8,0.146922,0.146595,-2.89576,18,0.0127309,10,-0.000424503,-2.53824,-0.127158,-0.463991,52.6549,0.146595,
2,0,0,1,0,34664.8,0.145421,0.145101,-2.9862,18,0.0126569,10,-0.000433302,-2.52488,-0.114749,-0.514168,60.0173,0.145101,
2,0,0,1,0,34664.8,0.143927,0.14362,-3.08374,18,0.012581,10,-0.000442888,-2.51092,-0.101707,-0.580097,69.8218,0.14362,
2,0,0,1,0,34664.9,0.142429,0.142102,-3.18839,18,0.0125021,10,-0.000453077,-2.49643,-0.0967959,-0.60953,76.0035,0.1421019,
2,0,0,1,0,34664.9,0.140929,0.140536,-3.29949,18,0.0124205,10,-0.000463699,-2.48155,-0.0955429,-0.617523,79.799,0.140536,
2,0,0,1,0,34664.9,0.13943,0.139079,-3.42478,18,0.0123359,10,-0.000476316,-2.46537,-0.0963735,-0.612201,81.9319,0.139079,
2,0,0,1,0,34664.9,0.137935,0.13765,-3.56043,18,0.0122486,10,-0.000490094,-2.4485,-0.0920688,-0.640825,89.0562,0.13765,
2,0,0,1,0,34665,0.136435,0.136104,-3.69215,18,0.0121576,10,-0.000502518,-2.43272,-0.087655,-0.673094,97.1686,0.136104,
2,0,0,1,0,34665,0.134934,0.134558,-3.84178,18,0.0120629,10,-0.000516944,-2.41547,-0.093519,-0.630888,94.5247,0.134558,
2,0,0,1,0,34665,0.13344,0.133133,-3.99079,18,0.011965,10,-0.000531306,-2.39894,-0.0968448,-0.609222,94.7011,0.133133,
2,0,0,1,0,34665,0.13194,0.131631,-4.134,18,0.011863,10,-0.000544165,-2.38363,-0.0950335,-0.620834,100.16,0.131631,
2,0,0,1,0,34665.1,0.13044,0.130144,-4.27879,18,0.0117574,10,-0.00055686,-2.36868,-0.09684,-0.609253,101.917,0.130144,
2,0,0,1,0,34665.1,0.128941,0.128593,-4.43606,18,0.0116479,10,-0.000570448,-2.353,-0.104128,-0.566609,97.9587,0.1285935,
2,0,0,1,0,34665.1,0.127447,0.127138,-4.58698,18,0.0115351,10,-0.000583177,-2.33847,-0.109282,-0.539889,96.4206,0.127138,
2,0,0,1,0,34665.1,0.125946,0.125634,-4.73283,18,0.0114183,10,-0.000594604,-2.32488,-0.11563,-0.51025,93.9083,0.1256339,
2,0,0,1,0,34665.2,0.124446,0.124097,-4.86706,18,0.0112979,10,-0.000603988,-2.31273,-0.118848,-0.496432,94.1215,0.124097,
2,0,0,1,0,34665.2,0.122952,0.122649,-4.9954,18,0.0111746,10,-0.000612679,-2.30143,-0.128607,-0.458762,89.4241,0.122649,
2,0,0,1,0,34665.2,0.121453,0.121166,-5.13244,18,0.0110475,10,-0.000621876,-2.28968,-0.145492,-0.40552,81.009,0.121166,
2,0,0,1,0,34665.2,0.119953,0.119633,-5.24302,18,0.0109174,10,-0.000627236,-2.28042,-0.156811,-0.376249,76.9289,0.119633,
2,0,0,1,0,34665.3,0.118459,0.118133,-5.36033,18,0.0107848,10,-0.000633231,-2.27081,-0.161756,-0.364748,76.2454,0.118133,
2,0,0,1,0,34665.3,0.116958,0.116641,-5.46746,18,0.010649,10,-0.000637732,-2.26221,-0.180547,-0.326784,69.6724,0.116641,
2,0,0,1,0,34665.3,0.115457,0.115132,-5.574,18,0.0105105,10,-0.000641744,-2.25383,-0.21499,-0.274432,59.5187,0.115132,
2,0,0,1,0,34665.3,0.113963,0.113665,-5.65993,18,0.0103702,10,-0.000643338,-2.24719,-0.222658,-0.264981,58.4192,0.113665,
2,0,0,1,0,34665.4,0.112464,0.112107,-5.74142,18,0.0102273,10,-0.000643651,-2.24098,-0.234512,-0.251587,56.3421,0.1121067,
2,0,0,1,0,34665.4,0.110965,0.110677,-5.81548,18,0.0100823,10,-0.000643641,-2.23541,-0.282441,-0.208893,47.4007,0.110677,
2,0,0,1,0,34665.4,0.109466,0.109119,-5.88837,18,0.00993546,10,-0.000642533,-2.23001,-0.345766,-0.170636,39.1319,0.109119,
2,0,0,1,0,34665.4,0.107972,0.107645,-5.94917,18,0.00978766,10,-0.000640396,-2.22554,-0.381873,-0.154502,35.797,0.107645,
2,0,0,1,0,34665.5,0.106471,0.106134,-5.99104,18,0.00963804,10,-0.000635851,-2.2225,-0.435519,-0.13547,31.6708,0.106134,
2,0,0,1,0,34665.5,0.10497,0.104681,-6.02689,18,0.0094873,10,-0.0006309,-2.21991,-0.55339,-0.106616,25.0667,0.104681,
2,0,0,1,0,34665.5,0.103476,0.103153,-6.06776,18,0.00933619,10,-0.000625907,-2.21697,-0.860691,-0.0685495,16.1934,0.103153,
2,0,0,1,0,34665.5,0.101976,0.101657,-6.0884,18,0.00918385,10,-0.000618929,-2.2155,-1.57677,-0.0374182,8.86764,0.101657,
2,0,0,1,0,34665.6,0.100477,0.100183,-6.09012,18,0.00903122,10,-0.000610128,-2.21537,-2.63313,-0.0224068,5.32288,0.100183,
2,0,0,1,0,34665.6,0.0989825,0.0986914,-6.08843,18,0.0088791,10,-0.000600876,-2.21549,9.57652,0.0061609,-1.46329,0.0986914,
2,0,0,1,0,34665.6,0.0974817,0.0971584,-6.08961,18,0.00872642,10,-0.000591657,-2.21541,1.50678,0.0391564,-9.28392,0.0971584,
2,0,0,1,0,34665.6,0.0959822,0.0956146,-6.075,18,0.00857399,10,-0.000580859,-2.21645,1.0451,0.056454,-13.3447,0.09561456,
2,0,0,1,0,34665.7,0.094488,0.0941509,-6.03787,18,0.00842275,10,-0.000568471,-2.21912,0.874548,0.0674635,-15.9021,0.0941509,
2,0,0,1,0,34665.7,0.0929884,0.0927008,-6.00731,18,0.00827167,10,-0.000556882,-2.22132,0.677978,0.0870235,-20.4267,0.0927008,
2,0,0,1,0,34665.7,0.0914889,0.0911584,-5.98614,18,0.00812131,10,-0.000545687,-2.22285,0.529594,0.111406,-25.9831,0.0911584,
2,0,0,1,0,34665.7,0.0899894,0.0896639,-5.9447,18,0.00797178,10,-0.000533025,-2.22587,0.489279,0.120586,-27.9176,0.0896639,
2,0,0,1,0,34665.8,0.0884951,0.0881823,-5.89433,18,0.00782395,10,-0.000519776,-2.22957,0.486141,0.121364,-27.9305,0.0881823,
2,0,0,1,0,34665.8,0.0869943,0.0866674,-5.84739,18,0.00767674,10,-0.000506778,-2.23304,0.441624,0.133598,-30.5326,0.0866674,
2,0,0,1,0,34665.8,0.0854935,0.0851801,-5.80557,18,0.00753058,10,-0.000494519,-2.23616,0.433826,0.135999,-30.8208,0.0851801,
2,0,0,1,0,34665.8,0.0839993,0.0836743,-5.76946,18,0.00738608,10,-0.000482756,-2.23886,0.433336,0.136153,-30.5922,0.0836743,
2,0,0,1,0,34665.9,0.0824998,0.0821695,-5.72499,18,0.00724206,10,-0.00047042,-2.24223,0.483108,0.122126,-27.2704,0.0821695,
2,0,0,1,0,34665.9,0.0810002,0.0807073,-5.67713,18,0.0070992,10,-0.000458186,-2.24587,0.488106,0.120875,-26.8257,0.0807073,
2,0,0,1,0,34665.9,0.0795007,0.0792077,-5.64315,18,0.0069573,10,-0.000446981,-2.24848,0.507822,0.116183,-25.5854,0.0792077,
2,0,0,1,0,34665.9,0.0780078,0.077677,-5.60958,18,0.00681685,10,-0.000435735,-2.25107,0.552509,0.106786,-23.3641,0.077677,
2,0,0,1,0,34666,0.076507,0.076202,-5.57022,18,0.00667666,10,-0.000424462,-2.25413,0.635567,0.0928305,-20.1881,0.076202,
2,0,0,1,0,34666,0.0750062,0.074671,-5.53693,18,0.00653738,10,-0.000413448,-2.25673,0.612182,0.0963766,-20.8453,0.074671,
2,0,0,1,0,34666,0.073512,0.0731511,-5.51108,18,0.0063994,10,-0.000403141,-2.25876,0.655725,0.0899767,-19.3492,0.0731511,
2,0,0,1,0,34666,0.0720124,0.0716684,-5.48591,18,0.00626153,10,-0.000393167,-2.26075,0.722691,0.0816393,-17.4624,0.0716684,
2,0,0,1,0,34666.1,0.0705129,0.0701734,-5.45524,18,0.00612432,10,-0.000382813,-2.26319,0.748612,0.0788126,-16.7904,0.0701734,
2,0,0,1,0,34666.1,0.0690187,0.0686997,-5.42586,18,0.00598836,10,-0.000372755,-2.26553,0.710682,0.0830189,-17.6143,0.0686997,
2,0,0,1,0,34666.1,0.0675179,0.0672031,-5.40334,18,0.00585255,10,-0.000363121,-2.26734,0.72082,0.0818512,-17.2794,0.06720309,
2,0,0,1,0,34666.1,0.066017,0.065704,-5.39206,18,0.00571725,10,-0.00035428,-2.26825,0.93236,0.0632803,-13.2827,0.065704,
2,0,0,1,0,34666.2,0.0645242,0.0641805,-5.36088,18,0.005583,10,-0.000344064,-2.27076,0.83253,0.0708683,-14.8109,0.0641805,
2,0,0,1,0,34666.2,0.0630246,0.0626837,-5.32764,18,0.00544889,10,-0.000333957,-2.27346,0.719727,0.0819755,-17.0759,0.0626837,
2,0,0,1,0,34666.2,0.0615251,0.0611516,-5.30541,18,0.00531547,10,-0.000324434,-2.27528,0.646922,0.0912011,-18.8964,0.0611516,
2,0,0,1,0,34666.2,0.0600256,0.0596757,-5.2885,18,0.00518262,10,-0.000315595,-2.27667,0.818064,0.0721215,-14.8707,0.0596757,
2,0,0,1,0,34666.3,0.0585314,0.0581977,-5.2637,18,0.00505088,10,-0.000306335,-2.27871,0.773996,0.0762278,-15.6462,0.0581977,
2,0,0,1,0,34666.3,0.0570305,0.0567081,-5.23608,18,0.00491921,10,-0.000296928,-2.28099,0.626794,0.0941298,-19.2278,0.0567081,
2,0,0,1,0,34666.3,0.0555297,0.0552158,-5.20913,18,0.00478827,10,-0.000287626,-2.28323,0.603953,0.0976898,-19.8666,0.0552158,
2,0,0,1,0,34666.3,0.0540355,0.0537178,-5.18767,18,0.00465852,10,-0.00027867,-2.28503,0.745827,0.0791068,-15.9908,0.0537178,
2,0,0,1,0,34666.4,0.052536,0.0521909,-5.16214,18,0.00452881,10,-0.000269417,-2.28717,0.748599,0.0788139,-15.8555,0.0521909,
2,0,0,1,0,34666.4,0.0510364,0.0507441,-5.12711,18,0.00439975,10,-0.000260171,-2.29013,0.618638,0.0953708,-19.0994,0.0507441,
2,0,0,1,0,34666.4,0.0495369,0.0492039,-5.09601,18,0.0042715,10,-0.000250744,-2.29277,0.545853,0.108088,-21.5225,0.04920394,
2,0,0,1,0,34666.4,0.0480427,0.0477072,-5.07441,18,0.00414442,10,-0.000242085,-2.29461,0.661924,0.0891341,-17.6301,0.0477072,
2,0,0,1,0,34666.5,0.0465432,0.046208,-5.04255,18,0.00401753,10,-0.000233007,-2.29735,0.710215,0.0830734,-16.3553,0.046208,
2,0,0,1,0,34666.5,0.0450424,0.0446976,-5.01074,18,0.00389135,10,-0.000223968,-2.3001,0.533534,0.110583,-21.631,0.0446976,
2,0,0,1,0,34666.5,0.0435482,0.0431914,-4.97995,18,0.00376646,10,-0.000215091,-2.30278,0.503341,0.117217,-22.7836,0.0431914,
2,0,0,1,0,34666.5,0.0420486,0.0417331,-4.9546,18,0.00364189,10,-0.000206771,-2.30499,0.600075,0.098321,-19.0107,0.04173306,
2,0,0,1,0,34666.6,0.0405491,0.0401865,-4.92117,18,0.00351802,10,-0.000197764,-2.30793,0.620749,0.0950465,-18.251,0.0401865,
2,0,0,1,0,34666.6,0.0390549,0.0387077,-4.8893,18,0.00339536,10,-0.000189254,-2.31075,0.483657,0.121987,-23.2925,0.0387077,
2,0,0,1,0,34666.6,0.0375541,0.0372167,-4.85964,18,0.00327305,10,-0.00018086,-2.3134,0.445787,0.13235,-25.1056,0.0372167,
2,0,0,1,0,34666.6,0.0360532,0.0357394,-4.82619,18,0.00315165,10,-0.000172485,-2.3164,0.524619,0.112462,-21.1687,0.0357394,
2,0,0,1,0,34666.7,0.034559,0.0342351,-4.79291,18,0.00303153,10,-0.000164086,-2.3194,0.54116,0.109025,-20.371,0.0342351,
2,0,0,1,0,34666.7,0.0330595,0.0327153,-4.75077,18,0.00291176,10,-0.000155423,-2.32324,0.431405,0.136762,-25.3624,0.0327153,
2,0,0,1,0,34666.7,0.0315613,0.0311922,-4.71635,18,0.0027929,10,-0.000147114,-2.32639,0.402203,0.146692,-27.0011,0.0311922,
2,0,0,1,0,34666.7,0.0300618,0.0297424,-4.6811,18,0.00267503,10,-0.000139227,-2.32965,0.431607,0.136698,-24.9545,0.0297424,
2,0,0,1,0,34666.8,0.0285676,0.0282268,-4.64421,18,0.00255855,10,-0.000131091,-2.33309,0.472694,0.124816,-22.6179,0.0282268,
2,0,0,1,0,34666.8,0.0270667,0.0266996,-4.60756,18,0.00244249,10,-0.00012302,-2.33653,0.430611,0.137015,-24.6273,0.0266996,
2,0,0,1,0,34666.8,0.0255659,0.0252107,-4.56839,18,0.00232735,10,-0.000115173,-2.34024,0.387306,0.152334,-27.1491,0.0252107,
2,0,0,1,0,34666.8,0.0240717,0.0237373,-4.52936,18,0.0022137,10,-0.000107515,-2.34396,0.429034,0.137518,-24.3141,0.0237373,
2,0,0,1,0,34666.9,0.0225722,0.0222524,-4.49413,18,0.00210055,10,-0.000100005,-2.34735,0.465168,0.126836,-22.2467,0.02225239,
2,0,0,1,0,34666.9,0.0210726,0.020704,-4.45068,18,0.00198826,10,-9.21468e-05,-2.35157,0.459399,0.128429,-22.343,0.020704,
2,0,0,1,0,34666.9,0.0195784,0.0192198,-4.42064,18,0.0018773,10,-8.49641e-05,-2.35451,0.380883,0.154903,-26.7242,0.0192198,
2,0,0,1,0,34666.9,0.0180789,0.0177521,-4.38787,18,0.00176678,10,-7.7894e-05,-2.35775,0.434903,0.135662,-23.2213,0.0177521,
2,0,0,1,0,34667,0.0165781,0.0162847,-4.35413,18,0.0016572,10,-7.09055e-05,-2.3611,0.537011,0.109867,-18.6892,0.0162847,
2,0,0,1,0,34667,0.0150839,0.014782,-4.31966,18,0.00154879,10,-6.38533e-05,-2.36455,0.503244,0.117239,-19.7766,0.01478203,
2,0,0,1,0,34667,0.0135844,0.0132437,-4.29333,18,0.00144065,10,-5.68595e-05,-2.36721,0.423245,0.139399,-23.3293,0.0132437,
2,0,0,1,0,34667,0.0120848,0.0117593,-4.26393,18,0.00133329,10,-5.01407e-05,-2.37019,0.488686,0.120732,-20.0867,0.0117593,
2,0,0,1,0,34667.1,0.0105853,0.010238,-4.22917,18,0.00122677,10,-4.3298e-05,-2.37375,0.518312,0.113831,-18.8133,0.010238,
2,0,0,1,0,34667.1,0.00909108,0.00877204,-4.19838,18,0.00112131,10,-3.68284e-05,-2.37692,0.575461,0.102527,-16.8381,0.00877204,
2,0,0,1,0,34667.1,0.00759027,0.0072659,-4.18466,18,0.00101605,10,-3.04053e-05,-2.37834,0.56438,0.10454,-17.0669,0.0072659,
2,0,0,1,0,34667.1,0.00608945,0.00576353,-4.16889,18,0.000911342,10,-2.40275e-05,-2.37998,0.591283,0.099783,-16.1895,0.00576353,
2,0,0,1,0,34667.2,0.00459524,0.00429922,-4.13501,18,0.000807643,10,-1.77773e-05,-2.38352,0.704701,0.0837235,-13.5266,0.00429922,
2,0,0,1,0,34667.2,0.0030957,0.00277998,-4.11226,18,0.000704064,10,-1.1432e-05,-2.38592,1.8862,0.0312798,-5.04657,0.00277998,
2,0,0,1,0,34667.2,0.00159616,0.00121533,-4.13337,18,0.000600414,10,-5.02341e-06,-2.3837, , , ,0.00121533,
2,0,0,1,0,34667.2,0.000199195,-0.000208891,-4.10948,18,0.000504052,10,8.58433e-07,-2.38621, , , ,-0.000208891,