File: Figure_codes/Fig_3-5/rawdata_trumpetplot_data/after 10th/20221101_1-115_003_TrumpetPlot_ParaChange_from10_every3_02_CV_C01_13.csv
mode,ox/red,error,control changes,counter inc.,time/s,control/V,Ewe/V,<I>/mA,cycle number,(Q-Qo)/C,I Range,P/W,log(|I|),Tafel slope mV/dec,alpha_eff,dI/d(E-IR),E-IR/V,
2,0,0,1,0,25951.7,2.44065e-05,-0.000268062,-0.378612,14,0.0000000E+000,10,1.01491e-07,-3.42181, , , ,-0.000268062,
2,0,0,1,0,25953,0.00129791,0.000920742,-0.173885,14,-0.000252067,10,-1.60104e-07,-3.75974, , , ,0.000920742,
2,0,0,1,0,25954.5,0.00279612,0.00248693,-0.140361,14,-0.000463855,10,-3.49069e-07,-3.85275,-0.0176748,-3.33809,19.6412,0.00248693,
2,0,0,1,0,25956,0.00429431,0.00396616,-0.120006,14,-0.000638106,10,-4.75961e-07,-3.9208,-0.0247069,-2.388,11.3742,0.00396616,
2,0,0,1,0,25957.5,0.00579242,0.00549519,-0.105862,14,-0.00078753,10,-5.81733e-07,-3.97526,-0.0276882,-2.13087,8.897,0.00549519,
2,0,0,1,0,25959,0.00729061,0.00699569,-0.0939187,14,-0.000917331,10,-6.57026e-07,-4.02725,-0.0313397,-1.8826,7.01223,0.00699569,
2,0,0,1,0,25960.5,0.00878882,0.0084517,-0.0846169,14,-0.00103165,10,-7.15157e-07,-4.07254,-0.0342232,-1.72398,5.72693,0.0084517,
2,0,0,1,0,25962,0.010287,0.00993839,-0.0768988,14,-0.00113345,10,-7.6425e-07,-4.11408,-0.0365755,-1.6131,4.86745,0.00993839,
2,0,0,1,0,25963.5,0.0117852,0.0114675,-0.0701373,14,-0.0012246,10,-8.043e-07,-4.15405,-0.0380423,-1.5509,4.26078,0.0114675,
2,0,0,1,0,25965,0.0132834,0.0129351,-0.0640051,14,-0.00130643,10,-8.27911e-07,-4.19379,-0.0376991,-1.56502,3.90645,0.01293508,
2,0,0,1,0,25966.5,0.0147815,0.0144503,-0.0589414,14,-0.00137962,10,-8.5172e-07,-4.22958,-0.0407846,-1.44663,3.32096,0.0144503,
2,0,0,1,0,25968,0.0162797,0.0159508,-0.0538235,14,-0.00144518,10,-8.58526e-07,-4.26903,-0.0437941,-1.34721,2.85967,0.0159508,
2,0,0,1,0,25969.5,0.0177779,0.0174269,-0.0493122,14,-0.00150434,10,-8.59358e-07,-4.30705,-0.0420579,-1.40283,2.71396,0.0174269,
2,0,0,1,0,25971,0.0192761,0.0189412,-0.0460783,14,-0.00155767,10,-8.72775e-07,-4.3365,-0.0424167,-1.39096,2.4811,0.0189412,
2,0,0,1,0,25972.5,0.0207743,0.0204597,-0.0411105,14,-0.00160449,10,-8.41107e-07,-4.38605,-0.0378496,-1.5588,2.55583,0.0204597,
2,0,0,1,0,25974,0.0222725,0.0220047,-0.0381573,14,-0.00164577,10,-8.3964e-07,-4.41842,-0.0369729,-1.59577,2.38585,0.0220047,
2,0,0,1,0,25975.5,0.0237707,0.0234447,-0.0348601,14,-0.00168173,10,-8.17285e-07,-4.45767,-0.0373351,-1.58028,2.14521,0.0234447,
2,0,0,1,0,25977,0.0252689,0.0249197,-0.0320149,14,-0.00171323,10,-7.97802e-07,-4.49465,-0.0376186,-1.56837,1.91875,0.0249197,
2,0,0,1,0,25978.5,0.0267671,0.0264372,-0.0287664,14,-0.00173962,10,-7.60503e-07,-4.54112,-0.0302999,-1.9472,2.16171,0.0264372,
2,0,0,1,0,25980,0.0282653,0.0279122,-0.0259866,14,-0.00176137,10,-7.25345e-07,-4.58525,-0.0316677,-1.86309,1.83305,0.0279122,
2,0,0,1,0,25981.5,0.0297635,0.0294191,-0.0228533,14,-0.00177916,10,-6.72323e-07,-4.64105,-0.029321,-2.01221,1.77291,0.0294191,
2,0,0,1,0,25983,0.0312617,0.0309344,-0.0205692,14,-0.00179278,10,-6.36296e-07,-4.68678,-0.0234891,-2.5118,1.95797,0.0309344,
2,0,0,1,0,25984.5,0.0327599,0.0324561,-0.0177217,14,-0.00180238,10,-5.75179e-07,-4.75149,-0.0223864,-2.63552,1.80905,0.0324561,
2,0,0,1,0,25986,0.0342581,0.03391,-0.0147438,14,-0.00180746,10,-4.99964e-07,-4.83139,-0.0206446,-2.85789,1.71278,0.03391,
2,0,0,1,0,25987.5,0.0357563,0.0354158,-0.0125402,14,-0.00180881,10,-4.4412e-07,-4.9017,-0.0189546,-3.1127,1.47695,0.0354158,
2,0,0,1,0,25989,0.0372544,0.0369395,-0.00989875,14,-0.00180661,10,-3.65655e-07,-5.00442,-0.0134107,-4.39947,1.68049,0.0369395,
2,0,0,1,0,25990.5,0.0387526,0.0384081,-0.00756246,14,-0.00180065,10,-2.9046e-07,-5.12134,-0.0103008,-5.72772,1.5125,0.0384081,
2,0,0,1,0,25992,0.0402508,0.0399532,-0.00502182,14,-0.00179095,10,-2.00638e-07,-5.29914,-0.00537571,-10.9753,1.66187,0.0399532,
2,0,0,1,0,25993.4,0.041749,0.0414144,-0.00268207,14,-0.00177727,10,-1.11076e-07,-5.57153,-0.00270069,-21.8462,1.42776,0.0414144,
2,1,0,1,0,25994.9,0.0432472,0.0429414,-0.000723031,14,-0.00176032,10,-3.1048e-08,-6.14084,-0.0153796,-3.83625,1.45657,0.0429414,
2,0,0,1,0,25996.4,0.0447454,0.0444302,0.00170072,14,-0.00174029,10,7.55635e-08,-5.76937,0.00922606,6.39493,1.27879,0.0444302,
2,1,0,1,0,25997.9,0.0462435,0.0459084,0.00368565,14,-0.00171679,10,1.69202e-07,-5.43349,0.00386033,15.2837,1.4543,0.0459084,
2,0,0,1,0,25999.4,0.0477417,0.0473897,0.00557506,14,-0.00169045,10,2.642e-07,-5.25375,0.00927775,6.3593,1.33437,0.0473897,
2,0,0,1,0,26000.9,0.0492399,0.048921,0.0079755,14,-0.00166032,10,3.90169e-07,-5.09824,0.0125039,4.71853,1.35655,0.048921,
2,1,0,1,0,26002.4,0.0507381,0.0504087,0.00932723,14,-0.00162773,10,4.70174e-07,-5.03025,0.0182819,3.22724,1.24624,0.0504087,
2,1,0,1,0,26003.9,0.0522363,0.0518859,0.0117726,14,-0.00159164,10,6.10829e-07,-4.92913,0.0180049,3.27688,1.44391,0.0518859,
2,1,0,1,0,26005.4,0.0537345,0.0534129,0.0135248,14,-0.00155262,10,7.22398e-07,-4.86887,0.0249056,2.36895,1.25807,0.0534129,
2,1,0,1,0,26006.9,0.0552327,0.0549229,0.0156297,14,-0.00151109,10,8.58428e-07,-4.80605,0.0273203,2.15957,1.27429,0.0549229,
2,1,0,1,0,26008.4,0.0567309,0.0563725,0.0167467,14,-0.00146653,10,9.44054e-07,-4.77607,0.0313606,1.88134,1.24289,0.0563725,
2,1,0,1,0,26009.9,0.0582291,0.0578857,0.01946,14,-0.00141941,10,1.12646e-06,-4.71086,0.0396885,1.48658,1.10629,0.0578857,
2,1,0,1,0,26011.4,0.0597273,0.0593915,0.0205106,14,-0.0013695,10,1.21816e-06,-4.68802,0.0420976,1.4015,1.11414,0.0593915,
2,1,0,1,0,26012.9,0.0612255,0.060928,0.0221817,14,-0.00131721,10,1.35148e-06,-4.65401,0.0543703,1.08515,0.94458,0.060928,
2,1,0,1,0,26014.4,0.0627237,0.0624158,0.0244982,14,-0.00126228,10,1.52907e-06,-4.61087,0.0473219,1.24678,1.18302,0.0624158,
2,1,0,1,0,26015.9,0.0642219,0.0638972,0.0264854,14,-0.00120486,10,1.69234e-06,-4.57699,0.0455366,1.29566,1.3189,0.0638972,
2,1,0,1,0,26017.4,0.0657201,0.0653818,0.0274417,14,-0.00114457,10,1.79419e-06,-4.56159,0.0526491,1.12063,1.20348,0.0653818,
2,1,0,1,0,26018.9,0.0672183,0.0669002,0.0299003,14,-0.00108162,10,2.00034e-06,-4.52432,0.0617679,0.955188,1.06685,0.0669002,
2,1,0,1,0,26020.4,0.0687164,0.0683837,0.0309861,14,-0.00101622,10,2.11895e-06,-4.50883,0.0756089,0.780331,0.930074,0.0683837,
2,1,0,1,0,26021.9,0.0702146,0.0699234,0.0319135,14,-0.000949243,10,2.2315e-06,-4.49603,0.0764079,0.772172,0.956019,0.0699234,
2,1,0,1,0,26023.4,0.0717128,0.071373,0.0341576,14,-0.000879845,10,2.43793e-06,-4.46651,0.076996,0.766274,0.997391,0.071373,
2,1,0,1,0,26024.9,0.073211,0.0728777,0.0348162,14,-0.000808266,10,2.53732e-06,-4.45822,0.0838861,0.703335,0.961163,0.0728777,
2,1,0,1,0,26026.4,0.0747092,0.0743602,0.0368387,14,-0.000734672,10,2.73934e-06,-4.4337,0.0874341,0.674794,0.961433,0.0743602,
2,1,0,1,0,26027.9,0.0762074,0.0758946,0.0372838,14,-0.000659265,10,2.82964e-06,-4.42848,0.0703763,0.838351,1.24888,0.0758946,
2,1,0,1,0,26029.4,0.0777055,0.0773324,0.0394264,14,-0.000581099,10,3.04894e-06,-4.40421,0.0700356,0.842428,1.28427,0.0773324,
2,1,0,1,0,26030.9,0.0792037,0.0789061,0.0415022,14,-0.000500221,10,3.27478e-06,-4.38193,0.0978942,0.602691,0.95541,0.0789061,
2,1,0,1,0,26032.4,0.0807019,0.0803546,0.0429913,14,-0.000416876,10,3.45455e-06,-4.36662,0.0804218,0.733632,1.21495,0.0803546,
2,1,0,1,0,26033.9,0.0822001,0.0819144,0.0434952,14,-0.000331719,10,3.56288e-06,-4.36156,0.101021,0.584035,1.00409,0.0819144,
2,1,0,1,0,26035.4,0.0836983,0.0833799,0.0465244,14,-0.000243568,10,3.8792e-06,-4.33232,0.0883259,0.667981,1.1906,0.0833799,
2,1,0,1,0,26036.9,0.0851965,0.0848698,0.0470267,14,-0.000153155,10,3.99115e-06,-4.32766,0.121361,0.486151,0.905731,0.0848698,
2,1,0,1,0,26038.4,0.0866947,0.0863735,0.0484405,14,-6.06468e-05,10,4.18397e-06,-4.31479,0.182106,0.323987,0.617679,0.0863735,
2,1,0,1,0,26039.9,0.0881929,0.0878634,0.0504591,14,3.43215e-05,10,4.43351e-06,-4.29706,0.0931086,0.633669,1.25896,0.0878634,
2,1,0,1,0,26041.4,0.0896911,0.089349,0.0528302,14,0.000131639,10,4.72032e-06,-4.27712,0.0791481,0.745438,1.55187,0.089349,
2,1,0,1,0,26042.9,0.0911893,0.0908633,0.0552168,14,0.000232674,10,5.01718e-06,-4.25793,0.0885764,0.666092,1.42416,0.0908633,
2,1,0,1,0,26044.4,0.0926875,0.0923224,0.0574148,14,0.000337437,10,5.30067e-06,-4.24098,0.0861263,0.685041,1.52048,0.0923224,
2,1,0,1,0,26045.9,0.0941857,0.093911,0.0594847,14,0.000445613,10,5.58626e-06,-4.22559,0.0776771,0.759555,1.74503,0.09391097,
2,1,0,1,0,26047.4,0.0956839,0.0953605,0.0614823,14,0.000556291,10,5.86299e-06,-4.21125,0.099368,0.593752,1.43501,0.0953605,
2,1,0,1,0,26048.9,0.0971821,0.0968197,0.0635054,14,0.0006707,10,6.14857e-06,-4.19719,0.0756169,0.780249,1.93582,0.0968197,
2,1,0,1,0,26050.4,0.0986803,0.0983901,0.0659386,14,0.000788884,10,6.48771e-06,-4.18086,0.104967,0.56208,1.44495,0.0983901,
2,1,0,1,0,26051.9,0.100178,0.0998545,0.0679591,14,0.000910084,10,6.78602e-06,-4.16775,0.123278,0.478594,1.27778,0.0998545,
2,1,0,1,0,26053.4,0.101677,0.101368,0.0699467,14,0.00103388,10,7.09033e-06,-4.15523,0.100154,0.589092,1.60781,0.101368,
2,1,0,1,0,26054.9,0.103175,0.102853,0.072691,14,0.00116157,10,7.47651e-06,-4.13852,0.0994289,0.593389,1.66857,0.102853,
2,1,0,1,0,26056.4,0.104673,0.104328,0.0758331,14,0.00129308,10,7.91154e-06,-4.12014,0.128229,0.460114,1.33432,0.104328,
2,1,0,1,0,26057.9,0.106171,0.105874,0.0769662,14,0.00142782,10,8.14875e-06,-4.1137,0.128904,0.457706,1.36483,0.1058744,
2,1,0,1,0,26059.4,0.107669,0.107349,0.0781329,14,0.00156508,10,8.38752e-06,-4.10717,0.128554,0.458951,1.41466,0.1073494,
2,1,0,1,0,26060.9,0.109167,0.108846,0.0808031,14,0.0017056,10,8.79506e-06,-4.09257,0.142253,0.414755,1.31272,0.108846,
2,1,0,1,0,26062.4,0.110666,0.110358,0.082697,14,0.00184956,10,9.12626e-06,-4.08251,0.156089,0.37799,1.22794,0.110358,
2,1,0,1,0,26063.9,0.112164,0.111809,0.0843904,14,0.00199607,10,9.43564e-06,-4.07371,0.234668,0.251419,0.829746,0.111809,
2,1,0,1,0,26065.4,0.113662,0.113358,0.0865336,14,0.00214552,10,9.80924e-06,-4.06282,0.214844,0.274618,0.922785,0.113358,
2,1,0,1,0,26066.9,0.11516,0.114821,0.0881273,14,0.0022962,10,1.01189e-05,-4.05489,0.17113,0.344767,1.18346,0.114821,
2,1,0,1,0,26068.4,0.116658,0.116328,0.0895302,14,0.00245016,10,1.04149e-05,-4.04803,0.15394,0.383265,1.33058,0.116328,
2,1,0,1,0,26069.9,0.118157,0.117885,0.0911321,14,0.00260733,10,1.07431e-05,-4.04033,0.194522,0.303307,1.08173,0.117885,
2,1,0,1,0,26071.4,0.119655,0.119356,0.0928489,14,0.0027667,10,1.10821e-05,-4.03222,0.251449,0.23464,0.854683,0.119356,
2,1,0,1,0,26072.9,0.121153,0.120849,0.0945524,14,0.00292831,10,1.14266e-05,-4.02433,0.193308,0.305212,1.13315,0.120849,
2,1,0,1,0,26074.4,0.122651,0.122366,0.0967404,14,0.00309274,10,1.18377e-05,-4.01439,0.14707,0.40117,1.50115,0.122366,
2,1,0,1,0,26075.9,0.124149,0.123808,0.098228,14,0.00326014,10,1.21614e-05,-4.00776,0.188085,0.313688,1.20163,0.123808,
2,1,0,1,0,26077.3,0.125648,0.12528,0.0994694,14,0.00342993,10,1.24615e-05,-4.00231,0.236642,0.249322,0.969743,0.12528,
2,1,0,1,0,26078.8,0.127146,0.126849,0.100443,14,0.00360132,10,1.27411e-05,-3.99808,0.307462,0.191894,0.749619,0.126849,
2,1,0,1,0,26080.3,0.128644,0.128309,0.101448,14,0.00377439,10,1.30167e-05,-3.99376,0.405135,0.145631,0.577605,0.128309,
2,1,0,1,0,26081.8,0.130142,0.129797,0.102492,14,0.00394841,10,1.33031e-05,-3.98931,1.85522,0.0318022,0.12623,0.129797,
2,1,0,1,0,26083.3,0.13164,0.131316,0.102543,14,0.00412327,10,1.34655e-05,-3.98909,-0.540533,-0.109152,-0.431411,0.131316,
2,1,0,1,0,26084.8,0.133139,0.132809,0.101512,14,0.00429707,10,1.34817e-05,-3.99348,-0.32984,-0.178875,-0.705187,0.132809,
2,1,0,1,0,26086.3,0.134637,0.134275,0.100165,14,0.00446902,10,1.34497e-05,-3.99928,-0.204275,-0.288827,-1.1264,0.134275,
2,1,0,1,0,26087.8,0.136135,0.135757,0.0981516,14,0.00463876,10,1.33247e-05,-4.0081,-0.145469,-0.405584,-1.5545,0.1357566,
2,1,0,1,0,26089.3,0.137633,0.137319,0.0955495,14,0.00480508,10,1.31207e-05,-4.01977,-0.110525,-0.533816,-1.97403,0.137319,
2,1,0,1,0,26090.8,0.139131,0.138801,0.0928718,14,0.00496695,10,1.28907e-05,-4.03212,-0.0972429,-0.606728,-2.18461,0.138801,
2,1,0,1,0,26092.3,0.14063,0.140306,0.0890808,14,0.00512279,10,1.24985e-05,-4.05022,-0.0777146,-0.759188,-2.62,0.140306,
2,1,0,1,0,26093.8,0.142128,0.14184,0.0848734,14,0.00527342,10,1.20384e-05,-4.07123,-0.071938,-0.82015,-2.68171,0.14184,
2,1,0,1,0,26095.3,0.143626,0.143298,0.0804255,14,0.00541781,10,1.15248e-05,-4.09461,-0.0618219,-0.954354,-2.97979,0.143298,
2,1,0,1,0,26096.8,0.145124,0.144862,0.0759497,14,0.00555448,10,1.10022e-05,-4.11947,-0.0583199,-1.01166,-3.0225,0.144862,
2,1,0,1,0,26098.3,0.146622,0.146308,0.0717325,14,0.00568447,10,1.0495e-05,-4.14428,-0.0681991,-0.865114,-2.42045,0.146308,
2,1,0,1,0,26099.8,0.14812,0.147817,0.0680835,14,0.00580891,10,1.00639e-05,-4.16696,-0.0750689,-0.785945,-2.09769,0.147817,
2,1,0,1,0,26101.3,0.149619,0.149286,0.0646507,14,0.00592806,10,9.65146e-06,-4.18943,-0.0779025,-0.757357,-1.9358,0.149286,
2,1,0,1,0,26102.8,0.151117,0.150789,0.0619954,14,0.00604242,10,9.34822e-06,-4.20764,-0.0859291,-0.686613,-1.67395,0.150789,
2,1,0,1,0,26104.3,0.152615,0.152298,0.0592976,14,0.00615302,10,9.03091e-06,-4.22696,-0.111177,-0.530687,-1.2442,0.152298,
2,1,0,1,0,26105.8,0.154113,0.153751,0.0582108,14,0.00626043,10,8.94995e-06,-4.235,-0.11329,-0.520786,-1.1787,0.153751,
2,1,0,1,0,26107.3,0.155611,0.155276,0.0563181,14,0.00636538,10,8.74482e-06,-4.24935,-0.108323,-0.54467,-1.19806,0.155276,
2,1,0,1,0,26108.8,0.15711,0.156803,0.0546125,14,0.00646771,10,8.56337e-06,-4.26271,-0.124505,-0.473877,-1.02024,0.156803,
2,1,0,1,0,26110.3,0.158608,0.158304,0.0539719,14,0.00656781,10,8.54397e-06,-4.26783,-0.142845,-0.413035,-0.868198,0.158304,
2,1,0,1,0,26111.8,0.160106,0.15979,0.0523009,14,0.00666601,10,8.35715e-06,-4.28149,-0.180241,-0.327339,-0.675876,0.15979,
2,1,0,1,0,26113.3,0.161604,0.161289,0.0517015,14,0.00676288,10,8.33889e-06,-4.2865,-0.277339,-0.212736,-0.433925,0.161289,
2,1,0,1,0,26114.8,0.163102,0.162758,0.0511967,14,0.00685877,10,8.33266e-06,-4.29076,-0.350286,-0.168434,-0.336095,0.162758,
2,1,0,1,0,26116.3,0.164601,0.164269,0.0509044,14,0.00695385,10,8.36201e-06,-4.29324,-0.881656,-0.0669195,-0.132478,0.164269,
2,1,0,1,0,26117.8,0.166099,0.165746,0.0510802,14,0.00704821,10,8.46633e-06,-4.29175,-1.73342,-0.0340367,-0.0670075,0.165746,
2,1,0,1,0,26119.3,0.167597,0.167263,0.049909,14,0.00714224,10,8.34794e-06,-4.30182,-2.8584,-0.0206409,-0.0406569,0.167263,
2,1,0,1,0,26120.8,0.169095,0.168777,0.0503635,14,0.00723624,10,8.50019e-06,-4.29788,-0.979603,-0.0602285,-0.118139,0.168777,
2,1,0,1,0,26122.3,0.170593,0.170306,0.0500038,14,0.00733005,10,8.51593e-06,-4.301,-0.57549,-0.102521,-0.200814,0.170306,
2,1,0,1,0,26123.8,0.172091,0.171745,0.0497093,14,0.00742318,10,8.5373e-06,-4.30356,-0.458618,-0.128647,-0.249925,0.171745,
2,1,0,1,0,26125.3,0.17359,0.173266,0.0494269,14,0.00751608,10,8.56401e-06,-4.30604,-0.565094,-0.104407,-0.203247,0.173266,
2,1,0,1,0,26126.8,0.175088,0.174773,0.049188,14,0.00760831,10,8.59674e-06,-4.30814,-0.788249,-0.0748494,-0.144408,0.1747732,
2,1,0,1,0,26128.3,0.176586,0.176251,0.049506,14,0.00770042,10,8.7255e-06,-4.30534,10.136,0.00582084,0.0112048,0.176251,
2,1,0,1,0,26129.8,0.178084,0.177762,0.0487926,14,0.00779211,10,8.67349e-06,-4.31165,3.71338,0.0158885,0.0304065,0.177762,
2,1,0,1,0,26131.3,0.179582,0.17926,0.0490924,14,0.00788378,10,8.8003e-06,-4.30899,-6.34746,-0.00929505,-0.017773,0.17926,
2,1,0,1,0,26132.8,0.181081,0.180762,0.0488883,14,0.00797539,10,8.83716e-06,-4.3108,-1.12406,-0.0524884,-0.100697,0.180762,
2,1,0,1,0,26134.3,0.182579,0.182276,0.0486995,14,0.00806677,10,8.87674e-06,-4.31248,0.906439,0.0650898,0.124508,0.182276,
2,1,0,1,0,26135.8,0.184077,0.183747,0.0494039,14,0.00815821,10,9.07784e-06,-4.30624,-2.75299,-0.0214312,-0.0411947,0.183747,
2,1,0,1,0,26137.3,0.185575,0.185253,0.049029,14,0.00824967,10,9.08277e-06,-4.30955,4.33941,0.0135963,0.0260379,0.185253,
2,1,0,1,0,26138.8,0.187073,0.18678,0.0492802,14,0.00834115,10,9.20456e-06,-4.30733,0.867485,0.0680127,0.130174,0.18678,
2,1,0,1,0,26140.3,0.188572,0.188268,0.0494148,14,0.00843285,10,9.30322e-06,-4.30614,11.6896,0.00504724,0.00971089,0.188268,
2,1,0,1,0,26141.8,0.19007,0.189747,0.0492844,14,0.00852439,10,9.35158e-06,-4.30729,53.7782,0.0010971,0.0021121,0.189747,
2,1,0,1,0,26143.3,0.191568,0.191232,0.0494349,14,0.00861596,10,9.45353e-06,-4.30597,-81.1382,-0.000727154,-0.0014022,0.191232,
2,1,0,1,0,26144.8,0.193066,0.192714,0.0492898,14,0.0087077,10,9.49885e-06,-4.30724,0.796756,0.0740502,0.142704,0.192714,
2,1,0,1,0,26146.3,0.194564,0.194245,0.0495849,14,0.00879958,10,9.63165e-06,-4.30465,1.00147,0.0589135,0.113443,0.194245,
2,1,0,1,0,26147.8,0.196063,0.195735,0.0495086,14,0.00889168,10,9.69058e-06,-4.30532,1.90064,0.0310421,0.0602574,0.195735,
2,1,0,1,0,26149.3,0.197561,0.19727,0.0491114,14,0.00898347,10,9.6882e-06,-4.30882,2.66365,0.02215,0.0431928,0.19727,
2,1,0,1,0,26150.8,0.199059,0.198745,0.0498207,14,0.00907557,10,9.90161e-06,-4.30259,-6.39228,-0.00922989,-0.0178145,0.198745,
2,1,0,1,0,26152.3,0.200557,0.200265,0.0502289,14,0.00916811,10,1.00591e-05,-4.29905,0.488216,0.120848,0.236189,0.200265,
2,1,0,1,0,26153.8,0.202055,0.201749,0.0500495,14,0.0092607,10,1.00974e-05,-4.3006,1.29364,0.0456077,0.089283,0.201749,
2,1,0,1,0,26155.3,0.203554,0.203221,0.0499306,14,0.00935365,10,1.01469e-05,-4.30163,2.03776,0.0289534,0.0569449,0.203221,
2,1,0,1,0,26156.8,0.205052,0.2047,0.050514,14,0.00944688,10,1.03402e-05,-4.29659,0.639038,0.0923262,0.18358,0.2047,
2,1,0,1,0,26158.3,0.20655,0.206223,0.0503323,14,0.00954009,10,1.03797e-05,-4.29815,-1.02414,-0.0576091,-0.114246,0.206223,
2,1,0,1,0,26159.7,0.208048,0.207771,0.0501708,14,0.00963379,10,1.0424e-05,-4.29955,3.66631,0.0160925,0.0318529,0.207771,
2,1,0,1,0,26161.2,0.209546,0.209227,0.0509602,14,0.00972721,10,1.06622e-05,-4.29277,0.501999,0.11753,0.233926,0.209227,
2,1,0,1,0,26162.7,0.211044,0.210754,0.0517332,14,0.00982078,10,1.0903e-05,-4.28623,1.21416,0.0485934,0.0970261,0.210754,
2,1,0,1,0,26164.2,0.212543,0.212206,0.0510822,14,0.00991496,10,1.08399e-05,-4.29173,0.593857,0.0993505,0.199358,0.212206,
2,1,0,1,0,26165.7,0.214041,0.213732,0.0519855,14,0.0100094,10,1.11109e-05,-4.28412,0.552937,0.106703,0.213896,0.213732,
2,1,0,1,0,26167.2,0.215539,0.215232,0.0521897,14,0.0101045,10,1.12329e-05,-4.28242,0.56851,0.10378,0.209195,0.215232,
2,1,0,1,0,26168.7,0.217037,0.216774,0.0523189,14,0.0101995,10,1.13414e-05,-4.28134,5.7341,0.0102893,0.0208836,0.216774,
2,1,0,1,0,26170.2,0.218535,0.218295,0.0521081,14,0.0102947,10,1.1375e-05,-4.2831,4.86617,0.0121245,0.0246616,0.218295,
2,1,0,1,0,26171.7,0.220034,0.219733,0.0519975,14,0.0103901,10,1.14256e-05,-4.28402,1.29019,0.0457298,0.0937478,0.219733,
2,1,0,1,0,26173.2,0.221532,0.22123,0.0526044,14,0.0104857,10,1.16376e-05,-4.27898,6.79977,0.00867676,0.0178665,0.22123,
2,1,0,1,0,26174.7,0.22303,0.222738,0.0526118,14,0.0105816,10,1.17186e-05,-4.27892,0.636336,0.0927183,0.190397,0.222738,
2,1,0,1,0,26176.2,0.224528,0.224255,0.0529885,14,0.0106775,10,1.18829e-05,-4.27582,0.721767,0.0817438,0.168543,0.224255,
2,1,0,1,0,26177.7,0.226026,0.225775,0.0529684,14,0.0107742,10,1.19589e-05,-4.27598,0.622451,0.0947866,0.195982,0.225775,
2,1,0,1,0,26179.2,0.227525,0.227225,0.0535096,14,0.010871,10,1.21587e-05,-4.27157,1.97277,0.0299072,0.0621997,0.227225,
2,1,0,1,0,26180.7,0.229023,0.228722,0.053606,14,0.010968,10,1.22609e-05,-4.27079,0.948566,0.0621991,0.130222,0.228722,
2,1,0,1,0,26182.2,0.230521,0.230234,0.0540898,14,0.0110654,10,1.24533e-05,-4.26688,0.534151,0.110456,0.23179,0.230234,
2,1,0,1,0,26183.7,0.232019,0.231694,0.0540965,14,0.0111631,10,1.25338e-05,-4.26683,1.66743,0.0353839,0.0752918,0.231694,
2,1,0,1,0,26185.2,0.233517,0.233202,0.0539786,14,0.0112613,10,1.25879e-05,-4.26778,0.97835,0.0603056,0.126989,0.233202,
2,1,0,1,0,26186.7,0.235016,0.234717,0.0547087,14,0.0113597,10,1.28411e-05,-4.26194,2.00815,0.0293803,0.0623715,0.234717,
2,1,0,1,0,26188.2,0.236514,0.236227,0.0546122,14,0.011458,10,1.29009e-05,-4.26271,1.57188,0.0375347,0.0801998,0.236227,
2,1,0,1,0,26189.7,0.238012,0.237714,0.0545302,14,0.0115568,10,1.29626e-05,-4.26336,0.567019,0.104053,0.223628,0.237714,
2,1,0,1,0,26191.2,0.23951,0.239198,0.0551741,14,0.0116559,10,1.31975e-05,-4.25827,0.500705,0.117834,0.253606,0.239198,
2,1,0,1,0,26192.7,0.241008,0.240747,0.0555459,14,0.0117552,10,1.33725e-05,-4.25535,1.76017,0.0335195,0.0729341,0.240747,
2,1,0,1,0,26194.2,0.242506,0.24218,0.0554971,14,0.0118543,10,1.34403e-05,-4.25573,0.647074,0.0911797,0.198541,0.24218,
2,1,0,1,0,26195.7,0.244005,0.243696,0.0555661,14,0.011954,10,1.35413e-05,-4.25519,0.58772,0.100388,0.218464,0.243696,
2,1,0,1,0,26197.2,0.245503,0.245183,0.0559139,14,0.0120545,10,1.37091e-05,-4.25248,0.380656,0.154996,0.33922,0.245183,
2,1,0,1,0,26198.7,0.247001,0.246649,0.0565548,14,0.0121549,10,1.39492e-05,-4.24753,0.640564,0.0921063,0.203675,0.246649,
2,1,0,1,0,26200.2,0.248499,0.248215,0.0562458,14,0.0122558,10,1.3961e-05,-4.24991,1.43153,0.0412146,0.0906757,0.2482149,
2,1,0,1,0,26201.7,0.249997,0.249639,0.056635,14,0.012357,10,1.41383e-05,-4.24692,0.631878,0.0933724,0.206333,0.249639,
2,1,0,1,0,26203.2,0.251496,0.251185,0.0567812,14,0.0124582,10,1.42626e-05,-4.2458,1.75394,0.0336385,0.0744308,0.251185,
2,1,0,1,0,26204.7,0.252994,0.252674,0.0569213,14,0.0125598,10,1.43825e-05,-4.24473,17.4112,0.00338862,0.00749431,0.252674,
2,1,0,1,0,26206.2,0.254492,0.254206,0.0569193,14,0.0126611,10,1.44692e-05,-4.24474,0.862526,0.0684037,0.152127,0.254206,
2,1,0,1,0,26207.7,0.25599,0.255706,0.0573544,14,0.0127625,10,1.46658e-05,-4.24143,0.973368,0.0606143,0.135612,0.255706,
2,1,0,1,0,26209.2,0.257488,0.257181,0.0576334,14,0.0128647,10,1.48222e-05,-4.23933,0.478827,0.123218,0.276735,0.257181,
2,1,0,1,0,26210.7,0.258987,0.258629,0.0577176,14,0.0129672,10,1.49275e-05,-4.23869,0.830214,0.0710661,0.160189,0.2586292,
2,1,0,1,0,26212.2,0.260485,0.26017,0.0578629,14,0.01307,10,1.50542e-05,-4.2376,1.65831,0.0355784,0.0798905,0.26017,
2,1,0,1,0,26213.7,0.261983,0.261671,0.0580941,14,0.0131728,10,1.52016e-05,-4.23587,0.7119,0.0828768,0.188317,0.261671,
2,1,0,1,0,26215.2,0.263481,0.263196,0.058481,14,0.013276,10,1.5392e-05,-4.23299,0.698899,0.0844185,0.191259,0.263196,
2,1,0,1,0,26216.7,0.264979,0.264635,0.0588669,14,0.0133795,10,1.55783e-05,-4.23013,3.28671,0.0179511,0.0409361,0.264635,
2,1,0,1,0,26218.2,0.266477,0.266169,0.0584582,14,0.0134831,10,1.55597e-05,-4.23315,0.632807,0.0932354,0.212584,0.266169,
2,1,0,1,0,26219.7,0.267976,0.267619,0.0585116,14,0.0135865,10,1.56588e-05,-4.23276,1.0702,0.0551301,0.126624,0.267619,
2,1,0,1,0,26221.2,0.269474,0.2692,0.0587909,14,0.0136903,10,1.58265e-05,-4.23069,1.25458,0.0470276,0.10774,0.2692,
2,1,0,1,0,26222.7,0.270972,0.270654,0.0594228,14,0.0137944,10,1.6083e-05,-4.22605,1.74134,0.0338819,0.0780646,0.270654,
2,1,0,1,0,26224.2,0.27247,0.272187,0.0590228,14,0.0138989,10,1.60653e-05,-4.22898,1.18954,0.0495989,0.114949,0.272187,
2,1,0,1,0,26225.7,0.273968,0.273674,0.0594885,14,0.0140035,10,1.62805e-05,-4.22557,0.545187,0.10822,0.251573,0.2736741,
2,1,0,1,0,26227.2,0.275467,0.275134,0.0598886,14,0.0141088,10,1.64774e-05,-4.22266,1.31911,0.0447273,0.104073,0.2751343,
2,1,0,1,0,26228.7,0.276965,0.276679,0.0597658,14,0.0142142,10,1.6536e-05,-4.22355,6.17007,0.00956229,0.0224837,0.276679,
2,1,0,1,0,26230.2,0.278463,0.278137,0.0597328,14,0.0143199,10,1.66139e-05,-4.22379,-6.70946,-0.00879356,-0.0204512,0.278137,
2,1,0,1,0,26231.7,0.279961,0.279668,0.0600424,14,0.0144254,10,1.67919e-05,-4.22154,-3.69718,-0.0159581,-0.0376845,0.279668,
2,1,0,1,0,26233.2,0.281459,0.281146,0.0603148,14,0.0145308,10,1.69572e-05,-4.21958,0.506091,0.11658,0.275049,0.281146,
2,1,0,1,0,26234.7,0.282958,0.282662,0.0605976,14,0.0146369,10,1.71286e-05,-4.21754,0.896563,0.0658069,0.155089,0.282662,
2,1,0,1,0,26236.2,0.284456,0.284154,0.0606779,14,0.0147434,10,1.72419e-05,-4.21697,1.92709,0.0306161,0.0724821,0.284154,
2,1,0,1,0,26237.7,0.285954,0.285637,0.0608592,14,0.0148496,10,1.73836e-05,-4.21567,1.09702,0.053782,0.128282,0.285637,
2,1,0,1,0,26239.2,0.287452,0.287124,0.0608779,14,0.0149561,10,1.74795e-05,-4.21554,4.21953,0.0139826,0.0332413,0.287124,
2,1,0,1,0,26240.7,0.28895,0.28867,0.0612554,14,0.0150631,10,1.76826e-05,-4.21286,0.474928,0.124229,0.296406,0.28867,
2,1,0,1,0,26242.1,0.290448,0.29017,0.0615455,14,0.0151704,10,1.78586e-05,-4.2108,1.38097,0.0427237,0.10259,0.29017,
2,1,0,1,0,26243.6,0.291947,0.291652,0.0613356,14,0.0152778,10,1.78887e-05,-4.21229,0.909691,0.0648572,0.156623,0.291652,
2,1,0,1,0,26245.1,0.293445,0.293127,0.0619806,14,0.0153854,10,1.81682e-05,-4.20774,1.22674,0.0480948,0.115942,0.2931273,
2,1,0,1,0,26246.6,0.294943,0.294642,0.0621328,14,0.0154934,10,1.83069e-05,-4.20668,1.34849,0.0437526,0.105952,0.294642,
2,1,0,1,0,26248.1,0.296441,0.296118,0.0621914,14,0.0156017,10,1.8416e-05,-4.20627,0.670453,0.0880002,0.212653,0.296118,
2,1,0,1,0,26249.6,0.297939,0.297615,0.0626602,14,0.0157103,10,1.86486e-05,-4.20301,0.524733,0.112438,0.274321,0.297615,
2,1,0,1,0,26251.1,0.299438,0.299149,0.0623152,14,0.0158191,10,1.86416e-05,-4.20541,-0.00467881,-12.61,-20.3321,0.299149,
2,1,0,1,0,26252,0.299737,0.299419,0.032189,14,0.0158675,10,9.63798e-06,-4.49229,0.00218868,26.9569,38.1192,0.299419,
2,1,0,1,0,26253.5,0.298239,0.29796,0.0203147,14,0.0158892,10,6.05297e-06,-4.69219,0.00589044,10.0162,13.0992,0.29796,
2,1,0,1,0,26255,0.296741,0.29644,0.0158803,14,0.0159008,10,4.70755e-06,-4.79914,0.0141259,4.17674,2.69097,0.29644,
2,1,0,1,0,26256.5,0.295243,0.294916,0.0127001,14,0.0159065,10,3.74547e-06,-4.89619,0.0143682,4.10629,2.01459,0.294916,
2,1,0,1,0,26258,0.293745,0.293432,0.00965479,14,0.0159081,10,2.83302e-06,-5.01526,0.0146844,4.01788,1.56772,0.293432,
2,1,0,1,0,26259.5,0.292246,0.291954,0.00746043,14,0.0159062,10,2.17811e-06,-5.12724,0.0132472,4.45378,1.38215,0.291954,
2,1,0,1,0,26261,0.290748,0.290389,0.00608762,14,0.0159013,10,1.76778e-06,-5.21555,0.0127246,4.63669,1.0991,0.290389,
2,1,0,1,0,26262.5,0.28925,0.288958,0.00461563,14,0.0158941,10,1.33372e-06,-5.33577,0.00991124,5.95284,1.02434,0.2889578,
2,1,0,1,0,26264,0.287752,0.287398,0.00304269,14,0.0158847,10,8.74462e-07,-5.51674,0.00773664,7.62605,0.877683,0.287398,
2,1,0,1,0,26265.5,0.286254,0.285939,0.00210878,14,0.0158734,10,6.02983e-07,-5.67597,0.00281129,20.9868,0.832271,0.2859388,
2,1,0,1,0,26267,0.284755,0.284445,0.000343305,14,0.01586,10,9.76513e-08,-6.46432,0.0115647,5.10171,0.918813,0.284445,
2,1,0,1,0,26268.5,0.283257,0.282945,-0.00096881,14,0.0158446,10,-2.7412e-07,-6.01376,-0.0149219,-3.95392,0.761415,0.282945,
2,1,0,1,0,26270,0.281759,0.281418,-0.00177806,14,0.0158274,10,-5.00378e-07,-5.75005,-0.0035386,-16.6733,0.699649,0.281418,
2,1,0,1,0,26271.5,0.280261,0.279986,-0.00234846,14,0.0158089,10,-6.57534e-07,-5.62922,-0.00811348,-7.27185,0.760928,0.279986,
2,0,0,1,0,26273,0.278763,0.278432,-0.00389556,14,0.0157885,10,-1.08465e-06,-5.40943,-0.0125227,-4.71145,0.604565,0.278432,
2,1,0,1,0,26274.5,0.277264,0.276947,-0.00499846,14,0.0157665,10,-1.38431e-06,-5.30116,-0.0176429,-3.34411,0.616555,0.276947,
2,0,0,1,0,26276,0.275766,0.27545,-0.00574707,14,0.0157433,10,-1.58303e-06,-5.24055,-0.0173101,-3.40842,0.752716,0.27545,
2,1,0,1,0,26277.5,0.274268,0.273935,-0.00695746,14,0.0157186,10,-1.90589e-06,-5.15755,-0.0240762,-2.45056,0.62363,0.273935,
2,1,0,1,0,26279,0.27277,0.27245,-0.00785748,14,0.0156923,10,-2.14077e-06,-5.10472,-0.0252323,-2.33828,0.706712,0.27245,
2,0,0,1,0,26280.5,0.271272,0.270995,-0.00881711,14,0.0156646,10,-2.38939e-06,-5.05467,-0.0304972,-1.9346,0.648184,0.270995,
2,0,0,1,0,26282,0.269774,0.269418,-0.00948252,14,0.0156352,10,-2.55476e-06,-5.02308,-0.0476077,-1.23929,0.448683,0.2694177,
2,1,0,1,0,26283.4,0.268275,0.26796,-0.0107137,14,0.0156047,10,-2.87084e-06,-4.97006,-0.0441755,-1.33558,0.536949,0.26796,
2,1,0,1,0,26284.9,0.266777,0.266473,-0.0107978,14,0.015573,10,-2.87732e-06,-4.96667,-0.0432459,-1.36429,0.581564,0.266473,
2,0,0,1,0,26286.4,0.265279,0.264987,-0.0122204,14,0.0155399,10,-3.23825e-06,-4.91291,-0.0428554,-1.37672,0.642777,0.264987,
2,1,0,1,0,26287.9,0.263781,0.263475,-0.0126844,14,0.0155056,10,-3.34204e-06,-4.89673,-0.0712015,-0.828634,0.40728,0.263475,
2,1,0,1,0,26289.4,0.262283,0.261958,-0.0138901,14,0.0154699,10,-3.63861e-06,-4.8573,-0.0552324,-1.06821,0.573644,0.261958,
2,0,0,1,0,26290.9,0.260784,0.26045,-0.0139843,14,0.0154337,10,-3.64222e-06,-4.85436,-0.0715011,-0.825162,0.456191,0.2604498,
2,0,0,1,0,26292.4,0.259286,0.258997,-0.0148634,14,0.0153965,10,-3.84957e-06,-4.82788,-0.0770624,-0.765613,0.427372,0.258997,
2,0,0,1,0,26293.9,0.257788,0.257492,-0.0153949,14,0.0153583,10,-3.96408e-06,-4.81262,-0.0769719,-0.766514,0.447813,0.257492,
2,0,0,1,0,26295.4,0.25629,0.255959,-0.0158421,14,0.0153191,10,-4.05492e-06,-4.80019,-0.0881735,-0.669136,0.403143,0.255959,
2,0,0,1,0,26296.9,0.254792,0.254483,-0.0160382,14,0.0152791,10,-4.08145e-06,-4.79484,-0.117453,-0.502326,0.323628,0.254483,
2,0,0,1,0,26298.4,0.253293,0.253007,-0.0167278,14,0.0152385,10,-4.23225e-06,-4.77656,-0.117596,-0.501718,0.338247,0.253007,
2,0,0,1,0,26299.9,0.251795,0.251503,-0.0179721,14,0.0151966,10,-4.52003e-06,-4.7454,-0.0962092,-0.613247,0.421004,0.251503,
2,0,0,1,0,26301.4,0.250297,0.249978,-0.017986,14,0.0151535,10,-4.49612e-06,-4.74506,-0.0837064,-0.704845,0.507223,0.2499783,
2,0,0,1,0,26302.9,0.248799,0.248456,-0.019284,14,0.0151094,10,-4.79121e-06,-4.7148,-0.118983,-0.495871,0.372485,0.248456,
2,0,0,1,0,26304.4,0.247301,0.246983,-0.0201,14,0.0150641,10,-4.96435e-06,-4.6968,-0.145606,-0.405203,0.310669,0.246983,
2,0,0,1,0,26305.9,0.245802,0.245494,-0.0199611,14,0.0150183,10,-4.90033e-06,-4.69982,-0.34775,-0.169662,0.13301,0.245494,
2,0,0,1,0,26307.4,0.244304,0.244,-0.0204819,14,0.0149717,10,-4.99757e-06,-4.68863,-0.208021,-0.283625,0.225789,0.244,
2,0,0,1,0,26308.9,0.242806,0.242478,-0.021017,14,0.0149245,10,-5.09616e-06,-4.67743,-0.127264,-0.463604,0.385313,0.242478,
2,0,0,1,0,26310.4,0.241308,0.241011,-0.0216065,14,0.0148767,10,-5.2074e-06,-4.66541,-0.120379,-0.490117,0.413833,0.241011,
2,0,0,1,0,26311.9,0.23981,0.239486,-0.022614,14,0.0148275,10,-5.41572e-06,-4.64562,-0.119814,-0.49243,0.423316,0.239486,
2,0,0,1,0,26313.4,0.238312,0.238024,-0.0224508,14,0.0147776,10,-5.34384e-06,-4.64877,-0.167189,-0.352894,0.317462,0.238024,
2,0,0,1,0,26314.9,0.236813,0.236555,-0.0230997,14,0.0147269,10,-5.46435e-06,-4.63639,-0.195309,-0.302085,0.274071,0.236555,
2,0,0,1,0,26316.4,0.235315,0.235035,-0.0237325,14,0.0146759,10,-5.57797e-06,-4.62466,-0.165362,-0.356792,0.331817,0.235035,
2,0,0,1,0,26317.9,0.233817,0.233489,-0.0245085,14,0.0146238,10,-5.72247e-06,-4.61068,-0.123136,-0.479144,0.455161,0.233489,
2,0,0,1,0,26319.4,0.232319,0.231967,-0.0250739,14,0.0145703,10,-5.81633e-06,-4.60078,-0.092627,-0.636963,0.622793,0.231967,
2,0,0,1,0,26320.9,0.230821,0.23048,-0.025782,14,0.0145158,10,-5.94223e-06,-4.58868,-0.146636,-0.402356,0.403228,0.23048,
2,0,0,1,0,26322.4,0.229322,0.229034,-0.0261835,14,0.0144603,10,-5.99691e-06,-4.58197,-0.145229,-0.406254,0.416749,0.229034,
2,0,0,1,0,26323.9,0.227824,0.227499,-0.0270591,14,0.014404,10,-6.15591e-06,-4.56769,-0.205052,-0.287732,0.30556,0.227499,
2,0,0,1,0,26325.4,0.226326,0.226023,-0.0276243,14,0.0143466,10,-6.24372e-06,-4.55871,-0.150172,-0.392883,0.42247,0.226023,
2,0,0,1,0,26326.9,0.224828,0.22452,-0.0281014,14,0.0142884,10,-6.30933e-06,-4.55127,-0.206597,-0.28558,0.311749,0.22452,
2,0,0,1,0,26328.4,0.22333,0.223004,-0.0285994,14,0.0142295,10,-6.37777e-06,-4.54364,-0.108984,-0.541364,0.604099,0.223004,
2,0,0,1,0,26329.9,0.221831,0.221536,-0.0292651,14,0.0141699,10,-6.48327e-06,-4.53365,-0.136734,-0.431496,0.488385,0.221536,
2,0,0,1,0,26331.4,0.220333,0.220032,-0.0296861,14,0.0141089,10,-6.5319e-06,-4.52745,-0.185067,-0.318803,0.371709,0.220032,
2,0,0,1,0,26332.9,0.218835,0.21854,-0.0303106,14,0.014047,10,-6.62408e-06,-4.51841,-0.190499,-0.309713,0.366234,0.21854,
2,0,0,1,0,26334.4,0.217337,0.217009,-0.0312385,14,0.0139844,10,-6.77904e-06,-4.50531,-0.162105,-0.363961,0.439681,0.217009,
2,0,0,1,0,26335.9,0.215839,0.21554,-0.0313142,14,0.0139211,10,-6.74948e-06,-4.50426,-0.170542,-0.345956,0.427509,0.21554,
2,0,0,1,0,26337.4,0.21434,0.213998,-0.0321141,14,0.0138566,10,-6.87234e-06,-4.4933,-0.17598,-0.335265,0.416163,0.213998,
2,0,0,1,0,26338.9,0.212842,0.212542,-0.0326234,14,0.0137912,10,-6.93384e-06,-4.48647,-0.253499,-0.232743,0.298749,0.2125418,
2,0,0,1,0,26340.4,0.211344,0.211058,-0.0331822,14,0.0137253,10,-7.00337e-06,-4.4791,-0.219615,-0.268652,0.347908,0.211058,
2,0,0,1,0,26341.9,0.209846,0.209525,-0.0334322,14,0.0136588,10,-7.00489e-06,-4.47583,-0.286882,-0.20566,0.268696,0.209525,
2,0,0,1,0,26343.4,0.208348,0.208053,-0.0340874,14,0.0135915,10,-7.092e-06,-4.46741,-0.190112,-0.310344,0.408279,0.208053,
2,0,0,1,0,26344.9,0.20685,0.206527,-0.0349435,14,0.013523,10,-7.21679e-06,-4.45663,-0.186795,-0.315854,0.424355,0.206527,
2,0,0,1,0,26346.4,0.205351,0.20503,-0.0347143,14,0.0134538,10,-7.11747e-06,-4.45949,-0.249443,-0.236527,0.322233,0.20503,
2,0,0,1,0,26347.9,0.203853,0.203528,-0.0351279,14,0.0133841,10,-7.14953e-06,-4.45435,-0.216763,-0.272187,0.379706,0.203528,
2,0,0,1,0,26349.4,0.202355,0.202008,-0.0362569,14,0.0133134,10,-7.32418e-06,-4.44061,-0.161563,-0.365182,0.515306,0.202008,
2,0,0,1,0,26350.9,0.200857,0.200521,-0.0367429,14,0.0132415,10,-7.36771e-06,-4.43483,-0.288432,-0.204554,0.296069,0.200521,
2,0,0,1,0,26352.4,0.199359,0.199064,-0.0371708,14,0.0131688,10,-7.39937e-06,-4.4298,-0.283825,-0.207875,0.302119,0.199064,
2,0,0,1,0,26353.9,0.19786,0.197521,-0.037902,14,0.0130954,10,-7.48644e-06,-4.42134,-0.215933,-0.273232,0.40442,0.197521,
2,0,0,1,0,26355.4,0.196362,0.196078,-0.0383656,14,0.0130212,10,-7.52265e-06,-4.41606,-0.29207,-0.202006,0.302525,0.196078,
2,0,0,1,0,26356.9,0.194864,0.194559,-0.0390488,14,0.012946,10,-7.59731e-06,-4.40839,-0.285646,-0.20655,0.312983,0.194559,
2,0,0,1,0,26358.4,0.193366,0.193049,-0.0398057,14,0.0128695,10,-7.68446e-06,-4.40005,-0.154772,-0.381206,0.588259,0.193049,
2,0,0,1,0,26359.9,0.191868,0.191555,-0.0403008,14,0.0127924,10,-7.71983e-06,-4.39469,-0.267013,-0.220963,0.349155,0.191555,
2,0,0,1,0,26361.4,0.190369,0.190064,-0.0408715,14,0.0127145,10,-7.76821e-06,-4.38858,-0.161815,-0.364613,0.584231,0.190064,
2,0,0,1,0,26362.9,0.188871,0.188591,-0.0420576,14,0.0126353,10,-7.93171e-06,-4.37616,-0.150484,-0.392069,0.63591,0.188591,
2,0,0,1,0,26364.4,0.187373,0.18706,-0.0425368,14,0.0125546,10,-7.95694e-06,-4.37124,-0.195436,-0.30189,0.502188,0.18706,
2,0,0,1,0,26365.9,0.185875,0.185532,-0.043191,14,0.0124729,10,-8.01331e-06,-4.36461,-0.24487,-0.240944,0.408147,0.185532,
2,0,0,1,0,26367.3,0.184377,0.184072,-0.0433277,14,0.0123903,10,-7.97541e-06,-4.36323,-0.186526,-0.316309,0.540023,0.184072,
2,0,0,1,0,26368.8,0.182878,0.182567,-0.0447576,14,0.0123065,10,-8.17128e-06,-4.34913,-0.173602,-0.339858,0.591597,0.182567,
2,0,0,1,0,26370.3,0.18138,0.181097,-0.0458643,14,0.0122212,10,-8.3059e-06,-4.33853,-0.216512,-0.272502,0.484062,0.181097,
2,0,0,1,0,26371.8,0.179882,0.179515,-0.0462898,14,0.0121348,10,-8.30974e-06,-4.33451,-0.206291,-0.286004,0.515515,0.179515,
2,0,0,1,0,26373.3,0.178384,0.178049,-0.0468958,14,0.0120472,10,-8.34975e-06,-4.32887,-0.267262,-0.220758,0.406639,0.178049,
2,0,0,1,0,26374.8,0.176886,0.176546,-0.047342,14,0.0119588,10,-8.35806e-06,-4.32475,-0.28502,-0.207003,0.385761,0.176546,
2,0,0,1,0,26376.3,0.175388,0.175068,-0.0482039,14,0.0118692,10,-8.43897e-06,-4.31692,-0.163312,-0.361271,0.685756,0.175068,
2,0,0,1,0,26377.8,0.173889,0.173586,-0.0495062,14,0.0117779,10,-8.59357e-06,-4.30534,-0.157424,-0.374784,0.723651,0.173586,
2,0,0,1,0,26379.3,0.172391,0.172098,-0.0505637,14,0.0116846,10,-8.7019e-06,-4.29616,-0.146313,-0.403246,0.790889,0.172098,
2,0,0,1,0,26380.8,0.170893,0.17058,-0.051189,14,0.0115901,10,-8.73184e-06,-4.29082,-0.206447,-0.285787,0.573798,0.17058,
2,0,0,1,0,26382.3,0.169395,0.169102,-0.052351,14,0.0114941,10,-8.85268e-06,-4.28107,-0.15465,-0.381507,0.781805,0.169102,
2,0,0,1,0,26383.8,0.167897,0.167588,-0.0537355,14,0.0113961,10,-9.00542e-06,-4.26974,-0.164402,-0.358876,0.754528,0.167588,
2,0,0,1,0,26385.3,0.166398,0.16607,-0.0546851,14,0.0112965,10,-9.08158e-06,-4.26213,-0.142977,-0.412653,0.891722,0.16607,
2,0,0,1,0,26386.8,0.1649,0.164589,-0.056234,14,0.011195,10,-9.2555e-06,-4.25,-0.135801,-0.434458,0.960165,0.164589,
2,0,0,1,0,26388.3,0.163402,0.163111,-0.0579136,14,0.0110909,10,-9.44634e-06,-4.23722,-0.111877,-0.527364,1.1912,0.163111,
2,0,0,1,0,26389.8,0.161904,0.161564,-0.059458,14,0.0109845,10,-9.60625e-06,-4.22579,-0.145751,-0.4048,0.940613,0.161564,
2,0,0,1,0,26391.3,0.160406,0.160062,-0.0608282,14,0.0108757,10,-9.73629e-06,-4.2159,-0.153917,-0.383323,0.908281,0.160062,
2,0,0,1,0,26392.8,0.158907,0.158624,-0.0624042,14,0.0107646,10,-9.89882e-06,-4.20479,-0.125781,-0.469071,1.14568,0.158624,
2,0,0,1,0,26394.3,0.157409,0.157093,-0.0644365,14,0.010651,10,-1.01225e-05,-4.19087,-0.132974,-0.443697,1.10822,0.157093,
2,0,0,1,0,26395.8,0.155911,0.155612,-0.0661007,14,0.0105342,10,-1.0286e-05,-4.17979,-0.12121,-0.486757,1.26017,0.155612,
2,0,0,1,0,26397.3,0.154413,0.154137,-0.0679825,14,0.0104146,10,-1.04786e-05,-4.1676,-0.10922,-0.540193,1.43832,0.154137,
2,0,0,1,0,26398.8,0.152915,0.152598,-0.0706743,14,0.0102914,10,-1.07848e-05,-4.15074,-0.095074,-0.620569,1.70774,0.152598,
2,0,0,1,0,26400.3,0.151417,0.151086,-0.0732943,14,0.0101645,10,-1.10737e-05,-4.13493,-0.0895264,-0.659024,1.88561,0.151086,
2,0,0,1,0,26401.8,0.149918,0.149569,-0.0766621,14,0.0100332,10,-1.14663e-05,-4.11542,-0.0816305,-0.722769,2.14709,0.1495695,
2,0,0,1,0,26403.3,0.14842,0.148133,-0.0793995,14,0.00989728,10,-1.17617e-05,-4.10018,-0.0793554,-0.74349,2.30472,0.148133,
2,0,0,1,0,26404.8,0.146922,0.146595,-0.0830258,14,0.00975618,10,-1.21712e-05,-4.08079,-0.0792049,-0.744903,2.4078,0.146595,
2,0,0,1,0,26406.3,0.145424,0.145073,-0.0863099,14,0.00960982,10,-1.25213e-05,-4.06394,-0.0789221,-0.747572,2.52745,0.145073,
2,0,0,1,0,26407.8,0.143926,0.143577,-0.0904707,14,0.00945718,10,-1.29895e-05,-4.04349,-0.0672531,-0.877283,3.0978,0.143577,
2,0,0,1,0,26409.3,0.142427,0.142105,-0.0950033,14,0.00929768,10,-1.35005e-05,-4.02226,-0.0695411,-0.848419,3.15986,0.142105,
2,0,0,1,0,26410.8,0.140929,0.140581,-0.0998397,14,0.009131,10,-1.40356e-05,-4.0007,-0.0722507,-0.816601,3.19341,0.140581,
2,0,0,1,0,26412.3,0.139431,0.139085,-0.105104,14,0.00895725,10,-1.46184e-05,-3.97838,-0.0713633,-0.826755,3.39227,0.139085,
2,0,0,1,0,26413.8,0.137933,0.137638,-0.110108,14,0.0087757,10,-1.5155e-05,-3.95818,-0.0740095,-0.797195,3.43609,0.137638,
2,0,0,1,0,26415.3,0.136435,0.13608,-0.115566,14,0.00858619,10,-1.57262e-05,-3.93717,-0.0783858,-0.752688,3.38184,0.13608,
2,0,0,1,0,26416.8,0.134936,0.134591,-0.120802,14,0.00838855,10,-1.62589e-05,-3.91792,-0.0843014,-0.69987,3.2777,0.134591,
2,0,0,1,0,26418.3,0.133438,0.13311,-0.125095,14,0.00818335,10,-1.66514e-05,-3.90276,-0.0971396,-0.607374,2.96604,0.13311,
2,0,0,1,0,26419.8,0.13194,0.131611,-0.129483,14,0.00797177,10,-1.70414e-05,-3.88779,-0.109246,-0.540067,2.75034,0.1316115,
2,0,0,1,0,26421.3,0.130442,0.130103,-0.134464,14,0.00775325,10,-1.74942e-05,-3.87139,-0.124173,-0.475145,2.4772,0.130103,
2,0,0,1,0,26422.8,0.128944,0.1286,-0.137298,14,0.00752865,10,-1.76565e-05,-3.86234,-0.169602,-0.347873,1.85679,0.1285999,
2,0,0,1,0,26424.3,0.127445,0.127159,-0.140598,14,0.00729943,10,-1.78783e-05,-3.85202,-0.178242,-0.331011,1.8083,0.127159,
2,0,0,1,0,26425.8,0.125947,0.125593,-0.142895,14,0.00706704,10,-1.79465e-05,-3.84498,-0.252853,-0.233337,1.29464,0.125593,
2,0,0,1,0,26427.3,0.124449,0.124122,-0.144981,14,0.00683094,10,-1.79953e-05,-3.83869,-0.306935,-0.192223,1.07921,0.124122,
2,0,0,1,0,26428.8,0.122951,0.122614,-0.145671,14,0.0065926,10,-1.78613e-05,-3.83663,-0.551499,-0.106981,0.606174,0.122614,
2,0,0,1,0,26430.3,0.121453,0.121108,-0.146612,14,0.00635298,10,-1.7756e-05,-3.83383,-1.17085,-0.0503909,0.287493,0.121108,
2,0,0,1,0,26431.8,0.119955,0.119636,-0.146439,14,0.00611304,10,-1.75195e-05,-3.83434,-3.15151,-0.0187212,0.107359,0.119636,
2,0,0,1,0,26433.3,0.118456,0.118139,-0.147055,14,0.00587217,10,-1.73729e-05,-3.83252,-2.58366,-0.0228358,0.130343,0.118139,
2,0,0,1,0,26434.8,0.116958,0.116637,-0.146805,14,0.0056308,10,-1.71229e-05,-3.83326,78.5763,0.000750863,-0.00430245,0.116637,
2,0,0,1,0,26436.3,0.11546,0.115133,-0.146495,14,0.00539016,10,-1.68664e-05,-3.83418,1.86507,0.0316343,-0.181493,0.115133,
2,0,0,1,0,26437.8,0.113962,0.113617,-0.145583,14,0.00515013,10,-1.65408e-05,-3.83689,1.63585,0.0360669,-0.205891,0.113617,
2,0,0,1,0,26439.3,0.112464,0.112152,-0.14575,14,0.00491042,10,-1.63462e-05,-3.83639,1.2164,0.0485039,-0.275785,0.112152,
2,0,0,1,0,26440.8,0.110965,0.110671,-0.145113,14,0.00467142,10,-1.60597e-05,-3.83829,1.0297,0.057298,-0.32576,0.110671,
2,0,0,1,0,26442.3,0.109467,0.109162,-0.144854,14,0.00443304,10,-1.58125e-05,-3.83907,0.789368,0.0747434,-0.42237,0.1091617,
2,0,0,1,0,26443.8,0.107969,0.107665,-0.144124,14,0.00419538,10,-1.55172e-05,-3.84126,0.780645,0.0755785,-0.427373,0.107665,
2,0,0,1,0,26445.3,0.106471,0.106202,-0.143911,14,0.003959,10,-1.52836e-05,-3.84191,1.44611,0.0407992,-0.230339,0.106202,
2,0,0,1,0,26446.8,0.104973,0.104644,-0.143359,14,0.00372303,10,-1.50017e-05,-3.84357,1.0705,0.0551142,-0.308834,0.1046443,
2,0,0,1,0,26448.3,0.103474,0.103137,-0.142921,14,0.00348764,10,-1.47405e-05,-3.84491,0.522906,0.112831,-0.627051,0.103137,
2,0,0,1,0,26449.7,0.101976,0.101631,-0.142248,14,0.00325389,10,-1.44568e-05,-3.84695,0.525197,0.112339,-0.621734,0.101631,
2,0,0,1,0,26451.2,0.100478,0.100117,-0.141491,14,0.00302171,10,-1.41657e-05,-3.84927,0.630211,0.0936195,-0.514562,0.100117,
2,0,0,1,0,26452.7,0.0989798,0.098654,-0.140618,14,0.00279026,10,-1.38725e-05,-3.85196,0.67817,0.0869989,-0.475649,0.098654,
2,0,0,1,0,26454.2,0.0974816,0.0971482,-0.139181,14,0.00256034,10,-1.35211e-05,-3.85642,0.45154,0.130664,-0.710498,0.09714821,
2,0,0,1,0,26455.7,0.0959834,0.0956849,-0.138235,14,0.0023319,10,-1.3227e-05,-3.85938,0.491672,0.119999,-0.649097,0.0956849,
2,0,0,1,0,26457.2,0.0944852,0.0941887,-0.136955,14,0.00210559,10,-1.28996e-05,-3.86342,0.468174,0.126022,-0.676574,0.0941887,
2,0,0,1,0,26458.7,0.0929871,0.0926787,-0.136271,14,0.00188031,10,-1.26294e-05,-3.8656,0.74182,0.0795341,-0.423212,0.0926787,
2,0,0,1,0,26460.2,0.0914889,0.0911962,-0.135634,14,0.00165627,10,-1.23693e-05,-3.86763,0.432786,0.136326,-0.719146,0.0911962,
2,0,0,1,0,26461.7,0.0899907,0.0896756,-0.134849,14,0.00143387,10,-1.20927e-05,-3.87015,0.418357,0.141028,-0.737883,0.0896756,
2,0,0,1,0,26463.2,0.0884925,0.0881497,-0.132778,14,0.0012134,10,-1.17044e-05,-3.87687,0.430018,0.137204,-0.713674,0.0881497,
2,0,0,1,0,26464.7,0.0869943,0.0866598,-0.13246,14,0.000994425,10,-1.1479e-05,-3.87791,0.473882,0.124504,-0.642795,0.0866598,
2,0,0,1,0,26466.2,0.0854961,0.0851667,-0.131693,14,0.000776908,10,-1.12158e-05,-3.88044,0.369594,0.159635,-0.818528,0.0851667,
2,0,0,1,0,26467.7,0.083998,0.0837067,-0.130026,14,0.000561268,10,-1.0884e-05,-3.88597,0.351565,0.167821,-0.849235,0.0837067,
2,0,0,1,0,26469.2,0.0824998,0.0821638,-0.128839,14,0.000347235,10,-1.05859e-05,-3.88995,0.385677,0.152978,-0.770046,0.0821638,
2,0,0,1,0,26470.7,0.0810016,0.0806834,-0.128232,14,0.000134812,10,-1.03462e-05,-3.892,0.403237,0.146316,-0.73315,0.0806834,
2,0,0,1,0,26472.2,0.0795034,0.0791957,-0.127029,14,-7.61357e-05,10,-1.00602e-05,-3.8961,0.38653,0.15264,-0.759423,0.0791957,
2,0,0,1,0,26473.7,0.0780052,0.0776665,-0.126394,14,-0.000285757,10,-9.81662e-06,-3.89827,0.491359,0.120075,-0.590633,0.0776665,
2,0,0,1,0,26475.2,0.076507,0.076183,-0.125805,14,-0.000494024,10,-9.58419e-06,-3.9003,0.48747,0.121033,-0.590037,0.076183,
2,0,0,1,0,26476.7,0.0750088,0.0746931,-0.124684,14,-0.000700833,10,-9.313e-06,-3.90419,0.530357,0.111246,-0.539962,0.0746931,
2,0,0,1,0,26478.2,0.0735106,0.0732043,-0.124014,14,-0.000906834,10,-9.07833e-06,-3.90653,0.671834,0.0878193,-0.424257,0.0732043,
2,0,0,1,0,26479.7,0.0720124,0.0716879,-0.122739,14,-0.00111179,10,-8.79893e-06,-3.91102,0.710104,0.0830864,-0.400128,0.0716879,
2,0,0,1,0,26481.2,0.0705142,0.0702065,-0.122518,14,-0.00131558,10,-8.60158e-06,-3.9118,0.636421,0.092706,-0.445063,0.0702065,
2,0,0,1,0,26482.7,0.069016,0.0686795,-0.121429,14,-0.00151811,10,-8.33968e-06,-3.91568,0.617727,0.0955114,-0.456836,0.0686795,
2,0,0,1,0,26484.2,0.0675178,0.0672226,-0.121476,14,-0.00172023,10,-8.16593e-06,-3.91551,0.861084,0.0685183,-0.324315,0.0672226,
2,0,0,1,0,26485.7,0.0660196,0.0657115,-0.121457,14,-0.00192152,10,-7.98115e-06,-3.91558,0.653961,0.0902194,-0.424487,0.0657115,
2,0,0,1,0,26487.2,0.0645214,0.0642194,-0.11971,14,-0.00212202,10,-7.6877e-06,-3.92187,0.818525,0.0720809,-0.337466,0.06421943,
2,0,0,1,0,26488.7,0.0630233,0.0627021,-0.118838,14,-0.00232098,10,-7.4514e-06,-3.92504,0.679815,0.0867884,-0.404482,0.0627021,
2,0,0,1,0,26490.2,0.0615251,0.0611878,-0.118415,14,-0.00251885,10,-7.24558e-06,-3.92659,0.660327,0.0893496,-0.414203,0.0611878,
2,0,0,1,0,26491.7,0.0600269,0.0597149,-0.11814,14,-0.00271597,10,-7.05472e-06,-3.9276,0.806735,0.0731343,-0.337511,0.0597149,
2,0,0,1,0,26493.2,0.0585287,0.0581847,-0.117044,14,-0.00291202,10,-6.81019e-06,-3.93165,0.430561,0.13703,-0.626568,0.0581847,
2,0,0,1,0,26494.7,0.0570305,0.0567012,-0.116927,14,-0.00310734,10,-6.62993e-06,-3.93208,0.954277,0.0618269,-0.282357,0.0567012,
2,0,0,1,0,26496.2,0.0555323,0.0552187,-0.115963,14,-0.00330117,10,-6.40332e-06,-3.93568,1.05119,0.0561268,-0.255318,0.0552187,
2,0,0,1,0,26497.7,0.0540342,0.0536812,-0.116155,14,-0.00349479,10,-6.23533e-06,-3.93496,0.882523,0.0668538,-0.301996,0.0536812,
2,0,0,1,0,26499.2,0.052536,0.0521521,-0.116369,14,-0.00368822,10,-6.06891e-06,-3.93416,0.893965,0.0659981,-0.296675,0.0521521,
2,0,0,1,0,26500.7,0.0510378,0.0507397,-0.115265,14,-0.00388065,10,-5.84853e-06,-3.9383,0.533955,0.110496,-0.495016,0.0507397,
2,0,0,1,0,26502.2,0.0495396,0.0492254,-0.114448,14,-0.00407134,10,-5.63377e-06,-3.94139,0.434392,0.135822,-0.605521,0.0492254,
2,0,0,1,0,26503.7,0.0480414,0.047761,-0.113901,14,-0.00426149,10,-5.44002e-06,-3.94347,0.799468,0.073799,-0.326647,0.047761,
2,0,0,1,0,26505.2,0.0465432,0.0462297,-0.112736,14,-0.00445051,10,-5.21177e-06,-3.94794,1.18222,0.049906,-0.21992,0.0462297,
2,0,0,1,0,26506.7,0.045045,0.044691,-0.112562,14,-0.00463889,10,-5.03049e-06,-3.94861,0.831797,0.0709308,-0.312296,0.044691,
2,0,0,1,0,26508.2,0.0435468,0.043198,-0.111685,14,-0.00482645,10,-4.82458e-06,-3.952,1.08041,0.054609,-0.239052,0.043198,
2,0,0,1,0,26509.7,0.0420486,0.0417516,-0.111568,14,-0.00501354,10,-4.65814e-06,-3.95246,1.52869,0.0385951,-0.168572,0.0417516,
2,0,0,1,0,26511.2,0.0405504,0.0402352,-0.111773,14,-0.00520004,10,-4.49722e-06,-3.95166,0.80294,0.07348,-0.317932,0.0402352,
2,0,0,1,0,26512.7,0.0390522,0.0386732,-0.110761,14,-0.00538608,10,-4.2835e-06,-3.95561,0.527065,0.111941,-0.483036,0.0386732,
2,0,0,1,0,26514.2,0.037554,0.03723,-0.109664,14,-0.0055708,10,-4.08278e-06,-3.95994,0.60266,0.0978993,-0.420451,0.03723,
2,0,0,1,0,26515.7,0.0360558,0.0357285,-0.109091,14,-0.00575438,10,-3.89764e-06,-3.96221,0.602192,0.0979754,-0.420065,0.0357285,
2,0,0,1,0,26517.2,0.0345576,0.0342248,-0.108543,14,-0.00593722,10,-3.71487e-06,-3.9644,0.593891,0.0993449,-0.421768,0.0342248,
2,0,0,1,0,26518.7,0.0330594,0.0327095,-0.108205,14,-0.00611937,10,-3.53934e-06,-3.96575,0.383517,0.153839,-0.649519,0.0327095,
2,0,0,1,0,26520.2,0.0315613,0.0312409,-0.107611,14,-0.00630035,10,-3.36186e-06,-3.96814,0.515854,0.114373,-0.481208,0.0312409,
2,0,0,1,0,26521.7,0.0300631,0.0297447,-0.107257,14,-0.00647982,10,-3.19033e-06,-3.96957,0.880653,0.0669957,-0.280193,0.0297447,
2,0,0,1,0,26523.2,0.0285649,0.0282632,-0.106986,14,-0.00665925,10,-3.02377e-06,-3.97067,1.19935,0.0491931,-0.205069,0.0282632,
2,0,0,1,0,26524.7,0.0270667,0.0267118,-0.106788,14,-0.00683845,10,-2.85251e-06,-3.97148,2.90944,0.0202788,-0.0841349,0.0267118,
2,0,0,1,0,26526.2,0.0255685,0.0252581,-0.106601,14,-0.00701693,10,-2.69253e-06,-3.97224,1.11609,0.052863,-0.219307,0.0252581,
2,0,0,1,0,26527.7,0.0240703,0.0237172,-0.105419,14,-0.00719456,10,-2.50024e-06,-3.97708,1.11071,0.0531191,-0.220032,0.0237172,
2,0,0,1,0,26529.2,0.0225722,0.0222529,-0.105664,14,-0.00737215,10,-2.35133e-06,-3.97607,-4.4543,-0.0132456,0.0544626,0.0222529,
2,0,0,1,0,26530.7,0.021074,0.020745,-0.10519,14,-0.00754943,10,-2.18216e-06,-3.97803,16.3534,0.00360781,-0.0148798,0.020745,
2,0,0,1,0,26532.1,0.0195758,0.0192149,-0.105474,14,-0.00772623,10,-2.02666e-06,-3.97686,0.856659,0.0688722,-0.282734,0.0192149,
2,0,0,1,0,26533.6,0.0180776,0.0177398,-0.104442,14,-0.00790268,10,-1.85278e-06,-3.98112,-9.45202,-0.00624205,0.0256209,0.0177398,
2,0,0,1,0,26535.1,0.0165794,0.01625,-0.105307,14,-0.00807895,10,-1.71123e-06,-3.97754,-36.5476,-0.00161433,0.00662509,0.01625,
2,0,0,1,0,26536.6,0.0150812,0.0147388,-0.105705,14,-0.00825545,10,-1.55796e-06,-3.97591,5.63612,0.0104682,-0.0429361,0.0147388,
2,0,0,1,0,26538.1,0.013583,0.0132405,-0.105291,14,-0.00843221,10,-1.3941e-06,-3.97761,-1.35022,-0.0436965,0.179156,0.0132405,
2,0,0,1,0,26539.6,0.0120848,0.0117686,-0.104943,14,-0.00860866,10,-1.23503e-06,-3.97905,-1.67777,-0.0351658,0.14511,0.0117686,
2,0,0,1,0,26541.1,0.0105866,0.0102872,-0.105144,14,-0.00878537,10,-1.08164e-06,-3.97821,-1.45838,-0.0404557,0.166968,0.0102872,
2,0,0,1,0,26542.6,0.00908843,0.00876659,-0.106115,14,-0.00896264,10,-9.30266e-07,-3.97422,-1.05874,-0.0557267,0.230478,0.00876659,
2,0,0,1,0,26544.1,0.00759024,0.0072693,-0.107029,14,-0.00914087,10,-7.78025e-07,-3.9705,-2.97014,-0.0198644,0.0824464,0.0072693,
2,0,0,1,0,26545.6,0.00609203,0.00575502,-0.10709,14,-0.00931953,10,-6.16304e-07,-3.97025,-0.807026,-0.0731079,0.305455,0.00575502,
2,0,0,1,0,26547.1,0.00459384,0.0042598,-0.107712,14,-0.00949836,10,-4.58832e-07,-3.96774,-0.736381,-0.0801215,0.336008,0.0042598,
2,0,0,1,0,26548.6,0.00309563,0.00275617,-0.108184,14,-0.00967846,10,-2.98173e-07,-3.96584,-0.487475,-0.121032,0.511401,0.00275617,
2,0,0,1,0,26550.1,0.00159744,0.00124613,-0.108999,14,-0.00986183,10,-1.35826e-07,-3.96258, , , ,0.00124613,
2,0,0,1,0,26551.5,0.000199235,-0.000136292,-0.109422,14,-0.0100318,10,1.49133e-08,-3.9609, , , ,-0.000136292,