File: Figure_codes/Fig_3-5/rawdata_trumpetplot_data/after 10th/20221101_1-115_003_TrumpetPlot_ParaChange_from10_every3_04_CV_C01_3.csv
mode,ox/red,error,control changes,counter inc.,time/s,control/V,Ewe/V,<I>/mA,cycle number,(Q-Qo)/C,I Range,P/W,log(|I|),Tafel slope mV/dec,alpha_eff,dI/d(E-IR),E-IR/V,
2,0,0,1,0,6970.41,2.44065e-05,-0.000287149,-0.370344,4,0.0000000E+000,10,1.06344e-07,-3.4314, , , ,-0.0002871489,
2,1,0,1,0,6970.53,0.00129787,0.000922775,0.224814,4,1.02529e-05,10,2.07453e-07,-3.64818, , , ,0.000922775,
2,1,0,1,0,6970.68,0.00279606,0.0025049,0.320637,4,5.56938e-05,10,8.03165e-07,-3.49399,0.0101665,5.80339,52.3253,0.0025049,
2,1,0,1,0,6970.83,0.00429425,0.00398099,0.343423,4,0.000108183,10,1.36716e-06,-3.46417,0.0498638,1.18322,15.7141,0.00398099,
2,1,0,1,0,6970.98,0.00579244,0.00547404,0.362951,4,0.000164272,10,1.98681e-06,-3.44015,0.0582225,1.01335,14.3414,0.00547404,
2,1,0,1,0,6971.13,0.00729063,0.00699996,0.387067,4,0.000223622,10,2.70946e-06,-3.41221,0.0701812,0.840681,12.6065,0.00699996,
2,1,0,1,0,6971.28,0.00878882,0.00847181,0.405006,4,0.000285764,10,3.43113e-06,-3.39254,0.0906209,0.651064,10.1975,0.00847181,
2,1,0,1,0,6971.43,0.010287,0.00999137,0.420962,4,0.000350327,10,4.20599e-06,-3.37576,0.109503,0.538797,8.7721,0.00999137,
2,1,0,1,0,6971.58,0.0117852,0.0115003,0.43051,4,0.000416947,10,4.95101e-06,-3.36602,0.112581,0.524066,8.78974,0.0115003,
2,1,0,1,0,6971.73,0.0132838,0.0129535,0.44396,4,0.000485322,10,5.75085e-06,-3.35266,0.111907,0.527226,9.19647,0.0129535,
2,1,0,1,0,6971.88,0.0147814,0.0144587,0.455529,4,0.000555494,10,6.58636e-06,-3.34148,0.118977,0.495893,8.8075,0.0144587,
2,1,0,1,0,6972.03,0.0162789,0.0159933,0.465985,4,0.000627772,10,7.45263e-06,-3.33163,0.159081,0.370881,6.72884,0.0159933,
2,1,0,1,0,6972.18,0.017778,0.0174577,0.476992,4,0.000701516,10,8.32718e-06,-3.32149,0.155476,0.379481,7.0747,0.0174577,
2,1,0,1,0,6972.33,0.0192761,0.0189539,0.488903,4,0.000776472,10,9.26663e-06,-3.31078,0.173421,0.340212,6.46282,0.0189539,
2,1,0,1,0,6972.48,0.0207743,0.0204385,0.498125,4,0.000853246,10,1.01809e-05,-3.30266,0.157067,0.375635,7.27875,0.0204385,
2,1,0,1,0,6972.63,0.0222725,0.0219538,0.509674,4,0.000931634,10,1.11893e-05,-3.29271,0.17414,0.338808,6.72812,0.0219538,
2,1,0,1,0,6972.78,0.0237707,0.0235063,0.519244,4,0.00101151,10,1.22055e-05,-3.28463,0.182441,0.323392,6.56025,0.0235063,
2,1,0,1,0,6972.93,0.0252689,0.024959,0.526924,4,0.00109266,10,1.31515e-05,-3.27825,0.178091,0.33129,6.86382,0.024959,
2,1,0,1,0,6973.08,0.0267671,0.0264754,0.538843,4,0.00117552,10,1.42661e-05,-3.26854,0.152749,0.386254,8.1115,0.0264754,
2,1,0,1,0,6973.23,0.0282662,0.0279265,0.551741,4,0.00126012,10,1.54082e-05,-3.25826,0.161609,0.365078,7.84653,0.0279265,
2,1,0,1,0,6973.38,0.0297635,0.0294679,0.560378,4,0.00134619,10,1.65132e-05,-3.25152,0.18735,0.314919,6.8873,0.0294679,
2,1,0,1,0,6973.53,0.031261,0.0309474,0.566903,4,0.00143365,10,1.75442e-05,-3.24649,0.178063,0.331344,7.39049,0.0309474,
2,1,0,1,0,6973.68,0.0327599,0.032455,0.580327,4,0.00152268,10,1.88345e-05,-3.23633,0.181622,0.324851,7.35155,0.032455,
2,1,0,1,0,6973.83,0.034258,0.0339587,0.593221,4,0.00161346,10,2.0145e-05,-3.22678,0.169671,0.347732,8.03694,0.0339587,
2,1,0,1,0,6973.98,0.0357562,0.0354496,0.602538,4,0.00170587,10,2.13597e-05,-3.22002,0.230323,0.256162,6.00456,0.0354496,
2,1,0,1,0,6974.13,0.0372544,0.0369299,0.613957,4,0.00179998,10,2.26734e-05,-3.21186,0.196666,0.300002,7.1968,0.0369299,
2,1,0,1,0,6974.28,0.0387526,0.0384474,0.623297,4,0.00189541,10,2.39641e-05,-3.2053,0.185134,0.318687,7.78482,0.03844738,
2,1,0,1,0,6974.43,0.0402508,0.0399256,0.637564,4,0.00199279,10,2.54551e-05,-3.19548,0.196644,0.300035,7.47043,0.0399256,
2,1,0,1,0,6974.58,0.041749,0.0414367,0.648055,4,0.00209202,10,2.68532e-05,-3.18839,0.214507,0.275049,6.93118,0.0414367,
2,1,0,1,0,6974.73,0.0432472,0.0429721,0.659802,4,0.00219274,10,2.83531e-05,-3.18059,0.228166,0.258584,6.64565,0.0429721,
2,1,0,1,0,6974.88,0.0447458,0.044466,0.66823,4,0.00229481,10,2.97135e-05,-3.17507,0.214547,0.274998,7.1652,0.044466,
2,1,0,1,0,6975.03,0.0462433,0.045926,0.680681,4,0.0023987,10,3.1261e-05,-3.16706,0.200317,0.294533,7.79982,0.045926,
2,1,0,1,0,6975.18,0.0477409,0.0474017,0.690046,4,0.00250425,10,3.27094e-05,-3.16112,0.21358,0.276243,7.43981,0.0474017,
2,1,0,1,0,6975.33,0.0492399,0.0489539,0.699459,4,0.0026114,10,3.42412e-05,-3.15524,0.254501,0.231826,6.34501,0.0489539,
2,1,0,1,0,6975.48,0.0507381,0.0504607,0.707283,4,0.00271978,10,3.569e-05,-3.15041,0.243928,0.241875,6.71599,0.05046073,
2,1,0,1,0,6975.63,0.0522363,0.0519188,0.722185,4,0.00282975,10,3.7495e-05,-3.14135,0.217039,0.271841,7.64931,0.0519188,
2,1,0,1,0,6975.78,0.0537345,0.0534362,0.733728,4,0.00294155,10,3.92077e-05,-3.13446,0.259345,0.227496,6.48445,0.0534362,
2,1,0,1,0,6975.93,0.0552327,0.0549399,0.744514,4,0.00305496,10,4.09035e-05,-3.12813,0.313016,0.188489,5.43724,0.0549399,
2,1,0,1,0,6976.08,0.0567309,0.0563831,0.747691,4,0.00316964,10,4.21572e-05,-3.12628,0.262013,0.22518,6.59403,0.0563831,
2,1,0,1,0,6976.23,0.0582291,0.0579101,0.761955,4,0.00328557,10,4.41249e-05,-3.11807,0.265514,0.222211,6.61158,0.0579101,
2,1,0,1,0,6976.38,0.0597282,0.0594239,0.770609,4,0.00340325,10,4.57926e-05,-3.11317,0.253069,0.233138,7.0136,0.0594239,
2,1,0,1,0,6976.53,0.0612255,0.0609566,0.780625,4,0.00352234,10,4.75842e-05,-3.10756,0.30968,0.190519,5.79348,0.0609566,
2,1,0,1,0,6976.68,0.062723,0.062419,0.788719,4,0.00364284,10,4.92311e-05,-3.10308,0.269814,0.218669,6.7389,0.062419,
2,1,0,1,0,6976.83,0.0642218,0.0639692,0.798059,4,0.00376433,10,5.10512e-05,-3.09797,0.257939,0.228736,7.14895,0.0639692,
2,1,0,1,0,6976.98,0.06572,0.0654411,0.807066,4,0.00388746,10,5.28153e-05,-3.09309,0.270418,0.218181,6.85401,0.0654411,
2,1,0,1,0,6977.13,0.0672182,0.0668811,0.82012,4,0.00401227,10,5.48505e-05,-3.08612,0.301979,0.195378,6.22947,0.06688112,
2,1,0,1,0,6977.28,0.0687164,0.0683986,0.825906,4,0.00413819,10,5.64908e-05,-3.08307,0.390332,0.151153,4.86375,0.0683986,
2,1,0,1,0,6977.43,0.0702146,0.0698884,0.832649,4,0.00426501,10,5.81925e-05,-3.07954,0.377616,0.156243,5.08396,0.0698884,
2,1,0,1,0,6977.58,0.0717128,0.0714027,0.842584,4,0.00439315,10,6.01628e-05,-3.07439,0.308402,0.191309,6.26436,0.0714027,
2,1,0,1,0,6977.73,0.073211,0.0729233,0.849377,4,0.00452263,10,6.19394e-05,-3.0709,0.346637,0.170207,5.64013,0.0729233,
2,1,0,1,0,6977.88,0.0747092,0.0743994,0.857618,4,0.00465333,10,6.38063e-05,-3.06671,0.423445,0.139333,4.65722,0.0743994,
2,1,0,1,0,6978.03,0.0762078,0.0758812,0.860679,4,0.00478499,10,6.53094e-05,-3.06516,0.335067,0.176084,5.94067,0.0758812,
2,1,0,1,0,6978.18,0.0777053,0.077377,0.873584,4,0.00491777,10,6.75953e-05,-3.0587,0.334985,0.176127,5.98528,0.077377,
2,1,0,1,0,6978.33,0.0792029,0.0789128,0.882295,4,0.00505201,10,6.96244e-05,-3.05439,0.329956,0.178812,6.13924,0.0789128,
2,1,0,1,0,6978.48,0.0807019,0.0803875,0.887875,4,0.00518748,10,7.1374e-05,-3.05165,0.500553,0.11787,4.07101,0.0803875,
2,1,0,1,0,6978.62,0.0822001,0.0819209,0.89415,4,0.00532395,10,7.32495e-05,-3.04859,0.407195,0.144894,5.05757,0.08192087,
2,1,0,1,0,6978.77,0.0836983,0.0833651,0.901947,4,0.00546131,10,7.51909e-05,-3.04482,0.423008,0.139477,4.91811,0.0833651,
2,1,0,1,0,6978.92,0.0851965,0.0848815,0.911405,4,0.00560004,10,7.73614e-05,-3.04029,0.420898,0.140176,4.99762,0.0848815,
2,1,0,1,0,6979.07,0.0866947,0.0863597,0.919794,4,0.00574016,10,7.94332e-05,-3.03631,0.4044,0.145895,5.24106,0.0863597,
2,1,0,1,0,6979.22,0.0881929,0.0878772,0.929567,4,0.0058816,10,8.16877e-05,-3.03172,0.367344,0.160612,5.83873,0.0878772,
2,1,0,1,0,6979.37,0.0896911,0.0893989,0.940026,4,0.00602428,10,8.40373e-05,-3.02686,0.287778,0.205019,7.53644,0.0893989,
2,1,0,1,0,6979.52,0.0911902,0.0908791,0.955471,4,0.00616884,10,8.68324e-05,-3.01978,0.249846,0.236145,8.77307,0.0908791,
2,1,0,1,0,6979.67,0.0926875,0.0924,0.965385,4,0.0063155,10,8.92016e-05,-3.0153,0.23761,0.248307,9.35122,0.09239997,
2,1,0,1,0,6979.82,0.094185,0.0938309,0.978033,4,0.00646384,10,9.17697e-05,-3.00965,0.247525,0.23836,9.11041,0.0938309,
2,1,0,1,0,6979.97,0.0956838,0.0953668,0.988647,4,0.0066141,10,9.42842e-05,-3.00496,0.20689,0.285175,11.0632,0.0953668,
2,1,0,1,0,6980.12,0.097182,0.0968715,1.00706,4,0.00676661,10,9.75554e-05,-2.99694,0.186972,0.315555,12.3972,0.09687154,
2,1,0,1,0,6980.27,0.0986802,0.0983678,1.02614,4,0.00692186,10,0.000100939,-2.98879,0.198121,0.297798,11.9189,0.0983678,
2,1,0,1,0,6980.42,0.100178,0.0998417,1.04423,4,0.00707975,10,0.000104258,-2.9812,0.205343,0.287324,11.6922,0.0998417,
2,1,0,1,0,6980.57,0.101677,0.101396,1.0577,4,0.00724006,10,0.000107246,-2.97564,0.217898,0.270768,11.2225,0.101396,
2,1,0,1,0,6980.72,0.103175,0.10288,1.07974,4,0.00740305,10,0.000111083,-2.96668,0.184954,0.318998,13.4533,0.1028798,
2,1,0,1,0,6980.87,0.104673,0.104388,1.10249,4,0.0075692,10,0.000115087,-2.95762,0.177065,0.333211,14.3003,0.104388,
2,1,0,1,0,6981.02,0.106171,0.105901,1.12078,4,0.00773864,10,0.000118691,-2.95048,0.211813,0.278548,12.1443,0.105901,
2,1,0,1,0,6981.17,0.10767,0.107342,1.13777,4,0.00791099,10,0.000122131,-2.94394,0.212929,0.277087,12.3261,0.107342,
2,1,0,1,0,6981.32,0.109167,0.108875,1.15744,4,0.00808573,10,0.000126016,-2.9365,0.205173,0.287562,13.007,0.108875,
2,1,0,1,0,6981.47,0.110665,0.11036,1.17748,4,0.00826353,10,0.000129946,-2.92905,0.217687,0.271031,12.4485,0.11036,
2,1,0,1,0,6981.62,0.112164,0.111863,1.19415,4,0.00844424,10,0.000133581,-2.92294,0.268975,0.219352,10.195,0.1118625,
2,1,0,1,0,6981.77,0.113662,0.113382,1.21048,4,0.00862737,10,0.000137247,-2.91704,0.266517,0.221374,10.4343,0.113382,
2,1,0,1,0,6981.92,0.11516,0.114854,1.22422,4,0.00881225,10,0.000140607,-2.91214,0.289585,0.20374,9.73718,0.1148539,
2,1,0,1,0,6982.07,0.116658,0.116344,1.24294,4,0.00899978,10,0.000144609,-2.90555,0.2736,0.215643,10.4091,0.116344,
2,1,0,1,0,6982.22,0.118157,0.117843,1.25545,4,0.00918975,10,0.000147947,-2.9012,0.311103,0.189648,9.26961,0.1178432,
2,1,0,1,0,6982.37,0.119655,0.119379,1.26797,4,0.00938159,10,0.000151368,-2.89689,0.372722,0.158295,7.83586,0.119379,
2,1,0,1,0,6982.52,0.121153,0.120853,1.27649,4,0.009575,10,0.000154267,-2.89398,0.339583,0.173742,8.67953,0.120853,
2,1,0,1,0,6982.67,0.122652,0.122329,1.29409,4,0.00977059,10,0.000158305,-2.88803,0.281433,0.209641,10.575,0.122329,
2,1,0,1,0,6982.82,0.124149,0.123859,1.30729,4,0.00996813,10,0.00016192,-2.88363,0.303008,0.194714,9.92186,0.123859,
2,1,0,1,0,6982.97,0.125647,0.125338,1.32038,4,0.0101678,10,0.000165493,-2.8793,0.354104,0.166618,8.57483,0.125338,
2,1,0,1,0,6983.12,0.127146,0.126827,1.32714,4,0.0103695,10,0.000168318,-2.87708,0.362149,0.162917,8.4679,0.126827,
2,1,0,1,0,6983.27,0.128644,0.128325,1.34575,4,0.0105727,10,0.000172694,-2.87103,0.363158,0.162464,8.53416,0.128325,
2,1,0,1,0,6983.42,0.130142,0.129843,1.35977,4,0.0107782,10,0.000176556,-2.86653,0.391547,0.150684,7.96444,0.129843,
2,1,0,1,0,6983.57,0.13164,0.131303,1.36654,4,0.0109855,10,0.000179431,-2.86438,0.7419,0.0795255,4.22808,0.131303,
2,1,0,1,0,6983.72,0.133139,0.13283,1.3725,4,0.0111939,10,0.000182309,-2.86249,1.18637,0.0497317,2.66293,0.13283,
2,1,0,1,0,6983.87,0.134637,0.134305,1.37525,4,0.0114025,10,0.000184704,-2.86162,4.7969,0.0122996,0.660539,0.134305,
2,1,0,1,0,6984.02,0.136135,0.135805,1.37606,4,0.0116116,10,0.000186877,-2.86136,-1.41191,-0.0417874,-2.23428,0.135805,
2,1,0,1,0,6984.17,0.137633,0.137322,1.37213,4,0.0118203,10,0.000188423,-2.86261,-0.414742,-0.142257,-7.56177,0.1373218,
2,1,0,1,0,6984.32,0.139132,0.138836,1.35701,4,0.0120274,10,0.000188402,-2.86742,-0.278418,-0.211912,-11.1541,0.138836,
2,1,0,1,0,6984.47,0.140629,0.14031,1.33218,4,0.0122315,10,0.000186917,-2.87544,-0.186268,-0.316748,-16.4103,0.14031,
2,1,0,1,0,6984.62,0.142127,0.141833,1.30561,4,0.012432,10,0.000185178,-2.88419,-0.155839,-0.378597,-19.1811,0.141833,
2,1,0,1,0,6984.77,0.143626,0.143271,1.27241,4,0.0126283,10,0.000182299,-2.89537,-0.113129,-0.521527,-25.7481,0.143271,
2,1,0,1,0,6984.92,0.145124,0.1448,1.23012,4,0.0128187,10,0.00017812,-2.91005,-0.0939099,-0.628261,-30.0946,0.1448,
2,1,0,1,0,6985.07,0.146622,0.146327,1.18133,4,0.0130023,10,0.00017286,-2.92763,-0.0876174,-0.673382,-31.0428,0.146327,
2,1,0,1,0,6985.22,0.14812,0.147857,1.13531,4,0.0131788,10,0.000167863,-2.94489,-0.0803747,-0.734062,-32.4613,0.147857,
2,1,0,1,0,6985.37,0.149619,0.149313,1.08801,4,0.0133482,10,0.000162454,-2.96337,-0.075028,-0.786373,-33.3356,0.149313,
2,1,0,1,0,6985.52,0.151117,0.150809,1.03794,4,0.01351,10,0.00015653,-2.98383,-0.0726106,-0.812554,-32.848,0.150809,
2,1,0,1,0,6985.67,0.152615,0.152314,0.986784,4,0.0136646,10,0.000150301,-3.00578,-0.0728257,-0.810154,-31.3314,0.152314,
2,1,0,1,0,6985.82,0.154114,0.153797,0.94586,4,0.013812,10,0.00014547,-3.02417,-0.0775353,-0.760943,-28.142,0.153797,
2,1,0,1,0,6985.97,0.155612,0.155317,0.903101,4,0.013953,10,0.000140267,-3.04426,-0.0798786,-0.738621,-26.0715,0.155317,
2,1,0,1,0,6986.12,0.157109,0.156824,0.864067,4,0.0140883,10,0.000135507,-3.06345,-0.0830634,-0.710301,-23.9961,0.156824,
2,1,0,1,0,6986.27,0.158608,0.158274,0.831553,4,0.0142182,10,0.000131614,-3.08011,-0.0912791,-0.646369,-21.0516,0.158274,
2,1,0,1,0,6986.42,0.160106,0.159802,0.797502,4,0.0143428,10,0.000127443,-3.09827,-0.0958216,-0.615728,-19.2972,0.159802,
2,1,0,1,0,6986.57,0.161604,0.16129,0.773677,4,0.0144636,10,0.000124787,-3.11144,-0.103078,-0.572385,-17.282,0.16129,
2,1,0,1,0,6986.72,0.163102,0.162773,0.748584,4,0.0145804,10,0.000121849,-3.12576,-0.111968,-0.526937,-15.4525,0.162773,
2,1,0,1,0,6986.86,0.164601,0.164282,0.728602,4,0.0146938,10,0.000119696,-3.13751,-0.12241,-0.481987,-13.7089,0.164282,
2,1,0,1,0,6987.01,0.166099,0.165798,0.707504,4,0.0148039,10,0.000117303,-3.15027,-0.138678,-0.425445,-11.7971,0.165798,
2,1,0,1,0,6987.16,0.167597,0.167321,0.691414,4,0.0149115,10,0.000115688,-3.16026,-0.164902,-0.357788,-9.65552,0.1673207,
2,1,0,1,0,6987.31,0.169095,0.168794,0.676875,4,0.0150169,10,0.000114252,-3.16949,-0.154758,-0.38124,-10.092,0.168794,
2,1,0,1,0,6987.46,0.170594,0.170315,0.662753,4,0.0151202,10,0.000112877,-3.17865,-0.163761,-0.360281,-9.34098,0.170315,
2,1,0,1,0,6987.61,0.172091,0.171784,0.646867,4,0.0152212,10,0.000111121,-3.18919,-0.184314,-0.320106,-8.14979,0.171784,
2,1,0,1,0,6987.76,0.173589,0.173324,0.638708,4,0.0153205,10,0.000110703,-3.1947,-0.23279,-0.253447,-6.3383,0.173324,
2,1,0,1,0,6987.91,0.175088,0.174772,0.629148,4,0.0154184,10,0.000109958,-3.20125,-0.228713,-0.257965,-6.32013,0.174772,
2,1,0,1,0,6988.06,0.176586,0.176317,0.619054,4,0.015515,10,0.00010915,-3.20827,-0.240289,-0.245537,-5.94202,0.176317,
2,1,0,1,0,6988.21,0.178084,0.177791,0.610382,4,0.01561,10,0.000108521,-3.2144,-0.263519,-0.223893,-5.33974,0.177791,
2,1,0,1,0,6988.36,0.179582,0.17928,0.603886,4,0.0157039,10,0.000108265,-3.21904,-0.313184,-0.188388,-4.45534,0.17928,
2,1,0,1,0,6988.51,0.181081,0.180768,0.598451,4,0.0157968,10,0.000108181,-3.22297,-0.26037,-0.2266,-5.29057,0.180768,
2,1,0,1,0,6988.66,0.182579,0.18229,0.591811,4,0.015889,10,0.000107881,-3.22782,-0.265649,-0.222098,-5.13773,0.18229,
2,1,0,1,0,6988.81,0.184077,0.183763,0.58563,4,0.0159801,10,0.000107617,-3.23238,-0.382098,-0.154411,-3.54239,0.183763,
2,1,0,1,0,6988.96,0.185576,0.185329,0.583651,4,0.0160703,10,0.000108167,-3.23385,-0.388748,-0.151769,-3.45354,0.185329,
2,1,0,1,0,6989.11,0.187074,0.18677,0.578859,4,0.0161599,10,0.000108113,-3.23743,-0.443678,-0.132979,-2.99316,0.18677,
2,1,0,1,0,6989.26,0.188571,0.188239,0.573736,4,0.0162489,10,0.000107999,-3.24129,-0.508005,-0.11614,-2.5966,0.1882389,
2,1,0,1,0,6989.41,0.19007,0.189781,0.568163,4,0.0163372,10,0.000107827,-3.24553,-0.503508,-0.117178,-2.60054,0.189781,
2,1,0,1,0,6989.56,0.191568,0.191247,0.564918,4,0.0164247,10,0.000108039,-3.24801,-0.536423,-0.109988,-2.42953,0.191247,
2,1,0,1,0,6989.71,0.193066,0.19276,0.561019,4,0.0165119,10,0.000108142,-3.25102,-1.60343,-0.036796,-0.803121,0.19276,
2,1,0,1,0,6989.86,0.194564,0.194224,0.559264,4,0.0165987,10,0.000108623,-3.25238,-0.550953,-0.107087,-2.33757,0.194224,
2,1,0,1,0,6990.01,0.196063,0.195772,0.553758,4,0.0166851,10,0.00010841,-3.25668,-0.511257,-0.115402,-2.50515,0.195772,
2,1,0,1,0,6990.16,0.197561,0.197292,0.552191,4,0.0167707,10,0.000108943,-3.25791,-0.45935,-0.128442,-2.77411,0.197292,
2,1,0,1,0,6990.31,0.199059,0.198734,0.549732,4,0.016856,10,0.000109251,-3.25985,-0.772321,-0.0763931,-1.6387,0.198734,
2,1,0,1,0,6990.46,0.200557,0.200229,0.549086,4,0.016941,10,0.000109943,-3.26036,-0.757282,-0.0779102,-1.66906,0.200229,
2,1,0,1,0,6990.61,0.202056,0.201769,0.545729,4,0.0170257,10,0.000110111,-3.26302,-0.615019,-0.0959319,-2.03829,0.201769,
2,1,0,1,0,6990.76,0.203553,0.203252,0.542184,4,0.01711,10,0.0001102,-3.26585,-0.892236,-0.066126,-1.40289,0.203252,
2,1,0,1,0,6990.91,0.205051,0.204702,0.539659,4,0.0171938,10,0.000110469,-3.26788,7.96441,0.00740796,0.157457,0.204702,
2,1,0,1,0,6991.06,0.20655,0.206241,0.538952,4,0.0172774,10,0.000111154,-3.26845,-1.44017,-0.0409675,-0.861976,0.2062408,
2,1,0,1,0,6991.21,0.208048,0.20776,0.537398,4,0.0173612,10,0.00011165,-3.2697,-0.58796,-0.100347,-2.09833,0.20776,
2,1,0,1,0,6991.36,0.209546,0.209246,0.536326,4,0.0174443,10,0.000112224,-3.27057,-0.718014,-0.0821711,-1.7207,0.209246,
2,1,0,1,0,6991.51,0.211044,0.210742,0.533166,4,0.017527,10,0.000112361,-3.27314,-0.725994,-0.0812679,-1.68901,0.210742,
2,1,0,1,0,6991.66,0.212543,0.212229,0.532872,4,0.0176095,10,0.000113091,-3.27338,-0.785876,-0.0750755,-1.55606,0.212229,
2,1,0,1,0,6991.81,0.214041,0.213747,0.530266,4,0.0176918,10,0.000113343,-3.27551,-0.977449,-0.0603612,-1.25058,0.213747,
2,1,0,1,0,6991.96,0.215539,0.215249,0.530127,4,0.0177738,10,0.000114109,-3.27562,-0.999242,-0.0590448,-1.22055,0.215249,
2,1,0,1,0,6992.11,0.217038,0.216725,0.526502,4,0.0178555,10,0.000114106,-3.2786,-1.04694,-0.0563546,-1.15982,0.216725,
2,1,0,1,0,6992.26,0.218535,0.218205,0.524708,4,0.017937,10,0.000114494,-3.28008,14.7164,0.00400914,0.0821636,0.2182046,
2,1,0,1,0,6992.41,0.220033,0.219725,0.523678,4,0.0180184,10,0.000115065,-3.28094,-1.21194,-0.0486822,-0.994251,0.219725,
2,1,0,1,0,6992.56,0.221532,0.221265,0.523152,4,0.0180995,10,0.000115755,-3.28137,-0.979024,-0.0602641,-1.22903,0.221265,
2,1,0,1,0,6992.71,0.22303,0.222708,0.517984,4,0.0181803,10,0.000115359,-3.28568,-1.47659,-0.0399569,-0.811266,0.222708,
2,1,0,1,0,6992.86,0.224528,0.224239,0.519804,4,0.0182609,10,0.00011656,-3.28416,-0.940926,-0.0627042,-1.27038,0.2242391,
2,1,0,1,0,6993.01,0.226026,0.225747,0.517286,4,0.0183414,10,0.000116776,-3.28627,-1.48879,-0.0396296,-0.801413,0.225747,
2,1,0,1,0,6993.16,0.227525,0.227237,0.516617,4,0.0184216,10,0.000117395,-3.28683,-0.594169,-0.0992984,-2.00182,0.227237,
2,1,0,1,0,6993.31,0.229023,0.228703,0.513941,4,0.0185017,10,0.00011754,-3.28909,-0.786376,-0.0750277,-1.51112,0.228703,
2,1,0,1,0,6993.46,0.230521,0.230196,0.513193,4,0.0185814,10,0.000118135,-3.28972,-2.82035,-0.0209194,-0.421033,0.230196,
2,1,0,1,0,6993.61,0.232019,0.231714,0.51439,4,0.0186611,10,0.000119191,-3.28871,-1.63807,-0.0360181,-0.723261,0.231714,
2,1,0,1,0,6993.76,0.233518,0.233213,0.512246,4,0.0187407,10,0.000119462,-3.29052,-1.14602,-0.0514824,-1.02652,0.233213,
2,1,0,1,0,6993.91,0.235015,0.234695,0.511787,4,0.0188201,10,0.000120114,-3.29091,-1.46603,-0.0402449,-0.801839,0.234695,
2,1,0,1,0,6994.06,0.236513,0.236184,0.507942,4,0.018899,10,0.000119968,-3.29419,-7.8797,-0.0074876,-0.148689,0.236184,
2,1,0,1,0,6994.21,0.238012,0.237751,0.507224,4,0.018978,10,0.000120593,-3.2948,-5.78997,-0.01019,-0.201593,0.2377508,
2,1,0,1,0,6994.36,0.23951,0.239216,0.506915,4,0.0190569,10,0.000121262,-3.29506,-2.55249,-0.0231147,-0.457945,0.239216,
2,1,0,1,0,6994.51,0.241008,0.240708,0.504595,4,0.0191355,10,0.00012146,-3.29706,-1.04935,-0.0562251,-1.11269,0.240708,
2,1,0,1,0,6994.66,0.242506,0.242201,0.501974,4,0.0192139,10,0.000121579,-3.29932,-1.39392,-0.0423267,-0.835134,0.242201,
2,1,0,1,0,6994.81,0.244005,0.243684,0.502804,4,0.0192922,10,0.000122525,-3.2986,-3.68538,-0.0160092,-0.314646,0.243684,
2,1,0,1,0,6994.96,0.245503,0.245204,0.503267,4,0.0193704,10,0.000123403,-3.2982,-1.41785,-0.0416123,-0.817919,0.2452044,
2,1,0,1,0,6995.1,0.247001,0.246693,0.502162,4,0.0194485,10,0.00012388,-3.29916,-1.00674,-0.058605,-1.14824,0.246693,
2,1,0,1,0,6995.25,0.2485,0.248243,0.499117,4,0.0195264,10,0.000123902,-3.3018,-2.59249,-0.022758,-0.444618,0.248243,
2,1,0,1,0,6995.4,0.249997,0.249679,0.499693,4,0.019604,10,0.000124763,-3.3013,-4.78147,-0.0123393,-0.240808,0.249679,
2,1,0,1,0,6995.55,0.251495,0.251154,0.499543,4,0.0196816,10,0.000125462,-3.30143,-1.94906,-0.030271,-0.589072,0.251154,
2,1,0,1,0,6995.7,0.252994,0.252696,0.498217,4,0.0197591,10,0.000125897,-3.30258,-0.997696,-0.0591363,-1.14679,0.252696,
2,1,0,1,0,6995.85,0.254492,0.254134,0.496179,4,0.0198364,10,0.000126096,-3.30436,-1.56591,-0.0376778,-0.732607,0.254134,
2,1,0,1,0,6996,0.25599,0.255692,0.496789,4,0.0199134,10,0.000127025,-3.30383,-3.97827,-0.0148306,-0.287773,0.2556918,
2,1,0,1,0,6996.15,0.257488,0.257172,0.494227,4,0.0199904,10,0.000127101,-3.30607,-2.97646,-0.0198222,-0.383062,0.257172,
2,1,0,1,0,6996.3,0.258987,0.258701,0.495522,4,0.0200674,10,0.000128192,-3.30494,-0.732377,-0.0805595,-1.5529,0.258701,
2,1,0,1,0,6996.45,0.260485,0.26023,0.493965,4,0.0201442,10,0.000128545,-3.3063,-1.04205,-0.0566192,-1.09152,0.26023,
2,1,0,1,0,6996.6,0.261983,0.261699,0.493859,4,0.0202206,10,0.000129242,-3.3064,-2.6752,-0.0220544,-0.424735,0.261699,
2,1,0,1,0,6996.75,0.263481,0.263167,0.491523,4,0.0202971,10,0.000129353,-3.30846,35.3921,0.00166704,0.031913,0.263167,
2,1,0,1,0,6996.9,0.26498,0.26467,0.491163,4,0.0203736,10,0.000129996,-3.30877,-16.7476,-0.00352289,-0.0674471,0.26467,
2,1,0,1,0,6997.05,0.266477,0.266184,0.491105,4,0.0204498,10,0.000130724,-3.30883,-2.40394,-0.024543,-0.4705,0.266184,
2,1,0,1,0,6997.2,0.267976,0.267682,0.487263,4,0.0205259,10,0.000130431,-3.31224,-2.37809,-0.0248099,-0.47361,0.267682,
2,1,0,1,0,6997.35,0.269474,0.269167,0.488046,4,0.0206019,10,0.000131366,-3.31154,-4.86206,-0.0121348,-0.230747,0.269167,
2,1,0,1,0,6997.5,0.270972,0.270706,0.489183,4,0.0206778,10,0.000132425,-3.31053,-1.67538,-0.0352158,-0.66883,0.270706,
2,1,0,1,0,6997.65,0.27247,0.272154,0.486324,4,0.0207535,10,0.000132355,-3.31307,-1.32064,-0.0446754,-0.846474,0.272154,
2,1,0,1,0,6997.8,0.273968,0.273655,0.482817,4,0.0208291,10,0.000132125,-3.31622,-1.12888,-0.052264,-0.990696,0.273655,
2,1,0,1,0,6997.95,0.275467,0.27513,0.483082,4,0.0209044,10,0.00013291,-3.31598,-1.37262,-0.0429834,-0.812622,0.27513,
2,1,0,1,0,6998.1,0.276965,0.276671,0.483965,4,0.0209797,10,0.000133899,-3.31519,-4.08525,-0.0144422,-0.272762,0.2766709,
2,1,0,1,0,6998.25,0.278463,0.278148,0.482708,4,0.0210548,10,0.000134264,-3.31632,-0.858574,-0.0687186,-1.28973,0.278148,
2,1,0,1,0,6998.4,0.279962,0.279675,0.481955,4,0.0211299,10,0.000134791,-3.31699,-4.00041,-0.0147485,-0.277737,0.279675,
2,1,0,1,0,6998.55,0.281459,0.281163,0.482198,4,0.0212047,10,0.000135576,-3.31677,-2.6748,-0.0220577,-0.41344,0.281163,
2,1,0,1,0,6998.7,0.282957,0.282665,0.480339,4,0.0212794,10,0.000135775,-3.31845,41.3866,0.00142558,0.0267416,0.2826649,
2,1,0,1,0,6998.85,0.284456,0.284175,0.476612,4,0.0213542,10,0.000135441,-3.32183,-27.1124,-0.00217613,-0.0405767,0.2841754,
2,1,0,1,0,6999,0.285954,0.285648,0.479262,4,0.0214287,10,0.0001369,-3.31943,-1.46511,-0.0402701,-0.752923,0.285648,
2,1,0,1,0,6999.15,0.287452,0.287146,0.477022,4,0.0215029,10,0.000136975,-3.32146,-2.46654,-0.0239201,-0.444448,0.287146,
2,1,0,1,0,6999.3,0.28895,0.288729,0.476459,4,0.0215772,10,0.000137567,-3.32197,1.64041,0.0359665,0.668262,0.288729,
2,1,0,1,0,6999.45,0.290449,0.290134,0.474475,4,0.0216513,10,0.000137661,-3.32379,-1.38318,-0.0426554,-0.793176,0.290134,
2,1,0,1,0,6999.6,0.291947,0.291653,0.475844,4,0.0217253,10,0.000138781,-3.32254,-0.97333,-0.0606167,-1.12437,0.291653,
2,1,0,1,0,6999.75,0.293445,0.293152,0.471459,4,0.021799,10,0.000138209,-3.32656,-2.05151,-0.0287593,-0.532529,0.293152,
2,1,0,1,0,6999.9,0.294943,0.294618,0.474164,4,0.0218726,10,0.000139697,-3.32407,-4.70349,-0.0125439,-0.232102,0.294618,
2,1,0,1,0,7000.05,0.296442,0.296154,0.475107,4,0.0219463,10,0.000140705,-3.32321,11.0673,0.00533101,0.0981125,0.296154,
2,1,0,1,0,7000.2,0.297939,0.297652,0.471115,4,0.0220199,10,0.000140228,-3.32687,-1.89303,-0.0311669,-0.572433,0.297652,
2,1,0,1,0,7000.35,0.299437,0.299142,0.469113,4,0.0220932,10,0.000140331,-3.32872,-0.00154857,-38.0997,-242.723,0.299142,
2,1,0,1,0,7000.43,0.299738,0.299464,0.168218,4,0.0221265,10,5.03753e-05,-3.77413,0.00104045,56.7064,426.965,0.299464,
2,1,0,1,0,7000.58,0.29824,0.297915,-0.0191998,4,0.0221284,10,-5.71992e-06,-4.7167,0.00435106,13.5599,141.205,0.297915,
2,0,0,1,0,7000.73,0.296741,0.296468,-0.0518624,4,0.02212,10,-1.53755e-05,-4.28515,-0.00280562,-21.0292,19.0733,0.296468,
2,0,0,1,0,7000.88,0.295243,0.29495,-0.0712791,4,0.0221076,10,-2.10238e-05,-4.14704,-0.0120955,-4.87786,12.1933,0.29495,
2,0,0,1,0,7001.03,0.293745,0.293468,-0.0902423,4,0.0220926,10,-2.64832e-05,-4.04459,-0.0200613,-2.94099,9.68423,0.2934677,
2,0,0,1,0,7001.18,0.292246,0.291908,-0.101402,4,0.0220755,10,-2.96001e-05,-3.99395,-0.0292085,-2.01996,7.76108,0.291908,
2,0,0,1,0,7001.33,0.290748,0.290425,-0.113134,4,0.0220565,10,-3.28568e-05,-3.94641,-0.0365239,-1.61538,7.0181,0.290425,
2,0,0,1,0,7001.48,0.28925,0.288928,-0.124082,4,0.022036,10,-3.58506e-05,-3.90629,-0.0412038,-1.43191,6.87066,0.288928,
2,0,0,1,0,7001.63,0.287752,0.287445,-0.133413,4,0.0220139,10,-3.83488e-05,-3.8748,-0.0516891,-1.14144,5.92875,0.287445,
2,0,0,1,0,7001.78,0.286253,0.285942,-0.140069,4,0.0219908,10,-4.00516e-05,-3.85366,-0.0623927,-0.945624,5.18481,0.285942,
2,0,0,1,0,7001.93,0.284755,0.284464,-0.149294,4,0.0219663,10,-4.24687e-05,-3.82596,-0.0620178,-0.95134,5.46213,0.284464,
2,0,0,1,0,7002.08,0.283258,0.282945,-0.156171,4,0.0219407,10,-4.41877e-05,-3.8064,-0.0721786,-0.817417,4.92326,0.282945,
2,0,0,1,0,7002.23,0.281759,0.281442,-0.162149,4,0.0219141,10,-4.56355e-05,-3.79009,-0.0951603,-0.620007,3.9081,0.281442,
2,0,0,1,0,7002.38,0.280261,0.279956,-0.165951,4,0.0218866,10,-4.64589e-05,-3.78002,-0.0949662,-0.621273,4.07131,0.279956,
2,0,0,1,0,7002.53,0.278763,0.278484,-0.174287,4,0.0218582,10,-4.85361e-05,-3.75874,-0.0908936,-0.649111,4.40981,0.278484,
2,0,0,1,0,7002.68,0.277264,0.276957,-0.179672,4,0.0218288,10,-4.97616e-05,-3.74552,-0.109402,-0.539294,3.79163,0.276957,
2,0,0,1,0,7002.83,0.275766,0.275428,-0.184664,4,0.0217986,10,-5.08615e-05,-3.73362,-0.135836,-0.434348,3.12117,0.275428,
2,0,0,1,0,7002.98,0.274268,0.273922,-0.189334,4,0.0217675,10,-5.18627e-05,-3.72277,-0.129249,-0.456482,3.3897,0.273922,
2,0,0,1,0,7003.13,0.27277,0.272469,-0.195815,4,0.0217359,10,-5.33533e-05,-3.70815,-0.133704,-0.441274,3.40362,0.272469,
2,0,0,1,0,7003.28,0.271272,0.270971,-0.199307,4,0.0217034,10,-5.40065e-05,-3.70048,-0.139929,-0.421642,3.30525,0.270971,
2,0,0,1,0,7003.43,0.269773,0.269498,-0.207104,4,0.02167,10,-5.58142e-05,-3.68381,-0.149159,-0.395552,3.15762,0.269498,
2,0,0,1,0,7003.58,0.268275,0.267947,-0.211618,4,0.021636,10,-5.67025e-05,-3.67445,-0.146624,-0.402389,3.28276,0.267947,
2,0,0,1,0,7003.73,0.266778,0.266502,-0.215754,4,0.0216015,10,-5.74988e-05,-3.66604,-0.16069,-0.367166,3.09416,0.266502,
2,0,0,1,0,7003.88,0.265279,0.264997,-0.218529,4,0.0215661,10,-5.79096e-05,-3.66049,-0.146779,-0.401965,3.39841,0.264997,
2,0,0,1,0,7004.03,0.263781,0.263475,-0.223691,4,0.0215301,10,-5.89371e-05,-3.65035,-0.199413,-0.295868,2.59064,0.263475,
2,0,0,1,0,7004.18,0.262283,0.261976,-0.226612,4,0.0214935,10,-5.93669e-05,-3.64472,-0.229852,-0.256687,2.27111,0.261976,
2,0,0,1,0,7004.33,0.260784,0.260512,-0.230688,4,0.0214563,10,-6.0097e-05,-3.63698,-0.178452,-0.33062,3.00436,0.260512,
2,0,0,1,0,7004.48,0.259286,0.259036,-0.235425,4,0.0214186,10,-6.09837e-05,-3.62815,-0.186757,-0.315918,2.89221,0.259036,
2,0,0,1,0,7004.63,0.257788,0.257478,-0.242943,4,0.0213802,10,-6.25523e-05,-3.6145,-0.257483,-0.229142,2.15404,0.257478,
2,0,0,1,0,7004.78,0.25629,0.255964,-0.244241,4,0.0213412,10,-6.25171e-05,-3.61218,-0.272606,-0.216429,2.04164,0.255964,
2,0,0,1,0,7004.93,0.254791,0.254437,-0.246154,4,0.0213017,10,-6.26308e-05,-3.60879,-0.244325,-0.241482,2.3248,0.254437,
2,0,0,1,0,7005.08,0.253293,0.253002,-0.250587,4,0.0212618,10,-6.3399e-05,-3.60104,-0.192899,-0.30586,2.98853,0.2530022,
2,0,0,1,0,7005.23,0.251796,0.251511,-0.25407,4,0.0212213,10,-6.39015e-05,-3.59505,-0.250532,-0.235499,2.34928,0.251511,
2,0,0,1,0,7005.38,0.250297,0.250036,-0.256715,4,0.0211801,10,-6.41878e-05,-3.59055,-0.371365,-0.158873,1.58829,0.250036,
2,0,0,1,0,7005.53,0.248799,0.248508,-0.261735,4,0.0211386,10,-6.50432e-05,-3.58214,-0.235636,-0.250387,2.55614,0.248508,
2,0,0,1,0,7005.68,0.247301,0.247016,-0.263673,4,0.0210967,10,-6.51313e-05,-3.57893,-0.232551,-0.253707,2.61444,0.247016,
2,0,0,1,0,7005.83,0.245802,0.245463,-0.267669,4,0.0210541,10,-6.57028e-05,-3.5724,-0.260886,-0.226153,2.36051,0.245463,
2,0,0,1,0,7005.98,0.244304,0.24394,-0.27276,4,0.0210108,10,-6.65372e-05,-3.56422,-0.41556,-0.141977,1.49177,0.2439404,
2,0,0,1,0,7006.13,0.242806,0.242515,-0.272942,4,0.0209673,10,-6.61927e-05,-3.56393,-0.334093,-0.176598,1.89604,0.242515,
2,0,0,1,0,7006.28,0.241308,0.241014,-0.275351,4,0.0209234,10,-6.63634e-05,-3.56011,-0.333721,-0.176794,1.90443,0.241014,
2,0,0,1,0,7006.43,0.23981,0.239578,-0.280828,4,0.0208789,10,-6.72802e-05,-3.55156,-0.225961,-0.261107,2.86003,0.239578,
2,0,0,1,0,7006.58,0.238311,0.238006,-0.282587,4,0.0208339,10,-6.72573e-05,-3.54885,-0.283606,-0.208035,2.29936,0.238006,
2,0,0,1,0,7006.73,0.236814,0.236522,-0.288098,4,0.0207884,10,-6.81415e-05,-3.54046,-0.312324,-0.188907,2.11278,0.236522,
2,0,0,1,0,7006.88,0.235316,0.234983,-0.286852,4,0.0207425,10,-6.74053e-05,-3.54234,-0.286451,-0.205969,2.32494,0.2349833,
2,0,0,1,0,7007.03,0.233817,0.233526,-0.291826,4,0.0206961,10,-6.8149e-05,-3.53488,-0.329307,-0.179164,2.044,0.233526,
2,0,0,1,0,7007.18,0.232319,0.232016,-0.297282,4,0.0206492,10,-6.89743e-05,-3.52683,-0.309563,-0.190591,2.19703,0.232016,
2,0,0,1,0,7007.33,0.230821,0.230482,-0.298669,4,0.0206018,10,-6.88378e-05,-3.52481,-0.329896,-0.178844,2.07764,0.230482,
2,0,0,1,0,7007.48,0.229322,0.229008,-0.299732,4,0.020554,10,-6.8641e-05,-3.52327,-0.352789,-0.167239,1.96574,0.229008,
2,0,0,1,0,7007.63,0.227824,0.227492,-0.30394,4,0.0205058,10,-6.91441e-05,-3.51721,-0.330463,-0.178537,2.13148,0.227492,
2,0,0,1,0,7007.78,0.226326,0.226059,-0.306528,4,0.020457,10,-6.92934e-05,-3.51353,-0.375332,-0.157194,1.89088,0.226059,
2,0,0,1,0,7007.92,0.224828,0.224498,-0.311528,4,0.0204078,10,-6.99374e-05,-3.5065,-0.546927,-0.107875,1.30351,0.224498,
2,0,0,1,0,7008.07,0.223329,0.223042,-0.31492,4,0.020358,10,-7.02403e-05,-3.5018,-0.316354,-0.1865,2.27909,0.223042,
2,0,0,1,0,7008.22,0.221831,0.221538,-0.319398,4,0.0203081,10,-7.07589e-05,-3.49567,-0.282386,-0.208934,2.58433,0.221538,
2,0,0,1,0,7008.37,0.220334,0.22,-0.321108,4,0.0202575,10,-7.06438e-05,-3.49335,-0.273361,-0.215832,2.69279,0.22,
2,0,0,1,0,7008.52,0.218835,0.218548,-0.324443,4,0.0202062,10,-7.09064e-05,-3.48886,-0.392214,-0.150428,1.90055,0.218548,
2,0,0,1,0,7008.67,0.217337,0.217043,-0.327606,4,0.0201546,10,-7.11046e-05,-3.48465,-0.322828,-0.18276,2.33712,0.217043,
2,0,0,1,0,7008.82,0.215839,0.215501,-0.32833,4,0.0201027,10,-7.07556e-05,-3.48369,-0.31483,-0.187403,2.42177,0.215501,
2,0,0,1,0,7008.97,0.21434,0.214046,-0.33255,4,0.0200501,10,-7.11811e-05,-3.47814,-0.322896,-0.182721,2.37671,0.214046,
2,0,0,1,0,7009.12,0.212842,0.212515,-0.335415,4,0.0199971,10,-7.12808e-05,-3.47442,-0.399766,-0.147586,1.94644,0.212515,
2,0,0,1,0,7009.27,0.211344,0.211042,-0.338009,4,0.0199435,10,-7.13342e-05,-3.47107,-0.411469,-0.143389,1.90278,0.211042,
2,0,0,1,0,7009.42,0.209846,0.209563,-0.339508,4,0.0198896,10,-7.11483e-05,-3.46915,-0.392715,-0.150236,2.01634,0.209563,
2,0,0,1,0,7009.57,0.208348,0.208037,-0.347994,4,0.0198352,10,-7.23957e-05,-3.45843,-0.265296,-0.222393,3.01251,0.208037,
2,0,0,1,0,7009.72,0.206849,0.206582,-0.35779,4,0.0197799,10,-7.39128e-05,-3.44637,-0.272513,-0.216503,2.9537,0.206582,
2,0,0,1,0,7009.87,0.205352,0.205013,-0.354348,4,0.019724,10,-7.26461e-05,-3.45057,-0.455173,-0.129621,1.7805,0.205013,
2,0,0,1,0,7010.02,0.203854,0.203555,-0.356978,4,0.019668,10,-7.26645e-05,-3.44736,-0.317771,-0.185669,2.59231,0.203555,
2,0,0,1,0,7010.17,0.202355,0.202081,-0.361604,4,0.0196114,10,-7.30733e-05,-3.44177,-0.316019,-0.186698,2.64195,0.202081,
2,0,0,1,0,7010.32,0.200857,0.200537,-0.364325,4,0.0195543,10,-7.30606e-05,-3.43851,-0.360094,-0.163846,2.335,0.200537,
2,0,0,1,0,7010.47,0.199359,0.199037,-0.369319,4,0.0194965,10,-7.35083e-05,-3.4326,-0.372728,-0.158292,2.26903,0.199037,
2,0,0,1,0,7010.62,0.19786,0.197532,-0.373547,4,0.0194381,10,-7.37874e-05,-3.42765,-0.328836,-0.179421,2.60428,0.197532,
2,0,0,1,0,7010.77,0.196362,0.196017,-0.377955,4,0.0193794,10,-7.40859e-05,-3.42256,-0.424422,-0.139013,2.04571,0.196017,
2,0,0,1,0,7010.92,0.194864,0.194547,-0.381801,4,0.0193199,10,-7.42781e-05,-3.41816,-0.297796,-0.198123,2.92949,0.194547,
2,0,0,1,0,7011.07,0.193366,0.193006,-0.385782,4,0.0192596,10,-7.44582e-05,-3.41366,-0.370626,-0.15919,2.39359,0.193006,
2,0,0,1,0,7011.22,0.191867,0.191545,-0.390455,4,0.0191988,10,-7.47895e-05,-3.40843,-0.317393,-0.185889,2.83763,0.191545,
2,0,0,1,0,7011.37,0.190369,0.190062,-0.393105,4,0.0191376,10,-7.47144e-05,-3.40549,-0.351118,-0.168035,2.5891,0.190062,
2,0,0,1,0,7011.52,0.188872,0.188541,-0.39906,4,0.0190755,10,-7.52392e-05,-3.39896,-0.222656,-0.264983,4.09805,0.188541,
2,0,0,1,0,7011.67,0.187373,0.187085,-0.403002,4,0.0190126,10,-7.53955e-05,-3.39469,-0.263403,-0.223991,3.52251,0.187085,
2,0,0,1,0,7011.82,0.185875,0.185515,-0.40814,4,0.0189491,10,-7.57162e-05,-3.38919,-0.316581,-0.186366,2.95282,0.185515,
2,0,0,1,0,7011.97,0.184377,0.184072,-0.410832,4,0.0188848,10,-7.56226e-05,-3.38634,-0.301778,-0.195508,3.15238,0.184072,
2,0,0,1,0,7012.12,0.182878,0.182558,-0.417846,4,0.0188199,10,-7.6281e-05,-3.37898,-0.247572,-0.238314,3.89056,0.1825577,
2,0,0,1,0,7012.27,0.18138,0.181073,-0.4243,4,0.0187539,10,-7.68294e-05,-3.37233,-0.265589,-0.222148,3.68716,0.181073,
2,0,0,1,0,7012.42,0.179882,0.179551,-0.430402,4,0.018687,10,-7.72792e-05,-3.36613,-0.315434,-0.187044,3.14021,0.179551,
2,0,0,1,0,7012.57,0.178384,0.178042,-0.434945,4,0.0186191,10,-7.74387e-05,-3.36157,-0.257366,-0.229245,3.90583,0.178042,
2,0,0,1,0,7012.72,0.176886,0.17657,-0.444971,4,0.0185505,10,-7.85684e-05,-3.35167,-0.217371,-0.271425,4.69578,0.17657,
2,0,0,1,0,7012.87,0.175387,0.175102,-0.450312,4,0.0184806,10,-7.88507e-05,-3.34649,-0.184695,-0.319445,5.62519,0.1751022,
2,0,0,1,0,7013.02,0.17389,0.173576,-0.457605,4,0.0184095,10,-7.94293e-05,-3.33951,-0.187906,-0.313987,5.62709,0.173576,
2,0,0,1,0,7013.17,0.172392,0.172105,-0.468051,4,0.0183372,10,-8.0554e-05,-3.32971,-0.188459,-0.313066,5.71571,0.172105,
2,0,0,1,0,7013.32,0.170893,0.170626,-0.475495,4,0.0182638,10,-8.11318e-05,-3.32285,-0.172862,-0.341313,6.36204,0.170626,
2,0,0,1,0,7013.47,0.169395,0.169087,-0.485536,4,0.0181887,10,-8.2098e-05,-3.31378,-0.13869,-0.425409,8.06243,0.169087,
2,0,0,1,0,7013.62,0.167897,0.167577,-0.497432,4,0.018112,10,-8.33584e-05,-3.30327,-0.156528,-0.37693,7.33345,0.167577,
2,0,0,1,0,7013.77,0.166398,0.166105,-0.508966,4,0.0180337,10,-8.45421e-05,-3.29331,-0.16015,-0.368405,7.36729,0.166105,
2,0,0,1,0,7013.92,0.1649,0.164566,-0.518736,4,0.0179538,10,-8.53663e-05,-3.28505,-0.14399,-0.409751,8.35066,0.164566,
2,0,0,1,0,7014.07,0.163402,0.163096,-0.535247,4,0.0178718,10,-8.72966e-05,-3.27145,-0.123507,-0.477706,9.97702,0.163096,
2,0,0,1,0,7014.22,0.161904,0.161578,-0.55166,4,0.0177877,10,-8.91358e-05,-3.25833,-0.12345,-0.477925,10.2925,0.161578,
2,0,0,1,0,7014.37,0.160405,0.160067,-0.567118,4,0.017701,10,-9.07772e-05,-3.24633,-0.116047,-0.508413,11.2248,0.160067,
2,0,0,1,0,7014.52,0.158907,0.158565,-0.582753,4,0.0176119,10,-9.24041e-05,-3.23452,-0.106043,-0.556378,12.7426,0.158565,
2,0,0,1,0,7014.67,0.15741,0.157051,-0.604354,4,0.0175201,10,-9.49145e-05,-3.21871,-0.0917259,-0.643221,15.2728,0.157051,
2,0,0,1,0,7014.82,0.155911,0.155584,-0.627907,4,0.0174248,10,-9.76924e-05,-3.2021,-0.0955538,-0.617453,15.1544,0.155584,
2,0,0,1,0,7014.97,0.154413,0.154065,-0.651134,4,0.0173258,10,-0.000100317,-3.18633,-0.0930443,-0.634106,16.1358,0.154065,
2,0,0,1,0,7015.12,0.152915,0.152548,-0.678174,4,0.0172233,10,-0.000103454,-3.16866,-0.0854681,-0.690316,18.3518,0.152548,
2,0,0,1,0,7015.27,0.151417,0.151104,-0.709646,4,0.0171167,10,-0.00010723,-3.14896,-0.079142,-0.745495,20.6856,0.151104,
2,0,0,1,0,7015.42,0.149918,0.149602,-0.742693,4,0.0170052,10,-0.000111109,-3.12919,-0.0729508,-0.808764,23.408,0.1496024,
2,0,0,1,0,7015.57,0.14842,0.148139,-0.779306,4,0.0168884,10,-0.000115446,-3.10829,-0.0721732,-0.817478,24.8758,0.148139,
2,0,0,1,0,7015.72,0.146922,0.146618,-0.818643,4,0.016766,10,-0.000120028,-3.08691,-0.0694849,-0.849105,27.1488,0.1466184,
2,0,0,1,0,7015.87,0.145424,0.145119,-0.860344,4,0.0166376,10,-0.000124852,-3.06533,-0.0673765,-0.875676,29.3967,0.145119,
2,0,0,1,0,7016.02,0.143925,0.143603,-0.90553,4,0.0165026,10,-0.000130037,-3.0431,-0.0645054,-0.914652,32.2726,0.143603,
2,0,0,1,0,7016.17,0.142428,0.142118,-0.952389,4,0.0163605,10,-0.000135352,-3.02119,-0.0673625,-0.875858,32.5456,0.142118,
2,0,0,1,0,7016.31,0.14093,0.140621,-0.997974,4,0.0162112,10,-0.000140336,-3.00088,-0.069616,-0.847506,33.0623,0.140621,
2,0,0,1,0,7016.46,0.139431,0.139139,-1.04661,4,0.0160547,10,-0.000145625,-2.98021,-0.0750366,-0.786282,32.2489,0.139139,
2,0,0,1,0,7016.61,0.137933,0.13763,-1.09819,4,0.0158909,10,-0.000151145,-2.95932,-0.0791489,-0.745431,31.8518,0.13763,
2,0,0,1,0,7016.76,0.136435,0.136085,-1.14919,4,0.0157195,10,-0.000156389,-2.93961,-0.086553,-0.681663,30.4084,0.136085,
2,0,0,1,0,7016.91,0.134936,0.134611,-1.19339,4,0.0155412,10,-0.000160643,-2.92322,-0.0993569,-0.593819,27.4833,0.134611,
2,0,0,1,0,7017.06,0.133438,0.133127,-1.23374,4,0.0153565,10,-0.000164244,-2.90878,-0.107943,-0.546587,26.2548,0.133127,
2,0,0,1,0,7017.21,0.13194,0.131639,-1.271,4,0.0151662,10,-0.000167314,-2.89585,-0.122805,-0.480437,23.7805,0.131639,
2,0,0,1,0,7017.36,0.130442,0.130128,-1.30479,4,0.0149703,10,-0.000169789,-2.88446,-0.143819,-0.410237,20.836,0.130128,
2,0,0,1,0,7017.51,0.128943,0.128582,-1.33447,4,0.0147695,10,-0.000171589,-2.87469,-0.179105,-0.329415,17.052,0.128582,
2,0,0,1,0,7017.66,0.127445,0.127094,-1.358,4,0.0145649,10,-0.000172594,-2.8671,-0.217716,-0.270995,14.3002,0.1270941,
2,0,0,1,0,7017.81,0.125948,0.125662,-1.37405,4,0.0143576,10,-0.000172666,-2.862,-0.282397,-0.208926,11.1754,0.125662,
2,0,0,1,0,7017.96,0.124449,0.124149,-1.38879,4,0.0141475,10,-0.000172417,-2.85736,-0.343877,-0.171573,9.26221,0.124149,
2,0,0,1,0,7018.11,0.122951,0.122644,-1.39977,4,0.0139357,10,-0.000171673,-2.85394,-0.554657,-0.106372,5.79195,0.122644,
2,0,0,1,0,7018.26,0.121453,0.121165,-1.40401,4,0.0137227,10,-0.000170118,-2.85263,-2.24518,-0.0262785,1.43734,0.121165,
2,0,0,1,0,7018.41,0.119955,0.119664,-1.40057,4,0.0135095,10,-0.000167598,-2.85369,-5.08997,-0.0115914,0.635119,0.119664,
2,0,0,1,0,7018.56,0.118456,0.118145,-1.40609,4,0.0132962,10,-0.000166123,-2.85199,-11.7707,-0.00501245,0.274546,0.118145,
2,0,0,1,0,7018.71,0.116958,0.116643,-1.40513,4,0.0130829,10,-0.000163899,-2.85228,1.21903,0.0483992,-2.64366,0.116643,
2,0,0,1,0,7018.86,0.11546,0.115103,-1.39814,4,0.0128702,10,-0.00016093,-2.85445,0.57326,0.10292,-5.60093,0.115103,
2,0,0,1,0,7019.01,0.113962,0.113644,-1.38249,4,0.0126588,10,-0.000157111,-2.85934,0.489425,0.12055,-6.51879,0.113644,
2,0,0,1,0,7019.16,0.112463,0.112118,-1.37726,4,0.012449,10,-0.000154415,-2.86098,0.49351,0.119552,-6.43094,0.112118,
2,0,0,1,0,7019.31,0.110966,0.11064,-1.36566,4,0.0122406,10,-0.000151096,-2.86466,0.455463,0.129538,-6.89816,0.11064,
2,0,0,1,0,7019.46,0.109468,0.109136,-1.355,4,0.0120338,10,-0.000147879,-2.86806,0.344182,0.171421,-9.05478,0.109136,
2,0,0,1,0,7019.61,0.107969,0.107686,-1.34194,4,0.0118288,10,-0.000144507,-2.87227,0.368863,0.159951,-8.37734,0.107686,
2,0,0,1,0,7019.76,0.106471,0.106169,-1.32856,4,0.0116261,10,-0.000141053,-2.87662,0.350566,0.168299,-8.7326,0.106169,
2,0,0,1,0,7019.91,0.104973,0.104661,-1.31351,4,0.0114252,10,-0.000137474,-2.88157,0.31533,0.187106,-9.5848,0.104661,
2,0,0,1,0,7020.06,0.103474,0.103168,-1.30261,4,0.0112261,10,-0.000134388,-2.88519,0.284628,0.207288,-10.5097,0.103168,
2,0,0,1,0,7020.21,0.101976,0.101655,-1.2849,4,0.0110294,10,-0.000130617,-2.89113,0.268031,0.220124,-11.0346,0.101655,
2,0,0,1,0,7020.36,0.100478,0.100152,-1.26891,4,0.0108353,10,-0.000127084,-2.89657,0.280201,0.210563,-10.4495,0.100152,
2,0,0,1,0,7020.51,0.0989799,0.0986318,-1.25662,4,0.0106434,10,-0.000123943,-2.9008,0.310667,0.189914,-9.29336,0.0986318,
2,0,0,1,0,7020.66,0.0974808,0.0971375,-1.24261,4,0.0104533,10,-0.000120705,-2.90566,0.291165,0.202634,-9.81868,0.0971375,
2,0,0,1,0,7020.81,0.0959833,0.0956328,-1.22549,4,0.0102656,10,-0.000117197,-2.91169,0.286256,0.206109,-9.86881,0.0956328,
2,0,0,1,0,7020.96,0.0944857,0.0941405,-1.20913,4,0.0100804,10,-0.000113828,-2.91753,0.297753,0.198151,-9.38772,0.0941405,
2,0,0,1,0,7021.11,0.0929871,0.0926649,-1.19589,4,0.00989694,10,-0.000110817,-2.92231,0.416527,0.141648,-6.62363,0.0926649,
2,0,0,1,0,7021.26,0.0914889,0.0911623,-1.18806,4,0.00971542,10,-0.000108306,-2.92516,0.322959,0.182686,-8.45459,0.0911623,
2,0,0,1,0,7021.41,0.0899907,0.0896756,-1.17197,4,0.00953566,10,-0.000105097,-2.93108,0.314249,0.187749,-8.58192,0.0896756,
2,0,0,1,0,7021.56,0.0884925,0.0882144,-1.15721,4,0.0093581,10,-0.000102083,-2.93659,0.31764,0.185745,-8.41666,0.08821439,
2,0,0,1,0,7021.71,0.0869943,0.0866715,-1.14871,4,0.00918245,10,-9.95603e-05,-2.93979,0.341295,0.172871,-7.75614,0.0866715,
2,0,0,1,0,7021.86,0.0854962,0.0851901,-1.13733,4,0.00900836,10,-9.68896e-05,-2.94411,0.358827,0.164425,-7.31097,0.0851901,
2,0,0,1,0,7022.01,0.083998,0.0836578,-1.12688,4,0.00883571,10,-9.42726e-05,-2.94812,0.305175,0.193331,-8.49468,0.0836578,
2,0,0,1,0,7022.16,0.0824998,0.0821552,-1.11836,4,0.00866475,10,-9.1879e-05,-2.95142,0.374011,0.157749,-6.89446,0.08215522,
2,0,0,1,0,7022.31,0.0810011,0.0806648,-1.10647,4,0.00849554,10,-8.92533e-05,-2.95606,0.467502,0.126203,-5.46339,0.0806648,
2,0,0,1,0,7022.46,0.0795036,0.0791937,-1.10003,4,0.00832751,10,-8.71155e-05,-2.9586,0.573825,0.102819,-4.40844,0.0791937,
2,0,0,1,0,7022.61,0.0780061,0.0777169,-1.09073,4,0.00816056,10,-8.47681e-05,-2.96228,0.489001,0.120654,-5.12865,0.0777169,
2,0,0,1,0,7022.76,0.076507,0.0761363,-1.08178,4,0.00799484,10,-8.23631e-05,-2.96586,0.446204,0.132227,-5.58398,0.0761363,
2,0,0,1,0,7022.91,0.0750088,0.0746719,-1.07109,4,0.00783078,10,-7.99805e-05,-2.97017,0.49428,0.119366,-4.99748,0.0746719,
2,0,0,1,0,7023.06,0.0735106,0.0731587,-1.06354,4,0.00766778,10,-7.78074e-05,-2.97325,0.604328,0.0976291,-4.05878,0.0731587,
2,0,0,1,0,7023.21,0.0720124,0.071707,-1.05632,4,0.00750589,10,-7.57453e-05,-2.97621,0.428167,0.137797,-5.69183,0.071707,
2,0,0,1,0,7023.36,0.0705142,0.0701959,-1.05138,4,0.00734507,10,-7.38025e-05,-2.97824,0.455853,0.129428,-5.30723,0.0701959,
2,0,0,1,0,7023.51,0.0690161,0.0687114,-1.03923,4,0.00718557,10,-7.1407e-05,-2.98329,0.455579,0.129506,-5.27206,0.0687114,
2,0,0,1,0,7023.66,0.0675179,0.067213,-1.03617,4,0.00702719,10,-6.9644e-05,-2.98457,0.599215,0.0984622,-3.97977,0.067213,
2,0,0,1,0,7023.81,0.0660188,0.0656979,-1.03498,4,0.00686957,10,-6.79957e-05,-2.98507,0.518308,0.113832,-4.56439,0.0656979,
2,0,0,1,0,7023.96,0.0645213,0.0641766,-1.02267,4,0.00671294,10,-6.56318e-05,-2.99026,0.423067,0.139458,-5.54555,0.0641766,
2,0,0,1,0,7024.11,0.0630237,0.0627144,-1.00933,4,0.0065577,10,-6.32993e-05,-2.99597,0.460125,0.128226,-5.0696,0.0627144,
2,0,0,1,0,7024.26,0.0615251,0.0611846,-1.00482,4,0.00640386,10,-6.14798e-05,-2.99791,0.490011,0.120406,-4.72794,0.0611846,
2,0,0,1,0,7024.41,0.0600269,0.0597287,-0.999768,4,0.00625088,10,-5.97148e-05,-3.0001,0.434767,0.135705,-5.29215,0.0597287,
2,0,0,1,0,7024.55,0.0585287,0.0582324,-0.990501,4,0.00609894,10,-5.76793e-05,-3.00414,0.373355,0.158027,-6.09387,0.0582324,
2,0,0,1,0,7024.7,0.0570305,0.0567192,-0.985872,4,0.00594807,10,-5.59179e-05,-3.00618,0.406067,0.145296,-5.57513,0.0567192,
2,0,0,1,0,7024.85,0.0555323,0.0551986,-0.97511,4,0.00579892,10,-5.38247e-05,-3.01095,0.426601,0.138303,-5.2717,0.0551986,
2,0,0,1,0,7025,0.0540342,0.0537151,-0.969668,4,0.00565053,10,-5.20858e-05,-3.01338,0.492731,0.119741,-4.51704,0.0537151,
2,0,0,1,0,7025.15,0.052536,0.0521765,-0.962478,4,0.00550309,10,-5.02187e-05,-3.01661,0.407491,0.144788,-5.42918,0.0521765,
2,0,0,1,0,7025.3,0.0510378,0.0507269,-0.951644,4,0.00535697,10,-4.8274e-05,-3.02153,0.351452,0.167875,-6.23938,0.0507269,
2,0,0,1,0,7025.45,0.0495391,0.0492585,-0.941926,4,0.00521243,10,-4.63979e-05,-3.02598,0.394199,0.149671,-5.50442,0.0492585,
2,0,0,1,0,7025.6,0.0480416,0.0477252,-0.933821,4,0.00506902,10,-4.45668e-05,-3.02974,0.52624,0.112116,-4.0818,0.0477252,
2,0,0,1,0,7025.75,0.0465441,0.0462614,-0.927534,4,0.00492681,10,-4.2909e-05,-3.03267,0.401249,0.147041,-5.31813,0.0462614,
2,0,0,1,0,7025.9,0.045045,0.0447239,-0.918332,4,0.00478563,10,-4.10714e-05,-3.037,0.344476,0.171275,-6.13612,0.0447239,
2,0,0,1,0,7026.05,0.0435468,0.0432245,-0.906893,4,0.00464602,10,-3.92e-05,-3.04244,0.351944,0.16764,-5.95175,0.0432245,
2,0,0,1,0,7026.2,0.0420486,0.0417622,-0.900847,4,0.00450772,10,-3.76214e-05,-3.04535,0.421243,0.140062,-4.92817,0.0417622,
2,0,0,1,0,7026.35,0.0405504,0.0401981,-0.896062,4,0.00437048,10,-3.602e-05,-3.04766,0.353753,0.166783,-5.81504,0.0401981,
2,0,0,1,0,7026.5,0.0390523,0.0387517,-0.885789,4,0.00423425,10,-3.43258e-05,-3.05267,0.32308,0.182617,-6.29977,0.0387517,
2,0,0,1,0,7026.65,0.0375541,0.0372428,-0.875618,4,0.00409951,10,-3.26104e-05,-3.05769,0.338244,0.17443,-5.97769,0.0372428,
2,0,0,1,0,7026.8,0.0360559,0.0357836,-0.869788,4,0.00396623,10,-3.11242e-05,-3.06059,0.342637,0.172194,-5.8497,0.0357836,
2,0,0,1,0,7026.95,0.0345568,0.0342387,-0.861597,4,0.00383379,10,-2.94999e-05,-3.0647,0.356176,0.165648,-5.56991,0.0342387,
2,0,0,1,0,7027.1,0.0330593,0.0327464,-0.853544,4,0.00370255,10,-2.79504e-05,-3.06877,0.300625,0.196258,-6.52463,0.0327464,
2,0,0,1,0,7027.25,0.0315618,0.0312667,-0.844835,4,0.00357269,10,-2.64152e-05,-3.07323,0.344311,0.171357,-5.66307,0.0312667,
2,0,0,1,0,7027.4,0.0300631,0.0297648,-0.835966,4,0.00344418,10,-2.48823e-05,-3.07781,0.409313,0.144144,-4.70726,0.0297648,
2,0,0,1,0,7027.55,0.0285649,0.0282335,-0.830416,4,0.00331646,10,-2.34456e-05,-3.0807,0.502565,0.117398,-3.79367,0.0282335,
2,0,0,1,0,7027.7,0.0270667,0.0267617,-0.823584,4,0.00318961,10,-2.20405e-05,-3.08429,0.421386,0.140014,-4.50147,0.0267617,
2,0,0,1,0,7027.85,0.0255685,0.0252623,-0.817489,4,0.00306393,10,-2.06516e-05,-3.08752,0.407523,0.144777,-4.61796,0.0252623,
2,0,0,1,0,7028,0.0240704,0.0237565,-0.807507,4,0.00293935,10,-1.91835e-05,-3.09285,0.50285,0.117331,-3.7155,0.0237565,
2,0,0,1,0,7028.15,0.0225722,0.0222412,-0.803832,4,0.00281561,10,-1.78782e-05,-3.09483,0.695692,0.0848076,-2.66479,0.0222412,
2,0,0,1,0,7028.3,0.021074,0.0207248,-0.799659,4,0.00269251,10,-1.65728e-05,-3.09709,0.507292,0.116304,-3.62993,0.0207248,
2,0,0,1,0,7028.45,0.0195758,0.0192625,-0.799006,4,0.00257014,10,-1.53909e-05,-3.09745,0.538187,0.109627,-3.40006,0.0192625,
2,0,0,1,0,7028.6,0.0180772,0.0176979,-0.787504,4,0.00244858,10,-1.39372e-05,-3.10375,0.676476,0.0872167,-2.68875,0.0176979,
2,0,0,1,0,7028.75,0.0165796,0.0162584,-0.787794,4,0.00232787,10,-1.28083e-05,-3.10359,0.997071,0.0591733,-1.81793,0.0162584,
2,0,0,1,0,7028.9,0.0150821,0.0147895,-0.784895,4,0.00220738,10,-1.16082e-05,-3.10519,1.07314,0.0549786,-1.67969,0.0147895,
2,0,0,1,0,7029.05,0.013583,0.0132553,-0.780143,4,0.00208722,10,-1.0341e-05,-3.10783,0.682348,0.0864662,-2.63006,0.0132553,
2,0,0,1,0,7029.2,0.0120848,0.0118057,-0.775434,4,0.00196767,10,-9.15457e-06,-3.11046,1.03815,0.0568317,-1.72922,0.0118057,
2,0,0,1,0,7029.35,0.0105866,0.0102522,-0.774604,4,0.0018488,10,-7.94142e-06,-3.11092,1.13289,0.0520793,-1.57952,0.0102522,
2,0,0,1,0,7029.5,0.00908846,0.00877721,-0.773105,4,0.00172981,10,-6.7857e-06,-3.11176,1.61455,0.0365428,-1.10172,0.00877721,
2,0,0,1,0,7029.65,0.00759027,0.0072587,-0.770894,4,0.0016111,10,-5.59569e-06,-3.11301,1.24514,0.0473844,-1.42883,0.0072587,
2,0,0,1,0,7029.8,0.00609208,0.00582185,-0.772316,4,0.00149248,10,-4.49631e-06,-3.11221,2.8728,0.0205375,-0.619325,0.00582185,
2,0,0,1,0,7029.95,0.00459389,0.00426093,-0.772934,4,0.00137418,10,-3.29342e-06,-3.11186,-67.5653,-0.000873229,0.0263135,0.00426093,
2,0,0,1,0,7030.1,0.0030948,0.00275839,-0.774253,4,0.00125553,10,-2.13569e-06,-3.11112,-0.783358,-0.0753168,2.27474,0.00275839,
2,0,0,1,0,7030.25,0.00159728,0.00122147,-0.784491,4,0.0011351,10,-9.58235e-07,-3.10541, , , ,0.00122147,
2,0,0,1,0,7030.39,0.000199195,-0.000166899,-0.774107,4,0.00102357,10,1.29198e-07,-3.1112, , , ,-0.0001668988,