File: Figure_codes/Fig_3-5/rawdata_trumpetplot_data/after 10th/20221101_1-115_003_TrumpetPlot_ParaChange_from10_every3_04_CV_C01_0.csv
mode,ox/red,error,control changes,counter inc.,time/s,control/V,Ewe/V,<I>/mA,cycle number,(Q-Qo)/C,I Range,P/W,log(|I|),Tafel slope mV/dec,alpha_eff,dI/d(E-IR),E-IR/V,
2,0,0,0,0,1060.02,2.44065e-05,-0.000268062,-0.364619,1,0.0000000E+000,10,9.77404e-08,-3.43816, , , ,-0.000268062,
2,1,0,1,0,1060.14,0.00129787,0.000934439,0.256071,1,1.502e-05,10,2.39283e-07,-3.59164, , , ,0.000934439,
2,1,0,1,0,1060.29,0.00279606,0.00251126,0.335873,1,6.4018e-05,10,8.43465e-07,-3.47383,0.0136504,4.32223,44.2782,0.00251126,
2,1,0,1,0,1060.44,0.00429425,0.00402234,0.351944,1,0.000118328,10,1.41564e-06,-3.45353,0.067436,0.874904,12.1114,0.00402234,
2,1,0,1,0,1060.59,0.00579244,0.00550267,0.369217,1,0.00017572,10,2.03168e-06,-3.43272,0.0698965,0.844106,12.1557,0.005502671,
2,1,0,1,0,1060.74,0.00729063,0.00698512,0.389349,1,0.000235882,10,2.71965e-06,-3.40966,0.0810042,0.728358,11.0121,0.00698512,
2,1,0,1,0,1060.89,0.00878882,0.0084909,0.407576,1,0.000298563,10,3.46069e-06,-3.38979,0.104669,0.563683,8.86026,0.0084909,
2,1,0,1,0,1061.04,0.010287,0.00999985,0.417947,1,0.00036326,10,4.17941e-06,-3.37888,0.139615,0.42259,6.82869,0.00999985,
2,1,0,1,0,1061.19,0.0117852,0.0114526,0.427282,1,0.000429577,10,4.89349e-06,-3.36929,0.144633,0.407929,6.80265,0.0114526,
2,1,0,1,0,1061.34,0.0132838,0.0129694,0.437024,1,0.000497105,10,5.66793e-06,-3.35949,0.134378,0.439061,7.53717,0.0129694,
2,1,0,1,0,1061.49,0.0147814,0.0144904,0.446596,1,0.000566367,10,6.47135e-06,-3.35009,0.15924,0.370511,6.431,0.0144904,
2,1,0,1,0,1061.64,0.0162789,0.0160103,0.455228,1,0.000637058,10,7.28832e-06,-3.34177,0.243266,0.242533,4.29218,0.0160103,
2,1,0,1,0,1061.79,0.017778,0.0174704,0.462655,1,0.000708833,10,8.08277e-06,-3.33474,0.194937,0.302662,5.45198,0.0174704,
2,1,0,1,0,1061.94,0.0192761,0.0189815,0.469613,1,0.000781464,10,8.91396e-06,-3.32826,0.225164,0.262032,4.7923,0.0189815,
2,1,0,1,0,1062.09,0.0207743,0.020447,0.47918,1,0.000855534,10,9.79778e-06,-3.3195,0.20914,0.282108,5.25366,0.020447,
2,1,0,1,0,1062.24,0.0222725,0.0219591,0.486153,1,0.000930795,10,1.06755e-05,-3.31323,0.214068,0.275613,5.21508,0.0219591,
2,1,0,1,0,1062.39,0.0237707,0.0234723,0.494041,1,0.00100714,10,1.15963e-05,-3.30624,0.283582,0.208053,4.02038,0.0234723,
2,1,0,1,0,1062.54,0.0252689,0.0248774,0.499286,1,0.0010844,10,1.24209e-05,-3.30165,0.237091,0.248849,4.87814,0.0248774,
2,1,0,1,0,1062.69,0.0267671,0.0264711,0.508658,1,0.00116302,10,1.34648e-05,-3.29357,0.179248,0.329154,6.53699,0.0264711,
2,1,0,1,0,1062.84,0.0282662,0.027962,0.518288,1,0.00124297,10,1.44924e-05,-3.28543,0.22963,0.256935,5.18909,0.027962,
2,1,0,1,0,1062.99,0.0297635,0.0294616,0.527317,1,0.00132408,10,1.55356e-05,-3.27793,0.221051,0.266907,5.47857,0.0294616,
2,1,0,1,0,1063.14,0.031261,0.0309456,0.52949,1,0.0014062,10,1.63854e-05,-3.27614,0.205458,0.287163,5.97482,0.0309456,
2,1,0,1,0,1063.29,0.0327598,0.0324709,0.542415,1,0.00148965,10,1.76127e-05,-3.26567,0.203884,0.289381,6.12949,0.0324709,
2,1,0,1,0,1063.44,0.034258,0.0339396,0.551443,1,0.00157451,10,1.87158e-05,-3.2585,0.208646,0.282776,6.07772,0.0339396,
2,1,0,1,0,1063.59,0.0357562,0.035474,0.559664,1,0.00166078,10,1.98535e-05,-3.25207,0.23523,0.250819,5.45943,0.035474,
2,1,0,1,0,1063.74,0.0372544,0.0369745,0.568642,1,0.00174837,10,2.10253e-05,-3.24516,0.207526,0.284301,6.326,0.0369745,
2,1,0,1,0,1063.89,0.0387526,0.0384272,0.579782,1,0.00183721,10,2.22794e-05,-3.23674,0.186652,0.316096,7.18533,0.03842723,
2,1,0,1,0,1064.04,0.0402508,0.0399468,0.590162,1,0.00192785,10,2.35751e-05,-3.22903,0.191239,0.308515,7.10443,0.0399468,
2,1,0,1,0,1064.19,0.041749,0.0414759,0.602658,1,0.00202033,10,2.49958e-05,-3.21993,0.204612,0.28835,6.75178,0.0414759,
2,1,0,1,0,1064.34,0.0432472,0.042987,0.613999,1,0.00211431,10,2.6394e-05,-3.21183,0.206073,0.286307,6.83651,0.042987,
2,1,0,1,0,1064.49,0.0447458,0.0444138,0.62506,1,0.00220962,10,2.77613e-05,-3.20408,0.171451,0.344121,8.37113,0.0444138,
2,1,0,1,0,1064.64,0.0462433,0.0459315,0.635685,1,0.00230695,10,2.91979e-05,-3.19676,0.148227,0.398039,9.83927,0.04593147,
2,1,0,1,0,1064.79,0.0477409,0.0474374,0.646136,1,0.00240609,10,3.06511e-05,-3.18968,0.174311,0.338475,8.57275,0.0474374,
2,1,0,1,0,1064.94,0.0492399,0.0489231,0.658535,1,0.00250713,10,3.22176e-05,-3.18142,0.19827,0.297574,7.64815,0.0489231,
2,1,0,1,0,1065.09,0.0507381,0.0504363,0.66774,1,0.00260964,10,3.36783e-05,-3.17539,0.186465,0.316413,8.31738,0.0504363,
2,1,0,1,0,1065.24,0.0522363,0.0518785,0.684071,1,0.00271396,10,3.54885e-05,-3.1649,0.171989,0.343044,9.13931,0.0518785,
2,1,0,1,0,1065.39,0.0537345,0.0534118,0.700275,1,0.00282058,10,3.74029e-05,-3.15473,0.190855,0.309136,8.40409,0.05341183,
2,1,0,1,0,1065.54,0.0552327,0.0549515,0.710481,1,0.0029291,10,3.9042e-05,-3.14845,0.231128,0.25527,7.04807,0.0549515,
2,1,0,1,0,1065.69,0.0567309,0.056416,0.716864,1,0.00303926,10,4.04426e-05,-3.14456,0.213717,0.276065,7.79219,0.056416,
2,1,0,1,0,1065.84,0.0582291,0.0579111,0.73614,1,0.00315114,10,4.26307e-05,-3.13304,0.202885,0.290805,8.34311,0.0579111,
2,1,0,1,0,1065.99,0.0597282,0.0594215,0.747804,1,0.00326527,10,4.44357e-05,-3.12621,0.197824,0.298245,8.69317,0.0594215,
2,1,0,1,0,1066.14,0.0612255,0.0609196,0.761178,1,0.00338122,10,4.63706e-05,-3.11851,0.238618,0.247257,7.31061,0.0609196,
2,1,0,1,0,1066.29,0.062723,0.062414,0.771016,1,0.00349907,10,4.81222e-05,-3.11294,0.211245,0.279296,8.40987,0.062414,
2,1,0,1,0,1066.44,0.0642218,0.0639215,0.78429,1,0.00361842,10,5.0133e-05,-3.10552,0.207033,0.284979,8.73733,0.0639215,
2,1,0,1,0,1066.59,0.06572,0.0654008,0.794831,1,0.00373975,10,5.19826e-05,-3.09973,0.220527,0.267541,8.29738,0.0654008,
2,1,0,1,0,1066.74,0.0672182,0.066932,0.809228,1,0.00386307,10,5.41632e-05,-3.09193,0.253665,0.232591,7.30728,0.066932,
2,1,0,1,0,1066.89,0.0687164,0.0683975,0.818412,1,0.00398794,10,5.59773e-05,-3.08703,0.296911,0.198713,6.34498,0.0683975,
2,1,0,1,0,1067.04,0.0702146,0.0698916,0.828229,1,0.0041139,10,5.78863e-05,-3.08185,0.263934,0.223541,7.23855,0.0698916,
2,1,0,1,0,1067.19,0.0717128,0.0713741,0.839248,1,0.00424174,10,5.99005e-05,-3.07611,0.224062,0.26332,8.60214,0.0713741,
2,1,0,1,0,1067.33,0.073211,0.0729106,0.85069,1,0.00437135,10,6.20243e-05,-3.07023,0.287694,0.205079,6.79947,0.0729106,
2,1,0,1,0,1067.48,0.0747092,0.0744005,0.861093,1,0.00450254,10,6.40657e-05,-3.06495,0.328659,0.179518,6.01145,0.0744005,
2,1,0,1,0,1067.63,0.0762078,0.0758782,0.866152,1,0.00463506,10,6.5722e-05,-3.06241,0.292848,0.20147,6.84943,0.0758782,
2,1,0,1,0,1067.78,0.0777053,0.0773411,0.878043,1,0.00476878,10,6.79088e-05,-3.05648,0.253208,0.23301,7.99207,0.0773411,
2,1,0,1,0,1067.93,0.0792029,0.0788731,0.893239,1,0.00490441,10,7.04526e-05,-3.04903,0.281612,0.209508,7.25473,0.0788731,
2,1,0,1,0,1068.08,0.0807019,0.0804002,0.899353,1,0.00504165,10,7.23082e-05,-3.04607,0.359561,0.164089,5.73442,0.0804002,
2,1,0,1,0,1068.23,0.0822001,0.0819007,0.905386,1,0.00517994,10,7.41518e-05,-3.04317,0.377011,0.156494,5.53913,0.0819007,
2,1,0,1,0,1068.38,0.0836983,0.0834022,0.915189,1,0.0053193,10,7.63288e-05,-3.03849,0.338557,0.174269,6.23891,0.0834022,
2,1,0,1,0,1068.53,0.0851965,0.0849133,0.926949,1,0.00546042,10,7.87103e-05,-3.03294,0.344148,0.171438,6.19671,0.0849133,
2,1,0,1,0,1068.68,0.0866947,0.0863417,0.937199,1,0.00560296,10,8.09194e-05,-3.02817,0.45876,0.128607,4.68758,0.0863417,
2,1,0,1,0,1068.83,0.0881929,0.0878538,0.945153,1,0.00574693,10,8.30353e-05,-3.0245,0.368799,0.159979,5.91137,0.0878538,
2,1,0,1,0,1068.98,0.0896911,0.0893787,0.954075,1,0.00589174,10,8.5274e-05,-3.02042,0.3319,0.177765,6.63721,0.0893787,
2,1,0,1,0,1069.13,0.0911902,0.0908547,0.968178,1,0.00603876,10,8.79635e-05,-3.01404,0.256052,0.230422,8.66921,0.09085466,
2,1,0,1,0,1069.28,0.0926875,0.0923738,0.979806,1,0.0061876,10,9.05085e-05,-3.00886,0.279146,0.211359,8.06667,0.0923738,
2,1,0,1,0,1069.43,0.094185,0.0938912,0.988554,1,0.00633807,10,9.28166e-05,-3.005,0.293345,0.201128,7.78014,0.0938912,
2,1,0,1,0,1069.58,0.0956838,0.0953954,1.00057,1,0.0064901,10,9.54501e-05,-2.99975,0.251648,0.234454,9.18686,0.0953954,
2,1,0,1,0,1069.73,0.097182,0.0968684,1.01672,1,0.0066443,10,9.84878e-05,-2.9928,0.211135,0.279442,11.0741,0.0968684,
2,1,0,1,0,1069.88,0.0986802,0.0983561,1.03216,1,0.0068008,10,0.000101519,-2.98625,0.218641,0.269849,10.8808,0.0983561,
2,1,0,1,0,1070.03,0.100178,0.0998364,1.04903,1,0.00695974,10,0.000104732,-2.97921,0.226155,0.260883,10.6843,0.0998364,
2,1,0,1,0,1070.18,0.101677,0.101412,1.06269,1,0.00712105,10,0.000107769,-2.97359,0.209222,0.281997,11.7616,0.101412,
2,1,0,1,0,1070.33,0.103175,0.102853,1.0867,1,0.00728509,10,0.00011177,-2.96389,0.189894,0.310699,13.1907,0.102853,
2,1,0,1,0,1070.48,0.104673,0.104328,1.11044,1,0.00745251,10,0.000115851,-2.9545,0.175211,0.336736,14.5451,0.104328,
2,1,0,1,0,1070.63,0.106171,0.105893,1.13145,1,0.0076233,10,0.000119813,-2.94637,0.187229,0.315122,13.8683,0.105893,
2,1,0,1,0,1070.78,0.10767,0.107414,1.14904,1,0.00779728,10,0.000123423,-2.93966,0.171838,0.343347,15.4323,0.107414,
2,1,0,1,0,1070.93,0.109167,0.108887,1.17326,1,0.00797424,10,0.000127753,-2.93061,0.165261,0.357011,16.3863,0.108887,
2,1,0,1,0,1071.08,0.110665,0.110342,1.19819,1,0.00815504,10,0.00013221,-2.92148,0.170089,0.346878,16.2005,0.110342,
2,1,0,1,0,1071.23,0.112164,0.111874,1.22323,1,0.00833977,10,0.000136848,-2.91249,0.184595,0.319619,15.2271,0.111874,
2,1,0,1,0,1071.38,0.113662,0.11334,1.24555,1,0.00852782,10,0.000141171,-2.90464,0.191573,0.307977,14.9625,0.11334,
2,1,0,1,0,1071.53,0.11516,0.11481,1.27034,1,0.00871903,10,0.000145848,-2.89608,0.180618,0.326656,16.1848,0.11481,
2,1,0,1,0,1071.68,0.116658,0.116343,1.29316,1,0.00891396,10,0.000150449,-2.88835,0.17991,0.327942,16.5126,0.116343,
2,1,0,1,0,1071.83,0.118157,0.117855,1.31885,1,0.00911287,10,0.000155433,-2.8798,0.203637,0.289731,14.8713,0.117855,
2,1,0,1,0,1071.98,0.119655,0.119346,1.33677,1,0.0093149,10,0.000159537,-2.87394,0.249459,0.236512,12.3481,0.119346,
2,1,0,1,0,1072.13,0.121153,0.120874,1.35463,1,0.00951965,10,0.000163739,-2.86818,0.23642,0.249556,13.2359,0.120874,
2,1,0,1,0,1072.28,0.122652,0.122339,1.37783,1,0.0097276,10,0.000168562,-2.8608,0.207526,0.284302,15.2768,0.122339,
2,1,0,1,0,1072.43,0.124149,0.123812,1.4,1,0.0099388,10,0.000173337,-2.85387,0.23979,0.246048,13.4309,0.123812,
2,1,0,1,0,1072.58,0.125647,0.125337,1.41806,1,0.010153,10,0.000177735,-2.84831,0.289043,0.204122,11.2764,0.125337,
2,1,0,1,0,1072.73,0.127146,0.126852,1.43007,1,0.0103699,10,0.000181407,-2.84464,0.275222,0.214373,12.018,0.126852,
2,1,0,1,0,1072.88,0.128644,0.128352,1.45071,1,0.010589,10,0.000186201,-2.83842,0.279558,0.211047,11.9756,0.128352,
2,1,0,1,0,1073.03,0.130142,0.12981,1.47491,1,0.0108112,10,0.000191458,-2.83123,0.29849,0.197661,11.3411,0.12981,
2,1,0,1,0,1073.18,0.13164,0.131377,1.48806,1,0.0110362,10,0.000195497,-2.82738,0.392587,0.150285,8.68846,0.131377,
2,1,0,1,0,1073.33,0.133139,0.132835,1.49943,1,0.0112631,10,0.000199177,-2.82407,0.444099,0.132853,7.77738,0.132835,
2,1,0,1,0,1073.48,0.134637,0.134311,1.50922,1,0.0114913,10,0.000202705,-2.82125,0.548662,0.107534,6.33856,0.134311,
2,1,0,1,0,1073.63,0.136135,0.135814,1.52253,1,0.0117213,10,0.000206781,-2.81743,0.689242,0.0856013,5.06936,0.135814,
2,1,0,1,0,1073.78,0.137633,0.137323,1.52626,1,0.0119526,10,0.000209591,-2.81637,3.47714,0.016968,1.00476,0.137323,
2,1,0,1,0,1073.93,0.139132,0.138861,1.52651,1,0.0121842,10,0.000211973,-2.8163,-1.38764,-0.0425183,-2.52173,0.138861,
2,1,0,1,0,1074.08,0.140629,0.140351,1.51802,1,0.0124149,10,0.000213057,-2.81872,-0.600602,-0.0982348,-5.79971,0.1403514,
2,1,0,1,0,1074.23,0.142127,0.141826,1.50718,1,0.0126445,10,0.000213757,-2.82183,-0.401903,-0.146802,-8.59766,0.141826,
2,1,0,1,0,1074.38,0.143626,0.143349,1.48963,1,0.0128723,10,0.000213537,-2.82692,-0.231661,-0.254682,-14.725,0.143349,
2,1,0,1,0,1074.53,0.145124,0.144822,1.46194,1,0.0130967,10,0.000211721,-2.83507,-0.155887,-0.378479,-21.5242,0.144822,
2,1,0,1,0,1074.68,0.146622,0.14632,1.42508,1,0.013316,10,0.000208519,-2.84616,-0.129695,-0.454912,-25.2444,0.1463204,
2,1,0,1,0,1074.83,0.14812,0.147805,1.38702,1,0.0135297,10,0.000205008,-2.85792,-0.114003,-0.517532,-27.8739,0.147805,
2,1,0,1,0,1074.98,0.149619,0.149301,1.34167,1,0.0137372,10,0.000200312,-2.87236,-0.0927441,-0.636159,-33.1261,0.149301,
2,1,0,1,0,1075.13,0.151117,0.150826,1.29042,1,0.0139372,10,0.000194629,-2.88927,-0.0804154,-0.733691,-36.7123,0.150826,
2,1,0,1,0,1075.28,0.152615,0.15233,1.22761,1,0.0141289,10,0.000187001,-2.91094,-0.0749497,-0.787194,-37.7891,0.15233,
2,1,0,1,0,1075.43,0.154114,0.153753,1.17518,1,0.014312,10,0.000180688,-2.92989,-0.0739528,-0.797806,-36.6483,0.153753,
2,1,0,1,0,1075.57,0.155612,0.155307,1.12226,1,0.0144871,10,0.000174294,-2.94991,-0.072188,-0.817311,-35.8013,0.155307,
2,1,0,1,0,1075.72,0.157109,0.156796,1.06671,1,0.0146541,10,0.000167257,-2.97195,-0.0684668,-0.861731,-35.8787,0.156796,
2,1,0,1,0,1075.87,0.158608,0.158361,1.0164,1,0.0148134,10,0.000160958,-2.99294,-0.0708392,-0.832872,-33.1432,0.158361,
2,1,0,1,0,1076.02,0.160106,0.159826,0.968618,1,0.0149647,10,0.00015481,-3.01385,-0.0755567,-0.780871,-29.6578,0.159826,
2,1,0,1,0,1076.17,0.161604,0.161307,0.927379,1,0.0151098,10,0.000149593,-3.03274,-0.0788339,-0.748409,-27.1271,0.161307,
2,1,0,1,0,1076.32,0.163102,0.162821,0.889226,1,0.0152487,10,0.000144785,-3.05099,-0.0817856,-0.721398,-25.0414,0.1628214,
2,1,0,1,0,1076.47,0.164601,0.164307,0.852763,1,0.0153821,10,0.000140115,-3.06917,-0.0884696,-0.666896,-22.2374,0.164307,
2,1,0,1,0,1076.62,0.166099,0.165778,0.821353,1,0.0155102,10,0.000136162,-3.08547,-0.0942096,-0.626263,-20.1365,0.1657778,
2,1,0,1,0,1076.77,0.167597,0.167271,0.793168,1,0.0156341,10,0.000132674,-3.10063,-0.109669,-0.537982,-16.688,0.167271,
2,1,0,1,0,1076.92,0.169095,0.168798,0.769648,1,0.015754,10,0.000129915,-3.11371,-0.112637,-0.523806,-15.7627,0.168798,
2,1,0,1,0,1077.07,0.170594,0.170302,0.744266,1,0.0158705,10,0.00012675,-3.12827,-0.118258,-0.49891,-14.5446,0.170302,
2,1,0,1,0,1077.22,0.172091,0.171771,0.720003,1,0.0159833,10,0.000123676,-3.14267,-0.135074,-0.436796,-12.3847,0.171771,
2,1,0,1,0,1077.37,0.173589,0.173254,0.705255,1,0.0160934,10,0.000122188,-3.15165,-0.161396,-0.365561,-10.0824,0.173254,
2,1,0,1,0,1077.52,0.175088,0.174751,0.691838,1,0.0162012,10,0.000120899,-3.16,-0.156813,-0.376245,-10.1566,0.174751,
2,1,0,1,0,1077.67,0.176586,0.176278,0.676353,1,0.0163067,10,0.000119226,-3.16983,-0.153098,-0.385375,-10.1485,0.176278,
2,1,0,1,0,1077.82,0.178084,0.177798,0.660582,1,0.01641,10,0.00011745,-3.18007,-0.196309,-0.300547,-7.79095,0.177798,
2,1,0,1,0,1077.97,0.179582,0.179266,0.652151,1,0.0165114,10,0.000116909,-3.18565,-0.204122,-0.289043,-7.36881,0.179266,
2,1,0,1,0,1078.12,0.181081,0.180814,0.640632,1,0.0166113,10,0.000115835,-3.19339,-0.189904,-0.310683,-7.79339,0.180814,
2,1,0,1,0,1078.27,0.182579,0.182263,0.632425,1,0.0167098,10,0.000115268,-3.19899,-0.215154,-0.274222,-6.75688,0.182263,
2,1,0,1,0,1078.42,0.184077,0.18381,0.623335,1,0.0168067,10,0.000114575,-3.20528,-0.269673,-0.218783,-5.33586,0.18381,
2,1,0,1,0,1078.57,0.185576,0.185301,0.616438,1,0.0169024,10,0.000114226,-3.21011,-0.294107,-0.200608,-4.82589,0.185301,
2,1,0,1,0,1078.72,0.187074,0.186766,0.609656,1,0.016997,10,0.000113863,-3.21492,-0.315242,-0.187158,-4.43613,0.186766,
2,1,0,1,0,1078.87,0.188571,0.188264,0.602995,1,0.0170907,10,0.000113522,-3.21969,-0.396162,-0.148929,-3.49503,0.188264,
2,1,0,1,0,1079.02,0.19007,0.189784,0.596065,1,0.0171834,10,0.000113124,-3.22471,-0.379348,-0.15553,-3.61438,0.189784,
2,1,0,1,0,1079.17,0.191568,0.19128,0.589537,1,0.017275,10,0.000112766,-3.22949,-0.382565,-0.154222,-3.55426,0.19128,
2,1,0,1,0,1079.32,0.193066,0.192748,0.583321,1,0.0173659,10,0.000112434,-3.23409,-0.665327,-0.0886782,-2.01966,0.192748,
2,1,0,1,0,1079.47,0.194564,0.194245,0.581811,1,0.0174563,10,0.000113014,-3.23522,-0.473514,-0.1246,-2.82189,0.194245,
2,1,0,1,0,1079.62,0.196063,0.195739,0.575,1,0.0175459,10,0.00011255,-3.24033,-0.365012,-0.161638,-3.642,0.195739,
2,1,0,1,0,1079.77,0.197561,0.197267,0.569741,1,0.0176347,10,0.000112391,-3.24432,-0.395923,-0.149019,-3.33022,0.197267,
2,1,0,1,0,1079.92,0.199059,0.198735,0.568416,1,0.0177229,10,0.000112964,-3.24533,-0.606941,-0.0972087,-2.15617,0.198735,
2,1,0,1,0,1080.07,0.200557,0.200266,0.566362,1,0.0178107,10,0.000113423,-3.24691,-0.551488,-0.106983,-2.35715,0.200266,
2,1,0,1,0,1080.22,0.202056,0.201764,0.561362,1,0.017898,10,0.000113263,-3.25076,-0.543994,-0.108457,-2.36812,0.201764,
2,1,0,1,0,1080.37,0.203553,0.203232,0.555363,1,0.0179847,10,0.000112868,-3.25542,-0.602837,-0.0978706,-2.13322,0.203232,
2,1,0,1,0,1080.52,0.205051,0.204758,0.555001,1,0.0180708,10,0.000113641,-3.25571,-3.21007,-0.0183797,-0.400799,0.204758,
2,1,0,1,0,1080.67,0.20655,0.206228,0.552079,1,0.0181567,10,0.000113854,-3.258,-0.640395,-0.0921306,-1.99059,0.206228,
2,1,0,1,0,1080.82,0.208048,0.207762,0.549441,1,0.0182425,10,0.000114153,-3.26008,-0.513505,-0.114897,-2.45499,0.207762,
2,1,0,1,0,1080.97,0.209546,0.209247,0.547188,1,0.0183276,10,0.000114498,-3.26186,-0.748799,-0.0787929,-1.68289,0.209247,
2,1,0,1,0,1081.12,0.211044,0.210753,0.544046,1,0.018412,10,0.000114659,-3.26436,-0.643193,-0.0917298,-1.95013,0.210753,
2,1,0,1,0,1081.27,0.212543,0.212262,0.542916,1,0.0184964,10,0.00011524,-3.26527,-0.720945,-0.081837,-1.73008,0.212262,
2,1,0,1,0,1081.42,0.214041,0.213693,0.540751,1,0.0185803,10,0.000115555,-3.267,-0.851145,-0.0693184,-1.45877,0.213693,
2,1,0,1,0,1081.57,0.215539,0.215237,0.539485,1,0.018664,10,0.000116117,-3.26802,-0.853999,-0.0690868,-1.45069,0.215237,
2,1,0,1,0,1081.72,0.217038,0.216706,0.536493,1,0.0187471,10,0.000116261,-3.27044,-1.14183,-0.0516714,-1.08367,0.216706,
2,1,0,1,0,1081.87,0.218535,0.218227,0.534164,1,0.0188301,10,0.000116569,-3.27233,34.3807,0.00171608,0.035746,0.218227,
2,1,0,1,0,1082.02,0.220033,0.219722,0.531071,1,0.0189129,10,0.000116688,-3.27485,-5.17414,-0.0114029,-0.236719,0.219722,
2,1,0,1,0,1082.17,0.221532,0.221233,0.530422,1,0.0189955,10,0.000117347,-3.27538,-0.693833,-0.0850349,-1.76253,0.221233,
2,1,0,1,0,1082.32,0.22303,0.222756,0.524954,1,0.0190776,10,0.000116936,-3.27988,-1.10725,-0.0532852,-1.09535,0.222756,
2,1,0,1,0,1082.47,0.224528,0.224252,0.52882,1,0.0191595,10,0.000118589,-3.27669,-1.33565,-0.0441734,-0.908279,0.224252,
2,1,0,1,0,1082.62,0.226026,0.225742,0.524642,1,0.0192411,10,0.000118433,-3.28014,-1.08139,-0.0545597,-1.11733,0.225742,
2,1,0,1,0,1082.77,0.227525,0.227192,0.522733,1,0.0193226,10,0.000118761,-3.28172,-0.602576,-0.0979129,-1.99487,0.2271923,
2,1,0,1,0,1082.92,0.229023,0.228746,0.519974,1,0.0194038,10,0.000118942,-3.28402,-0.858658,-0.0687119,-1.40391,0.2287458,
2,1,0,1,0,1083.07,0.230521,0.230175,0.520036,1,0.0194846,10,0.000119699,-3.28397,-1.14304,-0.0516168,-1.05114,0.230175,
2,1,0,1,0,1083.22,0.232019,0.231724,0.519064,1,0.0195654,10,0.00012028,-3.28478,-2.14938,-0.0274497,-0.556423,0.231724,
2,1,0,1,0,1083.37,0.233518,0.233184,0.518783,1,0.0196461,10,0.000120972,-3.28501,-1.07125,-0.0550756,-1.11059,0.233184,
2,1,0,1,0,1083.52,0.235015,0.234705,0.517885,1,0.0197264,10,0.00012155,-3.28577,-1.37841,-0.042803,-0.862312,0.2347049,
2,1,0,1,0,1083.67,0.236513,0.23619,0.513966,1,0.0198064,10,0.000121394,-3.28907,-2.10906,-0.0279745,-0.56134,0.23619,
2,1,0,1,0,1083.82,0.238012,0.237687,0.514023,1,0.0198863,10,0.000122177,-3.28902,-1.31975,-0.0447054,-0.893034,0.237687,
2,1,0,1,0,1083.96,0.23951,0.239212,0.513749,1,0.0199661,10,0.000122895,-3.28925,-2.86588,-0.0205871,-0.411949,0.239212,
2,1,0,1,0,1084.11,0.241008,0.24071,0.509209,1,0.0200457,10,0.000122572,-3.2931,-1.10787,-0.0532555,-1.06391,0.24071,
2,1,0,1,0,1084.26,0.242506,0.242157,0.509433,1,0.020125,10,0.000123363,-3.29291,-1.15879,-0.050915,-1.01524,0.242157,
2,1,0,1,0,1084.41,0.244005,0.243745,0.507825,1,0.0202042,10,0.00012378,-3.29429,1.88382,0.0313194,0.621214,0.243745,
2,1,0,1,0,1084.56,0.245503,0.245218,0.509783,1,0.0202834,10,0.000125008,-3.29261,-1.1585,-0.0509278,-1.00977,0.245218,
2,1,0,1,0,1084.71,0.247001,0.246689,0.507018,1,0.0203623,10,0.000125076,-3.29498,-0.702619,-0.0839715,-1.66244,0.246689,
2,1,0,1,0,1084.86,0.2485,0.248156,0.503474,1,0.0204411,10,0.00012494,-3.29802,-5.61066,-0.0105157,-0.207487,0.248156,
2,1,0,1,0,1085.01,0.249997,0.249684,0.50567,1,0.0205196,10,0.000126257,-3.29613,-8.99102,-0.0065621,-0.129317,0.249684,
2,1,0,1,0,1085.16,0.251495,0.251171,0.503236,1,0.020598,10,0.000126398,-3.29823,-2.22078,-0.0265672,-0.522247,0.251171,
2,1,0,1,0,1085.31,0.252994,0.252681,0.501288,1,0.0206764,10,0.000126666,-3.29991,-0.759833,-0.0776487,-1.518,0.252681,
2,1,0,1,0,1085.46,0.254492,0.254206,0.501082,1,0.0207545,10,0.000127378,-3.30009,-1.07955,-0.0546523,-1.06903,0.254206,
2,1,0,1,0,1085.61,0.25599,0.255693,0.498579,1,0.0208322,10,0.000127483,-3.30227,3.52174,0.0167531,0.32793,0.255693,
2,1,0,1,0,1085.76,0.257488,0.257191,0.498785,1,0.0209099,10,0.000128283,-3.30209,-7.20894,-0.00818428,-0.15978,0.257191,
2,1,0,1,0,1085.91,0.258987,0.258699,0.499241,1,0.0209877,10,0.000129153,-3.30169,-1.2487,-0.0472492,-0.914911,0.258699,
2,1,0,1,0,1086.06,0.260485,0.26022,0.497018,1,0.0210653,10,0.000129334,-3.30363,-1.76058,-0.0335116,-0.650385,0.26022,
2,1,0,1,0,1086.21,0.261983,0.261711,0.497993,1,0.0211423,10,0.00013033,-3.30278,-0.846194,-0.069724,-1.34785,0.261711,
2,1,0,1,0,1086.36,0.263481,0.263179,0.495409,1,0.0212195,10,0.000130381,-3.30504,2.79826,0.0210846,0.406452,0.263179,
2,1,0,1,0,1086.51,0.26498,0.264692,0.493327,1,0.0212966,10,0.00013058,-3.30687,-18.3697,-0.00321181,-0.0620344,0.264692,
2,1,0,1,0,1086.66,0.266477,0.266197,0.494512,1,0.0213734,10,0.000131638,-3.30582,-5.12267,-0.0115174,-0.222158,0.266197,
2,1,0,1,0,1086.81,0.267976,0.26767,0.489998,1,0.0214501,10,0.000131158,-3.30981,4.88589,0.0120756,0.231534,0.26767,
2,1,0,1,0,1086.96,0.269474,0.269206,0.491391,1,0.0215267,10,0.000132285,-3.30857,-16.1915,-0.00364389,-0.0696583,0.2692056,
2,1,0,1,0,1087.11,0.270972,0.270686,0.493558,1,0.0216032,10,0.000133599,-3.30666,-7.83335,-0.0075319,-0.143912,0.270686,
2,1,0,1,0,1087.26,0.27247,0.27216,0.48814,1,0.0216796,10,0.000132852,-3.31146,-1.61769,-0.0364718,-0.694014,0.2721599,
2,1,0,1,0,1087.41,0.273968,0.27362,0.486179,1,0.0217558,10,0.000133028,-3.3132,-1.17142,-0.0503664,-0.959507,0.2736201,
2,1,0,1,0,1087.56,0.275467,0.275159,0.487151,1,0.0218317,10,0.000134044,-3.31234,-1.40613,-0.0419593,-0.800322,0.275159,
2,1,0,1,0,1087.71,0.276965,0.276703,0.485985,1,0.0219076,10,0.000134473,-3.31338,-1.89225,-0.0311798,-0.594056,0.276703,
2,1,0,1,0,1087.86,0.278463,0.278161,0.486686,1,0.0219834,10,0.000135377,-3.31275,-0.776115,-0.0760196,-1.44004,0.278161,
2,1,0,1,0,1088.01,0.279962,0.279687,0.485508,1,0.0220591,10,0.00013579,-3.3138,-0.949859,-0.0621145,-1.17577,0.279687,
2,1,0,1,0,1088.16,0.281459,0.28118,0.484834,1,0.0221345,10,0.000136326,-3.31441,-3.31722,-0.017786,-0.337169,0.28118,
2,1,0,1,0,1088.31,0.282957,0.282663,0.484473,1,0.0222098,10,0.000136943,-3.31473,-3.83645,-0.0153788,-0.289832,0.282663,
2,1,0,1,0,1088.46,0.284456,0.284165,0.482354,1,0.0222853,10,0.000137068,-3.31663,-4.82646,-0.0122243,-0.230085,0.284165,
2,1,0,1,0,1088.61,0.285954,0.285645,0.48072,1,0.0223604,10,0.000137315,-3.31811,-1.38804,-0.0425059,-0.800536,0.285645,
2,1,0,1,0,1088.76,0.287452,0.287175,0.479109,1,0.0224353,10,0.000137588,-3.31957,-2.99682,-0.0196875,-0.36936,0.287175,
2,1,0,1,0,1088.91,0.28895,0.288692,0.47943,1,0.0225102,10,0.000138408,-3.31927,3.40183,0.0173436,0.323726,0.288692,
2,1,0,1,0,1089.06,0.290449,0.290146,0.480161,1,0.022585,10,0.000139317,-3.31861,-9.21463,-0.00640286,-0.119936,0.2901465,
2,1,0,1,0,1089.21,0.291947,0.291631,0.476503,1,0.0226596,10,0.000138963,-3.32193,-1.90921,-0.0309028,-0.575847,0.291631,
2,1,0,1,0,1089.36,0.293445,0.293115,0.47572,1,0.022734,10,0.00013944,-3.32265,-1.05532,-0.055907,-1.04394,0.293115,
2,1,0,1,0,1089.51,0.294943,0.294649,0.476134,1,0.0228083,10,0.000140292,-3.32227,-3.24602,-0.0181761,-0.337542,0.294649,
2,1,0,1,0,1089.66,0.296442,0.296147,0.479398,1,0.0228827,10,0.000141972,-3.3193,-1.73439,-0.0340178,-0.630241,0.296147,
2,1,0,1,0,1089.81,0.297939,0.297662,0.474624,1,0.0229568,10,0.000141278,-3.32365,-2.78104,-0.0212151,-0.391853,0.297662,
2,1,0,1,0,1089.96,0.299437,0.299123,0.471825,1,0.0230307,10,0.000141134,-3.32622,-0.00124941,-47.2222,-246.071,0.299123,
2,1,0,1,0,1090.04,0.299738,0.299426,0.142776,1,0.0230636,10,4.27508e-05,-3.84535,0.00112346,52.5164,427.648,0.299426,
2,0,0,1,0,1090.19,0.29824,0.297916,-0.0270822,1,0.0230632,10,-8.06822e-06,-4.56732,0.0043496,13.5645,143.27,0.297916,
2,0,0,1,0,1090.34,0.296741,0.296474,-0.0562175,1,0.0230536,10,-1.6667e-05,-4.25013,-0.00502631,-11.7382,17.4489,0.296474,
2,0,0,1,0,1090.49,0.295243,0.294951,-0.0763114,1,0.0230403,10,-2.25081e-05,-4.11741,-0.0143306,-4.11705,11.1764,0.2949512,
2,0,0,1,0,1090.64,0.293745,0.293418,-0.0928364,1,0.0230246,10,-2.72399e-05,-4.03228,-0.0223391,-2.64111,9.14017,0.293418,
2,0,0,1,0,1090.79,0.292246,0.29193,-0.105734,1,0.0230069,10,-3.08669e-05,-3.97579,-0.0301664,-1.95582,7.67487,0.29193,
2,0,0,1,0,1090.94,0.290748,0.29045,-0.116667,1,0.0229873,10,-3.38859e-05,-3.93305,-0.03799,-1.55304,6.89049,0.29045,
2,0,0,1,0,1091.09,0.28925,0.288914,-0.126702,1,0.0229662,10,-3.66061e-05,-3.89722,-0.0488527,-1.20771,5.85909,0.288914,
2,0,0,1,0,1091.24,0.287752,0.287428,-0.133964,1,0.0229437,10,-3.85048e-05,-3.87301,-0.0523735,-1.12652,5.96111,0.2874276,
2,0,0,1,0,1091.39,0.286253,0.28591,-0.141019,1,0.02292,10,-4.03186e-05,-3.85072,-0.070086,-0.841823,4.72358,0.28591,
2,0,0,1,0,1091.54,0.284755,0.284456,-0.150785,1,0.0228951,10,-4.28917e-05,-3.82164,-0.0640653,-0.920935,5.34863,0.2844559,
2,0,0,1,0,1091.69,0.283258,0.282924,-0.157617,1,0.022869,10,-4.45936e-05,-3.8024,-0.0770343,-0.765892,4.63604,0.282924,
2,0,0,1,0,1091.84,0.281759,0.281449,-0.163928,1,0.022842,10,-4.61373e-05,-3.78535,-0.0921441,-0.640301,4.05449,0.281449,
2,0,0,1,0,1091.99,0.280261,0.279969,-0.167014,1,0.0228141,10,-4.67586e-05,-3.77725,-0.100506,-0.587028,3.85402,0.279969,
2,0,0,1,0,1092.14,0.278763,0.278487,-0.175064,1,0.0227854,10,-4.87532e-05,-3.7568,-0.113122,-0.521561,3.56887,0.278487,
2,0,0,1,0,1092.29,0.277264,0.276918,-0.179767,1,0.0227557,10,-4.97806e-05,-3.74529,-0.115961,-0.508793,3.588,0.276918,
2,0,0,1,0,1092.44,0.275766,0.275476,-0.185921,1,0.0227252,10,-5.12167e-05,-3.73067,-0.183411,-0.321681,2.33185,0.2754758,
2,0,0,1,0,1092.59,0.274268,0.273972,-0.189973,1,0.0226938,10,-5.20472e-05,-3.72131,-0.12941,-0.455917,3.4263,0.273972,
2,0,0,1,0,1092.74,0.27277,0.272444,-0.196518,1,0.022662,10,-5.35403e-05,-3.7066,-0.130522,-0.452032,3.49719,0.272444,
2,0,0,1,0,1092.89,0.271272,0.27093,-0.201574,1,0.0226291,10,-5.46125e-05,-3.69556,-0.13535,-0.435907,3.39333,0.27093,
2,0,0,1,0,1093.04,0.269773,0.269465,-0.208522,1,0.0225953,10,-5.61894e-05,-3.68085,-0.169734,-0.347603,2.80119,0.269465,
2,0,0,1,0,1093.19,0.268275,0.267951,-0.211728,1,0.0225611,10,-5.67326e-05,-3.67422,-0.180013,-0.327754,2.68559,0.267951,
2,0,0,1,0,1093.34,0.266778,0.266445,-0.214895,1,0.0225263,10,-5.72578e-05,-3.66777,-0.138298,-0.426615,3.59116,0.266445,
2,0,0,1,0,1093.49,0.265279,0.264976,-0.218894,1,0.0224908,10,-5.80017e-05,-3.65977,-0.143618,-0.410811,3.49444,0.264976,
2,0,0,1,0,1093.64,0.263781,0.263461,-0.223311,1,0.0224546,10,-5.88339e-05,-3.65109,-0.170014,-0.34703,3.02937,0.263461,
2,0,0,1,0,1093.79,0.262283,0.261992,-0.226023,1,0.0224177,10,-5.92162e-05,-3.64585,-0.200982,-0.293558,2.60017,0.261992,
2,0,0,1,0,1093.94,0.260784,0.260457,-0.22953,1,0.0223805,10,-5.97828e-05,-3.63916,-0.192526,-0.306452,2.77684,0.260457,
2,0,0,1,0,1094.09,0.259286,0.258974,-0.234727,1,0.0223425,10,-6.07883e-05,-3.62944,-0.186596,-0.316191,2.88853,0.258974,
2,0,0,1,0,1094.24,0.257788,0.257458,-0.241765,1,0.0223039,10,-6.22444e-05,-3.61661,-0.263627,-0.223801,2.09134,0.257458,
2,0,0,1,0,1094.39,0.25629,0.255969,-0.243393,1,0.0222646,10,-6.23011e-05,-3.61369,-0.280884,-0.210051,1.98652,0.255969,
2,0,0,1,0,1094.54,0.254791,0.254469,-0.244874,1,0.022225,10,-6.23129e-05,-3.61106,-0.231744,-0.254591,2.44772,0.254469,
2,0,0,1,0,1094.69,0.253293,0.252952,-0.249715,1,0.0221849,10,-6.31658e-05,-3.60256,-0.209788,-0.281236,2.74158,0.252952,
2,0,0,1,0,1094.84,0.251796,0.251483,-0.253282,1,0.0221443,10,-6.36961e-05,-3.5964,-0.195765,-0.301382,3.01183,0.251483,
2,0,0,1,0,1094.99,0.250297,0.250005,-0.255879,1,0.0221029,10,-6.39709e-05,-3.59197,-0.264254,-0.22327,2.23634,0.250005,
2,0,0,1,0,1095.14,0.248799,0.248447,-0.261565,1,0.0220611,10,-6.49849e-05,-3.58242,-0.255398,-0.231012,2.34748,0.248447,
2,0,0,1,0,1095.29,0.247301,0.246988,-0.263116,1,0.0220189,10,-6.49866e-05,-3.57985,-0.279716,-0.210928,2.17131,0.246988,
2,0,0,1,0,1095.44,0.245802,0.245508,-0.269915,1,0.0219761,10,-6.62663e-05,-3.56877,-0.258184,-0.228519,2.38981,0.245508,
2,0,0,1,0,1095.59,0.244304,0.243991,-0.272012,1,0.0219327,10,-6.63685e-05,-3.56541,-0.272314,-0.216662,2.29269,0.243991,
2,0,0,1,0,1095.74,0.242806,0.242461,-0.275295,1,0.0218888,10,-6.67484e-05,-3.5602,-0.322449,-0.182975,1.96107,0.242461,
2,0,0,1,0,1095.89,0.241308,0.241052,-0.277839,1,0.0218446,10,-6.69737e-05,-3.55621,-0.332487,-0.17745,1.92455,0.241052,
2,0,0,1,0,1096.04,0.23981,0.239497,-0.281932,1,0.0217998,10,-6.7522e-05,-3.54986,-0.183783,-0.321031,3.51631,0.239497,
2,0,0,1,0,1096.19,0.238311,0.238027,-0.285312,1,0.0217544,10,-6.79118e-05,-3.54468,-0.256237,-0.230255,2.56597,0.238027,
2,0,0,1,0,1096.34,0.236814,0.236474,-0.288601,1,0.0217086,10,-6.82467e-05,-3.5397,-0.26535,-0.222347,2.49866,0.236474,
2,0,0,1,0,1096.49,0.235316,0.235007,-0.288091,1,0.0216624,10,-6.77034e-05,-3.54047,-0.283244,-0.208301,2.36416,0.235007,
2,0,0,1,0,1096.64,0.233817,0.2335,-0.29523,1,0.0216157,10,-6.89361e-05,-3.52984,-0.24304,-0.242758,2.78057,0.2334996,
2,0,0,1,0,1096.78,0.232319,0.23198,-0.298911,1,0.0215683,10,-6.93413e-05,-3.52446,-0.278536,-0.211822,2.45277,0.23198,
2,0,0,1,0,1096.93,0.230821,0.230551,-0.298236,1,0.0215204,10,-6.87586e-05,-3.52544,-0.441259,-0.133708,1.56032,0.2305506,
2,0,0,1,0,1097.08,0.229322,0.229035,-0.302936,1,0.0214721,10,-6.9383e-05,-3.51865,-0.345404,-0.170814,2.02461,0.229035,
2,0,0,1,0,1097.23,0.227824,0.227522,-0.307056,1,0.0214235,10,-6.98619e-05,-3.51278,-0.356672,-0.165418,1.99216,0.227522,
2,0,0,1,0,1097.38,0.226326,0.226033,-0.307765,1,0.0213741,10,-6.95652e-05,-3.51178,-0.377609,-0.156246,1.90027,0.226033,
2,0,0,1,0,1097.53,0.224828,0.224552,-0.312927,1,0.0213243,10,-7.02684e-05,-3.50456,-0.73185,-0.0806176,0.985614,0.224552,
2,0,0,1,0,1097.68,0.223329,0.223034,-0.318118,1,0.021274,10,-7.09511e-05,-3.49741,-0.342973,-0.172025,2.132,0.223034,
2,0,0,1,0,1097.83,0.221831,0.221556,-0.321749,1,0.0212235,10,-7.12854e-05,-3.49248,-0.279905,-0.210786,2.64563,0.221556,
2,0,0,1,0,1097.98,0.220334,0.220052,-0.323027,1,0.0211721,10,-7.10828e-05,-3.49076,-0.252204,-0.233937,2.95048,0.220052,
2,0,0,1,0,1098.13,0.218835,0.218492,-0.328286,1,0.0211201,10,-7.17278e-05,-3.48375,-0.320488,-0.184094,2.36052,0.218492,
2,0,0,1,0,1098.28,0.217337,0.217007,-0.331887,1,0.0210676,10,-7.20219e-05,-3.47901,-0.370011,-0.159455,2.05807,0.2170071,
2,0,0,1,0,1098.43,0.215839,0.215489,-0.335612,1,0.0210148,10,-7.23206e-05,-3.47416,-0.321927,-0.183271,2.41011,0.2154886,
2,0,0,1,0,1098.58,0.21434,0.213997,-0.337827,1,0.0209613,10,-7.22937e-05,-3.47131,-0.266593,-0.221311,2.91051,0.213997,
2,0,0,1,0,1098.73,0.212842,0.212529,-0.342768,1,0.0209073,10,-7.2848e-05,-3.465,-0.28245,-0.208887,2.79164,0.212529,
2,0,0,1,0,1098.88,0.211344,0.211025,-0.345376,1,0.0208527,10,-7.28832e-05,-3.46171,-0.391886,-0.150554,2.03732,0.211025,
2,0,0,1,0,1099.03,0.209846,0.209563,-0.347058,1,0.0207977,10,-7.27305e-05,-3.4596,-0.366958,-0.160781,2.19337,0.209563,
2,0,0,1,0,1099.18,0.208348,0.208049,-0.356266,1,0.020742,10,-7.41206e-05,-3.44823,-0.284808,-0.207157,2.86342,0.208049,
2,0,0,1,0,1099.33,0.206849,0.20655,-0.363496,1,0.0206856,10,-7.508e-05,-3.4395,-0.305928,-0.192856,2.69564,0.20655,
2,0,0,1,0,1099.48,0.205352,0.205041,-0.36357,1,0.0206284,10,-7.45469e-05,-3.43941,-0.376915,-0.156534,2.2032,0.205041,
2,0,0,1,0,1099.63,0.203854,0.203519,-0.365074,1,0.0205709,10,-7.42993e-05,-3.43762,-0.255528,-0.230895,3.30964,0.203519,
2,0,0,1,0,1099.78,0.202355,0.202049,-0.370538,1,0.0205128,10,-7.48668e-05,-3.43117,-0.278726,-0.211678,3.07086,0.202049,
2,0,0,1,0,1099.93,0.200857,0.200568,-0.374236,1,0.020454,10,-7.50597e-05,-3.42685,-0.361296,-0.163301,2.39102,0.2005676,
2,0,0,1,0,1100.08,0.199359,0.199045,-0.380661,1,0.0203945,10,-7.57687e-05,-3.41946,-0.347793,-0.169641,2.508,0.199045,
2,0,0,1,0,1100.23,0.19786,0.197536,-0.384849,1,0.0203344,10,-7.60214e-05,-3.41471,-0.293826,-0.200799,3.01201,0.197536,
2,0,0,1,0,1100.38,0.196362,0.196081,-0.38961,1,0.0202737,10,-7.63951e-05,-3.40937,-0.27996,-0.210744,3.19384,0.196081,
2,0,0,1,0,1100.53,0.194864,0.194515,-0.395208,1,0.0202121,10,-7.68738e-05,-3.40317,-0.239755,-0.246084,3.77928,0.194515,
2,0,0,1,0,1100.68,0.193366,0.19303,-0.40125,1,0.0201495,10,-7.74534e-05,-3.39658,-0.257326,-0.229282,3.58314,0.19303,
2,0,0,1,0,1100.83,0.191867,0.191541,-0.404857,1,0.0200862,10,-7.75469e-05,-3.3927,-0.297604,-0.19825,3.14879,0.191541,
2,0,0,1,0,1100.98,0.190369,0.190089,-0.411522,1,0.0200222,10,-7.82257e-05,-3.38561,-0.218718,-0.269754,4.35016,0.1900887,
2,0,0,1,0,1101.13,0.188872,0.188548,-0.415906,1,0.0199573,10,-7.84181e-05,-3.381,-0.200965,-0.293583,4.76888,0.188548,
2,0,0,1,0,1101.28,0.187373,0.187041,-0.425069,1,0.0198912,10,-7.95053e-05,-3.37154,-0.197714,-0.298411,4.93772,0.187041,
2,0,0,1,0,1101.43,0.185875,0.185553,-0.428864,1,0.0198243,10,-7.95772e-05,-3.36768,-0.197014,-0.29947,5.01351,0.185553,
2,0,0,1,0,1101.58,0.184377,0.184062,-0.434341,1,0.0197563,10,-7.99459e-05,-3.36217,-0.19541,-0.301929,5.14578,0.184062,
2,0,0,1,0,1101.73,0.182878,0.182595,-0.445846,1,0.0196874,10,-8.14091e-05,-3.35082,-0.224452,-0.262863,4.56971,0.182595,
2,0,0,1,0,1101.88,0.18138,0.181044,-0.454259,1,0.019617,10,-8.2241e-05,-3.3427,-0.179124,-0.329381,5.82639,0.181044,
2,0,0,1,0,1102.03,0.179882,0.179551,-0.462374,1,0.0195453,10,-8.30199e-05,-3.33501,-0.237384,-0.248542,4.48673,0.179551,
2,0,0,1,0,1102.18,0.178384,0.178062,-0.471408,1,0.0194722,10,-8.39396e-05,-3.3266,-0.179076,-0.32947,6.07982,0.178062,
2,0,0,1,0,1102.33,0.176886,0.176588,-0.483127,1,0.019398,10,-8.53143e-05,-3.31594,-0.156271,-0.37755,7.12854,0.176588,
2,0,0,1,0,1102.48,0.175387,0.17509,-0.493936,1,0.0193219,10,-8.64832e-05,-3.30633,-0.147088,-0.40112,7.72742,0.17509,
2,0,0,1,0,1102.63,0.17389,0.173551,-0.505931,1,0.0192441,10,-8.78046e-05,-3.29591,-0.131197,-0.449705,8.87096,0.173551,
2,0,0,1,0,1102.78,0.172392,0.172088,-0.51912,1,0.0191645,10,-8.93345e-05,-3.28473,-0.140215,-0.420783,8.51448,0.172088,
2,0,0,1,0,1102.93,0.170893,0.170589,-0.529973,1,0.019083,10,-9.04075e-05,-3.27575,-0.125289,-0.470913,9.77849,0.170589,
2,0,0,1,0,1103.08,0.169395,0.169089,-0.546039,1,0.0189993,10,-9.23294e-05,-3.26278,-0.103014,-0.572737,12.2267,0.169089,
2,0,0,1,0,1103.23,0.167897,0.16758,-0.563503,1,0.0189128,10,-9.44321e-05,-3.2491,-0.105916,-0.557048,12.2771,0.1675805,
2,0,0,1,0,1103.38,0.166398,0.166092,-0.581224,1,0.0188238,10,-9.65364e-05,-3.23566,-0.114834,-0.513785,11.7553,0.166092,
2,0,0,1,0,1103.53,0.1649,0.164621,-0.599118,1,0.018732,10,-9.86273e-05,-3.22249,-0.0952089,-0.61969,14.6333,0.164621,
2,0,0,1,0,1103.68,0.163402,0.1631,-0.627527,1,0.018637,10,-0.00010235,-3.20237,-0.090554,-0.651545,15.9379,0.1631,
2,0,0,1,0,1103.83,0.161904,0.161575,-0.651885,1,0.0185384,10,-0.000105329,-3.18583,-0.0855728,-0.689472,17.5351,0.161575,
2,0,0,1,0,1103.98,0.160405,0.160043,-0.680061,1,0.0184358,10,-0.000108839,-3.16745,-0.0837973,-0.70408,18.6619,0.160043,
2,0,0,1,0,1104.13,0.158907,0.158598,-0.705265,1,0.0183291,10,-0.000111853,-3.15165,-0.0745891,-0.791,21.8991,0.1585976,
2,0,0,1,0,1104.28,0.15741,0.157148,-0.739105,1,0.0182176,10,-0.000116149,-3.13129,-0.0701067,-0.841574,24.4753,0.157148,
2,0,0,1,0,1104.43,0.155911,0.155588,-0.77688,1,0.0181006,10,-0.000120873,-3.10965,-0.0683557,-0.863132,26.2996,0.155588,
2,0,0,1,0,1104.58,0.154413,0.154072,-0.816947,1,0.0179778,10,-0.000125869,-3.08781,-0.0693217,-0.851104,27.1904,0.154072,
2,0,0,1,0,1104.73,0.152915,0.152601,-0.859676,1,0.017849,10,-0.000131188,-3.06567,-0.0662691,-0.89031,29.9034,0.152601,
2,0,0,1,0,1104.88,0.151417,0.151106,-0.907143,1,0.0177138,10,-0.000137075,-3.04232,-0.0646571,-0.912506,32.3653,0.151106,
2,0,0,1,0,1105.02,0.149918,0.149625,-0.955852,1,0.0175713,10,-0.000143019,-3.01961,-0.0651041,-0.90624,33.7556,0.149625,
2,0,0,1,0,1105.17,0.14842,0.148112,-1.00793,1,0.0174209,10,-0.000149287,-2.99657,-0.0667881,-0.883391,34.7596,0.148112,
2,0,0,1,0,1105.32,0.146922,0.146619,-1.06267,1,0.0172628,10,-0.000155808,-2.9736,-0.0684385,-0.862088,35.6856,0.146619,
2,0,0,1,0,1105.47,0.145424,0.145131,-1.11579,1,0.0170968,10,-0.000161935,-2.95242,-0.0705895,-0.835818,36.3883,0.145131,
2,0,0,1,0,1105.62,0.143925,0.143627,-1.1703,1,0.0169223,10,-0.000168087,-2.9317,-0.0687418,-0.858284,39.1049,0.1436272,
2,0,0,1,0,1105.77,0.142428,0.142083,-1.22716,1,0.0167394,10,-0.000174359,-2.9111,-0.0785463,-0.75115,35.8389,0.142083,
2,0,0,1,0,1105.92,0.14093,0.140596,-1.27518,1,0.0165487,10,-0.000179286,-2.89443,-0.0918759,-0.642171,31.9308,0.1405963,
2,0,0,1,0,1106.07,0.139431,0.139105,-1.32042,1,0.0163506,10,-0.000183677,-2.87929,-0.0999619,-0.590225,30.437,0.139105,
2,0,0,1,0,1106.22,0.137933,0.137601,-1.36941,1,0.0161459,10,-0.000188432,-2.86347,-0.114199,-0.51664,27.4947,0.137601,
2,0,0,1,0,1106.37,0.136435,0.136109,-1.40913,1,0.0159346,10,-0.000191795,-2.85105,-0.129077,-0.457091,25.0042,0.1361087,
2,0,0,1,0,1106.52,0.134936,0.134641,-1.44388,1,0.0157176,10,-0.000194405,-2.84047,-0.16477,-0.358076,20.0606,0.134641,
2,0,0,1,0,1106.67,0.133438,0.13315,-1.47212,1,0.015496,10,-0.000196012,-2.83206,-0.193717,-0.304569,17.4731,0.13315,
2,0,0,1,0,1106.82,0.13194,0.131631,-1.49397,1,0.0152709,10,-0.000196652,-2.82566,-0.229078,-0.257554,15.0248,0.131631,
2,0,0,1,0,1106.97,0.130442,0.13011,-1.51646,1,0.015042,10,-0.000197307,-2.81917,-0.332056,-0.177681,10.4774,0.13011,
2,0,0,1,0,1107.12,0.128943,0.128618,-1.53157,1,0.0148105,10,-0.000196988,-2.81486,-0.510933,-0.115475,6.86399,0.128618,
2,0,0,1,0,1107.27,0.127445,0.127157,-1.53915,1,0.0145776,10,-0.000195714,-2.81272,-0.858052,-0.0687604,4.11423,0.127157,
2,0,0,1,0,1107.42,0.125948,0.125641,-1.54031,1,0.0143442,10,-0.000193526,-2.81239,-2.283,-0.0258432,1.55032,0.125641,
2,0,0,1,0,1107.57,0.124449,0.124118,-1.54125,1,0.0141101,10,-0.000191297,-2.81213,-34.9847,-0.00168645,0.101141,0.124118,
2,0,0,1,0,1107.72,0.122951,0.122621,-1.537,1,0.0138763,10,-0.000188469,-2.81333,1.19577,0.0493405,-2.9542,0.122621,
2,0,0,1,0,1107.87,0.121453,0.121129,-1.53213,1,0.0136432,10,-0.000185586,-2.81471,0.63378,0.0930922,-5.55228,0.121129,
2,0,0,1,0,1108.02,0.119955,0.119655,-1.51421,1,0.0134119,10,-0.000181183,-2.81981,0.492251,0.119857,-7.10764,0.119655,
2,0,0,1,0,1108.17,0.118456,0.11815,-1.50522,1,0.0131822,10,-0.000177842,-2.8224,0.508292,0.116075,-6.82331,0.11815,
2,0,0,1,0,1108.32,0.116958,0.116621,-1.49834,1,0.012954,10,-0.000174737,-2.82439,0.357819,0.164888,-9.60925,0.116621,
2,0,0,1,0,1108.47,0.11546,0.115174,-1.47975,1,0.0127279,10,-0.000170429,-2.82981,0.303665,0.194293,-11.2087,0.115174,
2,0,0,1,0,1108.62,0.113962,0.113638,-1.45693,1,0.0125047,10,-0.000165562,-2.83656,0.269314,0.219075,-12.4919,0.113638,
2,0,0,1,0,1108.77,0.112463,0.112119,-1.4459,1,0.0122841,10,-0.000162114,-2.83986,0.268904,0.219409,-12.3564,0.112119,
2,0,0,1,0,1108.92,0.110966,0.110662,-1.4254,1,0.0120662,10,-0.000157738,-2.84606,0.261483,0.225636,-12.5369,0.110662,
2,0,0,1,0,1109.07,0.109468,0.109157,-1.40584,1,0.011851,10,-0.000153458,-2.85206,0.219186,0.269178,-14.7365,0.109157,
2,0,0,1,0,1109.22,0.107969,0.107666,-1.3834,1,0.0116388,10,-0.000148946,-2.85905,0.231585,0.254767,-13.7679,0.107666,
2,0,0,1,0,1109.37,0.106471,0.106147,-1.36336,1,0.0114304,10,-0.000144716,-2.86539,0.224835,0.262415,-14.0032,0.1061469,
2,0,0,1,0,1109.52,0.104973,0.104667,-1.34439,1,0.0112246,10,-0.000140712,-2.87148,0.225402,0.261754,-13.7196,0.104667,
2,0,0,1,0,1109.67,0.103474,0.103119,-1.32534,1,0.0110217,10,-0.000136668,-2.87767,0.202602,0.291211,-15.0104,0.103119,
2,0,0,1,0,1109.82,0.101976,0.101602,-1.30072,1,0.0108221,10,-0.000132155,-2.88582,0.202403,0.291498,-14.7875,0.101602,
2,0,0,1,0,1109.97,0.100478,0.100143,-1.28091,1,0.0106262,10,-0.000128274,-2.89248,0.213099,0.276866,-13.8543,0.100143,
2,0,0,1,0,1110.12,0.0989798,0.0987039,-1.26152,1,0.0104331,10,-0.000124517,-2.8991,0.258041,0.228646,-11.2353,0.0987039,
2,0,0,1,0,1110.27,0.0974808,0.0971749,-1.24507,1,0.0102424,10,-0.00012099,-2.9048,0.243416,0.242384,-11.7546,0.0971749,
2,0,0,1,0,1110.42,0.0959833,0.0956244,-1.22534,1,0.0100546,10,-0.000117173,-2.91174,0.235745,0.250271,-11.9754,0.0956244,
2,0,0,1,0,1110.57,0.0944857,0.0941321,-1.20351,1,0.0098697,10,-0.000113288,-2.91955,0.266344,0.221518,-10.4759,0.0941321,
2,0,0,1,0,1110.72,0.0929871,0.0926967,-1.19045,1,0.00968704,10,-0.000110351,-2.92429,0.32614,0.180904,-8.41822,0.0926967,
2,0,0,1,0,1110.87,0.0914889,0.0911772,-1.18138,1,0.00950634,10,-0.000107714,-2.92761,0.299361,0.197087,-9.05929,0.0911772,
2,0,0,1,0,1111.02,0.0899907,0.0897021,-1.16287,1,0.00932775,10,-0.000104312,-2.93447,0.275402,0.214233,-9.71748,0.0897021,
2,0,0,1,0,1111.17,0.0884925,0.0881942,-1.14712,1,0.00915143,10,-0.000101169,-2.94039,0.303351,0.194494,-8.75001,0.0881942,
2,0,0,1,0,1111.32,0.0869943,0.086698,-1.13928,1,0.00897711,10,-9.8773e-05,-2.94337,0.355756,0.165844,-7.37986,0.086698,
2,0,0,1,0,1111.47,0.0854961,0.085188,-1.12929,1,0.00880415,10,-9.62016e-05,-2.9472,0.337628,0.174748,-7.70544,0.085188,
2,0,0,1,0,1111.62,0.083998,0.0836727,-1.11934,1,0.00863282,10,-9.36586e-05,-2.95104,0.300326,0.196453,-8.57512,0.0836727,
2,0,0,1,0,1111.77,0.0824998,0.0821934,-1.11022,1,0.00846301,10,-9.12527e-05,-2.95459,0.381132,0.154802,-6.70406,0.08219339,
2,0,0,1,0,1111.92,0.0810011,0.0807134,-1.10024,1,0.00829485,10,-8.88041e-05,-2.95851,0.454176,0.129906,-5.58563,0.0807134,
2,0,0,1,0,1112.07,0.0795036,0.0792012,-1.094,1,0.00812777,10,-8.6646e-05,-2.96098,0.508561,0.116014,-4.93992,0.0792012,
2,0,0,1,0,1112.22,0.0780061,0.0776857,-1.08294,1,0.00796183,10,-8.41292e-05,-2.96539,0.427534,0.138001,-5.82404,0.0776857,
2,0,0,1,0,1112.37,0.076507,0.0761607,-1.07364,1,0.00779719,10,-8.17696e-05,-2.96914,0.402202,0.146693,-6.15037,0.0761607,
2,0,0,1,0,1112.52,0.0750088,0.0746751,-1.06198,1,0.0076344,10,-7.93031e-05,-2.97389,0.44997,0.13112,-5.44808,0.0746751,
2,0,0,1,0,1112.67,0.0735106,0.0732202,-1.05633,1,0.00747266,10,-7.73445e-05,-2.9762,0.538815,0.1095,-4.50405,0.0732202,
2,0,0,1,0,1112.82,0.0720124,0.0716848,-1.04673,1,0.00731196,10,-7.50343e-05,-2.98017,0.42852,0.137683,-5.62784,0.0716848,
2,0,0,1,0,1112.97,0.0705142,0.0701991,-1.03853,1,0.00715265,10,-7.29037e-05,-2.98358,0.376956,0.156517,-6.35309,0.0701991,
2,0,0,1,0,1113.12,0.069016,0.0686944,-1.02665,1,0.00699488,10,-7.0525e-05,-2.98858,0.385489,0.153052,-6.1572,0.0686944,
2,0,0,1,0,1113.26,0.0675179,0.0672003,-1.02297,1,0.0068384,10,-6.87438e-05,-2.99014,0.468558,0.125918,-5.02448,0.0672003,
2,0,0,1,0,1113.41,0.0660188,0.0657031,-1.01797,1,0.00668285,10,-6.68836e-05,-2.99227,0.436581,0.135141,-5.32581,0.0657031,
2,0,0,1,0,1113.56,0.0645213,0.0642511,-1.00485,1,0.00652866,10,-6.45628e-05,-2.9979,0.336997,0.175076,-6.8403,0.0642511,
2,0,0,1,0,1113.71,0.0630237,0.0627512,-0.990565,1,0.00637623,10,-6.21592e-05,-3.00412,0.371241,0.158926,-6.16385,0.0627512,
2,0,0,1,0,1113.86,0.0615251,0.0612101,-0.982427,1,0.00622546,10,-6.01344e-05,-3.0077,0.335226,0.176001,-6.76444,0.0612101,
2,0,0,1,0,1114.01,0.0600269,0.0597043,-0.971603,1,0.00607589,10,-5.80088e-05,-3.01251,0.356139,0.165665,-6.28999,0.0597043,
2,0,0,1,0,1114.16,0.0585287,0.0581868,-0.96397,1,0.00592791,10,-5.60904e-05,-3.01594,0.244378,0.24143,-9.05016,0.05818684,
2,0,0,1,0,1114.31,0.0570305,0.0567383,-0.950908,1,0.0057815,10,-5.39529e-05,-3.02186,0.29873,0.197503,-7.332,0.0567383,
2,0,0,1,0,1114.46,0.0555323,0.0552304,-0.940708,1,0.0056372,10,-5.19557e-05,-3.02655,0.31348,0.18821,-6.91656,0.0552304,
2,0,0,1,0,1114.61,0.0540341,0.0537236,-0.930823,1,0.00549421,10,-5.00072e-05,-3.03113,0.306667,0.192391,-6.96166,0.0537236,
2,0,0,1,0,1114.76,0.052536,0.0522083,-0.92029,1,0.00535252,10,-4.80468e-05,-3.03608,0.274677,0.214798,-7.70363,0.0522083,
2,0,0,1,0,1114.91,0.0510378,0.0506929,-0.905938,1,0.00521281,10,-4.59247e-05,-3.0429,0.259114,0.227699,-8.06886,0.0506929,
2,0,0,1,0,1115.06,0.0495391,0.0492207,-0.894858,1,0.00507506,10,-4.40456e-05,-3.04825,0.295093,0.199937,-7.00224,0.0492207,
2,0,0,1,0,1115.21,0.0480416,0.0477516,-0.885444,1,0.00493875,10,-4.22813e-05,-3.05284,0.381904,0.154489,-5.32469,0.0477516,
2,0,0,1,0,1115.36,0.0465441,0.0462273,-0.872132,1,0.00480406,10,-4.03163e-05,-3.05942,0.308018,0.191547,-6.54899,0.04622728,
2,0,0,1,0,1115.51,0.045045,0.0447685,-0.862788,1,0.00467077,10,-3.86257e-05,-3.0641,0.274062,0.21528,-7.2545,0.0447685,
2,0,0,1,0,1115.66,0.0435468,0.043216,-0.849264,1,0.00453933,10,-3.67018e-05,-3.07096,0.269942,0.218565,-7.29169,0.043216,
2,0,0,1,0,1115.81,0.0420486,0.0417622,-0.843077,1,0.0044095,10,-3.52088e-05,-3.07413,0.316785,0.186246,-6.13377,0.04176221,
2,0,0,1,0,1115.96,0.0405504,0.0402002,-0.836358,1,0.00428076,10,-3.36218e-05,-3.07761,0.304611,0.19369,-6.29947,0.0402002,
2,0,0,1,0,1116.11,0.0390523,0.0387443,-0.824376,1,0.00415329,10,-3.19399e-05,-3.08387,0.274278,0.21511,-6.90712,0.0387443,
2,0,0,1,0,1116.26,0.0375541,0.03723,-0.81387,1,0.00402739,10,-3.03004e-05,-3.08945,0.285615,0.206572,-6.5779,0.03723,
2,0,0,1,0,1116.41,0.0360559,0.035738,-0.807056,1,0.00390308,10,-2.88426e-05,-3.0931,0.319001,0.184952,-5.83936,0.03573804,
2,0,0,1,0,1116.56,0.0345568,0.0342534,-0.80273,1,0.00377963,10,-2.74962e-05,-3.09543,0.398786,0.147949,-4.62626,0.0342534,
2,0,0,1,0,1116.71,0.0330593,0.0327421,-0.793043,1,0.00365726,10,-2.59659e-05,-3.1007,0.387685,0.152186,-4.69957,0.0327421,
2,0,0,1,0,1116.86,0.0315618,0.0312455,-0.786875,1,0.00353591,10,-2.45863e-05,-3.10409,0.480485,0.122793,-3.77411,0.0312455,
2,0,0,1,0,1117.01,0.0300631,0.029752,-0.780143,1,0.00341577,10,-2.32108e-05,-3.10783,0.576646,0.102316,-3.1159,0.029752,
2,0,0,1,0,1117.16,0.0285649,0.0282314,-0.775687,1,0.00329623,10,-2.18988e-05,-3.11031,0.780352,0.0756069,-2.28498,0.0282314,
2,0,0,1,0,1117.31,0.0270667,0.0267564,-0.770626,1,0.00317728,10,-2.06192e-05,-3.11316,0.537768,0.109713,-3.30004,0.0267564,
2,0,0,1,0,1117.46,0.0255685,0.02524,-0.767637,1,0.00305911,10,-1.93752e-05,-3.11484,0.514488,0.114677,-3.43854,0.02524,
2,0,0,1,0,1117.61,0.0240704,0.0237798,-0.760293,1,0.00294181,10,-1.80796e-05,-3.11902,0.725743,0.081296,-2.42018,0.0237798,
2,0,0,1,0,1117.76,0.0225722,0.0222666,-0.760034,1,0.00282488,10,-1.69234e-05,-3.11917,1.35273,0.0436156,-1.29435,0.0222666,
2,0,0,1,0,1117.91,0.021074,0.0207884,-0.758258,1,0.00270813,10,-1.5763e-05,-3.12018,1.53339,0.0384769,-1.13937,0.0207884,
2,0,0,1,0,1118.06,0.0195758,0.0192551,-0.757466,1,0.00259185,10,-1.45851e-05,-3.12064,0.993513,0.0593852,-1.75134,0.0192551,
2,0,0,1,0,1118.21,0.0180771,0.0177574,-0.751055,1,0.00247586,10,-1.33368e-05,-3.12433,1.85528,0.0318012,-0.934534,0.0177574,
2,0,0,1,0,1118.36,0.0165796,0.0162481,-0.752889,1,0.00236026,10,-1.2233e-05,-3.12327,-21.7994,-0.00270649,0.0796122,0.0162481,
2,0,0,1,0,1118.51,0.0150821,0.0147842,-0.75529,1,0.00224446,10,-1.11664e-05,-3.12189,9.40613,0.00627251,-0.184125,0.0147842,
2,0,0,1,0,1118.66,0.013583,0.0132829,-0.753373,1,0.00212859,10,-1.0007e-05,-3.12299,1.87784,0.031419,-0.921264,0.0132829,
2,0,0,1,0,1118.81,0.0120848,0.0117612,-0.752039,1,0.00201294,10,-8.84488e-06,-3.12376,-12.3007,-0.00479648,0.141,0.0117612,
2,0,0,1,0,1118.96,0.0105866,0.0102501,-0.752764,1,0.00189748,10,-7.71591e-06,-3.12334,-1.99359,-0.0295949,0.870299,0.01025011,
2,0,0,1,0,1119.11,0.00908845,0.00877084,-0.753679,1,0.00178158,10,-6.6104e-06,-3.12281,-1.21041,-0.0487438,1.43415,0.008770843,
2,0,0,1,0,1119.26,0.00759027,0.00731809,-0.756241,1,0.00166549,10,-5.53424e-06,-3.12134,-1.78889,-0.0329814,0.97235,0.007318086,
2,0,0,1,0,1119.41,0.00609208,0.00574444,-0.758883,1,0.00154913,10,-4.35936e-06,-3.11983,-2.39014,-0.0246848,0.729031,0.00574444,
2,0,0,1,0,1119.56,0.00459389,0.0042779,-0.759863,1,0.0014329,10,-3.25062e-06,-3.11926,-1.70975,-0.0345079,1.02235,0.0042779,
2,0,0,1,0,1119.71,0.0030948,0.00276184,-0.761582,1,0.00131597,10,-2.10336e-06,-3.11828,-0.497083,-0.118692,3.52975,0.00276184,
2,0,0,1,0,1119.86,0.00159728,0.001253,-0.77387,1,0.00119692,10,-9.69661e-07,-3.11133, , , ,0.001253,
2,0,0,1,0,1120,0.000199195,-0.000159264,-0.767392,1,0.00108653,10,1.22218e-07,-3.11498, , , ,-0.000159264,