File: Figure_codes/Fig_3-5/rawdata_trumpetplot_data/after 10th/20221101_1-115_003_TrumpetPlot_ParaChange_from10_every3_08_CV_C01_23.csv
mode,ox/red,error,control changes,counter inc.,time/s,control/V,Ewe/V,<I>/mA,cycle number,(Q-Qo)/C,I Range,P/W,log(|I|),Tafel slope mV/dec,alpha_eff,dI/d(E-IR),E-IR/V,
2,0,0,0,0,46488,2.44065e-05,-0.000401673,-3.94421,24,0.0000000E+000,10,1.58428e-06,-2.40404, , , ,-0.000401673,
2,0,0,1,0,46488,0.0012943,0.000897287,-2.39767,24,-4.80694e-05,10,-2.1514e-06,-2.62021, , , ,0.000897287,
2,0,0,1,0,46488.1,0.00279784,0.00249517,-1.21798,24,-8.11477e-05,10,-3.03907e-06,-2.91436,-0.00335963,-17.5615,673.83,0.00249517,
2,0,0,1,0,46488.1,0.00429425,0.00397294,-0.409959,24,-9.5746e-05,10,-1.62874e-06,-3.38726,-0.00667075,-8.84459,481.662,0.00397294,
2,1,0,1,0,46488.1,0.00579065,0.00542337,0.202255,24,-9.7168e-05,10,1.09691e-06,-3.6941,0.0395474,1.49188,375.466,0.00542337,
2,1,0,1,0,46488.1,0.0072942,0.00698239,0.692051,24,-8.82657e-05,10,4.83217e-06,-3.15986,0.00205489,28.7119,301.453,0.00698239,
2,1,0,1,0,46488.1,0.00878347,0.00844666,1.08083,24,-7.13019e-05,10,9.12942e-06,-2.96624,0.00910735,6.47828,238.482,0.00844666,
2,1,0,1,0,46488.1,0.010287,0.00997637,1.40746,24,-4.74884e-05,10,1.40414e-05,-2.85156,0.0155106,3.80384,196.102,0.00997637,
2,1,0,1,0,46488.2,0.0117905,0.0114982,1.66864,24,-1.81691e-05,10,1.91865e-05,-2.77764,0.022614,2.60901,164.57,0.0114982,
2,1,0,1,0,46488.2,0.013278,0.012909,1.89024,24,1.53257e-05,10,2.44011e-05,-2.72348,0.0303723,1.94256,140.708,0.012909,
2,1,0,1,0,46488.2,0.0147816,0.0144486,2.08796,24,5.31148e-05,10,3.01681e-05,-2.68028,0.0399586,1.47653,118.73,0.0144486,
2,1,0,1,0,46488.2,0.0162851,0.0160015,2.26204,24,9.4353e-05,10,3.6196e-05,-2.6455,0.0495823,1.18994,103.815,0.0160015,
2,1,0,1,0,46488.2,0.0177744,0.0174392,2.41499,24,0.000138063,10,4.21155e-05,-2.61708,0.0619511,0.952364,88.7768,0.0174392,
2,1,0,1,0,46488.3,0.0192779,0.0189658,2.53567,24,0.000184749,10,4.80911e-05,-2.59591,0.0731662,0.806383,79.2998,0.0189658,
2,1,0,1,0,46488.3,0.0207743,0.0204469,2.65303,24,0.000233499,10,5.42463e-05,-2.57626,0.080405,0.733786,75.5945,0.0204469,
2,1,0,1,0,46488.3,0.0222707,0.0219782,2.76162,24,0.000284307,10,6.06956e-05,-2.55884,0.0923462,0.6389,68.5828,0.0219782,
2,1,0,1,0,46488.3,0.0237743,0.0234813,2.86113,24,0.000337346,10,6.71831e-05,-2.54346,0.104667,0.563692,62.6167,0.0234813,
2,1,0,1,0,46488.3,0.0252636,0.0249558,2.94461,24,0.000391586,10,7.34851e-05,-2.53097,0.111912,0.527198,60.4955,0.0249558,
2,1,0,1,0,46488.4,0.0267671,0.0264017,3.03241,24,0.000448008,10,8.00607e-05,-2.51821,0.119051,0.495585,58.6381,0.0264017,
2,1,0,1,0,46488.4,0.0282706,0.0279669,3.11974,24,0.000506036,10,8.72493e-05,-2.50588,0.127589,0.462421,56.156,0.0279669,
2,1,0,1,0,46488.4,0.0297581,0.0294499,3.18787,24,0.00056497,10,9.38823e-05,-2.4965,0.141766,0.41618,51.7661,0.0294499,
2,1,0,1,0,46488.4,0.0312617,0.0309571,3.26132,24,0.000625956,10,0.000100961,-2.48661,0.151087,0.390504,49.7592,0.0309571,
2,1,0,1,0,46488.4,0.0327652,0.0324507,3.33502,24,0.000688277,10,0.000108224,-2.4769,0.161107,0.366216,47.7225,0.0324507,
2,1,0,1,0,46488.4,0.0342545,0.0339408,3.40714,24,0.000751304,10,0.000115641,-2.46761,0.169238,0.348622,46.4031,0.0339408,
2,1,0,1,0,46488.5,0.035758,0.035414,3.47775,24,0.000816355,10,0.000123161,-2.4587,0.186208,0.31685,42.9909,0.035414,
2,1,0,1,0,46488.5,0.0372544,0.0369288,3.54876,24,0.000882356,10,0.000131052,-2.44992,0.191492,0.308107,42.6722,0.03692884,
2,1,0,1,0,46488.5,0.0387508,0.0384492,3.61763,24,0.000949562,10,0.000139095,-2.44158,0.192525,0.306454,43.2675,0.0384492,
2,1,0,1,0,46488.5,0.0402544,0.0399438,3.68448,24,0.00101842,10,0.000147172,-2.43362,0.196102,0.300864,43.2339,0.0399438,
2,1,0,1,0,46488.5,0.0417437,0.0414326,3.75868,24,0.00108785,10,0.000155732,-2.42496,0.196409,0.300394,43.9778,0.0414326,
2,1,0,1,0,46488.6,0.0432472,0.0429412,3.82318,24,0.00115922,10,0.000164172,-2.41757,0.214756,0.27473,40.8964,0.04294119,
2,1,0,1,0,46488.6,0.0447507,0.0444487,3.88105,24,0.0012318,10,0.000172508,-2.41105,0.205779,0.286715,43.4305,0.0444487,
2,1,0,1,0,46488.6,0.0462382,0.045956,3.94781,24,0.00130478,10,0.000181426,-2.40364,0.209071,0.2822,43.4203,0.045956,
2,1,0,1,0,46488.6,0.0477418,0.0474414,4.01289,24,0.00137978,10,0.000190377,-2.39654,0.206261,0.286045,44.7662,0.0474414,
2,1,0,1,0,46488.6,0.0492453,0.0489227,4.07571,24,0.00145595,10,0.000199394,-2.3898,0.224115,0.263258,41.8146,0.04892268,
2,1,0,1,0,46488.7,0.0507346,0.050433,4.12771,24,0.00153247,10,0.000208173,-2.38429,0.222999,0.264575,42.6513,0.050433,
2,1,0,1,0,46488.7,0.0522381,0.0519269,4.18794,24,0.00161094,10,0.000217467,-2.378,0.21893,0.269493,44.1099,0.0519269,
2,1,0,1,0,46488.7,0.0537345,0.0533999,4.25398,24,0.00169019,10,0.000227162,-2.3712,0.226471,0.260519,43.2583,0.0533999,
2,1,0,1,0,46488.7,0.0552309,0.0549297,4.31898,24,0.00177062,10,0.00023724,-2.36462,0.25157,0.234527,39.4783,0.05492973,
2,1,0,1,0,46488.7,0.0567345,0.056377,4.36466,24,0.00185262,10,0.000246066,-2.36005,0.260583,0.226415,38.6672,0.05637696,
2,1,0,1,0,46488.7,0.0582237,0.0579009,4.43567,24,0.00193477,10,0.000256829,-2.35304,0.268862,0.219443,37.9966,0.0579009,
2,1,0,1,0,46488.8,0.0597273,0.0594067,4.4938,24,0.00201893,10,0.000266962,-2.34739,0.273435,0.215774,37.8258,0.0594067,
2,1,0,1,0,46488.8,0.0612308,0.0609245,4.54543,24,0.0021042,10,0.000276928,-2.34242,0.290932,0.202796,36.0041,0.0609245,
2,1,0,1,0,46488.8,0.0627183,0.0624215,4.6077,24,0.00218962,10,0.00028762,-2.33652,0.302144,0.195271,35.1276,0.0624215,
2,1,0,1,0,46488.8,0.0642218,0.0638848,4.66489,24,0.00227697,10,0.000298016,-2.33116,0.302656,0.194941,35.5131,0.06388475,
2,1,0,1,0,46488.8,0.0657254,0.0654288,4.72068,24,0.00236537,10,0.000308868,-2.326,0.293871,0.200768,36.9744,0.0654288,
2,1,0,1,0,46488.9,0.0672147,0.0669138,4.78105,24,0.00245392,10,0.000319919,-2.32048,0.3003,0.19647,36.5928,0.0669138,
2,1,0,1,0,46488.9,0.0687182,0.0683768,4.83705,24,0.00254447,10,0.000330742,-2.31542,0.324429,0.181858,34.2456,0.06837675,
2,1,0,1,0,46488.9,0.0702146,0.0699163,4.88676,24,0.00263547,10,0.000341664,-2.31098,0.328523,0.179592,34.196,0.06991633,
2,1,0,1,0,46488.9,0.071711,0.071397,4.9325,24,0.00272742,10,0.000352165,-2.30693,0.316969,0.186138,35.7951,0.071397,
2,1,0,1,0,46488.9,0.0732146,0.0729308,4.98133,24,0.00282081,10,0.000363292,-2.30265,0.336198,0.175492,34.0955,0.0729308,
2,1,0,1,0,46489,0.0747038,0.0744451,5.03137,24,0.00291415,10,0.000374561,-2.29831,0.358583,0.164536,32.2798,0.0744451,
2,1,0,1,0,46489,0.0762074,0.0758525,5.06975,24,0.00300935,10,0.000384553,-2.29501,0.365075,0.161611,31.9996,0.0758525,
2,1,0,1,0,46489,0.0777109,0.077389,5.11549,24,0.00310541,10,0.000395883,-2.29111,0.356663,0.165422,33.0816,0.077389,
2,1,0,1,0,46489,0.0791984,0.0789027,5.16353,24,0.0032013,10,0.000407417,-2.28705,0.400266,0.147402,29.719,0.0789027,
2,1,0,1,0,46489,0.0807019,0.0803902,5.21138,24,0.00329912,10,0.000418943,-2.28305,0.4241,0.139118,28.2834,0.08039017,
2,1,0,1,0,46489,0.0822055,0.0818957,5.24725,24,0.00339773,10,0.000429727,-2.28007,0.449653,0.131212,26.8845,0.0818957,
2,1,0,1,0,46489.1,0.0836947,0.0833484,5.2894,24,0.00349604,10,0.000440863,-2.27659,0.468688,0.125883,26.0146,0.0833484,
2,1,0,1,0,46489.1,0.0851983,0.0848856,5.33439,24,0.00359615,10,0.000452812,-2.27292,0.499246,0.118178,24.5926,0.0848856,
2,1,0,1,0,46489.1,0.0866947,0.0863558,5.37393,24,0.00369654,10,0.00046407,-2.26971,0.481458,0.122544,25.6998,0.0863558,
2,1,0,1,0,46489.1,0.0881911,0.0878976,5.41908,24,0.00379765,10,0.000476325,-2.26607,0.524963,0.112389,23.7436,0.0878976,
2,1,0,1,0,46489.1,0.0896946,0.0893837,5.45337,24,0.00389997,10,0.000487442,-2.26334,0.556054,0.106105,22.583,0.0893837,
2,1,0,1,0,46489.2,0.0911839,0.0908493,5.49784,24,0.00400193,10,0.000499475,-2.25981,0.471451,0.125145,26.8398,0.09084934,
2,1,0,1,0,46489.2,0.0926857,0.0923623,5.53539,24,0.00410577,10,0.000511261,-2.25685,0.441545,0.133622,28.8478,0.0923623,
2,1,0,1,0,46489.2,0.0941892,0.0938839,5.5755,24,0.00421044,10,0.00052345,-2.25372,0.439425,0.134266,29.2125,0.0938839,
2,1,0,1,0,46489.2,0.0956785,0.0953427,5.61638,24,0.00431472,10,0.000535481,-2.25054,0.399569,0.147659,32.4043,0.0953427,
2,1,0,1,0,46489.2,0.097182,0.0968775,5.6703,24,0.004421,10,0.000549324,-2.24639,0.359657,0.164045,36.2735,0.0968775,
2,1,0,1,0,46489.3,0.0986856,0.0983517,5.71194,24,0.00452825,10,0.000561779,-2.24322,0.35392,0.166704,37.224,0.0983517,
2,1,0,1,0,46489.3,0.100175,0.0998797,5.76947,24,0.0046353,10,0.000576253,-2.23886,0.343216,0.171904,38.7213,0.0998797,
2,1,0,1,0,46489.3,0.101678,0.10134,5.82088,24,0.00474455,10,0.000589887,-2.23501,0.3194,0.184721,42.051,0.10134,
2,1,0,1,0,46489.3,0.103175,0.10291,5.89125,24,0.00485431,10,0.000606269,-2.22979,0.294584,0.200283,46.1118,0.10291,
2,1,0,1,0,46489.3,0.104671,0.10432,5.96286,24,0.00496536,10,0.000622042,-2.22455,0.274576,0.214877,50.029,0.10432,
2,1,0,1,0,46489.3,0.106175,0.105893,6.0333,24,0.00507842,10,0.000638885,-2.21945,0.283549,0.208077,49.0143,0.1058932,
2,1,0,1,0,46489.4,0.107662,0.107324,6.11149,24,0.00519171,10,0.000655907,-2.21385,0.272785,0.216287,51.6519,0.107324,
2,1,0,1,0,46489.4,0.109166,0.108802,6.19449,24,0.00530764,10,0.000673975,-2.20799,0.267255,0.220763,53.4584,0.108802,
2,1,0,1,0,46489.4,0.110669,0.110313,6.28121,24,0.0054252,10,0.000692901,-2.20196,0.249935,0.236061,57.9083,0.110313,
2,1,0,1,0,46489.4,0.112159,0.111834,6.37675,24,0.00554314,10,0.000713136,-2.1954,0.260714,0.226301,56.287,0.1118338,
2,1,0,1,0,46489.4,0.113662,0.113331,6.46673,24,0.00566404,10,0.000732884,-2.18932,0.255017,0.231357,58.3274,0.113331,
2,1,0,1,0,46489.5,0.115166,0.114805,6.55177,24,0.00578658,10,0.000752176,-2.18364,0.246099,0.239741,61.3292,0.114805,
2,1,0,1,0,46489.5,0.116655,0.116374,6.65053,24,0.00590947,10,0.00077395,-2.17714,0.242506,0.243293,63.0562,0.116374,
2,1,0,1,0,46489.5,0.118158,0.117813,6.74351,24,0.00603551,10,0.000794471,-2.17111,0.24768,0.23821,62.6212,0.117813,
2,1,0,1,0,46489.5,0.119655,0.119343,6.83005,24,0.00616261,10,0.000815118,-2.16558,0.257098,0.229484,61.1477,0.119343,
2,1,0,1,0,46489.5,0.121151,0.120858,6.91474,24,0.00629135,10,0.000835701,-2.16022,0.275557,0.214112,57.752,0.120858,
2,1,0,1,0,46489.6,0.122655,0.122345,6.99073,24,0.00642235,10,0.000855282,-2.15548,0.289491,0.203806,55.6204,0.122345,
2,1,0,1,0,46489.6,0.124142,0.123817,7.07579,24,0.00655347,10,0.000876102,-2.15023,0.314048,0.187869,51.8489,0.123817,
2,1,0,1,0,46489.6,0.125646,0.125343,7.14741,24,0.00668742,10,0.000895879,-2.14585,0.355303,0.166056,46.2958,0.125343,
2,1,0,1,0,46489.6,0.127149,0.126829,7.20668,24,0.00682271,10,0.000914018,-2.14226,0.379472,0.155479,43.7524,0.126829,
2,1,0,1,0,46489.6,0.128639,0.128305,7.27617,24,0.00695771,10,0.00093357,-2.1381,0.436363,0.135208,38.3913,0.128305,
2,1,0,1,0,46489.6,0.130142,0.129789,7.33723,24,0.00709535,10,0.000952293,-2.13447,0.463823,0.127204,36.4037,0.129789,
2,1,0,1,0,46489.7,0.131646,0.131334,7.38603,24,0.00723409,10,0.000970035,-2.13159,0.569982,0.103512,29.8343,0.131334,
2,1,0,1,0,46489.7,0.133135,0.132856,7.44243,24,0.00737228,10,0.000988772,-2.12829,0.611071,0.0965518,28.0296,0.132856,
2,1,0,1,0,46489.7,0.134639,0.134321,7.4863,24,0.00751278,10,0.00100556,-2.12573,0.685126,0.0861156,25.1449,0.134321,
2,1,0,1,0,46489.7,0.136135,0.135839,7.53154,24,0.00765336,10,0.00102308,-2.12312,0.691952,0.085266,25.0288,0.135839,
2,1,0,1,0,46489.7,0.137631,0.137335,7.56972,24,0.00779466,10,0.00103959,-2.12092,0.836373,0.0705427,20.8088,0.137335,
2,1,0,1,0,46489.8,0.139135,0.138846,7.59927,24,0.00793741,10,0.00105513,-2.11923,1.00106,0.0589373,17.4492,0.1388461,
2,1,0,1,0,46489.8,0.140622,0.140313,7.62328,24,0.00807911,10,0.00106964,-2.11786,1.05623,0.0558591,16.6015,0.140313,
2,1,0,1,0,46489.8,0.142126,0.141808,7.64391,24,0.00822272,10,0.00108397,-2.11668,1.62609,0.0362834,10.8004,0.141808,
2,1,0,1,0,46489.8,0.143629,0.143314,7.65177,24,0.00836666,10,0.00109661,-2.11624,3.13837,0.0187996,5.60378,0.143314,
2,1,0,1,0,46489.8,0.145119,0.14481,7.64506,24,0.00850913,10,0.00110708,-2.11662,-2.34988,-0.0251077,-7.47494,0.14481,
2,1,0,1,0,46489.8,0.146622,0.146306,7.61462,24,0.00865287,10,0.00111406,-2.11835,-0.911392,-0.0647361,-19.2151,0.146306,
2,1,0,1,0,46489.9,0.148126,0.147808,7.58085,24,0.00879601,10,0.00112051,-2.12028,-0.603337,-0.0977894,-28.8932,0.147808,
2,1,0,1,0,46489.9,0.149615,0.149293,7.5239,24,0.00893679,10,0.00112327,-2.12356,-0.403335,-0.14628,-42.8548,0.149293,
2,1,0,1,0,46489.9,0.151119,0.150813,7.44731,24,0.00907785,10,0.00112315,-2.128,-0.280891,-0.210046,-60.8816,0.150813,
2,1,0,1,0,46489.9,0.152615,0.152303,7.34062,24,0.00921647,10,0.001118,-2.13427,-0.219253,-0.269095,-76.9343,0.1523031,
2,1,0,1,0,46489.9,0.154111,0.153799,7.22067,24,0.00935291,10,0.00111053,-2.14142,-0.185532,-0.318004,-89.4079,0.153799,
2,1,0,1,0,46490,0.155615,0.155275,7.07657,24,0.00948755,10,0.00109882,-2.15018,-0.155661,-0.379028,-104.379,0.155275,
2,1,0,1,0,46490,0.157103,0.156805,6.90833,24,0.00961787,10,0.00108326,-2.16063,-0.131045,-0.450228,-121.023,0.156805,
2,1,0,1,0,46490,0.158606,0.15828,6.72842,24,0.00974626,10,0.00106497,-2.17209,-0.116057,-0.50837,-133.042,0.15828,
2,1,0,1,0,46490,0.16011,0.159794,6.52108,24,0.00987093,10,0.00104203,-2.18568,-0.110112,-0.535818,-136.154,0.159794,
2,1,0,1,0,46490,0.161599,0.161267,6.31498,24,0.00999048,10,0.0010184,-2.19963,-0.104335,-0.565488,-139.087,0.161267,
2,1,0,1,0,46490.1,0.163102,0.162783,6.10467,24,0.0101073,10,0.000993738,-2.21434,-0.100238,-0.588601,-140.039,0.162783,
2,1,0,1,0,46490.1,0.164606,0.16431,5.89432,24,0.0102202,10,0.000968493,-2.22957,-0.0965887,-0.610837,-140.335,0.16431,
2,1,0,1,0,46490.1,0.166095,0.165785,5.68613,24,0.010328,10,0.000942673,-2.24518,-0.0993325,-0.593965,-131.826,0.165785,
2,1,0,1,0,46490.1,0.167599,0.167266,5.48318,24,0.0104331,10,0.000917152,-2.26097,-0.102133,-0.577678,-123.823,0.167266,
2,1,0,1,0,46490.1,0.169095,0.168817,5.30465,24,0.0105341,10,0.000895513,-2.27534,-0.103919,-0.567751,-117.547,0.1688166,
2,1,0,1,0,46490.1,0.170592,0.170282,5.12537,24,0.0106318,10,0.000872756,-2.29027,-0.105294,-0.560337,-112.255,0.170282,
2,1,0,1,0,46490.2,0.172095,0.171796,4.95602,24,0.0107268,10,0.000851426,-2.30487,-0.110511,-0.533883,-103.58,0.171796,
2,1,0,1,0,46490.2,0.173583,0.17326,4.80973,24,0.0108179,10,0.000833332,-2.31788,-0.119387,-0.494192,-92.9371,0.1732595,
2,1,0,1,0,46490.2,0.175086,0.174774,4.67492,24,0.0109073,10,0.000817056,-2.33023,-0.122232,-0.482689,-88.2413,0.174774,
2,1,0,1,0,46490.2,0.17659,0.176283,4.54421,24,0.0109942,10,0.000801065,-2.34254,-0.129016,-0.457307,-81.2488,0.176283,
2,1,0,1,0,46490.2,0.178079,0.177704,4.429,24,0.011078,10,0.000787053,-2.35369,-0.136028,-0.433734,-75.183,0.177704,
2,1,0,1,0,46490.3,0.179582,0.179267,4.32537,24,0.0111606,10,0.000775396,-2.36398,-0.145241,-0.406222,-68.8254,0.1792669,
2,1,0,1,0,46490.3,0.181086,0.180783,4.23641,24,0.0112413,10,0.000765873,-2.373,-0.156264,-0.377565,-62.5091,0.180783,
2,1,0,1,0,46490.3,0.182575,0.182242,4.15305,24,0.0113194,10,0.00075686,-2.38163,-0.165392,-0.356727,-57.7823,0.182242,
2,1,0,1,0,46490.3,0.184079,0.183784,4.07182,24,0.0113969,10,0.000748335,-2.39021,-0.178042,-0.331383,-52.6402,0.183784,
2,1,0,1,0,46490.3,0.185582,0.185292,3.99265,24,0.0114728,10,0.000739807,-2.39874,-0.194869,-0.302768,-47.2268,0.185292,
2,1,0,1,0,46490.4,0.18707,0.186749,3.93027,24,0.0115466,10,0.000733975,-2.40558,-0.221453,-0.266422,-40.8668,0.186749,
2,1,0,1,0,46490.4,0.188573,0.188264,3.86833,24,0.0116201,10,0.000728266,-2.41248,-0.237107,-0.248832,-37.585,0.188264,
2,1,0,1,0,46490.4,0.19007,0.189717,3.80754,24,0.011692,10,0.000722356,-2.41936,-0.257242,-0.229356,-34.1149,0.189717,
2,1,0,1,0,46490.4,0.191566,0.191289,3.75312,24,0.0117629,10,0.000717932,-2.42561,-0.263474,-0.223931,-32.8589,0.191289,
2,1,0,1,0,46490.4,0.19307,0.192758,3.70455,24,0.0118333,10,0.000714081,-2.43126,-0.286739,-0.205762,-29.773,0.192758,
2,1,0,1,0,46490.4,0.194559,0.194238,3.66163,24,0.0119021,10,0.000711226,-2.43633,-0.323716,-0.182259,-26.0856,0.194238,
2,1,0,1,0,46490.5,0.196063,0.195784,3.62117,24,0.0119708,10,0.000708965,-2.44115,-0.320008,-0.18437,-26.0814,0.195784,
2,1,0,1,0,46490.5,0.197566,0.197285,3.57659,24,0.0120388,10,0.000705607,-2.44653,-0.335963,-0.175615,-24.5878,0.197285,
2,1,0,1,0,46490.5,0.199055,0.198769,3.54324,24,0.0121053,10,0.000704287,-2.4506,-0.336379,-0.175397,-24.2953,0.198769,
2,1,0,1,0,46490.5,0.200559,0.200281,3.51688,24,0.0121719,10,0.000704363,-2.45384,-0.395427,-0.149206,-20.4884,0.200281,
2,1,0,1,0,46490.5,0.202062,0.20178,3.48756,24,0.0122379,10,0.000703719,-2.45748,-0.381284,-0.15474,-21.0668,0.20178,
2,1,0,1,0,46490.6,0.20355,0.203244,3.46171,24,0.0123028,10,0.000703574,-2.46071,-0.413721,-0.142608,-19.2539,0.2032443,
2,1,0,1,0,46490.6,0.205053,0.204791,3.43513,24,0.0123678,10,0.000703484,-2.46406,-0.527425,-0.111864,-15.0154,0.204791,
2,1,0,1,0,46490.6,0.20655,0.206216,3.41182,24,0.012432,10,0.000703571,-2.46701,-0.509485,-0.115803,-15.4403,0.2062159,
2,1,0,1,0,46490.6,0.208046,0.207734,3.39529,24,0.0124959,10,0.000705317,-2.46912,-0.507972,-0.116148,-15.3613,0.207734,
2,1,0,1,0,46490.6,0.20955,0.209267,3.37282,24,0.0125597,10,0.000705822,-2.47201,-0.513766,-0.114838,-15.1039,0.209267,
2,1,0,1,0,46490.7,0.211039,0.210714,3.35128,24,0.0126223,10,0.000706161,-2.47479,-0.648723,-0.090948,-11.8881,0.210714,
2,1,0,1,0,46490.7,0.212543,0.21224,3.32762,24,0.0126853,10,0.000706255,-2.47787,-0.726707,-0.0811881,-10.5475,0.21224,
2,1,0,1,0,46490.7,0.214046,0.213736,3.31402,24,0.0127479,10,0.000708325,-2.47965,-0.859247,-0.0686648,-8.88113,0.213736,
2,1,0,1,0,46490.7,0.215535,0.215236,3.29326,24,0.0128096,10,0.000708829,-2.48237,-0.739015,-0.0798359,-10.2702,0.215236,
2,1,0,1,0,46490.7,0.217039,0.216709,3.27482,24,0.0128716,10,0.000709684,-2.48481,-0.93218,-0.0632925,-8.10308,0.216709,
2,1,0,1,0,46490.7,0.218543,0.21826,3.26217,24,0.0129333,10,0.000712,-2.48649,-1.28423,-0.045942,-5.85612,0.2182599,
2,1,0,1,0,46490.8,0.22003,0.219728,3.25536,24,0.0129942,10,0.000715293,-2.4874,-0.957078,-0.061646,-7.82922,0.219728,
2,1,0,1,0,46490.8,0.221534,0.221231,3.23613,24,0.0130555,10,0.000715933,-2.48997,-0.843894,-0.069914,-8.84032,0.221231,
2,1,0,1,0,46490.8,0.22303,0.22269,3.22073,24,0.0131162,10,0.000717224,-2.49205,-0.734676,-0.0803075,-10.122,0.22269,
2,1,0,1,0,46490.8,0.224526,0.224199,3.21515,24,0.0131766,10,0.000720833,-2.4928,-0.713152,-0.0827314,-10.3943,0.224199,
2,1,0,1,0,46490.8,0.22603,0.225726,3.20231,24,0.0132372,10,0.000722844,-2.49454,-0.783794,-0.0752749,-9.41258,0.2257258,
2,1,0,1,0,46490.9,0.227519,0.227204,3.19781,24,0.0132969,10,0.000726557,-2.49515,-0.784623,-0.0751954,-9.36695,0.227204,
2,1,0,1,0,46490.9,0.229023,0.228723,3.18393,24,0.0133571,10,0.00072824,-2.49704,-0.898209,-0.0656863,-8.16138,0.228723,
2,1,0,1,0,46490.9,0.230526,0.230253,3.17351,24,0.0134171,10,0.000730711,-2.49846,-0.991004,-0.0595356,-7.3852,0.2302532,
2,1,0,1,0,46490.9,0.232016,0.231678,3.16954,24,0.0134762,10,0.000734312,-2.499,-1.50787,-0.0391279,-4.83174,0.231678,
2,1,0,1,0,46490.9,0.233519,0.233198,3.16373,24,0.0135359,10,0.000737774,-2.4998,-1.4327,-0.0411811,-5.07807,0.233198,
2,1,0,1,0,46491,0.235023,0.23474,3.1531,24,0.0135954,10,0.000740158,-2.50126,-1.61337,-0.0365693,-4.4888,0.23474,
2,1,0,1,0,46491,0.23651,0.236227,3.14138,24,0.0136541,10,0.00074208,-2.50288,-3.93503,-0.0149935,-1.83848,0.236227,
2,1,0,1,0,46491,0.238014,0.237704,3.13109,24,0.0137133,10,0.000744272,-2.50431,-3.22665,-0.0182852,-2.23547,0.237704,
2,1,0,1,0,46491,0.23951,0.23919,3.12437,24,0.013772,10,0.000747319,-2.50524,-2.38379,-0.0247505,-3.02131,0.23919,
2,1,0,1,0,46491,0.241006,0.240721,3.12058,24,0.0138307,10,0.00075119,-2.50576,-1.80027,-0.0327729,-3.98697,0.240721,
2,1,0,1,0,46491,0.24251,0.242181,3.10671,24,0.0138895,10,0.000752387,-2.5077,-1.41793,-0.04161,-5.05846,0.242181,
2,1,0,1,0,46491.1,0.243999,0.243701,3.10219,24,0.0139475,10,0.000756007,-2.50833,-2.77323,-0.0212749,-2.57848,0.243701,
2,1,0,1,0,46491.1,0.245503,0.245199,3.09608,24,0.0140061,10,0.000759153,-2.50919,-1.5272,-0.0386328,-4.67769,0.245199,
2,1,0,1,0,46491.1,0.247006,0.246665,3.09146,24,0.0140645,10,0.000762557,-2.50984,-1.00008,-0.0589952,-7.12023,0.246665,
2,1,0,1,0,46491.1,0.248496,0.248218,3.08214,24,0.0141223,10,0.000765044,-2.51115,-1.16575,-0.0506111,-6.10038,0.248218,
2,1,0,1,0,46491.1,0.249999,0.249716,3.08132,24,0.0141805,10,0.000769454,-2.51126,-1.14814,-0.0513873,-6.17823,0.249716,
2,1,0,1,0,46491.2,0.251503,0.251218,3.0778,24,0.0142386,10,0.0007732,-2.51176,-1.78264,-0.0330969,-3.97641,0.251218,
2,1,0,1,0,46491.2,0.25299,0.252691,3.07535,24,0.014296,10,0.000777112,-2.51211,-1.43496,-0.0411162,-4.92497,0.252691,
2,1,0,1,0,46491.2,0.254494,0.254206,3.06701,24,0.0143539,10,0.000779653,-2.51328,-1.43633,-0.0410768,-4.91164,0.254206,
2,1,0,1,0,46491.2,0.25599,0.255678,3.06085,24,0.0144114,10,0.000782591,-2.51416,-1.64658,-0.0358319,-4.28275,0.255678,
2,1,0,1,0,46491.2,0.257487,0.257196,3.06129,24,0.0144687,10,0.00078735,-2.5141,-4.83947,-0.0121914,-1.45236,0.257196,
2,1,0,1,0,46491.3,0.25899,0.258723,3.054,24,0.0145264,10,0.000790138,-2.51513,-94.8889,-0.000621779,-0.0739964,0.258723,
2,1,0,1,0,46491.3,0.260479,0.260179,3.05083,24,0.0145833,10,0.00079376,-2.51558,-2.12331,-0.0277869,-3.303,0.260179,
2,1,0,1,0,46491.3,0.261983,0.261681,3.03737,24,0.0146407,10,0.000794821,-2.5175,-3.87957,-0.0152079,-1.8056,0.261681,
2,1,0,1,0,46491.3,0.263486,0.263171,3.03375,24,0.014698,10,0.000798394,-2.51802,6.89483,0.00855714,1.01334,0.263171,
2,1,0,1,0,46491.3,0.264974,0.264665,3.02803,24,0.0147546,10,0.000801413,-2.51884,-39.8499,-0.00148056,-0.175143,0.264665,
2,1,0,1,0,46491.3,0.266477,0.266144,3.02188,24,0.0148118,10,0.000804255,-2.51972,-2.16616,-0.0272371,-3.21544,0.266144,
2,1,0,1,0,46491.4,0.267981,0.267697,3.01448,24,0.0148689,10,0.000806967,-2.52079,-2.40999,-0.0244814,-2.88613,0.267697,
2,1,0,1,0,46491.4,0.26947,0.269191,3.01077,24,0.0149252,10,0.000810472,-2.52132,-1.92861,-0.030592,-3.59964,0.269191,
2,1,0,1,0,46491.4,0.270974,0.270663,3.01394,24,0.014982,10,0.000815762,-2.52087,-2.65538,-0.0222191,-2.61136,0.270663,
2,1,0,1,0,46491.4,0.27247,0.272177,3.0057,24,0.0150386,10,0.000818082,-2.52205,-1.28994,-0.0457386,-5.36437,0.272177,
2,1,0,1,0,46491.4,0.273967,0.273648,2.99611,24,0.015095,10,0.000819878,-2.52344,-1.27557,-0.0462537,-5.4207,0.273648,
2,1,0,1,0,46491.5,0.27547,0.275172,2.99565,24,0.0151516,10,0.00082432,-2.52351,-1.4038,-0.0420286,-4.91897,0.275172,
2,1,0,1,0,46491.5,0.276959,0.276701,2.99287,24,0.0152075,10,0.00082813,-2.52391,-1.66221,-0.0354949,-4.14582,0.276701,
2,1,0,1,0,46491.5,0.278463,0.278156,2.99222,24,0.0152639,10,0.000832303,-2.52401,-1.82756,-0.0322835,-3.7642,0.278156,
2,1,0,1,0,46491.5,0.279967,0.279672,2.988,24,0.0153203,10,0.000835659,-2.52462,-1.71108,-0.0344812,-4.01209,0.279672,
2,1,0,1,0,46491.5,0.281454,0.281148,2.97861,24,0.0153759,10,0.00083743,-2.52599,-1.98907,-0.029662,-3.44967,0.281148,
2,1,0,1,0,46491.6,0.282958,0.282669,2.97157,24,0.015432,10,0.00083997,-2.52701,-5.58584,-0.0105624,-1.225,0.282669,
2,1,0,1,0,46491.6,0.284461,0.284165,2.9681,24,0.0154881,10,0.000843431,-2.52752,-10.1701,-0.0058013,-0.672092,0.284165,
2,1,0,1,0,46491.6,0.28595,0.28566,2.96099,24,0.0155435,10,0.000845834,-2.52856,-2.52148,-0.0233989,-2.7067,0.28566,
2,1,0,1,0,46491.6,0.287454,0.287163,2.95554,24,0.0155994,10,0.000848721,-2.52936,-2.77031,-0.0212973,-2.45996,0.287163,
2,1,0,1,0,46491.6,0.28895,0.288658,2.95007,24,0.0156548,10,0.000851561,-2.53017,-17.2492,-0.00342044,-0.394111,0.288658,
2,1,0,1,0,46491.6,0.290447,0.290202,2.94583,24,0.0157103,10,0.000854887,-2.53079,-2.30547,-0.0255913,-2.94712,0.290202,
2,1,0,1,0,46491.7,0.29195,0.291657,2.93612,24,0.0157659,10,0.000856341,-2.53223,-3.49856,-0.0168641,-1.93809,0.291657,
2,1,0,1,0,46491.7,0.29344,0.293125,2.93252,24,0.0158208,10,0.000859596,-2.53276,-1.05585,-0.0558792,-6.40219,0.293125,
2,1,0,1,0,46491.7,0.294943,0.294663,2.93116,24,0.0158762,10,0.000863702,-2.53296,-1.62182,-0.0363789,-4.16777,0.294663,
2,1,0,1,0,46491.7,0.296447,0.296123,2.92846,24,0.0159314,10,0.000867183,-2.53336,-1.48912,-0.0396207,-4.52628,0.296123,
2,1,0,1,0,46491.7,0.297934,0.297668,2.92541,24,0.0159861,10,0.0008708,-2.53381,-1.22479,-0.0481716,-5.48811,0.297668,
2,1,0,1,0,46491.8,0.299438,0.299145,2.91861,24,0.0160413,10,0.000873087,-2.53482,-0.0326535,-1.80685,-190.517,0.299145,
2,1,0,1,0,46491.8,0.300012,0.299651,2.92494,24,0.0160617,10,0.000876461,-2.53388,0.00182324,32.3599,2440.01,0.299651,
2,1,0,1,0,46491.8,0.298737,0.298444,1.52387,24,0.0160949,10,0.00045479,-2.81705,0.00405013,14.5674,764.775,0.2984437,
2,1,0,1,0,46491.8,0.29724,0.296966,0.687339,24,0.0161147,10,0.000204116,-3.16283,0.00193179,30.5416,479.489,0.296966,
2,1,0,1,0,46491.8,0.295744,0.295421,0.154695,24,0.0161219,10,4.57002e-05,-3.81052,0.00822586,7.1725,304.123,0.295421,
2,0,0,1,0,46491.8,0.29424,0.293956,-0.203152,24,0.016121,10,-5.97179e-05,-3.69218,-0.0167443,-3.52359,207.31,0.2939561,
2,0,0,1,0,46491.9,0.292751,0.292433,-0.454839,24,0.0161145,10,-0.00013301,-3.34214,-0.00460711,-12.8063,154.014,0.2924329,
2,0,0,1,0,46491.9,0.291248,0.290902,-0.647046,24,0.0161038,10,-0.000188227,-3.18906,-0.0115423,-5.11165,116.554,0.290902,
2,0,0,1,0,46491.9,0.289744,0.289426,-0.80096,24,0.0160899,10,-0.000231819,-3.09639,-0.0191879,-3.07486,91.2177,0.2894263,
2,0,0,1,0,46491.9,0.288257,0.28793,-0.923396,24,0.0160736,10,-0.000265873,-3.03461,-0.0284809,-2.07156,72.3129,0.28793,
2,0,0,1,0,46491.9,0.286753,0.286452,-1.01475,24,0.0160551,10,-0.000290676,-2.99364,-0.0383813,-1.5372,60.1435,0.286452,
2,0,0,1,0,46492,0.285249,0.284914,-1.10347,24,0.0160349,10,-0.000314394,-2.95724,-0.0485559,-1.21509,51.7878,0.284914,
2,0,0,1,0,46492,0.28376,0.283445,-1.17657,24,0.0160135,10,-0.000333494,-2.92938,-0.0600871,-0.981908,44.7564,0.283445,
2,0,0,1,0,46492,0.282257,0.28191,-1.24442,24,0.0159905,10,-0.000350815,-2.90503,-0.0743232,-0.79383,38.0927,0.28191,
2,0,0,1,0,46492,0.28076,0.280452,-1.30124,24,0.0159665,10,-0.000364936,-2.88564,-0.0876288,-0.673295,33.8687,0.280452,
2,0,0,1,0,46492,0.279264,0.278959,-1.35221,24,0.0159416,10,-0.000377211,-2.86896,-0.0997328,-0.591581,31.1243,0.278959,
2,0,0,1,0,46492,0.27776,0.277463,-1.39739,24,0.0159156,10,-0.000387725,-2.85468,-0.102976,-0.572948,31.0731,0.277463,
2,0,0,1,0,46492.1,0.276271,0.275984,-1.44543,24,0.0158891,10,-0.000398916,-2.84,-0.11157,-0.528816,29.6284,0.275984,
2,0,0,1,0,46492.1,0.274767,0.274464,-1.47999,24,0.0158615,10,-0.000406203,-2.82974,-0.133257,-0.442753,25.4688,0.274464,
2,0,0,1,0,46492.1,0.273264,0.272965,-1.51066,24,0.0158331,10,-0.000412358,-2.82083,-0.130954,-0.450541,26.5924,0.272965,
2,0,0,1,0,46492.1,0.271776,0.271491,-1.54694,24,0.0158045,10,-0.00041998,-2.81053,-0.131266,-0.449468,27.1543,0.271491,
2,0,0,1,0,46492.1,0.270273,0.269938,-1.58153,24,0.0157748,10,-0.000426916,-2.80092,-0.159302,-0.370366,22.8993,0.269938,
2,0,0,1,0,46492.2,0.268769,0.268448,-1.61363,24,0.0157445,10,-0.000433176,-2.7922,-0.196592,-0.300115,18.8926,0.268448,
2,0,0,1,0,46492.2,0.26728,0.266995,-1.63803,24,0.015714,10,-0.000437345,-2.78568,-0.21054,-0.280232,17.9896,0.266995,
2,0,0,1,0,46492.2,0.265777,0.265416,-1.66841,24,0.0156826,10,-0.000442821,-2.7777,-0.223446,-0.264045,17.2223,0.265416,
2,0,0,1,0,46492.2,0.26428,0.263972,-1.6989,24,0.0156508,10,-0.000448464,-2.76983,-0.246582,-0.239271,15.8543,0.263972,
2,0,0,1,0,46492.2,0.262784,0.262442,-1.72899,24,0.0156186,10,-0.000453761,-2.76221,-0.275653,-0.214037,14.4015,0.262442,
2,0,0,1,0,46492.3,0.26128,0.261004,-1.74914,24,0.0155857,10,-0.000456533,-2.75718,-0.283985,-0.207757,14.1902,0.261004,
2,0,0,1,0,46492.3,0.259791,0.259501,-1.77932,24,0.0155527,10,-0.000461737,-2.74974,-0.279318,-0.211229,14.6648,0.259501,
2,0,0,1,0,46492.3,0.258287,0.257964,-1.80148,24,0.0155189,10,-0.000464716,-2.74437,-0.263292,-0.224086,15.7465,0.257964,
2,0,0,1,0,46492.3,0.256786,0.25647,-1.82528,24,0.0154846,10,-0.000468131,-2.73867,-0.272102,-0.216831,15.4182,0.25647,
2,0,0,1,0,46492.3,0.255296,0.254977,-1.85182,24,0.0154503,10,-0.000472172,-2.7324,-0.296222,-0.199175,14.3398,0.254977,
2,0,0,1,0,46492.3,0.253793,0.253472,-1.8683,24,0.0154152,10,-0.000473562,-2.72855,-0.286917,-0.205634,14.9684,0.253472,
2,0,0,1,0,46492.4,0.252289,0.251966,-1.89065,24,0.0153798,10,-0.000476378,-2.72339,-0.273097,-0.216041,15.9081,0.2519657,
2,0,0,1,0,46492.4,0.2508,0.250486,-1.91009,24,0.0153443,10,-0.000478451,-2.71895,-0.293532,-0.201,14.9364,0.250486,
2,0,0,1,0,46492.4,0.249296,0.249001,-1.92651,24,0.015308,10,-0.000479702,-2.71523,-0.325154,-0.181452,13.6294,0.249001,
2,0,0,1,0,46492.4,0.2478,0.247455,-1.94096,24,0.0152716,10,-0.000480302,-2.71198,-0.331942,-0.177742,13.5148,0.247455,
2,0,0,1,0,46492.4,0.246304,0.246018,-1.96384,24,0.0152349,10,-0.000483138,-2.70689,-0.320935,-0.183838,14.0789,0.246018,
2,0,0,1,0,46492.5,0.2448,0.244483,-1.98592,24,0.0151975,10,-0.000485524,-2.70204,-0.320206,-0.184257,14.2662,0.244483,
2,0,0,1,0,46492.5,0.243313,0.24301,-2.0011,24,0.0151602,10,-0.000486287,-2.69873,-0.382242,-0.154352,12.0534,0.24301,
2,0,0,1,0,46492.5,0.241809,0.241492,-2.0143,24,0.0151222,10,-0.000486436,-2.69588,-0.41602,-0.14182,11.1915,0.241492,
2,0,0,1,0,46492.5,0.240306,0.239989,-2.03427,24,0.0150839,10,-0.000488202,-2.69159,-0.474865,-0.124246,9.88495,0.239989,
2,0,0,1,0,46492.5,0.238816,0.238492,-2.0554,24,0.0150456,10,-0.000490197,-2.6871,-0.45819,-0.128768,10.3221,0.238492,
2,0,0,1,0,46492.6,0.237313,0.236987,-2.07246,24,0.0150066,10,-0.000491144,-2.68351,-0.543152,-0.108625,8.76392,0.236987,
2,0,0,1,0,46492.6,0.235809,0.23549,-2.09165,24,0.0149673,10,-0.000492563,-2.67951,-0.539374,-0.109386,8.92273,0.23549,
2,0,0,1,0,46492.6,0.23432,0.233999,-2.10799,24,0.0149281,10,-0.000493269,-2.67613,-0.515367,-0.114481,9.42292,0.233999,
2,0,0,1,0,46492.6,0.232816,0.232509,-2.12705,24,0.0148882,10,-0.000494557,-2.67222,-0.41835,-0.14103,11.6887,0.232509,
2,0,0,1,0,46492.6,0.23132,0.231018,-2.1443,24,0.0148481,10,-0.000495372,-2.66872,-0.417698,-0.14125,11.8126,0.231018,
2,0,0,1,0,46492.6,0.229824,0.229537,-2.15737,24,0.0148077,10,-0.000495195,-2.66608,-0.45523,-0.129605,10.8958,0.229537,
2,0,0,1,0,46492.7,0.22832,0.227999,-2.17343,24,0.0147668,10,-0.000495539,-2.66285,-0.416233,-0.141747,12.0069,0.227999,
2,0,0,1,0,46492.7,0.226833,0.226483,-2.18624,24,0.0147261,10,-0.000495146,-2.6603,-0.334541,-0.176361,15.0215,0.226483,
2,0,0,1,0,46492.7,0.225329,0.225057,-2.201,24,0.0146846,10,-0.000495352,-2.65738,-0.373168,-0.158106,13.5986,0.225057,
2,0,0,1,0,46492.7,0.223825,0.223502,-2.21569,24,0.0146429,10,-0.000495211,-2.65449,-0.522918,-0.112828,9.76986,0.223502,
2,0,0,1,0,46492.7,0.222336,0.222022,-2.22361,24,0.0146012,10,-0.000493691,-2.65294,-0.450905,-0.130848,11.4071,0.222022,
2,0,0,1,0,46492.8,0.220833,0.22055,-2.24551,24,0.0145589,10,-0.000495246,-2.64869,-0.467341,-0.126246,11.0923,0.22055,
2,0,0,1,0,46492.8,0.219329,0.219037,-2.26145,24,0.0145163,10,-0.000495342,-2.64561,-0.509746,-0.115744,10.233,0.219037,
2,0,0,1,0,46492.8,0.21784,0.217509,-2.28035,24,0.0144738,10,-0.000495996,-2.642,-0.811458,-0.0727087,6.46519,0.217509,
2,0,0,1,0,46492.8,0.216336,0.216086,-2.29428,24,0.0144305,10,-0.000495762,-2.63935,-0.680198,-0.0867395,7.77903,0.216086,
2,0,0,1,0,46492.8,0.21484,0.21452,-2.30674,24,0.0143873,10,-0.000494843,-2.637,-0.607691,-0.0970888,8.77383,0.21452,
2,0,0,1,0,46492.9,0.213343,0.213049,-2.32765,24,0.0143437,10,-0.000495903,-2.63308,-0.552552,-0.106777,9.68491,0.213049,
2,0,0,1,0,46492.9,0.21184,0.211534,-2.34415,24,0.0142996,10,-0.000495868,-2.63001,-0.652772,-0.0903837,8.2614,0.211534,
2,0,0,1,0,46492.9,0.210352,0.210029,-2.35898,24,0.0142557,10,-0.000495454,-2.62728,-0.641255,-0.092007,8.46269,0.210029,
2,0,0,1,0,46492.9,0.208849,0.208537,-2.37574,24,0.0142111,10,-0.000495429,-2.6242,-0.532365,-0.110826,10.2684,0.208537,
2,0,0,1,0,46492.9,0.207345,0.207057,-2.39183,24,0.0141662,10,-0.000495245,-2.62127,-0.425052,-0.138807,12.9514,0.207057,
2,0,0,1,0,46492.9,0.205856,0.205542,-2.41261,24,0.0141213,10,-0.000495892,-2.61751,-0.454399,-0.129842,12.1698,0.205542,
2,0,0,1,0,46493,0.204353,0.204015,-2.42331,24,0.0140757,10,-0.000494391,-2.61559,-0.497293,-0.118642,11.2097,0.204015,
2,0,0,1,0,46493,0.202849,0.202559,-2.43406,24,0.0140299,10,-0.00049304,-2.61367,-0.478181,-0.123384,11.7216,0.202559,
2,0,0,1,0,46493,0.20136,0.201051,-2.44854,24,0.0139843,10,-0.00049228,-2.61109,-0.459039,-0.128529,12.2968,0.201051,
2,0,0,1,0,46493,0.199856,0.199533,-2.46589,24,0.0139379,10,-0.000492026,-2.60803,-0.4739,-0.124499,11.985,0.199533,
2,0,0,1,0,46493,0.19836,0.198035,-2.47854,24,0.0138914,10,-0.000490837,-2.6058,-0.560788,-0.105209,10.1877,0.198035,
2,0,0,1,0,46493.1,0.196863,0.196548,-2.48995,24,0.0138447,10,-0.000489396,-2.60381,-0.544651,-0.108326,10.562,0.196548,
2,0,0,1,0,46493.1,0.19536,0.195074,-2.51212,24,0.0137974,10,-0.00049005,-2.59996,-0.468121,-0.126036,12.3725,0.195074,
2,0,0,1,0,46493.1,0.193872,0.193525,-2.53067,24,0.0137503,10,-0.000489748,-2.59677,-0.547514,-0.10776,10.6453,0.193525,
2,0,0,1,0,46493.1,0.192369,0.192046,-2.5487,24,0.0137023,10,-0.000489467,-2.59368,-0.653796,-0.0902422,8.96651,0.192046,
2,0,0,1,0,46493.1,0.190865,0.190531,-2.56641,24,0.013654,10,-0.000488981,-2.59067,-0.602836,-0.0978708,9.79457,0.190531,
2,0,0,1,0,46493.2,0.189376,0.189021,-2.58617,24,0.0136059,10,-0.000488841,-2.58734,-0.648567,-0.0909698,9.17124,0.189021,
2,0,0,1,0,46493.2,0.187872,0.187559,-2.60091,24,0.0135571,10,-0.000487824,-2.58488,-0.563322,-0.104736,10.6285,0.187559,
2,0,0,1,0,46493.2,0.186369,0.186037,-2.6216,24,0.0135078,10,-0.000487714,-2.58143,-0.555553,-0.1062,10.8413,0.186037,
2,0,0,1,0,46493.2,0.18488,0.184553,-2.64136,24,0.0134587,10,-0.000487471,-2.57817,-0.515769,-0.114392,11.7794,0.184553,
2,0,0,1,0,46493.2,0.183376,0.183045,-2.65953,24,0.0134088,10,-0.000486813,-2.5752,-0.416881,-0.141527,14.6759,0.183045,
2,0,0,1,0,46493.2,0.18188,0.181577,-2.67696,24,0.0133588,10,-0.000486073,-2.57236,-0.371622,-0.158764,16.5708,0.1815768,
2,0,0,1,0,46493.3,0.180383,0.180011,-2.69998,24,0.0133083,10,-0.000486025,-2.56864,-0.408966,-0.144266,15.1794,0.180011,
2,0,0,1,0,46493.3,0.17888,0.17854,-2.7183,24,0.0132572,10,-0.000485324,-2.5657,-0.430075,-0.137185,14.5452,0.17854,
2,0,0,1,0,46493.3,0.177392,0.177084,-2.73478,24,0.0132063,10,-0.000484286,-2.56308,-0.388735,-0.151774,16.233,0.177084,
2,0,0,1,0,46493.3,0.175889,0.17556,-2.75559,24,0.0131544,10,-0.000483772,-2.55979,-0.38376,-0.153742,16.5532,0.17556,
2,0,0,1,0,46493.3,0.174385,0.174088,-2.77979,24,0.0131021,10,-0.000483928,-2.55599,-0.41119,-0.143486,15.5904,0.174088,
2,0,0,1,0,46493.4,0.172896,0.172529,-2.80714,24,0.0130498,10,-0.000484313,-2.55174,-0.438754,-0.134472,14.7371,0.172529,
2,0,0,1,0,46493.4,0.171392,0.171112,-2.82677,24,0.0129966,10,-0.000483693,-2.54871,-0.451954,-0.130544,14.4419,0.171112,
2,0,0,1,0,46493.4,0.169889,0.169559,-2.8598,24,0.0129429,10,-0.000484903,-2.54367,-0.403807,-0.14611,16.3153,0.169559,
2,0,0,1,0,46493.4,0.1684,0.168144,-2.88956,24,0.0128893,10,-0.000485862,-2.53917,-0.38308,-0.154015,17.3666,0.168144,
2,0,0,1,0,46493.4,0.166896,0.166574,-2.92375,24,0.0128345,10,-0.00048702,-2.53406,-0.383852,-0.153705,17.5019,0.166574,
2,0,0,1,0,46493.4,0.165392,0.165047,-2.95197,24,0.0127791,10,-0.000487213,-2.52989,-0.341576,-0.172729,19.8865,0.165047,
2,0,0,1,0,46493.5,0.163905,0.163631,-2.98007,24,0.0127238,10,-0.000487631,-2.52577,-0.326681,-0.180605,21.0667,0.163631,
2,0,0,1,0,46493.5,0.162401,0.16209,-3.02319,24,0.0126672,10,-0.000490028,-2.51953,-0.278075,-0.212173,25.0115,0.16209,
2,0,0,1,0,46493.5,0.160905,0.160574,-3.05985,24,0.0126102,10,-0.000491332,-2.5143,-0.26149,-0.22563,26.9004,0.160574,
2,0,0,1,0,46493.5,0.159409,0.159097,-3.09789,24,0.0125525,10,-0.000492866,-2.50893,-0.250204,-0.235807,28.5128,0.159097,
2,0,0,1,0,46493.5,0.157905,0.157604,-3.13762,24,0.0124937,10,-0.000494501,-2.5034,-0.232454,-0.253813,31.1211,0.157604,
2,0,0,1,0,46493.6,0.156416,0.156088,-3.18306,24,0.0124347,10,-0.000496838,-2.49715,-0.208037,-0.283603,35.2984,0.156088,
2,0,0,1,0,46493.6,0.154912,0.154587,-3.23927,24,0.0123742,10,-0.00050075,-2.48955,-0.194587,-0.303207,38.3618,0.154587,
2,0,0,1,0,46493.6,0.153409,0.153067,-3.29323,24,0.0123125,10,-0.000504086,-2.48238,-0.192818,-0.305988,39.3658,0.153067,
2,0,0,1,0,46493.6,0.151919,0.151553,-3.34612,24,0.0122505,10,-0.000507113,-2.47546,-0.179086,-0.32945,43.1641,0.1515528,
2,0,0,1,0,46493.6,0.150416,0.150089,-3.41445,24,0.0121867,10,-0.000512471,-2.46668,-0.168577,-0.349989,46.7801,0.150089,
2,0,0,1,0,46493.7,0.148912,0.148566,-3.48894,24,0.0121215,10,-0.00051834,-2.45731,-0.159951,-0.368864,50.339,0.148566,
2,0,0,1,0,46493.7,0.147425,0.147079,-3.57163,24,0.0120556,10,-0.000525312,-2.44713,-0.151942,-0.388307,54.1651,0.147079,
2,0,0,1,0,46493.7,0.145921,0.145615,-3.65557,24,0.0119874,10,-0.000532306,-2.43704,-0.142617,-0.413696,59.215,0.145615,
2,0,0,1,0,46493.7,0.144425,0.144118,-3.75546,24,0.011918,10,-0.000541229,-2.42534,-0.127925,-0.461209,67.7841,0.144118,
2,0,0,1,0,46493.7,0.142929,0.142628,-3.86516,24,0.0118466,10,-0.00055128,-2.41283,-0.1186,-0.497469,75.0883,0.142628,
2,0,0,1,0,46493.7,0.141425,0.141104,-3.98997,24,0.0117726,10,-0.000562999,-2.39903,-0.117428,-0.502435,78.165,0.141104,
2,0,0,1,0,46493.8,0.139936,0.139614,-4.11656,24,0.0116971,10,-0.000574731,-2.38547,-0.111263,-0.530277,85.2227,0.139614,
2,0,0,1,0,46493.8,0.138432,0.138098,-4.24654,24,0.0116184,10,-0.000586438,-2.37196,-0.103896,-0.567877,94.3011,0.1380976,
2,0,0,1,0,46493.8,0.136929,0.136592,-4.39672,24,0.011537,10,-0.000600559,-2.35687,-0.101699,-0.580145,99.5542,0.136592,
2,0,0,1,0,46493.8,0.135439,0.135095,-4.55197,24,0.0114536,10,-0.000614947,-2.3418,-0.0981557,-0.601086,106.701,0.135095,
2,0,0,1,0,46493.8,0.133936,0.133656,-4.71066,24,0.0113664,10,-0.000629607,-2.32692,-0.097646,-0.604223,110.995,0.133656,
2,0,0,1,0,46493.9,0.132432,0.132083,-4.87119,24,0.0112761,10,-0.0006434,-2.31236,-0.100211,-0.588757,111.955,0.1320827,
2,0,0,1,0,46493.9,0.130945,0.130584,-5.03778,24,0.0111838,10,-0.000657852,-2.29776,-0.0997672,-0.591377,116.278,0.130584,
2,0,0,1,0,46493.9,0.129441,0.129147,-5.21276,24,0.0110872,10,-0.000673211,-2.28293,-0.101169,-0.583183,118.55,0.129147,
2,0,0,1,0,46493.9,0.127945,0.12765,-5.37892,24,0.0109879,10,-0.000686621,-2.2693,-0.108072,-0.54593,114.635,0.1276502,
2,0,0,1,0,46493.9,0.126448,0.126147,-5.54133,24,0.0108854,10,-0.00069902,-2.25639,-0.113824,-0.518345,112.242,0.126147,
2,0,0,1,0,46494,0.124945,0.124608,-5.71453,24,0.0107793,10,-0.000712077,-2.24302,-0.119951,-0.491868,109.678,0.124608,
2,0,0,1,0,46494,0.123456,0.12316,-5.87645,24,0.0106712,10,-0.000723743,-2.23088,-0.127022,-0.464486,106.551,0.12316,
2,0,0,1,0,46494,0.121952,0.121652,-6.04097,24,0.0105589,10,-0.000734895,-2.21889,-0.13877,-0.425164,100.114,0.121652,
2,0,0,1,0,46494,0.120449,0.120129,-6.19426,24,0.0104436,10,-0.000744112,-2.20801,-0.145743,-0.404822,97.7606,0.120129,
2,0,0,1,0,46494,0.118959,0.118645,-6.34214,24,0.0103269,10,-0.000752463,-2.19776,-0.152451,-0.387009,95.775,0.1186449,
2,0,0,1,0,46494,0.117456,0.117182,-6.49272,24,0.0102061,10,-0.000760828,-2.18757,-0.157341,-0.374982,94.8107,0.117182,
2,0,0,1,0,46494.1,0.115952,0.115662,-6.63334,24,0.0100825,10,-0.000767224,-2.17827,-0.172036,-0.342951,88.5285,0.115662,
2,0,0,1,0,46494.1,0.114465,0.114124,-6.75636,24,0.00995783,10,-0.000771063,-2.17029,-0.185515,-0.318034,83.7174,0.114124,
2,0,0,1,0,46494.1,0.112961,0.112635,-6.87618,24,0.00982956,10,-0.000774497,-2.16265,-0.198311,-0.297512,79.7954,0.112635,
2,0,0,1,0,46494.1,0.111465,0.111127,-6.99283,24,0.00969969,10,-0.000777096,-2.15535,-0.20502,-0.287777,78.4082,0.111127,
2,0,0,1,0,46494.1,0.109968,0.109636,-7.10171,24,0.00956769,10,-0.000778601,-2.14864,-0.229735,-0.256818,71.0783,0.109636,
2,0,0,1,0,46494.2,0.108465,0.108158,-7.20076,24,0.00943299,10,-0.000778824,-2.14262,-0.261612,-0.225525,63.2924,0.108158,
2,0,0,1,0,46494.2,0.106976,0.106671,-7.28347,24,0.00929805,10,-0.000776937,-2.13766,-0.293943,-0.200719,57.0489,0.106671,
2,0,0,1,0,46494.2,0.105472,0.105151,-7.36217,24,0.00916009,10,-0.000774136,-2.13299,-0.323201,-0.182549,52.4315,0.105151,
2,0,0,1,0,46494.2,0.103968,0.103616,-7.43753,24,0.00902065,10,-0.00077065,-2.12857,-0.376821,-0.156573,45.4201,0.103616,
2,0,0,1,0,46494.2,0.102479,0.102174,-7.49842,24,0.00888147,10,-0.000766143,-2.12503,-0.494943,-0.119206,34.8502,0.102174,
2,0,0,1,0,46494.3,0.100976,0.100655,-7.54604,24,0.00873977,10,-0.00075955,-2.12228,-0.633036,-0.0932017,27.4295,0.100655,
2,0,0,1,0,46494.3,0.0994721,0.0991315,-7.58571,24,0.00859725,10,-0.000751983,-2.12,-0.796625,-0.0740624,21.9016,0.0991315,
2,0,0,1,0,46494.3,0.0979846,0.0976492,-7.61962,24,0.00845562,10,-0.00074405,-2.11807,-1.35372,-0.0435837,12.9449,0.0976492,
2,0,0,1,0,46494.3,0.0964811,0.0961638,-7.63826,24,0.00831201,10,-0.000734524,-2.11701,-2.7252,-0.0216498,6.44336,0.0961638,
2,0,0,1,0,46494.3,0.0949847,0.0946982,-7.64592,24,0.00816891,10,-0.000724056,-2.11657,-41.8107,-0.00141112,0.420497,0.09469825,
2,0,0,1,0,46494.3,0.0934883,0.0931524,-7.64614,24,0.00802581,10,-0.000712256,-2.11656,3.40185,0.0173435,-5.16846,0.0931524,
2,0,0,1,0,46494.4,0.0919847,0.0916122,-7.63295,24,0.00788206,10,-0.000699271,-2.11731,1.89519,0.0311315,-9.26504,0.0916122,
2,0,0,1,0,46494.4,0.0904954,0.0901506,-7.61893,24,0.00774007,10,-0.000686851,-2.11811,1.16812,0.0505083,-14.9928,0.0901506,
2,0,0,1,0,46494.4,0.0889919,0.0886488,-7.59082,24,0.00759698,10,-0.000672918,-2.11971,0.92289,0.0639296,-18.914,0.0886488,
2,0,0,1,0,46494.4,0.0874884,0.0871409,-7.55958,24,0.00745451,10,-0.000658749,-2.1215,0.813603,0.0725169,-21.3671,0.08714094,
2,0,0,1,0,46494.4,0.0860009,0.0857012,-7.51523,24,0.00731419,10,-0.000644064,-2.12406,0.763167,0.0773094,-22.6615,0.08570122,
2,0,0,1,0,46494.5,0.0844973,0.0841712,-7.474,24,0.00717307,10,-0.000629095,-2.12645,0.632486,0.0932827,-27.2058,0.0841712,
2,0,0,1,0,46494.5,0.0829938,0.0827014,-7.42815,24,0.00703274,10,-0.000614318,-2.12912,0.609483,0.0968034,-28.0644,0.0827014,
2,0,0,1,0,46494.5,0.0815045,0.0811908,-7.38053,24,0.00689479,10,-0.000599232,-2.13191,0.573918,0.102802,-29.6433,0.0811908,
2,0,0,1,0,46494.5,0.080001,0.0797092,-7.33544,24,0.00675617,10,-0.000584702,-2.13457,0.629118,0.0937821,-26.8776,0.0797092,
2,0,0,1,0,46494.5,0.0785046,0.078166,-7.29949,24,0.00661907,10,-0.000570572,-2.13671,0.58093,0.101561,-28.9434,0.078166,
2,0,0,1,0,46494.6,0.0770082,0.0766862,-7.25646,24,0.00648276,10,-0.00055647,-2.13928,0.570392,0.103438,-29.3039,0.0766862,
2,0,0,1,0,46494.6,0.0755046,0.0752015,-7.21103,24,0.00634651,10,-0.00054228,-2.142,0.561631,0.105051,-29.5893,0.0752015,
2,0,0,1,0,46494.6,0.0740154,0.0736776,-7.18186,24,0.00621247,10,-0.000529142,-2.14376,0.614647,0.0959901,-26.9075,0.07367757,
2,0,0,1,0,46494.6,0.0725118,0.0722031,-7.14527,24,0.0060777,10,-0.000515911,-2.14598,0.651305,0.0905873,-25.2546,0.0722031,
2,0,0,1,0,46494.6,0.0710083,0.0706723,-7.11245,24,0.00594353,10,-0.000502653,-2.14798,0.691336,0.085342,-23.6722,0.0706723,
2,0,0,1,0,46494.6,0.0695208,0.0692081,-7.07891,24,0.00581143,10,-0.000489918,-2.15003,0.747133,0.0789686,-21.8107,0.0692081,
2,0,0,1,0,46494.7,0.0680173,0.0676674,-7.04617,24,0.00567856,10,-0.000476796,-2.15205,0.89183,0.0661561,-18.1965,0.0676674,
2,0,0,1,0,46494.7,0.0665137,0.0662206,-7.01465,24,0.00554626,10,-0.000464514,-2.15399,0.918947,0.0642039,-17.5784,0.0662206,
2,0,0,1,0,46494.7,0.0650244,0.0646598,-6.98961,24,0.00541585,10,-0.000451947,-2.15555,0.877156,0.0672628,-18.3299,0.0646598,
2,0,0,1,0,46494.7,0.0635209,0.063216,-6.9603,24,0.00528458,10,-0.000440003,-2.15737,0.858114,0.0687555,-18.6585,0.063216,
2,0,0,1,0,46494.7,0.0620245,0.0617048,-6.92657,24,0.0051546,10,-0.000427403,-2.15948,0.855517,0.0689642,-18.6394,0.0617048,
2,0,0,1,0,46494.8,0.0605281,0.0602118,-6.8937,24,0.0050252,10,-0.000415082,-2.16155,0.867315,0.068026,-18.3096,0.0602118,
2,0,0,1,0,46494.8,0.0590246,0.0587639,-6.86287,24,0.00489562,10,-0.000403289,-2.16349,0.926656,0.0636698,-17.0669,0.0587639,
2,0,0,1,0,46494.8,0.0575353,0.0571916,-6.83523,24,0.00476794,10,-0.000390917,-2.16525,0.719099,0.0820471,-21.8906,0.0571916,
2,0,0,1,0,46494.8,0.0560317,0.0557614,-6.7965,24,0.00463951,10,-0.000378982,-2.16771,0.749639,0.0787046,-20.906,0.0557614,
2,0,0,1,0,46494.8,0.0545282,0.0542252,-6.77009,24,0.00451169,10,-0.00036711,-2.16941,0.801757,0.0735884,-19.4539,0.0542252,
2,0,0,1,0,46494.9,0.0530407,0.0526911,-6.74666,24,0.00438575,10,-0.000355489,-2.17091,0.736115,0.0801505,-21.1029,0.0526911,
2,0,0,1,0,46494.9,0.0515372,0.0511934,-6.71239,24,0.004259,10,-0.00034363,-2.17312,0.655153,0.0900553,-23.5871,0.0511934,
2,0,0,1,0,46494.9,0.0500336,0.0497278,-6.67237,24,0.0041329,10,-0.000331802,-2.17572,0.602588,0.097911,-25.5212,0.0497278,
2,0,0,1,0,46494.9,0.0485444,0.0481824,-6.6474,24,0.00400883,10,-0.000320288,-2.17735,0.606363,0.0973014,-25.2337,0.0481824,
2,0,0,1,0,46494.9,0.0470408,0.0467174,-6.61641,24,0.00388401,10,-0.000309102,-2.17938,0.622118,0.0948373,-24.4602,0.0467174,
2,0,0,1,0,46494.9,0.0455444,0.0451969,-6.58237,24,0.00376046,10,-0.000297503,-2.18162,0.553115,0.106669,-27.368,0.0451969,
2,0,0,1,0,46495,0.044048,0.0437176,-6.54528,24,0.0036376,10,-0.000286144,-2.18407,0.611826,0.0964327,-24.619,0.0437176,
2,0,0,1,0,46495,0.0425445,0.0422425,-6.50478,24,0.00351484,10,-0.000274778,-2.18677,0.605233,0.0974832,-24.7546,0.04224246,
2,0,0,1,0,46495,0.0410552,0.0407383,-6.47301,24,0.00339403,10,-0.0002637,-2.18889,0.669162,0.08817,-22.2498,0.0407383,
2,0,0,1,0,46495,0.0395516,0.0391963,-6.4355,24,0.00327258,10,-0.000252248,-2.19142,0.641344,0.0919943,-23.0734,0.0391963,
2,0,0,1,0,46495,0.0380481,0.0376922,-6.39584,24,0.00315182,10,-0.000241073,-2.1941,0.610714,0.0966082,-24.0886,0.0376922,
2,0,0,1,0,46495.1,0.0365606,0.0362221,-6.34351,24,0.00303319,10,-0.000229775,-2.19767,0.535546,0.110168,-27.3023,0.0362221,
2,0,0,1,0,46495.1,0.0350571,0.0347398,-6.30378,24,0.00291402,10,-0.000218992,-2.2004,0.54191,0.108874,-26.7883,0.0347398,
2,0,0,1,0,46495.1,0.0335535,0.0332326,-6.26293,24,0.00279565,10,-0.000208133,-2.20322,0.501213,0.117714,-28.7822,0.0332326,
2,0,0,1,0,46495.1,0.0320643,0.0317267,-6.21591,24,0.00267931,10,-0.00019721,-2.2065,0.469859,0.12557,-30.4798,0.03172671,
2,0,0,1,0,46495.1,0.0305607,0.0302975,-6.16923,24,0.00256261,10,-0.000186913,-2.20977,0.436829,0.135064,-32.5507,0.0302975,
2,0,0,1,0,46495.2,0.0290643,0.0286769,-6.12776,24,0.00244739,10,-0.000175725,-2.2127,0.436781,0.135079,-32.3027,0.0286769,
2,0,0,1,0,46495.2,0.0275679,0.0272483,-6.0845,24,0.00233303,10,-0.000165793,-2.21578,0.431939,0.136593,-32.4244,0.0272483,
2,0,0,1,0,46495.2,0.0260644,0.0257462,-6.03906,24,0.00221892,10,-0.000155483,-2.21903,0.403753,0.146129,-34.3861,0.0257462,
2,0,0,1,0,46495.2,0.0245751,0.0242813,-5.98678,24,0.00210691,10,-0.000145367,-2.22281,0.403257,0.146309,-34.1748,0.0242813,
2,0,0,1,0,46495.2,0.0230716,0.022786,-5.9404,24,0.00199471,10,-0.000135358,-2.22618,0.420922,0.140169,-32.4947,0.022786,
2,0,0,1,0,46495.2,0.021568,0.0212539,-5.89393,24,0.00188336,10,-0.000125269,-2.2296,0.434076,0.135921,-31.2266,0.0212539,
2,0,0,1,0,46495.3,0.0200805,0.0197075,-5.8465,24,0.00177405,10,-0.00011522,-2.2331,0.42314,0.139434,-31.7886,0.0197075,
2,0,0,1,0,46495.3,0.018577,0.0182211,-5.7984,24,0.00166448,10,-0.000105653,-2.23669,0.461502,0.127843,-28.9284,0.0182211,
2,0,0,1,0,46495.3,0.0170735,0.016737,-5.74465,24,0.00155584,10,-9.61485e-05,-2.24074,0.500538,0.117873,-26.4678,0.016737,
2,0,0,1,0,46495.3,0.0155842,0.0152458,-5.70114,24,0.00144917,10,-8.69186e-05,-2.24404,0.506839,0.116408,-25.9072,0.0152458,
2,0,0,1,0,46495.3,0.0140806,0.0137403,-5.66148,24,0.00134209,10,-7.77905e-05,-2.24707,0.492026,0.119912,-26.4902,0.0137403,
2,0,0,1,0,46495.4,0.0125842,0.0122417,-5.62137,24,0.00123638,10,-6.88152e-05,-2.25016,0.460413,0.128146,-28.1072,0.0122417,
2,0,0,1,0,46495.4,0.0110878,0.0107961,-5.57475,24,0.00113152,10,-6.01856e-05,-2.25377,0.48648,0.121279,-26.4196,0.0107961,
2,0,0,1,0,46495.4,0.00958429,0.0092923,-5.5352,24,0.00102685,10,-5.14347e-05,-2.25687,0.517398,0.114032,-24.6604,0.009292298,
2,0,0,1,0,46495.4,0.0080968,0.00773566,-5.49939,24,0.000923938,10,-4.25414e-05,-2.25969,0.531405,0.111026,-23.8508,0.00773566,
2,0,0,1,0,46495.4,0.00659326,0.00620424,-5.46669,24,0.000820622,10,-3.39167e-05,-2.26228,0.499706,0.11807,-25.2153,0.00620424,
2,0,0,1,0,46495.5,0.00508972,0.0047836,-5.43057,24,0.000717913,10,-2.59777e-05,-2.26515,0.581725,0.101422,-21.5242,0.0047836,
2,0,0,1,0,46495.5,0.00360044,0.00323173,-5.40625,24,0.000616918,10,-1.74716e-05,-2.2671,0.93826,0.0628824,-13.3133,0.00323173,
2,0,0,1,0,46495.5,0.0020969,0.00168328,-5.42288,24,0.000515232,10,-9.12821e-06,-2.26577,1.08244,0.0545066,-11.4674,0.00168328,
2,0,0,1,0,46495.5,0.000593362,0.000184921,-5.38162,24,0.000413581,10,-9.95177e-07,-2.26909, , , ,0.0001849214,
2,0,0,1,0,46495.5,0.000199195,-0.000220343,-5.36771,24,0.000387196,10,1.18274e-06,-2.27021, , , ,-0.000220343,