File: Figure_codes/Fig_3-5/rawdata_trumpetplot_data/after 10th/20221101_1-115_003_TrumpetPlot_ParaChange_from10_every3_05_CV_C01_8.csv
mode,ox/red,error,control changes,counter inc.,time/s,control/V,Ewe/V,<I>/mA,cycle number,(Q-Qo)/C,I Range,P/W,log(|I|),Tafel slope mV/dec,alpha_eff,dI/d(E-IR),E-IR/V,
2,0,0,1,0,16881.1,2.44065e-05,-0.000497109,-0.733518,9,0.0000000E+000,10,3.64639e-07,-3.13459, , , ,-0.000497109,
2,1,0,1,0,16881.1,0.00129787,0.000910285,0.250057,9,-4.83323e-06,10,2.27623e-07,-3.60196, , , ,0.000910285,
2,1,0,1,0,16881.2,0.00279606,0.00248298,0.570462,9,2.94369e-05,10,1.41645e-06,-3.24377,0.00280897,21.0041,164.445,0.00248298,
2,1,0,1,0,16881.3,0.00429425,0.00396704,0.663544,9,7.7487e-05,10,2.63231e-06,-3.17813,0.0248466,2.37457,56.6843,0.00396704,
2,1,0,1,0,16881.3,0.00579244,0.00548762,0.715505,9,0.000130923,10,3.92642e-06,-3.14539,0.0471707,1.25078,34.305,0.00548762,
2,1,0,1,0,16881.4,0.00729063,0.00697211,0.761675,9,0.000187959,10,5.31048e-06,-3.11823,0.0657376,0.897507,26.353,0.00697211,
2,1,0,1,0,16881.5,0.00878882,0.00845067,0.797681,9,0.000247882,10,6.74093e-06,-3.09817,0.0867151,0.680389,21.0627,0.00845067,
2,1,0,1,0,16881.6,0.010287,0.00996384,0.826724,9,0.00031022,10,8.23734e-06,-3.08264,0.110358,0.534625,17.1415,0.00996384,
2,1,0,1,0,16881.6,0.0117852,0.0114633,0.851685,9,0.000374679,10,9.76313e-06,-3.06972,0.115811,0.509453,16.8929,0.0114633,
2,1,0,1,0,16881.7,0.0132847,0.0129442,0.87523,9,0.000440838,10,1.13291e-05,-3.05788,0.121859,0.484166,16.6123,0.0129442,
2,1,0,1,0,16881.8,0.0147802,0.0144754,0.900732,9,0.000508697,10,1.30385e-05,-3.0454,0.128222,0.460138,16.1373,0.0144754,
2,1,0,1,0,16881.9,0.0162798,0.0159453,0.920326,9,0.00057862,10,1.46749e-05,-3.03606,0.156231,0.377646,13.5221,0.0159453,
2,1,0,1,0,16881.9,0.017778,0.0174512,0.945566,9,0.000650001,10,1.65013e-05,-3.02431,0.174457,0.338193,12.4231,0.0174512,
2,1,0,1,0,16882,0.0192761,0.0189571,0.963561,9,0.000722641,10,1.82664e-05,-3.01612,0.163562,0.360718,13.5361,0.0189571,
2,1,0,1,0,16882.1,0.0207743,0.0204734,0.982632,9,0.000796886,10,2.01178e-05,-3.00761,0.157561,0.374457,14.3254,0.0204734,
2,1,0,1,0,16882.2,0.0222725,0.0219359,1.00211,9,0.000872739,10,2.19822e-05,-2.99909,0.168056,0.351073,13.7313,0.0219359,
2,1,0,1,0,16882.2,0.0237707,0.0234504,1.02313,9,0.000950122,10,2.39928e-05,-2.99007,0.186032,0.31715,12.6507,0.0234504,
2,1,0,1,0,16882.3,0.0252689,0.0249352,1.0381,9,0.00102881,10,2.58852e-05,-2.98376,0.18332,0.321842,13.0904,0.0249352,
2,1,0,1,0,16882.4,0.0267671,0.0264645,1.06241,9,0.00110894,10,2.81162e-05,-2.97371,0.173178,0.34069,14.1088,0.0264645,
2,1,0,1,0,16882.5,0.0282653,0.0279471,1.08369,9,0.00119069,10,3.02859e-05,-2.9651,0.168711,0.349711,14.7593,0.0279471,
2,1,0,1,0,16882.5,0.0297644,0.0294707,1.10252,9,0.00127417,10,3.24921e-05,-2.95761,0.198896,0.296637,12.7366,0.0294707,
2,1,0,1,0,16882.6,0.0312599,0.0309746,1.11492,9,0.00135878,10,3.45341e-05,-2.95276,0.201965,0.29213,12.788,0.0309746,
2,1,0,1,0,16882.7,0.0327599,0.0324252,1.14308,9,0.00144497,10,3.70645e-05,-2.94192,0.1888,0.312499,13.9168,0.0324252,
2,1,0,1,0,16882.8,0.034258,0.0339671,1.16106,9,0.00153267,10,3.94377e-05,-2.93515,0.195013,0.302544,13.6941,0.03396707,
2,1,0,1,0,16882.8,0.0357562,0.03544,1.18262,9,0.00162194,10,4.19119e-05,-2.92716,0.229684,0.256874,11.8012,0.03544,
2,1,0,1,0,16882.9,0.0372544,0.0369127,1.19954,9,0.00171266,10,4.42781e-05,-2.92099,0.223521,0.263957,12.3805,0.03691268,
2,1,0,1,0,16883,0.0387526,0.0384199,1.21731,9,0.00180458,10,4.6769e-05,-2.9146,0.194794,0.302884,14.4804,0.0384199,
2,1,0,1,0,16883.1,0.0402508,0.0399656,1.24144,9,0.00189815,10,4.96148e-05,-2.90607,0.212863,0.277173,13.4028,0.0399656,
2,1,0,1,0,16883.1,0.041749,0.04141,1.26089,9,0.00199354,10,5.22133e-05,-2.89932,0.231619,0.254729,12.5142,0.04141,
2,1,0,1,0,16883.2,0.0432472,0.0429647,1.28265,9,0.00209018,10,5.51086e-05,-2.89189,0.254754,0.231596,11.573,0.0429647,
2,1,0,1,0,16883.3,0.0447449,0.0444254,1.29786,9,0.00218804,10,5.76581e-05,-2.88677,0.236698,0.249263,12.6204,0.0444254,
2,1,0,1,0,16883.4,0.0462445,0.0459516,1.3194,9,0.00228755,10,6.06284e-05,-2.87962,0.217958,0.270695,13.8917,0.0459516,
2,1,0,1,0,16883.4,0.04774,0.0474547,1.33798,9,0.00238828,10,6.34936e-05,-2.87355,0.247689,0.238201,12.4062,0.0474547,
2,1,0,1,0,16883.5,0.0492399,0.048933,1.35247,9,0.00249067,10,6.61802e-05,-2.86887,0.258286,0.228429,12.0737,0.048933,
2,1,0,1,0,16883.6,0.0507381,0.0504403,1.36741,9,0.00259408,10,6.89723e-05,-2.8641,0.267663,0.220427,11.81,0.0504403,
2,1,0,1,0,16883.7,0.0522363,0.0519166,1.38838,9,0.00269888,10,7.20797e-05,-2.85749,0.272476,0.216533,11.7234,0.0519166,
2,1,0,1,0,16883.7,0.0537345,0.0534436,1.41061,9,0.00280519,10,7.53884e-05,-2.85059,0.276448,0.213422,11.7039,0.0534436,
2,1,0,1,0,16883.8,0.0552327,0.0549355,1.42569,9,0.00291277,10,7.83211e-05,-2.84597,0.350267,0.168443,9.34855,0.0549355,
2,1,0,1,0,16883.9,0.0567309,0.056454,1.43787,9,0.00302147,10,8.11738e-05,-2.84228,0.298463,0.19768,11.1179,0.056454,
2,1,0,1,0,16884,0.0582291,0.0578826,1.45595,9,0.00313124,10,8.42742e-05,-2.83685,0.327285,0.180271,10.2418,0.0578826,
2,1,0,1,0,16884,0.0597291,0.0594101,1.47184,9,0.00324257,10,8.74419e-05,-2.83214,0.320535,0.184067,10.5648,0.0594101,
2,1,0,1,0,16884.1,0.0612246,0.0609055,1.49308,9,0.00335487,10,9.09369e-05,-2.82592,0.340094,0.173481,10.0706,0.0609055,
2,1,0,1,0,16884.2,0.0627241,0.0624244,1.50535,9,0.00346863,10,9.39703e-05,-2.82236,0.317019,0.186109,10.9335,0.0624244,
2,1,0,1,0,16884.3,0.0642218,0.0638866,1.51873,9,0.00358319,10,9.70262e-05,-2.81852,0.310951,0.189741,11.2476,0.0638866,
2,1,0,1,0,16884.3,0.06572,0.0653729,1.53647,9,0.00369906,10,0.000100444,-2.81347,0.316503,0.186412,11.1577,0.0653729,
2,1,0,1,0,16884.4,0.0672182,0.0669224,1.55265,9,0.00381615,10,0.000103907,-2.80893,0.433361,0.136145,8.22013,0.0669224,
2,1,0,1,0,16884.5,0.0687164,0.0683538,1.56351,9,0.00393425,10,0.000106872,-2.8059,0.461072,0.127963,7.80288,0.0683538,
2,1,0,1,0,16884.6,0.0702146,0.0698581,1.57364,9,0.00405305,10,0.000109932,-2.80309,0.410194,0.143834,8.84974,0.0698581,
2,1,0,1,0,16884.6,0.0717128,0.0714099,1.59225,9,0.00417302,10,0.000113703,-2.79799,0.374822,0.157408,9.75707,0.0714099,
2,1,0,1,0,16884.7,0.073211,0.0728495,1.60222,9,0.00429413,10,0.000116721,-2.79528,0.395643,0.149124,9.33381,0.0728495,
2,1,0,1,0,16884.8,0.0747092,0.074379,1.61433,9,0.00441614,10,0.000120072,-2.79201,0.497089,0.118691,7.48295,0.074379,
2,1,0,1,0,16884.9,0.0762087,0.0758785,1.62079,9,0.00453919,10,0.000122983,-2.79027,0.460326,0.12817,8.12338,0.0758785,
2,1,0,1,0,16884.9,0.0777042,0.0773766,1.63787,9,0.00466269,10,0.000126733,-2.78572,0.462345,0.12761,8.1664,0.0773766,
2,1,0,1,0,16885,0.0792037,0.0788611,1.65036,9,0.00478741,10,0.00013015,-2.78242,0.423876,0.139192,8.96681,0.07886114,
2,1,0,1,0,16885.1,0.0807019,0.080436,1.66261,9,0.00491293,10,0.000133733,-2.77921,0.502155,0.117494,7.60623,0.080436,
2,1,0,1,0,16885.2,0.0822001,0.0819218,1.67043,9,0.00503936,10,0.000136844,-2.77717,0.474823,0.124257,8.11029,0.0819218,
2,1,0,1,0,16885.2,0.0836983,0.0834121,1.68432,9,0.00516646,10,0.000140493,-2.77357,0.498837,0.118275,7.79413,0.0834121,
2,1,0,1,0,16885.3,0.0851965,0.0848423,1.69866,9,0.0052946,10,0.000144118,-2.76989,0.426722,0.138263,9.16497,0.0848423,
2,1,0,1,0,16885.4,0.0866947,0.0863366,1.71094,9,0.00542388,10,0.000147717,-2.76676,0.514555,0.114662,7.65076,0.0863366,
2,1,0,1,0,16885.5,0.0881929,0.0878731,1.72891,9,0.00555424,10,0.000151925,-2.76223,0.371103,0.158985,10.7313,0.0878731,
2,1,0,1,0,16885.5,0.0896911,0.0893828,1.74458,9,0.00568547,10,0.000155936,-2.75831,0.350537,0.168313,11.4735,0.0893828,
2,1,0,1,0,16885.6,0.0911893,0.0908549,1.76484,9,0.00581823,10,0.000160344,-2.7533,0.278243,0.212045,14.5747,0.0908549,
2,1,0,1,0,16885.7,0.0926884,0.0923973,1.78497,9,0.0059528,10,0.000164926,-2.74837,0.274746,0.214744,14.9562,0.0923973,
2,1,0,1,0,16885.8,0.0941839,0.0939003,1.805,9,0.00608858,10,0.00016949,-2.74352,0.286245,0.206117,14.5346,0.0939003,
2,1,0,1,0,16885.8,0.0956838,0.0953539,1.82517,9,0.00622624,10,0.000174037,-2.7387,0.240822,0.244994,17.5227,0.0953539,
2,1,0,1,0,16885.9,0.097182,0.0968396,1.85687,9,0.00636565,10,0.000179819,-2.73122,0.210871,0.279792,20.2763,0.0968396,
2,1,0,1,0,16886,0.0986802,0.0983286,1.88286,9,0.0065073,10,0.000185139,-2.72518,0.203101,0.290496,21.3953,0.0983286,
2,1,0,1,0,16886.1,0.100178,0.0998409,1.91658,9,0.00665137,10,0.000191353,-2.71747,0.204,0.289215,21.6458,0.0998409,
2,1,0,1,0,16886.1,0.101677,0.101367,1.94637,9,0.00679781,10,0.000197297,-2.71077,0.19978,0.295325,22.5358,0.101367,
2,1,0,1,0,16886.2,0.103175,0.102859,1.9874,9,0.00694664,10,0.000204421,-2.70172,0.203688,0.289659,22.4783,0.102859,
2,1,0,1,0,16886.3,0.104673,0.104364,2.02718,9,0.00709834,10,0.000211565,-2.69311,0.192435,0.306596,24.1839,0.1043641,
2,1,0,1,0,16886.4,0.106171,0.105868,2.06138,9,0.00725287,10,0.000218234,-2.68584,0.211627,0.278792,22.3563,0.1058679,
2,1,0,1,0,16886.4,0.107669,0.107361,2.09472,9,0.00741001,10,0.000224891,-2.67887,0.217399,0.27139,22.1916,0.107361,
2,1,0,1,0,16886.5,0.109168,0.108869,2.12864,9,0.00756963,10,0.000231742,-2.6719,0.218896,0.269535,22.4032,0.108869,
2,1,0,1,0,16886.6,0.110664,0.110343,2.15851,9,0.00773155,10,0.000238176,-2.66585,0.228469,0.258241,21.7634,0.110343,
2,1,0,1,0,16886.7,0.112164,0.111847,2.19063,9,0.00789644,10,0.000245016,-2.65943,0.267797,0.220316,18.811,0.111847,
2,1,0,1,0,16886.7,0.113662,0.113382,2.22216,9,0.00806331,10,0.000251953,-2.65322,0.31492,0.187349,16.2153,0.113382,
2,1,0,1,0,16886.8,0.11516,0.114819,2.24395,9,0.00823189,10,0.000257647,-2.64899,0.330475,0.178531,15.6316,0.114819,
2,1,0,1,0,16886.9,0.116658,0.11634,2.27134,9,0.00840239,10,0.000264248,-2.64372,0.318674,0.185142,16.3671,0.11634,
2,1,0,1,0,16887,0.118157,0.117871,2.2951,9,0.00857485,10,0.000270525,-2.6392,0.405397,0.145536,12.9942,0.117871,
2,1,0,1,0,16887,0.119655,0.119331,2.31177,9,0.00874873,10,0.000275866,-2.63606,0.493768,0.119489,10.7778,0.119331,
2,1,0,1,0,16887.1,0.121153,0.120813,2.32524,9,0.00892372,10,0.000280919,-2.63353,0.444651,0.132688,12.0603,0.120813,
2,1,0,1,0,16887.2,0.122653,0.122326,2.34268,9,0.00910026,10,0.00028657,-2.63029,0.413799,0.142581,13.0377,0.122326,
2,1,0,1,0,16887.3,0.124149,0.123864,2.36287,9,0.00927788,10,0.000292675,-2.62656,0.436863,0.135054,12.4504,0.123864,
2,1,0,1,0,16887.3,0.125648,0.125341,2.38134,9,0.00945725,10,0.00029848,-2.62318,0.49288,0.119705,11.1124,0.125341,
2,1,0,1,0,16887.4,0.127146,0.12686,2.38985,9,0.0096376,10,0.000303176,-2.62163,0.48525,0.121587,11.3739,0.12686,
2,1,0,1,0,16887.5,0.128644,0.128335,2.41031,9,0.00981903,10,0.000309326,-2.61793,0.481247,0.122598,11.5475,0.1283347,
2,1,0,1,0,16887.6,0.130142,0.12982,2.43249,9,0.010002,10,0.000315787,-2.61395,0.500468,0.11789,11.1733,0.12982,
2,1,0,1,0,16887.6,0.13164,0.131331,2.44747,9,0.0101863,10,0.00032143,-2.61128,0.812375,0.0726266,6.91661,0.131331,
2,1,0,1,0,16887.7,0.133139,0.132838,2.45515,9,0.0103714,10,0.000326137,-2.60992,1.28487,0.0459189,4.39593,0.132838,
2,1,0,1,0,16887.8,0.134637,0.13432,2.45984,9,0.0105569,10,0.000330406,-2.60909,5.29918,0.0111338,1.06853,0.13432,
2,1,0,1,0,16887.9,0.136135,0.135827,2.46142,9,0.0107427,10,0.000334328,-2.60881,-1.97746,-0.0298363,-2.85624,0.135827,
2,1,0,1,0,16887.9,0.137633,0.137338,2.45302,9,0.0109283,10,0.000336894,-2.6103,-0.587944,-0.10035,-9.56278,0.137338,
2,1,0,1,0,16888,0.139133,0.13883,2.43248,9,0.011113,10,0.000337701,-2.61395,-0.333135,-0.177105,-16.7291,0.13883,
2,1,0,1,0,16888.1,0.140628,0.140295,2.39603,9,0.011295,10,0.00033615,-2.62051,-0.214702,-0.2748,-25.5982,0.140295,
2,1,0,1,0,16888.2,0.142128,0.141832,2.35065,9,0.0114747,10,0.000333396,-2.62881,-0.165597,-0.356287,-32.5389,0.141832,
2,1,0,1,0,16888.2,0.143626,0.143344,2.29878,9,0.0116505,10,0.000329516,-2.6385,-0.125388,-0.47054,-41.9622,0.143344,
2,1,0,1,0,16888.3,0.145124,0.144806,2.22588,9,0.0118215,10,0.000322322,-2.6525,-0.101098,-0.58359,-50.5278,0.144806,
2,1,0,1,0,16888.4,0.146622,0.14629,2.14282,9,0.0119867,10,0.000313473,-2.66901,-0.089682,-0.65788,-54.9532,0.14629,
2,1,0,1,0,16888.5,0.14812,0.147833,2.05859,9,0.0121457,10,0.000304326,-2.68643,-0.0793198,-0.743824,-59.5354,0.147833,
2,1,0,1,0,16888.5,0.149619,0.149283,1.97166,9,0.012298,10,0.000294336,-2.70517,-0.0759025,-0.777313,-59.6978,0.149283,
2,1,0,1,0,16888.6,0.151117,0.150794,1.87907,9,0.0124436,10,0.000283353,-2.72606,-0.0714049,-0.826273,-60.5014,0.150794,
2,1,0,1,0,16888.7,0.152615,0.152291,1.78605,9,0.0125823,10,0.000272,-2.74811,-0.0687404,-0.858302,-59.9226,0.152291,
2,1,0,1,0,16888.8,0.154113,0.153819,1.70247,9,0.0127143,10,0.000261873,-2.76892,-0.0727868,-0.810586,-54.0745,0.1538195,
2,1,0,1,0,16888.8,0.155613,0.155303,1.62769,9,0.0128405,10,0.000252785,-2.78843,-0.0784761,-0.751821,-47.8583,0.155303,
2,1,0,1,0,16888.9,0.157108,0.156782,1.55389,9,0.0129608,10,0.000243623,-2.80858,-0.0780864,-0.755574,-45.8953,0.1567823,
2,1,0,1,0,16889,0.158608,0.158287,1.48964,9,0.0130765,10,0.000235792,-2.82692,-0.0848566,-0.695291,-40.5499,0.158287,
2,1,0,1,0,16889.1,0.160106,0.159808,1.43122,9,0.0131872,10,0.00022872,-2.84429,-0.0915889,-0.644183,-36.175,0.159808,
2,1,0,1,0,16889.1,0.161604,0.161306,1.38407,9,0.0132941,10,0.000223258,-2.85884,-0.105136,-0.561177,-30.3945,0.161306,
2,1,0,1,0,16889.2,0.163102,0.162799,1.34125,9,0.0133975,10,0.000218353,-2.87249,-0.108799,-0.542284,-28.4449,0.162799,
2,1,0,1,0,16889.3,0.164601,0.164231,1.30248,9,0.0134979,10,0.000213908,-2.88523,-0.122773,-0.480562,-24.4407,0.1642307,
2,1,0,1,0,16889.4,0.166099,0.165762,1.26566,9,0.0135953,10,0.000209799,-2.89768,-0.140767,-0.419132,-20.7947,0.165762,
2,1,0,1,0,16889.4,0.167597,0.167293,1.23561,9,0.0136905,10,0.000206708,-2.90812,-0.167888,-0.351425,-16.9851,0.167293,
2,1,0,1,0,16889.5,0.169095,0.168775,1.21256,9,0.0137836,10,0.000204649,-2.9163,-0.171897,-0.34323,-16.2625,0.168775,
2,1,0,1,0,16889.6,0.170593,0.170283,1.18823,9,0.013875,10,0.000202336,-2.9251,-0.179277,-0.3291,-15.2608,0.170283,
2,1,0,1,0,16889.7,0.172092,0.171743,1.16286,9,0.0139646,10,0.000199712,-2.93447,-0.18995,-0.310608,-14.1697,0.171743,
2,1,0,1,0,16889.7,0.173588,0.17324,1.14832,9,0.0140525,10,0.000198936,-2.93994,-0.246285,-0.23956,-10.7347,0.17324,
2,1,0,1,0,16889.8,0.175088,0.174766,1.13021,9,0.0141392,10,0.000197521,-2.94684,-0.243252,-0.242547,-10.7182,0.174766,
2,1,0,1,0,16889.9,0.176586,0.176242,1.11323,9,0.0142249,10,0.000196199,-2.95341,-0.280701,-0.210188,-9.13159,0.176242,
2,1,0,1,0,16890,0.178084,0.177777,1.09947,9,0.0143094,10,0.00019546,-2.95882,-0.310945,-0.189744,-8.16807,0.177777,
2,1,0,1,0,16890,0.179582,0.179241,1.089,9,0.0143928,10,0.000195193,-2.96297,-0.353963,-0.166684,-7.10499,0.179241,
2,1,0,1,0,16890.1,0.181081,0.180748,1.07861,9,0.0144755,10,0.000194958,-2.96713,-0.34792,-0.169579,-7.14444,0.180748,
2,1,0,1,0,16890.2,0.182579,0.18229,1.0706,9,0.0145575,10,0.000195159,-2.97037,-0.342434,-0.172296,-7.19357,0.18229,
2,1,0,1,0,16890.3,0.184077,0.183768,1.06372,9,0.0146387,10,0.000195477,-2.97317,-0.400468,-0.147328,-6.11199,0.1837675,
2,1,0,1,0,16890.3,0.185577,0.185231,1.05573,9,0.0147193,10,0.000195553,-2.97645,-0.49936,-0.118151,-4.86297,0.185231,
2,1,0,1,0,16890.4,0.187073,0.186749,1.04527,9,0.0147991,10,0.000195203,-2.98077,-0.536267,-0.11002,-4.48571,0.186749,
2,1,0,1,0,16890.5,0.188572,0.188215,1.04016,9,0.0148788,10,0.000195772,-2.9829,-0.726109,-0.081255,-3.29364,0.188215,
2,1,0,1,0,16890.6,0.19007,0.189747,1.03477,9,0.0149578,10,0.000196345,-2.98516,-0.551048,-0.107069,-4.32016,0.189747,
2,1,0,1,0,16890.6,0.191568,0.191247,1.02659,9,0.0150362,10,0.000196332,-2.9886,-0.619705,-0.0952065,-3.82119,0.1912466,
2,1,0,1,0,16890.7,0.193066,0.192749,1.01949,9,0.0151143,10,0.000196505,-2.99162,-1.09365,-0.0539477,-2.14816,0.192749,
2,1,0,1,0,16890.8,0.194564,0.194272,1.0167,9,0.0151922,10,0.000197516,-2.99281,-0.652365,-0.0904402,-3.5876,0.194272,
2,1,0,1,0,16890.9,0.196063,0.195728,1.01396,9,0.0152697,10,0.00019846,-2.99398,-0.646348,-0.091282,-3.61355,0.195728,
2,1,0,1,0,16890.9,0.197561,0.197213,1.00444,9,0.0153467,10,0.000198088,-2.99808,-0.698589,-0.0844559,-3.32133,0.197213,
2,1,0,1,0,16891,0.199059,0.198742,1.00482,9,0.0154233,10,0.000199699,-2.99791,-0.859462,-0.0686476,-2.68584,0.198742,
2,1,0,1,0,16891.1,0.200557,0.200241,0.999257,9,0.0154998,10,0.000200092,-3.00032,-0.899572,-0.0655868,-2.55714,0.200241,
2,1,0,1,0,16891.2,0.202057,0.201721,0.998254,9,0.0155761,10,0.000201369,-3.00076,-0.689637,-0.0855522,-3.32107,0.201721,
2,1,0,1,0,16891.2,0.203552,0.203254,0.990989,9,0.0156519,10,0.000201422,-3.00393,-0.838003,-0.0704055,-2.72984,0.2032537,
2,1,0,1,0,16891.3,0.205052,0.204763,0.986463,9,0.0157275,10,0.000201991,-3.00592,108.87,0.000541931,0.0210189,0.204763,
2,1,0,1,0,16891.4,0.20655,0.206229,0.9849,9,0.0158029,10,0.000203115,-3.00661,-1.97038,-0.0299434,-1.15119,0.206229,
2,1,0,1,0,16891.5,0.208048,0.20777,0.984815,9,0.0158783,10,0.000204615,-3.00665,-0.777954,-0.07584,-2.90123,0.20777,
2,1,0,1,0,16891.5,0.209546,0.209233,0.979885,9,0.0159532,10,0.000205024,-3.00883,-0.806878,-0.0731213,-2.794,0.209233,
2,1,0,1,0,16891.6,0.211044,0.210747,0.973783,9,0.0160278,10,0.000205222,-3.01154,-0.931108,-0.0633654,-2.41006,0.210747,
2,1,0,1,0,16891.7,0.212543,0.212251,0.972165,9,0.0161022,10,0.000206343,-3.01226,-1.07751,-0.0547558,-2.07848,0.212251,
2,1,0,1,0,16891.8,0.214041,0.213743,0.970771,9,0.0161765,10,0.000207495,-3.01288,-1.51474,-0.0389506,-1.47696,0.213743,
2,1,0,1,0,16891.8,0.215539,0.215266,0.969177,9,0.0162506,10,0.000208631,-3.0136,-1.00985,-0.0584248,-2.21167,0.215266,
2,1,0,1,0,16891.9,0.217037,0.216736,0.960751,9,0.0163243,10,0.000208229,-3.01739,-1.13222,-0.0521101,-1.96422,0.216736,
2,1,0,1,0,16892,0.218536,0.218238,0.962878,9,0.0163981,10,0.000210137,-3.01643,-9.76716,-0.00604065,-0.227074,0.218238,
2,1,0,1,0,16892.1,0.220032,0.219757,0.962815,9,0.0164715,10,0.000211585,-3.01646,-3.0379,-0.0194213,-0.730306,0.219757,
2,1,0,1,0,16892.1,0.221532,0.221214,0.959979,9,0.016545,10,0.000212361,-3.01774,-1.10437,-0.0534242,-1.99914,0.221214,
2,1,0,1,0,16892.2,0.22303,0.222725,0.954215,9,0.0166181,10,0.000212528,-3.02035,-1.32523,-0.0445207,-1.66126,0.222725,
2,1,0,1,0,16892.3,0.224528,0.22419,0.952682,9,0.0166911,10,0.000213582,-3.02105,-1.81073,-0.0325836,-1.21333,0.22419,
2,1,0,1,0,16892.4,0.226026,0.225734,0.953356,9,0.0167639,10,0.000215205,-3.02075,-1.23223,-0.0478808,-1.78007,0.225734,
2,1,0,1,0,16892.4,0.227525,0.22722,0.948759,9,0.0168366,10,0.000215577,-3.02284,-0.804684,-0.0733207,-2.71324,0.2272197,
2,1,0,1,0,16892.5,0.229023,0.228709,0.946852,9,0.0169092,10,0.000216553,-3.02372,-1.43122,-0.0412237,-1.52605,0.228709,
2,1,0,1,0,16892.6,0.230521,0.230202,0.94617,9,0.0169814,10,0.00021781,-3.02403,-1.74186,-0.0338719,-1.25388,0.230202,
2,1,0,1,0,16892.7,0.232019,0.231736,0.945976,9,0.0170536,10,0.000219217,-3.02412,-2.24948,-0.0262283,-0.967769,0.231736,
2,1,0,1,0,16892.7,0.233517,0.233256,0.944565,9,0.0171257,10,0.000220325,-3.02477,-1.48152,-0.0398239,-1.46221,0.233256,
2,1,0,1,0,16892.8,0.235016,0.234722,0.941444,9,0.0171978,10,0.000220978,-3.02621,-2.21995,-0.0265772,-0.974448,0.2347223,
2,1,0,1,0,16892.9,0.236512,0.236249,0.938612,9,0.0172694,10,0.000221746,-3.02751,-3.31807,-0.0177814,-0.651169,0.236249,
2,1,0,1,0,16893,0.238012,0.237691,0.936373,9,0.0173411,10,0.000222568,-3.02855,-3.35625,-0.0175792,-0.642352,0.2376914,
2,1,0,1,0,16893,0.23951,0.239209,0.934409,9,0.0174126,10,0.000223519,-3.02946,-1.44038,-0.0409615,-1.49474,0.2392087,
2,1,0,1,0,16893.1,0.241008,0.240659,0.931988,9,0.017484,10,0.000224292,-3.03059,-1.29678,-0.0454974,-1.65798,0.240659,
2,1,0,1,0,16893.2,0.242506,0.242217,0.929112,9,0.0175552,10,0.000225047,-3.03193,-1.51933,-0.0388328,-1.41125,0.242217,
2,1,0,1,0,16893.3,0.244005,0.243693,0.930111,9,0.0176262,10,0.000226662,-3.03147,-4.58409,-0.0128706,-0.467174,0.243693,
2,1,0,1,0,16893.3,0.245503,0.245234,0.931007,9,0.0176973,10,0.000228314,-3.03105,-1.21578,-0.0485283,-1.75623,0.245234,
2,1,0,1,0,16893.4,0.247001,0.246735,0.925775,9,0.0177683,10,0.000228421,-3.03349,-0.999188,-0.059048,-2.13187,0.246735,
2,1,0,1,0,16893.5,0.248501,0.24816,0.922014,9,0.0178391,10,0.000228807,-3.03526,-1.69367,-0.0348356,-1.2586,0.24816,
2,1,0,1,0,16893.6,0.249997,0.249729,0.922189,9,0.0179095,10,0.000230298,-3.03518,-1.9062,-0.0309516,-1.11516,0.249729,
2,1,0,1,0,16893.6,0.251496,0.251195,0.919754,9,0.01798,10,0.000231038,-3.03633,-1.45891,-0.0404411,-1.45375,0.2511948,
2,1,0,1,0,16893.7,0.252994,0.25269,0.918027,9,0.0180504,10,0.000231976,-3.03714,-0.872694,-0.0676068,-2.422,0.25269,
2,1,0,1,0,16893.8,0.254492,0.254131,0.91732,9,0.0181207,10,0.000233119,-3.03748,-1.81626,-0.0324843,-1.16385,0.254131,
2,1,0,1,0,16893.9,0.25599,0.25571,0.917537,9,0.0181906,10,0.000234624,-3.03738,-2.13901,-0.0275828,-0.986776,0.25571,
2,1,0,1,0,16893.9,0.257488,0.257222,0.915381,9,0.0182606,10,0.000235456,-3.0384,-3.54865,-0.016626,-0.591559,0.257222,
2,1,0,1,0,16894,0.258987,0.258679,0.914065,9,0.0183306,10,0.000236449,-3.03902,-0.940927,-0.0627041,-2.23189,0.258679,
2,1,0,1,0,16894.1,0.260485,0.260185,0.913452,9,0.0184005,10,0.000237666,-3.03931,-1.05604,-0.0558693,-1.987,0.260185,
2,1,0,1,0,16894.2,0.261983,0.261674,0.91082,9,0.0184699,10,0.000238338,-3.04057,-1.42874,-0.0412951,-1.46921,0.2616742,
2,1,0,1,0,16894.2,0.263481,0.263209,0.90734,9,0.0185394,10,0.00023882,-3.04223,7.4775,0.00789034,0.278995,0.263209,
2,1,0,1,0,16894.3,0.264981,0.264679,0.905476,9,0.018609,10,0.000239661,-3.04312,-1.97336,-0.0298982,-1.05789,0.264679,
2,1,0,1,0,16894.4,0.266476,0.266167,0.903343,9,0.0186782,10,0.00024044,-3.04415,-1.30616,-0.0451706,-1.59587,0.266167,
2,1,0,1,0,16894.5,0.267976,0.267661,0.898868,9,0.0187473,10,0.000240592,-3.0463,-5.75758,-0.0102474,-0.361518,0.267661,
2,1,0,1,0,16894.5,0.269474,0.269206,0.902886,9,0.0188162,10,0.000243062,-3.04437,-2.16416,-0.0272623,-0.958741,0.269206,
2,1,0,1,0,16894.6,0.270972,0.270656,0.90216,9,0.0188852,10,0.000244175,-3.04472,-4.56312,-0.0129297,-0.453092,0.270656,
2,1,0,1,0,16894.7,0.27247,0.272185,0.897736,9,0.0189541,10,0.00024435,-3.04685,-1.50511,-0.0391998,-1.37246,0.2721853,
2,1,0,1,0,16894.8,0.273968,0.273674,0.892118,9,0.0190227,10,0.00024415,-3.04958,-1.52826,-0.038606,-1.35171,0.273674,
2,1,0,1,0,16894.8,0.275467,0.275141,0.892974,9,0.0190911,10,0.000245694,-3.04916,-1.43518,-0.0411097,-1.43504,0.275141,
2,1,0,1,0,16894.9,0.276965,0.276654,0.89287,9,0.0191595,10,0.000247016,-3.04921,-1.49248,-0.0395315,-1.3771,0.276654,
2,1,0,1,0,16895,0.278463,0.278158,0.892064,9,0.0192277,10,0.000248134,-3.0496,-0.778514,-0.0757854,-2.63276,0.278158,
2,1,0,1,0,16895.1,0.279961,0.279666,0.890996,9,0.0192958,10,0.000249182,-3.05012,-1.96531,-0.0300206,-1.0426,0.279666,
2,1,0,1,0,16895.1,0.28146,0.281164,0.887024,9,0.0193637,10,0.000249399,-3.05206,13.1158,0.00449841,0.155883,0.281164,
2,1,0,1,0,16895.2,0.282956,0.282664,0.884698,9,0.0194314,10,0.000250072,-3.0532,20.3152,0.00290422,0.100198,0.282664,
2,1,0,1,0,16895.3,0.284456,0.284147,0.886011,9,0.0194993,10,0.000251757,-3.05256,-2.40751,-0.0245067,-0.846649,0.284147,
2,1,0,1,0,16895.4,0.285954,0.285632,0.882455,9,0.0195669,10,0.000252058,-3.05431,-1.38343,-0.0426475,-1.46616,0.285632,
2,1,0,1,0,16895.4,0.287452,0.287108,0.878239,9,0.0196342,10,0.00025215,-3.05639,-1.49799,-0.0393861,-1.35554,0.287108,
2,1,0,1,0,16895.5,0.28895,0.288657,0.877672,9,0.0197015,10,0.000253346,-3.05667,5.99472,0.009842,0.336311,0.288657,
2,1,0,1,0,16895.6,0.290449,0.290137,0.87555,9,0.0197687,10,0.00025403,-3.05772,-1.16826,-0.0505023,-1.72715,0.290137,
2,1,0,1,0,16895.7,0.291947,0.291651,0.874153,9,0.0198357,10,0.000254948,-3.05841,-1.0531,-0.0560252,-1.91031,0.291651,
2,1,0,1,0,16895.7,0.293445,0.293155,0.868832,9,0.0199026,10,0.000254703,-3.06106,-1.38919,-0.0424709,-1.44646,0.293155,
2,1,0,1,0,16895.8,0.294943,0.294647,0.872959,9,0.0199692,10,0.000257215,-3.05901,-1.39637,-0.0422523,-1.43554,0.294647,
2,1,0,1,0,16895.9,0.296441,0.296156,0.873301,9,0.0200358,10,0.000258633,-3.05884,-2.41999,-0.0243802,-0.825364,0.296156,
2,1,0,1,0,16896,0.29794,0.297654,0.868839,9,0.0201024,10,0.000258613,-3.06106,-1.31463,-0.0448796,-1.51766,0.297654,
2,1,0,1,0,16896,0.299436,0.299154,0.861897,9,0.0201686,10,0.00025784,-3.06454,-0.00221607,-26.6237,-406.62,0.299154,
2,1,0,1,0,16896.1,0.299739,0.299464,0.45525,9,0.0202009,10,0.000136331,-3.34175,0.00123478,47.7817,828.483,0.299464,
2,0,0,1,0,16896.1,0.298239,0.297957,-0.0597481,9,0.0202074,10,-1.78023e-05,-4.22368,0.0052426,11.254,273.571,0.297957,
2,0,0,1,0,16896.2,0.296741,0.296468,-0.142663,9,0.0201977,10,-4.22949e-05,-3.84569,-0.00201095,-29.3393,50.2862,0.296468,
2,0,0,1,0,16896.3,0.295243,0.294954,-0.186747,9,0.0201835,10,-5.50817e-05,-3.72875,-0.0157955,-3.73523,24.9781,0.2949537,
2,0,0,1,0,16896.4,0.293745,0.293415,-0.220573,9,0.0201666,10,-6.47194e-05,-3.65645,-0.0253725,-2.32535,19.2746,0.293415,
2,0,0,1,0,16896.4,0.292246,0.291925,-0.247268,9,0.0201478,10,-7.21835e-05,-3.60683,-0.0356219,-1.65628,15.5121,0.291925,
2,0,0,1,0,16896.5,0.290748,0.290474,-0.265533,9,0.0201271,10,-7.71305e-05,-3.57588,-0.0440565,-1.33919,13.6666,0.290474,
2,0,0,1,0,16896.6,0.28925,0.288938,-0.285677,9,0.0201049,10,-8.25428e-05,-3.54413,-0.0570025,-1.03504,11.4662,0.288938,
2,0,0,1,0,16896.7,0.287752,0.287445,-0.302715,9,0.0200814,10,-8.70141e-05,-3.51897,-0.0659393,-0.894763,10.5308,0.287445,
2,0,0,1,0,16896.7,0.286254,0.285941,-0.313444,9,0.0200568,10,-8.96266e-05,-3.50384,-0.0713941,-0.826399,10.2155,0.285941,
2,0,0,1,0,16896.8,0.284754,0.284457,-0.333929,9,0.020031,10,-9.49884e-05,-3.47635,-0.078689,-0.749787,9.5987,0.284457,
2,0,0,1,0,16896.9,0.283259,0.282966,-0.347344,9,0.0200042,10,-9.82867e-05,-3.45924,-0.0923649,-0.63877,8.54696,0.282966,
2,0,0,1,0,16897,0.281759,0.281446,-0.35876,9,0.0199764,10,-0.000100971,-3.4452,-0.107522,-0.548727,7.58811,0.281446,
2,0,0,1,0,16897,0.280261,0.279956,-0.36361,9,0.0199478,10,-0.000101795,-3.43936,-0.107616,-0.548243,7.8462,0.2799561,
2,0,0,1,0,16897.1,0.278763,0.278453,-0.376394,9,0.0199184,10,-0.000104808,-3.42436,-0.128266,-0.459981,6.80036,0.278453,
2,0,0,1,0,16897.2,0.277264,0.27698,-0.388292,9,0.0198883,10,-0.000107549,-3.41084,-0.152336,-0.387301,5.89479,0.27698,
2,0,0,1,0,16897.3,0.275766,0.275447,-0.399807,9,0.0198573,10,-0.000110126,-3.39815,-0.164708,-0.358209,5.55047,0.275447,
2,0,0,1,0,16897.3,0.274268,0.27395,-0.408769,9,0.0198257,10,-0.000111982,-3.38852,-0.165694,-0.356078,5.65904,0.27395,
2,0,0,1,0,16897.4,0.27277,0.272454,-0.417262,9,0.0197934,10,-0.000113685,-3.37959,-0.160306,-0.368047,6.00235,0.2724545,
2,0,0,1,0,16897.5,0.271272,0.270988,-0.426164,9,0.0197604,10,-0.000115485,-3.37042,-0.153626,-0.38405,6.37386,0.270988,
2,0,0,1,0,16897.6,0.269774,0.269485,-0.434589,9,0.0197267,10,-0.000117115,-3.36192,-0.176963,-0.333403,5.61613,0.269485,
2,0,0,1,0,16897.6,0.268274,0.267942,-0.443793,9,0.0196924,10,-0.000118911,-3.35282,-0.19287,-0.305906,5.26261,0.267942,
2,0,0,1,0,16897.7,0.266779,0.266455,-0.450264,9,0.0196576,10,-0.000119975,-3.34653,-0.178492,-0.330547,5.78483,0.266455,
2,0,0,1,0,16897.8,0.265279,0.264991,-0.456626,9,0.0196221,10,-0.000121002,-3.34044,-0.159679,-0.36949,6.58315,0.264991,
2,0,0,1,0,16897.9,0.263781,0.26345,-0.465294,9,0.0195861,10,-0.000122581,-3.33227,-0.210211,-0.28067,5.10635,0.26345,
2,0,0,1,0,16897.9,0.262283,0.262012,-0.471396,9,0.0195495,10,-0.000123511,-3.32661,-0.255345,-0.23106,4.25208,0.262012,
2,0,0,1,0,16898,0.260784,0.260484,-0.475753,9,0.0195125,10,-0.000123926,-3.32262,-0.288155,-0.204751,3.83149,0.260484,
2,0,0,1,0,16898.1,0.259286,0.258983,-0.487123,9,0.0194749,10,-0.000126157,-3.31236,-0.260778,-0.226246,4.29029,0.258983,
2,0,0,1,0,16898.2,0.257788,0.257468,-0.496218,9,0.0194368,10,-0.00012776,-3.30433,-0.263628,-0.2238,4.29937,0.257468,
2,0,0,1,0,16898.2,0.25629,0.255962,-0.500549,9,0.0193981,10,-0.000128121,-3.30055,-0.34967,-0.168731,3.27419,0.255962,
2,0,0,1,0,16898.3,0.25479,0.254472,-0.503593,9,0.019359,10,-0.00012815,-3.29792,-0.33217,-0.17762,3.4886,0.254472,
2,0,0,1,0,16898.4,0.253294,0.252947,-0.511629,9,0.0193196,10,-0.000129415,-3.29104,-0.327052,-0.1804,3.61926,0.252947,
2,0,0,1,0,16898.5,0.251795,0.251467,-0.516976,9,0.0192795,10,-0.000130003,-3.28653,-0.253587,-0.232662,4.70241,0.251467,
2,0,0,1,0,16898.5,0.250297,0.249995,-0.521709,9,0.0192391,10,-0.000130425,-3.28257,-0.308116,-0.191487,3.90516,0.249995,
2,0,0,1,0,16898.6,0.248799,0.248483,-0.529464,9,0.0191981,10,-0.000131563,-3.27616,-0.311322,-0.189514,3.91736,0.248483,
2,0,0,1,0,16898.7,0.247301,0.246938,-0.535177,9,0.0191569,10,-0.000132156,-3.2715,-0.385521,-0.15304,3.1918,0.246938,
2,0,0,1,0,16898.8,0.245802,0.245448,-0.54033,9,0.0191151,10,-0.000132623,-3.26734,-0.300696,-0.196211,4.13974,0.245448,
2,0,0,1,0,16898.8,0.244304,0.244011,-0.547119,9,0.0190728,10,-0.000133503,-3.26192,-0.272586,-0.216446,4.61785,0.244011,
2,0,0,1,0,16898.9,0.242806,0.24251,-0.551601,9,0.0190301,10,-0.000133769,-3.25837,-0.444266,-0.132803,2.86939,0.24251,
2,0,0,1,0,16899,0.241308,0.24104,-0.556987,9,0.0189871,10,-0.000134256,-3.25416,-0.336889,-0.175132,3.82295,0.24104,
2,0,0,1,0,16899.1,0.23981,0.239478,-0.563244,9,0.0189437,10,-0.000134885,-3.2493,-0.286937,-0.20562,4.51651,0.239478,
2,0,0,1,0,16899.1,0.23831,0.237973,-0.568701,9,0.0188997,10,-0.000135336,-3.24512,-0.338833,-0.174127,3.8757,0.237973,
2,0,0,1,0,16899.2,0.236815,0.236515,-0.573476,9,0.0188555,10,-0.000135636,-3.24148,-0.410507,-0.143725,3.21992,0.236515,
2,0,0,1,0,16899.3,0.235315,0.234999,-0.576689,9,0.0188107,10,-0.000135521,-3.23906,-0.307888,-0.191628,4.33262,0.234999,
2,0,0,1,0,16899.4,0.233817,0.233539,-0.583078,9,0.0187657,10,-0.000136171,-3.23427,-0.467325,-0.126251,2.88948,0.233539,
2,0,0,1,0,16899.4,0.232319,0.232038,-0.591801,9,0.0187202,10,-0.00013732,-3.22782,-0.364787,-0.161738,3.70965,0.232038,
2,0,0,1,0,16899.5,0.230821,0.230488,-0.595717,9,0.0186742,10,-0.000137306,-3.22496,-0.425372,-0.138702,3.20753,0.230488,
2,0,0,1,0,16899.6,0.229322,0.228995,-0.599388,9,0.0186279,10,-0.000137257,-3.22229,-0.387908,-0.152098,3.56701,0.228995,
2,0,0,1,0,16899.7,0.227824,0.227507,-0.605491,9,0.0185814,10,-0.000137753,-3.21789,-0.425351,-0.138709,3.28517,0.227507,
2,0,0,1,0,16899.7,0.226326,0.226062,-0.612339,9,0.0185344,10,-0.000138426,-3.21301,-0.387094,-0.152418,3.62623,0.226062,
2,0,0,1,0,16899.8,0.224828,0.224562,-0.614903,9,0.0184869,10,-0.000138084,-3.21119,-0.517207,-0.114074,2.74004,0.224562,
2,0,0,1,0,16899.9,0.22333,0.222997,-0.622021,9,0.0184391,10,-0.000138709,-3.2062,-0.462205,-0.127649,3.10014,0.222997,
2,0,0,1,0,16900,0.22183,0.221547,-0.628524,9,0.018391,10,-0.000139248,-3.20168,-0.375822,-0.156989,3.83988,0.221547,
2,0,0,1,0,16900,0.220335,0.220045,-0.632081,9,0.0183424,10,-0.000139086,-3.19923,-0.328339,-0.179692,4.42483,0.220045,
2,0,0,1,0,16900.1,0.218835,0.218548,-0.637647,9,0.0182932,10,-0.000139357,-3.19542,-0.404998,-0.14568,3.614,0.218548,
2,0,0,1,0,16900.2,0.217337,0.217003,-0.642562,9,0.0182439,10,-0.000139438,-3.19209,-0.524566,-0.112474,2.83499,0.217003,
2,0,0,1,0,16900.3,0.215839,0.215492,-0.646218,9,0.0181942,10,-0.000139255,-3.18962,-0.394716,-0.149474,3.77205,0.215492,
2,0,0,1,0,16900.3,0.21434,0.214023,-0.651071,9,0.0181441,10,-0.000139344,-3.18637,-0.343965,-0.171529,4.35685,0.214023,
2,0,0,1,0,16900.4,0.212842,0.212524,-0.660833,9,0.0180935,10,-0.000140443,-3.17991,-0.405866,-0.145368,3.73216,0.212524,
2,0,0,1,0,16900.5,0.211344,0.211035,-0.663946,9,0.0180425,10,-0.000140116,-3.17787,-0.509135,-0.115883,2.99921,0.211035,
2,0,0,1,0,16900.6,0.209846,0.209553,-0.664433,9,0.0179913,10,-0.000139234,-3.17755,-0.501924,-0.117548,3.066,0.209553,
2,0,0,1,0,16900.6,0.208348,0.208031,-0.673294,9,0.0179396,10,-0.000140066,-3.1718,-0.342979,-0.172022,4.53804,0.208031,
2,0,0,1,0,16900.7,0.20685,0.206539,-0.687239,9,0.0178874,10,-0.000141942,-3.16289,-0.415333,-0.142055,3.75941,0.206539,
2,0,0,1,0,16900.8,0.20535,0.205023,-0.684931,9,0.0178345,10,-0.000140426,-3.16435,-0.479195,-0.123123,3.27715,0.205023,
2,0,0,1,0,16900.9,0.203855,0.203492,-0.689301,9,0.0177816,10,-0.000140267,-3.16159,-0.463337,-0.127337,3.43627,0.203492,
2,0,0,1,0,16900.9,0.202355,0.202089,-0.693542,9,0.0177283,10,-0.000140158,-3.15893,-0.412896,-0.142893,3.88299,0.202089,
2,0,0,1,0,16901,0.200857,0.200527,-0.702031,9,0.0176744,10,-0.000140776,-3.15364,-0.351855,-0.167683,4.58616,0.2005274,
2,0,0,1,0,16901.1,0.199359,0.199042,-0.70989,9,0.0176201,10,-0.000141298,-3.14881,-0.415534,-0.141986,3.91725,0.199042,
2,0,0,1,0,16901.2,0.19786,0.197505,-0.715744,9,0.0175654,10,-0.000141363,-3.14524,-0.44943,-0.131277,3.65106,0.197505,
2,0,0,1,0,16901.2,0.196362,0.196099,-0.718367,9,0.0175103,10,-0.000140871,-3.14365,-0.37392,-0.157788,4.43554,0.196099,
2,0,0,1,0,16901.3,0.194864,0.194555,-0.72756,9,0.0174546,10,-0.00014155,-3.13813,-0.307338,-0.191971,5.43618,0.194555,
2,0,0,1,0,16901.4,0.193366,0.193016,-0.732117,9,0.0173984,10,-0.000141311,-3.13542,-0.432472,-0.136425,3.9117,0.193016,
2,0,0,1,0,16901.5,0.191866,0.191528,-0.73891,9,0.0173416,10,-0.000141522,-3.13141,-0.52506,-0.112368,3.2493,0.191528,
2,0,0,1,0,16901.5,0.19037,0.190079,-0.745063,9,0.0172846,10,-0.000141621,-3.12781,-0.38832,-0.151936,4.43382,0.190079,
2,0,0,1,0,16901.6,0.188871,0.188531,-0.752811,9,0.017227,10,-0.000141928,-3.12331,-0.26463,-0.222953,6.55325,0.188531,
2,0,0,1,0,16901.7,0.187373,0.187084,-0.761514,9,0.0171688,10,-0.000142467,-3.11832,-0.323773,-0.182226,5.41347,0.187084,
2,0,0,1,0,16901.8,0.185875,0.185607,-0.766646,9,0.0171101,10,-0.000142295,-3.1154,-0.398622,-0.14801,4.42022,0.185607,
2,0,0,1,0,16901.8,0.184377,0.184037,-0.77181,9,0.0170509,10,-0.000142042,-3.11249,-0.401921,-0.146795,4.43329,0.184037,
2,0,0,1,0,16901.9,0.182878,0.182558,-0.784065,9,0.0169911,10,-0.000143137,-3.10565,-0.287626,-0.205128,6.27932,0.182558,
2,0,0,1,0,16902,0.18138,0.181034,-0.792306,9,0.0169307,10,-0.000143434,-3.10111,-0.305427,-0.193172,5.9687,0.181034,
2,0,0,1,0,16902.1,0.179882,0.179579,-0.801751,9,0.0168694,10,-0.000143978,-3.09596,-0.440806,-0.133846,4.1772,0.179579,
2,0,0,1,0,16902.1,0.178384,0.178094,-0.810543,9,0.0168075,10,-0.000144353,-3.09122,-0.40163,-0.146901,4.65023,0.178094,
2,0,0,1,0,16902.2,0.176886,0.176591,-0.81893,9,0.0167451,10,-0.000144616,-3.08675,-0.303175,-0.194607,6.23776,0.176591,
2,0,0,1,0,16902.3,0.175386,0.175048,-0.832079,9,0.0166818,10,-0.000145654,-3.07984,-0.237399,-0.248527,8.0536,0.175048,
2,0,0,1,0,16902.4,0.173891,0.173586,-0.843458,9,0.0166177,10,-0.000146413,-3.07394,-0.239489,-0.246358,8.07866,0.173586,
2,0,0,1,0,16902.4,0.172391,0.172058,-0.854965,9,0.0165526,10,-0.000147103,-3.06805,-0.228143,-0.25861,8.6019,0.172058,
2,0,0,1,0,16902.5,0.170893,0.170606,-0.865984,9,0.0164869,10,-0.000147743,-3.06249,-0.244865,-0.240949,8.14689,0.170606,
2,0,0,1,0,16902.6,0.169395,0.169066,-0.876971,9,0.0164201,10,-0.000148266,-3.05701,-0.199555,-0.295657,10.1422,0.169066,
2,0,0,1,0,16902.7,0.167897,0.167523,-0.895932,9,0.0163522,10,-0.00015009,-3.04772,-0.215533,-0.27374,9.54081,0.167523,
2,0,0,1,0,16902.7,0.166398,0.166046,-0.907604,9,0.0162832,10,-0.000150704,-3.0421,-0.223369,-0.264137,9.37805,0.166046,
2,0,0,1,0,16902.8,0.1649,0.164602,-0.922289,9,0.0162132,10,-0.00015181,-3.03513,-0.187733,-0.314277,11.3747,0.164602,
2,0,0,1,0,16902.9,0.163402,0.163058,-0.940063,9,0.0161419,10,-0.000153285,-3.02684,-0.168186,-0.350802,12.8818,0.163058,
2,0,0,1,0,16903,0.161904,0.161602,-0.963265,9,0.0160691,10,-0.000155665,-3.01625,-0.155749,-0.378815,14.2293,0.161602,
2,0,0,1,0,16903,0.160406,0.16008,-0.986178,9,0.0159948,10,-0.000157867,-3.00604,-0.152314,-0.387358,14.8534,0.16008,
2,0,0,1,0,16903.1,0.158906,0.158579,-1.00405,9,0.0159187,10,-0.000159221,-2.99824,-0.138529,-0.425904,16.7633,0.158579,
2,0,0,1,0,16903.2,0.157411,0.157137,-1.03222,9,0.0158411,10,-0.0001622,-2.98623,-0.120377,-0.490128,19.8127,0.157137,
2,0,0,1,0,16903.3,0.155911,0.155557,-1.05978,9,0.015761,10,-0.000164857,-2.97478,-0.11969,-0.49294,20.4505,0.155557,
2,0,0,1,0,16903.3,0.154413,0.154083,-1.09413,9,0.0156786,10,-0.000168587,-2.96093,-0.114046,-0.517336,22.0876,0.154083,
2,0,0,1,0,16903.4,0.152915,0.152615,-1.12814,9,0.0155939,10,-0.000172172,-2.94764,-0.115818,-0.509418,22.4977,0.152615,
2,0,0,1,0,16903.5,0.151417,0.151143,-1.16735,9,0.0155066,10,-0.000176437,-2.9328,-0.101152,-0.583282,26.6501,0.151143,
2,0,0,1,0,16903.6,0.149918,0.149577,-1.21288,9,0.0154161,10,-0.000181419,-2.91618,-0.0891909,-0.661502,31.2772,0.149577,
2,0,0,1,0,16903.6,0.14842,0.148055,-1.25782,9,0.0153221,10,-0.000186228,-2.90038,-0.0836828,-0.705044,34.7332,0.148055,
2,0,0,1,0,16903.7,0.146922,0.146624,-1.31495,9,0.0152243,10,-0.000192803,-2.88109,-0.0825769,-0.714485,36.666,0.146624,
2,0,0,1,0,16903.8,0.145424,0.145141,-1.36801,9,0.0151225,10,-0.000198555,-2.86391,-0.078233,-0.754158,40.4449,0.145141,
2,0,0,1,0,16903.9,0.143926,0.143607,-1.43126,9,0.015016,10,-0.000205539,-2.84428,-0.0709479,-0.831597,46.6221,0.143607,
2,0,0,1,0,16903.9,0.142426,0.142083,-1.50609,9,0.0149043,10,-0.000213989,-2.82215,-0.0720304,-0.819099,48.1118,0.142083,
2,0,0,1,0,16904,0.140931,0.140602,-1.57845,9,0.0147875,10,-0.000221934,-2.80177,-0.0736504,-0.801082,49.343,0.140602,
2,0,0,1,0,16904.1,0.139431,0.139108,-1.64662,9,0.0146649,10,-0.000229058,-2.78341,-0.0733172,-0.804723,51.9306,0.139108,
2,0,0,1,0,16904.2,0.137933,0.137594,-1.73492,9,0.0145366,10,-0.000238714,-2.76072,-0.073868,-0.798722,54.0054,0.137594,
2,0,0,1,0,16904.2,0.136435,0.136078,-1.81499,9,0.0144023,10,-0.000246979,-2.74113,-0.0780739,-0.755694,53.4212,0.136078,
2,0,0,1,0,16904.3,0.134936,0.134624,-1.89456,9,0.0142618,10,-0.000255054,-2.72249,-0.0851196,-0.693142,51.0484,0.134624,
2,0,0,1,0,16904.4,0.133438,0.133115,-1.97037,9,0.0141154,10,-0.000262286,-2.70545,-0.0904581,-0.652236,50.1206,0.133115,
2,0,0,1,0,16904.5,0.13194,0.131633,-2.04925,9,0.0139634,10,-0.000269748,-2.68841,-0.0941779,-0.626474,50.0074,0.131633,
2,0,0,1,0,16904.5,0.130442,0.130131,-2.1203,9,0.0138058,10,-0.000275918,-2.6736,-0.104937,-0.562243,46.4103,0.130131,
2,0,0,1,0,16904.6,0.128942,0.128596,-2.18967,9,0.0136426,10,-0.000281582,-2.65962,-0.119983,-0.491737,41.8359,0.128596,
2,0,0,1,0,16904.7,0.127446,0.12713,-2.24539,9,0.0134751,10,-0.000285457,-2.64871,-0.137204,-0.430015,37.597,0.12713,
2,0,0,1,0,16904.8,0.125947,0.1256,-2.30023,9,0.0133031,10,-0.000288909,-2.63823,-0.157921,-0.373603,33.441,0.1256,
2,0,0,1,0,16904.8,0.124449,0.124101,-2.35026,9,0.0131275,10,-0.000291669,-2.62888,-0.168101,-0.35098,32.0784,0.1241006,
2,0,0,1,0,16904.9,0.122951,0.122594,-2.38934,9,0.0129485,10,-0.000292917,-2.62172,-0.208841,-0.282511,26.3089,0.122594,
2,0,0,1,0,16905,0.121453,0.121148,-2.42598,9,0.0127664,10,-0.000293902,-2.61511,-0.258279,-0.228435,21.5729,0.121148,
2,0,0,1,0,16905.1,0.119955,0.119636,-2.45135,9,0.0125821,10,-0.00029327,-2.6106,-0.352157,-0.167539,16.0203,0.119636,
2,0,0,1,0,16905.1,0.118456,0.118156,-2.4778,9,0.0123959,10,-0.000292768,-2.60593,-0.411942,-0.143224,13.8144,0.118156,
2,0,0,1,0,16905.2,0.116958,0.116661,-2.49662,9,0.0122081,10,-0.000291258,-2.60265,-0.599145,-0.0984737,9.57068,0.116661,
2,0,0,1,0,16905.3,0.11546,0.115179,-2.50599,9,0.0120191,10,-0.000288638,-2.60102,-1.30089,-0.0453537,4.42082,0.115179,
2,0,0,1,0,16905.4,0.113962,0.113665,-2.50443,9,0.0118296,10,-0.000284667,-2.60129,-5.11631,-0.0115318,1.12849,0.113665,
2,0,0,1,0,16905.4,0.112462,0.112126,-2.50507,9,0.0116401,10,-0.000280883,-2.60118,2.56338,0.0230165,-2.25196,0.112126,
2,0,0,1,0,16905.5,0.110967,0.110604,-2.50604,9,0.011451,10,-0.000277178,-2.60101,1.31138,0.0449909,-4.39002,0.1106042,
2,0,0,1,0,16905.6,0.109467,0.109133,-2.49535,9,0.0112618,10,-0.000272324,-2.60287,0.702524,0.0839829,-8.16406,0.109133,
2,0,0,1,0,16905.7,0.107969,0.107689,-2.48203,9,0.0110738,10,-0.000267286,-2.60519,0.590664,0.0998875,-9.67557,0.107689,
2,0,0,1,0,16905.7,0.106471,0.106159,-2.46536,9,0.0108871,10,-0.000261722,-2.60812,0.517342,0.114045,-10.9896,0.106159,
2,0,0,1,0,16905.8,0.104973,0.104665,-2.44844,9,0.0107015,10,-0.000256267,-2.61111,0.451422,0.130698,-12.468,0.104665,
2,0,0,1,0,16905.9,0.103474,0.103177,-2.43136,9,0.0105171,10,-0.00025086,-2.61415,0.369488,0.159681,-15.1168,0.103177,
2,0,0,1,0,16906,0.101976,0.101707,-2.40809,9,0.0103344,10,-0.000244921,-2.61833,0.319424,0.184707,-17.3413,0.101707,
2,0,0,1,0,16906,0.100478,0.100207,-2.38034,9,0.0101538,10,-0.000238526,-2.62336,0.325301,0.181371,-16.8636,0.100207,
2,0,0,1,0,16906.1,0.0989799,0.0986623,-2.36088,9,0.00997492,10,-0.00023293,-2.62693,0.350494,0.168334,-15.46,0.0986623,
2,0,0,1,0,16906.2,0.0974817,0.0971706,-2.33308,9,0.00979778,10,-0.000226706,-2.63207,0.325189,0.181433,-16.5213,0.0971706,
2,0,0,1,0,16906.3,0.0959821,0.0956692,-2.30883,9,0.00962226,10,-0.000220884,-2.63661,0.307937,0.191598,-17.2566,0.0956692,
2,0,0,1,0,16906.3,0.0944866,0.0941581,-2.27487,9,0.00944927,10,-0.000214197,-2.64304,0.305483,0.193137,-17.2091,0.0941581,
2,0,0,1,0,16906.4,0.0929871,0.0926766,-2.25247,9,0.00927777,10,-0.000208752,-2.64734,0.384268,0.153539,-13.5322,0.09267661,
2,0,0,1,0,16906.5,0.0914889,0.0911485,-2.23826,9,0.00910808,10,-0.000204014,-2.65009,0.358385,0.164628,-14.3489,0.0911485,
2,0,0,1,0,16906.6,0.0899907,0.0897298,-2.21438,9,0.00893998,10,-0.000198696,-2.65475,0.332862,0.177251,-15.285,0.0897298,
2,0,0,1,0,16906.6,0.0884925,0.0882238,-2.18829,9,0.00877354,10,-0.000193059,-2.6599,0.357325,0.165116,-14.1094,0.0882238,
2,0,0,1,0,16906.7,0.0869943,0.0866817,-2.168,9,0.00860888,10,-0.000187926,-2.66394,0.389105,0.15163,-12.873,0.0866817,
2,0,0,1,0,16906.8,0.0854961,0.085171,-2.15271,9,0.00844542,10,-0.000183348,-2.66701,0.402553,0.146565,-12.3229,0.085171,
2,0,0,1,0,16906.9,0.083998,0.0837012,-2.13761,9,0.0082832,10,-0.000178921,-2.67007,0.396339,0.148862,-12.4058,0.0837012,
2,0,0,1,0,16906.9,0.0824998,0.082154,-2.12182,9,0.00812228,10,-0.000174316,-2.67329,0.433413,0.136129,-11.2762,0.082154,
2,0,0,1,0,16907,0.081002,0.0807159,-2.102,9,0.00796283,10,-0.000169664,-2.67737,0.537685,0.10973,-9.02118,0.08071585,
2,0,0,1,0,16907.1,0.0795025,0.0791613,-2.09058,9,0.0078041,10,-0.000165493,-2.67973,0.571241,0.103284,-8.4262,0.0791613,
2,0,0,1,0,16907.2,0.078007,0.0776503,-2.07922,9,0.00764674,10,-0.000161452,-2.6821,0.576508,0.10234,-8.29312,0.0776503,
2,0,0,1,0,16907.2,0.076507,0.0761352,-2.06398,9,0.00749,10,-0.000157141,-2.68529,0.500887,0.117791,-9.47549,0.0761352,
2,0,0,1,0,16907.3,0.0750088,0.0747048,-2.04451,9,0.00733468,10,-0.000152735,-2.68941,0.504633,0.116917,-9.35753,0.0747048,
2,0,0,1,0,16907.4,0.0735106,0.0731968,-2.03465,9,0.00718026,10,-0.00014893,-2.69151,0.641802,0.0919286,-7.29658,0.0731968,
2,0,0,1,0,16907.5,0.0720124,0.0717034,-2.02194,9,0.00702667,10,-0.00014498,-2.69423,0.575769,0.102472,-8.09259,0.0717034,
2,0,0,1,0,16907.5,0.0705142,0.0702004,-2.01131,9,0.00687402,10,-0.000141195,-2.69652,0.467969,0.126077,-9.90268,0.0702004,
2,0,0,1,0,16907.6,0.0690161,0.0686944,-1.99279,9,0.00672244,10,-0.000136893,-2.70054,0.586227,0.100644,-7.85666,0.06869442,
2,0,0,1,0,16907.7,0.0675179,0.0671985,-1.98726,9,0.00657182,10,-0.000133541,-2.70174,0.659746,0.0894284,-6.9365,0.06719853,
2,0,0,1,0,16907.8,0.0660179,0.0657257,-1.98223,9,0.00642176,10,-0.000130283,-2.70285,0.669431,0.0881345,-6.7939,0.0657257,
2,0,0,1,0,16907.8,0.0645224,0.0642026,-1.96558,9,0.00627284,10,-0.000126196,-2.70651,0.498571,0.118338,-9.0567,0.0642026,
2,0,0,1,0,16907.9,0.0630229,0.0627018,-1.94661,9,0.00612448,10,-0.000122056,-2.71072,0.492002,0.119918,-9.12982,0.0627018,
2,0,0,1,0,16908,0.0615251,0.0611792,-1.9373,9,0.00597749,10,-0.000118522,-2.7128,0.575878,0.102452,-7.76089,0.0611792,
2,0,0,1,0,16908.1,0.0600269,0.0597191,-1.92247,9,0.00583144,10,-0.000114808,-2.71614,0.575771,0.102471,-7.70414,0.0597191,
2,0,0,1,0,16908.1,0.0585287,0.0582197,-1.91207,9,0.00568613,10,-0.00011132,-2.7185,0.430858,0.136936,-10.2073,0.0582197,
2,0,0,1,0,16908.2,0.0570305,0.0567227,-1.89868,9,0.00554169,10,-0.000107698,-2.72155,0.456368,0.129282,-9.58848,0.05672266,
2,0,0,1,0,16908.3,0.0555323,0.0552314,-1.88496,9,0.00539857,10,-0.000104109,-2.7247,0.507031,0.116364,-8.58672,0.05523143,
2,0,0,1,0,16908.4,0.0540342,0.0537233,-1.87761,9,0.00525622,10,-0.000100871,-2.7264,0.615847,0.095803,-7.01151,0.0537233,
2,0,0,1,0,16908.4,0.052536,0.052218,-1.86687,9,0.00511455,10,-9.74843e-05,-2.72889,0.530702,0.111173,-8.08468,0.052218,
2,0,0,1,0,16908.5,0.0510378,0.0507088,-1.85207,9,0.00497386,10,-9.39161e-05,-2.73234,0.397273,0.148512,-10.7226,0.0507088,
2,0,0,1,0,16908.6,0.0495382,0.0492119,-1.8345,9,0.00483421,10,-9.02792e-05,-2.73648,0.449864,0.131151,-9.40548,0.0492119,
2,0,0,1,0,16908.7,0.0480427,0.0476791,-1.82477,9,0.00469606,10,-8.70032e-05,-2.73879,0.555972,0.10612,-7.54366,0.0476791,
2,0,0,1,0,16908.7,0.0465432,0.0462258,-1.80793,9,0.00455835,10,-8.35732e-05,-2.74282,0.496153,0.118915,-8.38902,0.0462258,
2,0,0,1,0,16908.8,0.045045,0.0447292,-1.79532,9,0.0044218,10,-8.03034e-05,-2.74586,0.43025,0.13713,-9.60217,0.0447292,
2,0,0,1,0,16908.9,0.0435468,0.0432522,-1.77586,9,0.00428643,10,-7.681e-05,-2.75059,0.376632,0.156652,-10.8953,0.0432522,
2,0,0,1,0,16909,0.0420486,0.0417597,-1.76542,9,0.00415231,10,-7.37235e-05,-2.75315,0.435555,0.135459,-9.34256,0.0417597,
2,0,0,1,0,16909,0.0405504,0.0402279,-1.75387,9,0.00401913,10,-7.05545e-05,-2.756,0.46441,0.127043,-8.67089,0.0402279,
2,0,0,1,0,16909.1,0.0390523,0.0387336,-1.73896,9,0.00388681,10,-6.73561e-05,-2.75971,0.370329,0.159318,-10.7789,0.0387336,
2,0,0,1,0,16909.2,0.0375541,0.0371957,-1.7229,9,0.00375576,10,-6.40844e-05,-2.76374,0.366933,0.160792,-10.8136,0.0371957,
2,0,0,1,0,16909.3,0.0360559,0.0357212,-1.70479,9,0.00362613,10,-6.08971e-05,-2.76833,0.353311,0.166992,-11.1327,0.0357212,
2,0,0,1,0,16909.3,0.0345577,0.034241,-1.68908,9,0.00349742,10,-5.78359e-05,-2.77235,0.42683,0.138228,-9.11903,0.034241,
2,0,0,1,0,16909.4,0.0330582,0.032765,-1.67745,9,0.00336956,10,-5.49618e-05,-2.77535,0.337398,0.174868,-11.4276,0.032765,
2,0,0,1,0,16909.5,0.0315626,0.0312392,-1.66143,9,0.00324323,10,-5.19019e-05,-2.77952,0.390057,0.15126,-9.81274,0.0312392,
2,0,0,1,0,16909.6,0.0300631,0.0297287,-1.64532,9,0.00311794,10,-4.89133e-05,-2.78375,0.409471,0.144088,-9.25646,0.0297287,
2,0,0,1,0,16909.6,0.0285649,0.0282041,-1.63119,9,0.00299369,10,-4.60061e-05,-2.7875,0.482822,0.122198,-7.77409,0.0282041,
2,0,0,1,0,16909.7,0.0270667,0.026732,-1.6181,9,0.00287031,10,-4.32549e-05,-2.791,0.411481,0.143385,-9.04793,0.02673197,
2,0,0,1,0,16909.8,0.0255685,0.0252455,-1.60646,9,0.00274808,10,-4.0556e-05,-2.79413,0.345768,0.170635,-10.7067,0.0252455,
2,0,0,1,0,16909.9,0.0240704,0.023747,-1.58798,9,0.00262707,10,-3.77097e-05,-2.79916,0.428161,0.137799,-8.56782,0.023747,
2,0,0,1,0,16909.9,0.0225722,0.0222496,-1.5771,9,0.00250695,10,-3.50898e-05,-2.80214,0.483196,0.122104,-7.51808,0.0222496,
2,0,0,1,0,16910,0.021074,0.0207162,-1.56948,9,0.00238763,10,-3.25137e-05,-2.80424,0.452054,0.130515,-7.97708,0.0207162,
2,0,0,1,0,16910.1,0.0195758,0.019261,-1.55397,9,0.0022692,10,-2.99311e-05,-2.80856,0.451705,0.130616,-7.92977,0.019261,
2,0,0,1,0,16910.2,0.018078,0.017767,-1.53822,9,0.00215178,10,-2.73296e-05,-2.81298,0.502916,0.117316,-7.06971,0.017767,
2,0,0,1,0,16910.2,0.0165785,0.0162835,-1.53262,9,0.00203499,10,-2.49565e-05,-2.81457,0.579939,0.101735,-6.09267,0.0162835,
2,0,0,1,0,16910.3,0.015083,0.0147739,-1.52576,9,0.00191914,10,-2.25413e-05,-2.81651,0.783353,0.0753173,-4.48146,0.0147739,
2,0,0,1,0,16910.4,0.013583,0.0132393,-1.51582,9,0.00180357,10,-2.00684e-05,-2.81935,0.52142,0.113153,-6.68533,0.0132393,
2,0,0,1,0,16910.5,0.0120848,0.0117454,-1.50446,9,0.00168888,10,-1.76705e-05,-2.82262,0.57881,0.101933,-6.00097,0.0117454,
2,0,0,1,0,16910.5,0.0105866,0.01025,-1.49714,9,0.00157498,10,-1.53457e-05,-2.82474,0.722475,0.0816637,-4.78228,0.01025,
2,0,0,1,0,16910.6,0.00908845,0.00877747,-1.49445,9,0.00146142,10,-1.31175e-05,-2.82552,1.1681,0.0505094,-2.9459,0.00877747,
2,0,0,1,0,16910.7,0.00759027,0.00724714,-1.48909,9,0.00134832,10,-1.07917e-05,-2.82708,0.863565,0.0683215,-3.96764,0.00724714,
2,0,0,1,0,16910.8,0.00609208,0.00580821,-1.48528,9,0.00123556,10,-8.62683e-06,-2.82819,0.954775,0.0617946,-3.57658,0.00580821,
2,0,0,1,0,16910.8,0.00459389,0.00426654,-1.4786,9,0.00112324,10,-6.3085e-06,-2.83015,1.86391,0.0316539,-1.828,0.00426654,
2,0,0,1,0,16910.9,0.00309391,0.00276401,-1.47794,9,0.00101097,10,-4.08505e-06,-2.83034,-1.26084,-0.0467943,2.70569,0.00276401,
2,0,0,1,0,16911,0.0015984,0.00123481,-1.49552,9,0.000897892,10,-1.84668e-06,-2.82521, , , ,0.00123481,
2,0,0,1,0,16911.1,0.000199195,-0.000172625,-1.47948,9,0.000792527,10,2.55395e-07,-2.82989, , , ,-0.000172625,