File: Figure_codes/Fig_3-5/rawdata_trumpetplot_data/after 10th/20221101_1-115_003_TrumpetPlot_ParaChange_from10_every3_13_CV_C01_14.csv
mode,ox/red,error,control changes,counter inc.,time/s,control/V,Ewe/V,<I>/mA,cycle number,(Q-Qo)/C,I Range,P/W,log(|I|),Tafel slope mV/dec,alpha_eff,dI/d(E-IR),E-IR/V,
2,1,0,1,0,28779.7,2.44065e-05,-0.000268062,18.8016,15,0.0000000E+000,10,-5.03998e-06,-1.72581, , , ,-0.000268062,
2,1,0,1,0,28779.7,0.00266289,0.002296,20.0291,15,6.06885e-05,10,4.59868e-05,-1.69834, , , ,0.002296,
2,1,0,1,0,28779.7,0.00586735,0.00555357,21.1025,15,0.000143134,10,0.000117194,-1.67567, , , ,0.00555357,
2,1,0,1,0,28779.7,0.00906349,0.00868919,22.0098,15,0.000229464,10,0.000191248,-1.65738,0.180286,0.327258,277.918,0.00868919,
2,1,0,1,0,28779.7,0.0122624,0.0118895,22.827,15,0.000319243,10,0.000271402,-1.64155,0.20828,0.283273,250.521,0.0118895,
2,1,0,1,0,28779.7,0.0154641,0.0151025,23.5882,15,0.000412177,10,0.000356242,-1.6273,0.232286,0.253997,232.638,0.01510253,
2,1,0,1,0,28779.7,0.0186602,0.0182933,24.2941,15,0.000508053,10,0.000444418,-1.6145,0.255597,0.230832,217.988,0.0182933,
2,1,0,1,0,28779.7,0.0218675,0.0215021,24.9906,15,0.000606707,10,0.000537349,-1.60222,0.277373,0.21271,206.585,0.0215021,
2,1,0,1,0,28779.7,0.0250636,0.0247109,25.6219,15,0.000708021,10,0.00063314,-1.59139,0.299421,0.197047,196.384,0.0247109,
2,1,0,1,0,28779.7,0.0282597,0.0278889,26.2297,15,0.000811808,10,0.000731518,-1.58121,0.322271,0.183075,186.97,0.0278889,
2,1,0,1,0,28779.7,0.031467,0.0311666,26.8222,15,0.000917995,10,0.000835957,-1.57151,0.340203,0.173426,181.134,0.03116663,
2,1,0,1,0,28779.7,0.0346631,0.0342969,27.3828,15,0.00102645,10,0.000939148,-1.56252,0.359146,0.164279,175.266,0.0342969,
2,1,0,1,0,28779.7,0.0378704,0.0374867,27.936,15,0.00113714,10,0.00104723,-1.55384,0.378526,0.155868,169.646,0.0374867,
2,1,0,1,0,28779.7,0.0410665,0.0407007,28.4752,15,0.00125001,10,0.00115896,-1.54553,0.395724,0.149094,165.409,0.0407007,
2,1,0,1,0,28779.7,0.0442626,0.0439021,28.9827,15,0.00136499,10,0.0012724,-1.53786,0.41607,0.141803,160.205,0.04390211,
2,1,0,1,0,28779.7,0.0474671,0.0470854,29.4982,15,0.00148198,10,0.00138893,-1.5302,0.430773,0.136963,157.535,0.0470854,
2,1,0,1,0,28779.7,0.0506632,0.0502783,29.9853,15,0.00160101,10,0.00150761,-1.52309,0.440139,0.134049,156.809,0.05027834,
2,1,0,1,0,28779.7,0.0538621,0.0535009,30.4917,15,0.00172201,10,0.00163133,-1.51582,0.4551,0.129642,154.186,0.0535009,
2,1,0,1,0,28779.8,0.0570638,0.0566885,30.9877,15,0.00184504,10,0.00175665,-1.50881,0.461435,0.127862,154.513,0.0566885,
2,1,0,1,0,28779.8,0.06026,0.0598888,31.4723,15,0.00197002,10,0.00188484,-1.50207,0.473118,0.124705,153.128,0.0598888,
2,1,0,1,0,28779.8,0.0634672,0.0630859,31.9643,15,0.00209696,10,0.0020165,-1.49534,0.479827,0.122961,153.367,0.0630859,
2,1,0,1,0,28779.8,0.0666633,0.0663297,32.4561,15,0.00222584,10,0.0021528,-1.4887,0.48157,0.122516,155.192,0.0663297,
2,1,0,1,0,28779.8,0.0698595,0.0694918,32.9513,15,0.00235671,10,0.00228985,-1.48213,0.490371,0.120317,154.697,0.0694918,
2,1,0,1,0,28779.8,0.0730667,0.0727155,33.4629,15,0.00248961,10,0.00243327,-1.47544,0.489689,0.120485,157.29,0.0727155,
2,1,0,1,0,28779.8,0.0762629,0.0758956,33.9459,15,0.00262449,10,0.00257635,-1.46921,0.498187,0.118429,156.905,0.07589563,
2,1,0,1,0,28779.8,0.0794701,0.0791055,34.4656,15,0.00276135,10,0.00272642,-1.46261,0.501845,0.117566,158.127,0.0791055,
2,1,0,1,0,28779.8,0.0826662,0.0823206,34.9642,15,0.00290027,10,0.00287828,-1.45638,0.499992,0.118002,161.028,0.0823206,
2,1,0,1,0,28779.8,0.0858624,0.0854976,35.4841,15,0.0030412,10,0.0030338,-1.44997,0.506192,0.116557,161.435,0.08549761,
2,1,0,1,0,28779.8,0.0890668,0.0886937,36.0068,15,0.00318423,10,0.00319357,-1.44362,0.507483,0.11626,163.333,0.0886937,
2,1,0,1,0,28779.8,0.092263,0.091912,36.533,15,0.00332936,10,0.00335782,-1.43731,0.51344,0.114911,163.792,0.091912,
2,1,0,1,0,28779.8,0.0954674,0.0951038,37.0521,15,0.00347657,10,0.0035238,-1.43119,0.518917,0.113698,164.393,0.09510383,
2,1,0,1,0,28779.8,0.0986636,0.0983063,37.582,15,0.0036259,10,0.00369455,-1.42502,0.520797,0.113288,166.187,0.0983063,
2,1,0,1,0,28779.8,0.10186,0.101482,38.1091,15,0.00377734,10,0.00386739,-1.41897,0.524219,0.112548,167.409,0.101482,
2,1,0,1,0,28779.8,0.105067,0.104729,38.6631,15,0.00393094,10,0.00404915,-1.4127,0.529017,0.111528,168.21,0.104729,
2,1,0,1,0,28779.8,0.108263,0.107901,39.1945,15,0.00408672,10,0.00422912,-1.40678,0.533016,0.110691,169.259,0.107901,
2,1,0,1,0,28779.8,0.111465,0.111077,39.7302,15,0.00424461,10,0.0044131,-1.40088,0.530633,0.111188,172.48,0.111077,
2,1,0,1,0,28779.8,0.114666,0.114266,40.2729,15,0.00440469,10,0.00460185,-1.39499,0.532437,0.110811,174.265,0.114266,
2,1,0,1,0,28779.8,0.117863,0.117428,40.8533,15,0.004567,10,0.0047973,-1.38877,0.536645,0.109942,175.239,0.117428,
2,1,0,1,0,28779.8,0.12107,0.120661,41.4181,15,0.0047316,10,0.00499753,-1.38281,0.543318,0.108592,175.399,0.1206607,
2,1,0,1,0,28779.8,0.124266,0.123879,41.9736,15,0.00489843,10,0.00519965,-1.37702,0.553619,0.106571,174.542,0.123879,
2,1,0,1,0,28779.8,0.127462,0.127089,42.522,15,0.00506747,10,0.00540407,-1.37139,0.560791,0.105209,174.59,0.127089,
2,1,0,1,0,28779.8,0.130667,0.13029,43.0984,15,0.00523877,10,0.0056153,-1.36554,0.544986,0.10826,182.196,0.13029,
2,1,0,1,0,28779.8,0.133863,0.133407,43.6434,15,0.00541232,10,0.00582233,-1.36008,0.534843,0.110313,188.185,0.133407,
2,1,0,1,0,28779.9,0.137067,0.136608,44.2928,15,0.00558821,10,0.00605076,-1.35367,0.528176,0.111705,193.244,0.136608,
2,1,0,1,0,28779.9,0.140263,0.139848,44.923,15,0.00576672,10,0.00628238,-1.34753,0.516436,0.114245,200.305,0.139848,
2,1,0,1,0,28779.9,0.143459,0.143126,45.5789,15,0.00594779,10,0.00652355,-1.34124,0.520814,0.113284,201.514,0.143126,
2,1,0,1,0,28779.9,0.146667,0.146332,46.2324,15,0.00613149,10,0.00676529,-1.33505,0.52172,0.113087,203.998,0.146332,
2,1,0,1,0,28779.9,0.149863,0.149504,46.8915,15,0.00631781,10,0.00701045,-1.32891,0.524931,0.112396,205.643,0.149504,
2,1,0,1,0,28779.9,0.153064,0.152704,47.5457,15,0.00650674,10,0.00726042,-1.32289,0.533585,0.110573,205.111,0.152704,
2,1,0,1,0,28779.9,0.156266,0.155913,48.2083,15,0.00669832,10,0.0075163,-1.31688,0.542691,0.108717,204.465,0.155913,
2,1,0,1,0,28779.9,0.159462,0.159113,48.854,15,0.00689252,10,0.00777331,-1.3111,0.555297,0.106249,202.486,0.159113,
2,1,0,1,0,28779.9,0.16267,0.162322,49.5123,15,0.00708929,10,0.00803694,-1.30529,0.565888,0.104261,201.342,0.162322,
2,1,0,1,0,28779.9,0.165866,0.165523,50.1414,15,0.00728867,10,0.00829957,-1.2998,0.583862,0.101051,197.607,0.165523,
2,1,0,1,0,28779.9,0.169062,0.168678,50.7785,15,0.00749056,10,0.00856521,-1.29432,0.61199,0.0964068,190.842,0.168678,
2,1,0,1,0,28779.9,0.172266,0.171902,51.3811,15,0.00769497,10,0.00883249,-1.2892,0.637271,0.0925822,185.41,0.171902,
2,1,0,1,0,28779.9,0.175462,0.175108,51.9525,15,0.00790169,10,0.00909731,-1.28439,0.678777,0.086921,176.062,0.175108,
2,1,0,1,0,28779.9,0.178667,0.178277,52.506,15,0.00811068,10,0.00936061,-1.27979,0.722958,0.0816091,167.03,0.178277,
2,1,0,1,0,28779.9,0.181863,0.181525,53.0403,15,0.00832184,10,0.00962814,-1.27539,0.774026,0.0762248,157.531,0.181525,
2,1,0,1,0,28779.9,0.185059,0.184712,53.5208,15,0.00853504,10,0.00988596,-1.27148,0.855394,0.0689741,143.803,0.184712,
2,1,0,1,0,28779.9,0.188266,0.187915,53.9699,15,0.00875011,10,0.0101417,-1.26785,0.969961,0.0608272,127.846,0.187915,
2,1,0,1,0,28779.9,0.191463,0.191088,54.3483,15,0.00896681,10,0.0103853,-1.26481,1.13433,0.0520131,110.064,0.191088,
2,1,0,1,0,28779.9,0.194664,0.194332,54.6777,15,0.00918491,10,0.0106257,-1.26219,1.41095,0.0418157,89.0007,0.194332,
2,1,0,1,0,28779.9,0.197866,0.197492,54.9275,15,0.00940418,10,0.0108478,-1.26021,1.89988,0.0310546,66.3829,0.197492,
2,1,0,1,0,28779.9,0.201062,0.200701,55.1079,15,0.00962429,10,0.0110602,-1.25879,3.09314,0.0190744,40.8978,0.200701,
2,1,0,1,0,28779.9,0.204269,0.203915,55.1998,15,0.00984495,10,0.0112561,-1.25806,9.82576,0.00600462,12.8912,0.203915,
2,1,0,1,0,28779.9,0.207465,0.20715,55.2019,15,0.0100658,10,0.0114351,-1.25805,-8.88243,-0.00664233,-14.2618,0.20715,
2,1,0,1,0,28779.9,0.210662,0.210342,55.0931,15,0.0102864,10,0.0115884,-1.2589,-2.87319,-0.0205346,-44.011,0.210342,
2,1,0,1,0,28779.9,0.213866,0.213545,54.9247,15,0.0105064,10,0.0117289,-1.26023,-1.73089,-0.0340865,-72.8127,0.213545,
2,1,0,1,0,28780,0.217062,0.216725,54.636,15,0.0107255,10,0.011841,-1.26252,-1.23203,-0.0478885,-101.743,0.216725,
2,1,0,1,0,28780,0.220267,0.219953,54.2697,15,0.0109433,10,0.0119368,-1.26544,-0.939699,-0.062786,-132.5,0.219953,
2,1,0,1,0,28780,0.223463,0.223151,53.7899,15,0.0111594,10,0.0120033,-1.2693,-0.777844,-0.0758506,-158.691,0.223151,
2,1,0,1,0,28780,0.226659,0.226316,53.2325,15,0.0113734,10,0.0120474,-1.27382,-0.652102,-0.0904766,-187.363,0.226316,
2,1,0,1,0,28780,0.229866,0.2296,52.5928,15,0.0115851,10,0.0120753,-1.27907,-0.568897,-0.103709,-212.181,0.2296,
2,1,0,1,0,28780,0.233062,0.232747,51.8726,15,0.0117939,10,0.0120732,-1.28506,-0.507024,-0.116365,-234.865,0.232747,
2,1,0,1,0,28780,0.236264,0.235924,51.0798,15,0.0119998,10,0.0120509,-1.29175,-0.45556,-0.129511,-257.456,0.235924,
2,1,0,1,0,28780,0.239466,0.239101,50.2299,15,0.0122024,10,0.01201,-1.29904,-0.425063,-0.138803,-271.476,0.239101,
2,1,0,1,0,28780,0.242662,0.242326,49.3164,15,0.0124014,10,0.0119507,-1.30701,-0.396737,-0.148713,-285.705,0.242326,
2,1,0,1,0,28780,0.245869,0.245546,48.3979,15,0.0125967,10,0.0118839,-1.31517,-0.376364,-0.156763,-295.548,0.245546,
2,1,0,1,0,28780,0.249065,0.248733,47.42,15,0.0127883,10,0.0117949,-1.32404,-0.360565,-0.163632,-302.417,0.248733,
2,1,0,1,0,28780,0.252261,0.251938,46.4359,15,0.0129759,10,0.011699,-1.33315,-0.348176,-0.169454,-306.876,0.251938,
2,1,0,1,0,28780,0.255466,0.255118,45.448,15,0.0131596,10,0.0115946,-1.34249,-0.342535,-0.172245,-305.4,0.2551181,
2,1,0,1,0,28780,0.258662,0.258366,44.4637,15,0.0133393,10,0.0114879,-1.35199,-0.33728,-0.174929,-303.557,0.258366,
2,1,0,1,0,28780,0.261866,0.261571,43.4995,15,0.0135151,10,0.0113782,-1.36152,-0.334848,-0.176199,-299.145,0.261571,
2,1,0,1,0,28780,0.265063,0.264739,42.55,15,0.0136871,10,0.0112647,-1.3711,-0.336737,-0.175211,-291.104,0.264739,
2,1,0,1,0,28780,0.268259,0.267937,41.6132,15,0.0138554,10,0.0111497,-1.38077,-0.33652,-0.175324,-285,0.267937,
2,1,0,1,0,28780,0.271466,0.271176,40.7347,15,0.01402,10,0.0110463,-1.39004,-0.343722,-0.171651,-273.137,0.271176,
2,1,0,1,0,28780,0.274662,0.274346,39.8584,15,0.0141811,10,0.010935,-1.39948,-0.348647,-0.169225,-263.548,0.2743465,
2,1,0,1,0,28780,0.277869,0.277568,39.046,15,0.0143388,10,0.0108379,-1.40842,-0.355091,-0.166155,-253.482,0.277568,
2,1,0,1,0,28780,0.281065,0.280718,38.2448,15,0.0144933,10,0.010736,-1.41743,-0.366874,-0.160818,-240.334,0.280718,
2,1,0,1,0,28780,0.284262,0.283972,37.4912,15,0.0146447,10,0.0106464,-1.42607,-0.372814,-0.158256,-231.878,0.283972,
2,1,0,1,0,28780,0.287469,0.287203,36.7686,15,0.0147931,10,0.01056,-1.43452,-0.387142,-0.152399,-218.98,0.287203,
2,1,0,1,0,28780,0.290665,0.290358,36.0804,15,0.0149387,10,0.0104762,-1.44273,-0.397884,-0.148284,-209.149,0.290358,
2,1,0,1,0,28780,0.293861,0.293585,35.4272,15,0.0150817,10,0.0104009,-1.45066,-0.411615,-0.143338,-198.865,0.293585,
2,1,0,1,0,28780.1,0.297066,0.296728,34.8231,15,0.0152221,10,0.010333,-1.45813,-0.411759,-0.143288,-196.642,0.296728,
2,1,0,1,0,28780.1,0.299638,0.299327,34.3576,15,0.0153328,10,0.0102842,-1.46398,-0.118504,-0.497872,-654.855,0.299327,
2,1,0,1,0,28780.1,0.300012,0.299594,34.2641,15,0.01535,10,0.0102653,-1.46516,0.0100462,5.87286,6997.88,0.299594,
2,1,0,1,0,28780.1,0.298983,0.298766,32.0349,15,0.0153922,10,0.00957094,-1.49438,0.0376731,1.5661,1707.62,0.298766,
2,1,0,1,0,28780.1,0.295787,0.295555,26.6085,15,0.0155084,10,0.00786425,-1.57498,0.0401538,1.46935,1476.72,0.295555,
2,1,0,1,0,28780.1,0.292579,0.292309,22.3738,15,0.0156057,10,0.00654007,-1.65026,0.0411879,1.43246,1278.78,0.292309,
2,1,0,1,0,28780.1,0.289383,0.289109,18.7817,15,0.0156875,10,0.00542997,-1.72626,0.0405471,1.4551,1073.53,0.289109,
2,1,0,1,0,28780.1,0.286187,0.285955,15.6528,15,0.015756,10,0.00447599,-1.80541,0.0382199,1.5437,940.496,0.285955,
2,1,0,1,0,28780.1,0.282983,0.282742,12.8535,15,0.0158126,10,0.00363421,-1.89098,0.0351313,1.67941,833.387,0.2827417,
2,1,0,1,0,28780.1,0.279786,0.279547,10.3712,15,0.0158588,10,0.00289925,-1.98417,0.0314167,1.87798,743.409,0.279547,
2,1,0,1,0,28780.1,0.276582,0.276318,8.12128,15,0.0158955,10,0.00224405,-2.09038,0.0267833,2.20286,668.929,0.276318,
2,1,0,1,0,28780.1,0.273386,0.273116,6.10863,15,0.0159237,10,0.00166837,-2.21406,0.0212824,2.77224,605.048,0.273116,
2,1,0,1,0,28780.1,0.27019,0.269894,4.25916,15,0.0159442,10,0.00114952,-2.37068,0.0143349,4.11584,552.196,0.269894,
2,1,0,1,0,28780.1,0.266982,0.266654,2.5707,15,0.0159576,10,0.000685489,-2.58995,0.0105986,5.56678,508.181,0.266654,
2,1,0,1,0,28780.1,0.263786,0.263482,1.03317,15,0.0159646,10,0.00027222,-2.98583,0.0317682,1.8572,464.514,0.263482,
2,0,0,1,0,28780.1,0.260585,0.260346,-0.381085,15,0.0159658,10,-9.9214e-05,-3.41898,-0.265394,-0.222311,426.254,0.260346,
2,0,0,1,0,28780.1,0.257383,0.257098,-1.68474,15,0.0159615,10,-0.000433143,-2.77347,-0.0217913,-2.7075,392.901,0.2570979,
2,0,0,1,0,28780.1,0.254187,0.253886,-2.87186,15,0.0159522,10,-0.000729124,-2.54184,-0.0114834,-5.13786,361.253,0.253886,
2,0,0,1,0,28780.1,0.25098,0.250662,-4.00353,15,0.0159383,10,-0.00100354,-2.39756,-0.0232007,-2.54303,336.994,0.250662,
2,0,0,1,0,28780.1,0.247783,0.247479,-5.02931,15,0.0159201,10,-0.00124465,-2.29849,-0.0337321,-1.74908,313.26,0.247479,
2,0,0,1,0,28780.1,0.244587,0.244309,-5.99438,15,0.015898,10,-0.00146448,-2.22226,-0.0446958,-1.32003,291.533,0.2443094,
2,0,0,1,0,28780.1,0.241383,0.241079,-6.88363,15,0.0158721,10,-0.0016595,-2.16218,-0.0561409,-1.05093,271.43,0.241079,
2,0,0,1,0,28780.1,0.238187,0.237922,-7.71789,15,0.0158428,10,-0.00183625,-2.1125,-0.0682,-0.865103,253.397,0.237922,
2,0,0,1,0,28780.1,0.234982,0.234654,-8.51028,15,0.0158103,10,-0.00199697,-2.07006,-0.0803413,-0.734367,238.385,0.2346544,
2,0,0,1,0,28780.1,0.231786,0.231457,-9.25108,15,0.0157746,10,-0.00214123,-2.03381,-0.0934684,-0.631229,223.719,0.231457,
2,0,0,1,0,28780.1,0.22859,0.228265,-9.93828,15,0.0157362,10,-0.00226857,-2.00269,-0.106883,-0.552004,211.037,0.228265,
2,0,0,1,0,28780.1,0.225383,0.225053,-10.5967,15,0.015695,10,-0.00238483,-1.97483,-0.120129,-0.491141,200.883,0.225053,
2,0,0,1,0,28780.2,0.222187,0.221884,-11.2053,15,0.0156513,10,-0.00248628,-1.95058,-0.134408,-0.438962,190.305,0.221884,
2,0,0,1,0,28780.2,0.218979,0.2187,-11.8139,15,0.0156053,10,-0.00258369,-1.92761,-0.150084,-0.393112,179.617,0.2187,
2,0,0,1,0,28780.2,0.215783,0.215501,-12.3674,15,0.0155568,10,-0.00266518,-1.90772,-0.165238,-0.35706,170.946,0.215501,
2,0,0,1,0,28780.2,0.212587,0.212266,-12.8936,15,0.0155062,10,-0.00273687,-1.88963,-0.181533,-0.32501,162.691,0.212266,
2,0,0,1,0,28780.2,0.20938,0.209077,-13.3945,15,0.0154536,10,-0.0028005,-1.87307,-0.197285,-0.29906,155.704,0.209077,
2,0,0,1,0,28780.2,0.206184,0.205907,-13.8952,15,0.015399,10,-0.00286111,-1.85714,-0.211283,-0.279246,150.788,0.205907,
2,0,0,1,0,28780.2,0.202988,0.202679,-14.3639,15,0.0153424,10,-0.00291125,-1.84273,-0.227422,-0.25943,144.817,0.2026789,
2,0,0,1,0,28780.2,0.199783,0.199466,-14.8237,15,0.015284,10,-0.00295682,-1.82904,-0.244792,-0.241021,138.921,0.199466,
2,0,0,1,0,28780.2,0.196587,0.19625,-15.2522,15,0.0152238,10,-0.00299324,-1.81667,-0.261573,-0.225558,133.859,0.19625,
2,0,0,1,0,28780.2,0.193382,0.19307,-15.6785,15,0.0151619,10,-0.00302705,-1.80469,-0.277075,-0.212939,129.978,0.1930695,
2,0,0,1,0,28780.2,0.190186,0.18985,-16.0811,15,0.0150983,10,-0.003053,-1.79368,-0.289592,-0.203735,127.635,0.18985,
2,0,0,1,0,28780.2,0.18699,0.186671,-16.4867,15,0.0150331,10,-0.00307759,-1.78287,-0.303947,-0.194113,124.699,0.186671,
2,0,0,1,0,28780.2,0.183783,0.183495,-16.8801,15,0.0149663,10,-0.00309742,-1.77262,-0.314824,-0.187406,123.301,0.183495,
2,0,0,1,0,28780.2,0.180587,0.180321,-17.2682,15,0.014898,10,-0.00311383,-1.76275,-0.327116,-0.180364,121.431,0.180321,
2,0,0,1,0,28780.2,0.17738,0.177039,-17.6607,15,0.0148281,10,-0.00312664,-1.75299,-0.33814,-0.174484,120.11,0.177039,
2,0,0,1,0,28780.2,0.174183,0.17389,-18.0387,15,0.0147567,10,-0.00313676,-1.74379,-0.341737,-0.172647,121.547,0.17389,
2,0,0,1,0,28780.2,0.170987,0.170681,-18.4192,15,0.0146837,10,-0.00314382,-1.73473,-0.347602,-0.169734,122.073,0.170681,
2,0,0,1,0,28780.2,0.16778,0.167448,-18.8329,15,0.0146092,10,-0.00315354,-1.72508,-0.350962,-0.168109,123.477,0.167448,
2,0,0,1,0,28780.2,0.164584,0.164284,-19.2178,15,0.014533,10,-0.00315717,-1.7163,-0.349378,-0.168871,126.655,0.164284,
2,0,0,1,0,28780.2,0.161382,0.161048,-19.6244,15,0.0144553,10,-0.00316047,-1.7072,-0.349722,-0.168705,129.372,0.1610484,
2,0,0,1,0,28780.2,0.158183,0.157893,-20.039,15,0.014376,10,-0.003164,-1.69812,-0.341192,-0.172923,135.458,0.157893,
2,0,0,1,0,28780.2,0.154987,0.154648,-20.4889,15,0.0142949,10,-0.00316857,-1.68848,-0.333382,-0.176974,141.704,0.154648,
2,0,0,1,0,28780.2,0.151783,0.151491,-20.9507,15,0.014212,10,-0.00317384,-1.6788,-0.323319,-0.182482,149.428,0.151491,
2,0,0,1,0,28780.2,0.148587,0.148266,-21.4356,15,0.0141271,10,-0.00317818,-1.66886,-0.310711,-0.189887,159.252,0.148266,
2,0,0,1,0,28780.2,0.145385,0.145075,-21.9542,15,0.0140403,10,-0.00318501,-1.65848,-0.298988,-0.197333,169.581,0.145075,
2,0,0,1,0,28780.3,0.142183,0.141882,-22.522,15,0.0139513,10,-0.00319545,-1.64739,-0.2817,-0.209442,184.702,0.141882,
2,0,0,1,0,28780.3,0.138987,0.13867,-23.1249,15,0.01386,10,-0.00320673,-1.63592,-0.268572,-0.219681,198.958,0.13867,
2,0,0,1,0,28780.3,0.13578,0.135472,-23.7987,15,0.0137661,10,-0.00322407,-1.62345,-0.256275,-0.230221,214.462,0.135472,
2,0,0,1,0,28780.3,0.132584,0.132254,-24.5051,15,0.0136694,10,-0.0032409,-1.61074,-0.243864,-0.241938,232.112,0.132254,
2,0,0,1,0,28780.3,0.129388,0.12907,-25.2696,15,0.0135698,10,-0.00326154,-1.5974,-0.233166,-0.253039,250.499,0.12907,
2,0,0,1,0,28780.3,0.12618,0.12585,-26.1004,15,0.013467,10,-0.00328475,-1.58335,-0.223378,-0.264127,269.943,0.12585,
2,0,0,1,0,28780.3,0.122984,0.122688,-27.0011,15,0.0133607,10,-0.00331272,-1.56862,-0.215541,-0.273729,289.196,0.122688,
2,0,0,1,0,28780.3,0.119783,0.119509,-27.9455,15,0.0132508,10,-0.00333975,-1.55369,-0.211089,-0.279502,305.485,0.119509,
2,0,0,1,0,28780.3,0.116584,0.116322,-28.9563,15,0.0131369,10,-0.00336825,-1.53826,-0.208489,-0.282988,320.299,0.116322,
2,0,0,1,0,28780.3,0.113387,0.113083,-30.0007,15,0.0130189,10,-0.00339257,-1.52287,-0.208418,-0.283084,331.694,0.113083,
2,0,0,1,0,28780.3,0.110183,0.109895,-31.0986,15,0.0128966,10,-0.0034176,-1.50726,-0.209732,-0.281311,341.33,0.109895,
2,0,0,1,0,28780.3,0.106987,0.106678,-32.2015,15,0.0127699,10,-0.00343519,-1.49212,-0.213635,-0.276172,346.736,0.106678,
2,0,0,1,0,28780.3,0.103785,0.103518,-33.3265,15,0.0126387,10,-0.0034499,-1.47721,-0.220668,-0.267371,347.137,0.103518,
2,0,0,1,0,28780.3,0.100583,0.100273,-34.4423,15,0.012503,10,-0.00345364,-1.46291,-0.227938,-0.258842,347.239,0.100273,
2,0,0,1,0,28780.3,0.0973873,0.0971144,-35.5354,15,0.012363,10,-0.003451,-1.44934,-0.238139,-0.247754,343.109,0.0971144,
2,0,0,1,0,28780.3,0.0941801,0.0938897,-36.6421,15,0.0122185,10,-0.00344032,-1.43602,-0.249571,-0.236406,337.216,0.0938897,
2,0,0,1,0,28780.3,0.0909839,0.0906692,-37.7351,15,0.0120696,10,-0.00342141,-1.42325,-0.261518,-0.225606,331.091,0.0906692,
2,0,0,1,0,28780.3,0.0877878,0.087523,-38.7419,15,0.0119165,10,-0.0033908,-1.41182,-0.275064,-0.214496,323.691,0.087523,
2,0,0,1,0,28780.3,0.0845806,0.084381,-39.7513,15,0.0117595,10,-0.00335426,-1.40065,-0.289321,-0.203926,316.02,0.084381,
2,0,0,1,0,28780.3,0.0813844,0.0811478,-40.7666,15,0.0115984,10,-0.00330812,-1.3897,-0.30398,-0.194092,308.084,0.08114782,
2,0,0,1,0,28780.3,0.0781828,0.0779687,-41.7487,15,0.0114332,10,-0.00325509,-1.37936,-0.322726,-0.182817,297.006,0.0779687,
2,0,0,1,0,28780.3,0.0749839,0.0747864,-42.6658,15,0.0112643,10,-0.00319082,-1.36992,-0.346585,-0.170232,282.726,0.0747864,
2,0,0,1,0,28780.3,0.0717877,0.071549,-43.5625,15,0.0110918,10,-0.00311685,-1.36089,-0.375103,-0.15729,266.649,0.071549,
2,0,0,1,0,28780.3,0.0685832,0.0683074,-44.3969,15,0.0109157,10,-0.00303264,-1.35265,-0.405013,-0.145674,251.636,0.0683074,
2,0,0,1,0,28780.3,0.0653871,0.0651251,-45.1735,15,0.0107365,10,-0.00294193,-1.34512,-0.440237,-0.134019,235.668,0.0651251,
2,0,0,1,0,28780.4,0.0621854,0.0619481,-45.8964,15,0.0105543,10,-0.00284319,-1.33822,-0.476589,-0.123796,221.237,0.0619481,
2,0,0,1,0,28780.4,0.0589837,0.0587149,-46.5871,15,0.0103693,10,-0.00273536,-1.33173,-0.515615,-0.114426,207.607,0.0587149,
2,0,0,1,0,28780.4,0.0557876,0.0555676,-47.2154,15,0.0101816,10,-0.00262365,-1.32592,-0.565452,-0.104341,191.863,0.0555676,
2,0,0,1,0,28780.4,0.0525804,0.0523281,-47.8302,15,0.00999139,10,-0.00250286,-1.3203,-0.620522,-0.0950812,177.049,0.0523281,
2,0,0,1,0,28780.4,0.0493842,0.0491182,-48.358,15,0.00979895,10,-0.00237526,-1.31553,-0.683371,-0.0863367,162.596,0.0491182,
2,0,0,1,0,28780.4,0.0461881,0.0458978,-48.8563,15,0.00960445,10,-0.0022424,-1.31108,-0.765947,-0.0770288,146.597,0.0458978,
2,0,0,1,0,28780.4,0.0429808,0.0426763,-49.3115,15,0.00940805,10,-0.00210443,-1.30705,-0.852186,-0.0692337,132.95,0.0426763,
2,0,0,1,0,28780.4,0.0397847,0.0394908,-49.7121,15,0.00920996,10,-0.00196317,-1.30354,-0.968938,-0.0608914,117.886,0.0394908,
2,0,0,1,0,28780.4,0.036583,0.0363075,-50.0611,15,0.00901038,10,-0.00181759,-1.3005,-1.12408,-0.0524873,102.35,0.03630748,
2,0,0,1,0,28780.4,0.0333841,0.0330966,-50.3654,15,0.00880949,10,-0.00166692,-1.29787,-1.25792,-0.0469029,92.0688,0.0330966,
2,0,0,1,0,28780.4,0.030188,0.029839,-50.6254,15,0.00860746,10,-0.00151061,-1.29563,-1.46323,-0.0403218,79.5783,0.029839,
2,0,0,1,0,28780.4,0.0269835,0.0267172,-50.8882,15,0.0084044,10,-0.00135959,-1.29338,-1.67075,-0.0353134,70.0317,0.02671716,
2,0,0,1,0,28780.4,0.0237874,0.0234808,-51.0819,15,0.00820042,10,-0.00119944,-1.29173,-1.92449,-0.0306575,61.0369,0.0234808,
2,0,0,1,0,28780.4,0.0205857,0.0202232,-51.267,15,0.00799571,10,-0.00103678,-1.29016,-2.38533,-0.0247345,49.4282,0.0202232,
2,0,0,1,0,28780.4,0.017384,0.01706,-51.4054,15,0.00779033,10,-0.000876978,-1.28899,-2.79198,-0.021132,42.3518,0.01706,
2,0,0,1,0,28780.4,0.0141879,0.0138937,-51.522,15,0.00758445,10,-0.00071583,-1.28801,-3.48842,-0.0169131,33.9822,0.0138937,
2,0,0,1,0,28780.4,0.0109806,0.0106414,-51.6256,15,0.00737813,10,-0.000549369,-1.28713,-4.57919,-0.0128844,25.9319,0.0106414,
2,0,0,1,0,28780.4,0.00778448,0.00747927,-51.7,15,0.00717147,10,-0.000386678,-1.28651,-5.19981,-0.0113466,22.8801,0.00747927,
2,0,0,1,0,28780.4,0.00458834,0.00425563,-51.7374,15,0.00696459,10,-0.000220175,-1.2862,-9.53678,-0.00618657,12.4839,0.00425563,
2,0,0,1,0,28780.4,0.0013811,0.00103836,-51.8161,15,0.00675751,10,-5.38038e-05,-1.28553,-18.462,-0.00319576,6.45321,0.00103836,
2,0,0,1,0,28780.4,-0.00181504,-0.00218316,-51.7857,15,0.0065503,10,0.000113056,-1.28579,74.1921,0.000795233,-1.60537,-0.00218316,
2,0,0,1,0,28780.4,-0.0050195,-0.00534953,-51.7828,15,0.00634317,10,0.000277014,-1.28581,10.0846,0.00585053,-11.8138,-0.00534953,
2,0,0,1,0,28780.4,-0.00821564,-0.00857529,-51.7168,15,0.00613618,10,0.000443487,-1.28637,6.5132,0.00905852,-18.2662,-0.00857529,
2,0,0,1,0,28780.4,-0.0114118,-0.0117841,-51.6647,15,0.00592942,10,0.000608821,-1.28681,4.19434,0.0140666,-28.3278,-0.0117841,
2,0,0,1,0,28780.4,-0.0146162,-0.0150045,-51.5515,15,0.00572298,10,0.000773507,-1.28776,3.47017,0.0170021,-34.1703,-0.0150045,
2,0,0,1,0,28780.5,-0.0178124,-0.0181486,-51.4202,15,0.00551704,10,0.000933208,-1.28887,2.73135,0.0216011,-43.3205,-0.0181486,
2,0,0,1,0,28780.5,-0.0210196,-0.0214073,-51.2783,15,0.00531166,10,0.00109773,-1.29007,2.31549,0.0254806,-50.9411,-0.0214073,
2,0,0,1,0,28780.5,-0.0242158,-0.0245705,-51.1107,15,0.00510689,10,0.00125581,-1.29149,2.04438,0.0288596,-57.4982,-0.0245705,
2,0,0,1,0,28780.5,-0.0274119,-0.0277358,-50.903,15,0.00490288,10,0.00141183,-1.29326,1.73815,0.0339442,-67.3613,-0.0277358,
2,0,0,1,0,28780.5,-0.0306191,-0.0309785,-50.6825,15,0.00469974,10,0.00157007,-1.29514,1.60983,0.0366498,-72.4396,-0.0309785,
2,0,0,1,0,28780.5,-0.0338153,-0.0341247,-50.4217,15,0.00449754,10,0.00172063,-1.29738,1.4854,0.03972,-78.1281,-0.0341247,
2,0,0,1,0,28780.5,-0.037017,-0.0373749,-50.1832,15,0.00429638,10,0.00187559,-1.29944,1.39023,0.0424389,-83.0574,-0.03737488,
2,0,0,1,0,28780.5,-0.0402187,-0.0405572,-49.9013,15,0.00409623,10,0.00202385,-1.30189,1.339,0.0440627,-85.755,-0.0405572,
2,0,0,1,0,28780.5,-0.0434148,-0.0438137,-49.6165,15,0.00389723,10,0.00217388,-1.30437,1.26242,0.0467355,-90.4681,-0.0438137,
2,0,0,1,0,28780.5,-0.0466193,-0.0469843,-49.3189,15,0.00369939,10,0.00231721,-1.30699,1.23321,0.0478426,-92.0665,-0.0469843,
2,0,0,1,0,28780.5,-0.0498154,-0.050209,-49.0221,15,0.00350274,10,0.00246135,-1.30961,1.22578,0.0481327,-92.093,-0.05020899,
2,0,0,1,0,28780.5,-0.0530115,-0.0533807,-48.7207,15,0.00330728,10,0.00260074,-1.31229,1.22639,0.0481087,-91.4965,-0.0533807,
2,0,0,1,0,28780.5,-0.056216,-0.0565948,-48.4394,15,0.00311297,10,0.00274142,-1.3148,1.26467,0.0466525,-88.2257,-0.0565948,
2,0,0,1,0,28780.5,-0.0594121,-0.0597537,-48.1505,15,0.00291981,10,0.00287717,-1.3174,1.2817,0.0460325,-86.5299,-0.0597537,
2,0,0,1,0,28780.5,-0.0626194,-0.0629699,-47.8963,15,0.00272776,10,0.00301603,-1.3197,1.33873,0.0440716,-82.4042,-0.06296993,
2,0,0,1,0,28780.5,-0.0658155,-0.0661586,-47.615,15,0.00253676,10,0.00315014,-1.32226,1.42349,0.0414473,-77.085,-0.06615857,
2,0,0,1,0,28780.5,-0.0690117,-0.0693949,-47.3847,15,0.00234679,10,0.00328825,-1.32436,1.49668,0.0394207,-72.9663,-0.0693949,
2,0,0,1,0,28780.5,-0.0722189,-0.0725634,-47.1631,15,0.0021577,10,0.00342232,-1.3264,1.64864,0.0357871,-65.9081,-0.0725634,
2,0,0,1,0,28780.5,-0.075415,-0.0757648,-46.9627,15,0.00196948,10,0.00355812,-1.32825,1.78008,0.0331447,-60.7892,-0.0757648,
2,0,0,1,0,28780.5,-0.0786167,-0.0790213,-46.7672,15,0.00178206,10,0.00369561,-1.33006,1.94678,0.0303065,-55.3624,-0.0790213,
2,0,0,1,0,28780.5,-0.0818184,-0.0821887,-46.6069,15,0.00159534,10,0.00383056,-1.33155,2.23516,0.0263963,-48.0608,-0.08218874,
2,0,0,1,0,28780.5,-0.0850145,-0.0853763,-46.4538,15,0.00140926,10,0.00396605,-1.33298,2.55442,0.0230973,-41.9152,-0.08537633,
2,0,0,1,0,28780.5,-0.088219,-0.0886032,-46.3457,15,0.0012237,10,0.00410637,-1.33399,2.97751,0.0198152,-35.8649,-0.0886032,
2,0,0,1,0,28780.5,-0.0914152,-0.0917769,-46.2326,15,0.00103857,10,0.00424309,-1.33505,3.70111,0.0159412,-28.7858,-0.0917769,
2,0,0,1,0,28780.5,-0.0946141,-0.0949603,-46.1489,15,0.000853835,10,0.00438231,-1.33584,4.5861,0.012865,-23.1946,-0.0949603,
2,0,0,1,0,28780.6,-0.0978158,-0.0981585,-46.0858,15,0.000669362,10,0.00452371,-1.33643,6.74314,0.00874964,-15.7527,-0.0981585,
2,0,0,1,0,28780.6,-0.101012,-0.101401,-46.0488,15,0.000485107,10,0.00466941,-1.33678,11.9787,0.00492539,-8.85995,-0.101401,
2,0,0,1,0,28780.6,-0.104219,-0.104572,-46.031,15,0.000300948,10,0.00481355,-1.33695,26.5488,0.00222232,-3.99482,-0.104572,
2,0,0,1,0,28780.6,-0.107415,-0.107758,-46.0355,15,0.000116815,10,0.00496071,-1.33691,-31.1872,-0.0018918,3.40143,-0.107758,
2,0,0,1,0,28780.6,-0.110611,-0.110931,-46.0348,15,-6.73236e-05,10,0.00510669,-1.33691,-11.8739,-0.00496889,8.93743,-0.110931,
2,0,0,1,0,28780.6,-0.113819,-0.114157,-46.0922,15,-0.000251601,10,0.00526174,-1.33637,-7.10947,-0.00829879,14.9407,-0.114157,
2,0,0,1,0,28780.6,-0.117015,-0.117377,-46.1455,15,-0.000436071,10,0.00541643,-1.33587,-4.75437,-0.0124096,22.3644,-0.117377,
2,0,0,1,0,28780.6,-0.120216,-0.120565,-46.2268,15,-0.000620819,10,0.00557333,-1.33511,-4.06864,-0.0145012,26.1798,-0.120565,
2,0,0,1,0,28780.6,-0.123418,-0.123756,-46.3216,15,-0.000805929,10,0.00573256,-1.33422,-3.33345,-0.0176994,32.016,-0.123756,
2,0,0,1,0,28780.6,-0.126614,-0.126945,-46.427,15,-0.000991426,10,0.00589369,-1.33323,-2.90976,-0.0202766,36.7667,-0.126945,
2,0,0,1,0,28780.6,-0.129819,-0.130145,-46.5542,15,-0.00117739,10,0.00605878,-1.33204,-2.59588,-0.0227283,41.322,-0.130145,
2,0,0,1,0,28780.6,-0.133015,-0.133368,-46.6976,15,-0.00136391,10,0.00622797,-1.33071,-2.28033,-0.0258734,47.1847,-0.133368,
2,0,0,1,0,28780.6,-0.136214,-0.136547,-46.8502,15,-0.00155102,10,0.00639727,-1.32929,-2.18219,-0.0270371,49.4563,-0.136547,
2,0,0,1,0,28780.6,-0.139416,-0.139761,-47.0317,15,-0.00173881,10,0.00657322,-1.32761,-2.00045,-0.0294934,54.1491,-0.139761,
2,0,0,1,0,28780.6,-0.142612,-0.142954,-47.1878,15,-0.00192727,10,0.00674569,-1.32617,-1.91249,-0.0308498,56.8444,-0.1429543,
2,0,0,1,0,28780.6,-0.145819,-0.146193,-47.392,15,-0.00211644,10,0.00692837,-1.32429,-1.85441,-0.0318161,58.8655,-0.146193,
2,0,0,1,0,28780.6,-0.149015,-0.149384,-47.5798,15,-0.00230641,10,0.00710765,-1.32258,-1.74241,-0.0338611,62.8897,-0.149384,
2,0,0,1,0,28780.6,-0.152211,-0.152575,-47.786,15,-0.00249716,10,0.00729097,-1.3207,-1.74826,-0.0337478,62.9473,-0.152575,
2,0,0,1,0,28780.6,-0.155418,-0.155781,-47.9944,15,-0.00268876,10,0.00747662,-1.31881,-1.69541,-0.0347998,65.1826,-0.155781,
2,0,0,1,0,28780.6,-0.158615,-0.158981,-48.197,15,-0.00288117,10,0.00766242,-1.31698,-1.67866,-0.0351471,66.123,-0.158981,
2,0,0,1,0,28780.6,-0.161816,-0.162143,-48.4116,15,-0.00307441,10,0.00784962,-1.31505,-1.69211,-0.0348676,65.879,-0.162143,
2,0,0,1,0,28780.6,-0.165018,-0.16531,-48.6281,15,-0.00326851,10,0.0080387,-1.31311,-1.66867,-0.0353576,67.0957,-0.16531,
2,0,0,1,0,28780.6,-0.168214,-0.168521,-48.8337,15,-0.00346346,10,0.00822949,-1.31128,-1.74481,-0.0338146,64.4312,-0.168521,
2,0,0,1,0,28780.6,-0.171419,-0.17174,-49.0531,15,-0.00365925,10,0.00842438,-1.30933,-1.77401,-0.033258,63.6457,-0.17174,
2,0,0,1,0,28780.6,-0.174615,-0.174964,-49.2376,15,-0.00385585,10,0.00861479,-1.3077,-1.79108,-0.032941,63.3009,-0.174964,
2,0,0,1,0,28780.7,-0.177814,-0.178143,-49.4448,15,-0.00405322,10,0.00880824,-1.30588,-1.83879,-0.0320863,61.9204,-0.178143,
2,0,0,1,0,28780.7,-0.181015,-0.181361,-49.6465,15,-0.00425144,10,0.00900395,-1.30411,-1.82293,-0.0323655,62.6981,-0.181361,
2,0,0,1,0,28780.7,-0.184211,-0.184537,-49.8455,15,-0.00445045,10,0.00919834,-1.30237,-1.8726,-0.031507,61.2772,-0.1845371,
2,0,0,1,0,28780.7,-0.187419,-0.18775,-50.0393,15,-0.00465024,10,0.00939488,-1.30069,-1.96325,-0.0300522,58.667,-0.18775,
2,0,0,1,0,28780.7,-0.190615,-0.190889,-50.2259,15,-0.00485078,10,0.00958756,-1.29907,-1.9728,-0.0299067,58.6169,-0.190889,
2,0,0,1,0,28780.7,-0.193811,-0.194167,-50.3978,15,-0.00505205,10,0.00978557,-1.29759,-2.05085,-0.0287685,56.5688,-0.194167,
2,0,0,1,0,28780.7,-0.197018,-0.1974,-50.5994,15,-0.00525407,10,0.00998832,-1.29585,-2.52559,-0.0233609,45.9934,-0.1974,
2,0,0,1,0,28780.7,-0.199647,-0.199979,-50.731,15,-0.00542128,10,0.0101451,-1.29473,0.271618,0.217217,-417.872,-0.199979,
2,0,0,1,0,28780.7,-0.200134,-0.200551,-50.6703,15,-0.00545172,10,0.010162,-1.29525,-0.0162379,-3.63347,6603,-0.200551,
2,0,0,1,1,28780.7,-0.198935,-0.199415,-48.2048,15,-0.00552512,10,0.00961274,-1.31691,-0.0581964,-1.01381,1752.78,-0.199415,
2,0,0,1,1,28780.7,-0.195739,-0.196211,-42.7503,15,-0.00570603,10,0.00838809,-1.36906,-0.0659898,-0.894078,1472.44,-0.196211,
2,0,0,1,1,28780.7,-0.192535,-0.192965,-38.4378,15,-0.00586775,10,0.00741716,-1.41524,-0.0694594,-0.849417,1300.25,-0.192965,
2,0,0,1,1,28780.7,-0.189339,-0.189725,-34.7286,15,-0.00601357,10,0.00658886,-1.45931,-0.072635,-0.812281,1113.09,-0.189725,
2,0,0,1,1,28780.7,-0.186137,-0.186516,-31.4332,15,-0.00614546,10,0.00586279,-1.50261,-0.073447,-0.8033,991.824,-0.186516,
2,0,0,1,1,28780.7,-0.182935,-0.183358,-28.4435,15,-0.00626483,10,0.00521535,-1.54602,-0.0724975,-0.813821,906.173,-0.183358,
2,0,0,1,1,28780.7,-0.179739,-0.180112,-25.6897,15,-0.00637276,10,0.00462703,-1.59024,-0.070625,-0.835399,838.347,-0.180112,
2,0,0,1,1,28780.7,-0.176532,-0.176913,-23.1188,15,-0.00647007,10,0.00409002,-1.63603,-0.068522,-0.861038,776.57,-0.176913,
2,0,0,1,1,28780.7,-0.173336,-0.173754,-20.7342,15,-0.00655749,10,0.00360265,-1.68331,-0.065298,-0.903549,729.012,-0.173754,
2,0,0,1,1,28780.7,-0.17014,-0.170539,-18.4885,15,-0.00663568,10,0.003153,-1.7331,-0.0616744,-0.956637,686.266,-0.170539,
2,0,0,1,1,28780.7,-0.166932,-0.167311,-16.3575,15,-0.00670512,10,0.00273678,-1.78628,-0.0574075,-1.02774,650.366,-0.167311,
2,0,0,1,1,28780.7,-0.163736,-0.164121,-14.3403,15,-0.00676631,10,0.00235355,-1.84344,-0.0526441,-1.12073,619.411,-0.164121,
2,0,0,1,1,28780.7,-0.160532,-0.160947,-12.4053,15,-0.00681958,10,0.00199659,-1.90639,-0.0475458,-1.24091,590.776,-0.160947,
2,0,0,1,1,28780.7,-0.157336,-0.157753,-10.5691,15,-0.00686533,10,0.00166731,-1.97596,-0.0422284,-1.39716,562.301,-0.157753,
2,0,0,1,1,28780.7,-0.154139,-0.15454,-8.813,15,-0.00690391,10,0.00136196,-2.05488,-0.0361396,-1.63256,540.81,-0.15454,
2,0,0,1,1,28780.7,-0.150935,-0.151281,-7.12013,15,-0.00693557,10,0.00107714,-2.14751,-0.0297197,-1.98522,518.914,-0.151281,
2,0,0,1,1,28780.7,-0.147739,-0.148175,-5.49771,15,-0.00696062,10,0.000814622,-2.25982,-0.0226465,-2.60526,502.121,-0.148175,
2,0,0,1,1,28780.8,-0.144532,-0.144923,-3.91149,15,-0.00697927,10,0.000566866,-2.40766,-0.0145898,-4.04392,484.329,-0.144923,
2,0,0,1,1,28780.8,-0.141335,-0.141789,-2.41024,15,-0.00699174,10,0.000341745,-2.61794,-0.0119423,-4.94043,464.391,-0.141789,
2,0,0,1,1,28780.8,-0.138139,-0.138551,-0.955034,15,-0.00699831,10,0.000132321,-3.01998,-0.0386136,-1.52796,451.13,-0.138551,
2,1,0,1,1,28780.8,-0.134932,-0.13534,0.462823,15,-0.00699913,10,-6.26382e-05,-3.33459,0.109246,0.540067,434.482,-0.13534,
2,1,0,1,1,28780.8,-0.131736,-0.132194,1.831,15,-0.00699441,10,-0.000242048,-2.73731,0.0190547,3.09636,424.646,-0.132194,
2,1,0,1,1,28780.8,-0.12854,-0.128974,3.15765,15,-0.00698429,10,-0.000407255,-2.50064,0.0116847,5.04935,410.977,-0.1289739,
2,1,0,1,1,28780.8,-0.125333,-0.125792,4.46339,15,-0.0069689,10,-0.000561457,-2.35033,0.0221614,2.66228,397.89,-0.125792,
2,1,0,1,1,28780.8,-0.122136,-0.122599,5.69899,15,-0.00694845,10,-0.000698689,-2.2442,0.0311533,1.89386,388.082,-0.122599,
2,1,0,1,1,28780.8,-0.118932,-0.11939,6.92575,15,-0.00692308,10,-0.000826865,-2.15953,0.0401988,1.46771,377.026,-0.11939,
2,1,0,1,1,28780.8,-0.115736,-0.11621,8.11118,15,-0.00689289,10,-0.000942598,-2.09092,0.0487697,1.20977,369.559,-0.11621,
2,1,0,1,1,28780.8,-0.11254,-0.113005,9.2842,15,-0.00685799,10,-0.00104916,-2.03226,0.0579416,1.01827,358.923,-0.113005,
2,1,0,1,1,28780.8,-0.109335,-0.109799,10.4294,15,-0.00681842,10,-0.00114513,-1.98174,0.0671077,0.879184,349.953,-0.109799,
2,1,0,1,1,28780.8,-0.106139,-0.106571,11.5269,15,-0.00677439,10,-0.00122843,-1.93829,0.076588,0.770356,340.787,-0.106571,
2,1,0,1,1,28780.8,-0.102932,-0.103331,12.6181,15,-0.006726,10,-0.00130384,-1.89901,0.0860113,0.685957,333.081,-0.103331,
2,1,0,1,1,28780.8,-0.0997357,-0.100141,13.668,15,-0.00667332,10,-0.00136873,-1.86429,0.0950328,0.620838,327.472,-0.100141,
2,1,0,1,1,28780.8,-0.0965395,-0.0969825,14.6982,15,-0.00661647,10,-0.00142547,-1.83274,0.105408,0.559732,318.027,-0.0969825,
2,1,0,1,1,28780.8,-0.0933323,-0.0937641,15.7207,15,-0.00655553,10,-0.00147403,-1.80353,0.115263,0.511873,311.149,-0.0937641,
2,1,0,1,1,28780.8,-0.0901361,-0.090532,16.6886,15,-0.00649061,10,-0.00151085,-1.77758,0.126314,0.46709,301.952,-0.090532,
2,1,0,1,1,28780.8,-0.0869345,-0.0873349,17.6527,15,-0.00642184,10,-0.0015417,-1.75319,0.137137,0.430226,294.527,-0.0873349,
2,1,0,1,1,28780.8,-0.0837328,-0.0841198,18.5821,15,-0.00634928,10,-0.00156312,-1.7309,0.146838,0.401803,289.753,-0.0841198,
2,1,0,1,1,28780.8,-0.0805366,-0.0809406,19.4975,15,-0.00627302,10,-0.00157814,-1.71002,0.159028,0.371005,280.836,-0.0809406,
2,1,0,1,1,28780.8,-0.0773322,-0.0777552,20.3907,15,-0.00619317,10,-0.00158548,-1.69057,0.17048,0.346082,273.977,-0.0777552,
2,1,0,1,1,28780.8,-0.074136,-0.0745252,21.2502,15,-0.00610981,10,-0.00158367,-1.67264,0.182279,0.32368,267.347,-0.0745252,
2,1,0,1,1,28780.8,-0.0709371,-0.0713217,22.0885,15,-0.00602304,10,-0.00157539,-1.65583,0.195105,0.302402,259.826,-0.0713217,
2,1,0,1,1,28780.8,-0.0677354,-0.0681288,22.9227,15,-0.00593292,10,-0.0015617,-1.63973,0.205379,0.287274,256.186,-0.0681288,
2,1,0,1,1,28780.9,-0.0645393,-0.0649221,23.7251,15,-0.00583953,10,-0.00154028,-1.62479,0.217678,0.271043,250.148,-0.0649221,
2,1,0,1,1,28780.9,-0.061332,-0.0617261,24.5291,15,-0.00574294,10,-0.00151409,-1.61032,0.232538,0.253722,241.998,-0.0617261,
2,1,0,1,1,28780.9,-0.0581359,-0.0585661,25.2793,15,-0.00564324,10,-0.00148051,-1.59723,0.244592,0.241218,237.337,-0.0585661,
2,1,0,1,1,28780.9,-0.0549398,-0.0553244,26.0214,15,-0.00554056,10,-0.00143962,-1.58467,0.260057,0.226873,229.956,-0.0553244,
2,1,0,1,1,28780.9,-0.0517325,-0.0521432,26.758,15,-0.00543489,10,-0.00139525,-1.57255,0.273941,0.215375,224.371,-0.0521432,
2,1,0,1,1,28780.9,-0.0485364,-0.0489397,27.4694,15,-0.00532636,10,-0.00134435,-1.56115,0.28821,0.204712,218.895,-0.0489397,
2,1,0,1,1,28780.9,-0.0453347,-0.0457277,28.1599,15,-0.00521502,10,-0.00128769,-1.55037,0.306943,0.192218,210.702,-0.0457277,
2,1,0,1,1,28780.9,-0.042133,-0.0425221,28.8237,15,-0.00510099,10,-0.00122565,-1.54025,0.321899,0.183287,205.781,-0.0425221,
2,1,0,1,1,28780.9,-0.0389369,-0.0393197,29.4599,15,-0.00498436,10,-0.00115835,-1.53077,0.339874,0.173594,199.287,-0.0393197,
2,1,0,1,1,28780.9,-0.0357324,-0.0361236,30.1067,15,-0.00486518,10,-0.00108756,-1.52134,0.356957,0.165286,193.82,-0.0361236,
2,1,0,1,1,28780.9,-0.0325363,-0.0329392,30.7084,15,-0.00474347,10,-0.00101151,-1.51274,0.3752,0.157249,188.065,-0.0329392,
2,1,0,1,1,28780.9,-0.0293374,-0.0297251,31.304,15,-0.00461939,10,-0.000930516,-1.5044,0.399407,0.147719,180.131,-0.0297251,
2,1,0,1,1,28780.9,-0.0261357,-0.0265534,31.8608,15,-0.00449297,10,-0.000846013,-1.49674,0.41826,0.141061,175.162,-0.0265534,
2,1,0,1,1,28780.9,-0.0229395,-0.0233224,32.4126,15,-0.00436436,10,-0.00075594,-1.48929,0.441336,0.133685,168.907,-0.0233224,
2,1,0,1,1,28780.9,-0.0197323,-0.020121,32.9537,15,-0.00423357,10,-0.000663061,-1.4821,0.464074,0.127135,163.223,-0.020121,
2,1,0,1,1,28780.9,-0.0165361,-0.016908,33.469,15,-0.00410067,10,-0.000565892,-1.47536,0.487426,0.121044,157.833,-0.016908,
2,1,0,1,1,28780.9,-0.01334,-0.0137236,33.9549,15,-0.00396577,10,-0.000465983,-1.4691,0.519071,0.113665,150.402,-0.0137236,
2,1,0,1,1,28780.9,-0.0101328,-0.0105413,34.4299,15,-0.00382894,10,-0.000362936,-1.46306,0.548051,0.107654,144.457,-0.0105413,
2,1,0,1,1,28780.9,-0.00693663,-0.0073484,34.8747,15,-0.00369028,10,-0.000256273,-1.45749,0.577212,0.102215,138.908,-0.0073484,
2,1,0,1,1,28780.9,-0.00373494,-0.00413855,35.3136,15,-0.00354987,10,-0.000146147,-1.45206, , , ,-0.004138547,
2,1,0,1,1,28780.9,-0.000774628,-0.0011429,35.7025,15,-0.00341845,10,-4.08043e-05,-1.4473, , , ,-0.0011429,
2,1,0,0,1,28780.9,-0.000125413,-0.000554371,35.7963,15,-0.00338986,10,-1.98445e-05,-1.44616, , , ,-0.000554371,