File: Figure_codes/Fig_3-5/rawdata_trumpetplot_data/after 10th/20221101_1-115_003_TrumpetPlot_ParaChange_from10_every3_07_CV_C01_6.csv
mode,ox/red,error,control changes,counter inc.,time/s,control/V,Ewe/V,<I>/mA,cycle number,(Q-Qo)/C,I Range,P/W,log(|I|),Tafel slope mV/dec,alpha_eff,dI/d(E-IR),E-IR/V,
2,0,0,0,0,12985.8,2.44065e-05,-0.000248974,-2.75546,7,0.0000000E+000,10,6.86039e-07,-2.55981, , , ,-0.000248974,
2,0,0,1,0,12985.8,0.0013005,0.000898776,-1.03578,7,-3.68858e-05,10,-9.30934e-07,-2.98473, , , ,0.000898776,
2,0,0,1,0,12985.8,0.00279471,0.00248593,0.0918453,7,-4.7039e-05,10,2.28321e-07,-4.03694,-0.017294,-3.41159,615.971,0.00248593,
2,1,0,1,0,12985.9,0.00429425,0.00396442,0.748316,7,-3.54336e-05,10,2.96664e-06,-3.12591,0.00516192,11.4298,371.146,0.00396442,
2,1,0,1,0,12985.9,0.00579379,0.005462,1.1736,7,-1.05494e-05,10,6.41019e-06,-2.93048,0.0090657,6.50805,248.052,0.005462,
2,1,0,1,0,12985.9,0.007288,0.00697708,1.47751,7,2.30639e-05,10,1.03087e-05,-2.83047,0.017758,3.32244,178.36,0.00697708,
2,1,0,1,0,12985.9,0.00878882,0.00845685,1.69468,7,6.32606e-05,10,1.43316e-05,-2.77091,0.0290223,2.03292,129.973,0.00845685,
2,1,0,1,0,12986,0.0102896,0.00995948,1.86607,7,0.000108291,10,1.85851e-05,-2.72907,0.0429327,1.37424,97.7142,0.00995948,
2,1,0,1,0,12986,0.0117838,0.0114838,1.99748,7,0.00015681,10,2.29387e-05,-2.69952,0.0569923,1.03523,79.5118,0.0114838,
2,1,0,1,0,12986,0.0132834,0.0129834,2.10713,7,0.000208431,10,2.73578e-05,-2.67631,0.0669427,0.88135,71.9486,0.0129834,
2,1,0,1,0,12986,0.0147816,0.0143977,2.19381,7,0.000262625,10,3.15858e-05,-2.6588,0.0809901,0.728484,62.2337,0.0143977,
2,1,0,1,0,12986.1,0.0162811,0.0159554,2.28417,7,0.000319179,10,3.64449e-05,-2.64127,0.103785,0.568485,50.4721,0.0159554,
2,1,0,1,0,12986.1,0.0177753,0.0174417,2.36493,7,0.000377476,10,4.12484e-05,-2.62618,0.114556,0.515032,47.2853,0.0174417,
2,1,0,1,0,12986.1,0.0192761,0.0189564,2.43427,7,0.0004377,10,4.61449e-05,-2.61363,0.123508,0.477701,45.2118,0.0189564,
2,1,0,1,0,12986.1,0.020777,0.0204901,2.49514,7,0.00049967,10,5.11259e-05,-2.6029,0.13029,0.452837,43.9986,0.0204901,
2,1,0,1,0,12986.2,0.0222712,0.0219457,2.55859,7,0.000563016,10,5.615e-05,-2.592,0.15171,0.3889,38.7766,0.0219457,
2,1,0,1,0,12986.2,0.0237707,0.0234802,2.62362,7,0.000628174,10,6.1603e-05,-2.5811,0.158122,0.37313,38.0789,0.0234802,
2,1,0,1,0,12986.2,0.0252703,0.0249453,2.6734,7,0.000694743,10,6.66887e-05,-2.57294,0.155398,0.379671,39.6795,0.0249453,
2,1,0,1,0,12986.2,0.0267645,0.0264401,2.73148,7,0.00076251,10,7.22207e-05,-2.5636,0.152293,0.38741,41.353,0.0264401,
2,1,0,1,0,12986.3,0.0282653,0.02795,2.79292,7,0.000832008,10,7.80622e-05,-2.55394,0.169989,0.347081,37.8374,0.02795,
2,1,0,1,0,12986.3,0.0297648,0.029472,2.85454,7,0.000903003,10,8.4129e-05,-2.54446,0.182487,0.323311,35.8674,0.029472,
2,1,0,1,0,12986.3,0.031259,0.0309247,2.90619,7,0.000975111,10,8.98731e-05,-2.53668,0.171003,0.345022,39.0788,0.0309247,
2,1,0,1,0,12986.3,0.0327585,0.032452,2.95594,7,0.00104877,10,9.59262e-05,-2.5293,0.182622,0.323072,37.3746,0.032452,
2,1,0,1,0,12986.4,0.034258,0.0339434,3.01567,7,0.00112387,10,0.000102362,-2.52062,0.194374,0.303538,35.7076,0.0339434,
2,1,0,1,0,12986.4,0.0357576,0.0354539,3.0774,7,0.00120038,10,0.000109106,-2.51182,0.203348,0.290143,34.734,0.0354539,
2,1,0,1,0,12986.4,0.0372518,0.0369515,3.12692,7,0.001278,10,0.000115544,-2.50488,0.188864,0.312394,38.1213,0.0369515,
2,1,0,1,0,12986.4,0.0387526,0.0384438,3.1753,7,0.00135715,10,0.00012207,-2.49822,0.200434,0.294362,36.6201,0.0384438,
2,1,0,1,0,12986.5,0.0402534,0.039911,3.23609,7,0.00143775,10,0.000129155,-2.48998,0.200762,0.293881,37.1288,0.039911,
2,1,0,1,0,12986.5,0.0417476,0.0414617,3.29956,7,0.00151947,10,0.000136806,-2.48154,0.207186,0.284768,36.546,0.04146171,
2,1,0,1,0,12986.5,0.0432472,0.0429479,3.34706,7,0.00160288,10,0.000143749,-2.47534,0.213873,0.275864,35.9879,0.0429479,
2,1,0,1,0,12986.5,0.0447467,0.0444373,3.39414,7,0.00168752,10,0.000150826,-2.46927,0.2189,0.269529,35.7635,0.0444373,
2,1,0,1,0,12986.6,0.0462463,0.0459266,3.44559,7,0.00177349,10,0.000158244,-2.46274,0.225338,0.261829,35.2181,0.0459266,
2,1,0,1,0,12986.6,0.0477391,0.0474108,3.50127,7,0.00186043,10,0.000165998,-2.45577,0.227712,0.259099,35.4005,0.0474108,
2,1,0,1,0,12986.6,0.0492399,0.0489513,3.55766,7,0.00194905,10,0.000174152,-2.44884,0.233028,0.253188,35.076,0.0489513,
2,1,0,1,0,12986.6,0.0507408,0.050399,3.59481,7,0.00203894,10,0.000181175,-2.44432,0.244675,0.241136,33.93,0.050399,
2,1,0,1,0,12986.7,0.052235,0.0518963,3.65499,7,0.00212966,10,0.00018968,-2.43711,0.246581,0.239272,34.1418,0.0518963,
2,1,0,1,0,12986.7,0.0537345,0.0534442,3.71491,7,0.0022221,10,0.00019854,-2.43005,0.261185,0.225893,32.6635,0.0534442,
2,1,0,1,0,12986.7,0.0552341,0.054926,3.75876,7,0.00231589,10,0.000206454,-2.42496,0.251952,0.234171,34.3203,0.054926,
2,1,0,1,0,12986.7,0.0567283,0.0564115,3.79884,7,0.00241044,10,0.000214298,-2.42035,0.290841,0.20286,30.1276,0.0564115,
2,1,0,1,0,12986.8,0.0582291,0.0579334,3.8527,7,0.0025065,10,0.0002232,-2.41423,0.286887,0.205656,30.9123,0.0579334,
2,1,0,1,0,12986.8,0.0597299,0.0594351,3.90624,7,0.00260378,10,0.000232167,-2.40824,0.272317,0.216659,32.9498,0.0594351,
2,1,0,1,0,12986.8,0.0612228,0.0609344,3.9485,7,0.00270186,10,0.0002406,-2.40357,0.285198,0.206874,31.8317,0.0609344,
2,1,0,1,0,12986.8,0.0627223,0.0624129,3.99202,7,0.00280152,10,0.000249153,-2.39881,0.295309,0.199791,31.1266,0.0624129,
2,1,0,1,0,12986.9,0.0642218,0.0639375,4.03079,7,0.00290221,10,0.000257719,-2.39461,0.315726,0.186871,29.4637,0.0639375,
2,1,0,1,0,12986.9,0.0657214,0.065415,4.0883,7,0.00300408,10,0.000267436,-2.38846,0.311302,0.189527,30.1838,0.065415,
2,1,0,1,0,12986.9,0.0672156,0.0669396,4.13234,7,0.00310677,10,0.000276618,-2.3838,0.287222,0.205416,33.0663,0.0669396,
2,1,0,1,0,12986.9,0.0687164,0.0683938,4.17177,7,0.00321094,10,0.000285323,-2.37968,0.372757,0.15828,25.7628,0.0683938,
2,1,0,1,0,12987,0.0702172,0.0699097,4.20888,7,0.00331611,10,0.000294242,-2.37583,0.389873,0.151331,24.8702,0.0699097,
2,1,0,1,0,12987,0.0717114,0.0713953,4.26243,7,0.00342184,10,0.000304317,-2.37034,0.341165,0.172937,28.6687,0.0713953,
2,1,0,1,0,12987,0.073211,0.0728707,4.29667,7,0.0035291,10,0.000313101,-2.36687,0.337492,0.174819,29.2752,0.0728707,
2,1,0,1,0,12987,0.0747105,0.074368,4.32909,7,0.00363738,10,0.000321946,-2.3636,0.391928,0.150538,25.4577,0.074368,
2,1,0,1,0,12987.1,0.0762101,0.0758612,4.36588,7,0.00374657,10,0.0003312,-2.35993,0.452732,0.13032,22.2407,0.0758612,
2,1,0,1,0,12987.1,0.0777042,0.0773917,4.41216,7,0.00385619,10,0.000341464,-2.35535,0.397621,0.148383,25.5284,0.0773917,
2,1,0,1,0,12987.1,0.0792037,0.0788793,4.44681,7,0.00396724,10,0.000350761,-2.35195,0.378373,0.155931,27.0303,0.0788793,
2,1,0,1,0,12987.1,0.0807046,0.0803974,4.47575,7,0.00407925,10,0.000359839,-2.34913,0.454311,0.129867,22.6945,0.0803974,
2,1,0,1,0,12987.2,0.0821988,0.0818915,4.51204,7,0.00419162,10,0.000369498,-2.34563,0.526417,0.112078,19.7508,0.0818915,
2,1,0,1,0,12987.2,0.0836983,0.0833862,4.54737,7,0.00430522,10,0.000379188,-2.34224,0.440743,0.133865,23.7748,0.0833862,
2,1,0,1,0,12987.2,0.0851979,0.0848696,4.586,7,0.00441978,10,0.000389212,-2.33857,0.403603,0.146183,26.1628,0.0848696,
2,1,0,1,0,12987.2,0.0866921,0.0863788,4.61736,7,0.00453484,10,0.000398842,-2.33561,0.45041,0.130992,23.641,0.0863788,
2,1,0,1,0,12987.3,0.0881929,0.0878754,4.66472,7,0.00465131,10,0.000409914,-2.33117,0.483198,0.122103,22.1988,0.0878754,
2,1,0,1,0,12987.3,0.0896937,0.0893896,4.69977,7,0.00476859,10,0.00042011,-2.32792,0.438497,0.13455,24.6725,0.0893896,
2,1,0,1,0,12987.3,0.0911879,0.0908749,4.73932,7,0.00488637,10,0.000430685,-2.32428,0.330992,0.178252,32.9463,0.09087491,
2,1,0,1,0,12987.3,0.0926861,0.0923292,4.77918,7,0.00500574,10,0.000441258,-2.32065,0.339164,0.173957,32.4693,0.0923292,
2,1,0,1,0,12987.4,0.0941856,0.0938507,4.82825,7,0.00512625,10,0.000453135,-2.31621,0.345005,0.171012,32.2474,0.0938507,
2,1,0,1,0,12987.4,0.0956852,0.0953834,4.87838,7,0.00524792,10,0.000465317,-2.31172,0.31872,0.185116,35.2785,0.0953834,
2,1,0,1,0,12987.4,0.0971794,0.0968773,4.93196,7,0.00537045,10,0.000477795,-2.30698,0.279768,0.210889,40.6152,0.0968773,
2,1,0,1,0,12987.4,0.0986802,0.0984269,4.99046,7,0.00549495,10,0.000491196,-2.30186,0.264236,0.223285,43.5591,0.0984269,
2,1,0,1,0,12987.5,0.100181,0.0998876,5.05843,7,0.00562101,10,0.000505275,-2.29598,0.282776,0.208646,41.1997,0.0998876,
2,1,0,1,0,12987.5,0.101675,0.10139,5.12556,7,0.00574821,10,0.000519682,-2.29026,0.252828,0.233361,46.6973,0.10139,
2,1,0,1,0,12987.5,0.103175,0.102848,5.20279,7,0.00587763,10,0.000535097,-2.28376,0.223647,0.263809,53.6037,0.102848,
2,1,0,1,0,12987.5,0.104674,0.104381,5.27136,7,0.006009,10,0.00055023,-2.27808,0.221133,0.266807,55.0156,0.104381,
2,1,0,1,0,12987.6,0.106169,0.105851,5.36064,7,0.00614195,10,0.00056743,-2.27078,0.226806,0.260134,54.4367,0.105851,
2,1,0,1,0,12987.6,0.107668,0.107371,5.45344,7,0.00627752,10,0.000585543,-2.26333,0.223119,0.264433,56.2119,0.107371,
2,1,0,1,0,12987.6,0.109169,0.108851,5.5345,7,0.00641516,10,0.000602438,-2.25692,0.209321,0.281864,60.9398,0.108851,
2,1,0,1,0,12987.6,0.110663,0.110302,5.61949,7,0.00655448,10,0.000619843,-2.2503,0.211387,0.279109,61.2661,0.110302,
2,1,0,1,0,12987.7,0.112163,0.111868,5.71641,7,0.00669664,10,0.000639481,-2.24288,0.230605,0.255849,57.0194,0.111868,
2,1,0,1,0,12987.7,0.113662,0.113349,5.80784,7,0.00684104,10,0.000658316,-2.23599,0.23533,0.250712,56.7458,0.113349,
2,1,0,1,0,12987.7,0.115162,0.114818,5.88737,7,0.0069875,10,0.000675974,-2.23008,0.240025,0.245808,56.4129,0.114818,
2,1,0,1,0,12987.7,0.116656,0.116293,5.96063,7,0.00713544,10,0.000693182,-2.22471,0.250535,0.235496,54.8123,0.116293,
2,1,0,1,0,12987.8,0.118157,0.117889,6.05662,7,0.00728607,10,0.000714011,-2.21777,0.278603,0.211771,49.9329,0.117889,
2,1,0,1,0,12987.8,0.119657,0.119339,6.13017,7,0.00743864,10,0.000731569,-2.21253,0.309034,0.190917,45.5609,0.119339,
2,1,0,1,0,12987.8,0.121152,0.120863,6.18418,7,0.00759229,10,0.000747438,-2.20872,0.307759,0.191709,46.2568,0.120863,
2,1,0,1,0,12987.8,0.122651,0.122333,6.24633,7,0.00774815,10,0.000764133,-2.20438,0.329365,0.179132,43.6896,0.122333,
2,1,0,1,0,12987.9,0.124151,0.123846,6.31485,7,0.0079056,10,0.000782069,-2.19964,0.381586,0.154618,38.0525,0.123846,
2,1,0,1,0,12987.9,0.125649,0.125301,6.37038,7,0.00806454,10,0.000798218,-2.19583,0.417832,0.141205,35.057,0.125301,
2,1,0,1,0,12987.9,0.127143,0.12684,6.41219,7,0.00822414,10,0.000813321,-2.19299,0.422589,0.139615,34.9543,0.12684,
2,1,0,1,0,12987.9,0.128644,0.128294,6.46076,7,0.00838551,10,0.000828875,-2.18972,0.452861,0.130283,32.9071,0.128294,
2,1,0,1,0,12988,0.130145,0.129784,6.51876,7,0.00854819,10,0.000846028,-2.18584,0.486785,0.121203,30.8117,0.129784,
2,1,0,1,0,12988,0.131639,0.131339,6.5711,7,0.00871152,10,0.000863043,-2.18236,0.504771,0.116885,29.9058,0.131339,
2,1,0,1,0,12988,0.133139,0.132808,6.60944,7,0.00887666,10,0.000877788,-2.17984,0.506437,0.1165,30.053,0.132808,
2,1,0,1,0,12988,0.134638,0.134324,6.64885,7,0.00904277,10,0.0008931,-2.17725,0.573976,0.102792,26.6976,0.134324,
2,1,0,1,0,12988.1,0.136132,0.135795,6.69017,7,0.00920934,10,0.000908494,-2.17456,0.613198,0.0962168,25.1256,0.135795,
2,1,0,1,0,12988.1,0.137633,0.137327,6.74271,7,0.00937758,10,0.000925956,-2.17117,0.700991,0.0841665,22.0945,0.137327,
2,1,0,1,0,12988.1,0.139133,0.1388,6.76657,7,0.00954677,10,0.000939201,-2.16963,0.812132,0.0726483,19.1419,0.1388,
2,1,0,1,0,12988.1,0.140627,0.140312,6.77621,7,0.0097158,10,0.000950781,-2.16901,1.73212,0.0340623,9.00747,0.140312,
2,1,0,1,0,12988.2,0.142126,0.141822,6.79099,7,0.00988589,10,0.000963113,-2.16807,-19.6879,-0.00299676,-0.792676,0.141822,
2,1,0,1,0,12988.2,0.143626,0.143353,6.78669,7,0.010056,10,0.000972894,-2.16834,-1.11824,-0.0527616,-13.9295,0.143353,
2,1,0,1,0,12988.2,0.145125,0.144824,6.75537,7,0.0102258,10,0.000978342,-2.17035,-0.543819,-0.108492,-28.4999,0.144824,
2,1,0,1,0,12988.2,0.14662,0.146294,6.68766,7,0.0103936,10,0.000978368,-2.17473,-0.332293,-0.177554,-46.2702,0.146294,
2,1,0,1,0,12988.3,0.14812,0.14781,6.60947,7,0.0105604,10,0.000976944,-2.17983,-0.223143,-0.264404,-67.9458,0.14781,
2,1,0,1,0,12988.3,0.149621,0.149288,6.506,7,0.0107247,10,0.00097127,-2.18669,-0.176718,-0.333865,-84.3019,0.149288,
2,1,0,1,0,12988.3,0.151116,0.150858,6.36136,7,0.0108852,10,0.000959659,-2.19645,-0.13792,-0.427784,-105.546,0.150858,
2,1,0,1,0,12988.3,0.152615,0.152286,6.17902,7,0.0110424,10,0.00094098,-2.20908,-0.115065,-0.512755,-123.241,0.152286,
2,1,0,1,0,12988.4,0.154115,0.153804,5.98337,7,0.0111949,10,0.000920268,-2.22305,-0.0996573,-0.592029,-138.084,0.153804,
2,1,0,1,0,12988.4,0.155614,0.155325,5.77799,7,0.0113423,10,0.000897467,-2.23822,-0.0914558,-0.645121,-144.929,0.155325,
2,1,0,1,0,12988.4,0.157107,0.156821,5.55273,7,0.0114837,10,0.000870783,-2.25549,-0.0854504,-0.690459,-149.119,0.1568208,
2,1,0,1,0,12988.4,0.158608,0.158327,5.31402,7,0.0116199,10,0.000841353,-2.27458,-0.0780675,-0.755756,-156.806,0.158327,
2,1,0,1,0,12988.5,0.160109,0.159815,5.08892,7,0.0117502,10,0.000813287,-2.29337,-0.0758167,-0.778192,-154.509,0.159815,
2,1,0,1,0,12988.5,0.161603,0.161311,4.86859,7,0.0118744,10,0.000785356,-2.3126,-0.0795739,-0.741449,-140.841,0.1613107,
2,1,0,1,0,12988.5,0.163102,0.162819,4.6576,7,0.0119938,10,0.000758343,-2.33184,-0.0833088,-0.708209,-128.854,0.162819,
2,1,0,1,0,12988.5,0.164602,0.16428,4.46246,7,0.0121082,10,0.000733095,-2.35043,-0.0822864,-0.717008,-125.222,0.16428,
2,1,0,1,0,12988.6,0.166096,0.165753,4.28557,7,0.0122174,10,0.000710345,-2.36799,-0.0876639,-0.673025,-113.044,0.165753,
2,1,0,1,0,12988.6,0.167597,0.167327,4.13949,7,0.012323,10,0.00069265,-2.38305,-0.0990628,-0.595582,-96.2828,0.167327,
2,1,0,1,0,12988.6,0.169098,0.168807,3.99694,7,0.012425,10,0.000674712,-2.39827,-0.107005,-0.551377,-86.1216,0.168807,
2,1,0,1,0,12988.6,0.170592,0.170286,3.86491,7,0.0125232,10,0.000658139,-2.41286,-0.108189,-0.545343,-82.5307,0.1702856,
2,1,0,1,0,12988.7,0.17209,0.171809,3.74287,7,0.0126187,10,0.00064306,-2.42679,-0.117543,-0.501942,-73.618,0.171809,
2,1,0,1,0,12988.7,0.17359,0.173267,3.64548,7,0.0127114,10,0.000631643,-2.43825,-0.131143,-0.449892,-64.136,0.173267,
2,1,0,1,0,12988.7,0.175089,0.174787,3.55334,7,0.0128018,10,0.000621078,-2.44936,-0.141017,-0.41839,-58.1129,0.174787,
2,1,0,1,0,12988.7,0.176583,0.176294,3.46423,7,0.0128896,10,0.000610722,-2.46039,-0.144845,-0.407332,-55.2196,0.176294,
2,1,0,1,0,12988.8,0.178084,0.177778,3.3906,7,0.0129758,10,0.000602776,-2.46972,-0.150893,-0.391006,-51.8374,0.177778,
2,1,0,1,0,12988.8,0.179585,0.179213,3.32593,7,0.01306,10,0.000596052,-2.47809,-0.169792,-0.347483,-45.1138,0.179213,
2,1,0,1,0,12988.8,0.181079,0.180759,3.26154,7,0.0131423,10,0.000589555,-2.48658,-0.189673,-0.311061,-39.6305,0.1807594,
2,1,0,1,0,12988.8,0.182579,0.182268,3.19959,7,0.0132235,10,0.000583184,-2.49491,-0.195629,-0.301591,-37.7646,0.182268,
2,1,0,1,0,12988.9,0.184078,0.183765,3.15062,7,0.0133033,10,0.000578972,-2.5016,-0.198962,-0.296539,-36.4865,0.183765,
2,1,0,1,0,12988.9,0.185578,0.185248,3.10638,7,0.0133818,10,0.00057545,-2.50775,-0.227603,-0.259224,-31.4039,0.185248,
2,1,0,1,0,12988.9,0.187072,0.186773,3.05623,7,0.0134588,10,0.00057082,-2.51481,-0.278666,-0.211723,-25.2645,0.186773,
2,1,0,1,0,12988.9,0.188573,0.188247,3.01547,7,0.0135351,10,0.000567654,-2.52064,-0.269795,-0.218685,-25.7841,0.188247,
2,1,0,1,0,12989,0.190072,0.189771,2.97669,7,0.0136104,10,0.000564889,-2.52627,-0.258349,-0.228373,-26.5692,0.189771,
2,1,0,1,0,12989,0.191567,0.191214,2.94747,7,0.0136845,10,0.000563599,-2.53055,-0.312809,-0.188614,-21.6809,0.191214,
2,1,0,1,0,12989,0.193066,0.192748,2.91147,7,0.0137581,10,0.000561179,-2.53589,-0.406319,-0.145206,-16.5347,0.192748,
2,1,0,1,0,12989,0.194566,0.194235,2.87604,7,0.0138309,10,0.000558628,-2.5412,-0.357349,-0.165105,-18.6109,0.194235,
2,1,0,1,0,12989.1,0.19606,0.195734,2.85677,7,0.0139029,10,0.000559166,-2.54412,-0.321504,-0.183513,-20.4725,0.195734,
2,1,0,1,0,12989.1,0.197561,0.197251,2.83429,7,0.0139744,10,0.000559067,-2.54756,-0.371428,-0.158847,-17.5706,0.197251,
2,1,0,1,0,12989.1,0.199062,0.19874,2.81262,7,0.0140452,10,0.000558981,-2.55089,-0.534856,-0.11031,-12.0939,0.19874,
2,1,0,1,0,12989.1,0.200556,0.200271,2.7855,7,0.0141152,10,0.000557855,-2.5551,-0.51728,-0.114058,-12.4038,0.200271,
2,1,0,1,0,12989.2,0.202055,0.201723,2.76603,7,0.0141851,10,0.000557971,-2.55814,-0.435412,-0.135504,-14.6327,0.201723,
2,1,0,1,0,12989.2,0.203553,0.203244,2.75355,7,0.0142544,10,0.000559643,-2.56011,-0.511446,-0.115359,-12.3859,0.203244,
2,1,0,1,0,12989.2,0.205053,0.204747,2.72703,7,0.0143233,10,0.000558353,-2.56431,-1.07955,-0.0546524,-5.84615,0.2047475,
2,1,0,1,0,12989.2,0.206547,0.206236,2.70584,7,0.0143914,10,0.000558041,-2.5677,-0.852098,-0.0692409,-7.35087,0.2062356,
2,1,0,1,0,12989.3,0.208048,0.207748,2.70177,7,0.0144597,10,0.000561285,-2.56835,-0.527381,-0.111874,-11.7733,0.207748,
2,1,0,1,0,12989.3,0.209549,0.209256,2.69355,7,0.0145275,10,0.00056364,-2.56968,-0.536569,-0.109958,-11.5304,0.2092557,
2,1,0,1,0,12989.3,0.211043,0.210737,2.67308,7,0.0145945,10,0.000563318,-2.57299,-0.808646,-0.0729615,-7.60962,0.2107373,
2,1,0,1,0,12989.3,0.212543,0.212233,2.65149,7,0.0146615,10,0.000562736,-2.57651,-0.884359,-0.066715,-6.92682,0.212233,
2,1,0,1,0,12989.4,0.214042,0.21373,2.64765,7,0.0147282,10,0.000565881,-2.57714,-0.702836,-0.0839457,-8.67662,0.21373,
2,1,0,1,0,12989.4,0.215536,0.215244,2.64054,7,0.0147944,10,0.00056836,-2.57831,-0.744485,-0.0792494,-8.14898,0.215244,
2,1,0,1,0,12989.4,0.217036,0.216735,2.62167,7,0.0148606,10,0.000568208,-2.58142,-0.993014,-0.0594151,-6.0941,0.216735,
2,1,0,1,0,12989.4,0.218537,0.218272,2.61099,7,0.0149264,10,0.000569907,-2.58319,-1.49451,-0.0394777,-4.03545,0.218272,
2,1,0,1,0,12989.5,0.220031,0.219831,2.61257,7,0.0149918,10,0.000574323,-2.58293,-0.81771,-0.0721527,-7.34285,0.219831,
2,1,0,1,0,12989.5,0.22153,0.221249,2.60817,7,0.0150574,10,0.000577055,-2.58366,-0.919238,-0.0641836,-6.4963,0.221249,
2,1,0,1,0,12989.5,0.22303,0.222721,2.58014,7,0.0151226,10,0.000574651,-2.58836,-1.04861,-0.0562649,-5.68756,0.222721,
2,1,0,1,0,12989.5,0.224529,0.224215,2.57538,7,0.0151875,10,0.000577439,-2.58916,-1.24164,-0.0475177,-4.79192,0.224215,
2,1,0,1,0,12989.6,0.226024,0.225728,2.57385,7,0.015252,10,0.000580991,-2.58942,-1.09346,-0.053957,-5.4199,0.225728,
2,1,0,1,0,12989.6,0.227525,0.227251,2.57127,7,0.0153167,10,0.000584324,-2.58985,-0.896584,-0.0658053,-6.56809,0.227251,
2,1,0,1,0,12989.6,0.229025,0.228698,2.55925,7,0.0153811,10,0.000585296,-2.59189,-1.7554,-0.0336106,-3.35423,0.228698,
2,1,0,1,0,12989.6,0.23052,0.230266,2.54684,7,0.015445,10,0.000586451,-2.594,-1.51918,-0.0388366,-3.86832,0.230266,
2,1,0,1,0,12989.7,0.232019,0.231734,2.5435,7,0.015509,10,0.000589415,-2.59457,-1.43898,-0.0410013,-4.07094,0.231734,
2,1,0,1,0,12989.7,0.233519,0.233164,2.54389,7,0.0155729,10,0.000593142,-2.5945,-1.38733,-0.0425278,-4.20368,0.233164,
2,1,0,1,0,12989.7,0.235018,0.234751,2.53324,7,0.0156367,10,0.00059468,-2.59632,-1.60154,-0.0368396,-3.63966,0.234751,
2,1,0,1,0,12989.7,0.236511,0.236205,2.51984,7,0.0157,10,0.000595201,-2.59863,-1.49116,-0.0395666,-3.90079,0.236205,
2,1,0,1,0,12989.8,0.238012,0.237738,2.51996,7,0.0157634,10,0.000599092,-2.59861,-1.29259,-0.0456447,-4.48717,0.237738,
2,1,0,1,0,12989.8,0.239513,0.239159,2.52014,7,0.0158267,10,0.000602715,-2.59857,-2.42641,-0.0243158,-2.38293,0.239159,
2,1,0,1,0,12989.8,0.241007,0.240745,2.5098,7,0.0158896,10,0.000604221,-2.60036,-2.46148,-0.0239693,-2.34712,0.240745,
2,1,0,1,0,12989.8,0.242506,0.2422,2.4953,7,0.0159526,10,0.000604361,-2.60288,-1.63683,-0.0360454,-3.52403,0.2422,
2,1,0,1,0,12989.9,0.244006,0.243718,2.4973,7,0.0160154,10,0.000608639,-2.60253,-1.62329,-0.036346,-3.54469,0.243718,
2,1,0,1,0,12989.9,0.2455,0.245192,2.50039,7,0.0160779,10,0.000613077,-2.60199,-3.31013,-0.0178241,-1.73131,0.245192,
2,1,0,1,0,12989.9,0.247001,0.246656,2.49136,7,0.0161406,10,0.000614509,-2.60356,-1.67066,-0.0353155,-3.42243,0.246656,
2,1,0,1,0,12989.9,0.248502,0.248189,2.47553,7,0.0162031,10,0.0006144,-2.60633,-1.51026,-0.0390662,-3.78624,0.248189,
2,1,0,1,0,12990,0.249995,0.249662,2.47543,7,0.0162651,10,0.000618021,-2.60635,-1.03585,-0.0569579,-5.50859,0.249662,
2,1,0,1,0,12990,0.251494,0.251199,2.47579,7,0.0163274,10,0.000621915,-2.60629,-4.32694,-0.0136355,-1.31465,0.251199,
2,1,0,1,0,12990,0.252994,0.252685,2.46291,7,0.0163895,10,0.00062234,-2.60855,-2.08116,-0.0283495,-2.72584,0.252685,
2,1,0,1,0,12990,0.254493,0.254209,2.46183,7,0.0164516,10,0.00062582,-2.60874,-1.47651,-0.0399592,-3.84636,0.254209,
2,1,0,1,0,12990.1,0.255988,0.255711,2.45632,7,0.0165131,10,0.000628109,-2.60972,-1.16358,-0.0507057,-4.86765,0.2557112,
2,1,0,1,0,12990.1,0.257488,0.257183,2.45499,7,0.0165749,10,0.000631381,-2.60995,-5.64863,-0.010445,-0.999248,0.257183,
2,1,0,1,0,12990.1,0.258989,0.258728,2.4542,7,0.0166366,10,0.00063497,-2.61009,-4.19048,-0.0140795,-1.34483,0.258728,
2,1,0,1,0,12990.1,0.260483,0.260204,2.44599,7,0.016698,10,0.000636458,-2.61154,-1.06406,-0.0554479,-5.29036,0.260204,
2,1,0,1,0,12990.2,0.261983,0.261703,2.43902,7,0.0167594,10,0.000638299,-2.61279,-1.25051,-0.0471807,-4.49727,0.261703,
2,1,0,1,0,12990.2,0.263482,0.263155,2.4372,7,0.0168206,10,0.000641361,-2.61311,-8.61292,-0.00685017,-0.650382,0.263155,
2,1,0,1,0,12990.2,0.264982,0.264679,2.43431,7,0.0168819,10,0.00064431,-2.61362,-2.41779,-0.0244024,-2.31643,0.264679,
2,1,0,1,0,12990.2,0.266476,0.266148,2.42212,7,0.0169428,10,0.000644642,-2.6158,-1.48181,-0.0398163,-3.77324,0.266148,
2,1,0,1,0,12990.3,0.267976,0.267703,2.41397,7,0.0170037,10,0.000646226,-2.61727,-1.05162,-0.0561041,-5.29676,0.267703,
2,1,0,1,0,12990.3,0.269477,0.26917,2.41997,7,0.0170645,10,0.000651383,-2.61619,-2.59172,-0.0227648,-2.14491,0.26917,
2,1,0,1,0,12990.3,0.270971,0.270645,2.41557,7,0.017125,10,0.000653762,-2.61698,-3.62566,-0.0162729,-1.53181,0.270645,
2,1,0,1,0,12990.3,0.27247,0.272171,2.4066,7,0.0171857,10,0.000655005,-2.6186,-1.55603,-0.037917,-3.56365,0.2721706,
2,1,0,1,0,12990.4,0.27397,0.273673,2.40007,7,0.0172463,10,0.000656836,-2.61978,-1.0988,-0.0536951,-5.03864,0.273673,
2,1,0,1,0,12990.4,0.275464,0.275174,2.4015,7,0.0173064,10,0.000660831,-2.61952,-1.89221,-0.0311805,-2.921,0.275174,
2,1,0,1,0,12990.4,0.276965,0.27663,2.39181,7,0.0173667,10,0.000661648,-2.62127,-6.55292,-0.00900362,-0.840582,0.27663,
2,1,0,1,0,12990.4,0.278466,0.278163,2.38744,7,0.0174269,10,0.000664097,-2.62207,-1.29863,-0.0454325,-4.2364,0.278163,
2,1,0,1,0,12990.5,0.27996,0.279695,2.38621,7,0.0174868,10,0.000667409,-2.62229,-1.11795,-0.0527753,-4.90847,0.279695,
2,1,0,1,0,12990.5,0.281458,0.281167,2.38486,7,0.0175466,10,0.000670544,-2.62254,-1.92866,-0.0305912,-2.83923,0.281167,
2,1,0,1,0,12990.5,0.282958,0.282636,2.37569,7,0.0176064,10,0.000671458,-2.62421,878.726,6.71427e-05,0.00621812,0.2826364,
2,1,0,1,0,12990.5,0.284457,0.284173,2.367,7,0.0176662,10,0.000672637,-2.6258,-1.98493,-0.029724,-2.75144,0.284173,
2,1,0,1,0,12990.6,0.285951,0.285639,2.36641,7,0.0177256,10,0.000675937,-2.62591,-0.640743,-0.0920807,-8.49681,0.2856386,
2,1,0,1,0,12990.6,0.287452,0.287145,2.36207,7,0.017785,10,0.000678256,-2.62671,-1.5902,-0.0371022,-3.41127,0.2871452,
2,1,0,1,0,12990.6,0.288953,0.288648,2.35624,7,0.0178443,10,0.000680123,-2.62778,-4.21825,-0.0139868,-1.28466,0.288648,
2,1,0,1,0,12990.6,0.290447,0.290133,2.34648,7,0.0179033,10,0.00068079,-2.62958,-1.854,-0.0318231,-2.92128,0.290133,
2,1,0,1,0,12990.7,0.291947,0.291624,2.34779,7,0.0179624,10,0.000684674,-2.62934,-0.888689,-0.06639,-6.08437,0.291624,
2,1,0,1,0,12990.7,0.293446,0.29316,2.33733,7,0.0180214,10,0.000685214,-2.63128,-1.18816,-0.0496566,-4.53071,0.29316,
2,1,0,1,0,12990.7,0.29494,0.294643,2.33777,7,0.0180799,10,0.000688809,-2.6312,-6.35855,-0.00927884,-0.84647,0.294643,
2,1,0,1,0,12990.7,0.29644,0.296095,2.3295,7,0.0181387,10,0.000689755,-2.63274,-3.6988,-0.0159511,-1.45356,0.296095,
2,1,0,1,0,12990.8,0.297941,0.29761,2.33219,7,0.0181974,10,0.000694082,-2.63224,-1.42621,-0.0413683,-3.75856,0.2976096,
2,1,0,1,0,12990.8,0.29944,0.299126,2.32404,7,0.0182559,10,0.000695182,-2.63376,-0.00586156,-10.0656,-655.293,0.299126,
2,1,0,1,0,12990.8,0.299736,0.299435,1.79711,7,0.0182857,10,0.000538117,-2.74543,0.00101944,57.8751,1786.31,0.299435,
2,1,0,1,0,12990.8,0.298238,0.297945,0.38647,7,0.0183095,10,0.000115147,-3.41288,0.00410866,14.3599,673.681,0.297945,
2,0,0,1,0,12990.9,0.296744,0.296407,-0.154992,7,0.018311,10,-4.59408e-05,-3.80969,0.0253724,2.32536,292.45,0.296407,
2,0,0,1,0,12990.9,0.295243,0.294917,-0.428695,7,0.0183029,10,-0.00012643,-3.36785,-0.00279823,-21.0847,146.811,0.294917,
2,0,0,1,0,12990.9,0.293742,0.293437,-0.577552,7,0.0182898,10,-0.000169475,-3.23841,-0.0129583,-4.55307,89.9559,0.293437,
2,0,0,1,0,12990.9,0.292248,0.291906,-0.674238,7,0.0182737,10,-0.000196814,-3.17119,-0.0234414,-2.51691,63.7218,0.291906,
2,0,0,1,0,12991,0.290748,0.290451,-0.760008,7,0.0182554,10,-0.000220745,-3.11918,-0.0345159,-1.70936,49.3196,0.290451,
2,0,0,1,0,12991,0.289249,0.288955,-0.824887,7,0.0182352,10,-0.000238355,-3.08361,-0.0474461,-1.24352,39.3679,0.288955,
2,0,0,1,0,12991,0.287754,0.287393,-0.874809,7,0.0182136,10,-0.000251414,-3.05809,-0.0575561,-1.02509,34.6182,0.287393,
2,0,0,1,0,12991,0.286254,0.28593,-0.913038,7,0.0181907,10,-0.000261065,-3.03951,-0.0684968,-0.861355,30.8943,0.28593,
2,0,0,1,0,12991.1,0.284754,0.28448,-0.965289,7,0.0181667,10,-0.000274605,-3.01534,-0.0861171,-0.685114,25.6988,0.28448,
2,0,0,1,0,12991.1,0.28326,0.282919,-1.00961,7,0.0181418,10,-0.000285637,-2.99585,-0.0904928,-0.651986,25.3148,0.282919,
2,0,0,1,0,12991.1,0.28176,0.28141,-1.04198,7,0.0181158,10,-0.000293225,-2.98214,-0.10296,-0.573037,23.1156,0.28141,
2,0,0,1,0,12991.1,0.280261,0.279974,-1.06415,7,0.0180889,10,-0.000297934,-2.973,-0.116225,-0.507636,21.247,0.279974,
2,0,0,1,0,12991.2,0.278761,0.278456,-1.09886,7,0.0180614,10,-0.000305983,-2.95906,-0.141929,-0.415699,17.8916,0.278456,
2,0,0,1,0,12991.2,0.277267,0.276949,-1.13449,7,0.0180331,10,-0.000314195,-2.9452,-0.137247,-0.429882,18.9278,0.276949,
2,0,0,1,0,12991.2,0.275766,0.275398,-1.1586,7,0.0180041,10,-0.000319076,-2.93607,-0.159312,-0.370341,16.7108,0.275398,
2,0,0,1,0,12991.2,0.274265,0.273944,-1.18342,7,0.0179743,10,-0.000324192,-2.92686,-0.159712,-0.369416,17.0692,0.273944,
2,0,0,1,0,12991.3,0.272771,0.272461,-1.20855,7,0.0179441,10,-0.000329283,-2.91773,-0.16905,-0.349008,16.518,0.272461,
2,0,0,1,0,12991.3,0.271272,0.270937,-1.24005,7,0.0179131,10,-0.000335976,-2.90656,-0.178906,-0.329783,15.8508,0.270937,
2,0,0,1,0,12991.3,0.269772,0.269441,-1.26401,7,0.0178814,10,-0.000340575,-2.89825,-0.173082,-0.34088,16.7039,0.269441,
2,0,0,1,0,12991.3,0.268273,0.267956,-1.27608,7,0.0178493,10,-0.000341934,-2.89412,-0.201876,-0.292258,14.6209,0.267956,
2,0,0,1,0,12991.4,0.26678,0.266449,-1.29794,7,0.0178167,10,-0.000345834,-2.88675,-0.233428,-0.252755,12.845,0.266449,
2,0,0,1,0,12991.4,0.265279,0.264975,-1.32512,7,0.0177835,10,-0.000351122,-2.87775,-0.218082,-0.27054,13.9061,0.2649748,
2,0,0,1,0,12991.4,0.263778,0.263449,-1.34372,7,0.0177498,10,-0.000354003,-2.87169,-0.203739,-0.289587,15.1169,0.263449,
2,0,0,1,0,12991.4,0.262284,0.261992,-1.35724,7,0.0177157,10,-0.000355586,-2.86734,-0.263668,-0.223767,11.9082,0.261992,
2,0,0,1,0,12991.5,0.260784,0.260539,-1.3745,7,0.0176811,10,-0.00035811,-2.86186,-0.28728,-0.205375,11.0692,0.260539,
2,0,0,1,0,12991.5,0.259285,0.258999,-1.39875,7,0.0176461,10,-0.000362275,-2.85426,-0.248936,-0.237009,12.9314,0.258999,
2,0,0,1,0,12991.5,0.257791,0.257504,-1.41862,7,0.0176106,10,-0.000365302,-2.84813,-0.224048,-0.263336,14.5327,0.2575044,
2,0,0,1,0,12991.5,0.25629,0.255996,-1.43135,7,0.0175745,10,-0.000366418,-2.84426,-0.308803,-0.19106,10.6803,0.255996,
2,0,0,1,0,12991.6,0.254789,0.254459,-1.44669,7,0.0175381,10,-0.000368124,-2.83962,-0.445512,-0.132432,7.48699,0.254459,
2,0,0,1,0,12991.6,0.253296,0.252982,-1.46861,7,0.0175014,10,-0.000371532,-2.83309,-0.306529,-0.192477,11.0165,0.2529822,
2,0,0,1,0,12991.6,0.251797,0.251504,-1.48319,7,0.0174642,10,-0.000373029,-2.8288,-0.257007,-0.229566,13.2743,0.251504,
2,0,0,1,0,12991.6,0.250297,0.250024,-1.4945,7,0.0174265,10,-0.00037366,-2.8255,-0.333201,-0.17707,10.3555,0.250024,
2,0,0,1,0,12991.7,0.248797,0.248445,-1.51447,7,0.0173884,10,-0.000376261,-2.81974,-0.417289,-0.141389,8.36838,0.248445,
2,0,0,1,0,12991.7,0.247303,0.246997,-1.52593,7,0.0173502,10,-0.000376901,-2.81647,-0.34499,-0.171019,10.2223,0.246997,
2,0,0,1,0,12991.7,0.245802,0.245519,-1.54348,7,0.0173114,10,-0.000378954,-2.8115,-0.281716,-0.209431,12.5931,0.2455188,
2,0,0,1,0,12991.7,0.244302,0.244008,-1.55571,7,0.0172721,10,-0.000379605,-2.80807,-0.312264,-0.188943,11.4716,0.244008,
2,0,0,1,0,12991.8,0.242807,0.242514,-1.57263,7,0.0172327,10,-0.000381384,-2.80337,-0.653335,-0.0903059,5.54953,0.242514,
2,0,0,1,0,12991.8,0.241308,0.241007,-1.58713,7,0.0171928,10,-0.00038251,-2.79939,-0.415575,-0.141972,8.79263,0.241007,
2,0,0,1,0,12991.8,0.239808,0.239505,-1.59807,7,0.0171526,10,-0.000382746,-2.7964,-0.284675,-0.207254,12.9258,0.239505,
2,0,0,1,0,12991.8,0.238309,0.237943,-1.60917,7,0.017112,10,-0.000382892,-2.7934,-0.318062,-0.185498,11.6967,0.237943,
2,0,0,1,0,12991.9,0.236815,0.236476,-1.62954,7,0.0170712,10,-0.000385348,-2.78793,-0.489502,-0.120531,7.66505,0.236476,
2,0,0,1,0,12991.9,0.235315,0.235007,-1.63978,7,0.0170299,10,-0.000385361,-2.78521,-0.516449,-0.114242,7.30567,0.235007,
2,0,0,1,0,12991.9,0.233814,0.233524,-1.6542,7,0.0169883,10,-0.000386295,-2.78141,-0.332415,-0.177489,11.46,0.233524,
2,0,0,1,0,12991.9,0.23232,0.231978,-1.66959,7,0.0169465,10,-0.00038731,-2.77739,-0.387505,-0.152256,9.9363,0.231978,
2,0,0,1,0,12992,0.230821,0.230542,-1.68218,7,0.0169041,10,-0.000387812,-2.77413,-0.663993,-0.0888563,5.81904,0.230542,
2,0,0,1,0,12992,0.229321,0.22897,-1.70047,7,0.0168614,10,-0.000389357,-2.76943,-0.520935,-0.113258,7.49623,0.22897,
2,0,0,1,0,12992,0.227827,0.227488,-1.70784,7,0.0168187,10,-0.000388512,-2.76755,-0.446145,-0.132244,8.83939,0.227488,
2,0,0,1,0,12992,0.226326,0.226044,-1.7195,7,0.0167753,10,-0.000388683,-2.7646,-0.428037,-0.137839,9.281,0.226044,
2,0,0,1,0,12992.1,0.224825,0.224515,-1.73672,7,0.0167317,10,-0.000389919,-2.76027,-0.57161,-0.103217,6.98211,0.224515,
2,0,0,1,0,12992.1,0.223331,0.223052,-1.75474,7,0.0166879,10,-0.000391399,-2.75579,-0.460008,-0.128259,8.74485,0.223052,
2,0,0,1,0,12992.1,0.221831,0.221516,-1.7599,7,0.0166436,10,-0.000389847,-2.75451,-0.400179,-0.147434,10.1219,0.221516,
2,0,0,1,0,12992.1,0.220333,0.220037,-1.7716,7,0.016599,10,-0.000389817,-2.75163,-0.35459,-0.166389,11.5188,0.220037,
2,0,0,1,0,12992.2,0.218834,0.218506,-1.78693,7,0.0165541,10,-0.000390454,-2.74789,-0.477157,-0.123649,8.62925,0.218506,
2,0,0,1,0,12992.2,0.217339,0.217017,-1.80465,7,0.0165089,10,-0.000391641,-2.74361,-0.686846,-0.0858999,6.03815,0.217017,
2,0,0,1,0,12992.2,0.215839,0.215452,-1.80889,7,0.0164633,10,-0.00038973,-2.74259,-0.469759,-0.125596,8.90414,0.215452,
2,0,0,1,0,12992.2,0.214338,0.214014,-1.82142,7,0.0164174,10,-0.000389809,-2.73959,-0.459235,-0.128474,9.16131,0.214014,
2,0,0,1,0,12992.3,0.212844,0.212552,-1.83784,7,0.0163714,10,-0.000390638,-2.73569,-0.58169,-0.101429,7.29252,0.212552,
2,0,0,1,0,12992.3,0.211344,0.21107,-1.85578,7,0.0163248,10,-0.0003917,-2.73147,-0.690328,-0.0854666,6.17419,0.21107,
2,0,0,1,0,12992.3,0.209845,0.209561,-1.86114,7,0.0162779,10,-0.000390022,-2.73022,-0.436867,-0.135052,9.83415,0.2095606,
2,0,0,1,0,12992.3,0.20835,0.208035,-1.87432,7,0.0162309,10,-0.000389924,-2.72716,-0.33587,-0.175663,12.9181,0.208035,
2,0,0,1,0,12992.4,0.206851,0.206517,-1.89561,7,0.0161834,10,-0.000391475,-2.72225,-0.470766,-0.125328,9.26364,0.206517,
2,0,0,1,0,12992.4,0.20535,0.205036,-1.91975,7,0.0161353,10,-0.000393617,-2.71676,-0.574257,-0.102742,7.62031,0.205036,
2,0,0,1,0,12992.4,0.203856,0.20351,-1.92074,7,0.0160871,10,-0.000390891,-2.71653,-0.479084,-0.123152,9.24548,0.20351,
2,0,0,1,0,12992.4,0.202356,0.202042,-1.92852,7,0.0160385,10,-0.000389642,-2.71478,-0.445808,-0.132344,10.0015,0.202042,
2,0,0,1,0,12992.5,0.200857,0.200535,-1.94845,7,0.0159896,10,-0.000390733,-2.71031,-0.48846,-0.120788,9.17787,0.2005349,
2,0,0,1,0,12992.5,0.199357,0.199049,-1.96653,7,0.0159402,10,-0.000391436,-2.7063,-0.551889,-0.106906,8.18358,0.199049,
2,0,0,1,0,12992.5,0.197863,0.197525,-1.98161,7,0.0158907,10,-0.000391418,-2.70298,-0.461226,-0.12792,9.86789,0.197525,
2,0,0,1,0,12992.5,0.196362,0.196076,-1.98806,7,0.0158407,10,-0.000389811,-2.70157,-0.409791,-0.143976,11.2153,0.196076,
2,0,0,1,0,12992.6,0.194861,0.194531,-2.00759,7,0.0157903,10,-0.000390539,-2.69732,-0.429025,-0.137521,10.7651,0.194531,
2,0,0,1,0,12992.6,0.193367,0.193079,-2.03035,7,0.0157396,10,-0.000392018,-2.69243,-0.468699,-0.12588,9.93684,0.193079,
2,0,0,1,0,12992.6,0.191868,0.191545,-2.04632,7,0.0156883,10,-0.000391962,-2.68903,-0.407081,-0.144934,11.5582,0.1915445,
2,0,0,1,0,12992.6,0.190368,0.190014,-2.05099,7,0.0156366,10,-0.000389716,-2.68804,-0.416161,-0.141772,11.4124,0.190014,
2,0,0,1,0,12992.7,0.18887,0.188529,-2.0704,7,0.0155846,10,-0.00039033,-2.68395,-0.435996,-0.135322,10.9775,0.188529,
2,0,0,1,0,12992.7,0.187376,0.18704,-2.09275,7,0.0155323,10,-0.000391429,-2.67928,-0.430045,-0.137195,11.208,0.18704,
2,0,0,1,0,12992.7,0.185875,0.185583,-2.11143,7,0.0154793,10,-0.000391847,-2.67542,-0.408013,-0.144603,11.8956,0.185583,
2,0,0,1,0,12992.7,0.184374,0.184088,-2.11504,7,0.0154258,10,-0.000389353,-2.67468,-0.365351,-0.161489,13.4365,0.184088,
2,0,0,1,0,12992.8,0.18288,0.182566,-2.15033,7,0.0153722,10,-0.000392576,-2.6675,-0.453673,-0.13005,10.9342,0.182566,
2,0,0,1,0,12992.8,0.18138,0.181063,-2.17863,7,0.0153178,10,-0.000394469,-2.66182,-0.330439,-0.17855,15.1318,0.181063,
2,0,0,1,0,12992.8,0.179881,0.179555,-2.19184,7,0.0152627,10,-0.000393555,-2.65919,-0.343335,-0.171844,14.6922,0.179555,
2,0,0,1,0,12992.8,0.178387,0.178083,-2.21227,7,0.0152074,10,-0.000393967,-2.65516,-0.350696,-0.168237,14.5775,0.178083,
2,0,0,1,0,12992.9,0.176886,0.176554,-2.23492,7,0.0151514,10,-0.000394584,-2.65074,-0.351039,-0.168072,14.6898,0.176554,
2,0,0,1,0,12992.9,0.175385,0.175098,-2.27058,7,0.0150947,10,-0.000397575,-2.64386,-0.299467,-0.197017,17.3977,0.175098,
2,0,0,1,0,12992.9,0.173892,0.173566,-2.29378,7,0.0150375,10,-0.000398121,-2.63945,-0.263994,-0.22349,19.9775,0.1735658,
2,0,0,1,0,12992.9,0.172392,0.172153,-2.31842,7,0.0149795,10,-0.000399123,-2.63481,-0.27796,-0.212261,19.2109,0.172153,
2,0,0,1,0,12993,0.170893,0.1706,-2.34562,7,0.0149208,10,-0.000400163,-2.62974,-0.281984,-0.209232,19.1972,0.1706,
2,0,0,1,0,12993,0.169393,0.169046,-2.38375,7,0.0148613,10,-0.000402964,-2.62274,-0.256571,-0.229956,21.3602,0.169046,
2,0,0,1,0,12993,0.167899,0.167569,-2.42035,7,0.0148012,10,-0.000405575,-2.61612,-0.235259,-0.250788,23.6396,0.167569,
2,0,0,1,0,12993,0.166398,0.166062,-2.44763,7,0.0147399,10,-0.000406458,-2.61125,-0.238968,-0.246895,23.6455,0.166062,
2,0,0,1,0,12993.1,0.164898,0.164558,-2.48467,7,0.0146778,10,-0.000408871,-2.60473,-0.241471,-0.244336,23.7654,0.164558,
2,0,0,1,0,12993.1,0.163403,0.163073,-2.53395,7,0.0146149,10,-0.00041322,-2.5962,-0.192105,-0.307123,30.3412,0.163073,
2,0,0,1,0,12993.1,0.161904,0.161594,-2.57965,7,0.0145506,10,-0.000416857,-2.58844,-0.180438,-0.326982,32.8896,0.161594,
2,0,0,1,0,12993.1,0.160404,0.160092,-2.62079,7,0.0144851,10,-0.000419568,-2.58157,-0.179058,-0.329502,33.8333,0.160092,
2,0,0,1,0,12993.2,0.158905,0.158602,-2.67548,7,0.0144184,10,-0.000424335,-2.5726,-0.174053,-0.338977,35.5416,0.1586016,
2,0,0,1,0,12993.2,0.157411,0.157121,-2.74031,7,0.0143505,10,-0.000430561,-2.5622,-0.150739,-0.391406,41.9431,0.1571212,
2,0,0,1,0,12993.2,0.155911,0.155558,-2.80568,7,0.0142808,10,-0.000436446,-2.55196,-0.134464,-0.43878,48.0552,0.155558,
2,0,0,1,0,12993.2,0.15441,0.15409,-2.87093,7,0.0142093,10,-0.000442382,-2.54198,-0.132768,-0.444385,49.9456,0.15409,
2,0,0,1,0,12993.3,0.152916,0.152529,-2.95353,7,0.0141363,10,-0.000450498,-2.52966,-0.136097,-0.433513,50.0849,0.152529,
2,0,0,1,0,12993.3,0.151417,0.151091,-3.04007,7,0.0140611,10,-0.000459328,-2.51712,-0.118381,-0.49839,59.1722,0.151091,
2,0,0,1,0,12993.3,0.149917,0.149627,-3.12941,7,0.0139836,10,-0.000468246,-2.50454,-0.103012,-0.572749,70.0836,0.149627,
2,0,0,1,0,12993.3,0.148423,0.148103,-3.23086,7,0.013904,10,-0.000478501,-2.49068,-0.102909,-0.57332,72.4972,0.148103,
2,0,0,1,0,12993.4,0.146922,0.146636,-3.34736,7,0.0138213,10,-0.000490843,-2.4753,-0.100721,-0.585777,76.6792,0.146636,
2,0,0,1,0,12993.4,0.145421,0.145151,-3.47066,7,0.0137358,10,-0.000503771,-2.45959,-0.0922646,-0.639465,86.7074,0.145151,
2,0,0,1,0,12993.4,0.143927,0.143599,-3.60544,7,0.0136473,10,-0.00051774,-2.44304,-0.0831681,-0.709406,99.9883,0.1435995,
2,0,0,1,0,12993.4,0.142429,0.142119,-3.75555,7,0.0135549,10,-0.000533736,-2.42533,-0.084198,-0.700729,102.818,0.142119,
2,0,0,1,0,12993.5,0.140929,0.140617,-3.90952,7,0.0134586,10,-0.000549745,-2.40788,-0.0839875,-0.702486,107.383,0.140617,
2,0,0,1,0,12993.5,0.13943,0.139137,-4.07366,7,0.0133583,10,-0.000566797,-2.39002,-0.0826387,-0.713951,113.646,0.139137,
2,0,0,1,0,12993.5,0.137935,0.137643,-4.25267,7,0.0132541,10,-0.000585351,-2.37134,-0.083213,-0.709024,117.706,0.137643,
2,0,0,1,0,12993.5,0.136435,0.136103,-4.43147,7,0.0131452,10,-0.000603136,-2.35345,-0.0842651,-0.700172,121.184,0.136103,
2,0,0,1,0,12993.6,0.134934,0.134599,-4.62057,7,0.0130315,10,-0.000621924,-2.3353,-0.0878274,-0.671772,120.898,0.1345989,
2,0,0,1,0,12993.6,0.13344,0.133156,-4.8079,7,0.0129137,10,-0.0006402,-2.31804,-0.0906152,-0.651105,121.999,0.133156,
2,0,0,1,0,12993.6,0.13194,0.131609,-4.99366,7,0.0127908,10,-0.000657209,-2.30158,-0.0908265,-0.64959,126.515,0.1316088,
2,0,0,1,0,12993.6,0.13044,0.130137,-5.1743,7,0.0126632,10,-0.000673368,-2.28615,-0.0968158,-0.609405,123.031,0.130137,
2,0,0,1,0,12993.7,0.128941,0.128647,-5.35859,7,0.012531,10,-0.000689368,-2.27095,-0.10594,-0.556918,116.367,0.128647,
2,0,0,1,0,12993.7,0.127447,0.127116,-5.54102,7,0.0123949,10,-0.000704354,-2.25641,-0.111976,-0.526901,113.564,0.127116,
2,0,0,1,0,12993.7,0.125946,0.125668,-5.70534,7,0.0122539,10,-0.000716978,-2.24372,-0.117209,-0.503375,111.827,0.1256678,
2,0,0,1,0,12993.7,0.124446,0.124172,-5.86227,7,0.0121089,10,-0.000727928,-2.23193,-0.128486,-0.459195,104.895,0.1241717,
2,0,0,1,0,12993.8,0.122952,0.122645,-6.01611,7,0.0119605,10,-0.000737844,-2.22068,-0.143955,-0.409851,96.0193,0.122645,
2,0,0,1,0,12993.8,0.121453,0.12112,-6.1572,7,0.011808,10,-0.000745761,-2.21062,-0.164593,-0.35846,85.8578,0.12112,
2,0,0,1,0,12993.8,0.119953,0.119698,-6.27334,7,0.0116522,10,-0.000750908,-2.2025,-0.179866,-0.328022,80.2099,0.1196983,
2,0,0,1,0,12993.8,0.118459,0.118136,-6.38372,7,0.011494,10,-0.000754147,-2.19493,-0.195212,-0.302235,75.3057,0.118136,
2,0,0,1,0,12993.9,0.116958,0.11663,-6.49922,7,0.0113325,10,-0.000758005,-2.18714,-0.232616,-0.253637,64.1907,0.1166302,
2,0,0,1,0,12993.9,0.115457,0.115115,-6.59517,7,0.0111683,10,-0.000759205,-2.18077,-0.27652,-0.213366,54.7634,0.115115,
2,0,0,1,0,12993.9,0.113963,0.113674,-6.66571,7,0.0110028,10,-0.000757721,-2.17615,-0.304747,-0.193603,50.2895,0.113674,
2,0,0,1,0,12993.9,0.112464,0.112129,-6.73194,7,0.0108349,10,-0.000754847,-2.17186,-0.36098,-0.163444,42.9165,0.112129,
2,0,0,1,0,12994,0.110965,0.110648,-6.78771,7,0.0106654,10,-0.000751044,-2.16828,-0.457561,-0.128944,34.1441,0.110648,
2,0,0,1,0,12994,0.109466,0.109173,-6.84277,7,0.0104944,10,-0.000747044,-2.16477,-0.610021,-0.096718,25.7681,0.109173,
2,0,0,1,0,12994,0.107972,0.10771,-6.87509,7,0.0103232,10,-0.000740515,-2.16272,-0.786827,-0.0749847,20.0864,0.1077099,
2,0,0,1,0,12994,0.106471,0.106176,-6.8945,7,0.0101507,10,-0.00073203,-2.1615,-1.12484,-0.0524518,14.1112,0.106176,
2,0,0,1,0,12994.1,0.10497,0.104667,-6.91415,7,0.00997761,10,-0.000723683,-2.16026,-2.70041,-0.0218485,5.88595,0.104667,
2,0,0,1,0,12994.1,0.103476,0.10315,-6.92381,7,0.00980492,10,-0.00071419,-2.15965,9.11713,0.00647134,-1.7436,0.10315,
2,0,0,1,0,12994.1,0.101976,0.101656,-6.9121,7,0.00963158,10,-0.000702658,-2.16039,2.16247,0.0272836,-7.34289,0.101656,
2,0,0,1,0,12994.1,0.100477,0.100147,-6.88096,7,0.0094587,10,-0.000689105,-2.16235,0.963279,0.0612491,-16.4552,0.1001467,
2,0,0,1,0,12994.2,0.0989825,0.098672,-6.85639,7,0.00928715,10,-0.000676534,-2.1639,0.702446,0.0839922,-22.4502,0.098672,
2,0,0,1,0,12994.2,0.0974817,0.097188,-6.82467,7,0.00911568,10,-0.000663277,-2.16592,0.551699,0.106942,-28.423,0.097188,
2,0,0,1,0,12994.2,0.0959822,0.0956676,-6.77894,7,0.00894529,10,-0.000648524,-2.16884,0.456881,0.129136,-34.0944,0.0956676,
2,0,0,1,0,12994.2,0.094488,0.0941752,-6.71117,7,0.00877688,10,-0.000632026,-2.1732,0.411121,0.14351,-37.5825,0.0941752,
2,0,0,1,0,12994.3,0.0929884,0.0926232,-6.65569,7,0.0086093,10,-0.000616472,-2.17681,0.361264,0.163316,-42.42,0.0926232,
2,0,0,1,0,12994.3,0.0914889,0.0911571,-6.5985,7,0.00844326,10,-0.0006015,-2.18055,0.323961,0.182121,-46.8125,0.0911571,
2,0,0,1,0,12994.3,0.0899894,0.0896611,-6.52178,7,0.00827886,10,-0.000584749,-2.18563,0.308162,0.191458,-48.6713,0.0896611,
2,0,0,1,0,12994.3,0.0884951,0.0881409,-6.43738,7,0.00811697,10,-0.000567397,-2.19129,0.303704,0.194268,-48.8871,0.0881409,
2,0,0,1,0,12994.4,0.0869943,0.0866945,-6.36764,7,0.00795642,10,-0.000552039,-2.19602,0.273814,0.215475,-53.5976,0.0866945,
2,0,0,1,0,12994.4,0.0854935,0.0851939,-6.3029,7,0.00779765,10,-0.000536968,-2.20046,0.300149,0.196569,-48.3057,0.0851939,
2,0,0,1,0,12994.4,0.0839993,0.0837035,-6.23426,7,0.00764128,10,-0.000521829,-2.20522,0.319339,0.184757,-44.9088,0.0837035,
2,0,0,1,0,12994.4,0.0824998,0.082208,-6.16038,7,0.00748598,10,-0.000506432,-2.21039,0.31309,0.188444,-45.3415,0.082208,
2,0,0,1,0,12994.5,0.0810002,0.0807225,-6.09096,7,0.00733241,10,-0.000491678,-2.21531,0.331948,0.177739,-42.3409,0.0807225,
2,0,0,1,0,12994.5,0.0795007,0.0791625,-6.04147,7,0.00718037,10,-0.000478258,-2.21886,0.373645,0.157904,-37.2264,0.0791625,
2,0,0,1,0,12994.5,0.0780078,0.0776981,-5.98833,7,0.00703028,10,-0.000465282,-2.22269,0.415646,0.141948,-33.167,0.0776981,
2,0,0,1,0,12994.5,0.076507,0.0761769,-5.92859,7,0.00688086,10,-0.000451622,-2.22705,0.418913,0.140841,-32.6345,0.0761769,
2,0,0,1,0,12994.5,0.0750062,0.0746863,-5.88105,7,0.00673276,10,-0.000439234,-2.23055,0.407459,0.1448,-33.2728,0.0746863,
2,0,0,1,0,12994.6,0.073512,0.073181,-5.84713,7,0.00658637,10,-0.000427899,-2.23306,0.490385,0.120314,-27.4352,0.073181,
2,0,0,1,0,12994.6,0.0720124,0.0717376,-5.80422,7,0.00644039,10,-0.00041638,-2.23626,0.552769,0.106735,-24.1828,0.0717376,
2,0,0,1,0,12994.6,0.0705129,0.0702248,-5.76329,7,0.00629531,10,-0.000404726,-2.23933,0.531999,0.110902,-24.9648,0.0702248,
2,0,0,1,0,12994.6,0.0690187,0.068723,-5.72449,7,0.00615179,10,-0.000393405,-2.24226,0.516589,0.114211,-25.5504,0.068723,
2,0,0,1,0,12994.7,0.0675179,0.0671509,-5.69951,7,0.0060086,10,-0.000382727,-2.24416,0.624143,0.0945297,-21.0352,0.0671509,
2,0,0,1,0,12994.7,0.066017,0.065713,-5.67423,7,0.00586616,10,-0.000372871,-2.24609,0.761125,0.0775168,-17.1385,0.065713,
2,0,0,1,0,12994.7,0.0645242,0.0642133,-5.63542,7,0.00572496,10,-0.000361869,-2.24907,0.644847,0.0914946,-20.1162,0.0642133,
2,0,0,1,0,12994.7,0.0630246,0.0627198,-5.59969,7,0.00558401,10,-0.000351211,-2.25184,0.573182,0.102934,-22.5163,0.0627198,
2,0,0,1,0,12994.8,0.0615251,0.0612112,-5.57325,7,0.00544396,10,-0.000341145,-2.25389,0.579752,0.101768,-22.1342,0.0612112,
2,0,0,1,0,12994.8,0.0600256,0.0597195,-5.53983,7,0.00530464,10,-0.000330836,-2.2565,0.72134,0.0817922,-17.6902,0.05971951,
2,0,0,1,0,12994.8,0.0585314,0.0582077,-5.50964,7,0.00516663,10,-0.000320703,-2.25888,0.670123,0.0880436,-18.9321,0.0582077,
2,0,0,1,0,12994.8,0.0570305,0.0566845,-5.48533,7,0.0050288,10,-0.000310933,-2.2608,0.540943,0.109069,-23.3301,0.0566845,
2,0,0,1,0,12994.9,0.0555297,0.0552065,-5.45018,7,0.00489182,10,-0.000300885,-2.26359,0.589597,0.100068,-21.27,0.0552065,
2,0,0,1,0,12994.9,0.0540355,0.0537214,-5.42433,7,0.00475612,10,-0.000291403,-2.26565,0.715079,0.0825084,-17.443,0.0537214,
2,0,0,1,0,12994.9,0.052536,0.0521565,-5.38941,7,0.00462055,10,-0.000281093,-2.26846,0.658216,0.0896362,-18.8499,0.0521565,
2,0,0,1,0,12994.9,0.0510364,0.0506822,-5.35879,7,0.00448575,10,-0.000271595,-2.27093,0.483532,0.122019,-25.5091,0.0506822,
2,0,0,1,0,12995,0.0495369,0.0492331,-5.3271,7,0.00435181,10,-0.00026227,-2.27351,0.542852,0.108685,-22.5961,0.0492331,
2,0,0,1,0,12995,0.0480427,0.0477363,-5.29628,7,0.00421926,10,-0.000252825,-2.27603,0.631044,0.0934959,-19.3039,0.0477363,
2,0,0,1,0,12995,0.0465432,0.0462065,-5.25769,7,0.00408693,10,-0.00024294,-2.27921,0.606558,0.0972701,-19.9729,0.0462065,
2,0,0,1,0,12995,0.0450424,0.0447177,-5.2248,7,0.00395541,10,-0.000233641,-2.28193,0.477444,0.123575,-25.185,0.0447177,
2,0,0,1,0,12995.1,0.0435482,0.0432505,-5.18999,7,0.00382529,10,-0.00022447,-2.28483,0.478871,0.123206,-24.9557,0.0432505,
2,0,0,1,0,12995.1,0.0420486,0.041748,-5.15463,7,0.00369561,10,-0.000215195,-2.2878,0.575156,0.102581,-20.6495,0.041748,
2,0,0,1,0,12995.1,0.0405491,0.0402097,-5.11774,7,0.00356677,10,-0.000205783,-2.29092,0.544261,0.108404,-21.6639,0.0402097,
2,0,0,1,0,12995.1,0.0390549,0.0386909,-5.08669,7,0.00343915,10,-0.000196809,-2.29356,0.411115,0.143512,-28.4476,0.03869091,
2,0,0,1,0,12995.2,0.0375541,0.03723,-5.04907,7,0.00331203,10,-0.000187977,-2.29679,0.411269,0.143458,-28.2439,0.03723,
2,0,0,1,0,12995.2,0.0360532,0.0357585,-5.008,7,0.00318602,10,-0.000179078,-2.30034,0.421265,0.140054,-27.3465,0.0357585,
2,0,0,1,0,12995.2,0.034559,0.0342289,-4.96181,7,0.00306147,10,-0.000169838,-2.30436,0.457981,0.128826,-24.9788,0.03422891,
2,0,0,1,0,12995.2,0.0330595,0.0327788,-4.92496,7,0.00293741,10,-0.000161434,-2.3076,0.380479,0.155068,-29.7818,0.0327788,
2,0,0,1,0,12995.3,0.0315613,0.031193,-4.88819,7,0.00281436,10,-0.000152477,-2.31085,0.365831,0.161277,-30.71,0.031193,
2,0,0,1,0,12995.3,0.0300618,0.0297514,-4.83765,7,0.0026925,10,-0.000143927,-2.31537,0.417699,0.14125,-26.6852,0.0297514,
2,0,0,1,0,12995.3,0.0285676,0.0282188,-4.78988,7,0.00257222,10,-0.000135164,-2.31968,0.406013,0.145316,-27.1934,0.0282188,
2,0,0,1,0,12995.3,0.0270667,0.0267392,-4.74858,7,0.00245243,10,-0.000126973,-2.32344,0.366134,0.161143,-29.8612,0.0267392,
2,0,0,1,0,12995.4,0.0255659,0.0252509,-4.70942,7,0.00233374,10,-0.000118917,-2.32703,0.329428,0.179098,-32.8818,0.0252509,
2,0,0,1,0,12995.4,0.0240717,0.0237082,-4.65624,7,0.00221674,10,-0.000110391,-2.33196,0.372031,0.158589,-28.8401,0.0237082,
2,0,0,1,0,12995.4,0.0225722,0.0222374,-4.60816,7,0.00210043,10,-0.000102474,-2.33647,0.391571,0.150675,-27.1526,0.0222374,
2,0,0,1,0,12995.4,0.0210726,0.0207295,-4.56986,7,0.00198516,10,-9.47312e-05,-2.3401,0.362023,0.162973,-29.104,0.0207295,
2,0,0,1,0,12995.5,0.0195784,0.0192377,-4.53449,7,0.00187137,10,-8.72331e-05,-2.34347,0.341171,0.172934,-30.533,0.0192377,
2,0,0,1,0,12995.5,0.0180789,0.0177468,-4.48665,7,0.0017582,10,-7.9624e-05,-2.34808,0.391433,0.150728,-26.4178,0.0177468,
2,0,0,1,0,12995.5,0.0165781,0.0162626,-4.44196,7,0.00164619,10,-7.22377e-05,-2.35242,0.389438,0.151501,-26.3213,0.0162626,
2,0,0,1,0,12995.5,0.0150839,0.0147712,-4.41429,7,0.00153551,10,-6.52044e-05,-2.35514,0.391213,0.150813,-25.9674,0.0147712,
2,0,0,1,0,12995.6,0.0135844,0.013279,-4.37992,7,0.00142523,10,-5.81611e-05,-2.35853,0.392134,0.150459,-25.6542,0.013279,
2,0,0,1,0,12995.6,0.0120848,0.011758,-4.34265,7,0.00131584,10,-5.10609e-05,-2.36224,0.460462,0.128132,-21.7081,0.01175798,
2,0,0,1,0,12995.6,0.0105853,0.0102318,-4.29936,7,0.00120745,10,-4.39901e-05,-2.3666,0.438277,0.134618,-22.6348,0.0102318,
2,0,0,1,0,12995.6,0.00909108,0.00872734,-4.27512,7,0.00110024,10,-3.73104e-05,-2.36905,0.470666,0.125354,-20.9272,0.00872734,
2,0,0,1,0,12995.7,0.00759027,0.00724305,-4.2544,7,0.000993288,10,-3.08148e-05,-2.37116,0.503847,0.117099,-19.4089,0.00724305,
2,0,0,1,0,12995.7,0.00608945,0.00577358,-4.22909,7,0.000886987,10,-2.4417e-05,-2.37375,0.609041,0.0968737,-15.9605,0.00577358,
2,0,0,1,0,12995.7,0.00459524,0.0042871,-4.19157,7,0.000781807,10,-1.79697e-05,-2.37762,0.697122,0.0846337,-13.8679,0.0042871,
2,0,0,1,0,12995.7,0.0030957,0.00279519,-4.17475,7,0.000676758,10,-1.16692e-05,-2.37937,1.65957,0.0355514,-5.81476,0.00279519,
2,0,0,1,0,12995.8,0.00159616,0.00126228,-4.19158,7,0.000571664,10,-5.29094e-06,-2.37762, , , ,0.00126228,
2,0,0,1,0,12995.8,0.000199195,-0.000147811,-4.16656,7,0.000473913,10,6.15866e-07,-2.38022, , , ,-0.000147811,