File: Figure_codes/Fig_3-5/rawdata_trumpetplot_data/after 10th/20221101_1-115_003_TrumpetPlot_ParaChange_from10_every3_04_CV_C01_27.csv
mode,ox/red,error,control changes,counter inc.,time/s,control/V,Ewe/V,<I>/mA,cycle number,(Q-Qo)/C,I Range,P/W,log(|I|),Tafel slope mV/dec,alpha_eff,dI/d(E-IR),E-IR/V,
2,0,0,1,0,54253.5,2.44065e-05,-0.000382585,-0.375432,28,0.0000000E+000,10,1.43635e-07,-3.42547, , , ,-0.000382585,
2,1,0,1,0,54253.7,0.00129787,0.000876117,0.105476,28,-5.00919e-06,10,9.24093e-08,-3.97685, , , ,0.000876117,
2,1,0,1,0,54253.8,0.00279606,0.00243704,0.246981,28,2.59814e-05,10,6.01902e-07,-3.60734,0.00245313,24.0509,73.8296,0.00243704,
2,1,0,1,0,54254,0.00429425,0.00393539,0.292458,28,6.916e-05,10,1.15093e-06,-3.53394,0.0235847,2.50162,26.6063,0.00393539,
2,1,0,1,0,54254.1,0.00579244,0.00543905,0.31981,28,0.000117637,10,1.73946e-06,-3.49511,0.0406603,1.45105,17.7729,0.00543905,
2,1,0,1,0,54254.3,0.00729063,0.00694058,0.344618,28,0.000169865,10,2.39185e-06,-3.46266,0.0563047,1.04787,13.8755,0.00694058,
2,1,0,1,0,54254.4,0.00878882,0.00840606,0.363101,28,0.000225263,10,3.05225e-06,-3.43997,0.0710848,0.829995,11.6418,0.00840606,
2,1,0,1,0,54254.6,0.010287,0.00991184,0.380033,28,0.000283304,10,3.76682e-06,-3.42018,0.095337,0.618857,9.07265,0.00991184,
2,1,0,1,0,54254.7,0.0117852,0.0114325,0.392397,28,0.000343494,10,4.48607e-06,-3.40627,0.0987711,0.597341,9.11831,0.0114325,
2,1,0,1,0,54254.9,0.0132838,0.0128976,0.406244,28,0.0004056,10,5.23957e-06,-3.39121,0.104011,0.567245,9.00515,0.0128976,
2,1,0,1,0,54255,0.0147814,0.0144377,0.418364,28,0.000469603,10,6.04023e-06,-3.37845,0.117652,0.501479,8.16424,0.0144377,
2,1,0,1,0,54255.2,0.0162789,0.0159297,0.429921,28,0.000535549,10,6.84853e-06,-3.36661,0.136089,0.43354,7.22643,0.0159297,
2,1,0,1,0,54255.3,0.017778,0.0174079,0.439463,28,0.00060305,10,7.65011e-06,-3.35708,0.148534,0.397215,6.79536,0.0174079,
2,1,0,1,0,54255.5,0.0192761,0.0189497,0.44956,28,0.000671862,10,8.51903e-06,-3.34721,0.166431,0.354502,6.21212,0.0189497,
2,1,0,1,0,54255.6,0.0207743,0.0204417,0.459598,28,0.000742312,10,9.39496e-06,-3.33762,0.162709,0.362611,6.49531,0.0204417,
2,1,0,1,0,54255.8,0.0222725,0.0219411,0.469009,28,0.000814287,10,1.02906e-05,-3.32882,0.166324,0.35473,6.50243,0.0219411,
2,1,0,1,0,54255.9,0.0237707,0.0234172,0.479913,28,0.000887772,10,1.12382e-05,-3.31884,0.162612,0.362826,6.78484,0.0234172,
2,1,0,1,0,54256.1,0.0252689,0.024942,0.487425,28,0.00096262,10,1.21574e-05,-3.31209,0.1677,0.351818,6.73177,0.024942,
2,1,0,1,0,54256.2,0.0267671,0.0264213,0.501506,28,0.00103905,10,1.32504e-05,-3.29972,0.155629,0.379106,7.37561,0.0264213,
2,1,0,1,0,54256.4,0.0282662,0.0278535,0.511312,28,0.00111716,10,1.42418e-05,-3.29131,0.174647,0.337825,6.7316,0.02785348,
2,1,0,1,0,54256.5,0.0297635,0.0294056,0.520651,28,0.00119668,10,1.53101e-05,-3.28345,0.193403,0.305063,6.17845,0.0294056,
2,1,0,1,0,54256.7,0.031261,0.0309072,0.527276,28,0.0012776,10,1.62966e-05,-3.27796,0.181276,0.325471,6.72845,0.0309072,
2,1,0,1,0,54256.8,0.0327599,0.0323797,0.539679,28,0.00135992,10,1.74747e-05,-3.26786,0.179947,0.327875,6.90377,0.0323797,
2,1,0,1,0,54257,0.034258,0.0339491,0.549594,28,0.00144384,10,1.86582e-05,-3.25996,0.189355,0.311583,6.68121,0.0339491,
2,1,0,1,0,54257.1,0.0357562,0.0354114,0.559073,28,0.00152926,10,1.97976e-05,-3.25253,0.218133,0.270478,5.88298,0.0354114,
2,1,0,1,0,54257.3,0.0372544,0.0368981,0.568489,28,0.00161608,10,2.09762e-05,-3.24528,0.216449,0.272581,6.05838,0.0368981,
2,1,0,1,0,54257.4,0.0387526,0.038405,0.57788,28,0.00170413,10,2.21934e-05,-3.23816,0.183901,0.320825,7.24507,0.03840496,
2,1,0,1,0,54257.6,0.0402508,0.0399129,0.590568,28,0.00179384,10,2.35713e-05,-3.22873,0.187344,0.314929,7.2437,0.0399129,
2,1,0,1,0,54257.7,0.041749,0.0414144,0.597971,28,0.00188526,10,2.47646e-05,-3.22332,0.222682,0.264952,6.16678,0.0414144,
2,1,0,1,0,54257.9,0.0432472,0.042917,0.609752,28,0.00197805,10,2.61687e-05,-3.21485,0.241698,0.244107,5.78575,0.042917,
2,1,0,1,0,54258,0.0447458,0.0443521,0.617492,28,0.00207211,10,2.73871e-05,-3.20937,0.220721,0.267306,6.43278,0.0443521,
2,1,0,1,0,54258.2,0.0462433,0.0458563,0.626143,28,0.00216766,10,2.87126e-05,-3.20333,0.203948,0.28929,7.08003,0.0458563,
2,1,0,1,0,54258.3,0.0477409,0.0474023,0.635815,28,0.00226474,10,3.01391e-05,-3.19667,0.230057,0.256458,6.36742,0.0474023,
2,1,0,1,0,54258.5,0.0492399,0.0489062,0.645111,28,0.00236325,10,3.15499e-05,-3.19037,0.284109,0.207667,5.2389,0.0489062,
2,1,0,1,0,54258.6,0.0507381,0.0503971,0.651833,28,0.00246285,10,3.28505e-05,-3.18586,0.262287,0.224945,5.73741,0.0503971,
2,1,0,1,0,54258.8,0.0522363,0.0518785,0.663137,28,0.00256374,10,3.44026e-05,-3.1784,0.251342,0.23474,6.07767,0.0518785,
2,1,0,1,0,54258.9,0.0537345,0.0533514,0.672825,28,0.00266615,10,3.58962e-05,-3.1721,0.298845,0.197427,5.16408,0.0533514,
2,1,0,1,0,54259.1,0.0552327,0.0548657,0.681512,28,0.00276986,10,3.73916e-05,-3.16653,0.332594,0.177394,4.6928,0.0548657,
2,1,0,1,0,54259.2,0.0567309,0.0563852,0.685304,28,0.00287458,10,3.8641e-05,-3.16412,0.333212,0.177064,4.74941,0.0563852,
2,1,0,1,0,54259.4,0.0582291,0.057838,0.694924,28,0.00298037,10,4.0193e-05,-3.15806,0.307512,0.191862,5.20649,0.057838,
2,1,0,1,0,54259.5,0.0597282,0.0593638,0.703026,28,0.00308759,10,4.17343e-05,-3.15303,0.310478,0.19003,5.21337,0.0593638,
2,1,0,1,0,54259.7,0.0612255,0.0609098,0.710054,28,0.00319585,10,4.32493e-05,-3.14871,0.436807,0.135071,3.7451,0.0609098,
2,1,0,1,0,54259.8,0.062723,0.0623587,0.717161,28,0.00330522,10,4.47212e-05,-3.14438,0.345725,0.170656,4.77939,0.0623587,
2,1,0,1,0,54260,0.0642218,0.0638833,0.723961,28,0.00341547,10,4.62491e-05,-3.14028,0.320638,0.184008,5.20697,0.0638833,
2,1,0,1,0,54260.1,0.06572,0.0653361,0.730044,28,0.00352689,10,4.76983e-05,-3.13665,0.315123,0.187229,5.3375,0.0653361,
2,1,0,1,0,54260.3,0.0672182,0.0668567,0.739809,28,0.00363955,10,4.94612e-05,-3.13088,0.383697,0.153767,4.42166,0.06685672,
2,1,0,1,0,54260.4,0.0687164,0.0683519,0.746163,28,0.0037532,10,5.10017e-05,-3.12717,0.430876,0.13693,3.98326,0.0683519,
2,1,0,1,0,54260.6,0.0702146,0.0698556,0.750377,28,0.00386749,10,5.2418e-05,-3.12472,0.453466,0.130109,3.81256,0.0698556,
2,1,0,1,0,54260.7,0.0717128,0.0713645,0.757002,28,0.00398289,10,5.40231e-05,-3.1209,0.412095,0.143171,4.22114,0.0713645,
2,1,0,1,0,54260.9,0.073211,0.0728427,0.762906,28,0.00409916,10,5.55722e-05,-3.11753,0.430304,0.137112,4.08548,0.0728427,
2,1,0,1,0,54261,0.0747092,0.0743411,0.769433,28,0.00421628,10,5.72005e-05,-3.11383,0.501453,0.117658,3.52986,0.0743411,
2,1,0,1,0,54261.2,0.0762078,0.0758707,0.771993,28,0.00433415,10,5.85716e-05,-3.11239,0.493774,0.119488,3.60457,0.0758707,
2,1,0,1,0,54261.3,0.0777053,0.0773324,0.778416,28,0.00445282,10,6.01968e-05,-3.10879,0.400086,0.147468,4.48651,0.0773324,
2,1,0,1,0,54261.5,0.0792029,0.0788478,0.786387,28,0.00457228,10,6.20049e-05,-3.10436,0.58215,0.101348,3.1023,0.0788478,
2,1,0,1,0,54261.6,0.0807019,0.0803599,0.791371,28,0.00469295,10,6.35946e-05,-3.10162,0.605901,0.0973757,2.99645,0.0803599,
2,1,0,1,0,54261.8,0.0822001,0.0818551,0.793188,28,0.00481405,10,6.49265e-05,-3.10062,0.620948,0.095016,2.95193,0.0818551,
2,1,0,1,0,54261.9,0.0836983,0.083363,0.800753,28,0.00493581,10,6.67532e-05,-3.0965,0.487247,0.121088,3.78789,0.083363,
2,1,0,1,0,54262.1,0.0851965,0.0848243,0.805959,28,0.00505855,10,6.83649e-05,-3.09369,0.482231,0.122348,3.85489,0.0848243,
2,1,0,1,0,54262.2,0.0866947,0.0863226,0.813783,28,0.00518239,10,7.02478e-05,-3.08949,0.529629,0.111399,3.53533,0.0863226,
2,1,0,1,0,54262.4,0.0881929,0.0878104,0.821989,28,0.00530719,10,7.21792e-05,-3.08513,0.394102,0.149707,4.80353,0.08781036,
2,1,0,1,0,54262.5,0.0896911,0.0893511,0.828202,28,0.00543283,10,7.40008e-05,-3.08186,0.337102,0.175021,5.67688,0.0893511,
2,1,0,1,0,54262.7,0.0911902,0.0908629,0.83991,28,0.00556007,10,7.63167e-05,-3.07577,0.282293,0.209002,6.82389,0.0908629,
2,1,0,1,0,54262.8,0.0926875,0.0923522,0.849624,28,0.0056889,10,7.84646e-05,-3.07077,0.263785,0.223667,7.40371,0.0923522,
2,1,0,1,0,54263,0.094185,0.0938433,0.858243,28,0.00581899,10,8.05404e-05,-3.06639,0.294404,0.200405,6.71204,0.0938433,
2,1,0,1,0,54263.1,0.0956838,0.0953339,0.866264,28,0.00595074,10,8.25844e-05,-3.06235,0.231168,0.255226,8.68328,0.0953339,
2,1,0,1,0,54263.3,0.097182,0.0968609,0.882018,28,0.00608422,10,8.54331e-05,-3.05452,0.193229,0.305338,10.51,0.0968609,
2,1,0,1,0,54263.4,0.0986802,0.0983529,0.896449,28,0.00621998,10,8.81684e-05,-3.04747,0.210627,0.280116,9.80447,0.0983529,
2,1,0,1,0,54263.6,0.100178,0.0998354,0.910872,28,0.00635779,10,9.09372e-05,-3.04054,0.226602,0.260368,9.25622,0.0998354,
2,1,0,1,0,54263.7,0.101677,0.101339,0.924078,28,0.00649778,10,9.36452e-05,-3.03429,0.203736,0.28959,10.4705,0.101339,
2,1,0,1,0,54263.9,0.103175,0.102809,0.942185,28,0.00664,10,9.68648e-05,-3.02586,0.205111,0.287649,10.5898,0.102809,
2,1,0,1,0,54264,0.104673,0.104325,0.961816,28,0.00678479,10,0.000100342,-3.01691,0.209121,0.282134,10.5582,0.104325,
2,1,0,1,0,54264.2,0.106171,0.105833,0.976261,28,0.00693229,10,0.000103321,-3.01043,0.21568,0.273554,10.3791,0.105833,
2,1,0,1,0,54264.3,0.10767,0.107308,0.992404,28,0.00708218,10,0.000106493,-3.00331,0.232794,0.253443,9.80809,0.107308,
2,1,0,1,0,54264.5,0.109167,0.108833,1.00462,28,0.00723406,10,0.000109335,-2.998,0.226882,0.260047,10.2143,0.108833,
2,1,0,1,0,54264.6,0.110665,0.11029,1.02134,28,0.00738831,10,0.000112643,-2.99083,0.228164,0.258585,10.3035,0.11029,
2,1,0,1,0,54264.8,0.112164,0.111783,1.035,28,0.00754487,10,0.000115695,-2.98506,0.294328,0.200457,8.07222,0.111783,
2,1,0,1,0,54264.9,0.113662,0.113309,1.0487,28,0.00770333,10,0.000118827,-2.97935,0.326012,0.180975,7.39595,0.1133089,
2,1,0,1,0,54265.1,0.11516,0.114824,1.05762,28,0.00786315,10,0.00012144,-2.97567,0.365599,0.161379,6.65417,0.114824,
2,1,0,1,0,54265.2,0.116658,0.116343,1.06982,28,0.00802474,10,0.000124466,-2.97069,0.34413,0.171447,7.13703,0.1163427,
2,1,0,1,0,54265.3,0.118157,0.117808,1.07857,28,0.00818794,10,0.000127065,-2.96715,0.462389,0.127598,5.35345,0.1178082,
2,1,0,1,0,54265.5,0.119655,0.119314,1.08465,28,0.00835233,10,0.000129414,-2.96471,0.79734,0.073996,3.13376,0.119314,
2,1,0,1,0,54265.6,0.121153,0.120807,1.08984,28,0.00851746,10,0.00013166,-2.96264,0.673623,0.0875861,3.72726,0.120807,
2,1,0,1,0,54265.8,0.122652,0.122291,1.09775,28,0.00868369,10,0.000134244,-2.9595,0.533408,0.110609,4.72976,0.122291,
2,1,0,1,0,54265.9,0.124149,0.123769,1.10044,28,0.00885079,10,0.0001362,-2.95843,0.72663,0.0811968,3.48796,0.123769,
2,1,0,1,0,54266.1,0.125647,0.125284,1.108,28,0.00901871,10,0.000138815,-2.95546,0.953572,0.0618726,2.6679,0.125284,
2,1,0,1,0,54266.2,0.127146,0.126794,1.10653,28,0.00918722,10,0.000140302,-2.95604,1.22534,0.0481498,2.08487,0.126794,
2,1,0,1,0,54266.4,0.128644,0.128301,1.11388,28,0.00935605,10,0.000142912,-2.95316,1.26553,0.0466208,2.02396,0.128301,
2,1,0,1,0,54266.5,0.130142,0.129819,1.11612,28,0.00952545,10,0.000144893,-2.95229,1.9449,0.0303358,1.31829,0.129819,
2,1,0,1,0,54266.7,0.13164,0.131263,1.11721,28,0.00969523,10,0.000146648,-2.95186,-2.02971,-0.0290682,-1.26181,0.131263,
2,1,0,1,0,54266.8,0.133139,0.132728,1.11372,28,0.00986496,10,0.000147822,-2.95322,-0.92619,-0.0637018,-2.76585,0.132728,
2,1,0,1,0,54267,0.134637,0.134242,1.10892,28,0.0100337,10,0.000148864,-2.9551,-0.512809,-0.115052,-4.97088,0.134242,
2,1,0,1,0,54267.1,0.136135,0.13579,1.10121,28,0.0102016,10,0.000149533,-2.95813,-0.332452,-0.177469,-7.58623,0.13579,
2,1,0,1,0,54267.3,0.137633,0.13728,1.08713,28,0.0103677,10,0.000149241,-2.96372,-0.227649,-0.259171,-10.9283,0.13728,
2,1,0,1,0,54267.4,0.139132,0.138754,1.0691,28,0.0105315,10,0.000148342,-2.97098,-0.179605,-0.328498,-13.6074,0.138754,
2,1,0,1,0,54267.6,0.140629,0.140325,1.04473,28,0.0106918,10,0.000146601,-2.981,-0.135587,-0.435143,-17.6458,0.140325,
2,1,0,1,0,54267.7,0.142127,0.14176,1.01587,28,0.0108483,10,0.00014401,-2.99316,-0.120959,-0.487769,-19.2388,0.14176,
2,1,0,1,0,54267.9,0.143626,0.143307,0.982531,28,0.0110005,10,0.000140803,-3.00765,-0.0990878,-0.595432,-22.7241,0.143307,
2,1,0,1,0,54268,0.145124,0.144774,0.946225,28,0.0111473,10,0.000136989,-3.02401,-0.0840913,-0.701618,-25.8457,0.144774,
2,1,0,1,0,54268.2,0.146622,0.146276,0.903499,28,0.0112881,10,0.00013216,-3.04407,-0.0790408,-0.74645,-26.3345,0.146276,
2,1,0,1,0,54268.3,0.14812,0.147792,0.86703,28,0.0114232,10,0.00012814,-3.06197,-0.0785946,-0.750687,-25.3444,0.147792,
2,1,0,1,0,54268.5,0.149619,0.149265,0.826954,28,0.0115522,10,0.000123435,-3.08252,-0.074606,-0.790822,-25.5652,0.149265,
2,1,0,1,0,54268.6,0.151117,0.150749,0.791059,28,0.0116756,10,0.000119251,-3.10179,-0.0753421,-0.783094,-24.1622,0.150749,
2,1,0,1,0,54268.8,0.152615,0.152243,0.754349,28,0.0117937,10,0.000114844,-3.12243,-0.0793117,-0.7439,-21.9935,0.152243,
2,1,0,1,0,54268.9,0.154114,0.153737,0.726267,28,0.0119067,10,0.000111654,-3.1389,-0.08908,-0.662326,-18.8029,0.153737,
2,1,0,1,0,54269.1,0.155612,0.155277,0.69777,28,0.0120155,10,0.000108348,-3.15629,-0.0969127,-0.608795,-16.6205,0.155277,
2,1,0,1,0,54269.2,0.157109,0.156791,0.674937,28,0.0121206,10,0.000105824,-3.17074,-0.109283,-0.539884,-14.2539,0.156791,
2,1,0,1,0,54269.4,0.158608,0.158244,0.652507,28,0.0122224,10,0.000103255,-3.18541,-0.121689,-0.484844,-12.4233,0.158244,
2,1,0,1,0,54269.5,0.160106,0.159755,0.636772,28,0.0123212,10,0.000101727,-3.19602,-0.133221,-0.442873,-11.0595,0.159755,
2,1,0,1,0,54269.7,0.161604,0.161273,0.622063,28,0.0124177,10,0.000100322,-3.20617,-0.151736,-0.388833,-9.43314,0.1612732,
2,1,0,1,0,54269.8,0.163102,0.162779,0.610694,28,0.0125124,10,9.94082e-05,-3.21418,-0.175174,-0.336808,-8.02954,0.162779,
2,1,0,1,0,54270,0.164601,0.164247,0.598851,28,0.0126051,10,9.83592e-05,-3.22268,-0.195634,-0.301583,-7.06789,0.164247,
2,1,0,1,0,54270.1,0.166099,0.165705,0.590023,28,0.0126962,10,9.77696e-05,-3.22913,-0.250408,-0.235616,-5.43241,0.165705,
2,1,0,1,0,54270.3,0.167597,0.167234,0.580524,28,0.0127862,10,9.70832e-05,-3.23618,-0.317057,-0.186087,-4.2252,0.167234,
2,1,0,1,0,54270.4,0.169095,0.168786,0.576955,28,0.0128752,10,9.73821e-05,-3.23886,-0.318165,-0.185438,-4.17449,0.168786,
2,1,0,1,0,54270.6,0.170594,0.170266,0.569264,28,0.0129632,10,9.69264e-05,-3.24469,-0.309924,-0.190369,-4.22765,0.170266,
2,1,0,1,0,54270.7,0.172091,0.171729,0.562155,28,0.0130502,10,9.65381e-05,-3.25014,-0.389772,-0.15137,-3.33222,0.171729,
2,1,0,1,0,54270.9,0.173589,0.173245,0.559224,28,0.0131363,10,9.6883e-05,-3.25241,-0.551977,-0.106889,-2.33113,0.173245,
2,1,0,1,0,54271,0.175088,0.17468,0.555957,28,0.0132219,10,9.71146e-05,-3.25496,-0.52249,-0.112921,-2.44806,0.17468,
2,1,0,1,0,54271.2,0.176586,0.176208,0.550148,28,0.013307,10,9.69404e-05,-3.25952,-0.513683,-0.114857,-2.46149,0.176208,
2,1,0,1,0,54271.3,0.178084,0.177711,0.546479,28,0.0133915,10,9.7115e-05,-3.26243,-0.683856,-0.0862754,-1.84415,0.177711,
2,1,0,1,0,54271.5,0.179582,0.179216,0.543976,28,0.0134753,10,9.74893e-05,-3.26442,-0.590201,-0.099966,-2.129,0.179216,
2,1,0,1,0,54271.6,0.181081,0.180699,0.542177,28,0.0135588,10,9.79706e-05,-3.26586,-0.833212,-0.0708103,-1.49863,0.180699,
2,1,0,1,0,54271.8,0.182579,0.182192,0.539294,28,0.0136421,10,9.82549e-05,-3.26817,-0.533354,-0.110621,-2.32376,0.182192,
2,1,0,1,0,54271.9,0.184077,0.183736,0.537324,28,0.0137249,10,9.87256e-05,-3.26976,-0.905267,-0.0651741,-1.36804,0.183736,
2,1,0,1,0,54272.1,0.185576,0.185188,0.534819,28,0.0138072,10,9.90423e-05,-3.27179,-0.892359,-0.0661169,-1.38346,0.185188,
2,1,0,1,0,54272.2,0.187074,0.186714,0.533711,28,0.0138894,10,9.96511e-05,-3.27269,-1.33455,-0.0442097,-0.91749,0.186714,
2,1,0,1,0,54272.4,0.188571,0.188209,0.532496,28,0.0139713,10,0.00010022,-3.27368,-1.27661,-0.0462162,-0.957913,0.188209,
2,1,0,1,0,54272.5,0.19007,0.189709,0.529736,28,0.014053,10,0.000100496,-3.27594,-1.34654,-0.043816,-0.906524,0.189709,
2,1,0,1,0,54272.7,0.191568,0.19123,0.524759,28,0.0141343,10,0.00010035,-3.28004,-0.851195,-0.0693143,-1.42721,0.19123,
2,1,0,1,0,54272.8,0.193066,0.192713,0.524968,28,0.0142155,10,0.000101168,-3.27987,-4.09765,-0.0143985,-0.295608,0.192713,
2,1,0,1,0,54273,0.194564,0.194209,0.525139,28,0.0142965,10,0.000101987,-3.27973,-1.41471,-0.0417045,-0.854695,0.194209,
2,1,0,1,0,54273.1,0.196063,0.195689,0.524282,28,0.0143773,10,0.000102596,-3.28043,-0.728998,-0.080933,-1.65369,0.195689,
2,1,0,1,0,54273.3,0.197561,0.19722,0.521382,28,0.0144578,10,0.000102827,-3.28284,-1.6492,-0.0357749,-0.730247,0.19722,
2,1,0,1,0,54273.4,0.199059,0.19869,0.522177,28,0.014538,10,0.000103751,-3.28218,-1.868,-0.0315845,-0.642297,0.19869,
2,1,0,1,0,54273.6,0.200557,0.200157,0.520579,28,0.0146182,10,0.000104198,-3.28351,-2.34342,-0.0251768,-0.510554,0.200157,
2,1,0,1,0,54273.7,0.202056,0.201699,0.519538,28,0.0146983,10,0.00010479,-3.28438,-1.29879,-0.0454268,-0.918422,0.201699,
2,1,0,1,0,54273.9,0.203553,0.203192,0.517783,28,0.0147782,10,0.000105209,-3.28585,-5.47766,-0.010771,-0.218352,0.203192,
2,1,0,1,0,54274,0.205051,0.204705,0.517172,28,0.0148578,10,0.000105867,-3.28636,1.04108,0.056672,1.14923,0.204705,
2,1,0,1,0,54274.2,0.20655,0.206228,0.516185,28,0.0149374,10,0.000106452,-3.28719,-2.85209,-0.0206866,-0.417307,0.206228,
2,1,0,1,0,54274.3,0.208048,0.20772,0.514712,28,0.0150172,10,0.000106916,-3.28844,-1.06982,-0.0551493,-1.10677,0.20772,
2,1,0,1,0,54274.5,0.209546,0.209207,0.514335,28,0.0150966,10,0.000107602,-3.28875,-1.16397,-0.0506886,-1.01912,0.209207,
2,1,0,1,0,54274.6,0.211044,0.210674,0.514924,28,0.0151756,10,0.000108481,-3.28826,-2.79324,-0.0211224,-0.423261,0.210674,
2,1,0,1,0,54274.8,0.212543,0.212228,0.515634,28,0.0152547,10,0.000109432,-3.28766,-3.89375,-0.0151525,-0.302827,0.212228,
2,1,0,1,0,54274.9,0.214041,0.213707,0.513352,28,0.0153337,10,0.000109707,-3.28958,-2.09255,-0.0281952,-0.563948,0.2137071,
2,1,0,1,0,54275.1,0.215539,0.215211,0.511788,28,0.0154126,10,0.000110142,-3.29091,-1.50591,-0.039179,-0.784275,0.215211,
2,1,0,1,0,54275.2,0.217038,0.216683,0.51077,28,0.0154913,10,0.000110675,-3.29177,-2.2355,-0.0263923,-0.526913,0.216683,
2,1,0,1,0,54275.4,0.218535,0.218161,0.510268,28,0.01557,10,0.000111321,-3.2922,-9.28284,-0.00635581,-0.126516,0.218161,
2,1,0,1,0,54275.5,0.220033,0.219683,0.511523,28,0.0156486,10,0.000112373,-3.29113,-1.27318,-0.0463408,-0.922262,0.219683,
2,1,0,1,0,54275.7,0.221532,0.221234,0.508991,28,0.0157273,10,0.000112606,-3.29329,-1.21592,-0.0485231,-0.963908,0.221234,
2,1,0,1,0,54275.8,0.22303,0.22267,0.505934,28,0.0158055,10,0.000112656,-3.29591,-1.12437,-0.0524737,-1.03875,0.22267,
2,1,0,1,0,54276,0.224528,0.224236,0.507854,28,0.0158836,10,0.000113879,-3.29426,-13.1689,-0.00448027,-0.0886811,0.224236,
2,1,0,1,0,54276.1,0.226026,0.225727,0.505578,28,0.0159618,10,0.000114123,-3.29621,-3.98555,-0.0148035,-0.292226,0.225727,
2,1,0,1,0,54276.3,0.227524,0.227199,0.506485,28,0.0160398,10,0.000115073,-3.29543,-1.08257,-0.0544997,-1.07664,0.227199,
2,1,0,1,0,54276.4,0.229023,0.228708,0.504506,28,0.0161177,10,0.000115384,-3.29713,-1.84794,-0.0319274,-0.629859,0.228708,
2,1,0,1,0,54276.6,0.230521,0.230204,0.504904,28,0.0161954,10,0.000116231,-3.29679,8.48992,0.00694942,0.137313,0.230204,
2,1,0,1,0,54276.7,0.232019,0.231662,0.503111,28,0.0162731,10,0.000116552,-3.29834,-3.33441,-0.0176943,-0.347948,0.2316619,
2,1,0,1,0,54276.9,0.233518,0.233173,0.50471,28,0.016351,10,0.000117685,-3.29696,-3.46995,-0.0170031,-0.333928,0.233173,
2,1,0,1,0,54277,0.235015,0.234653,0.503105,28,0.0164285,10,0.000118055,-3.29834,-3.5782,-0.0164887,-0.323118,0.2346532,
2,1,0,1,0,54277.2,0.236513,0.23612,0.501264,28,0.0165058,10,0.000118358,-3.29993,-4.33277,-0.0136172,-0.266894,0.23612,
2,1,0,1,0,54277.3,0.238012,0.237684,0.501099,28,0.0165832,10,0.000119103,-3.30008,-6.15873,-0.0095799,-0.186894,0.237684,
2,1,0,1,0,54277.5,0.23951,0.239183,0.501038,28,0.0166605,10,0.00011984,-3.30013,-2.89961,-0.0203476,-0.398148,0.239183,
2,1,0,1,0,54277.6,0.241008,0.240718,0.500187,28,0.0167378,10,0.000120404,-3.30087,-6.49324,-0.00908638,-0.17744,0.240718,
2,1,0,1,0,54277.8,0.242506,0.242192,0.50009,28,0.0168148,10,0.000121118,-3.30095,-1.3637,-0.0432647,-0.845705,0.242192,
2,1,0,1,0,54277.9,0.244005,0.243666,0.500016,28,0.0168918,10,0.000121837,-3.30102,-8.28028,-0.00712536,-0.138804,0.243666,
2,1,0,1,0,54278.1,0.245503,0.245174,0.500431,28,0.0169687,10,0.000122692,-3.30066,-2.00174,-0.0294744,-0.574924,0.2451736,
2,1,0,1,0,54278.2,0.247001,0.246644,0.499227,28,0.0170456,10,0.000123131,-3.3017,-2.7971,-0.0210933,-0.409446,0.246644,
2,1,0,1,0,54278.4,0.2485,0.248133,0.496911,28,0.0171224,10,0.0001233,-3.30372,-1.31965,-0.0447088,-0.869314,0.248133,
2,1,0,1,0,54278.5,0.249997,0.249624,0.496626,28,0.017199,10,0.00012397,-3.30397,-3.1299,-0.0188504,-0.36571,0.249624,
2,1,0,1,0,54278.7,0.251495,0.251176,0.49629,28,0.0172755,10,0.000124656,-3.30426,-11.9019,-0.0049572,-0.0960949,0.251176,
2,1,0,1,0,54278.8,0.252994,0.252648,0.494356,28,0.017352,10,0.000124898,-3.30596,-1.43445,-0.0411306,-0.793924,0.252648,
2,1,0,1,0,54279,0.254492,0.254149,0.494554,28,0.0174284,10,0.00012569,-3.30579,-1.77523,-0.0332351,-0.643563,0.2541489,
2,1,0,1,0,54279.1,0.25599,0.255606,0.493873,28,0.0175045,10,0.000126237,-3.30638,-8.07847,-0.00730336,-0.14119,0.255606,
2,1,0,1,0,54279.3,0.257488,0.257159,0.494442,28,0.0175807,10,0.00012715,-3.30588,-2.20691,-0.0267342,-0.51503,0.257159,
2,1,0,1,0,54279.4,0.258987,0.258668,0.494186,28,0.0176569,10,0.00012783,-3.30611,-1.98051,-0.0297903,-0.573168,0.258668,
2,1,0,1,0,54279.6,0.260485,0.260179,0.493252,28,0.0177329,10,0.000128334,-3.30693,-1.30111,-0.0453458,-0.871395,0.260179,
2,1,0,1,0,54279.7,0.261983,0.261636,0.491824,28,0.0178086,10,0.000128679,-3.30819,25.4981,0.0023139,0.0444198,0.261636,
2,1,0,1,0,54279.9,0.263481,0.263118,0.492337,28,0.0178844,10,0.000129543,-3.30774,46.1082,0.0012796,0.0245064,0.263118,
2,1,0,1,0,54280,0.26498,0.264653,0.491805,28,0.0179603,10,0.000130158,-3.30821,-3.33631,-0.0176842,-0.339005,0.264653,
2,1,0,1,0,54280.2,0.266477,0.266167,0.488456,28,0.0180359,10,0.000130011,-3.31117,-3.71467,-0.015883,-0.304023,0.266167,
2,1,0,1,0,54280.3,0.267976,0.267603,0.486674,28,0.0181113,10,0.000130236,-3.31276,-4.29141,-0.0137484,-0.262816,0.267603,
2,1,0,1,0,54280.5,0.269474,0.269128,0.48759,28,0.0181867,10,0.000131224,-3.31195,-3.47167,-0.0169947,-0.324013,0.2691282,
2,1,0,1,0,54280.6,0.270972,0.270634,0.48903,28,0.018262,10,0.000132348,-3.31066,-1.84185,-0.032033,-0.609657,0.270634,
2,1,0,1,0,54280.8,0.27247,0.27209,0.487139,28,0.0183373,10,0.000132546,-3.31235,-1.12944,-0.0522383,-0.990731,0.27209,
2,1,0,1,0,54280.9,0.273968,0.273647,0.485708,28,0.0184123,10,0.000132912,-3.31362,-1.2172,-0.0484719,-0.922202,0.273647,
2,1,0,1,0,54281.1,0.275467,0.275149,0.484642,28,0.0184871,10,0.000133349,-3.31458,-2.34747,-0.0251335,-0.475904,0.2751492,
2,1,0,1,0,54281.2,0.276965,0.276616,0.485475,28,0.018562,10,0.00013429,-3.31383,-2.0356,-0.0289841,-0.548915,0.276616,
2,1,0,1,0,54281.4,0.278463,0.278093,0.485081,28,0.0186367,10,0.000134898,-3.31419,-0.888427,-0.0664095,-1.25264,0.278093,
2,1,0,1,0,54281.5,0.279962,0.279618,0.483788,28,0.0187114,10,0.000135276,-3.31534,-1.8664,-0.0316117,-0.596581,0.279618,
2,1,0,1,0,54281.7,0.281459,0.281113,0.482803,28,0.0187857,10,0.000135722,-3.31623,-1.71436,-0.0344152,-0.64929,0.281113,
2,1,0,1,0,54281.8,0.282957,0.282602,0.482599,28,0.0188601,10,0.000136384,-3.31641,-12.8737,-0.004583,-0.0860376,0.282602,
2,1,0,1,0,54282,0.284456,0.284138,0.482074,28,0.0189345,10,0.000136976,-3.31689,-2.83539,-0.0208084,-0.390429,0.284138,
2,1,0,1,0,54282.1,0.285954,0.285637,0.481076,28,0.0190087,10,0.000137413,-3.31779,-4.25038,-0.0138811,-0.260467,0.285637,
2,1,0,1,0,54282.3,0.287452,0.287088,0.479186,28,0.0190825,10,0.000137569,-3.3195,-1.1477,-0.051407,-0.962672,0.2870883,
2,1,0,1,0,54282.4,0.28895,0.288595,0.479133,28,0.0191564,10,0.000138275,-3.31954,-25.1149,-0.00234921,-0.0438368,0.288595,
2,1,0,1,0,54282.6,0.290449,0.290098,0.476636,28,0.0192302,10,0.000138271,-3.32181,-1.39602,-0.0422631,-0.789744,0.290098,
2,1,0,1,0,54282.7,0.291947,0.291613,0.478255,28,0.0193038,10,0.000139466,-3.32034,-1.91595,-0.0307941,-0.575021,0.291613,
2,1,0,1,0,54282.9,0.293445,0.293098,0.475953,28,0.0193773,10,0.000139501,-3.32244,-1.14838,-0.0513766,-0.954714,0.293098,
2,1,0,1,0,54283,0.294943,0.294579,0.475805,28,0.0194507,10,0.000140162,-3.32257,-7.89924,-0.00746907,-0.138587,0.294579,
2,1,0,1,0,54283.2,0.296442,0.296108,0.475755,28,0.019524,10,0.000140875,-3.32262,16.7945,0.00351306,0.0649999,0.296108,
2,1,0,1,0,54283.3,0.297939,0.297598,0.47542,28,0.0195973,10,0.000141484,-3.32292,-1.51797,-0.0388677,-0.718599,0.297598,
2,1,0,1,0,54283.5,0.299437,0.299086,0.472746,28,0.0196704,10,0.000141392,-3.32537,-0.00298055,-19.795,-197.435,0.299086,
2,1,0,1,0,54283.6,0.299738,0.29941,0.268824,28,0.0197062,10,8.04888e-05,-3.57053,0.00047299,124.738,405.142,0.29941,
2,1,0,1,0,54283.7,0.29824,0.297933,0.0234365,28,0.0197195,10,6.98253e-06,-4.63011,0.00341629,17.2702,134.886,0.2979334,
2,0,0,1,0,54283.9,0.296741,0.29638,-0.0253552,28,0.0197167,10,-7.51477e-06,-4.59593,-0.222379,-0.265313,28.652,0.29638,
2,0,0,1,0,54284,0.295243,0.294882,-0.0510556,28,0.0197087,10,-1.50554e-05,-4.29196,-0.00548995,-10.7469,15.0007,0.294882,
2,0,0,1,0,54284.2,0.293745,0.293409,-0.0696066,28,0.0196976,10,-2.04232e-05,-4.15735,-0.0131669,-4.48093,11.0504,0.293409,
2,0,0,1,0,54284.3,0.292246,0.29192,-0.0824302,28,0.0196841,10,-2.4063e-05,-4.08391,-0.0203364,-2.9012,9.05632,0.29192,
2,0,0,1,0,54284.5,0.290748,0.290396,-0.0954277,28,0.0196685,10,-2.77118e-05,-4.02033,-0.0267576,-2.20498,8.07429,0.290396,
2,0,0,1,0,54284.6,0.28925,0.288906,-0.107907,28,0.019651,10,-3.11749e-05,-3.96695,-0.0369159,-1.59823,6.5368,0.288906,
2,0,0,1,0,54284.8,0.287752,0.287447,-0.116835,28,0.0196321,10,-3.35838e-05,-3.93243,-0.0457471,-1.2897,5.85463,0.287447,
2,0,0,1,0,54284.9,0.286253,0.285919,-0.125385,28,0.0196119,10,-3.58499e-05,-3.90176,-0.0522527,-1.12913,5.51467,0.285919,
2,0,0,1,0,54285.1,0.284755,0.284424,-0.133252,28,0.0195904,10,-3.79e-05,-3.87533,-0.0542835,-1.08689,5.63976,0.284424,
2,0,0,1,0,54285.2,0.283258,0.282892,-0.142953,28,0.0195677,10,-4.04401e-05,-3.84481,-0.0643731,-0.916533,5.04326,0.282892,
2,0,0,1,0,54285.4,0.281759,0.281405,-0.149508,28,0.0195438,10,-4.20722e-05,-3.82534,-0.0771659,-0.764587,4.39487,0.2814045,
2,0,0,1,0,54285.5,0.280261,0.279922,-0.152638,28,0.0195189,10,-4.27268e-05,-3.81634,-0.0828842,-0.711837,4.26338,0.279922,
2,0,0,1,0,54285.7,0.278763,0.278453,-0.161543,28,0.0194931,10,-4.49821e-05,-3.79171,-0.0954849,-0.617899,3.87751,0.278453,
2,0,0,1,0,54285.8,0.277264,0.276903,-0.168315,28,0.0194663,10,-4.6607e-05,-3.77388,-0.0953195,-0.618971,4.04634,0.276903,
2,0,0,1,0,54286,0.275766,0.27546,-0.172455,28,0.0194386,10,-4.75045e-05,-3.76332,-0.125919,-0.468556,3.14403,0.27546,
2,0,0,1,0,54286.1,0.274268,0.273928,-0.178633,28,0.01941,10,-4.89325e-05,-3.74804,-0.113911,-0.517947,3.60826,0.2739276,
2,0,0,1,0,54286.3,0.27277,0.272375,-0.184605,28,0.0193808,10,-5.02817e-05,-3.73376,-0.111878,-0.527362,3.81051,0.272375,
2,0,0,1,0,54286.4,0.271272,0.270926,-0.190408,28,0.0193506,10,-5.15865e-05,-3.72031,-0.133166,-0.443055,3.26521,0.270926,
2,0,0,1,0,54286.6,0.269773,0.269413,-0.195417,28,0.0193195,10,-5.26479e-05,-3.70904,-0.12225,-0.482618,3.65445,0.269413,
2,0,0,1,0,54286.7,0.268275,0.267945,-0.200306,28,0.0192878,10,-5.36709e-05,-3.69831,-0.154423,-0.382067,2.97766,0.267945,
2,0,0,1,0,54286.9,0.266778,0.266435,-0.202947,28,0.0192555,10,-5.40721e-05,-3.69262,-0.141641,-0.416547,3.32676,0.266435,
2,0,0,1,0,54287,0.265279,0.264946,-0.210102,28,0.0192222,10,-5.56656e-05,-3.67757,-0.11704,-0.504103,4.07928,0.264946,
2,0,0,1,0,54287.2,0.263781,0.263437,-0.213147,28,0.0191883,10,-5.61507e-05,-3.67132,-0.154772,-0.381206,3.18186,0.263437,
2,0,0,1,0,54287.3,0.262283,0.261946,-0.217184,28,0.0191538,10,-5.68904e-05,-3.66317,-0.161702,-0.36487,3.09737,0.261946,
2,0,0,1,0,54287.5,0.260784,0.260464,-0.21979,28,0.0191188,10,-5.72472e-05,-3.65799,-0.171081,-0.344865,2.99699,0.2604636,
2,0,0,1,0,54287.6,0.259286,0.258963,-0.225373,28,0.019083,10,-5.83632e-05,-3.6471,-0.172766,-0.341502,3.00424,0.258963,
2,0,0,1,0,54287.8,0.257788,0.257418,-0.233879,28,0.0190466,10,-6.02048e-05,-3.63101,-0.221315,-0.266589,2.40143,0.257418,
2,0,0,1,0,54287.9,0.25629,0.255914,-0.235393,28,0.0190095,10,-6.02405e-05,-3.62821,-0.234017,-0.252119,2.29505,0.255914,
2,0,0,1,0,54288.1,0.254791,0.254432,-0.237254,28,0.0189719,10,-6.03649e-05,-3.62479,-0.216204,-0.272891,2.54128,0.254432,
2,0,0,1,0,54288.2,0.253293,0.252914,-0.242448,28,0.0189338,10,-6.13184e-05,-3.61538,-0.224,-0.263392,2.49178,0.2529135,
2,0,0,1,0,54288.4,0.251796,0.251433,-0.246024,28,0.0188951,10,-6.18584e-05,-3.60902,-0.263444,-0.223957,2.15553,0.251433,
2,0,0,1,0,54288.5,0.250297,0.249963,-0.248847,28,0.0188557,10,-6.22026e-05,-3.60407,-0.400142,-0.147448,1.42849,0.249963,
2,0,0,1,0,54288.7,0.248799,0.248449,-0.255101,28,0.0188159,10,-6.33797e-05,-3.59329,-0.279692,-0.210946,2.08196,0.248449,
2,0,0,1,0,54288.8,0.247301,0.24691,-0.255319,28,0.0187757,10,-6.30407e-05,-3.59292,-0.296441,-0.199028,1.99395,0.24691,
2,0,0,1,0,54289,0.245802,0.245472,-0.260384,28,0.0187349,10,-6.39168e-05,-3.58439,-0.245902,-0.239933,2.42474,0.2454716,
2,0,0,1,0,54289.1,0.244304,0.243973,-0.262916,28,0.0186935,10,-6.41445e-05,-3.58018,-0.271356,-0.217426,2.23388,0.243973,
2,0,0,1,0,54289.3,0.242806,0.242399,-0.2672,28,0.0186517,10,-6.4769e-05,-3.57316,-0.380972,-0.154867,1.61185,0.242399,
2,0,0,1,0,54289.4,0.241308,0.240959,-0.268175,28,0.0186096,10,-6.46191e-05,-3.57158,-0.308139,-0.191472,2.00006,0.240959,
2,0,0,1,0,54289.6,0.23981,0.239464,-0.271535,28,0.0185669,10,-6.50229e-05,-3.56617,-0.238056,-0.247841,2.63412,0.239464,
2,0,0,1,0,54289.7,0.238311,0.237956,-0.275592,28,0.0185237,10,-6.55788e-05,-3.55973,-0.269339,-0.219055,2.35173,0.237956,
2,0,0,1,0,54289.9,0.236814,0.23647,-0.278619,28,0.01848,10,-6.5885e-05,-3.55499,-0.343273,-0.171875,1.87058,0.23647,
2,0,0,1,0,54290,0.235316,0.234995,-0.278584,28,0.018436,10,-6.5466e-05,-3.55504,-0.356221,-0.165628,1.81493,0.234995,
2,0,0,1,0,54290.2,0.233817,0.233495,-0.28574,28,0.0183914,10,-6.67189e-05,-3.54403,-0.283124,-0.208389,2.31061,0.233495,
2,0,0,1,0,54290.3,0.232319,0.231954,-0.287439,28,0.0183464,10,-6.66724e-05,-3.54145,-0.30089,-0.196085,2.18834,0.231954,
2,0,0,1,0,54290.5,0.230821,0.230494,-0.289815,28,0.0183008,10,-6.68007e-05,-3.53788,-0.422732,-0.139568,1.57222,0.230494,
2,0,0,1,0,54290.6,0.229322,0.228972,-0.291608,28,0.0182549,10,-6.677e-05,-3.5352,-0.42711,-0.138138,1.58153,0.228972,
2,0,0,1,0,54290.8,0.227824,0.22745,-0.296202,28,0.0182087,10,-6.73711e-05,-3.52841,-0.316068,-0.186669,2.15676,0.22745,
2,0,0,1,0,54290.9,0.226326,0.225976,-0.299326,28,0.0181619,10,-6.76405e-05,-3.52386,-0.370829,-0.159103,1.8564,0.225976,
2,0,0,1,0,54291.1,0.224828,0.22449,-0.30248,28,0.0181146,10,-6.79038e-05,-3.5193,-0.412945,-0.142876,1.67854,0.22449,
2,0,0,1,0,54291.2,0.223329,0.222983,-0.304329,28,0.0180668,10,-6.78602e-05,-3.51666,-0.358707,-0.16448,1.95603,0.222983,
2,0,0,1,0,54291.4,0.221831,0.221466,-0.30801,28,0.0180188,10,-6.82137e-05,-3.51144,-0.31023,-0.190182,2.28158,0.221466,
2,0,0,1,0,54291.5,0.220334,0.220015,-0.311659,28,0.0179703,10,-6.85698e-05,-3.50632,-0.291212,-0.202602,2.45796,0.220015,
2,0,0,1,0,54291.7,0.218835,0.218514,-0.31407,28,0.017921,10,-6.86286e-05,-3.50297,-0.307337,-0.191972,2.3569,0.218514,
2,0,0,1,0,54291.8,0.217337,0.216943,-0.315754,28,0.0178715,10,-6.85007e-05,-3.50065,-0.555145,-0.106279,1.31734,0.216943,
2,0,0,1,0,54292,0.215839,0.215478,-0.318163,28,0.0178217,10,-6.8557e-05,-3.49735,-0.382792,-0.154131,1.92199,0.215478,
2,0,0,1,0,54292.1,0.21434,0.213944,-0.322149,28,0.0177713,10,-6.89218e-05,-3.49194,-0.276547,-0.213346,2.67481,0.213944,
2,0,0,1,0,54292.3,0.212842,0.212462,-0.325138,28,0.0177206,10,-6.90796e-05,-3.48793,-0.5085,-0.116028,1.47551,0.212462,
2,0,0,1,0,54292.4,0.211344,0.210998,-0.328451,28,0.0176692,10,-6.93024e-05,-3.48353,-0.517508,-0.114008,1.45939,0.210998,
2,0,0,1,0,54292.6,0.209846,0.209485,-0.329069,28,0.0176177,10,-6.89349e-05,-3.48271,-0.613127,-0.096228,1.24526,0.209485,
2,0,0,1,0,54292.7,0.208348,0.207997,-0.334479,28,0.0175657,10,-6.95705e-05,-3.47563,-0.323534,-0.182361,2.38324,0.207997,
2,0,0,1,0,54292.9,0.206849,0.20651,-0.339953,28,0.017513,10,-7.02036e-05,-3.46858,-0.389148,-0.151613,1.99964,0.20651,
2,0,0,1,0,54293,0.205352,0.205029,-0.339318,28,0.0174599,10,-6.95701e-05,-3.46939,-0.489005,-0.120653,1.59731,0.205029,
2,0,0,1,0,54293.2,0.203854,0.203467,-0.342685,28,0.0174064,10,-6.97252e-05,-3.46511,-0.416649,-0.141606,1.89582,0.2034675,
2,0,0,1,0,54293.3,0.202355,0.201992,-0.346336,28,0.0173527,10,-6.99571e-05,-3.4605,-0.430922,-0.136916,1.852,0.201992,
2,0,0,1,0,54293.5,0.200857,0.200517,-0.348951,28,0.0172984,10,-6.99705e-05,-3.45724,-0.378113,-0.156038,2.12266,0.200517,
2,0,0,1,0,54293.6,0.199359,0.199063,-0.352473,28,0.0172435,10,-7.01643e-05,-3.45287,-0.532668,-0.110763,1.51819,0.1990629,
2,0,0,1,0,54293.8,0.19786,0.197513,-0.356215,28,0.0171882,10,-7.0357e-05,-3.44829,-0.490443,-0.120299,1.66669,0.197513,
2,0,0,1,0,54293.9,0.196362,0.196004,-0.358115,28,0.0171326,10,-7.01918e-05,-3.44598,-0.411743,-0.143293,2.00261,0.196004,
2,0,0,1,0,54294.1,0.194864,0.194442,-0.361389,28,0.0170764,10,-7.02691e-05,-3.44202,-0.380619,-0.155011,2.18442,0.194442,
2,0,0,1,0,54294.2,0.193366,0.192996,-0.36451,28,0.0170196,10,-7.03492e-05,-3.43829,-0.322194,-0.18312,2.61062,0.192996,
2,0,0,1,0,54294.4,0.191867,0.19148,-0.368292,28,0.0169624,10,-7.05204e-05,-3.43381,-0.493792,-0.119484,1.72087,0.19148,
2,0,0,1,0,54294.5,0.190369,0.190047,-0.370666,28,0.0169049,10,-7.04439e-05,-3.43102,-0.318115,-0.185468,2.69474,0.190047,
2,0,0,1,0,54294.6,0.188872,0.188505,-0.374221,28,0.0168468,10,-7.05425e-05,-3.42687,-0.300977,-0.196028,2.86177,0.188505,
2,0,0,1,0,54294.8,0.187373,0.187017,-0.378986,28,0.0167881,10,-7.08767e-05,-3.42138,-0.41173,-0.143298,2.11406,0.187017,
2,0,0,1,0,54294.9,0.185875,0.185512,-0.382057,28,0.0167289,10,-7.08762e-05,-3.41787,-0.462552,-0.127553,1.8937,0.185512,
2,0,0,1,0,54295.1,0.184377,0.184022,-0.382104,28,0.0166693,10,-7.03156e-05,-3.41782,-0.361835,-0.163058,2.45542,0.184022,
2,0,0,1,0,54295.2,0.182878,0.182511,-0.389107,28,0.0166092,10,-7.10162e-05,-3.40993,-0.39705,-0.148596,2.25174,0.182511,
2,0,0,1,0,54295.4,0.18138,0.181042,-0.393647,28,0.0165484,10,-7.12668e-05,-3.40489,-0.377118,-0.15645,2.40235,0.181042,
2,0,0,1,0,54295.5,0.179882,0.179554,-0.396318,28,0.0164871,10,-7.11603e-05,-3.40196,-0.440121,-0.134054,2.06916,0.179554,
2,0,0,1,0,54295.7,0.178384,0.177991,-0.4014,28,0.0164252,10,-7.14454e-05,-3.39642,-0.388918,-0.151703,2.37031,0.177991,
2,0,0,1,0,54295.8,0.176886,0.176546,-0.404957,28,0.0163628,10,-7.14937e-05,-3.39259,-0.369306,-0.159759,2.52503,0.176546,
2,0,0,1,0,54296,0.175387,0.174998,-0.409215,28,0.0162996,10,-7.16119e-05,-3.38805,-0.351567,-0.16782,2.67626,0.174998,
2,0,0,1,0,54296.1,0.17389,0.173545,-0.413655,28,0.0162357,10,-7.17878e-05,-3.38336,-0.308737,-0.191101,3.08304,0.173545,
2,0,0,1,0,54296.3,0.172392,0.172052,-0.418476,28,0.0161713,10,-7.19997e-05,-3.37833,-0.294772,-0.200155,3.27112,0.172052,
2,0,0,1,0,54296.4,0.170893,0.17054,-0.420997,28,0.0161061,10,-7.17968e-05,-3.37572,-0.266266,-0.221583,3.6572,0.17054,
2,0,0,1,0,54296.6,0.169395,0.169019,-0.427958,28,0.0160401,10,-7.23332e-05,-3.3686,-0.235053,-0.251008,4.18579,0.169019,
2,0,0,1,0,54296.7,0.167897,0.167527,-0.43188,28,0.0159732,10,-7.23517e-05,-3.36464,-0.284435,-0.207428,3.51006,0.167527,
2,0,0,1,0,54296.9,0.166398,0.166017,-0.438935,28,0.0159056,10,-7.28709e-05,-3.3576,-0.296589,-0.198929,3.4195,0.166017,
2,0,0,1,0,54297,0.1649,0.164547,-0.443057,28,0.0158372,10,-7.29036e-05,-3.35354,-0.244863,-0.240951,4.18299,0.164547,
2,0,0,1,0,54297.2,0.163402,0.163033,-0.451879,28,0.0157678,10,-7.36715e-05,-3.34498,-0.227982,-0.258793,4.55438,0.163033,
2,0,0,1,0,54297.3,0.161904,0.161555,-0.459055,28,0.0156972,10,-7.41628e-05,-3.33813,-0.222541,-0.26512,4.73102,0.161555,
2,0,0,1,0,54297.5,0.160405,0.160053,-0.467,28,0.0156255,10,-7.47448e-05,-3.33068,-0.228809,-0.257857,4.68901,0.160053,
2,0,0,1,0,54297.6,0.158907,0.15852,-0.47312,28,0.0155528,10,-7.49992e-05,-3.32503,-0.186268,-0.316748,5.86684,0.1585204,
2,0,0,1,0,54297.8,0.15741,0.157042,-0.483812,28,0.0154789,10,-7.59787e-05,-3.31532,-0.1627,-0.362631,6.862,0.157042,
2,0,0,1,0,54297.9,0.155911,0.155525,-0.493319,28,0.0154034,10,-7.67232e-05,-3.30687,-0.163182,-0.36156,6.96665,0.155525,
2,0,0,1,0,54298.1,0.154413,0.154036,-0.503622,28,0.0153263,10,-7.75758e-05,-3.2979,-0.167908,-0.351382,6.90275,0.154036,
2,0,0,1,0,54298.2,0.152915,0.152571,-0.514944,28,0.0152476,10,-7.85657e-05,-3.28824,-0.148134,-0.398288,8.01395,0.1525715,
2,0,0,1,0,54298.4,0.151417,0.151053,-0.527502,28,0.0151674,10,-7.96808e-05,-3.27778,-0.139552,-0.422782,8.72425,0.151053,
2,0,0,1,0,54298.5,0.149918,0.149527,-0.541787,28,0.015085,10,-8.10118e-05,-3.26617,-0.116341,-0.507131,10.7235,0.149527,
2,0,0,1,0,54298.7,0.14842,0.148063,-0.560046,28,0.0150002,10,-8.29219e-05,-3.25178,-0.113883,-0.518077,11.3022,0.148063,
2,0,0,1,0,54298.8,0.146922,0.146566,-0.575979,28,0.0149128,10,-8.44192e-05,-3.23959,-0.101545,-0.581022,13.0898,0.146566,
2,0,0,1,0,54299,0.145424,0.145028,-0.596329,28,0.0148229,10,-8.64843e-05,-3.22451,-0.0995993,-0.592374,13.8101,0.145028,
2,0,0,1,0,54299.1,0.143925,0.143586,-0.617913,28,0.0147295,10,-8.87237e-05,-3.20907,-0.0874859,-0.674394,16.2548,0.143586,
2,0,0,1,0,54299.3,0.142428,0.142084,-0.643401,28,0.0146327,10,-9.14173e-05,-3.19152,-0.0892762,-0.66087,16.5919,0.142084,
2,0,0,1,0,54299.4,0.14093,0.140551,-0.666964,28,0.0145323,10,-9.37424e-05,-3.1759,-0.0885063,-0.666619,17.41,0.140551,
2,0,0,1,0,54299.6,0.139431,0.139029,-0.692862,28,0.0144279,10,-9.63279e-05,-3.15935,-0.0820901,-0.718723,19.5387,0.139029,
2,0,0,1,0,54299.7,0.137933,0.137608,-0.725285,28,0.0143191,10,-9.98051e-05,-3.13949,-0.0825201,-0.714977,20.2043,0.1376081,
2,0,0,1,0,54299.9,0.136435,0.136029,-0.75592,28,0.0142059,10,-0.000102827,-3.12152,-0.0849737,-0.694333,20.4615,0.136029,
2,0,0,1,0,54300,0.134936,0.13458,-0.787324,28,0.0140878,10,-0.000105958,-3.10385,-0.0892404,-0.661136,20.2744,0.13458,
2,0,0,1,0,54300.2,0.133438,0.133071,-0.818287,28,0.0139649,10,-0.00010889,-3.08709,-0.0884237,-0.667242,21.3423,0.133071,
2,0,0,1,0,54300.3,0.13194,0.131586,-0.850648,28,0.0138375,10,-0.000111933,-3.07025,-0.0921592,-0.640197,21.32,0.131586,
2,0,0,1,0,54300.5,0.130442,0.130068,-0.882438,28,0.0137052,10,-0.000114776,-3.05432,-0.0982144,-0.600727,20.6543,0.130068,
2,0,0,1,0,54300.6,0.128943,0.12857,-0.913968,28,0.0135679,10,-0.000117509,-3.03907,-0.104435,-0.564947,20.0882,0.12857,
2,0,0,1,0,54300.8,0.127445,0.127078,-0.943511,28,0.0134263,10,-0.0001199,-3.02525,-0.109949,-0.536611,19.7289,0.127078,
2,0,0,1,0,54300.9,0.125948,0.125584,-0.971164,28,0.0132806,10,-0.000121962,-3.01271,-0.118663,-0.497207,18.807,0.125584,
2,0,0,1,0,54301.1,0.124449,0.124091,-0.997321,28,0.0131305,10,-0.000123759,-3.00117,-0.129847,-0.454381,17.6324,0.1240911,
2,0,0,1,0,54301.2,0.122951,0.122597,-1.02209,28,0.0129766,10,-0.000125305,-2.99051,-0.14323,-0.411925,16.3977,0.122597,
2,0,0,1,0,54301.4,0.121453,0.121065,-1.04533,28,0.0128191,10,-0.000126553,-2.98075,-0.169712,-0.347648,14.1436,0.1210647,
2,0,0,1,0,54301.5,0.119955,0.119565,-1.06297,28,0.0126586,10,-0.000127095,-2.97348,-0.196519,-0.300225,12.4713,0.119565,
2,0,0,1,0,54301.7,0.118456,0.118096,-1.08186,28,0.0124954,10,-0.000127763,-2.96583,-0.217511,-0.271251,11.4256,0.118096,
2,0,0,1,0,54301.8,0.116958,0.116581,-1.09979,28,0.0123293,10,-0.000128215,-2.95869,-0.276085,-0.213702,9.13095,0.1165813,
2,0,0,1,0,54302,0.11546,0.115098,-1.10945,28,0.0121614,10,-0.000127696,-2.95489,-0.419979,-0.140483,6.06551,0.115098,
2,0,0,1,0,54302.1,0.113962,0.1136,-1.11614,28,0.0119921,10,-0.000126794,-2.95228,-0.581876,-0.101396,4.41246,0.1136,
2,0,0,1,0,54302.3,0.112463,0.112091,-1.12419,28,0.0118219,10,-0.000126012,-2.94916,-0.772489,-0.0763765,3.34135,0.112091,
2,0,0,1,0,54302.4,0.110966,0.110589,-1.1281,28,0.0116508,10,-0.000124755,-2.94765,-1.22875,-0.0480164,2.10778,0.110589,
2,0,0,1,0,54302.6,0.109468,0.109108,-1.12737,28,0.0114794,10,-0.000123006,-2.94793,18.7037,0.00315446,-0.138491,0.109108,
2,0,0,1,0,54302.7,0.107969,0.107617,-1.12835,28,0.0113077,10,-0.000121429,-2.94756,2.53814,0.0232453,-1.02336,0.107617,
2,0,0,1,0,54302.9,0.106471,0.106108,-1.12387,28,0.0111368,10,-0.000119252,-2.94928,1.86533,0.0316299,-1.39088,0.106108,
2,0,0,1,0,54303,0.104973,0.104603,-1.12235,28,0.010966,10,-0.000117402,-2.94987,1.73243,0.0340562,-1.49266,0.104603,
2,0,0,1,0,54303.2,0.103474,0.103133,-1.1202,28,0.0107955,10,-0.00011553,-2.9507,0.786891,0.0749786,-3.27313,0.103133,
2,0,0,1,0,54303.3,0.101976,0.101635,-1.11593,28,0.0106256,10,-0.000113418,-2.95236,0.702217,0.0840196,-3.65492,0.101635,
2,0,0,1,0,54303.5,0.100478,0.100106,-1.10907,28,0.0104569,10,-0.000111025,-2.95504,0.722868,0.0816193,-3.53124,0.100106,
2,0,0,1,0,54303.6,0.0989798,0.0986297,-1.10501,28,0.0102887,10,-0.000108987,-2.95663,0.783543,0.075299,-3.2442,0.0986297,
2,0,0,1,0,54303.8,0.0974808,0.0971195,-1.09949,28,0.0101212,10,-0.000106782,-2.95881,0.737344,0.080017,-3.42917,0.0971195,
2,0,0,1,0,54303.9,0.0959833,0.0956145,-1.09331,28,0.00995455,10,-0.000104536,-2.96126,0.663449,0.0889293,-3.79594,0.0956145,
2,0,0,1,0,54304.1,0.0944857,0.0942041,-1.08478,28,0.00978893,10,-0.00010219,-2.96466,0.789774,0.0747049,-3.17157,0.0942041,
2,0,0,1,0,54304.2,0.0929871,0.0926204,-1.08349,28,0.00962388,10,-0.000100353,-2.96518,0.874008,0.0675051,-2.85231,0.0926204,
2,0,0,1,0,54304.4,0.0914889,0.091157,-1.07923,28,0.00945963,10,-9.83792e-05,-2.96689,0.678353,0.0869754,-3.65667,0.091157,
2,0,0,1,0,54304.5,0.0899907,0.0896247,-1.07241,28,0.00929608,10,-9.61148e-05,-2.96964,0.742505,0.0794607,-3.32151,0.08962471,
2,0,0,1,0,54304.7,0.0884925,0.0881338,-1.06379,28,0.0091334,10,-9.3756e-05,-2.97314,0.608188,0.0970095,-4.03337,0.0881338,
2,0,0,1,0,54304.8,0.0869943,0.0866694,-1.06314,28,0.00897167,10,-9.21415e-05,-2.97341,0.667429,0.0883989,-3.66469,0.0866694,
2,0,0,1,0,54305,0.0854961,0.0851615,-1.05579,28,0.00881069,10,-8.99128e-05,-2.97642,0.679682,0.0868052,-3.57613,0.0851615,
2,0,0,1,0,54305.1,0.083998,0.0836843,-1.05142,28,0.00865038,10,-8.79878e-05,-2.97822,0.514379,0.114701,-4.69549,0.0836843,
2,0,0,1,0,54305.3,0.0824998,0.0820979,-1.04561,28,0.00849083,10,-8.58421e-05,-2.98063,0.661897,0.0891378,-3.63896,0.0820979,
2,0,0,1,0,54305.4,0.0810011,0.0806565,-1.03948,28,0.00833241,10,-8.38411e-05,-2.98318,0.652355,0.0904416,-3.67357,0.0806565,
2,0,0,1,0,54305.6,0.0795036,0.0791207,-1.0344,28,0.00817463,10,-8.18426e-05,-2.98531,0.930151,0.0634306,-2.55852,0.0791207,
2,0,0,1,0,54305.7,0.0780061,0.0776625,-1.02986,28,0.00801753,10,-7.99815e-05,-2.98722,0.626213,0.0942172,-3.77985,0.0776625,
2,0,0,1,0,54305.9,0.076507,0.0761416,-1.0245,28,0.00786121,10,-7.80071e-05,-2.98949,0.536969,0.109876,-4.38667,0.0761416,
2,0,0,1,0,54306,0.0750088,0.0746327,-1.01741,28,0.0077061,10,-7.59317e-05,-2.99251,0.657954,0.0896719,-3.56044,0.0746327,
2,0,0,1,0,54306.2,0.0735106,0.0731608,-1.01057,28,0.0075517,10,-7.39338e-05,-2.99544,0.826144,0.0714161,-2.81814,0.0731608,
2,0,0,1,0,54306.3,0.0720124,0.0716614,-1.00706,28,0.0073981,10,-7.21673e-05,-2.99695,0.667178,0.0884322,-3.47532,0.0716614,
2,0,0,1,0,54306.5,0.0705142,0.070126,-1.00111,28,0.00724526,10,-7.02038e-05,-2.99952,0.555598,0.106192,-4.14649,0.07012596,
2,0,0,1,0,54306.6,0.069016,0.0686594,-0.993516,28,0.00709348,10,-6.82143e-05,-3.00282,0.571479,0.103241,-4.01335,0.0686594,
2,0,0,1,0,54306.8,0.0675179,0.0671452,-0.989827,28,0.0069426,10,-6.64621e-05,-3.00444,0.678289,0.0869835,-3.36222,0.0671452,
2,0,0,1,0,54306.9,0.0660188,0.0656469,-0.987739,28,0.00679237,10,-6.4842e-05,-3.00536,0.622675,0.0947525,-3.63449,0.0656469,
2,0,0,1,0,54307.1,0.0645213,0.0641663,-0.979047,28,0.00664282,10,-6.28218e-05,-3.0092,0.515112,0.114538,-4.365,0.0641663,
2,0,0,1,0,54307.2,0.0630237,0.0627047,-0.970231,28,0.00649443,10,-6.08381e-05,-3.01313,0.592569,0.0995665,-3.78014,0.0627047,
2,0,0,1,0,54307.4,0.0615251,0.0611698,-0.965234,28,0.00634706,10,-5.90431e-05,-3.01537,0.604868,0.0975419,-3.68195,0.06116977,
2,0,0,1,0,54307.5,0.0600269,0.0596534,-0.959501,28,0.00620042,10,-5.72375e-05,-3.01795,0.566003,0.10424,-3.90786,0.0596534,
2,0,0,1,0,54307.7,0.0585287,0.0581465,-0.9536,28,0.00605457,10,-5.54485e-05,-3.02063,0.458582,0.128658,-4.7807,0.0581465,
2,0,0,1,0,54307.8,0.0570305,0.0566736,-0.947475,28,0.00590969,10,-5.36969e-05,-3.02343,0.523657,0.112669,-4.16751,0.0566736,
2,0,0,1,0,54308,0.0555323,0.055206,-0.940867,28,0.00576602,10,-5.19416e-05,-3.02647,0.497284,0.118644,-4.36139,0.055206,
2,0,0,1,0,54308.1,0.0540342,0.0536928,-0.936062,28,0.0056231,10,-5.02598e-05,-3.0287,0.57037,0.103442,-3.77175,0.0536928,
2,0,0,1,0,54308.3,0.052536,0.0521712,-0.932266,28,0.00548082,10,-4.86374e-05,-3.03046,0.534847,0.110312,-4.00266,0.0521712,
2,0,0,1,0,54308.4,0.0510378,0.0507311,-0.923897,28,0.00533965,10,-4.68704e-05,-3.03438,0.440887,0.133821,-4.8251,0.0507311,
2,0,0,1,0,54308.6,0.0495391,0.0491963,-0.915833,28,0.00519944,10,-4.50556e-05,-3.03818,0.537814,0.109703,-3.92539,0.0491963,
2,0,0,1,0,54308.7,0.0480416,0.0476701,-0.909609,28,0.00506024,10,-4.33611e-05,-3.04115,0.581497,0.101462,-3.60089,0.0476701,
2,0,0,1,0,54308.9,0.0465441,0.0461796,-0.904306,28,0.00492194,10,-4.17605e-05,-3.04368,0.538657,0.109532,-3.86788,0.0461796,
2,0,0,1,0,54309,0.045045,0.0447165,-0.897075,28,0.00478449,10,-4.01141e-05,-3.04717,0.474663,0.124299,-4.35056,0.0447165,
2,0,0,1,0,54309.2,0.0435468,0.0431916,-0.889496,28,0.00464817,10,-3.84188e-05,-3.05086,0.472031,0.124992,-4.35177,0.0431916,
2,0,0,1,0,54309.3,0.0420486,0.0416943,-0.885382,28,0.00451295,10,-3.69154e-05,-3.05287,0.526101,0.112146,-3.87546,0.0416943,
2,0,0,1,0,54309.5,0.0405504,0.0402108,-0.880992,28,0.00437851,10,-3.54254e-05,-3.05503,0.490284,0.120338,-4.12519,0.0402108,
2,0,0,1,0,54309.6,0.0390523,0.0386817,-0.872249,28,0.00424487,10,-3.37401e-05,-3.05936,0.398662,0.147995,-5.02499,0.0386817,
2,0,0,1,0,54309.8,0.0375541,0.0371802,-0.865412,28,0.00411233,10,-3.21762e-05,-3.06278,0.411617,0.143337,-4.84325,0.0371802,
2,0,0,1,0,54309.9,0.0360559,0.0357391,-0.858477,28,0.00398108,10,-3.06812e-05,-3.06627,0.402486,0.146589,-4.91724,0.0357391,
2,0,0,1,0,54310.1,0.0345568,0.0342292,-0.853549,28,0.00385047,10,-2.92163e-05,-3.06877,0.492268,0.119854,-3.9866,0.0342292,
2,0,0,1,0,54310.2,0.0330593,0.032672,-0.846518,28,0.00372085,10,-2.76575e-05,-3.07236,0.394433,0.149582,-4.93359,0.032672,
2,0,0,1,0,54310.4,0.0315618,0.0312159,-0.839627,28,0.00359228,10,-2.62097e-05,-3.07591,0.409204,0.144182,-4.72276,0.0312159,
2,0,0,1,0,54310.5,0.0300631,0.0297552,-0.83286,28,0.00346484,10,-2.47819e-05,-3.07943,0.497865,0.118506,-3.84755,0.0297552,
2,0,0,1,0,54310.7,0.0285649,0.0282134,-0.827774,28,0.00333819,10,-2.33543e-05,-3.08209,0.549546,0.107361,-3.4623,0.0282134,
2,0,0,1,0,54310.8,0.0270667,0.0267214,-0.821234,28,0.0032123,10,-2.19445e-05,-3.08553,0.508529,0.116021,-3.71502,0.0267214,
2,0,0,1,0,54311,0.0255685,0.0252252,-0.815946,28,0.00308738,10,-2.05824e-05,-3.08834,0.448036,0.131686,-4.19063,0.02522517,
2,0,0,1,0,54311.1,0.0240704,0.0237205,-0.806544,28,0.00296353,10,-1.91316e-05,-3.09337,0.509119,0.115887,-3.65745,0.0237205,
2,0,0,1,0,54311.3,0.0225722,0.0222157,-0.802586,28,0.00284046,10,-1.783e-05,-3.09551,0.599353,0.0984395,-3.0902,0.0222157,
2,0,0,1,0,54311.4,0.021074,0.0207163,-0.799977,28,0.00271806,10,-1.65726e-05,-3.09692,0.693097,0.0851252,-2.65115,0.0207163,
2,0,0,1,0,54311.6,0.0195758,0.0191936,-0.795213,28,0.00259635,10,-1.5263e-05,-3.09952,0.596694,0.0988781,-3.06436,0.0191936,
2,0,0,1,0,54311.7,0.0180772,0.0177013,-0.785314,28,0.00247536,10,-1.39011e-05,-3.10496,0.630512,0.0935747,-2.88011,0.0177013,
2,0,0,1,0,54311.9,0.0165796,0.0162429,-0.786185,28,0.00235519,10,-1.277e-05,-3.10448,0.873206,0.0675671,-2.07418,0.0162429,
2,0,0,1,0,54312,0.0150821,0.014707,-0.782599,28,0.00223541,10,-1.15096e-05,-3.10646,1.34513,0.0438618,-1.33686,0.014707,
2,0,0,1,0,54312.2,0.013583,0.0132352,-0.778703,28,0.00211594,10,-1.03062e-05,-3.10863,0.719789,0.0819684,-2.48886,0.0132352,
2,0,0,1,0,54312.3,0.0120848,0.011705,-0.77564,28,0.00199713,10,-9.07886e-06,-3.11034,0.744747,0.0792216,-2.39807,0.011705,
2,0,0,1,0,54312.5,0.0105866,0.0102278,-0.772492,28,0.00187886,10,-7.90093e-06,-3.11211,1.57082,0.0375601,-1.13469,0.0102278,
2,0,0,1,0,54312.6,0.00908846,0.0086998,-0.770443,28,0.00176093,10,-6.7027e-06,-3.11326,2.04662,0.0288281,-0.867631,0.0086998,
2,0,0,1,0,54312.8,0.00759027,0.00720462,-0.770369,28,0.00164316,10,-5.55022e-06,-3.1133,1.4873,0.0396691,-1.19185,0.00720462,
2,0,0,1,0,54312.9,0.00609207,0.00573172,-0.768944,28,0.00152556,10,-4.40737e-06,-3.11411,1.99985,0.0295023,-0.884871,0.00573172,
2,0,0,1,0,54313.1,0.00459389,0.00422382,-0.768965,28,0.00140832,10,-3.24797e-06,-3.11409,5.22736,0.0112868,-0.338686,0.00422382,
2,0,0,1,0,54313.2,0.0030948,0.00275131,-0.768252,28,0.00129089,10,-2.1137e-06,-3.1145,-0.917476,-0.0643069,1.92958,0.00275131,
2,0,0,1,0,54313.4,0.00159728,0.00120775,-0.77781,28,0.00117226,10,-9.39404e-07,-3.10913, , , ,0.00120775,
2,0,0,1,0,54313.5,0.000199195,-0.000184077,-0.767991,28,0.00106199,10,1.4137e-07,-3.11464, , , ,-0.000184077,