File: Figure_codes/Fig_3-5/rawdata_trumpetplot_data/after 10th/20221101_1-115_003_TrumpetPlot_ParaChange_from10_every3_11_CV_C01_13.csv
mode,ox/red,error,control changes,counter inc.,time/s,control/V,Ewe/V,<I>/mA,cycle number,(Q-Qo)/C,I Range,P/W,log(|I|),Tafel slope mV/dec,alpha_eff,dI/d(E-IR),E-IR/V,
2,1,0,1,0,26806.2,2.44065e-05,-0.000306236,10.0771,14,0.0000000E+000,10,-3.08598e-06,-1.99666, , , ,-0.000306236,
2,1,0,1,0,26806.2,0.00214129,0.00173187,11.3263,14,5.51982e-05,10,1.96156e-05,-1.94591, , , ,0.00173187,
2,1,0,1,0,26806.2,0.0045495,0.00420791,12.3052,14,0.000126373,10,5.17794e-05,-1.90991,0.0760713,0.775589,365.378,0.00420791,
2,1,0,1,0,26806.2,0.0069466,0.0065758,13.0578,14,0.000202586,10,8.58658e-05,-1.88413,0.0990185,0.595849,301.038,0.0065758,
2,1,0,1,0,26806.2,0.0093437,0.00901474,13.728,14,0.000283063,10,0.000123754,-1.86239,0.119526,0.493617,262.731,0.00901474,
2,1,0,1,0,26806.2,0.0117408,0.0114261,14.3063,14,0.000367274,10,0.000163465,-1.84447,0.141284,0.417598,232.19,0.0114261,
2,1,0,1,0,26806.3,0.0141462,0.0137813,14.835,14,0.000454784,10,0.000204445,-1.82871,0.161189,0.366029,211.262,0.0137813,
2,1,0,1,0,26806.3,0.0165433,0.0162319,15.3213,14,0.000545334,10,0.000248693,-1.8147,0.184645,0.319532,190.365,0.0162319,
2,1,0,1,0,26806.3,0.0189404,0.0186178,15.7519,14,0.000638637,10,0.000293266,-1.80267,0.206409,0.28584,175.397,0.0186178,
2,1,0,1,0,26806.3,0.0213486,0.0210281,16.1597,14,0.000734407,10,0.000339807,-1.79157,0.228492,0.258214,162.6,0.0210281,
2,1,0,1,0,26806.3,0.0237457,0.0233917,16.5356,14,0.00083254,10,0.000386795,-1.78158,0.25038,0.235642,151.794,0.0233917,
2,1,0,1,0,26806.3,0.0261429,0.0257904,16.8852,14,0.000932856,10,0.000435475,-1.77249,0.265001,0.22264,146.57,0.0257904,
2,1,0,1,0,26806.3,0.02854,0.0281879,17.2137,14,0.00103521,10,0.000485218,-1.76413,0.291909,0.202118,135.674,0.0281879,
2,1,0,1,0,26806.3,0.0309482,0.0306131,17.5355,14,0.00113954,10,0.000536817,-1.75608,0.308347,0.191343,130.856,0.0306131,
2,1,0,1,0,26806.3,0.0333453,0.032999,17.8399,14,0.00124571,10,0.000588699,-1.74861,0.332983,0.177186,123.283,0.032999,
2,1,0,1,0,26806.3,0.0357424,0.0354136,18.1397,14,0.00135368,10,0.000642391,-1.74137,0.348043,0.169519,119.891,0.0354136,
2,1,0,1,0,26806.3,0.0381478,0.0377931,18.416,14,0.00146337,10,0.000695999,-1.7348,0.362486,0.162765,116.987,0.0377931,
2,1,0,1,0,26806.3,0.0405449,0.0402098,18.6957,14,0.00157474,10,0.00075175,-1.72826,0.373337,0.158034,115.285,0.0402098,
2,1,0,1,0,26806.3,0.042942,0.0426105,18.9814,14,0.00168782,10,0.000808807,-1.72167,0.378053,0.156063,115.534,0.0426105,
2,1,0,1,0,26806.3,0.0453391,0.0449795,19.2327,14,0.00180247,10,0.000865076,-1.71596,0.393552,0.149917,112.603,0.0449795,
2,1,0,1,0,26806.3,0.0477473,0.0473537,19.5183,14,0.00191879,10,0.000924264,-1.70956,0.392905,0.150163,114.316,0.0473537,
2,1,0,1,0,26806.3,0.0501444,0.0498181,19.7873,14,0.00203674,10,0.000985765,-1.70361,0.409952,0.143919,111.093,0.0498181,
2,1,0,1,0,26806.3,0.0525415,0.052169,20.0483,14,0.00215626,10,0.0010459,-1.69792,0.40929,0.144152,112.854,0.05216904,
2,1,0,1,0,26806.4,0.0549469,0.0545528,20.3233,14,0.00227742,10,0.0011087,-1.692,0.407819,0.144672,114.722,0.0545528,
2,1,0,1,0,26806.4,0.057344,0.0569631,20.5913,14,0.00240023,10,0.00117295,-1.68632,0.426041,0.138484,111.307,0.0569631,
2,1,0,1,0,26806.4,0.0597411,0.0593893,20.8657,14,0.00252465,10,0.0012392,-1.68057,0.428364,0.137733,112.17,0.0593893,
2,1,0,1,0,26806.4,0.0621438,0.0617753,21.1395,14,0.00265069,10,0.0013059,-1.67491,0.428074,0.137827,113.719,0.0617753,
2,1,0,1,0,26806.4,0.0645465,0.0641909,21.4149,14,0.00277837,10,0.00137464,-1.66928,0.427185,0.138113,115.441,0.0641909,
2,1,0,1,0,26806.4,0.0669436,0.0665439,21.699,14,0.00290775,10,0.00144394,-1.66356,0.431387,0.136768,115.741,0.0665439,
2,1,0,1,0,26806.4,0.0693407,0.0689935,21.9781,14,0.00303881,10,0.00151634,-1.65801,0.4295,0.137369,117.86,0.0689935,
2,1,0,1,0,26806.4,0.0717489,0.0714006,22.2625,14,0.00317152,10,0.00158956,-1.65243,0.426698,0.138271,120.164,0.0714006,
2,1,0,1,0,26806.4,0.074146,0.0737526,22.5582,14,0.00330603,10,0.00166373,-1.6467,0.437783,0.13477,118.577,0.0737526,
2,1,0,1,0,26806.4,0.0765431,0.0761788,22.8344,14,0.00344224,10,0.00173949,-1.64141,0.443524,0.133025,118.592,0.0761788,
2,1,0,1,0,26806.4,0.0789485,0.0786029,23.1245,14,0.00358012,10,0.00181765,-1.63593,0.445244,0.132512,119.581,0.07860285,
2,1,0,1,0,26806.4,0.0813456,0.0810397,23.4165,14,0.0037198,10,0.00189767,-1.63048,0.454661,0.129767,118.508,0.0810397,
2,1,0,1,0,26806.4,0.0837427,0.0833514,23.6879,14,0.00386117,10,0.00197442,-1.62547,0.472803,0.124788,115.366,0.0833514,
2,1,0,1,0,26806.4,0.0861398,0.0857797,23.962,14,0.00400416,10,0.00205545,-1.62048,0.474645,0.124303,116.302,0.0857797,
2,1,0,1,0,26806.4,0.088548,0.0881401,24.2537,14,0.00414882,10,0.00213772,-1.61522,0.46241,0.127592,120.799,0.0881401,
2,1,0,1,0,26806.4,0.0909451,0.0905876,24.5548,14,0.00429526,10,0.00222436,-1.60986,0.454068,0.129936,124.476,0.0905876,
2,1,0,1,0,26806.4,0.0933422,0.0929788,24.8495,14,0.00444349,10,0.00231047,-1.60468,0.467704,0.126148,122.301,0.0929788,
2,1,0,1,0,26806.5,0.0957477,0.0953923,25.1483,14,0.00459347,10,0.00239895,-1.59949,0.481271,0.122592,120.245,0.0953923,
2,1,0,1,0,26806.5,0.0981447,0.0978142,25.4276,14,0.00474522,10,0.00248718,-1.59469,0.496059,0.118937,117.932,0.09781424,
2,1,0,1,0,26806.5,0.100542,0.100213,25.6976,14,0.00489864,10,0.00257523,-1.59011,0.516085,0.114322,114.68,0.100213,
2,1,0,1,0,26806.5,0.102939,0.102586,25.9665,14,0.00505368,10,0.0026638,-1.58559,0.511949,0.115246,116.886,0.102586,
2,1,0,1,0,26806.5,0.105347,0.104992,26.2669,14,0.00521046,10,0.00275782,-1.58059,0.524257,0.11254,115.31,0.104992,
2,1,0,1,0,26806.5,0.107744,0.10744,26.541,14,0.00536895,10,0.00285155,-1.57608,0.532594,0.110779,114.769,0.10744,
2,1,0,1,0,26806.5,0.110141,0.109813,26.8217,14,0.00552903,10,0.00294536,-1.57151,0.514858,0.114595,120.036,0.109813,
2,1,0,1,0,26806.5,0.11255,0.112236,27.1328,14,0.00569091,10,0.00304527,-1.56651,0.499365,0.11815,125.047,0.112236,
2,1,0,1,0,26806.5,0.114947,0.114602,27.4191,14,0.00585459,10,0.00314227,-1.56195,0.497968,0.118481,126.841,0.114602,
2,1,0,1,0,26806.5,0.117344,0.116999,27.7279,14,0.00602004,10,0.00324414,-1.55708,0.485395,0.12155,131.625,0.116999,
2,1,0,1,0,26806.5,0.119744,0.1194,28.0526,14,0.00618739,10,0.00334947,-1.55203,0.468648,0.125894,137.868,0.1194,
2,1,0,1,0,26806.5,0.122146,0.121793,28.3858,14,0.00635675,10,0.0034572,-1.5469,0.454769,0.129736,143.729,0.1217932,
2,1,0,1,0,26806.5,0.124543,0.12421,28.7284,14,0.00652814,10,0.00356835,-1.54169,0.454153,0.129912,145.679,0.12421,
2,1,0,1,0,26806.5,0.126941,0.12656,29.0741,14,0.0067016,10,0.00367961,-1.53649,0.439466,0.134254,152.448,0.12656,
2,1,0,1,0,26806.5,0.129349,0.129012,29.4652,14,0.00687724,10,0.00380138,-1.53069,0.436675,0.135112,155.357,0.129012,
2,1,0,1,0,26806.5,0.131746,0.131402,29.8371,14,0.0070552,10,0.00392064,-1.52524,0.433748,0.136024,158.375,0.131402,
2,1,0,1,0,26806.6,0.134143,0.13378,30.2197,14,0.00723539,10,0.00404279,-1.51971,0.432969,0.136268,160.795,0.13378,
2,1,0,1,0,26806.6,0.13654,0.136194,30.6098,14,0.00741791,10,0.00416886,-1.51414,0.428734,0.137614,164.387,0.136194,
2,1,0,1,0,26806.6,0.138945,0.13862,31.0155,14,0.00760286,10,0.00429936,-1.50842,0.441056,0.13377,161.843,0.13862,
2,1,0,1,0,26806.6,0.141343,0.141026,31.3928,14,0.00779011,10,0.00442719,-1.50317,0.450818,0.130873,160.349,0.1410258,
2,1,0,1,0,26806.6,0.14374,0.143402,31.7856,14,0.00797968,10,0.00455812,-1.49777,0.454522,0.129807,160.984,0.143402,
2,1,0,1,0,26806.6,0.146148,0.145816,32.1773,14,0.00817163,10,0.00469195,-1.49245,0.471962,0.12501,156.856,0.145816,
2,1,0,1,0,26806.6,0.148545,0.148214,32.5396,14,0.00836582,10,0.00482283,-1.48759,0.500423,0.1179,149.7,0.148214,
2,1,0,1,0,26806.6,0.150942,0.150591,32.8963,14,0.00856216,10,0.00495388,-1.48285,0.514362,0.114705,147.232,0.150591,
2,1,0,1,0,26806.6,0.153345,0.15299,33.2485,14,0.00876062,10,0.0050867,-1.47823,0.543748,0.108506,140.714,0.15299,
2,1,0,1,0,26806.6,0.155747,0.155413,33.5806,14,0.00896116,10,0.00521888,-1.47391,0.580425,0.10165,133.091,0.155413,
2,1,0,1,0,26806.6,0.158144,0.157804,33.8866,14,0.00916359,10,0.00534742,-1.46997,0.631142,0.0934813,123.558,0.157804,
2,1,0,1,0,26806.6,0.160542,0.160205,34.1714,14,0.00936778,10,0.00547445,-1.46634,0.688795,0.0856568,114.165,0.160205,
2,1,0,1,0,26806.6,0.162947,0.16264,34.4466,14,0.00957367,10,0.00560239,-1.46285,0.791705,0.0745227,100.039,0.16264,
2,1,0,1,0,26806.6,0.165344,0.165003,34.6529,14,0.00978102,10,0.00571783,-1.46026,0.949136,0.0621618,83.9955,0.165003,
2,1,0,1,0,26806.6,0.167741,0.167421,34.8333,14,0.00998952,10,0.00583184,-1.45801,1.19553,0.0493504,67.0355,0.167421,
2,1,0,1,0,26806.6,0.170149,0.169813,34.9931,14,0.010199,10,0.00594228,-1.45602,1.79692,0.032834,44.7431,0.169813,
2,1,0,1,0,26806.6,0.172547,0.172187,35.0489,14,0.0104092,10,0.00603496,-1.45533,4.45675,0.0132383,18.0794,0.172187,
2,1,0,1,0,26806.7,0.174944,0.174615,35.0556,14,0.0106195,10,0.00612125,-1.45524,-7.51879,-0.00784701,-10.7193,0.174615,
2,1,0,1,0,26806.7,0.177341,0.176998,35.0051,14,0.0108298,10,0.00619583,-1.45587,-1.88025,-0.0313788,-42.7738,0.176998,
2,1,0,1,0,26806.7,0.179746,0.179403,34.8534,14,0.0110394,10,0.0062528,-1.45776,-1.02107,-0.0577826,-78.4411,0.179403,
2,1,0,1,0,26806.7,0.182143,0.181815,34.6338,14,0.0112479,10,0.00629695,-1.4605,-0.700846,-0.084184,-113.521,0.1818154,
2,1,0,1,0,26806.7,0.18454,0.184224,34.3133,14,0.0114547,10,0.00632132,-1.46454,-0.531239,-0.111061,-148.413,0.184224,
2,1,0,1,0,26806.7,0.186949,0.186631,33.9281,14,0.0116594,10,0.00633203,-1.46944,-0.42548,-0.138667,-183.15,0.186631,
2,1,0,1,0,26806.7,0.189346,0.188982,33.4316,14,0.0118615,10,0.00631796,-1.47584,-0.351447,-0.167877,-218.549,0.188982,
2,1,0,1,0,26806.7,0.191743,0.191409,32.8584,14,0.0120604,10,0.0062894,-1.48335,-0.307534,-0.191848,-245.631,0.1914089,
2,1,0,1,0,26806.7,0.19414,0.193767,32.2284,14,0.0122556,10,0.00624481,-1.49176,-0.266237,-0.221607,-278.105,0.193767,
2,1,0,1,0,26806.7,0.196548,0.196215,31.5332,14,0.0124469,10,0.00618727,-1.50123,-0.238522,-0.247356,-303.806,0.196215,
2,1,0,1,0,26806.7,0.198945,0.198581,30.7648,14,0.0126337,10,0.00610933,-1.51195,-0.218476,-0.270052,-323.898,0.198581,
2,1,0,1,0,26806.7,0.201342,0.201045,29.9831,14,0.0128159,10,0.00602794,-1.52312,-0.207222,-0.284719,-332.667,0.2010448,
2,1,0,1,0,26806.7,0.203748,0.20345,29.1658,14,0.0129933,10,0.00593378,-1.53513,-0.191969,-0.307342,-349.548,0.20345,
2,1,0,1,0,26806.7,0.206145,0.205807,28.3233,14,0.0131657,10,0.00582915,-1.54786,-0.191172,-0.308623,-341.204,0.205807,
2,1,0,1,0,26806.7,0.208542,0.208231,27.5126,14,0.0133331,10,0.00572898,-1.56047,-0.18381,-0.320983,-344.505,0.208231,
2,1,0,1,0,26806.7,0.210939,0.210595,26.6843,14,0.0134957,10,0.00561957,-1.57374,-0.183508,-0.321511,-334.989,0.210595,
2,1,0,1,0,26806.7,0.213347,0.213033,25.8905,14,0.0136533,10,0.00551553,-1.58686,-0.184003,-0.320647,-324.138,0.213033,
2,1,0,1,0,26806.8,0.215744,0.215414,25.1287,14,0.0138063,10,0.00541308,-1.59983,-0.183656,-0.321253,-315.199,0.215414,
2,1,0,1,0,26806.8,0.218141,0.217853,24.3918,14,0.0139547,10,0.00531383,-1.61276,-0.190026,-0.310484,-295.769,0.217853,
2,1,0,1,0,26806.8,0.220547,0.220269,23.7011,14,0.0140989,10,0.00522061,-1.62523,-0.19518,-0.302286,-279.788,0.220269,
2,1,0,1,0,26806.8,0.222944,0.222652,23.0353,14,0.014239,10,0.00512885,-1.63761,-0.200983,-0.293557,-264.303,0.222652,
2,1,0,1,0,26806.8,0.225341,0.224978,22.4262,14,0.0143753,10,0.0050454,-1.64924,-0.210176,-0.280717,-246.039,0.224978,
2,1,0,1,0,26806.8,0.227744,0.227411,21.8542,14,0.0145081,10,0.00496988,-1.66047,-0.216578,-0.27242,-232.579,0.227411,
2,1,0,1,0,26806.8,0.230146,0.229809,21.3114,14,0.0146375,10,0.00489756,-1.67139,-0.229156,-0.257466,-214.477,0.229809,
2,1,0,1,0,26806.8,0.232543,0.232203,20.8243,14,0.0147639,10,0.00483546,-1.68143,-0.238934,-0.24693,-200.817,0.232203,
2,1,0,1,0,26806.8,0.234941,0.234602,20.3634,14,0.0148874,10,0.0047773,-1.69115,-0.252545,-0.233622,-185.83,0.234602,
2,1,0,1,0,26806.8,0.237349,0.237017,19.9286,14,0.0150082,10,0.00472343,-1.70052,-0.269873,-0.218621,-170.296,0.237017,
2,1,0,1,0,26806.8,0.239746,0.239467,19.5363,14,0.0151265,10,0.00467829,-1.70916,-0.280087,-0.210649,-160.772,0.239467,
2,1,0,1,0,26806.8,0.242143,0.241849,19.1682,14,0.0152426,10,0.00463581,-1.71742,-0.300576,-0.19629,-146.98,0.241849,
2,1,0,1,0,26806.8,0.244548,0.244249,18.8219,14,0.0153565,10,0.00459722,-1.72534,-0.317564,-0.185789,-136.643,0.244249,
2,1,0,1,0,26806.8,0.246946,0.246651,18.5108,14,0.0154685,10,0.0045657,-1.73258,-0.3349,-0.176172,-127.335,0.246651,
2,1,0,1,0,26806.8,0.249343,0.249014,18.211,14,0.0155786,10,0.00453479,-1.73967,-0.351695,-0.167759,-119.356,0.249014,
2,1,0,1,0,26806.8,0.25174,0.251383,17.9332,14,0.015687,10,0.0045081,-1.74634,-0.37691,-0.156536,-109.681,0.251383,
2,1,0,1,0,26806.9,0.254148,0.253833,17.6884,14,0.0157939,10,0.00448989,-1.75231,-0.401551,-0.14693,-101.483,0.253833,
2,1,0,1,0,26806.9,0.256545,0.256228,17.4438,14,0.0158992,10,0.0044696,-1.75836,-0.409592,-0.144046,-98.1437,0.256228,
2,1,0,1,0,26806.9,0.258942,0.258613,17.2304,14,0.0160032,10,0.004456,-1.76371,-0.443851,-0.132928,-89.3909,0.2586132,
2,1,0,1,0,26806.9,0.261348,0.261075,17.0135,14,0.0161059,10,0.00444182,-1.76921,-0.461499,-0.127844,-84.9594,0.261075,
2,1,0,1,0,26806.9,0.263745,0.263403,16.8193,14,0.0162073,10,0.00443026,-1.77419,-0.491901,-0.119943,-78.7628,0.263403,
2,1,0,1,0,26806.9,0.266142,0.265819,16.6355,14,0.0163077,10,0.00442202,-1.77896,-0.532304,-0.110839,-71.9793,0.265819,
2,1,0,1,0,26806.9,0.268539,0.268202,16.4471,14,0.0164069,10,0.00441116,-1.78391,-0.54467,-0.108322,-69.6322,0.268202,
2,1,0,1,0,26806.9,0.270947,0.270618,16.3029,14,0.0165052,10,0.00441185,-1.78774,-0.570328,-0.103449,-65.8077,0.270618,
2,1,0,1,0,26806.9,0.273344,0.272982,16.154,14,0.0166025,10,0.00440976,-1.79172,-0.571406,-0.103254,-65.0634,0.2729817,
2,1,0,1,0,26806.9,0.275741,0.275388,15.9931,14,0.0166989,10,0.0044043,-1.79607,-0.623325,-0.0946537,-59.1373,0.275388,
2,1,0,1,0,26806.9,0.278149,0.277798,15.8656,14,0.0167945,10,0.00440744,-1.79954,-0.669852,-0.0880792,-54.5374,0.277798,
2,1,0,1,0,26806.9,0.280547,0.280258,15.7315,14,0.0168893,10,0.00440887,-1.80323,-0.667928,-0.0883329,-54.2285,0.280258,
2,1,0,1,0,26806.9,0.282944,0.28262,15.6079,14,0.0169833,10,0.00441111,-1.80665,-0.697302,-0.0846119,-51.5707,0.28262,
2,1,0,1,0,26806.9,0.285344,0.285013,15.4796,14,0.0170765,10,0.0044119,-1.81024,-0.72271,-0.0816372,-49.3437,0.285013,
2,1,0,1,0,26806.9,0.287746,0.287403,15.3696,14,0.017169,10,0.00441729,-1.81334,-0.784569,-0.0752005,-45.1145,0.287403,
2,1,0,1,0,26806.9,0.290143,0.289799,15.2606,14,0.0172609,10,0.00442251,-1.81643,-0.768066,-0.0768163,-45.7308,0.289799,
2,1,0,1,0,26806.9,0.29254,0.292161,15.1465,14,0.0173521,10,0.00442522,-1.81969,-0.804206,-0.0733643,-43.4046,0.292161,
2,1,0,1,0,26807,0.294949,0.294601,15.0502,14,0.0174427,10,0.0044338,-1.82246,-0.865594,-0.0681612,-40.0514,0.294601,
2,1,0,1,0,26807,0.297346,0.297032,14.9646,14,0.0175328,10,0.00444496,-1.82493,-0.8469,-0.0696658,-40.6864,0.297032,
2,1,0,1,0,26807,0.299621,0.299341,14.8552,14,0.0176177,10,0.00444677,-1.82812,-0.0742244,-0.794886,-444.035,0.299341,
2,1,0,1,0,26807,0.299962,0.299575,14.731,14,0.0176355,10,0.00441302,-1.83177,0.009647,6.11589,2894.18,0.299575,
2,1,0,1,0,26807,0.297903,0.297678,10.8377,14,0.0176991,10,0.00322615,-1.96506,0.0161022,3.6641,1491.97,0.297678,
2,1,0,1,0,26807,0.295506,0.295253,7.82775,14,0.0177543,10,0.00231117,-2.10636,0.0162666,3.62707,1121.92,0.295253,
2,1,0,1,0,26807,0.293101,0.29284,5.50564,14,0.0177938,10,0.00161227,-2.25919,0.0141683,4.16423,881.002,0.29284,
2,1,0,1,0,26807,0.290704,0.290408,3.62542,14,0.0178209,10,0.00105285,-2.44064,0.0109751,5.3758,716.708,0.290408,
2,1,0,1,0,26807,0.288307,0.287992,2.08131,14,0.0178377,10,0.000599401,-2.68166,0.0061188,9.64242,600.146,0.287992,
2,1,0,1,0,26807,0.28591,0.285648,0.785715,14,0.017846,10,0.000224438,-3.10473,0.0111157,5.30779,506.798,0.285648,
2,0,0,1,0,26807,0.283501,0.283207,-0.345644,14,0.0178472,10,-9.7889e-05,-3.46137,-0.0530507,-1.11214,432.133,0.283207,
2,0,0,1,0,26807,0.281104,0.280817,-1.30019,14,0.0178421,10,-0.000365115,-2.88599,-0.00256414,-23.0097,368.731,0.280817,
2,0,0,1,0,26807,0.278707,0.2784,-2.10802,14,0.0178317,10,-0.000586873,-2.67613,-0.0130916,-4.5067,324.159,0.2784,
2,0,0,1,0,26807,0.276302,0.276008,-2.85221,14,0.0178167,10,-0.000787233,-2.54482,-0.0213845,-2.75901,286.711,0.2760081,
2,0,0,1,0,26807,0.273905,0.273598,-3.47874,14,0.0177976,10,-0.000951775,-2.45858,-0.0309163,-1.90838,249.63,0.273598,
2,0,0,1,0,26807,0.271508,0.271194,-4.04145,14,0.017775,10,-0.00109602,-2.39346,-0.0407784,-1.44684,223.668,0.271194,
2,0,0,1,0,26807,0.269105,0.268754,-4.55073,14,0.0177491,10,-0.00122303,-2.34192,-0.0511127,-1.15431,201.698,0.268754,
2,0,0,1,0,26807,0.266702,0.266376,-5.00578,14,0.0177203,10,-0.00133342,-2.30053,-0.0629857,-0.936721,180.616,0.266376,
2,0,0,1,0,26807.1,0.264305,0.264017,-5.41242,14,0.017689,10,-0.00142897,-2.26661,-0.076351,-0.772747,161.649,0.264017,
2,0,0,1,0,26807.1,0.261908,0.261592,-5.78495,14,0.0176554,10,-0.0015133,-2.2377,-0.0882547,-0.66852,150.077,0.261592,
2,0,0,1,0,26807.1,0.2595,0.259213,-6.13308,14,0.0176196,10,-0.00158978,-2.21232,-0.101896,-0.579023,137.728,0.259213,
2,0,0,1,0,26807.1,0.257103,0.256777,-6.45664,14,0.0175818,10,-0.00165791,-2.18999,-0.118172,-0.499273,124.937,0.2567766,
2,0,0,1,0,26807.1,0.254706,0.254399,-6.73006,14,0.0175422,10,-0.00171212,-2.17198,-0.133782,-0.441017,115.582,0.254399,
2,0,0,1,0,26807.1,0.2523,0.251954,-7.00691,14,0.017501,10,-0.00176542,-2.15447,-0.147811,-0.399159,108.81,0.251954,
2,0,0,1,0,26807.1,0.249903,0.249557,-7.25185,14,0.0174581,10,-0.00180975,-2.13955,-0.166953,-0.353394,99.6379,0.249557,
2,0,0,1,0,26807.1,0.247506,0.247166,-7.4751,14,0.0174139,10,-0.00184759,-2.12638,-0.184292,-0.320143,93.4123,0.247166,
2,0,0,1,0,26807.1,0.245109,0.244818,-7.69686,14,0.0173684,10,-0.00188433,-2.11369,-0.195008,-0.302552,90.8277,0.2448184,
2,0,0,1,0,26807.1,0.242701,0.242393,-7.92223,14,0.0173215,10,-0.0019203,-2.10115,-0.215114,-0.274273,84.451,0.242393,
2,0,0,1,0,26807.1,0.240304,0.240017,-8.09923,14,0.0172734,10,-0.00194395,-2.09156,-0.24156,-0.244246,77.184,0.240017,
2,0,0,1,0,26807.1,0.237906,0.237617,-8.2917,14,0.0172242,10,-0.00197025,-2.08136,-0.251918,-0.234203,75.7282,0.237617,
2,0,0,1,0,26807.1,0.235501,0.235186,-8.47632,14,0.0171739,10,-0.00199351,-2.07179,-0.269656,-0.218797,72.2464,0.235186,
2,0,0,1,0,26807.1,0.233104,0.232756,-8.64296,14,0.0171225,10,-0.0020117,-2.06334,-0.285551,-0.206618,69.6027,0.232756,
2,0,0,1,0,26807.1,0.230707,0.230354,-8.79826,14,0.0170702,10,-0.00202672,-2.0556,-0.30173,-0.195539,67.1567,0.230354,
2,0,0,1,0,26807.1,0.22831,0.227997,-8.94667,14,0.0170169,10,-0.00203981,-2.04834,-0.314991,-0.187307,65.4642,0.227997,
2,0,0,1,0,26807.2,0.225902,0.225614,-9.11426,14,0.0169626,10,-0.00205631,-2.04028,-0.336705,-0.175228,62.1841,0.225614,
2,0,0,1,0,26807.2,0.223504,0.223185,-9.25829,14,0.0169075,10,-0.00206631,-2.03347,-0.368239,-0.160222,57.8757,0.223185,
2,0,0,1,0,26807.2,0.221107,0.220816,-9.39196,14,0.0168516,10,-0.0020739,-2.02724,-0.352211,-0.167513,61.4309,0.220816,
2,0,0,1,0,26807.2,0.218699,0.218398,-9.55214,14,0.0167947,10,-0.00208617,-2.0199,-0.381254,-0.154753,57.5211,0.218398,
2,0,0,1,0,26807.2,0.216302,0.215991,-9.67245,14,0.016737,10,-0.00208916,-2.01446,-0.413517,-0.142679,53.8271,0.215991,
2,0,0,1,0,26807.2,0.213905,0.213637,-9.79941,14,0.0166786,10,-0.00209352,-2.0088,-0.42126,-0.140056,53.6474,0.213637,
2,0,0,1,0,26807.2,0.211505,0.211158,-9.93414,14,0.0166194,10,-0.00209767,-2.00287,-0.424379,-0.139027,53.8697,0.211158,
2,0,0,1,0,26807.2,0.209102,0.208778,-10.0664,14,0.0165594,10,-0.00210164,-1.99713,-0.438288,-0.134615,52.8428,0.208778,
2,0,0,1,0,26807.2,0.206705,0.20637,-10.1892,14,0.0164986,10,-0.00210275,-1.99186,-0.454724,-0.129749,51.5735,0.20637,
2,0,0,1,0,26807.2,0.204308,0.203986,-10.3173,14,0.0164371,10,-0.00210458,-1.98643,-0.430226,-0.137137,55.1977,0.203986,
2,0,0,1,0,26807.2,0.2019,0.201588,-10.4454,14,0.0163748,10,-0.00210567,-1.98107,-0.464575,-0.126998,51.7216,0.201588,
2,0,0,1,0,26807.2,0.199503,0.19923,-10.5615,14,0.0163118,10,-0.00210417,-1.97628,-0.481855,-0.122443,50.4701,0.19923,
2,0,0,1,0,26807.2,0.197106,0.196782,-10.6753,14,0.0162481,10,-0.00210071,-1.97162,-0.472618,-0.124836,52.0954,0.196782,
2,0,0,1,0,26807.2,0.194709,0.194419,-10.8016,14,0.0161836,10,-0.00210004,-1.96651,-0.487379,-0.121056,51.0388,0.1944194,
2,0,0,1,0,26807.2,0.192303,0.192,-10.9378,14,0.0161183,10,-0.00210006,-1.96107,-0.488051,-0.120889,51.5505,0.192,
2,0,0,1,0,26807.2,0.189906,0.189555,-11.0535,14,0.0160524,10,-0.00209525,-1.9565,-0.503972,-0.11707,50.5602,0.1895553,
2,0,0,1,0,26807.2,0.187509,0.187152,-11.1837,14,0.0159857,10,-0.00209305,-1.95142,-0.476238,-0.123888,54.048,0.187152,
2,0,0,1,0,26807.3,0.185101,0.184746,-11.3219,14,0.0159181,10,-0.00209169,-1.94608,-0.477201,-0.123638,54.5725,0.184746,
2,0,0,1,0,26807.3,0.182704,0.182346,-11.4386,14,0.0158498,10,-0.00208578,-1.94163,-0.495911,-0.118973,53.1969,0.182346,
2,0,0,1,0,26807.3,0.180307,0.180014,-11.5778,14,0.0157808,10,-0.00208417,-1.93637,-0.465117,-0.12685,57.3332,0.180014,
2,0,0,1,0,26807.3,0.177904,0.177596,-11.723,14,0.0157109,10,-0.00208196,-1.93096,-0.455505,-0.129527,59.2408,0.177596,
2,0,0,1,0,26807.3,0.175501,0.175175,-11.864,14,0.0156401,10,-0.00207828,-1.92577,-0.433287,-0.136168,63.0691,0.175175,
2,0,0,1,0,26807.3,0.173104,0.172762,-12.0129,14,0.0155685,10,-0.00207536,-1.92035,-0.437209,-0.134947,63.2894,0.172762,
2,0,0,1,0,26807.3,0.170707,0.170409,-12.1611,14,0.015496,10,-0.00207236,-1.91503,-0.413682,-0.142622,67.7689,0.170409,
2,0,0,1,0,26807.3,0.168302,0.168015,-12.3404,14,0.0154224,10,-0.00207337,-1.90867,-0.409504,-0.144077,69.3619,0.168015,
2,0,0,1,0,26807.3,0.165905,0.165534,-12.51,14,0.0153478,10,-0.00207084,-1.90274,-0.396129,-0.148941,72.7601,0.165534,
2,0,0,1,0,26807.3,0.163507,0.163179,-12.6901,14,0.0152723,10,-0.00207076,-1.89653,-0.360954,-0.163456,81.0682,0.163179,
2,0,0,1,0,26807.3,0.161099,0.160811,-12.9118,14,0.0151955,10,-0.00207636,-1.88901,-0.345779,-0.170629,85.8751,0.160811,
2,0,0,1,0,26807.3,0.158702,0.158392,-13.1015,14,0.0151175,10,-0.00207518,-1.88268,-0.322376,-0.183016,93.7209,0.158392,
2,0,0,1,0,26807.3,0.156305,0.155947,-13.3369,14,0.0150382,10,-0.00207985,-1.87494,-0.297124,-0.19857,103.538,0.155947,
2,0,0,1,0,26807.3,0.153908,0.153576,-13.5908,14,0.0149573,10,-0.00208721,-1.86676,-0.283011,-0.208472,110.664,0.153576,
2,0,0,1,0,26807.3,0.151503,0.1512,-13.8604,14,0.0148749,10,-0.0020957,-1.85822,-0.269952,-0.218557,118.444,0.1512004,
2,0,0,1,0,26807.3,0.149105,0.148761,-14.1643,14,0.0147908,10,-0.00210711,-1.8488,-0.249939,-0.236058,130.685,0.148761,
2,0,0,1,0,26807.3,0.146708,0.146408,-14.4954,14,0.0147048,10,-0.00212225,-1.83877,-0.227883,-0.258904,146.708,0.146408,
2,0,0,1,0,26807.4,0.1443,0.143985,-14.865,14,0.0146168,10,-0.00214035,-1.82783,-0.216808,-0.27213,158.104,0.143985,
2,0,0,1,0,26807.4,0.141903,0.141573,-15.2639,14,0.0145264,10,-0.00216095,-1.81634,-0.1997,-0.295443,176.242,0.141573,
2,0,0,1,0,26807.4,0.139506,0.139234,-15.694,14,0.0144334,10,-0.00218513,-1.80427,-0.186578,-0.316222,194.234,0.139234,
2,0,0,1,0,26807.4,0.137109,0.13681,-16.1774,14,0.0143378,10,-0.00221322,-1.79109,-0.177032,-0.333272,210.951,0.13681,
2,0,0,1,0,26807.4,0.134701,0.134391,-16.7145,14,0.0142391,10,-0.00224627,-1.77691,-0.166762,-0.353797,231.115,0.134391,
2,0,0,1,0,26807.4,0.132303,0.131967,-17.291,14,0.014137,10,-0.00228184,-1.76218,-0.160577,-0.367424,248.409,0.131967,
2,0,0,1,0,26807.4,0.129906,0.12957,-17.9179,14,0.0140314,10,-0.00232163,-1.74671,-0.156253,-0.377593,264.15,0.12957,
2,0,0,1,0,26807.4,0.127501,0.127184,-18.5744,14,0.0139219,10,-0.00236237,-1.73109,-0.152231,-0.38757,281.05,0.127184,
2,0,0,1,0,26807.4,0.125104,0.12479,-19.2495,14,0.0138084,10,-0.00240214,-1.71558,-0.152009,-0.388135,291.884,0.12479,
2,0,0,1,0,26807.4,0.122707,0.12239,-19.9739,14,0.0136906,10,-0.00244462,-1.69954,-0.154374,-0.382188,297.759,0.12239,
2,0,0,1,0,26807.4,0.12031,0.120021,-20.6817,14,0.0135685,10,-0.00248225,-1.68441,-0.155017,-0.380604,307.389,0.120021,
2,0,0,1,0,26807.4,0.117901,0.117597,-21.4381,14,0.0134421,10,-0.00252105,-1.66881,-0.159472,-0.369972,309.562,0.117597,
2,0,0,1,0,26807.4,0.115504,0.115176,-22.1975,14,0.0133111,10,-0.00255663,-1.6537,-0.165931,-0.355571,307.454,0.115176,
2,0,0,1,0,26807.4,0.113107,0.112783,-22.9282,14,0.0131757,10,-0.00258591,-1.63963,-0.174184,-0.338722,302.524,0.112783,
2,0,0,1,0,26807.4,0.110702,0.110409,-23.6242,14,0.0130359,10,-0.00260831,-1.62664,-0.182747,-0.32285,297.551,0.110409,
2,0,0,1,0,26807.4,0.108305,0.108068,-24.3497,14,0.012892,10,-0.00263144,-1.61351,-0.187383,-0.314863,299.056,0.108068,
2,0,0,1,0,26807.5,0.105908,0.10565,-25.0604,14,0.0127437,10,-0.00264762,-1.60101,-0.197027,-0.299451,292.464,0.10565,
2,0,0,1,0,26807.5,0.103505,0.103206,-25.7565,14,0.0125912,10,-0.00265823,-1.58911,-0.21038,-0.280445,281.426,0.1032064,
2,0,0,1,0,26807.5,0.101102,0.100864,-26.4096,14,0.0124346,10,-0.00266378,-1.57824,-0.223773,-0.263661,271.509,0.100864,
2,0,0,1,0,26807.5,0.0987052,0.0983932,-27.0498,14,0.0122741,10,-0.00266151,-1.56784,-0.242879,-0.242919,256.139,0.0983932,
2,0,0,1,0,26807.5,0.0963081,0.0960465,-27.6605,14,0.0121099,10,-0.0026567,-1.55814,-0.258566,-0.228182,246.053,0.0960465,
2,0,0,1,0,26807.5,0.0938999,0.0936055,-28.2396,14,0.0119421,10,-0.00264338,-1.54914,-0.278834,-0.211595,232.937,0.0936055,
2,0,0,1,0,26807.5,0.0915028,0.0912068,-28.7898,14,0.011771,10,-0.00262583,-1.54076,-0.303226,-0.194574,218.256,0.0912068,
2,0,0,1,0,26807.5,0.0891057,0.0887934,-29.2971,14,0.0115967,10,-0.00260139,-1.53318,-0.325781,-0.181103,206.806,0.0887934,
2,0,0,1,0,26807.5,0.0867002,0.0864467,-29.7638,14,0.0114195,10,-0.00257298,-1.52631,-0.356803,-0.165357,191.916,0.0864467,
2,0,0,1,0,26807.5,0.0843031,0.0840088,-30.2231,14,0.0112395,10,-0.00253901,-1.51966,-0.386541,-0.152636,179.726,0.0840088,
2,0,0,1,0,26807.5,0.081906,0.0816473,-30.62,14,0.0110569,10,-0.00250004,-1.514,-0.430813,-0.13695,163.498,0.0816473,
2,0,0,1,0,26807.5,0.0795089,0.079202,-30.9887,14,0.010872,10,-0.00245437,-1.5088,-0.485594,-0.121501,146.813,0.079202,
2,0,0,1,0,26807.5,0.0771007,0.0767747,-31.3372,14,0.010685,10,-0.00240591,-1.50394,-0.55838,-0.105663,128.972,0.0767747,
2,0,0,1,0,26807.5,0.0747036,0.0744217,-31.6129,14,0.0104961,10,-0.00235269,-1.50014,-0.686298,-0.0859685,105.911,0.0744217,
2,0,0,1,0,26807.5,0.0723065,0.071988,-31.837,14,0.0103057,10,-0.00229188,-1.49707,-0.833649,-0.0707732,87.8559,0.071988,
2,0,0,1,0,26807.5,0.0699011,0.0695862,-32.0431,14,0.010114,10,-0.00222976,-1.49426,-1.03597,-0.0569516,71.1307,0.06958621,
2,0,0,1,0,26807.5,0.067504,0.0671992,-32.1969,14,0.00992126,10,-0.00216361,-1.49219,-1.32787,-0.0444321,55.7456,0.0671992,
2,0,0,1,0,26807.6,0.0651069,0.0648048,-32.2991,14,0.00972775,10,-0.00209314,-1.49081,-1.918,-0.0307612,38.7411,0.0648048,
2,0,0,1,0,26807.6,0.0627098,0.0623776,-32.3618,14,0.00953373,10,-0.00201865,-1.48997,-2.99123,-0.0197243,24.9021,0.0623776,
2,0,0,1,0,26807.6,0.0603016,0.0599906,-32.4222,14,0.00933935,10,-0.00194503,-1.48916,-5.86764,-0.0100551,12.7103,0.0599906,
2,0,0,1,0,26807.6,0.0579045,0.0575877,-32.4294,14,0.00914478,10,-0.00186753,-1.48906,44.752,0.00131838,-1.66701,0.0575877,
2,0,0,1,0,26807.6,0.0555074,0.0551827,-32.4058,14,0.00895027,10,-0.00178824,-1.48938,8.16175,0.00722884,-9.14043,0.0551827,
2,0,0,1,0,26807.6,0.0530992,0.0527533,-32.3883,14,0.00875591,10,-0.00170859,-1.48961,4.32253,0.0136494,-17.2339,0.0527533,
2,0,0,1,0,26807.6,0.0507021,0.0503929,-32.3344,14,0.00856177,10,-0.00162942,-1.49034,2.74579,0.0214874,-27.0898,0.0503929,
2,0,0,1,0,26807.6,0.048305,0.0479879,-32.2452,14,0.00836805,10,-0.00154738,-1.49153,2.37183,0.0248753,-31.3079,0.0479879,
2,0,0,1,0,26807.6,0.0459051,0.0456104,-32.1723,14,0.00817483,10,-0.00146739,-1.49252,2.00937,0.0293624,-36.8545,0.04561042,
2,0,0,1,0,26807.6,0.0435024,0.0431598,-32.0879,14,0.00798205,10,-0.00138491,-1.49366,1.97013,0.0299473,-37.4806,0.0431598,
2,0,0,1,0,26807.6,0.0411053,0.0407506,-31.9811,14,0.00778987,10,-0.00130325,-1.49511,1.64426,0.0358824,-44.7762,0.0407506,
2,0,0,1,0,26807.6,0.0387082,0.0383774,-31.8716,14,0.0075983,10,-0.00122315,-1.4966,1.72159,0.0342706,-42.632,0.0383774,
2,0,0,1,0,26807.6,0.0363,0.0359395,-31.7707,14,0.0074074,10,-0.00114182,-1.49797,1.59208,0.0370585,-45.9409,0.0359395,
2,0,0,1,0,26807.6,0.0339029,0.0335494,-31.6611,14,0.00721712,10,-0.00106221,-1.49947,1.44324,0.0408802,-50.4821,0.0335494,
2,0,0,1,0,26807.6,0.0315058,0.0311995,-31.5339,14,0.00702756,10,-0.000983842,-1.50122,1.45184,0.0406381,-50.0161,0.0311995,
2,0,0,1,0,26807.6,0.0291087,0.02875,-31.4023,14,0.00683879,10,-0.000902814,-1.50304,1.41111,0.041811,-51.2521,0.02875,
2,0,0,1,0,26807.6,0.0267033,0.0263598,-31.2922,14,0.00665067,10,-0.000824856,-1.50456,1.33746,0.0441135,-53.8358,0.0263598,
2,0,0,1,0,26807.7,0.0243062,0.0239665,-31.1442,14,0.00646335,10,-0.000746418,-1.50662,1.195,0.0493725,-60.0209,0.0239665,
2,0,0,1,0,26807.7,0.0219091,0.0216208,-31.0022,14,0.00627692,10,-0.000670295,-1.50861,1.21015,0.0487544,-59.0172,0.0216208,
2,0,0,1,0,26807.7,0.0195009,0.019201,-30.871,14,0.00609129,10,-0.000592754,-1.51045,1.15027,0.0512922,-61.7612,0.019201,
2,0,0,1,0,26807.7,0.0171038,0.0167621,-30.7114,14,0.00590653,10,-0.000514786,-1.5127,1.04792,0.0563019,-67.4829,0.0167621,
2,0,0,1,0,26807.7,0.0147067,0.014338,-30.5523,14,0.00572276,10,-0.000438058,-1.51496,1.02993,0.0572854,-68.2879,0.014338,
2,0,0,1,0,26807.7,0.012304,0.012003,-30.3948,14,0.00553997,10,-0.000364828,-1.5172,0.965299,0.061121,-72.4418,0.012003,
2,0,0,1,0,26807.7,0.00990136,0.00959584,-30.1994,14,0.00535822,10,-0.000289788,-1.52,0.867506,0.0680111,-80.1073,0.00959584,
2,0,0,1,0,26807.7,0.00750426,0.00719932,-29.9926,14,0.00517765,10,-0.000215927,-1.52299,0.791064,0.0745831,-87.29,0.00719932,
2,0,0,1,0,26807.7,0.00510715,0.00479326,-29.7789,14,0.00499834,10,-0.000142738,-1.52609,0.868556,0.0679289,-79.0259,0.00479326,
2,0,0,1,0,26807.7,0.00270173,0.00240946,-29.5745,14,0.00482027,10,-7.12588e-05,-1.52908,0.760259,0.0776051,-89.5522,0.00240946,
2,0,0,1,0,26807.7,0.000304623,-6.34031e-05,-29.3692,14,0.00464331,10,1.8621e-06,-1.53211,0.683622,0.086305,-98.8105,-6.34031e-05,
2,0,0,1,0,26807.7,-0.00209248,-0.00248113,-29.1094,14,0.0044679,10,7.22242e-05,-1.53597,0.620524,0.0950809,-108.052,-0.00248113,
2,0,0,1,0,26807.7,-0.00450068,-0.00485962,-28.872,14,0.00429402,10,0.000140307,-1.53952,0.591737,0.0997065,-112.201,-0.004859624,
2,0,0,1,0,26807.7,-0.00689779,-0.00725296,-28.5893,14,0.00412168,10,0.000207357,-1.5438,0.578538,0.101981,-113.718,-0.00725296,
2,0,0,1,0,26807.7,-0.00929489,-0.00961767,-28.3015,14,0.00395108,10,0.000272195,-1.54819,0.571254,0.103282,-114.122,-0.00961767,
2,0,0,1,0,26807.7,-0.011692,-0.0120312,-28.0327,14,0.00378212,10,0.000337265,-1.55234,0.556339,0.10605,-115.978,-0.0120312,
2,0,0,1,0,26807.8,-0.0140974,-0.014469,-27.7502,14,0.00361476,10,0.000401518,-1.55673,0.547268,0.107808,-116.735,-0.014469,
2,0,0,1,0,26807.8,-0.0164945,-0.0168793,-27.4606,14,0.00344916,10,0.000463516,-1.56129,0.541314,0.108994,-116.897,-0.0168793,
2,0,0,1,0,26807.8,-0.0188916,-0.0192663,-27.1894,14,0.00328523,10,0.00052384,-1.5656,0.573583,0.102862,-109.212,-0.0192663,
2,0,0,1,0,26807.8,-0.0212998,-0.0217031,-26.9328,14,0.00312286,10,0.000584526,-1.56972,0.572442,0.103067,-108.351,-0.02170313,
2,0,0,1,0,26807.8,-0.0236969,-0.0240265,-26.677,14,0.00296204,10,0.000640954,-1.57386,0.578946,0.101909,-106.124,-0.0240265,
2,0,0,1,0,26807.8,-0.026094,-0.0264781,-26.4344,14,0.00280275,10,0.000699935,-1.57783,0.642022,0.0918972,-94.8921,-0.0264781,
2,0,0,1,0,26807.8,-0.0284912,-0.028845,-26.2088,14,0.00264487,10,0.000755992,-1.58155,0.661051,0.0892518,-91.3172,-0.028845,
2,0,0,1,0,26807.8,-0.0308994,-0.0312765,-26.0041,14,0.00248822,10,0.000813317,-1.58496,0.699335,0.0843659,-85.6197,-0.0312765,
2,0,0,1,0,26807.8,-0.0332965,-0.0336656,-25.7889,14,0.00233289,10,0.000868198,-1.58857,0.748818,0.0787909,-79.4194,-0.0336656,
2,0,0,1,0,26807.8,-0.0356936,-0.0360367,-25.6208,14,0.00217871,10,0.000923287,-1.59141,0.862238,0.0684265,-68.4678,-0.0360367,
2,0,0,1,0,26807.8,-0.038099,-0.0384417,-25.4764,14,0.00202542,10,0.000979355,-1.59386,0.935937,0.0630384,-62.6526,-0.0384417,
2,0,0,1,0,26807.8,-0.0404961,-0.0408117,-25.3102,14,0.00187309,10,0.00103295,-1.5967,1.00026,0.0589845,-58.3318,-0.0408117,
2,0,0,1,0,26807.8,-0.0428932,-0.0432941,-25.1903,14,0.00172162,10,0.00109059,-1.59877,1.24683,0.0473199,-46.5553,-0.0432941,
2,0,0,1,0,26807.8,-0.0452903,-0.0456651,-25.0836,14,0.0015708,10,0.00114544,-1.60061,1.32738,0.0444485,-43.5148,-0.0456651,
2,0,0,1,0,26807.8,-0.0476985,-0.0480627,-24.9864,14,0.00142057,10,0.00120091,-1.6023,1.57429,0.0374771,-36.5696,-0.0480627,
2,0,0,1,0,26807.8,-0.0500956,-0.0504603,-24.9105,14,0.00127092,10,0.00125699,-1.60362,1.88996,0.0312176,-30.3704,-0.0504603,
2,0,0,1,0,26807.8,-0.0524927,-0.0528505,-24.8438,14,0.00112166,10,0.00131301,-1.60478,2.43431,0.0242369,-23.516,-0.0528505,
2,0,0,1,0,26807.9,-0.0548981,-0.0552512,-24.8085,14,0.000972702,10,0.0013707,-1.6054,3.02352,0.0195137,-18.8953,-0.0552512,
2,0,0,1,0,26807.9,-0.0572953,-0.0576976,-24.7633,14,0.00082404,10,0.00142878,-1.60619,4.23134,0.0139436,-13.4856,-0.0576976,
2,0,0,1,0,26807.9,-0.0596924,-0.0600824,-24.7396,14,0.000675567,10,0.00148642,-1.60661,20.1602,0.00292656,-2.8271,-0.0600824,
2,0,0,1,0,26807.9,-0.062095,-0.062463,-24.7453,14,0.000527132,10,0.00154567,-1.60651,58.6127,0.00100661,-0.971589,-0.062463,
2,0,0,1,0,26807.9,-0.0644977,-0.0648543,-24.7331,14,0.0003787,10,0.00160405,-1.60672,-18.3126,-0.00322183,3.11152,-0.0648543,
2,0,0,1,0,26807.9,-0.0668948,-0.0672646,-24.7393,14,0.000230312,10,0.00166408,-1.60661,-7.44345,-0.00792644,7.6587,-0.0672646,
2,0,0,1,0,26807.9,-0.0692919,-0.0696505,-24.7769,14,8.17412e-05,10,0.00172572,-1.60595,-4.12777,-0.0142934,13.8193,-0.0696505,
2,0,0,1,0,26807.9,-0.0717001,-0.0720385,-24.8032,14,-6.70266e-05,10,0.00178679,-1.60549,-3.57722,-0.0164932,15.9754,-0.0720385,
2,0,0,1,0,26807.9,-0.0740972,-0.0744276,-24.8408,14,-0.000215961,10,0.00184884,-1.60483,-3.03703,-0.0194268,18.8573,-0.0744276,
2,0,0,1,0,26807.9,-0.0764943,-0.076874,-24.915,14,-0.000365239,10,0.00191531,-1.60354,-2.2436,-0.026297,25.5682,-0.07687398,
2,0,0,1,0,26807.9,-0.0788997,-0.0792451,-24.9799,14,-0.000514893,10,0.00197953,-1.60241,-2.12206,-0.0278032,27.1032,-0.0792451,
2,0,0,1,0,26807.9,-0.0812968,-0.0816935,-25.0391,14,-0.00066495,10,0.00204553,-1.60138,-1.84937,-0.0319028,31.1879,-0.0816935,
2,0,0,1,0,26807.9,-0.0836939,-0.0840688,-25.1275,14,-0.000815461,10,0.00211244,-1.59985,-1.54332,-0.0382293,37.5042,-0.0840688,
2,0,0,1,0,26807.9,-0.086091,-0.0864092,-25.2137,14,-0.000966476,10,0.00217869,-1.59836,-1.46439,-0.0402899,39.6636,-0.0864092,
2,0,0,1,0,26807.9,-0.0884992,-0.0888789,-25.3194,14,-0.00111812,10,0.00225036,-1.59655,-1.33981,-0.0440362,43.516,-0.0888789,
2,0,0,1,0,26807.9,-0.0908963,-0.0912139,-25.4175,14,-0.00127034,10,0.00231843,-1.59487,-1.26763,-0.0465436,46.214,-0.0912139,
2,0,0,1,0,26807.9,-0.0932935,-0.0936645,-25.5471,14,-0.00142324,10,0.00239286,-1.59266,-1.16558,-0.0506186,50.4701,-0.0936645,
2,0,0,1,0,26808,-0.0956989,-0.0960748,-25.6733,14,-0.0015769,10,0.00246655,-1.59052,-1.124,-0.052491,52.58,-0.0960748,
2,0,0,1,0,26808,-0.098096,-0.0984469,-25.7885,14,-0.00173127,10,0.0025388,-1.58857,-1.24298,-0.0474665,47.6989,-0.0984469,
2,0,0,0,0,26808,-0.0999548,-0.100247,-25.8975,14,-0.00185276,10,0.00259616,-1.58674,0.0258805,2.27971,-2151.22,-0.100247,
2,0,0,1,1,26808,-0.0994555,-0.0999251,-24.4226,14,-0.0018952,10,0.00244043,-1.61221,-0.0236208,-2.49779,2151.37,-0.0999251,
2,0,0,1,1,26808,-0.0970583,-0.0974703,-19.8717,14,-0.00202678,10,0.0019369,-1.70177,-0.0279514,-2.1108,1660.48,-0.0974703,
2,0,0,1,1,26808,-0.0946501,-0.0950515,-16.4288,14,-0.00213504,10,0.00156158,-1.78439,-0.0287795,-2.05007,1327.31,-0.09505149,
2,0,0,1,1,26808,-0.092253,-0.0926422,-13.568,14,-0.00222455,10,0.00125697,-1.86748,-0.0276648,-2.13267,1130.28,-0.0926422,
2,0,0,1,1,26808,-0.0898559,-0.0902595,-11.071,14,-0.00229807,10,0.000999261,-1.95581,-0.0255599,-2.30831,989.058,-0.0902595,
2,0,0,1,1,26808,-0.0874588,-0.0878322,-8.80978,14,-0.00235739,10,0.000773783,-2.05503,-0.0225782,-2.61314,887.126,-0.0878322,
2,0,0,1,1,26808,-0.0850534,-0.085423,-6.77826,14,-0.00240382,10,0.000579019,-2.16888,-0.0189072,-3.12051,806.618,-0.085423,
2,0,0,1,1,26808,-0.0826563,-0.0830689,-4.95338,14,-0.00243878,10,0.000411472,-2.3051,-0.014732,-4.00488,732.852,-0.0830689,
2,0,0,1,1,26808,-0.0802592,-0.0806883,-3.2563,14,-0.00246317,10,0.000262745,-2.48728,-0.0096083,-6.14052,681.863,-0.08068826,
2,0,0,1,1,26808,-0.077851,-0.078243,-1.68128,14,-0.00247779,10,0.000131548,-2.77436,-0.00497465,-11.8601,626.862,-0.078243,
2,0,0,1,1,26808,-0.0754539,-0.0758613,-0.262501,14,-0.00248344,10,1.99137e-05,-3.58087,-0.0389854,-1.51339,577.899,-0.0758613,
2,1,0,1,1,26808,-0.0730568,-0.0734467,1.08179,14,-0.00248081,10,-7.94538e-05,-2.96586,0.0110493,5.33969,542.87,-0.0734467,
2,1,0,1,1,26808,-0.0706597,-0.0710969,2.31834,14,-0.00247042,10,-0.000164827,-2.63482,0.00823693,7.16286,500.384,-0.0710969,
2,1,0,1,1,26808,-0.0682542,-0.0686972,3.4845,14,-0.00245281,10,-0.000239376,-2.45786,0.0157626,3.74303,465.775,-0.0686972,
2,1,0,1,1,26808.1,-0.0658571,-0.0662646,4.55622,14,-0.00242854,10,-0.000301916,-2.3414,0.0229025,2.57613,438.065,-0.0662646,
2,1,0,1,1,26808.1,-0.06346,-0.0638935,5.57164,14,-0.00239803,10,-0.000355992,-2.25402,0.0302708,1.94908,412.13,-0.0638935,
2,1,0,1,1,26808.1,-0.0610518,-0.0614981,6.53972,14,-0.00236156,10,-0.00040218,-2.18444,0.0382638,1.54193,384.688,-0.0614981,
2,1,0,1,1,26808.1,-0.0586547,-0.059057,7.42924,14,-0.00231954,10,-0.000438749,-2.12906,0.0468793,1.25855,359.939,-0.059057,
2,1,0,1,1,26808.1,-0.0562576,-0.0566838,8.27266,14,-0.00227236,10,-0.000468926,-2.08235,0.0557438,1.05841,337.948,-0.0566838,
2,1,0,1,1,26808.1,-0.053855,-0.0542597,9.06893,14,-0.00222024,10,-0.000492078,-2.04244,0.0643859,0.91635,320.758,-0.05425974,
2,1,0,1,1,26808.1,-0.0514523,-0.0518399,9.79588,14,-0.00216353,10,-0.000507818,-2.00896,0.0741928,0.795225,302.006,-0.0518399,
2,1,0,1,1,26808.1,-0.0490552,-0.0494699,10.4897,14,-0.0021026,10,-0.000518924,-1.97924,0.0856903,0.688526,280.489,-0.0494699,
2,1,0,1,1,26808.1,-0.0466581,-0.0470882,11.1478,14,-0.0020376,10,-0.000524932,-1.95281,0.0967541,0.609793,263.725,-0.0470882,
2,1,0,1,1,26808.1,-0.0442527,-0.0446355,11.7608,14,-0.00196876,10,-0.000524951,-1.92956,0.110127,0.535745,244.69,-0.04463549,
2,1,0,1,1,26808.1,-0.0418556,-0.0422082,12.3233,14,-0.00189645,10,-0.000520144,-1.90927,0.12592,0.46855,224.603,-0.0422082,
2,1,0,1,1,26808.1,-0.0394585,-0.0398573,12.8607,14,-0.00182082,10,-0.000512592,-1.89074,0.136264,0.432983,216.553,-0.0398573,
2,1,0,1,1,26808.1,-0.0370558,-0.0374194,13.3635,14,-0.00174209,10,-0.000500053,-1.87408,0.150918,0.390941,203.237,-0.03741942,
2,1,0,1,1,26808.1,-0.0346532,-0.0350165,13.8302,14,-0.00166045,10,-0.000484286,-1.85917,0.169854,0.347358,186.888,-0.0350165,
2,1,0,1,1,26808.1,-0.0322561,-0.0326455,14.2619,14,-0.00157613,10,-0.000465587,-1.84582,0.185991,0.317219,176.159,-0.0326455,
2,1,0,1,1,26808.1,-0.0298589,-0.0302458,14.6741,14,-0.00148929,10,-0.00044383,-1.83345,0.204096,0.289079,165.159,-0.0302458,
2,1,0,1,1,26808.1,-0.0274535,-0.0277846,15.0524,14,-0.00140005,10,-0.000418223,-1.8224,0.224778,0.262481,153.905,-0.02778456,
2,1,0,1,1,26808.2,-0.0250564,-0.0254283,15.4011,14,-0.00130865,10,-0.000391624,-1.81245,0.25067,0.235369,141.305,-0.0254283,
2,1,0,1,1,26808.2,-0.0226593,-0.0230361,15.7363,14,-0.00121518,10,-0.000362502,-1.8031,0.273434,0.215774,132.263,-0.0230361,
2,1,0,1,1,26808.2,-0.0202511,-0.0206618,16.0545,14,-0.00111979,10,-0.000331714,-1.7944,0.299168,0.197214,123.286,-0.0206618,
2,1,0,1,1,26808.2,-0.017854,-0.0182314,16.3247,14,-0.00102264,10,-0.000297621,-1.78716,0.32912,0.179266,114.095,-0.0182314,
2,1,0,1,1,26808.2,-0.0154569,-0.0158285,16.6004,14,-0.000923829,10,-0.00026276,-1.77988,0.360912,0.163475,105.711,-0.0158285,
2,1,0,1,1,26808.2,-0.0130598,-0.013432,16.8245,14,-0.00082352,10,-0.000225986,-1.77406,0.391718,0.150619,98.9003,-0.013432,
2,1,0,1,1,26808.2,-0.0106516,-0.0110588,17.0685,14,-0.000721785,10,-0.000188757,-1.7678,0.420932,0.140165,93.2606,-0.0110588,
2,1,0,1,1,26808.2,-0.00825448,-0.00863997,17.2848,14,-0.000618699,10,-0.00014934,-1.76234,0.479751,0.12298,82.8643,-0.00863997,
2,1,0,1,1,26808.2,-0.00585738,-0.00622331,17.4774,14,-0.00051441,10,-0.000108767,-1.75752,0.516589,0.114211,77.8401,-0.006223307,
2,1,0,1,1,26808.2,-0.00345195,-0.0038183,17.6568,14,-0.000409014,10,-6.74192e-05,-1.75309,0.564922,0.104439,71.8671,-0.003818304,
2,1,0,1,1,26808.2,-0.00105485,-0.00141542,17.8189,14,-0.000302563,10,-2.52213e-05,-1.74912, , , ,-0.001415422,
2,1,0,0,1,26808.2,-7.54729e-05,-0.000344411,17.8641,14,-0.000257943,10,-6.15257e-06,-1.74802, , , ,-0.000344411,