File: Figure_codes/Fig_3-5/rawdata_trumpetplot_data/after 10th/20221101_1-115_003_TrumpetPlot_ParaChange_from10_every3_03_CV_C01_12.csv
mode,ox/red,error,control changes,counter inc.,time/s,control/V,Ewe/V,<I>/mA,cycle number,(Q-Qo)/C,I Range,P/W,log(|I|),Tafel slope mV/dec,alpha_eff,dI/d(E-IR),E-IR/V,
2,0,0,1,0,24581.6,2.44065e-05,-0.000344411,-0.121655,13,0.0000000E+000,10,4.18994e-08,-3.91487, , , ,-0.000344411,
2,1,0,0,0,24581.8,0.00129787,0.000888842,0.138273,13,2.56252e-05,10,1.22903e-07,-3.85926, , , ,0.0008888421,
2,1,0,0,0,24582.1,0.00279606,0.0024996,0.174883,13,7.92913e-05,10,4.37137e-07,-3.75725,0.0180226,3.27367,18.9416,0.0024996,
2,1,0,1,0,24582.4,0.00429469,0.0039856,0.185197,13,0.000138329,10,7.38124e-07,-3.73237,0.0687432,0.858267,6.21853,0.0039856,
2,1,0,1,0,24582.7,0.00579255,0.0054403,0.194546,13,0.000200488,10,1.05839e-06,-3.71098,0.071243,0.828152,6.28291,0.0054403,
2,1,0,1,0,24583,0.00729041,0.00699237,0.204906,13,0.000265472,10,1.43278e-06,-3.68845,0.0777911,0.758441,6.0231,0.00699237,
2,1,0,1,0,24583.3,0.00878882,0.00846651,0.212608,13,0.000333169,10,1.80004e-06,-3.67242,0.101795,0.579594,4.7897,0.00846651,
2,1,0,1,0,24583.6,0.010287,0.0099744,0.219424,13,0.00040301,10,2.18863e-06,-3.65872,0.1272,0.463836,3.95866,0.0099744,
2,1,0,1,0,24583.9,0.0117852,0.0114908,0.225856,13,0.000474833,10,2.59527e-06,-3.64617,0.130315,0.452749,3.98792,0.0114908,
2,1,0,1,0,24584.2,0.0132836,0.0129416,0.231679,13,0.000548333,10,2.99831e-06,-3.63511,0.121014,0.487547,4.44863,0.0129416,
2,1,0,1,0,24584.5,0.0147815,0.0144355,0.237777,13,0.000623927,10,3.43243e-06,-3.62383,0.131403,0.448999,4.16929,0.0144355,
2,1,0,1,0,24584.8,0.0162793,0.0159705,0.244096,13,0.000701534,10,3.89835e-06,-3.61244,0.16639,0.354589,3.36687,0.0159705,
2,1,0,0,0,24585.1,0.017778,0.0174513,0.249556,13,0.000780691,10,4.35509e-06,-3.60283,0.172497,0.342035,3.33496,0.0174513,
2,1,0,0,0,24585.4,0.0192761,0.0189391,0.255472,13,0.000861131,10,4.8384e-06,-3.59266,0.179472,0.328742,3.26376,0.0189391,
2,1,0,1,0,24585.7,0.0207747,0.0204654,0.260971,13,0.000943511,10,5.34088e-06,-3.58341,0.157151,0.375434,3.79959,0.0204654,
2,1,0,1,0,24586,0.0222725,0.0219824,0.266425,13,0.00102744,10,5.85667e-06,-3.57443,0.176094,0.335047,3.48399,0.0219824,
2,1,0,1,0,24586.3,0.0237704,0.0234932,0.270882,13,0.00111295,10,6.36387e-06,-3.56722,0.164656,0.358323,3.79582,0.0234932,
2,1,0,1,0,24586.6,0.0252689,0.0249357,0.274529,13,0.00119989,10,6.84558e-06,-3.56141,0.179854,0.328044,3.54884,0.0249357,
2,1,0,1,0,24586.9,0.0267671,0.0264425,0.281757,13,0.00128866,10,7.45036e-06,-3.55013,0.149166,0.395532,4.34063,0.02644252,
2,1,0,1,0,24587.2,0.0282657,0.0279296,0.287783,13,0.0013791,10,8.03765e-06,-3.54094,0.172937,0.341165,3.83881,0.02792958,
2,1,0,1,0,24587.5,0.0297635,0.0294181,0.293935,13,0.00147113,10,8.647e-06,-3.53175,0.188853,0.312412,3.5664,0.0294181,
2,1,0,1,0,24587.8,0.0312613,0.0309183,0.296534,13,0.00156482,10,9.16833e-06,-3.52793,0.170756,0.345522,4.01765,0.0309183,
2,1,0,0,0,24588.1,0.0327599,0.0323893,0.304046,13,0.00165999,10,9.84783e-06,-3.51706,0.191083,0.308766,3.66461,0.0323893,
2,1,0,0,0,24588.4,0.034258,0.0339078,0.310293,13,0.001757,10,1.05213e-05,-3.50823,0.205148,0.287598,3.4766,0.0339078,
2,1,0,1,0,24588.7,0.0357567,0.0354448,0.315173,13,0.00185576,10,1.11712e-05,-3.50145,0.251443,0.234646,2.87665,0.0354448,
2,1,0,1,0,24589,0.0372545,0.0368992,0.320221,13,0.00195592,10,1.18159e-05,-3.49455,0.212273,0.277944,3.4804,0.0368992,
2,1,0,1,0,24589.3,0.0387524,0.038444,0.32461,13,0.00205743,10,1.24793e-05,-3.48864,0.190851,0.309141,3.94277,0.038444,
2,1,0,1,0,24589.6,0.0402508,0.0399288,0.330182,13,0.00216096,10,1.31838e-05,-3.48125,0.205245,0.287461,3.71136,0.0399288,
2,1,0,1,0,24589.9,0.041749,0.0414144,0.337137,13,0.00226621,10,1.39623e-05,-3.47219,0.240684,0.245135,3.21473,0.0414144,
2,1,0,1,0,24590.2,0.0432472,0.0429424,0.342074,13,0.00237277,10,1.46895e-05,-3.46588,0.247335,0.238543,3.17468,0.0429424,
2,1,0,1,0,24590.5,0.0447456,0.0443785,0.34617,13,0.00248061,10,1.53625e-05,-3.46071,0.220001,0.26818,3.61331,0.0443785,
2,1,0,1,0,24590.8,0.0462435,0.0459422,0.352113,13,0.00259016,10,1.61768e-05,-3.45332,0.211074,0.279523,3.82343,0.0459422,
2,1,0,1,0,24591.1,0.0477413,0.0474415,0.355875,13,0.00270134,10,1.68832e-05,-3.4487,0.270004,0.218515,3.0379,0.0474415,
2,1,0,0,0,24591.4,0.0492399,0.0489115,0.361382,13,0.00281405,10,1.76757e-05,-3.44203,0.287944,0.204901,2.88901,0.0489115,
2,1,0,0,0,24591.7,0.0507381,0.0503685,0.36469,13,0.00292787,10,1.83689e-05,-3.43808,0.285091,0.206951,2.95665,0.0503685,
2,1,0,1,0,24592,0.0522367,0.0518767,0.370351,13,0.00304329,10,1.92126e-05,-3.43139,0.241977,0.243825,3.52182,0.0518767,
2,1,0,1,0,24592.3,0.0537345,0.0534374,0.376983,13,0.00316032,10,2.0145e-05,-3.42368,0.29113,0.202659,2.96433,0.0534374,
2,1,0,1,0,24592.6,0.0552323,0.0549025,0.379051,13,0.00327871,10,2.08108e-05,-3.4213,0.341941,0.172544,2.55197,0.0549025,
2,1,0,1,0,24592.9,0.0567309,0.0564086,0.382204,13,0.00339838,10,2.15596e-05,-3.4177,0.297755,0.19815,2.96962,0.0564086,
2,1,0,1,0,24593.2,0.0582291,0.057908,0.387924,13,0.00351913,10,2.24639e-05,-3.41125,0.299046,0.197294,2.99464,0.057908,
2,1,0,1,0,24593.5,0.0597277,0.0594355,0.393095,13,0.00364148,10,2.33638e-05,-3.4055,0.283315,0.208248,3.18918,0.0594355,
2,1,0,1,0,24593.8,0.0612255,0.0609034,0.398043,13,0.00376508,10,2.42422e-05,-3.40007,0.401867,0.146815,2.26808,0.06090343,
2,1,0,1,0,24594.1,0.0627233,0.0623784,0.400534,13,0.00389,10,2.49847e-05,-3.39736,0.34749,0.169789,2.65875,0.0623784,
2,1,0,0,0,24594.4,0.0642218,0.063895,0.405088,13,0.00401573,10,2.58831e-05,-3.39245,0.324251,0.181958,2.88059,0.063895,
2,1,0,0,0,24594.7,0.06572,0.0653912,0.409004,13,0.00414307,10,2.67453e-05,-3.38827,0.297531,0.198299,3.15762,0.06539125,
2,1,0,1,0,24595,0.0672187,0.0669176,0.414771,13,0.0042717,10,2.77555e-05,-3.38219,0.433648,0.136055,2.19342,0.0669176,
2,1,0,1,0,24595.3,0.0687165,0.0684379,0.417112,13,0.0044013,10,2.85463e-05,-3.37975,0.390592,0.151053,2.45704,0.0684379,
2,1,0,1,0,24595.6,0.0702144,0.0699073,0.420414,13,0.00453153,10,2.93901e-05,-3.37632,0.531554,0.110995,1.81737,0.0699073,
2,1,0,1,0,24595.9,0.0717128,0.0714048,0.422863,13,0.00466313,10,3.01945e-05,-3.3738,0.31756,0.185792,3.06437,0.0714048,
2,1,0,1,0,24596.2,0.073211,0.0728926,0.426099,13,0.00479555,10,3.10595e-05,-3.37049,0.48523,0.121592,2.02688,0.0728926,
2,1,0,1,0,24596.5,0.0747092,0.0744153,0.43012,13,0.00492912,10,3.20075e-05,-3.36641,0.552747,0.10674,1.79194,0.0744153,
2,1,0,1,0,24596.8,0.0762076,0.075914,0.431676,13,0.00506338,10,3.27703e-05,-3.36484,0.414205,0.142442,2.40596,0.075914,
2,1,0,1,0,24597.1,0.0777054,0.0773504,0.438539,13,0.00519859,10,3.39211e-05,-3.35799,0.341362,0.172837,2.93294,0.07735043,
2,1,0,1,0,24597.4,0.0792033,0.0788644,0.441357,13,0.00533507,10,3.48073e-05,-3.35521,0.50368,0.117138,2.00389,0.0788644,
2,1,0,0,0,24597.7,0.0807019,0.0803568,0.444325,13,0.00547263,10,3.57045e-05,-3.3523,0.526969,0.111961,1.93044,0.0803568,
2,1,0,0,0,24598,0.0822001,0.0818774,0.445619,13,0.00561093,10,3.64861e-05,-3.35104,0.50166,0.11761,2.04766,0.0818774,
2,1,0,1,0,24598.3,0.0836986,0.0833719,0.450079,13,0.00574995,10,3.7524e-05,-3.34671,0.438245,0.134628,2.36975,0.0833719,
2,1,0,1,0,24598.6,0.0851965,0.0848805,0.453109,13,0.00589033,10,3.84601e-05,-3.3438,0.341857,0.172587,3.0502,0.0848805,
2,1,0,1,0,24598.9,0.0866944,0.0863659,0.457191,13,0.00603214,10,3.94857e-05,-3.3399,0.429155,0.137479,2.44774,0.0863659,
2,1,0,1,0,24599.2,0.0881929,0.0878634,0.462704,13,0.00617517,10,4.06547e-05,-3.3347,0.351564,0.167822,3.03309,0.0878634,
2,1,0,1,0,24599.5,0.0896911,0.0893575,0.467789,13,0.00631923,10,4.18004e-05,-3.32995,0.276925,0.213054,3.89753,0.0893575,
2,1,0,1,0,24599.8,0.0911897,0.0908467,0.474804,13,0.00646534,10,4.31343e-05,-3.32349,0.241908,0.243894,4.50623,0.0908467,
2,1,0,1,0,24600.1,0.0926875,0.0923872,0.480732,13,0.00661366,10,4.44135e-05,-3.3181,0.245669,0.24016,4.50038,0.0923872,
2,1,0,1,0,24600.4,0.0941853,0.0938926,0.486487,13,0.00676374,10,4.56775e-05,-3.31293,0.233299,0.252894,4.80566,0.0938926,
2,1,0,0,0,24600.7,0.0956838,0.0953488,0.492403,13,0.00691561,10,4.695e-05,-3.30768,0.214124,0.275541,5.32316,0.0953488,
2,1,0,0,0,24601,0.097182,0.0968503,0.501504,13,0.00706988,10,4.85709e-05,-3.29973,0.183996,0.32066,6.27093,0.0968503,
2,1,0,1,0,24601.3,0.0986807,0.0983862,0.50952,13,0.00722669,10,5.01298e-05,-3.29284,0.202243,0.291728,5.82129,0.0983862,
2,1,0,1,0,24601.6,0.100179,0.0998302,0.519136,13,0.00738616,10,5.18255e-05,-3.28472,0.215672,0.273564,5.53265,0.0998302,
2,1,0,1,0,24601.9,0.101676,0.101362,0.524994,13,0.00754796,10,5.32146e-05,-3.27985,0.212865,0.277171,5.7183,0.101362,
2,1,0,1,0,24602.2,0.103175,0.102881,0.53709,13,0.00771233,10,5.52563e-05,-3.26995,0.209585,0.281509,5.89226,0.102881,
2,1,0,1,0,24602.5,0.104673,0.104397,0.547734,13,0.00787978,10,5.7182e-05,-3.26143,0.210662,0.28007,5.9551,0.104397,
2,1,0,1,0,24602.8,0.106171,0.105837,0.555416,13,0.00804999,10,5.87837e-05,-3.25538,0.265339,0.222357,4.79267,0.105837,
2,1,0,1,0,24603.1,0.10767,0.107338,0.560288,13,0.00822247,10,6.01403e-05,-3.25159,0.254435,0.231887,5.08967,0.1073381,
2,1,0,1,0,24603.4,0.109167,0.108833,0.569641,13,0.00839684,10,6.19956e-05,-3.2444,0.253471,0.232768,5.18016,0.108833,
2,1,0,1,0,24603.7,0.110665,0.110313,0.576872,13,0.00857388,10,6.36364e-05,-3.23892,0.277547,0.212576,4.78529,0.110313,
2,1,0,0,0,24604,0.112164,0.111839,0.584813,13,0.00875325,10,6.5405e-05,-3.23298,0.333532,0.176894,4.02393,0.111839,
2,1,0,0,0,24604.3,0.113662,0.113329,0.591329,13,0.00893443,10,6.70148e-05,-3.22817,0.353435,0.166933,3.84302,0.113329,
2,1,0,1,0,24604.6,0.115161,0.114858,0.595361,13,0.00911705,10,6.83817e-05,-3.22522,0.347625,0.169723,3.94336,0.114858,
2,1,0,1,0,24604.9,0.116658,0.116376,0.60135,13,0.00930166,10,6.99825e-05,-3.22087,0.350209,0.168471,3.94565,0.116376,
2,1,0,1,0,24605.2,0.118156,0.117831,0.608139,13,0.00948836,10,7.16577e-05,-3.216,0.385274,0.153138,3.62602,0.117831,
2,1,0,1,0,24605.5,0.119655,0.11935,0.612028,13,0.00967649,10,7.30456e-05,-3.21323,0.536755,0.10992,2.62657,0.11935,
2,1,0,1,0,24605.8,0.121153,0.12082,0.613356,13,0.00986551,10,7.41055e-05,-3.21229,0.472364,0.124904,3.0091,0.12082,
2,1,0,1,0,24606.1,0.122652,0.12234,0.621949,13,0.0100563,10,7.60892e-05,-3.20625,0.312144,0.189015,4.5784,0.12234,
2,1,0,1,0,24606.4,0.124149,0.123818,0.626608,13,0.0102489,10,7.75857e-05,-3.203,0.389565,0.151451,3.70309,0.1238184,
2,1,0,1,0,24606.7,0.125647,0.12533,0.630249,13,0.0104429,10,7.89893e-05,-3.20049,0.588225,0.100302,2.4679,0.12533,
2,1,0,0,0,24607,0.127146,0.126825,0.632795,13,0.0106382,10,8.02541e-05,-3.19874,0.524713,0.112442,2.78617,0.126825,
2,1,0,0,0,24607.3,0.128644,0.128349,0.639622,13,0.0108344,10,8.20946e-05,-3.19408,0.733585,0.080427,2.00484,0.128349,
2,1,0,1,0,24607.6,0.130143,0.129824,0.64345,13,0.011032,10,8.35354e-05,-3.19148,1.15273,0.0511829,1.28103,0.129824,
2,1,0,1,0,24607.9,0.131641,0.13134,0.643177,13,0.0112303,10,8.4475e-05,-3.19167,-6.06631,-0.00972585,-0.243022,0.13134,
2,1,0,1,0,24608.2,0.133138,0.132853,0.642995,13,0.0114285,10,8.54239e-05,-3.19179,-0.960054,-0.0614549,-1.53731,0.132853,
2,1,0,1,0,24608.5,0.134637,0.134275,0.636333,13,0.0116255,10,8.54438e-05,-3.19632,-0.411975,-0.143212,-3.55587,0.134275,
2,1,0,1,0,24608.8,0.136135,0.135799,0.6322,13,0.0118213,10,8.58522e-05,-3.19915,-0.253746,-0.232516,-5.70571,0.135799,
2,1,0,1,0,24609.1,0.137633,0.137327,0.622682,13,0.0120147,10,8.55111e-05,-3.20573,-0.17629,-0.334676,-8.06489,0.1373271,
2,1,0,1,0,24609.4,0.139132,0.138843,0.609365,13,0.0122044,10,8.46059e-05,-3.21512,-0.13761,-0.428746,-10.1156,0.138843,
2,1,0,1,0,24609.7,0.140629,0.140319,0.591867,13,0.0123893,10,8.30505e-05,-3.22778,-0.11564,-0.510202,-11.7239,0.140319,
2,1,0,1,0,24610,0.142127,0.141843,0.572901,13,0.0125688,10,8.1262e-05,-3.24192,-0.103894,-0.567886,-12.6373,0.141843,
2,1,0,0,0,24610.3,0.143626,0.143312,0.553016,13,0.0127428,10,7.92538e-05,-3.25726,-0.0864674,-0.682338,-14.6339,0.143312,
2,1,0,0,0,24610.6,0.145124,0.144849,0.528284,13,0.0129099,10,7.65212e-05,-3.27713,-0.0758394,-0.77796,-16.0549,0.144849,
2,1,0,1,0,24610.9,0.146623,0.14631,0.502984,13,0.0130698,10,7.35917e-05,-3.29845,-0.0738494,-0.798924,-15.7423,0.14631,
2,1,0,1,0,24611.2,0.14812,0.147796,0.480654,13,0.0132225,10,7.1039e-05,-3.31817,-0.0768377,-0.767852,-14.4256,0.1477965,
2,1,0,1,0,24611.5,0.149618,0.149284,0.458602,13,0.0133684,10,6.84618e-05,-3.33856,-0.0757988,-0.778377,-13.9621,0.1492839,
2,1,0,1,0,24611.8,0.151117,0.150734,0.440052,13,0.0135082,10,6.63308e-05,-3.3565,-0.0771842,-0.764405,-13.0785,0.150734,
2,1,0,1,0,24612.1,0.152615,0.15232,0.418479,13,0.0136418,10,6.37428e-05,-3.37833,-0.086389,-0.682957,-11.2405,0.15232,
2,1,0,1,0,24612.4,0.154114,0.153785,0.404523,13,0.0137703,10,6.22096e-05,-3.39306,-0.0965786,-0.610901,-9.68712,0.153785,
2,1,0,1,0,24612.7,0.155612,0.155318,0.391485,13,0.0138946,10,6.08046e-05,-3.40729,-0.109306,-0.539771,-8.2702,0.1553179,
2,1,0,1,0,24613,0.157109,0.156796,0.378998,13,0.0140151,10,5.94254e-05,-3.42136,-0.108563,-0.543463,-8.03529,0.156796,
2,1,0,0,0,24613.3,0.158608,0.158337,0.368069,13,0.0141324,10,5.82789e-05,-3.43407,-0.130187,-0.453196,-6.5547,0.158337,
2,1,0,0,0,24613.6,0.160106,0.15978,0.359905,13,0.0142464,10,5.75057e-05,-3.44381,-0.147502,-0.399994,-5.6528,0.15978,
2,1,0,1,0,24613.9,0.161605,0.161309,0.354335,13,0.0143583,10,5.71572e-05,-3.45059,-0.192349,-0.306734,-4.22845,0.161309,
2,1,0,1,0,24614.2,0.163102,0.162763,0.34691,13,0.0144682,10,5.64641e-05,-3.45978,-0.203241,-0.290295,-3.93363,0.162763,
2,1,0,1,0,24614.5,0.1646,0.164308,0.341921,13,0.0145763,10,5.61803e-05,-3.46607,-0.239455,-0.246393,-3.28293,0.164308,
2,1,0,1,0,24614.8,0.166099,0.165788,0.336685,13,0.0146826,10,5.58185e-05,-3.47278,-0.279916,-0.210778,-2.76957,0.165788,
2,1,0,1,0,24615.1,0.167597,0.167257,0.332653,13,0.0147878,10,5.56385e-05,-3.47801,-0.377297,-0.156376,-2.02866,0.167257,
2,1,0,1,0,24615.4,0.169095,0.168785,0.328003,13,0.0148919,10,5.5362e-05,-3.48412,-0.337281,-0.174928,-2.24846,0.168785,
2,1,0,1,0,24615.7,0.170594,0.170257,0.32599,13,0.0149948,10,5.55021e-05,-3.4868,-0.307026,-0.192166,-2.44767,0.170257,
2,1,0,1,0,24616,0.172091,0.171774,0.322164,13,0.0150965,10,5.53395e-05,-3.49192,-0.361358,-0.163273,-2.05725,0.171774,
2,1,0,1,0,24616.3,0.173589,0.173254,0.318911,13,0.0151974,10,5.52527e-05,-3.49633,-0.519915,-0.11348,-1.41374,0.173254,
2,1,0,0,0,24616.6,0.175088,0.174786,0.317214,13,0.0152976,10,5.54446e-05,-3.49865,-0.609225,-0.0968444,-1.19701,0.174786,
2,1,0,0,0,24616.9,0.176586,0.176247,0.31499,13,0.0153972,10,5.5516e-05,-3.5017,-0.387359,-0.152314,-1.86692,0.176247,
2,1,0,1,0,24617.2,0.178085,0.177778,0.310353,13,0.0154959,10,5.51738e-05,-3.50814,-0.534817,-0.110318,-1.3459,0.1777778,
2,1,0,1,0,24617.5,0.179582,0.179256,0.31031,13,0.0155939,10,5.56247e-05,-3.5082,-0.566889,-0.104077,-1.26181,0.179256,
2,1,0,1,0,24617.8,0.18108,0.180781,0.308077,13,0.0156917,10,5.56945e-05,-3.51134,-0.856404,-0.0688927,-0.832129,0.180781,
2,1,0,1,0,24618.1,0.182579,0.182279,0.306332,13,0.0157888,10,5.58379e-05,-3.51381,-0.446899,-0.132021,-1.5861,0.182279,
2,1,0,1,0,24618.4,0.184077,0.183779,0.305284,13,0.0158855,10,5.61049e-05,-3.5153,-0.60524,-0.0974819,-1.16471,0.183779,
2,1,0,1,0,24618.7,0.185576,0.185244,0.304469,13,0.0159816,10,5.64011e-05,-3.51646,-0.949056,-0.0621671,-0.738655,0.185244,
2,1,0,1,0,24619,0.187074,0.186744,0.303005,13,0.0160774,10,5.65844e-05,-3.51855,-1.56843,-0.0376171,-0.444121,0.1867443,
2,1,0,1,0,24619.3,0.188571,0.188242,0.302164,13,0.0161729,10,5.68801e-05,-3.51976,-1.18571,-0.0497594,-0.585965,0.188242,
2,1,0,0,0,24619.6,0.19007,0.189738,0.300775,13,0.016268,10,5.70683e-05,-3.52176,-0.553328,-0.106628,-1.25268,0.189738,
2,1,0,0,0,24619.9,0.191568,0.191252,0.298582,13,0.0163626,10,5.71045e-05,-3.52494,-0.704412,-0.0837579,-0.979011,0.191252,
2,1,0,1,0,24620.2,0.193067,0.192726,0.298738,13,0.016457,10,5.75746e-05,-3.52471,-4.55852,-0.0129428,-0.150636,0.192726,
2,1,0,1,0,24620.5,0.194564,0.19421,0.297779,13,0.0165513,10,5.78318e-05,-3.52611,-1.94211,-0.0303793,-0.353105,0.19421,
2,1,0,1,0,24620.8,0.196062,0.195715,0.295793,13,0.0166451,10,5.7891e-05,-3.52901,-0.5637,-0.104666,-1.21461,0.195715,
2,1,0,1,0,24621.1,0.197561,0.197211,0.294302,13,0.0167385,10,5.80398e-05,-3.53121,-1.11973,-0.0526914,-0.608844,0.197211,
2,1,0,1,0,24621.4,0.199059,0.198703,0.295158,13,0.0168316,10,5.86488e-05,-3.52995,-0.952588,-0.0619366,-0.711733,0.198703,
2,1,0,1,0,24621.7,0.200557,0.200229,0.29461,13,0.0169247,10,5.89896e-05,-3.53075,-0.996612,-0.0592006,-0.678786,0.200229,
2,1,0,1,0,24622,0.202056,0.201693,0.293077,13,0.0170175,10,5.91115e-05,-3.53302,-1.04927,-0.0562295,-0.642682,0.201693,
2,1,0,1,0,24622.3,0.203553,0.203236,0.291245,13,0.01711,10,5.91915e-05,-3.53574,-1.71767,-0.0343488,-0.392025,0.203236,
2,1,0,1,0,24622.6,0.205051,0.204698,0.290796,13,0.0172021,10,5.95256e-05,-3.53641,6.81275,0.00866023,0.0992098,0.204698,
2,1,0,0,0,24622.9,0.20655,0.206241,0.290707,13,0.0172942,10,5.99556e-05,-3.53654,-3.47754,-0.016966,-0.193083,0.206241,
2,1,0,0,0,24623.2,0.208048,0.207725,0.290471,13,0.0173863,10,6.03383e-05,-3.5369,-0.885059,-0.0666622,-0.753203,0.207725,
2,1,0,1,0,24623.5,0.209547,0.209216,0.290001,13,0.0174781,10,6.06726e-05,-3.5376,-1.2287,-0.0480183,-0.54264,0.209216,
2,1,0,1,0,24623.8,0.211044,0.210704,0.288812,13,0.0175693,10,6.0854e-05,-3.53938,-0.785505,-0.0751109,-0.846639,0.210704,
2,1,0,1,0,24624.1,0.212542,0.212247,0.288331,13,0.0176605,10,6.11973e-05,-3.54011,-1.44855,-0.0407303,-0.457525,0.212247,
2,1,0,1,0,24624.4,0.214041,0.213727,0.288638,13,0.0177516,10,6.16899e-05,-3.53965,-5.65202,-0.0104387,-0.117208,0.213727,
2,1,0,1,0,24624.7,0.215539,0.215207,0.2876,13,0.0178425,10,6.18935e-05,-3.54121,-1.3145,-0.044884,-0.503169,0.215207,
2,1,0,1,0,24625,0.217038,0.216716,0.285759,13,0.017933,10,6.19286e-05,-3.544,-1.95109,-0.0302395,-0.338297,0.216716,
2,1,0,1,0,24625.3,0.218535,0.218218,0.285362,13,0.0180234,10,6.22711e-05,-3.5446,-2.49518,-0.0236456,-0.263131,0.218218,
2,1,0,1,0,24625.6,0.220033,0.219733,0.285354,13,0.0181138,10,6.27017e-05,-3.54462,-1.81653,-0.0324796,-0.36119,0.219733,
2,1,0,0,0,24625.9,0.221532,0.221243,0.284724,13,0.018204,10,6.29932e-05,-3.54558,-0.9746,-0.0605376,-0.674077,0.221243,
2,1,0,0,0,24626.2,0.22303,0.222681,0.281931,13,0.0182938,10,6.27807e-05,-3.54986,-1.22878,-0.0480152,-0.532674,0.222681,
2,1,0,1,0,24626.5,0.224529,0.224207,0.283845,13,0.0183835,10,6.36399e-05,-3.54692,-3.1499,-0.0187307,-0.207285,0.224207,
2,1,0,1,0,24626.8,0.226026,0.225733,0.282308,13,0.0184731,10,6.37263e-05,-3.54928,-1.47161,-0.0400921,-0.441972,0.225733,
2,1,0,1,0,24627.1,0.227524,0.227187,0.282676,13,0.0185625,10,6.42202e-05,-3.54871,-1.22898,-0.0480073,-0.528308,0.227187,
2,1,0,1,0,24627.4,0.229023,0.228685,0.282291,13,0.0186518,10,6.45559e-05,-3.5493,-1.50386,-0.0392323,-0.432311,0.228685,
2,1,0,1,0,24627.7,0.230521,0.230206,0.281058,13,0.0187408,10,6.47011e-05,-3.5512,-2.8887,-0.0204244,-0.225265,0.230206,
2,1,0,1,0,24628,0.232019,0.231715,0.28013,13,0.0188298,10,6.49104e-05,-3.55264,-2.63645,-0.0223786,-0.246265,0.231715,
2,1,0,1,0,24628.3,0.233518,0.233229,0.28031,13,0.0189188,10,6.53766e-05,-3.55236,-2.17007,-0.0271881,-0.297137,0.233229,
2,1,0,1,0,24628.6,0.235015,0.234706,0.279911,13,0.0190076,10,6.5697e-05,-3.55298,-1.24539,-0.0473748,-0.517764,0.234706,
2,1,0,1,0,24628.9,0.236513,0.236178,0.280013,13,0.0190961,10,6.61328e-05,-3.55282,-3.47347,-0.0169859,-0.185213,0.236178,
2,1,0,0,0,24629.2,0.238012,0.237709,0.279516,13,0.0191847,10,6.64436e-05,-3.55359,-1.32123,-0.0446552,-0.486321,0.237709,
2,1,0,0,0,24629.5,0.23951,0.239223,0.279002,13,0.0192731,10,6.67436e-05,-3.55439,32.1462,0.00183537,0.0200102,0.239223,
2,1,0,1,0,24629.8,0.241009,0.24071,0.277816,13,0.0193614,10,6.6873e-05,-3.55624,-5.178,-0.0113944,-0.124084,0.2407096,
2,1,0,1,0,24630.1,0.242506,0.242192,0.278587,13,0.0194494,10,6.74715e-05,-3.55504,-2.50811,-0.0235237,-0.255781,0.242192,
2,1,0,1,0,24630.4,0.244004,0.243676,0.278728,13,0.0195375,10,6.79194e-05,-3.55482,-5.62989,-0.0104798,-0.113524,0.2436759,
2,1,0,1,0,24630.7,0.245503,0.245203,0.277957,13,0.0196256,10,6.8156e-05,-3.55602,-1.95587,-0.0301657,-0.326371,0.245203,
2,1,0,1,0,24631,0.247001,0.246673,0.277135,13,0.0197135,10,6.83618e-05,-3.55731,-2.10975,-0.0279654,-0.302823,0.246673,
2,1,0,1,0,24631.3,0.2485,0.248152,0.275791,13,0.0198012,10,6.84381e-05,-3.55942,-2.30116,-0.0256392,-0.277115,0.248152,
2,1,0,1,0,24631.6,0.249997,0.249656,0.275819,13,0.0198886,10,6.88599e-05,-3.55938,-3.14813,-0.0187413,-0.201759,0.249656,
2,1,0,1,0,24631.9,0.251495,0.251196,0.275641,13,0.0199761,10,6.92402e-05,-3.55966,-2.2736,-0.0259501,-0.278852,0.251196,
2,1,0,0,0,24632.2,0.252994,0.25269,0.274939,13,0.0200634,10,6.94742e-05,-3.56076,-1.06916,-0.0551837,-0.592993,0.25269,
2,1,0,0,0,24632.5,0.254492,0.254217,0.274925,13,0.0201505,10,6.98907e-05,-3.56079,-1.24615,-0.0473458,-0.508777,0.254217,
2,1,0,1,0,24632.8,0.255991,0.255679,0.274866,13,0.0202375,10,7.02776e-05,-3.56088,-7.55578,-0.0078086,-0.0838027,0.255679,
2,1,0,1,0,24633.1,0.257488,0.25718,0.27369,13,0.0203244,10,7.03874e-05,-3.56274,-11.3802,-0.00518443,-0.0554573,0.25718,
2,1,0,1,0,24633.4,0.258986,0.258682,0.273918,13,0.0204113,10,7.08577e-05,-3.56238,-2.29411,-0.0257181,-0.274552,0.258682,
2,1,0,1,0,24633.7,0.260485,0.260156,0.273549,13,0.0204981,10,7.11654e-05,-3.56297,-2.35431,-0.0250604,-0.268249,0.2601561,
2,1,0,1,0,24634,0.261983,0.261634,0.273212,13,0.0205846,10,7.14815e-05,-3.5635,-4.67296,-0.0126258,-0.134861,0.261634,
2,1,0,1,0,24634.3,0.263481,0.263187,0.273567,13,0.0206712,10,7.19992e-05,-3.56294,3.20044,0.018435,0.196121,0.263187,
2,1,0,1,0,24634.6,0.26498,0.264669,0.273264,13,0.0207578,10,7.23246e-05,-3.56342,-26.2878,-0.00224439,-0.0238947,0.264669,
2,1,0,1,0,24634.9,0.266477,0.266119,0.272799,13,0.0208442,10,7.25969e-05,-3.56416,-1.34788,-0.0437725,-0.465085,0.266119,
2,1,0,0,0,24635.2,0.267976,0.267671,0.270332,13,0.0209303,10,7.23601e-05,-3.5681,-5.51923,-0.0106899,-0.113523,0.2676712,
2,1,0,0,0,24635.5,0.269474,0.26914,0.271602,13,0.0210163,10,7.30991e-05,-3.56607,-6.70137,-0.00880417,-0.0932204,0.26914,
2,1,0,0,0,24635.8,0.270972,0.270694,0.273025,13,0.0211023,10,7.39063e-05,-3.5638,-3.36432,-0.017537,-0.1855,0.270694,
2,1,0,1,0,24636.1,0.27247,0.272146,0.271801,13,0.0211883,10,7.39695e-05,-3.56575,-3.87669,-0.0152192,-0.160212,0.272146,
2,1,0,1,0,24636.4,0.273968,0.273658,0.269319,13,0.021274,10,7.37013e-05,-3.56973,-2.35944,-0.0250059,-0.263227,0.273658,
2,1,0,1,0,24636.7,0.275466,0.275161,0.270131,13,0.0213594,10,7.43295e-05,-3.56843,-1.31659,-0.0448129,-0.472411,0.275161,
2,1,0,1,0,24637,0.276965,0.276668,0.268982,13,0.0214449,10,7.44186e-05,-3.57028,-4.76837,-0.0123732,-0.130186,0.276668,
2,1,0,1,0,24637.3,0.278463,0.278138,0.268985,13,0.0215302,10,7.4815e-05,-3.57027,-0.969333,-0.0608666,-0.636687,0.278138,
2,1,0,1,0,24637.6,0.279962,0.279625,0.269727,13,0.0216155,10,7.54222e-05,-3.56908,-1.30347,-0.0452639,-0.47492,0.279625,
2,1,0,1,0,24637.9,0.281459,0.281113,0.267418,13,0.0217004,10,7.51746e-05,-3.57281,-2.93926,-0.0200731,-0.21009,0.281113,
2,1,0,1,0,24638.2,0.282957,0.282663,0.267298,13,0.0217853,10,7.55552e-05,-3.573,-1.42176,-0.0414977,-0.43324,0.282663,
2,1,0,0,0,24638.5,0.284456,0.284127,0.267598,13,0.0218702,10,7.60317e-05,-3.57252,-3.68563,-0.0160081,-0.167012,0.284127,
2,1,0,0,0,24638.8,0.285954,0.285676,0.267225,13,0.0219549,10,7.63398e-05,-3.57312,-0.898067,-0.0656966,-0.68403,0.285676,
2,1,0,0,0,24639.1,0.287452,0.28711,0.266345,13,0.0220394,10,7.64701e-05,-3.57456,-2.25676,-0.0261437,-0.271476,0.28711,
2,1,0,1,0,24639.4,0.28895,0.288643,0.266126,13,0.0221238,10,7.68156e-05,-3.57491,3.36996,0.0175076,0.181451,0.288643,
2,1,0,1,0,24639.7,0.290448,0.290182,0.266672,13,0.0222082,10,7.73834e-05,-3.57402,-2.5332,-0.0232907,-0.241936,0.290182,
2,1,0,1,0,24640,0.291947,0.291591,0.266021,13,0.0222925,10,7.75693e-05,-3.57508,-4.11465,-0.014339,-0.149093,0.291591,
2,1,0,1,0,24640.3,0.293445,0.293113,0.264139,13,0.0223766,10,7.74226e-05,-3.57817,-4.89985,-0.0120412,-0.124827,0.293113,
2,1,0,1,0,24640.6,0.294943,0.294627,0.264445,13,0.0224606,10,7.79126e-05,-3.57766,-2.08516,-0.0282952,-0.291933,0.294627,
2,1,0,1,0,24640.9,0.296442,0.296141,0.266174,13,0.0225447,10,7.88251e-05,-3.57483,-11.2304,-0.00525359,-0.0542036,0.296141,
2,1,0,1,0,24641.2,0.297939,0.297661,0.264628,13,0.0226287,10,7.87695e-05,-3.57736,-1.6556,-0.0356366,-0.366531,0.297661,
2,1,0,1,0,24641.5,0.299437,0.29912,0.263519,13,0.0227124,10,7.8824e-05,-3.57919,-0.00249202,-23.6756,-118.707,0.29912,
2,1,0,1,0,24641.6,0.299737,0.299489,0.107853,13,0.0227505,10,3.23009e-05,-3.96717,0.00098647,59.8092,203.697,0.299489,
2,1,0,1,0,24641.9,0.29824,0.29797,0.0228601,13,0.0227603,10,6.81161e-06,-4.64092,0.00155007,38.0628,71.6177,0.29797,
2,1,0,0,0,24642.2,0.296741,0.296426,0.00528474,13,0.0227595,10,1.56653e-06,-5.27698,0.00858212,6.87476,10.3498,0.296426,
2,1,0,0,0,24642.5,0.295243,0.294929,-0.00686465,13,0.0227543,10,-2.02458e-06,-5.16338,-0.0147617,-3.99683,6.79662,0.294929,
2,0,0,1,0,24642.8,0.293744,0.293442,-0.0166616,13,0.0227462,10,-4.88922e-06,-4.77828,-0.00455991,-12.9388,5.72895,0.293442,
2,0,0,1,0,24643.1,0.292246,0.291934,-0.0245838,13,0.0227358,10,-7.17685e-06,-4.60935,-0.0107368,-5.49511,4.6897,0.291934,
2,0,0,1,0,24643.4,0.290749,0.290428,-0.0305407,13,0.0227231,10,-8.86987e-06,-4.51512,-0.015096,-3.90832,4.31108,0.290428,
2,0,0,1,0,24643.7,0.28925,0.288979,-0.0364004,13,0.0227084,10,-1.05189e-05,-4.43889,-0.0230341,-2.56142,3.5631,0.288979,
2,0,0,1,0,24644,0.287752,0.287416,-0.0397543,13,0.0226922,10,-1.1426e-05,-4.40062,-0.0304059,-1.94041,3.1291,0.287416,
2,0,0,1,0,24644.3,0.286253,0.285928,-0.045772,13,0.0226746,10,-1.30875e-05,-4.3394,-0.0361747,-1.63097,2.92446,0.285928,
2,0,0,1,0,24644.6,0.284755,0.284403,-0.0513351,13,0.0226554,10,-1.45999e-05,-4.28959,-0.035004,-1.68552,3.29185,0.284403,
2,0,0,1,0,24644.9,0.283257,0.282959,-0.0561003,13,0.0226349,10,-1.58741e-05,-4.25103,-0.0478716,-1.23246,2.64718,0.282959,
2,0,0,0,0,24645.2,0.281759,0.281445,-0.0592239,13,0.0226131,10,-1.66683e-05,-4.2275,-0.0546661,-1.07928,2.47538,0.281445,
2,0,0,0,0,24645.5,0.280261,0.279979,-0.0613558,13,0.0225902,10,-1.71784e-05,-4.21214,-0.0610313,-0.966718,2.35874,0.279979,
2,0,0,0,0,24645.8,0.278763,0.278479,-0.0662739,13,0.0225662,10,-1.84559e-05,-4.17866,-0.0706091,-0.835586,2.16232,0.278479,
2,0,0,1,0,24646.1,0.277264,0.276956,-0.0695347,13,0.0225411,10,-1.92581e-05,-4.1578,-0.0636883,-0.926387,2.52364,0.276956,
2,0,0,1,0,24646.4,0.275766,0.275448,-0.0724837,13,0.022515,10,-1.99655e-05,-4.13976,-0.0909518,-0.648695,1.84372,0.275448,
2,0,0,1,0,24646.7,0.274269,0.273937,-0.0755024,13,0.0224879,10,-2.06829e-05,-4.12204,-0.088993,-0.662974,1.98411,0.273937,
2,0,0,1,0,24647,0.27277,0.272431,-0.0786096,13,0.02246,10,-2.14157e-05,-4.10452,-0.0878022,-0.671965,2.0936,0.272431,
2,0,0,1,0,24647.3,0.271272,0.270949,-0.0823566,13,0.022431,10,-2.23144e-05,-4.0843,-0.0981187,-0.601312,1.92669,0.270949,
2,0,0,1,0,24647.6,0.269773,0.269458,-0.0857941,13,0.022401,10,-2.31179e-05,-4.06654,-0.104213,-0.566148,1.86271,0.269458,
2,0,0,1,0,24647.9,0.268275,0.267921,-0.0881266,13,0.0223704,10,-2.3611e-05,-4.05489,-0.110601,-0.533448,1.82298,0.267921,
2,0,0,1,0,24648.2,0.266778,0.266471,-0.0905117,13,0.022339,10,-2.41188e-05,-4.0433,-0.122908,-0.480032,1.69201,0.266471,
2,0,0,0,0,24648.5,0.265279,0.264972,-0.0940688,13,0.0223066,10,-2.49256e-05,-4.02655,-0.110941,-0.531814,1.93197,0.264972,
2,0,0,0,0,24648.8,0.263781,0.263509,-0.0965584,13,0.0222735,10,-2.5444e-05,-4.01521,-0.131987,-0.447014,1.67867,0.263509,
2,0,0,1,0,24649.1,0.262282,0.261989,-0.0981253,13,0.0222396,10,-2.57078e-05,-4.00822,-0.145224,-0.406268,1.57156,0.261989,
2,0,0,1,0,24649.4,0.260784,0.260505,-0.0998845,13,0.0222051,10,-2.60204e-05,-4.0005,-0.138596,-0.425698,1.67571,0.260505,
2,0,0,1,0,24649.7,0.259286,0.258961,-0.102563,13,0.0221699,10,-2.65599e-05,-3.98901,-0.136176,-0.433264,1.74268,0.258961,
2,0,0,1,0,24650,0.257788,0.257479,-0.106377,13,0.0221338,10,-2.73898e-05,-3.97315,-0.19748,-0.298764,1.22844,0.257479,
2,0,0,1,0,24650.3,0.25629,0.25597,-0.108536,13,0.0220969,10,-2.77818e-05,-3.96443,-0.189105,-0.311995,1.30799,0.25597,
2,0,0,1,0,24650.6,0.254791,0.254458,-0.108662,13,0.0220596,10,-2.765e-05,-3.96392,-0.185828,-0.317497,1.36044,0.2544581,
2,0,0,1,0,24650.9,0.253293,0.252942,-0.111799,13,0.0220217,10,-2.82787e-05,-3.95156,-0.152063,-0.387998,1.70114,0.252942,
2,0,0,1,0,24651.2,0.251795,0.251498,-0.113731,13,0.021983,10,-2.86032e-05,-3.94412,-0.18362,-0.321315,1.44404,0.251498,
2,0,0,0,0,24651.5,0.250297,0.249994,-0.116604,13,0.0219436,10,-2.91503e-05,-3.93329,-0.270186,-0.218368,0.988396,0.249994,
2,0,0,0,0,24651.8,0.248799,0.248515,-0.118927,13,0.0219036,10,-2.95551e-05,-3.92472,-0.19255,-0.306414,1.41417,0.248515,
2,0,0,0,0,24652.1,0.247301,0.247002,-0.121275,13,0.0218631,10,-2.99553e-05,-3.91623,-0.249851,-0.23614,1.11694,0.2470018,
2,0,0,1,0,24652.4,0.245802,0.245498,-0.123753,13,0.021822,10,-3.03811e-05,-3.90745,-0.259043,-0.227761,1.08622,0.245498,
2,0,0,1,0,24652.7,0.244304,0.243973,-0.12525,13,0.0217801,10,-3.05576e-05,-3.90222,-0.202641,-0.291156,1.40902,0.2439734,
2,0,0,1,0,24653,0.242806,0.242458,-0.126006,13,0.0217377,10,-3.05511e-05,-3.89961,-0.243104,-0.242694,1.19523,0.242458,
2,0,0,1,0,24653.3,0.241308,0.241,-0.128351,13,0.0216949,10,-3.09326e-05,-3.8916,-0.202839,-0.290871,1.45817,0.241,
2,0,0,1,0,24653.6,0.23981,0.239502,-0.130502,13,0.0216515,10,-3.12555e-05,-3.88438,-0.180362,-0.327119,1.66771,0.239502,
2,0,0,1,0,24653.9,0.238311,0.237993,-0.132487,13,0.0216074,10,-3.15309e-05,-3.87783,-0.232335,-0.253944,1.31616,0.237993,
2,0,0,1,0,24654.2,0.236813,0.236438,-0.134473,13,0.0215627,10,-3.17945e-05,-3.87137,-0.25308,-0.233128,1.22222,0.236438,
2,0,0,1,0,24654.5,0.235316,0.235023,-0.134329,13,0.0215176,10,-3.15703e-05,-3.87183,-0.235689,-0.250329,1.32806,0.235023,
2,0,0,0,0,24654.8,0.233817,0.233503,-0.137543,13,0.0214719,10,-3.21166e-05,-3.86156,-0.363912,-0.162127,0.864596,0.233503,
2,0,0,0,0,24655.1,0.232319,0.231992,-0.139803,13,0.0214256,10,-3.24331e-05,-3.85448,-0.333117,-0.177115,0.966067,0.231992,
2,0,0,1,0,24655.4,0.23082,0.23049,-0.141446,13,0.0213788,10,-3.26018e-05,-3.84941,-0.295538,-0.199636,1.09892,0.23049,
2,0,0,1,0,24655.7,0.229322,0.229012,-0.142775,13,0.0213314,10,-3.26972e-05,-3.84535,-0.289802,-0.203587,1.13322,0.229012,
2,0,0,1,0,24656,0.227825,0.227489,-0.144447,13,0.0212837,10,-3.28599e-05,-3.84029,-0.264054,-0.223439,1.26446,0.2274885,
2,0,0,1,0,24656.3,0.226326,0.226048,-0.14581,13,0.0212353,10,-3.296e-05,-3.83621,-0.293879,-0.200763,1.15159,0.226048,
2,0,0,1,0,24656.6,0.224828,0.224497,-0.147828,13,0.0211863,10,-3.31869e-05,-3.83024,-0.52709,-0.111935,0.64337,0.224497,
2,0,0,1,0,24656.9,0.223329,0.222982,-0.150021,13,0.0211369,10,-3.34519e-05,-3.82385,-0.383693,-0.153769,0.898993,0.222982,
2,0,0,1,0,24657.2,0.221831,0.221492,-0.152459,13,0.0210872,10,-3.37684e-05,-3.81685,-0.2945,-0.20034,1.18462,0.221492,
2,0,0,1,0,24657.5,0.220333,0.220044,-0.15357,13,0.0210368,10,-3.37921e-05,-3.81369,-0.288063,-0.204816,1.21781,0.220044,
2,0,0,0,0,24657.8,0.218835,0.21857,-0.155082,13,0.0209857,10,-3.38963e-05,-3.80944,-0.319951,-0.184403,1.11222,0.21857,
2,0,0,0,0,24658.1,0.217337,0.217011,-0.157129,13,0.0209342,10,-3.40987e-05,-3.80374,-0.313691,-0.188083,1.1551,0.217011,
2,0,0,0,0,24658.4,0.215839,0.215539,-0.158161,13,0.0208823,10,-3.40899e-05,-3.8009,-0.286038,-0.206267,1.28222,0.2155395,
2,0,0,1,0,24658.7,0.21434,0.213999,-0.160241,13,0.0208297,10,-3.42914e-05,-3.79523,-0.208798,-0.28257,1.75501,0.213999,
2,0,0,1,0,24659,0.212842,0.212532,-0.161682,13,0.0207765,10,-3.43626e-05,-3.79134,-0.325364,-0.181336,1.14849,0.212532,
2,0,0,1,0,24659.3,0.211344,0.211049,-0.164221,13,0.0207228,10,-3.46586e-05,-3.78457,-0.320223,-0.184247,1.17808,0.211049,
2,0,0,1,0,24659.6,0.209846,0.209552,-0.163221,13,0.0206687,10,-3.42034e-05,-3.78722,-0.313342,-0.188292,1.21801,0.209552,
2,0,0,1,0,24659.9,0.208348,0.208039,-0.167123,13,0.020614,10,-3.47681e-05,-3.77696,-0.237332,-0.248597,1.62433,0.208039,
2,0,0,1,0,24660.2,0.206849,0.206529,-0.171158,13,0.0205585,10,-3.53491e-05,-3.7666,-0.248271,-0.237644,1.56638,0.206529,
2,0,0,1,0,24660.5,0.205351,0.205032,-0.170691,13,0.0205024,10,-3.49972e-05,-3.76779,-0.415743,-0.141915,0.944044,0.205032,
2,0,0,1,0,24660.8,0.203854,0.203516,-0.172661,13,0.020446,10,-3.51393e-05,-3.76281,-0.298234,-0.197831,1.3366,0.203516,
2,0,0,0,0,24661.1,0.202355,0.202069,-0.173867,13,0.0203891,10,-3.51332e-05,-3.75978,-0.298534,-0.197632,1.34783,0.202069,
2,0,0,0,0,24661.4,0.200857,0.200551,-0.176928,13,0.0203314,10,-3.5483e-05,-3.7522,-0.35322,-0.167035,1.14911,0.200551,
2,0,0,1,0,24661.7,0.199358,0.199025,-0.179535,13,0.020273,10,-3.5732e-05,-3.74585,-0.481279,-0.12259,0.85295,0.199025,
2,0,0,1,0,24662,0.19786,0.19753,-0.180725,13,0.0202142,10,-3.56986e-05,-3.74298,-0.316596,-0.186357,1.31557,0.19753,
2,0,0,1,0,24662.3,0.196363,0.196031,-0.182986,13,0.0201549,10,-3.58709e-05,-3.73758,-0.302212,-0.195227,1.38607,0.196031,
2,0,0,1,0,24662.6,0.194864,0.19453,-0.184712,13,0.0200947,10,-3.5932e-05,-3.7335,-0.337677,-0.174723,1.25135,0.19453,
2,0,0,1,0,24662.9,0.193366,0.193033,-0.18709,13,0.0200338,10,-3.61146e-05,-3.72795,-0.307194,-0.192061,1.40362,0.193033,
2,0,0,1,0,24663.2,0.191867,0.191543,-0.188728,13,0.0199725,10,-3.61495e-05,-3.72416,-0.319836,-0.18447,1.36815,0.191543,
2,0,0,1,0,24663.5,0.190369,0.19008,-0.190823,13,0.0199106,10,-3.62717e-05,-3.71937,-0.293844,-0.200787,1.49869,0.19008,
2,0,0,1,0,24663.8,0.188871,0.188543,-0.192099,13,0.0198479,10,-3.62188e-05,-3.71648,-0.271294,-0.217476,1.63782,0.188543,
2,0,0,0,0,24664.1,0.187373,0.187086,-0.195753,13,0.0197845,10,-3.66226e-05,-3.70829,-0.248158,-0.237752,1.8162,0.187086,
2,0,0,0,0,24664.4,0.185875,0.185536,-0.197978,13,0.0197205,10,-3.6732e-05,-3.70338,-0.293001,-0.201365,1.55424,0.185536,
2,0,0,0,0,24664.7,0.184377,0.184052,-0.199951,13,0.0196558,10,-3.68013e-05,-3.69908,-0.353905,-0.166711,1.30194,0.1840518,
2,0,0,1,0,24665,0.182878,0.182571,-0.203083,13,0.0195903,10,-3.70771e-05,-3.69233,-0.221142,-0.266797,2.11625,0.182571,
2,0,0,1,0,24665.3,0.181381,0.181067,-0.207354,13,0.0195238,10,-3.7545e-05,-3.68329,-0.244282,-0.241524,1.94129,0.181067,
2,0,0,1,0,24665.6,0.179882,0.179572,-0.208319,13,0.0194565,10,-3.74082e-05,-3.68127,-0.368367,-0.160166,1.30293,0.179572,
2,0,0,1,0,24665.9,0.178384,0.178037,-0.21171,13,0.0193885,10,-3.76922e-05,-3.67426,-0.297523,-0.198304,1.64124,0.1780372,
2,0,0,1,0,24666.2,0.176886,0.176508,-0.214688,13,0.0193197,10,-3.78942e-05,-3.66819,-0.234597,-0.251495,2.10354,0.176508,
2,0,0,1,0,24666.5,0.175387,0.17506,-0.218101,13,0.0192499,10,-3.81809e-05,-3.66134,-0.246353,-0.239493,2.03487,0.1750603,
2,0,0,1,0,24666.8,0.173889,0.173546,-0.220894,13,0.0191791,10,-3.83354e-05,-3.65582,-0.225622,-0.261499,2.25518,0.173546,
2,0,0,1,0,24667.1,0.172392,0.17203,-0.224586,13,0.0191072,10,-3.86356e-05,-3.64862,-0.197864,-0.298184,2.61426,0.17203,
2,0,0,0,0,24667.4,0.170893,0.170578,-0.229181,13,0.0190344,10,-3.90934e-05,-3.63982,-0.246142,-0.239699,2.13366,0.170578,
2,0,0,0,0,24667.7,0.169395,0.16913,-0.232064,13,0.0189603,10,-3.9249e-05,-3.63439,-0.167529,-0.352179,3.19275,0.16913,
2,0,0,1,0,24668,0.167896,0.167591,-0.236641,13,0.0188849,10,-3.96588e-05,-3.62591,-0.173686,-0.339693,3.13649,0.167591,
2,0,0,1,0,24668.3,0.166398,0.16605,-0.241294,13,0.0188083,10,-4.0067e-05,-3.61745,-0.215735,-0.273484,2.58055,0.16605,
2,0,0,1,0,24668.6,0.164901,0.16455,-0.244581,13,0.0187306,10,-4.02459e-05,-3.61158,-0.188913,-0.312313,2.99774,0.16455,
2,0,0,1,0,24668.9,0.163402,0.163105,-0.250699,13,0.0186512,10,-4.08901e-05,-3.60085,-0.145587,-0.405255,3.96141,0.163105,
2,0,0,1,0,24669.2,0.161904,0.161582,-0.257697,13,0.0185702,10,-4.16391e-05,-3.58889,-0.160696,-0.367152,3.67455,0.1615818,
2,0,0,1,0,24669.5,0.160405,0.160096,-0.262164,13,0.0184875,10,-4.19713e-05,-3.58143,-0.155212,-0.380126,3.88264,0.160096,
2,0,0,1,0,24669.8,0.158907,0.158557,-0.265999,13,0.018403,10,-4.2176e-05,-3.57512,-0.140484,-0.419976,4.40458,0.158557,
2,0,0,1,0,24670.1,0.157409,0.157069,-0.275102,13,0.0183168,10,-4.32101e-05,-3.56051,-0.125061,-0.47177,5.08971,0.157069,
2,0,0,0,0,24670.4,0.155911,0.155618,-0.282888,13,0.018228,10,-4.40224e-05,-3.54839,-0.130444,-0.452301,5.01203,0.155618,
2,0,0,0,0,24670.7,0.154413,0.154048,-0.290625,13,0.0181368,10,-4.477e-05,-3.53667,-0.127105,-0.464183,5.2768,0.154048,
2,0,0,0,0,24671,0.152915,0.152625,-0.301405,13,0.018043,10,-4.60018e-05,-3.52085,-0.107052,-0.551134,6.47859,0.152625,
2,0,0,1,0,24671.3,0.151416,0.151107,-0.311536,13,0.0179464,10,-4.70752e-05,-3.50649,-0.0980329,-0.601839,7.32591,0.151107,
2,0,0,1,0,24671.6,0.149919,0.149588,-0.323372,13,0.0178464,10,-4.83725e-05,-3.4903,-0.0905243,-0.651758,8.19973,0.149588,
2,0,0,1,0,24671.9,0.14842,0.148109,-0.335131,13,0.0177425,10,-4.9636e-05,-3.47479,-0.0841454,-0.701167,9.20983,0.148109,
2,0,0,1,0,24672.2,0.146922,0.146608,-0.349244,13,0.0176346,10,-5.12019e-05,-3.45687,-0.0799132,-0.738301,10.1046,0.146608,
2,0,0,1,0,24672.5,0.145424,0.14509,-0.366385,13,0.0175225,10,-5.31589e-05,-3.43606,-0.075419,-0.782297,11.1952,0.14509,
2,0,0,1,0,24672.8,0.143925,0.143626,-0.382068,13,0.0174053,10,-5.48748e-05,-3.41786,-0.0693951,-0.850204,12.6946,0.143626,
2,0,0,1,0,24673.1,0.142427,0.142101,-0.40092,13,0.0172826,10,-5.69711e-05,-3.39694,-0.0702609,-0.839727,13.1611,0.142101,
2,0,0,1,0,24673.4,0.14093,0.140604,-0.420821,13,0.0171543,10,-5.91691e-05,-3.3759,-0.0735258,-0.802439,13.2087,0.140604,
2,0,0,0,0,24673.7,0.139431,0.139085,-0.438216,13,0.0170201,10,-6.09495e-05,-3.35831,-0.0714843,-0.825356,14.2226,0.139085,
2,0,0,0,0,24674,0.137933,0.137602,-0.462471,13,0.0168797,10,-6.36368e-05,-3.33492,-0.0707837,-0.833525,15.0391,0.137602,
2,0,0,1,0,24674.3,0.136434,0.136109,-0.4863,13,0.0167323,10,-6.61901e-05,-3.3131,-0.0782166,-0.754316,14.2063,0.136109,
2,0,0,1,0,24674.6,0.134936,0.134582,-0.507093,13,0.0165782,10,-6.82455e-05,-3.29491,-0.0847968,-0.695781,13.7062,0.134582,
2,0,0,1,0,24674.9,0.133439,0.133081,-0.526397,13,0.016418,10,-7.00531e-05,-3.27869,-0.0904187,-0.65252,13.4206,0.133081,
2,0,0,1,0,24675.2,0.13194,0.131605,-0.547013,13,0.0162517,10,-7.19898e-05,-3.262,-0.0954279,-0.618268,13.2105,0.131605,
2,0,0,1,0,24675.5,0.130442,0.1301,-0.567274,13,0.0160793,10,-7.38025e-05,-3.24621,-0.107209,-0.550327,12.1433,0.1301,
2,0,0,1,0,24675.8,0.128943,0.128633,-0.584137,13,0.0159011,10,-7.51395e-05,-3.23349,-0.129654,-0.455056,10.3239,0.128633,
2,0,0,1,0,24676.1,0.127445,0.127164,-0.599271,13,0.0157183,10,-7.62056e-05,-3.22238,-0.144308,-0.408847,9.53833,0.127164,
2,0,0,1,0,24676.4,0.125947,0.125616,-0.613964,13,0.0155315,10,-7.71238e-05,-3.21186,-0.164488,-0.358689,8.54243,0.125616,
2,0,0,0,0,24676.7,0.124449,0.124141,-0.624465,13,0.0153407,10,-7.75217e-05,-3.20449,-0.200754,-0.293892,7.12093,0.124141,
2,0,0,0,0,24677,0.122951,0.1226,-0.633023,13,0.0151469,10,-7.76088e-05,-3.19858,-0.273444,-0.215766,5.31499,0.1226002,
2,0,0,0,0,24677.3,0.121453,0.12117,-0.639214,13,0.0149508,10,-7.74533e-05,-3.19435,-0.359427,-0.16415,4.08737,0.12117,
2,0,0,1,0,24677.6,0.119954,0.119612,-0.641756,13,0.0147533,10,-7.67615e-05,-3.19263,-0.586741,-0.100555,2.5281,0.119612,
2,0,0,1,0,24677.9,0.118456,0.118125,-0.647158,13,0.0145544,10,-7.64458e-05,-3.18899,-0.72733,-0.0811186,2.04346,0.118125,
2,0,0,1,0,24678.2,0.116958,0.116595,-0.65056,13,0.0143545,10,-7.58521e-05,-3.18671,-2.30451,-0.025602,0.647829,0.116595,
2,0,0,1,0,24678.5,0.11546,0.115111,-0.648918,13,0.0141545,10,-7.46973e-05,-3.18781,2.11861,0.0278484,-0.70447,0.115111,
2,0,0,1,0,24678.8,0.113962,0.113616,-0.645996,13,0.013955,10,-7.33957e-05,-3.18977,1.3019,0.0453185,-1.14431,0.113616,
2,0,0,1,0,24679.1,0.112463,0.112131,-0.647025,13,0.0137559,10,-7.25513e-05,-3.18908,0.968644,0.0609099,-1.53441,0.112131,
2,0,0,1,0,24679.4,0.110965,0.110626,-0.644273,13,0.0135573,10,-7.12734e-05,-3.19093,1.10484,0.0534013,-1.33937,0.110626,
2,0,0,1,0,24679.7,0.109468,0.109144,-0.640263,13,0.0133595,10,-6.98809e-05,-3.19364,0.600976,0.0981737,-2.44916,0.109144,
2,0,0,0,0,24680,0.107969,0.107639,-0.637462,13,0.0131626,10,-6.86158e-05,-3.19555,0.595745,0.0990357,-2.46843,0.1076389,
2,0,0,0,0,24680.3,0.106471,0.106186,-0.633715,13,0.012967,10,-6.72918e-05,-3.19811,0.775178,0.0761116,-1.88596,0.106186,
2,0,0,1,0,24680.6,0.104972,0.104676,-0.629979,13,0.0127721,10,-6.59435e-05,-3.20067,0.682975,0.0863868,-2.12612,0.104676,
2,0,0,1,0,24680.9,0.103474,0.103183,-0.627445,13,0.012578,10,-6.47417e-05,-3.20242,0.398004,0.14824,-3.61751,0.103183,
2,0,0,1,0,24681.2,0.101977,0.101674,-0.623481,13,0.0123852,10,-6.33915e-05,-3.20518,0.452671,0.130337,-3.16438,0.101674,
2,0,0,1,0,24681.5,0.100478,0.100169,-0.617567,13,0.0121947,10,-6.18613e-05,-3.20932,0.462204,0.127649,-3.08298,0.100169,
2,0,0,1,0,24681.8,0.0989799,0.0986562,-0.614144,13,0.0120048,10,-6.05891e-05,-3.21173,0.688883,0.0856459,-2.04722,0.0986562,
2,0,0,1,0,24682.1,0.0974812,0.0971533,-0.61042,13,0.0118159,10,-5.93043e-05,-3.21437,0.481802,0.122457,-2.91476,0.0971533,
2,0,0,1,0,24682.4,0.0959834,0.0956455,-0.603929,13,0.0116285,10,-5.77631e-05,-3.21901,0.429873,0.13725,-3.2447,0.0956455,
2,0,0,1,0,24682.7,0.0944855,0.0941464,-0.598813,13,0.0114427,10,-5.63761e-05,-3.22271,0.448308,0.131606,-3.08568,0.0941464,
2,0,0,0,0,24683,0.0929871,0.0926861,-0.594136,13,0.0112581,10,-5.50681e-05,-3.22611,0.523084,0.112793,-2.62149,0.0926861,
2,0,0,0,0,24683.3,0.0914889,0.0911867,-0.592189,13,0.0110747,10,-5.39998e-05,-3.22754,0.425402,0.138692,-3.1979,0.0911867,
2,0,0,0,0,24683.6,0.0899907,0.0896576,-0.58748,13,0.0108927,10,-5.26721e-05,-3.23101,0.360318,0.163744,-3.74003,0.0896576,
2,0,0,1,0,24683.9,0.0884923,0.0881495,-0.579266,13,0.0107124,10,-5.1062e-05,-3.23712,0.408654,0.144377,-3.27609,0.08814951,
2,0,0,1,0,24684.2,0.0869946,0.0866548,-0.576704,13,0.0105338,10,-4.99741e-05,-3.23905,0.441205,0.133725,-3.00873,0.0866548,
2,0,0,1,0,24684.5,0.0854962,0.0851859,-0.57176,13,0.0103563,10,-4.87058e-05,-3.24279,0.465025,0.126875,-2.83411,0.0851859,
2,0,0,1,0,24684.8,0.083998,0.0836631,-0.567988,13,0.0101802,10,-4.75196e-05,-3.24566,0.359958,0.163908,-3.62966,0.0836631,
2,0,0,1,0,24685.1,0.0824998,0.0821807,-0.563516,13,0.0100054,10,-4.63101e-05,-3.24909,0.422093,0.13978,-3.0732,0.0821807,
2,0,0,1,0,24685.4,0.0810014,0.0806914,-0.559004,13,0.00983218,10,-4.51068e-05,-3.25259,0.526686,0.112021,-2.44878,0.0806914,
2,0,0,1,0,24685.7,0.0795035,0.0792073,-0.555748,13,0.0096601,10,-4.40193e-05,-3.25512,0.475106,0.124183,-2.6896,0.0792073,
2,0,0,1,0,24686,0.0780056,0.0776477,-0.552148,13,0.00948898,10,-4.2873e-05,-3.25794,0.479813,0.122965,-2.64311,0.0776477,
2,0,0,0,0,24686.3,0.076507,0.0761989,-0.548134,13,0.00931921,10,-4.17672e-05,-3.26111,0.430714,0.136982,-2.92509,0.0761989,
2,0,0,0,0,24686.6,0.0750088,0.0747451,-0.541915,13,0.00915108,10,-4.05055e-05,-3.26607,0.460425,0.128142,-2.71409,0.0747451,
2,0,0,1,0,24686.9,0.0735103,0.0731807,-0.540171,13,0.00898374,10,-3.95301e-05,-3.26747,0.740145,0.0797141,-1.67493,0.0731807,
2,0,0,1,0,24687.2,0.0720124,0.0716868,-0.535492,13,0.00881741,10,-3.83877e-05,-3.27125,0.561606,0.105056,-2.19957,0.0716868,
2,0,0,1,0,24687.5,0.0705146,0.0701146,-0.532519,13,0.00865234,10,-3.73374e-05,-3.27366,0.502294,0.117461,-2.44437,0.07011459,
2,0,0,1,0,24687.8,0.0690161,0.0686849,-0.527305,13,0.00848842,10,-3.62179e-05,-3.27794,0.591077,0.0998177,-2.06336,0.0686849,
2,0,0,1,0,24688.1,0.0675179,0.067212,-0.525656,13,0.00832555,10,-3.53304e-05,-3.2793,0.780989,0.0755452,-1.55105,0.067212,
2,0,0,1,0,24688.4,0.0660192,0.0656802,-0.524502,13,0.00816337,10,-3.44494e-05,-3.28025,0.650922,0.0906406,-1.84581,0.0656802,
2,0,0,1,0,24688.7,0.0645214,0.0641939,-0.519327,13,0.00800205,10,-3.33376e-05,-3.28456,0.586883,0.100531,-2.03822,0.0641939,
2,0,0,1,0,24689,0.0630235,0.0627532,-0.512963,13,0.00784209,10,-3.21901e-05,-3.28991,0.509162,0.115877,-2.33314,0.0627532,
2,0,0,0,0,24689.3,0.0615251,0.0612111,-0.513061,13,0.0076832,10,-3.1405e-05,-3.28983,0.626157,0.0942255,-1.88662,0.0612111,
2,0,0,0,0,24689.6,0.0600269,0.0597022,-0.50992,13,0.00752507,10,-3.04433e-05,-3.2925,0.525353,0.112305,-2.23479,0.0597022,
2,0,0,0,0,24689.9,0.0585287,0.0581932,-0.505274,13,0.00736799,10,-2.94035e-05,-3.29647,0.410444,0.143747,-2.83314,0.0581932,
2,0,0,1,0,24690.2,0.0570303,0.0567127,-0.502629,13,0.00721178,10,-2.85055e-05,-3.29875,0.478796,0.123226,-2.41638,0.0567127,
2,0,0,1,0,24690.5,0.0555325,0.0552177,-0.498724,13,0.00705715,10,-2.75384e-05,-3.30214,0.49696,0.118722,-2.31248,0.0552177,
2,0,0,1,0,24690.8,0.0540342,0.0537088,-0.49601,13,0.00690316,10,-2.66401e-05,-3.30451,0.541447,0.108967,-2.10493,0.0537088,
2,0,0,1,0,24691.1,0.052536,0.0522019,-0.493096,13,0.00674997,10,-2.57406e-05,-3.30707,0.47468,0.124294,-2.38557,0.0522019,
2,0,0,1,0,24691.4,0.0510378,0.0507184,-0.488417,13,0.00659787,10,-2.47718e-05,-3.31121,0.437228,0.134941,-2.57357,0.0507184,
2,0,0,1,0,24691.7,0.0495394,0.0492472,-0.484567,13,0.00644723,10,-2.38636e-05,-3.31465,0.52461,0.112464,-2.13095,0.0492472,
2,0,0,1,0,24692,0.0480415,0.047708,-0.48167,13,0.0062974,10,-2.29795e-05,-3.31725,0.95738,0.0616266,-1.15572,0.047708,
2,0,0,1,0,24692.3,0.0465436,0.0462492,-0.47701,13,0.00614852,10,-2.20613e-05,-3.32147,0.510301,0.115618,-2.16138,0.0462492,
2,0,0,0,0,24692.6,0.045045,0.0447441,-0.474815,13,0.00600049,10,-2.12452e-05,-3.32348,0.402697,0.146512,-2.71463,0.0447441,
2,0,0,0,0,24692.9,0.0435468,0.043233,-0.469629,13,0.00585371,10,-2.03035e-05,-3.32824,0.429788,0.137277,-2.52238,0.043233,
2,0,0,1,0,24693.2,0.0420483,0.0416813,-0.46789,13,0.00570802,10,-1.95023e-05,-3.32986,0.471707,0.125078,-2.28193,0.0416813,
2,0,0,1,0,24693.5,0.0405504,0.0402173,-0.465515,13,0.00556326,10,-1.87218e-05,-3.33207,0.43485,0.135679,-2.45783,0.0402173,
2,0,0,1,0,24693.8,0.0390526,0.0387296,-0.461065,13,0.00541936,10,-1.78569e-05,-3.33624,0.3844,0.153486,-2.7567,0.0387296,
2,0,0,1,0,24694.1,0.0375541,0.0372014,-0.455635,13,0.00527686,10,-1.69503e-05,-3.34138,0.395947,0.14901,-2.66497,0.0372014,
2,0,0,1,0,24694.4,0.0360559,0.035719,-0.453524,13,0.00513559,10,-1.61994e-05,-3.3434,0.514766,0.114615,-2.03093,0.035719,
2,0,0,1,0,24694.7,0.0345572,0.0341916,-0.448874,13,0.00499508,10,-1.53477e-05,-3.34788,0.540822,0.109093,-1.91733,0.0341916,
2,0,0,1,0,24695,0.0330594,0.0327592,-0.447028,13,0.00485556,10,-1.46443e-05,-3.34967,0.440574,0.133916,-2.32915,0.0327592,
2,0,0,1,0,24695.3,0.0315615,0.0312461,-0.444082,13,0.00471708,10,-1.38758e-05,-3.35254,0.45565,0.129485,-2.24048,0.03124612,
2,0,0,0,0,24695.6,0.0300631,0.0297605,-0.439109,13,0.00458,10,-1.30681e-05,-3.35743,0.563348,0.104731,-1.79929,0.0297605,
2,0,0,0,0,24695.9,0.0285649,0.0282261,-0.437101,13,0.00444351,10,-1.23377e-05,-3.35942,0.808864,0.0729418,-1.24384,0.0282261,
2,0,0,0,0,24696.2,0.0270667,0.0267511,-0.435036,13,0.00430775,10,-1.16377e-05,-3.36147,0.49254,0.119787,-2.03091,0.0267511,
2,0,0,1,0,24696.5,0.0255683,0.0252482,-0.432383,13,0.00417285,10,-1.09169e-05,-3.36413,0.494377,0.119342,-2.01014,0.0252482,
2,0,0,1,0,24696.8,0.0240706,0.0237547,-0.426523,13,0.00403928,10,-1.01319e-05,-3.37006,0.710285,0.0830652,-1.39179,0.0237547,
2,0,0,1,0,24697.1,0.0225722,0.0222804,-0.426582,13,0.0039063,10,-9.50444e-06,-3.37,0.761002,0.0775294,-1.28564,0.0222804,
2,0,0,1,0,24697.4,0.021074,0.0207736,-0.424436,13,0.00377394,10,-8.81705e-06,-3.37219,0.562923,0.10481,-1.73423,0.0207736,
2,0,0,1,0,24697.7,0.0195758,0.0192508,-0.421434,13,0.00364242,10,-8.11296e-06,-3.37527,0.542883,0.108679,-1.78911,0.0192508,
2,0,0,1,0,24698,0.0180774,0.0177619,-0.418001,13,0.00351158,10,-7.4245e-06,-3.37882,0.818266,0.0721037,-1.18102,0.0177619,
2,0,0,1,0,24698.3,0.0165795,0.0163062,-0.417015,13,0.00338138,10,-6.79992e-06,-3.37985,1.09902,0.0536841,-0.876498,0.0163062,
2,0,0,1,0,24698.6,0.0150817,0.0147285,-0.418385,13,0.00325149,10,-6.16219e-06,-3.37842,0.967716,0.0609683,-0.992862,0.0147285,
2,0,0,0,0,24698.9,0.013583,0.0132224,-0.415606,13,0.00312178,10,-5.49533e-06,-3.38132,0.565567,0.10432,-1.68628,0.0132224,
2,0,0,0,0,24699.2,0.0120848,0.0117877,-0.413335,13,0.00299292,10,-4.87227e-06,-3.3837,0.941245,0.0626829,-1.01405,0.0117877,
2,0,0,1,0,24699.5,0.0105863,0.0102424,-0.412352,13,0.00286438,10,-4.22347e-06,-3.38473,8.34509,0.00707002,-0.113971,0.0102424,
2,0,0,1,0,24699.8,0.00908846,0.00878568,-0.412387,13,0.00273581,10,-3.6231e-06,-3.3847,1.73592,0.0339878,-0.548046,0.00878568,
2,0,0,1,0,24700.1,0.0075906,0.0072771,-0.411487,13,0.00260741,10,-2.99444e-06,-3.38564,2.171,0.0271764,-0.437253,0.0072771,
2,0,0,1,0,24700.4,0.00609208,0.00579004,-0.412905,13,0.00247899,10,-2.39074e-06,-3.38415,-10.8947,-0.00541545,0.0870465,0.00579004,
2,0,0,1,0,24700.7,0.00459389,0.00427472,-0.41212,13,0.00235078,10,-1.7617e-06,-3.38498,-3.45137,-0.0170946,0.275217,0.00427472,
2,0,0,1,0,24701,0.00309525,0.00280361,-0.412513,13,0.00222228,10,-1.15653e-06,-3.38456,-1.29783,-0.0454605,0.732936,0.00280361,
2,0,0,1,0,24701.3,0.00159739,0.0012334,-0.417334,13,0.00209168,10,-5.14738e-07,-3.37952, , , ,0.0012334,
2,0,0,0,0,24701.5,0.000199195,-0.000142085,-0.414524,13,0.00197093,10,5.88978e-08,-3.38245, , , ,-0.000142085,