File: Figure_codes/Fig_3-5/rawdata_trumpetplot_data/after 10th/20221101_1-115_003_TrumpetPlot_ParaChange_from10_every3_04_CV_C01_10.csv
mode,ox/red,error,control changes,counter inc.,time/s,control/V,Ewe/V,<I>/mA,cycle number,(Q-Qo)/C,I Range,P/W,log(|I|),Tafel slope mV/dec,alpha_eff,dI/d(E-IR),E-IR/V,
2,0,0,1,0,20761.3,2.44065e-05,-0.000344411,-0.394513,11,0.0000000E+000,10,1.35875e-07,-3.40394, , , ,-0.000344411,
2,1,0,1,0,20761.4,0.00129787,0.00093656,0.156939,11,9.8649e-07,10,1.46982e-07,-3.80427, , , ,0.00093656,
2,1,0,1,0,20761.6,0.00279606,0.00246885,0.280173,11,3.81376e-05,10,6.91704e-07,-3.55257,0.00566471,10.4154,64.6223,0.00246885,
2,1,0,1,0,20761.7,0.00429425,0.00399795,0.314492,11,8.51252e-05,10,1.25732e-06,-3.50239,0.0310906,1.89768,22.4502,0.00399795,
2,1,0,1,0,20761.9,0.00579244,0.00545813,0.338378,11,0.000136626,10,1.84692e-06,-3.4706,0.0459035,1.28531,16.8054,0.00545813,
2,1,0,1,0,20762,0.00729063,0.00700845,0.363996,11,0.000191764,10,2.55105e-06,-3.4389,0.0598451,0.985878,13.8112,0.00700845,
2,1,0,1,0,20762.2,0.00878882,0.00847817,0.380789,11,0.000250079,10,3.2284e-06,-3.41932,0.0759148,0.777187,11.4841,0.00847817,
2,1,0,1,0,20762.3,0.010287,0.00999667,0.398566,11,0.000311001,10,3.98433e-06,-3.3995,0.097881,0.602773,9.28205,0.009996674,
2,1,0,1,0,20762.5,0.0117852,0.0115078,0.412207,11,0.000374215,10,4.74358e-06,-3.38488,0.0952766,0.61925,9.93651,0.0115078,
2,1,0,1,0,20762.6,0.0132838,0.0129462,0.427055,11,0.000439413,10,5.52875e-06,-3.36952,0.102671,0.574654,9.59879,0.0129462,
2,1,0,1,0,20762.8,0.0147814,0.0144821,0.440128,11,0.000506731,10,6.37398e-06,-3.35642,0.122105,0.48319,8.28824,0.0144821,
2,1,0,1,0,20762.9,0.0162789,0.0159841,0.451732,11,0.000576167,10,7.22056e-06,-3.34512,0.130187,0.453195,7.97063,0.01598415,
2,1,0,1,0,20763.1,0.017778,0.017446,0.462752,11,0.000647293,10,8.07319e-06,-3.33465,0.137778,0.428224,7.73756,0.01744603,
2,1,0,1,0,20763.2,0.0192761,0.0189221,0.476551,11,0.000719901,10,9.01734e-06,-3.32189,0.148336,0.397747,7.37077,0.0189221,
2,1,0,1,0,20763.4,0.0207743,0.0204735,0.485743,11,0.000794304,10,9.94487e-06,-3.31359,0.14792,0.398863,7.5378,0.0204735,
2,1,0,1,0,20763.5,0.0222725,0.0219591,0.498794,11,0.000870482,10,1.09531e-05,-3.30208,0.138659,0.425505,8.26007,0.02195912,
2,1,0,1,0,20763.7,0.0237707,0.0234532,0.507495,11,0.000948341,10,1.19024e-05,-3.29457,0.15999,0.368772,7.31501,0.0234532,
2,1,0,1,0,20763.8,0.0252689,0.0249961,0.519091,11,0.00102769,10,1.29753e-05,-3.28476,0.16818,0.350815,7.13554,0.0249961,
2,1,0,1,0,20764,0.0267671,0.0264711,0.530699,11,0.00110873,10,1.40482e-05,-3.27515,0.14282,0.413107,8.55,0.0264711,
2,1,0,1,0,20764.1,0.0282662,0.0279341,0.54314,11,0.00119153,10,1.51721e-05,-3.26509,0.164689,0.358252,7.57232,0.0279341,
2,1,0,1,0,20764.3,0.0297635,0.0294234,0.551856,11,0.00127591,10,1.62375e-05,-3.25817,0.189795,0.310862,6.68649,0.0294234,
2,1,0,1,0,20764.4,0.031261,0.0309449,0.559311,11,0.00136173,10,1.73078e-05,-3.25235,0.169408,0.348271,7.65074,0.03094486,
2,1,0,1,0,20764.6,0.0327599,0.0324381,0.573107,11,0.00144914,10,1.85905e-05,-3.24176,0.178898,0.329797,7.38173,0.0324381,
2,1,0,1,0,20764.7,0.034258,0.0339725,0.584069,11,0.00153827,10,1.98423e-05,-3.23354,0.187879,0.314033,7.1708,0.0339725,
2,1,0,1,0,20764.9,0.0357562,0.035474,0.593139,11,0.00162907,10,2.1041e-05,-3.22684,0.225556,0.261576,6.0487,0.035474,
2,1,0,1,0,20765,0.0372544,0.0369458,0.604422,11,0.00172144,10,2.23309e-05,-3.21866,0.217002,0.271887,6.42584,0.0369458,
2,1,0,1,0,20765.2,0.0387526,0.0384993,0.614181,11,0.00181513,10,2.36456e-05,-3.2117,0.195657,0.301548,7.26119,0.03849934,
2,1,0,1,0,20765.3,0.0402508,0.0398747,0.626848,11,0.00191058,10,2.49954e-05,-3.20284,0.190281,0.310067,7.57937,0.0398747,
2,1,0,1,0,20765.5,0.041749,0.0414579,0.639828,11,0.00200796,10,2.65259e-05,-3.19394,0.230071,0.256443,6.3658,0.0414579,
2,1,0,1,0,20765.6,0.0432472,0.0429085,0.650213,11,0.00210675,10,2.78997e-05,-3.18694,0.227672,0.259144,6.55073,0.0429085,
2,1,0,1,0,20765.8,0.0447458,0.0444422,0.655867,11,0.00220685,10,2.91482e-05,-3.18318,0.211922,0.278404,7.13825,0.0444422,
2,1,0,1,0,20765.9,0.0462433,0.045959,0.668633,11,0.00230854,10,3.07297e-05,-3.17481,0.207175,0.284784,7.39883,0.045959,
2,1,0,1,0,20766.1,0.0477409,0.0474366,0.677724,11,0.00241179,10,3.21489e-05,-3.16895,0.249981,0.236018,6.23846,0.04743664,
2,1,0,1,0,20766.2,0.0492399,0.0489295,0.685849,11,0.00251641,10,3.35583e-05,-3.16377,0.287395,0.205292,5.49215,0.0489295,
2,1,0,1,0,20766.4,0.0507381,0.0504003,0.692545,11,0.00262219,10,3.49045e-05,-3.15955,0.250952,0.235104,6.37702,0.0504003,
2,1,0,1,0,20766.5,0.0522363,0.0519188,0.702189,11,0.00272928,10,3.64568e-05,-3.15355,0.22628,0.260739,7.15199,0.0519188,
2,1,0,1,0,20766.7,0.0537345,0.0534203,0.715274,11,0.00283798,10,3.82102e-05,-3.14553,0.266935,0.221028,6.15268,0.0534203,
2,1,0,1,0,20766.8,0.0552327,0.054942,0.723381,11,0.00294815,10,3.9744e-05,-3.14063,0.331884,0.177773,4.99834,0.054942,
2,1,0,1,0,20767,0.0567309,0.0563842,0.728033,11,0.00305952,10,4.10495e-05,-3.13785,0.324908,0.18159,5.174,0.0563842,
2,1,0,1,0,20767.1,0.0582291,0.0578921,0.739691,11,0.00317194,10,4.28222e-05,-3.13095,0.286594,0.205866,5.94237,0.0578921,
2,1,0,1,0,20767.3,0.0597282,0.05937,0.74868,11,0.0032859,10,4.44491e-05,-3.1257,0.289854,0.203551,5.95031,0.05937,
2,1,0,1,0,20767.4,0.0612255,0.0608685,0.756586,11,0.0034012,10,4.60523e-05,-3.12114,0.355716,0.165863,4.87877,0.0608685,
2,1,0,1,0,20767.6,0.062723,0.0624694,0.762873,11,0.00351771,10,4.76562e-05,-3.11755,0.304852,0.193536,5.78469,0.0624694,
2,1,0,1,0,20767.7,0.0642218,0.0639512,0.770265,11,0.00363514,10,4.92594e-05,-3.11336,0.290702,0.202957,6.12714,0.0639512,
2,1,0,1,0,20767.9,0.06572,0.065422,0.779355,11,0.00375391,10,5.09869e-05,-3.10826,0.312545,0.188773,5.74265,0.065422,
2,1,0,1,0,20768,0.0672182,0.0669267,0.788657,11,0.00387398,10,5.27822e-05,-3.10311,0.402486,0.146589,4.50092,0.0669267,
2,1,0,1,0,20768.2,0.0687164,0.0683996,0.795877,11,0.00399503,10,5.44377e-05,-3.09915,0.461181,0.127932,3.96283,0.0683996,
2,1,0,1,0,20768.3,0.0702146,0.0699213,0.799937,11,0.00411679,10,5.59327e-05,-3.09694,0.438433,0.13457,4.20855,0.0699213,
2,1,0,1,0,20768.5,0.0717128,0.0714154,0.807761,11,0.00423972,10,5.76866e-05,-3.09272,0.368122,0.160273,5.0468,0.0714154,
2,1,0,1,0,20768.6,0.073211,0.0728692,0.814233,11,0.00436367,10,5.93326e-05,-3.08925,0.446697,0.132081,4.19735,0.0728692,
2,1,0,1,0,20768.8,0.0747092,0.0743899,0.821293,11,0.00448857,10,6.10959e-05,-3.0855,0.480849,0.1227,3.92779,0.07438986,
2,1,0,1,0,20768.9,0.0762078,0.0758641,0.822016,11,0.00461422,10,6.23615e-05,-3.08512,0.534861,0.110309,3.55793,0.0758641,
2,1,0,1,0,20769.1,0.0777053,0.0774137,0.831864,11,0.00474069,10,6.43977e-05,-3.07995,0.392743,0.150225,4.87526,0.0774137,
2,1,0,1,0,20769.2,0.0792029,0.0788955,0.83942,11,0.00486818,10,6.62265e-05,-3.07602,0.499266,0.118174,3.85646,0.0788955,
2,1,0,1,0,20769.4,0.0807019,0.080396,0.842984,11,0.00499682,10,6.77726e-05,-3.07418,0.495771,0.119007,3.91209,0.080396,
2,1,0,1,0,20769.5,0.0822001,0.0819516,0.846153,11,0.00512606,10,6.93436e-05,-3.07255,0.503561,0.117166,3.88125,0.0819516,
2,1,0,1,0,20769.7,0.0836983,0.0833779,0.854359,11,0.0052561,10,7.12347e-05,-3.06836,0.483429,0.122045,4.0861,0.0833779,
2,1,0,1,0,20769.8,0.0851965,0.0848985,0.862448,11,0.00538735,10,7.32205e-05,-3.06427,0.447349,0.131888,4.44163,0.0848985,
2,1,0,1,0,20770,0.0866947,0.0863406,0.871285,11,0.00551984,10,7.52273e-05,-3.05984,0.519011,0.113678,3.86155,0.0863406,
2,1,0,1,0,20770.1,0.0881929,0.0878432,0.879132,11,0.0056534,10,7.72258e-05,-3.05595,0.370435,0.159272,5.46353,0.0878432,
2,1,0,1,0,20770.3,0.0896911,0.0893628,0.887442,11,0.00578806,10,7.93043e-05,-3.05186,0.293912,0.20074,6.97005,0.0893628,
2,1,0,1,0,20770.4,0.0911902,0.0908758,0.899264,11,0.00592439,10,8.17214e-05,-3.04611,0.26245,0.224805,7.88292,0.0908758,
2,1,0,1,0,20770.6,0.0926875,0.092401,0.911693,11,0.00606249,10,8.42413e-05,-3.04015,0.245325,0.240497,8.54297,0.092401,
2,1,0,1,0,20770.7,0.094185,0.0938432,0.922434,11,0.00620231,10,8.65641e-05,-3.03506,0.246395,0.239453,8.6299,0.0938432,
2,1,0,1,0,20770.9,0.0956838,0.0953509,0.934184,11,0.0063438,10,8.90753e-05,-3.02957,0.24337,0.242429,8.86158,0.0953509,
2,1,0,1,0,20771,0.097182,0.096844,0.948442,11,0.00648736,10,9.18509e-05,-3.02299,0.194959,0.302628,11.2095,0.096844,
2,1,0,1,0,20771.2,0.0986802,0.0983678,0.965479,11,0.00663331,10,9.49721e-05,-3.01526,0.198789,0.296797,11.1959,0.0983678,
2,1,0,1,0,20771.3,0.100178,0.0998598,0.98206,11,0.00678184,10,9.80683e-05,-3.00786,0.209986,0.280971,10.763,0.0998598,
2,1,0,1,0,20771.5,0.101677,0.10135,0.995882,11,0.00693277,10,0.000100932,-3.00179,0.203228,0.290314,11.3338,0.10135,
2,1,0,1,0,20771.6,0.103175,0.102868,1.01772,11,0.0070862,10,0.000104691,-2.99237,0.196988,0.299511,11.9076,0.102868,
2,1,0,1,0,20771.8,0.104673,0.104322,1.03834,11,0.00724245,10,0.000108321,-2.98366,0.205103,0.28766,11.6164,0.104322,
2,1,0,1,0,20771.9,0.106171,0.105846,1.05436,11,0.00740156,10,0.000111599,-2.97701,0.237913,0.24799,10.1663,0.105846,
2,1,0,1,0,20772.1,0.10767,0.107346,1.06912,11,0.00756307,10,0.000114766,-2.97097,0.238161,0.247731,10.3368,0.1073465,
2,1,0,1,0,20772.2,0.109167,0.108866,1.08372,11,0.00772676,10,0.000117981,-2.96508,0.230326,0.256159,10.8581,0.108866,
2,1,0,1,0,20772.4,0.110665,0.1103,1.0987,11,0.00789283,10,0.000121186,-2.95912,0.258434,0.228298,9.79633,0.1103,
2,1,0,1,0,20772.5,0.112164,0.111873,1.11377,11,0.00806153,10,0.000124601,-2.9532,0.275982,0.213782,9.27877,0.111873,
2,1,0,1,0,20772.7,0.113662,0.113336,1.12795,11,0.00823207,10,0.000127838,-2.94771,0.328204,0.179766,7.89938,0.113336,
2,1,0,1,0,20772.8,0.11516,0.114853,1.13904,11,0.00840424,10,0.000130822,-2.94346,0.366532,0.160968,7.14718,0.114853,
2,1,0,1,0,20773,0.116658,0.116328,1.14974,11,0.00857825,10,0.000133747,-2.9394,0.358674,0.164495,7.36724,0.116328,
2,1,0,1,0,20773.1,0.118157,0.117845,1.16276,11,0.0087541,10,0.000137025,-2.93451,0.428737,0.137613,6.22773,0.117845,
2,1,0,1,0,20773.3,0.119655,0.119327,1.16965,11,0.00893121,10,0.00013957,-2.93195,0.617459,0.0955528,4.362,0.119327,
2,1,0,1,0,20773.4,0.121153,0.12086,1.17533,11,0.00910932,10,0.000142051,-2.92984,0.44105,0.133772,6.15692,0.12086,
2,1,0,1,0,20773.6,0.122652,0.122337,1.18636,11,0.0092889,10,0.000145136,-2.92578,0.377533,0.156278,7.23674,0.122337,
2,1,0,1,0,20773.7,0.124149,0.123865,1.19595,11,0.00946996,10,0.000148136,-2.92229,0.422809,0.139543,6.52053,0.123865,
2,1,0,1,0,20773.9,0.125647,0.125301,1.20557,11,0.00965252,10,0.000151059,-2.91881,0.476752,0.123754,5.82138,0.125301,
2,1,0,1,0,20774,0.127146,0.126882,1.21074,11,0.00983648,10,0.000153621,-2.91695,0.529258,0.111477,5.28276,0.126882,
2,1,0,1,0,20774.2,0.128644,0.128357,1.22206,11,0.0100214,10,0.00015686,-2.91291,0.52418,0.112557,5.37173,0.128357,
2,1,0,1,0,20774.3,0.130142,0.129837,1.23243,11,0.0102078,10,0.000160016,-2.90924,0.650882,0.0906463,4.34734,0.129837,
2,1,0,1,0,20774.5,0.13164,0.131298,1.23744,11,0.0103954,10,0.000162473,-2.90748,2.06257,0.0286051,1.37446,0.131298,
2,1,0,1,0,20774.6,0.133139,0.132779,1.23775,11,0.0105835,10,0.000164348,-2.90737,-2.52399,-0.0233757,-1.1281,0.132779,
2,1,0,1,0,20774.8,0.134637,0.134333,1.23534,11,0.0107712,10,0.000165947,-2.90821,-1.01502,-0.0581268,-2.79802,0.134333,
2,1,0,1,0,20774.9,0.136135,0.135819,1.23143,11,0.0109586,10,0.000167252,-2.90959,-0.446064,-0.132268,-6.32412,0.135819,
2,1,0,1,0,20775.1,0.137633,0.137318,1.2194,11,0.0111446,10,0.000167445,-2.91385,-0.257059,-0.229519,-10.8536,0.137318,
2,1,0,1,0,20775.2,0.139132,0.13882,1.2012,11,0.0113284,10,0.000166751,-2.92038,-0.188467,-0.313051,-14.5796,0.13882,
2,1,0,1,0,20775.4,0.140629,0.140331,1.17355,11,0.0115084,10,0.000164685,-2.9305,-0.146093,-0.403854,-18.3988,0.140331,
2,1,0,1,0,20775.5,0.142127,0.141765,1.14316,11,0.0116845,10,0.000162061,-2.94189,-0.121908,-0.483972,-21.4752,0.141765,
2,1,0,1,0,20775.7,0.143626,0.143341,1.10789,11,0.0118558,10,0.000158806,-2.9555,-0.100339,-0.588004,-25.2778,0.143341,
2,1,0,1,0,20775.8,0.145124,0.144815,1.06514,11,0.0120211,10,0.000154248,-2.97259,-0.0832744,-0.708501,-29.4086,0.144815,
2,1,0,1,0,20776,0.146622,0.146255,1.01806,11,0.0121796,10,0.000148897,-2.99222,-0.0779061,-0.757322,-30.1062,0.146255,
2,1,0,1,0,20776.1,0.14812,0.147767,0.975962,11,0.0123315,10,0.000144215,-3.01057,-0.0755398,-0.781045,-29.6921,0.147767,
2,1,0,1,0,20776.3,0.149619,0.149284,0.930027,11,0.0124766,10,0.000138838,-3.0315,-0.0718477,-0.821182,-29.8019,0.149284,
2,1,0,1,0,20776.4,0.151117,0.150809,0.887118,11,0.0126151,10,0.000133785,-3.05202,-0.0714755,-0.825458,-28.5703,0.150809,
2,1,0,1,0,20776.6,0.152615,0.152293,0.843476,11,0.0127472,10,0.000128455,-3.07393,-0.0757674,-0.778699,-25.7758,0.152293,
2,1,0,1,0,20776.7,0.154114,0.153786,0.810965,11,0.0128734,10,0.000124715,-3.091,-0.0842138,-0.700598,-22.2614,0.153786,
2,1,0,1,0,20776.9,0.155612,0.15528,0.778203,11,0.0129946,10,0.00012084,-3.10891,-0.0889722,-0.663128,-20.1827,0.1552802,
2,1,0,1,0,20777,0.157109,0.15675,0.74852,11,0.0131115,10,0.00011733,-3.1258,-0.0941764,-0.626484,-18.3536,0.15675,
2,1,0,1,0,20777.2,0.158608,0.15829,0.724046,11,0.0132243,10,0.00011461,-3.14023,-0.110734,-0.532808,-15.1408,0.15829,
2,1,0,1,0,20777.3,0.160106,0.159793,0.70137,11,0.0133333,10,0.000112074,-3.15405,-0.1261,-0.467883,-12.8807,0.159793,
2,1,0,1,0,20777.5,0.161604,0.161268,0.684065,11,0.0134395,10,0.000110318,-3.1649,-0.145143,-0.406496,-10.9028,0.161268,
2,1,0,1,0,20777.6,0.163102,0.162799,0.670528,11,0.0135433,10,0.000109161,-3.17358,-0.15427,-0.382447,-9.98485,0.162799,
2,1,0,1,0,20777.8,0.164601,0.164283,0.656418,11,0.013645,10,0.000107838,-3.18282,-0.168651,-0.349835,-8.95441,0.164283,
2,1,0,1,0,20777.9,0.166099,0.165782,0.642537,11,0.0137444,10,0.000106521,-3.1921,-0.19407,-0.304014,-7.64388,0.165782,
2,1,0,1,0,20778.1,0.167597,0.167269,0.631719,11,0.0138423,10,0.000105667,-3.19948,-0.248574,-0.237354,-5.86003,0.167269,
2,1,0,1,0,20778.2,0.169095,0.168795,0.623051,11,0.0139388,10,0.000105168,-3.20548,-0.245488,-0.240338,-5.85201,0.168795,
2,1,0,1,0,20778.4,0.170594,0.170277,0.614211,11,0.0140341,10,0.000104586,-3.21168,-0.240975,-0.244839,-5.87551,0.170277,
2,1,0,1,0,20778.5,0.172091,0.171816,0.605025,11,0.0141278,10,0.000103953,-3.21823,-0.328396,-0.179661,-4.25944,0.171816,
2,1,0,1,0,20778.7,0.173589,0.173288,0.600003,11,0.0142205,10,0.000103973,-3.22185,-0.409912,-0.143933,-3.37023,0.173288,
2,1,0,1,0,20778.8,0.175088,0.174768,0.59386,11,0.0143124,10,0.000103788,-3.22632,-0.374369,-0.157598,-3.65044,0.174768,
2,1,0,1,0,20779,0.176586,0.176268,0.588645,11,0.0144034,10,0.00010376,-3.23015,-0.332069,-0.177674,-4.07353,0.176268,
2,1,0,1,0,20779.1,0.178084,0.177779,0.582176,11,0.0144935,10,0.000103499,-3.23495,-0.385195,-0.153169,-3.48779,0.177779,
2,1,0,1,0,20779.3,0.179582,0.179271,0.578816,11,0.0145828,10,0.000103765,-3.23746,-0.424227,-0.139076,-3.14916,0.179271,
2,1,0,1,0,20779.4,0.181081,0.18078,0.575777,11,0.0146716,10,0.000104089,-3.23975,-0.440077,-0.134068,-3.01254,0.18078,
2,1,0,1,0,20779.6,0.182579,0.182297,0.570639,11,0.0147599,10,0.000104026,-3.24364,-0.426098,-0.138466,-3.08451,0.182297,
2,1,0,1,0,20779.7,0.184077,0.183756,0.569099,11,0.0148476,10,0.000104575,-3.24481,-0.504239,-0.117008,-2.59348,0.183756,
2,1,0,1,0,20779.9,0.185576,0.185298,0.56483,11,0.0149347,10,0.000104662,-3.24808,-0.682942,-0.0863909,-1.90578,0.185298,
2,1,0,1,0,20780,0.187074,0.186755,0.562231,11,0.0150214,10,0.000104999,-3.25009,-0.619236,-0.0952787,-2.08672,0.186755,
2,1,0,1,0,20780.2,0.188571,0.188269,0.559998,11,0.0151077,10,0.00010543,-3.25181,-0.735305,-0.0802388,-1.75464,0.1882692,
2,1,0,1,0,20780.3,0.19007,0.189744,0.556652,11,0.0151937,10,0.000105621,-3.25442,-0.910381,-0.064808,-1.40675,0.189744,
2,1,0,1,0,20780.5,0.191568,0.19124,0.552659,11,0.015279,10,0.000105691,-3.25754,-0.867252,-0.0680309,-1.47348,0.19124,
2,1,0,1,0,20780.6,0.193066,0.192739,0.550943,11,0.0153641,10,0.000106188,-3.25889,-1.56654,-0.0376627,-0.80922,0.192739,
2,1,0,1,0,20780.8,0.194564,0.194226,0.55036,11,0.0154491,10,0.000106894,-3.25935,-0.790136,-0.0746707,-1.60278,0.1942264,
2,1,0,1,0,20780.9,0.196063,0.195781,0.546137,11,0.0155336,10,0.000106923,-3.2627,-0.686759,-0.0859108,-1.83765,0.195781,
2,1,0,1,0,20781.1,0.197561,0.197232,0.545631,11,0.0156178,10,0.000107616,-3.2631,-0.707287,-0.0834173,-1.77757,0.197232,
2,1,0,1,0,20781.2,0.199059,0.198752,0.543761,11,0.0157016,10,0.000108074,-3.26459,-1.04283,-0.0565767,-1.20125,0.198752,
2,1,0,1,0,20781.4,0.200557,0.200239,0.54394,11,0.0157852,10,0.000108918,-3.26445,-1.16107,-0.0508152,-1.07395,0.200239,
2,1,0,1,0,20781.5,0.202056,0.201726,0.540583,11,0.0158687,10,0.00010905,-3.26714,-1.15133,-0.0512452,-1.07943,0.201726,
2,1,0,1,0,20781.7,0.203553,0.203211,0.538302,11,0.0159519,10,0.000109389,-3.26897,-1.18537,-0.0497733,-1.04874,0.203211,
2,1,0,1,0,20781.8,0.205051,0.204737,0.535986,11,0.0160347,10,0.000109736,-3.27085,14.7483,0.00400046,0.0842369,0.204737,
2,1,0,1,0,20782,0.20655,0.206243,0.535793,11,0.0161174,10,0.000110503,-3.271,-1.32221,-0.0446221,-0.933932,0.206243,
2,1,0,1,0,20782.1,0.208048,0.20773,0.535348,11,0.0162001,10,0.000111208,-3.27136,-0.859318,-0.0686591,-1.42904,0.20773,
2,1,0,1,0,20782.3,0.209546,0.209228,0.534032,11,0.0162824,10,0.000111734,-3.27243,-0.870831,-0.0677514,-1.41103,0.209228,
2,1,0,1,0,20782.4,0.211044,0.210745,0.530339,11,0.0163643,10,0.000111767,-3.27545,-2.67846,-0.0220276,-0.455803,0.210745,
2,1,0,1,0,20782.6,0.212543,0.212237,0.529845,11,0.0164462,10,0.000112453,-3.27585,-1.3487,-0.0437457,-0.904457,0.2122374,
2,1,0,1,0,20782.7,0.214041,0.213727,0.529023,11,0.0165279,10,0.000113067,-3.27653,-1.13639,-0.0519189,-1.07162,0.213727,
2,1,0,1,0,20782.9,0.215539,0.215234,0.528414,11,0.0166092,10,0.000113733,-3.27703,-1.18284,-0.0498799,-1.031,0.215234,
2,1,0,1,0,20783,0.217038,0.216729,0.525404,11,0.0166904,10,0.00011387,-3.27951,-2.66535,-0.022136,-0.454123,0.216729,
2,1,0,1,0,20783.2,0.218535,0.218164,0.524054,11,0.0167714,10,0.00011433,-3.28062,6.92147,0.00852421,0.174466,0.218164,
2,1,0,1,0,20783.3,0.220033,0.219766,0.52316,11,0.0168524,10,0.000114973,-3.28137,-1.07305,-0.0549837,-1.12474,0.219766,
2,1,0,1,0,20783.5,0.221532,0.221273,0.523025,11,0.0169332,10,0.000115731,-3.28148,-0.987834,-0.0597266,-1.22189,0.221273,
2,1,0,1,0,20783.6,0.22303,0.222738,0.518973,11,0.0170136,10,0.000115595,-3.28486,-1.41042,-0.0418316,-0.849878,0.222738,
2,1,0,1,0,20783.8,0.224528,0.224189,0.520195,11,0.0170939,10,0.000116622,-3.28383,-1.91274,-0.0308458,-0.625165,0.224189,
2,1,0,1,0,20783.9,0.226026,0.2257,0.518222,11,0.017174,10,0.000116963,-3.28548,-1.18099,-0.049958,-1.01094,0.2257,
2,1,0,1,0,20784.1,0.227525,0.227239,0.517678,11,0.0172541,10,0.000117637,-3.28594,-1.38448,-0.0426154,-0.858839,0.227239,
2,1,0,1,0,20784.2,0.229023,0.228697,0.515228,11,0.0173339,10,0.000117831,-3.288,-1.00448,-0.0587371,-1.18651,0.228697,
2,1,0,1,0,20784.4,0.230521,0.230195,0.516285,11,0.0174135,10,0.000118846,-3.28711,-2.92631,-0.0201619,-0.406431,0.2301954,
2,1,0,1,0,20784.5,0.232019,0.231696,0.515363,11,0.017493,10,0.000119407,-3.28789,-1.23219,-0.0478823,-0.962244,0.231696,
2,1,0,1,0,20784.7,0.233518,0.233222,0.515091,11,0.0175725,10,0.000120131,-3.28812,-1.90152,-0.0310279,-0.621262,0.233222,
2,1,0,1,0,20784.8,0.235015,0.234706,0.513363,11,0.0176518,10,0.000120489,-3.28958,-1.64795,-0.0358021,-0.716002,0.234706,
2,1,0,1,0,20785,0.236513,0.236197,0.511718,11,0.0177307,10,0.000120866,-3.29097,-2.22836,-0.0264769,-0.52842,0.236197,
2,1,0,1,0,20785.1,0.238012,0.237705,0.510826,11,0.0178097,10,0.000121426,-3.29173,-6.5326,-0.00903163,-0.179839,0.237705,
2,1,0,1,0,20785.3,0.23951,0.239212,0.512183,11,0.0178886,10,0.00012252,-3.29057,-1.31969,-0.0447076,-0.888642,0.239212,
2,1,0,1,0,20785.4,0.241008,0.240731,0.508193,11,0.0179673,10,0.000122338,-3.29397,-1.93179,-0.0305417,-0.60781,0.240731,
2,1,0,1,0,20785.6,0.242506,0.242207,0.507177,11,0.0180457,10,0.000122842,-3.29484,-2.16853,-0.0272074,-0.539546,0.242207,
2,1,0,1,0,20785.7,0.244005,0.243677,0.506697,11,0.018124,10,0.000123471,-3.29525,-3.35993,-0.0175599,-0.347931,0.243677,
2,1,0,1,0,20785.9,0.245503,0.245176,0.508202,11,0.0182023,10,0.000124599,-3.29396,-3.6991,-0.0159498,-0.315527,0.245176,
2,1,0,1,0,20786,0.247001,0.246676,0.506138,11,0.0182806,10,0.000124852,-3.29573,-0.972544,-0.0606656,-1.19671,0.246676,
2,1,0,1,0,20786.2,0.2485,0.248183,0.501929,11,0.0183586,10,0.00012457,-3.29936,-1.87354,-0.0314912,-0.620974,0.248183,
2,1,0,1,0,20786.3,0.249997,0.249673,0.50553,11,0.0184364,10,0.000126217,-3.29625,-1.64118,-0.0359496,-0.706981,0.249673,
2,1,0,1,0,20786.5,0.251495,0.251171,0.502563,11,0.0185142,10,0.000126229,-3.29881,-3.18729,-0.018511,-0.363113,0.251171,
2,1,0,1,0,20786.6,0.252994,0.252696,0.500087,11,0.0185918,10,0.00012637,-3.30095,-0.867949,-0.0679763,-1.33019,0.252696,
2,1,0,1,0,20786.8,0.254492,0.254164,0.500673,11,0.0186693,10,0.000127253,-3.30045,-1.3653,-0.043214,-0.844306,0.254164,
2,1,0,1,0,20786.9,0.25599,0.255645,0.499306,11,0.0187465,10,0.000127645,-3.30163,-2.19479,-0.0268818,-0.525148,0.255645,
2,1,0,1,0,20787.1,0.257488,0.257194,0.499442,11,0.0188236,10,0.000128454,-3.30152,-32.8253,-0.0017974,-0.0349113,0.2571944,
2,1,0,1,0,20787.2,0.258987,0.258684,0.499798,11,0.0189008,10,0.00012929,-3.30121,-1.68229,-0.0350713,-0.681249,0.258684,
2,1,0,1,0,20787.4,0.260485,0.260182,0.497375,11,0.0189777,10,0.000129408,-3.30332,-1.3983,-0.0421941,-0.820073,0.260182,
2,1,0,1,0,20787.5,0.261983,0.261695,0.496786,11,0.0190544,10,0.000130006,-3.30383,-2.53274,-0.0232949,-0.452429,0.261695,
2,1,0,1,0,20787.7,0.263481,0.263136,0.495577,11,0.0191311,10,0.000130404,-3.30489,3.99975,0.0147509,0.284411,0.263136,
2,1,0,1,0,20787.8,0.26498,0.264656,0.495241,11,0.0192077,10,0.000131068,-3.30518,-2.46077,-0.0239762,-0.464178,0.264656,
2,1,0,1,0,20788,0.266477,0.266169,0.491676,11,0.0192841,10,0.000130869,-3.30832,-1.79875,-0.0328005,-0.632995,0.266169,
2,1,0,1,0,20788.1,0.267976,0.267685,0.492227,11,0.0193604,10,0.000131762,-3.30783,-3.6169,-0.0163123,-0.314194,0.267685,
2,1,0,1,0,20788.3,0.269474,0.269183,0.491818,11,0.0194365,10,0.000132389,-3.3082,-8.82975,-0.00668195,-0.128202,0.269183,
2,1,0,1,0,20788.4,0.270972,0.270718,0.494233,11,0.0195125,10,0.000133798,-3.30607,-2.299,-0.0256633,-0.49242,0.270718,
2,1,0,1,0,20788.6,0.27247,0.27212,0.490378,11,0.0195886,10,0.000133442,-3.30947,-1.59687,-0.0369473,-0.705391,0.27212,
2,1,0,1,0,20788.7,0.273968,0.273674,0.488341,11,0.0196643,10,0.000133646,-3.31128,-0.812106,-0.0726506,-1.38989,0.273674,
2,1,0,1,0,20788.9,0.275467,0.27514,0.487967,11,0.0197398,10,0.000134259,-3.31161,-1.75705,-0.0335791,-0.640755,0.27514,
2,1,0,1,0,20789,0.276965,0.276631,0.488497,11,0.0198152,10,0.000135133,-3.31114,-1.04096,-0.0566783,-1.0813,0.276631,
2,1,0,1,0,20789.2,0.278463,0.278145,0.486645,11,0.0198906,10,0.000135358,-3.31279,-1.06013,-0.0556536,-1.05565,0.278145,
2,1,0,1,0,20789.3,0.279962,0.279676,0.486075,11,0.019966,10,0.000135943,-3.3133,-1.69095,-0.0348916,-0.662662,0.279676,
2,1,0,1,0,20789.5,0.281459,0.281143,0.485541,11,0.0200409,10,0.000136506,-3.31377,-1.411,-0.0418144,-0.792329,0.281143,
2,1,0,1,0,20789.6,0.282957,0.282629,0.484622,11,0.0201159,10,0.000136968,-3.3146,-2.14387,-0.0275203,-0.518949,0.282629,
2,1,0,1,0,20789.8,0.284456,0.284124,0.483768,11,0.0201908,10,0.00013745,-3.31536,-3.40577,-0.0173235,-0.326275,0.284124,
2,1,0,1,0,20789.9,0.285954,0.285636,0.482584,11,0.0202655,10,0.000137843,-3.31643,-1.57472,-0.037467,-0.705407,0.285636,
2,1,0,1,0,20790.1,0.287452,0.287107,0.481341,11,0.0203399,10,0.000138197,-3.31755,-2.18065,-0.0270561,-0.508789,0.287107,
2,1,0,1,0,20790.2,0.28895,0.28862,0.480764,11,0.0204143,10,0.000138758,-3.31807,7.19546,0.00819961,0.153419,0.28862,
2,1,0,1,0,20790.4,0.290449,0.290133,0.47842,11,0.0204886,10,0.000138805,-3.32019,-3.43192,-0.0171915,-0.322376,0.290133,
2,1,0,1,0,20790.5,0.291947,0.29161,0.479404,11,0.0205627,10,0.000139799,-3.3193,-1.17775,-0.0500956,-0.935231,0.29161,
2,1,0,1,0,20790.7,0.293445,0.293135,0.476397,11,0.0206366,10,0.000139649,-3.32203,-3.56077,-0.0165694,-0.309268,0.293135,
2,1,0,1,0,20790.8,0.294943,0.294637,0.477694,11,0.0207104,10,0.000140747,-3.32085,-5.45755,-0.0108107,-0.201199,0.294637,
2,1,0,1,0,20791,0.296442,0.296131,0.479042,11,0.0207842,10,0.000141859,-3.31963,-1.98713,-0.0296911,-0.551091,0.296131,
2,1,0,1,0,20791.1,0.297939,0.29765,0.476027,11,0.0208578,10,0.000141689,-3.32237,-2.07265,-0.028466,-0.527022,0.29765,
2,1,0,1,0,20791.3,0.299437,0.299155,0.473036,11,0.0209313,10,0.000141511,-3.32511,-0.00226449,-26.0544,-223.442,0.299155,
2,1,0,1,0,20791.3,0.299738,0.29946,0.22392,11,0.0209661,10,6.70549e-05,-3.64991,0.000772116,76.4134,403.016,0.29946,
2,1,0,1,0,20791.5,0.29824,0.297966,0.0054752,11,0.0209742,10,1.63142e-06,-5.2616,0.00360849,16.3503,137.195,0.297966,
2,0,0,1,0,20791.6,0.296741,0.296446,-0.034613,11,0.0209694,10,-1.02609e-05,-4.46076,-0.0105378,-5.59891,22.5206,0.296446,
2,0,0,1,0,20791.8,0.295243,0.294922,-0.056244,11,0.0209601,10,-1.65876e-05,-4.24992,-0.00763535,-7.72722,13.3883,0.294922,
2,0,0,1,0,20791.9,0.293745,0.293423,-0.0739793,11,0.0209479,10,-2.17072e-05,-4.13089,-0.0150573,-3.91836,10.6647,0.293423,
2,0,0,1,0,20792.1,0.292246,0.291911,-0.0888995,11,0.0209335,10,-2.59508e-05,-4.0511,-0.0215354,-2.73968,8.95324,0.291911,
2,0,0,1,0,20792.2,0.290748,0.290424,-0.101941,11,0.0209168,10,-2.96062e-05,-3.99165,-0.0271972,-2.16934,8.28406,0.290424,
2,0,0,1,0,20792.4,0.28925,0.28896,-0.112851,11,0.0208984,10,-3.26094e-05,-3.9475,-0.0382405,-1.54287,6.63585,0.28896,
2,0,0,1,0,20792.5,0.287752,0.28744,-0.123019,11,0.0208785,10,-3.53605e-05,-3.91003,-0.047519,-1.24161,5.90583,0.28744,
2,0,0,1,0,20792.7,0.286253,0.285983,-0.129763,11,0.0208573,10,-3.71101e-05,-3.88685,-0.0490473,-1.20292,6.06302,0.285983,
2,0,0,1,0,20792.8,0.284755,0.284437,-0.139402,11,0.0208348,10,-3.96511e-05,-3.85573,-0.0536047,-1.10065,5.91136,0.284437,
2,0,0,1,0,20793,0.283258,0.282917,-0.145584,11,0.020811,10,-4.11883e-05,-3.83689,-0.0635771,-0.928007,5.26627,0.282917,
2,0,0,1,0,20793.1,0.281759,0.281457,-0.152249,11,0.0207862,10,-4.28516e-05,-3.81744,-0.0803689,-0.734115,4.3742,0.281457,
2,0,0,1,0,20793.3,0.280261,0.279989,-0.15699,11,0.0207604,10,-4.39555e-05,-3.80413,-0.0868391,-0.679418,4.2159,0.279989,
2,0,0,1,0,20793.4,0.278763,0.278438,-0.166136,11,0.0207337,10,-4.62585e-05,-3.77954,-0.0933284,-0.632176,4.08375,0.278438,
2,0,0,1,0,20793.6,0.277264,0.276957,-0.171389,11,0.020706,10,-4.74675e-05,-3.76602,-0.100938,-0.584515,3.89294,0.276957,
2,0,0,1,0,20793.7,0.275766,0.275469,-0.177299,11,0.0206774,10,-4.88405e-05,-3.75129,-0.124331,-0.474541,3.27766,0.275469,
2,0,0,1,0,20793.9,0.274268,0.273942,-0.183327,11,0.0206479,10,-5.0221e-05,-3.73677,-0.128235,-0.460092,3.29918,0.273942,
2,0,0,1,0,20794,0.27277,0.272467,-0.188989,11,0.0206178,10,-5.14934e-05,-3.72356,-0.126616,-0.465977,3.45394,0.272467,
2,0,0,1,0,20794.2,0.271272,0.27097,-0.19413,11,0.0205866,10,-5.26036e-05,-3.71191,-0.124455,-0.474068,3.58447,0.27097,
2,0,0,1,0,20794.3,0.269773,0.269461,-0.200982,11,0.0205546,10,-5.4157e-05,-3.69684,-0.149913,-0.393561,3.06506,0.269461,
2,0,0,1,0,20794.5,0.268275,0.267945,-0.205499,11,0.020522,10,-5.50624e-05,-3.68719,-0.154898,-0.380896,3.04099,0.2679446,
2,0,0,1,0,20794.6,0.266778,0.266451,-0.207872,11,0.0204888,10,-5.53875e-05,-3.6822,-0.123523,-0.477645,3.89577,0.266451,
2,0,0,1,0,20794.8,0.265279,0.264993,-0.212272,11,0.0204547,10,-5.62505e-05,-3.67311,-0.138294,-0.426626,3.5308,0.264993,
2,0,0,1,0,20794.9,0.263781,0.263477,-0.217343,11,0.02042,10,-5.72649e-05,-3.66286,-0.153977,-0.383174,3.25528,0.263477,
2,0,0,1,0,20795.1,0.262283,0.261976,-0.222637,11,0.0203846,10,-5.83255e-05,-3.6524,-0.183041,-0.322333,2.79687,0.261976,
2,0,0,1,0,20795.2,0.260784,0.260477,-0.226062,11,0.0203487,10,-5.88839e-05,-3.64577,-0.198238,-0.297622,2.62818,0.260477,
2,0,0,1,0,20795.4,0.259286,0.258972,-0.230063,11,0.0203121,10,-5.95799e-05,-3.63815,-0.186257,-0.316766,2.84713,0.258972,
2,0,0,1,0,20795.5,0.257788,0.257478,-0.238031,11,0.0202749,10,-6.12877e-05,-3.62337,-0.239798,-0.246041,2.25337,0.257478,
2,0,0,1,0,20795.7,0.25629,0.256007,-0.23832,11,0.020237,10,-6.10115e-05,-3.62284,-0.229044,-0.257593,2.3958,0.256007,
2,0,0,1,0,20795.8,0.254791,0.254479,-0.240776,11,0.0201986,10,-6.12722e-05,-3.61839,-0.238797,-0.247072,2.33277,0.254479,
2,0,0,1,0,20796,0.253293,0.252979,-0.244624,11,0.0201599,10,-6.18849e-05,-3.6115,-0.26737,-0.220668,2.11558,0.252979,
2,0,0,1,0,20796.1,0.251796,0.251487,-0.247858,11,0.0201205,10,-6.2333e-05,-3.6058,-0.197856,-0.298197,2.90728,0.251487,
2,0,0,1,0,20796.3,0.250297,0.250009,-0.251323,11,0.0200804,10,-6.28331e-05,-3.59977,-0.324074,-0.182057,1.79478,0.250009,
2,0,0,1,0,20796.4,0.248799,0.24846,-0.256827,11,0.02004,10,-6.38111e-05,-3.59036,-0.25937,-0.227475,2.274,0.24846,
2,0,0,1,0,20796.6,0.247301,0.246969,-0.25958,11,0.0199991,10,-6.41082e-05,-3.58573,-0.220384,-0.267714,2.71186,0.2469689,
2,0,0,1,0,20796.7,0.245802,0.245515,-0.262878,11,0.0199576,10,-6.45405e-05,-3.58025,-0.282192,-0.209078,2.14128,0.245515,
2,0,0,1,0,20796.9,0.244304,0.24399,-0.265711,11,0.0199155,10,-6.48308e-05,-3.57559,-0.254944,-0.231423,2.39877,0.24399,
2,0,0,1,0,20797,0.242806,0.242484,-0.269194,11,0.0198731,10,-6.52754e-05,-3.56993,-0.393434,-0.149962,1.58031,0.242484,
2,0,0,1,0,20797.2,0.241308,0.24101,-0.271432,11,0.0198303,10,-6.54179e-05,-3.56634,-0.285494,-0.206659,2.20103,0.24101,
2,0,0,1,0,20797.3,0.23981,0.239473,-0.274921,11,0.0197869,10,-6.58362e-05,-3.56079,-0.187802,-0.31416,3.36892,0.2394729,
2,0,0,1,0,20797.5,0.238311,0.237955,-0.279249,11,0.0197429,10,-6.64485e-05,-3.55401,-0.335531,-0.17584,1.91495,0.237955,
2,0,0,1,0,20797.6,0.236814,0.236475,-0.281191,11,0.0196985,10,-6.64947e-05,-3.551,-0.393442,-0.149959,1.65076,0.236475,
2,0,0,1,0,20797.8,0.235316,0.234955,-0.282403,11,0.0196538,10,-6.63519e-05,-3.54913,-0.262711,-0.224581,2.50059,0.234955,
2,0,0,1,0,20797.9,0.233817,0.233478,-0.28836,11,0.0196085,10,-6.73259e-05,-3.54006,-0.289031,-0.204131,2.29729,0.2334784,
2,0,0,1,0,20798.1,0.232319,0.231974,-0.290778,11,0.0195627,10,-6.74528e-05,-3.53644,-0.348684,-0.169207,1.92733,0.231974,
2,0,0,1,0,20798.2,0.230821,0.230502,-0.294538,11,0.0195164,10,-6.78916e-05,-3.53086,-0.403352,-0.146274,1.67479,0.230502,
2,0,0,1,0,20798.4,0.229322,0.228989,-0.296564,11,0.0194698,10,-6.79098e-05,-3.52788,-0.409939,-0.143924,1.67205,0.228989,
2,0,0,1,0,20798.5,0.227824,0.227498,-0.298981,11,0.0194227,10,-6.80176e-05,-3.52436,-0.324189,-0.181992,2.13106,0.227498,
2,0,0,1,0,20798.7,0.226326,0.226039,-0.304055,11,0.0193752,10,-6.87282e-05,-3.51705,-0.285788,-0.206447,2.44338,0.226039,
2,0,0,1,0,20798.8,0.224828,0.22453,-0.306054,11,0.019327,10,-6.87183e-05,-3.5142,-0.455653,-0.129484,1.5404,0.22453,
2,0,0,1,0,20799,0.223329,0.223,-0.310284,11,0.0192785,10,-6.91933e-05,-3.50824,-0.422963,-0.139492,1.68732,0.2229998,
2,0,0,1,0,20799.1,0.221831,0.22153,-0.312165,11,0.0192297,10,-6.9154e-05,-3.50562,-0.326671,-0.18061,2.19007,0.22153,
2,0,0,1,0,20799.3,0.220334,0.220033,-0.31639,11,0.0191803,10,-6.96163e-05,-3.49978,-0.301909,-0.195423,2.40205,0.220033,
2,0,0,1,0,20799.4,0.218835,0.21851,-0.317803,11,0.0191302,10,-6.94431e-05,-3.49784,-0.300612,-0.196266,2.43081,0.21851,
2,0,0,1,0,20799.6,0.217337,0.216993,-0.321016,11,0.0190799,10,-6.96583e-05,-3.49347,-0.336751,-0.175204,2.20602,0.216993,
2,0,0,1,0,20799.7,0.215839,0.215533,-0.323589,11,0.0190292,10,-6.97442e-05,-3.49001,-0.385173,-0.153178,1.941,0.215533,
2,0,0,1,0,20799.9,0.21434,0.214005,-0.326528,11,0.0189779,10,-6.98787e-05,-3.48608,-0.301992,-0.195369,2.49308,0.2140051,
2,0,0,1,0,20800,0.212842,0.212491,-0.330365,11,0.0189262,10,-7.01995e-05,-3.48101,-0.418313,-0.141043,1.81338,0.212491,
2,0,0,1,0,20800.2,0.211344,0.211006,-0.333625,11,0.0188739,10,-7.03969e-05,-3.47674,-0.339195,-0.173941,2.27211,0.211006,
2,0,0,1,0,20800.3,0.209846,0.209534,-0.333071,11,0.0188215,10,-6.97898e-05,-3.47746,-0.500491,-0.117884,1.54502,0.209534,
2,0,0,1,0,20800.5,0.208348,0.208086,-0.341696,11,0.0187684,10,-7.11021e-05,-3.46636,-0.321785,-0.183352,2.43155,0.208086,
2,0,0,1,0,20800.6,0.206849,0.206537,-0.346359,11,0.0187147,10,-7.15358e-05,-3.46047,-0.34513,-0.17095,2.28304,0.206537,
2,0,0,1,0,20800.8,0.205352,0.205001,-0.346925,11,0.0186603,10,-7.11198e-05,-3.45976,-0.49243,-0.119814,1.61723,0.205001,
2,0,0,1,0,20800.9,0.203854,0.203546,-0.346845,11,0.0186058,10,-7.05989e-05,-3.45986,-0.404611,-0.145819,1.99358,0.203546,
2,0,0,1,0,20801.1,0.202355,0.202008,-0.351805,11,0.0185509,10,-7.10672e-05,-3.4537,-0.408548,-0.144414,1.99043,0.202008,
2,0,0,1,0,20801.2,0.200857,0.200536,-0.35489,11,0.0184954,10,-7.11682e-05,-3.44991,-0.339781,-0.173641,2.40692,0.200536,
2,0,0,1,0,20801.4,0.199359,0.199026,-0.360703,11,0.0184393,10,-7.17892e-05,-3.44285,-0.350391,-0.168383,2.36381,0.199026,
2,0,0,1,0,20801.5,0.19786,0.197525,-0.362323,11,0.0183828,10,-7.15679e-05,-3.4409,-0.508074,-0.116125,1.6436,0.197525,
2,0,0,1,0,20801.7,0.196362,0.19602,-0.365632,11,0.018326,10,-7.16711e-05,-3.43696,-0.445401,-0.132465,1.89265,0.19602,
2,0,0,1,0,20801.8,0.194864,0.194539,-0.368874,11,0.0182685,10,-7.17605e-05,-3.43312,-0.289423,-0.203854,2.92518,0.194539,
2,0,0,1,0,20802,0.193366,0.193064,-0.373762,11,0.0182104,10,-7.21601e-05,-3.4274,-0.311538,-0.189383,2.76377,0.193064,
2,0,0,1,0,20802.1,0.191867,0.191554,-0.376464,11,0.0181518,10,-7.21133e-05,-3.42428,-0.419151,-0.140761,2.07397,0.1915545,
2,0,0,1,0,20802.3,0.190369,0.190042,-0.380078,11,0.0180928,10,-7.22307e-05,-3.42013,-0.349585,-0.168771,2.51322,0.190042,
2,0,0,1,0,20802.4,0.188872,0.188566,-0.384943,11,0.0180331,10,-7.25871e-05,-3.4146,-0.263769,-0.223681,3.34938,0.188566,
2,0,0,1,0,20802.6,0.187373,0.187052,-0.388423,11,0.0179728,10,-7.26553e-05,-3.41069,-0.333554,-0.176883,2.6827,0.187052,
2,0,0,1,0,20802.7,0.185875,0.18557,-0.393821,11,0.017912,10,-7.30815e-05,-3.4047,-0.340466,-0.173292,2.64825,0.18557,
2,0,0,1,0,20802.9,0.184377,0.184039,-0.394642,11,0.0178506,10,-7.26296e-05,-3.4038,-0.306292,-0.192627,2.97629,0.184039,
2,0,0,1,0,20803,0.182878,0.182534,-0.399642,11,0.0177886,10,-7.29485e-05,-3.39833,-0.326554,-0.180675,2.83181,0.182534,
2,0,0,1,0,20803.2,0.18138,0.181066,-0.406274,11,0.0177258,10,-7.35622e-05,-3.39118,-0.303641,-0.194308,3.07299,0.181066,
2,0,0,1,0,20803.3,0.179882,0.179596,-0.409318,11,0.0176623,10,-7.35119e-05,-3.38794,-0.430366,-0.137093,2.18932,0.179596,
2,0,0,1,0,20803.5,0.178384,0.178128,-0.414545,11,0.0175981,10,-7.38422e-05,-3.38243,-0.35865,-0.164506,2.66543,0.178128,
2,0,0,1,0,20803.6,0.176886,0.176575,-0.419904,11,0.0175335,10,-7.41445e-05,-3.37685,-0.29343,-0.20107,3.29857,0.176575,
2,0,0,1,0,20803.8,0.175387,0.17507,-0.42548,11,0.0174678,10,-7.4489e-05,-3.37112,-0.221734,-0.266085,4.4139,0.17507,
2,0,0,1,0,20803.9,0.17389,0.173541,-0.431419,11,0.0174013,10,-7.4869e-05,-3.3651,-0.263346,-0.22404,3.76577,0.173541,
2,0,0,1,0,20804.1,0.172392,0.172056,-0.436918,11,0.0173339,10,-7.51745e-05,-3.3596,-0.244347,-0.24146,4.1215,0.172056,
2,0,0,1,0,20804.2,0.170893,0.170544,-0.441255,11,0.0172657,10,-7.52536e-05,-3.35531,-0.220428,-0.267662,4.6285,0.170544,
2,0,0,1,0,20804.4,0.169395,0.169061,-0.450596,11,0.0171965,10,-7.61781e-05,-3.34621,-0.193667,-0.304647,5.33692,0.169061,
2,0,0,1,0,20804.5,0.167897,0.16754,-0.456659,11,0.017126,10,-7.65087e-05,-3.34041,-0.188161,-0.313562,5.6039,0.16754,
2,0,0,1,0,20804.7,0.166398,0.166113,-0.463849,11,0.0170545,10,-7.70513e-05,-3.33362,-0.230817,-0.255614,4.63966,0.166113,
2,0,0,1,0,20804.8,0.1649,0.164589,-0.47144,11,0.0169819,10,-7.75939e-05,-3.32657,-0.192174,-0.307013,5.68397,0.164589,
2,0,0,1,0,20805,0.163402,0.163103,-0.482918,11,0.016908,10,-7.87657e-05,-3.31613,-0.162764,-0.362487,6.81797,0.163103,
2,0,0,1,0,20805.1,0.161904,0.161582,-0.492724,11,0.0168326,10,-7.96152e-05,-3.3074,-0.153618,-0.384071,7.37602,0.161582,
2,0,0,1,0,20805.3,0.160405,0.160096,-0.502631,11,0.0167556,10,-8.04693e-05,-3.29875,-0.167035,-0.35322,6.92318,0.160096,
2,0,0,1,0,20805.4,0.158907,0.158575,-0.512826,11,0.016677,10,-8.13216e-05,-3.29003,-0.150902,-0.390983,7.84412,0.158575,
2,0,0,1,0,20805.6,0.15741,0.157103,-0.526874,11,0.0165967,10,-8.27736e-05,-3.27829,-0.125905,-0.468606,9.65569,0.157103,
2,0,0,1,0,20805.7,0.155911,0.15558,-0.542655,11,0.0165142,10,-8.44263e-05,-3.26548,-0.127186,-0.463887,9.81788,0.15558,
2,0,0,1,0,20805.9,0.154413,0.154067,-0.554725,11,0.0164294,10,-8.54647e-05,-3.25592,-0.120171,-0.490968,10.6616,0.1540667,
2,0,0,1,0,20806,0.152915,0.152592,-0.573176,11,0.0163422,10,-8.74619e-05,-3.24171,-0.112676,-0.523624,11.7502,0.152592,
2,0,0,1,0,20806.2,0.151417,0.15109,-0.593002,11,0.0162525,10,-8.95968e-05,-3.22694,-0.0972393,-0.60675,14.0828,0.15109,
2,0,0,1,0,20806.3,0.149918,0.14963,-0.615964,11,0.0161595,10,-9.21666e-05,-3.21044,-0.0893571,-0.660272,15.855,0.14963,
2,0,0,1,0,20806.5,0.14842,0.148079,-0.639011,11,0.0160631,10,-9.46239e-05,-3.19449,-0.0899801,-0.655701,16.3564,0.148079,
2,0,0,1,0,20806.6,0.146922,0.146586,-0.664467,11,0.0159628,10,-9.74013e-05,-3.17753,-0.0817977,-0.721291,18.7564,0.146586,
2,0,0,1,0,20806.8,0.145424,0.145075,-0.693551,11,0.0158587,10,-0.000100617,-3.15892,-0.0775912,-0.760396,20.6755,0.145075,
2,0,0,1,0,20806.9,0.143925,0.143653,-0.727067,11,0.0157497,10,-0.000104445,-3.13843,-0.0693229,-0.851089,24.176,0.143653,
2,0,0,1,0,20807.1,0.142428,0.142147,-0.763478,11,0.0156355,10,-0.000108526,-3.1172,-0.0713994,-0.826338,24.611,0.1421469,
2,0,0,1,0,20807.2,0.14093,0.140563,-0.800377,11,0.0155159,10,-0.000112503,-3.09671,-0.0727139,-0.811399,25.3248,0.140563,
2,0,0,1,0,20807.4,0.139431,0.139092,-0.834653,11,0.0153906,10,-0.000116093,-3.07849,-0.0713922,-0.82642,27.0283,0.139092,
2,0,0,1,0,20807.5,0.137933,0.137592,-0.878783,11,0.0152597,10,-0.000120914,-3.05612,-0.0746151,-0.790724,27.0811,0.137592,
2,0,0,1,0,20807.7,0.136435,0.136067,-0.918824,11,0.0151225,10,-0.000125022,-3.03677,-0.0781269,-0.755182,26.9955,0.136067,
2,0,0,1,0,20807.8,0.134936,0.134614,-0.960885,11,0.014979,10,-0.000129348,-3.01733,-0.08418,-0.700879,26.1613,0.134614,
2,0,0,1,0,20808,0.133438,0.133092,-0.997289,11,0.0148296,10,-0.000132731,-3.00118,-0.0890229,-0.662751,25.8068,0.133092,
2,0,0,1,0,20808.1,0.13194,0.131647,-1.03929,11,0.0146745,10,-0.000136819,-2.98326,-0.097235,-0.606777,24.5948,0.131647,
2,0,0,1,0,20808.3,0.130442,0.13012,-1.07495,11,0.0145136,10,-0.000139872,-2.96861,-0.103268,-0.571329,23.9201,0.13012,
2,0,0,1,0,20808.4,0.128943,0.128651,-1.1102,11,0.0143471,10,-0.000142829,-2.9546,-0.121094,-0.487223,21.0136,0.128651,
2,0,0,1,0,20808.6,0.127445,0.127079,-1.13964,11,0.014176,10,-0.000144825,-2.94323,-0.134159,-0.439775,19.4921,0.127079,
2,0,0,1,0,20808.7,0.125948,0.125614,-1.16518,11,0.014001,10,-0.000146362,-2.93361,-0.151887,-0.388446,17.6333,0.125614,
2,0,0,1,0,20808.9,0.124449,0.124119,-1.18883,11,0.0138218,10,-0.000147555,-2.92488,-0.178328,-0.33085,15.2979,0.124119,
2,0,0,1,0,20809,0.122951,0.122631,-1.2115,11,0.0136392,10,-0.000148568,-2.91667,-0.224565,-0.26273,12.3653,0.122631,
2,0,0,1,0,20809.2,0.121453,0.121138,-1.22882,11,0.0134539,10,-0.000148857,-2.91051,-0.308949,-0.19097,9.11561,0.121138,
2,0,0,1,0,20809.3,0.119955,0.11965,-1.23697,11,0.0132669,10,-0.000148004,-2.90764,-0.40598,-0.145327,7.02433,0.11965,
2,0,0,1,0,20809.5,0.118456,0.118144,-1.24844,11,0.0130781,10,-0.000147497,-2.90363,-0.481268,-0.122593,5.95744,0.118144,
2,0,0,1,0,20809.6,0.116958,0.116668,-1.25834,11,0.0128878,10,-0.000146809,-2.9002,-0.843758,-0.0699253,3.42329,0.116668,
2,0,0,1,0,20809.8,0.11546,0.115105,-1.25917,11,0.0126968,10,-0.000144938,-2.89991,-33.0606,-0.0017846,0.0874365,0.115105,
2,0,0,1,0,20809.9,0.113962,0.113634,-1.25595,11,0.0125057,10,-0.00014272,-2.90103,3.51328,0.0167934,-0.824297,0.113634,
2,0,0,1,0,20810.1,0.112463,0.112109,-1.25652,11,0.0123149,10,-0.000140867,-2.90083,1.73645,0.0339773,-1.66334,0.112109,
2,0,0,1,0,20810.2,0.110966,0.110634,-1.25503,11,0.0121243,10,-0.000138848,-2.90135,1.29156,0.0456813,-2.23297,0.110634,
2,0,0,1,0,20810.4,0.109468,0.109166,-1.24833,11,0.0119342,10,-0.000136275,-2.90367,0.687316,0.0858412,-4.17549,0.109166,
2,0,0,1,0,20810.5,0.107969,0.107676,-1.24337,11,0.0117448,10,-0.000133881,-2.9054,0.601253,0.0981284,-4.76129,0.107676,
2,0,0,1,0,20810.7,0.106471,0.106113,-1.23395,11,0.011557,10,-0.000130938,-2.9087,0.604415,0.097615,-4.70911,0.106113,
2,0,0,1,0,20810.8,0.104973,0.104676,-1.22789,11,0.01137,10,-0.000128531,-2.91084,0.68547,0.0860724,-4.12191,0.104676,
2,0,0,1,0,20811,0.103474,0.103174,-1.21973,11,0.011184,10,-0.000125844,-2.91374,0.452625,0.130351,-6.19062,0.103174,
2,0,0,1,0,20811.1,0.101976,0.101622,-1.21176,11,0.0109994,10,-0.000123141,-2.91658,0.382577,0.154217,-7.2806,0.101622,
2,0,0,1,0,20811.3,0.100478,0.100193,-1.19764,11,0.0108166,10,-0.000119995,-2.92167,0.428021,0.137844,-6.45155,0.100193,
2,0,0,1,0,20811.4,0.0989799,0.0986615,-1.19057,11,0.0106352,10,-0.000117464,-2.92424,0.46865,0.125893,-5.83925,0.0986615,
2,0,0,1,0,20811.6,0.0974808,0.0971217,-1.1824,11,0.0104549,10,-0.000114837,-2.92723,0.499187,0.118192,-5.44762,0.0971217,
2,0,0,1,0,20811.7,0.0959833,0.0956448,-1.17191,11,0.0102761,10,-0.000112087,-2.93111,0.441214,0.133722,-6.11756,0.0956448,
2,0,0,1,0,20811.9,0.0944857,0.0941607,-1.15799,11,0.0100989,10,-0.000109038,-2.93629,0.445675,0.132383,-6.00661,0.0941607,
2,0,0,1,0,20812,0.0929871,0.0926437,-1.15212,11,0.00992297,10,-0.000106737,-2.9385,0.519097,0.113659,-5.11897,0.0926437,
2,0,0,1,0,20812.2,0.0914889,0.091174,-1.1472,11,0.00974828,10,-0.000104595,-2.94036,0.47031,0.125449,-5.60456,0.091174,
2,0,0,1,0,20812.3,0.0899907,0.0896587,-1.13628,11,0.00957486,10,-0.000101877,-2.94451,0.424175,0.139093,-6.1576,0.0896587,
2,0,0,1,0,20812.5,0.0884925,0.0881529,-1.12252,11,0.00940292,10,-9.8953e-05,-2.94981,0.43048,0.137056,-6.02377,0.0881529,
2,0,0,1,0,20812.6,0.0869943,0.0866715,-1.11827,11,0.00923252,10,-9.69221e-05,-2.95145,0.447752,0.131769,-5.75285,0.0866715,
2,0,0,1,0,20812.8,0.0854962,0.0851731,-1.10957,11,0.00906314,10,-9.45057e-05,-2.95484,0.479312,0.123093,-5.33639,0.08517313,
2,0,0,1,0,20812.9,0.083998,0.0836674,-1.10444,11,0.00889483,10,-9.24053e-05,-2.95686,0.464626,0.126984,-5.45677,0.08366736,
2,0,0,1,0,20813.1,0.0824998,0.0821573,-1.09626,11,0.00872766,10,-9.0066e-05,-2.96009,0.451948,0.130546,-5.57844,0.0821573,
2,0,0,1,0,20813.2,0.0810011,0.0806737,-1.08534,11,0.00856192,10,-8.75582e-05,-2.96444,0.548038,0.107657,-4.57462,0.08067371,
2,0,0,1,0,20813.4,0.0795036,0.0791885,-1.07962,11,0.0083972,10,-8.54933e-05,-2.96673,0.602264,0.0979637,-4.12456,0.0791885,
2,0,0,1,0,20813.5,0.0780061,0.0776632,-1.07221,11,0.0082334,10,-8.32713e-05,-2.96972,0.490062,0.120393,-5.03654,0.0776632,
2,0,0,1,0,20813.7,0.076507,0.076166,-1.06609,11,0.00807058,10,-8.11998e-05,-2.97221,0.479648,0.123007,-5.11079,0.076166,
2,0,0,1,0,20813.8,0.0750088,0.074709,-1.05603,11,0.00790921,10,-7.8895e-05,-2.97632,0.54207,0.108842,-4.49981,0.074709,
2,0,0,1,0,20814,0.0735106,0.0731789,-1.05097,11,0.00774871,10,-7.69085e-05,-2.97841,0.633186,0.0931795,-3.81957,0.0731789,
2,0,0,1,0,20814.1,0.0720124,0.071724,-1.045,11,0.0075891,10,-7.49518e-05,-2.98088,0.481069,0.122644,-5.00484,0.071724,
2,0,0,1,0,20814.3,0.0705142,0.0701907,-1.03886,11,0.00743044,10,-7.29181e-05,-2.98344,0.521547,0.113125,-4.58274,0.0701907,
2,0,0,1,0,20814.4,0.0690161,0.0686902,-1.02906,11,0.00727311,10,-7.06862e-05,-2.98756,0.515092,0.114543,-4.61623,0.0686902,
2,0,0,1,0,20814.6,0.0675179,0.0671717,-1.02497,11,0.00711665,10,-6.88488e-05,-2.98929,0.766465,0.0769767,-3.082,0.06717167,
2,0,0,1,0,20814.7,0.0660188,0.065687,-1.02315,11,0.00696087,10,-6.7208e-05,-2.99006,0.604335,0.097628,-3.88224,0.065687,
2,0,0,1,0,20814.9,0.0645213,0.0642203,-1.01553,11,0.00680587,10,-6.52176e-05,-2.99331,0.467825,0.126116,-4.97705,0.0642203,
2,0,0,1,0,20815,0.0630237,0.0626981,-1.00505,11,0.00665214,10,-6.30149e-05,-2.99781,0.549808,0.10731,-4.21954,0.0626981,
2,0,0,1,0,20815.2,0.0615251,0.0612154,-0.997557,11,0.00649954,10,-6.10658e-05,-3.00106,0.612714,0.0962929,-3.75981,0.0612154,
2,0,0,1,0,20815.3,0.0600269,0.0597149,-0.994421,11,0.00634771,10,-5.93817e-05,-3.00243,0.565635,0.104308,-4.04862,0.0597149,
2,0,0,1,0,20815.5,0.0585287,0.05819,-0.989215,11,0.00619671,10,-5.75624e-05,-3.00471,0.396192,0.148918,-5.73052,0.05819,
2,0,0,1,0,20815.6,0.0570305,0.0567076,-0.983034,11,0.00604675,10,-5.57455e-05,-3.00743,0.522505,0.112918,-4.32368,0.05670758,
2,0,0,1,0,20815.8,0.0555323,0.0552283,-0.975434,11,0.00589808,10,-5.38716e-05,-3.0108,0.539234,0.109414,-4.16379,0.0552283,
2,0,0,1,0,20815.9,0.0540342,0.0537565,-0.968882,11,0.00575015,10,-5.20837e-05,-3.01373,0.549822,0.107307,-4.04859,0.0537565,
2,0,0,1,0,20816.1,0.052536,0.0522051,-0.962902,11,0.005603,10,-5.02684e-05,-3.01642,0.495142,0.119158,-4.47129,0.0522051,
2,0,0,1,0,20816.2,0.0510378,0.0506707,-0.956011,11,0.00545693,10,-4.84417e-05,-3.01954,0.440663,0.133889,-4.98839,0.0506707,
2,0,0,1,0,20816.4,0.0495391,0.0492282,-0.947159,11,0.00531205,10,-4.66269e-05,-3.02358,0.534793,0.110323,-4.08699,0.0492282,
2,0,0,1,0,20816.5,0.0480416,0.0477358,-0.939865,11,0.00516818,10,-4.48652e-05,-3.02693,0.666251,0.0885553,-3.24977,0.0477358,
2,0,0,1,0,20816.7,0.0465441,0.0461901,-0.933369,11,0.00502517,10,-4.31125e-05,-3.02995,0.481952,0.122419,-4.46312,0.0461901,
2,0,0,1,0,20816.8,0.045045,0.0447165,-0.926144,11,0.0048832,10,-4.14139e-05,-3.03332,0.433597,0.136071,-4.92389,0.0447165,
2,0,0,1,0,20817,0.0435468,0.0432319,-0.917081,11,0.00474244,10,-3.96472e-05,-3.03759,0.407157,0.144907,-5.19865,0.0432319,
2,0,0,1,0,20817.1,0.0420486,0.041706,-0.911857,11,0.00460284,10,-3.80299e-05,-3.04007,0.503334,0.117218,-4.17801,0.041706,
2,0,0,1,0,20817.3,0.0405504,0.0402289,-0.908527,11,0.00446413,10,-3.6549e-05,-3.04166,0.458222,0.128758,-4.55176,0.0402289,
2,0,0,1,0,20817.4,0.0390523,0.0387263,-0.898521,11,0.00432633,10,-3.47964e-05,-3.04647,0.36172,0.16311,-5.71283,0.03872627,
2,0,0,1,0,20817.6,0.0375541,0.0372078,-0.892096,11,0.00418977,10,-3.31929e-05,-3.04959,0.392016,0.150504,-5.24664,0.0372078,
2,0,0,1,0,20817.7,0.0360559,0.0357359,-0.88406,11,0.00405453,10,-3.15927e-05,-3.05352,0.431109,0.136856,-4.72994,0.0357359,
2,0,0,1,0,20817.9,0.0345568,0.0342048,-0.878787,11,0.00391998,10,-3.00587e-05,-3.05612,0.501348,0.117683,-4.03204,0.0342048,
2,0,0,1,0,20818,0.0330593,0.0327104,-0.871351,11,0.0037866,10,-2.85022e-05,-3.05981,0.412567,0.143007,-4.85799,0.0327104,
2,0,0,1,0,20818.2,0.0315618,0.031218,-0.865042,11,0.00365414,10,-2.70048e-05,-3.06296,0.455867,0.129424,-4.3683,0.031218,
2,0,0,1,0,20818.3,0.0300631,0.0297245,-0.855333,11,0.00352298,10,-2.54243e-05,-3.06786,0.510144,0.115654,-3.86981,0.0297245,
2,0,0,1,0,20818.5,0.0285649,0.0282675,-0.851661,11,0.00339274,10,-2.40743e-05,-3.06973,0.526472,0.112067,-3.71457,0.0282675,
2,0,0,1,0,20818.6,0.0270667,0.0266938,-0.843805,11,0.00326325,10,-2.25244e-05,-3.07376,0.514801,0.114607,-3.76916,0.0266938,
2,0,0,1,0,20818.8,0.0255685,0.0252729,-0.836667,11,0.00313482,10,-2.1145e-05,-3.07745,0.381604,0.15461,-5.05667,0.0252729,
2,0,0,1,0,20818.9,0.0240704,0.0237767,-0.826649,11,0.00300763,10,-1.9655e-05,-3.08268,0.425725,0.138587,-4.49348,0.0237767,
2,0,0,1,0,20819.1,0.0225722,0.02222,-0.824041,11,0.00288127,10,-1.83102e-05,-3.08405,0.560311,0.105299,-3.38915,0.02221998,
2,0,0,1,0,20819.2,0.021074,0.0207131,-0.818991,11,0.00275577,10,-1.69639e-05,-3.08672,0.428489,0.137693,-4.39563,0.0207131,
2,0,0,1,0,20819.4,0.0195758,0.019271,-0.813949,11,0.00263094,10,-1.56856e-05,-3.0894,0.536238,0.110026,-3.48888,0.019271,
2,0,0,1,0,20819.5,0.0180772,0.0177319,-0.804841,11,0.00250714,10,-1.42713e-05,-3.09429,0.512772,0.115061,-3.62369,0.0177319,
2,0,0,1,0,20819.7,0.0165796,0.016282,-0.802831,11,0.00238423,10,-1.30717e-05,-3.09538,0.780035,0.0756376,-2.37181,0.016282,
2,0,0,1,0,20819.8,0.0150821,0.0147712,-0.799525,11,0.00226182,10,-1.18099e-05,-3.09717,0.899916,0.0655617,-2.04217,0.0147712,
2,0,0,1,0,20820,0.013583,0.0132564,-0.79473,11,0.00213977,10,-1.05352e-05,-3.09978,0.647565,0.0911105,-2.82434,0.0132564,
2,0,0,1,0,20820.1,0.0120848,0.0117442,-0.78918,11,0.00201851,10,-9.2683e-06,-3.10282,0.652509,0.0904202,-2.79845,0.0117442,
2,0,0,1,0,20820.3,0.0105866,0.0102406,-0.787127,11,0.00189803,10,-8.06063e-06,-3.10396,1.07158,0.0550591,-1.69635,0.0102406,
2,0,0,1,0,20820.4,0.00908846,0.00878675,-0.784642,11,0.00177776,10,-6.89445e-06,-3.10533,1.70382,0.034628,-1.06109,0.00878675,
2,0,0,1,0,20820.6,0.00759027,0.00723538,-0.783535,11,0.00165772,10,-5.66917e-06,-3.10594,0.912892,0.0646298,-1.9727,0.00723538,
2,0,0,1,0,20820.7,0.00609208,0.00576035,-0.782528,11,0.00153806,10,-4.50763e-06,-3.1065,1.40736,0.0419224,-1.27908,0.00576035,
2,0,0,1,0,20820.9,0.00459389,0.0043288,-0.782439,11,0.00141882,10,-3.38702e-06,-3.10655,2.65584,0.0222152,-0.676119,0.0043288,
2,0,0,1,0,20821,0.0030948,0.00281143,-0.778283,11,0.00129942,10,-2.18809e-06,-3.10886,-1.05122,-0.056125,1.70996,0.00281143,
2,0,0,1,0,20821.2,0.00159728,0.00119906,-0.789315,11,0.00117877,10,-9.46438e-07,-3.10275, , , ,0.001199063,
2,0,0,1,0,20821.3,0.000199195,-0.000140177,-0.779847,11,0.00106689,10,1.09316e-07,-3.10799, , , ,-0.000140177,