File: Figure_codes/Fig_3-5/rawdata_trumpetplot_data/after 10th/20221101_1-115_003_TrumpetPlot_ParaChange_from10_every3_11_CV_C01_31.csv
mode,ox/red,error,control changes,counter inc.,time/s,control/V,Ewe/V,<I>/mA,cycle number,(Q-Qo)/C,I Range,P/W,log(|I|),Tafel slope mV/dec,alpha_eff,dI/d(E-IR),E-IR/V,
2,1,0,1,0,62268.6,2.44065e-05,-0.000344411,8.97551,32,0.0000000E+000,10,-3.09126e-06,-2.04694, , , ,-0.000344411,
2,1,0,1,0,62268.6,0.00214129,0.00176792,9.88503,32,4.85841e-05,10,1.74759e-05,-2.00502, , , ,0.00176792,
2,1,0,1,0,62268.6,0.0045495,0.00416868,10.5997,32,0.000110232,10,4.41867e-05,-1.97471,0.090045,0.655228,266.938,0.00416868,
2,1,0,1,0,62268.6,0.0069466,0.00661928,11.162,32,0.000175614,10,7.38847e-05,-1.95226,0.115196,0.51217,221.524,0.00661928,
2,1,0,1,0,62268.6,0.0093437,0.00893415,11.6552,32,0.000244125,10,0.000104129,-1.93348,0.133116,0.443221,200.808,0.00893415,
2,1,0,1,0,62268.6,0.0117408,0.0113741,12.1132,32,0.000315491,10,0.000137777,-1.91674,0.152212,0.387616,182.571,0.01137414,
2,1,0,1,0,62268.6,0.0141462,0.0137537,12.5342,32,0.000389494,10,0.000172392,-1.9019,0.170666,0.345705,168.565,0.0137537,
2,1,0,1,0,62268.6,0.0165433,0.0162096,12.9181,32,0.000465914,10,0.000209396,-1.8888,0.189613,0.311159,156.515,0.0162096,
2,1,0,1,0,62268.6,0.0189404,0.0185944,13.2748,32,0.000544539,10,0.000246838,-1.87697,0.21032,0.280525,145.196,0.0185944,
2,1,0,1,0,62268.6,0.0213486,0.0209782,13.625,32,0.000625291,10,0.000285828,-1.86566,0.226189,0.260843,138.398,0.02097824,
2,1,0,1,0,62268.6,0.0237457,0.0233631,13.9401,32,0.00070804,10,0.000325684,-1.85573,0.249805,0.236184,128.335,0.0233631,
2,1,0,1,0,62268.6,0.0261429,0.0258243,14.2393,32,0.000792613,10,0.000367721,-1.84651,0.262872,0.224444,124.706,0.0258243,
2,1,0,1,0,62268.6,0.02854,0.0281943,14.5414,32,0.00087898,10,0.000409985,-1.83739,0.279211,0.211309,119.714,0.0281943,
2,1,0,1,0,62268.6,0.0309482,0.0306089,14.819,32,0.000967119,10,0.000453593,-1.82918,0.301582,0.195635,112.964,0.0306089,
2,1,0,1,0,62268.6,0.0333453,0.0330043,15.0768,32,0.00105681,10,0.000497599,-1.82169,0.317854,0.18562,109.222,0.0330043,
2,1,0,1,0,62268.7,0.0357424,0.0353701,15.3369,32,0.00114806,10,0.000542466,-1.81426,0.330118,0.178724,106.891,0.0353701,
2,1,0,1,0,62268.7,0.0381478,0.0377433,15.587,32,0.00124088,10,0.000588305,-1.80724,0.348332,0.169379,102.942,0.0377433,
2,1,0,1,0,62268.7,0.0405449,0.0401387,15.8229,32,0.00133514,10,0.00063511,-1.80071,0.37272,0.158296,97.7443,0.0401387,
2,1,0,1,0,62268.7,0.042942,0.0425798,16.0579,32,0.00143081,10,0.000683742,-1.79431,0.368506,0.160106,100.343,0.0425798,
2,1,0,1,0,62268.7,0.0453391,0.0450039,16.2869,32,0.00152789,10,0.000732975,-1.78816,0.396115,0.148947,94.6398,0.0450039,
2,1,0,1,0,62268.7,0.0477473,0.0474036,16.5165,32,0.00162638,10,0.000782942,-1.78208,0.409586,0.144048,92.8005,0.0474036,
2,1,0,1,0,62268.7,0.0501444,0.049781,16.7323,32,0.00172616,10,0.000832951,-1.77644,0.425857,0.138544,90.5099,0.049781,
2,1,0,1,0,62268.7,0.0525415,0.0521712,16.9615,32,0.00182725,10,0.0008849,-1.77054,0.428678,0.137632,91.0803,0.0521712,
2,1,0,1,0,62268.7,0.0549469,0.0545783,17.1817,32,0.0019297,10,0.000937748,-1.76493,0.439555,0.134227,89.926,0.0545783,
2,1,0,1,0,62268.7,0.057344,0.0569653,17.384,32,0.00203343,10,0.000990281,-1.75985,0.447776,0.131762,89.4449,0.0569653,
2,1,0,1,0,62268.7,0.0597411,0.0593512,17.6053,32,0.0021384,10,0.00104489,-1.75436,0.455098,0.129642,89.0673,0.0593512,
2,1,0,1,0,62268.7,0.0621438,0.0618081,17.8282,32,0.00224472,10,0.00110193,-1.74889,0.460047,0.128248,89.1356,0.0618081,
2,1,0,1,0,62268.7,0.0645465,0.0641463,18.026,32,0.0023523,10,0.0011563,-1.7441,0.467558,0.126188,88.7948,0.0641463,
2,1,0,1,0,62268.7,0.0669436,0.0666012,18.2415,32,0.00246112,10,0.00121491,-1.73894,0.470421,0.125419,89.3032,0.0666012,
2,1,0,1,0,62268.7,0.0693407,0.0689606,18.4601,32,0.00257126,10,0.00127302,-1.73377,0.472902,0.124761,89.8508,0.0689606,
2,1,0,1,0,62268.7,0.0717489,0.0713666,18.6732,32,0.0026827,10,0.00133264,-1.72878,0.484121,0.12187,88.826,0.0713666,
2,1,0,1,0,62268.7,0.074146,0.0737685,18.8829,32,0.00279539,10,0.00139296,-1.72393,0.491664,0.120001,88.4639,0.0737685,
2,1,0,1,0,62268.8,0.0765431,0.0761756,19.1,32,0.00290937,10,0.00145496,-1.71897,0.493626,0.119524,89.1079,0.0761756,
2,1,0,1,0,62268.8,0.0789485,0.0785339,19.3234,32,0.00302465,10,0.00151754,-1.71392,0.504918,0.116851,88.0687,0.0785339,
2,1,0,1,0,62268.8,0.0813456,0.080993,19.5279,32,0.00314122,10,0.00158162,-1.70934,0.506129,0.116571,88.8573,0.080993,
2,1,0,1,0,62268.8,0.0837427,0.0833492,19.7434,32,0.00325905,10,0.0016456,-1.70458,0.494864,0.119225,91.8968,0.0833492,
2,1,0,1,0,62268.8,0.0861398,0.0857288,19.9665,32,0.00337821,10,0.0017117,-1.6997,0.504535,0.116939,91.0704,0.0857288,
2,1,0,1,0,62268.8,0.088548,0.0881624,20.1796,32,0.0034987,10,0.00177909,-1.69509,0.509837,0.115723,91.149,0.0881624,
2,1,0,1,0,62268.8,0.0909451,0.0905738,20.3967,32,0.00362043,10,0.0018474,-1.69044,0.515133,0.114534,91.2159,0.0905738,
2,1,0,1,0,62268.8,0.0933422,0.0929544,20.6229,32,0.00374353,10,0.00191699,-1.68565,0.513618,0.114871,92.422,0.0929544,
2,1,0,1,0,62268.8,0.0957477,0.0953944,20.8485,32,0.00386797,10,0.00198883,-1.68093,0.538122,0.109641,89.1632,0.09539438,
2,1,0,1,0,62268.8,0.0981448,0.0977824,21.0568,32,0.00399369,10,0.00205899,-1.67661,0.536606,0.10995,90.3629,0.0977824,
2,1,0,1,0,62268.8,0.100542,0.100178,21.2791,32,0.00412071,10,0.0021317,-1.67205,0.544785,0.1083,89.9092,0.100178,
2,1,0,1,0,62268.8,0.102939,0.102603,21.4872,32,0.00424902,10,0.00220465,-1.66782,0.565156,0.104396,87.5503,0.102603,
2,1,0,1,0,62268.8,0.105347,0.104992,21.7115,32,0.00437864,10,0.00227953,-1.66331,0.560991,0.105171,89.0729,0.104992,
2,1,0,1,0,62268.8,0.107744,0.107378,21.921,32,0.00450954,10,0.00235384,-1.65914,0.570105,0.10349,88.5048,0.107378,
2,1,0,1,0,62268.8,0.110141,0.109716,22.1265,32,0.0046417,10,0.00242764,-1.65509,0.557683,0.105795,91.4265,0.109716,
2,1,0,1,0,62268.8,0.11255,0.112124,22.3572,32,0.00477514,10,0.00250679,-1.65058,0.534938,0.110293,96.2401,0.112124,
2,1,0,1,0,62268.9,0.114947,0.114539,22.5796,32,0.00490998,10,0.00258624,-1.64628,0.517719,0.113961,100.484,0.114539,
2,1,0,1,0,62268.9,0.117344,0.116958,22.8301,32,0.00504624,10,0.00267016,-1.64149,0.526046,0.112157,99.9176,0.116958,
2,1,0,1,0,62268.9,0.119744,0.119389,23.0719,32,0.00518399,10,0.00275454,-1.63692,0.53058,0.111199,100.115,0.119389,
2,1,0,1,0,62268.9,0.122146,0.121769,23.311,32,0.00532316,10,0.00283855,-1.63244,0.5241,0.112574,102.447,0.121769,
2,1,0,1,0,62268.9,0.124543,0.124149,23.563,32,0.00546381,10,0.00292534,-1.62777,0.521514,0.113132,104.014,0.124149,
2,1,0,1,0,62268.9,0.126941,0.12658,23.8131,32,0.00560598,10,0.00301426,-1.62318,0.512523,0.115117,107.01,0.12658,
2,1,0,1,0,62268.9,0.129349,0.128964,24.076,32,0.00574965,10,0.00310493,-1.61842,0.504407,0.116969,109.95,0.128964,
2,1,0,1,0,62268.9,0.131746,0.131353,24.3467,32,0.00589493,10,0.00319801,-1.61356,0.497512,0.11859,112.667,0.131353,
2,1,0,1,0,62268.9,0.134143,0.133807,24.6132,32,0.00604184,10,0.00329341,-1.60883,0.49474,0.119254,114.561,0.133807,
2,1,0,1,0,62268.9,0.13654,0.136186,24.8789,32,0.00619034,10,0.00338816,-1.60417,0.505491,0.116718,113.363,0.136186,
2,1,0,1,0,62268.9,0.138945,0.138613,25.1632,32,0.00634052,10,0.00348795,-1.59923,0.502201,0.117483,115.353,0.138613,
2,1,0,1,0,62268.9,0.141343,0.140967,25.4426,32,0.00649236,10,0.00358658,-1.59444,0.514173,0.114747,113.91,0.140967,
2,1,0,1,0,62268.9,0.14374,0.143353,25.7172,32,0.00664586,10,0.00368664,-1.58978,0.524451,0.112499,112.878,0.143353,
2,1,0,1,0,62268.9,0.146148,0.145786,25.9929,32,0.00680103,10,0.0037894,-1.58514,0.524307,0.112529,114.141,0.145786,
2,1,0,1,0,62268.9,0.148545,0.148163,26.2608,32,0.0069578,10,0.0038909,-1.58069,0.55714,0.105898,108.521,0.148163,
2,1,0,1,0,62268.9,0.150942,0.150616,26.5253,32,0.00711622,10,0.00399514,-1.57634,0.562608,0.104869,108.528,0.150616,
2,1,0,1,0,62268.9,0.153345,0.153004,26.7796,32,0.00727615,10,0.00409739,-1.5722,0.581037,0.101543,106.142,0.153004,
2,1,0,1,0,62269,0.155747,0.155372,27.0395,32,0.00743762,10,0.00420118,-1.568,0.592761,0.0995341,104.983,0.155372,
2,1,0,1,0,62269,0.158144,0.157816,27.29,32,0.00760063,10,0.00430681,-1.564,0.628662,0.0938501,99.8617,0.157816,
2,1,0,1,0,62269,0.160542,0.160156,27.509,32,0.00776504,10,0.00440572,-1.56053,0.671376,0.0878792,94.3438,0.160156,
2,1,0,1,0,62269,0.162947,0.162587,27.7348,32,0.00793081,10,0.00450933,-1.55697,0.715952,0.0824078,89.1463,0.162587,
2,1,0,1,0,62269,0.165344,0.164977,27.9394,32,0.00809789,10,0.00460936,-1.55378,0.794837,0.074229,80.8888,0.164977,
2,1,0,1,0,62269,0.167741,0.167378,28.1236,32,0.00826613,10,0.00470726,-1.55093,0.887931,0.0664466,72.8964,0.167378,
2,1,0,1,0,62269,0.170149,0.169798,28.2991,32,0.00843541,10,0.00480513,-1.54823,1.02996,0.0572838,63.2061,0.169798,
2,1,0,1,0,62269,0.172547,0.172152,28.4361,32,0.00860563,10,0.00489532,-1.54613,1.24599,0.047352,52.4893,0.172152,
2,1,0,1,0,62269,0.174944,0.174578,28.5497,32,0.00877661,10,0.00498415,-1.5444,1.69432,0.0348223,38.753,0.174578,
2,1,0,1,0,62269,0.177341,0.177045,28.6257,32,0.00894814,10,0.00506803,-1.54324,2.63951,0.0223526,24.9475,0.177045,
2,1,0,1,0,62269,0.179746,0.179391,28.6738,32,0.00912004,10,0.00514383,-1.54251,4.85347,0.0121562,13.5884,0.179391,
2,1,0,1,0,62269,0.182143,0.181757,28.6892,32,0.00929213,10,0.00521447,-1.54228,-17.2352,-0.00342324,-3.82695,0.181757,
2,1,0,1,0,62269,0.18454,0.184203,28.6509,32,0.00946419,10,0.00527759,-1.54286,-3.54651,-0.0166361,-18.5862,0.184203,
2,1,0,1,0,62269,0.186949,0.186567,28.5949,32,0.00963593,10,0.00533487,-1.54371,-1.95771,-0.0301372,-33.5939,0.186567,
2,1,0,1,0,62269,0.189346,0.18899,28.5022,32,0.00980723,10,0.00538664,-1.54512,-1.31064,-0.0450163,-49.9947,0.18899,
2,1,0,1,0,62269,0.191743,0.191328,28.3531,32,0.0099778,10,0.00542476,-1.5474,-1.00054,-0.0589682,-65.1949,0.191328,
2,1,0,1,0,62269,0.19414,0.193734,28.1761,32,0.0101474,10,0.00545867,-1.55012,-0.814616,-0.0724268,-79.5708,0.193734,
2,1,0,1,0,62269.1,0.196548,0.196169,27.9798,32,0.0103159,10,0.00548876,-1.55316,-0.687935,-0.0857639,-93.5244,0.196169,
2,1,0,1,0,62269.1,0.198945,0.198568,27.7301,32,0.010483,10,0.00550631,-1.55705,-0.562399,-0.104908,-113.408,0.198568,
2,1,0,1,0,62269.1,0.201342,0.201011,27.4512,32,0.0106485,10,0.00551798,-1.56144,-0.513553,-0.114886,-122.958,0.201011,
2,1,0,1,0,62269.1,0.203748,0.203377,27.1416,32,0.0108123,10,0.00551997,-1.56636,-0.470735,-0.125336,-132.668,0.203377,
2,1,0,1,0,62269.1,0.206145,0.205764,26.8138,32,0.0109741,10,0.00551731,-1.57164,-0.42551,-0.138657,-144.972,0.205764,
2,1,0,1,0,62269.1,0.208542,0.208181,26.455,32,0.0111339,10,0.00550745,-1.57749,-0.401861,-0.146817,-151.495,0.208181,
2,1,0,1,0,62269.1,0.210939,0.210559,26.0665,32,0.0112915,10,0.00548853,-1.58392,-0.378055,-0.156062,-158.733,0.210559,
2,1,0,1,0,62269.1,0.213347,0.212953,25.6891,32,0.0114468,10,0.00547058,-1.59025,-0.360427,-0.163695,-163.944,0.212953,
2,1,0,1,0,62269.1,0.215744,0.215383,25.2769,32,0.0115996,10,0.0054442,-1.59728,-0.335664,-0.175771,-173.323,0.215383,
2,1,0,1,0,62269.1,0.218141,0.217816,24.854,32,0.01175,10,0.00541361,-1.6046,-0.330497,-0.178519,-173.211,0.217816,
2,1,0,1,0,62269.1,0.220547,0.220176,24.4529,32,0.0118978,10,0.00538394,-1.61167,-0.323106,-0.182603,-174.129,0.220176,
2,1,0,1,0,62269.1,0.222944,0.222617,24.0243,32,0.0120432,10,0.0053482,-1.61935,-0.314421,-0.187646,-175.891,0.222617,
2,1,0,1,0,62269.1,0.225341,0.225014,23.5987,32,0.0121861,10,0.00531005,-1.62711,-0.313946,-0.18793,-173.185,0.225014,
2,1,0,1,0,62269.1,0.227744,0.227429,23.1938,32,0.0123264,10,0.00527494,-1.63463,-0.314763,-0.187443,-169.641,0.227429,
2,1,0,1,0,62269.1,0.230146,0.229793,22.7839,32,0.0124643,10,0.00523558,-1.64237,-0.314805,-0.187417,-166.655,0.229793,
2,1,0,1,0,62269.1,0.232543,0.232191,22.3832,32,0.0125998,10,0.00519717,-1.65008,-0.311491,-0.189412,-165.512,0.232191,
2,1,0,1,0,62269.2,0.234941,0.234591,21.997,32,0.0127329,10,0.00516028,-1.65764,-0.323615,-0.182316,-156.602,0.234591,
2,1,0,1,0,62269.2,0.237349,0.237043,21.6267,32,0.0128637,10,0.00512648,-1.66501,-0.324838,-0.181629,-153.289,0.2370435,
2,1,0,1,0,62269.2,0.239746,0.23939,21.2612,32,0.0129923,10,0.00508972,-1.67241,-0.32229,-0.183065,-151.926,0.23939,
2,1,0,1,0,62269.2,0.242143,0.241762,20.8965,32,0.0131187,10,0.00505198,-1.67993,-0.333684,-0.176814,-144.365,0.241762,
2,1,0,1,0,62269.2,0.244548,0.244196,20.5773,32,0.0132431,10,0.00502489,-1.68661,-0.342253,-0.172387,-138.433,0.244196,
2,1,0,1,0,62269.2,0.246946,0.246571,20.2446,32,0.0133655,10,0.00499174,-1.69369,-0.346496,-0.170276,-134.522,0.246571,
2,1,0,1,0,62269.2,0.249343,0.248987,19.9215,32,0.013486,10,0.00496019,-1.70068,-0.355648,-0.165894,-129.106,0.248987,
2,1,0,1,0,62269.2,0.25174,0.251361,19.6252,32,0.0136046,10,0.00493301,-1.70719,-0.37315,-0.158113,-121.149,0.2513611,
2,1,0,1,0,62269.2,0.254148,0.253787,19.3485,32,0.0137215,10,0.00491041,-1.71335,-0.384501,-0.153446,-115.841,0.253787,
2,1,0,1,0,62269.2,0.256545,0.256219,19.062,32,0.0138367,10,0.00488405,-1.71983,-0.382543,-0.154231,-114.812,0.256219,
2,1,0,1,0,62269.2,0.258942,0.258632,18.7961,32,0.0139502,10,0.00486127,-1.72593,-0.404943,-0.145699,-106.963,0.2586323,
2,1,0,1,0,62269.2,0.261348,0.261042,18.555,32,0.0140622,10,0.00484362,-1.73154,-0.41436,-0.142388,-103.096,0.261042,
2,1,0,1,0,62269.2,0.263745,0.263368,18.3035,32,0.0141728,10,0.00482056,-1.73747,-0.423454,-0.13933,-99.5735,0.2633681,
2,1,0,1,0,62269.2,0.266142,0.265773,18.0728,32,0.0142819,10,0.00480328,-1.74297,-0.445922,-0.13231,-93.3725,0.265773,
2,1,0,1,0,62269.2,0.268539,0.268164,17.851,32,0.0143896,10,0.00478701,-1.74834,-0.457724,-0.128899,-89.8393,0.268164,
2,1,0,1,0,62269.2,0.270947,0.270628,17.6491,32,0.0144961,10,0.00477635,-1.75328,-0.468043,-0.126057,-86.7802,0.270628,
2,1,0,1,0,62269.2,0.273344,0.272969,17.4388,32,0.0146013,10,0.00476025,-1.75848,-0.472933,-0.124753,-84.9327,0.272969,
2,1,0,1,0,62269.3,0.275741,0.275411,17.2372,32,0.0147053,10,0.00474732,-1.76353,-0.500456,-0.117893,-79.3805,0.2754111,
2,1,0,1,0,62269.3,0.278149,0.277763,17.0664,32,0.0148082,10,0.00474041,-1.76786,-0.51827,-0.11384,-75.7732,0.2777631,
2,1,0,1,0,62269.3,0.280547,0.280206,16.8715,32,0.01491,10,0.0047275,-1.77285,-0.526534,-0.112054,-73.84,0.280206,
2,1,0,1,0,62269.3,0.282944,0.282586,16.6975,32,0.0150107,10,0.00471849,-1.77735,-0.551681,-0.106946,-69.7493,0.282586,
2,1,0,1,0,62269.3,0.285344,0.284997,16.5411,32,0.0151104,10,0.00471416,-1.78144,-0.55905,-0.105536,-68.1257,0.284997,
2,1,0,1,0,62269.3,0.287746,0.287361,16.3776,32,0.0152091,10,0.00470629,-1.78575,-0.583482,-0.101117,-64.6564,0.287361,
2,1,0,1,0,62269.3,0.290143,0.289792,16.2185,32,0.0153069,10,0.00469999,-1.78999,-0.591653,-0.0997206,-63.1598,0.289792,
2,1,0,1,0,62269.3,0.29254,0.292224,16.0801,32,0.0154038,10,0.00469899,-1.79371,-0.620907,-0.0950222,-59.6316,0.292224,
2,1,0,1,0,62269.3,0.294949,0.294574,15.9407,32,0.0154998,10,0.0046957,-1.79749,-0.633186,-0.0931795,-57.9712,0.294574,
2,1,0,1,0,62269.3,0.297346,0.296984,15.8035,32,0.015595,10,0.00469338,-1.80125,-0.658027,-0.0896619,-55.3774,0.296984,
2,1,0,1,0,62269.3,0.299621,0.29928,15.6691,32,0.0156847,10,0.00468944,-1.80496,-0.103274,-0.571295,-341.541,0.29928,
2,1,0,1,0,62269.3,0.299962,0.299746,15.5451,32,0.0157035,10,0.00465958,-1.80841,0.0157195,3.7533,2024.88,0.299746,
2,1,0,1,0,62269.3,0.297903,0.297617,12.8695,32,0.0157748,10,0.00383017,-1.89044,0.0274574,2.14878,1062.5,0.297617,
2,1,0,1,0,62269.3,0.295506,0.295156,10.7143,32,0.0158451,10,0.00316239,-1.97004,0.0305141,1.93353,821.264,0.295156,
2,1,0,1,0,62269.3,0.293101,0.292813,8.96844,32,0.0159038,10,0.00262608,-2.04728,0.0305973,1.92828,678.917,0.292813,
2,1,0,1,0,62269.3,0.290704,0.290378,7.47172,32,0.0159529,10,0.00216962,-2.12658,0.029299,2.01372,587.139,0.290378,
2,1,0,1,0,62269.3,0.288307,0.287963,6.1529,32,0.0159935,10,0.00177181,-2.21092,0.027352,2.15706,516.321,0.287963,
2,1,0,1,0,62269.3,0.28591,0.285562,4.9913,32,0.0160268,10,0.00142533,-2.30179,0.0248704,2.3723,458.115,0.285562,
2,1,0,1,0,62269.4,0.283501,0.283176,3.9422,32,0.0160534,10,0.00111634,-2.40426,0.0213389,2.76491,419.182,0.283176,
2,1,0,1,0,62269.4,0.281104,0.280794,2.99921,32,0.0160741,10,0.00084216,-2.52299,0.0178597,3.30353,375.518,0.2807937,
2,1,0,1,0,62269.4,0.278707,0.278403,2.14491,32,0.0160894,10,0.00059715,-2.66859,0.0136533,4.32129,340.515,0.278403,
2,1,0,1,0,62269.4,0.276302,0.276028,1.36221,32,0.0160998,10,0.000376008,-2.86576,0.0084853,6.9532,312.138,0.276028,
2,1,0,1,0,62269.4,0.273905,0.273568,0.655823,32,0.0161058,10,0.000179412,-3.18321,0.00730447,8.07725,286.666,0.273568,
2,1,0,1,0,62269.4,0.271508,0.271163,-0.00667473,32,0.0161076,10,-1.80994e-06,-5.17557,0.166978,0.35334,263.038,0.271163,
2,0,0,1,0,62269.4,0.269105,0.268752,-0.61723,32,0.0161057,10,-0.000165882,-3.20955,-0.00792846,-7.44154,242.854,0.268752,
2,0,0,1,0,62269.4,0.266702,0.266392,-1.1686,32,0.0161003,10,-0.000311306,-2.93233,-0.0098565,-5.9859,226.563,0.266392,
2,0,0,1,0,62269.4,0.264305,0.26395,-1.6876,32,0.0160916,10,-0.000445443,-2.77273,-0.017146,-3.44103,209.637,0.26395,
2,0,0,1,0,62269.4,0.261908,0.261575,-2.17724,32,0.01608,10,-0.000569511,-2.66209,-0.0245168,-2.40651,195.357,0.261575,
2,0,0,1,0,62269.4,0.2595,0.259139,-2.62373,32,0.0160655,10,-0.000679912,-2.58108,-0.0321819,-1.83333,182.997,0.259139,
2,0,0,1,0,62269.4,0.257103,0.256733,-3.05009,32,0.0160485,10,-0.000783058,-2.51569,-0.0406301,-1.45213,169.27,0.256733,
2,0,0,1,0,62269.4,0.254706,0.254346,-3.43994,32,0.0160289,10,-0.000874935,-2.46345,-0.0493799,-1.19482,158.219,0.254346,
2,0,0,1,0,62269.4,0.2523,0.251922,-3.80976,32,0.0160071,10,-0.000959762,-2.4191,-0.0583245,-1.01158,149.004,0.251922,
2,0,0,1,0,62269.4,0.249903,0.249565,-4.15297,32,0.0159832,10,-0.00103643,-2.38164,-0.0668862,-0.882095,141.891,0.249565,
2,0,0,1,0,62269.4,0.247506,0.247156,-4.48833,32,0.0159572,10,-0.00110932,-2.34792,-0.0766094,-0.770141,134.078,0.2471555,
2,0,0,1,0,62269.5,0.245109,0.244786,-4.79578,32,0.0159293,10,-0.00117394,-2.31914,-0.087074,-0.677584,126.083,0.244786,
2,0,0,1,0,62269.5,0.242701,0.242334,-5.095,32,0.0158996,10,-0.00123469,-2.29286,-0.0970046,-0.608218,120.38,0.242334,
2,0,0,1,0,62269.5,0.240304,0.239964,-5.37496,32,0.0158682,10,-0.0012898,-2.26962,-0.108614,-0.543208,113.56,0.239964,
2,0,0,1,0,62269.5,0.237906,0.237567,-5.64397,32,0.0158351,10,-0.00134082,-2.24842,-0.119552,-0.49351,108.152,0.237567,
2,0,0,1,0,62269.5,0.235501,0.235142,-5.89318,32,0.0158005,10,-0.00138574,-2.22965,-0.131413,-0.448965,103.002,0.235142,
2,0,0,1,0,62269.5,0.233104,0.23279,-6.13406,32,0.0157644,10,-0.00142795,-2.21225,-0.141284,-0.417598,99.7297,0.2327902,
2,0,0,1,0,62269.5,0.230707,0.230387,-6.3641,32,0.0157269,10,-0.00146621,-2.19626,-0.153956,-0.383226,94.95,0.2303873,
2,0,0,1,0,62269.5,0.22831,0.227948,-6.58498,32,0.015688,10,-0.00150103,-2.18145,-0.169254,-0.348589,89.4314,0.227948,
2,0,0,1,0,62269.5,0.225902,0.225535,-6.7943,32,0.0156478,10,-0.00153235,-2.16786,-0.178937,-0.329725,87.3062,0.2255349,
2,0,0,1,0,62269.5,0.223504,0.223147,-7.00539,32,0.0156064,10,-0.00156323,-2.15457,-0.193204,-0.305377,83.3028,0.223147,
2,0,0,1,0,62269.5,0.221107,0.220802,-7.1974,32,0.0155638,10,-0.0015892,-2.14282,-0.205867,-0.286592,80.4265,0.220802,
2,0,0,1,0,62269.5,0.218699,0.218387,-7.39171,32,0.01552,10,-0.00161425,-2.13125,-0.218259,-0.27032,77.8329,0.218387,
2,0,0,1,0,62269.5,0.216302,0.215956,-7.56507,32,0.0154751,10,-0.00163372,-2.12119,-0.228866,-0.257792,76.1026,0.215956,
2,0,0,1,0,62269.5,0.213905,0.213565,-7.74591,32,0.0154291,10,-0.00165426,-2.11093,-0.244762,-0.241051,72.8432,0.213565,
2,0,0,1,0,62269.5,0.211505,0.211189,-7.91174,32,0.0153821,10,-0.00167087,-2.10173,-0.2612,-0.225881,69.7704,0.211189,
2,0,0,1,0,62269.5,0.209102,0.208741,-8.08304,32,0.0153341,10,-0.00168726,-2.09243,-0.266282,-0.22157,69.8912,0.208741,
2,0,0,1,0,62269.5,0.206705,0.206333,-8.25583,32,0.0152851,10,-0.00170345,-2.08324,-0.285869,-0.206388,66.3264,0.206333,
2,0,0,1,0,62269.6,0.204308,0.203931,-8.40692,32,0.0152351,10,-0.00171443,-2.07536,-0.294924,-0.200051,65.5913,0.203931,
2,0,0,1,0,62269.6,0.2019,0.201538,-8.55957,32,0.0151842,10,-0.00172508,-2.06755,-0.307502,-0.191869,64.0916,0.201538,
2,0,0,1,0,62269.6,0.199503,0.199169,-8.71487,32,0.0151323,10,-0.00173573,-2.05974,-0.323195,-0.182553,61.9897,0.199169,
2,0,0,1,0,62269.6,0.197106,0.196742,-8.85646,32,0.0150796,10,-0.00174243,-2.05274,-0.335674,-0.175766,60.7733,0.196742,
2,0,0,1,0,62269.6,0.194709,0.194343,-8.99264,32,0.015026,10,-0.00174766,-2.04611,-0.343677,-0.171673,60.3353,0.194343,
2,0,0,1,0,62269.6,0.192303,0.191947,-9.15186,32,0.0149715,10,-0.00175667,-2.03849,-0.352132,-0.167551,59.7624,0.191947,
2,0,0,1,0,62269.6,0.189906,0.189554,-9.28634,32,0.0149162,10,-0.00176027,-2.03216,-0.374681,-0.157467,57.0428,0.189554,
2,0,0,1,0,62269.6,0.187509,0.187158,-9.42023,32,0.0148601,10,-0.00176307,-2.02594,-0.36903,-0.159879,58.7902,0.187158,
2,0,0,1,0,62269.6,0.185101,0.184757,-9.56447,32,0.0148031,10,-0.0017671,-2.01934,-0.382067,-0.154423,57.5984,0.184757,
2,0,0,1,0,62269.6,0.182704,0.182299,-9.70164,32,0.0147453,10,-0.0017686,-2.01315,-0.398614,-0.148013,56.0143,0.182299,
2,0,0,1,0,62269.6,0.180307,0.179965,-9.83015,32,0.0146867,10,-0.00176908,-2.00744,-0.400003,-0.147499,56.6229,0.179965,
2,0,0,1,0,62269.6,0.177904,0.177575,-9.96669,32,0.0146273,10,-0.00176983,-2.00145,-0.396166,-0.148928,57.9621,0.177575,
2,0,0,1,0,62269.6,0.175501,0.175185,-10.1089,32,0.014567,10,-0.00177093,-1.99529,-0.399039,-0.147855,58.3086,0.1751847,
2,0,0,1,0,62269.6,0.173104,0.172745,-10.2487,32,0.014506,10,-0.00177041,-1.98933,-0.428991,-0.137532,54.9732,0.172745,
2,0,0,1,0,62269.6,0.170707,0.170357,-10.3764,32,0.0144441,10,-0.00176768,-1.98395,-0.410058,-0.143882,58.3363,0.170357,
2,0,0,1,0,62269.6,0.168302,0.167906,-10.5306,32,0.0143814,10,-0.00176815,-1.97755,-0.408831,-0.144314,59.2608,0.167906,
2,0,0,1,0,62269.6,0.165905,0.165538,-10.6713,32,0.0143177,10,-0.0017665,-1.97178,-0.41168,-0.143315,59.6586,0.165538,
2,0,0,1,0,62269.7,0.163507,0.163128,-10.8096,32,0.0142533,10,-0.00176335,-1.96619,-0.396687,-0.148732,62.8284,0.163128,
2,0,0,1,0,62269.7,0.161099,0.160736,-10.9738,32,0.0141879,10,-0.00176389,-1.95964,-0.39108,-0.150864,64.5747,0.160736,
2,0,0,1,0,62269.7,0.158702,0.158327,-11.1272,32,0.0141216,10,-0.00176174,-1.95361,-0.385146,-0.153189,66.502,0.158327,
2,0,0,1,0,62269.7,0.156305,0.1559,-11.285,32,0.0140544,10,-0.00175933,-1.9475,-0.381633,-0.154599,68.1668,0.1559,
2,0,0,1,0,62269.7,0.153908,0.153522,-11.453,32,0.0139862,10,-0.00175828,-1.94108,-0.357564,-0.165005,73.8306,0.153522,
2,0,0,1,0,62269.7,0.151503,0.151139,-11.64,32,0.0139169,10,-0.00175926,-1.93405,-0.351195,-0.167998,76.3438,0.151139,
2,0,0,1,0,62269.7,0.149105,0.148754,-11.8346,32,0.0138464,10,-0.00176044,-1.92685,-0.337179,-0.174981,80.8016,0.148754,
2,0,0,1,0,62269.7,0.146708,0.14638,-12.0282,32,0.0137748,10,-0.00176069,-1.9198,-0.314973,-0.187318,88.0845,0.14638,
2,0,0,1,0,62269.7,0.1443,0.143961,-12.2545,32,0.013702,10,-0.00176417,-1.9117,-0.290044,-0.203417,97.402,0.143961,
2,0,0,1,0,62269.7,0.141903,0.141574,-12.4989,32,0.0136277,10,-0.00176952,-1.90313,-0.277999,-0.212231,103.525,0.141574,
2,0,0,1,0,62269.7,0.139506,0.139159,-12.7362,32,0.013552,10,-0.00177237,-1.89496,-0.263638,-0.223792,111.563,0.1391595,
2,0,0,1,0,62269.7,0.137109,0.136781,-13.0213,32,0.0134747,10,-0.00178107,-1.88534,-0.246392,-0.239456,121.963,0.136781,
2,0,0,1,0,62269.7,0.134701,0.134318,-13.3362,32,0.0133955,10,-0.00179129,-1.87497,-0.229333,-0.257268,133.975,0.134318,
2,0,0,1,0,62269.7,0.132303,0.131948,-13.6613,32,0.0133145,10,-0.00180257,-1.86451,-0.218798,-0.269655,144.095,0.131948,
2,0,0,1,0,62269.7,0.129906,0.129612,-14.0258,32,0.0132315,10,-0.00181791,-1.85307,-0.204631,-0.288324,158.103,0.1296116,
2,0,0,1,0,62269.7,0.127501,0.12715,-14.4337,32,0.013146,10,-0.00183525,-1.84062,-0.19541,-0.301929,170.144,0.12715,
2,0,0,1,0,62269.8,0.125104,0.12474,-14.8487,32,0.0130582,10,-0.00185222,-1.82831,-0.193192,-0.305395,177.099,0.12474,
2,0,0,1,0,62269.8,0.122707,0.122365,-15.2841,32,0.0129678,10,-0.00187023,-1.81576,-0.185007,-0.318907,190.454,0.122365,
2,0,0,1,0,62269.8,0.12031,0.119972,-15.7512,32,0.0128746,10,-0.00188971,-1.80269,-0.183427,-0.321654,197.83,0.1199725,
2,0,0,1,0,62269.8,0.117901,0.117555,-16.2396,32,0.0127786,10,-0.00190904,-1.78942,-0.185579,-0.317924,201.419,0.117555,
2,0,0,1,0,62269.8,0.115504,0.115119,-16.7294,32,0.0126797,10,-0.00192587,-1.77652,-0.186775,-0.315888,206.196,0.115119,
2,0,0,1,0,62269.8,0.113107,0.112764,-17.2227,32,0.0125778,10,-0.0019421,-1.7639,-0.187362,-0.314899,211.727,0.112764,
2,0,0,1,0,62269.8,0.110702,0.110379,-17.7404,32,0.0124728,10,-0.00195817,-1.75104,-0.190861,-0.309125,213.815,0.110379,
2,0,0,1,0,62269.8,0.108305,0.107979,-18.2481,32,0.0123648,10,-0.00197042,-1.73878,-0.198325,-0.297492,211.696,0.107979,
2,0,0,1,0,62269.8,0.105908,0.105571,-18.7472,32,0.0122538,10,-0.00197916,-1.72706,-0.205677,-0.286858,209.835,0.1055711,
2,0,0,1,0,62269.8,0.103505,0.103192,-19.2621,32,0.0121397,10,-0.00198769,-1.7153,-0.215849,-0.273339,205.063,0.103192,
2,0,0,1,0,62269.8,0.101102,0.100811,-19.7244,32,0.0120227,10,-0.00198844,-1.705,-0.222539,-0.265122,204.096,0.100811,
2,0,0,1,0,62269.8,0.0987052,0.0984197,-20.2123,32,0.0119028,10,-0.00198929,-1.69438,-0.2309,-0.255522,201.572,0.0984197,
2,0,0,1,0,62269.8,0.0963081,0.0960264,-20.71,32,0.01178,10,-0.00198871,-1.68382,-0.238962,-0.246901,199.359,0.0960264,
2,0,0,1,0,62269.8,0.0938999,0.0935472,-21.1887,32,0.0116543,10,-0.00198214,-1.6739,-0.24896,-0.236986,195.669,0.0935472,
2,0,0,1,0,62269.8,0.0915028,0.0911793,-21.634,32,0.0115258,10,-0.00197257,-1.66486,-0.272713,-0.216345,182.533,0.0911793,
2,0,0,1,0,62269.8,0.0891057,0.0887902,-22.0769,32,0.0113946,10,-0.00196022,-1.65606,-0.279073,-0.211414,182.02,0.0887902,
2,0,0,1,0,62269.8,0.0867002,0.0864191,-22.5054,32,0.0112608,10,-0.0019449,-1.64771,-0.303065,-0.194677,170.755,0.0864191,
2,0,0,1,0,62269.9,0.0843031,0.0839812,-22.9029,32,0.0111245,10,-0.00192341,-1.64011,-0.324117,-0.182033,162.495,0.0839812,
2,0,0,1,0,62269.9,0.081906,0.0816356,-23.2741,32,0.0109859,10,-0.00189999,-1.63313,-0.347516,-0.169776,154.163,0.0816356,
2,0,0,1,0,62269.9,0.0795089,0.0792221,-23.643,32,0.0108451,10,-0.00187305,-1.6263,-0.374327,-0.157616,145.313,0.0792221,
2,0,0,1,0,62269.9,0.0771007,0.0767864,-23.9878,32,0.0107022,10,-0.00184194,-1.62001,-0.402967,-0.146414,136.895,0.0767864,
2,0,0,1,0,62269.9,0.0747036,0.07441,-24.2932,32,0.0105573,10,-0.00180765,-1.61452,-0.440254,-0.134014,127.007,0.07441,
2,0,0,1,0,62269.9,0.0723065,0.0720135,-24.5885,32,0.0104106,10,-0.0017707,-1.60927,-0.47512,-0.124179,119.082,0.0720135,
2,0,0,1,0,62269.9,0.0699011,0.0695756,-24.8757,32,0.0102622,10,-0.00173074,-1.60422,-0.519174,-0.113642,110.191,0.0695756,
2,0,0,1,0,62269.9,0.067504,0.0671855,-25.1182,32,0.0101122,10,-0.00168758,-1.60001,-0.56915,-0.103663,101.561,0.0671855,
2,0,0,1,0,62269.9,0.0651069,0.0648027,-25.3547,32,0.00996073,10,-0.00164305,-1.59594,-0.624715,-0.0944431,93.3867,0.0648027,
2,0,0,1,0,62269.9,0.0627098,0.0624136,-25.5586,32,0.00980794,10,-0.0015952,-1.59246,-0.710697,-0.0830171,82.7557,0.0624136,
2,0,0,1,0,62269.9,0.0603016,0.059945,-25.7499,32,0.00965393,10,-0.00154357,-1.58923,-0.81547,-0.0723509,72.6625,0.059945,
2,0,0,1,0,62269.9,0.0579045,0.0575718,-25.9106,32,0.00949891,10,-0.00149172,-1.58652,-0.947469,-0.0622712,62.9448,0.0575718,
2,0,0,1,0,62269.9,0.0555074,0.0552082,-26.0606,32,0.00934297,10,-0.00143876,-1.58402,-1.03571,-0.0569656,57.9063,0.0552082,
2,0,0,1,0,62269.9,0.0530992,0.0526876,-26.2056,32,0.00918618,10,-0.00138071,-1.58161,-1.22214,-0.0482761,49.3015,0.0526876,
2,0,0,1,0,62269.9,0.0507021,0.0503706,-26.3021,32,0.00902867,10,-0.00132485,-1.58001,-1.38611,-0.0425651,43.6766,0.0503706,
2,0,0,1,0,62269.9,0.048305,0.0479751,-26.395,32,0.00887059,10,-0.0012663,-1.57848,-1.58986,-0.0371101,38.2226,0.0479751,
2,0,0,1,0,62269.9,0.0459051,0.045533,-26.4877,32,0.00871193,10,-0.00120606,-1.57696,-1.89155,-0.0311913,32.2164,0.045533,
2,0,0,1,0,62270,0.0435024,0.0431736,-26.5467,32,0.00855278,10,-0.00114612,-1.57599,-2.2907,-0.0257563,26.6797,0.0431736,
2,0,0,1,0,62270,0.0411053,0.0407559,-26.6026,32,0.00839331,10,-0.00108421,-1.57508,-2.76559,-0.0213336,22.1521,0.0407559,
2,0,0,1,0,62270,0.0387082,0.0383244,-26.6584,32,0.0082335,10,-0.00102166,-1.57417,-3.40034,-0.0173512,18.0433,0.0383244,
2,0,0,1,0,62270,0.0363,0.0359194,-26.6976,32,0.00807342,10,-0.000958963,-1.57353,-4.68698,-0.0125881,13.1101,0.0359194,
2,0,0,1,0,62270,0.0339029,0.0335515,-26.7192,32,0.00791318,10,-0.000896468,-1.57318,-6.3226,-0.0093316,9.72903,0.0335515,
2,0,0,1,0,62270,0.0315058,0.0311794,-26.7447,32,0.00775278,10,-0.000833883,-1.57276,-8.56749,-0.00688649,7.18478,0.0311794,
2,0,0,1,0,62270,0.0291087,0.0287542,-26.7515,32,0.00759231,10,-0.000769219,-1.57265,-25.9252,-0.00227578,2.37554,0.0287542,
2,0,0,1,0,62270,0.0267033,0.0263821,-26.754,32,0.00743178,10,-0.000705827,-1.57261,-174.715,-0.000337692,0.352487,0.0263821,
2,0,0,1,0,62270,0.0243062,0.0239877,-26.7405,32,0.00727127,10,-0.000641442,-1.57283,16.5029,0.00357512,-3.73146,0.0239877,
2,0,0,1,0,62270,0.0219091,0.0215699,-26.7413,32,0.00711082,10,-0.000576809,-1.57282,12.2938,0.00479915,-5.00741,0.0215699,
2,0,0,1,0,62270,0.0195009,0.0191713,-26.7239,32,0.00695042,10,-0.000512332,-1.5731,6.76615,0.00871987,-9.09043,0.0191713,
2,0,0,1,0,62270,0.0171038,0.0167684,-26.6921,32,0.00679018,10,-0.000447585,-1.57362,4.99978,0.0118005,-12.2933,0.0167684,
2,0,0,1,0,62270,0.0147067,0.0143687,-26.6678,32,0.0066301,10,-0.000383183,-1.57401,4.20317,0.014037,-14.6009,0.01436873,
2,0,0,1,0,62270,0.012304,0.0119362,-26.6288,32,0.00647023,10,-0.000317846,-1.57465,3.46402,0.0170323,-17.6926,0.0119362,
2,0,0,1,0,62270,0.00990136,0.00954918,-26.5731,32,0.00631064,10,-0.000253751,-1.57556,2.78981,0.0211484,-21.9299,0.009549181,
2,0,0,1,0,62270,0.00750426,0.00712509,-26.5246,32,0.00615134,10,-0.00018899,-1.57635,2.39109,0.0246749,-25.5318,0.00712509,
2,0,0,1,0,62270.1,0.00510715,0.00477099,-26.4472,32,0.00599242,10,-0.000126179,-1.57762,2.61005,0.0226049,-23.3508,0.00477099,
2,0,0,1,0,62270.1,0.00270173,0.00233418,-26.3842,32,0.00583392,10,-6.15854e-05,-1.57866,2.15894,0.0273282,-28.147,0.00233418,
2,0,0,1,0,62270.1,0.000304623,-7.40071e-05,-26.3329,32,0.00567569,10,1.94882e-06,-1.5795,1.82757,0.0322833,-33.136,-7.40071e-05,
2,0,0,1,0,62270.1,-0.00209248,-0.00245568,-26.2307,32,0.00551802,10,6.44142e-05,-1.58119,1.45801,0.0404662,-41.4213,-0.00245568,
2,0,0,1,0,62270.1,-0.00450068,-0.00487235,-26.1321,32,0.00536095,10,0.000127325,-1.58283,1.36554,0.0432063,-44.0395,-0.00487235,
2,0,0,1,0,62270.1,-0.00689779,-0.00727417,-26.022,32,0.00520451,10,0.000189288,-1.58466,1.27882,0.0461362,-46.8349,-0.00727417,
2,0,0,1,0,62270.1,-0.00929489,-0.00966963,-25.8991,32,0.00504877,10,0.000250435,-1.58672,1.2202,0.0483526,-48.8693,-0.00966963,
2,0,0,1,0,62270.1,-0.011692,-0.0121096,-25.7817,32,0.00489372,10,0.000312207,-1.58869,1.12971,0.0522257,-52.5259,-0.0121096,
2,0,0,1,0,62270.1,-0.0140974,-0.0144765,-25.6506,32,0.00473943,10,0.00037133,-1.5909,1.07976,0.0546417,-54.7068,-0.0144765,
2,0,0,1,0,62270.1,-0.0164945,-0.016909,-25.526,32,0.00458593,10,0.000431619,-1.59302,1.04778,0.0563097,-56.0789,-0.016909,
2,0,0,1,0,62270.1,-0.0188916,-0.0192812,-25.3854,32,0.00443319,10,0.000489461,-1.59542,1.04406,0.0565104,-55.9841,-0.0192812,
2,0,0,1,0,62270.1,-0.0212998,-0.021701,-25.2508,32,0.0042813,10,0.000547967,-1.59773,1.02098,0.0577876,-56.963,-0.021701,
2,0,0,1,0,62270.1,-0.0236969,-0.0241198,-25.1202,32,0.00413021,10,0.000605895,-1.59998,1.01073,0.0583737,-57.2007,-0.0241198,
2,0,0,1,0,62270.1,-0.026094,-0.0265163,-24.9821,32,0.00397991,10,0.000662432,-1.60237,1.04641,0.0563832,-54.9743,-0.0265163,
2,0,0,1,0,62270.1,-0.0284912,-0.0288439,-24.841,32,0.00383048,10,0.000716512,-1.60483,1.0291,0.0573316,-55.6101,-0.02884391,
2,0,0,1,0,62270.1,-0.0308994,-0.0313316,-24.7187,32,0.0036818,10,0.000774476,-1.60697,1.0938,0.0539402,-52.0272,-0.0313316,
2,0,0,1,0,62270.1,-0.0332965,-0.0336868,-24.5862,32,0.00353389,10,0.000828231,-1.60931,1.07165,0.0550554,-52.8465,-0.0336868,
2,0,0,1,0,62270.2,-0.0356936,-0.0360833,-24.4609,32,0.00338675,10,0.000882631,-1.61153,1.12602,0.0523971,-50.047,-0.0360833,
2,0,0,1,0,62270.2,-0.038099,-0.0385435,-24.3522,32,0.00324031,10,0.000938617,-1.61346,1.17104,0.0503827,-47.8885,-0.0385435,
2,0,0,1,0,62270.2,-0.0404961,-0.0408965,-24.2419,32,0.00309454,10,0.000991408,-1.61543,1.22513,0.048158,-45.5719,-0.0408965,
2,0,0,1,0,62270.2,-0.0428932,-0.0432898,-24.1383,32,0.00294941,10,0.00104494,-1.61729,1.30071,0.0453597,-42.7333,-0.0432898,
2,0,0,1,0,62270.2,-0.0452903,-0.0456503,-24.0341,32,0.00280491,10,0.00109716,-1.61917,1.4064,0.0419511,-39.3759,-0.0456503,
2,0,0,1,0,62270.2,-0.0476985,-0.0480458,-23.9492,32,0.00266097,10,0.00115066,-1.62071,1.62633,0.0362779,-33.9156,-0.0480458,
2,0,0,1,0,62270.2,-0.0500956,-0.0504868,-23.8739,32,0.00251752,10,0.00120532,-1.62208,1.65211,0.0357119,-33.2722,-0.0504868,
2,0,0,1,0,62270.2,-0.0524927,-0.052877,-23.7879,32,0.00237454,10,0.00125783,-1.62364,1.90872,0.0309108,-28.7166,-0.052877,
2,0,0,1,0,62270.2,-0.0548981,-0.0552926,-23.7291,32,0.00223201,10,0.00131204,-1.62472,2.1945,0.0268854,-24.9043,-0.05529258,
2,0,0,1,0,62270.2,-0.0572953,-0.0576986,-23.6742,32,0.00208979,10,0.00136597,-1.62573,2.33833,0.0252317,-23.31,-0.0576986,
2,0,0,1,0,62270.2,-0.0596924,-0.0601153,-23.6125,32,0.00194793,10,0.00141947,-1.62686,2.95265,0.019982,-18.4307,-0.0601153,
2,0,0,1,0,62270.2,-0.062095,-0.0624874,-23.5804,32,0.00180639,10,0.00147348,-1.62745,3.435,0.0171761,-15.808,-0.0624874,
2,0,0,1,0,62270.2,-0.0644977,-0.0648977,-23.5532,32,0.00166498,10,0.00152855,-1.62795,4.68567,0.0125916,-11.5699,-0.0648977,
2,0,0,1,0,62270.2,-0.0668948,-0.0672996,-23.5194,32,0.00152379,10,0.00158285,-1.62857,4.43223,0.0133116,-12.2209,-0.0672996,
2,0,0,1,0,62270.2,-0.0692919,-0.069694,-23.4925,32,0.00138278,10,0.00163729,-1.62907,9.53126,0.00619015,-5.67886,-0.069694,
2,0,0,1,0,62270.2,-0.0717001,-0.0721149,-23.4859,32,0.00124185,10,0.00169368,-1.62919,18.9519,0.00311315,-2.85362,-0.0721149,
2,0,0,1,0,62270.2,-0.0740972,-0.0744658,-23.4792,32,0.00110093,10,0.0017484,-1.62932,28.1984,0.00209232,-1.91767,-0.0744658,
2,0,0,1,0,62270.3,-0.0764943,-0.0768772,-23.476,32,0.000960079,10,0.00180477,-1.62938,-181.548,-0.000324984,0.297944,-0.0768772,
2,0,0,1,0,62270.3,-0.0788997,-0.0793246,-23.4904,32,0.00081922,10,0.00186336,-1.62911,-8.09123,-0.00729185,6.68644,-0.0793246,
2,0,0,1,0,62270.3,-0.0812968,-0.0816681,-23.5032,32,0.000678233,10,0.00191946,-1.62887,-6.99864,-0.00843021,7.73037,-0.0816681,
2,0,0,1,0,62270.3,-0.0836939,-0.08409,-23.5214,32,0.000537133,10,0.00197791,-1.62854,-5.6271,-0.010485,9.62918,-0.08409,
2,0,0,1,0,62270.3,-0.086091,-0.0864484,-23.5409,32,0.000395957,10,0.00203507,-1.62818,-4.07511,-0.0144781,13.3121,-0.0864484,
2,0,0,1,0,62270.3,-0.0884992,-0.0888969,-23.5923,32,0.000254526,10,0.00209728,-1.62723,-3.39619,-0.0173724,15.9894,-0.0888969,
2,0,0,1,0,62270.3,-0.0908963,-0.0912913,-23.6243,32,0.000112865,10,0.00215669,-1.62664,-3.42221,-0.0172403,15.9029,-0.0912913,
2,0,0,1,0,62270.3,-0.0932935,-0.0936836,-23.6699,32,-2.90022e-05,10,0.00221748,-1.6258,-2.60341,-0.0226626,20.9507,-0.0936836,
2,0,0,1,0,62270.3,-0.0956989,-0.0961182,-23.7384,32,-0.000171208,10,0.0022817,-1.62455,-2.22329,-0.0265373,24.5757,-0.0961182,
2,0,0,1,0,62270.3,-0.098096,-0.0985148,-23.7894,32,-0.000313791,10,0.00234361,-1.62362,-3.17291,-0.0185949,17.2373,-0.0985148,
2,0,0,0,0,62270.3,-0.0999548,-0.100228,-23.8005,32,-0.000425703,10,0.00238548,-1.62341,0.0322152,1.83144,-1615.04,-0.100228,
2,0,0,1,1,62270.3,-0.0994554,-0.0998954,-22.7096,32,-0.000464998,10,0.00226859,-1.64379,-0.030722,-1.92045,1581.53,-0.09989541,
2,0,0,1,1,62270.3,-0.0970583,-0.0974904,-19.4619,32,-0.000590552,10,0.00189735,-1.71081,-0.0381657,-1.54589,1192.25,-0.0974904,
2,0,0,1,1,62270.3,-0.0946501,-0.0950907,-17.0028,32,-0.000699499,10,0.00161681,-1.76948,-0.0412853,-1.42908,956.722,-0.09509071,
2,0,0,1,1,62270.3,-0.0922531,-0.0926486,-14.9112,32,-0.000794921,10,0.0013815,-1.82649,-0.0419553,-1.40626,822.122,-0.0926486,
2,0,0,1,1,62270.3,-0.0898559,-0.0902616,-13.071,32,-0.000878581,10,0.00117981,-1.88369,-0.0408198,-1.44538,737.666,-0.0902616,
2,0,0,1,1,62270.3,-0.0874588,-0.0878959,-11.3971,32,-0.000951757,10,0.00100176,-1.94321,-0.0391606,-1.50662,669.037,-0.0878959,
2,0,0,1,1,62270.4,-0.0850534,-0.0855152,-9.85181,32,-0.00101527,10,0.00084248,-2.00648,-0.0366124,-1.61147,617.955,-0.0855152,
2,0,0,1,1,62270.4,-0.0826563,-0.083053,-8.42837,32,-0.00106992,10,0.000700001,-2.07426,-0.0337989,-1.74562,571.512,-0.083053,
2,0,0,1,1,62270.4,-0.0802592,-0.0806862,-7.10984,32,-0.00111634,10,0.000573666,-2.14814,-0.0304812,-1.93562,531.867,-0.0806862,
2,0,0,1,1,62270.4,-0.077851,-0.0782663,-5.86124,32,-0.00115509,10,0.000458738,-2.23201,-0.026728,-2.20742,497.86,-0.0782663,
2,0,0,1,1,62270.4,-0.0754539,-0.075874,-4.69299,32,-0.0011866,10,0.000356076,-2.32855,-0.0224737,-2.62529,470.465,-0.075874,
2,0,0,1,1,62270.4,-0.0730568,-0.073469,-3.59213,32,-0.00121132,10,0.00026391,-2.44465,-0.0177574,-3.32255,447.507,-0.073469,
2,0,0,1,1,62270.4,-0.0706597,-0.071082,-2.56183,32,-0.00122965,10,0.0001821,-2.59145,-0.0127745,-4.61859,422.361,-0.071082,
2,0,0,1,1,62270.4,-0.0682542,-0.0687078,-1.56789,32,-0.00124189,10,0.000107726,-2.80469,-0.00678561,-8.69487,402.367,-0.0687078,
2,0,0,1,1,62270.4,-0.0658571,-0.0662795,-0.631647,32,-0.00124836,10,4.18652e-05,-3.19953,-0.011585,-5.09277,380.534,-0.0662795,
2,1,0,1,1,62270.4,-0.06346,-0.0638787,0.241201,32,-0.00124941,10,-1.54076e-05,-3.61762,0.0380703,1.54976,363.164,-0.0638787,
2,1,0,1,1,62270.4,-0.0610518,-0.0614472,1.10288,32,-0.00124527,10,-6.7769e-05,-2.95747,0.00385197,15.3169,344.722,-0.0614472,
2,1,0,1,1,62270.4,-0.0586547,-0.0591058,1.90806,32,-0.00123614,10,-0.000112778,-2.71941,0.0115554,5.10582,328.966,-0.0591058,
2,1,0,1,1,62270.4,-0.0562576,-0.0566775,2.66014,32,-0.00122236,10,-0.00015077,-2.5751,0.018546,3.18129,311.882,-0.0566775,
2,1,0,1,1,62270.4,-0.053855,-0.0542534,3.39104,32,-0.00120412,10,-0.000183976,-2.46967,0.0251447,2.34642,299.767,-0.0542534,
2,1,0,1,1,62270.4,-0.0514523,-0.051859,4.09499,32,-0.00118154,10,-0.000212362,-2.38775,0.0321984,1.83239,285.782,-0.05185898,
2,1,0,1,1,62270.4,-0.0490552,-0.0495187,4.76254,32,-0.0011549,10,-0.000235835,-2.32216,0.0395161,1.49306,273.053,-0.0495187,
2,1,0,1,1,62270.4,-0.0466581,-0.0471232,5.39882,32,-0.00112433,10,-0.00025441,-2.2677,0.0469787,1.25589,261.484,-0.0471232,
2,1,0,1,1,62270.5,-0.0442527,-0.0446821,6.01422,32,-0.00109,10,-0.000268728,-2.22082,0.0545898,1.08079,251.08,-0.0446821,
2,1,0,1,1,62270.5,-0.0418556,-0.0422983,6.60124,32,-0.00105206,10,-0.000279221,-2.18037,0.0634574,0.929757,237.367,-0.04229835,
2,1,0,1,1,62270.5,-0.0394585,-0.0398934,7.15554,32,-0.00101073,10,-0.000285458,-2.14536,0.0721567,0.817665,227.073,-0.0398934,
2,1,0,1,1,62270.5,-0.0370558,-0.0375382,7.68723,32,-0.000966158,10,-0.000288565,-2.11423,0.0810406,0.72803,217.421,-0.0375382,
2,1,0,1,1,62270.5,-0.0346532,-0.035059,8.20683,32,-0.000918382,10,-0.000287723,-2.08582,0.0891924,0.661492,210.542,-0.035059,
2,1,0,1,1,62270.5,-0.0322561,-0.0326762,8.683,32,-0.000867637,10,-0.000283728,-2.06133,0.100646,0.586215,198.097,-0.03267622,
2,1,0,1,1,62270.5,-0.0298589,-0.0302924,9.15172,32,-0.000814074,10,-0.000277228,-2.0385,0.111376,0.529739,188.679,-0.0302924,
2,1,0,1,1,62270.5,-0.0274535,-0.0278864,9.61267,32,-0.000757719,10,-0.000268062,-2.01716,0.122243,0.482647,180.219,-0.0278864,
2,1,0,1,1,62270.5,-0.0250564,-0.0254517,10.023,32,-0.00069876,10,-0.000255102,-1.999,0.135011,0.437001,170.559,-0.0254517,
2,1,0,1,1,62270.5,-0.0226593,-0.0230668,10.4245,32,-0.000637361,10,-0.00024046,-1.98194,0.14642,0.402951,163.627,-0.0230668,
2,1,0,1,1,62270.5,-0.0202511,-0.0206385,10.823,32,-0.000573585,10,-0.00022337,-1.96565,0.15789,0.373677,157.329,-0.0206385,
2,1,0,1,1,62270.5,-0.017854,-0.0182388,11.1868,32,-0.000507532,10,-0.000204033,-1.95129,0.172378,0.34227,149.036,-0.0182388,
2,1,0,1,1,62270.5,-0.0154569,-0.0158719,11.5307,32,-0.000439348,10,-0.000183015,-1.93814,0.188187,0.313518,140.866,-0.0158719,
2,1,0,1,1,62270.5,-0.0130598,-0.0134436,11.8597,32,-0.000369137,10,-0.000159437,-1.92593,0.196876,0.299681,138.593,-0.0134436,
2,1,0,1,1,62270.5,-0.0106516,-0.0110747,12.1918,32,-0.000296931,10,-0.00013502,-1.91393,0.216566,0.272434,129.339,-0.0110747,
2,1,0,1,1,62270.5,-0.00825448,-0.00866224,12.488,32,-0.00022284,10,-0.000108174,-1.90351,0.232893,0.253335,123.34,-0.00866224,
2,1,0,1,1,62270.5,-0.00585738,-0.00627845,12.7727,32,-0.000147019,10,-8.01927e-05,-1.89372,0.248552,0.237375,118.292,-0.00627845,
2,1,0,1,1,62270.6,-0.00345195,-0.00385966,13.064,32,-6.94724e-05,10,-5.04227e-05,-1.88392,0.268765,0.219522,111.625,-0.00385966,
2,1,0,1,1,62270.6,-0.00105485,-0.00148223,13.3178,32,9.72484e-06,10,-1.97401e-05,-1.87557, , , ,-0.00148223,
2,1,0,0,1,62270.6,-7.54729e-05,-0.000478022,13.4258,32,4.31398e-05,10,-6.41784e-06,-1.87206, , , ,-0.000478022,