File: Figure_codes/Fig_3-5/rawdata_trumpetplot_data/after 10th/20221101_1-115_003_TrumpetPlot_ParaChange_from10_every3_06_CV_C01_21.csv
mode,ox/red,error,control changes,counter inc.,time/s,control/V,Ewe/V,<I>/mA,cycle number,(Q-Qo)/C,I Range,P/W,log(|I|),Tafel slope mV/dec,alpha_eff,dI/d(E-IR),E-IR/V,
2,0,0,0,0,42522.8,2.44065e-05,-0.000401673,-1.41725,22,0.0000000E+000,10,5.69272e-07,-2.84855, , , ,-0.000401673,
2,0,0,1,0,42522.8,0.00129787,0.000907683,-0.352721,22,-2.42842e-05,10,-3.20159e-07,-3.45257, , , ,0.000907683,
2,1,0,1,0,42522.8,0.00279427,0.00247063,0.305726,22,-2.33434e-05,10,7.55335e-07,-3.51467,0.0650634,0.906807,349.781,0.00247063,
2,1,0,1,0,42522.9,0.00429425,0.00395944,0.672661,22,-3.84038e-06,10,2.66336e-06,-3.1722,0.00459025,12.8533,210.837,0.00395944,
2,1,0,1,0,42522.9,0.00579422,0.0054687,0.914191,22,2.6809e-05,10,4.99943e-06,-3.03896,0.0131093,4.50061,143.081,0.0054687,
2,1,0,1,0,42522.9,0.00729063,0.00697881,1.08708,22,6.49928e-05,10,7.58654e-06,-2.96374,0.02353,2.50744,100.889,0.00697881,
2,1,0,1,0,42523,0.00878703,0.00846728,1.21675,22,0.000108652,10,1.03025e-05,-2.9148,0.0361144,1.6337,75.1805,0.00846728,
2,1,0,1,0,42523,0.010287,0.0100111,1.31174,22,0.000156664,10,1.3132e-05,-2.88215,0.0505208,1.16784,58.5828,0.0100111,
2,1,0,1,0,42523.1,0.011787,0.0114645,1.38464,22,0.000207924,10,1.58743e-05,-2.85866,0.0671298,0.878894,47.2233,0.0114645,
2,1,0,1,0,42523.1,0.0132825,0.0129472,1.45001,22,0.000261621,10,1.87736e-05,-2.83863,0.081313,0.725591,41.0534,0.01294718,
2,1,0,1,0,42523.1,0.014778,0.0144595,1.50636,22,0.000317682,10,2.17812e-05,-2.82207,0.0940542,0.627298,36.8102,0.0144595,
2,1,0,1,0,42523.2,0.0162816,0.0159516,1.56067,22,0.000376084,10,2.48951e-05,-2.80669,0.118732,0.496916,30.1317,0.0159516,
2,1,0,1,0,42523.2,0.017778,0.0174583,1.60655,22,0.000435922,10,2.80476e-05,-2.7941,0.128309,0.459829,28.7164,0.0174583,
2,1,0,1,0,42523.2,0.0192744,0.0189418,1.64767,22,0.00049732,10,3.12099e-05,-2.78313,0.139217,0.423799,27.1377,0.01894179,
2,1,0,1,0,42523.3,0.0207743,0.02047,1.68726,22,0.000560409,10,3.45382e-05,-2.77282,0.143081,0.412353,27.0732,0.02047,
2,1,0,1,0,42523.3,0.0222743,0.0219422,1.72689,22,0.000624999,10,3.78918e-05,-2.76274,0.152734,0.386293,25.9779,0.0219422,
2,1,0,1,0,42523.3,0.0237707,0.0234846,1.7585,22,0.000690828,10,4.12975e-05,-2.75486,0.17918,0.329278,22.6553,0.0234846,
2,1,0,1,0,42523.4,0.0252671,0.0249236,1.78912,22,0.000757924,10,4.45913e-05,-2.74736,0.179846,0.328058,23.0386,0.0249236,
2,1,0,1,0,42523.4,0.0267671,0.0264389,1.83046,22,0.00082648,10,4.83954e-05,-2.73744,0.169421,0.348245,24.9242,0.0264389,
2,1,0,1,0,42523.5,0.0282671,0.0279392,1.87016,22,0.000896466,10,5.22508e-05,-2.72812,0.170602,0.345835,25.1794,0.0279392,
2,1,0,1,0,42523.5,0.0297626,0.029431,1.90368,22,0.000967621,10,5.60272e-05,-2.72041,0.198596,0.297086,22.0131,0.029431,
2,1,0,1,0,42523.5,0.0312581,0.030931,1.93665,22,0.00104001,10,5.99027e-05,-2.71295,0.202779,0.290957,21.9253,0.030931,
2,1,0,1,0,42523.6,0.0327616,0.0324268,1.97085,22,0.00111396,10,6.39083e-05,-2.70535,0.195515,0.301767,23.1559,0.0324268,
2,1,0,1,0,42523.6,0.034258,0.0339141,2.00342,22,0.00118883,10,6.7944e-05,-2.69823,0.203334,0.290163,22.6662,0.0339141,
2,1,0,1,0,42523.6,0.0357545,0.0354549,2.03627,22,0.00126502,10,7.21955e-05,-2.69117,0.229064,0.25757,20.4371,0.0354549,
2,1,0,1,0,42523.7,0.0372544,0.036906,2.06906,22,0.00134266,10,7.63609e-05,-2.68423,0.221905,0.26588,21.5286,0.036906,
2,1,0,1,0,42523.7,0.0387544,0.0384461,2.0995,22,0.00142145,10,8.07178e-05,-2.67788,0.211391,0.279103,22.9736,0.0384461,
2,1,0,1,0,42523.8,0.0402508,0.0399312,2.13917,22,0.00150136,10,8.54195e-05,-2.66976,0.208816,0.282546,23.6061,0.0399312,
2,1,0,1,0,42523.8,0.0417472,0.0414701,2.17927,22,0.00158267,10,9.03746e-05,-2.66169,0.220584,0.267471,22.664,0.0414701,
2,1,0,1,0,42523.8,0.0432472,0.0429438,2.21328,22,0.00166545,10,9.50464e-05,-2.65496,0.245385,0.240438,20.6756,0.0429438,
2,1,0,1,0,42523.9,0.0447472,0.0443862,2.24316,22,0.00174941,10,9.95654e-05,-2.64914,0.2292,0.257417,22.4756,0.0443862,
2,1,0,1,0,42523.9,0.0462427,0.0459031,2.27582,22,0.00183441,10,0.000104467,-2.64286,0.2261,0.260947,23.1391,0.0459031,
2,1,0,1,0,42523.9,0.0477382,0.0474213,2.30585,22,0.00192068,10,0.000109346,-2.63717,0.236714,0.249246,22.4603,0.0474213,
2,1,0,1,0,42524,0.0492417,0.0489552,2.33653,22,0.00200866,10,0.000114385,-2.63143,0.262443,0.22481,20.5354,0.0489552,
2,1,0,1,0,42524,0.0507381,0.0503878,2.36689,22,0.00209734,10,0.000119262,-2.62582,0.258797,0.227978,21.1234,0.0503878,
2,1,0,1,0,42524.1,0.0522345,0.0518952,2.4042,22,0.00218719,10,0.000124766,-2.61903,0.252559,0.233609,21.9138,0.0518952,
2,1,0,1,0,42524.1,0.0537345,0.0534495,2.44125,22,0.00227856,10,0.000130484,-2.61239,0.252377,0.233777,22.2161,0.0534495,
2,1,0,1,0,42524.1,0.0552345,0.0549079,2.47162,22,0.00237121,10,0.000135712,-2.60702,0.275537,0.214128,20.576,0.0549079,
2,1,0,1,0,42524.2,0.0567309,0.0563783,2.4991,22,0.00246475,10,0.000140895,-2.60222,0.290845,0.202857,19.7405,0.0563783,
2,1,0,1,0,42524.2,0.0582273,0.0579282,2.52887,22,0.0025593,10,0.000146493,-2.59707,0.306418,0.192547,19.0126,0.0579282,
2,1,0,1,0,42524.2,0.0597308,0.0594072,2.56035,22,0.00265552,10,0.000152103,-2.5917,0.297799,0.19812,19.7873,0.0594072,
2,1,0,1,0,42524.3,0.0612264,0.0609027,2.58449,22,0.00275239,10,0.000157402,-2.58763,0.316656,0.186322,18.805,0.0609027,
2,1,0,1,0,42524.3,0.0627219,0.0623883,2.61509,22,0.00285038,10,0.000163151,-2.58251,0.318125,0.185462,18.9448,0.0623883,
2,1,0,1,0,42524.4,0.0642218,0.0638775,2.64315,22,0.00294954,10,0.000168838,-2.57788,0.327251,0.18029,18.6049,0.0638775,
2,1,0,1,0,42524.4,0.0657218,0.0653557,2.67332,22,0.00304983,10,0.000174716,-2.57295,0.319891,0.184438,19.2148,0.0653557,
2,1,0,1,0,42524.4,0.0672182,0.0669045,2.70598,22,0.00315097,10,0.000181042,-2.56767,0.3306,0.178464,18.7773,0.0669045,
2,1,0,1,0,42524.5,0.0687146,0.068382,2.73081,22,0.00325316,10,0.000186738,-2.56371,0.386729,0.152562,16.2186,0.068382,
2,1,0,1,0,42524.5,0.0702146,0.0698909,2.75256,22,0.00335646,10,0.000192379,-2.56026,0.416329,0.141715,15.2202,0.0698909,
2,1,0,1,0,42524.5,0.0717146,0.0713949,2.77476,22,0.00346072,10,0.000198104,-2.55677,0.369374,0.15973,17.2992,0.0713949,
2,1,0,1,0,42524.6,0.073211,0.0728636,2.79831,22,0.00356563,10,0.000203895,-2.5531,0.393288,0.150017,16.4119,0.0728636,
2,1,0,1,0,42524.6,0.0747074,0.0743927,2.82454,22,0.00367141,10,0.000210125,-2.54905,0.46625,0.126542,13.9544,0.0743927,
2,1,0,1,0,42524.7,0.0762109,0.0758666,2.84258,22,0.00377858,10,0.000215657,-2.54629,0.436292,0.13523,15.0151,0.0758666,
2,1,0,1,0,42524.7,0.0777064,0.0773727,2.86746,22,0.00388592,10,0.000221863,-2.5425,0.438037,0.134692,15.0646,0.07737267,
2,1,0,1,0,42524.7,0.079202,0.0788968,2.89229,22,0.00399411,10,0.000228193,-2.53876,0.471576,0.125112,14.0806,0.0788968,
2,1,0,1,0,42524.8,0.0807019,0.0804125,2.91055,22,0.00410344,10,0.000234045,-2.53602,0.541739,0.108909,12.3311,0.0804125,
2,1,0,1,0,42524.8,0.0822019,0.0818693,2.92574,22,0.00421347,10,0.000239529,-2.53376,0.605723,0.0974043,11.1197,0.0818693,
2,1,0,1,0,42524.8,0.0836983,0.0833853,2.94194,22,0.00432376,10,0.000245315,-2.53137,0.560071,0.105344,12.1293,0.0833853,
2,1,0,1,0,42524.9,0.0851947,0.0848738,2.96216,22,0.00443482,10,0.000251409,-2.52839,0.513476,0.114903,13.3008,0.0848738,
2,1,0,1,0,42524.9,0.0866947,0.0863584,2.984,22,0.00454698,10,0.000257694,-2.5252,0.522067,0.113012,13.1728,0.0863584,
2,1,0,1,0,42525,0.0881947,0.0878737,3.00675,22,0.00465988,10,0.000264215,-2.5219,0.519505,0.11357,13.3198,0.0878737,
2,1,0,1,0,42525,0.0896911,0.0893428,3.02052,22,0.00477314,10,0.000269862,-2.51992,0.447273,0.13191,15.5858,0.0893428,
2,1,0,1,0,42525,0.0911875,0.0908601,3.0509,22,0.00488723,10,0.000277205,-2.51557,0.449618,0.131222,15.597,0.0908601,
2,1,0,1,0,42525.1,0.0926901,0.0924072,3.07551,22,0.00500296,10,0.000284199,-2.51208,0.379215,0.155584,18.6523,0.0924072,
2,1,0,1,0,42525.1,0.0941856,0.0938653,3.10093,22,0.00511906,10,0.00029107,-2.50851,0.404071,0.146014,17.6648,0.0938653,
2,1,0,1,0,42525.1,0.0956821,0.0953783,3.12442,22,0.0052361,10,0.000298002,-2.50523,0.3844,0.153486,18.7607,0.0953783,
2,1,0,1,0,42525.2,0.097182,0.0968264,3.1555,22,0.00535452,10,0.000305536,-2.50093,0.305635,0.19304,23.8428,0.0968264,
2,1,0,1,0,42525.2,0.098682,0.0983396,3.1949,22,0.00547428,10,0.000314185,-2.49554,0.271925,0.216972,27.1193,0.0983396,
2,1,0,1,0,42525.3,0.100178,0.0998899,3.23802,22,0.00559523,10,0.000323445,-2.48972,0.268259,0.219937,27.8054,0.0998899,
2,1,0,1,0,42525.3,0.101675,0.101341,3.27797,22,0.00571769,10,0.000332192,-2.4844,0.253481,0.232759,29.8119,0.101341,
2,1,0,1,0,42525.3,0.103175,0.102863,3.32978,22,0.00584214,10,0.000342511,-2.47758,0.232613,0.25364,32.9266,0.102863,
2,1,0,1,0,42525.4,0.104675,0.104349,3.38436,22,0.00596845,10,0.000353155,-2.47052,0.224123,0.263248,34.7104,0.104349,
2,1,0,1,0,42525.4,0.106171,0.105861,3.43475,22,0.00609645,10,0.000363607,-2.4641,0.218499,0.270025,36.1317,0.105861,
2,1,0,1,0,42525.4,0.107667,0.107375,3.48383,22,0.00622645,10,0.000374077,-2.45794,0.219951,0.268241,36.4947,0.107375,
2,1,0,1,0,42525.5,0.10917,0.10887,3.53783,22,0.00635907,10,0.000385164,-2.45126,0.217364,0.271434,37.5614,0.10887,
2,1,0,1,0,42525.5,0.110666,0.11035,3.59484,22,0.00649313,10,0.000396689,-2.44432,0.212048,0.278239,39.0984,0.11035,
2,1,0,1,0,42525.6,0.112162,0.111864,3.65358,22,0.0066294,10,0.000408704,-2.43728,0.238531,0.247348,35.2416,0.111864,
2,1,0,1,0,42525.6,0.113662,0.113308,3.71145,22,0.00676817,10,0.000420539,-2.43046,0.23631,0.249672,36.1261,0.113308,
2,1,0,1,0,42525.6,0.115162,0.114828,3.76281,22,0.00690883,10,0.000432076,-2.42449,0.241718,0.244086,35.805,0.114828,
2,1,0,1,0,42525.7,0.116658,0.116317,3.81619,22,0.00705111,10,0.000443889,-2.41837,0.255314,0.231088,34.3392,0.116317,
2,1,0,1,0,42525.7,0.118155,0.11785,3.86909,22,0.00719538,10,0.000455973,-2.41239,0.280861,0.210069,31.6274,0.11785,
2,1,0,1,0,42525.7,0.119655,0.119351,3.91039,22,0.00734178,10,0.00046671,-2.40778,0.341686,0.172673,26.3048,0.119351,
2,1,0,1,0,42525.8,0.121155,0.120802,3.94463,22,0.00748965,10,0.000476519,-2.40399,0.360855,0.163501,25.1888,0.120802,
2,1,0,1,0,42525.8,0.122651,0.122307,3.97746,22,0.00763847,10,0.00048647,-2.40039,0.379777,0.155354,24.167,0.1223066,
2,1,0,1,0,42525.9,0.124147,0.12384,4.01523,22,0.00778864,10,0.000497246,-2.39629,0.429851,0.137257,21.4958,0.12384,
2,1,0,1,0,42525.9,0.12565,0.125386,4.05205,22,0.0079409,10,0.000508069,-2.39233,0.504461,0.116956,18.4418,0.125386,
2,1,0,1,0,42525.9,0.127146,0.126828,4.06895,22,0.0080933,10,0.000516057,-2.39052,0.596829,0.0988559,15.6878,0.126828,
2,1,0,1,0,42526,0.128642,0.12832,4.09512,22,0.00824654,10,0.000525486,-2.38773,0.606656,0.0972545,15.5277,0.12832,
2,1,0,1,0,42526,0.130142,0.129814,4.11575,22,0.00840109,10,0.000534283,-2.38555,0.667338,0.088411,14.2017,0.129814,
2,1,0,1,0,42526,0.131642,0.131341,4.13723,22,0.00855644,10,0.000543386,-2.38329,0.830508,0.0710408,11.4559,0.1313407,
2,1,0,1,0,42526.1,0.133139,0.132822,4.15111,22,0.00871213,10,0.00055136,-2.38184,0.931618,0.0633307,10.2627,0.132822,
2,1,0,1,0,42526.1,0.134635,0.134307,4.16061,22,0.00886827,10,0.000558799,-2.38084,1.34506,0.0438643,7.13585,0.134307,
2,1,0,1,0,42526.2,0.136135,0.135812,4.17882,22,0.00902536,10,0.000567536,-2.37895,1.2306,0.0479441,7.81218,0.1358123,
2,1,0,1,0,42526.2,0.137635,0.137348,4.18855,22,0.00918282,10,0.000575289,-2.37794,3.77425,0.0156322,2.54971,0.137348,
2,1,0,1,0,42526.2,0.13913,0.138848,4.18975,22,0.00934002,10,0.000581736,-2.37781,-2.85299,-0.02068,-3.36968,0.138848,
2,1,0,1,0,42526.3,0.140626,0.140318,4.17754,22,0.00949695,10,0.000586185,-2.37908,-0.91842,-0.0642408,-10.4344,0.140318,
2,1,0,1,0,42526.3,0.14213,0.14186,4.15509,22,0.00965415,10,0.000589442,-2.38142,-0.539489,-0.109363,-17.6746,0.14186,
2,1,0,1,0,42526.3,0.143626,0.143275,4.12505,22,0.00980963,10,0.000591019,-2.38457,-0.352744,-0.16726,-26.8156,0.1432754,
2,1,0,1,0,42526.4,0.145122,0.144804,4.07486,22,0.00996358,10,0.000590056,-2.38989,-0.233946,-0.252195,-39.9748,0.1448039,
2,1,0,1,0,42526.4,0.146622,0.146313,4.00179,22,0.0101157,10,0.000585515,-2.39775,-0.187616,-0.314473,-49.0367,0.146313,
2,1,0,1,0,42526.5,0.148122,0.147782,3.92352,22,0.0102651,10,0.000579827,-2.40632,-0.155176,-0.380213,-58.0755,0.147782,
2,1,0,1,0,42526.5,0.149619,0.149279,3.8274,22,0.0104107,10,0.000571348,-2.4171,-0.125625,-0.469652,-69.8906,0.149279,
2,1,0,1,0,42526.5,0.151115,0.150857,3.71951,22,0.0105524,10,0.000561115,-2.42951,-0.106837,-0.552244,-79.7031,0.1508573,
2,1,0,1,0,42526.6,0.152615,0.152265,3.59165,22,0.01069,10,0.000546883,-2.44471,-0.096518,-0.611285,-85.4009,0.152265,
2,1,0,1,0,42526.6,0.154115,0.153772,3.4607,22,0.0108227,10,0.00053216,-2.46084,-0.0897874,-0.657107,-88.5224,0.153772,
2,1,0,1,0,42526.6,0.155611,0.155327,3.32245,22,0.01095,10,0.000516067,-2.47854,-0.0857622,-0.687949,-89.0883,0.155327,
2,1,0,1,0,42526.7,0.157106,0.156776,3.18572,22,0.0110725,10,0.000499444,-2.49679,-0.082929,-0.711452,-88.6051,0.156776,
2,1,0,1,0,42526.7,0.15861,0.158304,3.05553,22,0.0111905,10,0.000483701,-2.51491,-0.0819894,-0.719605,-86.0835,0.158304,
2,1,0,1,0,42526.8,0.160106,0.159811,2.93305,22,0.011303,10,0.000468735,-2.53268,-0.0860563,-0.685598,-78.734,0.159811,
2,1,0,1,0,42526.8,0.161602,0.161267,2.82176,22,0.0114112,10,0.000455055,-2.54948,-0.0889062,-0.663621,-73.1633,0.161267,
2,1,0,1,0,42526.8,0.163102,0.162755,2.71832,22,0.0115156,10,0.00044242,-2.5657,-0.0917461,-0.643079,-68.2024,0.162755,
2,1,0,1,0,42526.9,0.164602,0.164273,2.62191,22,0.0116161,10,0.000430708,-2.58138,-0.0973197,-0.60625,-62.0288,0.164273,
2,1,0,1,0,42526.9,0.166099,0.165784,2.53198,22,0.0117129,10,0.000419761,-2.59654,-0.10368,-0.56906,-56.3366,0.165784,
2,1,0,1,0,42526.9,0.167595,0.167268,2.45444,22,0.0118066,10,0.000410551,-2.61005,-0.120133,-0.491124,-47.1325,0.167268,
2,1,0,1,0,42527,0.169095,0.16878,2.38554,22,0.0118979,10,0.000402632,-2.62241,-0.126009,-0.468219,-43.6867,0.16878,
2,1,0,1,0,42527,0.170595,0.17027,2.32065,22,0.0119868,10,0.000395136,-2.63439,-0.131193,-0.44972,-40.8986,0.17027,
2,1,0,1,0,42527.1,0.172091,0.171767,2.25978,22,0.0120732,10,0.000388154,-2.64593,-0.146393,-0.403025,-35.7334,0.171767,
2,1,0,1,0,42527.1,0.173586,0.173252,2.21362,22,0.0121575,10,0.000383514,-2.6549,-0.160144,-0.368419,-31.9228,0.173252,
2,1,0,1,0,42527.1,0.17509,0.174759,2.17162,22,0.0122405,10,0.000379508,-2.66322,-0.174448,-0.33821,-28.6356,0.174759,
2,1,0,1,0,42527.2,0.176586,0.176256,2.13088,22,0.0123214,10,0.000375579,-2.67144,-0.187578,-0.314536,-26.109,0.176256,
2,1,0,1,0,42527.2,0.178082,0.177755,2.08991,22,0.0124009,10,0.00037149,-2.67987,-0.20665,-0.285506,-23.3213,0.177755,
2,1,0,1,0,42527.2,0.179582,0.179232,2.05771,22,0.0124793,10,0.000368807,-2.68662,-0.241509,-0.244297,-19.6773,0.179232,
2,1,0,1,0,42527.3,0.181082,0.180786,2.02883,22,0.0125565,10,0.000366784,-2.69275,-0.256956,-0.229611,-18.2497,0.180786,
2,1,0,1,0,42527.3,0.182579,0.182272,2.00417,22,0.0126326,10,0.000365303,-2.69807,-0.263096,-0.224253,-17.5615,0.182272,
2,1,0,1,0,42527.4,0.184075,0.183777,1.98205,22,0.0127077,10,0.000364255,-2.70289,-0.275109,-0.214461,-16.6013,0.183777,
2,1,0,1,0,42527.4,0.185579,0.185274,1.95792,22,0.0127823,10,0.00036275,-2.70821,-0.335556,-0.175828,-13.4541,0.185274,
2,1,0,1,0,42527.4,0.187074,0.186759,1.93974,22,0.0128557,10,0.000362263,-2.71226,-0.435131,-0.135591,-10.2487,0.186759,
2,1,0,1,0,42527.5,0.18857,0.188207,1.9238,22,0.0129285,10,0.000362074,-2.71584,-0.371021,-0.159021,-11.9058,0.188207,
2,1,0,1,0,42527.5,0.19007,0.189743,1.90936,22,0.0130009,10,0.000362288,-2.71911,-0.43923,-0.134326,-9.98668,0.189743,
2,1,0,1,0,42527.5,0.19157,0.191238,1.88918,22,0.0130726,10,0.000361283,-2.72373,-0.437419,-0.134882,-9.95816,0.191238,
2,1,0,1,0,42527.6,0.193066,0.192711,1.87145,22,0.0131436,10,0.000360649,-2.72782,-0.575456,-0.102527,-7.51635,0.192711,
2,1,0,1,0,42527.6,0.194563,0.194249,1.86213,22,0.0132142,10,0.000361717,-2.72999,-0.53512,-0.110256,-8.03586,0.194249,
2,1,0,1,0,42527.7,0.196063,0.195753,1.85082,22,0.0132845,10,0.000362303,-2.73264,-0.473435,-0.124621,-9.01723,0.195753,
2,1,0,1,0,42527.7,0.197563,0.197234,1.84033,22,0.0133544,10,0.000362977,-2.7351,-0.531308,-0.111047,-7.98536,0.197234,
2,1,0,1,0,42527.7,0.199059,0.198746,1.83402,22,0.0134236,10,0.000364504,-2.7366,-0.654352,-0.0901655,-6.44537,0.198746,
2,1,0,1,0,42527.8,0.200555,0.200214,1.82708,22,0.0134926,10,0.000365805,-2.73824,-0.726296,-0.0812341,-5.7684,0.200214,
2,1,0,1,0,42527.8,0.202059,0.201759,1.81892,22,0.0135616,10,0.000366985,-2.74019,-0.723167,-0.0815856,-5.76275,0.2017594,
2,1,0,1,0,42527.8,0.203554,0.203233,1.80597,22,0.0136299,10,0.000367032,-2.74329,-0.913139,-0.0646123,-4.55905,0.203233,
2,1,0,1,0,42527.9,0.20505,0.204765,1.79498,22,0.0136978,10,0.000367549,-2.74594,-1.67444,-0.0352357,-2.48301,0.204765,
2,1,0,1,0,42527.9,0.20655,0.206253,1.79154,22,0.0137657,10,0.000369509,-2.74677,-1.31114,-0.0449988,-3.15786,0.206253,
2,1,0,1,0,42528,0.20805,0.20776,1.78694,22,0.0138336,10,0.000371254,-2.74789,-0.946834,-0.0623129,-4.34798,0.2077595,
2,1,0,1,0,42528,0.209546,0.209251,1.78072,22,0.0139009,10,0.000372618,-2.7494,-0.813801,-0.0724993,-5.03901,0.209251,
2,1,0,1,0,42528,0.211043,0.210724,1.77269,22,0.0139679,10,0.00037355,-2.75137,-0.916868,-0.0643495,-4.45397,0.210724,
2,1,0,1,0,42528.1,0.212543,0.212249,1.77332,22,0.0140349,10,0.000376384,-2.75121,-1.42547,-0.0413899,-2.85495,0.2122488,
2,1,0,1,0,42528.1,0.214043,0.21373,1.76626,22,0.0141017,10,0.000377504,-2.75294,-1.42122,-0.0415138,-2.85639,0.21373,
2,1,0,1,0,42528.1,0.215539,0.215207,1.75843,22,0.0141682,10,0.000378425,-2.75488,-0.978023,-0.0603258,-4.13767,0.215207,
2,1,0,1,0,42528.2,0.217035,0.216738,1.74948,22,0.0142344,10,0.000379179,-2.75709,-1.35889,-0.0434179,-2.97702,0.216738,
2,1,0,1,0,42528.2,0.218538,0.21824,1.74571,22,0.0143008,10,0.000380984,-2.75803,-3.10796,-0.0189835,-1.29767,0.2182398,
2,1,0,1,0,42528.3,0.220034,0.219743,1.7471,22,0.0143668,10,0.000383912,-2.75768,-1.24136,-0.0475285,-3.24229,0.219743,
2,1,0,1,0,42528.3,0.22153,0.221225,1.74123,22,0.0144327,10,0.000385203,-2.75914,-1.09364,-0.0539484,-3.66708,0.221225,
2,1,0,1,0,42528.3,0.22303,0.222698,1.73679,22,0.0144985,10,0.000386779,-2.76025,-1.37475,-0.0429168,-2.90366,0.222698,
2,1,0,1,0,42528.4,0.22453,0.224213,1.73391,22,0.0145641,10,0.000388765,-2.76097,-1.57197,-0.0375325,-2.53533,0.224213,
2,1,0,1,0,42528.4,0.226026,0.225717,1.73144,22,0.0146294,10,0.000390816,-2.76159,-1.86653,-0.0316095,-2.12936,0.2257169,
2,1,0,1,0,42528.4,0.227523,0.227148,1.72265,22,0.0146946,10,0.000391295,-2.7638,-1.02016,-0.0578342,-3.8922,0.2271478,
2,1,0,1,0,42528.5,0.229023,0.228716,1.72164,22,0.0147599,10,0.000393767,-2.76406,-1.22408,-0.0481995,-3.24224,0.228716,
2,1,0,1,0,42528.5,0.230523,0.23019,1.7145,22,0.0148249,10,0.00039466,-2.76586,-1.45444,-0.0405656,-2.72585,0.23019,
2,1,0,1,0,42528.6,0.232019,0.231707,1.71161,22,0.0148897,10,0.000396591,-2.7666,-3.14979,-0.0187314,-1.25419,0.231707,
2,1,0,1,0,42528.6,0.233515,0.233206,1.71337,22,0.0149544,10,0.000399567,-2.76615,-1.27235,-0.046371,-3.09855,0.233206,
2,1,0,1,0,42528.6,0.235018,0.234686,1.71136,22,0.0150194,10,0.000401632,-2.76666,-1.86098,-0.0317038,-2.11106,0.234686,
2,1,0,1,0,42528.7,0.236514,0.236216,1.70608,22,0.0150838,10,0.000403003,-2.768,-2.341,-0.0252029,-1.67722,0.2362158,
2,1,0,1,0,42528.7,0.23801,0.237728,1.70556,22,0.0151482,10,0.000405461,-2.76813,-36.1162,-0.00163361,-0.108524,0.237728,
2,1,0,1,0,42528.7,0.23951,0.239211,1.70266,22,0.0152126,10,0.000407294,-2.76887,-1.85486,-0.0318084,-2.11045,0.239211,
2,1,0,1,0,42528.8,0.24101,0.240742,1.69616,22,0.0152769,10,0.000408337,-2.77053,-2.2289,-0.0264705,-1.75556,0.240742,
2,1,0,1,0,42528.8,0.242506,0.242187,1.68793,22,0.015341,10,0.000408796,-2.77264,-3.13796,-0.018802,-1.24521,0.2421874,
2,1,0,1,0,42528.9,0.244003,0.243691,1.69142,22,0.0154049,10,0.000412184,-2.77175,-5.07239,-0.0116316,-0.769127,0.243691,
2,1,0,1,0,42528.9,0.245503,0.245229,1.69415,22,0.015469,10,0.000415455,-2.77105,-2.38299,-0.0247588,-1.63469,0.245229,
2,1,0,1,0,42528.9,0.247003,0.246728,1.68897,22,0.0155329,10,0.000416717,-2.77238,-1.9345,-0.0304989,-2.00696,0.2467283,
2,1,0,1,0,42529,0.248499,0.248183,1.68707,22,0.0155966,10,0.000418702,-2.77287,-1.84558,-0.0319683,-2.10142,0.248183,
2,1,0,1,0,42529,0.249995,0.249686,1.68827,22,0.0156602,10,0.000421537,-2.77256,-1.74088,-0.033891,-2.227,0.249686,
2,1,0,1,0,42529,0.251498,0.251154,1.6807,22,0.015724,10,0.000422115,-2.77451,-20.1714,-0.00292493,-0.191728,0.251154,
2,1,0,1,0,42529.1,0.252994,0.25267,1.67814,22,0.0157874,10,0.000424016,-2.77517,-1.55707,-0.0378917,-2.47997,0.25267,
2,1,0,1,0,42529.1,0.25449,0.254182,1.67557,22,0.0158507,10,0.0004259,-2.77584,-2.16866,-0.0272058,-1.78082,0.254182,
2,1,0,1,0,42529.2,0.25599,0.255686,1.67333,22,0.0159141,10,0.000427848,-2.77642,-2.82688,-0.0208711,-1.36444,0.255686,
2,1,0,1,0,42529.2,0.25749,0.257151,1.67245,22,0.0159773,10,0.000430073,-2.77665,-4.04769,-0.0145762,-0.950287,0.257151,
2,1,0,1,0,42529.2,0.258987,0.258683,1.67171,22,0.0160404,10,0.000432442,-2.77684,-6.35621,-0.00928227,-0.603944,0.258683,
2,1,0,1,0,42529.3,0.260483,0.260178,1.67039,22,0.0161035,10,0.000434599,-2.77718,-1.16497,-0.0506449,-3.2928,0.260178,
2,1,0,1,0,42529.3,0.261983,0.261678,1.66648,22,0.0161665,10,0.000436082,-2.7782,-2.4974,-0.0236246,-1.53218,0.261678,
2,1,0,1,0,42529.3,0.263483,0.26321,1.66282,22,0.0162294,10,0.00043767,-2.77916,-12.2762,-0.00480603,-0.311852,0.26321,
2,1,0,1,0,42529.4,0.264978,0.264649,1.65981,22,0.0162921,10,0.000439266,-2.77994,-2.03091,-0.029051,-1.88306,0.264649,
2,1,0,1,0,42529.4,0.266474,0.266188,1.65398,22,0.0163547,10,0.000440269,-2.78147,-1.86269,-0.0316747,-2.05012,0.266188,
2,1,0,1,0,42529.5,0.267977,0.267668,1.64975,22,0.0164176,10,0.000441585,-2.78258,-2.70316,-0.0218263,-1.41274,0.267668,
2,1,0,1,0,42529.5,0.269474,0.269163,1.64941,22,0.0164799,10,0.00044396,-2.78267,-5.85963,-0.0100689,-0.650152,0.2691634,
2,1,0,1,0,42529.5,0.27097,0.270707,1.6516,22,0.0165423,10,0.000447098,-2.7821,-1.44589,-0.0408054,-2.6222,0.270707,
2,1,0,1,0,42529.6,0.27247,0.272205,1.64745,22,0.0166048,10,0.000448443,-2.78319,-1.25955,-0.0468421,-3.00538,0.272205,
2,1,0,1,0,42529.6,0.27397,0.273674,1.64398,22,0.0166671,10,0.000449915,-2.7841,-1.62912,-0.0362159,-2.32005,0.273674,
2,1,0,1,0,42529.6,0.275467,0.275166,1.64279,22,0.0167291,10,0.000452041,-2.78442,-2.04238,-0.0288879,-1.85031,0.275166,
2,1,0,1,0,42529.7,0.276963,0.276681,1.63859,22,0.016791,10,0.000453368,-2.78553,-1.40166,-0.042093,-2.6964,0.276681,
2,1,0,1,0,42529.7,0.278463,0.278146,1.63603,22,0.016853,10,0.000455055,-2.78621,-1.15467,-0.0510967,-3.2666,0.278146,
2,1,0,1,0,42529.8,0.279963,0.279667,1.6327,22,0.016915,10,0.000456612,-2.78709,-2.7279,-0.0216283,-1.38272,0.279667,
2,1,0,1,0,42529.8,0.281459,0.281102,1.63207,22,0.0169766,10,0.000458777,-2.78726,-2.02194,-0.0291799,-1.85991,0.2811015,
2,1,0,1,0,42529.8,0.282954,0.282646,1.63092,22,0.0170381,10,0.000460973,-2.78757,-3.0958,-0.0190581,-1.20999,0.282646,
2,1,0,1,0,42529.9,0.284458,0.284189,1.63036,22,0.0171,10,0.00046333,-2.78772,-3.15625,-0.0186931,-1.18481,0.284189,
2,1,0,1,0,42529.9,0.285954,0.285621,1.62357,22,0.0171614,10,0.000463724,-2.78953,-1.24774,-0.0472854,-2.99082,0.2856206,
2,1,0,1,0,42529.9,0.28745,0.287136,1.61948,22,0.0172226,10,0.000465012,-2.79062,-1.50301,-0.0392546,-2.48124,0.287136,
2,1,0,1,0,42530,0.28895,0.288621,1.6147,22,0.0172839,10,0.000466037,-2.79191,-7.12718,-0.00827817,-0.522603,0.288621,
2,1,0,1,0,42530,0.29045,0.290123,1.61208,22,0.0173451,10,0.000467702,-2.79261,-1.70096,-0.0346864,-2.18943,0.290123,
2,1,0,1,0,42530.1,0.291947,0.291661,1.60734,22,0.0174061,10,0.000468797,-2.79389,-1.54056,-0.0382978,-2.4132,0.291661,
2,1,0,1,0,42530.1,0.293443,0.293139,1.6041,22,0.0174669,10,0.000470223,-2.79477,-1.52431,-0.0387061,-2.43309,0.293139,
2,1,0,1,0,42530.1,0.294943,0.294673,1.60604,22,0.0175277,10,0.000473256,-2.79424,-2.91081,-0.0202693,-1.26956,0.294673,
2,1,0,1,0,42530.2,0.296443,0.296162,1.60829,22,0.0175885,10,0.000476316,-2.79363,-2.73364,-0.021583,-1.3497,0.296162,
2,1,0,1,0,42530.2,0.297939,0.297658,1.6038,22,0.0176491,10,0.000477382,-2.79485,-2.18298,-0.0270273,-1.68488,0.297658,
2,1,0,1,0,42530.2,0.299434,0.299197,1.59808,22,0.0177095,10,0.000478141,-2.7964,-0.0172606,-3.4182,-184.763,0.299197,
2,1,0,0,0,42530.3,0.299962,0.299575,1.53107,22,0.0177333,10,0.000458671,-2.815,0.00112179,52.5943,1642.55,0.299575,
2,1,0,1,0,42530.3,0.298689,0.298393,0.523475,22,0.0177617,10,0.000156201,-3.2811,0.00190945,30.8989,492.349,0.298393,
2,1,0,1,0,42530.3,0.297189,0.296881,0.065413,22,0.0177709,10,1.94199e-05,-4.18434,0.00704195,8.37836,250.703,0.296881,
2,0,0,1,0,42530.4,0.295692,0.295406,-0.157362,22,0.017768,10,-4.64856e-05,-3.8031,-0.0152569,-3.86711,125.945,0.295406,
2,0,0,1,0,42530.4,0.294196,0.293885,-0.291244,22,0.0177586,10,-8.55921e-05,-3.53574,-0.00668617,-8.82419,75.8717,0.293885,
2,0,0,1,0,42530.4,0.292696,0.292389,-0.380607,22,0.0177453,10,-0.000111285,-3.41952,-0.0156353,-3.77352,51.6299,0.292389,
2,0,0,1,0,42530.5,0.291196,0.290903,-0.447192,22,0.0177291,10,-0.000130089,-3.34951,-0.0239921,-2.45915,40.8361,0.290903,
2,0,0,1,0,42530.5,0.2897,0.28941,-0.501272,22,0.0177108,10,-0.000145073,-3.29993,-0.0348244,-1.69422,31.8849,0.28941,
2,0,0,1,0,42530.6,0.288205,0.28785,-0.53882,22,0.0176908,10,-0.000155099,-3.26856,-0.0465002,-1.26881,26.2706,0.2878502,
2,0,0,1,0,42530.6,0.286701,0.286353,-0.569448,22,0.0176692,10,-0.000163063,-3.24455,-0.0586034,-1.00677,22.5232,0.286353,
2,0,0,1,0,42530.6,0.285205,0.284856,-0.604097,22,0.0176465,10,-0.000172081,-3.21889,-0.0662233,-0.890925,21.0342,0.284856,
2,0,0,1,0,42530.7,0.283708,0.283376,-0.634316,22,0.0176225,10,-0.00017975,-3.19769,-0.0769995,-0.766239,18.9465,0.283376,
2,0,0,1,0,42530.7,0.282208,0.281911,-0.661687,22,0.0175975,10,-0.000186537,-3.17935,-0.0936262,-0.630166,16.1907,0.281911,
2,0,0,1,0,42530.7,0.280709,0.2804,-0.68807,22,0.0175715,10,-0.000192935,-3.16237,-0.103103,-0.572242,15.2748,0.2804,
2,0,0,1,0,42530.8,0.279212,0.278911,-0.710445,22,0.0175448,10,-0.000198151,-3.14847,-0.10897,-0.541435,14.9214,0.278911,
2,0,0,1,0,42530.8,0.277716,0.277419,-0.734375,22,0.0175172,10,-0.00020373,-3.13408,-0.123422,-0.478034,13.5761,0.277419,
2,0,0,1,0,42530.9,0.276216,0.275902,-0.754665,22,0.0174888,10,-0.000208213,-3.12225,-0.126497,-0.466415,13.6136,0.275902,
2,0,0,1,0,42530.9,0.274716,0.274427,-0.768681,22,0.0174596,10,-0.000210947,-3.11425,-0.162234,-0.363673,10.9027,0.274427,
2,0,0,1,0,42530.9,0.27322,0.272906,-0.781412,22,0.01743,10,-0.000213252,-3.10712,-0.168081,-0.351022,10.7722,0.272906,
2,0,0,1,0,42531,0.271725,0.271415,-0.798631,22,0.0173996,10,-0.000216761,-3.09765,-0.144383,-0.408636,12.8052,0.2714152,
2,0,0,1,0,42531,0.270221,0.269895,-0.81906,22,0.0173685,10,-0.000221061,-3.08668,-0.164853,-0.357894,11.4561,0.269895,
2,0,0,1,0,42531,0.268725,0.268405,-0.836154,22,0.0173368,10,-0.000224428,-3.07771,-0.208435,-0.283062,9.21602,0.2684052,
2,0,0,1,0,42531.1,0.267228,0.26695,-0.848055,22,0.0173047,10,-0.000226388,-3.07158,-0.194571,-0.303231,10.03,0.26695,
2,0,0,1,0,42531.1,0.265728,0.265395,-0.864888,22,0.017272,10,-0.000229537,-3.06304,-0.213807,-0.27595,9.29536,0.265395,
2,0,0,1,0,42531.1,0.264228,0.2639,-0.881957,22,0.0172387,10,-0.000232748,-3.05455,-0.206942,-0.285104,9.73153,0.2639,
2,0,0,1,0,42531.2,0.262732,0.262416,-0.890882,22,0.0172049,10,-0.000233782,-3.05018,-0.294476,-0.200356,6.95935,0.262416,
2,0,0,1,0,42531.2,0.261236,0.260903,-0.901763,22,0.0171707,10,-0.000235273,-3.04491,-0.280278,-0.210505,7.4552,0.260903,
2,0,0,1,0,42531.3,0.259736,0.259426,-0.913366,22,0.017136,10,-0.000236951,-3.03936,-0.246823,-0.239038,8.58357,0.259426,
2,0,0,1,0,42531.3,0.258236,0.257933,-0.927549,22,0.0171008,10,-0.000239246,-3.03266,-0.242434,-0.243366,8.82035,0.257933,
2,0,0,1,0,42531.3,0.256741,0.256437,-0.941992,22,0.0170651,10,-0.000241562,-3.02595,-0.291593,-0.202337,7.42759,0.256437,
2,0,0,1,0,42531.4,0.255241,0.254903,-0.951816,22,0.0170289,10,-0.000242621,-3.02145,-0.290908,-0.202813,7.53115,0.254903,
2,0,0,1,0,42531.4,0.253741,0.253408,-0.964024,22,0.0169924,10,-0.000244291,-3.01591,-0.305315,-0.193243,7.24427,0.253408,
2,0,0,1,0,42531.4,0.252245,0.251928,-0.977192,22,0.0169554,10,-0.000246182,-3.01002,-0.273645,-0.215608,8.18525,0.251928,
2,0,0,1,0,42531.5,0.250748,0.250402,-0.986007,22,0.0169181,10,-0.000246898,-3.00612,-0.30738,-0.191945,7.40584,0.250402,
2,0,0,1,0,42531.5,0.249248,0.248944,-0.995388,22,0.0168802,10,-0.000247796,-3.00201,-0.392029,-0.150499,5.8622,0.248944,
2,0,0,1,0,42531.6,0.247748,0.247451,-1.00285,22,0.016842,10,-0.000248157,-2.99876,-0.356519,-0.165489,6.52556,0.247451,
2,0,0,1,0,42531.6,0.246252,0.245949,-1.01816,22,0.0168035,10,-0.000250416,-2.99218,-0.274318,-0.215079,8.55756,0.2459486,
2,0,0,1,0,42531.6,0.244756,0.244414,-1.03106,22,0.0167646,10,-0.000252005,-2.98672,-0.309312,-0.190746,7.66636,0.244414,
2,0,0,1,0,42531.7,0.243252,0.242957,-1.04202,22,0.016725,10,-0.000253166,-2.98212,-0.498165,-0.118435,4.79145,0.242957,
2,0,0,1,0,42531.7,0.241756,0.241446,-1.04778,22,0.0166853,10,-0.000252982,-2.97973,-0.439325,-0.134297,5.47965,0.241446,
2,0,0,1,0,42531.7,0.240261,0.239949,-1.05721,22,0.0166453,10,-0.000253677,-2.97584,-0.326287,-0.180822,7.46713,0.239949,
2,0,0,1,0,42531.8,0.238761,0.238486,-1.06814,22,0.0166047,10,-0.000254737,-2.97137,-0.344001,-0.171511,7.15592,0.2384863,
2,0,0,1,0,42531.8,0.237261,0.236952,-1.07428,22,0.0165638,10,-0.000254554,-2.96888,-0.467387,-0.126234,5.31514,0.236952,
2,0,0,1,0,42531.9,0.235765,0.235444,-1.08314,22,0.0165226,10,-0.000255019,-2.96532,-0.472281,-0.124926,5.31105,0.235444,
2,0,0,1,0,42531.9,0.234268,0.233948,-1.09432,22,0.0164812,10,-0.000256014,-2.96085,-0.388982,-0.151678,6.50442,0.233948,
2,0,0,1,0,42531.9,0.232768,0.232484,-1.10748,22,0.0164392,10,-0.000257472,-2.95566,-0.329945,-0.178818,7.70185,0.232484,
2,0,0,1,0,42532,0.231268,0.230968,-1.12167,22,0.0163969,10,-0.000259071,-2.95013,-0.517357,-0.114041,4.95063,0.230968,
2,0,0,1,0,42532,0.229772,0.229466,-1.13015,22,0.0163543,10,-0.000259332,-2.94686,-0.428977,-0.137536,6.01483,0.229466,
2,0,0,1,0,42532,0.228275,0.227975,-1.13631,22,0.0163114,10,-0.000259051,-2.9445,-0.453208,-0.130183,5.75208,0.227975,
2,0,0,1,0,42532.1,0.226772,0.226492,-1.14299,22,0.016268,10,-0.000258878,-2.94196,-0.364084,-0.162051,7.23455,0.226492,
2,0,0,1,0,42532.1,0.225276,0.225012,-1.1524,22,0.0162244,10,-0.000259303,-2.9384,-0.416935,-0.141509,6.37498,0.225012,
2,0,0,1,0,42532.2,0.223781,0.223474,-1.15634,22,0.0161805,10,-0.000258413,-2.93691,-0.393248,-0.150032,6.81372,0.223474,
2,0,0,1,0,42532.2,0.222281,0.221923,-1.16552,22,0.0161362,10,-0.000258656,-2.93348,-0.442895,-0.133215,6.08093,0.221923,
2,0,0,1,0,42532.2,0.220781,0.220418,-1.17688,22,0.0160915,10,-0.000259406,-2.92927,-0.403461,-0.146235,6.72469,0.2204185,
2,0,0,1,0,42532.3,0.219284,0.218946,-1.19099,22,0.0160466,10,-0.000260763,-2.92409,-0.479977,-0.122923,5.67768,0.218946,
2,0,0,1,0,42532.3,0.217788,0.217478,-1.1984,22,0.0160013,10,-0.000260626,-2.9214,-0.46428,-0.127078,5.92074,0.217478,
2,0,0,1,0,42532.3,0.216288,0.215943,-1.20318,22,0.0159556,10,-0.000259818,-2.91967,-0.611244,-0.0965245,4.53625,0.215943,
2,0,0,1,0,42532.4,0.214788,0.214433,-1.21131,22,0.0159096,10,-0.000259744,-2.91675,-0.461224,-0.12792,6.07434,0.214433,
2,0,0,1,0,42532.4,0.213292,0.212946,-1.22301,22,0.0158634,10,-0.000260434,-2.91257,-0.369409,-0.159715,7.64251,0.212946,
2,0,0,1,0,42532.5,0.211796,0.2115,-1.22944,22,0.0158168,10,-0.000260025,-2.91029,-0.548236,-0.107618,5.17867,0.2115,
2,0,0,1,0,42532.5,0.210293,0.209926,-1.23922,22,0.0157696,10,-0.000260145,-2.90685,-0.455772,-0.129451,6.27176,0.2099259,
2,0,0,1,0,42532.5,0.208797,0.208475,-1.24876,22,0.0157225,10,-0.000260334,-2.90352,-0.396144,-0.148936,7.28063,0.208475,
2,0,0,1,0,42532.6,0.207301,0.206998,-1.26206,22,0.0156749,10,-0.000261245,-2.89892,-0.435244,-0.135556,6.64483,0.206998,
2,0,0,1,0,42532.6,0.205801,0.205478,-1.27445,22,0.0156267,10,-0.000261872,-2.89468,-0.458068,-0.128802,6.35175,0.205478,
2,0,0,1,0,42532.6,0.204301,0.203939,-1.2778,22,0.0155783,10,-0.000260593,-2.89354,-0.842204,-0.0700543,3.49326,0.203939,
2,0,0,1,0,42532.7,0.202804,0.202511,-1.28342,22,0.0155297,10,-0.000259907,-2.89163,-0.564136,-0.104585,5.25949,0.202511,
2,0,0,1,0,42532.7,0.201308,0.201018,-1.29682,22,0.0154808,10,-0.000260684,-2.88712,-0.398912,-0.147902,7.47823,0.201018,
2,0,0,1,0,42532.8,0.199808,0.199442,-1.30255,22,0.0154314,10,-0.000259782,-2.88521,-0.448558,-0.131533,6.72554,0.199442,
2,0,0,1,0,42532.8,0.198308,0.197989,-1.31631,22,0.0153816,10,-0.000260614,-2.88064,-0.514981,-0.114567,5.8718,0.197989,
2,0,0,1,0,42532.8,0.196812,0.196533,-1.32317,22,0.0153317,10,-0.000260047,-2.87838,-0.449859,-0.131152,6.76571,0.196533,
2,0,0,1,0,42532.9,0.195316,0.194954,-1.33545,22,0.0152814,10,-0.000260351,-2.87437,-0.406206,-0.145246,7.54965,0.194954,
2,0,0,1,0,42532.9,0.193813,0.19348,-1.34851,22,0.0152304,10,-0.000260911,-2.87015,-0.409674,-0.144017,7.5355,0.19348,
2,0,0,1,0,42532.9,0.192317,0.191984,-1.35565,22,0.0151792,10,-0.000260264,-2.86785,-0.51024,-0.115632,6.10145,0.191984,
2,0,0,1,0,42533,0.190821,0.190457,-1.36161,22,0.0151277,10,-0.000259329,-2.86595,-0.44974,-0.131187,6.98852,0.190457,
2,0,0,1,0,42533,0.189321,0.188982,-1.37154,22,0.0150758,10,-0.000259197,-2.86279,-0.452294,-0.130446,7.01009,0.188982,
2,0,0,1,0,42533.1,0.187821,0.187504,-1.38189,22,0.0150235,10,-0.000259111,-2.85953,-0.425944,-0.138516,7.49418,0.187504,
2,0,0,1,0,42533.1,0.186324,0.186035,-1.39653,22,0.0149708,10,-0.000259805,-2.85495,-0.59623,-0.0989551,5.37721,0.186035,
2,0,0,1,0,42533.1,0.184828,0.184474,-1.40689,22,0.0149178,10,-0.000259534,-2.85174,-0.439288,-0.134308,7.36652,0.184474,
2,0,0,1,0,42533.2,0.183328,0.183039,-1.41576,22,0.0148643,10,-0.00025914,-2.84901,-0.408632,-0.144384,7.97397,0.183039,
2,0,0,1,0,42533.2,0.181828,0.181529,-1.43416,22,0.0148103,10,-0.00026034,-2.8434,-0.369635,-0.159617,8.88006,0.181529,
2,0,0,1,0,42533.2,0.180332,0.180029,-1.44597,22,0.0147559,10,-0.000260315,-2.83984,-0.374212,-0.157664,8.86594,0.180029,
2,0,0,1,0,42533.3,0.178836,0.178521,-1.45515,22,0.0147011,10,-0.000259775,-2.83709,-0.384983,-0.153253,8.69357,0.178521,
2,0,0,1,0,42533.3,0.177333,0.177024,-1.46381,22,0.0146456,10,-0.000259129,-2.83452,-0.352579,-0.167338,9.60374,0.177024,
2,0,0,1,0,42533.4,0.175837,0.175522,-1.47862,22,0.0145898,10,-0.000259531,-2.83014,-0.315441,-0.18704,10.8027,0.175522,
2,0,0,1,0,42533.4,0.174341,0.173985,-1.49391,22,0.0145335,10,-0.000259919,-2.82567,-0.369772,-0.159558,9.30599,0.173985,
2,0,0,1,0,42533.4,0.172841,0.172498,-1.51213,22,0.0144764,10,-0.000260839,-2.82041,-0.34312,-0.171952,10.1302,0.1724976,
2,0,0,1,0,42533.5,0.171341,0.171067,-1.52513,22,0.0144189,10,-0.0002609,-2.81669,-0.324557,-0.181786,10.8128,0.171067,
2,0,0,1,0,42533.5,0.169844,0.169497,-1.54543,22,0.014361,10,-0.000261946,-2.81095,-0.285136,-0.206919,12.4424,0.1694971,
2,0,0,1,0,42533.5,0.168348,0.168009,-1.56348,22,0.0143023,10,-0.00026268,-2.80591,-0.322541,-0.182923,11.1423,0.168009,
2,0,0,1,0,42533.6,0.166848,0.166501,-1.57866,22,0.0142427,10,-0.000262849,-2.80171,-0.293316,-0.201148,12.3966,0.166501,
2,0,0,1,0,42533.6,0.165348,0.164997,-1.59609,22,0.0141824,10,-0.00026335,-2.79694,-0.287401,-0.205288,12.8396,0.1649971,
2,0,0,1,0,42533.7,0.163852,0.163511,-1.61603,22,0.0141217,10,-0.000264239,-2.79155,-0.256127,-0.230354,14.5891,0.163511,
2,0,0,1,0,42533.7,0.162357,0.16204,-1.63726,22,0.0140601,10,-0.000265302,-2.78588,-0.216981,-0.271913,17.4289,0.16204,
2,0,0,1,0,42533.7,0.160853,0.160516,-1.66647,22,0.0139973,10,-0.000267495,-2.7782,-0.227091,-0.259808,16.8995,0.160516,
2,0,0,1,0,42533.8,0.159357,0.159007,-1.69472,22,0.0139338,10,-0.000269472,-2.7709,-0.213945,-0.275772,18.1924,0.159007,
2,0,0,1,0,42533.8,0.157861,0.157532,-1.72369,22,0.0138693,10,-0.000271536,-2.76354,-0.198807,-0.296771,19.9282,0.157532,
2,0,0,1,0,42533.8,0.156361,0.156028,-1.75477,22,0.0138036,10,-0.000273794,-2.75578,-0.175477,-0.336226,22.9807,0.156028,
2,0,0,1,0,42533.9,0.154861,0.154516,-1.78723,22,0.0137365,10,-0.000276155,-2.74782,-0.170807,-0.34542,24.141,0.154516,
2,0,0,1,0,42533.9,0.153364,0.15302,-1.82427,22,0.0136682,10,-0.000279149,-2.73891,-0.165868,-0.355704,25.3898,0.15302,
2,0,0,1,0,42534,0.151868,0.151585,-1.85809,22,0.0135986,10,-0.000281659,-2.73093,-0.153781,-0.383664,28.0325,0.151585,
2,0,0,1,0,42534,0.150368,0.150049,-1.90521,22,0.0135273,10,-0.000285876,-2.72006,-0.135463,-0.435545,32.4974,0.150049,
2,0,0,1,0,42534,0.148868,0.148555,-1.9636,22,0.013454,10,-0.000291703,-2.70695,-0.124427,-0.474175,36.3347,0.148555,
2,0,0,1,0,42534.1,0.147372,0.147077,-2.01694,22,0.013379,10,-0.000296645,-2.69531,-0.116951,-0.504487,39.7074,0.147077,
2,0,0,1,0,42534.1,0.145877,0.145553,-2.07741,22,0.0133018,10,-0.000302373,-2.68248,-0.105926,-0.556991,45.1935,0.145553,
2,0,0,1,0,42534.1,0.144373,0.144039,-2.14976,22,0.0132217,10,-0.00030965,-2.66761,-0.102229,-0.577138,48.5261,0.144039,
2,0,0,1,0,42534.2,0.142877,0.142594,-2.22579,22,0.0131392,10,-0.000317383,-2.65252,-0.0983329,-0.600003,52.236,0.142594,
2,0,0,1,0,42534.2,0.14138,0.141029,-2.30578,22,0.0130537,10,-0.000325181,-2.63718,-0.0976852,-0.603981,54.4726,0.141029,
2,0,0,1,0,42534.3,0.13988,0.139539,-2.39124,22,0.0129649,10,-0.000333671,-2.62138,-0.0919241,-0.641834,60.1341,0.1395385,
2,0,0,1,0,42534.3,0.13838,0.138077,-2.48476,22,0.0128728,10,-0.00034309,-2.60471,-0.0905295,-0.651721,63.4077,0.1380775,
2,0,0,1,0,42534.3,0.136884,0.136553,-2.59058,22,0.0127771,10,-0.000353752,-2.5866,-0.0872617,-0.676127,68.3016,0.136553,
2,0,0,1,0,42534.4,0.135388,0.13507,-2.6986,22,0.0126776,10,-0.000364498,-2.56886,-0.0892099,-0.661362,69.4662,0.13507,
2,0,0,1,0,42534.4,0.133888,0.133574,-2.80486,22,0.0125739,10,-0.000374655,-2.55209,-0.0918576,-0.642298,70.0819,0.133574,
2,0,0,1,0,42534.4,0.132389,0.132067,-2.90729,22,0.0124662,10,-0.000383956,-2.53651,-0.0921485,-0.640271,72.6073,0.1320667,
2,0,0,1,0,42534.5,0.130893,0.130575,-3.01084,22,0.0123548,10,-0.00039314,-2.52131,-0.0954548,-0.618093,72.7377,0.130575,
2,0,0,1,0,42534.5,0.129393,0.129094,-3.12069,22,0.0122389,10,-0.000402863,-2.50575,-0.0986592,-0.598018,72.8418,0.129094,
2,0,0,1,0,42534.6,0.127893,0.127553,-3.22485,22,0.0121191,10,-0.000411339,-2.49149,-0.110908,-0.531972,66.9352,0.127553,
2,0,0,1,0,42534.6,0.126397,0.126083,-3.32477,22,0.0119958,10,-0.000419197,-2.47824,-0.117157,-0.503599,65.2985,0.126083,
2,0,0,1,0,42534.6,0.1249,0.124581,-3.42782,22,0.0118689,10,-0.00042704,-2.46498,-0.123498,-0.477739,63.7521,0.124581,
2,0,0,1,0,42534.7,0.1234,0.123106,-3.5216,22,0.011738,10,-0.000433532,-2.45326,-0.130884,-0.450781,61.7372,0.123106,
2,0,0,1,0,42534.7,0.1219,0.121617,-3.61341,22,0.0116036,10,-0.000439451,-2.44208,-0.144646,-0.407892,57.2493,0.121617,
2,0,0,1,0,42534.7,0.120404,0.120084,-3.68965,22,0.0114664,10,-0.000443068,-2.43302,-0.16062,-0.367327,52.8549,0.120084,
2,0,0,1,0,42534.8,0.118908,0.118606,-3.76855,22,0.0113263,10,-0.000446974,-2.42383,-0.171147,-0.344733,50.6812,0.118606,
2,0,0,1,0,42534.8,0.117404,0.117097,-3.84388,22,0.0111824,10,-0.000450108,-2.41523,-0.182696,-0.322941,48.4032,0.1170973,
2,0,0,1,0,42534.9,0.115908,0.115578,-3.91173,22,0.0110366,10,-0.000452111,-2.40763,-0.216636,-0.272346,41.5246,0.115578,
2,0,0,1,0,42534.9,0.114413,0.114075,-3.971,22,0.0108884,10,-0.000452991,-2.4011,-0.241732,-0.244072,37.7815,0.114075,
2,0,0,1,0,42534.9,0.112913,0.112586,-4.02755,22,0.0107378,10,-0.000453448,-2.39496,-0.271845,-0.217036,34.0409,0.112586,
2,0,0,1,0,42535,0.111413,0.111073,-4.07436,22,0.0105853,10,-0.00045255,-2.38994,-0.308327,-0.191355,30.3375,0.1110727,
2,0,0,1,0,42535,0.109917,0.109597,-4.11515,22,0.0104315,10,-0.000451009,-2.38561,-0.391597,-0.150665,24.1212,0.109597,
2,0,0,1,0,42535,0.10842,0.108143,-4.15095,22,0.0102763,10,-0.000448897,-2.38185,-0.504255,-0.117004,18.8981,0.1081433,
2,0,0,1,0,42535.1,0.10692,0.106607,-4.16507,22,0.0101197,10,-0.000444026,-2.38038,-0.667218,-0.0884269,14.3761,0.106607,
2,0,0,1,0,42535.1,0.10542,0.105089,-4.18343,22,0.00996236,10,-0.000439632,-2.37847,-0.94576,-0.0623837,10.1847,0.105089,
2,0,0,1,0,42535.2,0.103924,0.103629,-4.19949,22,0.00980478,10,-0.000435191,-2.3768,-1.88573,-0.0312876,5.1198,0.103629,
2,0,0,1,0,42535.2,0.102427,0.102087,-4.19903,22,0.009647,10,-0.000428666,-2.37685,4.97854,0.0118509,-1.94001,0.102087,
2,0,0,1,0,42535.2,0.100924,0.100569,-4.1921,22,0.00948851,10,-0.000421594,-2.37757,1.71468,0.0344088,-5.62531,0.100569,
2,0,0,1,0,42535.3,0.0994284,0.0990852,-4.18564,22,0.00933119,10,-0.000414735,-2.37824,1.27547,0.0462574,-7.54604,0.0990852,
2,0,0,1,0,42535.3,0.0979329,0.0976054,-4.17233,22,0.00917428,10,-0.000407242,-2.37962,0.889093,0.0663597,-10.7837,0.0976054,
2,0,0,1,0,42535.3,0.0964329,0.0961152,-4.15341,22,0.00901755,10,-0.000399205,-2.3816,0.592778,0.0995313,-16.0959,0.0961152,
2,0,0,1,0,42535.4,0.094933,0.0946005,-4.12093,22,0.00886167,10,-0.000389842,-2.385,0.564355,0.104544,-16.8302,0.0946005,
2,0,0,1,0,42535.4,0.0934366,0.0931044,-4.09503,22,0.00870734,10,-0.000381265,-2.38774,0.535222,0.110235,-17.6457,0.09310437,
2,0,0,1,0,42535.5,0.0919401,0.0915873,-4.06854,22,0.0085539,10,-0.000372627,-2.39056,0.552568,0.106774,-16.9658,0.0915873,
2,0,0,1,0,42535.5,0.0904402,0.0901111,-4.04356,22,0.00840107,10,-0.000364369,-2.39324,0.45012,0.131076,-20.6621,0.0901111,
2,0,0,1,0,42535.5,0.0889402,0.0886178,-4.01236,22,0.00824932,10,-0.000355567,-2.3966,0.446949,0.132006,-20.661,0.0886178,
2,0,0,1,0,42535.6,0.0874438,0.0870941,-3.98201,22,0.0080993,10,-0.00034681,-2.3999,0.470034,0.125523,-19.4965,0.0870941,
2,0,0,1,0,42535.6,0.0859483,0.0856211,-3.95735,22,0.0079503,10,-0.000338833,-2.4026,0.53461,0.110361,-17.0152,0.0856211,
2,0,0,1,0,42535.6,0.0844447,0.0841659,-3.92861,22,0.00780144,10,-0.000330655,-2.40576,0.541494,0.108958,-16.7051,0.0841659,
2,0,0,1,0,42535.7,0.0829492,0.0826166,-3.90053,22,0.00765435,10,-0.000322248,-2.40888,0.509417,0.115819,-17.6445,0.0826166,
2,0,0,1,0,42535.7,0.0814528,0.0811083,-3.8746,22,0.0075083,10,-0.000314263,-2.41177,0.53475,0.110332,-16.7112,0.0811083,
2,0,0,1,0,42535.8,0.0799528,0.0796365,-3.8494,22,0.00736274,10,-0.000306552,-2.41461,0.628755,0.0938363,-14.1293,0.0796365,
2,0,0,1,0,42535.8,0.0784529,0.0781183,-3.83203,22,0.00721791,10,-0.000299352,-2.41657,0.715738,0.0824324,-12.3419,0.0781183,
2,0,0,1,0,42535.8,0.0769565,0.076633,-3.81598,22,0.00707418,10,-0.00029243,-2.41839,0.555512,0.106208,-15.7952,0.076633,
2,0,0,1,0,42535.9,0.0754601,0.0751551,-3.78987,22,0.00693126,10,-0.000284828,-2.42138,0.686697,0.0859186,-12.7131,0.0751551,
2,0,0,1,0,42535.9,0.0739601,0.0736511,-3.77591,22,0.0067888,10,-0.0002781,-2.42298,0.671812,0.0878222,-12.9273,0.07365109,
2,0,0,1,0,42535.9,0.0724601,0.0721494,-3.75571,22,0.00664696,10,-0.000270972,-2.42531,0.69993,0.0842941,-12.3533,0.0721494,
2,0,0,1,0,42536,0.0709637,0.0706239,-3.73802,22,0.00650613,10,-0.000263994,-2.42736,0.683098,0.0863712,-12.5949,0.0706239,
2,0,0,1,0,42536,0.0694682,0.0691409,-3.71635,22,0.00636601,10,-0.000256952,-2.42988,0.720197,0.0819221,-11.9011,0.0691409,
2,0,0,1,0,42536.1,0.0679646,0.0676395,-3.6978,22,0.00622592,10,-0.000250117,-2.43206,0.741075,0.0796141,-11.5137,0.0676395,
2,0,0,1,0,42536.1,0.0664691,0.0661391,-3.68221,22,0.00608719,10,-0.000243538,-2.43389,0.716183,0.0823812,-11.8426,0.0661391,
2,0,0,1,0,42536.1,0.0649727,0.064639,-3.66864,22,0.00594902,10,-0.000237137,-2.43549,0.634758,0.0929488,-13.284,0.064639,
2,0,0,1,0,42536.2,0.0634727,0.063207,-3.65113,22,0.00581116,10,-0.000230777,-2.43757,0.663956,0.0888613,-12.6356,0.063207,
2,0,0,1,0,42536.2,0.0619728,0.0616558,-3.62868,22,0.00567414,10,-0.000223729,-2.44025,0.664432,0.0887977,-12.564,0.0616558,
2,0,0,1,0,42536.2,0.0604764,0.0601651,-3.60593,22,0.0055382,10,-0.000216951,-2.44298,0.693949,0.0850207,-11.9699,0.0601651,
2,0,0,1,0,42536.3,0.05898,0.0586501,-3.58913,22,0.00540295,10,-0.000210503,-2.44501,0.687383,0.0858328,-12.0242,0.0586501,
2,0,0,1,0,42536.3,0.05748,0.0571432,-3.56815,22,0.00526805,10,-0.000203896,-2.44756,0.602142,0.0979835,-13.6534,0.0571432,
2,0,0,1,0,42536.4,0.05598,0.055621,-3.54517,22,0.00513401,10,-0.000197186,-2.45036,0.560719,0.105222,-14.5731,0.055621,
2,0,0,1,0,42536.4,0.0544836,0.0541131,-3.52539,22,0.00500109,10,-0.00019077,-2.45279,0.663148,0.0889696,-12.2416,0.0541131,
2,0,0,1,0,42536.4,0.0529881,0.0526236,-3.51112,22,0.00486889,10,-0.000184767,-2.45455,0.60752,0.0971161,-13.2841,0.0526236,
2,0,0,1,0,42536.5,0.0514846,0.0511666,-3.48605,22,0.0047367,10,-0.000178369,-2.45767,0.540126,0.109234,-14.8463,0.0511666,
2,0,0,1,0,42536.5,0.049989,0.0497075,-3.46276,22,0.00460604,10,-0.000172125,-2.46058,0.503156,0.11726,-15.8363,0.0497075,
2,0,0,1,0,42536.5,0.0484926,0.0481839,-3.44257,22,0.00447628,10,-0.000165877,-2.46312,0.516322,0.11427,-15.3496,0.0481839,
2,0,0,1,0,42536.6,0.0469927,0.0466615,-3.42317,22,0.00434694,10,-0.00015973,-2.46557,0.540751,0.109107,-14.5676,0.0466615,
2,0,0,1,0,42536.6,0.0454927,0.0451523,-3.39521,22,0.00421841,10,-0.000153301,-2.46913,0.475218,0.124153,-16.4621,0.0451523,
2,0,0,1,0,42536.7,0.0439963,0.0436607,-3.3717,22,0.00409104,10,-0.000147211,-2.47215,0.503771,0.117117,-15.4323,0.0436607,
2,0,0,1,0,42536.7,0.0424999,0.0421908,-3.35221,22,0.00396469,10,-0.000141432,-2.47467,0.517407,0.11403,-14.9244,0.0421908,
2,0,0,1,0,42536.7,0.0409999,0.0406421,-3.33112,22,0.00383882,10,-0.000135384,-2.47741,0.512905,0.115031,-14.9449,0.0406421,
2,0,0,1,0,42536.8,0.0394999,0.0391464,-3.31026,22,0.00371371,10,-0.000129585,-2.48014,0.46227,0.127631,-16.4376,0.0391464,
2,0,0,1,0,42536.8,0.0380044,0.0376349,-3.28115,22,0.00358983,10,-0.000123486,-2.48397,0.426715,0.138266,-17.6923,0.03763492,
2,0,0,1,0,42536.8,0.0365089,0.0361834,-3.25277,22,0.00346702,10,-0.000117696,-2.48775,0.470919,0.125287,-15.9078,0.0361834,
2,0,0,1,0,42536.9,0.0350054,0.0346757,-3.22819,22,0.00334448,10,-0.00011194,-2.49104,0.488545,0.120767,-15.2234,0.0346757,
2,0,0,1,0,42536.9,0.0335089,0.0332157,-3.20256,22,0.0032235,10,-0.000106375,-2.4945,0.429252,0.137448,-17.1902,0.0332157,
2,0,0,1,0,42537,0.0320125,0.0316749,-3.17686,22,0.00310347,10,-0.000100627,-2.498,0.417006,0.141485,-17.5495,0.0316749,
2,0,0,1,0,42537,0.0305126,0.0302069,-3.14392,22,0.00298419,10,-9.4968e-05,-2.50253,0.385711,0.152964,-18.8099,0.03020685,
2,0,0,1,0,42537,0.0290126,0.0286482,-3.12421,22,0.0028659,10,-8.95031e-05,-2.50526,0.425484,0.138665,-16.899,0.0286482,
2,0,0,1,0,42537.1,0.0275162,0.0271526,-3.10962,22,0.00274886,10,-8.44342e-05,-2.50729,0.393835,0.149809,-18.109,0.0271526,
2,0,0,1,0,42537.1,0.0260198,0.025698,-3.0752,22,0.00263276,10,-7.90265e-05,-2.51213,0.411817,0.143267,-17.1669,0.025698,
2,0,0,1,0,42537.1,0.0245198,0.0242097,-3.04426,22,0.00251734,10,-7.37007e-05,-2.51652,0.426392,0.13837,-16.4491,0.0242097,
2,0,0,1,0,42537.2,0.0230198,0.0226703,-3.02135,22,0.00240294,10,-6.84948e-05,-2.5198,0.416929,0.141511,-16.6897,0.0226703,
2,0,0,1,0,42537.2,0.0215243,0.0212198,-2.99648,22,0.0022897,10,-6.35847e-05,-2.52339,0.461392,0.127874,-14.9665,0.0212198,
2,0,0,1,0,42537.3,0.0200288,0.019679,-2.97207,22,0.00217734,10,-5.84875e-05,-2.52694,0.435881,0.135358,-15.7203,0.019679,
2,0,0,1,0,42537.3,0.0185253,0.0182219,-2.95165,22,0.00206522,10,-5.37848e-05,-2.52994,0.474271,0.124401,-14.3451,0.0182219,
2,0,0,1,0,42537.3,0.0170289,0.0167118,-2.93487,22,0.00195458,10,-4.9047e-05,-2.53241,0.51014,0.115654,-13.2263,0.0167118,
2,0,0,1,0,42537.4,0.0155325,0.0152293,-2.912,22,0.00184469,10,-4.43477e-05,-2.53581,0.51129,0.115394,-13.0984,0.0152293,
2,0,0,1,0,42537.4,0.0140325,0.0136792,-2.89489,22,0.00173514,10,-3.95999e-05,-2.53837,0.524115,0.112571,-12.6933,0.0136792,
2,0,0,1,0,42537.4,0.0125325,0.0121977,-2.87283,22,0.00162629,10,-3.50418e-05,-2.54169,0.513988,0.114789,-12.8841,0.01219766,
2,0,0,1,0,42537.5,0.0110361,0.0107065,-2.85195,22,0.00151855,10,-3.05343e-05,-2.54486,0.554581,0.106387,-11.8728,0.0107065,
2,0,0,1,0,42537.5,0.0095397,0.00919243,-2.83943,22,0.00141138,10,-2.61013e-05,-2.54677,0.810295,0.072813,-8.08189,0.00919243,
2,0,0,1,0,42537.6,0.00803616,0.00773566,-2.82715,22,0.00130415,10,-2.18699e-05,-2.54865,0.732382,0.080559,-8.89704,0.00773566,
2,0,0,1,0,42537.6,0.00654064,0.00623782,-2.8176,22,0.00119793,10,-1.75756e-05,-2.55012,0.756022,0.0780401,-8.57212,0.00623782,
2,0,0,1,0,42537.6,0.00504513,0.00475872,-2.79955,22,0.00109222,10,-1.33223e-05,-2.55291,0.919508,0.0641648,-7.02027,0.00475872,
2,0,0,1,0,42537.7,0.00354515,0.00322241,-2.79473,22,0.000986706,10,-9.00577e-06,-2.55366,31.5872,0.00186784,-0.20427,0.00322241,
2,0,0,1,0,42537.7,0.00204518,0.00169043,-2.81937,22,0.000881227,10,-4.76596e-06,-2.54985,3.00957,0.0196041,-2.13562,0.00169043,
2,0,0,1,0,42537.7,0.000548773,0.000125614,-2.79353,22,0.000775805,10,-3.50907e-07,-2.55385, , , ,0.0001256144,
2,0,0,1,0,42537.8,0.000177222,-0.000202401,-2.78712,22,0.000749683,10,5.64116e-07,-2.55484, , , ,-0.000202401,