File: Figure_codes/Fig_3-5/rawdata_trumpetplot_data/after 10th/20221101_1-115_003_TrumpetPlot_ParaChange_from10_every3_14_CV_C01_1.csv
mode,ox/red,error,control changes,counter inc.,time/s,control/V,Ewe/V,<I>/mA,cycle number,(Q-Qo)/C,I Range,P/W,log(|I|),Tafel slope mV/dec,alpha_eff,dI/d(E-IR),E-IR/V,
2,1,0,1,0,3169.24,2.44065e-05,-0.000153538,47.236,2,0.0000000E+000,10,-7.25251e-06,-1.32573, , , ,-0.000153538,
2,1,0,1,0,3169.24,0.00332042,0.00294815,48.5187,2,0.000148901,10,0.00014304,-1.31409, , , ,0.00294815,
2,1,0,1,0,3169.24,0.0073156,0.00696497,49.5375,2,0.000345198,10,0.000345027,-1.30507, , , ,0.00696497,
2,1,0,1,0,3169.25,0.0113108,0.0109139,50.3855,2,0.000545169,10,0.000549904,-1.29769,0.570536,0.103411,202.276,0.0109139,
2,1,0,1,0,3169.25,0.0153059,0.0149223,51.1154,2,0.000748247,10,0.000762758,-1.29145,0.657439,0.0897422,178.448,0.0149223,
2,1,0,1,0,3169.26,0.0193011,0.0189539,51.7562,2,0.000954074,10,0.000980984,-1.28604,0.772919,0.076334,153.759,0.0189539,
2,1,0,1,0,3169.26,0.0233462,0.0229538,52.3907,2,0.00116252,10,0.00120256,-1.28075,0.894339,0.0659705,134.37,0.0229538,
2,1,0,1,0,3169.26,0.0273414,0.0270088,52.8603,2,0.00137309,10,0.00142769,-1.27687,1.01869,0.0579174,119.125,0.0270088,
2,1,0,1,0,3169.27,0.0313366,0.031032,53.2801,2,0.00158543,10,0.00165338,-1.27344,1.20476,0.0489726,101.678,0.031032,
2,1,0,1,0,3169.27,0.0353317,0.0349321,53.6596,2,0.00179935,10,0.00187445,-1.27035,1.29349,0.045613,95.4468,0.0349321,
2,1,0,1,0,3169.28,0.0393269,0.0389543,54.0176,2,0.00201474,10,0.00210421,-1.26746,1.40929,0.0418651,88.192,0.0389543,
2,1,0,1,0,3169.28,0.0433221,0.0429573,54.3825,2,0.00223159,10,0.00233612,-1.26454,1.5412,0.0382819,81.1329,0.0429573,
2,1,0,1,0,3169.28,0.0473173,0.046919,54.6812,2,0.00244975,10,0.00256558,-1.26216,1.62819,0.0362366,77.2636,0.04691897,
2,1,0,1,0,3169.29,0.0513124,0.050904,54.9555,2,0.00266908,10,0.00279745,-1.25999,1.75354,0.0336462,72.1622,0.050904,
2,1,0,1,0,3169.29,0.0553076,0.0549727,55.2552,2,0.00288953,10,0.00303753,-1.25763,1.68154,0.0350869,75.7048,0.0549727,
2,1,0,1,0,3169.3,0.0593028,0.0588899,55.5322,2,0.00311111,10,0.00327029,-1.25545,1.55418,0.0379621,82.3931,0.0588899,
2,1,0,1,0,3169.3,0.0633479,0.0629555,55.8952,2,0.00333393,10,0.00351891,-1.25263,1.45663,0.0405045,88.4572,0.0629555,
2,1,0,1,0,3169.3,0.0673431,0.066931,56.276,2,0.0035583,10,0.00376661,-1.24968,1.32957,0.0443753,97.5245,0.066931,
2,1,0,1,0,3169.31,0.0713383,0.0709404,56.6677,2,0.0037842,10,0.00402003,-1.24666,1.25973,0.0468353,103.679,0.0709404,
2,1,0,1,0,3169.31,0.0753334,0.0749773,57.1011,2,0.00401178,10,0.00428129,-1.24336,1.18919,0.0496138,110.678,0.0749773,
2,1,0,1,0,3169.32,0.0793286,0.078992,57.5579,2,0.00424111,10,0.00454661,-1.2399,1.10136,0.0535703,120.484,0.078992,
2,1,0,1,0,3169.32,0.0833238,0.0829993,58.0544,2,0.00447238,10,0.00481847,-1.23616,1.02884,0.0573461,130.108,0.0829993,
2,1,0,1,0,3169.32,0.0873189,0.0869864,58.601,2,0.00470572,10,0.00509749,-1.2321,0.952708,0.0619287,141.834,0.0869864,
2,1,0,1,0,3169.33,0.0913141,0.0909608,59.1807,2,0.00494131,10,0.00538313,-1.22782,0.88184,0.0669056,154.791,0.0909608,
2,1,0,1,0,3169.33,0.0953093,0.0949829,59.8259,2,0.00517938,10,0.00568244,-1.22311,0.817767,0.0721477,168.768,0.0949829,
2,1,0,1,0,3169.34,0.0993045,0.0989658,60.5259,2,0.00542012,10,0.00599,-1.21806,0.758602,0.0777747,184.073,0.0989658,
2,1,0,1,0,3169.34,0.103319,0.102955,61.296,2,0.00566381,10,0.00631073,-1.21257,0.725123,0.0813656,194.878,0.102955,
2,1,0,1,0,3169.34,0.107345,0.106991,62.1314,2,0.00591079,10,0.0066475,-1.20669,0.700857,0.0841826,204.168,0.106991,
2,1,0,1,0,3169.35,0.11134,0.110968,62.941,2,0.00616098,10,0.0069844,-1.20107,0.679553,0.0868218,213.432,0.110968,
2,1,0,1,0,3169.35,0.115335,0.114961,63.7916,2,0.00641453,10,0.00733355,-1.19524,0.666718,0.0884932,220.614,0.114961,
2,1,0,1,0,3169.36,0.11933,0.118969,64.7139,2,0.00667161,10,0.00769898,-1.189,0.647295,0.0911485,230.395,0.118969,
2,1,0,1,0,3169.36,0.123325,0.122982,65.6593,2,0.00693244,10,0.0080749,-1.1827,0.631253,0.0934648,239.613,0.122982,
2,1,0,1,0,3169.36,0.127321,0.126979,66.6298,2,0.0071971,10,0.00846056,-1.17633,0.622374,0.0947983,246.641,0.126979,
2,1,0,1,0,3169.37,0.131316,0.130961,67.6255,2,0.00746569,10,0.00885634,-1.16989,0.610351,0.0966658,255.326,0.130961,
2,1,0,1,0,3169.37,0.135311,0.134953,68.6561,2,0.00773835,10,0.00926534,-1.16332,0.59794,0.098672,264.635,0.134953,
2,1,0,1,0,3169.38,0.139306,0.13897,69.7414,2,0.00801526,10,0.00969193,-1.15651,0.579506,0.101811,277.442,0.13897,
2,1,0,1,0,3169.38,0.143301,0.142946,70.8554,2,0.00829654,10,0.0101285,-1.14963,0.569388,0.10362,286.819,0.1429462,
2,1,0,1,0,3169.38,0.147346,0.146992,72.073,2,0.00858256,10,0.0105941,-1.14223,0.562254,0.104935,295.163,0.146992,
2,1,0,1,0,3169.39,0.151342,0.150947,73.2436,2,0.00887329,10,0.0110559,-1.13523,0.553759,0.106545,304.661,0.150947,
2,1,0,1,0,3169.39,0.155337,0.154951,74.4585,2,0.0091688,10,0.0115374,-1.12809,0.551908,0.106902,310.961,0.154951,
2,1,0,1,0,3169.4,0.159332,0.15897,75.7373,2,0.00946932,10,0.01204,-1.12069,0.543056,0.108644,321.292,0.15897,
2,1,0,1,0,3169.4,0.163327,0.163001,77.0511,2,0.00977501,10,0.0125594,-1.11322,0.541745,0.108907,327.504,0.1630006,
2,1,0,1,0,3169.4,0.167322,0.166887,78.3649,2,0.010086,10,0.0130781,-1.10588,0.543532,0.108549,331.968,0.166887,
2,1,0,1,0,3169.41,0.171317,0.170983,79.7091,2,0.0104023,10,0.0136289,-1.09849,0.548964,0.107475,334.239,0.170983,
2,1,0,1,0,3169.41,0.175313,0.174963,81.0464,2,0.0107239,10,0.0141801,-1.09127,0.560904,0.105187,332.566,0.174963,
2,1,0,1,0,3169.42,0.179308,0.178948,82.3814,2,0.0110509,10,0.014742,-1.08417,0.569149,0.103664,333.136,0.178948,
2,1,0,1,0,3169.42,0.183303,0.182985,83.7186,2,0.0113833,10,0.0153193,-1.07718,0.594989,0.0991615,323.559,0.182985,
2,1,0,1,0,3169.42,0.187348,0.186974,85.0363,2,0.0117208,10,0.0158996,-1.0704,0.630291,0.0936076,309.952,0.186974,
2,1,0,1,0,3169.43,0.191343,0.190961,86.2228,2,0.0120635,10,0.0164652,-1.06438,0.678915,0.0869033,291.78,0.190961,
2,1,0,1,0,3169.43,0.195338,0.194993,87.3546,2,0.0124108,10,0.0170335,-1.05871,0.755957,0.0780468,265.443,0.194993,
2,1,0,1,0,3169.44,0.199334,0.198981,88.386,2,0.0127624,10,0.0175872,-1.05362,0.850729,0.0693523,238.498,0.198981,
2,1,0,1,0,3169.44,0.203329,0.203008,89.2922,2,0.0131179,10,0.018127,-1.04919,1.01979,0.057855,200.843,0.203008,
2,1,0,1,0,3169.44,0.207324,0.206963,90.0392,2,0.0134766,10,0.0186348,-1.04557,1.32868,0.0444051,155.315,0.206963,
2,1,0,1,0,3169.45,0.211319,0.210989,90.5673,2,0.013838,10,0.0191087,-1.04303,2.08785,0.0282588,99.3514,0.210989,
2,1,0,1,0,3169.45,0.215314,0.214974,90.8699,2,0.0142009,10,0.0195347,-1.04158,6.33593,0.00931197,32.8173,0.214974,
2,1,0,1,0,3169.46,0.219309,0.219032,90.8843,2,0.0145645,10,0.0199066,-1.04151,-4.84161,-0.012186,-42.9083,0.219032,
2,1,0,1,0,3169.46,0.223305,0.222993,90.5652,2,0.0149275,10,0.0201954,-1.04304,-1.61517,-0.0365286,-128.07,0.222993,
2,1,0,1,0,3169.46,0.227314,0.227031,89.879,2,0.0152884,10,0.0204053,-1.04634,-0.911162,-0.0647525,-225.091,0.227031,
2,1,0,1,0,3169.47,0.231345,0.231061,88.8098,2,0.0156458,10,0.0205204,-1.05154,-0.627966,-0.0939541,-322.469,0.231061,
2,1,0,1,0,3169.47,0.23534,0.235033,87.2827,2,0.015998,10,0.0205143,-1.05907,-0.469588,-0.125642,-423.857,0.235033,
2,1,0,1,0,3169.48,0.239335,0.23909,85.3745,2,0.0163432,10,0.0204122,-1.06867,-0.375239,-0.157233,-519.04,0.23909,
2,1,0,1,0,3169.48,0.24333,0.243043,83.0921,2,0.01668,10,0.020195,-1.08044,-0.314486,-0.187608,-602.988,0.243043,
2,1,0,1,0,3169.48,0.247326,0.247077,80.4966,2,0.017007,10,0.0198889,-1.09422,-0.272371,-0.216617,-675.113,0.247077,
2,1,0,1,0,3169.49,0.251321,0.251061,77.618,2,0.017323,10,0.0194869,-1.11004,-0.246052,-0.239787,-721.941,0.251061,
2,1,0,1,0,3169.49,0.255316,0.255071,74.5853,2,0.0176271,10,0.0190246,-1.12735,-0.22562,-0.261502,-757.98,0.255071,
2,1,0,1,0,3169.5,0.259311,0.259114,71.4902,2,0.0179189,10,0.0185241,-1.14575,-0.213976,-0.275732,-767.137,0.259114,
2,1,0,1,0,3169.5,0.263306,0.263069,68.375,2,0.0181984,10,0.0179873,-1.1651,-0.207348,-0.284546,-758.768,0.263069,
2,1,0,1,0,3169.5,0.267302,0.267101,65.3134,2,0.0184654,10,0.0174452,-1.185,-0.202288,-0.291663,-744.153,0.267101,
2,1,0,1,0,3169.51,0.271347,0.271092,62.4293,2,0.0187206,10,0.0169241,-1.20461,-0.203776,-0.289534,-706.657,0.271092,
2,1,0,1,0,3169.51,0.275342,0.275064,59.6205,2,0.0189644,10,0.0163995,-1.2246,-0.207291,-0.284624,-664.625,0.275064,
2,1,0,1,0,3169.52,0.279337,0.279104,57.0434,2,0.0191974,10,0.0159211,-1.24379,-0.212682,-0.27741,-620.557,0.2791045,
2,1,0,1,0,3169.52,0.283332,0.283117,54.6685,2,0.0194205,10,0.0154776,-1.26226,-0.22196,-0.265814,-569.884,0.283117,
2,1,0,1,0,3169.52,0.287327,0.287101,52.4948,2,0.0196346,10,0.0150713,-1.27988,-0.232235,-0.254054,-523.168,0.287101,
2,1,0,1,0,3169.53,0.291322,0.291067,50.5009,2,0.0198403,10,0.0146991,-1.2967,-0.246805,-0.239055,-474.489,0.291067,
2,1,0,1,0,3169.53,0.295318,0.295038,48.7075,2,0.0200385,10,0.0143706,-1.3124,-0.254855,-0.231504,-448.232,0.295038,
2,1,0,1,0,3169.54,0.299013,0.298794,47.2301,2,0.0202158,10,0.0141121,-1.32578,-0.107533,-0.548669,-997.577,0.298794,
2,1,0,0,0,3169.54,0.300012,0.299727,46.8353,2,0.0202629,10,0.0140378,-1.32943,0.00248751,23.7185,36931.9,0.299727,
2,1,0,1,0,3169.54,0.298714,0.298704,42.8824,2,0.0203197,10,0.0128091,-1.36772,0.0277022,2.1298,2846.19,0.298704,
2,1,0,1,0,3169.54,0.294718,0.294592,32.2207,2,0.020468,10,0.00949194,-1.49187,0.0299411,1.97054,2267.99,0.294592,
2,1,0,1,0,3169.55,0.290723,0.290592,23.8865,2,0.0205789,10,0.00694121,-1.62185,0.0280618,2.1025,1948.94,0.2905919,
2,1,0,1,0,3169.55,0.286728,0.286604,17.0709,2,0.0206598,10,0.00489258,-1.76774,0.0233801,2.52352,1596.4,0.286604,
2,1,0,1,0,3169.55,0.282733,0.282543,11.3864,2,0.0207159,10,0.00321715,-1.94361,0.01673,3.5266,1325.06,0.282543,
2,1,0,1,0,3169.56,0.278738,0.278578,6.65551,2,0.0207513,10,0.00185408,-2.17682,0.0121139,4.87045,1111.08,0.278578,
2,1,0,1,0,3169.56,0.274742,0.274546,2.62441,2,0.0207692,10,0.000720521,-2.58097,0.0337213,1.74964,946.921,0.274546,
2,0,0,1,0,3169.57,0.270747,0.270517,-0.80228,2,0.0207724,10,-0.000217031,-3.09567,0.741747,0.0795419,805.251,0.270517,
2,0,0,1,0,3169.57,0.266702,0.266498,-3.80693,2,0.0207627,10,-0.00101454,-2.41943,-0.0314903,-1.87359,692.173,0.266498,
2,0,0,1,0,3169.57,0.262707,0.262451,-6.33053,2,0.0207421,10,-0.00166145,-2.19856,-0.0143944,-4.09882,599.066,0.262451,
2,0,0,1,0,3169.58,0.258712,0.258479,-8.49692,2,0.0207122,10,-0.00219627,-2.07074,-0.0320194,-1.84263,515.292,0.258479,
2,0,0,1,0,3169.58,0.254717,0.254503,-10.3959,2,0.0206741,10,-0.00264578,-1.98314,-0.0483677,-1.21982,451.705,0.254503,
2,0,0,1,0,3169.59,0.250722,0.250437,-12.083,2,0.0206289,10,-0.00302604,-1.91782,-0.0656835,-0.898246,399.427,0.250437,
2,0,0,1,0,3169.59,0.246726,0.246459,-13.5542,2,0.0205775,10,-0.00334055,-1.86793,-0.0849228,-0.694749,353.009,0.246459,
2,0,0,1,0,3169.59,0.242731,0.242485,-14.885,2,0.0205204,10,-0.00360939,-1.82725,-0.105691,-0.558229,314.762,0.242485,
2,0,0,1,0,3169.6,0.238736,0.238482,-16.0513,2,0.0204584,10,-0.00382795,-1.79449,-0.127627,-0.462283,283.432,0.238482,
2,0,0,1,0,3169.6,0.234741,0.234489,-17.103,2,0.0203919,10,-0.00401046,-1.76693,-0.149912,-0.393565,259.165,0.234489,
2,0,0,1,0,3169.61,0.230746,0.23048,-18.0832,2,0.0203215,10,-0.00416782,-1.74272,-0.174179,-0.338733,236.35,0.23048,
2,0,0,1,0,3169.61,0.226701,0.226488,-19.0309,2,0.0202472,10,-0.00431028,-1.72054,-0.198921,-0.2966,217.525,0.226488,
2,0,0,1,0,3169.61,0.222705,0.222453,-19.8398,2,0.0201693,10,-0.00441342,-1.70246,-0.226182,-0.260852,199.956,0.222453,
2,0,0,1,0,3169.62,0.21871,0.218464,-20.5888,2,0.0200884,10,-0.00449791,-1.68637,-0.257561,-0.229072,182.934,0.218464,
2,0,0,1,0,3169.62,0.214715,0.214458,-21.2869,2,0.0200046,10,-0.00456513,-1.67189,-0.280216,-0.210552,174.246,0.214458,
2,0,0,1,0,3169.63,0.21072,0.210454,-21.9642,2,0.019918,10,-0.00462244,-1.65829,-0.303803,-0.194205,165.94,0.210454,
2,0,0,1,0,3169.63,0.206725,0.206431,-22.6317,2,0.0198287,10,-0.00467187,-1.64528,-0.324342,-0.181906,160.058,0.206431,
2,0,0,1,0,3169.63,0.202729,0.202406,-23.2534,2,0.0197369,10,-0.00470664,-1.63351,-0.343453,-0.171785,155.432,0.202406,
2,0,0,1,0,3169.64,0.198734,0.198423,-23.8533,2,0.0196426,10,-0.00473305,-1.62245,-0.36111,-0.163385,151.927,0.198423,
2,0,0,1,0,3169.64,0.194739,0.194469,-24.4487,2,0.0195459,10,-0.00475451,-1.61174,-0.36891,-0.15993,152.607,0.194469,
2,0,0,1,0,3169.65,0.190744,0.190431,-25.0624,2,0.0194469,10,-0.00477266,-1.60098,-0.370181,-0.159381,156.004,0.190431,
2,0,0,1,0,3169.65,0.186735,0.18646,-25.687,2,0.0193453,10,-0.00478959,-1.59029,-0.376643,-0.156647,157.059,0.18646,
2,0,0,1,0,3169.65,0.182704,0.182426,-26.3489,2,0.0192411,10,-0.00480673,-1.57924,-0.376408,-0.156745,161.055,0.182426,
2,0,0,1,0,3169.66,0.178709,0.178389,-26.9742,2,0.0191344,10,-0.0048119,-1.56905,-0.374191,-0.157674,166.096,0.178389,
2,0,0,1,0,3169.66,0.174713,0.174454,-27.6356,2,0.0190252,10,-0.00482114,-1.55853,-0.368987,-0.159897,172.9,0.174454,
2,0,0,1,0,3169.67,0.170718,0.170483,-28.3407,2,0.0189131,10,-0.0048316,-1.54759,-0.353523,-0.166892,185.155,0.170483,
2,0,0,1,0,3169.67,0.166723,0.166451,-29.111,2,0.0187982,10,-0.00484556,-1.53594,-0.338711,-0.17419,198.485,0.166451,
2,0,0,1,0,3169.67,0.162728,0.162415,-29.9318,2,0.0186801,10,-0.00486139,-1.52387,-0.319175,-0.184851,216.732,0.162415,
2,0,0,1,0,3169.68,0.158733,0.158428,-30.8165,2,0.0185585,10,-0.0048822,-1.51122,-0.300969,-0.196034,236.899,0.158428,
2,0,0,1,0,3169.68,0.154737,0.15447,-31.8113,2,0.0184332,10,-0.00491388,-1.49742,-0.281551,-0.209554,261.5,0.15447,
2,0,0,1,0,3169.69,0.150742,0.150475,-32.8957,2,0.0183037,10,-0.00494998,-1.48286,-0.2596,-0.227273,293.625,0.1504751,
2,0,0,1,0,3169.69,0.146747,0.14644,-34.1093,2,0.0181696,10,-0.00499497,-1.46713,-0.246163,-0.239678,320.99,0.14644,
2,0,0,1,0,3169.69,0.142702,0.14247,-35.5022,2,0.0180303,10,-0.005058,-1.44974,-0.231899,-0.254421,354,0.14247,
2,0,0,1,0,3169.7,0.138707,0.138463,-36.9493,2,0.0178853,10,-0.0051161,-1.43239,-0.220468,-0.267612,387.733,0.138463,
2,0,0,1,0,3169.7,0.134712,0.134478,-38.5588,2,0.0177341,10,-0.0051853,-1.41388,-0.21223,-0.278,420.533,0.134478,
2,0,0,1,0,3169.71,0.130717,0.130441,-40.3128,2,0.0175762,10,-0.00525843,-1.39456,-0.204613,-0.28835,455.546,0.130441,
2,0,0,1,0,3169.71,0.126721,0.126513,-42.2127,2,0.017411,10,-0.00534045,-1.37456,-0.200304,-0.294553,486.616,0.126513,
2,0,0,1,0,3169.71,0.122726,0.122479,-44.2305,2,0.017238,10,-0.00541732,-1.35428,-0.197091,-0.299354,517.612,0.122479,
2,0,0,1,0,3169.72,0.118731,0.118484,-46.3417,2,0.0170566,10,-0.00549074,-1.33403,-0.196931,-0.299597,542.596,0.118484,
2,0,0,1,0,3169.72,0.114736,0.114521,-48.5531,2,0.0168666,10,-0.00556035,-1.31378,-0.198858,-0.296694,562.519,0.114521,
2,0,0,1,0,3169.73,0.110741,0.11056,-50.8686,2,0.0166676,10,-0.00562404,-1.29355,-0.201863,-0.292278,579.972,0.11056,
2,0,0,1,0,3169.73,0.106745,0.106521,-53.2072,2,0.0164592,10,-0.0056677,-1.27403,-0.208854,-0.282494,585.445,0.106521,
2,0,0,1,0,3169.73,0.102703,0.102467,-55.6308,2,0.0162414,10,-0.00570034,-1.25468,-0.22003,-0.268146,579.831,0.102467,
2,0,0,1,0,3169.74,0.0987052,0.0985088,-57.9273,2,0.016014,10,-0.00570635,-1.23712,-0.231512,-0.254847,573.787,0.0985088,
2,0,0,1,0,3169.74,0.09471,0.0944527,-60.2082,2,0.0157775,10,-0.00568683,-1.22034,-0.248831,-0.237109,554.612,0.0944527,
2,0,0,1,0,3169.75,0.0907148,0.0904656,-62.4197,2,0.015532,10,-0.00564684,-1.20468,-0.262327,-0.224911,545.658,0.0904656,
2,0,0,1,0,3169.75,0.0867197,0.086557,-64.4549,2,0.015278,10,-0.00557902,-1.19074,-0.281298,-0.209742,526.307,0.086557,
2,0,0,1,0,3169.75,0.0827245,0.0826059,-66.6049,2,0.0150157,10,-0.00550196,-1.17649,-0.301963,-0.195388,506.051,0.0826059,
2,0,0,1,0,3169.76,0.0787293,0.0785721,-68.5663,2,0.0147452,10,-0.0053874,-1.16389,-0.322799,-0.182776,486.981,0.0785721,
2,0,0,1,0,3169.76,0.0747341,0.0745563,-70.4706,2,0.0144669,10,-0.00525403,-1.15199,-0.35607,-0.165698,453.769,0.0745563,
2,0,0,1,0,3169.77,0.070739,0.0705862,-72.2323,2,0.0141813,10,-0.0050986,-1.14127,-0.386763,-0.152548,428.233,0.0705862,
2,0,0,1,0,3169.77,0.0667438,0.066615,-73.8611,2,0.0138889,10,-0.00492025,-1.13158,-0.423454,-0.13933,400.368,0.066615,
2,0,0,1,0,3169.77,0.0627403,0.0626109,-75.4014,2,0.0135902,10,-0.00472095,-1.12262,-0.470124,-0.125499,368.111,0.0626109,
2,0,0,1,0,3169.78,0.0587035,0.0585463,-76.8805,2,0.0132854,10,-0.00450107,-1.11418,-0.526506,-0.11206,334.693,0.05854632,
2,0,0,1,0,3169.78,0.0547083,0.0544786,-78.1617,2,0.0129751,10,-0.00425814,-1.10701,-0.604609,-0.0975837,296.171,0.0544786,
2,0,0,1,0,3169.79,0.0507132,0.0504734,-79.2636,2,0.0126601,10,-0.00400071,-1.10093,-0.724792,-0.0814026,250.602,0.0504734,
2,0,0,1,0,3169.79,0.046718,0.046463,-80.184,2,0.0123411,10,-0.00372559,-1.09591,-0.879931,-0.0670507,208.881,0.04646299,
2,0,0,1,0,3169.79,0.0427228,0.0424292,-80.9195,2,0.0120188,10,-0.00343335,-1.09195,-1.11765,-0.0527895,166.019,0.0424292,
2,0,0,1,0,3169.8,0.0387276,0.0384527,-81.5092,2,0.0116938,10,-0.00313425,-1.08879,-1.49472,-0.0394723,125.061,0.0384527,
2,0,0,1,0,3169.8,0.0347325,0.0344825,-81.9184,2,0.0113669,10,-0.00282475,-1.08662,-2.11129,-0.027945,89.0251,0.03448252,
2,0,0,1,0,3169.81,0.0307373,0.0304137,-82.1911,2,0.0110386,10,-0.00249974,-1.08518,-3.57294,-0.016513,52.7995,0.0304137,
2,0,0,1,0,3169.81,0.0267421,0.0264404,-82.3429,2,0.0107095,10,-0.00217718,-1.08437,-7.24899,-0.00813907,26.0872,0.0264404,
2,0,0,1,0,3169.81,0.022747,0.0225116,-82.3509,2,0.0103801,10,-0.00185385,-1.08433,195.133,0.000302358,-0.969769,0.02251159,
2,0,0,1,0,3169.82,0.0187018,0.0184396,-82.3369,2,0.0100507,10,-0.00151826,-1.08441,7.55593,0.00780844,-25.032,0.01843963,
2,0,0,1,0,3169.82,0.0147067,0.0144133,-82.1756,2,0.00972166,10,-0.00118442,-1.08526,4.33488,0.0136105,-43.5563,0.0144133,
2,0,0,1,0,3169.83,0.0107115,0.0104272,-81.9421,2,0.00939343,10,-0.000854426,-1.08649,2.95422,0.0199714,-63.776,0.0104272,
2,0,0,1,0,3169.83,0.00671632,0.00640508,-81.6494,2,0.00906627,10,-0.00052297,-1.08805,2.45783,0.0240049,-76.4085,0.00640508,
2,0,0,1,0,3169.83,0.00272115,0.00241583,-81.3149,2,0.00874038,10,-0.000196443,-1.08983,2.0643,0.0285811,-90.5863,0.00241583,
2,0,0,1,0,3169.84,-0.00127403,-0.00165401,-80.9479,2,0.00841581,10,0.000133889,-1.09179,1.78401,0.0330716,-104.301,-0.00165401,
2,0,0,1,0,3169.84,-0.0052692,-0.0056422,-80.4864,2,0.00809298,10,0.000454121,-1.09428,1.54585,0.0381667,-119.688,-0.0056422,
2,0,0,1,0,3169.85,-0.00926438,-0.00962403,-79.9775,2,0.0077721,10,0.000769706,-1.09703,1.33298,0.0442617,-137.923,-0.00962403,
2,0,0,1,0,3169.85,-0.0132596,-0.013591,-79.3991,2,0.00745337,10,0.00107911,-1.10018,1.20849,0.0488214,-151.038,-0.013591,
2,0,0,1,0,3169.85,-0.0172547,-0.0175834,-78.7509,2,0.00713713,10,0.00138471,-1.10374,1.07731,0.054766,-168.044,-0.0175834,
2,0,0,1,0,3169.86,-0.0212915,-0.0216628,-78.0667,2,0.0068236,10,0.00169115,-1.10753,0.959248,0.0615065,-186.967,-0.0216628,
2,0,0,1,0,3169.86,-0.025295,-0.0256574,-77.2832,2,0.00651294,10,0.00198288,-1.11191,0.862345,0.0684181,-205.836,-0.0256574,
2,0,0,1,0,3169.87,-0.0292902,-0.0296339,-76.3996,2,0.00620565,10,0.00226402,-1.11691,0.769886,0.0766348,-228.01,-0.0296339,
2,0,0,1,0,3169.87,-0.0332854,-0.0336274,-75.4485,2,0.00590203,10,0.00253714,-1.12235,0.707656,0.0833739,-245.039,-0.0336274,
2,0,0,1,0,3169.87,-0.0372805,-0.037588,-74.4356,2,0.00560236,10,0.00279789,-1.12822,0.668972,0.088195,-255.865,-0.037588,
2,0,0,1,0,3169.88,-0.0412757,-0.0416409,-73.3666,2,0.00530685,10,0.00305505,-1.1345,0.64393,0.0916249,-262.225,-0.0416409,
2,0,0,1,0,3169.88,-0.0452709,-0.0456121,-72.3113,2,0.0050156,10,0.00329827,-1.14079,0.630475,0.0935802,-264.056,-0.0456121,
2,0,0,1,0,3169.89,-0.0492661,-0.049613,-71.2566,2,0.00472862,10,0.00353526,-1.14717,0.632525,0.093277,-259.46,-0.04961304,
2,0,0,1,0,3169.89,-0.0532612,-0.0535938,-70.2092,2,0.00444578,10,0.00376278,-1.15361,0.644369,0.0915624,-251.137,-0.0535938,
2,0,0,1,0,3169.89,-0.0572564,-0.0576159,-69.2217,2,0.00416703,10,0.00398828,-1.15976,0.68068,0.0866781,-234.639,-0.0576159,
2,0,0,1,0,3169.9,-0.0612544,-0.061638,-68.2866,2,0.00389214,10,0.00420906,-1.16566,0.72893,0.0809405,-216.256,-0.06163805,
2,0,0,1,0,3169.9,-0.0652967,-0.0656114,-67.5028,2,0.00362055,10,0.00442895,-1.17068,0.785821,0.0750807,-198.141,-0.0656114,
2,0,0,1,0,3169.91,-0.0692919,-0.0696335,-66.7405,2,0.00335218,10,0.00464737,-1.17561,0.866201,0.0681135,-177.72,-0.0696335,
2,0,0,1,0,3169.91,-0.0732871,-0.0736461,-66.0455,2,0.0030867,10,0.00486399,-1.18016,0.940449,0.062736,-162.08,-0.0736461,
2,0,0,1,0,3169.91,-0.0772822,-0.0776279,-65.4449,2,0.0028238,10,0.00508035,-1.18412,1.06777,0.0552554,-141.47,-0.0776279,
2,0,0,1,0,3169.92,-0.0812774,-0.0815992,-64.9115,2,0.00256318,10,0.00529672,-1.18768,1.26198,0.0467517,-118.766,-0.0815992,
2,0,0,1,0,3169.92,-0.0852726,-0.0856181,-64.4791,2,0.00230445,10,0.00552058,-1.19058,1.49864,0.0393689,-99.3295,-0.0856181,
2,0,0,1,0,3169.93,-0.0892678,-0.0896169,-64.1487,2,0.00204727,10,0.00574881,-1.19281,1.8689,0.0315694,-79.1907,-0.0896169,
2,0,0,1,0,3169.93,-0.0932629,-0.0935902,-63.8594,2,0.00179131,10,0.00597662,-1.19478,2.35322,0.025072,-62.6019,-0.09359023,
2,0,0,1,0,3169.93,-0.0972581,-0.0976134,-63.6433,2,0.00153634,10,0.00621244,-1.19625,3.42971,0.0172026,-42.8364,-0.0976134,
2,0,0,1,0,3169.94,-0.101253,-0.101569,-63.4806,2,0.00128215,10,0.00644764,-1.19736,5.43576,0.010854,-26.9591,-0.101569,
2,0,0,1,0,3169.94,-0.105298,-0.105635,-63.4625,2,0.00102829,10,0.00670389,-1.19748,11.0589,0.00533508,-13.2292,-0.1056354,
2,0,0,1,0,3169.95,-0.109294,-0.109633,-63.4269,2,0.000774539,10,0.00695369,-1.19773,583.989,0.000101029,-0.250287,-0.109633,
2,0,0,1,0,3169.95,-0.113289,-0.113599,-63.4318,2,0.000520849,10,0.0072058,-1.19769,-22.3029,-0.00264539,6.55736,-0.113599,
2,0,0,1,0,3169.95,-0.117284,-0.117661,-63.4766,2,0.000267019,10,0.00746875,-1.19739,-8.74523,-0.00674654,16.7352,-0.117661,
2,0,0,1,0,3169.96,-0.121279,-0.121586,-63.5671,2,1.29509e-05,10,0.00772888,-1.19677,-5.31188,-0.0111072,27.5921,-0.121586,
2,0,0,1,0,3169.96,-0.125274,-0.125608,-63.6942,2,-0.000241564,10,0.00800052,-1.1959,-3.86051,-0.015283,38.0409,-0.125608,
2,0,0,1,0,3169.97,-0.129269,-0.129632,-63.8742,2,-0.000496724,10,0.00828017,-1.19467,-3.17055,-0.0186088,46.4342,-0.129632,
2,0,0,1,0,3169.97,-0.133265,-0.133605,-64.0831,2,-0.000752653,10,0.0085618,-1.19326,-2.70196,-0.021836,54.6507,-0.133605,
2,0,0,1,0,3169.97,-0.13726,-0.13758,-64.3098,2,-0.00100946,10,0.00884776,-1.19172,-2.29002,-0.0257639,64.7426,-0.13758,
2,0,0,1,0,3169.98,-0.141255,-0.141579,-64.5671,2,-0.00126724,10,0.00914134,-1.18999,-2.06216,-0.0286107,72.1977,-0.141579,
2,0,0,1,0,3169.98,-0.145286,-0.145589,-64.9073,2,-0.00152615,10,0.00944982,-1.18771,-1.91066,-0.0308794,78.2577,-0.145589,
2,0,0,1,0,3169.99,-0.149295,-0.149614,-65.2389,2,-0.00178649,10,0.00976063,-1.18549,-1.8057,-0.0326743,83.1824,-0.149614,
2,0,0,1,0,3169.99,-0.15329,-0.15367,-65.5689,2,-0.00204813,10,0.010076,-1.1833,-1.81365,-0.032531,83.2495,-0.15367,
2,0,0,1,0,3169.99,-0.157286,-0.157623,-65.9016,2,-0.00231108,10,0.0103876,-1.1811,-1.74083,-0.0338919,87.2106,-0.157623,
2,0,0,1,0,3170,-0.161281,-0.161617,-66.2417,2,-0.0025754,10,0.0107058,-1.17887,-1.65988,-0.0355447,91.9672,-0.161617,
2,0,0,1,0,3170,-0.165276,-0.165613,-66.6342,2,-0.00284117,10,0.0110355,-1.1763,-1.58939,-0.0371211,96.584,-0.165613,
2,0,0,1,0,3170.01,-0.169271,-0.169563,-67.0306,2,-0.00310853,10,0.0113659,-1.17373,-1.52956,-0.0385732,100.929,-0.169563,
2,0,0,1,0,3170.01,-0.173266,-0.173564,-67.4413,2,-0.00337752,10,0.0117054,-1.17107,-1.51589,-0.038921,102.453,-0.173564,
2,0,0,1,0,3170.01,-0.177261,-0.177596,-67.8543,2,-0.00364812,10,0.0120506,-1.16842,-1.47431,-0.0400188,106.007,-0.177596,
2,0,0,1,0,3170.02,-0.181257,-0.181586,-68.2707,2,-0.00392042,10,0.012397,-1.16577,-1.38737,-0.0425265,113.434,-0.181586,
2,0,0,1,0,3170.02,-0.185252,-0.185556,-68.726,2,-0.00419445,10,0.0127525,-1.16288,-1.34598,-0.0438342,117.689,-0.185556,
2,0,0,1,0,3170.03,-0.189297,-0.189608,-69.2612,2,-0.00447053,10,0.0131325,-1.15951,-1.2989,-0.0454231,122.76,-0.189608,
2,0,0,1,0,3170.03,-0.193292,-0.193658,-69.7446,2,-0.00474862,10,0.0135066,-1.15649,-1.28101,-0.0460575,125.181,-0.193658,
2,0,0,1,0,3170.03,-0.197287,-0.197612,-70.238,2,-0.00502863,10,0.0138799,-1.15343,-1.78908,-0.0329779,89.7682,-0.197612,
2,0,0,0,0,3170.04,-0.199984,-0.200265,-70.5673,2,-0.0052187,10,0.0141322,-1.1514,0.0633287,0.931647,-2380.76,-0.200265,
2,0,0,0,1,3170.04,-0.199984,-0.200494,-70.2384,2,-0.00526089,10,0.0140824,-1.15343,-0.0358718,-1.64475,3919.94,-0.200494,
2,0,0,1,1,3170.04,-0.196688,-0.197167,-61.3908,2,-0.00546171,10,0.0121042,-1.2119,-0.057803,-1.02071,2270.89,-0.197167,
2,0,0,1,1,3170.05,-0.192693,-0.193147,-52.734,2,-0.00568868,10,0.0101854,-1.27791,-0.0593519,-0.99407,2051.44,-0.193147,
2,0,0,1,1,3170.05,-0.188698,-0.189141,-45.3067,2,-0.00588376,10,0.00856937,-1.34384,-0.0588468,-1.0026,1781.9,-0.189141,
2,0,0,1,1,3170.05,-0.184653,-0.185094,-38.6458,2,-0.00605084,10,0.00715309,-1.4129,-0.0559727,-1.05408,1587.56,-0.185094,
2,0,0,1,1,3170.06,-0.180657,-0.181057,-32.6849,2,-0.00619276,10,0.00591782,-1.48565,-0.0517223,-1.14071,1442.76,-0.181057,
2,0,0,1,1,3170.06,-0.176662,-0.177086,-27.2363,2,-0.00631194,10,0.00482316,-1.56485,-0.0467957,-1.2608,1316.04,-0.177086,
2,0,0,1,1,3170.07,-0.172667,-0.173144,-22.2265,2,-0.00641024,10,0.00384838,-1.65313,-0.0407318,-1.4485,1216.99,-0.173144,
2,0,0,1,1,3170.07,-0.168672,-0.169089,-17.5829,2,-0.00648932,10,0.00297307,-1.75491,-0.033815,-1.74479,1130.64,-0.169089,
2,0,0,1,1,3170.07,-0.164677,-0.165091,-13.255,2,-0.00655049,10,0.00218829,-1.87762,-0.0259859,-2.27046,1051.08,-0.165091,
2,0,0,1,1,3170.08,-0.160682,-0.161117,-9.18147,2,-0.00659488,10,0.00147929,-2.03709,-0.016127,-3.65847,988.265,-0.161117,
2,0,0,1,1,3170.08,-0.156686,-0.157101,-5.36418,2,-0.00662354,10,0.00084272,-2.2705,-0.0173083,-3.40878,929.036,-0.1571012,
2,0,0,1,1,3170.09,-0.152691,-0.153116,-1.79739,2,-0.00663745,10,0.000275209,-2.74536,-0.0571812,-1.03181,874.389,-0.153116,
2,1,0,1,1,3170.09,-0.148696,-0.149119,1.5834,2,-0.00663749,10,-0.000236117,-2.80041,0.0958098,0.615803,828.476,-0.1491195,
2,1,0,1,1,3170.09,-0.14467,-0.145106,4.81844,2,-0.00662438,10,-0.000699184,-2.31709,0.0205258,2.87443,787.045,-0.145106,
2,1,0,1,1,3170.1,-0.140656,-0.14112,7.87602,2,-0.00659861,10,-0.00111146,-2.10369,0.0171537,3.43949,744.893,-0.14112,
2,1,0,1,1,3170.1,-0.136661,-0.13717,10.7531,2,-0.00656103,10,-0.00147501,-1.96846,0.0303878,1.94157,708.509,-0.13717,
2,1,0,1,1,3170.11,-0.132665,-0.133176,13.4594,2,-0.00651231,10,-0.00179247,-1.87097,0.0426718,1.38264,673.341,-0.133176,
2,1,0,1,1,3170.11,-0.12867,-0.129188,16.0963,2,-0.00645288,10,-0.00207945,-1.79327,0.0552254,1.06835,638.032,-0.129188,
2,1,0,1,1,3170.11,-0.124675,-0.125197,18.5977,2,-0.00638321,10,-0.00232837,-1.73054,0.06748,0.874333,611.454,-0.125197,
2,1,0,1,1,3170.12,-0.12068,-0.121135,20.9836,2,-0.00630378,10,-0.00254186,-1.67812,0.0808169,0.730046,581.524,-0.121135,
2,1,0,1,1,3170.12,-0.116685,-0.117131,23.2702,2,-0.00621501,10,-0.00272567,-1.6332,0.0948202,0.62223,552.441,-0.117131,
2,1,0,1,1,3170.13,-0.112689,-0.11313,25.4343,2,-0.00611736,10,-0.00287739,-1.59458,0.109094,0.540818,527.004,-0.11313,
2,1,0,1,1,3170.13,-0.108694,-0.109123,27.4774,2,-0.00601129,10,-0.00299842,-1.56102,0.124107,0.475396,502.947,-0.109123,
2,1,0,1,1,3170.13,-0.104699,-0.105109,29.4293,2,-0.00589725,10,-0.0030933,-1.53122,0.140079,0.421191,478.427,-0.105109,
2,1,0,1,1,3170.14,-0.100654,-0.101072,31.3469,2,-0.00577542,10,-0.00316831,-1.50381,0.156564,0.376843,455.828,-0.101072,
2,1,0,1,1,3170.14,-0.0966588,-0.097079,33.1137,2,-0.00564628,10,-0.00321464,-1.47999,0.174008,0.339065,433.867,-0.097079,
2,1,0,1,1,3170.15,-0.0926637,-0.0930622,34.7984,2,-0.00551025,10,-0.00323842,-1.45844,0.192749,0.306097,412.568,-0.0930622,
2,1,0,1,1,3170.15,-0.0886685,-0.0890612,36.3921,2,-0.00536769,10,-0.00324113,-1.43899,0.212865,0.277172,391.147,-0.0890612,
2,1,0,1,1,3170.15,-0.0846733,-0.0851049,37.9346,2,-0.00521886,10,-0.00322842,-1.42096,0.231972,0.254342,374.35,-0.08510486,
2,1,0,1,1,3170.16,-0.0806781,-0.0810393,39.3876,2,-0.00506405,10,-0.00319194,-1.40464,0.25191,0.234211,358.158,-0.0810393,
2,1,0,1,1,3170.16,-0.076683,-0.0770649,40.787,2,-0.00490352,10,-0.00314325,-1.38948,0.276147,0.213655,338.437,-0.0770649,
2,1,0,1,1,3170.17,-0.0726878,-0.0730852,42.1141,2,-0.00473757,10,-0.00307791,-1.37557,0.297576,0.198269,324.385,-0.0730852,
2,1,0,1,1,3170.17,-0.0686926,-0.0690651,43.3631,2,-0.00456648,10,-0.00299488,-1.36288,0.319802,0.184489,311.348,-0.0690651,
2,1,0,1,1,3170.17,-0.0646974,-0.0650844,44.5631,2,-0.00439048,10,-0.00290036,-1.35102,0.346219,0.170412,295.55,-0.0650844,
2,1,0,1,1,3170.18,-0.0606523,-0.0609806,45.7948,2,-0.00420971,10,-0.0027926,-1.33918,0.37246,0.158406,281.787,-0.0609806,
2,1,0,1,1,3170.18,-0.0566571,-0.0570666,46.8483,2,-0.00402431,10,-0.00267348,-1.32931,0.402787,0.146479,266.785,-0.0570666,
2,1,0,1,1,3170.19,-0.052662,-0.0530583,47.8736,2,-0.00383475,10,-0.00254009,-1.3199,0.44397,0.132892,247.612,-0.0530583,
2,1,0,1,1,3170.19,-0.0486668,-0.0490584,48.8386,2,-0.00364123,10,-0.00239595,-1.31124,0.476655,0.123779,235.298,-0.0490584,
2,1,0,1,1,3170.19,-0.0446716,-0.0450247,49.7457,2,-0.00344395,10,-0.00223978,-1.30324,0.514539,0.114666,222.095,-0.0450247,
2,1,0,1,1,3170.2,-0.0406764,-0.0410471,50.6177,2,-0.00324312,10,-0.00207771,-1.2957,0.552726,0.106744,210.37,-0.0410471,
2,1,0,1,1,3170.2,-0.0366813,-0.0370546,51.4279,2,-0.00303895,10,-0.00190564,-1.2888,0.596271,0.0989483,198.142,-0.0370546,
2,1,0,1,1,3170.21,-0.0326861,-0.0331014,52.1955,2,-0.00283159,10,-0.00172775,-1.28237,0.649392,0.0908543,184.651,-0.0331014,
2,1,0,1,1,3170.21,-0.0286909,-0.0290687,52.9073,2,-0.00262131,10,-0.00153795,-1.27648,0.693961,0.0850192,175.247,-0.0290687,
2,1,0,1,1,3170.21,-0.0246957,-0.0250954,53.5632,2,-0.00240829,10,-0.00134419,-1.27113,0.753786,0.0782716,163.414,-0.0250954,
2,1,0,1,1,3170.22,-0.0206756,-0.0210648,54.2301,2,-0.00219266,10,-0.00114234,-1.26576,0.826822,0.0713575,150.677,-0.0210648,
2,1,0,1,1,3170.22,-0.0166554,-0.0170511,54.8183,2,-0.00197446,10,-0.000934714,-1.26107,0.903129,0.0653284,139.392,-0.0170511,
2,1,0,1,1,3170.23,-0.0126603,-0.0130396,55.3225,2,-0.00175411,10,-0.000721383,-1.2571,1.02725,0.0574348,123.763,-0.0130396,
2,1,0,1,1,3170.23,-0.0086651,-0.00906414,55.7978,2,-0.00153181,10,-0.000505759,-1.25338,1.14657,0.0514577,111.842,-0.00906414,
2,1,0,1,1,3170.23,-0.00466992,-0.00506216,56.2106,2,-0.00130774,10,-0.000284547,-1.25018, , , ,-0.005062161,
2,1,0,1,1,3170.24,-0.000974387,-0.0013465,56.5748,2,-0.00109907,10,-7.61777e-05,-1.24738, , , ,-0.0013465,
2,1,0,0,1,3170.24,-0.000175352,-0.000535284,56.6359,2,-0.00105379,10,-3.03163e-05,-1.24691, , , ,-0.000535284,