File: Figure_codes/Fig_3-5/rawdata_trumpetplot_data/after 10th/20221101_1-115_003_TrumpetPlot_ParaChange_from10_every3_05_CV_C01_18.csv
mode,ox/red,error,control changes,counter inc.,time/s,control/V,Ewe/V,<I>/mA,cycle number,(Q-Qo)/C,I Range,P/W,log(|I|),Tafel slope mV/dec,alpha_eff,dI/d(E-IR),E-IR/V,
2,0,0,1,0,36582.4,2.44065e-05,-0.000458935,-0.724613,19,0.0000000E+000,10,3.3255e-07,-3.13989, , , ,-0.000458935,
2,0,0,1,0,36582.4,0.00129787,0.000912227,0.0367308,19,-1.51921e-05,10,3.35068e-08,-4.43497, , , ,0.0009122272,
2,1,0,1,0,36582.5,0.00279606,0.00249517,0.385102,19,3.62321e-06,10,9.60895e-07,-3.41442,0.00753169,7.83357,177.116,0.00249517,
2,1,0,1,0,36582.6,0.00429425,0.00399897,0.526179,19,3.94066e-05,10,2.10417e-06,-3.27887,0.0128569,4.58897,80.0222,0.00399897,
2,1,0,1,0,36582.7,0.00579244,0.00544944,0.603347,19,8.32151e-05,10,3.28791e-06,-3.21943,0.0269665,2.1879,49.3662,0.00544944,
2,1,0,1,0,36582.7,0.00729063,0.00696274,0.665384,19,0.00013216,10,4.6329e-06,-3.17693,0.0444514,1.32729,33.7183,0.00696274,
2,1,0,1,0,36582.8,0.00878882,0.00849097,0.708467,19,0.000184927,10,6.01557e-06,-3.14968,0.0610536,0.966364,26.4173,0.00849097,
2,1,0,1,0,36582.9,0.010287,0.0100051,0.745985,19,0.000240612,10,7.46362e-06,-3.12727,0.0800013,0.737488,21.2359,0.0100051,
2,1,0,1,0,36583,0.0117852,0.0114649,0.775023,19,0.000298753,10,8.88559e-06,-3.11069,0.094672,0.623204,18.7417,0.0114649,
2,1,0,1,0,36583,0.0132847,0.0129785,0.79928,19,0.000358852,10,1.03734e-05,-3.0973,0.109056,0.541008,16.9076,0.0129785,
2,1,0,1,0,36583.1,0.0147802,0.0144481,0.824354,19,0.000420808,10,1.19103e-05,-3.08389,0.120814,0.488354,15.6675,0.01444809,
2,1,0,1,0,36583.2,0.0162798,0.0159548,0.847915,19,0.000484795,10,1.35283e-05,-3.07165,0.135094,0.436733,14.3959,0.0159548,
2,1,0,1,0,36583.3,0.017778,0.0174502,0.869847,19,0.000550305,10,1.5179e-05,-3.06056,0.14315,0.412155,13.9578,0.0174502,
2,1,0,1,0,36583.3,0.0192761,0.0189581,0.886884,19,0.000617208,10,1.68136e-05,-3.05213,0.153469,0.384443,13.3372,0.0189581,
2,1,0,1,0,36583.4,0.0207743,0.0204616,0.910235,19,0.000685735,10,1.86249e-05,-3.04085,0.146249,0.403422,14.292,0.0204616,
2,1,0,1,0,36583.5,0.0222725,0.0219496,0.929655,19,0.0007558,10,2.04055e-05,-3.03168,0.165955,0.355518,12.8745,0.0219496,
2,1,0,1,0,36583.6,0.0237707,0.0234554,0.947653,19,0.000827302,10,2.22275e-05,-3.02335,0.188028,0.313783,11.6071,0.0234554,
2,1,0,1,0,36583.6,0.0252689,0.0249336,0.963911,19,0.000900103,10,2.40337e-05,-3.01596,0.171132,0.344763,13.0167,0.0249336,
2,1,0,1,0,36583.7,0.0267671,0.0264957,0.985435,19,0.000974387,10,2.61098e-05,-3.00637,0.164256,0.359196,13.8048,0.0264957,
2,1,0,1,0,36583.8,0.0282653,0.0279407,1.00833,19,0.00105019,10,2.81734e-05,-2.9964,0.178363,0.330786,12.9832,0.0279407,
2,1,0,1,0,36583.9,0.0297644,0.0294365,1.0236,19,0.00112756,10,3.01311e-05,-2.98987,0.192877,0.305894,12.2255,0.0294365,
2,1,0,1,0,36583.9,0.0312599,0.0309298,1.04054,19,0.00120606,10,3.21836e-05,-2.98274,0.191028,0.308856,12.5582,0.0309298,
2,1,0,1,0,36584,0.0327599,0.0324242,1.06078,19,0.00128611,10,3.4395e-05,-2.97437,0.191963,0.30735,12.7482,0.0324242,
2,1,0,1,0,36584.1,0.034258,0.0339247,1.08351,19,0.00136754,10,3.67577e-05,-2.96517,0.186582,0.316214,13.3445,0.0339247,
2,1,0,1,0,36584.2,0.0357562,0.0354495,1.09991,19,0.00145048,10,3.89911e-05,-2.95864,0.20827,0.283287,12.1564,0.0354495,
2,1,0,1,0,36584.2,0.0372544,0.0368748,1.11777,19,0.00153483,10,4.12175e-05,-2.95165,0.211902,0.278431,12.1587,0.0368748,
2,1,0,1,0,36584.3,0.0387526,0.0384437,1.13609,19,0.00162047,10,4.36755e-05,-2.94459,0.202257,0.291708,12.9698,0.0384437,
2,1,0,1,0,36584.4,0.0402508,0.0398916,1.15805,19,0.0017076,10,4.61964e-05,-2.93627,0.208017,0.283631,12.8197,0.0398916,
2,1,0,1,0,36584.5,0.041749,0.0414249,1.17781,19,0.00179628,10,4.87904e-05,-2.92893,0.225632,0.261487,11.9852,0.0414249,
2,1,0,1,0,36584.5,0.0432472,0.0429138,1.19535,19,0.00188635,10,5.12969e-05,-2.92251,0.235332,0.25071,11.6882,0.0429138,
2,1,0,1,0,36584.6,0.0447449,0.0444689,1.21171,19,0.00197755,10,5.38833e-05,-2.9166,0.235762,0.250252,11.8468,0.0444689,
2,1,0,1,0,36584.7,0.0462445,0.0459048,1.23108,19,0.00207037,10,5.65125e-05,-2.90971,0.21341,0.276463,13.2529,0.0459048,
2,1,0,1,0,36584.7,0.04774,0.0474028,1.24858,19,0.00216438,10,5.91862e-05,-2.90358,0.220574,0.267483,13.035,0.0474028,
2,1,0,1,0,36584.8,0.0492399,0.0489201,1.26385,19,0.00225994,10,6.18276e-05,-2.89831,0.271639,0.2172,10.7422,0.0489201,
2,1,0,1,0,36584.9,0.0507381,0.0504306,1.2818,19,0.00235667,10,6.46421e-05,-2.89218,0.258211,0.228495,11.4565,0.0504306,
2,1,0,1,0,36585,0.0522363,0.0519029,1.3008,19,0.00245463,10,6.75155e-05,-2.88579,0.23949,0.246357,12.5138,0.05190286,
2,1,0,1,0,36585,0.0537345,0.0534124,1.31983,19,0.00255398,10,7.04953e-05,-2.87948,0.289207,0.204006,10.5055,0.0534124,
2,1,0,1,0,36585.1,0.0552327,0.0549365,1.33767,19,0.0026547,10,7.3487e-05,-2.87365,0.31937,0.184739,9.62106,0.0549365,
2,1,0,1,0,36585.2,0.0567309,0.0563534,1.34939,19,0.00275652,10,7.6043e-05,-2.86986,0.302223,0.19522,10.303,0.05635345,
2,1,0,1,0,36585.3,0.0582291,0.0578779,1.36802,19,0.00285941,10,7.91783e-05,-2.86391,0.285225,0.206854,11.0342,0.0578779,
2,1,0,1,0,36585.3,0.0597291,0.0594268,1.38138,19,0.00296379,10,8.20912e-05,-2.85969,0.279674,0.21096,11.3847,0.05942684,
2,1,0,1,0,36585.4,0.0612246,0.060895,1.39743,19,0.00306909,10,8.50967e-05,-2.85467,0.357612,0.164983,8.9854,0.060895,
2,1,0,1,0,36585.5,0.0627241,0.0624536,1.41387,19,0.0031758,10,8.83013e-05,-2.84959,0.321376,0.183586,10.1282,0.0624536,
2,1,0,1,0,36585.6,0.0642218,0.0638917,1.42612,19,0.00328319,10,9.1117e-05,-2.84584,0.344875,0.171076,9.53455,0.0638917,
2,1,0,1,0,36585.6,0.06572,0.0653774,1.43999,19,0.00339174,10,9.4143e-05,-2.84164,0.357567,0.165004,9.27371,0.0653774,
2,1,0,1,0,36585.7,0.0672182,0.0669065,1.45731,19,0.00350152,10,9.75036e-05,-2.83645,0.344201,0.171411,9.72294,0.0669065,
2,1,0,1,0,36585.8,0.0687164,0.0683761,1.46945,19,0.00361231,10,0.000100475,-2.83284,0.416569,0.141633,8.11283,0.0683761,
2,1,0,1,0,36585.9,0.0702146,0.0698917,1.48048,19,0.00372389,10,0.000103473,-2.8296,0.4249,0.138856,8.0269,0.0698917,
2,1,0,1,0,36585.9,0.0717128,0.0713987,1.49336,19,0.00383642,10,0.000106624,-2.82584,0.363288,0.162405,9.4611,0.0713987,
2,1,0,1,0,36586,0.073211,0.0728998,1.50693,19,0.00395001,10,0.000109855,-2.82191,0.434392,0.135822,7.98774,0.0728998,
2,1,0,1,0,36586.1,0.0747092,0.0743221,1.51824,19,0.0040645,10,0.000112839,-2.81866,0.539024,0.109457,6.48042,0.0743221,
2,1,0,1,0,36586.2,0.0762087,0.0758812,1.52557,19,0.00417983,10,0.000115762,-2.81657,0.557225,0.105882,6.31291,0.07588122,
2,1,0,1,0,36586.2,0.0777042,0.0773562,1.53722,19,0.00429553,10,0.000118914,-2.81326,0.489767,0.120465,7.22915,0.0773562,
2,1,0,1,0,36586.3,0.0792037,0.0788817,1.54808,19,0.00441234,10,0.000122115,-2.81021,0.491171,0.120121,7.25154,0.0788817,
2,1,0,1,0,36586.4,0.0807019,0.080393,1.55859,19,0.00452987,10,0.0001253,-2.80727,0.533069,0.11068,6.72166,0.080393,
2,1,0,1,0,36586.5,0.0822001,0.0818457,1.56565,19,0.00464816,10,0.000128141,-2.80531,0.509405,0.115821,7.09248,0.0818457,
2,1,0,1,0,36586.5,0.0836983,0.0833568,1.57633,19,0.00476705,10,0.000131398,-2.80235,0.55269,0.106751,6.57735,0.0833568,
2,1,0,1,0,36586.6,0.0851965,0.0848761,1.58889,19,0.00488686,10,0.000134859,-2.79891,0.475043,0.124199,7.70731,0.0848761,
2,1,0,1,0,36586.7,0.0866947,0.0863669,1.60038,19,0.00500754,10,0.00013822,-2.79578,0.531659,0.110973,6.92573,0.0863669,
2,1,0,1,0,36586.8,0.0881929,0.0878294,1.61409,19,0.0051291,10,0.000141765,-2.79207,0.46455,0.127005,8.00726,0.0878294,
2,1,0,1,0,36586.8,0.0896911,0.089333,1.62435,19,0.00525142,10,0.000145108,-2.78932,0.401757,0.146855,9.32707,0.089333,
2,1,0,1,0,36586.9,0.0911893,0.0908451,1.64346,19,0.00537495,10,0.000149301,-2.78424,0.347099,0.16998,10.8831,0.0908451,
2,1,0,1,0,36587,0.0926883,0.0923687,1.65904,19,0.00549994,10,0.000153243,-2.78014,0.3238,0.182211,11.8049,0.0923687,
2,1,0,1,0,36587.1,0.0941839,0.0938369,1.67859,19,0.00562579,10,0.000157514,-2.77505,0.32132,0.183617,12.0269,0.0938369,
2,1,0,1,0,36587.1,0.0956838,0.0953722,1.69163,19,0.00575325,10,0.000161335,-2.77169,0.279076,0.211412,13.9984,0.0953722,
2,1,0,1,0,36587.2,0.097182,0.0968432,1.71239,19,0.0058821,10,0.000165834,-2.7664,0.233969,0.25217,16.8969,0.09684322,
2,1,0,1,0,36587.3,0.0986802,0.0983399,1.74211,19,0.00601275,10,0.000171319,-2.75892,0.224595,0.262695,17.8801,0.0983399,
2,1,0,1,0,36587.4,0.100178,0.0998133,1.7688,19,0.00614536,10,0.00017655,-2.75232,0.225058,0.262154,18.0993,0.09981332,
2,1,0,1,0,36587.4,0.101677,0.101311,1.79386,19,0.00627996,10,0.000181738,-2.74621,0.222339,0.265361,18.6078,0.101311,
2,1,0,1,0,36587.5,0.103175,0.102827,1.82552,19,0.00641672,10,0.000187712,-2.73861,0.199844,0.29523,21.0541,0.102827,
2,1,0,1,0,36587.6,0.104673,0.104344,1.85998,19,0.00655587,10,0.000194079,-2.73049,0.204078,0.289105,20.9712,0.104344,
2,1,0,1,0,36587.7,0.106171,0.105854,1.89216,19,0.00669757,10,0.000200293,-2.72304,0.208989,0.282312,20.7935,0.105854,
2,1,0,1,0,36587.7,0.107669,0.10736,1.92227,19,0.00684157,10,0.000206375,-2.71619,0.209812,0.281204,21.1083,0.10736,
2,1,0,1,0,36587.8,0.109168,0.108853,1.95161,19,0.00698797,10,0.000212438,-2.70961,0.213865,0.275875,21.0475,0.108853,
2,1,0,1,0,36587.9,0.110664,0.110387,1.98649,19,0.0071365,10,0.000219282,-2.70191,0.220661,0.267378,20.6925,0.110387,
2,1,0,1,0,36588,0.112164,0.111822,2.01569,19,0.00728773,10,0.000225399,-2.69558,0.256022,0.230449,18.0912,0.1118222,
2,1,0,1,0,36588,0.113662,0.113358,2.0417,19,0.0074408,10,0.000231442,-2.69001,0.277759,0.212414,16.902,0.113358,
2,1,0,1,0,36588.1,0.11516,0.114844,2.06486,19,0.00759564,10,0.000237136,-2.68511,0.295112,0.199924,16.1075,0.114844,
2,1,0,1,0,36588.2,0.116658,0.116346,2.08983,19,0.00775246,10,0.000243144,-2.67989,0.289278,0.203956,16.6115,0.116346,
2,1,0,1,0,36588.3,0.118157,0.11784,2.11431,19,0.00791115,10,0.000249151,-2.67483,0.354412,0.166473,13.7165,0.11784,
2,1,0,1,0,36588.3,0.119655,0.119312,2.13128,19,0.00807135,10,0.000254287,-2.67136,0.469553,0.125651,10.4446,0.119312,
2,1,0,1,0,36588.4,0.121153,0.120819,2.14461,19,0.00823273,10,0.000259111,-2.66865,0.473921,0.124493,10.4318,0.120819,
2,1,0,1,0,36588.5,0.122653,0.122341,2.16181,19,0.00839543,10,0.000264479,-2.66518,0.468255,0.126,10.6269,0.122341,
2,1,0,1,0,36588.6,0.124149,0.123849,2.1761,19,0.00855886,10,0.000269508,-2.66232,0.505862,0.116633,9.90069,0.123849,
2,1,0,1,0,36588.6,0.125648,0.125306,2.18795,19,0.00872379,10,0.000274164,-2.65996,0.685715,0.0860416,7.33737,0.125306,
2,1,0,1,0,36588.7,0.127146,0.126799,2.19549,19,0.00888939,10,0.000278387,-2.65847,0.698565,0.0844589,7.24396,0.126799,
2,1,0,1,0,36588.8,0.128644,0.128314,2.21149,19,0.00905572,10,0.000283764,-2.65532,0.686273,0.0859716,7.42014,0.128314,
2,1,0,1,0,36588.9,0.130142,0.129768,2.22308,19,0.00922296,10,0.000288485,-2.65305,0.777603,0.0758742,6.58076,0.129768,
2,1,0,1,0,36588.9,0.13164,0.131332,2.23339,19,0.00939115,10,0.000293314,-2.65104,1.11079,0.0531154,4.61808,0.131332,
2,1,0,1,0,36589,0.133139,0.132774,2.23946,19,0.00955996,10,0.000297342,-2.64986,1.84515,0.0319757,2.79503,0.132774,
2,1,0,1,0,36589.1,0.134637,0.134309,2.24304,19,0.00972894,10,0.000301261,-2.64916,18.3552,0.00321435,0.281085,0.1343092,
2,1,0,1,0,36589.2,0.136135,0.135804,2.24254,19,0.00989815,10,0.000304546,-2.64926,-2.26987,-0.0259927,-2.26927,0.135804,
2,1,0,1,0,36589.2,0.137633,0.137264,2.23554,19,0.0100671,10,0.000306859,-2.65062,-0.69637,-0.0847251,-7.36303,0.137264,
2,1,0,1,0,36589.3,0.139133,0.13881,2.22348,19,0.0102356,10,0.000308642,-2.65297,-0.367437,-0.160572,-13.8628,0.1388104,
2,1,0,1,0,36589.4,0.140628,0.140295,2.19521,19,0.0104019,10,0.000307976,-2.65852,-0.259014,-0.227787,-19.4512,0.140295,
2,1,0,1,0,36589.5,0.142128,0.141798,2.16235,19,0.0105665,10,0.000306616,-2.66507,-0.197912,-0.298113,-25.027,0.141798,
2,1,0,1,0,36589.5,0.143626,0.143309,2.12238,19,0.0107282,10,0.000304156,-2.67318,-0.148368,-0.397659,-32.7044,0.143309,
2,1,0,1,0,36589.6,0.145124,0.144851,2.06452,19,0.0108861,10,0.000299047,-2.68518,-0.11741,-0.502512,-40.3212,0.144851,
2,1,0,1,0,36589.7,0.146622,0.146319,1.99856,19,0.0110394,10,0.000292427,-2.69928,-0.101183,-0.583103,-45.3221,0.146319,
2,1,0,1,0,36589.8,0.14812,0.147836,1.92653,19,0.0111875,10,0.00028481,-2.71522,-0.0886445,-0.66558,-49.8773,0.147836,
2,1,0,1,0,36589.8,0.149619,0.149304,1.85031,19,0.0113302,10,0.000276259,-2.73276,-0.0818498,-0.720833,-51.9114,0.149304,
2,1,0,1,0,36589.9,0.151117,0.150776,1.77151,19,0.011467,10,0.000267101,-2.75166,-0.0749068,-0.787646,-54.3077,0.150776,
2,1,0,1,0,36590,0.152615,0.152266,1.68826,19,0.0115977,10,0.000257065,-2.77256,-0.0740484,-0.796776,-52.5576,0.152266,
2,1,0,1,0,36590.1,0.154113,0.15378,1.6127,19,0.0117224,10,0.000248001,-2.79245,-0.0755308,-0.781138,-49.3469,0.15378,
2,1,0,1,0,36590.1,0.155613,0.155286,1.54408,19,0.0118418,10,0.000239774,-2.81133,-0.0795514,-0.741659,-44.7199,0.155286,
2,1,0,1,0,36590.2,0.157108,0.15676,1.47612,19,0.0119559,10,0.000231397,-2.83088,-0.0800813,-0.736751,-42.4946,0.15676,
2,1,0,1,0,36590.3,0.158608,0.158314,1.4172,19,0.0120655,10,0.000224362,-2.84857,-0.0847477,-0.696184,-38.6461,0.158314,
2,1,0,1,0,36590.4,0.160106,0.159766,1.36095,19,0.0121706,10,0.000217433,-2.86616,-0.093231,-0.632837,-33.8055,0.159766,
2,1,0,1,0,36590.4,0.161604,0.161285,1.31723,19,0.012272,10,0.000212449,-2.88034,-0.106107,-0.55604,-28.633,0.161285,
2,1,0,1,0,36590.5,0.163102,0.162778,1.27698,19,0.0123703,10,0.000207864,-2.89382,-0.11511,-0.512554,-25.5948,0.162778,
2,1,0,1,0,36590.6,0.164601,0.164292,1.2421,19,0.0124657,10,0.000204068,-2.90584,-0.122986,-0.47973,-23.3058,0.164292,
2,1,0,1,0,36590.7,0.166099,0.165773,1.20818,19,0.0125584,10,0.000200283,-2.91787,-0.143647,-0.41073,-19.4733,0.165773,
2,1,0,1,0,36590.7,0.167597,0.167275,1.18326,19,0.0126491,10,0.00019793,-2.92692,-0.177246,-0.332871,-15.3875,0.167275,
2,1,0,1,0,36590.8,0.169095,0.16877,1.16158,19,0.012738,10,0.000196039,-2.93495,-0.180149,-0.327507,-14.8732,0.16877,
2,1,0,1,0,36590.9,0.170593,0.170295,1.14074,19,0.0128253,10,0.000194262,-2.94281,-0.194391,-0.303511,-13.5187,0.170295,
2,1,0,1,0,36591,0.172092,0.171808,1.11944,19,0.0129111,10,0.000192328,-2.951,-0.233441,-0.25274,-11.0753,0.171808,
2,1,0,1,0,36591,0.173588,0.173276,1.10264,19,0.0129954,10,0.000191061,-2.95757,-0.282986,-0.208491,-9.00039,0.173276,
2,1,0,1,0,36591.1,0.175088,0.174765,1.0912,19,0.0130789,10,0.000190704,-2.96209,-0.291837,-0.202167,-8.61194,0.174765,
2,1,0,1,0,36591.2,0.176586,0.176249,1.07672,19,0.0131613,10,0.000189771,-2.9679,-0.32104,-0.183777,-7.73797,0.176249,
2,1,0,1,0,36591.3,0.178084,0.177793,1.06444,19,0.0132426,10,0.000189251,-2.97288,-0.302764,-0.194872,-8.11909,0.177793,
2,1,0,1,0,36591.3,0.179582,0.179206,1.05524,19,0.0133232,10,0.000189105,-2.97665,-0.416326,-0.141716,-5.85427,0.179206,
2,1,0,1,0,36591.4,0.181081,0.180812,1.04723,19,0.0134031,10,0.000189353,-2.97996,-0.448052,-0.131681,-5.3906,0.180812,
2,1,0,1,0,36591.5,0.182579,0.182291,1.04191,19,0.0134825,10,0.00018993,-2.98217,-0.401489,-0.146953,-5.96528,0.1822907,
2,1,0,1,0,36591.6,0.184077,0.183719,1.03115,19,0.0135613,10,0.000189441,-2.98668,-0.448065,-0.131677,-5.3137,0.183719,
2,1,0,1,0,36591.6,0.185577,0.18525,1.02636,19,0.0136395,10,0.000190134,-2.9887,-0.511337,-0.115384,-4.62561,0.18525,
2,1,0,1,0,36591.7,0.187073,0.18675,1.02025,19,0.0137171,10,0.000190531,-2.99129,-0.810697,-0.0727768,-2.89155,0.18675,
2,1,0,1,0,36591.8,0.188572,0.188262,1.01381,19,0.0137946,10,0.000190863,-2.99404,-0.65841,-0.0896098,-3.5521,0.188262,
2,1,0,1,0,36591.9,0.19007,0.189743,1.00852,19,0.0138715,10,0.000191359,-2.99632,-0.669629,-0.0881085,-3.4689,0.189743,
2,1,0,1,0,36591.9,0.191568,0.191256,1.00224,19,0.013948,10,0.000191684,-2.99903,-0.642995,-0.0917582,-3.59719,0.191256,
2,1,0,1,0,36592,0.193066,0.192783,0.99839,19,0.0140242,10,0.000192473,-3.0007,-1.23825,-0.0476478,-1.85826,0.192783,
2,1,0,1,0,36592.1,0.194564,0.19422,0.995366,19,0.0141001,10,0.00019332,-3.00202,-0.765318,-0.0770921,-2.99565,0.19422,
2,1,0,1,0,36592.2,0.196063,0.195767,0.991921,19,0.0141758,10,0.000194186,-3.00352,-0.666329,-0.0885448,-3.42664,0.195767,
2,1,0,1,0,36592.2,0.197561,0.197225,0.983704,19,0.0142511,10,0.000194011,-3.00714,-0.837133,-0.0704787,-2.7204,0.197225,
2,1,0,1,0,36592.3,0.199059,0.198754,0.984565,19,0.014326,10,0.000195686,-3.00676,-0.898762,-0.0656459,-2.52216,0.198754,
2,1,0,1,0,36592.4,0.200557,0.200242,0.981537,19,0.0144008,10,0.000196545,-3.00809,-1.38485,-0.0426038,-1.63103,0.200242,
2,1,0,1,0,36592.5,0.202057,0.201715,0.977689,19,0.0144754,10,0.000197215,-3.0098,-0.929458,-0.0634779,-2.42006,0.201715,
2,1,0,1,0,36592.5,0.203552,0.203219,0.972558,19,0.0145496,10,0.000197642,-3.01208,-1.39732,-0.0422236,-1.60781,0.203219,
2,1,0,1,0,36592.6,0.205052,0.204732,0.970369,19,0.0146237,10,0.000198666,-3.01306,-2.54379,-0.0231938,-0.884749,0.204732,
2,1,0,1,0,36592.7,0.20655,0.206234,0.96887,19,0.0146975,10,0.000199814,-3.01373,-3.29591,-0.017901,-0.678045,0.206234,
2,1,0,1,0,36592.8,0.208048,0.207724,0.969342,19,0.0147715,10,0.000201356,-3.01352,-1,-0.0589997,-2.22139,0.207724,
2,1,0,1,0,36592.8,0.209546,0.209248,0.965752,19,0.0148451,10,0.000202082,-3.01513,-0.906821,-0.0650625,-2.45226,0.209248,
2,1,0,1,0,36592.9,0.211044,0.210707,0.962041,19,0.0149183,10,0.000202709,-3.01681,-1.61343,-0.0365681,-1.37476,0.210707,
2,1,0,1,0,36593,0.212543,0.212237,0.959056,19,0.0149914,10,0.000203547,-3.01816,-1.98965,-0.0296534,-1.11024,0.212237,
2,1,0,1,0,36593.1,0.214041,0.213722,0.957011,19,0.0150644,10,0.000204534,-3.01908,-1.00608,-0.0586433,-2.19313,0.213722,
2,1,0,1,0,36593.1,0.215539,0.215215,0.956225,19,0.0151373,10,0.000205794,-3.01944,-1.4147,-0.0417049,-1.55574,0.215215,
2,1,0,1,0,36593.2,0.217037,0.216694,0.952769,19,0.0152098,10,0.000206459,-3.02101,-2.38331,-0.0247555,-0.92192,0.216694,
2,1,0,1,0,36593.3,0.218536,0.218234,0.953369,19,0.0152824,10,0.000208058,-3.02074,9.27225,0.00636307,0.236407,0.218234,
2,1,0,1,0,36593.4,0.220032,0.219738,0.951799,19,0.0153547,10,0.000209146,-3.02145,-2.52483,-0.0233679,-0.865936,0.219738,
2,1,0,1,0,36593.4,0.221532,0.221194,0.948005,19,0.0154271,10,0.000209694,-3.02319,-1.16796,-0.0505154,-1.86809,0.221194,
2,1,0,1,0,36593.5,0.22303,0.222684,0.94384,19,0.0154992,10,0.000210178,-3.0251,-1.62964,-0.0362044,-1.33847,0.222684,
2,1,0,1,0,36593.6,0.224528,0.224218,0.944179,19,0.0155711,10,0.000211702,-3.02495,-1.40271,-0.0420613,-1.55003,0.224218,
2,1,0,1,0,36593.7,0.226026,0.225707,0.944955,19,0.0156429,10,0.000213283,-3.02459,-1.7759,-0.0332227,-1.2216,0.225707,
2,1,0,1,0,36593.7,0.227525,0.227215,0.94097,19,0.0157147,10,0.000213803,-3.02642,-1.23817,-0.0476511,-1.74969,0.227215,
2,1,0,1,0,36593.8,0.229023,0.228713,0.940237,19,0.0157863,10,0.000215045,-3.02676,-1.3106,-0.0450174,-1.65446,0.228713,
2,1,0,1,0,36593.9,0.230521,0.230258,0.938545,19,0.0158576,10,0.000216107,-3.02754,-2.62809,-0.0224498,-0.82345,0.230258,
2,1,0,1,0,36594,0.232019,0.231712,0.936796,19,0.015929,10,0.000217067,-3.02836,-3.6853,-0.0160095,-0.585078,0.231712,
2,1,0,1,0,36594,0.233517,0.233178,0.937674,19,0.0160003,10,0.000218645,-3.02795,-2.45933,-0.0239903,-0.875653,0.233178,
2,1,0,1,0,36594.1,0.235016,0.234725,0.934787,19,0.0160716,10,0.000219418,-3.02929,-2.02939,-0.0290727,-1.06067,0.234725,
2,1,0,1,0,36594.2,0.236512,0.236181,0.931319,19,0.0161424,10,0.00021996,-3.0309,-2.60466,-0.0226517,-0.824195,0.236181,
2,1,0,1,0,36594.3,0.238012,0.237755,0.929751,19,0.0162134,10,0.000221053,-3.03163,-2.62614,-0.0224664,-0.81455,0.237755,
2,1,0,1,0,36594.3,0.23951,0.239199,0.929207,19,0.0162842,10,0.000222265,-3.03189,-2.21521,-0.0266341,-0.967121,0.2391987,
2,1,0,1,0,36594.4,0.241008,0.24074,0.9283,19,0.0163549,10,0.000223479,-3.03231,-4.02777,-0.0146483,-0.531838,0.24074,
2,1,0,1,0,36594.5,0.242506,0.242173,0.924698,19,0.0164254,10,0.000223937,-3.034,-2.77827,-0.0212363,-0.768284,0.2421726,
2,1,0,1,0,36594.6,0.244005,0.243728,0.925904,19,0.0164958,10,0.000225669,-3.03343,-4.89505,-0.012053,-0.435114,0.243728,
2,1,0,1,0,36594.6,0.245503,0.245176,0.928662,19,0.0165663,10,0.000227685,-3.03214,-1.94073,-0.0304009,-1.09723,0.245176,
2,1,0,1,0,36594.7,0.247001,0.246695,0.925013,19,0.0166367,10,0.000228197,-3.03385,-2.63821,-0.0223636,-0.806063,0.246695,
2,1,0,1,0,36594.8,0.248501,0.248185,0.919493,19,0.0167069,10,0.000228205,-3.03645,-3.3401,-0.0176641,-0.635559,0.248185,
2,1,0,1,0,36594.9,0.249997,0.24966,0.918974,19,0.0167769,10,0.000229432,-3.0367,-4.16163,-0.0141771,-0.509378,0.24966,
2,1,0,1,0,36594.9,0.251496,0.251178,0.920143,19,0.016847,10,0.000231119,-3.03614,-3.63888,-0.0162138,-0.58189,0.251178,
2,1,0,1,0,36595,0.252994,0.252705,0.918379,19,0.0169169,10,0.000232079,-3.03698,-1.38786,-0.0425115,-1.52129,0.252705,
2,1,0,1,0,36595.1,0.254492,0.254158,0.915836,19,0.0169867,10,0.000232767,-3.03818,-2.00389,-0.0294428,-1.05381,0.254158,
2,1,0,1,0,36595.2,0.25599,0.255686,0.913476,19,0.0170563,10,0.000233563,-3.0393,-2.35876,-0.0250132,-0.893496,0.255686,
2,1,0,1,0,36595.2,0.257488,0.257199,0.91344,19,0.0171259,10,0.000234936,-3.03932,-14.7288,-0.00400577,-0.143015,0.257199,
2,1,0,1,0,36595.3,0.258987,0.258701,0.915455,19,0.0171954,10,0.000236829,-3.03836,-1.26309,-0.0467107,-1.66301,0.258701,
2,1,0,1,0,36595.4,0.260485,0.260226,0.912586,19,0.0172649,10,0.000237479,-3.03973,-0.919007,-0.0641997,-2.28478,0.260226,
2,1,0,1,0,36595.5,0.261983,0.261657,0.908959,19,0.0173342,10,0.000237835,-3.04146,-2.10377,-0.0280449,-0.997039,0.261657,
2,1,0,1,0,36595.5,0.263481,0.263161,0.90874,19,0.0174033,10,0.000239145,-3.04156,9.01051,0.00654791,0.232103,0.263161,
2,1,0,1,0,36595.6,0.264981,0.264665,0.907025,19,0.0174725,10,0.000240058,-3.04238,-4.88849,-0.0120692,-0.427613,0.264665,
2,1,0,1,0,36595.7,0.266476,0.266169,0.905618,19,0.0175415,10,0.000241047,-3.04305,-1.72541,-0.0341947,-1.20853,0.266169,
2,1,0,1,0,36595.8,0.267976,0.267686,0.901007,19,0.0176105,10,0.000241187,-3.04527,-1.44713,-0.0407705,-1.43917,0.267686,
2,1,0,1,0,36595.8,0.269474,0.269195,0.903002,19,0.0176792,10,0.000243084,-3.04431,107.95,0.00054655,0.0192808,0.269195,
2,1,0,1,0,36595.9,0.270972,0.270685,0.904946,19,0.0177479,10,0.000244955,-3.04338,-1.99153,-0.0296255,-1.04234,0.2706849,
2,1,0,1,0,36596,0.27247,0.272176,0.900694,19,0.0178166,10,0.000245147,-3.04542,-1.13358,-0.0520475,-1.82644,0.272176,
2,1,0,1,0,36596.1,0.273968,0.273629,0.897353,19,0.0178851,10,0.000245542,-3.04704,-1.10626,-0.053333,-1.86956,0.273629,
2,1,0,1,0,36596.1,0.275467,0.275141,0.896882,19,0.0179534,10,0.000246769,-3.04726,-1.2658,-0.0466108,-1.63474,0.2751407,
2,1,0,1,0,36596.2,0.276965,0.276618,0.895182,19,0.0180216,10,0.000247623,-3.04809,-1.88806,-0.0312491,-1.094,0.276618,
2,1,0,1,0,36596.3,0.278463,0.278194,0.895275,19,0.0180898,10,0.000249061,-3.04804,-1.19081,-0.0495461,-1.72456,0.278194,
2,1,0,1,0,36596.4,0.279961,0.279648,0.893396,19,0.0181578,10,0.000249836,-3.04896,-1.32709,-0.0444581,-1.54812,0.279648,
2,1,0,1,0,36596.4,0.28146,0.281154,0.891694,19,0.0182257,10,0.000250704,-3.04978,-2.11785,-0.0278585,-0.969542,0.281154,
2,1,0,1,0,36596.5,0.282956,0.28263,0.890972,19,0.0182933,10,0.000251816,-3.05014,-4.4092,-0.0133811,-0.464039,0.28263,
2,1,0,1,0,36596.6,0.284456,0.284196,0.887959,19,0.0183611,10,0.000252354,-3.05161,-1.87657,-0.0314403,-1.08801,0.284196,
2,1,0,1,0,36596.7,0.285954,0.285627,0.885717,19,0.0184287,10,0.000252985,-3.0527,-1.22862,-0.0480212,-1.65937,0.285627,
2,1,0,1,0,36596.7,0.287452,0.287112,0.884105,19,0.0184961,10,0.000253837,-3.0535,-2.71228,-0.0217529,-0.750528,0.287112,
2,1,0,1,0,36596.8,0.28895,0.288623,0.881682,19,0.0185633,10,0.000254473,-3.05469,4.6784,0.0126111,0.434147,0.288623,
2,1,0,1,0,36596.9,0.290449,0.290134,0.879844,19,0.0186304,10,0.000255272,-3.05559,-1.73032,-0.0340976,-1.17071,0.290134,
2,1,0,1,0,36597,0.291947,0.291608,0.878505,19,0.0186975,10,0.000256179,-3.05626,-1.46631,-0.040237,-1.37953,0.2916075,
2,1,0,1,0,36597,0.293445,0.293119,0.877031,19,0.0187644,10,0.000257075,-3.05698,-1.30983,-0.0450439,-1.54506,0.293119,
2,1,0,1,0,36597.1,0.294943,0.294621,0.877317,19,0.0188311,10,0.000258476,-3.05684,-2.39953,-0.0245882,-0.840954,0.294621,
2,1,0,1,0,36597.2,0.296441,0.29614,0.877605,19,0.0188978,10,0.000259894,-3.0567,-3.19481,-0.0184674,-0.630373,0.29614,
2,1,0,1,0,36597.3,0.29794,0.297606,0.874467,19,0.0189645,10,0.000260246,-3.05826,-0.959506,-0.06149,-2.0883,0.297606,
2,1,0,1,0,36597.3,0.299436,0.2991,0.868867,19,0.0190309,10,0.000259879,-3.06105,-0.00378326,-15.595,-324.21,0.2991,
2,1,0,1,0,36597.4,0.299739,0.29943,0.573183,19,0.0190648,10,0.000171629,-3.24171,0.000469305,125.718,724.38,0.29943,
2,1,0,1,0,36597.5,0.298239,0.297924,0.0594965,19,0.0190822,10,1.77255e-05,-4.22551,0.0040137,14.6997,255.902,0.297924,
2,0,0,1,0,36597.5,0.296741,0.296413,-0.0729348,19,0.0190797,10,-2.16188e-05,-4.13707,-0.314638,-0.187517,74.439,0.296413,
2,0,0,1,0,36597.6,0.295243,0.294889,-0.136325,19,0.0190704,10,-4.02008e-05,-3.86542,-0.00619074,-9.53036,35.6533,0.294889,
2,0,0,1,0,36597.7,0.293745,0.293399,-0.176031,19,0.0190576,10,-5.16474e-05,-3.75441,-0.0155841,-3.78592,23.9664,0.2933991,
2,0,0,1,0,36597.8,0.292246,0.291902,-0.20426,19,0.0190422,10,-5.9624e-05,-3.68982,-0.0244376,-2.41431,18.5068,0.291902,
2,0,0,1,0,36597.8,0.290748,0.290415,-0.229425,19,0.0190247,10,-6.66285e-05,-3.63936,-0.0318879,-1.85023,16.2256,0.290415,
2,0,0,1,0,36597.9,0.28925,0.288976,-0.25279,19,0.0190055,10,-7.30502e-05,-3.59724,-0.0452855,-1.30284,12.6613,0.288976,
2,0,0,1,0,36598,0.287752,0.287441,-0.269866,19,0.0189849,10,-7.75705e-05,-3.56885,-0.0556569,-1.06007,11.0756,0.2874411,
2,0,0,1,0,36598.1,0.286254,0.285925,-0.283771,19,0.018963,10,-8.11372e-05,-3.54703,-0.0580924,-1.01562,11.3146,0.285925,
2,0,0,1,0,36598.1,0.284754,0.284449,-0.30111,19,0.0189399,10,-8.56505e-05,-3.52127,-0.0683553,-0.863138,10.0656,0.284449,
2,0,0,1,0,36598.2,0.283259,0.282951,-0.317103,19,0.0189156,10,-8.97245e-05,-3.4988,-0.0800279,-0.737243,9.03996,0.282951,
2,0,0,1,0,36598.3,0.281759,0.281447,-0.328667,19,0.0188903,10,-9.25021e-05,-3.48324,-0.0936144,-0.630245,7.99623,0.281447,
2,0,0,1,0,36598.4,0.280261,0.279958,-0.338525,19,0.0188641,10,-9.47728e-05,-3.47041,-0.0962052,-0.613272,8.13503,0.279958,
2,0,0,1,0,36598.4,0.278763,0.278475,-0.354083,19,0.0188371,10,-9.86031e-05,-3.4509,-0.109275,-0.53992,7.41414,0.278475,
2,0,0,1,0,36598.5,0.277264,0.276934,-0.363098,19,0.0188091,10,-0.000100554,-3.43998,-0.110596,-0.533475,7.53612,0.276934,
2,0,0,1,0,36598.6,0.275766,0.275455,-0.374147,19,0.0187803,10,-0.000103061,-3.42696,-0.132103,-0.44662,6.49541,0.275455,
2,0,0,1,0,36598.7,0.274268,0.273949,-0.383483,19,0.0187508,10,-0.000105055,-3.41625,-0.135261,-0.436193,6.52554,0.2739487,
2,0,0,1,0,36598.7,0.27277,0.272442,-0.393313,19,0.0187207,10,-0.000107155,-3.40526,-0.142114,-0.41516,6.38529,0.272442,
2,0,0,1,0,36598.8,0.271272,0.270956,-0.401199,19,0.0186898,10,-0.000108707,-3.39664,-0.147124,-0.401023,6.28009,0.270956,
2,0,0,1,0,36598.9,0.269774,0.269486,-0.413167,19,0.0186581,10,-0.000111343,-3.38387,-0.155236,-0.380067,6.05458,0.269486,
2,0,0,1,0,36599,0.268274,0.267946,-0.420928,19,0.0186258,10,-0.000112786,-3.37579,-0.194592,-0.303199,4.96342,0.267946,
2,0,0,1,0,36599,0.266779,0.266482,-0.426688,19,0.0185931,10,-0.000113705,-3.36989,-0.186565,-0.316243,5.26831,0.266482,
2,0,0,1,0,36599.1,0.265279,0.264988,-0.435225,19,0.0185597,10,-0.00011533,-3.36129,-0.175802,-0.335604,5.66146,0.264988,
2,0,0,1,0,36599.2,0.263781,0.263497,-0.44261,19,0.0185256,10,-0.000116626,-3.35398,-0.2152,-0.274163,4.73618,0.2634972,
2,0,0,1,0,36599.3,0.262283,0.261973,-0.449967,19,0.018491,10,-0.000117879,-3.34682,-0.226057,-0.260996,4.57591,0.261973,
2,0,0,1,0,36599.3,0.260784,0.260452,-0.4582,19,0.0184558,10,-0.000119339,-3.33895,-0.246726,-0.239131,4.28069,0.260452,
2,0,0,1,0,36599.4,0.259286,0.258988,-0.465572,19,0.0184202,10,-0.000120578,-3.33201,-0.211766,-0.27861,5.06161,0.258988,
2,0,0,1,0,36599.5,0.257788,0.257516,-0.474233,19,0.0183839,10,-0.000122122,-3.32401,-0.252769,-0.233414,4.28699,0.257516,
2,0,0,1,0,36599.5,0.25629,0.255981,-0.480603,19,0.018347,10,-0.000123026,-3.31821,-0.27763,-0.212513,3.9591,0.2559813,
2,0,0,1,0,36599.6,0.25479,0.254445,-0.485147,19,0.0183096,10,-0.000123443,-3.31413,-0.236781,-0.249175,4.73181,0.254445,
2,0,0,1,0,36599.7,0.253294,0.252964,-0.492115,19,0.018272,10,-0.000124488,-3.30793,-0.241472,-0.244335,4.70421,0.252964,
2,0,0,1,0,36599.8,0.251795,0.251457,-0.497752,19,0.0182336,10,-0.000125163,-3.30299,-0.235898,-0.250109,4.86231,0.251457,
2,0,0,1,0,36599.8,0.250297,0.249955,-0.502401,19,0.0181949,10,-0.000125578,-3.29895,-0.364623,-0.161811,3.18708,0.2499551,
2,0,0,1,0,36599.9,0.248799,0.248473,-0.509608,19,0.0181557,10,-0.000126624,-3.29276,-0.333685,-0.176813,3.52922,0.248473,
2,0,0,1,0,36600,0.247301,0.246977,-0.514331,19,0.0181161,10,-0.000127028,-3.28876,-0.346963,-0.170047,3.43749,0.246977,
2,0,0,1,0,36600.1,0.245802,0.245473,-0.522156,19,0.0180761,10,-0.000128175,-3.2822,-0.280422,-0.210397,4.27715,0.245473,
2,0,0,1,0,36600.1,0.244304,0.244003,-0.528499,19,0.0180355,10,-0.000128955,-3.27696,-0.317681,-0.185721,3.82155,0.244003,
2,0,0,1,0,36600.2,0.242806,0.242493,-0.535321,19,0.0179944,10,-0.000129812,-3.27139,-0.355458,-0.165983,3.46417,0.242493,
2,0,0,1,0,36600.3,0.241308,0.241001,-0.53987,19,0.0179531,10,-0.000130109,-3.26771,-0.35121,-0.167991,3.54583,0.241001,
2,0,0,1,0,36600.4,0.23981,0.239483,-0.543568,19,0.0179113,10,-0.000130175,-3.26475,-0.287102,-0.205502,4.36523,0.239483,
2,0,0,1,0,36600.4,0.23831,0.238007,-0.550811,19,0.0178689,10,-0.000131097,-3.259,-0.319143,-0.18487,3.97476,0.238007,
2,0,0,1,0,36600.5,0.236815,0.236508,-0.55666,19,0.0178263,10,-0.000131655,-3.25441,-0.361593,-0.163167,3.54207,0.236508,
2,0,0,1,0,36600.6,0.235315,0.235004,-0.559255,19,0.0177832,10,-0.000131427,-3.25239,-0.339537,-0.173766,3.81055,0.235004,
2,0,0,1,0,36600.7,0.233817,0.233525,-0.566092,19,0.0177397,10,-0.000132197,-3.24711,-0.374486,-0.157549,3.4801,0.233525,
2,0,0,1,0,36600.7,0.232319,0.232014,-0.573085,19,0.0176958,10,-0.000132964,-3.24178,-0.366095,-0.16116,3.59498,0.232014,
2,0,0,1,0,36600.8,0.230821,0.230524,-0.580204,19,0.0176514,10,-0.000133751,-3.23642,-0.52325,-0.112757,2.54069,0.230524,
2,0,0,1,0,36600.9,0.229322,0.228999,-0.583495,19,0.0176067,10,-0.00013362,-3.23396,-0.406684,-0.145076,3.30958,0.228999,
2,0,0,1,0,36601,0.227824,0.227479,-0.587495,19,0.0175617,10,-0.000133642,-3.231,-0.446653,-0.132094,3.03347,0.227479,
2,0,0,1,0,36601,0.226326,0.226017,-0.594222,19,0.0175162,10,-0.000134304,-3.22605,-0.40044,-0.147338,3.41588,0.226017,
2,0,0,1,0,36601.1,0.224828,0.224551,-0.599964,19,0.0174703,10,-0.000134722,-3.22188,-0.436896,-0.135044,3.15645,0.224551,
2,0,0,1,0,36601.2,0.22333,0.22299,-0.608173,19,0.017424,10,-0.000135616,-3.21597,-0.388865,-0.151724,3.57542,0.22299,
2,0,0,1,0,36601.3,0.22183,0.221529,-0.610054,19,0.0173773,10,-0.000135145,-3.21463,-0.347244,-0.169909,4.0394,0.221529,
2,0,0,1,0,36601.3,0.220335,0.219998,-0.615096,19,0.0173303,10,-0.00013532,-3.21106,-0.321113,-0.183736,4.39794,0.219998,
2,0,0,1,0,36601.4,0.218835,0.218548,-0.622835,19,0.0172828,10,-0.000136119,-3.20563,-0.405783,-0.145398,3.52054,0.218548,
2,0,0,1,0,36601.5,0.217337,0.21702,-0.625503,19,0.0172349,10,-0.000135747,-3.20377,-0.436039,-0.135309,3.3035,0.21702,
2,0,0,1,0,36601.6,0.215839,0.215501,-0.627331,19,0.0171868,10,-0.000135191,-3.2025,-0.407038,-0.14495,3.56826,0.215501,
2,0,0,1,0,36601.6,0.21434,0.214029,-0.633858,19,0.0171382,10,-0.000135664,-3.19801,-0.321928,-0.183271,4.53815,0.214029,
2,0,0,1,0,36601.7,0.212842,0.212502,-0.640879,19,0.0170892,10,-0.000136188,-3.19322,-0.459738,-0.128334,3.21069,0.212502,
2,0,0,1,0,36601.8,0.211344,0.211,-0.645576,19,0.0170398,10,-0.000136217,-3.19005,-0.572087,-0.103131,2.59395,0.211,
2,0,0,1,0,36601.9,0.209846,0.209536,-0.649361,19,0.0169901,10,-0.000136065,-3.18751,-0.454261,-0.129881,3.28969,0.209536,
2,0,0,1,0,36601.9,0.208348,0.208001,-0.655906,19,0.01694,10,-0.000136429,-3.18316,-0.309861,-0.190408,4.88448,0.208001,
2,0,0,1,0,36602,0.20685,0.206522,-0.664361,19,0.0168896,10,-0.000137206,-3.1776,-0.349752,-0.168691,4.35335,0.206522,
2,0,0,1,0,36602.1,0.20535,0.204984,-0.668371,19,0.0168384,10,-0.000137005,-3.17498,-0.463811,-0.127207,3.29336,0.204984,
2,0,0,1,0,36602.2,0.203855,0.20348,-0.670981,19,0.0167871,10,-0.000136531,-3.17329,-0.428018,-0.137845,3.61647,0.20348,
2,0,0,1,0,36602.2,0.202355,0.20204,-0.674094,19,0.0167354,10,-0.000136194,-3.17128,-0.480254,-0.122852,3.24959,0.20204,
2,0,0,1,0,36602.3,0.200857,0.200575,-0.683377,19,0.0166833,10,-0.000137068,-3.16534,-0.434427,-0.135811,3.60698,0.200575,
2,0,0,1,0,36602.4,0.199359,0.199015,-0.688543,19,0.0166308,10,-0.000137031,-3.16207,-0.551407,-0.106999,2.86852,0.199015,
2,0,0,1,0,36602.5,0.19786,0.197505,-0.69366,19,0.0165779,10,-0.000137001,-3.15885,-0.454538,-0.129802,3.49866,0.197505,
2,0,0,1,0,36602.5,0.196362,0.196023,-0.70018,19,0.0165247,10,-0.000137251,-3.15479,-0.383254,-0.153945,4.19513,0.196023,
2,0,0,1,0,36602.6,0.194864,0.194496,-0.706702,19,0.0164709,10,-0.000137451,-3.15076,-0.325419,-0.181305,4.98584,0.194496,
2,0,0,1,0,36602.7,0.193366,0.193037,-0.709939,19,0.0164167,10,-0.000137044,-3.14878,-0.393059,-0.150105,4.16044,0.193037,
2,0,0,1,0,36602.8,0.191866,0.19159,-0.71647,19,0.0163619,10,-0.000137269,-3.1448,-0.576679,-0.10231,2.86583,0.1915904,
2,0,0,1,0,36602.8,0.19037,0.190024,-0.720397,19,0.0163069,10,-0.000136893,-3.14243,-0.391367,-0.150754,4.25262,0.190024,
2,0,0,1,0,36602.9,0.188871,0.188509,-0.72764,19,0.0162513,10,-0.000137166,-3.13808,-0.33872,-0.174185,4.95614,0.188509,
2,0,0,1,0,36603,0.187373,0.187043,-0.733794,19,0.0161953,10,-0.000137251,-3.13443,-0.38146,-0.154669,4.44357,0.187043,
2,0,0,1,0,36603.1,0.185875,0.18557,-0.741061,19,0.0161387,10,-0.000137519,-3.13015,-0.401327,-0.147012,4.24695,0.18557,
2,0,0,1,0,36603.1,0.184377,0.184068,-0.745904,19,0.0160818,10,-0.000137297,-3.12732,-0.391285,-0.150785,4.3951,0.184068,
2,0,0,1,0,36603.2,0.182878,0.18264,-0.753481,19,0.0160244,10,-0.000137616,-3.12293,-0.34818,-0.169453,4.99333,0.18264,
2,0,0,1,0,36603.3,0.18138,0.181077,-0.761518,19,0.0159664,10,-0.000137894,-3.11832,-0.402251,-0.146675,4.35755,0.181077,
2,0,0,1,0,36603.4,0.179882,0.179571,-0.768885,19,0.0159078,10,-0.000138069,-3.11414,-0.451082,-0.130797,3.91969,0.179571,
2,0,0,1,0,36603.4,0.178384,0.178072,-0.777378,19,0.0158486,10,-0.000138429,-3.10937,-0.405038,-0.145665,4.42055,0.178072,
2,0,0,1,0,36603.5,0.176886,0.17659,-0.784015,19,0.0157891,10,-0.000138449,-3.10568,-0.347973,-0.169554,5.20499,0.17659,
2,0,0,1,0,36603.6,0.175386,0.175041,-0.79413,19,0.0157288,10,-0.000139005,-3.10011,-0.306839,-0.192284,5.93981,0.175041,
2,0,0,1,0,36603.7,0.173891,0.173592,-0.79938,19,0.0156679,10,-0.000138766,-3.09725,-0.308755,-0.19109,5.97007,0.173592,
2,0,0,1,0,36603.7,0.172391,0.172079,-0.810212,19,0.0156062,10,-0.00013942,-3.0914,-0.282487,-0.208859,6.61863,0.172079,
2,0,0,1,0,36603.8,0.170893,0.170587,-0.820093,19,0.0155441,10,-0.000139897,-3.08614,-0.289197,-0.204013,6.53647,0.170587,
2,0,0,1,0,36603.9,0.169395,0.169092,-0.828428,19,0.015481,10,-0.000140081,-3.08175,-0.230232,-0.256263,8.30027,0.169092,
2,0,0,1,0,36604,0.167897,0.167603,-0.842701,19,0.015417,10,-0.000141239,-3.07433,-0.261155,-0.225919,7.42872,0.167603,
2,0,0,1,0,36604,0.166398,0.166071,-0.852729,19,0.0153522,10,-0.000141614,-3.06919,-0.258626,-0.228129,7.61568,0.166071,
2,0,0,1,0,36604.1,0.1649,0.164591,-0.862629,19,0.0152867,10,-0.000141981,-3.06418,-0.259446,-0.227408,7.69166,0.164591,
2,0,0,1,0,36604.2,0.163402,0.163103,-0.878281,19,0.0152203,10,-0.00014325,-3.05637,-0.212876,-0.277156,9.50515,0.163103,
2,0,0,1,0,36604.3,0.161904,0.161581,-0.892905,19,0.0151528,10,-0.000144276,-3.04919,-0.203545,-0.289863,10.1014,0.161581,
2,0,0,1,0,36604.3,0.160406,0.160085,-0.909522,19,0.0150841,10,-0.000145601,-3.04119,-0.22311,-0.264444,9.35276,0.160085,
2,0,0,1,0,36604.4,0.158906,0.158582,-0.92311,19,0.0150143,10,-0.000146388,-3.03475,-0.185045,-0.318841,11.523,0.158582,
2,0,0,1,0,36604.5,0.157411,0.157096,-0.941297,19,0.0149434,10,-0.000147874,-3.02627,-0.155551,-0.379297,13.9983,0.157096,
2,0,0,1,0,36604.6,0.155911,0.15553,-0.962874,19,0.0148708,10,-0.000149756,-3.01643,-0.147936,-0.39882,14.9888,0.15553,
2,0,0,1,0,36604.6,0.154413,0.15409,-0.987123,19,0.0147965,10,-0.000152106,-3.00563,-0.150164,-0.392904,15.1208,0.15409,
2,0,0,1,0,36604.7,0.152915,0.152629,-1.0093,19,0.0147206,10,-0.000154047,-2.99598,-0.147755,-0.39931,15.7685,0.152629,
2,0,0,1,0,36604.8,0.151417,0.151116,-1.0333,19,0.0146429,10,-0.000156148,-2.98577,-0.12843,-0.459396,18.6053,0.151116,
2,0,0,1,0,36604.9,0.149918,0.149586,-1.06825,19,0.014563,10,-0.000159795,-2.97133,-0.113012,-0.52207,21.7367,0.149586,
2,0,0,1,0,36604.9,0.14842,0.148089,-1.10233,19,0.0144806,10,-0.000163243,-2.95769,-0.110277,-0.535014,23.0233,0.148089,
2,0,0,1,0,36605,0.146922,0.146606,-1.13867,19,0.0143955,10,-0.000166936,-2.9436,-0.0989649,-0.596171,26.5488,0.146606,
2,0,0,1,0,36605.1,0.145424,0.145117,-1.17813,19,0.0143076,10,-0.000170967,-2.92881,-0.0929114,-0.635013,29.3077,0.145117,
2,0,0,1,0,36605.2,0.143926,0.1436,-1.22449,19,0.0142164,10,-0.000175836,-2.91205,-0.0845471,-0.697836,33.362,0.1436,
2,0,0,1,0,36605.2,0.142426,0.142126,-1.27757,19,0.0141214,10,-0.000181575,-2.89362,-0.0832702,-0.708537,35.3288,0.142126,
2,0,0,1,0,36605.3,0.140931,0.140631,-1.32815,19,0.0140226,10,-0.00018678,-2.87675,-0.0840561,-0.701912,36.4623,0.140631,
2,0,0,1,0,36605.4,0.139431,0.139154,-1.3825,19,0.0139195,10,-0.000192381,-2.85934,-0.0824809,-0.715318,38.7406,0.139154,
2,0,0,1,0,36605.5,0.137933,0.137614,-1.44738,19,0.0138122,10,-0.00019918,-2.83942,-0.0801844,-0.735804,41.5814,0.1376144,
2,0,0,1,0,36605.5,0.136435,0.136116,-1.51122,19,0.0137002,10,-0.000205702,-2.82067,-0.0828062,-0.712507,42.0149,0.136116,
2,0,0,1,0,36605.6,0.134936,0.134614,-1.57638,19,0.0135834,10,-0.000212204,-2.80234,-0.0859162,-0.686715,42.1016,0.1346143,
2,0,0,1,0,36605.7,0.133438,0.133121,-1.63896,19,0.0134617,10,-0.00021818,-2.78543,-0.0887136,-0.665061,42.5039,0.133121,
2,0,0,1,0,36605.8,0.13194,0.131627,-1.70382,19,0.0133354,10,-0.00022427,-2.76858,-0.0923294,-0.639016,42.4541,0.131627,
2,0,0,1,0,36605.8,0.130442,0.130128,-1.76536,19,0.0132042,10,-0.000229724,-2.75317,-0.0969677,-0.60845,41.8635,0.130128,
2,0,0,1,0,36605.9,0.128942,0.128601,-1.82834,19,0.0130682,10,-0.000235128,-2.73794,-0.106695,-0.552977,39.2817,0.128601,
2,0,0,1,0,36606,0.127446,0.127104,-1.8853,19,0.012928,10,-0.00023963,-2.72462,-0.117059,-0.504018,36.9767,0.127104,
2,0,0,1,0,36606.1,0.125947,0.125591,-1.93432,19,0.0127835,10,-0.000242933,-2.71347,-0.125833,-0.468875,35.4321,0.125591,
2,0,0,1,0,36606.1,0.124449,0.124176,-1.9882,19,0.0126352,10,-0.000246887,-2.70154,-0.130814,-0.45102,34.9497,0.124176,
2,0,0,1,0,36606.2,0.122951,0.122656,-2.03761,19,0.012483,10,-0.000249925,-2.69088,-0.149583,-0.39443,31.3116,0.122656,
2,0,0,1,0,36606.3,0.121453,0.121149,-2.08183,19,0.0123274,10,-0.000252211,-2.68155,-0.183683,-0.321205,26.0328,0.121149,
2,0,0,1,0,36606.4,0.119955,0.119627,-2.11755,19,0.0121687,10,-0.000253315,-2.67417,-0.199287,-0.296055,24.4701,0.119627,
2,0,0,1,0,36606.4,0.118456,0.118121,-2.15601,19,0.0120074,10,-0.00025467,-2.66635,-0.218374,-0.270179,22.6963,0.118121,
2,0,0,1,0,36606.5,0.116958,0.116683,-2.18824,19,0.0118434,10,-0.00025533,-2.65991,-0.269682,-0.218776,18.6269,0.116683,
2,0,0,1,0,36606.6,0.11546,0.115129,-2.21419,19,0.0116772,10,-0.000254917,-2.65478,-0.358754,-0.164458,14.1578,0.115129,
2,0,0,1,0,36606.7,0.113962,0.113682,-2.23028,19,0.0115094,10,-0.000253544,-2.65164,-0.441032,-0.133777,11.633,0.113682,
2,0,0,1,0,36606.7,0.112462,0.112152,-2.24631,19,0.0113404,10,-0.000251928,-2.64853,-0.596058,-0.0989837,8.66355,0.1121519,
2,0,0,1,0,36606.8,0.110967,0.110612,-2.25866,19,0.0111708,10,-0.000249835,-2.64615,-0.825119,-0.0715049,6.28363,0.110612,
2,0,0,1,0,36606.9,0.109467,0.109143,-2.26114,19,0.0109999,10,-0.000246787,-2.64567,-2.83943,-0.0207788,1.82985,0.109143,
2,0,0,1,0,36607,0.107969,0.107653,-2.26379,19,0.0108291,10,-0.000243703,-2.64516,18.7893,0.00314008,-0.277218,0.107653,
2,0,0,1,0,36607,0.106471,0.106151,-2.26275,19,0.0106586,10,-0.000240192,-2.64536,2.19947,0.0268246,-2.36726,0.106151,
2,0,0,1,0,36607.1,0.104973,0.104648,-2.25586,19,0.0104882,10,-0.00023607,-2.64669,1.27745,0.0461858,-4.05991,0.104648,
2,0,0,1,0,36607.2,0.103474,0.103153,-2.24821,19,0.0103181,10,-0.000231909,-2.64816,0.856307,0.0689005,-6.03262,0.103153,
2,0,0,1,0,36607.3,0.101976,0.101672,-2.23748,19,0.0101489,10,-0.000227489,-2.65024,0.578883,0.10192,-8.89437,0.101672,
2,0,0,1,0,36607.3,0.100478,0.100164,-2.22434,19,0.00998075,10,-0.000222799,-2.6528,0.513104,0.114986,-9.97171,0.100164,
2,0,0,1,0,36607.4,0.0989799,0.0986881,-2.2084,19,0.00981361,10,-0.000217943,-2.65592,0.555916,0.106131,-9.14319,0.0986881,
2,0,0,1,0,36607.5,0.0974817,0.0971567,-2.19499,19,0.00964758,10,-0.000213258,-2.65857,0.489197,0.120606,-10.3223,0.0971567,
2,0,0,1,0,36607.6,0.0959821,0.0956669,-2.17967,19,0.00948244,10,-0.000208522,-2.66161,0.484051,0.121888,-10.3573,0.0956669,
2,0,0,1,0,36607.6,0.0944866,0.0941539,-2.15777,19,0.00931911,10,-0.000203162,-2.66599,0.470521,0.125393,-10.5767,0.0941539,
2,0,0,1,0,36607.7,0.0929871,0.0926648,-2.14209,19,0.00915659,10,-0.000198497,-2.66916,0.563817,0.104644,-8.75823,0.0926648,
2,0,0,1,0,36607.8,0.0914889,0.0911539,-2.13014,19,0.00899534,10,-0.000194171,-2.67159,0.510798,0.115506,-9.59266,0.0911539,
2,0,0,1,0,36607.9,0.0899907,0.0896601,-2.11554,19,0.00883512,10,-0.00018968,-2.67458,0.489978,0.120414,-9.93441,0.0896601,
2,0,0,1,0,36607.9,0.0884925,0.0882172,-2.09826,19,0.00867614,10,-0.000185103,-2.67814,0.499997,0.118001,-9.67266,0.0882172,
2,0,0,1,0,36608,0.0869943,0.0866216,-2.08541,19,0.00851829,10,-0.000180641,-2.68081,0.481943,0.122421,-9.96557,0.0866216,
2,0,0,1,0,36608.1,0.0854961,0.0851986,-2.07418,19,0.00836132,10,-0.000176717,-2.68315,0.545568,0.108144,-8.75123,0.0851986,
2,0,0,1,0,36608.2,0.083998,0.0837068,-2.06125,19,0.00820532,10,-0.00017254,-2.68587,0.470926,0.125285,-10.069,0.0837068,
2,0,0,1,0,36608.2,0.0824998,0.0821784,-2.0496,19,0.00805025,10,-0.000168433,-2.68833,0.543251,0.108605,-8.68145,0.0821784,
2,0,0,1,0,36608.3,0.081002,0.0806534,-2.0341,19,0.00789628,10,-0.000164057,-2.69163,0.644231,0.091582,-7.27416,0.0806534,
2,0,0,1,0,36608.4,0.0795025,0.0791732,-2.02513,19,0.00774281,10,-0.000160336,-2.69355,0.772803,0.0763455,-6.03003,0.0791732,
2,0,0,1,0,36608.5,0.078007,0.0776211,-2.01676,19,0.00759053,10,-0.000156543,-2.69535,0.672844,0.0876875,-6.8947,0.0776211,
2,0,0,1,0,36608.5,0.076507,0.0761616,-2.00563,19,0.00743865,10,-0.000152752,-2.69775,0.620741,0.0950477,-7.42682,0.0761616,
2,0,0,1,0,36608.6,0.0750088,0.0746622,-1.99019,19,0.00728789,10,-0.000148592,-2.70111,0.641146,0.0920228,-7.15265,0.0746622,
2,0,0,1,0,36608.7,0.0735106,0.0731841,-1.98046,19,0.00713796,10,-0.000144938,-2.70323,0.662369,0.0890742,-6.87922,0.0731841,
2,0,0,1,0,36608.8,0.0720124,0.0717226,-1.97139,19,0.00698877,10,-0.000141393,-2.70523,0.603248,0.0978039,-7.52399,0.0717226,
2,0,0,1,0,36608.8,0.0705142,0.0702504,-1.9595,19,0.00684041,10,-0.000137656,-2.70785,0.514421,0.114692,-8.77064,0.0702504,
2,0,0,1,0,36608.9,0.069016,0.0687095,-1.94422,19,0.0066929,10,-0.000133586,-2.71126,0.602435,0.0979358,-7.44305,0.06870953,
2,0,0,1,0,36609,0.0675179,0.0672151,-1.93487,19,0.00654632,10,-0.000130052,-2.71335,0.598304,0.098612,-7.46304,0.06721507,
2,0,0,1,0,36609.1,0.0660179,0.0656771,-1.9291,19,0.00640025,10,-0.000126698,-2.71465,0.691913,0.0852708,-6.40451,0.0656771,
2,0,0,1,0,36609.1,0.0645224,0.0641869,-1.91726,19,0.00625521,10,-0.000123063,-2.71732,0.554364,0.106428,-7.94502,0.0641869,
2,0,0,1,0,36609.2,0.0630228,0.0627038,-1.90278,19,0.00611068,10,-0.000119311,-2.72061,0.545746,0.108109,-8.03424,0.0627038,
2,0,0,1,0,36609.3,0.0615251,0.06121,-1.89147,19,0.00596737,10,-0.000115777,-2.7232,0.601942,0.0980161,-7.24341,0.06121,
2,0,0,1,0,36609.4,0.0600269,0.0596843,-1.88097,19,0.00582491,10,-0.000112264,-2.72562,0.64234,0.0918517,-6.74863,0.0596843,
2,0,0,1,0,36609.4,0.0585287,0.0582049,-1.86989,19,0.00568314,10,-0.000108837,-2.72818,0.527423,0.111865,-8.15959,0.0582049,
2,0,0,1,0,36609.5,0.0570305,0.0567133,-1.86052,19,0.00554216,10,-0.000105516,-2.73036,0.525187,0.112341,-8.15066,0.0567133,
2,0,0,1,0,36609.6,0.0555323,0.0552699,-1.84629,19,0.00540226,10,-0.000102044,-2.7337,0.498769,0.118291,-8.53549,0.05526986,
2,0,0,1,0,36609.7,0.0540342,0.0537097,-1.83673,19,0.00526319,10,-9.86502e-05,-2.73595,0.563482,0.104706,-7.50171,0.0537097,
2,0,0,1,0,36609.7,0.052536,0.0522105,-1.82645,19,0.00512479,10,-9.53598e-05,-2.73839,0.491707,0.11999,-8.53782,0.0522105,
2,0,0,1,0,36609.8,0.0510378,0.0507378,-1.81208,19,0.0049873,10,-9.19409e-05,-2.74182,0.476512,0.123816,-8.75532,0.0507378,
2,0,0,1,0,36609.9,0.0495382,0.0491789,-1.79744,19,0.0048507,10,-8.83963e-05,-2.74534,0.500269,0.117937,-8.28463,0.0491789,
2,0,0,1,0,36610,0.0480427,0.0476818,-1.78736,19,0.00471537,10,-8.52245e-05,-2.74779,0.505381,0.116744,-8.14454,0.0476818,
2,0,0,1,0,36610,0.0465432,0.0462234,-1.77484,19,0.00458051,10,-8.20389e-05,-2.75084,0.47762,0.123529,-8.55882,0.0462234,
2,0,0,1,0,36610.1,0.045045,0.0447121,-1.7623,19,0.00444675,10,-7.87963e-05,-2.75392,0.465315,0.126796,-8.72016,0.04471213,
2,0,0,1,0,36610.2,0.0435468,0.043215,-1.74573,19,0.00431401,10,-7.54416e-05,-2.75802,0.464123,0.127122,-8.68411,0.043215,
2,0,0,1,0,36610.3,0.0420486,0.0417156,-1.73514,19,0.00418236,10,-7.23825e-05,-2.76066,0.47947,0.123052,-8.34847,0.0417156,
2,0,0,1,0,36610.3,0.0405504,0.0402307,-1.72604,19,0.00405158,10,-6.94399e-05,-2.76295,0.490543,0.120275,-8.08961,0.04023071,
2,0,0,1,0,36610.4,0.0390523,0.0387028,-1.71319,19,0.0039216,10,-6.63051e-05,-2.7662,0.415438,0.142019,-9.46703,0.0387028,
2,0,0,1,0,36610.5,0.0375541,0.0371893,-1.69647,19,0.00379271,10,-6.30906e-05,-2.77045,0.407823,0.144671,-9.58602,0.0371893,
2,0,0,1,0,36610.6,0.0360559,0.0357381,-1.68304,19,0.00366508,10,-6.01486e-05,-2.77391,0.396182,0.148922,-9.78823,0.0357381,
2,0,0,1,0,36610.6,0.0345577,0.0342288,-1.66896,19,0.00353837,10,-5.71264e-05,-2.77755,0.446428,0.13216,-8.60831,0.0342288,
2,0,0,1,0,36610.7,0.0330582,0.032717,-1.65566,19,0.00341247,10,-5.41681e-05,-2.78103,0.399909,0.147534,-9.51997,0.032717,
2,0,0,1,0,36610.8,0.0315626,0.0312124,-1.64339,19,0.00328789,10,-5.1294e-05,-2.78426,0.464068,0.127137,-8.15104,0.0312124,
2,0,0,1,0,36610.9,0.0300631,0.0297331,-1.62767,19,0.00316423,10,-4.83957e-05,-2.78843,0.413154,0.142804,-9.07694,0.0297331,
2,0,0,1,0,36610.9,0.0285649,0.0282227,-1.61366,19,0.00304158,10,-4.5542e-05,-2.79219,0.488076,0.120883,-7.61651,0.0282227,
2,0,0,1,0,36611,0.0270667,0.0267354,-1.6048,19,0.00291985,10,-4.29049e-05,-2.79458,0.427237,0.138097,-8.63916,0.02673538,
2,0,0,1,0,36611.1,0.0255685,0.025242,-1.59035,19,0.00279905,10,-4.01435e-05,-2.79851,0.384719,0.153359,-9.52152,0.025242,
2,0,0,1,0,36611.2,0.0240704,0.023709,-1.57421,19,0.00267933,10,-3.7323e-05,-2.80294,0.382414,0.154283,-9.50091,0.023709,
2,0,0,1,0,36611.2,0.0225722,0.022275,-1.56456,19,0.00256047,10,-3.48506e-05,-2.80561,0.48308,0.122133,-7.46442,0.02227499,
2,0,0,1,0,36611.3,0.021074,0.0207601,-1.55356,19,0.00244243,10,-3.2252e-05,-2.80867,0.482659,0.122239,-7.41595,0.0207601,
2,0,0,1,0,36611.4,0.0195758,0.0192403,-1.54484,19,0.00232522,10,-2.97231e-05,-2.81112,0.434266,0.135862,-8.18366,0.0192403,
2,0,0,1,0,36611.5,0.018078,0.0177475,-1.52991,19,0.00220886,10,-2.7152e-05,-2.81534,0.5217,0.113092,-6.76633,0.0177475,
2,0,0,1,0,36611.5,0.0165785,0.0162627,-1.52378,19,0.00209318,10,-2.47807e-05,-2.81708,0.611176,0.0965352,-5.74168,0.0162627,
2,0,0,1,0,36611.6,0.015083,0.0147879,-1.51721,19,0.00197836,10,-2.24364e-05,-2.81895,0.639194,0.0923037,-5.45731,0.0147879,
2,0,0,1,0,36611.7,0.013583,0.0132415,-1.50794,19,0.00186386,10,-1.99674e-05,-2.82162,0.582481,0.101291,-5.95019,0.0132415,
2,0,0,1,0,36611.8,0.0120848,0.0117462,-1.49542,19,0.00175021,10,-1.75655e-05,-2.82524,0.647893,0.0910644,-5.32995,0.0117462,
2,0,0,1,0,36611.8,0.0105866,0.010285,-1.48972,19,0.0016372,10,-1.53218e-05,-2.8269,0.767993,0.0768236,-4.47162,0.01028501,
2,0,0,1,0,36611.9,0.00908845,0.00876902,-1.485,19,0.00152458,10,-1.3022e-05,-2.82827,0.819451,0.0719994,-4.17251,0.00876902,
2,0,0,1,0,36612,0.00759027,0.00726836,-1.48036,19,0.00141237,10,-1.07598e-05,-2.82963,0.899534,0.0655895,-3.78868,0.00726836,
2,0,0,1,0,36612.1,0.00609208,0.00577071,-1.47522,19,0.00130054,10,-8.51304e-06,-2.83114,0.905135,0.0651837,-3.75164,0.00577071,
2,0,0,1,0,36612.1,0.00459389,0.00423629,-1.47141,19,0.00118917,10,-6.23332e-06,-2.83227,1.30687,0.0451462,-2.59225,0.00423629,
2,0,0,1,0,36612.2,0.00309391,0.00278855,-1.46899,19,0.00107783,10,-4.09635e-06,-2.83298,-1.98073,-0.029787,1.71179,0.00278855,
2,0,0,1,0,36612.3,0.0015984,0.00121973,-1.48291,19,0.000966034,10,-1.80875e-06,-2.82888, , , ,0.00121973,
2,0,0,1,0,36612.4,0.000199195,-0.000160926,-1.4723,19,0.000861631,10,2.36931e-07,-2.832, , , ,-0.000160926,