File: Figure_codes/Fig_3-5/rawdata_trumpetplot_data/after 10th/20221101_1-115_003_TrumpetPlot_ParaChange_from10_every3_07_CV_C01_18.csv
mode,ox/red,error,control changes,counter inc.,time/s,control/V,Ewe/V,<I>/mA,cycle number,(Q-Qo)/C,I Range,P/W,log(|I|),Tafel slope mV/dec,alpha_eff,dI/d(E-IR),E-IR/V,
2,0,0,0,0,36627.4,2.44065e-05,-0.000382585,-2.73002,19,0.0000000E+000,10,1.04447e-06,-2.56383, , , ,-0.000382585,
2,0,0,1,0,36627.4,0.0013005,0.000922887,-1.35421,19,-4.04913e-05,10,-1.24978e-06,-2.86832, , , ,0.000922887,
2,0,0,1,0,36627.4,0.00279471,0.00246736,-0.392863,19,-6.09429e-05,10,-9.69332e-07,-3.40576,-0.0063197,-9.33589,540.056,0.00246736,
2,1,0,1,0,36627.4,0.00429425,0.0039327,0.234089,19,-6.1981e-05,10,9.20599e-07,-3.63062,0.0482287,1.22334,364.738,0.0039327,
2,1,0,1,0,36627.5,0.00579379,0.00545684,0.682998,19,-4.9743e-05,10,3.72701e-06,-3.16558,0.00295354,19.9761,266.901,0.00545684,
2,1,0,1,0,36627.5,0.007288,0.00695975,1.01885,19,-2.79895e-05,10,7.09095e-06,-2.99189,0.0101925,5.78857,201.969,0.00695975,
2,1,0,1,0,36627.5,0.00878882,0.00844681,1.27765,19,1.23574e-06,10,1.07921e-05,-2.89359,0.0179143,3.29345,154.864,0.00844681,
2,1,0,1,0,36627.5,0.0102896,0.00997279,1.48462,19,3.6288e-05,10,1.48058e-05,-2.82839,0.0269736,2.18732,122.019,0.00997279,
2,1,0,1,0,36627.6,0.0117838,0.0114864,1.65614,19,7.58188e-05,10,1.9023e-05,-2.7809,0.0359576,1.64082,103.457,0.0114864,
2,1,0,1,0,36627.6,0.0132834,0.012952,1.78563,19,0.000119195,10,2.31274e-05,-2.74821,0.0463138,1.27392,87.8779,0.012952,
2,1,0,1,0,36627.6,0.0147816,0.0144575,1.90561,19,0.000165811,10,2.75505e-05,-2.71996,0.0601323,0.981171,72.3671,0.0144575,
2,1,0,1,0,36627.6,0.0162811,0.0159789,2.01108,19,0.000215274,10,3.21348e-05,-2.69657,0.0731306,0.806775,62.9016,0.0159789,
2,1,0,1,0,36627.7,0.0177753,0.017452,2.10487,19,0.000266881,10,3.67341e-05,-2.67678,0.0874102,0.674978,54.992,0.017452,
2,1,0,1,0,36627.7,0.0192761,0.0189632,2.17668,19,0.000320735,10,4.12767e-05,-2.66221,0.0939539,0.627967,53.2731,0.0189632,
2,1,0,1,0,36627.7,0.020777,0.0204462,2.25424,19,0.000376509,10,4.60907e-05,-2.647,0.106618,0.553375,48.5219,0.0204462,
2,1,0,1,0,36627.7,0.0222712,0.0219248,2.32563,19,0.000433914,10,5.0989e-05,-2.63346,0.12152,0.485517,43.925,0.0219248,
2,1,0,1,0,36627.8,0.0237707,0.0235111,2.39334,19,0.000493226,10,5.62702e-05,-2.62099,0.13288,0.444011,41.2698,0.0235111,
2,1,0,1,0,36627.8,0.0252703,0.024986,2.44387,19,0.000554069,10,6.10625e-05,-2.61192,0.138385,0.426347,40.7554,0.024986,
2,1,0,1,0,36627.8,0.0267645,0.0264436,2.50114,19,0.000616118,10,6.61391e-05,-2.60186,0.146599,0.402459,39.3649,0.0264436,
2,1,0,1,0,36627.8,0.0282653,0.0279525,2.56678,19,0.000679891,10,7.17479e-05,-2.59061,0.162949,0.362077,36.2236,0.0279525,
2,1,0,1,0,36627.9,0.0297648,0.029464,2.62799,19,0.000745114,10,7.7431e-05,-2.58038,0.170648,0.345741,35.2519,0.029464,
2,1,0,1,0,36627.9,0.031259,0.0309296,2.66928,19,0.000811407,10,8.256e-05,-2.57361,0.161446,0.365447,38.1263,0.0309296,
2,1,0,1,0,36627.9,0.0327585,0.0324626,2.72663,19,0.000879247,10,8.85133e-05,-2.56437,0.176424,0.334421,35.5771,0.0324626,
2,1,0,1,0,36627.9,0.034258,0.0339225,2.78156,19,0.000948494,10,9.43574e-05,-2.55571,0.181265,0.325491,35.2718,0.0339225,
2,1,0,1,0,36628,0.0357576,0.0354394,2.83714,19,0.00101909,10,0.000100547,-2.54712,0.19051,0.309696,34.2091,0.0354394,
2,1,0,1,0,36628,0.0372518,0.0369437,2.88555,19,0.00109072,10,0.000106603,-2.53977,0.189369,0.31156,35.0679,0.0369437,
2,1,0,1,0,36628,0.0387526,0.0383961,2.9311,19,0.0011638,10,0.000112543,-2.53297,0.201241,0.29318,33.64,0.03839606,
2,1,0,1,0,36628,0.0402534,0.0399539,2.98546,19,0.00123817,10,0.000119281,-2.52499,0.213132,0.276824,32.2654,0.0399539,
2,1,0,1,0,36628.1,0.0417476,0.0414478,3.04524,19,0.00131364,10,0.000126218,-2.51638,0.197183,0.299214,35.4363,0.0414478,
2,1,0,1,0,36628.1,0.0432472,0.0429557,3.09335,19,0.00139067,10,0.000132877,-2.50957,0.210525,0.280252,33.7982,0.0429557,
2,1,0,1,0,36628.1,0.0447467,0.0444429,3.13191,19,0.00146887,10,0.000139191,-2.50419,0.222463,0.265212,32.494,0.0444429,
2,1,0,1,0,36628.1,0.0462463,0.0459287,3.18515,19,0.0015483,10,0.00014629,-2.49687,0.217794,0.270898,33.7151,0.0459287,
2,1,0,1,0,36628.2,0.0477391,0.0474414,3.23792,19,0.00162869,10,0.000153612,-2.48973,0.218503,0.270019,34.0893,0.0474414,
2,1,0,1,0,36628.2,0.0492399,0.0489192,3.28744,19,0.00171067,10,0.000160819,-2.48314,0.222842,0.264761,33.9363,0.0489192,
2,1,0,1,0,36628.2,0.0507408,0.0503894,3.32909,19,0.0017938,10,0.000167751,-2.47767,0.246973,0.238892,31.1035,0.0503894,
2,1,0,1,0,36628.2,0.052235,0.0519311,3.38421,19,0.00187778,10,0.000175746,-2.47054,0.239552,0.246293,32.5042,0.0519311,
2,1,0,1,0,36628.3,0.0537345,0.0534336,3.43715,19,0.00196337,10,0.000183659,-2.4638,0.252931,0.233265,31.2056,0.05343359,
2,1,0,1,0,36628.3,0.0552341,0.0549296,3.48235,19,0.00205022,10,0.000191284,-2.45813,0.25148,0.234611,31.8229,0.0549296,
2,1,0,1,0,36628.3,0.0567283,0.056425,3.51725,19,0.0021378,10,0.000198461,-2.4538,0.281756,0.209401,28.7938,0.056425,
2,1,0,1,0,36628.3,0.0582291,0.0579043,3.57142,19,0.00222679,10,0.000206801,-2.44716,0.294574,0.200289,27.8894,0.0579043,
2,1,0,1,0,36628.4,0.0597299,0.0594145,3.62193,19,0.00231698,10,0.000215195,-2.44106,0.273884,0.21542,30.3365,0.0594145,
2,1,0,1,0,36628.4,0.0612228,0.0609127,3.66123,19,0.00240792,10,0.000223015,-2.43637,0.286958,0.205605,29.3231,0.0609127,
2,1,0,1,0,36628.4,0.0627223,0.0623819,3.69696,19,0.00250035,10,0.000230624,-2.43216,0.293105,0.201293,29.0974,0.0623819,
2,1,0,1,0,36628.4,0.0642218,0.0639388,3.74001,19,0.00259379,10,0.000239132,-2.42713,0.323251,0.182521,26.6784,0.0639388,
2,1,0,1,0,36628.5,0.0657214,0.0653931,3.79024,19,0.00268829,10,0.000247855,-2.42133,0.311572,0.189362,27.9755,0.0653931,
2,1,0,1,0,36628.5,0.0672156,0.0669082,3.83345,19,0.00278356,10,0.000256489,-2.41641,0.291527,0.202382,30.214,0.0669082,
2,1,0,1,0,36628.5,0.0687164,0.0684214,3.86961,19,0.00288022,10,0.000264764,-2.41233,0.340972,0.173035,26.1364,0.0684214,
2,1,0,1,0,36628.5,0.0702172,0.0699007,3.90522,19,0.00297781,10,0.000272977,-2.40835,0.353483,0.166911,25.4491,0.0699007,
2,1,0,1,0,36628.6,0.0717114,0.0714234,3.95252,19,0.00307597,10,0.000282302,-2.40313,0.341259,0.172889,26.6054,0.0714234,
2,1,0,1,0,36628.6,0.073211,0.0729016,3.98308,19,0.00317549,10,0.000290373,-2.39978,0.345454,0.17079,26.5434,0.0729016,
2,1,0,1,0,36628.6,0.0747105,0.0744013,4.0181,19,0.00327594,10,0.000298952,-2.39598,0.380051,0.155243,24.3542,0.0744013,
2,1,0,1,0,36628.6,0.0762101,0.0758834,4.0491,19,0.00337725,10,0.000307259,-2.39264,0.450205,0.131051,20.7492,0.0758834,
2,1,0,1,0,36628.7,0.0777042,0.077409,4.09023,19,0.00347902,10,0.000316621,-2.38825,0.412105,0.143167,22.8375,0.077409,
2,1,0,1,0,36628.7,0.0792037,0.0788647,4.12815,19,0.00358205,10,0.000325566,-2.38424,0.407661,0.144728,23.2828,0.0788647,
2,1,0,1,0,36628.7,0.0807046,0.0804341,4.15076,19,0.00368595,10,0.000333863,-2.38187,0.444628,0.132695,21.502,0.0804341,
2,1,0,1,0,36628.7,0.0821988,0.0818884,4.18425,19,0.00379019,10,0.000342641,-2.37838,0.533236,0.110645,18.0662,0.0818884,
2,1,0,1,0,36628.8,0.0836983,0.0834141,4.2157,19,0.00389555,10,0.000351649,-2.37513,0.522818,0.11285,18.5616,0.0834141,
2,1,0,1,0,36628.8,0.0851979,0.0848727,4.24332,19,0.00400168,10,0.000360142,-2.37229,0.490929,0.12018,19.9108,0.0848727,
2,1,0,1,0,36628.8,0.0866921,0.0863399,4.2741,19,0.00410815,10,0.000369026,-2.36916,0.490428,0.120303,20.0739,0.0863399,
2,1,0,1,0,36628.8,0.0881929,0.0878624,4.30485,19,0.00421578,10,0.000378235,-2.36604,0.592158,0.0996356,16.7364,0.0878624,
2,1,0,1,0,36628.9,0.0896937,0.0893449,4.33877,19,0.0043241,10,0.000387647,-2.36263,0.520025,0.113456,19.2015,0.0893449,
2,1,0,1,0,36628.9,0.0911879,0.0908579,4.36895,19,0.00443277,10,0.000396954,-2.35962,0.397822,0.148308,25.2718,0.0908579,
2,1,0,1,0,36628.9,0.0926861,0.0923877,4.40006,19,0.00454281,10,0.000406512,-2.35654,0.380573,0.15503,26.6498,0.0923877,
2,1,0,1,0,36628.9,0.0941856,0.0938804,4.43723,19,0.00465373,10,0.000416569,-2.35289,0.43268,0.136359,23.6464,0.0938804,
2,1,0,1,0,36629,0.0956852,0.0953563,4.47202,19,0.00476552,10,0.000426435,-2.3495,0.423922,0.139177,24.3228,0.0953563,
2,1,0,1,0,36629,0.0971794,0.0968334,4.5133,19,0.0048778,10,0.000437038,-2.34551,0.333486,0.176919,31.1801,0.0968334,
2,1,0,1,0,36629,0.0986802,0.0983712,4.5574,19,0.00499163,10,0.000448316,-2.34128,0.324018,0.182089,32.4485,0.0983712,
2,1,0,1,0,36629,0.100181,0.0998203,4.61024,19,0.00510667,10,0.000460195,-2.33628,0.327321,0.180251,32.4423,0.0998203,
2,1,0,1,0,36629.1,0.101675,0.101346,4.66159,19,0.00522249,10,0.000472435,-2.33147,0.31758,0.18578,33.8086,0.101346,
2,1,0,1,0,36629.1,0.103175,0.102848,4.7214,19,0.00534009,10,0.000485585,-2.32593,0.263626,0.223802,41.261,0.102848,
2,1,0,1,0,36629.1,0.104674,0.104341,4.78783,19,0.00545926,10,0.000499568,-2.31986,0.242286,0.243514,45.5101,0.104341,
2,1,0,1,0,36629.1,0.106169,0.105853,4.8549,19,0.00557969,10,0.000513906,-2.31382,0.25171,0.234397,44.4161,0.105853,
2,1,0,1,0,36629.2,0.107668,0.107375,4.92951,19,0.00570236,10,0.000529305,-2.3072,0.239288,0.246564,47.3961,0.107375,
2,1,0,1,0,36629.2,0.109169,0.108872,5.00041,19,0.00582674,10,0.000544406,-2.30099,0.230998,0.255414,49.8462,0.108872,
2,1,0,1,0,36629.2,0.110663,0.110342,5.06974,19,0.00595246,10,0.000559408,-2.29501,0.22084,0.267162,52.9369,0.110342,
2,1,0,1,0,36629.2,0.112163,0.111838,5.14631,19,0.00608066,10,0.000575553,-2.2885,0.229121,0.257506,51.7566,0.111838,
2,1,0,1,0,36629.3,0.113662,0.113323,5.23351,19,0.00621083,10,0.000593076,-2.28121,0.237264,0.248668,50.7106,0.113323,
2,1,0,1,0,36629.3,0.115162,0.114848,5.30465,19,0.00634285,10,0.000609229,-2.27534,0.23757,0.248348,51.402,0.114848,
2,1,0,1,0,36629.3,0.116656,0.116321,5.37649,19,0.00647624,10,0.000625397,-2.2695,0.238665,0.247208,51.8857,0.1163208,
2,1,0,1,0,36629.3,0.118157,0.11782,5.45299,19,0.00661208,10,0.000642472,-2.26337,0.26538,0.222322,47.3067,0.11782,
2,1,0,1,0,36629.4,0.119657,0.119368,5.52798,19,0.00674973,10,0.000659864,-2.25743,0.295895,0.199395,42.9465,0.119368,
2,1,0,1,0,36629.4,0.121152,0.120885,5.58991,19,0.00688847,10,0.000675736,-2.25259,0.298208,0.197848,43.1304,0.120885,
2,1,0,1,0,36629.4,0.122651,0.122332,5.64506,19,0.00702933,10,0.000690574,-2.24833,0.302958,0.194746,42.9222,0.122332,
2,1,0,1,0,36629.4,0.124151,0.123842,5.705,19,0.00717172,10,0.00070652,-2.24374,0.353553,0.166877,37.1719,0.123842,
2,1,0,1,0,36629.5,0.125649,0.125367,5.76503,19,0.0073155,10,0.000722745,-2.2392,0.411146,0.143501,32.2275,0.125367,
2,1,0,1,0,36629.5,0.127143,0.126863,5.80868,19,0.00745999,10,0.000736904,-2.23592,0.425168,0.138769,31.4378,0.126863,
2,1,0,1,0,36629.5,0.128644,0.128309,5.853,19,0.0076061,10,0.000750992,-2.23262,0.453945,0.129972,29.6941,0.128309,
2,1,0,1,0,36629.5,0.130145,0.129824,5.89412,19,0.00775333,10,0.0007652,-2.22958,0.498149,0.118438,27.2358,0.129824,
2,1,0,1,0,36629.6,0.131639,0.131285,5.93536,19,0.00790103,10,0.000779222,-2.22655,0.640196,0.0921592,21.3086,0.131285,
2,1,0,1,0,36629.6,0.133139,0.132824,5.97226,19,0.00805023,10,0.000793261,-2.22386,0.606045,0.0973525,22.6722,0.132824,
2,1,0,1,0,36629.6,0.134638,0.134259,5.99602,19,0.00820017,10,0.000805022,-2.22214,0.623895,0.0945673,22.1458,0.134259,
2,1,0,1,0,36629.6,0.136132,0.135794,6.02022,19,0.0083503,10,0.000817513,-2.22039,0.740253,0.0797025,18.7481,0.135794,
2,1,0,1,0,36629.7,0.137633,0.137315,6.05637,19,0.00850176,10,0.000831629,-2.21779,1.02159,0.057753,13.6359,0.137315,
2,1,0,1,0,36629.7,0.139133,0.138789,6.07912,19,0.0086538,10,0.000843712,-2.21616,1.267,0.0465666,11.0268,0.138789,
2,1,0,1,0,36629.7,0.140627,0.140276,6.08745,19,0.0088056,10,0.000853925,-2.21556,1.78386,0.0330744,7.85089,0.140276,
2,1,0,1,0,36629.7,0.142126,0.141805,6.08708,19,0.00895824,10,0.00086318,-2.21559,11.7899,0.00500428,1.18787,0.141805,
2,1,0,1,0,36629.8,0.143626,0.143318,6.087,19,0.00911093,10,0.000872375,-2.2156,-1.40534,-0.0419826,-9.95393,0.143318,
2,1,0,1,0,36629.8,0.145125,0.144822,6.07114,19,0.00926334,10,0.000879232,-2.21673,-0.674446,-0.0874793,-20.6568,0.1448216,
2,1,0,1,0,36629.8,0.14662,0.146301,6.0223,19,0.00941433,10,0.00088107,-2.22024,-0.418229,-0.141071,-33.1002,0.146301,
2,1,0,1,0,36629.8,0.14812,0.147801,5.96784,19,0.00956468,10,0.000882051,-2.22418,-0.30337,-0.194482,-45.1843,0.147801,
2,1,0,1,0,36629.9,0.149621,0.149293,5.89187,19,0.00971332,10,0.000879617,-2.22975,-0.217618,-0.271117,-62.1027,0.149293,
2,1,0,1,0,36629.9,0.151116,0.150805,5.79404,19,0.00985917,10,0.000873772,-2.23702,-0.172454,-0.34212,-76.9568,0.150805,
2,1,0,1,0,36629.9,0.152615,0.152263,5.66173,19,0.0100028,10,0.000862072,-2.24705,-0.148082,-0.398427,-87.7704,0.152263,
2,1,0,1,0,36629.9,0.154115,0.153754,5.51239,19,0.0101429,10,0.000847554,-2.25866,-0.12629,-0.46718,-100.415,0.153754,
2,1,0,1,0,36630,0.155614,0.155277,5.36119,19,0.0102793,10,0.000832467,-2.27074,-0.109131,-0.540633,-112.783,0.155277,
2,1,0,1,0,36630,0.157107,0.156751,5.19136,19,0.010411,10,0.00081375,-2.28472,-0.0986513,-0.598066,-120.65,0.156751,
2,1,0,1,0,36630,0.158608,0.158327,4.99951,19,0.0105387,10,0.000791558,-2.30107,-0.0935856,-0.630439,-122.843,0.158327,
2,1,0,1,0,36630,0.160109,0.159774,4.80963,19,0.0106616,10,0.000768456,-2.31789,-0.0883099,-0.668102,-125.361,0.1597743,
2,1,0,1,0,36630.1,0.161603,0.161316,4.62089,19,0.0107794,10,0.000745424,-2.33527,-0.0861661,-0.684724,-123.506,0.161316,
2,1,0,1,0,36630.1,0.163102,0.1628,4.44898,19,0.0108931,10,0.000724295,-2.35174,-0.0844899,-0.698308,-121.126,0.1628003,
2,1,0,1,0,36630.1,0.164602,0.164304,4.26814,19,0.0110023,10,0.000701272,-2.36976,-0.0898004,-0.657013,-109.647,0.164304,
2,1,0,1,0,36630.1,0.166096,0.165769,4.10495,19,0.0111069,10,0.000680475,-2.38669,-0.0924072,-0.638478,-102.622,0.1657695,
2,1,0,1,0,36630.2,0.167597,0.167273,3.95644,19,0.011208,10,0.000661805,-2.4027,-0.0960653,-0.614166,-95.1032,0.167273,
2,1,0,1,0,36630.2,0.169098,0.16878,3.82838,19,0.0113057,10,0.000646155,-2.41698,-0.10227,-0.576905,-86.1981,0.16878,
2,1,0,1,0,36630.2,0.170592,0.170291,3.69958,19,0.0113997,10,0.000630005,-2.43185,-0.107865,-0.546981,-79.1066,0.170291,
2,1,0,1,0,36630.2,0.17209,0.171819,3.57777,19,0.0114911,10,0.000614729,-2.44639,-0.115248,-0.511938,-71.8568,0.171819,
2,1,0,1,0,36630.3,0.17359,0.17328,3.48122,19,0.0115797,10,0.000603228,-2.45827,-0.12128,-0.486479,-66.2787,0.17328,
2,1,0,1,0,36630.3,0.175089,0.174766,3.39691,19,0.0116661,10,0.000593665,-2.46892,-0.135259,-0.436201,-57.8417,0.174766,
2,1,0,1,0,36630.3,0.176583,0.176266,3.31284,19,0.0117499,10,0.00058394,-2.4798,-0.144968,-0.406987,-52.6567,0.176266,
2,1,0,1,0,36630.3,0.178084,0.177758,3.23028,19,0.0118321,10,0.00057421,-2.49076,-0.154134,-0.382783,-48.4224,0.177758,
2,1,0,1,0,36630.4,0.179585,0.179283,3.1643,19,0.0119124,10,0.000567305,-2.49972,-0.165685,-0.356097,-44.0803,0.179283,
2,1,0,1,0,36630.4,0.181079,0.180753,3.11009,19,0.0119908,10,0.000562159,-2.50723,-0.188951,-0.312251,-37.8902,0.1807532,
2,1,0,1,0,36630.4,0.182579,0.182292,3.05189,19,0.0120682,10,0.000556336,-2.51543,-0.205282,-0.28741,-34.2322,0.182292,
2,1,0,1,0,36630.4,0.184078,0.183764,3.00186,19,0.0121442,10,0.000551634,-2.52261,-0.222837,-0.264767,-31.0603,0.183764,
2,1,0,1,0,36630.5,0.185578,0.185269,2.95046,19,0.012219,10,0.000546631,-2.53011,-0.212803,-0.277252,-32.0532,0.185269,
2,1,0,1,0,36630.5,0.187072,0.186725,2.9156,19,0.0122924,10,0.000544415,-2.53527,-0.266898,-0.221059,-25.1606,0.186725,
2,1,0,1,0,36630.5,0.188573,0.188271,2.88397,19,0.0123652,10,0.00054297,-2.54001,-0.301651,-0.19559,-21.9867,0.188271,
2,1,0,1,0,36630.5,0.190072,0.189744,2.84315,19,0.0124372,10,0.000539471,-2.5462,-0.283002,-0.208479,-23.1441,0.189744,
2,1,0,1,0,36630.6,0.191567,0.191222,2.80964,19,0.012508,10,0.000537265,-2.55135,-0.314031,-0.187879,-20.6595,0.191222,
2,1,0,1,0,36630.6,0.193066,0.19276,2.78898,19,0.0125783,10,0.000537604,-2.55456,-0.393256,-0.15003,-16.3188,0.19276,
2,1,0,1,0,36630.6,0.194566,0.194285,2.76167,19,0.012648,10,0.000536551,-2.55883,-0.448624,-0.131513,-14.1715,0.194285,
2,1,0,1,0,36630.6,0.19606,0.195753,2.73737,19,0.0127169,10,0.000535848,-2.56267,-0.426301,-0.1384,-14.7949,0.195753,
2,1,0,1,0,36630.7,0.197561,0.197228,2.71046,19,0.0127854,10,0.000534579,-2.56696,-0.397379,-0.148473,-15.7476,0.197228,
2,1,0,1,0,36630.7,0.199062,0.198685,2.69575,19,0.0128533,10,0.000535606,-2.56932,-0.420243,-0.140395,-14.7608,0.198685,
2,1,0,1,0,36630.7,0.200556,0.200191,2.67932,19,0.0129205,10,0.000536375,-2.57198,-0.676891,-0.0871633,-9.10221,0.200191,
2,1,0,1,0,36630.7,0.202055,0.201755,2.65862,19,0.0129876,10,0.000536388,-2.57534,-0.572403,-0.103074,-10.6996,0.201755,
2,1,0,1,0,36630.8,0.203553,0.203229,2.63602,19,0.0130542,10,0.000535715,-2.57905,-0.510962,-0.115468,-11.9167,0.203229,
2,1,0,1,0,36630.8,0.205053,0.204718,2.62579,19,0.0131205,10,0.000537545,-2.58074,-0.6459,-0.0913455,-9.38848,0.204718,
2,1,0,1,0,36630.8,0.206547,0.206253,2.61745,19,0.0131861,10,0.000539857,-2.58212,-0.825224,-0.0714957,-7.29682,0.206253,
2,1,0,1,0,36630.8,0.208048,0.207743,2.60105,19,0.0132518,10,0.000540351,-2.58485,-0.791754,-0.0745181,-7.56512,0.207743,
2,1,0,1,0,36630.9,0.209549,0.209255,2.59168,19,0.0133171,10,0.000542322,-2.58642,-0.617005,-0.0956233,-9.68506,0.209255,
2,1,0,1,0,36630.9,0.211043,0.210743,2.58226,19,0.0133818,10,0.000544192,-2.588,-0.747338,-0.0789468,-7.93938,0.210743,
2,1,0,1,0,36630.9,0.212543,0.212214,2.56888,19,0.0134465,10,0.000545151,-2.59026,-1.12648,-0.0523757,-5.24604,0.212214,
2,1,0,1,0,36630.9,0.214042,0.213744,2.55719,19,0.013511,10,0.000546585,-2.59224,-0.998751,-0.0590738,-5.90334,0.213744,
2,1,0,1,0,36631,0.215536,0.215226,2.55016,19,0.013575,10,0.000548862,-2.59343,-0.762234,-0.077404,-7.70007,0.215226,
2,1,0,1,0,36631,0.217036,0.216716,2.54128,19,0.0136389,10,0.000550736,-2.59495,-0.831489,-0.070957,-7.02767,0.2167163,
2,1,0,1,0,36631,0.218537,0.218226,2.53323,19,0.0137027,10,0.000552816,-2.59633,-1.43093,-0.0412319,-4.0699,0.218226,
2,1,0,1,0,36631,0.220031,0.21974,2.52476,19,0.013766,10,0.00055479,-2.59778,-1.55622,-0.0379125,-3.73273,0.21974,
2,1,0,1,0,36631.1,0.22153,0.221215,2.5152,19,0.0138294,10,0.0005564,-2.59943,-0.756612,-0.0779792,-7.65796,0.221215,
2,1,0,1,0,36631.1,0.22303,0.222729,2.50827,19,0.0138926,10,0.000558663,-2.60063,-1.04337,-0.0565476,-5.53789,0.222729,
2,1,0,1,0,36631.1,0.224529,0.224264,2.50163,19,0.0139556,10,0.000561025,-2.60178,-1.14267,-0.0516336,-5.04324,0.224264,
2,1,0,1,0,36631.1,0.226024,0.225728,2.49383,19,0.0140181,10,0.000562929,-2.60313,-1.81847,-0.0324449,-3.16178,0.225728,
2,1,0,1,0,36631.2,0.227525,0.227234,2.48834,19,0.0140808,10,0.000565435,-2.60409,-0.873136,-0.0675725,-6.56176,0.227234,
2,1,0,1,0,36631.2,0.229025,0.2287,2.48679,19,0.0141434,10,0.000568728,-2.60436,-1.155,-0.0510824,-4.94918,0.2287,
2,1,0,1,0,36631.2,0.23052,0.230204,2.48132,19,0.0142054,10,0.00057121,-2.60532,-1.57028,-0.037573,-3.63203,0.230204,
2,1,0,1,0,36631.2,0.232019,0.231707,2.46951,19,0.0142677,10,0.000572204,-2.60739,-4.39205,-0.0134334,-1.29622,0.231707,
2,1,0,1,0,36631.3,0.233519,0.233177,2.46545,19,0.0143298,10,0.000574885,-2.6081,-1.33653,-0.044144,-4.25123,0.2331768,
2,1,0,1,0,36631.3,0.235018,0.234723,2.46547,19,0.0143918,10,0.000578703,-2.6081,-1.12553,-0.0524199,-5.03454,0.234723,
2,1,0,1,0,36631.3,0.236511,0.236191,2.45579,19,0.0144533,10,0.000580036,-2.60981,-2.26172,-0.0260863,-2.50006,0.236191,
2,1,0,1,0,36631.3,0.238012,0.237689,2.44705,19,0.014515,10,0.000581636,-2.61136,-3.05888,-0.0192881,-1.8459,0.237689,
2,1,0,1,0,36631.4,0.239513,0.239184,2.44638,19,0.0145766,10,0.000585133,-2.61148,-2.17417,-0.0271368,-2.59319,0.239184,
2,1,0,1,0,36631.4,0.241007,0.240705,2.44506,19,0.0146379,10,0.000588538,-2.61171,-1.10387,-0.0534483,-5.09005,0.240705,
2,1,0,1,0,36631.4,0.242506,0.242201,2.4349,19,0.0146992,10,0.000589736,-2.61352,-1.86017,-0.0317175,-3.01693,0.242201,
2,1,0,1,0,36631.4,0.244006,0.243665,2.42877,19,0.0147604,10,0.000591806,-2.61461,-4.45494,-0.0132437,-1.25731,0.243665,
2,1,0,1,0,36631.5,0.2455,0.245181,2.42767,19,0.0148213,10,0.000595217,-2.61481,-1.60319,-0.0368016,-3.48806,0.245181,
2,1,0,1,0,36631.5,0.247001,0.246654,2.42404,19,0.0148824,10,0.000597898,-2.61546,-1.3364,-0.0441485,-4.17104,0.246654,
2,1,0,1,0,36631.5,0.248502,0.2482,2.42288,19,0.0149433,10,0.000601359,-2.61567,-1.80735,-0.0326445,-3.08334,0.2482001,
2,1,0,1,0,36631.5,0.249995,0.249698,2.41255,19,0.0150038,10,0.000602409,-2.61752,-4.80109,-0.0122889,-1.1587,0.249698,
2,1,0,1,0,36631.6,0.251494,0.251227,2.40657,19,0.0150645,10,0.000604596,-2.6186,-3.58395,-0.0164623,-1.5502,0.2512272,
2,1,0,1,0,36631.6,0.252994,0.252658,2.40873,19,0.0151251,10,0.000608585,-2.61821,-1.38915,-0.0424719,-3.98691,0.252658,
2,1,0,1,0,36631.6,0.254493,0.254176,2.40609,19,0.0151857,10,0.000611572,-2.61869,-2.48344,-0.0237574,-2.22866,0.254176,
2,1,0,1,0,36631.6,0.255988,0.255699,2.39843,19,0.0152458,10,0.000613275,-2.62007,-3.86171,-0.0152782,-1.43266,0.255699,
2,1,0,1,0,36631.7,0.257488,0.257186,2.39261,19,0.0153061,10,0.000615346,-2.62113,-2.46505,-0.0239346,-2.23727,0.257186,
2,1,0,1,0,36631.7,0.258989,0.258683,2.39825,19,0.0153663,10,0.000620386,-2.62011,-1.60278,-0.0368109,-3.43555,0.258683,
2,1,0,1,0,36631.7,0.260483,0.260166,2.39682,19,0.0154263,10,0.000623571,-2.62037,-2.07443,-0.0284416,-2.6506,0.260166,
2,1,0,1,0,36631.7,0.261983,0.261644,2.37899,19,0.0154863,10,0.000622448,-2.62361,-4.83027,-0.0122146,-1.13744,0.261644,
2,1,0,1,0,36631.8,0.263482,0.263172,2.37941,19,0.0155462,10,0.000626194,-2.62353,-2.69048,-0.0219292,-2.04007,0.263172,
2,1,0,1,0,36631.8,0.264982,0.264685,2.37755,19,0.015606,10,0.000629301,-2.62387,-2.2536,-0.0261803,-2.43257,0.264685,
2,1,0,1,0,36631.8,0.266476,0.266187,2.37568,19,0.0156656,10,0.000632375,-2.62421,-1.78478,-0.0330572,-3.06115,0.266187,
2,1,0,1,0,36631.8,0.267976,0.267658,2.36628,19,0.0157252,10,0.000633353,-2.62593,-14.079,-0.00419064,-0.387357,0.267658,
2,1,0,1,0,36631.9,0.269477,0.26918,2.36205,19,0.0157848,10,0.000635816,-2.62671,-3.72767,-0.0158276,-1.46181,0.26918,
2,1,0,1,0,36631.9,0.270971,0.270655,2.36316,19,0.015844,10,0.000639601,-2.62651,-2.02971,-0.0290681,-2.67891,0.270655,
2,1,0,1,0,36631.9,0.27247,0.272184,2.36617,19,0.0159034,10,0.000644034,-2.62595,-1.79862,-0.0328029,-3.01572,0.272184,
2,1,0,1,0,36631.9,0.27397,0.273679,2.35217,19,0.0159628,10,0.00064374,-2.62853,-2.72606,-0.021643,-1.99067,0.273679,
2,1,0,1,0,36632,0.275464,0.275163,2.34654,19,0.0160217,10,0.000645683,-2.62957,-1.52649,-0.0386508,-3.55079,0.275163,
2,1,0,1,0,36632,0.276965,0.276734,2.3491,19,0.0160808,10,0.000650076,-2.6291,-1.78544,-0.0330451,-3.02798,0.276734,
2,1,0,1,0,36632,0.278466,0.278174,2.34852,19,0.0161398,10,0.000653297,-2.62921,-1.30638,-0.0451629,-4.12514,0.278174,
2,1,0,1,0,36632,0.27996,0.279651,2.33956,19,0.0161985,10,0.000654261,-2.63086,-3.61348,-0.0163277,-1.48978,0.279651,
2,1,0,1,0,36632.1,0.281458,0.281173,2.33055,19,0.0162572,10,0.000655288,-2.63254,-2.10244,-0.0280626,-2.55808,0.281173,
2,1,0,1,0,36632.1,0.282958,0.282633,2.33274,19,0.0163159,10,0.00065931,-2.63213,-2.10967,-0.0279665,-2.54498,0.2826333,
2,1,0,1,0,36632.1,0.284457,0.284167,2.33274,19,0.0163745,10,0.000662888,-2.63213,-3.55208,-0.01661,-1.50846,0.284167,
2,1,0,1,0,36632.1,0.285951,0.285626,2.3245,19,0.0164328,10,0.000663938,-2.63367,-2.63304,-0.0224076,-2.03091,0.285626,
2,1,0,1,0,36632.2,0.287452,0.287157,2.31285,19,0.0164911,10,0.00066415,-2.63585,-1.9553,-0.0301745,-2.72852,0.287157,
2,1,0,1,0,36632.2,0.288953,0.288652,2.31392,19,0.0165494,10,0.000667918,-2.63565,-1.54301,-0.038237,-3.45018,0.288652,
2,1,0,1,0,36632.2,0.290447,0.290129,2.31466,19,0.0166074,10,0.000671549,-2.63551,-2.38223,-0.0247667,-2.23263,0.290129,
2,1,0,1,0,36632.2,0.291947,0.291623,2.31283,19,0.0166655,10,0.000674472,-2.63586,-2.61954,-0.0225231,-2.02806,0.291623,
2,1,0,1,0,36632.3,0.293446,0.29312,2.29642,19,0.0167235,10,0.000673125,-2.63895,-1.71207,-0.0344613,-3.0993,0.29312,
2,1,0,1,0,36632.3,0.29494,0.294653,2.29816,19,0.0167811,10,0.000677161,-2.63862,-1.32127,-0.0446541,-4.01276,0.294653,
2,1,0,1,0,36632.3,0.29644,0.296132,2.29891,19,0.0168388,10,0.000680782,-2.63848,-2.16965,-0.0271933,-2.43172,0.296132,
2,1,0,1,0,36632.3,0.297941,0.29766,2.29347,19,0.0168966,10,0.000682674,-2.63951,-2.06589,-0.0285591,-2.55126,0.29766,
2,1,0,1,0,36632.4,0.29944,0.299173,2.28393,19,0.0169542,10,0.000683293,-2.64132,-0.00805269,-7.32674,-513.644,0.299173,
2,1,0,1,0,36632.4,0.299736,0.29941,1.88445,19,0.016984,10,0.000564221,-2.72482,0.00189791,31.0868,1431.61,0.29941,
2,1,0,1,0,36632.4,0.298238,0.297901,0.728539,19,0.0170141,10,0.000217033,-3.13755,0.00214336,27.5269,612.823,0.297901,
2,1,0,1,0,36632.4,0.296744,0.296432,0.165471,19,0.0170242,10,4.9051e-05,-3.78128,0.00643047,9.17508,313.487,0.296432,
2,0,0,1,0,36632.4,0.295243,0.294928,-0.158997,19,0.0170235,10,-4.68927e-05,-3.79861,-0.0332449,-1.77471,186.027,0.294928,
2,0,0,1,0,36632.5,0.293742,0.293429,-0.371423,19,0.0170163,10,-0.000108986,-3.43013,-0.00455585,-12.9504,120.467,0.293429,
2,0,0,1,0,36632.5,0.292248,0.291894,-0.519476,19,0.0170047,10,-0.000151632,-3.28443,-0.0122949,-4.79872,86.5661,0.291894,
2,0,0,1,0,36632.5,0.290748,0.2904,-0.628491,19,0.0169899,10,-0.000182514,-3.2017,-0.0202381,-2.91529,67.5537,0.2904003,
2,0,0,1,0,36632.5,0.289249,0.288957,-0.710767,19,0.0169727,10,-0.000205381,-3.14827,-0.0295615,-1.99584,54.2327,0.288957,
2,0,0,1,0,36632.6,0.287754,0.287456,-0.782409,19,0.0169536,10,-0.000224908,-3.10657,-0.0417208,-1.41416,42.5381,0.287456,
2,0,0,1,0,36632.6,0.286254,0.285906,-0.838158,19,0.0169329,10,-0.000239634,-3.07667,-0.0532378,-1.10823,36.0301,0.285906,
2,0,0,1,0,36632.6,0.284754,0.284467,-0.89407,19,0.0169108,10,-0.000254333,-3.04863,-0.0587924,-1.00353,34.476,0.284467,
2,0,0,1,0,36632.6,0.28326,0.282945,-0.937834,19,0.0168876,10,-0.000265355,-3.02787,-0.069737,-0.846036,30.7771,0.282945,
2,0,0,1,0,36632.7,0.28176,0.281457,-0.975476,19,0.0168633,10,-0.000274554,-3.01078,-0.0908792,-0.649213,24.6691,0.281457,
2,0,0,1,0,36632.7,0.280261,0.279974,-1.01442,19,0.0168379,10,-0.00028401,-2.99378,-0.106907,-0.551879,21.8085,0.279974,
2,0,0,1,0,36632.7,0.278761,0.278447,-1.05097,19,0.0168117,10,-0.000292638,-2.97841,-0.102499,-0.575613,23.4873,0.278447,
2,0,0,1,0,36632.7,0.277267,0.276925,-1.07742,19,0.0167848,10,-0.000298366,-2.96761,-0.11691,-0.504663,21.2407,0.276925,
2,0,0,1,0,36632.8,0.275766,0.275411,-1.109,19,0.016757,10,-0.000305431,-2.95507,-0.146275,-0.403349,17.4531,0.275411,
2,0,0,1,0,36632.8,0.274265,0.273891,-1.1417,19,0.0167285,10,-0.000312703,-2.94245,-0.156561,-0.37685,16.66,0.273891,
2,0,0,1,0,36632.8,0.272771,0.272452,-1.16066,19,0.0166995,10,-0.000316225,-2.93529,-0.159627,-0.369611,16.766,0.272452,
2,0,0,1,0,36632.8,0.271272,0.270985,-1.18908,19,0.0166697,10,-0.000322223,-2.92479,-0.153519,-0.384316,17.8097,0.270985,
2,0,0,1,0,36632.9,0.269772,0.269468,-1.21433,19,0.0166392,10,-0.000327224,-2.91566,-0.177785,-0.331862,15.7088,0.269468,
2,0,0,1,0,36632.9,0.268273,0.267959,-1.24037,19,0.0166081,10,-0.000332367,-2.90645,-0.226259,-0.260763,12.5709,0.267959,
2,0,0,1,0,36632.9,0.26678,0.266471,-1.25596,19,0.0165767,10,-0.000334678,-2.90102,-0.203385,-0.29009,14.226,0.266471,
2,0,0,1,0,36632.9,0.265279,0.264982,-1.27706,19,0.0165446,10,-0.000338397,-2.89379,-0.188918,-0.312306,15.5816,0.264982,
2,0,0,1,0,36633,0.263778,0.263452,-1.29513,19,0.0165119,10,-0.000341205,-2.88769,-0.224345,-0.262988,13.3335,0.263452,
2,0,0,1,0,36633,0.262284,0.261984,-1.31965,19,0.0164789,10,-0.000345727,-2.87954,-0.279569,-0.211039,10.8581,0.261984,
2,0,0,1,0,36633,0.260784,0.260454,-1.3379,19,0.0164453,10,-0.000348462,-2.87358,-0.23693,-0.249019,12.9804,0.260454,
2,0,0,1,0,36633,0.259285,0.258957,-1.35542,19,0.0164112,10,-0.000350997,-2.86792,-0.220427,-0.267662,14.1831,0.258957,
2,0,0,1,0,36633.1,0.257791,0.257505,-1.3755,19,0.0163768,10,-0.000354198,-2.86154,-0.281397,-0.209668,11.2573,0.257505,
2,0,0,1,0,36633.1,0.25629,0.255975,-1.3953,19,0.0163418,10,-0.000357163,-2.85533,-0.355487,-0.165969,8.98915,0.2559754,
2,0,0,1,0,36633.1,0.254789,0.254453,-1.40951,19,0.0163064,10,-0.000358653,-2.85093,-0.30464,-0.193671,10.6034,0.254453,
2,0,0,1,0,36633.1,0.253296,0.252954,-1.42274,19,0.0162708,10,-0.000359887,-2.84688,-0.254394,-0.231923,12.885,0.252954,
2,0,0,1,0,36633.2,0.251797,0.251483,-1.43561,19,0.0162346,10,-0.000361031,-2.84296,-0.296807,-0.198782,11.186,0.251483,
2,0,0,1,0,36633.2,0.250297,0.250005,-1.45798,19,0.016198,10,-0.000364502,-2.83625,-0.361515,-0.163202,9.2754,0.250005,
2,0,0,1,0,36633.2,0.248797,0.248483,-1.47431,19,0.0161609,10,-0.000366341,-2.83141,-0.325374,-0.18133,10.4053,0.248483,
2,0,0,1,0,36633.2,0.247303,0.247006,-1.48418,19,0.0161238,10,-0.000366602,-2.82851,-0.319673,-0.184564,10.7148,0.247006,
2,0,0,1,0,36633.3,0.245802,0.245475,-1.49941,19,0.016086,10,-0.000368067,-2.82408,-0.303966,-0.194101,11.3711,0.245475,
2,0,0,1,0,36633.3,0.244302,0.243967,-1.5179,19,0.0160478,10,-0.000370318,-2.81876,-0.399157,-0.147812,8.73377,0.243967,
2,0,0,1,0,36633.3,0.242807,0.242509,-1.53371,19,0.0160094,10,-0.000371939,-2.81426,-0.392068,-0.150484,8.96334,0.242509,
2,0,0,1,0,36633.3,0.241308,0.240962,-1.54483,19,0.0159706,10,-0.000372246,-2.81112,-0.311207,-0.189584,11.4311,0.240962,
2,0,0,1,0,36633.4,0.239808,0.239537,-1.5514,19,0.0159314,10,-0.000371619,-2.80928,-0.38034,-0.155124,9.45995,0.239537,
2,0,0,1,0,36633.4,0.238309,0.237984,-1.57381,19,0.0158919,10,-0.000374542,-2.80305,-0.458786,-0.1286,7.89046,0.237984,
2,0,0,1,0,36633.4,0.236815,0.236495,-1.58893,19,0.0158521,10,-0.000375775,-2.7989,-0.486126,-0.121368,7.494,0.236495,
2,0,0,1,0,36633.4,0.235315,0.234948,-1.59679,19,0.0158119,10,-0.000375164,-2.79675,-0.359051,-0.164322,10.263,0.234948,
2,0,0,1,0,36633.5,0.233814,0.233502,-1.60896,19,0.0157714,10,-0.000375695,-2.79346,-0.424308,-0.13905,8.7584,0.233502,
2,0,0,1,0,36633.5,0.23232,0.232012,-1.62991,19,0.0157306,10,-0.000378158,-2.78784,-0.524174,-0.112558,7.15112,0.232012,
2,0,0,1,0,36633.5,0.230821,0.230509,-1.64252,19,0.0156894,10,-0.000378617,-2.78449,-0.439314,-0.1343,8.5722,0.230509,
2,0,0,1,0,36633.5,0.229321,0.229013,-1.65304,19,0.0156478,10,-0.000378567,-2.78172,-0.389955,-0.151299,9.74922,0.229013,
2,0,0,1,0,36633.6,0.227827,0.227492,-1.65821,19,0.0156062,10,-0.000377229,-2.78036,-0.501175,-0.117723,7.66157,0.227492,
2,0,0,1,0,36633.6,0.226326,0.226022,-1.67669,19,0.015564,10,-0.000378968,-2.77555,-0.518967,-0.113687,7.44338,0.226022,
2,0,0,1,0,36633.6,0.224825,0.224506,-1.69184,19,0.0155215,10,-0.000379829,-2.77164,-0.560174,-0.105324,6.93621,0.224506,
2,0,0,1,0,36633.6,0.223331,0.223013,-1.70411,19,0.0154788,10,-0.000380038,-2.7685,-0.397589,-0.148394,9.85545,0.223013,
2,0,0,1,0,36633.7,0.221831,0.221531,-1.71526,19,0.0154358,10,-0.000379984,-2.76567,-0.560338,-0.105294,7.0451,0.221531,
2,0,0,1,0,36633.7,0.220333,0.220033,-1.72532,19,0.0153924,10,-0.000379627,-2.76313,-0.426996,-0.138175,9.3065,0.220033,
2,0,0,1,0,36633.7,0.218834,0.218511,-1.74334,19,0.0153486,10,-0.00038094,-2.75862,-0.428,-0.13785,9.35439,0.218511,
2,0,0,1,0,36633.7,0.21734,0.217024,-1.75258,19,0.0153047,10,-0.000380352,-2.75632,-0.484424,-0.121794,8.33592,0.217024,
2,0,0,1,0,36633.8,0.215839,0.215546,-1.7586,19,0.0152603,10,-0.000379058,-2.75483,-0.519567,-0.113556,7.82201,0.215546,
2,0,0,1,0,36633.8,0.214338,0.213992,-1.77184,19,0.0152157,10,-0.000379158,-2.75158,-0.582888,-0.10122,7.01562,0.213992,
2,0,0,1,0,36633.8,0.212844,0.212513,-1.79313,19,0.0151709,10,-0.000381063,-2.74639,-0.533,-0.110694,7.7148,0.2125127,
2,0,0,1,0,36633.8,0.211344,0.211051,-1.80203,19,0.0151256,10,-0.000380321,-2.74424,-0.445671,-0.132385,9.29018,0.211051,
2,0,0,1,0,36633.9,0.209845,0.209565,-1.8024,19,0.01508,10,-0.000377721,-2.74415,-0.457136,-0.129065,9.14853,0.209565,
2,0,0,1,0,36633.9,0.20835,0.208011,-1.82574,19,0.0150343,10,-0.000379774,-2.73856,-0.483914,-0.121923,8.71095,0.208011,
2,0,0,1,0,36633.9,0.206851,0.206559,-1.84377,19,0.0149881,10,-0.000380848,-2.73429,-0.51483,-0.114601,8.22419,0.206559,
2,0,0,1,0,36633.9,0.20535,0.20502,-1.85801,19,0.0149414,10,-0.00038093,-2.73095,-0.439314,-0.1343,9.68712,0.20502,
2,0,0,1,0,36634,0.203856,0.203522,-1.86214,19,0.0148947,10,-0.000378987,-2.72999,-0.495166,-0.119152,8.68163,0.2035218,
2,0,0,1,0,36634,0.202356,0.202038,-1.87153,19,0.0148475,10,-0.00037812,-2.7278,-0.695849,-0.0847885,6.22278,0.202038,
2,0,0,1,0,36634,0.200857,0.200549,-1.89165,19,0.0148001,10,-0.00037937,-2.72316,-0.625381,-0.0943425,6.94107,0.200549,
2,0,0,1,0,36634,0.199357,0.199051,-1.90739,19,0.0147522,10,-0.000379667,-2.71956,-0.448234,-0.131628,9.76028,0.199051,
2,0,0,1,0,36634.1,0.197863,0.197534,-1.91601,19,0.0147043,10,-0.000378476,-2.7176,-0.535702,-0.110136,8.23225,0.197534,
2,0,0,1,0,36634.1,0.196362,0.196033,-1.92925,19,0.0146558,10,-0.000378196,-2.71461,-0.598672,-0.0985515,7.4204,0.196033,
2,0,0,1,0,36634.1,0.194861,0.194506,-1.94375,19,0.014607,10,-0.000378071,-2.71136,-0.564044,-0.104602,7.91921,0.194506,
2,0,0,1,0,36634.1,0.193367,0.193016,-1.95784,19,0.0145581,10,-0.000377893,-2.70822,-0.42745,-0.138028,10.53,0.193016,
2,0,0,1,0,36634.2,0.191868,0.191515,-1.97315,19,0.0145085,10,-0.000377887,-2.70484,-0.524749,-0.112435,8.65537,0.191515,
2,0,0,1,0,36634.2,0.190368,0.190058,-1.97971,19,0.0144587,10,-0.00037626,-2.7034,-0.553813,-0.106534,8.25989,0.190058,
2,0,0,1,0,36634.2,0.18887,0.188554,-2.00162,19,0.0144085,10,-0.000377414,-2.69862,-0.465441,-0.126761,9.87963,0.188554,
2,0,0,1,0,36634.2,0.187376,0.187091,-2.01799,19,0.0143582,10,-0.000377548,-2.69508,-0.41567,-0.14194,11.154,0.1870908,
2,0,0,1,0,36634.3,0.185875,0.185514,-2.02932,19,0.0143072,10,-0.000376467,-2.69265,-0.436329,-0.135219,10.704,0.185514,
2,0,0,1,0,36634.3,0.184374,0.184059,-2.04116,19,0.0142558,10,-0.000375694,-2.69012,-0.473648,-0.124565,9.9413,0.184059,
2,0,0,1,0,36634.3,0.18288,0.182583,-2.06368,19,0.0142043,10,-0.000376793,-2.68536,-0.476014,-0.123946,9.9805,0.1825825,
2,0,0,1,0,36634.3,0.18138,0.181045,-2.08103,19,0.0141522,10,-0.000376761,-2.68172,-0.372054,-0.158579,12.8602,0.181045,
2,0,0,1,0,36634.4,0.179881,0.179561,-2.09113,19,0.0140996,10,-0.000375485,-2.67962,-0.405217,-0.145601,11.911,0.179561,
2,0,0,1,0,36634.4,0.178387,0.178059,-2.11172,19,0.0140467,10,-0.000376012,-2.67536,-0.485196,-0.1216,10.0357,0.178059,
2,0,0,1,0,36634.4,0.176886,0.176556,-2.13351,19,0.0139933,10,-0.000376683,-2.67091,-0.425443,-0.138679,11.5434,0.176556,
2,0,0,1,0,36634.4,0.175385,0.175091,-2.15326,19,0.0139394,10,-0.000377017,-2.6669,-0.313077,-0.188452,15.7935,0.175091,
2,0,0,1,0,36634.5,0.173892,0.173549,-2.17344,19,0.0138851,10,-0.000377199,-2.66285,-0.311712,-0.189277,16.0345,0.173549,
2,0,0,1,0,36634.5,0.172393,0.172035,-2.19307,19,0.0138301,10,-0.000377286,-2.65895,-0.362015,-0.162976,13.9511,0.1720352,
2,0,0,1,0,36634.5,0.170893,0.170581,-2.20932,19,0.0137747,10,-0.000376869,-2.65574,-0.35357,-0.166869,14.4215,0.170581,
2,0,0,1,0,36634.5,0.169393,0.169049,-2.23805,19,0.0137187,10,-0.000378339,-2.65013,-0.276996,-0.212999,18.5789,0.169049,
2,0,0,1,0,36634.6,0.167899,0.167539,-2.26168,19,0.0136622,10,-0.000378921,-2.64557,-0.272306,-0.216668,19.1721,0.167539,
2,0,0,1,0,36634.6,0.166398,0.166094,-2.28449,19,0.0136048,10,-0.00037944,-2.64121,-0.303665,-0.194293,17.3773,0.166094,
2,0,0,1,0,36634.6,0.164898,0.164582,-2.31683,19,0.0135468,10,-0.000381308,-2.63511,-0.292091,-0.201992,18.2644,0.164582,
2,0,0,1,0,36634.6,0.163403,0.163078,-2.35087,19,0.0134884,10,-0.000383374,-2.62877,-0.250824,-0.235225,21.5538,0.163078,
2,0,0,1,0,36634.7,0.161904,0.161585,-2.37908,19,0.0134289,10,-0.000384423,-2.62359,-0.232823,-0.253411,23.5421,0.161585,
2,0,0,1,0,36634.7,0.160404,0.16006,-2.41102,19,0.0133686,10,-0.000385908,-2.6178,-0.243154,-0.242645,22.8736,0.16006,
2,0,0,1,0,36634.7,0.158905,0.158562,-2.44685,19,0.0133074,10,-0.000387977,-2.61139,-0.240271,-0.245556,23.4934,0.158562,
2,0,0,1,0,36634.7,0.157411,0.157098,-2.48714,19,0.0132455,10,-0.000390724,-2.6043,-0.199722,-0.29541,28.7772,0.157098,
2,0,0,1,0,36634.8,0.155911,0.155585,-2.53001,19,0.0131823,10,-0.000393632,-2.59688,-0.181801,-0.32453,32.1686,0.155585,
2,0,0,1,0,36634.8,0.15441,0.154075,-2.57946,19,0.0131179,10,-0.000397431,-2.58847,-0.185954,-0.317282,32.0034,0.154075,
2,0,0,1,0,36634.8,0.152916,0.152591,-2.63801,19,0.0130525,10,-0.000402537,-2.57872,-0.174627,-0.337863,34.8016,0.152591,
2,0,0,1,0,36634.8,0.151417,0.151071,-2.68993,19,0.0129856,10,-0.00040637,-2.57026,-0.154349,-0.38225,40.1963,0.151071,
2,0,0,1,0,36634.9,0.149917,0.149579,-2.74914,19,0.0129171,10,-0.000411214,-2.5608,-0.13427,-0.439414,47.31,0.149579,
2,0,0,1,0,36634.9,0.148423,0.148111,-2.82257,19,0.0128472,10,-0.000418055,-2.54935,-0.133421,-0.442211,48.8568,0.148111,
2,0,0,1,0,36634.9,0.146922,0.146635,-2.89982,19,0.0127753,10,-0.000425215,-2.53763,-0.129034,-0.457244,51.8645,0.146635,
2,0,0,1,0,36634.9,0.145421,0.1451,-2.98548,19,0.0127013,10,-0.000433193,-2.52499,-0.112096,-0.526333,61.401,0.1451,
2,0,0,1,0,36635,0.143927,0.143594,-3.07136,19,0.0126254,10,-0.000441029,-2.51267,-0.10269,-0.574543,69.1719,0.143594,
2,0,0,1,0,36635,0.142429,0.142119,-3.18222,19,0.0125467,10,-0.000452255,-2.49727,-0.10102,-0.58404,72.7251,0.142119,
2,0,0,1,0,36635,0.140929,0.140605,-3.29287,19,0.0124653,10,-0.000462995,-2.48243,-0.102309,-0.576685,74.2605,0.140605,
2,0,0,1,0,36635,0.13943,0.139104,-3.41388,19,0.012381,10,-0.000474885,-2.46675,-0.0972853,-0.606464,80.857,0.139104,
2,0,0,1,0,36635.1,0.137935,0.137602,-3.53722,19,0.012294,10,-0.000486728,-2.45134,-0.0928173,-0.635657,87.9482,0.1376019,
2,0,0,1,0,36635.1,0.136435,0.136117,-3.6705,19,0.0122034,10,-0.000499616,-2.43527,-0.0917318,-0.643179,92.3782,0.136117,
2,0,0,1,0,36635.1,0.134934,0.13459,-3.81972,19,0.0121093,10,-0.000514095,-2.41797,-0.0940289,-0.627467,93.4113,0.1345896,
2,0,0,1,0,36635.1,0.13344,0.133135,-3.96407,19,0.012012,10,-0.000527755,-2.40186,-0.0938796,-0.628465,97.0495,0.133135,
2,0,0,1,0,36635.2,0.13194,0.131623,-4.1035,19,0.0119108,10,-0.000540117,-2.38685,-0.0922461,-0.639594,102.578,0.131623,
2,0,0,1,0,36635.2,0.13044,0.13013,-4.25406,19,0.0118058,10,-0.000553579,-2.3712,-0.0962962,-0.612693,101.716,0.13013,
2,0,0,1,0,36635.2,0.128941,0.128603,-4.40871,19,0.011697,10,-0.000566972,-2.35569,-0.102148,-0.577595,99.1617,0.128603,
2,0,0,1,0,36635.2,0.127447,0.127111,-4.56111,19,0.011585,10,-0.000579765,-2.34093,-0.110296,-0.534923,94.8769,0.127111,
2,0,0,1,0,36635.3,0.125946,0.125616,-4.69668,19,0.011469,10,-0.000589977,-2.32821,-0.116133,-0.508037,92.9988,0.125616,
2,0,0,1,0,36635.3,0.124446,0.124156,-4.83408,19,0.0113494,10,-0.000600179,-2.31569,-0.121167,-0.486932,91.7829,0.124156,
2,0,0,1,0,36635.3,0.122952,0.122676,-4.96633,19,0.0112269,10,-0.000609251,-2.30396,-0.130043,-0.453698,87.853,0.122676,
2,0,0,1,0,36635.3,0.121453,0.121146,-5.10093,19,0.0111006,10,-0.00061796,-2.29235,-0.141734,-0.416274,82.6348,0.121146,
2,0,0,1,0,36635.4,0.119953,0.119657,-5.21458,19,0.0109712,10,-0.000623961,-2.28278,-0.150963,-0.390825,79.5118,0.119657,
2,0,0,1,0,36635.4,0.118459,0.118121,-5.32781,19,0.0108395,10,-0.000629325,-2.27345,-0.15943,-0.370067,76.9113,0.118121,
2,0,0,1,0,36635.4,0.116958,0.116631,-5.44737,19,0.0107043,10,-0.000635332,-2.26381,-0.1755,-0.336183,71.3539,0.116631,
2,0,0,1,0,36635.4,0.115457,0.115129,-5.55271,19,0.0105664,10,-0.000639275,-2.2555,-0.20094,-0.293619,63.4391,0.115129,
2,0,0,1,0,36635.5,0.113963,0.113648,-5.63876,19,0.0104267,10,-0.000640833,-2.24882,-0.211797,-0.278568,61.2123,0.113648,
2,0,0,1,0,36635.5,0.112464,0.112126,-5.72388,19,0.0102842,10,-0.000641794,-2.24231,-0.238156,-0.247737,55.3246,0.112126,
2,0,0,1,0,36635.5,0.110965,0.110654,-5.80559,19,0.0101396,10,-0.00064241,-2.23615,-0.267045,-0.220936,49.9885,0.110654,
2,0,0,1,0,36635.5,0.109466,0.109127,-5.88266,19,0.00999308,10,-0.000641959,-2.23043,-0.314276,-0.187733,42.9817,0.109127,
2,0,0,1,0,36635.6,0.107972,0.107631,-5.93818,19,0.00984552,10,-0.000639134,-2.22635,-0.342436,-0.172295,39.8883,0.1076313,
2,0,0,1,0,36635.6,0.106471,0.106164,-5.99032,19,0.009696,10,-0.000635958,-2.22255,-0.405303,-0.14557,34.0166,0.106164,
2,0,0,1,0,36635.6,0.10497,0.104664,-6.03495,19,0.00954521,10,-0.000631644,-2.21933,-0.528189,-0.111702,26.2781,0.104664,
2,0,0,1,0,36635.6,0.103476,0.103193,-6.07807,19,0.00939394,10,-0.000627215,-2.21623,-0.677118,-0.0871339,20.6143,0.103193,
2,0,0,1,0,36635.7,0.101976,0.101674,-6.10254,19,0.00924127,10,-0.000620468,-2.21449,-1.02404,-0.057615,13.6931,0.101674,
2,0,0,1,0,36635.7,0.100477,0.100132,-6.10968,19,0.00908819,10,-0.000611774,-2.21398,-2.08686,-0.0282722,6.74048,0.100132,
2,0,0,1,0,36635.7,0.0989825,0.0986736,-6.1189,19,0.0089355,10,-0.000603774,-2.21333,-8.91913,-0.00661499,1.578,0.0986736,
2,0,0,1,0,36635.7,0.0974817,0.0971521,-6.11938,19,0.00878209,10,-0.00059451,-2.21329,4.31507,0.013673,-3.25872,0.0971521,
2,0,0,1,0,36635.8,0.0959822,0.0956349,-6.11164,19,0.00862885,10,-0.000584486,-2.21384,1.3217,0.0446395,-10.6227,0.0956349,
2,0,0,1,0,36635.8,0.094488,0.0941801,-6.07863,19,0.00847663,10,-0.000572486,-2.21619,1.03457,0.0570287,-13.5308,0.0941801,
2,0,0,1,0,36635.8,0.0929884,0.0926547,-6.0547,19,0.00832441,10,-0.000560996,-2.21791,0.783071,0.0753444,-17.8083,0.0926547,
2,0,0,1,0,36635.8,0.0914889,0.0911844,-6.03403,19,0.00817286,10,-0.000550209,-2.21939,0.660751,0.0892923,-20.9956,0.09118443,
2,0,0,1,0,36635.9,0.0899894,0.0896525,-5.99685,19,0.00802209,10,-0.000537632,-2.22208,0.571586,0.103222,-24.1071,0.0896525,
2,0,0,1,0,36635.9,0.0884951,0.0881768,-5.94813,19,0.00787285,10,-0.000524487,-2.22562,0.496877,0.118742,-27.588,0.0881768,
2,0,0,1,0,36635.9,0.0869943,0.0866757,-5.90852,19,0.00772421,10,-0.000512125,-2.22852,0.442862,0.133224,-30.7365,0.0866757,
2,0,0,1,0,36635.9,0.0854935,0.085174,-5.86966,19,0.00757663,10,-0.000499943,-2.23139,0.443695,0.132974,-30.4309,0.085174,
2,0,0,1,0,36636,0.0839993,0.0836455,-5.82209,19,0.00743067,10,-0.000486991,-2.23492,0.477195,0.123639,-28.077,0.0836455,
2,0,0,1,0,36636,0.0824997,0.0821941,-5.78091,19,0.00728521,10,-0.000475157,-2.238,0.470718,0.12534,-28.2935,0.0821941,
2,0,0,1,0,36636,0.0810002,0.0806428,-5.73217,19,0.0071409,10,-0.000462258,-2.24168,0.457851,0.128863,-28.8798,0.0806428,
2,0,0,1,0,36636,0.0795007,0.0791393,-5.70049,19,0.00699756,10,-0.000451133,-2.24409,0.520004,0.113461,-25.2366,0.0791393,
2,0,0,1,0,36636.1,0.0780078,0.0776825,-5.66737,19,0.0068557,10,-0.000440256,-2.24662,0.584562,0.10093,-22.3033,0.0776825,
2,0,0,1,0,36636.1,0.076507,0.0761824,-5.62455,19,0.00671417,10,-0.000428492,-2.24991,0.551395,0.107001,-23.4976,0.07618241,
2,0,0,1,0,36636.1,0.0750062,0.0747097,-5.58708,19,0.00657356,10,-0.000417409,-2.25281,0.57297,0.102972,-22.4888,0.0747097,
2,0,0,1,0,36636.1,0.073512,0.0731789,-5.56249,19,0.00643434,10,-0.000407057,-2.25473,0.642769,0.0917904,-19.9168,0.0731789,
2,0,0,1,0,36636.2,0.0720124,0.0716945,-5.53178,19,0.00629522,10,-0.000396598,-2.25714,0.70902,0.0832135,-17.9658,0.0716945,
2,0,0,1,0,36636.2,0.0705129,0.0701703,-5.5015,19,0.00615687,10,-0.000386042,-2.25952,0.671412,0.0878745,-18.8905,0.0701703,
2,0,0,1,0,36636.2,0.0690187,0.0687248,-5.47145,19,0.00601975,10,-0.000376024,-2.2619,0.681494,0.0865745,-18.5099,0.0687248,
2,0,0,1,0,36636.2,0.0675179,0.0672292,-5.45274,19,0.00588278,10,-0.000366583,-2.26339,0.710634,0.0830244,-17.6598,0.0672292,
2,0,0,1,0,36636.3,0.066017,0.0656944,-5.43312,19,0.00574638,10,-0.000356926,-2.26495,0.88368,0.0667662,-14.1307,0.0656944,
2,0,0,1,0,36636.3,0.0645242,0.064195,-5.39891,19,0.00561111,10,-0.000346583,-2.26769,0.721655,0.0817566,-17.2273,0.06419497,
2,0,0,1,0,36636.3,0.0630246,0.0626956,-5.37197,19,0.00547597,10,-0.000336799,-2.26987,0.659911,0.0894061,-18.7671,0.0626956,
2,0,0,1,0,36636.3,0.0615251,0.0612388,-5.34873,19,0.00534157,10,-0.000327549,-2.27175,0.664931,0.088731,-18.5217,0.0612388,
2,0,0,1,0,36636.4,0.0600256,0.0597082,-5.32134,19,0.00520773,10,-0.000317727,-2.27398,0.849864,0.0694229,-14.422,0.0597082,
2,0,0,1,0,36636.4,0.0585314,0.0581866,-5.29814,19,0.00507507,10,-0.00030828,-2.27588,0.717359,0.0822461,-17.0031,0.0581866,
2,0,0,1,0,36636.4,0.0570305,0.0567038,-5.2764,19,0.00494247,10,-0.000299192,-2.27766,0.629155,0.0937766,-19.2915,0.0567038,
2,0,0,1,0,36636.4,0.0555297,0.0551861,-5.24918,19,0.00481061,10,-0.000289682,-2.27991,0.591741,0.0997058,-20.4005,0.0551861,
2,0,0,1,0,36636.5,0.0540355,0.0536944,-5.22599,19,0.00467992,10,-0.000280606,-2.28183,0.802636,0.0735078,-14.9656,0.0536944,
2,0,0,1,0,36636.5,0.052536,0.0522086,-5.19496,19,0.00454932,10,-0.000271222,-2.28442,0.699062,0.0843988,-17.1052,0.0522086,
2,0,0,1,0,36636.5,0.0510364,0.0507144,-5.16569,19,0.00441939,10,-0.000261975,-2.28687,0.556188,0.106079,-21.3947,0.0507144,
2,0,0,1,0,36636.5,0.0495369,0.0492207,-5.13481,19,0.00429024,10,-0.000252739,-2.28948,0.564986,0.104427,-20.922,0.0492207,
2,0,0,1,0,36636.6,0.0480427,0.0477579,-5.10607,19,0.00416231,10,-0.000243855,-2.29191,0.66499,0.0887231,-17.672,0.04775789,
2,0,0,1,0,36636.6,0.0465432,0.0462181,-5.07367,19,0.0040346,10,-0.000234495,-2.29468,0.675785,0.0873059,-17.307,0.0462181,
2,0,0,1,0,36636.6,0.0450424,0.044725,-5.04508,19,0.00390762,10,-0.000225641,-2.29713,0.555896,0.106135,-20.9061,0.044725,
2,0,0,1,0,36636.6,0.0435482,0.0432688,-5.01709,19,0.00378193,10,-0.000217084,-2.29955,0.507054,0.116358,-22.7546,0.0432688,
2,0,0,1,0,36636.7,0.0420486,0.0417163,-4.98688,19,0.00365653,10,-0.000208034,-2.30217,0.577487,0.102167,-19.8715,0.0417163,
2,0,0,1,0,36636.7,0.0405491,0.0402651,-4.95336,19,0.00353187,10,-0.000199448,-2.3051,0.605499,0.0974403,-18.8365,0.0402651,
2,0,0,1,0,36636.7,0.0390549,0.0387351,-4.91589,19,0.00340846,10,-0.000190418,-2.3084,0.468623,0.125901,-24.19,0.0387351,
2,0,0,1,0,36636.7,0.0375541,0.0372403,-4.8879,19,0.00328538,10,-0.000182027,-2.31088,0.429936,0.13723,-26.1763,0.0372403,
2,0,0,1,0,36636.8,0.0360532,0.0357208,-4.85754,19,0.00316323,10,-0.000173515,-2.31358,0.484561,0.12176,-23.0667,0.0357208,
2,0,0,1,0,36636.8,0.034559,0.0342635,-4.82007,19,0.0030424,10,-0.000165152,-2.31695,0.555094,0.106288,-19.9861,0.0342635,
2,0,0,1,0,36636.8,0.0330595,0.0327612,-4.7847,19,0.00292191,10,-0.000156753,-2.32015,0.464871,0.126917,-23.6928,0.03276125,
2,0,0,1,0,36636.8,0.0315613,0.0312773,-4.75119,19,0.00280231,10,-0.000148605,-2.3232,0.410496,0.143728,-26.6054,0.03127734,
2,0,0,1,0,36636.9,0.0300618,0.0297553,-4.7072,19,0.00268374,10,-0.000140064,-2.32724,0.41947,0.140654,-25.8491,0.0297553,
2,0,0,1,0,36636.9,0.0285676,0.0282157,-4.66544,19,0.00256661,10,-0.000131639,-2.33111,0.471722,0.125074,-22.7837,0.0282157,
2,0,0,1,0,36636.9,0.0270667,0.0266817,-4.62811,19,0.0024499,10,-0.000123486,-2.3346,0.409383,0.144119,-26.0504,0.0266817,
2,0,0,1,0,36636.9,0.0255659,0.0252642,-4.59403,19,0.00233414,10,-0.000116065,-2.33781,0.38517,0.153179,-27.447,0.0252642,
2,0,0,1,0,36637,0.0240717,0.0237435,-4.55628,19,0.00221987,10,-0.000108182,-2.34139,0.418821,0.140872,-25.0281,0.0237435,
2,0,0,1,0,36637,0.0225722,0.0222452,-4.51246,19,0.00210611,10,-0.00010038,-2.34559,0.462161,0.127661,-22.4948,0.0222452,
2,0,0,1,0,36637,0.0210726,0.0207925,-4.4706,19,0.00199327,10,-9.29547e-05,-2.34963,0.411556,0.143358,-25.08,0.0207925,
2,0,0,1,0,36637,0.0195784,0.0192065,-4.44408,19,0.00188179,10,-8.53553e-05,-2.35222,0.386269,0.152743,-26.4606,0.0192065,
2,0,0,1,0,36637.1,0.0180789,0.0176846,-4.40742,19,0.00177082,10,-7.79433e-05,-2.35582,0.40411,0.146,-25.0801,0.0176846,
2,0,0,1,0,36637.1,0.0165781,0.0162847,-4.36764,19,0.00166078,10,-7.11256e-05,-2.35975,0.512283,0.115171,-19.6437,0.0162847,
2,0,0,1,0,36637.1,0.0150839,0.0147405,-4.33223,19,0.00155199,10,-6.38592e-05,-2.36329,0.465354,0.126785,-21.4812,0.0147405,
2,0,0,1,0,36637.1,0.0135844,0.0132403,-4.30583,19,0.0014435,10,-5.70106e-05,-2.36594,0.429139,0.137485,-23.0917,0.0132403,
2,0,0,1,0,36637.2,0.0120848,0.0117704,-4.27834,19,0.0013358,10,-5.03576e-05,-2.36872,0.461419,0.127866,-21.3205,0.0117704,
2,0,0,1,0,36637.2,0.0105853,0.010287,-4.24084,19,0.00122895,10,-4.36254e-05,-2.37255,0.555732,0.106166,-17.6064,0.010287,
2,0,0,1,0,36637.2,0.00909108,0.00876401,-4.2115,19,0.00112325,10,-3.69096e-05,-2.37556,0.560183,0.105323,-17.3429,0.00876401,
2,0,0,1,0,36637.2,0.00759027,0.0072536,-4.19217,19,0.00101775,10,-3.04083e-05,-2.37756,0.508445,0.11604,-18.9794,0.007253598,
2,0,0,1,0,36637.3,0.00608945,0.00574218,-4.1723,19,0.00091284,10,-2.39581e-05,-2.37962,0.609533,0.0967954,-15.7287,0.00574218,
2,0,0,1,0,36637.3,0.00459523,0.00431444,-4.14485,19,0.000809007,10,-1.78827e-05,-2.38249,0.712809,0.0827712,-13.3948,0.00431444,
2,0,0,1,0,36637.3,0.0030957,0.00276992,-4.1173,19,0.000705283,10,-1.14046e-05,-2.38539,1.73709,0.0339649,-5.48544,0.002769917,
2,0,0,1,0,36637.3,0.00159616,0.00123494,-4.133,19,0.000601596,10,-5.10399e-06,-2.38373, , , ,0.00123494,
2,0,0,1,0,36637.4,0.000199195,-0.000203165,-4.10423,19,0.000505205,10,8.33835e-07,-2.38677, , , ,-0.000203165,