File: Figure_codes/Fig_3-5/rawdata_trumpetplot_data/after 10th/20221101_1-115_003_TrumpetPlot_ParaChange_from10_every3_03_CV_C01_34.csv
mode,ox/red,error,control changes,counter inc.,time/s,control/V,Ewe/V,<I>/mA,cycle number,(Q-Qo)/C,I Range,P/W,log(|I|),Tafel slope mV/dec,alpha_eff,dI/d(E-IR),E-IR/V,
2,0,0,1,0,67924.4,2.44065e-05,-0.000363498,-0.0936697,35,0.0000000E+000,10,3.40488e-08,-4.0284, , , ,-0.000363498,
2,1,0,0,0,67924.7,0.00129787,0.000901567,0.123653,35,1.92508e-05,10,1.11481e-07,-3.9078, , , ,0.000901567,
2,1,0,0,0,67925,0.00279606,0.00244128,0.167028,35,6.85638e-05,10,4.07762e-07,-3.77721,0.0132205,4.46276,22.8486,0.002441277,
2,1,0,1,0,67925.3,0.00429469,0.00397415,0.178096,35,0.000124393,10,7.07779e-07,-3.74935,0.0550387,1.07197,7.37102,0.00397415,
2,1,0,1,0,67925.6,0.00579255,0.00542115,0.186617,35,0.000183397,10,1.01168e-06,-3.72905,0.0687733,0.857892,6.25218,0.00542115,
2,1,0,1,0,67925.9,0.0072904,0.00697534,0.197207,35,0.000245113,10,1.37559e-06,-3.70508,0.0794078,0.743,5.71299,0.00697534,
2,1,0,1,0,67926.2,0.00878882,0.00847181,0.2052,35,0.000309485,10,1.73842e-06,-3.68782,0.0978278,0.6031,4.79417,0.00847181,
2,1,0,1,0,67926.5,0.010287,0.00998395,0.212073,35,0.000376244,10,2.11733e-06,-3.67351,0.125283,0.470933,3.84817,0.00998395,
2,1,0,1,0,67926.8,0.0117852,0.0114696,0.215709,35,0.00044453,10,2.47409e-06,-3.66613,0.138998,0.424468,3.595,0.0114696,
2,1,0,1,0,67927.1,0.0132836,0.0129298,0.222036,35,0.000514348,10,2.8709e-06,-3.65358,0.137008,0.430631,3.75418,0.0129298,
2,1,0,1,0,67927.4,0.0147815,0.0144301,0.227485,35,0.000585983,10,3.28264e-06,-3.64305,0.159219,0.37056,3.29668,0.0144301,
2,1,0,1,0,67927.7,0.0162793,0.0159536,0.233822,35,0.00065942,10,3.7303e-06,-3.63111,0.176203,0.334842,3.03901,0.0159536,
2,1,0,0,0,67928,0.017778,0.0174598,0.237759,35,0.000734106,10,4.15122e-06,-3.62386,0.195807,0.301317,2.79695,0.0174598,
2,1,0,0,0,67928.3,0.0192761,0.0189836,0.241892,35,0.000809945,10,4.59198e-06,-3.61638,0.16774,0.351734,3.32269,0.0189836,
2,1,0,1,0,67928.6,0.0207747,0.0204663,0.247368,35,0.000887469,10,5.06272e-06,-3.60666,0.158644,0.371902,3.57626,0.0204663,
2,1,0,1,0,67928.9,0.0222725,0.0219389,0.251742,35,0.000966637,10,5.52295e-06,-3.59904,0.175302,0.336562,3.31394,0.0219389,
2,1,0,1,0,67929.2,0.0237704,0.023456,0.257574,35,0.00104726,10,6.04167e-06,-3.5891,0.159979,0.3688,3.70456,0.023456,
2,1,0,1,0,67929.5,0.0252689,0.0249887,0.261442,35,0.00112914,10,6.5331e-06,-3.58262,0.17512,0.336911,3.455,0.0249887,
2,1,0,1,0,67929.8,0.0267671,0.0264192,0.266363,35,0.00121269,10,7.03708e-06,-3.57453,0.143939,0.409895,4.27067,0.0264192,
2,1,0,1,0,67930.1,0.0282657,0.0279286,0.272214,35,0.00129791,10,7.60254e-06,-3.56509,0.180172,0.327465,3.48377,0.0279286,
2,1,0,1,0,67930.4,0.0297635,0.029452,0.278258,35,0.00138464,10,8.19523e-06,-3.55555,0.195603,0.301632,3.26562,0.029452,
2,1,0,1,0,67930.7,0.0312613,0.0309543,0.280734,35,0.00147274,10,8.68992e-06,-3.55171,0.207437,0.284424,3.12898,0.0309543,
2,1,0,0,0,67931,0.0327599,0.0324243,0.28711,35,0.00156216,10,9.30934e-06,-3.54195,0.198798,0.296784,3.32875,0.0324243,
2,1,0,0,0,67931.3,0.034258,0.0339099,0.293142,35,0.00165316,10,9.94042e-06,-3.53292,0.209472,0.28166,3.21372,0.0339099,
2,1,0,1,0,67931.6,0.0357567,0.0354278,0.296425,35,0.00174582,10,1.05017e-05,-3.52809,0.217548,0.271204,3.14693,0.0354278,
2,1,0,1,0,67931.9,0.0372545,0.0369088,0.302393,35,0.00183985,10,1.1161e-05,-3.51943,0.216866,0.272057,3.22819,0.0369088,
2,1,0,1,0,67932.2,0.0387524,0.0384502,0.306786,35,0.00193523,10,1.1796e-05,-3.51316,0.182204,0.323813,3.8996,0.0384502,
2,1,0,1,0,67932.5,0.0402508,0.0399245,0.312852,35,0.00203233,10,1.24905e-05,-3.50466,0.214396,0.275191,3.36534,0.0399245,
2,1,0,1,0,67932.8,0.041749,0.0414367,0.318005,35,0.00213107,10,1.31771e-05,-3.49757,0.244839,0.240974,2.98205,0.0414367,
2,1,0,1,0,67933.1,0.0432472,0.0429594,0.323325,35,0.00223113,10,1.38898e-05,-3.49036,0.250632,0.235405,2.96264,0.0429594,
2,1,0,1,0,67933.4,0.0447456,0.0443912,0.32729,35,0.00233238,10,1.45288e-05,-3.48507,0.252433,0.233725,2.9802,0.0443912,
2,1,0,1,0,67933.7,0.0462435,0.045905,0.332513,35,0.0024352,10,1.5264e-05,-3.47819,0.224139,0.26323,3.40265,0.045905,
2,1,0,1,0,67934,0.0477413,0.0474095,0.337086,35,0.00253941,10,1.59811e-05,-3.47226,0.237168,0.248768,3.26561,0.0474095,
2,1,0,0,0,67934.3,0.0492399,0.0489359,0.340164,35,0.00264508,10,1.66462e-05,-3.46831,0.251999,0.234128,3.11866,0.0489359,
2,1,0,0,0,67934.6,0.0507381,0.0503727,0.343523,35,0.00275185,10,1.73042e-05,-3.46404,0.278351,0.211962,2.85662,0.0503727,
2,1,0,1,0,67934.9,0.0522367,0.0518607,0.349043,35,0.00286006,10,1.81016e-05,-3.45712,0.243866,0.241936,3.29575,0.0518607,
2,1,0,1,0,67935.2,0.0537345,0.0533938,0.354626,35,0.00296972,10,1.89348e-05,-3.45023,0.262171,0.225044,3.10664,0.0533938,
2,1,0,1,0,67935.5,0.0552323,0.0549351,0.357149,35,0.00308077,10,1.962e-05,-3.44715,0.363171,0.162458,2.26359,0.0549351,
2,1,0,1,0,67935.8,0.0567309,0.0564064,0.360715,35,0.00319288,10,2.03466e-05,-3.44284,0.370614,0.159195,2.24437,0.05640642,
2,1,0,1,0,67936.1,0.0582291,0.057908,0.366561,35,0.00330595,10,2.12268e-05,-3.43585,0.312333,0.188901,2.70156,0.057908,
2,1,0,1,0,67936.4,0.0597277,0.0593772,0.370191,35,0.00342047,10,2.19809e-05,-3.43157,0.301739,0.195533,2.82179,0.0593772,
2,1,0,1,0,67936.7,0.0612255,0.0608962,0.372966,35,0.0035363,10,2.27122e-05,-3.42833,0.476164,0.123907,1.80188,0.0608962,
2,1,0,1,0,67937,0.0627233,0.0623569,0.376935,35,0.00365309,10,2.35045e-05,-3.42373,0.371854,0.158665,2.33798,0.0623569,
2,1,0,0,0,67937.3,0.0642218,0.0639099,0.380864,35,0.00377066,10,2.4341e-05,-3.41923,0.341859,0.172586,2.57133,0.0639099,
2,1,0,0,0,67937.6,0.06572,0.0654188,0.385088,35,0.00388953,10,2.5192e-05,-3.41444,0.357419,0.165072,2.47222,0.0654188,
2,1,0,1,0,67937.9,0.0672187,0.0669016,0.388819,35,0.0040097,10,2.60126e-05,-3.41025,0.373047,0.158157,2.39596,0.0669016,
2,1,0,1,0,67938.2,0.0687165,0.0683765,0.391743,35,0.00413067,10,2.6786e-05,-3.407,0.416785,0.14156,2.15799,0.0683765,
2,1,0,1,0,67938.5,0.0702144,0.0699222,0.39228,35,0.00425226,10,2.74291e-05,-3.4064,0.435627,0.135437,2.08203,0.0699222,
2,1,0,1,0,67938.8,0.0717128,0.0713423,0.396516,35,0.00437503,10,2.82884e-05,-3.40174,0.340994,0.173024,2.67857,0.0713423,
2,1,0,1,0,67939.1,0.073211,0.072865,0.400305,35,0.00449873,10,2.91682e-05,-3.39761,0.446556,0.132122,2.06464,0.072865,
2,1,0,1,0,67939.4,0.0747092,0.0744026,0.402047,35,0.00462331,10,2.99134e-05,-3.39572,0.608839,0.0969058,1.52505,0.0744026,
2,1,0,1,0,67939.7,0.0762076,0.075863,0.403418,35,0.00474861,10,3.06045e-05,-3.39424,0.508395,0.116051,1.83524,0.075863,
2,1,0,1,0,67940,0.0777054,0.07736,0.408238,35,0.00487466,10,3.15813e-05,-3.38909,0.433001,0.136258,2.17405,0.07736,
2,1,0,1,0,67940.3,0.0792033,0.0788866,0.413796,35,0.00500183,10,3.2643e-05,-3.38321,0.473683,0.124556,1.99799,0.0788866,
2,1,0,0,0,67940.6,0.0807019,0.0803971,0.414249,35,0.00513014,10,3.33044e-05,-3.38274,0.588581,0.100241,1.61904,0.0803971,
2,1,0,0,0,67940.9,0.0822001,0.0818965,0.415025,35,0.00525893,10,3.39891e-05,-3.38193,0.529657,0.111393,1.81228,0.0818965,
2,1,0,1,0,67941.2,0.0836986,0.0833772,0.420667,35,0.00538848,10,3.5074e-05,-3.37606,0.439719,0.134176,2.20188,0.08337725,
2,1,0,1,0,67941.5,0.0851965,0.0848548,0.423747,35,0.00551927,10,3.5957e-05,-3.37289,0.353345,0.166975,2.76313,0.0848548,
2,1,0,1,0,67941.8,0.0866944,0.0863647,0.427433,35,0.00565112,10,3.69151e-05,-3.36913,0.470225,0.125472,2.09259,0.0863647,
2,1,0,1,0,67942.1,0.0881929,0.0878485,0.431211,35,0.00578423,10,3.78813e-05,-3.36531,0.354231,0.166558,2.80777,0.0878485,
2,1,0,1,0,67942.4,0.0896911,0.0893829,0.436083,35,0.00591827,10,3.89784e-05,-3.36043,0.295366,0.199752,3.40665,0.0893829,
2,1,0,1,0,67942.7,0.0911897,0.0908476,0.441303,35,0.00605404,10,4.00913e-05,-3.35526,0.293558,0.200983,3.4615,0.0908476,
2,1,0,1,0,67943,0.0926875,0.0923617,0.448476,35,0.00619159,10,4.1422e-05,-3.34826,0.27861,0.211765,3.69358,0.0923617,
2,1,0,1,0,67943.3,0.0941853,0.0938651,0.452937,35,0.00633068,10,4.2515e-05,-3.34396,0.271364,0.21742,3.84882,0.0938651,
2,1,0,0,0,67943.6,0.0956838,0.0953403,0.456356,35,0.00647125,10,4.35092e-05,-3.3407,0.259548,0.227319,4.07413,0.0953403,
2,1,0,0,0,67943.9,0.097182,0.0967814,0.464208,35,0.0066139,10,4.49267e-05,-3.33329,0.208434,0.283063,5.14006,0.0967814,
2,1,0,1,0,67944.2,0.0986807,0.098363,0.471691,35,0.00675873,10,4.6397e-05,-3.32634,0.226203,0.260828,4.81621,0.098363,
2,1,0,1,0,67944.5,0.100179,0.0998544,0.478883,35,0.00690575,10,4.78186e-05,-3.31977,0.242684,0.243115,4.55485,0.0998544,
2,1,0,1,0,67944.8,0.101676,0.101345,0.485479,35,0.00705487,10,4.92009e-05,-3.31383,0.206903,0.285158,5.42967,0.101345,
2,1,0,1,0,67945.1,0.103175,0.102848,0.496441,35,0.0072062,10,5.1058e-05,-3.30413,0.216065,0.273066,5.27336,0.102848,
2,1,0,1,0,67945.4,0.104673,0.10435,0.504552,35,0.00736036,10,5.26498e-05,-3.29709,0.202917,0.290759,5.69696,0.10435,
2,1,0,1,0,67945.7,0.106171,0.10584,0.511515,35,0.00751684,10,5.4139e-05,-3.29114,0.247611,0.238277,4.74212,0.10584,
2,1,0,1,0,67946,0.10767,0.10735,0.518734,35,0.00767558,10,5.56859e-05,-3.28506,0.274858,0.214657,4.33503,0.10735,
2,1,0,1,0,67946.3,0.109167,0.108864,0.524489,35,0.00783622,10,5.70982e-05,-3.28026,0.253741,0.232521,4.77812,0.1088644,
2,1,0,1,0,67946.6,0.110665,0.110312,0.53169,35,0.007999,10,5.86517e-05,-3.27434,0.24751,0.238374,4.95395,0.110312,
2,1,0,0,0,67946.9,0.112164,0.111884,0.539822,35,0.00816408,10,6.03973e-05,-3.26775,0.34339,0.171816,3.60702,0.1118837,
2,1,0,0,0,67947.2,0.113662,0.11333,0.545601,35,0.00833097,10,6.1833e-05,-3.26312,0.365516,0.161416,3.42675,0.11333,
2,1,0,1,0,67947.5,0.115161,0.114787,0.550088,35,0.00849896,10,6.31432e-05,-3.25957,0.391004,0.150894,3.23175,0.114787,
2,1,0,1,0,67947.8,0.116658,0.116382,0.555562,35,0.00866867,10,6.46575e-05,-3.25527,0.417686,0.141254,3.04776,0.116382,
2,1,0,1,0,67948.1,0.118156,0.117847,0.558891,35,0.00883999,10,6.58637e-05,-3.25267,0.455859,0.129426,2.81877,0.117847,
2,1,0,1,0,67948.4,0.119655,0.119331,0.562721,35,0.00901237,10,6.715e-05,-3.24971,0.758071,0.0778291,1.7088,0.119331,
2,1,0,1,0,67948.7,0.121153,0.120806,0.564382,35,0.00918549,10,6.81807e-05,-3.24843,0.633888,0.0930764,2.05708,0.120806,
2,1,0,1,0,67949,0.122652,0.122322,0.568726,35,0.00935966,10,6.95674e-05,-3.2451,0.587153,0.100485,2.22547,0.1223216,
2,1,0,1,0,67949.3,0.124149,0.123866,0.571303,35,0.00953475,10,7.07651e-05,-3.24313,0.869345,0.0678672,1.51281,0.123866,
2,1,0,1,0,67949.6,0.125647,0.125337,0.574241,35,0.00971056,10,7.19736e-05,-3.24091,1.4787,0.0398998,0.891132,0.125337,
2,1,0,0,0,67949.9,0.127146,0.126827,0.573451,35,0.00988689,10,7.2729e-05,-3.2415,2.15607,0.0273646,0.613446,0.126827,
2,1,0,0,0,67950.2,0.128644,0.128306,0.575302,35,0.0100633,10,7.38148e-05,-3.2401,2.35458,0.0250576,0.562865,0.128306,
2,1,0,1,0,67950.5,0.130143,0.129767,0.577257,35,0.01024,10,7.49089e-05,-3.23863,-1.61976,-0.0364251,-0.816533,0.129767,
2,1,0,1,0,67950.8,0.13164,0.131346,0.573795,35,0.0104168,10,7.53659e-05,-3.24124,-0.559249,-0.105499,-2.35229,0.1313464,
2,1,0,1,0,67951.1,0.133138,0.132819,0.571038,35,0.0105926,10,7.58447e-05,-3.24334,-0.391385,-0.150747,-3.34725,0.132819,
2,1,0,1,0,67951.4,0.134637,0.134319,0.564127,35,0.0107667,10,7.57728e-05,-3.24862,-0.287057,-0.205534,-4.5227,0.134319,
2,1,0,1,0,67951.7,0.136135,0.135819,0.557363,35,0.010939,10,7.57006e-05,-3.25386,-0.214928,-0.274511,-5.94075,0.1358192,
2,1,0,1,0,67952,0.137633,0.1373,0.546985,35,0.0111087,10,7.51008e-05,-3.26202,-0.15589,-0.378473,-8.03289,0.1373,
2,1,0,1,0,67952.3,0.139132,0.138845,0.535206,35,0.0112748,10,7.43105e-05,-3.27148,-0.13213,-0.446532,-9.25955,0.138845,
2,1,0,1,0,67952.6,0.140629,0.140313,0.520431,35,0.0114366,10,7.30234e-05,-3.28364,-0.109723,-0.537716,-10.8232,0.140313,
2,1,0,1,0,67952.9,0.142127,0.141793,0.499994,35,0.0115936,10,7.08958e-05,-3.30104,-0.0974483,-0.605449,-11.7872,0.141793,
2,1,0,0,0,67953.2,0.143626,0.143315,0.482438,35,0.0117454,10,6.91407e-05,-3.31656,-0.0873805,-0.675208,-12.695,0.143315,
2,1,0,0,0,67953.5,0.145124,0.144791,0.462334,35,0.0118912,10,6.69419e-05,-3.33504,-0.0777896,-0.758456,-13.6901,0.144791,
2,1,0,1,0,67953.8,0.146623,0.146268,0.441264,35,0.0120308,10,6.45427e-05,-3.3553,-0.0790624,-0.746246,-12.8868,0.146268,
2,1,0,1,0,67954.1,0.14812,0.147801,0.423389,35,0.0121645,10,6.25772e-05,-3.37326,-0.080659,-0.731475,-12.0787,0.147801,
2,1,0,1,0,67954.4,0.149618,0.14928,0.405022,35,0.0122927,10,6.04615e-05,-3.39252,-0.0843069,-0.699824,-11.0996,0.14928,
2,1,0,1,0,67954.7,0.151117,0.15082,0.389391,35,0.0124159,10,5.87278e-05,-3.40961,-0.0897806,-0.657157,-10.0152,0.1508197,
2,1,0,1,0,67955,0.152615,0.152285,0.373259,35,0.0125344,10,5.68418e-05,-3.42799,-0.0997812,-0.591294,-8.6863,0.152285,
2,1,0,1,0,67955.3,0.154114,0.153777,0.363252,35,0.0126489,10,5.58597e-05,-3.43979,-0.116658,-0.505751,-7.18411,0.1537766,
2,1,0,1,0,67955.6,0.155612,0.15528,0.353867,35,0.0127601,10,5.49485e-05,-3.45116,-0.131917,-0.44725,-6.19345,0.15528,
2,1,0,1,0,67955.9,0.157109,0.156773,0.344665,35,0.0128687,10,5.40341e-05,-3.4626,-0.136198,-0.433194,-5.83192,0.156773,
2,1,0,0,0,67956.2,0.158608,0.158304,0.337357,35,0.0129747,10,5.34049e-05,-3.47191,-0.179969,-0.327835,-4.34446,0.158304,
2,1,0,0,0,67956.5,0.160106,0.159766,0.331678,35,0.0130786,10,5.2991e-05,-3.47928,-0.217736,-0.270971,-3.5179,0.159766,
2,1,0,1,0,67956.8,0.161605,0.161296,0.32547,35,0.013181,10,5.24969e-05,-3.48749,-0.245937,-0.239899,-3.05684,0.161296,
2,1,0,1,0,67957.1,0.163102,0.162752,0.32218,35,0.013282,10,5.24353e-05,-3.4919,-0.261735,-0.225419,-2.82959,0.162752,
2,1,0,1,0,67957.4,0.1646,0.164269,0.318512,35,0.0133818,10,5.23215e-05,-3.49687,-0.298285,-0.197797,-2.45516,0.164269,
2,1,0,1,0,67957.7,0.166099,0.165782,0.314109,35,0.0134803,10,5.20736e-05,-3.50292,-0.428321,-0.137747,-1.69388,0.165782,
2,1,0,1,0,67958,0.167597,0.167284,0.312141,35,0.0135781,10,5.2216e-05,-3.50565,-0.494724,-0.119258,-1.44871,0.167284,
2,1,0,1,0,67958.3,0.169095,0.168783,0.309289,35,0.0136752,10,5.22028e-05,-3.50963,-0.486591,-0.121252,-1.46559,0.168783,
2,1,0,1,0,67958.6,0.170594,0.170265,0.306937,35,0.0137716,10,5.22605e-05,-3.51295,-0.459897,-0.12829,-1.54099,0.170265,
2,1,0,1,0,67958.9,0.172091,0.171782,0.304852,35,0.0138672,10,5.23681e-05,-3.51591,-0.566364,-0.104173,-1.24287,0.171782,
2,1,0,1,0,67959.2,0.173589,0.173269,0.304377,35,0.0139624,10,5.27392e-05,-3.51659,-0.784136,-0.075242,-0.891874,0.173269,
2,1,0,0,0,67959.5,0.175088,0.174767,0.302404,35,0.0140572,10,5.28503e-05,-3.51941,-0.621848,-0.0948786,-1.1195,0.174767,
2,1,0,0,0,67959.8,0.176586,0.176314,0.300596,35,0.0141515,10,5.29993e-05,-3.52202,-0.597051,-0.098819,-1.16045,0.176314,
2,1,0,1,0,67960.1,0.178085,0.177753,0.299055,35,0.0142454,10,5.3158e-05,-3.52425,-0.795318,-0.0741841,-0.867739,0.177753,
2,1,0,1,0,67960.4,0.179582,0.179248,0.297875,35,0.0143388,10,5.33935e-05,-3.52597,-1.47545,-0.0399879,-0.466222,0.179248,
2,1,0,1,0,67960.7,0.18108,0.180746,0.297594,35,0.0144321,10,5.37889e-05,-3.52638,-1.14521,-0.0515188,-0.600789,0.180746,
2,1,0,1,0,67961,0.182579,0.182238,0.29716,35,0.0145252,10,5.4154e-05,-3.52701,-0.639389,-0.0922755,-1.06998,0.1822385,
2,1,0,1,0,67961.3,0.184077,0.183751,0.296309,35,0.0146179,10,5.4447e-05,-3.52826,-1.0572,-0.0558081,-0.646355,0.183751,
2,1,0,1,0,67961.6,0.185576,0.185284,0.295005,35,0.0147102,10,5.46599e-05,-3.53017,-1.18733,-0.0496914,-0.572539,0.1852845,
2,1,0,1,0,67961.9,0.187074,0.186749,0.294512,35,0.0148025,10,5.5e-05,-3.5309,-2.11251,-0.0279288,-0.320714,0.186749,
2,1,0,1,0,67962.2,0.188571,0.188242,0.295145,35,0.0148945,10,5.55588e-05,-3.52996,-5.56213,-0.0106074,-0.121834,0.188242,
2,1,0,0,0,67962.5,0.19007,0.189781,0.294221,35,0.0149865,10,5.58377e-05,-3.53133,-0.807483,-0.0730666,-0.836944,0.189781,
2,1,0,0,0,67962.8,0.191568,0.191273,0.292742,35,0.0150782,10,5.59936e-05,-3.53352,-1.69106,-0.0348893,-0.398737,0.191273,
2,1,0,1,0,67963.1,0.193067,0.192769,0.292856,35,0.0151696,10,5.64535e-05,-3.53335,-15.6219,-0.00377675,-0.0429531,0.192769,
2,1,0,1,0,67963.4,0.194564,0.194227,0.291893,35,0.0152611,10,5.66934e-05,-3.53478,-3.12849,-0.0188589,-0.21465,0.194227,
2,1,0,1,0,67963.7,0.196062,0.195763,0.290919,35,0.0153524,10,5.69512e-05,-3.53623,-1.23852,-0.0476375,-0.541973,0.195763,
2,1,0,1,0,67964,0.197561,0.197237,0.288986,35,0.0154435,10,5.69987e-05,-3.53912,-1.30557,-0.0451911,-0.51285,0.197237,
2,1,0,1,0,67964.3,0.199059,0.19875,0.290526,35,0.0155342,10,5.7742e-05,-3.53682,-9.24539,-0.00638156,-0.0722927,0.19875,
2,1,0,1,0,67964.6,0.200557,0.200248,0.290302,35,0.015625,10,5.81326e-05,-3.53715,-381.462,-0.000154668,-0.00174614,0.200248,
2,1,0,1,0,67964.9,0.202056,0.20175,0.289285,35,0.0157157,10,5.83633e-05,-3.53867,-1.19649,-0.0493111,-0.556121,0.20175,
2,1,0,1,0,67965.2,0.203553,0.203275,0.288128,35,0.0158062,10,5.85692e-05,-3.54041,-1.48,-0.0398649,-0.450147,0.203275,
2,1,0,1,0,67965.5,0.205051,0.204699,0.288197,35,0.0158965,10,5.89936e-05,-3.54031,1.25549,0.0469936,0.533744,0.204699,
2,1,0,0,0,67965.8,0.20655,0.206193,0.287711,35,0.0159867,10,5.9324e-05,-3.54104,36.1376,0.00163265,0.0183883,0.206193,
2,1,0,0,0,67966.1,0.208048,0.20773,0.2881,35,0.0160772,10,5.98468e-05,-3.54046,-1.63739,-0.036033,-0.404679,0.20773,
2,1,0,1,0,67966.4,0.209547,0.209237,0.288129,35,0.0161674,10,6.02871e-05,-3.54041,-2.51211,-0.0234862,-0.26411,0.209237,
2,1,0,1,0,67966.7,0.211044,0.21072,0.287968,35,0.0162571,10,6.06807e-05,-3.54066,-2.24626,-0.0262659,-0.294701,0.21072,
2,1,0,1,0,67967,0.212542,0.212209,0.286509,35,0.016347,10,6.08e-05,-3.54286,-7.00737,-0.0084197,-0.094225,0.212209,
2,1,0,1,0,67967.3,0.214041,0.21372,0.285976,35,0.0164368,10,6.11188e-05,-3.54367,-1.43924,-0.0409939,-0.458577,0.21372,
2,1,0,1,0,67967.6,0.215539,0.215216,0.286439,35,0.0165263,10,6.16462e-05,-3.54297,-1.03244,-0.0571461,-0.638777,0.215216,
2,1,0,1,0,67967.9,0.217038,0.216721,0.284869,35,0.0166156,10,6.17371e-05,-3.54535,-1.9885,-0.0296706,-0.330903,0.216721,
2,1,0,1,0,67968.2,0.218535,0.218201,0.284709,35,0.0167049,10,6.21239e-05,-3.5456,2.68769,0.021952,0.243566,0.218201,
2,1,0,1,0,67968.4,0.220033,0.219753,0.285428,35,0.0167942,10,6.27236e-05,-3.5445,-4.75198,-0.0124159,-0.138267,0.219753,
2,1,0,0,0,67968.7,0.221532,0.221234,0.285262,35,0.0168834,10,6.31097e-05,-3.54476,-1.54058,-0.0382972,-0.425857,0.221234,
2,1,0,0,0,67969,0.22303,0.222712,0.282419,35,0.0169724,10,6.28982e-05,-3.54911,-2.20482,-0.0267596,-0.296457,0.222712,
2,1,0,1,0,67969.3,0.224529,0.224223,0.283661,35,0.0170612,10,6.36032e-05,-3.5472,-1.65261,-0.035701,-0.395171,0.224223,
2,1,0,1,0,67969.6,0.226026,0.225708,0.283655,35,0.01715,10,6.40232e-05,-3.54721,-2.19063,-0.0269329,-0.297518,0.225708,
2,1,0,1,0,67969.9,0.227524,0.227251,0.282877,35,0.0172386,10,6.42843e-05,-3.5484,-0.92269,-0.0639435,-0.705479,0.227251,
2,1,0,1,0,67970.2,0.229023,0.228739,0.282396,35,0.0173272,10,6.45951e-05,-3.54914,-2.24603,-0.0262685,-0.29007,0.228739,
2,1,0,1,0,67970.5,0.230521,0.230188,0.282955,35,0.0174155,10,6.51329e-05,-3.54828,-6.30812,-0.00935302,-0.103171,0.230188,
2,1,0,1,0,67970.8,0.232019,0.231712,0.282198,35,0.0175039,10,6.53887e-05,-3.54945,5.16921,0.0114137,0.125654,0.231712,
2,1,0,1,0,67971.1,0.233518,0.233201,0.282264,35,0.0175924,10,6.58243e-05,-3.54934,-1.32557,-0.0445092,-0.489021,0.233201,
2,1,0,1,0,67971.4,0.235015,0.234714,0.282292,35,0.0176806,10,6.62579e-05,-3.5493,-2.35169,-0.0250884,-0.276069,0.234714,
2,1,0,1,0,67971.7,0.236513,0.236189,0.281727,35,0.0177684,10,6.65409e-05,-3.55017,-25.2191,-0.0023395,-0.0256976,0.236189,
2,1,0,0,0,67972,0.238012,0.237682,0.281317,35,0.0178564,10,6.68639e-05,-3.5508,-4.4179,-0.0133548,-0.146324,0.237682,
2,1,0,0,0,67972.3,0.23951,0.239214,0.28207,35,0.0179445,10,6.74752e-05,-3.54964,-12.1427,-0.00485891,-0.0532418,0.239214,
2,1,0,1,0,67972.6,0.241009,0.24073,0.279155,35,0.0180323,10,6.72008e-05,-3.55416,-2.9102,-0.0202735,-0.222748,0.24073,
2,1,0,1,0,67972.9,0.242506,0.242171,0.280085,35,0.0181199,10,6.78284e-05,-3.55271,-1.3413,-0.0439873,-0.482122,0.242171,
2,1,0,1,0,67973.2,0.244004,0.243676,0.279691,35,0.0182076,10,6.8154e-05,-3.55332,3.61621,0.0163154,0.178082,0.243676,
2,1,0,1,0,67973.5,0.245503,0.245203,0.279704,35,0.0182952,10,6.85845e-05,-3.5533,6.72711,0.00877048,0.0958258,0.245203,
2,1,0,1,0,67973.8,0.247001,0.246677,0.279883,35,0.0183827,10,6.90407e-05,-3.55302,-2.43135,-0.0242663,-0.264349,0.246677,
2,1,0,1,0,67974.1,0.2485,0.248196,0.27824,35,0.0184701,10,6.90582e-05,-3.55558,-2.37736,-0.0248174,-0.270111,0.248196,
2,1,0,1,0,67974.4,0.249997,0.249683,0.278539,35,0.0185573,10,6.95466e-05,-3.55511,5.13479,0.0114902,0.125118,0.249683,
2,1,0,1,0,67974.7,0.251495,0.251213,0.279689,35,0.0186446,10,7.02617e-05,-3.55332,-12.3229,-0.00478783,-0.0520999,0.251213,
2,1,0,0,0,67975,0.252994,0.252693,0.277362,35,0.018732,10,7.00874e-05,-3.55695,-1.23775,-0.0476671,-0.517952,0.252693,
2,1,0,0,0,67975.3,0.254492,0.254194,0.277283,35,0.018819,10,7.04837e-05,-3.55708,-1.79866,-0.0328022,-0.356251,0.2541945,
2,1,0,1,0,67975.6,0.255991,0.255661,0.277301,35,0.0189057,10,7.08952e-05,-3.55705,-1.80459,-0.0326944,-0.356231,0.255661,
2,1,0,1,0,67975.9,0.257488,0.257139,0.277694,35,0.0189925,10,7.14061e-05,-3.55643,-2.30652,-0.0255797,-0.276648,0.257139,
2,1,0,1,0,67976.2,0.258986,0.258659,0.277238,35,0.0190793,10,7.17099e-05,-3.55715,-1.49501,-0.0394646,-0.426081,0.258659,
2,1,0,1,0,67976.5,0.260485,0.260168,0.276838,35,0.019166,10,7.20243e-05,-3.55777,-1.79811,-0.0328122,-0.354542,0.260168,
2,1,0,1,0,67976.8,0.261983,0.261654,0.276318,35,0.0192523,10,7.22999e-05,-3.55859,-2.25188,-0.0262004,-0.283314,0.261654,
2,1,0,1,0,67977.1,0.263481,0.263142,0.27702,35,0.0193387,10,7.28957e-05,-3.55749,29.9901,0.00196731,0.0211542,0.2631422,
2,1,0,1,0,67977.4,0.26498,0.264652,0.275346,35,0.0194251,10,7.28711e-05,-3.56012,-2.4207,-0.0243731,-0.262512,0.264652,
2,1,0,1,0,67977.7,0.266477,0.266146,0.275158,35,0.0195112,10,7.32323e-05,-3.56042,-9.46862,-0.00623111,-0.0668404,0.2661463,
2,1,0,0,0,67978,0.267976,0.267673,0.274488,35,0.0195973,10,7.34732e-05,-3.56148,-1.94716,-0.0303005,-0.325528,0.267673,
2,1,0,0,0,67978.3,0.269474,0.269178,0.275641,35,0.0196833,10,7.41965e-05,-3.55966,4.96573,0.0118814,0.127571,0.269178,
2,1,0,0,0,67978.6,0.270972,0.270699,0.275416,35,0.0197694,10,7.45547e-05,-3.56001,-2.13874,-0.0275863,-0.294987,0.270699,
2,1,0,1,0,67978.9,0.27247,0.272165,0.27436,35,0.0198554,10,7.4671e-05,-3.56168,-1.05759,-0.0557874,-0.596824,0.272165,
2,1,0,1,0,67979.2,0.273968,0.273638,0.273302,35,0.019941,10,7.47858e-05,-3.56336,9.69506,0.00608558,0.0650851,0.273638,
2,1,0,1,0,67979.5,0.275466,0.27519,0.274862,35,0.0200266,10,7.56395e-05,-3.56088,-2.80949,-0.0210002,-0.224182,0.27519,
2,1,0,1,0,67979.8,0.276965,0.276645,0.27319,35,0.0201123,10,7.55766e-05,-3.56354,-1.29114,-0.0456959,-0.488258,0.276645,
2,1,0,1,0,67980.1,0.278463,0.278129,0.272702,35,0.0201977,10,7.58464e-05,-3.56431,-0.955369,-0.0617562,-0.656367,0.278129,
2,1,0,1,0,67980.4,0.279962,0.279645,0.273274,35,0.0202829,10,7.64196e-05,-3.5634,-2.24,-0.0263393,-0.280101,0.279645,
2,1,0,1,0,67980.7,0.281459,0.281107,0.271753,35,0.020368,10,7.63917e-05,-3.56582,-58.2513,-0.00101285,-0.0107798,0.281107,
2,1,0,1,0,67981,0.282957,0.282646,0.272543,35,0.0204531,10,7.70332e-05,-3.56457,-317.655,-0.000185736,-0.00197436,0.282646,
2,1,0,0,0,67981.3,0.284456,0.284173,0.27129,35,0.0205382,10,7.70934e-05,-3.56657,-4.16612,-0.0141619,-0.150836,0.284173,
2,1,0,0,0,67981.6,0.285954,0.285628,0.271801,35,0.0206231,10,7.76341e-05,-3.56575,-2.31387,-0.0254984,-0.270214,0.285628,
2,1,0,0,0,67981.9,0.287452,0.287152,0.271288,35,0.0207079,10,7.79009e-05,-3.56657,-11.0214,-0.00535323,-0.0566189,0.287152,
2,1,0,1,0,67982.2,0.28895,0.288632,0.271571,35,0.0207927,10,7.83843e-05,-3.56612,14.7893,0.00398936,0.0422213,0.288632,
2,1,0,1,0,67982.5,0.290448,0.290114,0.269953,35,0.0208773,10,7.83173e-05,-3.56871,-2.68442,-0.0219787,-0.231948,0.290114,
2,1,0,1,0,67982.8,0.291947,0.291585,0.269525,35,0.020962,10,7.85896e-05,-3.5694,-2.96874,-0.0198738,-0.209076,0.291585,
2,1,0,1,0,67983.1,0.293445,0.293096,0.267789,35,0.0210463,10,7.84878e-05,-3.57221,-1.33767,-0.0441065,-0.46522,0.293096,
2,1,0,1,0,67983.4,0.294943,0.294676,0.268796,35,0.0211304,10,7.92076e-05,-3.57058,-1.44172,-0.0409232,-0.429906,0.294676,
2,1,0,1,0,67983.7,0.296442,0.296146,0.269421,35,0.0212145,10,7.97881e-05,-3.56957,5.93739,0.00993703,0.104093,0.296146,
2,1,0,1,0,67984,0.297939,0.297624,0.268688,35,0.0212987,10,7.99682e-05,-3.57075,-16.1833,-0.00364573,-0.0381094,0.297624,
2,1,0,1,0,67984.3,0.299437,0.299132,0.268079,35,0.0213826,10,8.01911e-05,-3.57174,-0.00277842,-21.2351,-117.902,0.299132,
2,1,0,1,0,67984.5,0.299737,0.299434,0.13465,35,0.0214224,10,4.03188e-05,-3.87079,0.00102488,57.568,214.696,0.299434,
2,1,0,1,0,67984.8,0.29824,0.297898,0.028,35,0.021437,10,8.34114e-06,-4.55284,0.00175801,33.5607,68.9594,0.297898,
2,1,0,0,0,67985.1,0.296741,0.296434,0.00790101,35,0.0214386,10,2.34212e-06,-5.10232,0.00595447,9.90853,12.2362,0.296434,
2,1,0,0,0,67985.4,0.295243,0.294933,-0.00510231,35,0.0214352,10,-1.50484e-06,-5.29223,-0.0440996,-1.33788,7.43115,0.2949332,
2,0,0,1,0,67985.7,0.293744,0.293392,-0.0143083,35,0.0214288,10,-4.19794e-06,-4.84441,-0.00325532,-18.1242,5.72107,0.293392,
2,0,0,1,0,67986,0.292246,0.29194,-0.0217948,35,0.0214201,10,-6.36278e-06,-4.66165,-0.00865781,-6.81466,5.24714,0.29194,
2,0,0,1,0,67986.3,0.290749,0.290455,-0.0278473,35,0.021409,10,-8.08838e-06,-4.55522,-0.0128828,-4.57973,4.69314,0.290455,
2,0,0,1,0,67986.6,0.28925,0.288898,-0.0345158,35,0.0213958,10,-9.97157e-06,-4.46198,-0.0200742,-2.9391,3.95571,0.288898,
2,0,0,1,0,67986.9,0.287752,0.287463,-0.0399692,35,0.0213811,10,-1.14897e-05,-4.39827,-0.0279174,-2.11337,3.31469,0.287463,
2,0,0,1,0,67987.2,0.286253,0.285963,-0.0448573,35,0.0213649,10,-1.28275e-05,-4.34817,-0.0315369,-1.87083,3.30983,0.285963,
2,0,0,1,0,67987.5,0.284755,0.284444,-0.048965,35,0.0213472,10,-1.39278e-05,-4.31011,-0.03389,-1.74093,3.33383,0.284444,
2,0,0,1,0,67987.8,0.283257,0.282922,-0.0548355,35,0.0213278,10,-1.55142e-05,-4.26094,-0.0404419,-1.45888,3.0558,0.282922,
2,0,0,0,0,67988.1,0.281759,0.281372,-0.0592107,35,0.0213074,10,-1.66602e-05,-4.2276,-0.0581447,-1.01471,2.29142,0.281372,
2,0,0,0,0,67988.4,0.280261,0.279937,-0.0615266,35,0.0212857,10,-1.72236e-05,-4.21094,-0.0519394,-1.13594,2.72618,0.279937,
2,0,0,0,0,67988.7,0.278763,0.278411,-0.0660068,35,0.021263,10,-1.8377e-05,-4.18041,-0.0596867,-0.988494,2.52507,0.278411,
2,0,0,1,0,67989,0.277264,0.276933,-0.0698451,35,0.0212389,10,-1.93424e-05,-4.15586,-0.0644427,-0.915542,2.47538,0.276933,
2,0,0,1,0,67989.3,0.275766,0.27546,-0.0729025,35,0.0212137,10,-2.00817e-05,-4.13726,-0.0794955,-0.74218,2.10663,0.27546,
2,0,0,1,0,67989.6,0.274269,0.273933,-0.0761978,35,0.0211875,10,-2.08731e-05,-4.11806,-0.0833877,-0.707538,2.12901,0.273933,
2,0,0,1,0,67989.9,0.27277,0.272438,-0.079334,35,0.0211605,10,-2.16136e-05,-4.10054,-0.0885796,-0.666067,2.08628,0.272438,
2,0,0,1,0,67990.2,0.271272,0.270952,-0.082738,35,0.0211324,10,-2.2418e-05,-4.0823,-0.112674,-0.523636,1.688,0.270952,
2,0,0,1,0,67990.5,0.269773,0.269447,-0.0869002,35,0.0211034,10,-2.3415e-05,-4.06098,-0.0954486,-0.618134,2.0643,0.269447,
2,0,0,1,0,67990.8,0.268275,0.267959,-0.0888048,35,0.0210734,10,-2.37961e-05,-4.05156,-0.0998396,-0.590948,2.03889,0.267959,
2,0,0,1,0,67991.1,0.266778,0.266494,-0.0919656,35,0.0210428,10,-2.45082e-05,-4.03637,-0.11302,-0.522031,1.87847,0.266494,
2,0,0,0,0,67991.4,0.265279,0.264991,-0.0939304,35,0.0210112,10,-2.48907e-05,-4.02719,-0.112558,-0.524174,1.9146,0.264991,
2,0,0,0,0,67991.7,0.263781,0.263479,-0.0973269,35,0.0209789,10,-2.56436e-05,-4.01177,-0.128342,-0.45971,1.74273,0.263479,
2,0,0,1,0,67992,0.262282,0.26199,-0.0986416,35,0.0209457,10,-2.58431e-05,-4.00594,-0.181592,-0.324905,1.27198,0.26199,
2,0,0,1,0,67992.3,0.260784,0.260501,-0.101833,35,0.0209119,10,-2.65276e-05,-3.99211,-0.132728,-0.444518,1.78241,0.260501,
2,0,0,1,0,67992.6,0.259287,0.25895,-0.104507,35,0.0208773,10,-2.7062e-05,-3.98086,-0.137193,-0.430052,1.75554,0.25895,
2,0,0,1,0,67992.9,0.257788,0.257456,-0.108253,35,0.0208418,10,-2.78704e-05,-3.96556,-0.161839,-0.364559,1.51826,0.257456,
2,0,0,1,0,67993.2,0.25629,0.255944,-0.109111,35,0.0208057,10,-2.79264e-05,-3.96213,-0.183573,-0.321399,1.36135,0.255944,
2,0,0,1,0,67993.5,0.254791,0.254482,-0.109365,35,0.020769,10,-2.78314e-05,-3.96112,-0.169546,-0.347988,1.50295,0.2544823,
2,0,0,1,0,67993.8,0.253293,0.252979,-0.112042,35,0.0207318,10,-2.83442e-05,-3.95062,-0.231775,-0.254557,1.12995,0.252979,
2,0,0,1,0,67994.1,0.251795,0.25147,-0.114749,35,0.0206938,10,-2.8856e-05,-3.94025,-0.196517,-0.300228,1.35698,0.25147,
2,0,0,0,0,67994.4,0.250297,0.249993,-0.117427,35,0.0206551,10,-2.93559e-05,-3.93023,-0.219591,-0.268681,1.23427,0.249993,
2,0,0,0,0,67994.7,0.248799,0.248504,-0.120114,35,0.0206157,10,-2.98488e-05,-3.92041,-0.217027,-0.271855,1.26737,0.248504,
2,0,0,0,0,67995,0.247301,0.246983,-0.121138,35,0.0205759,10,-2.99189e-05,-3.91672,-0.207465,-0.284386,1.34747,0.246983,
2,0,0,1,0,67995.3,0.245802,0.2455,-0.124251,35,0.0205355,10,-3.05036e-05,-3.9057,-0.217576,-0.27117,1.30216,0.2455,
2,0,0,1,0,67995.6,0.244304,0.244005,-0.126276,35,0.0204943,10,-3.08119e-05,-3.89868,-0.219553,-0.268727,1.31227,0.244005,
2,0,0,1,0,67995.9,0.242806,0.242479,-0.128897,35,0.0204525,10,-3.12549e-05,-3.88976,-0.372275,-0.158485,0.788031,0.242479,
2,0,0,1,0,67996.2,0.241308,0.241019,-0.128753,35,0.0204106,10,-3.10319e-05,-3.89024,-0.26458,-0.222995,1.12576,0.241019,
2,0,0,1,0,67996.5,0.23981,0.239517,-0.131612,35,0.020368,10,-3.15234e-05,-3.8807,-0.162261,-0.363612,1.85074,0.239517,
2,0,0,1,0,67996.8,0.238311,0.237989,-0.132735,35,0.0203246,10,-3.15895e-05,-3.87701,-0.233865,-0.252282,1.31178,0.237989,
2,0,0,1,0,67997.1,0.236813,0.236467,-0.135152,35,0.0202807,10,-3.1959e-05,-3.86918,-0.251238,-0.234837,1.24065,0.236467,
2,0,0,1,0,67997.4,0.235316,0.234977,-0.136503,35,0.0202363,10,-3.2075e-05,-3.86486,-0.193194,-0.305393,1.63783,0.2349772,
2,0,0,0,0,67997.7,0.233817,0.233458,-0.139201,35,0.0201912,10,-3.24975e-05,-3.85636,-0.226992,-0.259921,1.41268,0.233458,
2,0,0,0,0,67998,0.232319,0.232,-0.140897,35,0.0201455,10,-3.2688e-05,-3.8511,-0.325988,-0.180988,0.997816,0.232,
2,0,0,1,0,67998.3,0.23082,0.230494,-0.142544,35,0.0200992,10,-3.28555e-05,-3.84605,-0.354845,-0.16627,0.923341,0.230494,
2,0,0,1,0,67998.6,0.229322,0.228981,-0.14424,35,0.0200524,10,-3.30282e-05,-3.84092,-0.35296,-0.167158,0.942926,0.228981,
2,0,0,1,0,67998.9,0.227825,0.227537,-0.146084,35,0.0200052,10,-3.32396e-05,-3.8354,-0.339793,-0.173635,0.990868,0.227537,
2,0,0,1,0,67999.2,0.226326,0.225986,-0.147199,35,0.0199575,10,-3.3265e-05,-3.83209,-0.297724,-0.19817,1.14383,0.225986,
2,0,0,1,0,67999.5,0.224828,0.224466,-0.150097,35,0.0199092,10,-3.36917e-05,-3.82363,-0.404815,-0.145746,0.847832,0.224466,
2,0,0,1,0,67999.8,0.223329,0.223014,-0.151607,35,0.0198603,10,-3.38104e-05,-3.81928,-0.283092,-0.208413,1.22516,0.223014,
2,0,0,1,0,68000.1,0.221831,0.221493,-0.153214,35,0.0198112,10,-3.39359e-05,-3.8147,-0.250431,-0.235594,1.40684,0.221493,
2,0,0,1,0,68000.4,0.220333,0.220005,-0.15485,35,0.0197614,10,-3.40678e-05,-3.81009,-0.218518,-0.27,1.62276,0.220005,
2,0,0,0,0,68000.7,0.218835,0.218462,-0.15668,35,0.0197108,10,-3.42285e-05,-3.80499,-0.298662,-0.197548,1.20432,0.218462,
2,0,0,0,0,68001,0.217337,0.216976,-0.158025,35,0.0196599,10,-3.42877e-05,-3.80127,-0.341452,-0.172792,1.06852,0.216976,
2,0,0,0,0,68001.3,0.215839,0.215486,-0.160071,35,0.0196086,10,-3.44932e-05,-3.79569,-0.291307,-0.202535,1.26239,0.215486,
2,0,0,1,0,68001.6,0.21434,0.213989,-0.161278,35,0.0195567,10,-3.45116e-05,-3.79243,-0.231825,-0.254502,1.59793,0.213989,
2,0,0,1,0,68001.9,0.212842,0.212569,-0.164143,35,0.0195043,10,-3.48917e-05,-3.78478,-0.299656,-0.196892,1.25689,0.212569,
2,0,0,1,0,68002.2,0.211344,0.21102,-0.164634,35,0.0194513,10,-3.47412e-05,-3.78348,-0.343608,-0.171707,1.10319,0.21102,
2,0,0,1,0,68002.5,0.209846,0.209556,-0.165421,35,0.0193979,10,-3.46648e-05,-3.78141,-0.44882,-0.131456,0.852969,0.209556,
2,0,0,1,0,68002.8,0.208348,0.207999,-0.168323,35,0.019344,10,-3.50109e-05,-3.77386,-0.372114,-0.158554,1.04108,0.207999,
2,0,0,1,0,68003.1,0.206849,0.206521,-0.17258,35,0.0192896,10,-3.56415e-05,-3.76301,-0.412197,-0.143136,0.947185,0.206521,
2,0,0,1,0,68003.4,0.205351,0.20499,-0.171485,35,0.0192343,10,-3.51527e-05,-3.76577,-0.308999,-0.190939,1.26792,0.2049897,
2,0,0,1,0,68003.7,0.203854,0.203507,-0.172796,35,0.0191788,10,-3.51653e-05,-3.76247,-0.341199,-0.17292,1.17304,0.203507,
2,0,0,0,0,68004,0.202355,0.20202,-0.172934,35,0.0191228,10,-3.49361e-05,-3.76212,-0.340563,-0.173243,1.18386,0.20202,
2,0,0,0,0,68004.3,0.200857,0.20054,-0.176857,35,0.0190662,10,-3.5467e-05,-3.75238,-0.323537,-0.18236,1.25502,0.20054,
2,0,0,1,0,68004.6,0.199358,0.199008,-0.179213,35,0.019009,10,-3.56647e-05,-3.74663,-0.433429,-0.136124,0.949284,0.199008,
2,0,0,1,0,68004.9,0.19786,0.197504,-0.180351,35,0.0189512,10,-3.56201e-05,-3.74388,-0.412495,-0.143032,1.00494,0.197504,
2,0,0,1,0,68005.2,0.196363,0.19606,-0.183072,35,0.0188931,10,-3.58932e-05,-3.73738,-0.29613,-0.199237,1.41827,0.19606,
2,0,0,1,0,68005.5,0.194864,0.194526,-0.183651,35,0.0188342,10,-3.57249e-05,-3.73601,-0.29449,-0.200346,1.43804,0.194526,
2,0,0,1,0,68005.8,0.193366,0.193028,-0.186024,35,0.0187745,10,-3.59079e-05,-3.73043,-0.360278,-0.163763,1.18957,0.193028,
2,0,0,1,0,68006.1,0.191867,0.191534,-0.188039,35,0.0187144,10,-3.60157e-05,-3.72575,-0.424873,-0.138865,1.02185,0.191534,
2,0,0,1,0,68006.4,0.190369,0.190073,-0.189648,35,0.018654,10,-3.6047e-05,-3.72205,-0.404336,-0.145918,1.07684,0.190073,
2,0,0,1,0,68006.7,0.188871,0.188529,-0.19127,35,0.0185928,10,-3.60599e-05,-3.71835,-0.229974,-0.256551,1.91331,0.188529,
2,0,0,0,0,68007,0.187373,0.187078,-0.19451,35,0.0185311,10,-3.63886e-05,-3.71106,-0.296065,-0.19928,1.5106,0.187078,
2,0,0,0,0,68007.3,0.185875,0.185534,-0.197481,35,0.0184686,10,-3.66396e-05,-3.70447,-0.302367,-0.195127,1.49356,0.185534,
2,0,0,0,0,68007.6,0.184377,0.184057,-0.196706,35,0.0184056,10,-3.62052e-05,-3.70618,-0.38013,-0.15521,1.19668,0.1840571,
2,0,0,1,0,68007.9,0.182878,0.182576,-0.201216,35,0.0183419,10,-3.67371e-05,-3.69634,-0.290102,-0.203377,1.59183,0.182576,
2,0,0,1,0,68008.2,0.181381,0.181012,-0.204175,35,0.0182775,10,-3.6958e-05,-3.69,-0.316128,-0.186633,1.47895,0.1810118,
2,0,0,1,0,68008.5,0.179882,0.179574,-0.204623,35,0.0182123,10,-3.6745e-05,-3.68904,-0.371815,-0.158681,1.27053,0.1795737,
2,0,0,1,0,68008.8,0.178384,0.178054,-0.206181,35,0.0181465,10,-3.67114e-05,-3.68575,-0.349323,-0.168898,1.37048,0.178054,
2,0,0,1,0,68009.1,0.176886,0.176596,-0.210608,35,0.01808,10,-3.71926e-05,-3.67652,-0.325457,-0.181284,1.48793,0.176596,
2,0,0,1,0,68009.4,0.175387,0.175087,-0.212385,35,0.0180127,10,-3.71858e-05,-3.67288,-0.270463,-0.218144,1.81067,0.175087,
2,0,0,1,0,68009.7,0.173889,0.17357,-0.215473,35,0.0179446,10,-3.73995e-05,-3.66661,-0.240837,-0.244979,2.05421,0.17357,
2,0,0,1,0,68010,0.172392,0.172077,-0.217613,35,0.0178756,10,-3.74462e-05,-3.66232,-0.302789,-0.194855,1.65388,0.172077,
2,0,0,0,0,68010.3,0.170893,0.17054,-0.221999,35,0.0178059,10,-3.78598e-05,-3.65365,-0.278205,-0.212074,1.82556,0.17054,
2,0,0,0,0,68010.6,0.169395,0.169031,-0.223467,35,0.0177353,10,-3.77729e-05,-3.65079,-0.19575,-0.301406,2.62561,0.169031,
2,0,0,1,0,68010.9,0.167896,0.167599,-0.227001,35,0.0176635,10,-3.80452e-05,-3.64397,-0.202279,-0.291677,2.58039,0.167599,
2,0,0,1,0,68011.2,0.166398,0.166089,-0.229865,35,0.0175911,10,-3.81779e-05,-3.63853,-0.281677,-0.20946,1.89521,0.1660886,
2,0,0,1,0,68011.5,0.164901,0.164571,-0.232312,35,0.0175176,10,-3.82319e-05,-3.63393,-0.171487,-0.344049,3.12766,0.164571,
2,0,0,1,0,68011.8,0.163402,0.163051,-0.236856,35,0.0174429,10,-3.86198e-05,-3.62551,-0.178678,-0.330203,3.0573,0.1630515,
2,0,0,1,0,68012.1,0.161904,0.16163,-0.240935,35,0.0173672,10,-3.89422e-05,-3.6181,-0.193313,-0.305204,2.87049,0.1616295,
2,0,0,1,0,68012.4,0.160405,0.16008,-0.246886,35,0.0172901,10,-3.95215e-05,-3.6075,-0.191475,-0.308134,2.93779,0.16008,
2,0,0,1,0,68012.7,0.158907,0.158545,-0.249029,35,0.0172118,10,-3.94823e-05,-3.60375,-0.199716,-0.295419,2.88909,0.158545,
2,0,0,1,0,68013,0.157409,0.157108,-0.254599,35,0.0171323,10,-3.99995e-05,-3.59414,-0.160606,-0.367358,3.66422,0.157108,
2,0,0,0,0,68013.3,0.155911,0.155551,-0.259421,35,0.0170511,10,-4.03532e-05,-3.586,-0.153181,-0.385166,3.91752,0.155551,
2,0,0,0,0,68013.6,0.154413,0.154093,-0.265235,35,0.0169682,10,-4.08709e-05,-3.57637,-0.177515,-0.332367,3.44113,0.154093,
2,0,0,0,0,68013.9,0.152915,0.152601,-0.271143,35,0.0168836,10,-4.13767e-05,-3.5668,-0.155108,-0.380381,4.03369,0.1526012,
2,0,0,1,0,68014.2,0.151416,0.151088,-0.278764,35,0.0167973,10,-4.21178e-05,-3.55476,-0.133386,-0.442324,4.81078,0.151088,
2,0,0,1,0,68014.5,0.149919,0.149612,-0.285951,35,0.0167088,10,-4.27817e-05,-3.54371,-0.121193,-0.486825,5.44141,0.149612,
2,0,0,1,0,68014.8,0.14842,0.148107,-0.29394,35,0.0166178,10,-4.35347e-05,-3.53174,-0.115953,-0.508827,5.83488,0.148107,
2,0,0,1,0,68015.1,0.146922,0.146615,-0.303462,35,0.0165242,10,-4.44921e-05,-3.5179,-0.113024,-0.522015,6.18452,0.146615,
2,0,0,1,0,68015.4,0.145424,0.1451,-0.310614,35,0.016428,10,-4.50701e-05,-3.50778,-0.101889,-0.579062,7.07889,0.1451,
2,0,0,1,0,68015.7,0.143925,0.143617,-0.323061,35,0.0163285,10,-4.63971e-05,-3.49072,-0.0898806,-0.656426,8.33445,0.143617,
2,0,0,1,0,68016,0.142427,0.142133,-0.336648,35,0.0162251,10,-4.78487e-05,-3.47282,-0.0869252,-0.678745,8.9225,0.142133,
2,0,0,1,0,68016.3,0.14093,0.140594,-0.349774,35,0.0161179,10,-4.9176e-05,-3.45621,-0.0950267,-0.620878,8.50408,0.140594,
2,0,0,0,0,68016.6,0.139431,0.139091,-0.361828,35,0.0160066,10,-5.03268e-05,-3.4415,-0.0888428,-0.664094,9.43331,0.139091,
2,0,0,0,0,68016.9,0.137933,0.137613,-0.378222,35,0.0158914,10,-5.20484e-05,-3.42225,-0.0870829,-0.677516,10.027,0.137613,
2,0,0,1,0,68017.2,0.136434,0.136088,-0.394979,35,0.0157714,10,-5.3752e-05,-3.40343,-0.0835559,-0.706114,10.8531,0.136088,
2,0,0,1,0,68017.5,0.134936,0.134574,-0.410122,35,0.0156467,10,-5.51918e-05,-3.38709,-0.0877426,-0.672421,10.7462,0.134574,
2,0,0,1,0,68017.8,0.133439,0.133099,-0.426021,35,0.0155168,10,-5.67027e-05,-3.37057,-0.0889334,-0.663418,11.0352,0.133099,
2,0,0,1,0,68018.1,0.13194,0.13162,-0.443021,35,0.0153822,10,-5.83104e-05,-3.35358,-0.0914029,-0.645494,11.1983,0.13162,
2,0,0,1,0,68018.4,0.130442,0.130123,-0.460523,35,0.0152423,10,-5.99245e-05,-3.33675,-0.0940007,-0.627655,11.2492,0.130123,
2,0,0,1,0,68018.7,0.128943,0.128609,-0.476825,35,0.015097,10,-6.13241e-05,-3.32164,-0.105176,-0.560963,10.4143,0.128609,
2,0,0,1,0,68019,0.127445,0.127079,-0.492909,35,0.0149472,10,-6.26385e-05,-3.30723,-0.113441,-0.520093,9.9805,0.1270792,
2,0,0,1,0,68019.3,0.125947,0.125644,-0.507803,35,0.0147933,10,-6.38023e-05,-3.2943,-0.123653,-0.477142,9.42904,0.125644,
2,0,0,0,0,68019.6,0.124449,0.124119,-0.520272,35,0.0146348,10,-6.45755e-05,-3.28377,-0.129322,-0.456226,9.23257,0.124119,
2,0,0,0,0,68019.9,0.122951,0.122623,-0.532485,35,0.0144723,10,-6.52951e-05,-3.27369,-0.160948,-0.366579,7.59937,0.1226235,
2,0,0,0,0,68020.2,0.121453,0.121137,-0.54343,35,0.0143066,10,-6.58294e-05,-3.26486,-0.201044,-0.293468,6.21031,0.121137,
2,0,0,1,0,68020.5,0.119954,0.119644,-0.550298,35,0.0141381,10,-6.58401e-05,-3.2594,-0.233708,-0.252452,5.43318,0.119644,
2,0,0,1,0,68020.8,0.118456,0.118155,-0.559269,35,0.0139672,10,-6.60806e-05,-3.25238,-0.253286,-0.232938,5.06485,0.118155,
2,0,0,1,0,68021.1,0.116958,0.116596,-0.56648,35,0.0137939,10,-6.60494e-05,-3.24682,-0.358717,-0.164475,3.61619,0.116596,
2,0,0,1,0,68021.4,0.11546,0.115109,-0.569896,35,0.0136192,10,-6.56004e-05,-3.2442,-0.63643,-0.0927046,2.05352,0.115109,
2,0,0,1,0,68021.7,0.113962,0.113641,-0.569891,35,0.0134437,10,-6.47629e-05,-3.24421,-0.897049,-0.0657712,1.46511,0.1136408,
2,0,0,1,0,68022,0.112463,0.11212,-0.575305,35,0.0132677,10,-6.45033e-05,-3.2401,-1.42655,-0.0413585,0.925713,0.11212,
2,0,0,1,0,68022.3,0.110965,0.110576,-0.575562,35,0.0130909,10,-6.36436e-05,-3.23991,-1.21634,-0.0485061,1.08569,0.110576,
2,0,0,1,0,68022.6,0.109468,0.10917,-0.575304,35,0.012914,10,-6.28057e-05,-3.2401,1.69498,0.0348087,-0.779866,0.10917,
2,0,0,0,0,68022.9,0.107969,0.107616,-0.575028,35,0.0127369,10,-6.1882e-05,-3.24031,4.2953,0.0137359,-0.308338,0.107616,
2,0,0,0,0,68023.2,0.106471,0.106143,-0.574432,35,0.0125604,10,-6.09717e-05,-3.24076,13.4541,0.00438529,-0.0984096,0.106143,
2,0,0,1,0,68023.5,0.104972,0.104646,-0.574423,35,0.0123837,10,-6.01112e-05,-3.24077,4.11331,0.0143437,-0.320733,0.104646,
2,0,0,1,0,68023.8,0.103474,0.103129,-0.573296,35,0.0122071,10,-5.91235e-05,-3.24162,0.987218,0.0597639,-1.33563,0.103129,
2,0,0,1,0,68024.1,0.101977,0.101618,-0.573334,35,0.012031,10,-5.82612e-05,-3.24159,1.27444,0.046295,-1.0334,0.101618,
2,0,0,1,0,68024.4,0.100478,0.10017,-0.569656,35,0.0118556,10,-5.70627e-05,-3.24439,1.62433,0.0363227,-0.807824,0.10017,
2,0,0,1,0,68024.7,0.0989798,0.0986456,-0.568191,35,0.0116805,10,-5.60495e-05,-3.24551,1.45177,0.0406401,-0.900485,0.0986456,
2,0,0,1,0,68025,0.0974812,0.09715,-0.566753,35,0.0115056,10,-5.506e-05,-3.24661,0.995456,0.0592693,-1.31264,0.09715,
2,0,0,1,0,68025.3,0.0959834,0.0956487,-0.565451,35,0.0113315,10,-5.40846e-05,-3.24761,1.02823,0.05738,-1.26713,0.0956487,
2,0,0,1,0,68025.6,0.0944855,0.0941814,-0.561406,35,0.0111583,10,-5.2874e-05,-3.25072,0.708723,0.0832483,-1.82836,0.0941814,
2,0,0,0,0,68025.9,0.0929871,0.0926681,-0.562414,35,0.0109853,10,-5.21178e-05,-3.24994,2.72223,0.0216734,-0.473982,0.0926681,
2,0,0,0,0,68026.2,0.0914889,0.0911294,-0.560239,35,0.0108131,10,-5.10543e-05,-3.25163,0.956497,0.0616834,-1.3451,0.0911294,
2,0,0,0,0,68026.5,0.0899907,0.0896502,-0.55671,35,0.0106413,10,-4.99091e-05,-3.25437,0.61726,0.0955836,-2.07053,0.0896502,
2,0,0,1,0,68026.7,0.0884923,0.0881303,-0.550839,35,0.0104705,10,-4.85456e-05,-3.25898,0.853988,0.0690877,-1.49445,0.0881303,
2,0,0,1,0,68027,0.0869946,0.0866686,-0.551621,35,0.0103008,10,-4.78082e-05,-3.25836,0.733592,0.0804262,-1.72819,0.0866686,
2,0,0,1,0,68027.3,0.0854961,0.0851434,-0.548655,35,0.0101315,10,-4.67144e-05,-3.2607,0.687687,0.0857948,-1.83473,0.0851434,
2,0,0,1,0,68027.6,0.083998,0.0836801,-0.545323,35,0.0099632,10,-4.56327e-05,-3.26335,0.510907,0.115481,-2.45401,0.0836801,
2,0,0,1,0,68027.9,0.0824998,0.0821892,-0.54257,35,0.00979579,10,-4.45934e-05,-3.26554,0.520538,0.113344,-2.39911,0.08218915,
2,0,0,1,0,68028.2,0.0810013,0.0806949,-0.53833,35,0.00962963,10,-4.34405e-05,-3.26895,0.739193,0.0798168,-1.68204,0.0806949,
2,0,0,1,0,68028.5,0.0795035,0.0791617,-0.536946,35,0.00946424,10,-4.25056e-05,-3.27007,0.789045,0.0747739,-1.56357,0.0791617,
2,0,0,1,0,68028.8,0.0780056,0.0776724,-0.534575,35,0.00929944,10,-4.15217e-05,-3.27199,0.589786,0.100036,-2.08095,0.0776724,
2,0,0,0,0,68029.1,0.076507,0.0761597,-0.530627,35,0.00913557,10,-4.04123e-05,-3.27521,0.573775,0.102828,-2.12838,0.0761597,
2,0,0,0,0,68029.4,0.0750088,0.0746804,-0.526185,35,0.00897316,10,-3.92957e-05,-3.27886,0.535432,0.110191,-2.26549,0.0746804,
2,0,0,1,0,68029.7,0.0735103,0.073152,-0.524329,35,0.00881147,10,-3.83557e-05,-3.2804,0.910887,0.0647721,-1.32344,0.073152,
2,0,0,1,0,68030,0.0720124,0.0716476,-0.520547,35,0.00865058,10,-3.7296e-05,-3.28354,0.618462,0.0953979,-1.93862,0.0716476,
2,0,0,1,0,68030.3,0.0705146,0.0701846,-0.517,35,0.00849075,10,-3.62855e-05,-3.28651,0.483685,0.12198,-2.46623,0.0701846,
2,0,0,1,0,68030.6,0.069016,0.0686827,-0.512749,35,0.00833199,10,-3.5217e-05,-3.2901,0.547798,0.107704,-2.16396,0.0686827,
2,0,0,1,0,68030.9,0.0675179,0.0671961,-0.511033,35,0.00817421,10,-3.43394e-05,-3.29155,0.762678,0.077359,-1.54683,0.0671961,
2,0,0,1,0,68031.2,0.0660192,0.0656623,-0.511082,35,0.00801706,10,-3.35588e-05,-3.29151,0.511881,0.115261,-2.28665,0.0656623,
2,0,0,1,0,68031.5,0.0645214,0.0642003,-0.507372,35,0.00786062,10,-3.25734e-05,-3.29467,0.514297,0.11472,-2.26093,0.0642003,
2,0,0,1,0,68031.8,0.0630235,0.0627458,-0.501279,35,0.00770543,10,-3.14531e-05,-3.29992,0.504066,0.117048,-2.29639,0.0627458,
2,0,0,0,0,68032.1,0.0615251,0.0612366,-0.499109,35,0.00755136,10,-3.05637e-05,-3.3018,0.544679,0.108321,-2.11518,0.0612366,
2,0,0,0,0,68032.4,0.0600269,0.0596916,-0.495857,35,0.00739799,10,-2.95985e-05,-3.30464,0.588769,0.100209,-1.94231,0.05969156,
2,0,0,0,0,68032.7,0.0585287,0.0582081,-0.493921,35,0.00724557,10,-2.87502e-05,-3.30634,0.385797,0.15293,-2.93987,0.05820806,
2,0,0,1,0,68033,0.0570303,0.0566883,-0.491123,35,0.00709413,10,-2.78409e-05,-3.30881,0.534227,0.11044,-2.1101,0.0566883,
2,0,0,1,0,68033.3,0.0555325,0.0552116,-0.486228,35,0.00694405,10,-2.68454e-05,-3.31316,0.605586,0.0974262,-1.84811,0.0552116,
2,0,0,1,0,68033.6,0.0540342,0.0537194,-0.48303,35,0.0067946,10,-2.59481e-05,-3.31603,0.752196,0.078437,-1.47662,0.0537194,
2,0,0,1,0,68033.9,0.052536,0.0521828,-0.48134,35,0.00664589,10,-2.51177e-05,-3.31755,0.507688,0.116213,-2.17744,0.05218282,
2,0,0,1,0,68034.2,0.0510378,0.0507237,-0.476764,35,0.00649835,10,-2.41832e-05,-3.3217,0.456439,0.129262,-2.40626,0.0507237,
2,0,0,1,0,68034.5,0.0495394,0.0491966,-0.472941,35,0.006352,10,-2.32671e-05,-3.32519,0.525614,0.11225,-2.0709,0.0491966,
2,0,0,1,0,68034.8,0.0480415,0.0477165,-0.468357,35,0.00620658,10,-2.23484e-05,-3.32942,0.638975,0.0923353,-1.68974,0.0477165,
2,0,0,1,0,68035.1,0.0465436,0.0461909,-0.465801,35,0.00606211,10,-2.15157e-05,-3.3318,0.542993,0.108657,-1.9809,0.0461909,
2,0,0,0,0,68035.4,0.045045,0.0447176,-0.462892,35,0.00591856,10,-2.06994e-05,-3.33452,0.403691,0.146152,-2.63489,0.0447176,
2,0,0,0,0,68035.7,0.0435468,0.0432097,-0.458375,35,0.00577625,10,-1.98062e-05,-3.33878,0.51663,0.114202,-2.04811,0.0432097,
2,0,0,1,0,68036,0.0420483,0.041693,-0.455365,35,0.00563501,10,-1.89856e-05,-3.34164,0.605934,0.0973704,-1.73068,0.041693,
2,0,0,1,0,68036.3,0.0405504,0.0402299,-0.454445,35,0.00549453,10,-1.82823e-05,-3.34252,0.451503,0.130675,-2.30888,0.0402299,
2,0,0,1,0,68036.6,0.0390526,0.0386819,-0.449363,35,0.00535498,10,-1.73822e-05,-3.3474,0.368512,0.160103,-2.79937,0.0386819,
2,0,0,1,0,68036.9,0.0375541,0.0372184,-0.444575,35,0.00521659,10,-1.65464e-05,-3.35205,0.470604,0.125371,-2.18086,0.0372184,
2,0,0,1,0,68037.2,0.0360559,0.0356861,-0.442092,35,0.00507942,10,-1.57765e-05,-3.35449,0.441196,0.133727,-2.3105,0.0356861,
2,0,0,1,0,68037.5,0.0345572,0.0342942,-0.439192,35,0.004943,10,-1.50618e-05,-3.35735,0.551386,0.107003,-1.83666,0.0342942,
2,0,0,1,0,68037.8,0.0330594,0.0327508,-0.436655,35,0.00480751,10,-1.43008e-05,-3.35986,0.423115,0.139442,-2.37044,0.0327508,
2,0,0,1,0,68038.1,0.0315615,0.0312029,-0.433306,35,0.00467293,10,-1.35204e-05,-3.3632,0.441278,0.133703,-2.26284,0.0312029,
2,0,0,0,0,68038.4,0.0300631,0.029716,-0.430178,35,0.00453951,10,-1.27832e-05,-3.36635,0.563492,0.104704,-1.7587,0.029716,
2,0,0,0,0,68038.7,0.0285649,0.0282537,-0.427955,35,0.00440672,10,-1.20913e-05,-3.3686,0.601764,0.098045,-1.63511,0.0282537,
2,0,0,0,0,68039,0.0270667,0.0267426,-0.425278,35,0.00427459,10,-1.1373e-05,-3.37133,0.569941,0.103519,-1.71838,0.0267426,
2,0,0,1,0,68039.3,0.0255683,0.0252483,-0.422583,35,0.0041433,10,-1.06695e-05,-3.37409,0.550441,0.107187,-1.76924,0.0252483,
2,0,0,1,0,68039.6,0.0240706,0.0237567,-0.419794,35,0.0040131,10,-9.97293e-06,-3.37696,0.681078,0.0866273,-1.42184,0.0237567,
2,0,0,1,0,68039.9,0.0225722,0.0222645,-0.41745,35,0.00388333,10,-9.29432e-06,-3.3794,1.38094,0.0427245,-0.69564,0.0222645,
2,0,0,1,0,68040.2,0.021074,0.0207524,-0.416786,35,0.00375426,10,-8.64929e-06,-3.38009,0.932795,0.0632508,-1.02897,0.0207524,
2,0,0,1,0,68040.5,0.0195758,0.0192413,-0.414267,35,0.00362565,10,-7.97103e-06,-3.38272,0.918306,0.0642487,-1.03671,0.0192413,
2,0,0,1,0,68040.8,0.0180774,0.0177311,-0.411879,35,0.00349762,10,-7.30306e-06,-3.38523,1.16043,0.0508432,-0.819477,0.0177311,
2,0,0,1,0,68041.1,0.0165795,0.0162256,-0.411536,35,0.00337023,10,-6.67742e-06,-3.38559,1.95593,0.0301648,-0.485478,0.0162256,
2,0,0,1,0,68041.4,0.0150817,0.0147882,-0.41172,35,0.0032429,10,-6.08858e-06,-3.3854,2.08874,0.0282467,-0.453135,0.0147882,
2,0,0,0,0,68041.7,0.013583,0.0132436,-0.409445,35,0.0031157,10,-5.42254e-06,-3.3878,0.860016,0.0686034,-1.09497,0.0132436,
2,0,0,0,0,68042,0.0120848,0.0117114,-0.409217,35,0.00298893,10,-4.79248e-06,-3.38805,1.05844,0.0557425,-0.890424,0.0117114,
2,0,0,1,0,68042.3,0.0105863,0.0102933,-0.407374,35,0.00286263,10,-4.19322e-06,-3.39001,1.90123,0.0310326,-0.495802,0.0102933,
2,0,0,1,0,68042.6,0.00908846,0.00877724,-0.40847,35,0.0027363,10,-3.58524e-06,-3.38884,4.33285,0.0136169,-0.2174,0.00877724,
2,0,0,1,0,68042.9,0.0075906,0.00730697,-0.406822,35,0.00260997,10,-2.97263e-06,-3.3906,2.99385,0.019707,-0.314282,0.00730697,
2,0,0,1,0,68043.2,0.00609208,0.00575929,-0.409783,35,0.00248355,10,-2.36006e-06,-3.38745,-2.57853,-0.0228812,0.364979,0.005759289,
2,0,0,1,0,68043.5,0.00459388,0.00430229,-0.409089,35,0.00235728,10,-1.76002e-06,-3.38818,-8.4864,-0.0069523,0.110911,0.00430229,
2,0,0,1,0,68043.8,0.00309525,0.00276846,-0.41003,35,0.00223056,10,-1.13515e-06,-3.38718,-0.821735,-0.0717993,1.14949,0.00276846,
2,0,0,1,0,68044.1,0.00159739,0.0012483,-0.41449,35,0.00210208,10,-5.17406e-07,-3.38249, , , ,0.001248296,
2,0,0,0,0,68044.4,0.000199195,-0.000191712,-0.412046,35,0.0019828,10,7.89943e-08,-3.38505, , , ,-0.0001917123,