File: Figure_codes/Fig_3-5/rawdata_trumpetplot_data/after 10th/20221101_1-115_003_TrumpetPlot_ParaChange_from10_every3_06_CV_C01_31.csv
mode,ox/red,error,control changes,counter inc.,time/s,control/V,Ewe/V,<I>/mA,cycle number,(Q-Qo)/C,I Range,P/W,log(|I|),Tafel slope mV/dec,alpha_eff,dI/d(E-IR),E-IR/V,
2,0,0,0,0,62224.1,2.44065e-05,-0.000401673,-1.41789,32,0.0000000E+000,10,5.69527e-07,-2.84836, , , ,-0.000401673,
2,0,0,1,0,62224.1,0.00129787,0.000919783,-0.507488,32,-2.74583e-05,10,-4.66779e-07,-3.29457, , , ,0.000919783,
2,1,0,1,0,62224.1,0.00279427,0.00247352,0.0908571,32,-3.39328e-05,10,2.24737e-07,-4.04164,-0.025931,-2.27527,326.853,0.00247352,
2,1,0,1,0,62224.2,0.00429425,0.00396028,0.452231,32,-2.28136e-05,10,1.79096e-06,-3.34464,0.00407088,14.4932,213.891,0.00396028,
2,1,0,1,0,62224.2,0.00579422,0.00544399,0.705042,32,-3.3451e-07,10,3.83824e-06,-3.15178,0.0091888,6.42086,148.476,0.00544399,
2,1,0,1,0,62224.2,0.00729063,0.00695342,0.890453,32,3.01717e-05,10,6.1917e-06,-3.05039,0.0170793,3.45448,111.723,0.00695342,
2,1,0,1,0,62224.3,0.00878703,0.00843899,1.02924,32,6.67733e-05,10,8.68578e-06,-2.98748,0.0264969,2.22668,86.5994,0.00843899,
2,1,0,1,0,62224.3,0.010287,0.00992758,1.14044,32,0.000108212,10,1.13218e-05,-2.94293,0.0382544,1.54231,67.3416,0.00992758,
2,1,0,1,0,62224.4,0.011787,0.011406,1.23346,32,0.000153367,10,1.40689e-05,-2.90887,0.051199,1.15237,54.7566,0.011406,
2,1,0,1,0,62224.4,0.0132825,0.0129356,1.30791,32,0.000201408,10,1.69186e-05,-2.88342,0.0629893,0.936667,47.3932,0.0129356,
2,1,0,1,0,62224.4,0.014778,0.0143857,1.37524,32,0.000252069,10,1.97839e-05,-2.86162,0.078376,0.752781,40.0584,0.0143857,
2,1,0,1,0,62224.5,0.0162816,0.0159413,1.43049,32,0.000305371,10,2.28038e-05,-2.84452,0.0885479,0.666306,36.9435,0.0159413,
2,1,0,1,0,62224.5,0.017778,0.0174501,1.47799,32,0.000360342,10,2.5791e-05,-2.83033,0.109391,0.53935,31.0382,0.0174501,
2,1,0,1,0,62224.5,0.0192744,0.0189365,1.52082,32,0.000417006,10,2.8799e-05,-2.81792,0.119737,0.492748,29.2461,0.0189365,
2,1,0,1,0,62224.6,0.0207743,0.0204142,1.56743,32,0.000475471,10,3.19979e-05,-2.80481,0.129374,0.456043,27.8368,0.0204142,
2,1,0,1,0,62224.6,0.0222743,0.021929,1.60489,32,0.000535477,10,3.51936e-05,-2.79455,0.143019,0.412534,25.8377,0.021929,
2,1,0,1,0,62224.7,0.0237707,0.0234106,1.64366,32,0.000596798,10,3.8479e-05,-2.78419,0.156122,0.377909,24.208,0.0234106,
2,1,0,1,0,62224.7,0.0252671,0.0249156,1.67506,32,0.000659391,10,4.1735e-05,-2.77597,0.162587,0.362882,23.7855,0.0249156,
2,1,0,1,0,62224.7,0.0267671,0.0264234,1.71629,32,0.000723515,10,4.53502e-05,-2.76541,0.16033,0.367991,24.5487,0.0264234,
2,1,0,1,0,62224.8,0.0282671,0.0279249,1.75048,32,0.000788989,10,4.88821e-05,-2.75684,0.175817,0.335575,22.8583,0.0279249,
2,1,0,1,0,62224.8,0.0297626,0.0294144,1.78112,32,0.000855605,10,5.23906e-05,-2.74931,0.189013,0.312148,21.6683,0.0294144,
2,1,0,1,0,62224.8,0.0312581,0.0309102,1.81297,32,0.000923396,10,5.60395e-05,-2.74161,0.189133,0.311949,22.0918,0.03091022,
2,1,0,1,0,62224.9,0.0327616,0.0324091,1.84455,32,0.000992719,10,5.97802e-05,-2.73411,0.184937,0.319028,23.0466,0.0324091,
2,1,0,1,0,62224.9,0.034258,0.0339143,1.87909,32,0.001063,10,6.3728e-05,-2.72605,0.185988,0.317225,23.3067,0.0339143,
2,1,0,1,0,62225,0.0357545,0.0353925,1.91433,32,0.00113455,10,6.7753e-05,-2.71798,0.213476,0.276378,20.625,0.0353925,
2,1,0,1,0,62225,0.0372544,0.0369348,1.94624,32,0.00120747,10,7.1884e-05,-2.7108,0.219359,0.268966,20.4113,0.0369348,
2,1,0,1,0,62225,0.0387544,0.0383798,1.98111,32,0.00128152,10,7.60348e-05,-2.70309,0.205119,0.287637,22.1797,0.0383798,
2,1,0,1,0,62225.1,0.0402508,0.039878,2.01209,32,0.00135662,10,8.02381e-05,-2.69635,0.215999,0.273149,21.3882,0.039878,
2,1,0,1,0,62225.1,0.0417472,0.0413644,2.04442,32,0.00143294,10,8.45665e-05,-2.68943,0.223994,0.2634,20.9803,0.04136445,
2,1,0,1,0,62225.1,0.0432472,0.0429038,2.07448,32,0.00151063,10,8.90032e-05,-2.68309,0.247651,0.238238,19.277,0.0429038,
2,1,0,1,0,62225.2,0.0447472,0.0443911,2.09745,32,0.00158941,10,9.31084e-05,-2.67831,0.22652,0.260463,21.3965,0.0443911,
2,1,0,1,0,62225.2,0.0462427,0.0459398,2.13369,32,0.0016692,10,9.80215e-05,-2.67087,0.222605,0.265044,22.096,0.0459398,
2,1,0,1,0,62225.3,0.0477382,0.0473851,2.16519,32,0.00175018,10,0.000102598,-2.6645,0.237359,0.248568,21.0303,0.0473851,
2,1,0,1,0,62225.3,0.0492417,0.0488944,2.19782,32,0.00183274,10,0.000107461,-2.65801,0.248824,0.237116,20.313,0.0488944,
2,1,0,1,0,62225.3,0.0507381,0.0504077,2.22446,32,0.001916,10,0.00011213,-2.65277,0.256087,0.23039,20.0028,0.0504077,
2,1,0,1,0,62225.4,0.0522345,0.0518541,2.25793,32,0.00200039,10,0.000117083,-2.64629,0.2564,0.230109,20.2644,0.0518541,
2,1,0,1,0,62225.4,0.0537345,0.0533752,2.28998,32,0.00208615,10,0.000122228,-2.64017,0.266494,0.221394,19.7649,0.0533752,
2,1,0,1,0,62225.4,0.0552345,0.0549154,2.31831,32,0.00217309,10,0.000127311,-2.63483,0.283984,0.207758,18.7851,0.0549154,
2,1,0,1,0,62225.5,0.0567309,0.0563945,2.34319,32,0.00226084,10,0.000132143,-2.63019,0.290044,0.203418,18.6333,0.0563945,
2,1,0,1,0,62225.5,0.0582273,0.0578397,2.37051,32,0.00234956,10,0.00013711,-2.62516,0.293077,0.201312,18.6748,0.0578397,
2,1,0,1,0,62225.6,0.0597309,0.0593556,2.40518,32,0.0024399,10,0.000142761,-2.61885,0.278947,0.21151,19.8333,0.0593556,
2,1,0,1,0,62225.6,0.0612264,0.0608371,2.43245,32,0.00253085,10,0.000147983,-2.61396,0.313032,0.188479,17.8524,0.06083709,
2,1,0,1,0,62225.6,0.0627219,0.062374,2.4567,32,0.00262279,10,0.000153234,-2.60965,0.344956,0.171036,16.3871,0.062374,
2,1,0,1,0,62225.7,0.0642218,0.0638394,2.48386,32,0.00271589,10,0.000158568,-2.60487,0.316112,0.186643,18.084,0.0638394,
2,1,0,1,0,62225.7,0.0657218,0.0653846,2.50994,32,0.00281001,10,0.000164112,-2.60034,0.321046,0.183774,17.9867,0.0653846,
2,1,0,1,0,62225.7,0.0672182,0.0668782,2.53337,32,0.00290492,10,0.000169428,-2.5963,0.339334,0.17387,17.202,0.0668782,
2,1,0,1,0,62225.8,0.0687146,0.0683711,2.55512,32,0.00300074,10,0.000174696,-2.59259,0.425492,0.138663,13.8556,0.0683711,
2,1,0,1,0,62225.8,0.0702146,0.0698755,2.58168,32,0.00309763,10,0.000180396,-2.5881,0.395614,0.149135,15.0389,0.0698755,
2,1,0,1,0,62225.9,0.0717146,0.0713724,2.60672,32,0.00319543,10,0.000186048,-2.58391,0.35721,0.165169,16.7707,0.0713724,
2,1,0,1,0,62225.9,0.073211,0.0728607,2.63181,32,0.00329385,10,0.000191755,-2.57975,0.420404,0.140341,14.3854,0.0728607,
2,1,0,1,0,62225.9,0.0747074,0.074372,2.65118,32,0.00339312,10,0.000197174,-2.57656,0.454911,0.129696,13.3897,0.074372,
2,1,0,1,0,62226,0.0762109,0.0758167,2.66733,32,0.00349368,10,0.000202228,-2.57392,0.471051,0.125252,13.0401,0.0758167,
2,1,0,1,0,62226,0.0777064,0.0773393,2.68799,32,0.00359441,10,0.000207888,-2.57057,0.435649,0.13543,14.2268,0.0773393,
2,1,0,1,0,62226,0.079202,0.0788644,2.71281,32,0.00369595,10,0.000213944,-2.56658,0.449203,0.131344,13.893,0.0788644,
2,1,0,1,0,62226.1,0.0807019,0.0803665,2.72884,32,0.00379857,10,0.000219307,-2.56402,0.48043,0.122807,13.09,0.08036647,
2,1,0,1,0,62226.1,0.0822019,0.0818166,2.74698,32,0.00390185,10,0.000224749,-2.56114,0.533823,0.110524,11.864,0.0818166,
2,1,0,1,0,62226.2,0.0836983,0.0833432,2.76679,32,0.00400546,10,0.000230593,-2.55802,0.536678,0.109935,11.8738,0.0833432,
2,1,0,1,0,62226.2,0.0851947,0.0848951,2.78496,32,0.00410979,10,0.000236429,-2.55518,0.515094,0.114542,12.439,0.0848951,
2,1,0,1,0,62226.2,0.0866947,0.0863061,2.80497,32,0.00421509,10,0.000242086,-2.55207,0.603347,0.0977879,10.6844,0.0863061,
2,1,0,1,0,62226.3,0.0881947,0.087854,2.82314,32,0.00432109,10,0.000248024,-2.54927,0.506615,0.116459,12.8196,0.08785399,
2,1,0,1,0,62226.3,0.0896911,0.0893614,2.83908,32,0.00442741,10,0.000253704,-2.54682,0.481187,0.122614,13.6146,0.0893614,
2,1,0,1,0,62226.3,0.0911875,0.0908464,2.86114,32,0.00453452,10,0.000259924,-2.54346,0.411296,0.143449,16.0345,0.0908464,
2,1,0,1,0,62226.4,0.0926901,0.092338,2.88565,32,0.00464312,10,0.000266455,-2.53976,0.389259,0.15157,17.0745,0.092338,
2,1,0,1,0,62226.4,0.0941856,0.0938588,2.90641,32,0.00475204,10,0.000272793,-2.53664,0.421962,0.139823,15.8905,0.0938588,
2,1,0,1,0,62226.5,0.0956821,0.0953071,2.93158,32,0.00486178,10,0.000279401,-2.5329,0.367016,0.160756,18.4335,0.0953071,
2,1,0,1,0,62226.5,0.097182,0.0968164,2.96564,32,0.00497284,10,0.000287122,-2.52788,0.317489,0.185833,21.4771,0.0968164,
2,1,0,1,0,62226.5,0.098682,0.0983726,2.99694,32,0.00508506,10,0.000294817,-2.52332,0.308246,0.191405,22.365,0.0983726,
2,1,0,1,0,62226.6,0.100178,0.0998091,3.0296,32,0.00519823,10,0.000302381,-2.51862,0.298724,0.197507,23.3571,0.0998091,
2,1,0,1,0,62226.6,0.101675,0.101347,3.05952,32,0.00531272,10,0.000310074,-2.51435,0.271262,0.217502,26.0465,0.101347,
2,1,0,1,0,62226.6,0.103175,0.102829,3.10656,32,0.00542891,10,0.000319444,-2.50772,0.247551,0.238335,28.956,0.102829,
2,1,0,1,0,62226.7,0.104675,0.104352,3.15264,32,0.00554679,10,0.000328985,-2.50133,0.230276,0.256214,31.5573,0.104352,
2,1,0,1,0,62226.7,0.106171,0.105862,3.19868,32,0.00566616,10,0.000338617,-2.49503,0.229241,0.257371,32.1314,0.105862,
2,1,0,1,0,62226.8,0.107667,0.107306,3.25224,32,0.00578736,10,0.000348986,-2.48782,0.228066,0.258697,32.8027,0.107306,
2,1,0,1,0,62226.8,0.10917,0.108816,3.3009,32,0.00591096,10,0.000359189,-2.48137,0.224186,0.263175,33.9031,0.108816,
2,1,0,1,0,62226.8,0.110666,0.110319,3.3511,32,0.00603584,10,0.00036969,-2.47481,0.219978,0.268209,35.0308,0.110319,
2,1,0,1,0,62226.9,0.112162,0.111815,3.40274,32,0.00616269,10,0.000380477,-2.46817,0.231914,0.254405,33.7523,0.111815,
2,1,0,1,0,62226.9,0.113662,0.113325,3.45306,32,0.00629176,10,0.000391317,-2.4618,0.242898,0.2429,32.7061,0.113325,
2,1,0,1,0,62226.9,0.115162,0.114783,3.49677,32,0.00642255,10,0.000401371,-2.45633,0.260124,0.226815,30.955,0.1147833,
2,1,0,1,0,62227,0.116658,0.116318,3.54151,32,0.00655478,10,0.000411943,-2.45081,0.259992,0.22693,31.4025,0.116318,
2,1,0,1,0,62227,0.118155,0.117816,3.59552,32,0.00668878,10,0.00042361,-2.44424,0.289972,0.203468,28.4831,0.117816,
2,1,0,1,0,62227.1,0.119655,0.11933,3.63363,32,0.00682481,10,0.000433603,-2.43966,0.341586,0.172724,24.442,0.11933,
2,1,0,1,0,62227.1,0.121155,0.120812,3.67136,32,0.00696221,10,0.000443543,-2.43517,0.349641,0.168745,24.1301,0.120812,
2,1,0,1,0,62227.1,0.122651,0.122284,3.7024,32,0.00710054,10,0.000452745,-2.43152,0.38766,0.152195,21.9725,0.122284,
2,1,0,1,0,62227.2,0.124147,0.123766,3.73305,32,0.00724011,10,0.000462026,-2.42794,0.446176,0.132235,19.248,0.123766,
2,1,0,1,0,62227.2,0.12565,0.125294,3.76084,32,0.00738154,10,0.000471212,-2.42471,0.518812,0.113721,16.6747,0.125294,
2,1,0,1,0,62227.2,0.127146,0.126784,3.77545,32,0.00752314,10,0.000478664,-2.42303,0.612888,0.0962655,14.212,0.126784,
2,1,0,1,0,62227.3,0.128642,0.12826,3.80099,32,0.00766552,10,0.000487516,-2.4201,0.668202,0.0882967,13.1122,0.12826,
2,1,0,1,0,62227.3,0.130142,0.129763,3.82478,32,0.00780905,10,0.000496317,-2.41739,0.686227,0.0859773,12.8186,0.129763,
2,1,0,1,0,62227.4,0.131642,0.13129,3.84356,32,0.00795332,10,0.000504622,-2.41527,0.928094,0.0635711,9.51219,0.13129,
2,1,0,1,0,62227.4,0.133139,0.132799,3.85779,32,0.00809779,10,0.00051231,-2.41366,1.18008,0.0499968,7.51383,0.132799,
2,1,0,1,0,62227.4,0.134635,0.134293,3.86679,32,0.0082426,10,0.000519281,-2.41265,1.6909,0.0348927,5.26271,0.134293,
2,1,0,1,0,62227.5,0.136135,0.135796,3.87489,32,0.0083882,10,0.000526195,-2.41174,1.80273,0.0327282,4.94365,0.1357962,
2,1,0,1,0,62227.5,0.137635,0.137297,3.87706,32,0.00853406,10,0.000532308,-2.4115,13.7825,0.00428079,0.647165,0.137297,
2,1,0,1,0,62227.5,0.13913,0.138794,3.87549,32,0.00867964,10,0.000537894,-2.41167,-2.27544,-0.025929,-3.91653,0.138794,
2,1,0,1,0,62227.6,0.140626,0.140251,3.86389,32,0.00882495,10,0.000541917,-2.41297,-0.91661,-0.0643676,-9.70409,0.1402514,
2,1,0,1,0,62227.6,0.14213,0.141826,3.84974,32,0.00897053,10,0.000545994,-2.41457,-0.642648,-0.0918077,-13.7646,0.141826,
2,1,0,1,0,62227.7,0.143626,0.143326,3.82641,32,0.00911462,10,0.000548425,-2.41721,-0.378847,-0.155736,-23.153,0.143326,
2,1,0,1,0,62227.7,0.145122,0.144806,3.78606,32,0.00925747,10,0.000548246,-2.42181,-0.263897,-0.223572,-32.8703,0.144806,
2,1,0,1,0,62227.7,0.146622,0.14631,3.72601,32,0.00939883,10,0.000545152,-2.42876,-0.212644,-0.277459,-40.2463,0.14631,
2,1,0,1,0,62227.8,0.148122,0.147828,3.65857,32,0.00953788,10,0.000540839,-2.43669,-0.177514,-0.332369,-47.338,0.147828,
2,1,0,1,0,62227.8,0.149619,0.149276,3.57942,32,0.00967384,10,0.000534321,-2.44619,-0.146166,-0.403652,-56.2845,0.149276,
2,1,0,1,0,62227.8,0.151115,0.150762,3.48844,32,0.00980664,10,0.000525925,-2.45737,-0.122254,-0.482601,-65.5991,0.150762,
2,1,0,1,0,62227.9,0.152615,0.152241,3.38844,32,0.00993621,10,0.00051586,-2.47,-0.111874,-0.527381,-69.6266,0.152241,
2,1,0,1,0,62227.9,0.154115,0.153745,3.28415,32,0.0100618,10,0.00050492,-2.48358,-0.102006,-0.578397,-73.9925,0.153745,
2,1,0,1,0,62228,0.155611,0.155274,3.17143,32,0.0101829,10,0.00049244,-2.49875,-0.0984545,-0.599261,-74.0577,0.155274,
2,1,0,1,0,62228,0.157106,0.156761,3.06172,32,0.0103,10,0.000479959,-2.51403,-0.0960031,-0.614564,-73.2803,0.156761,
2,1,0,1,0,62228,0.15861,0.158278,2.95194,32,0.0104134,10,0.000467228,-2.52989,-0.0941852,-0.626425,-72.1198,0.1582782,
2,1,0,1,0,62228.1,0.160106,0.159768,2.83764,32,0.0105222,10,0.000453363,-2.54704,-0.0942516,-0.625984,-69.5315,0.159768,
2,1,0,1,0,62228.1,0.161602,0.161254,2.74184,32,0.010627,10,0.000442134,-2.56196,-0.0970003,-0.608245,-65.2377,0.161254,
2,1,0,1,0,62228.1,0.163102,0.162816,2.64709,32,0.0107286,10,0.000430989,-2.57723,-0.101761,-0.579789,-60.0677,0.162816,
2,1,0,1,0,62228.2,0.164602,0.164264,2.55759,32,0.0108267,10,0.00042012,-2.59217,-0.107933,-0.546633,-54.7661,0.164264,
2,1,0,1,0,62228.2,0.166099,0.165746,2.48017,32,0.0109214,10,0.000411078,-2.60552,-0.11086,-0.532202,-51.6383,0.165746,
2,1,0,1,0,62228.2,0.167595,0.167284,2.41102,32,0.0110133,10,0.000403326,-2.6178,-0.121266,-0.486534,-45.8046,0.167284,
2,1,0,1,0,62228.3,0.169095,0.168792,2.34533,32,0.011103,10,0.000395874,-2.6298,-0.133903,-0.440617,-40.3341,0.168792,
2,1,0,1,0,62228.3,0.170595,0.170253,2.28591,32,0.0111903,10,0.000389183,-2.64094,-0.134287,-0.439357,-39.2364,0.170253,
2,1,0,1,0,62228.4,0.172091,0.171723,2.2283,32,0.0112752,10,0.000382651,-2.65203,-0.148871,-0.396316,-34.5637,0.171723,
2,1,0,1,0,62228.4,0.173586,0.173265,2.17644,32,0.0113581,10,0.000377102,-2.66225,-0.16362,-0.360592,-30.7915,0.173265,
2,1,0,1,0,62228.4,0.17509,0.174759,2.13544,32,0.0114397,10,0.000373188,-2.67051,-0.179849,-0.328052,-27.4088,0.1747594,
2,1,0,1,0,62228.5,0.176586,0.176247,2.09407,32,0.0115194,10,0.000369073,-2.67901,-0.184244,-0.320227,-26.2114,0.176247,
2,1,0,1,0,62228.5,0.178083,0.17775,2.05891,32,0.0115976,10,0.000365971,-2.68636,-0.195228,-0.302211,-24.3203,0.17775,
2,1,0,1,0,62228.5,0.179582,0.179247,2.02934,32,0.0116746,10,0.000363753,-2.69265,-0.231027,-0.255382,-20.2265,0.179247,
2,1,0,1,0,62228.6,0.181082,0.18078,2.00246,32,0.0117506,10,0.000362004,-2.69844,-0.269221,-0.219151,-17.0969,0.18078,
2,1,0,1,0,62228.6,0.182579,0.182263,1.97353,32,0.0118254,10,0.000359702,-2.70476,-0.262403,-0.224845,-17.3293,0.182263,
2,1,0,1,0,62228.7,0.184075,0.183744,1.94978,32,0.0118992,10,0.00035826,-2.71002,-0.277771,-0.212405,-16.17,0.183744,
2,1,0,1,0,62228.7,0.185579,0.185251,1.92444,32,0.0119725,10,0.000356503,-2.7157,-0.321644,-0.183433,-13.8113,0.185251,
2,1,0,1,0,62228.7,0.187074,0.186749,1.90553,32,0.0120447,10,0.000355856,-2.71998,-0.378144,-0.156025,-11.615,0.186749,
2,1,0,1,0,62228.8,0.18857,0.188191,1.8938,32,0.0121162,10,0.000356396,-2.72267,-0.379995,-0.155265,-11.4547,0.188191,
2,1,0,1,0,62228.8,0.19007,0.189687,1.87353,32,0.0121873,10,0.000355385,-2.72734,-0.423439,-0.139335,-10.192,0.189687,
2,1,0,1,0,62228.8,0.19157,0.191248,1.85901,32,0.0122577,10,0.000355533,-2.73072,-0.436932,-0.135032,-9.78599,0.191248,
2,1,0,1,0,62228.9,0.193066,0.192685,1.84219,32,0.0123274,10,0.000354962,-2.73467,-0.495254,-0.119131,-8.55374,0.192685,
2,1,0,1,0,62228.9,0.194563,0.194191,1.83434,32,0.0123967,10,0.000356212,-2.73652,-0.585421,-0.100782,-7.20138,0.194191,
2,1,0,1,0,62229,0.196063,0.195716,1.81909,32,0.0124657,10,0.000356025,-2.74015,-0.455103,-0.129641,-9.21378,0.195716,
2,1,0,1,0,62229,0.197563,0.197243,1.80266,32,0.0125342,10,0.000355561,-2.74409,-0.65185,-0.0905117,-6.39179,0.197243,
2,1,0,1,0,62229,0.199059,0.19876,1.79919,32,0.0126021,10,0.000357606,-2.74492,-0.585295,-0.100804,-7.08653,0.1987595,
2,1,0,1,0,62229.1,0.200555,0.200199,1.78925,32,0.0126696,10,0.000358204,-2.74733,-0.771708,-0.0764538,-5.3366,0.200199,
2,1,0,1,0,62229.1,0.202059,0.201711,1.78428,32,0.0127373,10,0.000359907,-2.74854,-0.671182,-0.0879047,-6.09872,0.201711,
2,1,0,1,0,62229.1,0.203554,0.203188,1.77485,32,0.0128042,10,0.000360628,-2.75084,-0.808432,-0.0729808,-5.04237,0.203188,
2,1,0,1,0,62229.2,0.20505,0.204691,1.76793,32,0.0128708,10,0.000361879,-2.75253,-1.25451,-0.0470304,-3.24556,0.204691,
2,1,0,1,0,62229.2,0.20655,0.206216,1.75896,32,0.0129374,10,0.000362727,-2.75474,-1.34608,-0.0438311,-3.01193,0.206216,
2,1,0,1,0,62229.3,0.20805,0.207771,1.75273,32,0.0130039,10,0.000364166,-2.75629,-1.00726,-0.058575,-4.01232,0.207771,
2,1,0,1,0,62229.3,0.209546,0.209209,1.74433,32,0.0130699,10,0.000364929,-2.75837,-0.8488,-0.0695099,-4.74865,0.209209,
2,1,0,1,0,62229.3,0.211043,0.210689,1.73923,32,0.0131355,10,0.000366436,-2.75964,-0.685938,-0.0860136,-5.84092,0.210689,
2,1,0,1,0,62229.4,0.212543,0.212209,1.73409,32,0.0132011,10,0.00036799,-2.76093,-1.65452,-0.0356598,-2.41478,0.212209,
2,1,0,1,0,62229.4,0.214043,0.213683,1.73291,32,0.0132666,10,0.000370292,-2.76122,-1.15362,-0.0511435,-3.44683,0.213683,
2,1,0,1,0,62229.4,0.215539,0.215207,1.72819,32,0.0133317,10,0.00037192,-2.76241,-1.05722,-0.0558069,-3.74895,0.215207,
2,1,0,1,0,62229.5,0.217035,0.21667,1.71912,32,0.0133965,10,0.000372481,-2.76469,-1.11631,-0.0528528,-3.54614,0.21667,
2,1,0,1,0,62229.5,0.218538,0.218227,1.71602,32,0.0134615,10,0.000374483,-2.76548,-2.0147,-0.0292847,-1.95813,0.218227,
2,1,0,1,0,62229.6,0.220034,0.219714,1.71047,32,0.013526,10,0.000375815,-2.76688,-2.13668,-0.027613,-1.84353,0.219714,
2,1,0,1,0,62229.6,0.22153,0.221211,1.70375,32,0.0135905,10,0.000376889,-2.76859,-1.51118,-0.0390424,-2.60244,0.221211,
2,1,0,1,0,62229.6,0.22303,0.222672,1.69947,32,0.0136549,10,0.000378425,-2.76969,-1.29639,-0.0455112,-3.02053,0.222672,
2,1,0,1,0,62229.7,0.22453,0.224201,1.69765,32,0.0137191,10,0.000380613,-2.77015,-1.3971,-0.0422303,-2.79832,0.224201,
2,1,0,1,0,62229.7,0.226026,0.225671,1.69731,32,0.013783,10,0.000383032,-2.77024,-9.06118,-0.00651129,-0.430319,0.225671,
2,1,0,1,0,62229.7,0.227523,0.227194,1.69205,32,0.0138468,10,0.000384424,-2.77159,-1.08726,-0.0542649,-3.57668,0.227194,
2,1,0,1,0,62229.8,0.229023,0.228707,1.68906,32,0.0139107,10,0.000386299,-2.77236,-1.20333,-0.0490308,-3.22864,0.228707,
2,1,0,1,0,62229.8,0.230523,0.230214,1.68175,32,0.0139743,10,0.000387164,-2.77424,-2.06398,-0.0285856,-1.88122,0.230214,
2,1,0,1,0,62229.9,0.232019,0.231668,1.68027,32,0.0140377,10,0.000389264,-2.77462,-2.31011,-0.0255399,-1.67712,0.231668,
2,1,0,1,0,62229.9,0.233515,0.233184,1.67467,32,0.0141011,10,0.000390507,-2.77607,-1.7078,-0.0345473,-2.26528,0.233184,
2,1,0,1,0,62229.9,0.235018,0.23466,1.6766,32,0.0141647,10,0.000393432,-2.77557,-1.52693,-0.0386396,-2.525,0.23466,
2,1,0,1,0,62230,0.236514,0.236131,1.67125,32,0.0142277,10,0.000394633,-2.77696,-1.94982,-0.0302592,-1.9773,0.236131,
2,1,0,1,0,62230,0.23801,0.237677,1.67071,32,0.0142907,10,0.000397088,-2.7771,-2.38871,-0.0246995,-1.60616,0.237677,
2,1,0,1,0,62230,0.23951,0.239188,1.66871,32,0.0143538,10,0.000399136,-2.77762,-1.76342,-0.0334577,-2.17605,0.239188,
2,1,0,1,0,62230.1,0.24101,0.240667,1.66475,32,0.0144168,10,0.00040065,-2.77865,-2.0304,-0.0290583,-1.88786,0.240667,
2,1,0,1,0,62230.1,0.242506,0.242189,1.65794,32,0.0144794,10,0.000401536,-2.78043,-2.72509,-0.0216507,-1.40571,0.242189,
2,1,0,1,0,62230.2,0.244003,0.243645,1.65795,32,0.014542,10,0.00040395,-2.78043,-6.40575,-0.00921047,-0.597451,0.2436447,
2,1,0,1,0,62230.2,0.245503,0.245188,1.65819,32,0.0146047,10,0.000406569,-2.78037,-4.03089,-0.014637,-0.947354,0.245188,
2,1,0,1,0,62230.2,0.247003,0.246676,1.65601,32,0.0146674,10,0.000408499,-2.78094,-2.68638,-0.0219627,-1.41828,0.246676,
2,1,0,1,0,62230.3,0.248499,0.248181,1.65039,32,0.0147297,10,0.000409597,-2.78241,-2.61414,-0.0225695,-1.45548,0.248181,
2,1,0,1,0,62230.3,0.249995,0.249647,1.65338,32,0.014792,10,0.00041276,-2.78163,-2.50678,-0.0235362,-1.51532,0.249647,
2,1,0,1,0,62230.3,0.251498,0.251176,1.65283,32,0.0148545,10,0.000415152,-2.78177,-3.77736,-0.0156194,-1.00433,0.251176,
2,1,0,1,0,62230.4,0.252994,0.252648,1.64553,32,0.0149166,10,0.000415739,-2.7837,-1.92915,-0.0305834,-1.96163,0.252648,
2,1,0,1,0,62230.4,0.25449,0.254144,1.64443,32,0.0149787,10,0.000417922,-2.78398,-3.27445,-0.0180183,-1.15722,0.254144,
2,1,0,1,0,62230.5,0.25599,0.255697,1.63938,32,0.0150407,10,0.000419186,-2.78532,-3.23672,-0.0182284,-1.17009,0.255697,
2,1,0,1,0,62230.5,0.25749,0.257141,1.63888,32,0.0151028,10,0.000421422,-2.78545,-6.44828,-0.00914973,-0.58645,0.257141,
2,1,0,1,0,62230.5,0.258987,0.258653,1.63999,32,0.0151646,10,0.000424189,-2.78516,-2.05757,-0.0286746,-1.83341,0.2586526,
2,1,0,1,0,62230.6,0.260483,0.260117,1.63929,32,0.0152263,10,0.000426408,-2.78534,-1.40671,-0.0419417,-2.67293,0.260117,
2,1,0,1,0,62230.6,0.261983,0.261669,1.63669,32,0.0152881,10,0.000428269,-2.78603,-2.19057,-0.0269336,-1.71629,0.261669,
2,1,0,1,0,62230.6,0.263483,0.263125,1.63242,32,0.0153498,10,0.00042953,-2.78717,-126.1,-0.000467882,-0.0297502,0.263125,
2,1,0,1,0,62230.7,0.264978,0.264633,1.62904,32,0.0154112,10,0.000431097,-2.78807,-3.52385,-0.016743,-1.06524,0.264633,
2,1,0,1,0,62230.7,0.266474,0.266141,1.62637,32,0.0154727,10,0.000432844,-2.78878,-4.34154,-0.0135896,-0.863253,0.266141,
2,1,0,1,0,62230.8,0.267977,0.267648,1.62021,32,0.0155343,10,0.000433646,-2.79043,-4.05956,-0.0145336,-0.922629,0.267648,
2,1,0,1,0,62230.8,0.269474,0.269122,1.61842,32,0.0155955,10,0.000435553,-2.79091,-5.34534,-0.0110376,-0.700334,0.269122,
2,1,0,1,0,62230.8,0.27097,0.27062,1.62432,32,0.0156566,10,0.000439572,-2.78933,-3.74551,-0.0157522,-0.995714,0.27062,
2,1,0,1,0,62230.9,0.27247,0.272125,1.62042,32,0.0157179,10,0.000440955,-2.79037,-1.69914,-0.0347235,-2.18908,0.272125,
2,1,0,1,0,62230.9,0.27397,0.27363,1.61778,32,0.0157791,10,0.000442673,-2.79108,-2.18683,-0.0269797,-1.7016,0.27363,
2,1,0,1,0,62230.9,0.275467,0.275132,1.61328,32,0.0158399,10,0.000443864,-2.79229,-1.87272,-0.031505,-1.98391,0.275132,
2,1,0,1,0,62231,0.276963,0.276635,1.61383,32,0.0159008,10,0.000446442,-2.79214,-2.16681,-0.0272289,-1.71281,0.276635,
2,1,0,1,0,62231,0.278463,0.27814,1.60891,32,0.0159617,10,0.000447502,-2.79347,-2.37595,-0.0248322,-1.56094,0.27814,
2,1,0,1,0,62231.1,0.279963,0.279628,1.60499,32,0.0160225,10,0.000448801,-2.79453,-1.97527,-0.0298693,-1.87577,0.279628,
2,1,0,1,0,62231.1,0.281459,0.281112,1.60384,32,0.016083,10,0.000450858,-2.79484,-2.91803,-0.0202191,-1.26746,0.2811124,
2,1,0,1,0,62231.1,0.282954,0.282607,1.6027,32,0.0161434,10,0.000452935,-2.79515,-9.72216,-0.00606861,-0.379078,0.2826072,
2,1,0,1,0,62231.2,0.284458,0.284156,1.60307,32,0.0162041,10,0.000455523,-2.79505,-2.4224,-0.024356,-1.51938,0.284156,
2,1,0,1,0,62231.2,0.285954,0.285605,1.59882,32,0.0162645,10,0.000456631,-2.7962,-1.45215,-0.0406293,-2.52952,0.285605,
2,1,0,1,0,62231.2,0.28745,0.28708,1.59293,32,0.0163246,10,0.000457297,-2.7978,-1.86395,-0.0316532,-1.96858,0.28708,
2,1,0,1,0,62231.3,0.28895,0.288595,1.59049,32,0.0163848,10,0.000459006,-2.79847,-15.3626,-0.00384048,-0.238382,0.288595,
2,1,0,1,0,62231.3,0.29045,0.290119,1.5892,32,0.016445,10,0.000461057,-2.79882,-3.53813,-0.0166755,-1.03565,0.290119,
2,1,0,1,0,62231.4,0.291947,0.291629,1.58566,32,0.0165049,10,0.000462425,-2.79979,-2.04317,-0.0288766,-1.79121,0.291629,
2,1,0,1,0,62231.4,0.293443,0.293092,1.58256,32,0.0165647,10,0.000463837,-2.80064,-2.35276,-0.0250769,-1.5534,0.2930924,
2,1,0,1,0,62231.4,0.294943,0.294618,1.58346,32,0.0166245,10,0.000466517,-2.80039,-2.11403,-0.0279087,-1.72155,0.294618,
2,1,0,1,0,62231.5,0.296443,0.296104,1.58363,32,0.0166843,10,0.000468921,-2.80035,-4.96994,-0.0118714,-0.730886,0.296104,
2,1,0,1,0,62231.5,0.297939,0.29763,1.58143,32,0.0167438,10,0.000470682,-2.80095,-2.26084,-0.0260965,-1.60496,0.29763,
2,1,0,1,0,62231.5,0.299434,0.29911,1.57751,32,0.0168033,10,0.00047185,-2.80203,-0.021545,-2.73845,-150.283,0.29911,
2,1,0,0,0,62231.6,0.299962,0.299689,1.52153,32,0.0168267,10,0.000455987,-2.81772,0.00141492,41.6986,1508.08,0.2996892,
2,1,0,1,0,62231.6,0.298689,0.298362,0.669445,32,0.0168583,10,0.000199737,-3.17429,0.00294176,20.056,446.988,0.298362,
2,1,0,1,0,62231.6,0.297189,0.296826,0.220706,32,0.0168734,10,6.55112e-05,-3.65619,0.00398996,14.7871,247.21,0.2968255,
2,0,0,1,0,62231.7,0.295692,0.295335,-0.026044,32,0.016876,10,-7.69171e-06,-4.58429,0.0221424,2.66457,138.8,0.295335,
2,0,0,1,0,62231.7,0.294196,0.293864,-0.180007,32,0.0168713,10,-5.28977e-05,-3.74471,-0.00441876,-13.3522,87.1059,0.293864,
2,0,0,1,0,62231.7,0.292696,0.292343,-0.285322,32,0.0168619,10,-8.34118e-05,-3.54467,-0.00889165,-6.63544,62.1056,0.292343,
2,0,0,1,0,62231.8,0.291196,0.290835,-0.368423,32,0.0168492,10,-0.00010715,-3.43365,-0.0166434,-3.54495,46.5924,0.290835,
2,0,0,1,0,62231.8,0.2897,0.28935,-0.427116,32,0.0168338,10,-0.000123586,-3.36945,-0.0248832,-2.37108,37.5076,0.28935,
2,0,0,1,0,62231.9,0.288205,0.287879,-0.473159,32,0.0168165,10,-0.000136212,-3.32499,-0.0345133,-1.70948,30.8662,0.287879,
2,0,0,1,0,62231.9,0.286701,0.286384,-0.512695,32,0.0167973,10,-0.000146828,-3.29014,-0.0429345,-1.37419,27.3806,0.286384,
2,0,0,1,0,62231.9,0.285205,0.284841,-0.549266,32,0.0167769,10,-0.000156453,-3.26022,-0.0561125,-1.05146,22.4669,0.284841,
2,0,0,1,0,62232,0.283708,0.283374,-0.581447,32,0.0167551,10,-0.000164767,-3.23549,-0.0650918,-0.906412,20.5678,0.283374,
2,0,0,1,0,62232,0.282208,0.281859,-0.610533,32,0.0167321,10,-0.000172084,-3.21429,-0.07897,-0.74712,17.7515,0.281859,
2,0,0,1,0,62232,0.280709,0.280309,-0.639472,32,0.016708,10,-0.00017925,-3.19418,-0.0907087,-0.650434,16.1328,0.2803092,
2,0,0,1,0,62232.1,0.279212,0.278899,-0.663432,32,0.0166831,10,-0.000185031,-3.1782,-0.103168,-0.571883,14.7224,0.278899,
2,0,0,1,0,62232.1,0.277716,0.277403,-0.688899,32,0.0166574,10,-0.000191103,-3.16184,-0.102376,-0.576308,15.34,0.277403,
2,0,0,1,0,62232.2,0.276216,0.275883,-0.706151,32,0.0166307,10,-0.000194815,-3.1511,-0.114855,-0.513692,14.1103,0.275883,
2,0,0,1,0,62232.2,0.274716,0.274329,-0.7285,32,0.0166032,10,-0.000199848,-3.13757,-0.1272,-0.463836,13.1333,0.274329,
2,0,0,1,0,62232.2,0.27322,0.272886,-0.742799,32,0.0165752,10,-0.000202699,-3.12913,-0.138326,-0.42653,12.4141,0.272886,
2,0,0,1,0,62232.3,0.271725,0.271412,-0.761522,32,0.0165465,10,-0.000206686,-3.11832,-0.13814,-0.427102,12.7258,0.271412,
2,0,0,1,0,62232.3,0.270221,0.269871,-0.779198,32,0.0165169,10,-0.000210283,-3.10835,-0.161767,-0.364721,11.107,0.269871,
2,0,0,1,0,62232.3,0.268725,0.268383,-0.796193,32,0.0164868,10,-0.000213685,-3.09898,-0.200084,-0.294877,9.146,0.2683832,
2,0,0,1,0,62232.4,0.267228,0.266899,-0.80898,32,0.0164562,10,-0.000215916,-3.09206,-0.174509,-0.338092,10.6798,0.266899,
2,0,0,1,0,62232.4,0.265728,0.265345,-0.824848,32,0.016425,10,-0.000218869,-3.08363,-0.185291,-0.318417,10.2291,0.265345,
2,0,0,1,0,62232.5,0.264228,0.263854,-0.840248,32,0.0163932,10,-0.000221702,-3.07559,-0.202217,-0.291766,9.55576,0.263854,
2,0,0,1,0,62232.5,0.262732,0.262394,-0.853633,32,0.016361,10,-0.000223989,-3.06873,-0.231975,-0.254337,8.45931,0.262394,
2,0,0,1,0,62232.5,0.261236,0.260864,-0.862254,32,0.0163282,10,-0.000224931,-3.06436,-0.260566,-0.22643,7.67247,0.260864,
2,0,0,1,0,62232.6,0.259736,0.259388,-0.878312,32,0.016295,10,-0.000227823,-3.05635,-0.258321,-0.228398,7.86082,0.259388,
2,0,0,1,0,62232.6,0.258236,0.257882,-0.894176,32,0.0162612,10,-0.000230592,-3.04858,-0.24874,-0.237196,8.25034,0.257882,
2,0,0,1,0,62232.6,0.256741,0.256415,-0.905235,32,0.016227,10,-0.000232116,-3.04324,-0.280614,-0.210253,7.39791,0.256415,
2,0,0,1,0,62232.7,0.255241,0.254904,-0.917365,32,0.0161924,10,-0.000233841,-3.03746,-0.273422,-0.215784,7.69298,0.254904,
2,0,0,1,0,62232.7,0.253741,0.253386,-0.923871,32,0.0161573,10,-0.000234096,-3.03439,-0.299532,-0.196974,7.11257,0.253386,
2,0,0,1,0,62232.8,0.252245,0.251881,-0.94009,32,0.0161218,10,-0.000236791,-3.02683,-0.264767,-0.222838,8.15287,0.251881,
2,0,0,1,0,62232.8,0.250748,0.250413,-0.951619,32,0.0160859,10,-0.000238298,-3.02154,-0.2893,-0.20394,7.56518,0.250413,
2,0,0,1,0,62232.8,0.249248,0.248904,-0.962307,32,0.0160495,10,-0.000239522,-3.01669,-0.356874,-0.165324,6.20179,0.248904,
2,0,0,1,0,62232.9,0.247748,0.247398,-0.968965,32,0.0160128,10,-0.00023972,-3.01369,-0.30758,-0.19182,7.29892,0.247398,
2,0,0,1,0,62232.9,0.246252,0.245905,-0.98203,32,0.0159757,10,-0.000241487,-3.00788,-0.267348,-0.220686,8.43483,0.245905,
2,0,0,1,0,62232.9,0.244756,0.244397,-0.996108,32,0.0159382,10,-0.000243446,-3.00169,-0.28672,-0.205776,7.96497,0.244397,
2,0,0,1,0,62233,0.243252,0.242892,-1.00276,32,0.0159001,10,-0.000243561,-2.9988,-0.404602,-0.145822,5.68613,0.242892,
2,0,0,1,0,62233,0.241756,0.241423,-1.00947,32,0.0158619,10,-0.000243708,-2.99591,-0.377778,-0.156177,6.16387,0.241423,
2,0,0,1,0,62233.1,0.240261,0.239902,-1.01889,32,0.0158233,10,-0.000244433,-2.99187,-0.347006,-0.170026,6.77495,0.239902,
2,0,0,1,0,62233.1,0.238761,0.238445,-1.03002,32,0.0157842,10,-0.000245602,-2.98716,-0.399671,-0.147621,5.95788,0.238445,
2,0,0,1,0,62233.1,0.237261,0.236955,-1.03763,32,0.0157448,10,-0.000245872,-2.98396,-0.437711,-0.134792,5.47261,0.236955,
2,0,0,1,0,62233.2,0.235765,0.235461,-1.04909,32,0.0157051,10,-0.000247021,-2.97919,-0.445795,-0.132348,5.4246,0.235461,
2,0,0,1,0,62233.2,0.234268,0.233915,-1.05946,32,0.0156652,10,-0.000247823,-2.97492,-0.366106,-0.161156,6.66958,0.233915,
2,0,0,1,0,62233.2,0.232768,0.232416,-1.07005,32,0.0156247,10,-0.000248698,-2.97059,-0.368756,-0.159997,6.65821,0.232416,
2,0,0,1,0,62233.3,0.231268,0.230902,-1.08076,32,0.0155839,10,-0.00024955,-2.96627,-0.379031,-0.15566,6.52317,0.230902,
2,0,0,1,0,62233.3,0.229772,0.229435,-1.08951,32,0.0155427,10,-0.000249972,-2.96277,-0.456788,-0.129163,5.46788,0.229435,
2,0,0,1,0,62233.4,0.228275,0.227917,-1.0945,32,0.0155014,10,-0.000249455,-2.96078,-0.411951,-0.143221,6.12661,0.227917,
2,0,0,1,0,62233.4,0.226772,0.226415,-1.10389,32,0.0154594,10,-0.000249937,-2.95707,-0.353008,-0.167135,7.21871,0.226415,
2,0,0,1,0,62233.4,0.225276,0.224943,-1.1132,32,0.0154174,10,-0.000250406,-2.95343,-0.448422,-0.131572,5.72764,0.224943,
2,0,0,1,0,62233.5,0.223781,0.22339,-1.12299,32,0.015375,10,-0.000250865,-2.94962,-0.404815,-0.145745,6.38898,0.22339,
2,0,0,1,0,62233.5,0.222281,0.221975,-1.12778,32,0.0153322,10,-0.000250339,-2.94777,-0.422825,-0.139538,6.15445,0.221975,
2,0,0,1,0,62233.5,0.220781,0.22046,-1.14111,32,0.015289,10,-0.000251568,-2.94267,-0.418185,-0.141086,6.26394,0.22046,
2,0,0,1,0,62233.6,0.219284,0.218955,-1.15025,32,0.0152456,10,-0.000251852,-2.93921,-0.435422,-0.135501,6.06361,0.218955,
2,0,0,1,0,62233.6,0.217788,0.217472,-1.159,32,0.0152019,10,-0.000252051,-2.93592,-0.652465,-0.0904262,4.0788,0.217472,
2,0,0,1,0,62233.7,0.216288,0.215935,-1.16357,32,0.0151578,10,-0.000251257,-2.93421,-0.465674,-0.126698,5.76618,0.215935,
2,0,0,1,0,62233.7,0.214788,0.214435,-1.17033,32,0.0151134,10,-0.00025096,-2.93169,-0.480745,-0.122726,5.62873,0.214435,
2,0,0,1,0,62233.7,0.213292,0.212914,-1.1811,32,0.0150687,10,-0.000251472,-2.92771,-0.39305,-0.150108,6.92739,0.212914,
2,0,0,1,0,62233.8,0.211796,0.211445,-1.19247,32,0.0150238,10,-0.00025214,-2.92355,-0.54544,-0.10817,5.02157,0.211445,
2,0,0,1,0,62233.8,0.210293,0.209935,-1.20113,32,0.0149782,10,-0.000252161,-2.92041,-0.483755,-0.121963,5.7071,0.209935,
2,0,0,1,0,62233.8,0.208797,0.208476,-1.20867,32,0.0149326,10,-0.000251979,-2.91769,-0.393136,-0.150075,7.08215,0.208476,
2,0,0,1,0,62233.9,0.207301,0.206939,-1.21802,32,0.0148867,10,-0.000252054,-2.91435,-0.425461,-0.138673,6.58643,0.206939,
2,0,0,1,0,62233.9,0.205801,0.205477,-1.23109,32,0.0148402,10,-0.000252961,-2.90971,-0.46059,-0.128097,6.13074,0.205477,
2,0,0,1,0,62234,0.204301,0.203982,-1.23513,32,0.0147934,10,-0.000251944,-2.90829,-0.695824,-0.0847916,4.09608,0.203982,
2,0,0,1,0,62234,0.202804,0.20247,-1.24267,32,0.0147464,10,-0.000251603,-2.90564,-0.652764,-0.0903849,4.39594,0.20247,
2,0,0,1,0,62234,0.201308,0.200986,-1.2478,32,0.0146992,10,-0.000250791,-2.90385,-0.453932,-0.129976,6.37034,0.200986,
2,0,0,1,0,62234.1,0.199808,0.199463,-1.26085,32,0.0146515,10,-0.000251492,-2.89934,-0.504702,-0.116901,5.7514,0.199463,
2,0,0,1,0,62234.1,0.198308,0.197992,-1.27417,32,0.0146035,10,-0.000252275,-2.89477,-0.54673,-0.107914,5.34452,0.197992,
2,0,0,1,0,62234.1,0.196812,0.196436,-1.28042,32,0.0145553,10,-0.000251522,-2.89265,-0.514878,-0.11459,5.70587,0.196436,
2,0,0,1,0,62234.2,0.195316,0.194953,-1.28923,32,0.0145067,10,-0.000251341,-2.88967,-0.446278,-0.132205,6.63345,0.194953,
2,0,0,1,0,62234.2,0.193813,0.193464,-1.29714,32,0.0144576,10,-0.00025095,-2.88701,-0.485158,-0.12161,6.15868,0.193464,
2,0,0,1,0,62234.3,0.192317,0.191967,-1.30345,32,0.0144083,10,-0.000250219,-2.88491,-0.479694,-0.122995,6.26372,0.191967,
2,0,0,1,0,62234.3,0.190821,0.190482,-1.31206,32,0.0143587,10,-0.000249924,-2.88205,-0.4385,-0.13455,6.919,0.190482,
2,0,0,1,0,62234.3,0.189321,0.188975,-1.32318,32,0.0143086,10,-0.000250048,-2.87838,-0.498534,-0.118347,6.13227,0.188975,
2,0,0,1,0,62234.4,0.187821,0.187465,-1.33591,32,0.0142581,10,-0.000250436,-2.87422,-0.457492,-0.128964,6.72224,0.187465,
2,0,0,1,0,62234.4,0.186324,0.186004,-1.34659,32,0.0142074,10,-0.000250471,-2.87077,-0.589746,-0.100043,5.24647,0.186004,
2,0,0,1,0,62234.4,0.184828,0.184477,-1.36026,32,0.0141563,10,-0.000250936,-2.86638,-0.496854,-0.118747,6.27472,0.184477,
2,0,0,1,0,62234.5,0.183328,0.182993,-1.36529,32,0.0141048,10,-0.000249839,-2.86478,-0.448262,-0.13162,7.00964,0.182993,
2,0,0,1,0,62234.5,0.181828,0.181478,-1.37391,32,0.0140529,10,-0.000249333,-2.86204,-0.379129,-0.15562,8.35127,0.181478,
2,0,0,1,0,62234.6,0.180332,0.17998,-1.38764,32,0.0140006,10,-0.000249748,-2.85772,-0.477566,-0.123543,6.6866,0.17998,
2,0,0,1,0,62234.6,0.178836,0.178468,-1.39522,32,0.013948,10,-0.000249003,-2.85536,-0.43035,-0.137098,7.48643,0.178468,
2,0,0,1,0,62234.6,0.177333,0.176982,-1.40699,32,0.0138947,10,-0.000249011,-2.85171,-0.427138,-0.138129,7.60667,0.1769817,
2,0,0,1,0,62234.7,0.175837,0.175472,-1.41922,32,0.0138412,10,-0.000249034,-2.84795,-0.348046,-0.169518,9.3906,0.175472,
2,0,0,1,0,62234.7,0.174341,0.173967,-1.43619,32,0.0137872,10,-0.000249849,-2.84279,-0.347599,-0.169736,9.49707,0.173967,
2,0,0,1,0,62234.7,0.172841,0.172493,-1.44713,32,0.0137326,10,-0.00024962,-2.83949,-0.391223,-0.150809,8.49457,0.172493,
2,0,0,1,0,62234.8,0.171341,0.171032,-1.45618,32,0.0136776,10,-0.000249054,-2.83678,-0.375849,-0.156978,8.93934,0.171032,
2,0,0,1,0,62234.8,0.169844,0.169504,-1.47187,32,0.0136222,10,-0.000249489,-2.83213,-0.378462,-0.155894,8.98284,0.169504,
2,0,0,1,0,62234.9,0.168348,0.167991,-1.48697,32,0.0135662,10,-0.000249798,-2.8277,-0.3151,-0.187242,10.8845,0.167991,
2,0,0,1,0,62234.9,0.166848,0.166506,-1.50185,32,0.0135095,10,-0.000250067,-2.82337,-0.306794,-0.192311,11.3098,0.1665062,
2,0,0,1,0,62234.9,0.165348,0.164989,-1.51906,32,0.0134522,10,-0.000250628,-2.81843,-0.323946,-0.182129,10.8084,0.164989,
2,0,0,1,0,62235,0.163852,0.163513,-1.53741,32,0.0133944,10,-0.000251388,-2.81321,-0.287857,-0.204963,12.2908,0.163513,
2,0,0,1,0,62235,0.162357,0.162009,-1.55698,32,0.013336,10,-0.000252245,-2.80772,-0.264644,-0.222941,13.5251,0.162009,
2,0,0,1,0,62235,0.160853,0.160498,-1.5801,32,0.0132766,10,-0.000253604,-2.80131,-0.284082,-0.207687,12.7566,0.160498,
2,0,0,1,0,62235.1,0.159357,0.158985,-1.59507,32,0.0132166,10,-0.000253593,-2.79722,-0.272665,-0.216383,13.4765,0.158985,
2,0,0,1,0,62235.1,0.157861,0.15751,-1.61376,32,0.013156,10,-0.000254184,-2.79216,-0.240712,-0.245106,15.499,0.15751,
2,0,0,1,0,62235.2,0.156361,0.156047,-1.63943,32,0.0130944,10,-0.000255828,-2.78531,-0.212578,-0.277546,17.8048,0.156047,
2,0,0,1,0,62235.2,0.154861,0.154496,-1.67081,32,0.0130317,10,-0.000258133,-2.77707,-0.212496,-0.277653,18.1201,0.154496,
2,0,0,1,0,62235.2,0.153364,0.152998,-1.69785,32,0.0129681,10,-0.000259768,-2.7701,-0.208023,-0.283622,18.8005,0.152998,
2,0,0,1,0,62235.3,0.151868,0.151516,-1.72657,32,0.0129035,10,-0.000261603,-2.76281,-0.191295,-0.308424,20.8303,0.151516,
2,0,0,1,0,62235.3,0.150368,0.149993,-1.76218,32,0.0128375,10,-0.000264314,-2.75395,-0.159755,-0.369315,25.4017,0.149993,
2,0,0,1,0,62235.3,0.148868,0.148523,-1.80419,32,0.0127702,10,-0.000267965,-2.74372,-0.150827,-0.391177,27.4966,0.148523,
2,0,0,1,0,62235.4,0.147372,0.147044,-1.84258,32,0.0127015,10,-0.000270941,-2.73457,-0.14477,-0.407543,29.3119,0.147044,
2,0,0,1,0,62235.4,0.145877,0.1455,-1.88709,32,0.0126311,10,-0.000274571,-2.72421,-0.135429,-0.435654,32.1992,0.1455,
2,0,0,1,0,62235.5,0.144373,0.144022,-1.93781,32,0.0125586,10,-0.000279087,-2.71269,-0.122866,-0.480198,36.4817,0.1440222,
2,0,0,1,0,62235.5,0.142877,0.142505,-1.99666,32,0.0124845,10,-0.000284534,-2.6997,-0.116693,-0.505601,39.4839,0.142505,
2,0,0,1,0,62235.5,0.14138,0.141014,-2.06089,32,0.0124079,10,-0.000290613,-2.68595,-0.109798,-0.537351,43.1932,0.141014,
2,0,0,1,0,62235.6,0.13988,0.139549,-2.1269,32,0.0123288,10,-0.000296808,-2.67225,-0.108371,-0.544424,45.2654,0.139549,
2,0,0,1,0,62235.6,0.13838,0.138044,-2.20259,32,0.0122472,10,-0.000304054,-2.65707,-0.0989727,-0.596124,51.2605,0.138044,
2,0,0,1,0,62235.6,0.136884,0.136564,-2.28108,32,0.0121628,10,-0.000311513,-2.64186,-0.0951652,-0.619975,55.1915,0.136564,
2,0,0,1,0,62235.7,0.135388,0.135033,-2.36323,32,0.0120753,10,-0.000319115,-2.62649,-0.0932515,-0.632697,58.3721,0.135033,
2,0,0,1,0,62235.7,0.133888,0.133545,-2.45333,32,0.0119844,10,-0.000327631,-2.61024,-0.0956085,-0.6171,59.0696,0.133545,
2,0,0,1,0,62235.7,0.132389,0.132057,-2.53933,32,0.0118902,10,-0.000335336,-2.59528,-0.0975694,-0.604698,60.0241,0.132057,
2,0,0,1,0,62235.8,0.130893,0.130538,-2.62817,32,0.0117929,10,-0.000343075,-2.58035,-0.0957259,-0.616343,63.2972,0.130538,
2,0,0,1,0,62235.8,0.129393,0.129003,-2.72624,32,0.0116919,10,-0.000351694,-2.56444,-0.0998209,-0.591058,62.7843,0.1290033,
2,0,0,1,0,62235.9,0.127893,0.127526,-2.81873,32,0.0115873,10,-0.00035946,-2.54995,-0.110246,-0.535169,58.7263,0.127526,
2,0,0,1,0,62235.9,0.126397,0.126043,-2.90592,32,0.0114797,10,-0.000366272,-2.53672,-0.113239,-0.521023,59.0161,0.126043,
2,0,0,1,0,62235.9,0.1249,0.124561,-2.99669,32,0.0113687,10,-0.000373272,-2.52336,-0.117654,-0.501471,58.4889,0.124561,
2,0,0,1,0,62236,0.1234,0.123043,-3.07978,32,0.0112542,10,-0.000378945,-2.51148,-0.120465,-0.489768,58.833,0.123043,
2,0,0,1,0,62236,0.1219,0.121562,-3.16564,32,0.0111365,10,-0.000384823,-2.49954,-0.134309,-0.439287,54.1789,0.121562,
2,0,0,1,0,62236,0.120404,0.12005,-3.24086,32,0.011016,10,-0.000389064,-2.48934,-0.145916,-0.404342,51.1786,0.12005,
2,0,0,1,0,62236.1,0.118908,0.11854,-3.32137,32,0.0108926,10,-0.000393717,-2.47868,-0.152795,-0.386138,50.0618,0.11854,
2,0,0,1,0,62236.1,0.117404,0.117078,-3.39573,32,0.0107657,10,-0.000397566,-2.46907,-0.159135,-0.370754,49.0888,0.1170782,
2,0,0,1,0,62236.2,0.115909,0.115548,-3.47067,32,0.0106366,10,-0.000401027,-2.45959,-0.18089,-0.326164,44.0174,0.115548,
2,0,0,1,0,62236.2,0.114413,0.114082,-3.53934,32,0.010505,10,-0.000403775,-2.45108,-0.18973,-0.310968,42.7844,0.114082,
2,0,0,1,0,62236.2,0.112913,0.11256,-3.59496,32,0.0103708,10,-0.000404648,-2.44431,-0.213663,-0.276136,38.6902,0.11256,
2,0,0,1,0,62236.3,0.111413,0.111041,-3.64973,32,0.0102344,10,-0.00040527,-2.43774,-0.234234,-0.251885,35.8461,0.111041,
2,0,0,1,0,62236.3,0.109917,0.109566,-3.70099,32,0.0100962,10,-0.000405503,-2.43168,-0.270308,-0.21827,31.494,0.109566,
2,0,0,1,0,62236.3,0.10842,0.108096,-3.74376,32,0.00995626,10,-0.000404685,-2.42669,-0.305289,-0.193259,28.2197,0.108096,
2,0,0,1,0,62236.4,0.10692,0.106559,-3.7846,32,0.00981446,10,-0.000403284,-2.42198,-0.371129,-0.158974,23.4622,0.1065593,
2,0,0,1,0,62236.4,0.10542,0.105084,-3.8173,32,0.00967129,10,-0.000401135,-2.41824,-0.438282,-0.134617,20.0136,0.105084,
2,0,0,1,0,62236.5,0.103924,0.103532,-3.84969,32,0.00952736,10,-0.000398566,-2.41457,-0.60006,-0.0983235,14.7186,0.103532,
2,0,0,1,0,62236.5,0.102427,0.102068,-3.86692,32,0.00938256,10,-0.00039469,-2.41263,-0.872201,-0.0676449,10.1771,0.102068,
2,0,0,1,0,62236.5,0.100924,0.100575,-3.87158,32,0.00923647,10,-0.000389385,-2.41211,-1.45145,-0.0406489,6.14126,0.100575,
2,0,0,1,0,62236.6,0.0994284,0.0990813,-3.88206,32,0.00909085,10,-0.000384639,-2.41094,-3.7181,-0.0158683,2.4015,0.0990813,
2,0,0,1,0,62236.6,0.0979329,0.0975688,-3.87917,32,0.00894504,10,-0.000378486,-2.41126,-33.5074,-0.0017608,0.266653,0.0975688,
2,0,0,1,0,62236.6,0.0964329,0.0960892,-3.87782,32,0.0087989,10,-0.000372617,-2.41141,1.74283,0.0338529,-5.1195,0.0960892,
2,0,0,1,0,62236.7,0.094933,0.0945661,-3.86524,32,0.00865302,10,-0.00036552,-2.41282,1.20827,0.0488302,-7.36454,0.0945661,
2,0,0,1,0,62236.7,0.0934366,0.0931195,-3.85326,32,0.00850807,10,-0.000358813,-2.41417,0.90766,0.0650023,-9.77377,0.0931195,
2,0,0,1,0,62236.8,0.0919401,0.0916144,-3.84112,32,0.0083636,10,-0.000351902,-2.41554,0.912704,0.0646431,-9.67071,0.0916144,
2,0,0,1,0,62236.8,0.0904402,0.0900558,-3.82444,32,0.00821931,10,-0.000344413,-2.41743,0.683862,0.0862747,-12.8483,0.0900558,
2,0,0,1,0,62236.8,0.0889402,0.0886076,-3.8041,32,0.00807573,10,-0.000337072,-2.41975,0.62302,0.0947001,-14.0449,0.0886076,
2,0,0,1,0,62236.9,0.0874438,0.0870787,-3.77954,32,0.00793341,10,-0.000329117,-2.42256,0.597487,0.0987469,-14.5731,0.0870787,
2,0,0,1,0,62236.9,0.0859483,0.0855806,-3.75824,32,0.00779185,10,-0.000321633,-2.42502,0.694733,0.0849247,-12.4662,0.0855806,
2,0,0,1,0,62236.9,0.0844447,0.0840907,-3.7362,32,0.00765028,10,-0.00031418,-2.42757,0.666236,0.0885572,-12.9333,0.0840907,
2,0,0,1,0,62237,0.0829492,0.0826156,-3.72061,32,0.00751022,10,-0.00030738,-2.42939,0.645471,0.0914061,-13.2674,0.0826156,
2,0,0,1,0,62237,0.0814528,0.0811247,-3.69855,32,0.00737095,10,-0.000300044,-2.43197,0.62028,0.0951184,-13.7324,0.0811247,
2,0,0,1,0,62237.1,0.0799528,0.0796093,-3.6802,32,0.00723203,10,-0.000292979,-2.43413,0.861569,0.0684797,-9.83407,0.0796093,
2,0,0,1,0,62237.1,0.0784529,0.0781292,-3.66448,32,0.00709371,10,-0.000286303,-2.43599,0.791309,0.07456,-10.6619,0.07812918,
2,0,0,1,0,62237.1,0.0769565,0.0766286,-3.65023,32,0.00695633,10,-0.000279712,-2.43768,0.748808,0.0787919,-11.2233,0.0766286,
2,0,0,1,0,62237.2,0.0754601,0.0751486,-3.62669,32,0.0068196,10,-0.000272541,-2.44049,0.829087,0.0711626,-10.0909,0.07514865,
2,0,0,1,0,62237.2,0.0739601,0.0736191,-3.61375,32,0.00668315,10,-0.000266041,-2.44204,0.949303,0.0621508,-8.78012,0.0736191,
2,0,0,1,0,62237.2,0.0724601,0.0721156,-3.59926,32,0.00654721,10,-0.000259563,-2.44379,1.01527,0.0581125,-8.17304,0.0721156,
2,0,0,1,0,62237.3,0.0709637,0.0706135,-3.58994,32,0.00641211,10,-0.000253499,-2.44491,0.836056,0.0705694,-9.88312,0.0706135,
2,0,0,1,0,62237.3,0.0694682,0.0690668,-3.57648,32,0.00627751,10,-0.000247016,-2.44654,0.869633,0.0678447,-9.46451,0.0690668,
2,0,0,1,0,62237.4,0.0679647,0.0676424,-3.56175,32,0.00614281,10,-0.000240925,-2.44834,0.984975,0.0599,-8.32888,0.0676424,
2,0,0,1,0,62237.4,0.0664691,0.0661154,-3.54944,32,0.00600929,10,-0.000234673,-2.44984,0.963464,0.0612374,-8.47573,0.0661154,
2,0,0,1,0,62237.4,0.0649727,0.0646247,-3.53279,32,0.00587619,10,-0.000228306,-2.45188,0.805238,0.0732702,-10.1035,0.0646247,
2,0,0,1,0,62237.5,0.0634727,0.0631361,-3.51764,32,0.00574331,10,-0.00022209,-2.45375,0.622438,0.0947885,-13.0212,0.0631361,
2,0,0,1,0,62237.5,0.0619728,0.0615858,-3.49921,32,0.00561111,10,-0.000215501,-2.45603,0.770007,0.0766227,-10.4794,0.06158575,
2,0,0,1,0,62237.5,0.0604764,0.0600968,-3.48559,32,0.00547986,10,-0.000209473,-2.45772,0.815328,0.0723635,-9.84526,0.0600968,
2,0,0,1,0,62237.6,0.05898,0.0586458,-3.47035,32,0.00534915,10,-0.000203521,-2.45963,0.799044,0.0738382,-9.99874,0.0586458,
2,0,0,1,0,62237.6,0.05748,0.0571051,-3.45726,32,0.0052187,10,-0.000197427,-2.46127,0.638741,0.0923692,-12.4435,0.0571051,
2,0,0,1,0,62237.7,0.05598,0.0555978,-3.43852,32,0.00508894,10,-0.000191174,-2.46363,0.672575,0.0877226,-11.7571,0.05559779,
2,0,0,1,0,62237.7,0.0544836,0.0541468,-3.42114,32,0.00496017,10,-0.000185244,-2.46583,0.773228,0.0763035,-10.1748,0.0541468,
2,0,0,1,0,62237.7,0.0529881,0.0526106,-3.40363,32,0.00483198,10,-0.000179067,-2.46806,0.713279,0.0827166,-10.984,0.0526106,
2,0,0,1,0,62237.8,0.0514846,0.0511562,-3.38295,32,0.00470375,10,-0.000173059,-2.4707,0.609226,0.0968442,-12.7966,0.05115623,
2,0,0,1,0,62237.8,0.049989,0.0496342,-3.36145,32,0.00457694,10,-0.000166843,-2.47347,0.561764,0.105026,-13.8015,0.0496342,
2,0,0,1,0,62237.8,0.0484926,0.048135,-3.34379,32,0.00445088,10,-0.000160953,-2.47576,0.649545,0.0908328,-11.8713,0.048135,
2,0,0,1,0,62237.9,0.0469927,0.0466454,-3.33054,32,0.00432515,10,-0.000155354,-2.47748,0.650578,0.0906886,-11.7742,0.0466454,
2,0,0,1,0,62237.9,0.0454927,0.0451301,-3.30909,32,0.00420009,10,-0.000149339,-2.48029,0.547042,0.107853,-13.9139,0.0451301,
2,0,0,1,0,62238,0.0439963,0.0436512,-3.29055,32,0.00407609,10,-0.000143637,-2.48273,0.552578,0.106772,-13.6979,0.0436512,
2,0,0,1,0,62238,0.0424999,0.0421532,-3.26948,32,0.00395294,10,-0.000137819,-2.48552,0.561161,0.105139,-13.4106,0.0421532,
2,0,0,1,0,62238,0.0409999,0.0406568,-3.24955,32,0.0038302,10,-0.000132117,-2.48818,0.580162,0.101696,-12.8931,0.0406568,
2,0,0,1,0,62238.1,0.0394999,0.0391689,-3.22872,32,0.00370812,10,-0.000126465,-2.49097,0.52198,0.113031,-14.2403,0.0391689,
2,0,0,1,0,62238.1,0.0380044,0.0376296,-3.20543,32,0.0035872,10,-0.000120619,-2.49411,0.475445,0.124094,-15.5318,0.0376296,
2,0,0,1,0,62238.1,0.0365089,0.0361891,-3.18209,32,0.00346719,10,-0.000115157,-2.49729,0.491283,0.120094,-14.919,0.0361891,
2,0,0,1,0,62238.2,0.0350054,0.0346621,-3.16362,32,0.00334737,10,-0.000109658,-2.49982,0.497109,0.118686,-14.6283,0.0346621,
2,0,0,1,0,62238.2,0.033509,0.033123,-3.14181,32,0.00322898,10,-0.000104066,-2.50282,0.485989,0.121402,-14.8608,0.033123,
2,0,0,1,0,62238.3,0.0320125,0.031657,-3.11539,32,0.00311144,10,-9.8624e-05,-2.50649,0.450848,0.130865,-15.9101,0.03165701,
2,0,0,1,0,62238.3,0.0305126,0.0301521,-3.08837,32,0.00299453,10,-9.31209e-05,-2.51027,0.466898,0.126366,-15.2387,0.0301521,
2,0,0,1,0,62238.3,0.0290126,0.0286688,-3.06509,32,0.00287848,10,-8.78725e-05,-2.51356,0.483177,0.122108,-14.6263,0.0286688,
2,0,0,1,0,62238.4,0.0275162,0.0271347,-3.04632,32,0.00276356,10,-8.26609e-05,-2.51622,0.471568,0.125115,-14.8811,0.0271347,
2,0,0,1,0,62238.4,0.0260198,0.0256503,-3.01895,32,0.00264947,10,-7.74371e-05,-2.52014,0.423524,0.139307,-16.4397,0.0256503,
2,0,0,1,0,62238.4,0.0245198,0.0241667,-2.99609,32,0.00253594,10,-7.24057e-05,-2.52344,0.436335,0.135217,-15.8308,0.0241667,
2,0,0,1,0,62238.5,0.0230198,0.0226815,-2.97843,32,0.00242336,10,-6.75554e-05,-2.52601,0.446412,0.132165,-15.3459,0.02268154,
2,0,0,1,0,62238.5,0.0215243,0.0211433,-2.95934,32,0.00231185,10,-6.25702e-05,-2.52881,0.51566,0.114417,-13.1919,0.0211433,
2,0,0,1,0,62238.6,0.0200288,0.0196674,-2.93739,32,0.00220112,10,-5.77709e-05,-2.53204,0.454082,0.129933,-14.8572,0.0196674,
2,0,0,1,0,62238.6,0.0185253,0.0181584,-2.91454,32,0.00209056,10,-5.29233e-05,-2.53543,0.475199,0.124159,-14.115,0.0181584,
2,0,0,1,0,62238.6,0.0170289,0.0166525,-2.89247,32,0.00198146,10,-4.81668e-05,-2.53873,0.544494,0.108357,-12.2467,0.0166525,
2,0,0,1,0,62238.7,0.0155325,0.0151451,-2.87052,32,0.00187307,10,-4.34743e-05,-2.54204,0.590192,0.0999675,-11.2284,0.0151451,
2,0,0,1,0,62238.7,0.0140325,0.0136806,-2.85538,32,0.00176498,10,-3.90633e-05,-2.54434,0.617151,0.0956005,-10.6633,0.0136806,
2,0,0,1,0,62238.7,0.0125325,0.0121787,-2.83939,32,0.00165754,10,-3.45802e-05,-2.54677,0.584135,0.101004,-11.203,0.0121787,
2,0,0,1,0,62238.8,0.0110361,0.0106898,-2.8228,32,0.00155111,10,-3.0175e-05,-2.54932,0.583831,0.101057,-11.1344,0.0106898,
2,0,0,1,0,62238.8,0.0095397,0.00922839,-2.81171,32,0.00144525,10,-2.59476e-05,-2.55103,0.684831,0.0861527,-9.43436,0.00922839,
2,0,0,1,0,62238.9,0.00803616,0.00767277,-2.79549,32,0.00133932,10,-2.14492e-05,-2.55354,0.690475,0.0854484,-9.31155,0.00767277,
2,0,0,1,0,62238.9,0.00654064,0.00616385,-2.78085,32,0.00123449,10,-1.71407e-05,-2.55582,0.702338,0.0840052,-9.11607,0.00616385,
2,0,0,1,0,62238.9,0.00504513,0.00472634,-2.76203,32,0.00113018,10,-1.30543e-05,-2.55877,0.856521,0.0688833,-7.44941,0.00472634,
2,0,0,1,0,62239,0.00354515,0.00318607,-2.75588,32,0.00102602,10,-8.78043e-06,-2.55974,4.32367,0.0136458,-1.47474,0.00318607,
2,0,0,1,0,62239,0.00204518,0.00168208,-2.77405,32,0.000921974,10,-4.66617e-06,-2.55689,1.75498,0.0336186,-3.616,0.00168208,
2,0,0,1,0,62239,0.000548773,0.000207588,-2.75265,32,0.000818075,10,-5.71415e-07,-2.56025, , , ,0.000207588,
2,0,0,1,0,62239.1,0.000177222,-0.000214235,-2.74901,32,0.000792338,10,5.88935e-07,-2.56082, , , ,-0.000214235,