File: Figure_codes/Fig_3-5/rawdata_trumpetplot_data/after 10th/20221101_1-115_003_TrumpetPlot_ParaChange_from10_every3_10_CV_C01_8.csv
mode,ox/red,error,control changes,counter inc.,time/s,control/V,Ewe/V,<I>/mA,cycle number,(Q-Qo)/C,I Range,P/W,log(|I|),Tafel slope mV/dec,alpha_eff,dI/d(E-IR),E-IR/V,
2,1,0,0,0,16951.6,-2.44065e-05,-0.000363498,5.36539,9,0.0000000E+000,10,-1.95031e-06,-2.2704, , , ,-0.000363498,
2,1,0,1,0,16951.6,0.00179726,0.00141639,6.39428,9,5.24086e-05,10,9.05682e-06,-2.19421, , , ,0.00141639,
2,1,0,1,0,16951.6,0.00379485,0.00349373,7.18081,9,0.000120729,10,2.50878e-05,-2.14383,0.0488419,1.20798,332.257,0.00349373,
2,1,0,1,0,16951.6,0.00579244,0.00547961,7.74431,9,0.000195546,10,4.24358e-05,-2.11102,0.0689887,0.855213,256.193,0.00547961,
2,1,0,1,0,16951.6,0.00779002,0.0074456,8.19326,9,0.000275331,10,6.10037e-05,-2.08654,0.0879361,0.670942,213.61,0.0074456,
2,1,0,1,0,16951.6,0.00977853,0.00941875,8.58575,9,0.000358522,10,8.08671e-05,-2.06622,0.113001,0.522119,173.944,0.009418752,
2,1,0,1,0,16951.6,0.0117761,0.0114455,8.88901,9,0.000446002,10,0.000101739,-2.05115,0.141541,0.416841,144.324,0.0114455,
2,1,0,1,0,16951.6,0.0137737,0.0134245,9.16388,9,0.000536324,10,0.00012302,-2.03792,0.16778,0.351651,125.406,0.0134245,
2,1,0,1,0,16951.6,0.0157713,0.0154503,9.39124,9,0.000629178,10,0.000145098,-2.02728,0.18794,0.31393,115.079,0.0154503,
2,1,0,1,0,16951.7,0.017778,0.017438,9.62575,9,0.000724361,10,0.000167854,-2.01657,0.21917,0.269197,100.773,0.017438,
2,1,0,1,0,16951.7,0.0197755,0.0194639,9.7957,9,0.000821471,10,0.000190662,-2.00896,0.259685,0.227198,86.8918,0.0194639,
2,1,0,1,0,16951.7,0.0217731,0.0214646,9.97562,9,0.000920362,10,0.000214123,-2.00106,0.273324,0.215861,83.9224,0.0214646,
2,1,0,1,0,16951.7,0.0237707,0.0234462,10.1299,9,0.00102092,10,0.000237508,-1.99439,0.28703,0.205553,81.3194,0.0234462,
2,1,0,1,0,16951.7,0.0257774,0.025453,10.3,9,0.00112307,10,0.000262164,-1.98716,0.312977,0.188512,75.6353,0.025453,
2,1,0,1,0,16951.7,0.027775,0.0274528,10.4329,9,0.00122672,10,0.000286414,-1.98159,0.339118,0.173981,70.8998,0.0274528,
2,1,0,1,0,16951.7,0.0297726,0.0294752,10.5851,9,0.00133184,10,0.000311999,-1.9753,0.362663,0.162686,67.0911,0.0294752,
2,1,0,1,0,16951.7,0.0317701,0.0314663,10.7022,9,0.00143835,10,0.00033676,-1.97053,0.349955,0.168593,70.5672,0.0314663,
2,1,0,1,0,16951.7,0.0337586,0.0334584,10.8662,9,0.00154516,10,0.000363567,-1.96392,0.326811,0.180532,76.4537,0.03345843,
2,1,0,1,0,16951.7,0.0357562,0.0353831,11.0017,9,0.00165452,10,0.000389273,-1.95854,0.374063,0.157728,67.711,0.0353831,
2,1,0,1,0,16951.8,0.0377538,0.0374222,11.1346,9,0.00176523,10,0.000416682,-1.95332,0.377668,0.156222,67.9104,0.0374222,
2,1,0,1,0,16951.8,0.0397514,0.0394328,11.2767,9,0.00187732,10,0.000444671,-1.94782,0.334483,0.176391,77.7097,0.03943276,
2,1,0,1,0,16951.8,0.0417399,0.0413996,11.4437,9,0.00198975,10,0.000473764,-1.94143,0.35557,0.165931,73.9702,0.0413996,
2,1,0,1,0,16951.8,0.0437375,0.0433959,11.5698,9,0.00210485,10,0.000502084,-1.93667,0.374961,0.15735,71.1442,0.0433959,
2,1,0,1,0,16951.8,0.0457351,0.0453992,11.7282,9,0.0022213,10,0.000532453,-1.93077,0.369361,0.159735,73.0311,0.0453992,
2,1,0,1,0,16951.8,0.0477327,0.0473886,11.8614,9,0.00233922,10,0.000562097,-1.92586,0.359875,0.163946,76.0098,0.0473886,
2,1,0,1,0,16951.8,0.0497393,0.0494015,12.0325,9,0.00245867,10,0.000594421,-1.91965,0.359489,0.164122,76.9467,0.0494015,
2,1,0,1,0,16951.8,0.0517369,0.051351,12.1663,9,0.00257968,10,0.000624753,-1.91484,0.365416,0.16146,76.7771,0.051351,
2,1,0,1,0,16951.8,0.0537345,0.053376,12.3376,9,0.00270221,10,0.000658532,-1.90877,0.361376,0.163265,78.5417,0.053376,
2,1,0,1,0,16951.8,0.0557321,0.0554504,12.4883,9,0.00282636,10,0.000692481,-1.9035,0.377781,0.156175,76.1223,0.0554504,
2,1,0,1,0,16951.9,0.0577297,0.0573765,12.6421,9,0.00295201,10,0.000725361,-1.89818,0.368599,0.160066,78.9883,0.0573765,
2,1,0,1,0,16951.9,0.0597364,0.0594215,12.802,9,0.00307929,10,0.000760711,-1.89272,0.361454,0.16323,81.5729,0.05942145,
2,1,0,1,0,16951.9,0.0617339,0.0613892,12.9695,9,0.00320813,10,0.000796184,-1.88708,0.396155,0.148932,75.2684,0.0613892,
2,1,0,1,0,16951.9,0.0637315,0.0633638,13.0987,9,0.00333849,10,0.000829984,-1.88277,0.420227,0.1404,71.8461,0.06336385,
2,1,0,1,0,16951.9,0.0657291,0.0653741,13.2558,9,0.00347026,10,0.000866583,-1.8776,0.378469,0.155891,80.6707,0.0653741,
2,1,0,1,0,16951.9,0.0677176,0.0673694,13.4218,9,0.00360238,10,0.000904222,-1.87219,0.381363,0.154708,81.0221,0.0673694,
2,1,0,1,0,16951.9,0.0697152,0.0694245,13.5839,9,0.00373744,10,0.000943058,-1.86697,0.398357,0.148108,78.4893,0.06942451,
2,1,0,1,0,16951.9,0.0717128,0.0713889,13.7373,9,0.00387405,10,0.000980692,-1.8621,0.395548,0.14916,79.9877,0.0713889,
2,1,0,1,0,16951.9,0.0737104,0.0733581,13.8986,9,0.00401227,10,0.00101957,-1.85703,0.411941,0.143224,77.647,0.0733581,
2,1,0,1,0,16951.9,0.0756989,0.0753706,14.0465,9,0.00415068,10,0.00105869,-1.85243,0.423469,0.139326,76.4012,0.07537064,
2,1,0,1,0,16952,0.0776965,0.0773618,14.2045,9,0.00429191,10,0.00109888,-1.84758,0.453393,0.13013,72.0641,0.0773618,
2,1,0,1,0,16952,0.0796941,0.0793634,14.3342,9,0.00443463,10,0.00113761,-1.84363,0.457589,0.128937,72.209,0.0793634,
2,1,0,1,0,16952,0.0816917,0.0814066,14.4965,9,0.00457879,10,0.00118011,-1.83874,0.452989,0.130246,73.6112,0.0814066,
2,1,0,1,0,16952,0.0836983,0.0833804,14.6299,9,0.00472439,10,0.00121985,-1.83476,0.485757,0.12146,69.3609,0.0833804,
2,1,0,1,0,16952,0.0856959,0.0853386,14.7693,9,0.00487141,10,0.00126039,-1.83064,0.512268,0.115174,66.3563,0.08533857,
2,1,0,1,0,16952,0.0876935,0.0873922,14.8961,9,0.00501978,10,0.0013018,-1.82693,0.520543,0.113343,65.9157,0.0873922,
2,1,0,1,0,16952,0.0896911,0.0893634,15.0346,9,0.00516945,10,0.00134354,-1.82291,0.504459,0.116957,68.6112,0.0893634,
2,1,0,1,0,16952,0.0916978,0.0913537,15.1679,9,0.00532047,10,0.00138565,-1.81907,0.502564,0.117398,69.5203,0.09135367,
2,1,0,1,0,16952,0.0936953,0.0933743,15.3134,9,0.00547291,10,0.00142988,-1.81493,0.556586,0.106003,63.2779,0.0933743,
2,1,0,1,0,16952,0.0956929,0.0954028,15.4241,9,0.00562659,10,0.00147151,-1.8118,0.556358,0.106047,63.9062,0.0954028,
2,1,0,1,0,16952.1,0.0976905,0.0973861,15.5698,9,0.00578153,10,0.00151628,-1.80772,0.504954,0.116842,70.9689,0.0973861,
2,1,0,1,0,16952.1,0.099679,0.0993391,15.7035,9,0.00593632,10,0.00155997,-1.804,0.520867,0.113273,69.4381,0.0993391,
2,1,0,1,0,16952.1,0.101677,0.101366,15.8462,9,0.00609411,10,0.00160627,-1.80008,0.511655,0.115312,71.3138,0.101366,
2,1,0,1,0,16952.1,0.103674,0.103363,15.9905,9,0.0062533,10,0.00165283,-1.79614,0.458713,0.128621,80.3472,0.103363,
2,1,0,1,0,16952.1,0.105672,0.105371,16.1679,9,0.00641409,10,0.00170362,-1.79135,0.43175,0.136653,86.1869,0.1053707,
2,1,0,1,0,16952.1,0.107656,0.107325,16.332,9,0.00657495,10,0.00175284,-1.78696,0.406892,0.145002,92.5251,0.107325,
2,1,0,1,0,16952.1,0.109658,0.109326,16.5339,9,0.00673928,10,0.00180758,-1.78163,0.385562,0.153024,98.7146,0.109326,
2,1,0,1,0,16952.1,0.111655,0.111343,16.7286,9,0.0069056,10,0.00186262,-1.77654,0.369789,0.15955,104.245,0.111343,
2,1,0,1,0,16952.1,0.113653,0.113327,16.9509,9,0.00707401,10,0.00192099,-1.77081,0.355589,0.165922,109.73,0.113327,
2,1,0,1,0,16952.1,0.115651,0.115317,17.1646,9,0.00724458,10,0.00197937,-1.76537,0.327587,0.180105,120.847,0.115317,
2,1,0,1,0,16952.2,0.117657,0.117349,17.437,9,0.00741765,10,0.00204621,-1.75853,0.319381,0.184733,125.576,0.117349,
2,1,0,1,0,16952.2,0.119655,0.119372,17.6739,9,0.00759321,10,0.00210977,-1.75267,0.326987,0.180435,124.541,0.119372,
2,1,0,1,0,16952.2,0.121652,0.121364,17.937,9,0.00777128,10,0.00217691,-1.74625,0.317227,0.185987,130.143,0.121364,
2,1,0,1,0,16952.2,0.12365,0.123324,18.1882,9,0.00795192,10,0.00224304,-1.74021,0.310347,0.19011,135.065,0.123324,
2,1,0,1,0,16952.2,0.125657,0.125343,18.4744,9,0.00813529,10,0.00231564,-1.73343,0.325899,0.181038,130.33,0.125343,
2,1,0,1,0,16952.2,0.127654,0.127305,18.7071,9,0.00832125,10,0.00238151,-1.72799,0.340696,0.173175,126.54,0.127305,
2,1,0,1,0,16952.2,0.129652,0.129291,18.974,9,0.00850973,10,0.00245316,-1.72184,0.342451,0.172288,127.512,0.1292906,
2,1,0,1,0,16952.2,0.131649,0.131357,19.2237,9,0.00870077,10,0.00252517,-1.71616,0.358867,0.164406,123.316,0.131357,
2,1,0,1,0,16952.2,0.133638,0.133286,19.4667,9,0.00889236,10,0.00259463,-1.71071,0.383965,0.15366,116.644,0.133286,
2,1,0,1,0,16952.2,0.135636,0.135266,19.6797,9,0.00908817,10,0.00266199,-1.70598,0.411162,0.143496,110.258,0.135266,
2,1,0,1,0,16952.3,0.137633,0.13732,19.9114,9,0.00928617,10,0.00273423,-1.7009,0.441897,0.133515,103.637,0.1373197,
2,1,0,1,0,16952.3,0.139631,0.139327,20.1005,9,0.00948628,10,0.00280055,-1.69679,0.468429,0.125953,98.8307,0.139327,
2,1,0,1,0,16952.3,0.141619,0.141265,20.3014,9,0.00968625,10,0.00286788,-1.69247,0.491456,0.120051,95.0629,0.141265,
2,1,0,1,0,16952.3,0.143617,0.143324,20.4805,9,0.00989018,10,0.00293535,-1.68866,0.551916,0.1069,85.4107,0.143324,
2,1,0,1,0,16952.3,0.145614,0.145282,20.6445,9,0.0100958,10,0.00299927,-1.6852,0.649454,0.0908455,73.128,0.145282,
2,1,0,1,0,16952.3,0.147612,0.147315,20.7724,9,0.0103029,10,0.00306008,-1.68251,0.695822,0.0847918,68.7686,0.147315,
2,1,0,1,0,16952.3,0.149619,0.149271,20.9187,9,0.0105113,10,0.00312255,-1.67946,0.841487,0.070114,57.1556,0.149271,
2,1,0,1,0,16952.3,0.151616,0.151358,21.0034,9,0.010721,10,0.00317904,-1.67771,1.38108,0.0427201,34.9933,0.151358,
2,1,0,1,0,16952.3,0.153614,0.153284,21.0592,9,0.0109313,10,0.00322804,-1.67656,2.57811,0.022885,18.7915,0.153284,
2,1,0,1,0,16952.3,0.155611,0.15526,21.0768,9,0.011142,10,0.00327237,-1.6762,31.0288,0.00190146,1.56299,0.15526,
2,1,0,1,0,16952.4,0.157618,0.15728,21.0654,9,0.0113528,10,0.00331316,-1.67643,-1.4331,-0.0411696,-33.7559,0.15728,
2,1,0,1,0,16952.4,0.159616,0.159259,20.9418,9,0.0115628,10,0.00333516,-1.67899,-0.659076,-0.0895193,-73.0816,0.159259,
2,1,0,1,0,16952.4,0.161613,0.161295,20.772,9,0.0117715,10,0.00335041,-1.68252,-0.435574,-0.135454,-109.544,0.1612948,
2,1,0,1,0,16952.4,0.163611,0.163256,20.5039,9,0.0119779,10,0.00334738,-1.68816,-0.308335,-0.19135,-152.816,0.163256,
2,1,0,1,0,16952.4,0.165618,0.165314,20.1578,9,0.0121812,10,0.00333236,-1.69556,-0.234754,-0.251327,-197.207,0.165314,
2,1,0,1,0,16952.4,0.167597,0.167268,19.7127,9,0.0123786,10,0.0032973,-1.70525,-0.187246,-0.315093,-241.916,0.167268,
2,1,0,1,0,16952.4,0.169595,0.169293,19.1953,9,0.0125731,10,0.00324962,-1.71681,-0.153423,-0.384558,-287.142,0.169293,
2,1,0,1,0,16952.4,0.171592,0.171269,18.5638,9,0.0127619,10,0.0031794,-1.73133,-0.129162,-0.456792,-330.474,0.171269,
2,1,0,1,0,16952.4,0.173572,0.173226,17.8953,9,0.0129423,10,0.00309994,-1.74726,-0.118912,-0.496164,-345.822,0.1732261,
2,1,0,1,0,16952.4,0.175578,0.175291,17.1728,9,0.0131177,10,0.00301025,-1.76516,-0.109159,-0.540495,-361.943,0.175291,
2,1,0,1,0,16952.5,0.177576,0.17724,16.4426,9,0.0132857,10,0.00291429,-1.78403,-0.100348,-0.587952,-376.676,0.17724,
2,1,0,1,0,16952.5,0.179573,0.179251,15.6813,9,0.0134462,10,0.00281089,-1.80462,-0.0993476,-0.593875,-363.811,0.179251,
2,1,0,1,0,16952.5,0.181571,0.181276,14.9743,9,0.0135993,10,0.00271447,-1.82465,-0.0995665,-0.592569,-346.299,0.181276,
2,1,0,1,0,16952.5,0.183578,0.183271,14.289,9,0.0137456,10,0.00261877,-1.845,-0.10078,-0.585431,-326.879,0.183271,
2,1,0,1,0,16952.5,0.185575,0.185297,13.6598,9,0.0138852,10,0.00253112,-1.86456,-0.102584,-0.57514,-306.828,0.185297,
2,1,0,1,0,16952.5,0.187573,0.187249,13.0685,9,0.0140187,10,0.00244706,-1.88378,-0.107725,-0.547693,-280.064,0.187249,
2,1,0,1,0,16952.5,0.18957,0.189221,12.5607,9,0.0141468,10,0.00237676,-1.90098,-0.118757,-0.496814,-243.777,0.189221,
2,1,0,1,0,16952.5,0.191577,0.191263,12.0901,9,0.01427,10,0.00231238,-1.91757,-0.129301,-0.4563,-215.802,0.191263,
2,1,0,1,0,16952.5,0.193575,0.193273,11.6864,9,0.0143888,10,0.00225866,-1.93232,-0.140657,-0.419459,-191.541,0.193273,
2,1,0,1,0,16952.5,0.195572,0.195285,11.3196,9,0.0145037,10,0.00221055,-1.94617,-0.150304,-0.392537,-173.697,0.195285,
2,1,0,1,0,16952.6,0.19757,0.197241,10.9972,9,0.0146153,10,0.0021691,-1.95872,-0.165636,-0.356203,-153.126,0.197241,
2,1,0,1,0,16952.6,0.199558,0.199227,10.716,9,0.0147227,10,0.00213492,-1.96997,-0.187821,-0.314128,-131.582,0.199227,
2,1,0,1,0,16952.6,0.201556,0.201222,10.4733,9,0.0148286,10,0.00210746,-1.97992,-0.204242,-0.288872,-118.115,0.201222,
2,1,0,1,0,16952.6,0.203554,0.203245,10.2414,9,0.0149322,10,0.00208152,-1.98964,-0.222858,-0.264742,-105.997,0.203245,
2,1,0,1,0,16952.6,0.205551,0.205237,10.0477,9,0.0150335,10,0.00206217,-1.99793,-0.25799,-0.228691,-89.7944,0.205237,
2,1,0,1,0,16952.6,0.20754,0.207242,9.88249,9,0.0151321,10,0.00204807,-2.00513,-0.2857,-0.20651,-79.683,0.207242,
2,1,0,1,0,16952.6,0.209537,0.209253,9.72777,9,0.0152301,10,0.00203556,-2.01199,-0.27547,-0.21418,-81.2536,0.209253,
2,1,0,1,0,16952.6,0.211535,0.211201,9.56082,9,0.0153265,10,0.00201926,-2.01951,-0.300201,-0.196535,-73.486,0.211201,
2,1,0,1,0,16952.6,0.213532,0.213233,9.43526,9,0.0154214,10,0.00201191,-2.02525,-0.3611,-0.16339,-60.1829,0.213233,
2,1,0,1,0,16952.6,0.215539,0.215262,9.31645,9,0.0155151,10,0.00200547,-2.03075,-0.358444,-0.1646,-59.8466,0.215262,
2,1,0,1,0,16952.7,0.217537,0.21719,9.19844,9,0.0156077,10,0.00199781,-2.03629,-0.377211,-0.156411,-56.1861,0.21719,
2,1,0,1,0,16952.7,0.219534,0.219233,9.09333,9,0.0156992,10,0.00199356,-2.04128,-0.445817,-0.132341,-47.0155,0.219233,
2,1,0,1,0,16952.7,0.221532,0.221238,9.00815,9,0.0157897,10,0.00199294,-2.04536,-0.457163,-0.129057,-45.3411,0.221238,
2,1,0,1,0,16952.7,0.223534,0.22324,8.91163,9,0.0158792,10,0.00198943,-2.05004,-0.471109,-0.125236,-43.6039,0.22324,
2,1,0,1,0,16952.7,0.225536,0.225205,8.83515,9,0.015968,10,0.00198972,-2.05379,-0.523804,-0.112638,-38.8316,0.2252052,
2,1,0,1,0,16952.7,0.227534,0.227247,8.75605,9,0.016056,10,0.00198978,-2.05769,-0.51413,-0.114757,-39.2148,0.227247,
2,1,0,1,0,16952.7,0.229531,0.229228,8.67738,9,0.0161432,10,0.0019891,-2.06161,-0.555508,-0.106209,-35.9954,0.2292283,
2,1,0,1,0,16952.7,0.231529,0.231237,8.61242,9,0.0162296,10,0.00199151,-2.06487,-0.696337,-0.0847291,-28.5063,0.231237,
2,1,0,1,0,16952.7,0.233517,0.233193,8.56437,9,0.0163147,10,0.00199715,-2.0673,-0.659257,-0.0894947,-29.873,0.233193,
2,1,0,1,0,16952.7,0.235515,0.235207,8.49383,9,0.0164,10,0.00199781,-2.0709,-0.647213,-0.0911602,-30.2535,0.235207,
2,1,0,1,0,16952.8,0.237512,0.237196,8.44327,9,0.0164846,10,0.00200271,-2.07349,-0.685876,-0.0860214,-28.3254,0.237196,
2,1,0,1,0,16952.8,0.23951,0.239187,8.38108,9,0.0165687,10,0.00200465,-2.0767,-0.796524,-0.0740718,-24.2677,0.239187,
2,1,0,1,0,16952.8,0.241499,0.24118,8.34659,9,0.0166515,10,0.00201303,-2.07849,-0.787026,-0.0749657,-24.3771,0.24118,
2,1,0,1,0,16952.8,0.243496,0.243198,8.28332,9,0.0167346,10,0.00201448,-2.0818,-0.783388,-0.0753139,-24.3894,0.243198,
2,1,0,1,0,16952.8,0.245494,0.245175,8.24915,9,0.0168172,10,0.00202248,-2.08359,-0.77604,-0.076027,-24.4347,0.245175,
2,1,0,1,0,16952.8,0.247491,0.247127,8.18731,9,0.0168994,10,0.0020233,-2.08686,-0.901612,-0.0654384,-20.959,0.247127,
2,1,0,1,0,16952.8,0.249498,0.249207,8.16463,9,0.0169812,10,0.00203469,-2.08806,-1.03026,-0.0572674,-18.2159,0.2492075,
2,1,0,1,0,16952.8,0.251496,0.251171,8.11364,9,0.0170626,10,0.00203791,-2.09078,-0.899028,-0.0656264,-20.8054,0.2511709,
2,1,0,1,0,16952.8,0.253493,0.253173,8.08211,9,0.0171435,10,0.00204618,-2.09247,-0.86007,-0.0685991,-21.6065,0.253173,
2,1,0,1,0,16952.8,0.255491,0.255155,8.02756,9,0.0172241,10,0.00204827,-2.09542,-1.06611,-0.0553414,-17.3802,0.255155,
2,1,0,1,0,16952.9,0.257497,0.257196,8.01221,9,0.0173043,10,0.0020607,-2.09625,-1.35166,-0.0436499,-13.6278,0.257196,
2,1,0,1,0,16952.9,0.259495,0.259225,7.9721,9,0.0173843,10,0.00206657,-2.09843,-0.990156,-0.0595866,-18.5464,0.259225,
2,1,0,1,0,16952.9,0.261493,0.261167,7.93856,9,0.0174638,10,0.00207329,-2.10026,-1.03812,-0.0568335,-17.6045,0.261167,
2,1,0,1,0,16952.9,0.26349,0.263209,7.90196,9,0.017543,10,0.00207987,-2.10227,-1.51518,-0.0389393,-12.0276,0.263209,
2,1,0,1,0,16952.9,0.265479,0.265155,7.89058,9,0.0176212,10,0.00209223,-2.10289,-1.40853,-0.0418876,-12.8762,0.2651554,
2,1,0,1,0,16952.9,0.267476,0.267144,7.8513,9,0.0176999,10,0.00209742,-2.10506,-1.03427,-0.0570451,-17.4883,0.267144,
2,1,0,1,0,16952.9,0.269474,0.269177,7.82025,9,0.0177782,10,0.00210503,-2.10678,-1.16336,-0.0507151,-15.4785,0.269177,
2,1,0,1,0,16952.9,0.271471,0.271133,7.78955,9,0.0178562,10,0.002112,-2.10849,-1.8115,-0.0325697,-9.91504,0.271133,
2,1,0,1,0,16952.9,0.27346,0.273177,7.78059,9,0.0179332,10,0.00212548,-2.10899,-1.21276,-0.0486494,-14.7338,0.273177,
2,1,0,1,0,16952.9,0.275458,0.275111,7.73094,9,0.0180107,10,0.00212686,-2.11177,-1.06325,-0.05549,-16.7772,0.275111,
2,1,0,1,0,16953,0.277455,0.277162,7.71374,9,0.0180879,10,0.00213795,-2.11274,-1.38224,-0.0426843,-12.835,0.277162,
2,1,0,1,0,16953,0.279453,0.279172,7.67881,9,0.0181648,10,0.00214371,-2.11471,-1.25831,-0.0468883,-14.0641,0.279172,
2,1,0,1,0,16953,0.281455,0.281141,7.65777,9,0.0182414,10,0.00215292,-2.1159,-1.30348,-0.0452633,-13.5169,0.281141,
2,1,0,1,0,16953,0.283457,0.283153,7.625,9,0.0183179,10,0.00215904,-2.11776,-1.39392,-0.0423266,-12.6081,0.283153,
2,1,0,1,0,16953,0.285455,0.285126,7.60753,9,0.0183941,10,0.0021691,-2.11876,-1.244,-0.0474277,-14.0614,0.285126,
2,1,0,1,0,16953,0.287452,0.287151,7.56878,9,0.01847,10,0.00217339,-2.12097,-1.20896,-0.0488021,-14.4342,0.287151,
2,1,0,1,0,16953,0.28945,0.28913,7.54973,9,0.0185456,10,0.00218286,-2.12207,-1.57724,-0.0374072,-11.0176,0.28913,
2,1,0,1,0,16953,0.291456,0.291127,7.52498,9,0.018621,10,0.00219072,-2.12349,-1.24717,-0.0473071,-13.8867,0.291127,
2,1,0,1,0,16953,0.293454,0.293184,7.49344,9,0.0186962,10,0.00219696,-2.12532,-1.22974,-0.0479775,-14.0369,0.293184,
2,1,0,1,0,16953,0.295452,0.295153,7.46846,9,0.018771,10,0.00220434,-2.12677,-1.84873,-0.0319138,-9.31006,0.295153,
2,1,0,1,0,16953.1,0.297449,0.297146,7.45655,9,0.0188456,10,0.00221569,-2.12746,-1.5978,-0.0369259,-10.7317,0.2971462,
2,1,0,1,0,16953.1,0.299438,0.299174,7.42531,9,0.0189193,10,0.00222146,-2.12929,-0.0514205,-1.1474,-317.033,0.2991738,
2,1,0,1,0,16953.1,0.299746,0.299482,6.71609,9,0.0189504,10,0.00201135,-2.17288,0.00492369,11.9829,2398.12,0.299482,
2,1,0,1,0,16953.1,0.29774,0.297479,3.36178,9,0.0189985,10,0.00100006,-2.47343,0.00595656,9.90505,1317.89,0.297479,
2,1,0,1,0,16953.1,0.295742,0.295464,1.42097,9,0.0190215,10,0.000419845,-2.84742,0.00288076,20.4807,795.99,0.295464,
2,1,0,1,0,16953.1,0.293745,0.293421,0.131124,9,0.0190287,10,3.84745e-05,-3.88232,0.015148,3.8949,544.393,0.293421,
2,0,0,1,0,16953.1,0.291747,0.291438,-0.770596,9,0.0190251,10,-0.000224581,-3.11317,-0.00382491,-15.4252,393.578,0.291438,
2,0,0,1,0,16953.1,0.289745,0.28945,-1.43177,9,0.0190139,10,-0.000414424,-2.84413,-0.0101083,-5.83677,287.574,0.28945,
2,0,0,1,0,16953.1,0.287743,0.28741,-1.92903,9,0.0189969,10,-0.000554421,-2.71466,-0.0193508,-3.04898,217.75,0.2874099,
2,0,0,1,0,16953.1,0.285745,0.285481,-2.2959,9,0.0189757,10,-0.000655437,-2.63905,-0.0306119,-1.92735,169.178,0.285481,
2,0,0,1,0,16953.1,0.283748,0.283427,-2.60289,9,0.0189511,10,-0.000737728,-2.58454,-0.0432131,-1.36533,136.499,0.283427,
2,0,0,1,0,16953.2,0.28175,0.281442,-2.8473,9,0.0189237,10,-0.000801348,-2.54557,-0.0566871,-1.0408,114.675,0.281442,
2,0,0,1,0,16953.2,0.279761,0.27948,-3.05552,9,0.0188944,10,-0.000853957,-2.51491,-0.0729722,-0.808527,95.7932,0.27948,
2,0,0,1,0,16953.2,0.277764,0.277421,-3.23249,9,0.0188629,10,-0.000896759,-2.49046,-0.0881764,-0.669113,84.1404,0.277421,
2,0,0,1,0,16953.2,0.275766,0.275449,-3.39466,9,0.0188297,10,-0.000935056,-2.4692,-0.107092,-0.550926,72.5371,0.275449,
2,0,0,1,0,16953.2,0.273769,0.273472,-3.51891,9,0.0187951,10,-0.000962324,-2.45359,-0.121382,-0.486069,66.8956,0.273472,
2,0,0,1,0,16953.2,0.27178,0.271459,-3.66158,9,0.0187595,10,-0.000993968,-2.43633,-0.134541,-0.438529,62.3299,0.271459,
2,0,0,1,0,16953.2,0.269783,0.269478,-3.76784,9,0.0187224,10,-0.00101535,-2.42391,-0.15736,-0.374938,55.1877,0.269478,
2,0,0,1,0,16953.2,0.267785,0.267434,-3.8837,9,0.0186841,10,-0.00103863,-2.41075,-0.183031,-0.32235,48.6106,0.267434,
2,0,0,1,0,16953.2,0.265787,0.265487,-3.96184,9,0.0186449,10,-0.00105182,-2.4021,-0.191733,-0.307719,47.7713,0.265487,
2,0,0,1,0,16953.2,0.263781,0.263461,-4.07352,9,0.0186046,10,-0.00107321,-2.39003,-0.198852,-0.296703,46.9546,0.263461,
2,0,0,1,0,16953.3,0.261783,0.261488,-4.14965,9,0.0185635,10,-0.00108508,-2.38199,-0.241265,-0.244545,39.6196,0.2614876,
2,0,0,1,0,16953.3,0.259786,0.259508,-4.23013,9,0.0185216,10,-0.00109775,-2.37365,-0.234292,-0.251823,41.5949,0.259508,
2,0,0,1,0,16953.3,0.257788,0.257484,-4.31616,9,0.0184789,10,-0.00111134,-2.3649,-0.242265,-0.243535,40.991,0.257484,
2,0,0,1,0,16953.3,0.255781,0.255446,-4.39664,9,0.0184353,10,-0.0011231,-2.35688,-0.298184,-0.197865,33.8498,0.2554456,
2,0,0,1,0,16953.3,0.253784,0.253483,-4.4516,9,0.0183911,10,-0.00112841,-2.35148,-0.300245,-0.196506,34.239,0.253483,
2,0,0,1,0,16953.3,0.251786,0.251456,-4.53323,9,0.0183461,10,-0.00113991,-2.34359,-0.299585,-0.196939,34.749,0.251456,
2,0,0,1,0,16953.3,0.249789,0.249461,-4.59137,9,0.0183005,10,-0.00114537,-2.33806,-0.309092,-0.190882,34.2737,0.249461,
2,0,0,1,0,16953.3,0.2478,0.247494,-4.66903,9,0.0182547,10,-0.00115556,-2.33077,-0.318094,-0.18548,33.7203,0.247494,
2,0,0,1,0,16953.3,0.245802,0.245469,-4.72597,9,0.0182077,10,-0.00116008,-2.32551,-0.343836,-0.171594,31.6927,0.245469,
2,0,0,1,0,16953.3,0.243805,0.243468,-4.79662,9,0.0181601,10,-0.00116782,-2.31906,-0.391254,-0.150797,28.1398,0.243468,
2,0,0,1,0,16953.4,0.241807,0.241506,-4.83749,9,0.0181119,10,-0.00116828,-2.31538,-0.379265,-0.155564,29.4728,0.241506,
2,0,0,1,0,16953.4,0.239819,0.239522,-4.91294,9,0.0180637,10,-0.00117676,-2.30866,-0.368454,-0.160129,30.6115,0.239522,
2,0,0,1,0,16953.4,0.237821,0.237511,-4.95978,9,0.0180144,10,-0.001178,-2.30454,-0.436242,-0.135246,26.2044,0.237511,
2,0,0,1,0,16953.4,0.235824,0.235564,-5.01666,9,0.0179645,10,-0.00118174,-2.29959,-0.460858,-0.128022,25.0328,0.235564,
2,0,0,1,0,16953.4,0.233826,0.233464,-5.06109,9,0.0179141,10,-0.00118158,-2.29576,-0.406442,-0.145162,28.752,0.233464,
2,0,0,1,0,16953.4,0.231824,0.231477,-5.13415,9,0.0178631,10,-0.00118844,-2.28953,-0.410917,-0.143581,28.6755,0.231477,
2,0,0,1,0,16953.4,0.229822,0.229522,-5.17412,9,0.0178116,10,-0.00118758,-2.28616,-0.48969,-0.120485,24.3668,0.229522,
2,0,0,1,0,16953.4,0.227824,0.227532,-5.23028,9,0.0177595,10,-0.00119006,-2.28148,-0.466761,-0.126403,25.7775,0.227532,
2,0,0,1,0,16953.4,0.225827,0.22553,-5.27704,9,0.017707,10,-0.00119013,-2.27761,-0.448678,-0.131497,27.1204,0.22553,
2,0,0,1,0,16953.4,0.223829,0.223509,-5.33939,9,0.0176539,10,-0.0011934,-2.27251,-0.460341,-0.128166,26.6626,0.223509,
2,0,0,1,0,16953.5,0.221822,0.221507,-5.38428,9,0.0176002,10,-0.00119266,-2.26887,-0.486766,-0.121208,25.4966,0.221507,
2,0,0,1,0,16953.5,0.219825,0.219528,-5.44088,9,0.0175461,10,-0.00119443,-2.26433,-0.493494,-0.119556,25.3548,0.219528,
2,0,0,1,0,16953.5,0.217827,0.217567,-5.4842,9,0.0174915,10,-0.00119318,-2.26089,-0.543162,-0.108623,23.2631,0.217567,
2,0,0,1,0,16953.5,0.21583,0.215502,-5.53455,9,0.0174363,10,-0.00119271,-2.25692,-0.459504,-0.128399,27.7625,0.215502,
2,0,0,1,0,16953.5,0.213841,0.213512,-5.59676,9,0.0173812,10,-0.00119498,-2.25206,-0.447448,-0.131859,28.7733,0.213512,
2,0,0,1,0,16953.5,0.211843,0.21154,-5.64855,9,0.017325,10,-0.00119489,-2.24806,-0.563456,-0.104711,23.0569,0.21154,
2,0,0,1,0,16953.5,0.209846,0.209564,-5.68781,9,0.0172683,10,-0.00119196,-2.24506,-0.538852,-0.109492,24.3471,0.209564,
2,0,0,1,0,16953.5,0.207848,0.20749,-5.74715,9,0.0172111,10,-0.00119248,-2.24055,-0.441699,-0.133575,29.9644,0.20749,
2,0,0,1,0,16953.5,0.20586,0.205532,-5.8086,9,0.017154,10,-0.00119386,-2.23593,-0.456108,-0.129355,29.3047,0.205532,
2,0,0,1,0,16953.5,0.203862,0.20354,-5.8629,9,0.0170956,10,-0.00119334,-2.23189,-0.592766,-0.0995335,22.7388,0.20354,
2,0,0,1,0,16953.6,0.201865,0.201551,-5.89914,9,0.0170369,10,-0.00118898,-2.22921,-0.602182,-0.097977,22.5918,0.201551,
2,0,0,1,0,16953.6,0.199867,0.199511,-5.95392,9,0.0169776,10,-0.00118787,-2.2252,-0.491381,-0.12007,27.9051,0.1995111,
2,0,0,1,0,16953.6,0.19786,0.197529,-6.01135,9,0.0169177,10,-0.00118742,-2.22103,-0.470904,-0.125291,29.3983,0.197529,
2,0,0,1,0,16953.6,0.195863,0.195529,-6.071,9,0.0168573,10,-0.00118705,-2.21674,-0.502761,-0.117352,27.7855,0.195529,
2,0,0,1,0,16953.6,0.193865,0.193522,-6.1227,9,0.0167963,10,-0.00118488,-2.21306,-0.472896,-0.124763,29.8506,0.193522,
2,0,0,1,0,16953.6,0.191868,0.191523,-6.19057,9,0.0167347,10,-0.00118564,-2.20827,-0.453058,-0.130226,31.4353,0.191523,
2,0,0,1,0,16953.6,0.189861,0.189531,-6.24816,9,0.0166726,10,-0.00118422,-2.20425,-0.46822,-0.126009,30.7431,0.189531,
2,0,0,1,0,16953.6,0.187863,0.187549,-6.31273,9,0.0166098,10,-0.00118395,-2.19978,-0.512013,-0.115231,28.3514,0.187549,
2,0,0,1,0,16953.6,0.185866,0.185556,-6.36087,9,0.0165464,10,-0.0011803,-2.19648,-0.477008,-0.123688,30.7701,0.185556,
2,0,0,1,0,16953.6,0.183868,0.183528,-6.43647,9,0.0164823,10,-0.00118127,-2.19135,-0.381861,-0.154506,38.825,0.183528,
2,0,0,1,0,16953.7,0.18188,0.181528,-6.51726,9,0.0164183,10,-0.00118306,-2.18593,-0.367833,-0.160399,40.7937,0.181528,
2,0,0,1,0,16953.7,0.179882,0.179578,-6.5976,9,0.0163527,10,-0.00118478,-2.18061,-0.451643,-0.130634,33.5655,0.179578,
2,0,0,1,0,16953.7,0.177885,0.177553,-6.65065,9,0.0162865,10,-0.00118085,-2.17714,-0.414659,-0.142285,37.0474,0.177553,
2,0,0,1,0,16953.7,0.175887,0.175566,-6.74625,9,0.0162195,10,-0.00118441,-2.17094,-0.357409,-0.165077,43.3962,0.175566,
2,0,0,1,0,16953.7,0.173908,0.173604,-6.82206,9,0.0161523,10,-0.00118433,-2.16608,-0.345546,-0.170744,45.5623,0.173604,
2,0,0,1,0,16953.7,0.171901,0.171543,-6.92954,9,0.0160835,10,-0.00118871,-2.1593,-0.347917,-0.169581,45.7578,0.171543,
2,0,0,1,0,16953.7,0.169903,0.16957,-7.00663,9,0.0160138,10,-0.00118811,-2.15449,-0.321738,-0.183379,50.3088,0.16957,
2,0,0,1,0,16953.7,0.167906,0.167546,-7.13063,9,0.0159431,10,-0.00119471,-2.14687,-0.289356,-0.203901,56.6523,0.1675459,
2,0,0,1,0,16953.7,0.165908,0.165573,-7.23307,9,0.0158712,10,-0.0011976,-2.14068,-0.283256,-0.208292,58.9129,0.165573,
2,0,0,1,0,16953.7,0.163901,0.163565,-7.36513,9,0.0157981,10,-0.00120468,-2.13282,-0.257881,-0.228788,65.742,0.163565,
2,0,0,1,0,16953.8,0.161904,0.161601,-7.49419,9,0.0157239,10,-0.00121107,-2.12528,-0.245441,-0.240384,70.4087,0.161601,
2,0,0,1,0,16953.8,0.159906,0.159564,-7.64687,9,0.0156481,10,-0.00122016,-2.11652,-0.238593,-0.247283,73.7563,0.159564,
2,0,0,1,0,16953.8,0.157909,0.15755,-7.79297,9,0.0155709,10,-0.00122778,-2.1083,-0.209319,-0.281867,85.9897,0.15755,
2,0,0,1,0,16953.8,0.155902,0.155578,-7.9896,9,0.015492,10,-0.00124301,-2.09747,-0.19002,-0.310493,96.7388,0.155578,
2,0,0,1,0,16953.8,0.153904,0.153583,-8.17678,9,0.0154112,10,-0.00125581,-2.08742,-0.189412,-0.311491,99.5125,0.153583,
2,0,0,1,0,16953.8,0.151907,0.1516,-8.38546,9,0.0153283,10,-0.00127124,-2.07647,-0.176654,-0.333985,109.409,0.1516,
2,0,0,1,0,16953.8,0.149909,0.14958,-8.61476,9,0.0152433,10,-0.00128859,-2.06476,-0.156456,-0.377103,127.096,0.14958,
2,0,0,1,0,16953.8,0.147921,0.14762,-8.89137,9,0.0151566,10,-0.00131254,-2.05103,-0.147797,-0.399196,138.44,0.14762,
2,0,0,1,0,16953.8,0.145923,0.145619,-9.1631,9,0.0150663,10,-0.00133432,-2.03796,-0.139403,-0.423234,151.849,0.145619,
2,0,0,1,0,16953.8,0.143926,0.143599,-9.50184,9,0.0149729,10,-0.00136446,-2.02219,-0.126063,-0.46802,173.647,0.143599,
2,0,0,1,0,16953.9,0.141928,0.14161,-9.85928,9,0.0148761,10,-0.00139617,-2.00615,-0.119395,-0.49416,190.464,0.14161,
2,0,0,1,0,16953.9,0.139939,0.139619,-10.2599,9,0.0147765,10,-0.00143248,-1.98886,-0.116386,-0.506936,202.909,0.139619,
2,0,0,1,0,16953.9,0.137942,0.137646,-10.6636,9,0.0146719,10,-0.0014678,-1.9721,-0.113299,-0.520746,217.223,0.137646,
2,0,0,1,0,16953.9,0.135944,0.135619,-11.1289,9,0.0145629,10,-0.00150929,-1.95355,-0.110693,-0.533007,231.387,0.135619,
2,0,0,1,0,16953.9,0.133947,0.133614,-11.5965,9,0.0144493,10,-0.00154945,-1.93567,-0.108369,-0.544436,246.746,0.133614,
2,0,0,1,0,16953.9,0.13194,0.13164,-12.1107,9,0.0143307,10,-0.00159425,-1.91683,-0.10796,-0.5465,258.12,0.13164,
2,0,0,1,0,16953.9,0.129942,0.129638,-12.6226,9,0.014207,10,-0.00163638,-1.89885,-0.111916,-0.527181,259.756,0.129638,
2,0,0,1,0,16953.9,0.127945,0.127622,-13.1543,9,0.014078,10,-0.00167878,-1.88093,-0.114145,-0.516885,265.253,0.127622,
2,0,0,1,0,16953.9,0.125947,0.125613,-13.6904,9,0.0139437,10,-0.00171969,-1.86358,-0.115376,-0.511372,273.214,0.1256128,
2,0,0,1,0,16953.9,0.123941,0.123649,-14.24,9,0.013804,10,-0.00176075,-1.84649,-0.124899,-0.47238,261.876,0.123649,
2,0,0,1,0,16954,0.121943,0.121635,-14.7322,9,0.0136591,10,-0.00179195,-1.83173,-0.132925,-0.443858,255.399,0.121635,
2,0,0,1,0,16954,0.119945,0.119657,-15.2595,9,0.013509,10,-0.0018259,-1.81646,-0.134214,-0.439596,261.487,0.119657,
2,0,0,1,0,16954,0.117948,0.117693,-15.7628,9,0.0133538,10,-0.00185518,-1.80237,-0.144545,-0.408179,251.001,0.1176933,
2,0,0,1,0,16954,0.115946,0.115654,-16.2643,9,0.0131936,10,-0.00188102,-1.78877,-0.161817,-0.364609,230.923,0.115654,
2,0,0,1,0,16954,0.113962,0.113622,-16.703,9,0.0130303,10,-0.00189783,-1.77721,-0.173765,-0.339539,221.329,0.113622,
2,0,0,1,0,16954,0.111964,0.111657,-17.1489,9,0.0128609,10,-0.00191479,-1.76576,-0.18429,-0.320148,213.918,0.111657,
2,0,0,1,0,16954,0.109967,0.10968,-17.5463,9,0.0126874,10,-0.00192448,-1.75581,-0.205011,-0.28779,196.975,0.10968,
2,0,0,1,0,16954,0.107969,0.107679,-17.9323,9,0.0125099,10,-0.00193094,-1.74636,-0.229074,-0.257559,179.949,0.107679,
2,0,0,1,0,16954,0.10598,0.105696,-18.2632,9,0.0123307,10,-0.00193035,-1.73842,-0.249089,-0.236864,168.838,0.105696,
2,0,0,1,0,16954,0.103983,0.10372,-18.6009,9,0.0121462,10,-0.00192928,-1.73047,-0.271113,-0.217622,157.772,0.10372,
2,0,0,1,0,16954.1,0.101985,0.101701,-18.8935,9,0.0119587,10,-0.00192149,-1.72369,-0.311384,-0.189477,139.585,0.101701,
2,0,0,1,0,16954.1,0.0999877,0.0997521,-19.1547,9,0.0117684,10,-0.00191072,-1.71772,-0.350169,-0.16849,125.894,0.0997521,
2,0,0,1,0,16954.1,0.0979811,0.0976794,-19.3998,9,0.0115755,10,-0.00189496,-1.7122,-0.399371,-0.147732,111.748,0.0976794,
2,0,0,1,0,16954.1,0.0959835,0.0956674,-19.6111,9,0.0113804,10,-0.00187615,-1.7075,-0.503597,-0.117157,89.5243,0.0956674,
2,0,0,1,0,16954.1,0.0939859,0.0936459,-19.7609,9,0.0111835,10,-0.00185053,-1.70419,-0.615971,-0.0957837,73.858,0.0936459,
2,0,0,1,0,16954.1,0.0919883,0.0916816,-19.9055,9,0.0109851,10,-0.00182497,-1.70103,-0.765495,-0.0770743,59.7977,0.0916816,
2,0,0,1,0,16954.1,0.0899816,0.0896618,-19.9991,9,0.0107855,10,-0.00179316,-1.69899,-1.24829,-0.0472648,36.8547,0.0896618,
2,0,0,1,0,16954.1,0.087984,0.0876429,-20.0544,9,0.0105851,10,-0.00175762,-1.69779,-3.28883,-0.0179395,14.0217,0.0876429,
2,0,0,1,0,16954.1,0.0859865,0.0856249,-20.0557,9,0.0103845,10,-0.00171727,-1.69776,46.9547,0.00125653,-0.983339,0.0856249,
2,0,0,1,0,16954.1,0.0839889,0.0836754,-20.0505,9,0.0101839,10,-0.00167773,-1.69788,2.55746,0.0230697,-18.025,0.0836754,
2,0,0,1,0,16954.2,0.0820004,0.0816873,-19.9848,9,0.00998575,10,-0.0016325,-1.6993,1.24553,0.0473693,-36.929,0.0816873,
2,0,0,1,0,16954.2,0.0800028,0.0796426,-19.9015,9,0.00978628,10,-0.00158501,-1.70111,0.879591,0.0670766,-52.0413,0.0796426,
2,0,0,1,0,16954.2,0.0780052,0.0776631,-19.7753,9,0.00958792,10,-0.00153581,-1.70388,0.689913,0.0855181,-65.9822,0.0776631,
2,0,0,1,0,16954.2,0.0760076,0.0756621,-19.6389,9,0.00939084,10,-0.00148592,-1.70688,0.586534,0.100591,-77.0315,0.0756621,
2,0,0,1,0,16954.2,0.0740191,0.0736953,-19.4697,9,0.00919738,10,-0.00143482,-1.71064,0.524327,0.112525,-85.4956,0.0736953,
2,0,0,1,0,16954.2,0.0720215,0.071685,-19.2989,9,0.00900354,10,-0.00138344,-1.71447,0.474118,0.124441,-93.6413,0.071685,
2,0,0,1,0,16954.2,0.0700239,0.069687,-19.0943,9,0.00881161,10,-0.00133063,-1.7191,0.451201,0.130762,-97.4935,0.069687,
2,0,0,1,0,16954.2,0.0680263,0.0677053,-18.9109,9,0.00862159,10,-0.00128037,-1.72329,0.484863,0.121684,-89.8248,0.0677053,
2,0,0,1,0,16954.2,0.0660197,0.0657003,-18.7362,9,0.00843346,10,-0.00123098,-1.72732,0.482932,0.12217,-89.3155,0.0657003,
2,0,0,1,0,16954.2,0.0640221,0.0637248,-18.5554,9,0.00824697,10,-0.00118244,-1.73153,0.46586,0.126647,-91.6916,0.0637248,
2,0,0,1,0,16954.3,0.0620245,0.0616755,-18.3672,9,0.0080624,10,-0.00113281,-1.73596,0.500261,0.117939,-84.6192,0.0616755,
2,0,0,1,0,16954.3,0.0600269,0.0596965,-18.2145,9,0.0078795,10,-0.00108734,-1.73958,0.525891,0.112191,-79.7258,0.0596965,
2,0,0,1,0,16954.3,0.0580248,0.0577105,-18.0511,9,0.00769821,10,-0.00104174,-1.7435,0.555919,0.106131,-74.823,0.0577105,
2,0,0,1,0,16954.3,0.0560227,0.0557038,-17.9157,9,0.0075183,10,-0.000997975,-1.74677,0.5857,0.100734,-70.4105,0.0557038,
2,0,0,1,0,16954.3,0.0540251,0.0537152,-17.7698,9,0.00733991,10,-0.000954507,-1.75032,0.620223,0.0951271,-66.0218,0.05371521,
2,0,0,1,0,16954.3,0.0520275,0.0517102,-17.6521,9,0.0071628,10,-0.000912792,-1.7532,0.612883,0.0962663,-66.2594,0.0517102,
2,0,0,1,0,16954.3,0.0500299,0.0496991,-17.5037,9,0.00698703,10,-0.000869916,-1.75687,0.650196,0.0907418,-62.0738,0.0496991,
2,0,0,1,0,16954.3,0.0480414,0.0477278,-17.4049,9,0.0068142,10,-0.000830697,-1.75933,0.700114,0.0842719,-57.191,0.0477278,
2,0,0,1,0,16954.3,0.0460438,0.0457069,-17.2754,9,0.00664085,10,-0.000789603,-1.76257,0.67261,0.087718,-59.1731,0.04570692,
2,0,0,1,0,16954.3,0.0440462,0.0436892,-17.1659,9,0.00646865,10,-0.000749965,-1.76533,0.639428,0.0922699,-61.7663,0.0436892,
2,0,0,1,0,16954.4,0.0420486,0.0417384,-17.0302,9,0.00629776,10,-0.000710814,-1.76878,0.681484,0.0865757,-57.616,0.0417384,
2,0,0,1,0,16954.4,0.0400601,0.0397546,-16.9392,9,0.00612959,10,-0.000673411,-1.77111,0.702986,0.0839277,-55.4187,0.0397546,
2,0,0,1,0,16954.4,0.0380625,0.0377504,-16.8092,9,0.00596085,10,-0.000634555,-1.77445,0.63177,0.0933885,-61.2878,0.0377504,
2,0,0,1,0,16954.4,0.036065,0.0357367,-16.693,9,0.00579334,10,-0.000596551,-1.77747,0.624646,0.0944535,-61.5102,0.0357367,
2,0,0,1,0,16954.4,0.0340674,0.0337698,-16.5644,9,0.0056271,10,-0.000559376,-1.78082,0.694471,0.0849567,-54.9829,0.0337698,
2,0,0,1,0,16954.4,0.0320607,0.03175,-16.4738,9,0.0054619,10,-0.000523043,-1.78321,0.611269,0.0965206,-61.9298,0.03175,
2,0,0,1,0,16954.4,0.0300631,0.0297806,-16.3173,9,0.00529798,10,-0.00048594,-1.78735,0.555622,0.106187,-67.7071,0.0297806,
2,0,0,1,0,16954.4,0.0280655,0.0277495,-16.2029,9,0.00513536,10,-0.000449623,-1.79041,0.570656,0.10339,-65.3145,0.02774952,
2,0,0,1,0,16954.4,0.0260679,0.0258026,-16.0575,9,0.00497408,10,-0.000414326,-1.79432,0.553096,0.106672,-66.8929,0.02580261,
2,0,0,1,0,16954.4,0.0240613,0.0237308,-15.9341,9,0.00481407,10,-0.000378128,-1.79767,0.519105,0.113657,-70.5924,0.02373077,
2,0,0,1,0,16954.5,0.0220637,0.0217674,-15.7727,9,0.00465558,10,-0.000343329,-1.8021,0.473552,0.12459,-76.7268,0.02176738,
2,0,0,1,0,16954.5,0.0200661,0.0197207,-15.6264,9,0.00449855,10,-0.000308163,-1.80614,0.443755,0.132956,-80.997,0.0197207,
2,0,0,1,0,16954.5,0.0180685,0.0177599,-15.4481,9,0.00434317,10,-0.000274356,-1.81113,0.452363,0.130426,-78.7396,0.01775991,
2,0,0,1,0,16954.5,0.01608,0.015739,-15.3129,9,0.00419093,10,-0.00024101,-1.81494,0.447152,0.131946,-78.7333,0.015739,
2,0,0,1,0,16954.5,0.0140824,0.0137508,-15.1324,9,0.00403877,10,-0.000208082,-1.82009,0.389605,0.151436,-89.4519,0.0137508,
2,0,0,1,0,16954.5,0.0120848,0.0117896,-14.9596,9,0.00388834,10,-0.000176367,-1.82508,0.366189,0.161119,-93.9695,0.0117896,
2,0,0,1,0,16954.5,0.0100872,0.00976471,-14.7578,9,0.00373985,10,-0.000144106,-1.83098,0.377014,0.156493,-90.2592,0.00976471,
2,0,0,1,0,16954.5,0.00810328,0.00779546,-14.5991,9,0.00359457,10,-0.000113807,-1.83567,0.388789,0.151753,-86.381,0.00779546,
2,0,0,1,0,16954.5,0.00610116,0.00578609,-14.4142,9,0.00344953,10,-8.34016e-05,-1.84121,0.364303,0.161953,-91.1212,0.00578609,
2,0,0,1,0,16954.5,0.00410357,0.00380968,-14.2359,9,0.00330633,10,-5.42343e-05,-1.84662,0.437616,0.134822,-75.0409,0.00380968,
2,0,0,1,0,16954.6,0.00210598,0.00174044,-14.1106,9,0.00316485,10,-2.45587e-05,-1.85046,0.443592,0.133005,-73.1189,0.00174044,
2,0,0,1,0,16954.6,0.00010174,-0.000267194,-13.9378,9,0.00302459,10,3.7241e-06,-1.85581,0.371395,0.158861,-86.3984,-0.000267194,
2,0,0,1,0,16954.6,-0.00189827,-0.00229305,-13.7621,9,0.00288607,10,3.15572e-05,-1.86132,0.403089,0.14637,-78.7074,-0.00229305,
2,0,0,1,0,16954.6,-0.00389586,-0.00430069,-13.6203,9,0.00274912,10,5.85769e-05,-1.86581,0.420231,0.140399,-74.6015,-0.00430069,
2,0,0,1,0,16954.6,-0.00589345,-0.0062207,-13.4691,9,0.00261365,10,8.37871e-05,-1.87066,0.453878,0.129991,-68.4089,-0.0062207,
2,0,0,1,0,16954.6,-0.00789103,-0.00825784,-13.3496,9,0.00247948,10,0.000110239,-1.87453,0.538019,0.109661,-57.1478,-0.00825784,
2,0,0,1,0,16954.6,-0.0098977,-0.0102681,-13.2378,9,0.00234652,10,0.000135927,-1.87819,0.600009,0.0983318,-50.8385,-0.0102681,
2,0,0,1,0,16954.6,-0.0118953,-0.0122636,-13.146,9,0.00221456,10,0.000161217,-1.88121,0.621304,0.0949615,-48.6969,-0.0122636,
2,0,0,1,0,16954.6,-0.0138929,-0.0142799,-13.0424,9,0.00208361,10,0.000186244,-1.88464,0.707941,0.0833403,-42.4788,-0.0142799,
2,0,0,1,0,16954.6,-0.0158905,-0.0162875,-12.9751,9,0.00195348,10,0.000211332,-1.88689,0.92562,0.0637411,-32.2852,-0.0162875,
2,0,0,1,0,16954.7,-0.017879,-0.0182412,-12.9145,9,0.00182534,10,0.000235576,-1.88892,1.10746,0.0532753,-26.867,-0.0182412,
2,0,0,1,0,16954.7,-0.0198766,-0.0202326,-12.8691,9,0.00169643,10,0.000260375,-1.89045,1.10086,0.0535945,-26.8991,-0.0202326,
2,0,0,1,0,16954.7,-0.0218741,-0.0222598,-12.8064,9,0.00156814,10,0.000285069,-1.89257,1.36703,0.0431594,-21.6032,-0.0222598,
2,0,0,1,0,16954.7,-0.0238717,-0.0242489,-12.7823,9,0.00144018,10,0.000309957,-1.89339,2.51705,0.0234402,-11.6939,-0.0242489,
2,0,0,1,0,16954.7,-0.0258602,-0.0262433,-12.7598,9,0.00131376,10,0.00033486,-1.89415,3.84235,0.0153552,-7.65087,-0.0262433,
2,0,0,1,0,16954.7,-0.0278578,-0.0282171,-12.7519,9,0.00118622,10,0.000359823,-1.89442,4.54433,0.0129832,-6.4588,-0.0282171,
2,0,0,1,0,16954.7,-0.0298554,-0.030236,-12.7341,9,0.00105885,10,0.000385027,-1.89503,17.2366,0.00342294,-1.70303,-0.030236,
2,0,0,1,0,16954.7,-0.031853,-0.0322237,-12.7451,9,0.000931446,10,0.000410695,-1.89466,-12.6984,-0.00464626,2.3099,-0.0322237,
2,0,0,1,0,16954.7,-0.0338597,-0.03426,-12.7433,9,0.000804015,10,0.000436587,-1.89472,-5.95527,-0.0099072,4.93168,-0.03426,
2,0,0,1,0,16954.7,-0.0358573,-0.0362364,-12.7649,9,0.000676434,10,0.000462554,-1.89398,-3.04341,-0.0193861,9.65566,-0.03623639,
2,0,0,1,0,16954.8,-0.0378549,-0.0381764,-12.7812,9,0.00054868,10,0.000487938,-1.89343,-2.38047,-0.024785,12.3712,-0.0381764,
2,0,0,1,0,16954.8,-0.0398524,-0.0402361,-12.8144,9,0.00042068,10,0.0005156,-1.8923,-1.75344,-0.0336481,16.8287,-0.0402361,
2,0,0,1,0,16954.8,-0.0418591,-0.0422298,-12.8494,9,0.000292419,10,0.000542627,-1.89112,-1.58625,-0.0371947,18.6551,-0.0422298,
2,0,0,1,0,16954.8,-0.0438567,-0.0442158,-12.8886,9,0.000163684,10,0.00056988,-1.88979,-1.96813,-0.0299777,15.0683,-0.0442158,
2,0,0,1,0,16954.8,-0.0458543,-0.0462416,-12.9098,9,3.46234e-05,10,0.000596971,-1.88908,-1.26926,-0.0464839,23.4663,-0.0462416,
2,0,0,1,0,16954.8,-0.0478519,-0.048205,-12.9822,9,-9.48767e-05,10,0.000625809,-1.88665,-0.983092,-0.0600147,30.3789,-0.048205,
2,0,0,1,0,16954.8,-0.0498585,-0.0502291,-13.031,9,-0.000224899,10,0.000654534,-1.88502,-1.04461,-0.0564802,28.7411,-0.0502291,
2,0,0,1,0,16954.8,-0.051838,-0.0521601,-13.0959,9,-0.000354262,10,0.000683084,-1.88286,-1.10182,-0.0535476,27.3464,-0.0521601,
2,0,0,1,0,16954.8,-0.0538356,-0.0542375,-13.1406,9,-0.000485379,10,0.000712712,-1.88139,-1.02192,-0.0577346,29.6432,-0.0542375,
2,0,0,1,0,16954.8,-0.0558331,-0.0562226,-13.2163,9,-0.000617168,10,0.000743056,-1.87889,-0.910444,-0.0648035,33.3994,-0.0562226,
2,0,0,1,0,16954.9,-0.0578126,-0.0581703,-13.2719,9,-0.000748243,10,0.000772033,-1.87707,-0.866511,-0.0680892,35.3044,-0.0581703,
2,0,0,1,0,16954.9,-0.0598192,-0.0601632,-13.3555,9,-0.000881462,10,0.000803507,-1.87434,-0.771776,-0.0764471,39.8305,-0.0601632,
2,0,0,1,0,16954.9,-0.0618168,-0.0621127,-13.429,9,-0.00101535,10,0.00083411,-1.87196,-0.785571,-0.0751046,39.3786,-0.0621127,
2,0,0,1,0,16954.9,-0.0638144,-0.0641993,-13.5144,9,-0.00115012,10,0.000867615,-1.8692,-0.808997,-0.0729299,38.4418,-0.0641993,
2,0,0,1,0,16954.9,-0.065812,-0.0661419,-13.5838,9,-0.00128562,10,0.000898461,-1.86698,-0.709538,-0.0831527,44.1452,-0.0661419,
2,0,0,1,0,16954.9,-0.0678187,-0.0682354,-13.6926,9,-0.00142206,10,0.000934318,-1.86352,-0.679421,-0.0868386,46.3529,-0.0682354,
2,0,0,1,0,16954.9,-0.0698163,-0.0701832,-13.7712,9,-0.00155938,10,0.000966505,-1.86103,-0.69267,-0.0851776,45.8182,-0.0701832,
2,0,0,1,0,16954.9,-0.0718138,-0.0721987,-13.8742,9,-0.00169764,10,0.0010017,-1.85779,-0.648915,-0.090921,49.2134,-0.0721987,
2,0,0,1,0,16954.9,-0.0738114,-0.074182,-13.968,9,-0.00183684,10,0.00103617,-1.85487,-0.574099,-0.10277,56.0867,-0.074182,
2,0,0,1,0,16954.9,-0.0758181,-0.0761254,-14.0944,9,-0.00197724,10,0.00107294,-1.85095,-0.593723,-0.099373,54.5908,-0.0761254,
2,0,0,1,0,16955,-0.0778157,-0.07816,-14.1851,9,-0.00211865,10,0.00110871,-1.84817,-0.612811,-0.0962777,53.3627,-0.07816,
2,0,0,1,0,16955,-0.0798133,-0.0801676,-14.3101,9,-0.00226115,10,0.00114721,-1.84436,-0.568511,-0.10378,57.9175,-0.0801676,
2,0,0,1,0,16955,-0.0818109,-0.0821336,-14.4153,9,-0.00240477,10,0.00118398,-1.84118,-0.537649,-0.109737,61.8157,-0.0821336,
2,0,0,1,0,16955,-0.0837994,-0.0841823,-14.5583,9,-0.00254826,10,0.00122555,-1.83689,-0.526835,-0.11199,63.5593,-0.0841823,
2,0,0,1,0,16955,-0.0857969,-0.0861475,-14.6704,9,-0.00269437,10,0.00126382,-1.83356,-0.517498,-0.11401,65.3566,-0.08614751,
2,0,0,1,0,16955,-0.0877945,-0.0881851,-14.8199,9,-0.00284185,10,0.00130689,-1.82916,-0.49413,-0.119402,69.0005,-0.0881851,
2,0,0,1,0,16955,-0.0897921,-0.0901296,-14.9452,9,-0.00299067,10,0.001347,-1.8255,-0.487631,-0.120993,70.6328,-0.0901296,
2,0,0,1,0,16955,-0.0917806,-0.0921163,-15.0975,9,-0.00313938,10,0.00139073,-1.82109,-0.498682,-0.118312,69.651,-0.0921163,
2,0,0,1,0,16955,-0.0937782,-0.0941473,-15.225,9,-0.00329097,10,0.00143339,-1.81744,-0.493202,-0.119626,71.1525,-0.0941473,
2,0,0,1,0,16955,-0.0957758,-0.0961472,-15.3844,9,-0.00344407,10,0.00147916,-1.81292,-0.479294,-0.123098,73.8457,-0.0961472,
2,0,0,1,0,16955.1,-0.0977734,-0.0981236,-15.5186,9,-0.00359858,10,0.00152274,-1.80915,-0.461147,-0.127942,77.5761,-0.0981236,
2,0,0,1,0,16955.1,-0.0997412,-0.100081,-15.6895,9,-0.00375147,10,0.00157022,-1.80439,0.0944976,0.624355,-369.245,-0.100081,
2,0,0,1,1,16955.1,-0.0996711,-0.100084,-14.7946,9,-0.00379741,10,0.00148071,-1.8299,-0.0126785,-4.65353,2382.18,-0.100084,
2,0,0,1,1,16955.1,-0.0976826,-0.0980461,-10.842,9,-0.00392213,10,0.00106301,-1.96489,-0.0151191,-3.90236,1687.32,-0.0980461,
2,0,0,1,1,16955.1,-0.095685,-0.096084,-8.04481,9,-0.00401568,10,0.000772978,-2.09448,-0.0146845,-4.01784,1263.41,-0.096084,
2,0,0,1,1,16955.1,-0.0936874,-0.0940521,-5.79589,9,-0.00408424,10,0.000545116,-2.23688,-0.0128575,-4.58877,1026.18,-0.0940521,
2,0,0,1,1,16955.1,-0.0916898,-0.0920534,-3.90871,9,-0.00413234,10,0.00035981,-2.40797,-0.0100751,-5.85601,867.95,-0.0920534,
2,0,0,1,1,16955.1,-0.0897013,-0.0900496,-2.32201,9,-0.00416276,10,0.000209096,-2.63414,-0.00635803,-9.27961,750.063,-0.0900496,
2,0,0,1,1,16955.1,-0.0877037,-0.0880767,-0.925903,9,-0.00417867,10,8.15505e-05,-3.03343,-0.00443116,-13.3148,665.995,-0.0880767,
2,1,0,1,1,16955.1,-0.0857062,-0.0861124,0.30015,9,-0.00418142,10,-2.58466e-05,-3.52266,0.0230814,2.55617,577.074,-0.0861124,
2,1,0,1,1,16955.1,-0.0837086,-0.0840823,1.37919,9,-0.00417279,10,-0.000115966,-2.86038,0.0045183,13.058,506.534,-0.0840823,
2,1,0,1,1,16955.2,-0.0817019,-0.0820807,2.34238,9,-0.00415391,10,-0.000192264,-2.63034,0.0108795,5.42305,456.931,-0.0820807,
2,1,0,1,1,16955.2,-0.0797043,-0.0801225,3.18853,9,-0.00412608,10,-0.000255473,-2.49641,0.0174453,3.38199,405.83,-0.0801225,
2,1,0,1,1,16955.2,-0.0777067,-0.0781296,3.94584,9,-0.00409019,10,-0.000308287,-2.40386,0.0246198,2.39645,361.643,-0.0781296,
2,1,0,1,1,16955.2,-0.0757091,-0.0761228,4.63498,9,-0.00404715,10,-0.000352828,-2.33395,0.0323004,1.82661,326.51,-0.0761228,
2,1,0,1,1,16955.2,-0.0737025,-0.0740458,5.27925,9,-0.00399742,10,-0.000390906,-2.27743,0.040343,1.46246,297.555,-0.0740458,
2,1,0,1,1,16955.2,-0.0717049,-0.0720798,5.83801,9,-0.00394175,10,-0.000420802,-2.23374,0.050343,1.17196,264.845,-0.0720798,
2,1,0,1,1,16955.2,-0.0697073,-0.0700643,6.33372,9,-0.00388078,10,-0.000443768,-2.19834,0.0605005,0.975199,239.947,-0.0700643,
2,1,0,1,1,16955.2,-0.0677097,-0.0680897,6.79542,9,-0.00381508,10,-0.000462698,-2.16778,0.0696511,0.84708,223.746,-0.0680897,
2,1,0,1,1,16955.2,-0.0657212,-0.0660947,7.22192,9,-0.00374562,10,-0.00047733,-2.14135,0.08356,0.706079,197.994,-0.0660947,
2,1,0,1,1,16955.2,-0.0637236,-0.0640794,7.58944,9,-0.00367154,10,-0.000486326,-2.11979,0.0983784,0.599725,177.159,-0.0640794,
2,1,0,1,1,16955.3,-0.061726,-0.0621126,7.92738,9,-0.00359389,10,-0.00049239,-2.10087,0.113335,0.520579,160.65,-0.0621126,
2,1,0,1,1,16955.3,-0.0597284,-0.0600671,8.23401,9,-0.00351305,10,-0.000494593,-2.08439,0.129859,0.454339,145.659,-0.0600671,
2,1,0,1,1,16955.3,-0.0577399,-0.05812,8.50894,9,-0.00343012,10,-0.000494539,-2.07012,0.148774,0.396575,131.419,-0.05812,
2,1,0,1,1,16955.3,-0.0557423,-0.0561124,8.75374,9,-0.00334378,10,-0.000491193,-2.05781,0.172093,0.342837,116.972,-0.0561124,
2,1,0,1,1,16955.3,-0.0537447,-0.0540917,8.98013,9,-0.00325501,10,-0.000485751,-2.04672,0.196698,0.299952,104.913,-0.0540917,
2,1,0,1,1,16955.3,-0.0517472,-0.0521084,9.17381,9,-0.0031642,10,-0.000478032,-2.03745,0.219917,0.268283,96.021,-0.05210837,
2,1,0,1,1,16955.3,-0.049745,-0.0500912,9.36427,9,-0.00307144,10,-0.000469067,-2.02853,0.238919,0.246946,90.1448,-0.0500912,
2,1,0,1,1,16955.3,-0.0477429,-0.0480948,9.53561,9,-0.0029769,10,-0.000458613,-2.02065,0.276104,0.213688,79.3968,-0.0480948,
2,1,0,1,1,16955.3,-0.0457453,-0.046134,9.67845,9,-0.00288076,10,-0.000446506,-2.01419,0.331901,0.177764,67.074,-0.046134,
2,1,0,1,1,16955.3,-0.0437477,-0.0441221,9.80208,9,-0.00278341,10,-0.000432488,-2.00868,0.375781,0.157006,60.0416,-0.0441221,
2,1,0,1,1,16955.4,-0.0417501,-0.0421101,9.92006,9,-0.00268472,10,-0.000417735,-2.00349,0.396586,0.14877,57.583,-0.0421101,
2,1,0,1,1,16955.4,-0.0397435,-0.040086,10.0345,9,-0.00258491,10,-0.000402242,-1.9985,0.471963,0.12501,48.8747,-0.04008596,
2,1,0,1,1,16955.4,-0.0377459,-0.0380939,10.1163,9,-0.00248414,10,-0.000385371,-1.99498,0.551098,0.107059,42.2801,-0.0380939,
2,1,0,1,1,16955.4,-0.0357483,-0.0360646,10.2045,9,-0.00238258,10,-0.000368022,-1.99121,0.622474,0.0947831,37.6996,-0.0360646,
2,1,0,1,1,16955.4,-0.0337507,-0.0340917,10.2672,9,-0.00228017,10,-0.000350027,-1.98855,0.716488,0.0823461,33.0023,-0.03409167,
2,1,0,1,1,16955.4,-0.0317622,-0.0321336,10.3342,9,-0.00217823,10,-0.000332076,-1.98572,0.868664,0.0679204,27.3597,-0.0321336,
2,1,0,1,1,16955.4,-0.0297646,-0.0301095,10.3762,9,-0.00207466,10,-0.000312422,-1.98396,1.10687,0.0533037,21.5883,-0.0301095,
2,1,0,1,1,16955.4,-0.027767,-0.0281077,10.4212,9,-0.00197072,10,-0.000292915,-1.98208,1.41789,0.0416111,16.9048,-0.0281077,
2,1,0,1,1,16955.4,-0.0257694,-0.0261401,10.4433,9,-0.00186634,10,-0.000272989,-1.98116,1.37346,0.0429572,17.5288,-0.0261401,
2,1,0,1,1,16955.4,-0.0237809,-0.0241628,10.4903,9,-0.00176275,10,-0.000253475,-1.97921,1.54463,0.038197,15.6145,-0.0241628,
2,1,0,1,1,16955.5,-0.0217833,-0.0221317,10.5059,9,-0.00165771,10,-0.000232513,-1.97857,3.69258,0.015978,6.54961,-0.0221317,
2,1,0,1,1,16955.5,-0.0197858,-0.0201614,10.5165,9,-0.00155258,10,-0.000212028,-1.97813,3.26454,0.018073,7.42053,-0.0201614,
2,1,0,1,1,16955.5,-0.0177882,-0.0181616,10.5353,9,-0.00144729,10,-0.000191338,-1.97735,2.62096,0.0225108,9.25533,-0.0181616,
2,1,0,1,1,16955.5,-0.0157815,-0.0161522,10.5536,9,-0.00134188,10,-0.000170464,-1.9766,4.2435,0.0139036,5.72294,-0.01615219,
2,1,0,1,1,16955.5,-0.0137839,-0.0140925,10.5586,9,-0.00123628,10,-0.000148797,-1.97639,55.924,0.001055,0.434565,-0.0140925,
2,1,0,1,1,16955.5,-0.0117863,-0.0121595,10.5554,9,-0.00113078,10,-0.000128347,-1.97653,23.3703,0.00252457,1.0405,-0.0121595,
2,1,0,1,1,16955.5,-0.00978874,-0.0101189,10.5628,9,-0.00102513,10,-0.000106883,-1.97622,4.84449,0.0121788,5.02176,-0.0101189,
2,1,0,1,1,16955.5,-0.00778207,-0.00813811,10.5755,9,-0.000919488,10,-8.6065e-05,-1.9757,-44.6524,-0.00132132,-0.544633,-0.00813811,
2,1,0,1,1,16955.5,-0.00578449,-0.00616431,10.5606,9,-0.000813819,10,-6.50988e-05,-1.97631,-13.9994,-0.00421446,-1.73886,-0.00616431,
2,1,0,1,1,16955.5,-0.0037869,-0.00413932,10.5686,9,-0.000708218,10,-4.37468e-05,-1.97598,111.685,0.000528272,0.217735,-0.00413932,
2,1,0,1,1,16955.6,-0.00178931,-0.0021794,10.5615,9,-0.000602545,10,-2.30176e-05,-1.97628,-4.6262,-0.0127534,-5.25541,-0.002179397,
2,1,0,1,1,16955.6,-2.55332e-05,-0.00042076,10.5491,9,-0.000510731,10,-4.43862e-06,-1.97679, , , ,-0.00042076,