File: Figure_codes/Fig_3-5/rawdata_trumpetplot_data/after 10th/20221101_1-115_003_TrumpetPlot_ParaChange_from10_every3_05_CV_C01_27.csv
mode,ox/red,error,control changes,counter inc.,time/s,control/V,Ewe/V,<I>/mA,cycle number,(Q-Qo)/C,I Range,P/W,log(|I|),Tafel slope mV/dec,alpha_eff,dI/d(E-IR),E-IR/V,
2,0,0,1,0,54313.5,2.44065e-05,-0.00042076,-0.742422,28,0.0000000E+000,10,3.12382e-07,-3.12935, , , ,-0.00042076,
2,0,0,1,0,54313.6,0.00129787,0.000957412,0.0175632,28,-1.57153e-05,10,1.68152e-08,-4.7554, , , ,0.000957412,
2,1,0,1,0,54313.7,0.00279606,0.00249645,0.357553,28,1.26264e-06,10,8.92612e-07,-3.44666,0.00838523,7.03618,176.249,0.00249645,
2,1,0,1,0,54313.8,0.00429425,0.00394618,0.500379,28,3.52436e-05,10,1.97459e-06,-3.3007,0.0119294,4.94578,80.9397,0.00394618,
2,1,0,1,0,54313.8,0.00579244,0.00544228,0.581059,28,7.74361e-05,10,3.16229e-06,-3.23578,0.0257607,2.29031,49.5005,0.00544228,
2,1,0,1,0,54313.9,0.00729063,0.00697642,0.645857,28,0.000124737,10,4.50577e-06,-3.18986,0.0420883,1.40181,34.4077,0.00697642,
2,1,0,1,0,54314,0.00878882,0.00843098,0.686576,28,0.00017595,10,5.78851e-06,-3.16331,0.0576537,1.02335,27.1072,0.00843098,
2,1,0,1,0,54314.1,0.010287,0.00994999,0.723469,28,0.000230066,10,7.19851e-06,-3.14058,0.0802439,0.735258,20.5199,0.00994999,
2,1,0,1,0,54314.1,0.0117852,0.0114379,0.751832,28,0.000286613,10,8.59939e-06,-3.12388,0.0936823,0.629788,18.3899,0.0114379,
2,1,0,1,0,54314.2,0.0132847,0.0129167,0.779046,28,0.000345176,10,1.00627e-05,-3.10844,0.102633,0.574865,17.4573,0.0129167,
2,1,0,1,0,54314.3,0.0147802,0.0144108,0.800922,28,0.000405481,10,1.15419e-05,-3.09641,0.115678,0.510035,15.9255,0.0144108,
2,1,0,1,0,54314.4,0.0162798,0.0159199,0.823232,28,0.000467816,10,1.31058e-05,-3.08448,0.137473,0.429176,13.7541,0.0159199,
2,1,0,1,0,54314.4,0.017778,0.0173986,0.845013,28,0.000531604,10,1.47021e-05,-3.07314,0.157637,0.374278,12.3048,0.0173986,
2,1,0,1,0,54314.5,0.0192761,0.0188911,0.862616,28,0.000596654,10,1.62958e-05,-3.06418,0.154827,0.381071,12.822,0.0188911,
2,1,0,1,0,54314.6,0.0207743,0.0204225,0.882916,28,0.000663238,10,1.80314e-05,-3.05408,0.153655,0.383978,13.1762,0.0204225,
2,1,0,1,0,54314.7,0.0222725,0.0219197,0.899319,28,0.000731348,10,1.97128e-05,-3.04609,0.164041,0.359667,12.636,0.0219197,
2,1,0,1,0,54314.7,0.0237707,0.0234382,0.919761,28,0.000800784,10,2.15576e-05,-3.03633,0.198351,0.297453,10.6586,0.0234382,
2,1,0,1,0,54314.8,0.0252689,0.024926,0.934045,28,0.000871423,10,2.3282e-05,-3.02963,0.186569,0.316236,11.5694,0.024926,
2,1,0,1,0,54314.9,0.0267671,0.0264636,0.953771,28,0.000943394,10,2.52402e-05,-3.02056,0.172289,0.342448,12.7443,0.0264636,
2,1,0,1,0,54314.9,0.0282653,0.0279387,0.974081,28,0.00101689,10,2.72146e-05,-3.01141,0.176381,0.334504,12.6928,0.0279387,
2,1,0,1,0,54315,0.0297644,0.0294391,0.99156,28,0.00109191,10,2.91906e-05,-3.00368,0.19474,0.302967,11.7026,0.0294391,
2,1,0,1,0,54315.1,0.0312599,0.0309262,1.00593,28,0.00116797,10,3.11096e-05,-2.99743,0.194911,0.302702,11.9321,0.0309262,
2,1,0,1,0,54315.2,0.0327599,0.0324284,1.026,28,0.0012454,10,3.32715e-05,-2.98885,0.196497,0.300259,12.0292,0.0324284,
2,1,0,1,0,54315.2,0.034258,0.0338976,1.04385,28,0.00132423,10,3.5384e-05,-2.98136,0.18537,0.318283,12.9844,0.0338976,
2,1,0,1,0,54315.3,0.0357562,0.0354445,1.06359,28,0.00140445,10,3.76985e-05,-2.97322,0.226403,0.260598,10.7836,0.0354445,
2,1,0,1,0,54315.4,0.0372544,0.0369401,1.08079,28,0.00148599,10,3.99244e-05,-2.96626,0.218065,0.270561,11.4205,0.0369401,
2,1,0,1,0,54315.5,0.0387526,0.0383935,1.09636,28,0.00156866,10,4.20931e-05,-2.96005,0.204186,0.288952,12.4055,0.0383935,
2,1,0,1,0,54315.5,0.0402508,0.0398907,1.11583,28,0.00165281,10,4.45114e-05,-2.9524,0.193992,0.304137,13.2481,0.0398907,
2,1,0,1,0,54315.6,0.041749,0.0414089,1.13729,28,0.00173857,10,4.70938e-05,-2.94413,0.217526,0.271232,12.0024,0.0414089,
2,1,0,1,0,54315.7,0.0432472,0.0428717,1.15529,28,0.00182561,10,4.95292e-05,-2.93731,0.237013,0.248931,11.2018,0.0428717,
2,1,0,1,0,54315.8,0.0447449,0.0444018,1.17046,28,0.00191378,10,5.19707e-05,-2.93164,0.245925,0.23991,10.958,0.0444018,
2,1,0,1,0,54315.8,0.0462445,0.0458796,1.18785,28,0.00200344,10,5.44981e-05,-2.92524,0.209233,0.281982,13.04,0.0458796,
2,1,0,1,0,54315.9,0.04774,0.0473885,1.20438,28,0.00209413,10,5.70738e-05,-2.91924,0.236324,0.249657,11.7462,0.0473885,
2,1,0,1,0,54316,0.0492399,0.0489091,1.22023,28,0.00218642,10,5.96806e-05,-2.91356,0.243712,0.242089,11.5398,0.0489091,
2,1,0,1,0,54316.1,0.0507381,0.0503757,1.23421,28,0.00227975,10,6.21742e-05,-2.90861,0.253451,0.232786,11.2499,0.0503757,
2,1,0,1,0,54316.1,0.0522363,0.0518576,1.25283,28,0.0023743,10,6.49686e-05,-2.90211,0.240424,0.2454,12.0051,0.0518576,
2,1,0,1,0,54316.2,0.0537345,0.0533674,1.27413,28,0.00247019,10,6.79972e-05,-2.89479,0.249918,0.236078,11.6989,0.0533674,
2,1,0,1,0,54316.3,0.0552327,0.0548848,1.28843,28,0.00256738,10,7.0715e-05,-2.88994,0.306781,0.192319,9.64957,0.0548848,
2,1,0,1,0,54316.4,0.0567309,0.0564147,1.30065,28,0.00266563,10,7.33759e-05,-2.88584,0.307583,0.191818,9.75257,0.0564147,
2,1,0,1,0,54316.4,0.0582291,0.0578465,1.31616,28,0.00276485,10,7.61353e-05,-2.88069,0.309597,0.19057,9.79582,0.0578465,
2,1,0,1,0,54316.5,0.0597291,0.0593857,1.33263,28,0.00286543,10,7.91393e-05,-2.87529,0.288781,0.204307,10.6123,0.0593857,
2,1,0,1,0,54316.6,0.0612246,0.0608615,1.34713,28,0.0029669,10,8.19885e-05,-2.87059,0.351583,0.167812,8.80586,0.0608615,
2,1,0,1,0,54316.7,0.0627241,0.0623592,1.36115,28,0.00306977,10,8.48802e-05,-2.86609,0.340051,0.173503,9.21085,0.0623592,
2,1,0,1,0,54316.7,0.0642218,0.0638705,1.37356,28,0.00317334,10,8.77299e-05,-2.86215,0.338949,0.174067,9.34422,0.0638705,
2,1,0,1,0,54316.8,0.06572,0.0653362,1.39013,28,0.00327804,10,9.08258e-05,-2.85694,0.309671,0.190525,10.3162,0.0653362,
2,1,0,1,0,54316.9,0.0672182,0.0668696,1.40477,28,0.00338385,10,9.39367e-05,-2.85239,0.357075,0.165231,9.03192,0.0668696,
2,1,0,1,0,54317,0.0687164,0.0683595,1.41407,28,0.00349066,10,9.66649e-05,-2.84953,0.452234,0.130463,7.18563,0.0683595,
2,1,0,1,0,54317,0.0702146,0.0698805,1.42313,28,0.0035982,10,9.9449e-05,-2.84676,0.437275,0.134926,7.50456,0.06988053,
2,1,0,1,0,54317.1,0.0717128,0.0713403,1.43746,28,0.00370656,10,0.000102549,-2.84241,0.402015,0.146761,8.22759,0.0713403,
2,1,0,1,0,54317.2,0.073211,0.0728794,1.44921,28,0.00381585,10,0.000105617,-2.83887,0.436279,0.135235,7.64344,0.0728794,
2,1,0,1,0,54317.3,0.0747092,0.0743155,1.45777,28,0.003926,10,0.000108335,-2.83631,0.51609,0.114321,6.50046,0.0743155,
2,1,0,1,0,54317.3,0.0762087,0.0758398,1.46679,28,0.004037,10,0.000111241,-2.83363,0.481884,0.122436,7.02008,0.07583981,
2,1,0,1,0,54317.4,0.0777042,0.0773618,1.4777,28,0.0041484,10,0.000114317,-2.83041,0.45818,0.12877,7.42798,0.0773618,
2,1,0,1,0,54317.5,0.0792037,0.0788571,1.49074,28,0.004261,10,0.000117556,-2.8266,0.479945,0.122931,7.14156,0.0788571,
2,1,0,1,0,54317.6,0.0807019,0.0803235,1.49882,28,0.00437421,10,0.000120391,-2.82425,0.664691,0.0887631,5.18687,0.0803235,
2,1,0,1,0,54317.6,0.0822001,0.0818636,1.50413,28,0.0044881,10,0.000123134,-2.82271,0.543211,0.108613,6.38086,0.08186356,
2,1,0,1,0,54317.7,0.0836983,0.0833449,1.51663,28,0.00460252,10,0.000126404,-2.81912,0.538597,0.109544,6.49182,0.0833449,
2,1,0,1,0,54317.8,0.0851965,0.0848765,1.52702,28,0.00471766,10,0.000129609,-2.81615,0.521235,0.113193,6.7529,0.0848765,
2,1,0,1,0,54317.9,0.0866947,0.0862911,1.53684,28,0.00483371,10,0.000132615,-2.81337,0.516589,0.114211,6.84909,0.08629106,
2,1,0,1,0,54317.9,0.0881929,0.0878167,1.55176,28,0.00495062,10,0.00013627,-2.80918,0.470128,0.125498,7.591,0.0878167,
2,1,0,1,0,54318,0.0896911,0.089329,1.56249,28,0.00506828,10,0.000139576,-2.80618,0.40244,0.146606,8.94838,0.089329,
2,1,0,1,0,54318.1,0.0911893,0.090803,1.57649,28,0.00518694,10,0.00014315,-2.80231,0.33611,0.175538,10.808,0.090803,
2,1,0,1,0,54318.2,0.0926884,0.0923235,1.59389,28,0.0053071,10,0.000147154,-2.79754,0.307904,0.191618,11.9064,0.0923235,
2,1,0,1,0,54318.2,0.0941839,0.0938016,1.60803,28,0.00542816,10,0.000150835,-2.79371,0.311701,0.189284,11.8992,0.0938016,
2,1,0,1,0,54318.3,0.0956838,0.0952672,1.62742,28,0.00555079,10,0.00015504,-2.7885,0.26685,0.221098,14.0697,0.0952672,
2,1,0,1,0,54318.4,0.097182,0.0968329,1.64754,28,0.0056747,10,0.000159536,-2.78316,0.243191,0.242607,15.6319,0.0968329,
2,1,0,1,0,54318.5,0.0986802,0.0983201,1.67107,28,0.00580038,10,0.0001643,-2.77701,0.233827,0.252324,16.4835,0.0983201,
2,1,0,1,0,54318.5,0.100178,0.0998325,1.69694,28,0.00592797,10,0.00016941,-2.77033,0.240625,0.245195,16.2478,0.09983249,
2,1,0,1,0,54318.6,0.101677,0.101337,1.72213,28,0.00605743,10,0.000174516,-2.76393,0.216159,0.272947,18.4046,0.101337,
2,1,0,1,0,54318.7,0.103175,0.102862,1.75273,28,0.00618883,10,0.000180289,-2.75629,0.202499,0.29136,19.9751,0.1028618,
2,1,0,1,0,54318.8,0.104673,0.104298,1.7864,28,0.00632265,10,0.000186318,-2.74802,0.19514,0.302346,21.0475,0.104298,
2,1,0,1,0,54318.8,0.106171,0.105846,1.81573,28,0.00645889,10,0.000192187,-2.74095,0.207615,0.28418,20.1236,0.105846,
2,1,0,1,0,54318.9,0.107669,0.107286,1.8451,28,0.00659741,10,0.000197953,-2.73398,0.215299,0.274037,19.7472,0.107286,
2,1,0,1,0,54319,0.109168,0.108808,1.87637,28,0.00673821,10,0.000204163,-2.72668,0.220935,0.267047,19.5757,0.108808,
2,1,0,1,0,54319.1,0.110664,0.110304,1.90584,28,0.00688095,10,0.000210221,-2.71991,0.218123,0.270489,20.1007,0.110304,
2,1,0,1,0,54319.1,0.112164,0.111813,1.93399,28,0.0070264,10,0.000216246,-2.71355,0.241923,0.243879,18.3905,0.111813,
2,1,0,1,0,54319.2,0.113662,0.11333,1.96357,28,0.00717373,10,0.000222532,-2.70695,0.271132,0.217606,16.6649,0.11333,
2,1,0,1,0,54319.3,0.11516,0.114776,1.98649,28,0.00732272,10,0.000228,-2.70191,0.305131,0.19336,14.9787,0.114776,
2,1,0,1,0,54319.4,0.116658,0.116279,2.00995,28,0.00747362,10,0.000233715,-2.69681,0.308583,0.191197,14.9561,0.116279,
2,1,0,1,0,54319.4,0.118157,0.117779,2.03153,28,0.00762622,10,0.00023927,-2.69218,0.391363,0.150755,11.9274,0.117779,
2,1,0,1,0,54319.5,0.119655,0.119339,2.04963,28,0.00778013,10,0.0002446,-2.68832,0.530026,0.111315,8.88332,0.119339,
2,1,0,1,0,54319.6,0.121153,0.120799,2.05836,28,0.00793505,10,0.000248647,-2.68648,0.568977,0.103695,8.32666,0.120799,
2,1,0,1,0,54319.7,0.122653,0.122305,2.07087,28,0.00809115,10,0.000253278,-2.68385,0.545001,0.108257,8.74176,0.1223048,
2,1,0,1,0,54319.7,0.124149,0.123793,2.08376,28,0.00824782,10,0.000257955,-2.68115,0.609117,0.0968616,7.87131,0.123793,
2,1,0,1,0,54319.8,0.125648,0.125297,2.09293,28,0.00840573,10,0.000262238,-2.67924,0.901709,0.0654313,5.339,0.1252971,
2,1,0,1,0,54319.9,0.127146,0.126748,2.09768,28,0.00856405,10,0.000265876,-2.67826,1.00772,0.0585478,4.79797,0.126748,
2,1,0,1,0,54320,0.128644,0.1283,2.10717,28,0.00872287,10,0.000270349,-2.6763,0.996606,0.0592009,4.86931,0.1283,
2,1,0,1,0,54320,0.130142,0.129771,2.11706,28,0.00888234,10,0.000274733,-2.67427,1.01897,0.0579015,4.77747,0.129771,
2,1,0,1,0,54320.1,0.13164,0.131291,2.12076,28,0.00904233,10,0.000278437,-2.67351,4.70286,0.0125455,1.03618,0.131291,
2,1,0,1,0,54320.2,0.133139,0.132809,2.12201,28,0.00920255,10,0.000281823,-2.67325,-5.90203,-0.00999656,-0.826926,0.132809,
2,1,0,1,0,54320.3,0.134637,0.134261,2.1181,28,0.00936258,10,0.000284379,-2.67405,-1.87515,-0.0314642,-2.59895,0.134261,
2,1,0,1,0,54320.3,0.136135,0.135757,2.1161,28,0.00952247,10,0.000287275,-2.67446,-0.806838,-0.0731249,-6.02369,0.135757,
2,1,0,1,0,54320.4,0.137633,0.137288,2.10427,28,0.00968177,10,0.000288891,-2.6769,-0.483143,-0.122117,-9.99947,0.137288,
2,1,0,1,0,54320.5,0.139133,0.138753,2.08688,28,0.00984016,10,0.000289561,-2.6805,-0.312942,-0.188533,-15.287,0.138753,
2,1,0,1,0,54320.6,0.140628,0.14027,2.05588,28,0.00999629,10,0.000288378,-2.687,-0.231931,-0.254386,-20.3474,0.14027,
2,1,0,1,0,54320.6,0.142128,0.141701,2.02195,28,0.0101505,10,0.000286513,-2.69423,-0.188348,-0.313251,-24.6069,0.141701,
2,1,0,1,0,54320.7,0.143626,0.143265,1.97971,28,0.0103017,10,0.000283622,-2.7034,-0.14213,-0.415113,-31.9238,0.143265,
2,1,0,1,0,54320.8,0.145124,0.144773,1.92522,28,0.0104491,10,0.000278721,-2.71552,-0.111035,-0.531365,-39.7559,0.144773,
2,1,0,1,0,54320.9,0.146622,0.146266,1.86056,28,0.0105922,10,0.000272138,-2.73036,-0.101076,-0.583721,-42.3055,0.146266,
2,1,0,1,0,54320.9,0.14812,0.147773,1.79752,28,0.0107305,10,0.000265625,-2.74533,-0.090758,-0.65008,-45.4466,0.147773,
2,1,0,1,0,54321,0.149619,0.149271,1.72707,28,0.0108636,10,0.000257802,-2.76269,-0.0847607,-0.696077,-46.8336,0.149271,
2,1,0,1,0,54321.1,0.151117,0.150727,1.6556,28,0.0109914,10,0.000249545,-2.78104,-0.0775742,-0.760562,-49.0457,0.150727,
2,1,0,1,0,54321.2,0.152615,0.152254,1.58238,28,0.0111138,10,0.000240924,-2.80069,-0.0787672,-0.749042,-46.3015,0.152254,
2,1,0,1,0,54321.2,0.154113,0.153705,1.51578,28,0.011231,10,0.000232983,-2.81936,-0.0829107,-0.711609,-42.18,0.153705,
2,1,0,1,0,54321.3,0.155613,0.155263,1.45424,28,0.0113434,10,0.000225789,-2.83736,-0.0846969,-0.696602,-39.5624,0.155263,
2,1,0,1,0,54321.4,0.157108,0.156724,1.39597,28,0.0114512,10,0.000218781,-2.85512,-0.0854486,-0.690474,-37.6109,0.156724,
2,1,0,1,0,54321.5,0.158608,0.158267,1.34082,28,0.011555,10,0.000212208,-2.87263,-0.0922594,-0.639501,-33.5536,0.158267,
2,1,0,1,0,54321.5,0.160106,0.159759,1.29527,28,0.0116548,10,0.000206932,-2.88764,-0.102726,-0.574341,-29.137,0.159759,
2,1,0,1,0,54321.6,0.161604,0.161234,1.25369,28,0.0117514,10,0.000202138,-2.90181,-0.114734,-0.514234,-25.2054,0.161234,
2,1,0,1,0,54321.7,0.163102,0.162753,1.21674,28,0.011845,10,0.000198029,-2.9148,-0.120903,-0.487993,-23.2217,0.162753,
2,1,0,1,0,54321.8,0.164601,0.164227,1.18576,28,0.0119362,10,0.000194735,-2.926,-0.135281,-0.436129,-20.1821,0.164227,
2,1,0,1,0,54321.8,0.166099,0.165721,1.15537,28,0.012025,10,0.000191469,-2.93728,-0.151976,-0.388219,-17.5893,0.1657214,
2,1,0,1,0,54321.9,0.167597,0.167213,1.13203,28,0.0121118,10,0.000189291,-2.94614,-0.176163,-0.334917,-14.8349,0.167213,
2,1,0,1,0,54322,0.169095,0.168742,1.11157,28,0.0121971,10,0.000187568,-2.95406,-0.189137,-0.311944,-13.557,0.168742,
2,1,0,1,0,54322.1,0.170593,0.170269,1.09261,28,0.0122809,10,0.000186039,-2.96153,-0.209332,-0.281849,-12.0484,0.170269,
2,1,0,1,0,54322.1,0.172092,0.17174,1.07317,28,0.0123633,10,0.000184305,-2.96933,-0.238929,-0.246935,-10.3969,0.17174,
2,1,0,1,0,54322.2,0.173588,0.173216,1.06131,28,0.0124444,10,0.000183835,-2.97416,-0.299221,-0.197179,-8.18565,0.173216,
2,1,0,1,0,54322.3,0.175088,0.17472,1.05105,28,0.0125248,10,0.000183639,-2.97838,-0.327922,-0.179921,-7.37088,0.17472,
2,1,0,1,0,54322.4,0.176586,0.176232,1.04056,28,0.0126042,10,0.000183381,-2.98273,-0.319977,-0.184388,-7.46931,0.176232,
2,1,0,1,0,54322.4,0.178084,0.177729,1.02665,28,0.0126829,10,0.000182465,-2.98858,-0.372136,-0.158544,-6.37392,0.177729,
2,1,0,1,0,54322.5,0.179582,0.179239,1.0178,28,0.0127606,10,0.00018243,-2.99234,-0.442158,-0.133436,-5.3262,0.179239,
2,1,0,1,0,54322.6,0.181081,0.180693,1.01167,28,0.0128379,10,0.000182802,-2.99496,-0.519498,-0.113571,-4.48632,0.180693,
2,1,0,1,0,54322.7,0.182579,0.182222,1.00428,28,0.0129147,10,0.000183002,-2.99814,-0.520258,-0.113405,-4.43772,0.182222,
2,1,0,1,0,54322.7,0.184077,0.183679,0.998142,28,0.012991,10,0.000183338,-3.00081,-0.547072,-0.107847,-4.20659,0.183679,
2,1,0,1,0,54322.8,0.185577,0.185242,0.993722,28,0.0130667,10,0.000184079,-3.00274,-0.632295,-0.0933109,-3.61712,0.185242,
2,1,0,1,0,54322.9,0.187073,0.186726,0.988008,28,0.0131419,10,0.000184487,-3.00524,-0.605564,-0.0974298,-3.74526,0.186726,
2,1,0,1,0,54323,0.188572,0.188209,0.981576,28,0.013217,10,0.000184741,-3.00808,-0.923119,-0.0639137,-2.44923,0.188209,
2,1,0,1,0,54323,0.19007,0.189689,0.977148,28,0.0132916,10,0.000185354,-3.01004,-0.825993,-0.0714292,-2.72579,0.189689,
2,1,0,1,0,54323.1,0.191568,0.191185,0.971856,28,0.0133658,10,0.000185805,-3.0124,-0.716783,-0.0823122,-3.12871,0.191185,
2,1,0,1,0,54323.2,0.193066,0.192723,0.967889,28,0.0134397,10,0.000186534,-3.01417,-1.55394,-0.0379679,-1.43593,0.1927226,
2,1,0,1,0,54323.3,0.194564,0.194204,0.967608,28,0.0135135,10,0.000187913,-3.0143,-0.874359,-0.067478,-2.5446,0.194204,
2,1,0,1,0,54323.3,0.196063,0.195734,0.963164,28,0.013587,10,0.000188524,-3.0163,-0.96556,-0.0611044,-2.29363,0.195734,
2,1,0,1,0,54323.4,0.197561,0.197178,0.957955,28,0.0136601,10,0.000188888,-3.01865,-1.15048,-0.0512828,-1.91996,0.197178,
2,1,0,1,0,54323.5,0.199059,0.198726,0.957145,28,0.013733,10,0.000190209,-3.01902,-0.960151,-0.0614487,-2.2908,0.198726,
2,1,0,1,0,54323.6,0.200557,0.200192,0.954593,28,0.0138058,10,0.000191102,-3.02018,-1.05094,-0.0561401,-2.08839,0.200192,
2,1,0,1,0,54323.6,0.202057,0.201713,0.951807,28,0.0138784,10,0.000191991,-3.02145,-0.907083,-0.0650436,-2.41368,0.201713,
2,1,0,1,0,54323.7,0.203552,0.203139,0.9449,28,0.0139506,10,0.000191946,-3.02461,-1.94474,-0.0303383,-1.12426,0.203139,
2,1,0,1,0,54323.8,0.205052,0.204694,0.945065,28,0.0140228,10,0.000193449,-3.02454,6.96292,0.00847345,0.313897,0.204694,
2,1,0,1,0,54323.9,0.20655,0.206205,0.943225,28,0.0140948,10,0.000194497,-3.02538,-3.3585,-0.0175674,-0.648236,0.206205,
2,1,0,1,0,54323.9,0.208048,0.20772,0.944431,28,0.0141669,10,0.000196177,-3.02483,-1.43983,-0.040977,-1.50628,0.20772,
2,1,0,1,0,54324,0.209546,0.209271,0.941035,28,0.0142386,10,0.000196932,-3.02639,-0.955943,-0.0617192,-2.26848,0.209271,
2,1,0,1,0,54324.1,0.211044,0.210668,0.937447,28,0.0143101,10,0.00019749,-3.02805,-1.11675,-0.0528318,-1.93393,0.210668,
2,1,0,1,0,54324.2,0.212543,0.212226,0.934894,28,0.0143815,10,0.000198409,-3.02924,-2.44349,-0.0241458,-0.882038,0.212226,
2,1,0,1,0,54324.2,0.214041,0.213686,0.936315,28,0.0144528,10,0.000200078,-3.02858,-2.41806,-0.0243997,-0.890864,0.213686,
2,1,0,1,0,54324.3,0.215539,0.215176,0.933148,28,0.0145239,10,0.000200791,-3.03005,-1.16567,-0.0506148,-1.84688,0.215176,
2,1,0,1,0,54324.4,0.217037,0.216713,0.929549,28,0.0145949,10,0.000201446,-3.03173,-2.2301,-0.0264562,-0.962218,0.216713,
2,1,0,1,0,54324.5,0.218536,0.218184,0.929465,28,0.0146658,10,0.000202794,-3.03177,82.7088,0.000713347,0.0258898,0.2181838,
2,1,0,1,0,54324.5,0.220032,0.21974,0.929235,28,0.0147365,10,0.00020419,-3.03187,-4.76736,-0.0123758,-0.448964,0.21974,
2,1,0,1,0,54324.6,0.221532,0.221223,0.927747,28,0.0148074,10,0.000205239,-3.03257,-1.96417,-0.0300382,-1.0864,0.221223,
2,1,0,1,0,54324.7,0.22303,0.222727,0.92126,28,0.0148779,10,0.00020519,-3.03562,-2.16167,-0.0272937,-0.987186,0.222727,
2,1,0,1,0,54324.8,0.224528,0.22416,0.922467,28,0.0149483,10,0.00020678,-3.03505,-2.32777,-0.0253461,-0.913434,0.22416,
2,1,0,1,0,54324.8,0.226026,0.225612,0.923214,28,0.0150187,10,0.000208289,-3.0347,13.4263,0.00439435,0.158258,0.225612,
2,1,0,1,0,54324.9,0.227525,0.227183,0.921321,28,0.015089,10,0.000209308,-3.03559,-0.865908,-0.0681365,-2.45051,0.227183,
2,1,0,1,0,54325,0.229023,0.228671,0.919661,28,0.0151592,10,0.000210299,-3.03637,-1.87149,-0.0315256,-1.13327,0.228671,
2,1,0,1,0,54325.1,0.230521,0.230194,0.917933,28,0.0152292,10,0.000211303,-3.03719,-1.4493,-0.0407093,-1.46519,0.2301944,
2,1,0,1,0,54325.1,0.232019,0.231699,0.917784,28,0.0152991,10,0.00021265,-3.03726,-4.67816,-0.0126118,-0.451955,0.231699,
2,1,0,1,0,54325.2,0.233517,0.233134,0.918415,28,0.0153691,10,0.000214114,-3.03696,-1.78623,-0.0330304,-1.18043,0.233134,
2,1,0,1,0,54325.3,0.235016,0.234697,0.916441,28,0.015439,10,0.000215086,-3.0379,-2.38416,-0.0247467,-0.88342,0.234697,
2,1,0,1,0,54325.4,0.236512,0.236125,0.912899,28,0.0155086,10,0.000215559,-3.03958,-1.90318,-0.0310007,-1.10866,0.236125,
2,1,0,1,0,54325.4,0.238012,0.237668,0.914642,28,0.0155782,10,0.000217381,-3.03875,20.1454,0.00292871,0.104389,0.237668,
2,1,0,1,0,54325.5,0.23951,0.23917,0.914426,28,0.0156478,10,0.000218704,-3.03885,-2.32228,-0.0254061,-0.903561,0.23917,
2,1,0,1,0,54325.6,0.241008,0.240646,0.911119,28,0.0157174,10,0.000219257,-3.04043,-2.83168,-0.0208357,-0.741426,0.240646,
2,1,0,1,0,54325.7,0.242506,0.242162,0.90979,28,0.0157868,10,0.000220317,-3.04106,-2.34494,-0.0251605,-0.893989,0.242162,
2,1,0,1,0,54325.7,0.244005,0.243663,0.910356,28,0.015856,10,0.00022182,-3.04079,8.33907,0.00707513,0.251295,0.243663,
2,1,0,1,0,54325.8,0.245503,0.245176,0.912626,28,0.0159253,10,0.000223754,-3.03971,-6.43865,-0.00916341,-0.324604,0.245176,
2,1,0,1,0,54325.9,0.247001,0.246613,0.908613,28,0.0159946,10,0.000224076,-3.04162,-1.50295,-0.039256,-1.38874,0.246613,
2,1,0,1,0,54326,0.248501,0.248131,0.905656,28,0.0160638,10,0.000224721,-3.04304,-2.33536,-0.0252637,-0.894598,0.248131,
2,1,0,1,0,54326,0.249997,0.249627,0.904703,28,0.0161327,10,0.000225838,-3.04349,-16.9309,-0.00348476,-0.123021,0.249627,
2,1,0,1,0,54326.1,0.251496,0.251163,0.903849,28,0.0162017,10,0.000227014,-3.0439,-2.43192,-0.0242607,-0.856722,0.251163,
2,1,0,1,0,54326.2,0.252994,0.252643,0.903449,28,0.0162707,10,0.00022825,-3.0441,-1.12009,-0.0526744,-1.85451,0.252643,
2,1,0,1,0,54326.3,0.254492,0.254141,0.901277,28,0.0163395,10,0.000229051,-3.04514,-2.49666,-0.0236316,-0.833254,0.254141,
2,1,0,1,0,54326.3,0.25599,0.255672,0.900235,28,0.0164081,10,0.000230165,-3.04564,-5.48017,-0.0107661,-0.379206,0.255672,
2,1,0,1,0,54326.4,0.257488,0.257187,0.899593,28,0.0164767,10,0.000231363,-3.04595,-49.6457,-0.00118842,-0.0416975,0.257187,
2,1,0,1,0,54326.5,0.258987,0.258651,0.900537,28,0.0165454,10,0.000232925,-3.0455,-2.35584,-0.0250442,-0.877907,0.258651,
2,1,0,1,0,54326.6,0.260485,0.260181,0.898466,28,0.0166139,10,0.000233764,-3.0465,-1.67403,-0.0352443,-1.23543,0.260181,
2,1,0,1,0,54326.6,0.261983,0.261625,0.89852,28,0.0166822,10,0.000235075,-3.04647,-3.32365,-0.0177515,-0.621492,0.261625,
2,1,0,1,0,54326.7,0.263481,0.263161,0.89669,28,0.0167506,10,0.000235974,-3.04736,50.3352,0.00117214,0.0409385,0.263161,
2,1,0,1,0,54326.8,0.264981,0.264602,0.894207,28,0.0168189,10,0.000236609,-3.04856,-3.84637,-0.0153391,-0.536562,0.264602,
2,1,0,1,0,54326.9,0.266476,0.266085,0.892164,28,0.016887,10,0.000237392,-3.04956,-2.40996,-0.0244817,-0.854461,0.266085,
2,1,0,1,0,54326.9,0.267976,0.267607,0.891111,28,0.0169551,10,0.000238467,-3.05007,-1.81269,-0.0325483,-1.13329,0.267607,
2,1,0,1,0,54327,0.269474,0.26913,0.889816,28,0.017023,10,0.000239476,-3.0507,-2.41592,-0.0244214,-0.849006,0.26913,
2,1,0,1,0,54327.1,0.270972,0.270651,0.893045,28,0.017091,10,0.000241704,-3.04913,-1.72269,-0.0342488,-1.18846,0.270651,
2,1,0,1,0,54327.2,0.27247,0.272122,0.888954,28,0.0171588,10,0.000241904,-3.05112,-0.917038,-0.0643376,-2.22671,0.272122,
2,1,0,1,0,54327.2,0.273968,0.273614,0.886292,28,0.0172265,10,0.000242502,-3.05242,-1.74714,-0.0337695,-1.17096,0.273614,
2,1,0,1,0,54327.3,0.275467,0.275097,0.885395,28,0.017294,10,0.000243569,-3.05286,-1.81513,-0.0325046,-1.12292,0.2750968,
2,1,0,1,0,54327.4,0.276965,0.27659,0.883745,28,0.0173615,10,0.000244436,-3.05367,-3.13705,-0.0188075,-0.649687,0.27659,
2,1,0,1,0,54327.5,0.278463,0.278144,0.882617,28,0.0174289,10,0.000245494,-3.05423,-1.00445,-0.0587388,-2.02483,0.278144,
2,1,0,1,0,54327.5,0.279961,0.279649,0.882911,28,0.0174962,10,0.000246905,-3.05408,-2.31165,-0.0255229,-0.87952,0.279649,
2,1,0,1,0,54327.6,0.28146,0.281075,0.878966,28,0.0175633,10,0.000247055,-3.05603,-2.70652,-0.0217992,-0.749808,0.281075,
2,1,0,1,0,54327.7,0.282956,0.282638,0.879789,28,0.0176303,10,0.000248662,-3.05562,-6.76002,-0.00872778,-0.299381,0.282638,
2,1,0,1,0,54327.8,0.284456,0.284115,0.877418,28,0.0176974,10,0.000249288,-3.05679,-1.44935,-0.0407079,-1.39346,0.284115,
2,1,0,1,0,54327.8,0.285954,0.285598,0.876746,28,0.0177643,10,0.000250397,-3.05713,-1.31456,-0.044882,-1.53699,0.285598,
2,1,0,1,0,54327.9,0.287452,0.287083,0.873277,28,0.0178309,10,0.000250703,-3.05885,-1.43002,-0.0412581,-1.40881,0.287083,
2,1,0,1,0,54328,0.28895,0.288574,0.871577,28,0.0178975,10,0.000251515,-3.05969,-2.67275,-0.0220746,-0.750694,0.288574,
2,1,0,1,0,54328.1,0.290449,0.290101,0.872094,28,0.0179641,10,0.000252995,-3.05944,-2.09805,-0.0281214,-0.956894,0.290101,
2,1,0,1,0,54328.1,0.291947,0.291614,0.870672,28,0.0180304,10,0.0002539,-3.06015,-1.05017,-0.0561812,-1.90894,0.291614,
2,1,0,1,0,54328.2,0.293445,0.293149,0.865699,28,0.0180967,10,0.000253778,-3.06263,-3.78344,-0.0155943,-0.528191,0.293149,
2,1,0,1,0,54328.3,0.294943,0.294608,0.867744,28,0.0181628,10,0.000255644,-3.06161,-6.22357,-0.00948009,-0.320931,0.294608,
2,1,0,1,0,54328.4,0.296441,0.296102,0.86782,28,0.0182289,10,0.000256963,-3.06157,-1.74875,-0.0337383,-1.13956,0.296102,
2,1,0,1,0,54328.4,0.29794,0.297607,0.864977,28,0.018295,10,0.000257423,-3.063,-2.1598,-0.0273173,-0.922617,0.297607,
2,1,0,1,0,54328.5,0.299436,0.299108,0.860392,28,0.0183607,10,0.00025735,-3.0653,-0.00404644,-14.5807,-312.249,0.299108,
2,1,0,1,0,54328.6,0.299739,0.299388,0.584481,28,0.0183944,10,0.000174986,-3.23323,0.000710505,83.0395,702.385,0.299388,
2,1,0,1,0,54328.6,0.298239,0.297888,0.0813539,28,0.0184135,10,2.42344e-05,-4.08962,0.00377569,15.6263,249.332,0.297888,
2,0,0,1,0,54328.7,0.296741,0.296396,-0.0565691,28,0.0184124,10,-1.67668e-05,-4.24742,0.0443513,1.33029,77.6966,0.296396,
2,0,0,1,0,54328.8,0.295243,0.294871,-0.123368,28,0.0184041,10,-3.63776e-05,-3.9088,-0.00453681,-13.0047,38.018,0.294871,
2,0,0,1,0,54328.9,0.293745,0.2934,-0.167259,28,0.018392,10,-4.90739e-05,-3.77661,-0.0144244,-4.09029,24.0414,0.2934,
2,0,0,1,0,54328.9,0.292246,0.29188,-0.197217,28,0.0183772,10,-5.75637e-05,-3.70505,-0.0228445,-2.58268,19.0983,0.2918795,
2,0,0,1,0,54329,0.290748,0.290406,-0.224078,28,0.0183603,10,-6.50736e-05,-3.6496,-0.0298702,-1.97521,16.6862,0.290406,
2,0,0,1,0,54329.1,0.28925,0.28886,-0.245102,28,0.0183415,10,-7.08003e-05,-3.61065,-0.0418929,-1.40835,13.2128,0.28886,
2,0,0,1,0,54329.2,0.287752,0.287386,-0.263618,28,0.0183213,10,-7.576e-05,-3.57903,-0.0523383,-1.12728,11.4847,0.287386,
2,0,0,1,0,54329.2,0.286254,0.285874,-0.276468,28,0.0182999,10,-7.90351e-05,-3.55835,-0.0590178,-0.999698,10.8748,0.285874,
2,0,0,1,0,54329.3,0.284754,0.284429,-0.292277,28,0.0182773,10,-8.3132e-05,-3.53421,-0.0637957,-0.924827,10.5229,0.284429,
2,0,0,1,0,54329.4,0.283259,0.282916,-0.309523,28,0.0182536,10,-8.75692e-05,-3.50931,-0.073765,-0.799838,9.5259,0.282916,
2,0,0,1,0,54329.5,0.281759,0.281401,-0.32085,28,0.0182288,10,-9.02877e-05,-3.4937,-0.0972999,-0.606373,7.58333,0.281401,
2,0,0,1,0,54329.5,0.280261,0.279902,-0.330325,28,0.0182031,10,-9.24586e-05,-3.48106,-0.0951749,-0.619911,8.03491,0.279902,
2,0,0,1,0,54329.6,0.278763,0.278389,-0.343467,28,0.0181766,10,-9.56173e-05,-3.46411,-0.0987569,-0.597427,7.98793,0.278389,
2,0,0,1,0,54329.7,0.277264,0.27691,-0.355653,28,0.0181493,10,-9.84839e-05,-3.44897,-0.108873,-0.541916,7.48204,0.27691,
2,0,0,1,0,54329.7,0.275766,0.275361,-0.366196,28,0.018121,10,-0.000100836,-3.43629,-0.139429,-0.423154,5.99938,0.275361,
2,0,0,1,0,54329.8,0.274268,0.273913,-0.373973,28,0.0180921,10,-0.000102436,-3.42716,-0.142732,-0.413363,6.06175,0.273913,
2,0,0,1,0,54329.9,0.27277,0.272396,-0.385083,28,0.0180625,10,-0.000104895,-3.41445,-0.140625,-0.419557,6.29514,0.272396,
2,0,0,1,0,54330,0.271272,0.270929,-0.39366,28,0.0180322,10,-0.000106654,-3.40488,-0.155847,-0.378577,5.79341,0.2709288,
2,0,0,1,0,54330,0.269774,0.269418,-0.402814,28,0.0180011,10,-0.000108525,-3.3949,-0.160232,-0.368216,5.76952,0.269418,
2,0,0,1,0,54330.1,0.268274,0.267848,-0.410518,28,0.0179695,10,-0.000109956,-3.38667,-0.20475,-0.288157,4.60365,0.267848,
2,0,0,1,0,54330.2,0.266779,0.266413,-0.417493,28,0.0179374,10,-0.000111225,-3.37935,-0.203465,-0.289977,4.73041,0.266413,
2,0,0,1,0,54330.3,0.265279,0.264911,-0.427115,28,0.0179046,10,-0.000113147,-3.36945,-0.168878,-0.349364,5.79312,0.264911,
2,0,0,1,0,54330.3,0.263781,0.263407,-0.43494,28,0.0178712,10,-0.000114566,-3.36157,-0.19874,-0.29687,5.0231,0.263407,
2,0,0,1,0,54330.4,0.262283,0.261907,-0.440826,28,0.0178372,10,-0.000115455,-3.35573,-0.227064,-0.259838,4.47427,0.261907,
2,0,0,1,0,54330.5,0.260784,0.260487,-0.445712,28,0.0178027,10,-0.000116102,-3.35095,-0.241564,-0.244242,4.27015,0.260487,
2,0,0,1,0,54330.6,0.259286,0.258975,-0.454987,28,0.0177677,10,-0.00011783,-3.342,-0.219946,-0.268248,4.77413,0.2589747,
2,0,0,1,0,54330.6,0.257788,0.257435,-0.463739,28,0.0177321,10,-0.000119383,-3.33373,-0.261279,-0.225812,4.07838,0.257435,
2,0,0,1,0,54330.7,0.25629,0.255916,-0.470312,28,0.0176959,10,-0.00012036,-3.32761,-0.318459,-0.185267,3.38122,0.255916,
2,0,0,1,0,54330.8,0.25479,0.254462,-0.475579,28,0.0176592,10,-0.000121017,-3.32278,-0.263236,-0.224134,4.17135,0.254462,
2,0,0,1,0,54330.9,0.253294,0.25297,-0.482606,28,0.0176222,10,-0.000122085,-3.31641,-0.244016,-0.241787,4.55882,0.25297,
2,0,0,1,0,54330.9,0.251795,0.251426,-0.488393,28,0.0175846,10,-0.000122795,-3.31123,-0.244788,-0.241025,4.60206,0.251426,
2,0,0,1,0,54331,0.250297,0.249961,-0.495412,28,0.0175465,10,-0.000123834,-3.30503,-0.324822,-0.181638,3.5077,0.249961,
2,0,0,1,0,54331.1,0.248799,0.248462,-0.500983,28,0.017508,10,-0.000124475,-3.30018,-0.302673,-0.19493,3.80499,0.2484619,
2,0,0,1,0,54331.2,0.247301,0.246904,-0.505591,28,0.0174691,10,-0.000124833,-3.2962,-0.279063,-0.211422,4.18905,0.2469044,
2,0,0,1,0,54331.2,0.245802,0.245443,-0.513313,28,0.0174297,10,-0.000125989,-3.28962,-0.266251,-0.221596,4.4367,0.245443,
2,0,0,1,0,54331.3,0.244304,0.243933,-0.52015,28,0.0173898,10,-0.000126882,-3.28387,-0.289448,-0.203837,4.12865,0.243933,
2,0,0,1,0,54331.4,0.242806,0.242437,-0.526657,28,0.0173495,10,-0.000127681,-3.27847,-0.525331,-0.11231,2.29752,0.242437,
2,0,0,1,0,54331.5,0.241308,0.240995,-0.529327,28,0.0173088,10,-0.000127565,-3.27628,-0.339622,-0.173722,3.59584,0.240995,
2,0,0,1,0,54331.5,0.23981,0.239447,-0.535417,28,0.0172677,10,-0.000128204,-3.27131,-0.284608,-0.207303,4.34335,0.239447,
2,0,0,1,0,54331.6,0.23831,0.237971,-0.541718,28,0.0172261,10,-0.000128913,-3.26623,-0.354221,-0.166563,3.51288,0.237971,
2,0,0,1,0,54331.7,0.236815,0.236511,-0.54494,28,0.0171842,10,-0.000128884,-3.26365,-0.338678,-0.174207,3.70971,0.2365106,
2,0,0,1,0,54331.8,0.235315,0.234917,-0.54776,28,0.0171418,10,-0.000128678,-3.26141,-0.32152,-0.183504,3.94711,0.234917,
2,0,0,1,0,54331.8,0.233817,0.233424,-0.557865,28,0.0170991,10,-0.000130219,-3.25347,-0.304092,-0.19402,4.21977,0.233424,
2,0,0,1,0,54331.9,0.232319,0.23193,-0.564634,28,0.0170559,10,-0.000130956,-3.24823,-0.348542,-0.169277,3.7144,0.23193,
2,0,0,1,0,54332,0.230821,0.230448,-0.567332,28,0.0170122,10,-0.00013074,-3.24616,-0.419135,-0.140766,3.10812,0.230448,
2,0,0,1,0,54332.1,0.229322,0.228961,-0.571286,28,0.0169682,10,-0.000130802,-3.24315,-0.519375,-0.113598,2.54205,0.228961,
2,0,0,1,0,54332.1,0.227824,0.22746,-0.577504,28,0.016924,10,-0.000131359,-3.23845,-0.420135,-0.140431,3.1757,0.22746,
2,0,0,1,0,54332.2,0.226326,0.226003,-0.583411,28,0.0168792,10,-0.000131853,-3.23403,-0.460527,-0.128114,2.91649,0.2260035,
2,0,0,1,0,54332.3,0.224828,0.224489,-0.589632,28,0.0168341,10,-0.000132366,-3.22942,-0.585625,-0.100747,2.30738,0.224489,
2,0,0,1,0,54332.4,0.22333,0.223012,-0.595761,28,0.0167885,10,-0.000132862,-3.22493,-0.369172,-0.159817,3.70044,0.223012,
2,0,0,1,0,54332.4,0.22183,0.221497,-0.599276,28,0.0167427,10,-0.000132738,-3.22237,-0.434085,-0.135918,3.18031,0.221497,
2,0,0,1,0,54332.5,0.220335,0.220043,-0.605244,28,0.0166965,10,-0.00013318,-3.21807,-0.300742,-0.196181,4.60964,0.220043,
2,0,0,1,0,54332.6,0.218835,0.218494,-0.608498,28,0.0166497,10,-0.000132953,-3.21574,-0.391513,-0.150698,3.57691,0.218494,
2,0,0,1,0,54332.7,0.217337,0.216986,-0.614421,28,0.0166026,10,-0.000133321,-3.21153,-0.527193,-0.111913,2.68201,0.216986,
2,0,0,1,0,54332.7,0.215839,0.215486,-0.616034,28,0.0165552,10,-0.000132746,-3.2104,-0.447502,-0.131843,3.19208,0.215486,
2,0,0,1,0,54332.8,0.21434,0.213955,-0.623182,28,0.0165075,10,-0.000133333,-3.20539,-0.36093,-0.163467,3.96858,0.2139554,
2,0,0,1,0,54332.9,0.212842,0.21249,-0.629368,28,0.0164593,10,-0.000133734,-3.20109,-0.428937,-0.137549,3.37712,0.2124899,
2,0,0,1,0,54333,0.211344,0.210971,-0.633441,28,0.0164108,10,-0.000133638,-3.19829,-0.631824,-0.0933805,2.31065,0.210971,
2,0,0,1,0,54333,0.209846,0.209496,-0.636331,28,0.0163619,10,-0.000133309,-3.19632,-0.468263,-0.125997,3.14244,0.209496,
2,0,0,1,0,54333.1,0.208348,0.207971,-0.64448,28,0.0163127,10,-0.000134033,-3.19079,-0.407893,-0.144646,3.64423,0.207971,
2,0,0,1,0,54333.2,0.20685,0.206454,-0.652766,28,0.016263,10,-0.000134766,-3.18524,-0.353969,-0.166681,4.21529,0.206454,
2,0,0,1,0,54333.3,0.20535,0.204959,-0.654182,28,0.0162127,10,-0.00013408,-3.1843,-0.638124,-0.0924586,2.35643,0.204959,
2,0,0,1,0,54333.3,0.203855,0.203481,-0.660025,28,0.0161623,10,-0.000134303,-3.18044,-0.56614,-0.104215,2.68671,0.203481,
2,0,0,1,0,54333.4,0.202355,0.201995,-0.662853,28,0.0161116,10,-0.000133893,-3.17858,-0.444826,-0.132636,3.44313,0.201995,
2,0,0,1,0,54333.5,0.200857,0.200514,-0.669806,28,0.0160604,10,-0.000134305,-3.17405,-0.399963,-0.147514,3.84612,0.200514,
2,0,0,1,0,54333.6,0.199359,0.198975,-0.674548,28,0.0160088,10,-0.000134218,-3.17099,-0.468113,-0.126038,3.31804,0.198975,
2,0,0,1,0,54333.6,0.19786,0.1975,-0.679767,28,0.0159569,10,-0.000134254,-3.16764,-0.430335,-0.137102,3.63352,0.1975,
2,0,0,1,0,54333.7,0.196362,0.196013,-0.682144,28,0.0159047,10,-0.000133709,-3.16612,-0.413517,-0.142679,3.79994,0.196013,
2,0,0,1,0,54333.8,0.194864,0.194502,-0.689195,28,0.0158519,10,-0.00013405,-3.16166,-0.348577,-0.16926,4.54453,0.194502,
2,0,0,1,0,54333.9,0.193366,0.192984,-0.698904,28,0.0157986,10,-0.000134877,-3.15558,-0.424612,-0.13895,3.77445,0.1929837,
2,0,0,1,0,54333.9,0.191866,0.191506,-0.702524,28,0.0157449,10,-0.000134537,-3.15334,-0.498007,-0.118472,3.25027,0.191506,
2,0,0,1,0,54334,0.19037,0.190008,-0.706552,28,0.015691,10,-0.00013425,-3.15086,-0.395087,-0.149334,4.12064,0.190008,
2,0,0,1,0,54334.1,0.188871,0.188524,-0.71315,28,0.0156365,10,-0.000134446,-3.14682,-0.316141,-0.186626,5.18684,0.188524,
2,0,0,1,0,54334.2,0.187373,0.187039,-0.718437,28,0.0155816,10,-0.000134376,-3.14361,-0.345643,-0.170696,4.79189,0.187039,
2,0,0,1,0,54334.2,0.185875,0.185533,-0.726292,28,0.0155262,10,-0.000134751,-3.13889,-0.48995,-0.12042,3.40493,0.185533,
2,0,0,1,0,54334.3,0.184377,0.184053,-0.727601,28,0.0154705,10,-0.000133917,-3.13811,-0.402404,-0.146619,4.18052,0.184053,
2,0,0,1,0,54334.4,0.182878,0.182519,-0.738163,28,0.0154143,10,-0.000134729,-3.13185,-0.413919,-0.14254,4.10429,0.182519,
2,0,0,1,0,54334.5,0.18138,0.18103,-0.745947,28,0.0153575,10,-0.000135039,-3.12729,-0.381236,-0.15476,4.49809,0.18103,
2,0,0,1,0,54334.5,0.179882,0.179457,-0.75207,28,0.0153002,10,-0.000134964,-3.12374,-0.421713,-0.139906,4.10515,0.179457,
2,0,0,1,0,54334.6,0.178384,0.178015,-0.758753,28,0.0152424,10,-0.000135069,-3.1199,-0.379483,-0.155475,4.60542,0.178015,
2,0,0,1,0,54334.7,0.176886,0.176541,-0.763782,28,0.0151842,10,-0.000134839,-3.11703,-0.375737,-0.157025,4.6925,0.176541,
2,0,0,1,0,54334.8,0.175386,0.175067,-0.773537,28,0.0151253,10,-0.00013542,-3.11152,-0.342512,-0.172257,5.18872,0.175067,
2,0,0,1,0,54334.8,0.173891,0.173523,-0.781199,28,0.015066,10,-0.000135556,-3.10724,-0.279359,-0.211198,6.4305,0.1735228,
2,0,0,1,0,54334.9,0.172391,0.172049,-0.785904,28,0.0150059,10,-0.000135214,-3.10463,-0.341845,-0.172593,5.30951,0.172049,
2,0,0,1,0,54335,0.170893,0.170532,-0.79668,28,0.0149454,10,-0.000135859,-3.09872,-0.317389,-0.185892,5.77897,0.1705315,
2,0,0,1,0,54335.1,0.169395,0.169031,-0.80657,28,0.014884,10,-0.000136335,-3.09336,-0.256647,-0.229888,7.22274,0.169031,
2,0,0,1,0,54335.1,0.167897,0.167541,-0.816156,28,0.0148219,10,-0.00013674,-3.08823,-0.285781,-0.206452,6.57613,0.167541,
2,0,0,1,0,54335.2,0.166398,0.166019,-0.826017,28,0.0147591,10,-0.000137134,-3.08301,-0.324506,-0.181815,5.85833,0.166019,
2,0,0,1,0,54335.3,0.1649,0.164539,-0.833785,28,0.0146956,10,-0.00013719,-3.07895,-0.273456,-0.215757,7.04533,0.164539,
2,0,0,1,0,54335.4,0.163402,0.163065,-0.848056,28,0.0146313,10,-0.000138288,-3.07158,-0.243347,-0.242452,8.02793,0.163065,
2,0,0,1,0,54335.4,0.161904,0.161577,-0.862097,28,0.0145661,10,-0.000139295,-3.06444,-0.220364,-0.267738,8.99196,0.161577,
2,0,0,1,0,54335.5,0.160406,0.160037,-0.873236,28,0.0145,10,-0.00013975,-3.05887,-0.237734,-0.248177,8.4517,0.1600371,
2,0,0,1,0,54335.6,0.158906,0.158555,-0.884733,28,0.0144327,10,-0.000140279,-3.05319,-0.195896,-0.301181,10.428,0.158555,
2,0,0,1,0,54335.7,0.157411,0.157088,-0.901288,28,0.0143647,10,-0.000141582,-3.04514,-0.191479,-0.308128,10.8754,0.157088,
2,0,0,1,0,54335.7,0.155911,0.155528,-0.918745,28,0.0142952,10,-0.000142891,-3.0368,-0.172524,-0.341982,12.2999,0.1555279,
2,0,0,1,0,54335.8,0.154413,0.154026,-0.937157,28,0.0142244,10,-0.000144346,-3.02819,-0.169681,-0.347711,12.7032,0.154026,
2,0,0,1,0,54335.9,0.152915,0.152551,-0.956131,28,0.0141521,10,-0.000145859,-3.01948,-0.156616,-0.376718,14.0949,0.1525512,
2,0,0,1,0,54336,0.151417,0.151021,-0.979588,28,0.0140784,10,-0.000147939,-3.00896,-0.146991,-0.401385,15.3747,0.151021,
2,0,0,1,0,54336,0.149918,0.149544,-1.00541,28,0.0140029,10,-0.000150353,-2.99766,-0.129282,-0.456368,17.9095,0.149544,
2,0,0,1,0,54336.1,0.14842,0.148103,-1.032,28,0.0139254,10,-0.000152842,-2.98632,-0.122532,-0.481505,19.4283,0.148103,
2,0,0,1,0,54336.2,0.146922,0.146577,-1.06279,28,0.0138456,10,-0.000155781,-2.97355,-0.114083,-0.517169,21.4989,0.146577,
2,0,0,1,0,54336.3,0.145424,0.145043,-1.0945,28,0.0137636,10,-0.000158749,-2.96079,-0.104288,-0.56574,24.3195,0.145043,
2,0,0,1,0,54336.3,0.143926,0.143543,-1.13518,28,0.0136788,10,-0.000162947,-2.94494,-0.091711,-0.643325,28.544,0.143543,
2,0,0,1,0,54336.4,0.142426,0.142039,-1.17877,28,0.0135907,10,-0.00016743,-2.92857,-0.0904212,-0.652502,30.0495,0.142039,
2,0,0,1,0,54336.5,0.140931,0.140608,-1.22249,28,0.0134995,10,-0.000171891,-2.91276,-0.0909317,-0.648839,31.032,0.140608,
2,0,0,1,0,54336.6,0.139431,0.13906,-1.26999,28,0.0134046,10,-0.000176606,-2.8962,-0.0880168,-0.670327,33.326,0.13906,
2,0,0,1,0,54336.6,0.137933,0.137559,-1.32139,28,0.0133062,10,-0.000181769,-2.87897,-0.0885843,-0.666032,34.4325,0.137559,
2,0,0,1,0,54336.7,0.136435,0.136032,-1.37727,28,0.0132037,10,-0.000187352,-2.86098,-0.0888092,-0.664345,35.6939,0.136032,
2,0,0,1,0,54336.8,0.134936,0.134561,-1.43338,28,0.013097,10,-0.000192877,-2.84364,-0.0908339,-0.649537,36.313,0.134561,
2,0,0,1,0,54336.9,0.133438,0.133058,-1.49107,28,0.0129862,10,-0.000198398,-2.8265,-0.0905656,-0.651462,37.905,0.133058,
2,0,0,1,0,54336.9,0.13194,0.131617,-1.5467,28,0.0128712,10,-0.000203572,-2.81059,-0.0929154,-0.634986,38.3825,0.131617,
2,0,0,1,0,54337,0.130442,0.130097,-1.6048,28,0.0127518,10,-0.00020878,-2.79458,-0.0975818,-0.604621,37.8061,0.1300973,
2,0,0,1,0,54337.1,0.128942,0.128566,-1.66032,28,0.0126278,10,-0.000213461,-2.77981,-0.105593,-0.55875,36.1708,0.1285658,
2,0,0,1,0,54337.2,0.127446,0.127095,-1.71827,28,0.0125001,10,-0.000218383,-2.76491,-0.110096,-0.535894,35.8689,0.127095,
2,0,0,1,0,54337.2,0.125947,0.125605,-1.77049,28,0.0123682,10,-0.000222382,-2.75191,-0.117047,-0.504071,34.7584,0.125605,
2,0,0,1,0,54337.3,0.124449,0.124111,-1.82004,28,0.0122324,10,-0.000225888,-2.73992,-0.122359,-0.482187,34.1726,0.124111,
2,0,0,1,0,54337.4,0.122951,0.122571,-1.86846,28,0.0120929,10,-0.000229018,-2.72852,-0.135147,-0.436561,31.7612,0.122571,
2,0,0,1,0,54337.5,0.121453,0.121022,-1.9128,28,0.0119499,10,-0.000231492,-2.71833,-0.154344,-0.382264,28.4787,0.121022,
2,0,0,1,0,54337.5,0.119955,0.119578,-1.94935,28,0.0118039,10,-0.0002331,-2.71011,-0.175799,-0.33561,25.5506,0.119578,
2,0,0,1,0,54337.6,0.118456,0.118108,-1.9888,28,0.0116548,10,-0.000234893,-2.70141,-0.181616,-0.324861,25.1833,0.118108,
2,0,0,1,0,54337.7,0.116958,0.11662,-2.03052,28,0.0115029,10,-0.000236799,-2.69239,-0.217834,-0.270849,21.3851,0.1166196,
2,0,0,1,0,54337.8,0.11546,0.115092,-2.05988,28,0.0113485,10,-0.000237076,-2.68616,-0.264643,-0.222942,17.8477,0.115092,
2,0,0,1,0,54337.8,0.113962,0.113584,-2.08186,28,0.0111921,10,-0.000236465,-2.68155,-0.323991,-0.182104,14.7627,0.113584,
2,0,0,1,0,54337.9,0.112462,0.112103,-2.10109,28,0.011034,10,-0.000235538,-2.67756,-0.382968,-0.15406,12.6211,0.112103,
2,0,0,1,0,54338,0.110967,0.110647,-2.11829,28,0.0108749,10,-0.000234383,-2.67401,-0.491186,-0.120117,9.90693,0.110647,
2,0,0,1,0,54338.1,0.109467,0.109099,-2.12908,28,0.0107143,10,-0.00023228,-2.67181,-0.958056,-0.061583,5.09975,0.109099,
2,0,0,1,0,54338.1,0.107969,0.107643,-2.13335,28,0.0105532,10,-0.000229641,-2.67094,-1.769,-0.0333521,2.7768,0.107643,
2,0,0,1,0,54338.2,0.106471,0.10613,-2.13842,28,0.010392,10,-0.00022695,-2.66991,-4.78389,-0.012333,1.02844,0.10613,
2,0,0,1,0,54338.3,0.104973,0.104617,-2.13872,28,0.0102305,10,-0.000223747,-2.66985,5.5381,0.0106535,-0.887472,0.104617,
2,0,0,1,0,54338.4,0.103474,0.103121,-2.13696,28,0.010069,10,-0.000220364,-2.6702,1.3469,0.0438042,-3.64261,0.103121,
2,0,0,1,0,54338.4,0.101976,0.101607,-2.12834,28,0.00990807,10,-0.000216253,-2.67196,0.809634,0.0728724,-6.04432,0.101607,
2,0,0,1,0,54338.5,0.100478,0.100129,-2.11521,28,0.00974794,10,-0.000211793,-2.67465,0.734231,0.0803562,-6.63835,0.100129,
2,0,0,1,0,54338.6,0.0989799,0.0986553,-2.10788,28,0.00958848,10,-0.000207954,-2.67615,0.789993,0.0746842,-6.13789,0.0986553,
2,0,0,1,0,54338.7,0.0974817,0.097076,-2.09568,28,0.0094298,10,-0.00020344,-2.67868,0.599693,0.0983836,-8.04934,0.097076,
2,0,0,1,0,54338.7,0.0959821,0.0956258,-2.08115,28,0.00927185,10,-0.000199011,-2.6817,0.517055,0.114108,-9.26855,0.0956258,
2,0,0,1,0,54338.8,0.0944866,0.0941051,-2.06567,28,0.00911539,10,-0.00019439,-2.68494,0.549525,0.107366,-8.67386,0.0941051,
2,0,0,1,0,54338.9,0.0929871,0.092612,-2.05633,28,0.00895952,10,-0.000190441,-2.68691,0.694773,0.0849198,-6.81884,0.092612,
2,0,0,1,0,54339,0.0914889,0.0911365,-2.04606,28,0.00880465,10,-0.000186471,-2.68908,0.659304,0.0894883,-7.13487,0.0911365,
2,0,0,1,0,54339,0.0899907,0.0896203,-2.03201,28,0.00865062,10,-0.00018211,-2.69207,0.514961,0.114572,-9.07105,0.0896203,
2,0,0,1,0,54339.1,0.0884925,0.0881609,-2.01637,28,0.00849753,10,-0.000177765,-2.69543,0.556518,0.106016,-8.35478,0.0881609,
2,0,0,1,0,54339.2,0.0869943,0.0865958,-2.00691,28,0.0083455,10,-0.00017379,-2.69747,0.597439,0.0987549,-7.74791,0.0865958,
2,0,0,1,0,54339.3,0.0854961,0.0851235,-1.99904,28,0.00819422,10,-0.000170165,-2.69918,0.700371,0.0842411,-6.57371,0.0851235,
2,0,0,1,0,54339.3,0.083998,0.0836312,-1.98838,28,0.00804363,10,-0.00016629,-2.7015,0.65834,0.0896193,-6.95349,0.0836312,
2,0,0,1,0,54339.4,0.0824998,0.0821603,-1.98033,28,0.0078937,10,-0.000162704,-2.70326,0.727433,0.0811071,-6.26358,0.0821603,
2,0,0,1,0,54339.5,0.081002,0.0805995,-1.96861,28,0.00774463,10,-0.000158669,-2.70584,0.774613,0.0761671,-5.85993,0.08059945,
2,0,0,1,0,54339.6,0.0795025,0.079116,-1.96113,28,0.00759602,10,-0.000155157,-2.70749,0.86936,0.067866,-5.19322,0.079116,
2,0,0,1,0,54339.6,0.078007,0.077649,-1.95225,28,0.00744832,10,-0.00015159,-2.70946,0.887183,0.0665026,-5.0662,0.077649,
2,0,0,1,0,54339.7,0.076507,0.0761195,-1.94288,28,0.00730088,10,-0.000147891,-2.71155,0.655542,0.0900019,-6.82295,0.07611946,
2,0,0,1,0,54339.8,0.0750088,0.0746127,-1.93101,28,0.00715449,10,-0.000144078,-2.71422,0.757303,0.077908,-5.88436,0.07461267,
2,0,0,1,0,54339.9,0.0735106,0.073166,-1.92305,28,0.00700881,10,-0.000140702,-2.71601,0.878877,0.0671311,-5.03796,0.073166,
2,0,0,1,0,54339.9,0.0720124,0.0716572,-1.91364,28,0.0068637,10,-0.000137126,-2.71814,0.687551,0.0858118,-6.41374,0.0716572,
2,0,0,1,0,54340,0.0705142,0.0701583,-1.90496,28,0.00671926,10,-0.000133649,-2.72011,0.601914,0.0980207,-7.28567,0.0701583,
2,0,0,1,0,54340.1,0.069016,0.0686869,-1.8913,28,0.00657569,10,-0.000129907,-2.72324,0.591093,0.099815,-7.38699,0.0686869,
2,0,0,1,0,54340.2,0.0675179,0.0671642,-1.88469,28,0.00643299,10,-0.000126584,-2.72476,0.805359,0.0732593,-5.3909,0.06716419,
2,0,0,1,0,54340.2,0.0660179,0.0656447,-1.88117,28,0.0062907,10,-0.000123489,-2.72557,0.717689,0.0822083,-6.01726,0.0656447,
2,0,0,1,0,54340.3,0.0645224,0.0641499,-1.86719,28,0.00614933,10,-0.00011978,-2.72881,0.632569,0.0932705,-6.77843,0.0641499,
2,0,0,1,0,54340.4,0.0630228,0.0626656,-1.85579,28,0.00600852,10,-0.000116294,-2.73147,0.604511,0.0975995,-7.07207,0.0626656,
2,0,0,1,0,54340.5,0.0615251,0.0611899,-1.84366,28,0.0058689,10,-0.000112813,-2.73432,0.65506,0.090068,-6.48751,0.06118989,
2,0,0,1,0,54340.5,0.0600269,0.0596872,-1.8348,28,0.00572983,10,-0.000109514,-2.73641,0.709348,0.083175,-5.95299,0.0596872,
2,0,0,1,0,54340.6,0.0585287,0.0581445,-1.82555,28,0.00559149,10,-0.000106146,-2.73861,0.49562,0.119043,-8.45719,0.0581445,
2,0,0,1,0,54340.7,0.0570305,0.0566549,-1.81374,28,0.00545392,10,-0.000102757,-2.74142,0.571091,0.103311,-7.31521,0.0566549,
2,0,0,1,0,54340.8,0.0555323,0.0552365,-1.79997,28,0.00531741,10,-9.9424e-05,-2.74473,0.614589,0.095999,-6.759,0.0552365,
2,0,0,1,0,54340.8,0.0540342,0.0537037,-1.78959,28,0.00518161,10,-9.61076e-05,-2.74725,0.581062,0.101538,-7.08623,0.0537037,
2,0,0,1,0,54340.9,0.052536,0.0521691,-1.77998,28,0.00504644,10,-9.28602e-05,-2.74958,0.570868,0.103351,-7.17531,0.0521691,
2,0,0,1,0,54341,0.0510378,0.0506842,-1.77017,28,0.00491224,10,-8.97199e-05,-2.75198,0.468854,0.125839,-8.68583,0.0506842,
2,0,0,1,0,54341.1,0.0495382,0.0491603,-1.75685,28,0.00477885,10,-8.63672e-05,-2.75527,0.5257,0.112231,-7.69567,0.0491603,
2,0,0,1,0,54341.1,0.0480427,0.0476993,-1.74506,28,0.00464661,10,-8.32382e-05,-2.75819,0.646124,0.0913138,-6.21365,0.0476993,
2,0,0,1,0,54341.2,0.0465432,0.0461925,-1.73432,28,0.00451483,10,-8.01127e-05,-2.76087,0.52899,0.111533,-7.55153,0.0461925,
2,0,0,1,0,54341.3,0.045045,0.0446732,-1.72294,28,0.00438411,10,-7.69692e-05,-2.76373,0.481542,0.122523,-8.2304,0.0446732,
2,0,0,1,0,54341.4,0.0435468,0.0432577,-1.70729,28,0.00425435,10,-7.38533e-05,-2.76769,0.460611,0.128091,-8.54478,0.0432577,
2,0,0,1,0,54341.4,0.0420486,0.0417391,-1.69524,28,0.00412558,10,-7.07577e-05,-2.77077,0.486852,0.121187,-8.0279,0.0417391,
2,0,0,1,0,54341.5,0.0405504,0.0401999,-1.68697,28,0.00399765,10,-6.7816e-05,-2.77289,0.487559,0.121011,-7.95487,0.0401999,
2,0,0,1,0,54341.6,0.0390523,0.0386984,-1.67204,28,0.00387056,10,-6.47055e-05,-2.77675,0.408316,0.144496,-9.41458,0.0386984,
2,0,0,1,0,54341.7,0.0375541,0.0372007,-1.65889,28,0.00374447,10,-6.17117e-05,-2.78018,0.431265,0.136807,-8.86048,0.0372007,
2,0,0,1,0,54341.7,0.0360559,0.0357318,-1.64522,28,0.00361954,10,-5.87867e-05,-2.78378,0.417569,0.141294,-9.08443,0.0357318,
2,0,0,1,0,54341.8,0.0345577,0.0342172,-1.63448,28,0.00349548,10,-5.59273e-05,-2.78662,0.481291,0.122587,-7.81968,0.0342172,
2,0,0,1,0,54341.9,0.0330582,0.0327122,-1.62229,28,0.00337214,10,-5.30685e-05,-2.78987,0.465197,0.126828,-8.01528,0.0327122,
2,0,0,1,0,54342,0.0315626,0.0311882,-1.60788,28,0.00325007,10,-5.01468e-05,-2.79375,0.424362,0.139032,-8.72817,0.0311882,
2,0,0,1,0,54342,0.0300631,0.0296769,-1.59374,28,0.0031288,10,-4.72972e-05,-2.79758,0.412192,0.143137,-8.90638,0.0296769,
2,0,0,1,0,54342.1,0.0285649,0.0281806,-1.58316,28,0.00300848,10,-4.46142e-05,-2.80048,0.51469,0.114632,-7.08417,0.0281806,
2,0,0,1,0,54342.2,0.0270667,0.0266938,-1.57463,28,0.00288897,10,-4.20327e-05,-2.80282,0.47898,0.123179,-7.55854,0.0266938,
2,0,0,1,0,54342.3,0.0255685,0.0251743,-1.56184,28,0.00277037,10,-3.93183e-05,-2.80636,0.434398,0.13582,-8.27347,0.0251743,
2,0,0,1,0,54342.3,0.0240704,0.0237161,-1.54685,28,0.00265267,10,-3.66851e-05,-2.81055,0.479987,0.12292,-7.42826,0.0237161,
2,0,0,1,0,54342.4,0.0225722,0.0221885,-1.53491,28,0.0025358,10,-3.40574e-05,-2.81392,0.554048,0.106489,-6.39226,0.0221885,
2,0,0,1,0,54342.5,0.021074,0.0207218,-1.52921,28,0.00241974,10,-3.16879e-05,-2.81553,0.544301,0.108396,-6.46768,0.0207218,
2,0,0,1,0,54342.6,0.0195758,0.0191969,-1.52084,28,0.00230436,10,-2.91953e-05,-2.81792,0.498431,0.118371,-7.01294,0.0191969,
2,0,0,1,0,54342.6,0.018078,0.0177195,-1.50554,28,0.00218974,10,-2.66774e-05,-2.82231,0.630313,0.0936043,-5.5123,0.0177195,
2,0,0,1,0,54342.7,0.0165785,0.0161751,-1.4988,28,0.00207579,10,-2.42432e-05,-2.82426,0.639409,0.0922727,-5.40828,0.0161751,
2,0,0,1,0,54342.8,0.015083,0.0147599,-1.49196,28,0.00196269,10,-2.20212e-05,-2.82624,0.757099,0.0779291,-4.5374,0.0147599,
2,0,0,1,0,54342.9,0.013583,0.0132153,-1.48452,28,0.00184978,10,-1.96182e-05,-2.82842,0.619497,0.0952386,-5.50738,0.0132153,
2,0,0,1,0,54342.9,0.0120848,0.011742,-1.47396,28,0.00173758,10,-1.73072e-05,-2.83152,0.673574,0.0875925,-5.04814,0.011742,
2,0,0,1,0,54343,0.0105866,0.0102422,-1.46928,28,0.00162604,10,-1.50487e-05,-2.8329,0.717027,0.0822842,-4.72883,0.0102422,
2,0,0,1,0,54343.1,0.00908846,0.0087219,-1.46378,28,0.0015149,10,-1.27669e-05,-2.83452,1.11128,0.0530919,-3.03629,0.0087219,
2,0,0,1,0,54343.2,0.00759027,0.00722985,-1.46028,28,0.00140408,10,-1.05576e-05,-2.83556,0.996563,0.0592035,-3.37454,0.007229845,
2,0,0,1,0,54343.2,0.00609208,0.00572443,-1.45628,28,0.00129353,10,-8.33638e-06,-2.83675,1.31008,0.0450354,-2.55747,0.00572443,
2,0,0,1,0,54343.3,0.00459389,0.00422819,-1.45123,28,0.0011834,10,-6.13607e-06,-2.83826,2.01787,0.0292388,-1.66002,0.00422819,
2,0,0,1,0,54343.4,0.00309391,0.00273734,-1.45132,28,0.0010733,10,-3.97275e-06,-2.83824,-1.65729,-0.0356003,2.02095,0.00273734,
2,0,0,1,0,54343.5,0.0015984,0.00119254,-1.46177,28,0.000962687,10,-1.74323e-06,-2.83512, , , ,0.00119254,
2,0,0,1,0,54343.5,0.000199195,-0.000224192,-1.45114,28,0.000859412,10,3.25333e-07,-2.83829, , , ,-0.000224192,