File: Figure_codes/Fig_3-5/rawdata_trumpetplot_data/after 10th/20221101_1-115_003_TrumpetPlot_ParaChange_from10_every3_13_CV_C01_21.csv
mode,ox/red,error,control changes,counter inc.,time/s,control/V,Ewe/V,<I>/mA,cycle number,(Q-Qo)/C,I Range,P/W,log(|I|),Tafel slope mV/dec,alpha_eff,dI/d(E-IR),E-IR/V,
2,1,0,1,0,42570.6,2.44065e-05,-0.000268062,17.6771,22,0.0000000E+000,10,-4.73854e-06,-1.75259, , , ,-0.000268062,
2,1,0,1,0,42570.6,0.00266289,0.00232251,18.9725,22,5.73467e-05,10,4.40638e-05,-1.72188, , , ,0.00232251,
2,1,0,1,0,42570.6,0.00586735,0.00551858,20.0459,22,0.000135578,10,0.000110625,-1.69797, , , ,0.00551858,
2,1,0,1,0,42570.6,0.00906349,0.00867223,20.9587,22,0.000217702,10,0.000181759,-1.67864,0.168781,0.349565,282.613,0.00867223,
2,1,0,1,0,42570.6,0.0122624,0.0118842,21.7842,22,0.000303289,10,0.000258888,-1.66186,0.196321,0.300529,253.67,0.0118842,
2,1,0,1,0,42570.6,0.0154641,0.0150262,22.5627,22,0.000392083,10,0.000339031,-1.64661,0.218665,0.269819,236.299,0.01502618,
2,1,0,1,0,42570.6,0.0186602,0.0183134,23.2916,22,0.000483888,10,0.000426549,-1.6328,0.239221,0.246634,223.111,0.01831344,
2,1,0,1,0,42570.6,0.0218675,0.0215,23.9899,22,0.000578528,10,0.000515782,-1.61997,0.263793,0.22366,208.46,0.0215,
2,1,0,1,0,42570.6,0.0250636,0.0246536,24.6332,22,0.000675865,10,0.000607297,-1.60848,0.281957,0.209252,200.502,0.0246536,
2,1,0,1,0,42570.6,0.0282597,0.027926,25.2518,22,0.000775707,10,0.000705183,-1.59771,0.302456,0.19507,191.826,0.027926,
2,1,0,1,0,42570.6,0.031467,0.0311083,25.857,22,0.000878027,10,0.000804366,-1.58742,0.321783,0.183353,184.642,0.0311083,
2,1,0,1,0,42570.6,0.0346631,0.0342969,26.4447,22,0.000982688,10,0.000906972,-1.57766,0.337352,0.174891,180.093,0.0342969,
2,1,0,1,0,42570.6,0.0378704,0.0375269,27.0102,22,0.00108964,10,0.00101361,-1.56847,0.358448,0.164598,173.124,0.0375269,
2,1,0,1,0,42570.6,0.0410665,0.0407007,27.5524,22,0.00119882,10,0.0011214,-1.55984,0.376383,0.156755,168.29,0.0407007,
2,1,0,1,0,42570.6,0.0442626,0.043918,28.0746,22,0.00131014,10,0.00123298,-1.55169,0.392521,0.15031,164.546,0.043918,
2,1,0,1,0,42570.7,0.0474671,0.047112,28.6013,22,0.00142354,10,0.00134746,-1.54361,0.407353,0.144837,161.522,0.047112,
2,1,0,1,0,42570.7,0.0506632,0.0503282,29.1166,22,0.00153902,10,0.00146538,-1.53586,0.418826,0.14087,159.898,0.0503282,
2,1,0,1,0,42570.7,0.0538621,0.0535189,29.6229,22,0.00165655,10,0.00158538,-1.52837,0.433085,0.136232,157.355,0.0535189,
2,1,0,1,0,42570.7,0.0570638,0.056698,30.1181,22,0.00177612,10,0.00170764,-1.52117,0.446312,0.132194,155.285,0.056698,
2,1,0,1,0,42570.7,0.06026,0.0599047,30.6143,22,0.00189763,10,0.00183394,-1.51408,0.454137,0.129917,155.166,0.0599047,
2,1,0,1,0,42570.7,0.0634672,0.063122,31.1032,22,0.00202114,10,0.0019633,-1.50719,0.463376,0.127327,154.528,0.063122,
2,1,0,1,0,42570.7,0.0666633,0.0662947,31.6052,22,0.00214661,10,0.00209526,-1.50024,0.470095,0.125507,154.764,0.0662947,
2,1,0,1,0,42570.7,0.0698595,0.0695099,32.0979,22,0.00227408,10,0.00223112,-1.49352,0.479346,0.123084,154.096,0.0695099,
2,1,0,1,0,42570.7,0.0730667,0.0727335,32.5998,22,0.00240354,10,0.0023711,-1.48679,0.48571,0.121472,154.477,0.0727335,
2,1,0,1,0,42570.7,0.0762628,0.07592,33.0754,22,0.00253495,10,0.00251108,-1.4805,0.492488,0.1198,154.655,0.07592,
2,1,0,1,0,42570.7,0.0794701,0.0791171,33.586,22,0.0026683,10,0.00265723,-1.47384,0.497874,0.118504,155.305,0.0791171,
2,1,0,1,0,42570.7,0.0826662,0.0823153,34.0783,22,0.00280367,10,0.00280517,-1.46752,0.498529,0.118348,157.367,0.0823153,
2,1,0,1,0,42570.7,0.0858624,0.0854912,34.5811,22,0.00294105,10,0.00295638,-1.46116,0.505042,0.116822,157.655,0.0854912,
2,1,0,1,0,42570.7,0.0890668,0.0887022,35.0868,22,0.00308045,10,0.00311228,-1.45486,0.510995,0.115461,158.07,0.0887022,
2,1,0,1,0,42570.7,0.092263,0.0918452,35.5927,22,0.00322185,10,0.00326902,-1.44864,0.514708,0.114628,159.223,0.0918452,
2,1,0,1,0,42570.7,0.0954674,0.0951028,36.0997,22,0.00336529,10,0.00343318,-1.4425,0.521761,0.113079,159.308,0.0951028,
2,1,0,1,0,42570.7,0.0986636,0.0983084,36.6219,22,0.00351078,10,0.00360024,-1.43626,0.526052,0.112156,160.261,0.0983084,
2,1,0,1,0,42570.7,0.10186,0.101529,37.1302,22,0.00365835,10,0.00376979,-1.43027,0.530448,0.111227,161.142,0.101529,
2,1,0,1,0,42570.7,0.105067,0.104705,37.6535,22,0.00380798,10,0.0039425,-1.42419,0.536981,0.109874,161.412,0.104705,
2,1,0,1,0,42570.7,0.108263,0.107914,38.164,22,0.00395968,10,0.00411841,-1.41835,0.53684,0.109902,163.686,0.107914,
2,1,0,1,0,42570.7,0.111465,0.111073,38.6822,22,0.00411342,10,0.00429653,-1.41249,0.542109,0.108834,164.336,0.1110725,
2,1,0,1,0,42570.7,0.114666,0.114262,39.2145,22,0.00426928,10,0.00448074,-1.40655,0.542223,0.108811,166.533,0.1142622,
2,1,0,1,0,42570.7,0.117863,0.117438,39.7461,22,0.00442724,10,0.00466771,-1.40071,0.540881,0.109081,169.241,0.117438,
2,1,0,1,0,42570.7,0.12107,0.120663,40.2872,22,0.00458737,10,0.00486116,-1.39483,0.545081,0.108241,170.209,0.120663,
2,1,0,1,0,42570.7,0.124266,0.123865,40.8472,22,0.00474968,10,0.00505955,-1.38884,0.544108,0.108434,172.858,0.123865,
2,1,0,1,0,42570.8,0.127462,0.127049,41.3909,22,0.00491421,10,0.00525865,-1.3831,0.542317,0.108793,175.782,0.1270486,
2,1,0,1,0,42570.8,0.130667,0.13029,41.9677,22,0.00508097,10,0.00546798,-1.37709,0.544785,0.1083,177.397,0.13029,
2,1,0,1,0,42570.8,0.133863,0.133451,42.5352,22,0.00525003,10,0.00567637,-1.37125,0.550267,0.107221,177.915,0.133451,
2,1,0,1,0,42570.8,0.137067,0.136658,43.1166,22,0.00542139,10,0.00589223,-1.36536,0.543476,0.10856,182.686,0.136658,
2,1,0,1,0,42570.8,0.140263,0.139831,43.665,22,0.00559504,10,0.00610571,-1.35987,0.535064,0.110267,188.192,0.139831,
2,1,0,1,0,42570.8,0.143459,0.143011,44.2916,22,0.00577095,10,0.00633418,-1.35368,0.529031,0.111525,193.007,0.143011,
2,1,0,1,0,42570.8,0.146667,0.146281,44.9496,22,0.00594951,10,0.00657529,-1.34727,0.518177,0.113861,199.672,0.146281,
2,1,0,1,0,42570.8,0.149863,0.149498,45.5949,22,0.00613066,10,0.00681637,-1.34108,0.529117,0.111506,198.248,0.149498,
2,1,0,1,0,42570.8,0.153064,0.152668,46.2282,22,0.0063144,10,0.00705757,-1.33509,0.548561,0.107554,193.843,0.152668,
2,1,0,1,0,42570.8,0.156266,0.155887,46.8443,22,0.0065006,10,0.00730244,-1.32934,0.562071,0.104969,191.765,0.155887,
2,1,0,1,0,42570.8,0.159462,0.159097,47.434,22,0.00668922,10,0.00754661,-1.32391,0.586402,0.100614,186.173,0.159097,
2,1,0,1,0,42570.8,0.16267,0.16229,48.0479,22,0.00688023,10,0.00779771,-1.31833,0.606765,0.097237,182.159,0.16229,
2,1,0,1,0,42570.8,0.165866,0.165502,48.6176,22,0.00707364,10,0.00804632,-1.31321,0.62824,0.0939131,177.996,0.1655021,
2,1,0,1,0,42570.8,0.169062,0.168696,49.1775,22,0.00726927,10,0.00829605,-1.30823,0.66625,0.0885554,169.771,0.168696,
2,1,0,1,0,42570.8,0.172266,0.171903,49.7133,22,0.00746715,10,0.00854585,-1.30353,0.69733,0.0846084,163.97,0.171903,
2,1,0,1,0,42570.8,0.175462,0.175049,50.214,22,0.00766706,10,0.00878991,-1.29918,0.73981,0.0797502,156.141,0.175049,
2,1,0,1,0,42570.8,0.178667,0.178279,50.7126,22,0.00786897,10,0.00904099,-1.29488,0.799447,0.073801,145.855,0.178279,
2,1,0,1,0,42570.8,0.181863,0.181459,51.1704,22,0.00807279,10,0.00928533,-1.29098,0.869117,0.067885,135.327,0.181459,
2,1,0,1,0,42570.8,0.185059,0.184689,51.5782,22,0.00827836,10,0.00952594,-1.28753,0.985755,0.0598526,120.244,0.184689,
2,1,0,1,0,42570.8,0.188266,0.187914,51.955,22,0.0084855,10,0.00976306,-1.28437,1.12988,0.052218,105.655,0.187914,
2,1,0,1,0,42570.8,0.191463,0.191061,52.2496,22,0.00869398,10,0.00998286,-1.28192,1.35384,0.0435797,88.6876,0.191061,
2,1,0,1,0,42570.8,0.194664,0.194282,52.5251,22,0.00890356,10,0.0102047,-1.27963,1.73928,0.0339221,69.3666,0.194282,
2,1,0,1,0,42570.8,0.197866,0.197524,52.7165,22,0.00911409,10,0.0104128,-1.27805,2.37577,0.0248341,50.9563,0.197524,
2,1,0,1,0,42570.8,0.201062,0.200687,52.841,22,0.00932525,10,0.0106045,-1.27703,4.23887,0.0139188,28.6316,0.200687,
2,1,0,1,0,42570.8,0.204269,0.203895,52.9036,22,0.00953676,10,0.0107868,-1.27651,17.5331,0.00336506,6.92895,0.203895,
2,1,0,1,0,42570.9,0.207465,0.207104,52.8922,22,0.00974835,10,0.0109542,-1.27661,-8.70464,-0.006778,-13.954,0.207104,
2,1,0,1,0,42570.9,0.210662,0.21031,52.8051,22,0.00995975,10,0.0111054,-1.27732,-3.3168,-0.0177882,-36.5635,0.21031,
2,1,0,1,0,42570.9,0.213866,0.213536,52.6617,22,0.0101707,10,0.0112452,-1.2785,-2.10672,-0.0280056,-57.4063,0.213536,
2,1,0,1,0,42570.9,0.217062,0.216737,52.434,22,0.0103809,10,0.0113644,-1.28039,-1.49588,-0.0394416,-80.4856,0.2167367,
2,1,0,1,0,42570.9,0.220267,0.219933,52.1558,22,0.0105901,10,0.0114708,-1.2827,-1.17429,-0.050243,-101.974,0.219933,
2,1,0,1,0,42570.9,0.223463,0.223122,51.7739,22,0.0107979,10,0.0115519,-1.28589,-0.968066,-0.0609463,-122.839,0.223122,
2,1,0,1,0,42570.9,0.226659,0.226349,51.3552,22,0.0110041,10,0.0116242,-1.28942,-0.819618,-0.0719847,-143.922,0.226349,
2,1,0,1,0,42570.9,0.229866,0.229525,50.8631,22,0.0112086,10,0.0116744,-1.2936,-0.725001,-0.0813792,-161.136,0.229525,
2,1,0,1,0,42570.9,0.233062,0.232723,50.3149,22,0.0114109,10,0.0117095,-1.2983,-0.64092,-0.0920552,-180.327,0.232723,
2,1,0,1,0,42570.9,0.236264,0.235919,49.7118,22,0.0116109,10,0.011728,-1.30354,-0.580683,-0.101605,-196.657,0.235919,
2,1,0,1,0,42570.9,0.239466,0.239132,49.05,22,0.0118084,10,0.0117294,-1.30936,-0.539225,-0.109416,-209.07,0.239132,
2,1,0,1,0,42570.9,0.242662,0.242319,48.3471,22,0.0120031,10,0.0117154,-1.31563,-0.498811,-0.118281,-222.816,0.242319,
2,1,0,1,0,42570.9,0.245869,0.245563,47.6306,22,0.012195,10,0.0116963,-1.32211,-0.468812,-0.12585,-233.506,0.245563,
2,1,0,1,0,42570.9,0.249065,0.248745,46.8541,22,0.0123839,10,0.0116547,-1.32925,-0.447385,-0.131877,-240.803,0.248745,
2,1,0,1,0,42570.9,0.252261,0.251911,46.066,22,0.0125697,10,0.0116046,-1.33662,-0.427996,-0.137852,-247.634,0.251911,
2,1,0,1,0,42570.9,0.255466,0.255133,45.2615,22,0.0127523,10,0.0115477,-1.34427,-0.417795,-0.141218,-249.314,0.255133,
2,1,0,1,0,42570.9,0.258662,0.258349,44.4642,22,0.0129316,10,0.0114873,-1.35199,-0.409003,-0.144253,-250.199,0.258349,
2,1,0,1,0,42570.9,0.261866,0.261566,43.6575,22,0.0131078,10,0.0114193,-1.35994,-0.402436,-0.146607,-249.695,0.261566,
2,1,0,1,0,42570.9,0.265063,0.264737,42.8571,22,0.0132808,10,0.0113459,-1.36798,-0.398256,-0.148146,-247.804,0.2647371,
2,1,0,1,0,42570.9,0.268259,0.267959,42.059,22,0.0134505,10,0.0112701,-1.37614,-0.396494,-0.148804,-244.333,0.267959,
2,1,0,1,0,42570.9,0.271466,0.271138,41.2952,22,0.0136172,10,0.0111967,-1.3841,-0.400068,-0.147475,-237.77,0.271138,
2,1,0,1,0,42570.9,0.274662,0.274378,40.5272,22,0.0137807,10,0.0111198,-1.39225,-0.399524,-0.147676,-233.699,0.274378,
2,1,0,1,0,42570.9,0.277869,0.277575,39.8045,22,0.0139413,10,0.0110487,-1.40007,-0.405149,-0.145625,-226.339,0.2775754,
2,1,0,1,0,42570.9,0.281065,0.280722,39.0763,22,0.014099,10,0.0109696,-1.40809,-0.410811,-0.143618,-219.202,0.280722,
2,1,0,1,0,42570.9,0.284262,0.283971,38.3906,22,0.0142538,10,0.0109018,-1.41578,-0.415099,-0.142135,-213.157,0.283971,
2,1,0,1,0,42571,0.287469,0.287169,37.7234,22,0.014406,10,0.010833,-1.42339,-0.424612,-0.13895,-204.729,0.287169,
2,1,0,1,0,42571,0.290665,0.290351,37.0813,22,0.0145555,10,0.0107666,-1.43085,-0.433555,-0.136084,-197.128,0.290351,
2,1,0,1,0,42571,0.293861,0.293498,36.4605,22,0.0147026,10,0.0107011,-1.43818,-0.443701,-0.132972,-189.736,0.293498,
2,1,0,1,0,42571,0.297066,0.296743,35.8728,22,0.0148472,10,0.010645,-1.44524,-0.44671,-0.132077,-186.601,0.296743,
2,1,0,1,0,42571,0.299637,0.299288,35.4239,22,0.0149612,10,0.010602,-1.4507,-0.126667,-0.465789,-631.952,0.299288,
2,1,0,1,0,42571,0.300012,0.299708,35.3352,22,0.0149789,10,0.0105903,-1.45179,0.0109805,5.37317,6656.78,0.299708,
2,1,0,1,0,42571,0.298983,0.298782,33.1213,22,0.0150225,10,0.00989605,-1.47989,0.0409381,1.4412,1649.02,0.298782,
2,1,0,1,0,42571,0.295787,0.295552,27.946,22,0.0151437,10,0.00825951,-1.55368,0.0449763,1.3118,1397.14,0.295552,
2,1,0,1,0,42571,0.292579,0.292335,23.958,22,0.0152469,10,0.00700378,-1.62055,0.0467805,1.26121,1207.78,0.292335,
2,1,0,1,0,42571,0.289383,0.28914,20.5701,22,0.0153355,10,0.00594765,-1.68676,0.0469933,1.2555,1016.43,0.28914,
2,1,0,1,0,42571,0.286187,0.285918,17.5834,22,0.0154114,10,0.00502739,-1.7549,0.0452851,1.30286,895.15,0.285918,
2,1,0,1,0,42571,0.282983,0.282718,14.901,22,0.015476,10,0.00421277,-1.82679,0.0426253,1.38415,801.681,0.282718,
2,1,0,1,0,42571,0.279786,0.279522,12.4886,22,0.0155305,10,0.00349084,-1.90349,0.0392106,1.5047,725.944,0.2795223,
2,1,0,1,0,42571,0.276582,0.276316,10.2889,22,0.0155758,10,0.00284299,-1.98763,0.0351999,1.67614,659.873,0.276316,
2,1,0,1,0,42571,0.273386,0.273121,8.29347,22,0.0156127,10,0.00226512,-2.08126,0.0305471,1.93144,602.921,0.273121,
2,1,0,1,0,42571,0.27019,0.2699,6.44258,22,0.0156419,10,0.00173885,-2.19094,0.0251194,2.34879,554.642,0.2699,
2,1,0,1,0,42571,0.266982,0.266671,4.74042,22,0.0156641,10,0.00126413,-2.32418,0.0188511,3.1298,511.25,0.266671,
2,1,0,1,0,42571,0.263786,0.26349,3.17529,22,0.0156797,10,0.000836656,-2.49822,0.0102919,5.73265,475.32,0.26349,
2,1,0,1,0,42571,0.260585,0.260278,1.72771,22,0.0156893,10,0.000449686,-2.76253,0.0174966,3.37208,439.005,0.260278,
2,1,0,1,0,42571,0.257383,0.257123,0.369503,22,0.0156934,10,9.50078e-05,-3.43238,0.0688791,0.856573,408.192,0.257123,
2,0,0,1,0,42571,0.254187,0.25387,-0.879381,22,0.0156922,10,-0.000223249,-3.05582,-0.0489041,-1.20644,381.906,0.25387,
2,0,0,1,0,42571,0.25098,0.250647,-2.06696,22,0.0156861,10,-0.000518078,-2.68467,-0.0122058,-4.83377,354.109,0.250647,
2,0,0,1,0,42571,0.247783,0.247496,-3.15387,22,0.0156756,10,-0.000780569,-2.50116,-0.0167144,-3.52989,332.581,0.2474959,
2,0,0,1,0,42571,0.244587,0.244254,-4.18756,22,0.0156608,10,-0.00102283,-2.37804,-0.0273843,-2.15452,311.937,0.244254,
2,0,0,1,0,42571,0.241383,0.241049,-5.14352,22,0.015642,10,-0.00123984,-2.28874,-0.0375453,-1.57143,293.687,0.241049,
2,0,0,1,0,42571,0.238187,0.237868,-6.05318,22,0.0156195,10,-0.00143986,-2.21802,-0.047959,-1.23022,277.345,0.237868,
2,0,0,1,0,42571.1,0.234982,0.234707,-6.90967,22,0.0155935,10,-0.00162175,-2.16054,-0.0588717,-1.00218,260.866,0.234707,
2,0,0,1,0,42571.1,0.231786,0.231502,-7.72439,22,0.0155641,10,-0.00178821,-2.11214,-0.0702844,-0.839447,246.282,0.2315018,
2,0,0,1,0,42571.1,0.22859,0.228291,-8.47159,22,0.0155316,10,-0.00193399,-2.07204,-0.0825043,-0.715114,231.944,0.228291,
2,0,0,1,0,42571.1,0.225383,0.225087,-9.20094,22,0.0154962,10,-0.00207102,-2.03617,-0.094873,-0.621884,220.034,0.225087,
2,0,0,1,0,42571.1,0.222187,0.22186,-9.88966,22,0.0154579,10,-0.00219411,-2.00482,-0.107028,-0.55126,209.909,0.22186,
2,0,0,1,0,42571.1,0.218979,0.218639,-10.5546,22,0.015417,10,-0.00230765,-1.97656,-0.120424,-0.489938,199.371,0.218639,
2,0,0,1,0,42571.1,0.215783,0.215455,-11.166,22,0.0153735,10,-0.00240577,-1.9521,-0.13389,-0.440661,190.233,0.215455,
2,0,0,1,0,42571.1,0.212587,0.212265,-11.7574,22,0.0153275,10,-0.00249568,-1.92969,-0.147728,-0.399384,182.058,0.212265,
2,0,0,1,0,42571.1,0.20938,0.20907,-12.3227,22,0.0152793,10,-0.0025763,-1.9093,-0.161271,-0.365844,174.914,0.20907,
2,0,0,1,0,42571.1,0.206184,0.205847,-12.8835,22,0.0152288,10,-0.00265203,-1.88997,-0.174602,-0.337912,168.882,0.205847,
2,0,0,1,0,42571.1,0.202988,0.202662,-13.4037,22,0.0151762,10,-0.00271641,-1.87278,-0.190283,-0.310064,161.279,0.2026619,
2,0,0,1,0,42571.1,0.199783,0.199487,-13.9153,22,0.0151215,10,-0.00277593,-1.85651,-0.205893,-0.286557,154.912,0.199487,
2,0,0,1,0,42571.1,0.196587,0.196274,-14.3864,22,0.0150649,10,-0.00282367,-1.84205,-0.221379,-0.266512,149.179,0.196274,
2,0,0,1,0,42571.1,0.193382,0.193038,-14.8678,22,0.0150063,10,-0.00287005,-1.82775,-0.235456,-0.250577,144.96,0.193038,
2,0,0,1,0,42571.1,0.190186,0.189786,-15.3244,22,0.0149459,10,-0.00290836,-1.81462,-0.246808,-0.239052,142.559,0.189786,
2,0,0,1,0,42571.1,0.18699,0.186693,-15.7699,22,0.0148836,10,-0.00294414,-1.80217,-0.262755,-0.224544,137.855,0.186693,
2,0,0,1,0,42571.1,0.183783,0.183475,-16.211,22,0.0148196,10,-0.00297431,-1.79019,-0.274112,-0.21524,135.864,0.1834749,
2,0,0,1,0,42571.1,0.180587,0.180277,-16.627,22,0.0147539,10,-0.00299746,-1.77919,-0.288872,-0.204243,132.375,0.180277,
2,0,0,1,0,42571.1,0.17738,0.177053,-17.0544,22,0.0146865,10,-0.00301954,-1.76816,-0.300563,-0.196298,130.484,0.177053,
2,0,0,1,0,42571.1,0.174183,0.173824,-17.4735,22,0.0146174,10,-0.00303731,-1.75762,-0.304786,-0.193579,131.897,0.173824,
2,0,0,1,0,42571.1,0.170987,0.170675,-17.8812,22,0.0145466,10,-0.00305187,-1.7476,-0.315822,-0.186814,130.312,0.170675,
2,0,0,1,0,42571.1,0.16778,0.167457,-18.3178,22,0.0144742,10,-0.00306746,-1.73713,-0.318785,-0.185078,132.192,0.167457,
2,0,0,1,0,42571.1,0.164584,0.164284,-18.7184,22,0.0144001,10,-0.00307513,-1.72773,-0.323511,-0.182374,133.253,0.164284,
2,0,0,1,0,42571.1,0.161382,0.161101,-19.1553,22,0.0143243,10,-0.00308595,-1.71771,-0.327694,-0.180046,134.684,0.161101,
2,0,0,1,0,42571.1,0.158183,0.157861,-19.5887,22,0.0142468,10,-0.00309229,-1.70799,-0.323031,-0.182645,139.719,0.157861,
2,0,0,1,0,42571.2,0.154987,0.154645,-20.0435,22,0.0141675,10,-0.00309962,-1.69803,-0.321527,-0.183499,143.685,0.154645,
2,0,0,1,0,42571.2,0.151783,0.151452,-20.5113,22,0.0140863,10,-0.00310647,-1.68801,-0.315854,-0.186795,149.681,0.151452,
2,0,0,1,0,42571.2,0.148587,0.14826,-21.0004,22,0.0140032,10,-0.00311352,-1.67777,-0.304398,-0.193825,159.187,0.14826,
2,0,0,1,0,42571.2,0.145385,0.145054,-21.5056,22,0.0139182,10,-0.00311948,-1.66745,-0.294882,-0.20008,168.43,0.145054,
2,0,0,1,0,42571.2,0.142183,0.141865,-22.0779,22,0.013831,10,-0.00313208,-1.65604,-0.281885,-0.209305,180.843,0.141865,
2,0,0,1,0,42571.2,0.138987,0.138666,-22.6647,22,0.0137414,10,-0.00314283,-1.64465,-0.269017,-0.219317,194.489,0.138666,
2,0,0,1,0,42571.2,0.13578,0.135444,-23.3181,22,0.0136494,10,-0.0031583,-1.63231,-0.260543,-0.22645,206.586,0.135444,
2,0,0,1,0,42571.2,0.132584,0.132307,-23.9848,22,0.0135547,10,-0.00317336,-1.62006,-0.248301,-0.237615,223.213,0.132307,
2,0,0,1,0,42571.2,0.129388,0.129059,-24.7234,22,0.0134573,10,-0.00319078,-1.60689,-0.237396,-0.24853,240.733,0.129059,
2,0,0,1,0,42571.2,0.12618,0.125816,-25.533,22,0.0133567,10,-0.00321247,-1.5929,-0.228493,-0.258214,257.959,0.125816,
2,0,0,1,0,42571.2,0.122984,0.122708,-26.384,22,0.0132528,10,-0.00323753,-1.57866,-0.220617,-0.267432,275.997,0.122708,
2,0,0,1,0,42571.2,0.119783,0.119525,-27.2821,22,0.0131454,10,-0.00326089,-1.56412,-0.216109,-0.27301,291.315,0.119525,
2,0,0,1,0,42571.2,0.116584,0.116308,-28.2427,22,0.0130342,10,-0.00328485,-1.54909,-0.214971,-0.274455,302.969,0.116308,
2,0,0,1,0,42571.2,0.113387,0.113115,-29.2332,22,0.0129192,10,-0.0033067,-1.53412,-0.214344,-0.275258,314.225,0.113115,
2,0,0,1,0,42571.2,0.110183,0.109862,-30.2762,22,0.0128001,10,-0.00332619,-1.5189,-0.21586,-0.273325,322.826,0.109862,
2,0,0,1,0,42571.2,0.106987,0.1067,-31.3118,22,0.0126768,10,-0.00334099,-1.50429,-0.220968,-0.267007,325.891,0.1067,
2,0,0,1,0,42571.2,0.103785,0.103494,-32.3794,22,0.0125493,10,-0.00335107,-1.48973,-0.227879,-0.258909,326.565,0.103494,
2,0,0,1,0,42571.2,0.100583,0.100304,-33.4081,22,0.0124176,10,-0.00335097,-1.47615,-0.234385,-0.251723,327.766,0.100304,
2,0,0,1,0,42571.2,0.0973873,0.0970751,-34.4518,22,0.0122818,10,-0.00334441,-1.46279,-0.245416,-0.240408,322.825,0.0970751,
2,0,0,1,0,42571.2,0.0941801,0.0939109,-35.5038,22,0.0121418,10,-0.0033342,-1.44972,-0.258659,-0.2281,314.969,0.09391088,
2,0,0,1,0,42571.2,0.0909839,0.0906713,-36.5188,22,0.0119976,10,-0.00331121,-1.43748,-0.269648,-0.218804,310.784,0.0906713,
2,0,0,1,0,42571.2,0.0877878,0.0875294,-37.4317,22,0.0118496,10,-0.00327637,-1.42676,-0.284421,-0.207439,302.813,0.0875294,
2,0,0,1,0,42571.2,0.0845806,0.0843396,-38.4097,22,0.0116978,10,-0.00323946,-1.41556,-0.298669,-0.197543,295.8,0.0843396,
2,0,0,1,0,42571.2,0.0813844,0.0811393,-39.3712,22,0.0115422,10,-0.00319455,-1.40482,-0.311572,-0.189362,290.13,0.0811393,
2,0,0,1,0,42571.2,0.0781828,0.0779581,-40.2794,22,0.0113828,10,-0.0031401,-1.39492,-0.331999,-0.177711,278.58,0.0779581,
2,0,0,1,0,42571.3,0.0749839,0.0747334,-41.1442,22,0.0112198,10,-0.00307485,-1.38569,-0.359473,-0.164129,262.818,0.0747334,
2,0,0,1,0,42571.3,0.0717877,0.0715331,-41.9774,22,0.0110535,10,-0.00300277,-1.37698,-0.387743,-0.152163,248.517,0.0715331,
2,0,0,1,0,42571.3,0.0685832,0.0683381,-42.7356,22,0.010884,10,-0.00292047,-1.36921,-0.41995,-0.140493,233.713,0.0683381,
2,0,0,1,0,42571.3,0.0653871,0.0651654,-43.4586,22,0.0107115,10,-0.00283199,-1.36192,-0.455303,-0.129584,219.324,0.0651654,
2,0,0,1,0,42571.3,0.0621854,0.061911,-44.141,22,0.0105362,10,-0.00273281,-1.35516,-0.491955,-0.11993,206.141,0.061911,
2,0,0,1,0,42571.3,0.0589837,0.0587128,-44.7892,22,0.0103582,10,-0.0026297,-1.34883,-0.532812,-0.110733,193.111,0.05871281,
2,0,0,1,0,42571.3,0.0557876,0.0555295,-45.376,22,0.0101779,10,-0.00251971,-1.34317,-0.579568,-0.1018,179.898,0.0555295,
2,0,0,1,0,42571.3,0.0525804,0.0523419,-45.9349,22,0.00999516,10,-0.00240432,-1.33786,-0.63183,-0.0933795,167.099,0.0523419,
2,0,0,1,0,42571.3,0.0493842,0.0491299,-46.4403,22,0.00981033,10,-0.00228161,-1.33311,-0.685973,-0.0860092,155.641,0.0491299,
2,0,0,1,0,42571.3,0.0461881,0.0458925,-46.9315,22,0.00962354,10,-0.0021538,-1.32854,-0.75424,-0.0782244,143.027,0.0458925,
2,0,0,1,0,42571.3,0.0429808,0.0426932,-47.3738,22,0.00943485,10,-0.00202254,-1.32446,-0.830994,-0.0709993,130.994,0.0426932,
2,0,0,1,0,42571.3,0.0397847,0.0394601,-47.7774,22,0.00924451,10,-0.0018853,-1.32078,-0.929756,-0.0634575,118.089,0.0394601,
2,0,0,1,0,42571.3,0.036583,0.0363075,-48.1199,22,0.00905268,10,-0.00174711,-1.31768,-1.04587,-0.0564124,105.787,0.03630748,
2,0,0,1,0,42571.3,0.0333841,0.0330997,-48.4421,22,0.00885952,10,-0.00160342,-1.31478,-1.15148,-0.0512386,96.771,0.0330997,
2,0,0,1,0,42571.3,0.030188,0.0298475,-48.7328,22,0.00866513,10,-0.00145455,-1.31218,-1.28923,-0.0457638,86.9368,0.02984748,
2,0,0,1,0,42571.3,0.0269835,0.026679,-49.0142,22,0.00846959,10,-0.00130765,-1.30968,-1.45036,-0.0406795,77.6939,0.026679,
2,0,0,1,0,42571.3,0.0237874,0.0234585,-49.237,22,0.00827304,10,-0.00115503,-1.30771,-1.66824,-0.0353665,67.8622,0.0234585,
2,0,0,1,0,42571.3,0.0205857,0.020289,-49.4374,22,0.00807567,10,-0.00100304,-1.30594,-1.93112,-0.0305522,58.891,0.020289,
2,0,0,1,0,42571.3,0.017384,0.0170187,-49.6033,22,0.00787755,10,-0.000844184,-1.30449,-2.20517,-0.0267554,51.7575,0.0170187,
2,0,0,1,0,42571.3,0.0141879,0.0138725,-49.7684,22,0.00767878,10,-0.00069041,-1.30305,-2.57022,-0.0229552,44.5445,0.01387246,
2,0,0,1,0,42571.3,0.0109806,0.0106509,-49.8998,22,0.00747941,10,-0.00053148,-1.3019,-3.15066,-0.0187262,36.4206,0.0106509,
2,0,0,1,0,42571.3,0.00778448,0.00748987,-50.0076,22,0.00727957,10,-0.00037455,-1.30096,-3.60378,-0.0163717,31.9299,0.00748987,
2,0,0,1,0,42571.3,0.00458834,0.00428108,-50.0673,22,0.00707941,10,-0.000214342,-1.30045,-5.02638,-0.0117381,22.9264,0.00428108,
2,0,0,1,0,42571.3,0.0013811,0.00100337,-50.1793,22,0.00687894,10,-5.03482e-05,-1.29948,-7.4283,-0.0079426,15.532,0.00100337,
2,0,0,1,0,42571.3,-0.00181504,-0.00217043,-50.1938,22,0.0066782,10,0.000108942,-1.29935,-13.1159,-0.00449836,8.79956,-0.00217043,
2,0,0,1,0,42571.4,-0.0050195,-0.00537074,-50.2073,22,0.0064774,10,0.000269651,-1.29923,32.8732,0.00179478,-3.51321,-0.00537074,
2,0,0,1,0,42571.4,-0.00821564,-0.00855302,-50.1802,22,0.00627661,10,0.000429192,-1.29947,11.2354,0.00525126,-10.2732,-0.00855302,
2,0,0,1,0,42571.4,-0.0114118,-0.0117894,-50.1344,22,0.00607599,10,0.000591053,-1.29986,6.17549,0.0095539,-18.6756,-0.0117894,
2,0,0,1,0,42571.4,-0.0146162,-0.0149855,-50.0621,22,0.00587558,10,0.000750204,-1.30049,4.75674,0.0124034,-24.2152,-0.0149855,
2,0,0,1,0,42571.4,-0.0178124,-0.0181815,-49.9681,22,0.00567553,10,0.000908496,-1.30131,3.72609,0.0158343,-30.8587,-0.0181815,
2,0,0,1,0,42571.4,-0.0210196,-0.0214115,-49.8688,22,0.00547586,10,0.00106777,-1.30217,3.01342,0.0195791,-38.0668,-0.0214115,
2,0,0,1,0,42571.4,-0.0242158,-0.0246129,-49.7386,22,0.00527664,10,0.00122421,-1.30331,2.63412,0.0223984,-43.4344,-0.0246129,
2,0,0,1,0,42571.4,-0.0274119,-0.0277655,-49.5756,22,0.00507801,10,0.00137649,-1.30473,2.25466,0.0261681,-50.5972,-0.0277655,
2,0,0,1,0,42571.4,-0.0306191,-0.0310411,-49.4095,22,0.00488005,10,0.00153372,-1.30619,2.10577,0.0280183,-54.0088,-0.0310411,
2,0,0,1,0,42571.4,-0.0338153,-0.0342223,-49.2206,22,0.00468279,10,0.00168444,-1.30785,1.96071,0.0300911,-57.7841,-0.0342223,
2,0,0,1,0,42571.4,-0.037017,-0.0374067,-49.0477,22,0.0044863,10,0.00183471,-1.30938,1.8106,0.0325858,-62.3289,-0.0374067,
2,0,0,1,0,42571.4,-0.0402187,-0.0405752,-48.8354,22,0.00429056,10,0.00198151,-1.31126,1.73964,0.0339151,-64.6006,-0.0405752,
2,0,0,1,0,42571.4,-0.0434148,-0.0437819,-48.6154,22,0.00409568,10,0.00212847,-1.31323,1.66039,0.0355339,-67.42,-0.0437819,
2,0,0,1,0,42571.4,-0.0466193,-0.0469981,-48.3953,22,0.00390167,10,0.00227449,-1.3152,1.62942,0.0362092,-68.3896,-0.04699808,
2,0,0,1,0,42571.4,-0.0498154,-0.0501634,-48.1876,22,0.00370853,10,0.00241725,-1.31706,1.66215,0.0354962,-66.7516,-0.0501634,
2,0,0,1,0,42571.4,-0.0530115,-0.0533934,-47.9588,22,0.00351626,10,0.00256068,-1.31913,1.64499,0.0358666,-67.138,-0.05339339,
2,0,0,1,0,42571.4,-0.056216,-0.0566276,-47.7579,22,0.00332484,10,0.00270442,-1.32095,1.67579,0.0352072,-65.6309,-0.0566276,
2,0,0,1,0,42571.4,-0.0594121,-0.0598099,-47.5351,22,0.00313427,10,0.00284307,-1.32299,1.71755,0.0343512,-63.7459,-0.0598099,
2,0,0,1,0,42571.4,-0.0626194,-0.0629933,-47.3456,22,0.00294455,10,0.00298245,-1.32472,1.74116,0.0338855,-62.6281,-0.0629933,
2,0,0,1,0,42571.4,-0.0658155,-0.0661946,-47.1428,22,0.0027556,10,0.0031206,-1.32658,1.89619,0.031115,-57.2775,-0.0661946,
2,0,0,1,0,42571.4,-0.0690117,-0.0693674,-46.9601,22,0.00256741,10,0.0032575,-1.32827,1.96772,0.0299839,-54.9889,-0.0693674,
2,0,0,1,0,42571.4,-0.0722189,-0.0725868,-46.8033,22,0.00237989,10,0.0033973,-1.32972,2.12005,0.0278295,-50.8473,-0.07258676,
2,0,0,1,0,42571.4,-0.075415,-0.0758263,-46.6399,22,0.00219303,10,0.00353653,-1.33124,2.35472,0.025056,-45.6333,-0.0758263,
2,0,0,1,0,42571.4,-0.0786167,-0.078998,-46.4918,22,0.00200679,10,0.00367276,-1.33262,2.48233,0.023768,-43.1577,-0.078998,
2,0,0,1,0,42571.4,-0.0818184,-0.0822004,-46.3745,22,0.00182107,10,0.003812,-1.33372,2.93874,0.0200766,-36.362,-0.0822004,
2,0,0,1,0,42571.5,-0.0850146,-0.0853806,-46.2512,22,0.00163584,10,0.00394895,-1.33488,3.29805,0.0178894,-32.3147,-0.0853806,
2,0,0,1,0,42571.5,-0.088219,-0.0885554,-46.177,22,0.00145102,10,0.00408923,-1.33557,3.81636,0.0154597,-27.8721,-0.0885554,
2,0,0,1,0,42571.5,-0.0914152,-0.0917621,-46.0793,22,0.00126652,10,0.00422833,-1.33649,4.75637,0.0124044,-22.3211,-0.0917621,
2,0,0,1,0,42571.5,-0.0946141,-0.0949932,-46.0179,22,0.00108235,10,0.00437139,-1.33707,5.75102,0.0102591,-18.4408,-0.0949932,
2,0,0,1,0,42571.5,-0.0978158,-0.0981935,-45.9652,22,0.000898388,10,0.00451348,-1.33757,9.50554,0.00620691,-11.1447,-0.0981935,
2,0,0,1,0,42571.5,-0.101012,-0.101401,-45.9402,22,0.000714569,10,0.00465839,-1.33781,15.0399,0.0039229,-7.03837,-0.101401,
2,0,0,1,0,42571.5,-0.104219,-0.10459,-45.9363,22,0.000530826,10,0.00480447,-1.33784,45.9237,0.00128474,-2.30392,-0.10459,
2,0,0,1,0,42571.5,-0.107415,-0.107801,-45.9278,22,0.0003471,10,0.00495105,-1.33792,-28.8533,-0.00204483,3.66805,-0.107801,
2,0,0,1,0,42571.5,-0.110611,-0.111016,-45.9356,22,0.000163372,10,0.00509959,-1.33785,-14.2022,-0.00415428,7.45531,-0.1110159,
2,0,0,1,0,42571.5,-0.113819,-0.114194,-45.9871,22,-2.04883e-05,10,0.00525145,-1.33736,-7.34478,-0.00803292,14.4272,-0.114194,
2,0,0,1,0,42571.5,-0.117015,-0.117368,-46.0316,22,-0.000204538,10,0.00540263,-1.33694,-5.63788,-0.0104649,18.8095,-0.117368,
2,0,0,1,0,42571.5,-0.120216,-0.120581,-46.1121,22,-0.000388826,10,0.00556024,-1.33618,-4.68069,-0.012605,22.6941,-0.120581,
2,0,0,1,0,42571.5,-0.123418,-0.123738,-46.1749,22,-0.000573406,10,0.00571357,-1.33559,-3.84009,-0.0153642,27.7077,-0.1237376,
2,0,0,1,0,42571.5,-0.126614,-0.127024,-46.2782,22,-0.000758312,10,0.00587844,-1.33462,-3.4571,-0.0170663,30.8439,-0.1270238,
2,0,0,1,0,42571.5,-0.129819,-0.130194,-46.387,22,-0.000943649,10,0.00603933,-1.3336,-2.94968,-0.0200022,36.2264,-0.130194,
2,0,0,1,0,42571.5,-0.133015,-0.13337,-46.5066,22,-0.00112944,10,0.0062026,-1.33249,-2.68793,-0.02195,39.8616,-0.13337,
2,0,0,1,0,42571.5,-0.136214,-0.136574,-46.6399,22,-0.00131574,10,0.00636979,-1.33124,-2.56421,-0.0230091,41.8946,-0.136574,
2,0,0,1,0,42571.5,-0.139416,-0.139803,-46.7876,22,-0.00150261,10,0.00654104,-1.32987,-2.32309,-0.0253972,46.3897,-0.139803,
2,0,0,1,0,42571.5,-0.142612,-0.142998,-46.9234,22,-0.00169005,10,0.00670994,-1.32861,-2.23734,-0.0263706,48.3172,-0.142998,
2,0,0,1,0,42571.5,-0.145819,-0.146166,-47.1002,22,-0.00187809,10,0.00688446,-1.32698,-2.15992,-0.0273158,50.2188,-0.146166,
2,0,0,1,0,42571.5,-0.149015,-0.14936,-47.2577,22,-0.00206682,10,0.00705843,-1.32553,-2.07149,-0.0284819,52.5301,-0.14936,
2,0,0,1,0,42571.5,-0.152211,-0.152566,-47.4286,22,-0.00225621,10,0.00723598,-1.32396,-2.09028,-0.0282258,52.251,-0.152566,
2,0,0,1,0,42571.5,-0.155418,-0.155768,-47.5942,22,-0.00244628,10,0.00741367,-1.32245,-2.05482,-0.028713,53.3376,-0.155768,
2,0,0,1,0,42571.5,-0.158615,-0.158949,-47.7681,22,-0.00263703,10,0.00759272,-1.32086,-2.04107,-0.0289064,53.8944,-0.158949,
2,0,0,1,0,42571.5,-0.161816,-0.162159,-47.9404,22,-0.00282845,10,0.00777399,-1.3193,-2.05154,-0.0287589,53.803,-0.162159,
2,0,0,1,0,42571.6,-0.165018,-0.165389,-48.1197,22,-0.00302059,10,0.00795848,-1.31768,-2.08381,-0.0283135,53.1595,-0.165389,
2,0,0,1,0,42571.6,-0.168214,-0.168539,-48.2813,22,-0.00321341,10,0.00813727,-1.31622,-2.15257,-0.0274091,51.6331,-0.168539,
2,0,0,1,0,42571.6,-0.171419,-0.171794,-48.451,22,-0.00340688,10,0.00832359,-1.3147,-2.21264,-0.026665,50.4099,-0.171794,
2,0,0,1,0,42571.6,-0.174615,-0.174925,-48.5995,22,-0.00360099,10,0.00850125,-1.31337,-2.31039,-0.0255368,48.4268,-0.174925,
2,0,0,1,0,42571.6,-0.177814,-0.178152,-48.7631,22,-0.00379571,10,0.00868726,-1.31191,-2.36378,-0.0249601,47.4909,-0.178152,
2,0,0,1,0,42571.6,-0.181015,-0.181354,-48.9019,22,-0.00399109,10,0.00886854,-1.31067,-2.47037,-0.0238831,45.5717,-0.181354,
2,0,0,1,0,42571.6,-0.184211,-0.18454,-49.0563,22,-0.00418703,10,0.00905286,-1.30931,-2.55662,-0.0230773,44.172,-0.18454,
2,0,0,1,0,42571.6,-0.187419,-0.187804,-49.1865,22,-0.00438354,10,0.00923743,-1.30815,-2.66721,-0.0221205,42.4506,-0.187804,
2,0,0,1,0,42571.6,-0.190615,-0.190958,-49.3287,22,-0.00458059,10,0.00941971,-1.3069,-2.79161,-0.0211347,40.6773,-0.190958,
2,0,0,1,0,42571.6,-0.193811,-0.194139,-49.4447,22,-0.00477815,10,0.00959914,-1.30588,-2.91481,-0.0202415,39.0426,-0.194139,
2,0,0,1,0,42571.6,-0.197018,-0.197353,-49.5775,22,-0.00497622,10,0.00978427,-1.30472,-4.27835,-0.0137904,26.6172,-0.197353,
2,0,0,1,0,42571.6,-0.199647,-0.199964,-49.6612,22,-0.00513998,10,0.00993048,-1.30398,0.243537,0.242263,-455.983,-0.1999644,
2,0,0,1,0,42571.6,-0.200134,-0.20057,-49.5846,22,-0.00516977,10,0.0099452,-1.30465,-0.015315,-3.85243,6839.52,-0.2005704,
2,0,0,1,1,42571.6,-0.198935,-0.199432,-47.0314,22,-0.00524146,10,0.00937954,-1.32761,-0.0570878,-1.0335,1745.88,-0.199432,
2,0,0,1,1,42571.6,-0.195739,-0.196192,-41.6358,22,-0.00541774,10,0.00816862,-1.38053,-0.0656925,-0.898123,1446.99,-0.196192,
2,0,0,1,1,42571.6,-0.192535,-0.192987,-37.4804,22,-0.00557532,10,0.00723324,-1.4262,-0.070211,-0.840324,1258.53,-0.192987,
2,0,0,1,1,42571.6,-0.189339,-0.189774,-33.963,22,-0.00571773,10,0.00644531,-1.46899,-0.0748792,-0.787936,1057.74,-0.189774,
2,0,0,1,1,42571.6,-0.186137,-0.186576,-30.8526,22,-0.00584694,10,0.00575637,-1.51071,-0.0766974,-0.769257,933.607,-0.186576,
2,0,0,1,1,42571.6,-0.182935,-0.183348,-28.0506,22,-0.00596438,10,0.00514304,-1.55206,-0.0764391,-0.771856,848.841,-0.183348,
2,0,0,1,1,42571.6,-0.179739,-0.180139,-25.4845,22,-0.00607113,10,0.00459074,-1.59372,-0.0759429,-0.7769,774.435,-0.180139,
2,0,0,1,1,42571.6,-0.176532,-0.176968,-23.0923,22,-0.006168,10,0.0040866,-1.63653,-0.073802,-0.799436,721.159,-0.176968,
2,0,0,1,1,42571.6,-0.173336,-0.173698,-20.879,22,-0.00625568,10,0.00362663,-1.68029,-0.0706458,-0.835152,679.518,-0.173698,
2,0,0,1,1,42571.6,-0.17014,-0.170513,-18.7944,22,-0.0063348,10,0.0032047,-1.72597,-0.0677673,-0.870626,635.829,-0.170513,
2,0,0,1,1,42571.6,-0.166932,-0.167375,-16.8118,22,-0.00640576,10,0.00281388,-1.77439,-0.0633573,-0.931227,607.08,-0.167375,
2,0,0,1,1,42571.6,-0.163736,-0.164124,-14.9259,22,-0.00646903,10,0.00244971,-1.82606,-0.058872,-1.00217,578.967,-0.164124,
2,0,0,1,1,42571.6,-0.160532,-0.160928,-13.1269,22,-0.00652494,10,0.00211249,-1.88184,-0.0546412,-1.07977,547.07,-0.1609282,
2,0,0,1,1,42571.6,-0.157336,-0.157778,-11.421,22,-0.00657387,10,0.00180198,-1.9423,-0.0490859,-1.20197,526.464,-0.157778,
2,0,0,1,1,42571.7,-0.154139,-0.154529,-9.78365,22,-0.0066161,10,0.00151185,-2.0095,-0.0434021,-1.35938,506.067,-0.154529,
2,0,0,1,1,42571.7,-0.150935,-0.151329,-8.1899,22,-0.00665187,10,0.00123937,-2.08672,-0.0374932,-1.57362,485.122,-0.1513294,
2,0,0,1,1,42571.7,-0.147739,-0.148176,-6.67331,22,-0.00668142,10,0.000988823,-2.17566,-0.0308721,-1.91111,471.033,-0.148176,
2,0,0,1,1,42571.7,-0.144532,-0.144931,-5.18871,22,-0.00670499,10,0.000752004,-2.28494,-0.0239618,-2.46226,453.646,-0.1449309,
2,0,0,1,1,42571.7,-0.141335,-0.14179,-3.78333,22,-0.00672279,10,0.000536438,-2.42213,-0.0160033,-3.68675,438.239,-0.14179,
2,0,0,1,1,42571.7,-0.138139,-0.138577,-2.4048,22,-0.006735,10,0.00033325,-2.61892,-0.00960611,-6.14193,424.334,-0.138577,
2,0,0,1,1,42571.7,-0.134932,-0.135355,-1.05496,22,-0.00674177,10,0.000142795,-2.97676,-0.031823,-1.85401,412.331,-0.135355,
2,0,0,1,1,42571.7,-0.131736,-0.132134,0.241484,22,-0.00674326,10,-3.19082e-05,-3.61711,0.232804,0.253432,400.914,-0.132134,
2,1,0,1,1,42571.7,-0.12854,-0.128982,1.49765,22,-0.00673965,10,-0.00019317,-2.82459,0.0223918,2.63489,389.761,-0.128982,
2,1,0,1,1,42571.7,-0.125333,-0.12577,2.72953,22,-0.00673106,10,-0.000343295,-2.56391,0.00960972,6.13962,381.969,-0.12577,
2,1,0,1,1,42571.7,-0.122136,-0.122582,3.92372,22,-0.00671762,10,-0.000480976,-2.4063,0.0206285,2.86012,370.99,-0.122582,
2,1,0,1,1,42571.7,-0.118932,-0.119399,5.10564,22,-0.00669947,10,-0.000609611,-2.29195,0.0296885,1.9873,362.002,-0.119399,
2,1,0,1,1,42571.7,-0.115736,-0.116195,6.24167,22,-0.00667665,10,-0.00072525,-2.2047,0.0382285,1.54335,355.597,-0.116195,
2,1,0,1,1,42571.7,-0.11254,-0.112984,7.35822,22,-0.00664934,10,-0.000831361,-2.13323,0.0471218,1.25207,346.445,-0.112984,
2,1,0,1,1,42571.7,-0.109335,-0.109828,8.45884,22,-0.00661758,10,-0.000929019,-2.07269,0.0558162,1.05704,339.368,-0.109828,
2,1,0,1,1,42571.7,-0.106139,-0.106624,9.53175,22,-0.0065815,10,-0.00101631,-2.02083,0.0643319,0.917119,333.853,-0.1066237,
2,1,0,1,1,42571.7,-0.102932,-0.103373,10.5932,22,-0.00654116,10,-0.00109504,-1.97497,0.0738074,0.799377,324.539,-0.1033725,
2,1,0,1,1,42571.7,-0.0997357,-0.100218,11.6203,22,-0.00649662,10,-0.00116456,-1.93478,0.082829,0.712311,318.346,-0.100218,
2,1,0,1,1,42571.7,-0.0965395,-0.0969941,12.624,22,-0.00644801,10,-0.00122445,-1.8988,0.0926321,0.636928,310.21,-0.0969941,
2,1,0,1,1,42571.7,-0.0933323,-0.0938023,13.6134,22,-0.00639542,10,-0.00127697,-1.86603,0.10222,0.577185,303.794,-0.0938023,
2,1,0,1,1,42571.7,-0.0901361,-0.0905278,14.5777,22,-0.00633893,10,-0.00131969,-1.83631,0.111202,0.530567,299.412,-0.0905278,
2,1,0,1,1,42571.7,-0.0869345,-0.0873063,15.5427,22,-0.00627862,10,-0.00135698,-1.80847,0.121245,0.48662,292.79,-0.0873063,
2,1,0,1,1,42571.7,-0.0837328,-0.0841632,16.4657,22,-0.0062145,10,-0.00138581,-1.78342,0.130709,0.451383,287.971,-0.0841632,
2,1,0,1,1,42571.7,-0.0805366,-0.0809597,17.3736,22,-0.00614673,10,-0.00140656,-1.76011,0.141868,0.41588,280.279,-0.0809597,
2,1,0,1,1,42571.7,-0.0773322,-0.0777615,18.254,22,-0.0060754,10,-0.00141946,-1.73864,0.153091,0.385391,273.11,-0.0777615,
2,1,0,1,1,42571.8,-0.074136,-0.0745506,19.1178,22,-0.00600057,10,-0.00142525,-1.71856,0.16351,0.360833,268.114,-0.0745506,
2,1,0,1,1,42571.8,-0.0709371,-0.0713588,19.9627,22,-0.00592232,10,-0.00142452,-1.69978,0.174464,0.338179,262.508,-0.0713588,
2,1,0,1,1,42571.8,-0.0677354,-0.06815,20.808,22,-0.00584067,10,-0.00141807,-1.68177,0.185114,0.318723,257.799,-0.06815,
2,1,0,1,1,42571.8,-0.0645393,-0.064937,21.6206,22,-0.00575572,10,-0.00140398,-1.66513,0.196863,0.299701,251.859,-0.064937,
2,1,0,1,1,42571.8,-0.061332,-0.0617388,22.4207,22,-0.00566757,10,-0.00138423,-1.64935,0.209877,0.281117,245.102,-0.0617388,
2,1,0,1,1,42571.8,-0.0581359,-0.0585703,23.1836,22,-0.00557627,10,-0.00135787,-1.63482,0.22162,0.266222,240.273,-0.0585703,
2,1,0,1,1,42571.8,-0.0549398,-0.0553445,23.9467,22,-0.00548193,10,-0.00132532,-1.62075,0.233132,0.253076,235.998,-0.0553445,
2,1,0,1,1,42571.8,-0.0517325,-0.052123,24.6995,22,-0.00538453,10,-0.00128741,-1.60731,0.246946,0.238919,229.642,-0.052123,
2,1,0,1,1,42571.8,-0.0485364,-0.0489832,25.431,22,-0.0052842,10,-0.00124569,-1.59464,0.25943,0.227422,225.077,-0.0489832,
2,1,0,1,1,42571.8,-0.0453347,-0.0457309,26.1321,22,-0.005181,10,-0.00119504,-1.58283,0.274949,0.214585,218.343,-0.0457309,
2,1,0,1,1,42571.8,-0.042133,-0.0425507,26.8263,22,-0.00507502,10,-0.00114148,-1.57144,0.289511,0.203792,212.953,-0.0425507,
2,1,0,1,1,42571.8,-0.0389369,-0.0393207,27.4947,22,-0.00496632,10,-0.00108111,-1.56075,0.302834,0.194826,208.652,-0.03932073,
2,1,0,1,1,42571.8,-0.0357324,-0.0361406,28.1659,22,-0.00485495,10,-0.00101793,-1.55028,0.320033,0.184356,202.151,-0.0361406,
2,1,0,1,1,42571.8,-0.0325363,-0.0329721,28.7943,22,-0.00474096,10,-0.000949407,-1.54069,0.33661,0.175277,196.548,-0.0329721,
2,1,0,1,1,42571.8,-0.0293374,-0.0297866,29.4065,22,-0.0046245,10,-0.000875921,-1.53156,0.356364,0.165561,189.713,-0.0297866,
2,1,0,1,1,42571.8,-0.0261357,-0.0265354,30.0077,22,-0.00450559,10,-0.000796266,-1.52277,0.374089,0.157717,184.441,-0.0265354,
2,1,0,1,1,42571.8,-0.0229395,-0.0233616,30.5902,22,-0.00438434,10,-0.000714637,-1.51442,0.391886,0.150554,179.487,-0.0233616,
2,1,0,1,1,42571.8,-0.0197323,-0.0201062,31.1673,22,-0.00426075,10,-0.000626654,-1.5063,0.411727,0.143299,173.97,-0.0201062,
2,1,0,1,1,42571.8,-0.0165361,-0.0169101,31.7177,22,-0.00413491,10,-0.000536349,-1.4987,0.431135,0.136848,169.084,-0.0169101,
2,1,0,1,1,42571.8,-0.01334,-0.0137352,32.2345,22,-0.00400694,10,-0.000442749,-1.49168,0.455294,0.129587,162.826,-0.0137352,
2,1,0,1,1,42571.8,-0.0101328,-0.010572,32.7527,22,-0.0038769,10,-0.000346263,-1.48475,0.476231,0.12389,158.183,-0.010572,
2,1,0,1,1,42571.8,-0.00693663,-0.00733567,33.2466,22,-0.00374484,10,-0.000243886,-1.47825,0.497161,0.118674,153.714,-0.007335674,
2,1,0,1,1,42571.8,-0.00373494,-0.00415657,33.7351,22,-0.00361085,10,-0.000140222,-1.47192, , , ,-0.00415657,
2,1,0,1,1,42571.8,-0.000774628,-0.0011938,34.1623,22,-0.00348521,10,-4.07829e-05,-1.46645, , , ,-0.0011938,
2,1,0,0,1,42571.8,-0.000125413,-0.000516197,34.2635,22,-0.00345785,10,-1.76867e-05,-1.46517, , , ,-0.000516197,