File: Figure_codes/Fig_3-5/rawdata_trumpetplot_data/after 10th/20221101_1-115_003_TrumpetPlot_ParaChange_from10_every3_10_CV_C01_2.csv
mode,ox/red,error,control changes,counter inc.,time/s,control/V,Ewe/V,<I>/mA,cycle number,(Q-Qo)/C,I Range,P/W,log(|I|),Tafel slope mV/dec,alpha_eff,dI/d(E-IR),E-IR/V,
2,1,0,0,0,5130.78,-2.44065e-05,-0.000306236,5.34758,3,0.0000000E+000,10,-1.63762e-06,-2.27184, , , ,-0.000306236,
2,1,0,1,0,5130.79,0.00179726,0.00143628,6.38335,3,5.21193e-05,10,9.16826e-06,-2.19495, , , ,0.00143628,
2,1,0,1,0,5130.8,0.00379485,0.00348578,7.25382,3,0.000120782,10,2.52852e-05,-2.13943,0.0451458,1.30688,361.414,0.00348578,
2,1,0,1,0,5130.81,0.00579244,0.00546291,7.83863,3,0.000196485,10,4.28217e-05,-2.10576,0.0660277,0.893564,271.265,0.00546291,
2,1,0,1,0,5130.82,0.00779002,0.0074464,8.3282,3,0.000277487,10,6.20151e-05,-2.07945,0.0877578,0.672305,216.843,0.0074464,
2,1,0,1,0,5130.83,0.00977853,0.0094604,8.70546,3,0.000361925,10,8.23571e-05,-2.06021,0.117327,0.502868,170.131,0.009460398,
2,1,0,1,0,5130.84,0.0117761,0.0115062,9.0189,3,0.000450602,10,0.000103773,-2.04485,0.149993,0.393352,137.873,0.0115062,
2,1,0,1,0,5130.85,0.0137737,0.0135026,9.26276,3,0.000542039,10,0.000125071,-2.03326,0.178504,0.330525,119.367,0.0135026,
2,1,0,1,0,5130.86,0.0157713,0.0154746,9.4926,3,0.00063583,10,0.000146895,-2.02261,0.204107,0.289065,106.841,0.0154746,
2,1,0,1,0,5130.87,0.017778,0.0174224,9.68156,3,0.00073176,10,0.000168676,-2.01405,0.251451,0.234638,88.5392,0.01742241,
2,1,0,1,0,5130.88,0.0197755,0.0194795,9.84719,3,0.000829406,10,0.000191818,-2.00669,0.295708,0.199521,76.5721,0.0194795,
2,1,0,1,0,5130.89,0.0217731,0.0214177,9.98749,3,0.000928607,10,0.000213909,-2.00054,0.325043,0.181514,70.7479,0.0214177,
2,1,0,1,0,5130.9,0.0237707,0.0234531,10.1283,3,0.00102919,10,0.000237541,-1.99446,0.342759,0.172133,68.0079,0.0234531,
2,1,0,1,0,5130.91,0.0257774,0.0254365,10.2608,3,0.00113118,10,0.000260999,-1.98882,0.358067,0.164774,65.975,0.0254365,
2,1,0,1,0,5130.92,0.027775,0.0274485,10.3919,3,0.00123447,10,0.000285242,-1.9833,0.377496,0.156293,63.3616,0.0274485,
2,1,0,1,0,5130.93,0.0297726,0.0294613,10.5158,3,0.00133903,10,0.00030981,-1.97816,0.397719,0.148346,60.8657,0.0294613,
2,1,0,1,0,5130.94,0.0317701,0.0314481,10.6353,3,0.00144479,10,0.000334462,-1.97325,0.391207,0.150815,62.6253,0.0314481,
2,1,0,1,0,5130.95,0.0337587,0.0334425,10.7651,3,0.00155074,10,0.000360014,-1.96798,0.374055,0.157731,66.2812,0.0334425,
2,1,0,1,0,5130.96,0.0357562,0.0354483,10.9005,3,0.00165908,10,0.000386404,-1.96255,0.411478,0.143385,60.9134,0.0354483,
2,1,0,1,0,5130.97,0.0377538,0.0374055,11.0065,3,0.00176867,10,0.000411706,-1.95835,0.398039,0.148227,63.7858,0.0374055,
2,1,0,1,0,5130.98,0.0397514,0.0394113,11.1533,3,0.00187951,10,0.000439565,-1.9526,0.345432,0.1708,74.3604,0.0394113,
2,1,0,1,0,5130.99,0.0417399,0.0414299,11.3058,3,0.00199069,10,0.000468398,-1.9467,0.355998,0.165731,73.0815,0.0414299,
2,1,0,1,0,5131,0.0437375,0.0434159,11.4459,3,0.00210445,10,0.000496935,-1.94135,0.385568,0.153021,68.3239,0.0434159,
2,1,0,1,0,5131.01,0.0457351,0.0453983,11.5769,3,0.00221954,10,0.000525574,-1.93641,0.360936,0.163464,73.9516,0.0453983,
2,1,0,1,0,5131.02,0.0477327,0.047386,11.7395,3,0.00233611,10,0.00055629,-1.93035,0.338365,0.174368,79.8577,0.047386,
2,1,0,1,0,5131.03,0.0497393,0.0493772,11.8947,3,0.00245425,10,0.000587326,-1.92465,0.350092,0.168527,78.2535,0.0493772,
2,1,0,1,0,5131.04,0.0517369,0.0514516,12.0577,3,0.00257399,10,0.000620387,-1.91874,0.352606,0.167326,78.7114,0.0514516,
2,1,0,1,0,5131.05,0.0537345,0.0534298,12.2137,3,0.00269539,10,0.000652573,-1.91315,0.332758,0.177306,84.5827,0.0534298,
2,1,0,1,0,5131.06,0.0557321,0.0553897,12.3908,3,0.00281845,10,0.000686321,-1.9069,0.347782,0.169646,81.9331,0.0553897,
2,1,0,1,0,5131.07,0.0577297,0.0573895,12.5381,3,0.00294308,10,0.000719555,-1.90177,0.348713,0.169194,82.9199,0.05738952,
2,1,0,1,0,5131.08,0.0597364,0.0594345,12.7262,3,0.00306949,10,0.000756373,-1.8953,0.341101,0.172969,85.8027,0.0594345,
2,1,0,1,0,5131.09,0.0617339,0.06143,12.8848,3,0.00319756,10,0.000791511,-1.88992,0.370743,0.15914,80.0276,0.06143,
2,1,0,1,0,5131.1,0.0637315,0.0634298,13.0459,3,0.00332725,10,0.000827498,-1.88453,0.359646,0.16405,83.5405,0.06342978,
2,1,0,1,0,5131.11,0.0657291,0.0653637,13.2134,3,0.00345857,10,0.000863677,-1.87899,0.322708,0.182828,94.423,0.0653637,
2,1,0,1,0,5131.12,0.0677176,0.0674203,13.4227,3,0.00359045,10,0.000904963,-1.87216,0.336198,0.175492,91.7488,0.0674203,
2,1,0,1,0,5131.13,0.0697152,0.0693657,13.5806,3,0.00372547,10,0.000942026,-1.86708,0.361342,0.16328,86.6261,0.06936565,
2,1,0,1,0,5131.14,0.0717128,0.0713953,13.767,3,0.00386222,10,0.000982901,-1.86116,0.366601,0.160938,86.3955,0.0713953,
2,1,0,1,0,5131.15,0.0737104,0.0734265,13.9314,3,0.00400072,10,0.00102293,-1.856,0.367131,0.160706,87.4274,0.0734265,
2,1,0,1,0,5131.16,0.0756989,0.0753611,14.1138,3,0.00413958,10,0.00106363,-1.85036,0.378956,0.155691,85.6804,0.0753611,
2,1,0,1,0,5131.17,0.0776965,0.0774043,14.2722,3,0.00428152,10,0.00110473,-1.84551,0.397265,0.148515,82.7673,0.0774043,
2,1,0,1,0,5131.18,0.0796941,0.0793902,14.4472,3,0.00442516,10,0.00114697,-1.84022,0.38917,0.151605,85.4399,0.07939025,
2,1,0,1,0,5131.19,0.0816916,0.0813597,14.6102,3,0.0045705,10,0.00118868,-1.83534,0.39734,0.148488,84.6895,0.0813597,
2,1,0,1,0,5131.2,0.0836983,0.0833491,14.7825,3,0.0047175,10,0.00123211,-1.83025,0.406567,0.145118,83.6912,0.0833491,
2,1,0,1,0,5131.21,0.0856959,0.0853689,14.9457,3,0.00486622,10,0.0012759,-1.82548,0.41344,0.142705,83.2625,0.0853689,
2,1,0,1,0,5131.22,0.0876935,0.0873922,15.1191,3,0.00501656,10,0.00132129,-1.82047,0.440871,0.133826,78.8807,0.0873922,
2,1,0,1,0,5131.23,0.0896911,0.0893738,15.2616,3,0.00516847,10,0.00136399,-1.8164,0.440455,0.133952,79.8755,0.0893738,
2,1,0,1,0,5131.24,0.0916978,0.0914127,15.4403,3,0.00532198,10,0.00141144,-1.81134,0.417207,0.141417,85.1628,0.0914127,
2,1,0,1,0,5131.25,0.0936953,0.0933587,15.601,3,0.00547724,10,0.00145649,-1.80685,0.445954,0.132301,80.5311,0.0933587,
2,1,0,1,0,5131.26,0.0956929,0.0953152,15.7546,3,0.00563404,10,0.00150165,-1.80259,0.469046,0.125787,77.3456,0.0953152,
2,1,0,1,0,5131.27,0.0976905,0.0973705,15.9113,3,0.00579242,10,0.00154929,-1.79829,0.437229,0.134941,83.8697,0.0973705,
2,1,0,1,0,5131.28,0.099679,0.0994115,16.0981,3,0.00595083,10,0.00160034,-1.79323,0.434946,0.135649,85.1233,0.09941148,
2,1,0,1,0,5131.29,0.101677,0.101333,16.2486,3,0.00611258,10,0.00164652,-1.78918,0.435242,0.135557,86.0573,0.101333,
2,1,0,1,0,5131.3,0.103674,0.103346,16.4367,3,0.00627602,10,0.00169866,-1.78419,0.402958,0.146417,93.9255,0.103346,
2,1,0,1,0,5131.31,0.105672,0.105364,16.6272,3,0.00644132,10,0.00175192,-1.77918,0.392439,0.150342,97.5827,0.105364,
2,1,0,1,0,5131.32,0.107656,0.107352,16.8277,3,0.00660686,10,0.00180649,-1.77398,0.377724,0.156199,102.604,0.107352,
2,1,0,1,0,5131.33,0.109658,0.109363,17.0375,3,0.00677622,10,0.00186326,-1.76859,0.353329,0.166983,111.095,0.109363,
2,1,0,1,0,5131.34,0.111655,0.111326,17.2691,3,0.00694777,10,0.0019225,-1.76273,0.340075,0.173491,116.935,0.111326,
2,1,0,1,0,5131.35,0.113653,0.113366,17.5056,3,0.00712167,10,0.00198453,-1.75682,0.322685,0.182841,124.979,0.113366,
2,1,0,1,0,5131.36,0.115651,0.115273,17.7624,3,0.00729799,10,0.00204751,-1.7505,0.30407,0.194034,134.574,0.115273,
2,1,0,1,0,5131.37,0.117657,0.117335,18.0397,3,0.00747707,10,0.00211669,-1.74377,0.297382,0.198398,139.7,0.117335,
2,1,0,1,0,5131.38,0.119655,0.119304,18.3255,3,0.00765894,10,0.0021863,-1.73694,0.29966,0.19689,140.777,0.119304,
2,1,0,1,0,5131.39,0.121652,0.121349,18.6048,3,0.00784365,10,0.00225766,-1.73038,0.295068,0.199954,145.27,0.121349,
2,1,0,1,0,5131.4,0.12365,0.123321,18.9092,3,0.00803124,10,0.0023319,-1.72333,0.282331,0.208974,154.226,0.123321,
2,1,0,1,0,5131.41,0.125657,0.125334,19.2195,3,0.00822197,10,0.00240886,-1.71626,0.29288,0.201447,151.023,0.125334,
2,1,0,1,0,5131.42,0.127654,0.127321,19.5132,3,0.00841568,10,0.00248444,-1.70967,0.309866,0.190405,144.989,0.127321,
2,1,0,1,0,5131.43,0.129652,0.129384,19.8067,3,0.00861232,10,0.00256267,-1.70319,0.304944,0.193478,149.593,0.129384,
2,1,0,1,0,5131.44,0.131649,0.131329,20.1127,3,0.00881197,10,0.00264137,-1.69653,0.312408,0.188856,148.13,0.131329,
2,1,0,1,0,5131.45,0.133638,0.133334,20.3917,3,0.00901258,10,0.0027189,-1.69055,0.336674,0.175244,139.462,0.133334,
2,1,0,1,0,5131.46,0.135636,0.135346,20.6729,3,0.00921796,10,0.00279799,-1.6846,0.34452,0.171253,138.116,0.135346,
2,1,0,1,0,5131.47,0.137633,0.137314,20.9415,3,0.00942608,10,0.00287556,-1.67899,0.361434,0.163239,133.389,0.137314,
2,1,0,1,0,5131.48,0.139631,0.139336,21.2052,3,0.00963685,10,0.00295464,-1.67356,0.381243,0.154757,128.026,0.139336,
2,1,0,1,0,5131.49,0.141619,0.141329,21.4555,3,0.00984802,10,0.0030323,-1.66846,0.39082,0.150965,126.408,0.141329,
2,1,0,1,0,5131.5,0.143617,0.143308,21.7073,3,0.0100639,10,0.00311084,-1.66339,0.425412,0.138689,117.399,0.143308,
2,1,0,1,0,5131.51,0.145614,0.14534,21.9263,3,0.010282,10,0.00318676,-1.65903,0.470127,0.125498,107.374,0.14534,
2,1,0,1,0,5131.52,0.147612,0.147338,22.1401,3,0.0105023,10,0.00326208,-1.65482,0.481444,0.122548,105.861,0.147338,
2,1,0,1,0,5131.53,0.149619,0.149283,22.3437,3,0.0107248,10,0.00333554,-1.65084,0.527114,0.11193,97.5661,0.1492828,
2,1,0,1,0,5131.54,0.151616,0.151349,22.5313,3,0.0109492,10,0.00341008,-1.64721,0.643769,0.0916477,80.4866,0.151349,
2,1,0,1,0,5131.55,0.153614,0.153247,22.6628,3,0.0111752,10,0.003473,-1.64469,0.802927,0.0734811,64.9778,0.153247,
2,1,0,1,0,5131.56,0.155611,0.155261,22.7856,3,0.0114025,10,0.00353772,-1.64234,1.06177,0.0555675,49.3623,0.155261,
2,1,0,1,0,5131.57,0.157618,0.157273,22.8616,3,0.0116308,10,0.00359552,-1.64089,2.58311,0.0228407,20.3478,0.157273,
2,1,0,1,0,5131.58,0.159616,0.159308,22.8679,3,0.0118595,10,0.00364304,-1.64077,-3.01996,-0.0195367,-17.4039,0.159308,
2,1,0,1,0,5131.59,0.161613,0.161338,22.7908,3,0.0120879,10,0.00367703,-1.64224,-0.913727,-0.0645707,-57.3385,0.1613382,
2,1,0,1,0,5131.6,0.163611,0.163294,22.6394,3,0.0123151,10,0.00369686,-1.64514,-0.493104,-0.11965,-105.452,0.163294,
2,1,0,1,0,5131.61,0.165618,0.165273,22.3759,3,0.0125402,10,0.00369813,-1.65022,-0.330804,-0.178353,-155.411,0.165273,
2,1,0,1,0,5131.62,0.167597,0.167291,22.0182,3,0.0127601,10,0.00368344,-1.65722,-0.238254,-0.247634,-212.128,0.167291,
2,1,0,1,0,5131.63,0.169595,0.169268,21.5284,3,0.0129778,10,0.00364407,-1.66699,-0.180918,-0.326114,-273.186,0.169268,
2,1,0,1,0,5131.64,0.171592,0.171309,20.9205,3,0.01319,10,0.00358387,-1.67943,-0.145289,-0.406087,-330.551,0.171309,
2,1,0,1,0,5131.65,0.173572,0.173287,20.2,3,0.0133936,10,0.00350039,-1.69465,-0.121362,-0.486151,-382.495,0.173287,
2,1,0,1,0,5131.66,0.175578,0.175236,19.4182,3,0.0135917,10,0.00340278,-1.71179,-0.107701,-0.547814,-413.953,0.175236,
2,1,0,1,0,5131.67,0.177576,0.177278,18.5479,3,0.0137814,10,0.00328813,-1.73171,-0.0977852,-0.603363,-436.113,0.177278,
2,1,0,1,0,5131.68,0.179573,0.179288,17.6512,3,0.0139623,10,0.00316465,-1.75323,-0.0908868,-0.649159,-446.997,0.179288,
2,1,0,1,0,5131.69,0.181571,0.181257,16.7694,3,0.0141343,10,0.00303956,-1.77548,-0.0890833,-0.662302,-433.722,0.181257,
2,1,0,1,0,5131.7,0.183578,0.183238,15.9379,3,0.0142977,10,0.00292044,-1.79757,-0.0900314,-0.655327,-407.493,0.183238,
2,1,0,1,0,5131.71,0.185575,0.185292,15.125,3,0.0144528,10,0.00280255,-1.8203,-0.0926994,-0.636466,-376.493,0.1852919,
2,1,0,1,0,5131.72,0.187573,0.187317,14.4024,3,0.0146003,10,0.0026978,-1.84157,-0.0950581,-0.620673,-349.296,0.187317,
2,1,0,1,0,5131.73,0.18957,0.189265,13.7373,3,0.0147409,10,0.0026,-1.8621,-0.100965,-0.584362,-314.192,0.189265,
2,1,0,1,0,5131.74,0.191577,0.19124,13.1697,3,0.0148753,10,0.00251857,-1.88042,-0.110836,-0.532318,-273.956,0.19124,
2,1,0,1,0,5131.75,0.193575,0.193228,12.6516,3,0.0150043,10,0.00244464,-1.89785,-0.123964,-0.475946,-235.706,0.1932279,
2,1,0,1,0,5131.76,0.195572,0.195263,12.2214,3,0.0151286,10,0.00238639,-1.91288,-0.134137,-0.439848,-209.862,0.1952633,
2,1,0,1,0,5131.77,0.19757,0.197242,11.8091,3,0.0152487,10,0.00232926,-1.92778,-0.15126,-0.390058,-180.501,0.197242,
2,1,0,1,0,5131.78,0.199558,0.199257,11.5005,3,0.015364,10,0.00229156,-1.93928,-0.171989,-0.343046,-153.908,0.199257,
2,1,0,1,0,5131.79,0.201556,0.201276,11.1884,3,0.0154773,10,0.00225194,-1.95123,-0.183041,-0.322332,-141.104,0.201276,
2,1,0,1,0,5131.8,0.203553,0.203243,10.9381,3,0.0155879,10,0.00222309,-1.96106,-0.2005,-0.294264,-125.59,0.2032433,
2,1,0,1,0,5131.81,0.205551,0.205267,10.6871,3,0.0156959,10,0.00219371,-1.97114,-0.23284,-0.253393,-106.064,0.205267,
2,1,0,1,0,5131.82,0.20754,0.207228,10.5154,3,0.0158007,10,0.00217908,-1.97818,-0.250241,-0.235773,-96.5751,0.207228,
2,1,0,1,0,5131.83,0.209537,0.209209,10.3064,3,0.0159048,10,0.00215619,-1.98689,-0.248413,-0.237508,-95.6928,0.209209,
2,1,0,1,0,5131.84,0.211535,0.211209,10.1345,3,0.016007,10,0.00214049,-1.9942,-0.283181,-0.208347,-82.4489,0.211209,
2,1,0,1,0,5131.85,0.213532,0.213226,9.97519,3,0.0161075,10,0.00212697,-2.00108,-0.330725,-0.178396,-69.5738,0.2132262,
2,1,0,1,0,5131.86,0.215539,0.215256,9.85293,3,0.0162066,10,0.0021209,-2.00643,-0.333231,-0.177054,-67.988,0.215256,
2,1,0,1,0,5131.87,0.217537,0.217207,9.70456,3,0.0163043,10,0.0021079,-2.01302,-0.334363,-0.176455,-66.931,0.217207,
2,1,0,1,0,5131.88,0.219534,0.219233,9.58668,3,0.0164007,10,0.00210172,-2.01833,-0.374235,-0.157655,-58.9723,0.2192335,
2,1,0,1,0,5131.89,0.221532,0.221256,9.46577,3,0.016496,10,0.00209436,-2.02384,-0.393695,-0.149862,-55.4183,0.2212559,
2,1,0,1,0,5131.9,0.223534,0.223234,9.36498,3,0.0165902,10,0.00209058,-2.02849,-0.428689,-0.137629,-50.3037,0.223234,
2,1,0,1,0,5131.91,0.225536,0.225232,9.26576,3,0.0166834,10,0.00208695,-2.03312,-0.45717,-0.129055,-46.6992,0.225232,
2,1,0,1,0,5131.92,0.227534,0.227204,9.17957,3,0.0167756,10,0.00208564,-2.03718,-0.446087,-0.132261,-47.3343,0.227204,
2,1,0,1,0,5131.93,0.229531,0.229254,9.07537,3,0.0168669,10,0.00208057,-2.04214,-0.481166,-0.122619,-43.509,0.229254,
2,1,0,1,0,5131.94,0.231529,0.231219,9.00491,3,0.0169572,10,0.0020821,-2.04552,-0.575064,-0.102597,-36.0514,0.231219,
2,1,0,1,0,5131.95,0.233517,0.233218,8.93246,3,0.017046,10,0.00208321,-2.04903,-0.574952,-0.102617,-35.7735,0.233218,
2,1,0,1,0,5131.96,0.235515,0.23525,8.86068,3,0.017135,10,0.00208448,-2.05253,-0.526729,-0.112012,-38.7104,0.23525,
2,1,0,1,0,5131.97,0.237513,0.237197,8.77843,3,0.0172231,10,0.00208222,-2.05658,-0.577683,-0.102132,-35.0401,0.237197,
2,1,0,1,0,5131.98,0.23951,0.239216,8.72173,3,0.0173105,10,0.00208638,-2.0594,-0.677715,-0.0870572,-29.624,0.239216,
2,1,0,1,0,5131.99,0.241499,0.24119,8.66015,3,0.0173966,10,0.00208874,-2.06247,-0.612506,-0.0963256,-32.543,0.24119,
2,1,0,1,0,5132,0.243496,0.243204,8.59195,3,0.0174828,10,0.00208959,-2.06591,-0.657801,-0.0896928,-30.1041,0.2432037,
2,1,0,1,0,5132.01,0.245494,0.24517,8.54035,3,0.0175685,10,0.00209383,-2.06852,-0.762049,-0.0774228,-25.8071,0.24517,
2,1,0,1,0,5132.02,0.247491,0.247149,8.49014,3,0.0176536,10,0.00209833,-2.07108,-0.713229,-0.0827224,-27.3957,0.247149,
2,1,0,1,0,5132.03,0.249498,0.249138,8.43163,3,0.0177382,10,0.00210064,-2.07409,-0.753864,-0.0782635,-25.7726,0.2491381,
2,1,0,1,0,5132.04,0.251496,0.251193,8.38592,3,0.0178222,10,0.00210648,-2.07645,-0.765617,-0.0770621,-25.205,0.2511926,
2,1,0,1,0,5132.05,0.253493,0.253168,8.33005,3,0.0179058,10,0.0021089,-2.07935,-0.736486,-0.0801101,-26.055,0.253168,
2,1,0,1,0,5132.06,0.255491,0.255189,8.2818,3,0.0179889,10,0.00211342,-2.08188,-0.934096,-0.0631627,-20.4324,0.255189,
2,1,0,1,0,5132.07,0.257497,0.257193,8.24782,3,0.0180715,10,0.00212128,-2.08366,-1.08343,-0.0544568,-17.526,0.257193,
2,1,0,1,0,5132.08,0.259495,0.259218,8.21119,3,0.0181538,10,0.00212849,-2.08559,-0.817935,-0.0721329,-23.088,0.259218,
2,1,0,1,0,5132.09,0.261493,0.261203,8.15523,3,0.0182357,10,0.00213017,-2.08856,-0.824056,-0.0715971,-22.8167,0.261203,
2,1,0,1,0,5132.1,0.26349,0.263196,8.12042,3,0.0183171,10,0.00213726,-2.09042,-1.24325,-0.0474561,-15.0487,0.2631959,
2,1,0,1,0,5132.11,0.265479,0.265167,8.09559,3,0.0183974,10,0.00214668,-2.09175,-1.12609,-0.0523938,-16.5367,0.265167,
2,1,0,1,0,5132.12,0.267476,0.267191,8.05436,3,0.0184781,10,0.00215205,-2.09397,-0.842569,-0.0700239,-22.0026,0.267191,
2,1,0,1,0,5132.13,0.269474,0.269188,8.00711,3,0.0185584,10,0.00215541,-2.09652,-1.08043,-0.0546078,-17.0924,0.2691876,
2,1,0,1,0,5132.14,0.271471,0.271183,7.98612,3,0.0186383,10,0.0021657,-2.09766,-1.41444,-0.0417125,-12.993,0.271183,
2,1,0,1,0,5132.15,0.27346,0.273143,7.95572,3,0.0187172,10,0.00217305,-2.09932,-1.13302,-0.0520734,-16.164,0.273143,
2,1,0,1,0,5132.16,0.275458,0.27519,7.92136,3,0.0187965,10,0.00217988,-2.1012,-0.899256,-0.0656098,-20.266,0.2751897,
2,1,0,1,0,5132.17,0.277455,0.277181,7.87389,3,0.0188755,10,0.00218249,-2.10381,-1.11666,-0.052836,-16.2674,0.277181,
2,1,0,1,0,5132.18,0.279453,0.279155,7.85686,3,0.0189542,10,0.00219328,-2.10475,-1.59134,-0.0370758,-11.3606,0.279155,
2,1,0,1,0,5132.19,0.281455,0.281141,7.8289,3,0.0190326,10,0.00220102,-2.1063,-1.1962,-0.0493228,-15.0647,0.281141,
2,1,0,1,0,5132.2,0.283457,0.28322,7.79561,3,0.0191106,10,0.00220788,-2.10815,-0.988119,-0.0597094,-18.1581,0.28322,
2,1,0,1,0,5132.21,0.285455,0.285167,7.75579,3,0.0191884,10,0.0022117,-2.11037,-1.06058,-0.0556298,-16.853,0.285167,
2,1,0,1,0,5132.22,0.287452,0.287137,7.72961,3,0.0192659,10,0.00221945,-2.11184,-1.16536,-0.0506279,-15.2641,0.287137,
2,1,0,1,0,5132.23,0.28945,0.289151,7.69497,3,0.019343,10,0.00222501,-2.11379,-1.68555,-0.0350033,-10.5302,0.289151,
2,1,0,1,0,5132.24,0.291456,0.291168,7.68715,3,0.01942,10,0.00223826,-2.11423,-1.20976,-0.0487698,-14.5902,0.291168,
2,1,0,1,0,5132.25,0.293454,0.293172,7.63631,3,0.0194966,10,0.00223875,-2.11712,-0.971893,-0.0607063,-18.1261,0.293172,
2,1,0,1,0,5132.26,0.295452,0.295175,7.61453,3,0.0195728,10,0.00224762,-2.11836,-1.46026,-0.0404038,-12.0038,0.295175,
2,1,0,1,0,5132.27,0.297449,0.297117,7.58896,3,0.0196489,10,0.00225481,-2.11982,-1.79746,-0.0328242,-9.72969,0.2971167,
2,1,0,1,0,5132.28,0.299438,0.299136,7.57599,3,0.0197239,10,0.00226625,-2.12056,-0.0523767,-1.12645,-316.885,0.2991364,
2,1,0,1,0,5132.28,0.299746,0.299479,6.84032,3,0.0197556,10,0.00204853,-2.16492,0.00434964,13.5643,2670.28,0.299479,
2,1,0,1,0,5132.29,0.29774,0.297479,3.15122,3,0.0198031,10,0.000937423,-2.50152,0.00494906,11.9215,1447.93,0.297479,
2,1,0,1,0,5132.3,0.295742,0.295495,1.07167,3,0.0198232,10,0.000316673,-2.96994,0.00361481,16.3217,840.877,0.295495,
2,0,0,1,0,5132.31,0.293745,0.293445,-0.241215,3,0.0198266,10,-7.07832e-05,-3.6176,-0.463812,-0.127207,533.465,0.293445,
2,0,0,1,0,5132.32,0.291747,0.291436,-1.09348,3,0.0198196,10,-0.000318681,-2.96119,-0.00474625,-12.4309,363.996,0.291436,
2,0,0,1,0,5132.33,0.289745,0.289406,-1.71127,3,0.0198053,10,-0.000495253,-2.76668,-0.0138734,-4.25273,257.862,0.2894063,
2,0,0,1,0,5132.34,0.287743,0.287426,-2.12774,3,0.0197859,10,-0.000611568,-2.67208,-0.0250707,-2.35334,189.609,0.287426,
2,0,0,1,0,5132.35,0.285745,0.28544,-2.46324,3,0.0197628,10,-0.000703107,-2.60849,-0.0377461,-1.56308,147.018,0.28544,
2,0,0,1,0,5132.36,0.283748,0.283422,-2.71628,3,0.0197369,10,-0.000769853,-2.56603,-0.0524332,-1.12524,118.311,0.283422,
2,0,0,1,0,5132.37,0.28175,0.281419,-2.939,3,0.0197085,10,-0.000827091,-2.5318,-0.0683324,-0.863427,97.9248,0.281419,
2,0,0,1,0,5132.38,0.279761,0.279458,-3.10447,3,0.0196785,10,-0.00086757,-2.50801,-0.083177,-0.709331,85.9328,0.279458,
2,0,0,1,0,5132.39,0.277764,0.277504,-3.27543,3,0.0196466,10,-0.000908946,-2.48473,-0.102117,-0.577771,73.2825,0.277504,
2,0,0,1,0,5132.4,0.275766,0.275426,-3.39996,3,0.0196132,10,-0.000936438,-2.46853,-0.12385,-0.476383,63.2362,0.275426,
2,0,0,1,0,5132.41,0.273769,0.273473,-3.53036,3,0.0195785,10,-0.000965458,-2.45218,-0.13115,-0.449868,61.8131,0.2734727,
2,0,0,1,0,5132.42,0.27178,0.271473,-3.64432,3,0.019543,10,-0.000989333,-2.43838,-0.142871,-0.41296,58.769,0.271473,
2,0,0,1,0,5132.43,0.269783,0.269477,-3.76516,3,0.0195059,10,-0.00101463,-2.42422,-0.167885,-0.351431,51.3862,0.269477,
2,0,0,1,0,5132.44,0.267785,0.267453,-3.85087,3,0.0194678,10,-0.00102993,-2.41444,-0.19885,-0.296705,44.6234,0.267453,
2,0,0,1,0,5132.45,0.265787,0.26548,-3.94353,3,0.0194288,10,-0.00104693,-2.40412,-0.194199,-0.303812,46.7436,0.26548,
2,0,0,1,0,5132.46,0.263781,0.263509,-4.03523,3,0.0193889,10,-0.00106332,-2.39413,-0.200124,-0.294817,46.4425,0.263509,
2,0,0,1,0,5132.47,0.261783,0.261448,-4.13081,3,0.019348,10,-0.00107999,-2.38396,-0.240772,-0.245045,39.3412,0.2614477,
2,0,0,1,0,5132.48,0.259786,0.259491,-4.1933,3,0.0193064,10,-0.00108812,-2.37744,-0.242618,-0.243181,39.9499,0.259491,
2,0,0,1,0,5132.49,0.257788,0.257487,-4.28904,3,0.019264,10,-0.00110437,-2.36764,-0.238797,-0.247072,41.222,0.257487,
2,0,0,1,0,5132.5,0.255781,0.255499,-4.35789,3,0.0192207,10,-0.00111343,-2.36072,-0.280087,-0.210649,35.8459,0.255499,
2,0,0,1,0,5132.51,0.253784,0.253489,-4.43235,3,0.0191767,10,-0.00112355,-2.35337,-0.302307,-0.195166,33.7026,0.253489,
2,0,0,1,0,5132.52,0.251786,0.251507,-4.49242,3,0.0191321,10,-0.00112987,-2.34752,-0.289669,-0.203681,35.7906,0.251507,
2,0,0,1,0,5132.53,0.249789,0.249548,-4.57342,3,0.0190868,10,-0.00114129,-2.33976,-0.307908,-0.191616,34.1078,0.249548,
2,0,0,1,0,5132.54,0.2478,0.247466,-4.63023,3,0.0190412,10,-0.00114583,-2.3344,-0.32069,-0.183978,33.318,0.247466,
2,0,0,1,0,5132.55,0.245802,0.245511,-4.7079,3,0.0189945,10,-0.00115584,-2.32717,-0.329849,-0.17887,32.773,0.245511,
2,0,0,1,0,5132.56,0.243805,0.243509,-4.75993,3,0.0189472,10,-0.00115909,-2.3224,-0.372598,-0.158348,29.4558,0.2435088,
2,0,0,1,0,5132.57,0.241807,0.241519,-4.8255,3,0.0188992,10,-0.00116545,-2.31646,-0.358254,-0.164688,30.989,0.241519,
2,0,0,1,0,5132.58,0.239819,0.239517,-4.88363,3,0.0188512,10,-0.00116971,-2.31126,-0.348133,-0.169476,32.3416,0.239517,
2,0,0,1,0,5132.59,0.237821,0.237525,-4.95466,3,0.018802,10,-0.00117686,-2.30499,-0.407488,-0.14479,27.9115,0.237525,
2,0,0,1,0,5132.6,0.235824,0.235499,-4.99577,3,0.0187523,10,-0.0011765,-2.3014,-0.458424,-0.128702,25.1392,0.235499,
2,0,0,1,0,5132.61,0.233826,0.233508,-5.05564,3,0.018702,10,-0.00118053,-2.29622,-0.376168,-0.156845,30.9592,0.233508,
2,0,0,1,0,5132.62,0.231824,0.231481,-5.12019,3,0.0186512,10,-0.00118522,-2.29071,-0.368778,-0.159988,31.9629,0.231481,
2,0,0,1,0,5132.63,0.229822,0.22952,-5.18313,3,0.0185996,10,-0.00118963,-2.28541,-0.490319,-0.12033,24.2721,0.2295198,
2,0,0,1,0,5132.64,0.227824,0.227481,-5.21727,3,0.0185477,10,-0.00118683,-2.28256,-0.460591,-0.128096,26.1692,0.227481,
2,0,0,1,0,5132.65,0.225827,0.225567,-5.28657,3,0.0184951,10,-0.00119247,-2.27683,-0.436106,-0.135288,27.8327,0.225567,
2,0,0,1,0,5132.66,0.223829,0.223573,-5.32603,3,0.018442,10,-0.00119076,-2.2736,-0.439441,-0.134262,27.997,0.223573,
2,0,0,1,0,5132.67,0.221822,0.221512,-5.4001,3,0.0183883,10,-0.00119619,-2.2676,-0.425968,-0.138508,29.1102,0.221512,
2,0,0,1,0,5132.68,0.219825,0.219489,-5.44491,3,0.0183341,10,-0.0011951,-2.26401,-0.441708,-0.133572,28.4464,0.219489,
2,0,0,1,0,5132.69,0.217827,0.217503,-5.51412,3,0.0182793,10,-0.00119934,-2.25852,-0.498488,-0.118358,25.3829,0.217503,
2,0,0,1,0,5132.7,0.21583,0.215518,-5.54571,3,0.018224,10,-0.0011952,-2.25604,-0.450401,-0.130994,28.4748,0.2155184,
2,0,0,1,0,5132.71,0.213841,0.213575,-5.62598,3,0.0181686,10,-0.00120157,-2.2498,-0.405726,-0.145418,31.8321,0.213575,
2,0,0,1,0,5132.72,0.211844,0.211529,-5.6727,3,0.0181121,10,-0.00119994,-2.24621,-0.490726,-0.12023,26.6484,0.211529,
2,0,0,1,0,5132.73,0.209846,0.20956,-5.73297,3,0.0180551,10,-0.0012014,-2.24162,-0.529576,-0.11141,24.8805,0.20956,
2,0,0,1,0,5132.74,0.207848,0.207529,-5.77222,3,0.0179976,10,-0.0011979,-2.23866,-0.38379,-0.15373,34.8137,0.2075292,
2,0,0,1,0,5132.75,0.20586,0.20554,-5.87293,3,0.0179399,10,-0.00120712,-2.23115,-0.394859,-0.14942,34.0545,0.20554,
2,0,0,1,0,5132.76,0.203862,0.203542,-5.908,3,0.017881,10,-0.00120253,-2.22856,-0.515942,-0.114354,26.4441,0.203542,
2,0,0,1,0,5132.77,0.201865,0.201564,-5.97808,3,0.0178216,10,-0.00120496,-2.22344,-0.490678,-0.120242,27.985,0.201564,
2,0,0,1,0,5132.78,0.199867,0.199558,-6.01949,3,0.0177616,10,-0.00120124,-2.22044,-0.417679,-0.141257,33.3221,0.199558,
2,0,0,1,0,5132.79,0.19786,0.197563,-6.11138,3,0.0177009,10,-0.00120739,-2.21386,-0.415732,-0.141918,33.7139,0.197563,
2,0,0,1,0,5132.8,0.195863,0.195536,-6.1551,3,0.0176396,10,-0.00120354,-2.21077,-0.437138,-0.134969,32.5341,0.1955357,
2,0,0,1,0,5132.81,0.193865,0.193547,-6.24205,3,0.0175776,10,-0.00120813,-2.20467,-0.411745,-0.143293,34.8078,0.193547,
2,0,0,1,0,5132.82,0.191868,0.191546,-6.29398,3,0.0175149,10,-0.00120558,-2.20107,-0.39821,-0.148163,36.512,0.191546,
2,0,0,1,0,5132.83,0.189861,0.189568,-6.38732,3,0.0174515,10,-0.00121083,-2.19468,-0.38818,-0.151991,37.7857,0.189568,
2,0,0,1,0,5132.84,0.187863,0.187501,-6.44682,3,0.0173874,10,-0.00120878,-2.19065,-0.393736,-0.149846,37.7974,0.187501,
2,0,0,1,0,5132.85,0.185866,0.185534,-6.53981,3,0.0173224,10,-0.00121336,-2.18443,-0.383322,-0.153918,39.184,0.185534,
2,0,0,1,0,5132.86,0.183868,0.18359,-6.60007,3,0.0172566,10,-0.00121171,-2.18045,-0.325598,-0.181205,46.905,0.18359,
2,0,0,1,0,5132.87,0.18188,0.181558,-6.72632,3,0.0171907,10,-0.00122121,-2.17222,-0.304582,-0.193708,50.6592,0.181558,
2,0,0,1,0,5132.88,0.179882,0.17958,-6.80321,3,0.0171231,10,-0.00122172,-2.16729,-0.351779,-0.167719,44.6111,0.17958,
2,0,0,1,0,5132.89,0.177885,0.177542,-6.90545,3,0.0170545,10,-0.00122601,-2.16081,-0.318658,-0.185151,49.8845,0.177542,
2,0,0,1,0,5132.9,0.175887,0.175536,-7.00495,3,0.0169849,10,-0.00122962,-2.15459,-0.275103,-0.214465,58.7668,0.175536,
2,0,0,1,0,5132.91,0.173908,0.173581,-7.13824,3,0.0169149,10,-0.00123906,-2.14641,-0.266695,-0.221227,61.5254,0.173581,
2,0,0,1,0,5132.92,0.171901,0.171574,-7.24868,3,0.016843,10,-0.00124369,-2.13974,-0.266831,-0.221114,62.673,0.171574,
2,0,0,1,0,5132.93,0.169903,0.169585,-7.3887,3,0.0167697,10,-0.00125301,-2.13143,-0.248002,-0.237901,68.5678,0.169585,
2,0,0,1,0,5132.94,0.167906,0.167568,-7.52335,3,0.0166952,10,-0.00126068,-2.12359,-0.227678,-0.259138,76.2601,0.167568,
2,0,0,1,0,5132.95,0.165908,0.165576,-7.69444,3,0.0166191,10,-0.00127401,-2.11382,-0.210737,-0.27997,83.9986,0.165576,
2,0,0,1,0,5132.96,0.163901,0.163627,-7.85443,3,0.0165413,10,-0.0012852,-2.10489,-0.202551,-0.291284,89.5024,0.163627,
2,0,0,1,0,5132.97,0.161904,0.161549,-8.05482,3,0.0164617,10,-0.00130125,-2.09394,-0.190929,-0.309015,97.0707,0.161549,
2,0,0,1,0,5132.98,0.159906,0.159584,-8.24689,3,0.0163801,10,-0.00131607,-2.08371,-0.175732,-0.335738,108.295,0.159584,
2,0,0,1,0,5132.99,0.157909,0.157634,-8.47885,3,0.0162964,10,-0.00133655,-2.07166,-0.162581,-0.362896,120.157,0.157634,
2,0,0,1,0,5133,0.155902,0.155599,-8.72571,3,0.0162103,10,-0.00135771,-2.0592,-0.151011,-0.390699,133.392,0.155599,
2,0,0,1,0,5133.01,0.153904,0.153551,-9.02337,3,0.0161215,10,-0.00138555,-2.04463,-0.14688,-0.401689,141.155,0.153551,
2,0,0,1,0,5133.02,0.151907,0.151612,-9.28844,3,0.01603,10,-0.00140824,-2.03206,-0.138288,-0.426646,155.296,0.151612,
2,0,0,1,0,5133.03,0.149909,0.149601,-9.63682,3,0.0159353,10,-0.00144168,-2.01607,-0.126192,-0.467543,175.842,0.149601,
2,0,0,1,0,5133.04,0.147921,0.1476,-9.99401,3,0.0158381,10,-0.00147511,-2.00026,-0.12176,-0.48456,189.279,0.1475998,
2,0,0,1,0,5133.05,0.145923,0.145619,-10.3906,3,0.0157361,10,-0.00151307,-1.98336,-0.117328,-0.502864,204.025,0.145619,
2,0,0,1,0,5133.06,0.143926,0.143607,-10.8087,3,0.0156301,10,-0.0015522,-1.96623,-0.109622,-0.538215,227.61,0.143607,
2,0,0,1,0,5133.07,0.141928,0.141649,-11.2941,3,0.0155196,10,-0.0015998,-1.94715,-0.105359,-0.559992,246.72,0.141649,
2,0,0,1,0,5133.08,0.139939,0.139656,-11.7834,3,0.0154053,10,-0.00164563,-1.92873,-0.106256,-0.55526,255.707,0.139656,
2,0,0,1,0,5133.09,0.137942,0.137634,-12.3208,3,0.0152848,10,-0.00169576,-1.90936,-0.105987,-0.556671,267.538,0.137634,
2,0,0,1,0,5133.1,0.135944,0.135626,-12.8616,3,0.0151588,10,-0.00174437,-1.8907,-0.103494,-0.570083,286.514,0.135626,
2,0,0,1,0,5133.11,0.133947,0.133688,-13.4516,3,0.0150272,10,-0.00179831,-1.87123,-0.104648,-0.563798,295.735,0.1336876,
2,0,0,1,0,5133.12,0.13194,0.131653,-14.0365,3,0.0148897,10,-0.00184795,-1.85274,-0.109309,-0.539755,295.715,0.131653,
2,0,0,1,0,5133.13,0.129942,0.129663,-14.6418,3,0.0147463,10,-0.00189849,-1.83441,-0.11293,-0.522448,298.253,0.129663,
2,0,0,1,0,5133.14,0.127945,0.127633,-15.2354,3,0.0145968,10,-0.00194454,-1.81715,-0.116558,-0.506187,300.954,0.127633,
2,0,0,1,0,5133.15,0.125947,0.125672,-15.8429,3,0.0144413,10,-0.001991,-1.80017,-0.125413,-0.470444,290.128,0.125672,
2,0,0,1,0,5133.16,0.123941,0.123678,-16.383,3,0.01428,10,-0.00202621,-1.78561,-0.13269,-0.444646,284.739,0.123678,
2,0,0,1,0,5133.17,0.121943,0.121652,-16.9874,3,0.0141131,10,-0.00206655,-1.76987,-0.137026,-0.430575,284.803,0.121652,
2,0,0,1,0,5133.18,0.119945,0.119661,-17.527,3,0.0139404,10,-0.0020973,-1.75629,-0.148521,-0.39725,271.648,0.119661,
2,0,0,1,0,5133.19,0.117948,0.117677,-18.0673,3,0.0137623,10,-0.0021261,-1.74311,-0.15882,-0.37149,261.599,0.117677,
2,0,0,1,0,5133.2,0.115946,0.115673,-18.5704,3,0.0135791,10,-0.00214808,-1.73118,-0.17405,-0.338984,245.445,0.115673,
2,0,0,1,0,5133.21,0.113962,0.113685,-19.0471,3,0.0133927,10,-0.00216537,-1.72017,-0.195448,-0.301871,224.017,0.113685,
2,0,0,1,0,5133.22,0.111964,0.111672,-19.4666,3,0.0132,10,-0.00217387,-1.71071,-0.214777,-0.274703,208.63,0.111672,
2,0,0,1,0,5133.23,0.109967,0.109696,-19.8794,3,0.0130032,10,-0.00218068,-1.7016,-0.234026,-0.252109,195.298,0.109696,
2,0,0,1,0,5133.24,0.107969,0.107727,-20.237,3,0.0128026,10,-0.00218007,-1.69385,-0.26843,-0.219797,173.496,0.107727,
2,0,0,1,0,5133.25,0.10598,0.10568,-20.5762,3,0.0126005,10,-0.00217448,-1.68664,-0.300726,-0.196192,157.338,0.10568,
2,0,0,1,0,5133.26,0.103983,0.103742,-20.864,3,0.0123932,10,-0.00216448,-1.6806,-0.330863,-0.178322,145.194,0.1037422,
2,0,0,1,0,5133.27,0.101985,0.101708,-21.1528,3,0.0121831,10,-0.00215141,-1.67463,-0.397865,-0.148292,122.165,0.101708,
2,0,0,1,0,5133.28,0.0999877,0.0997165,-21.3558,3,0.0119706,10,-0.00212952,-1.67048,-0.470508,-0.125396,104.54,0.0997165,
2,0,0,1,0,5133.29,0.0979811,0.0977002,-21.5718,3,0.0117558,10,-0.00210757,-1.66611,-0.577748,-0.102121,85.7986,0.0977002,
2,0,0,1,0,5133.3,0.0959835,0.0956926,-21.701,3,0.0115394,10,-0.00207663,-1.66352,-0.851145,-0.0693184,58.6744,0.0956926,
2,0,0,1,0,5133.31,0.0939859,0.0937032,-21.8063,3,0.0113219,10,-0.00204332,-1.66142,-1.33125,-0.0443193,37.6662,0.0937032,
2,0,0,1,0,5133.32,0.0919883,0.0916625,-21.8528,3,0.0111036,10,-0.00200309,-1.66049,-2.09791,-0.0281233,23.9869,0.0916625,
2,0,0,1,0,5133.33,0.0899816,0.0896662,-21.9031,3,0.0108847,10,-0.00196397,-1.65949,22.1017,0.00266948,-2.27619,0.0896662,
2,0,0,1,0,5133.34,0.087984,0.0877002,-21.8438,3,0.010666,10,-0.00191571,-1.66067,1.67146,0.0352984,-30.091,0.0877002,
2,0,0,1,0,5133.35,0.0859865,0.0856934,-21.7836,3,0.0104478,10,-0.00186671,-1.66187,1.11008,0.0531494,-45.1219,0.0856934,
2,0,0,1,0,5133.36,0.0839889,0.0836953,-21.6631,3,0.0102305,10,-0.0018131,-1.66428,0.781178,0.0755269,-63.8322,0.0836953,
2,0,0,1,0,5133.37,0.0820004,0.0816976,-21.5285,3,0.0100167,10,-0.00175883,-1.66699,0.592582,0.0995642,-83.5224,0.08169765,
2,0,0,1,0,5133.38,0.0800028,0.0796784,-21.3276,3,0.00980243,10,-0.00169935,-1.67106,0.493006,0.119674,-99.611,0.0796784,
2,0,0,1,0,5133.39,0.0780052,0.0776774,-21.1281,3,0.00959015,10,-0.00164117,-1.67514,0.430662,0.136999,-112.814,0.0776774,
2,0,0,1,0,5133.4,0.0760076,0.0756589,-20.8741,3,0.00938017,10,-0.00157931,-1.68039,0.395835,0.149052,-121.502,0.0756589,
2,0,0,1,0,5133.41,0.0740191,0.0737283,-20.6483,3,0.00917473,10,-0.00152236,-1.68512,0.370442,0.159269,-128.172,0.0737283,
2,0,0,1,0,5133.42,0.0720215,0.0717172,-20.3689,3,0.0089697,10,-0.0014608,-1.69103,0.359028,0.164333,-130.733,0.0717172,
2,0,0,1,0,5133.43,0.0700239,0.0697078,-20.1226,3,0.00876728,10,-0.0014027,-1.69631,0.354041,0.166648,-130.756,0.0697078,
2,0,0,1,0,5133.44,0.0680263,0.0676941,-19.8429,3,0.00856752,10,-0.00134325,-1.7024,0.37258,0.158355,-122.827,0.0676941,
2,0,0,1,0,5133.45,0.0660197,0.0656856,-19.6286,3,0.00837023,10,-0.00128932,-1.70711,0.381637,0.154597,-118.296,0.0656856,
2,0,0,1,0,5133.46,0.0640221,0.063717,-19.3724,3,0.00817525,10,-0.00123435,-1.71282,0.374247,0.15765,-119.312,0.063717,
2,0,0,1,0,5133.47,0.0620245,0.061738,-19.1576,3,0.00798261,10,-0.00118275,-1.71766,0.405898,0.145357,-108.651,0.061738,
2,0,0,1,0,5133.48,0.0600269,0.0596921,-18.9351,3,0.00779218,10,-0.00113028,-1.72273,0.447231,0.131923,-97.6088,0.0596921,
2,0,0,1,0,5133.49,0.0580248,0.0576732,-18.7609,3,0.00760373,10,-0.001082,-1.72675,0.451393,0.130706,-95.6153,0.0576732,
2,0,0,1,0,5133.5,0.0560227,0.0557124,-18.5546,3,0.00741715,10,-0.00103372,-1.73155,0.461328,0.127892,-92.7186,0.0557124,
2,0,0,1,0,5133.51,0.0540251,0.0537065,-18.3931,3,0.0072324,10,-0.000987828,-1.73535,0.502735,0.117358,-84.2051,0.0537065,
2,0,0,1,0,5133.52,0.0520275,0.0516954,-18.2163,3,0.00704937,10,-0.000941701,-1.73954,0.498356,0.118389,-84.2048,0.0516954,
2,0,0,1,0,5133.53,0.0500299,0.0497199,-18.0574,3,0.00686799,10,-0.000897811,-1.74335,0.526073,0.112152,-79.0403,0.0497199,
2,0,0,1,0,5133.54,0.0480414,0.0477103,-17.9013,3,0.00669003,10,-0.000854079,-1.74711,0.549422,0.107386,-75.0498,0.0477103,
2,0,0,1,0,5133.55,0.0460438,0.0457419,-17.7588,3,0.00651173,10,-0.000812323,-1.75059,0.523251,0.112757,-78.0888,0.0457419,
2,0,0,1,0,5133.56,0.0440462,0.043725,-17.5901,3,0.006335,10,-0.000769129,-1.75473,0.529422,0.111442,-76.5655,0.043725,
2,0,0,1,0,5133.57,0.0420486,0.0417177,-17.4507,3,0.00615986,10,-0.000728003,-1.75819,0.553041,0.106683,-72.632,0.0417177,
2,0,0,1,0,5133.58,0.0400601,0.0397381,-17.3006,3,0.00598785,10,-0.000687491,-1.76194,0.545572,0.108143,-73.0366,0.0397381,
2,0,0,1,0,5133.59,0.0380625,0.0377443,-17.1605,3,0.00581553,10,-0.000647712,-1.76547,0.493769,0.119489,-79.9376,0.0377443,
2,0,0,1,0,5133.6,0.036065,0.0357809,-16.9842,3,0.00564485,10,-0.000607712,-1.76995,0.487976,0.120908,-80.2172,0.0357809,
2,0,0,1,0,5133.61,0.0340674,0.0337559,-16.8406,3,0.00547572,10,-0.00056847,-1.77364,0.502573,0.117396,-77.1075,0.0337559,
2,0,0,1,0,5133.62,0.0320607,0.0317882,-16.6764,3,0.00530813,10,-0.000530112,-1.7779,0.483005,0.122152,-79.5195,0.0317882,
2,0,0,1,0,5133.63,0.0300631,0.0297433,-16.5215,3,0.00514217,10,-0.000491403,-1.78195,0.441372,0.133674,-86.0931,0.0297433,
2,0,0,1,0,5133.64,0.0280655,0.0277695,-16.3304,3,0.00497793,10,-0.000453486,-1.787,0.417606,0.141282,-90.1021,0.0277695,
2,0,0,1,0,5133.65,0.0260679,0.0257575,-16.1624,3,0.00481545,10,-0.000416302,-1.7915,0.401849,0.146821,-92.5031,0.0257575,
2,0,0,1,0,5133.66,0.0240613,0.023749,-15.9585,3,0.00465488,10,-0.000378998,-1.79701,0.381032,0.154842,-96.4955,0.02374899,
2,0,0,1,0,5133.67,0.0220637,0.0217474,-15.7754,3,0.00449623,10,-0.000343075,-1.80202,0.351296,0.16795,-103.249,0.0217474,
2,0,0,1,0,5133.68,0.0200661,0.0197728,-15.5479,3,0.00433966,10,-0.000307425,-1.80833,0.323851,0.182183,-110.596,0.0197728,
2,0,0,1,0,5133.69,0.0180685,0.0177807,-15.3367,3,0.0041852,10,-0.000272698,-1.81427,0.334227,0.176527,-105.653,0.0177807,
2,0,0,1,0,5133.7,0.01608,0.0157756,-15.1256,3,0.00403448,10,-0.000238616,-1.82029,0.336918,0.175117,-103.39,0.0157756,
2,0,0,1,0,5133.71,0.0140824,0.0137659,-14.9216,3,0.00388428,10,-0.000205409,-1.82618,0.310323,0.190125,-110.573,0.0137659,
2,0,0,1,0,5133.72,0.0120848,0.011753,-14.6808,3,0.00373632,10,-0.000172543,-1.83325,0.296956,0.198683,-113.942,0.011753,
2,0,0,1,0,5133.73,0.0100873,0.00980368,-14.4702,3,0.00359061,10,-0.000141861,-1.83953,0.308298,0.191373,-108.043,0.00980368,
2,0,0,1,0,5133.74,0.00810328,0.0077972,-14.2534,3,0.00344848,10,-0.000111137,-1.84608,0.337822,0.174648,-97.2857,0.0077972,
2,0,0,1,0,5133.75,0.00610116,0.00577307,-14.078,3,0.00330681,10,-8.12735e-05,-1.85146,0.330181,0.17869,-98.0139,0.00577307,
2,0,0,1,0,5133.76,0.00410357,0.00376283,-13.858,3,0.0031672,10,-5.21454e-05,-1.8583,0.399858,0.147552,-80.1479,0.00376283,
2,0,0,1,0,5133.77,0.00210598,0.00179944,-13.7596,3,0.00302938,10,-2.47595e-05,-1.8614,0.433178,0.136203,-72.8789,0.00179944,
2,0,0,1,0,5133.78,0.00010174,-0.000271532,-13.564,3,0.00289283,10,3.68306e-06,-1.86761,0.375298,0.157209,-83.3729,-0.000271532,
2,0,0,1,0,5133.79,-0.00189827,-0.00227657,-13.4197,3,0.00275788,10,3.05509e-05,-1.87226,0.399241,0.14778,-77.3361,-0.00227657,
2,0,0,1,0,5133.8,-0.00389586,-0.00425992,-13.2555,3,0.00262453,10,5.64675e-05,-1.8776,0.455671,0.129479,-67.1342,-0.00425992,
2,0,0,1,0,5133.81,-0.00589345,-0.00626061,-13.1523,3,0.00249247,10,8.23412e-05,-1.881,0.497064,0.118697,-60.8458,-0.00626061,
2,0,0,1,0,5133.82,-0.00789103,-0.0082136,-13.015,3,0.00236165,10,0.0001069,-1.88556,0.592736,0.0995384,-50.6997,-0.0082136,
2,0,0,1,0,5133.83,-0.0098977,-0.010236,-12.9507,3,0.00223177,10,0.000132563,-1.88771,0.802924,0.0734814,-37.1077,-0.010236,
2,0,0,1,0,5133.84,-0.0118953,-0.0122653,-12.8646,3,0.0021027,10,0.000157789,-1.8906,0.784912,0.0751677,-37.7673,-0.0122653,
2,0,0,1,0,5133.85,-0.0138929,-0.0142782,-12.798,3,0.00197435,10,0.000182733,-1.89286,0.884775,0.0666836,-33.3075,-0.0142782,
2,0,0,1,0,5133.86,-0.0158905,-0.0162294,-12.7326,3,0.00184672,10,0.000206642,-1.89508,1.54071,0.0382939,-19.07,-0.0162294,
2,0,0,1,0,5133.87,-0.017879,-0.0182428,-12.7224,3,0.00172068,10,0.000232092,-1.89543,1.96497,0.0300259,-14.8852,-0.0182428,
2,0,0,1,0,5133.88,-0.0198766,-0.0202398,-12.6729,3,0.00159375,10,0.000256496,-1.89712,1.82471,0.0323339,-16.0137,-0.0202398,
2,0,0,1,0,5133.89,-0.0218741,-0.0222551,-12.6582,3,0.00146713,10,0.000281709,-1.89763,3.389,0.0174093,-8.59856,-0.0222551,
2,0,0,1,0,5133.9,-0.0238717,-0.024268,-12.6383,3,0.00134072,10,0.000306705,-1.89831,-465.202,-0.000126827,0.0626542,-0.024268,
2,0,0,1,0,5133.91,-0.0258602,-0.0262251,-12.6584,3,0.00121551,10,0.000331969,-1.89762,69.3496,0.000850763,-0.419596,-0.0262251,
2,0,0,1,0,5133.92,-0.0278578,-0.0282015,-12.6366,3,0.00108908,10,0.000356371,-1.89837,-11.9498,-0.00493732,2.44007,-0.0282015,
2,0,0,1,0,5133.93,-0.0298554,-0.0302239,-12.6682,3,0.000962547,10,0.000382882,-1.89729,-3.93893,-0.0149787,7.3957,-0.0302239,
2,0,0,1,0,5133.94,-0.031853,-0.0322298,-12.6664,3,0.000835895,10,0.000408235,-1.89735,-2.48662,-0.023727,11.7525,-0.0322298,
2,0,0,1,0,5133.95,-0.0338597,-0.0342348,-12.7153,3,0.000708954,10,0.000435307,-1.89567,-1.79565,-0.0328572,16.2839,-0.0342348,
2,0,0,1,0,5133.96,-0.0358573,-0.0362138,-12.7313,3,0.000581737,10,0.000461048,-1.89513,-1.88803,-0.0312496,15.5451,-0.0362138,
2,0,0,1,0,5133.97,-0.0378548,-0.0382241,-12.7773,3,0.000454114,10,0.000488402,-1.89356,-1.71574,-0.0343875,17.1317,-0.0382241,
2,0,0,1,0,5133.98,-0.0398524,-0.0402066,-12.7997,3,0.000326194,10,0.000514631,-1.8928,-1.15574,-0.0510497,25.5586,-0.0402066,
2,0,0,1,0,5133.99,-0.0418591,-0.0422402,-12.88,3,0.000197786,10,0.000544054,-1.89008,-1.09076,-0.0540905,27.1355,-0.0422402,
2,0,0,1,0,5134,-0.0438567,-0.0442487,-12.9094,3,6.88468e-05,10,0.000571223,-1.8891,-1.3372,-0.0441219,22.2546,-0.04424873,
2,0,0,1,0,5134.01,-0.0458543,-0.0462147,-12.9684,3,-6.06313e-05,10,0.000599333,-1.88711,-1.08473,-0.0543912,27.5179,-0.0462147,
2,0,0,1,0,5134.02,-0.0478519,-0.0481911,-13.0179,3,-0.000190584,10,0.000627345,-1.88546,-0.834544,-0.0706973,35.9778,-0.0481911,
2,0,0,1,0,5134.03,-0.0498585,-0.0501832,-13.1112,3,-0.000321218,10,0.000657962,-1.88236,-0.852119,-0.0692392,35.3693,-0.0501832,
2,0,0,1,0,5134.04,-0.051838,-0.0522293,-13.1607,3,-0.000451284,10,0.000687374,-1.88072,-0.944217,-0.0624857,32.1307,-0.0522293,
2,0,0,1,0,5134.05,-0.0538355,-0.0542081,-13.2405,3,-0.000583268,10,0.000717744,-1.87809,-0.843873,-0.0699158,36.1056,-0.0542081,
2,0,0,1,0,5134.06,-0.0558331,-0.0562043,-13.3042,3,-0.000715976,10,0.000747753,-1.87601,-0.795918,-0.0741282,38.5258,-0.0562043,
2,0,0,1,0,5134.07,-0.0578126,-0.0581825,-13.3937,3,-0.000848124,10,0.000779276,-1.8731,-0.790614,-0.0746256,38.9737,-0.0581825,
2,0,0,1,0,5134.08,-0.0598192,-0.060204,-13.4601,3,-0.000982415,10,0.000810351,-1.87095,-0.691309,-0.0853453,44.9089,-0.060204,
2,0,0,1,0,5134.09,-0.0618168,-0.0621735,-13.5729,3,-0.00111756,10,0.000843874,-1.86733,-0.715278,-0.0824854,43.608,-0.0621735,
2,0,0,1,0,5134.1,-0.0638144,-0.0641742,-13.6332,3,-0.00125359,10,0.0008749,-1.8654,-0.750004,-0.0786663,41.9272,-0.06417416,
2,0,0,1,0,5134.11,-0.065812,-0.0661766,-13.7407,3,-0.0013905,10,0.000909315,-1.86199,-0.617615,-0.0955287,51.2072,-0.0661766,
2,0,0,1,0,5134.12,-0.0678187,-0.0681652,-13.8376,3,-0.00152842,10,0.000943241,-1.85894,-0.617905,-0.0954839,51.5904,-0.0681652,
2,0,0,1,0,5134.13,-0.0698163,-0.0702066,-13.9486,3,-0.00166739,10,0.000979287,-1.85547,-0.660245,-0.0893607,48.5977,-0.0702066,
2,0,0,1,0,5134.14,-0.0718138,-0.0721813,-14.0328,3,-0.00180732,10,0.0010129,-1.85286,-0.61109,-0.0965488,52.9532,-0.0721813,
2,0,0,1,0,5134.15,-0.0738114,-0.0741733,-14.1587,3,-0.00194832,10,0.0010502,-1.84898,-0.544252,-0.108406,59.8792,-0.0741733,
2,0,0,1,0,5134.16,-0.0758181,-0.0762217,-14.2747,3,-0.00209054,10,0.00108804,-1.84543,-0.551002,-0.107078,59.6667,-0.0762217,
2,0,0,1,0,5134.17,-0.0778157,-0.078186,-14.3981,3,-0.00223396,10,0.00112573,-1.84169,-0.563439,-0.104714,58.813,-0.078186,
2,0,0,1,0,5134.18,-0.0798133,-0.0802032,-14.5089,3,-0.00237851,10,0.00116366,-1.83837,-0.520858,-0.113275,64.2137,-0.0802032,
2,0,0,1,0,5134.19,-0.0818109,-0.0821648,-14.6536,3,-0.00252438,10,0.00120401,-1.83406,-0.477339,-0.123602,70.6628,-0.0821648,
2,0,0,1,0,5134.2,-0.0837994,-0.0841767,-14.7896,3,-0.00267012,10,0.00124494,-1.83004,-0.485508,-0.121522,70.1572,-0.0841767,
2,0,0,1,0,5134.21,-0.0857969,-0.0861475,-14.933,3,-0.00281872,10,0.00128644,-1.82585,-0.488683,-0.120733,70.343,-0.0861475,
2,0,0,1,0,5134.22,-0.0877945,-0.0881533,-15.0694,3,-0.00296873,10,0.00132841,-1.82191,-0.464371,-0.127054,74.7846,-0.0881533,
2,0,0,1,0,5134.23,-0.0897921,-0.0901471,-15.2321,3,-0.00312025,10,0.00137313,-1.81724,-0.459159,-0.128496,76.33,-0.0901471,
2,0,0,1,0,5134.24,-0.0917806,-0.0921397,-15.3736,3,-0.00327174,10,0.00141652,-1.81322,-0.442715,-0.133269,80.0501,-0.0921397,
2,0,0,1,0,5134.25,-0.0937782,-0.0941335,-15.5512,3,-0.00342636,10,0.00146389,-1.80823,-0.444173,-0.132831,80.5238,-0.0941335,
2,0,0,1,0,5134.26,-0.0957758,-0.0961159,-15.6938,3,-0.00358259,10,0.00150843,-1.80427,-0.473942,-0.124488,76.2932,-0.0961159,
2,0,0,1,0,5134.27,-0.0977734,-0.0981366,-15.8567,3,-0.00374038,10,0.00155612,-1.79979,-0.43348,-0.136108,84.2524,-0.0981366,
2,0,0,1,0,5134.28,-0.0997412,-0.100103,-16.0298,3,-0.00389662,10,0.00160463,-1.79507,0.0982511,0.600502,-363.298,-0.100103,
2,0,0,1,1,5134.28,-0.0996711,-0.100075,-15.1525,3,-0.0039436,10,0.00151638,-1.81952,-0.0122411,-4.81981,2504.2,-0.100075,
2,0,0,1,1,5134.29,-0.0976826,-0.0980636,-10.922,3,-0.00407063,10,0.00107105,-1.9617,-0.0138358,-4.2643,1843.46,-0.0980636,
2,0,0,1,1,5134.3,-0.095685,-0.0960904,-7.80739,3,-0.00416324,10,0.000750215,-2.10749,-0.0127811,-4.61618,1403.09,-0.0960904,
2,0,0,1,1,5134.31,-0.0936874,-0.0940711,-5.32026,3,-0.00422818,10,0.000500483,-2.27407,-0.0105377,-5.59892,1134.58,-0.0940711,
2,0,0,1,1,5134.32,-0.0916898,-0.0920638,-3.23885,3,-0.00427038,10,0.000298181,-2.48961,-0.00738104,-7.99345,948.294,-0.0920638,
2,0,0,1,1,5134.33,-0.0897013,-0.0900722,-1.52808,3,-0.00429357,10,0.000137638,-2.81585,-0.00205628,-28.6926,807.146,-0.0900722,
2,0,0,1,1,5134.34,-0.0877037,-0.0880984,-0.0381904,3,-0.00430098,10,3.36452e-06,-4.41805,-0.0440574,-1.33916,700.337,-0.0880984,
2,1,0,1,1,5134.35,-0.0857062,-0.0861159,1.24265,3,-0.00429465,10,-0.000107012,-2.90565,0.00225466,26.1681,589.945,-0.0861159,
2,1,0,1,1,5134.36,-0.0837086,-0.0840692,2.33879,3,-0.00427642,10,-0.00019662,-2.63101,0.00946591,6.23289,513.293,-0.0840692,
2,1,0,1,1,5134.37,-0.0817019,-0.0820885,3.3099,3,-0.00424798,10,-0.000271704,-2.48019,0.0159709,3.69423,455.327,-0.0820885,
2,1,0,1,1,5134.38,-0.0797043,-0.0800921,4.14967,3,-0.00421046,10,-0.000332356,-2.38199,0.0233754,2.52403,398.95,-0.0800921,
2,1,0,1,1,5134.39,-0.0777067,-0.0781201,4.89309,3,-0.00416514,10,-0.000382249,-2.31042,0.031571,1.8688,351.464,-0.0781201,
2,1,0,1,1,5134.4,-0.0757091,-0.076089,5.55663,3,-0.00411275,10,-0.000422799,-2.25519,0.0409455,1.44094,309.161,-0.076089,
2,1,0,1,1,5134.41,-0.0737025,-0.0740545,6.15002,3,-0.00405409,10,-0.000455437,-2.21112,0.0505174,1.16791,277.951,-0.0740545,
2,1,0,1,1,5134.42,-0.0717049,-0.0720702,6.67365,3,-0.00398978,10,-0.000480972,-2.17564,0.0614787,0.959683,248.057,-0.0720702,
2,1,0,1,1,5134.43,-0.0697073,-0.070145,7.11978,3,-0.00392072,10,-0.000499417,-2.14753,0.0749078,0.787635,218.234,-0.070145,
2,1,0,1,1,5134.44,-0.0677097,-0.0680853,7.5433,3,-0.00384726,10,-0.000513588,-2.12244,0.0881332,0.669441,196.259,-0.0680853,
2,1,0,1,1,5134.45,-0.0657212,-0.0660764,7.91829,3,-0.00377072,10,-0.000523212,-2.10137,0.105963,0.556798,171.285,-0.06607639,
2,1,0,1,1,5134.46,-0.0637236,-0.0640675,8.2315,3,-0.00368992,10,-0.000527371,-2.08452,0.125684,0.469433,150.48,-0.0640675,
2,1,0,1,1,5134.47,-0.061726,-0.0621015,8.51644,3,-0.00360617,10,-0.000528883,-2.06974,0.141633,0.41657,138.202,-0.0621015,
2,1,0,1,1,5134.48,-0.0597284,-0.0601275,8.77601,3,-0.00351962,10,-0.000527679,-2.0567,0.166923,0.353456,120.783,-0.0601275,
2,1,0,1,1,5134.49,-0.0577399,-0.0580975,9.00005,3,-0.00343166,10,-0.00052288,-2.04575,0.196825,0.299759,105.146,-0.0580975,
2,1,0,1,1,5134.5,-0.0557423,-0.0560655,9.20311,3,-0.00334056,10,-0.000515977,-2.03607,0.224042,0.263343,94.4189,-0.0560655,
2,1,0,1,1,5134.51,-0.0537448,-0.0541108,9.37647,3,-0.00324765,10,-0.000507368,-2.02796,0.257351,0.229259,83.8117,-0.0541108,
2,1,0,1,1,5134.52,-0.0517472,-0.052124,9.53345,3,-0.003153,10,-0.000496922,-2.02075,0.293145,0.201265,74.8195,-0.05212399,
2,1,0,1,1,5134.53,-0.049745,-0.0501094,9.67585,3,-0.00305697,10,-0.000484851,-2.01431,0.322158,0.18314,69.1341,-0.0501094,
2,1,0,1,1,5134.54,-0.0477429,-0.0480775,9.81321,3,-0.00295941,10,-0.000471794,-2.00819,0.383232,0.153954,58.8449,-0.0480775,
2,1,0,1,1,5134.55,-0.0457453,-0.046082,9.91285,3,-0.00286077,10,-0.000456804,-2.0038,0.477691,0.123511,47.7601,-0.046082,
2,1,0,1,1,5134.56,-0.0437477,-0.0440856,10.0039,3,-0.00276115,10,-0.000441026,-1.99983,0.525932,0.112182,43.7764,-0.0440856,
2,1,0,1,1,5134.57,-0.0417501,-0.042137,10.0855,3,-0.00266068,10,-0.000424974,-1.9963,0.532079,0.110886,43.6706,-0.042137,
2,1,0,1,1,5134.58,-0.0397435,-0.0400669,10.1794,3,-0.00255926,10,-0.000407855,-1.99228,0.687352,0.0858367,34.0158,-0.0400669,
2,1,0,1,1,5134.59,-0.0377459,-0.0380939,10.2231,3,-0.00245731,10,-0.000389437,-1.99042,0.852385,0.0692176,27.6462,-0.0380939,
2,1,0,1,1,5134.6,-0.0357483,-0.0360889,10.2893,3,-0.00235475,10,-0.000371331,-1.98761,0.919134,0.0641909,25.738,-0.0360889,
2,1,0,1,1,5134.61,-0.0337507,-0.0341333,10.325,3,-0.00225169,10,-0.000352427,-1.98611,1.17236,0.050326,20.2875,-0.0341333,
2,1,0,1,1,5134.62,-0.0317622,-0.0321391,10.3695,3,-0.00214922,10,-0.000333265,-1.98424,1.596,0.0369674,14.9392,-0.0321391,
2,1,0,1,1,5134.63,-0.0297646,-0.0301286,10.3848,3,-0.00204547,10,-0.00031288,-1.9836,1.90525,0.0309671,12.5625,-0.0301286,
2,1,0,1,1,5134.64,-0.027767,-0.0281141,10.42,3,-0.00194142,10,-0.00029295,-1.98213,2.85387,0.0206737,8.39222,-0.0281141,
2,1,0,1,1,5134.65,-0.0257694,-0.0261592,10.4181,3,-0.00183724,10,-0.000272531,-1.98221,2.93815,0.0200807,8.17872,-0.0261592,
2,1,0,1,1,5134.66,-0.0237809,-0.0241541,10.4524,3,-0.00173388,10,-0.000252469,-1.98078,2.48666,0.0237266,9.66497,-0.0241541,
2,1,0,1,1,5134.67,-0.0217833,-0.0221274,10.4571,3,-0.00162933,10,-0.000231389,-1.98059,14.1608,0.00416644,1.70015,-0.0221274,
2,1,0,1,1,5134.68,-0.0197858,-0.0201492,10.4592,3,-0.00152468,10,-0.000210746,-1.9805,736.65,8.00924e-05,0.0326866,-0.0201492,
2,1,0,1,1,5134.69,-0.0177882,-0.0181321,10.4572,3,-0.00142013,10,-0.000189611,-1.98058,7.88098,0.00748638,3.05767,-0.0181321,
2,1,0,1,1,5134.7,-0.0157815,-0.0161071,10.4716,3,-0.00131544,10,-0.000168667,-1.97999,-115.339,-0.000511535,-0.208756,-0.0161071,
2,1,0,1,1,5134.71,-0.0137839,-0.0141151,10.4564,3,-0.00121081,10,-0.000147593,-1.98062,-6.87007,-0.00858797,-3.50736,-0.01411505,
2,1,0,1,1,5134.72,-0.0117863,-0.0121794,10.4578,3,-0.00110623,10,-0.00012737,-1.98056,-9.29967,-0.00634431,-2.58772,-0.01217942,
2,1,0,1,1,5134.73,-0.00978874,-0.0101544,10.4462,3,-0.00100171,10,-0.000106075,-1.98104,38.5809,0.00152926,0.624219,-0.0101544,
2,1,0,1,1,5134.74,-0.00778207,-0.00812857,10.4603,3,-0.000897184,10,-8.50276e-05,-1.98045,-9.7293,-0.00606416,-2.47107,-0.00812857,
2,1,0,1,1,5134.75,-0.00578449,-0.00616518,10.4363,3,-0.000792762,10,-6.43417e-05,-1.98145,-3.57933,-0.0164835,-6.72056,-0.006165178,
2,1,0,1,1,5134.76,-0.0037869,-0.00416014,10.4337,3,-0.000688396,10,-4.34055e-05,-1.98156,-5.25946,-0.0112179,-4.56498,-0.00416014,
2,1,0,1,1,5134.77,-0.00178931,-0.00214035,10.4179,3,-0.000584148,10,-2.22981e-05,-1.98222,-4.24371,-0.0139029,-5.65538,-0.00214035,
2,1,0,1,1,5134.78,-2.55332e-05,-0.000382585,10.4123,3,-0.00049351,10,-3.9836e-06,-1.98245, , , ,-0.000382585,