File: Figure_codes/Fig_3-5/rawdata_trumpetplot_data/after 10th/20221101_1-115_003_TrumpetPlot_ParaChange_from10_every3_09_CV_C01_17.csv
mode,ox/red,error,control changes,counter inc.,time/s,control/V,Ewe/V,<I>/mA,cycle number,(Q-Qo)/C,I Range,P/W,log(|I|),Tafel slope mV/dec,alpha_eff,dI/d(E-IR),E-IR/V,
2,0,0,0,0,34674.7,2.44065e-05,-0.000363498,-5.29514,18,0.0000000E+000,10,1.92477e-06,-2.27612, , , ,-0.000363498,
2,0,0,1,0,34674.8,0.00179726,0.00141951,-2.95608,18,-6.97529e-05,10,-4.19618e-06,-2.52928, , , ,0.00141951,
2,0,0,1,0,34674.8,0.00379485,0.00351247,-1.34647,18,-0.000111198,10,-4.72945e-06,-2.8708,-0.0037924,-15.5574,665.448,0.00351247,
2,0,0,1,0,34674.8,0.00579244,0.00548552,-0.250362,18,-0.000126323,10,-1.37336e-06,-3.60143,-0.0106721,-5.52841,480.064,0.00548552,
2,1,0,1,0,34674.8,0.00779002,0.00750297,0.569221,18,-0.00012257,10,4.27084e-06,-3.24472,0.0057675,10.2297,369.611,0.00750297,
2,1,0,1,0,34674.8,0.00978761,0.00941571,1.20228,18,-0.000104462,10,1.13203e-05,-2.91999,0.00834923,7.06652,283.761,0.009415715,
2,1,0,1,0,34674.9,0.0117852,0.0114429,1.68721,18,-7.52055e-05,10,1.93066e-05,-2.77283,0.0166303,3.54774,222.358,0.0114429,
2,1,0,1,0,34674.9,0.0137828,0.0134136,2.09125,18,-3.71428e-05,10,2.80513e-05,-2.67959,0.0254931,2.31435,183.823,0.0134136,
2,1,0,1,0,34674.9,0.0157804,0.0154729,2.42802,18,8.24713e-06,10,3.75686e-05,-2.61475,0.0360375,1.63719,152.492,0.0154729,
2,1,0,1,0,34674.9,0.017778,0.017462,2.70859,18,5.95624e-05,10,4.72973e-05,-2.56726,0.0479622,1.23014,128.407,0.01746198,
2,1,0,1,0,34674.9,0.0197755,0.0194404,2.93748,18,0.000116121,10,5.71058e-05,-2.53203,0.0617675,0.955195,108.862,0.01944042,
2,1,0,1,0,34675,0.0217731,0.0214496,3.14269,18,0.000177039,10,6.74093e-05,-2.5027,0.0744294,0.792697,96.7678,0.0214496,
2,1,0,1,0,34675,0.0237707,0.0234604,3.32648,18,0.000241855,10,7.80405e-05,-2.47802,0.086223,0.684272,88.5614,0.0234604,
2,1,0,1,0,34675,0.0257683,0.0254408,3.49616,18,0.000309861,10,8.89452e-05,-2.45641,0.0990966,0.595379,80.982,0.0254408,
2,1,0,1,0,34675,0.0277659,0.0274424,3.64895,18,0.000381434,10,0.000100136,-2.43783,0.113029,0.52199,74.1933,0.0274424,
2,1,0,1,0,34675,0.0297635,0.0294257,3.79181,18,0.000455992,10,0.000111577,-2.42115,0.129664,0.455023,67.1453,0.0294257,
2,1,0,1,0,34675.1,0.0317611,0.0314256,3.9164,18,0.000533223,10,0.000123075,-2.40711,0.138319,0.42655,65.2683,0.0314256,
2,1,0,1,0,34675.1,0.0337587,0.0334211,4.05258,18,0.000612693,10,0.000135441,-2.39227,0.140699,0.419334,66.2411,0.0334211,
2,1,0,1,0,34675.1,0.0357562,0.0354323,4.18181,18,0.000695176,10,0.000148171,-2.37864,0.16261,0.362832,59.0342,0.0354323,
2,1,0,1,0,34675.1,0.0377538,0.0374037,4.28769,18,0.000780033,10,0.000160375,-2.36778,0.174866,0.337401,56.5379,0.0374037,
2,1,0,1,0,34675.1,0.0397514,0.0394244,4.40752,18,0.000867137,10,0.000173764,-2.35581,0.169874,0.347317,59.7369,0.0394244,
2,1,0,1,0,34675.2,0.041749,0.0414382,4.5287,18,0.000956169,10,0.000187661,-2.34403,0.183176,0.322094,56.8356,0.0414382,
2,1,0,1,0,34675.2,0.0437466,0.0434662,4.63724,18,0.00104802,10,0.000201563,-2.33374,0.195761,0.301388,54.5333,0.0434662,
2,1,0,1,0,34675.2,0.0457442,0.0454157,4.74561,18,0.00114195,10,0.000215525,-2.32371,0.198295,0.297536,55.1073,0.0454157,
2,1,0,1,0,34675.2,0.0477418,0.0474355,4.85597,18,0.0012381,10,0.000230345,-2.31372,0.200786,0.293845,55.6904,0.0474355,
2,1,0,1,0,34675.2,0.0497484,0.0494188,4.96854,18,0.00133643,10,0.00024554,-2.30377,0.21279,0.277269,53.6857,0.0494188,
2,1,0,1,0,34675.3,0.0517369,0.0513868,5.0681,18,0.00143635,10,0.000260433,-2.29515,0.230169,0.256333,50.7113,0.0513868,
2,1,0,1,0,34675.3,0.0537345,0.0534138,5.17113,18,0.00153885,10,0.00027621,-2.28641,0.23291,0.253317,51.114,0.0534138,
2,1,0,1,0,34675.3,0.0557321,0.0554105,5.27377,18,0.00164346,10,0.000292222,-2.27788,0.244013,0.24179,49.7175,0.0554105,
2,1,0,1,0,34675.3,0.0577206,0.0573648,5.36757,18,0.00174947,10,0.000307909,-2.27022,0.251058,0.235005,49.2677,0.0573648,
2,1,0,1,0,34675.3,0.0597273,0.0594149,5.47106,18,0.00185811,10,0.000325063,-2.26193,0.253409,0.232826,49.6825,0.0594149,
2,1,0,1,0,34675.4,0.0617249,0.061423,5.56919,18,0.00196863,10,0.000342076,-2.25421,0.275451,0.214194,46.502,0.061423,
2,1,0,1,0,34675.4,0.0637225,0.0633864,5.65574,18,0.00208101,10,0.000358497,-2.24751,0.285184,0.206884,45.6931,0.0633864,
2,1,0,1,0,34675.4,0.06572,0.0653871,5.75032,18,0.00219522,10,0.000375997,-2.24031,0.2755,0.214156,48.0723,0.0653871,
2,1,0,1,0,34675.4,0.0677176,0.0674039,5.84887,18,0.00231089,10,0.000394237,-2.23293,0.294972,0.200019,45.5944,0.0674039,
2,1,0,1,0,34675.4,0.0697152,0.0693795,5.93235,18,0.00242889,10,0.000411584,-2.22677,0.323747,0.182241,42.1931,0.0693795,
2,1,0,1,0,34675.5,0.0717128,0.0713832,6.01677,18,0.00254851,10,0.000429496,-2.22064,0.323672,0.182283,42.8109,0.0713832,
2,1,0,1,0,34675.5,0.0737104,0.073394,6.10422,18,0.00266991,10,0.000448013,-2.21437,0.322697,0.182834,43.559,0.073394,
2,1,0,1,0,34675.5,0.075708,0.0754353,6.19327,18,0.00279243,10,0.000467191,-2.20808,0.359144,0.164279,39.6423,0.0754353,
2,1,0,1,0,34675.5,0.0777056,0.0773952,6.26283,18,0.00291712,10,0.000484713,-2.20323,0.373672,0.157893,38.6286,0.0773952,
2,1,0,1,0,34675.5,0.0797031,0.0793608,6.34491,18,0.00304337,10,0.000503537,-2.19757,0.371926,0.158634,39.2609,0.0793608,
2,1,0,1,0,34675.6,0.0817007,0.0814261,6.42109,18,0.00317119,10,0.000522844,-2.19239,0.400294,0.147392,36.9221,0.0814261,
2,1,0,1,0,34675.6,0.0836983,0.0833746,6.49311,18,0.0032998,10,0.000541361,-2.18755,0.424717,0.138916,35.1865,0.0833746,
2,1,0,1,0,34675.6,0.0856959,0.0853705,6.55988,18,0.00343048,10,0.00056002,-2.1831,0.444058,0.132865,34.0228,0.0853705,
2,1,0,1,0,34675.6,0.0876935,0.0874012,6.63011,18,0.00356252,10,0.000579479,-2.17848,0.455939,0.129403,33.4632,0.0874012,
2,1,0,1,0,34675.6,0.0896911,0.0893415,6.69276,18,0.00369586,10,0.000597941,-2.17439,0.419593,0.140613,36.782,0.0893415,
2,1,0,1,0,34675.7,0.0916887,0.091361,6.77576,18,0.00382997,10,0.00061904,-2.16904,0.418285,0.141052,37.2468,0.091361,
2,1,0,1,0,34675.7,0.0936862,0.0932993,6.84018,18,0.00396625,10,0.000638183,-2.16493,0.467716,0.126145,33.6858,0.09329927,
2,1,0,1,0,34675.7,0.0956838,0.0953355,6.90964,18,0.0041039,10,0.000658734,-2.16054,0.440104,0.134059,36.1713,0.0953355,
2,1,0,1,0,34675.7,0.0976814,0.0973735,6.98755,18,0.00424295,10,0.000680402,-2.15568,0.373919,0.157788,43.074,0.0973735,
2,1,0,1,0,34675.7,0.099679,0.0993071,7.08071,18,0.00438299,10,0.000703166,-2.14992,0.379789,0.155349,42.8828,0.09930715,
2,1,0,1,0,34675.8,0.101677,0.10138,7.15935,18,0.00452557,10,0.000725813,-2.14513,0.362534,0.162744,45.5549,0.10138,
2,1,0,1,0,34675.8,0.103674,0.103352,7.26498,18,0.00467001,10,0.00075085,-2.13877,0.291749,0.202229,57.3926,0.103352,
2,1,0,1,0,34675.8,0.105672,0.105323,7.38566,18,0.00481668,10,0.000777879,-2.13161,0.273915,0.215395,62.115,0.105323,
2,1,0,1,0,34675.8,0.107667,0.107374,7.5148,18,0.00496503,10,0.000806895,-2.12408,0.273756,0.21552,63.1815,0.107374,
2,1,0,1,0,34675.8,0.109667,0.109336,7.63918,18,0.00511667,10,0.000835235,-2.11695,0.264248,0.223275,66.6173,0.109336,
2,1,0,1,0,34675.9,0.111665,0.111309,7.77691,18,0.00527096,10,0.000865637,-2.10919,0.258389,0.228338,69.2971,0.111309,
2,1,0,1,0,34675.9,0.113662,0.113317,7.91506,18,0.00542803,10,0.000896908,-2.10155,0.262266,0.224962,69.4881,0.113317,
2,1,0,1,0,34675.9,0.11566,0.115299,8.05418,18,0.00558782,10,0.000928637,-2.09398,0.243912,0.241891,76.1527,0.1152987,
2,1,0,1,0,34675.9,0.117657,0.117328,8.2205,18,0.00575,10,0.000964492,-2.0851,0.24194,0.243862,78.1347,0.117328,
2,1,0,1,0,34675.9,0.119655,0.119309,8.36752,18,0.00591609,10,0.000998321,-2.0774,0.26963,0.218818,71.4246,0.119309,
2,1,0,1,0,34676,0.121652,0.121361,8.5086,18,0.00608495,10,0.00103262,-2.07014,0.293767,0.200839,66.6359,0.121361,
2,1,0,1,0,34676,0.12365,0.123352,8.63692,18,0.00625657,10,0.00106538,-2.06364,0.295956,0.199354,67.2361,0.123352,
2,1,0,1,0,34676,0.125648,0.12535,8.77678,18,0.00643005,10,0.00110017,-2.05666,0.322795,0.182779,62.4965,0.12535,
2,1,0,1,0,34676,0.127645,0.12735,8.8868,18,0.00660684,10,0.00113174,-2.05125,0.373998,0.157755,54.7024,0.12735,
2,1,0,1,0,34676,0.129643,0.129324,8.9942,18,0.0067858,10,0.00116317,-2.04604,0.390785,0.150978,52.9798,0.129324,
2,1,0,1,0,34676.1,0.13164,0.131318,9.09703,18,0.00696688,10,0.00119461,-2.0411,0.439095,0.134367,47.6677,0.131318,
2,1,0,1,0,34676.1,0.133638,0.133361,9.18659,18,0.00714903,10,0.00122513,-2.03685,0.487109,0.121123,43.4108,0.133361,
2,1,0,1,0,34676.1,0.135636,0.135314,9.2705,18,0.00733379,10,0.00125443,-2.0329,0.544356,0.108385,39.1845,0.135314,
2,1,0,1,0,34676.1,0.137633,0.137304,9.34112,18,0.00752009,10,0.00128258,-2.0296,0.645736,0.0913686,33.2949,0.137304,
2,1,0,1,0,34676.1,0.139631,0.139332,9.40426,18,0.00770778,10,0.00131031,-2.02668,0.699335,0.0843659,30.9589,0.139332,
2,1,0,1,0,34676.2,0.141628,0.141294,9.46464,18,0.00789569,10,0.0013373,-2.0239,0.822931,0.071695,26.4605,0.1412939,
2,1,0,1,0,34676.2,0.143626,0.143313,9.5096,18,0.00808561,10,0.00136285,-2.02184,1.37744,0.0428332,15.8746,0.143313,
2,1,0,1,0,34676.2,0.145624,0.145301,9.52826,18,0.00827621,10,0.00138447,-2.02099,8.67358,0.00680227,2.52587,0.145301,
2,1,0,1,0,34676.2,0.147621,0.147308,9.51969,18,0.00846687,10,0.00140232,-2.02138,-2.35474,-0.0250558,-9.29905,0.147308,
2,1,0,1,0,34676.2,0.149619,0.149291,9.49116,18,0.00865617,10,0.00141694,-2.02268,-0.827343,-0.0713127,-26.3474,0.149291,
2,1,0,1,0,34676.3,0.151616,0.151308,9.41429,18,0.00884538,10,0.00142446,-2.02621,-0.410694,-0.143659,-52.6184,0.151308,
2,1,0,1,0,34676.3,0.153614,0.153306,9.27992,18,0.00903249,10,0.00142266,-2.03246,-0.279742,-0.210909,-76.2436,0.153306,
2,1,0,1,0,34676.3,0.155611,0.155259,9.11305,18,0.00921658,10,0.00141488,-2.04034,-0.217713,-0.270999,-96.1101,0.155259,
2,1,0,1,0,34676.3,0.157609,0.157285,8.89748,18,0.0093959,10,0.00139944,-2.05073,-0.165404,-0.356703,-123.376,0.157285,
2,1,0,1,0,34676.3,0.159607,0.159282,8.61673,18,0.00957117,10,0.00137249,-2.06466,-0.132099,-0.446633,-149.891,0.159282,
2,1,0,1,0,34676.4,0.161604,0.161219,8.30778,18,0.00974056,10,0.00133937,-2.08051,-0.118781,-0.496712,-160.696,0.1612189,
2,1,0,1,0,34676.4,0.163602,0.1633,7.971,18,0.00990349,10,0.00130167,-2.09849,-0.108482,-0.54387,-168.974,0.1633,
2,1,0,1,0,34676.4,0.165606,0.165267,7.62381,18,0.0100596,10,0.00125996,-2.11783,-0.101813,-0.579494,-172.341,0.165267,
2,1,0,1,0,34676.4,0.167597,0.167309,7.2802,18,0.010208,10,0.00121804,-2.13786,-0.100444,-0.587393,-166.924,0.167309,
2,1,0,1,0,34676.4,0.169595,0.169305,6.94974,18,0.0103504,10,0.00117662,-2.15803,-0.098044,-0.601771,-163.265,0.169305,
2,1,0,1,0,34676.5,0.171592,0.17127,6.6335,18,0.0104863,10,0.00113612,-2.17826,-0.100276,-0.588377,-152.604,0.17127,
2,1,0,1,0,34676.5,0.173581,0.17323,6.35082,18,0.0106155,10,0.00110015,-2.19717,-0.107319,-0.549764,-136.46,0.17323,
2,1,0,1,0,34676.5,0.175587,0.17522,6.09439,18,0.0107401,10,0.00106786,-2.21507,-0.117459,-0.502303,-119.664,0.1752203,
2,1,0,1,0,34676.5,0.177585,0.177296,5.86421,18,0.0108598,10,0.0010397,-2.23179,-0.123977,-0.475895,-109.034,0.177296,
2,1,0,1,0,34676.5,0.179582,0.179274,5.65243,18,0.010975,10,0.00101333,-2.24776,-0.134277,-0.439391,-97.1938,0.179274,
2,1,0,1,0,34676.6,0.18158,0.18129,5.47605,18,0.0110864,10,0.000992752,-2.26153,-0.149439,-0.394809,-84.4876,0.18129,
2,1,0,1,0,34676.6,0.183578,0.183237,5.31759,18,0.0111939,10,0.000974378,-2.27429,-0.156101,-0.37796,-78.4693,0.183237,
2,1,0,1,0,34676.6,0.185575,0.185235,5.16644,18,0.0112989,10,0.000957007,-2.28681,-0.172619,-0.341794,-69.0737,0.185235,
2,1,0,1,0,34676.6,0.187573,0.187235,5.0414,18,0.0114011,10,0.000943929,-2.29745,-0.1954,-0.301945,-59.4618,0.187235,
2,1,0,1,0,34676.6,0.18957,0.189255,4.92743,18,0.0115008,10,0.00093254,-2.30738,-0.212143,-0.278114,-53.5395,0.189255,
2,1,0,1,0,34676.7,0.191568,0.191265,4.82564,18,0.011598,10,0.000922978,-2.31645,-0.227878,-0.258911,-48.8,0.191265,
2,1,0,1,0,34676.7,0.193566,0.19324,4.73297,18,0.0116937,10,0.000914598,-2.32487,-0.249035,-0.236914,-43.8074,0.1932396,
2,1,0,1,0,34676.7,0.195563,0.195243,4.65137,18,0.0117877,10,0.00090815,-2.33242,-0.260572,-0.226425,-41.092,0.195243,
2,1,0,1,0,34676.7,0.197561,0.197246,4.56834,18,0.01188,10,0.000901087,-2.34024,-0.294927,-0.20005,-35.7592,0.197246,
2,1,0,1,0,34676.7,0.199558,0.199203,4.50979,18,0.0119705,10,0.000898362,-2.34584,-0.330701,-0.178409,-31.375,0.1992027,
2,1,0,1,0,34676.8,0.201556,0.201194,4.44447,18,0.0120601,10,0.000894201,-2.35218,-0.32999,-0.178793,-31.0321,0.201194,
2,1,0,1,0,34676.8,0.203554,0.203211,4.38539,18,0.0121486,10,0.000891162,-2.35799,-0.358031,-0.16479,-28.2163,0.203211,
2,1,0,1,0,34676.8,0.205551,0.205224,4.33077,18,0.0122358,10,0.000888777,-2.36343,-0.476474,-0.123826,-20.9884,0.2052235,
2,1,0,1,0,34676.8,0.207549,0.207225,4.30114,18,0.0123218,10,0.000891306,-2.36642,-0.510672,-0.115534,-19.3502,0.207225,
2,1,0,1,0,34676.8,0.209546,0.209268,4.25251,18,0.0124075,10,0.000889915,-2.37135,-0.419546,-0.140628,-23.3453,0.209268,
2,1,0,1,0,34676.9,0.211544,0.211277,4.20656,18,0.0124922,10,0.000888749,-2.37607,-0.46539,-0.126775,-20.8333,0.2112771,
2,1,0,1,0,34676.9,0.213541,0.213265,4.16925,18,0.0125761,10,0.000889154,-2.37994,-0.589977,-0.100004,-16.2917,0.213265,
2,1,0,1,0,34676.9,0.215539,0.215224,4.14226,18,0.0126589,10,0.000891512,-2.38276,-0.568407,-0.103799,-16.7555,0.2152236,
2,1,0,1,0,34676.9,0.217537,0.217199,4.10332,18,0.0127415,10,0.000891239,-2.38686,-0.547997,-0.107665,-17.2592,0.217199,
2,1,0,1,0,34676.9,0.219534,0.219235,4.07303,18,0.0128234,10,0.00089295,-2.39008,-0.737227,-0.0800297,-12.7355,0.219235,
2,1,0,1,0,34677,0.221532,0.221235,4.05192,18,0.0129049,10,0.000896428,-2.39234,-0.788597,-0.0748164,-11.824,0.221235,
2,1,0,1,0,34677,0.223525,0.223205,4.02608,18,0.0129854,10,0.000898643,-2.39512,-0.780119,-0.0756295,-11.89,0.2232054,
2,1,0,1,0,34677,0.225527,0.225194,4.00485,18,0.0130659,10,0.000901869,-2.39741,-0.80888,-0.0729404,-11.3955,0.225194,
2,1,0,1,0,34677,0.227525,0.22722,3.98033,18,0.0131459,10,0.000904412,-2.40008,-0.737927,-0.0799537,-12.4189,0.22722,
2,1,0,1,0,34677,0.229522,0.229193,3.95519,18,0.0132254,10,0.000906502,-2.40283,-0.904871,-0.0652026,-10.0766,0.229193,
2,1,0,1,0,34677.1,0.23152,0.231266,3.93956,18,0.0133045,10,0.000911088,-2.40455,-1.26892,-0.0464963,-7.15126,0.231266,
2,1,0,1,0,34677.1,0.233517,0.233173,3.92673,18,0.0133831,10,0.000915608,-2.40597,-1.10344,-0.0534689,-8.1871,0.233173,
2,1,0,1,0,34677.1,0.235515,0.235204,3.90732,18,0.0134615,10,0.000919017,-2.40812,-0.99093,-0.05954,-9.08148,0.235204,
2,1,0,1,0,34677.1,0.237512,0.237233,3.88986,18,0.0135396,10,0.000922803,-2.41007,-1.25775,-0.046909,-7.12729,0.237233,
2,1,0,1,0,34677.1,0.23951,0.239168,3.87907,18,0.0136174,10,0.00092775,-2.41127,-1.75164,-0.0336826,-5.1,0.239168,
2,1,0,1,0,34677.2,0.241508,0.241205,3.8696,18,0.0136946,10,0.000933367,-2.41233,-1.3621,-0.0433154,-6.53505,0.241205,
2,1,0,1,0,34677.2,0.243505,0.243213,3.85263,18,0.0137719,10,0.000937012,-2.41424,-1.19685,-0.049296,-7.41637,0.243213,
2,1,0,1,0,34677.2,0.245503,0.245158,3.84029,18,0.013849,10,0.000941475,-2.41564,-1.29874,-0.0454285,-6.80654,0.2451575,
2,1,0,1,0,34677.2,0.2475,0.247173,3.82568,18,0.0139258,10,0.000945605,-2.41729,-1.55131,-0.0380323,-5.68281,0.247173,
2,1,0,1,0,34677.2,0.249498,0.249246,3.81706,18,0.014002,10,0.000951385,-2.41827,-1.37362,-0.0429523,-6.39135,0.249246,
2,1,0,1,0,34677.3,0.251496,0.251205,3.79991,18,0.0140783,10,0.000954557,-2.42023,-1.43091,-0.0412326,-6.12278,0.251205,
2,1,0,1,0,34677.3,0.253493,0.25321,3.79278,18,0.0141544,10,0.000960371,-2.42104,-1.54947,-0.0380776,-5.6302,0.25321,
2,1,0,1,0,34677.3,0.255491,0.255184,3.77751,18,0.0142302,10,0.000963959,-2.42279,-1.59639,-0.0369583,-5.45504,0.2551837,
2,1,0,1,0,34677.3,0.257488,0.257156,3.77126,18,0.0143055,10,0.000969802,-2.42351,-2.14355,-0.0275245,-4.04908,0.257156,
2,1,0,1,0,34677.3,0.259486,0.259182,3.76132,18,0.014381,10,0.000974868,-2.42466,-1.59568,-0.0369748,-5.42626,0.259182,
2,1,0,1,0,34677.4,0.261484,0.261164,3.74951,18,0.0144563,10,0.000979237,-2.42603,-1.74677,-0.0337766,-4.94508,0.261164,
2,1,0,1,0,34677.4,0.263481,0.263189,3.74151,18,0.0145313,10,0.000984722,-2.42695,-2.59041,-0.0227763,-3.32702,0.263189,
2,1,0,1,0,34677.4,0.265479,0.265139,3.73629,18,0.0146059,10,0.000990634,-2.42756,-1.91513,-0.0308073,-4.4877,0.2651386,
2,1,0,1,0,34677.4,0.267476,0.267173,3.72363,18,0.0146807,10,0.000994853,-2.42903,-1.72449,-0.034213,-4.97545,0.267173,
2,1,0,1,0,34677.4,0.269474,0.269151,3.71632,18,0.0147552,10,0.00100025,-2.42989,-2.10546,-0.0280224,-4.06336,0.269151,
2,1,0,1,0,34677.5,0.271471,0.271175,3.70737,18,0.0148296,10,0.00100534,-2.43093,-4.19372,-0.0140687,-2.03824,0.271175,
2,1,0,1,0,34677.5,0.273469,0.273133,3.7082,18,0.0149034,10,0.00101283,-2.43084,-1.52907,-0.0385857,-5.56615,0.273133,
2,1,0,1,0,34677.5,0.275467,0.275152,3.68523,18,0.0149775,10,0.001014,-2.43354,-1.23615,-0.0477289,-6.88129,0.275152,
2,1,0,1,0,34677.5,0.277464,0.277188,3.6803,18,0.0150513,10,0.00102014,-2.43412,-2.02314,-0.0291626,-4.18475,0.277188,
2,1,0,1,0,34677.5,0.279462,0.279135,3.66856,18,0.0151249,10,0.00102402,-2.4355,-2.07467,-0.0284382,-4.07562,0.279135,
2,1,0,1,0,34677.6,0.281464,0.281158,3.66412,18,0.0151984,10,0.0010302,-2.43603,-2.48005,-0.0237898,-3.39964,0.281158,
2,1,0,1,0,34677.6,0.283457,0.283191,3.65477,18,0.0152714,10,0.001035,-2.43714,-2.09036,-0.0282248,-4.02726,0.283191,
2,1,0,1,0,34677.6,0.285455,0.285149,3.64805,18,0.0153446,10,0.00104024,-2.43794,-1.59751,-0.0369324,-5.25298,0.285149,
2,1,0,1,0,34677.6,0.287452,0.287108,3.6342,18,0.0154175,10,0.00104341,-2.43959,-1.45327,-0.040598,-5.76197,0.287108,
2,1,0,1,0,34677.6,0.28945,0.289099,3.62529,18,0.0154903,10,0.00104807,-2.44066,-3.09935,-0.0190363,-2.69591,0.289099,
2,1,0,1,0,34677.6,0.291447,0.291125,3.62337,18,0.0155626,10,0.00105485,-2.44089,-1.60059,-0.0368613,-5.20049,0.291125,
2,1,0,1,0,34677.7,0.293445,0.293048,3.60475,18,0.0156351,10,0.00105637,-2.44312,-1.47179,-0.0400873,-5.65093,0.293048,
2,1,0,1,0,34677.7,0.295442,0.29514,3.60068,18,0.0157074,10,0.0010627,-2.44362,-3.72292,-0.0158478,-2.22668,0.29514,
2,1,0,1,0,34677.7,0.29744,0.297138,3.59565,18,0.0157795,10,0.0010684,-2.44422,-2.03244,-0.0290292,-4.07011,0.297138,
2,1,0,1,0,34677.7,0.299438,0.299113,3.58451,18,0.0158511,10,0.00107217,-2.44557,-0.0343645,-1.71689,-223.2,0.299113,
2,1,0,1,0,34677.7,0.299737,0.299449,3.07986,18,0.0158804,10,0.000922261,-2.51147,0.00355874,16.5789,1418.62,0.299449,
2,1,0,1,0,34677.8,0.29774,0.297445,1.21816,18,0.0159204,10,0.000362335,-2.9143,0.0038789,15.2105,694.981,0.2974447,
2,1,0,1,0,34677.8,0.295742,0.295424,0.28235,18,0.0159344,10,8.34127e-05,-3.54921,0.00643794,9.16442,372.188,0.295424,
2,0,0,1,0,34677.8,0.293745,0.293401,-0.286823,18,0.0159338,10,-8.41542e-05,-3.54239,-0.0108998,-5.41297,234.01,0.293401,
2,0,0,1,0,34677.8,0.291747,0.291385,-0.662635,18,0.015924,10,-0.000193082,-3.17873,-0.00779158,-7.57228,161.658,0.291385,
2,0,0,1,0,34677.8,0.289754,0.289418,-0.930724,18,0.015908,10,-0.000269368,-3.03118,-0.0173574,-3.39913,115.97,0.289418,
2,0,0,1,0,34677.9,0.287752,0.287384,-1.12663,18,0.0158872,10,-0.000323775,-2.94822,-0.0290345,-2.03206,86.9399,0.2873843,
2,0,0,1,0,34677.9,0.285754,0.285396,-1.28038,18,0.0158629,10,-0.000365414,-2.89266,-0.040809,-1.44576,71.2239,0.285396,
2,0,0,1,0,34677.9,0.283757,0.283427,-1.40847,18,0.0158359,10,-0.000399199,-2.85125,-0.0544742,-1.08308,58.9301,0.283427,
2,0,0,1,0,34677.9,0.281759,0.281423,-1.51449,18,0.0158066,10,-0.000426214,-2.81973,-0.0714483,-0.825772,48.4329,0.281423,
2,0,0,1,0,34677.9,0.279761,0.279445,-1.60136,18,0.0157754,10,-0.000447492,-2.79551,-0.0864551,-0.682435,42.5639,0.279445,
2,0,0,1,0,34678,0.277764,0.277422,-1.68482,18,0.0157424,10,-0.000467406,-2.77345,-0.101028,-0.583999,38.2196,0.277422,
2,0,0,1,0,34678,0.275766,0.27543,-1.7548,18,0.0157079,10,-0.000483324,-2.75577,-0.125394,-0.470517,32.0874,0.27543,
2,0,0,1,0,34678,0.273769,0.273473,-1.81154,18,0.015672,10,-0.000495406,-2.74195,-0.130395,-0.452472,32.0964,0.273473,
2,0,0,1,0,34678,0.271771,0.27147,-1.8819,18,0.0156351,10,-0.00051088,-2.7254,-0.135402,-0.43574,31.8891,0.27147,
2,0,0,1,0,34678,0.269774,0.269433,-1.94037,18,0.0155968,10,-0.000522798,-2.71212,-0.171216,-0.344594,26.008,0.269433,
2,0,0,1,0,34678.1,0.267776,0.267434,-1.98686,18,0.0155574,10,-0.000531355,-2.70183,-0.19185,-0.307533,23.8624,0.267434,
2,0,0,1,0,34678.1,0.265778,0.265391,-2.03681,18,0.0155171,10,-0.000540552,-2.69105,-0.188543,-0.312925,24.8636,0.265391,
2,0,0,1,0,34678.1,0.263781,0.263456,-2.08576,18,0.015476,10,-0.000549508,-2.68074,-0.213875,-0.275862,22.4048,0.263456,
2,0,0,1,0,34678.1,0.261783,0.261412,-2.12595,18,0.0154338,10,-0.00055575,-2.67245,-0.246279,-0.239566,19.8732,0.261412,
2,0,0,1,0,34678.1,0.259786,0.259423,-2.16592,18,0.0153908,10,-0.000561889,-2.66436,-0.231515,-0.254843,21.5652,0.259423,
2,0,0,1,0,34678.2,0.257788,0.25746,-2.21119,18,0.015347,10,-0.000569293,-2.65537,-0.252433,-0.233726,20.1162,0.25746,
2,0,0,1,0,34678.2,0.25579,0.255479,-2.24525,18,0.0153026,10,-0.000573615,-2.64874,-0.292948,-0.201401,17.6541,0.255479,
2,0,0,1,0,34678.2,0.253793,0.25349,-2.28127,18,0.0152572,10,-0.000578279,-2.64182,-0.312902,-0.188557,16.7677,0.25349,
2,0,0,1,0,34678.2,0.251795,0.251483,-2.31226,18,0.0152112,10,-0.000581494,-2.63596,-0.314397,-0.187661,16.956,0.2514832,
2,0,0,1,0,34678.2,0.249798,0.24947,-2.34944,18,0.0151645,10,-0.000586115,-2.62903,-0.307944,-0.191593,17.552,0.24947,
2,0,0,1,0,34678.3,0.2478,0.24746,-2.38287,18,0.0151173,10,-0.000589665,-2.6229,-0.349332,-0.168894,15.692,0.2474604,
2,0,0,1,0,34678.3,0.245802,0.24547,-2.4122,18,0.0150693,10,-0.000592123,-2.61759,-0.357872,-0.164863,15.5305,0.24547,
2,0,0,1,0,34678.3,0.243805,0.243461,-2.44498,18,0.0150206,10,-0.000595257,-2.61173,-0.381077,-0.154824,14.7517,0.243461,
2,0,0,1,0,34678.3,0.241807,0.241495,-2.47085,18,0.0149714,10,-0.000596696,-2.60715,-0.37695,-0.156519,15.1184,0.241495,
2,0,0,1,0,34678.3,0.23981,0.239473,-2.50526,18,0.0149218,10,-0.000599944,-2.60115,-0.380908,-0.154893,15.1194,0.239473,
2,0,0,1,0,34678.4,0.237812,0.23747,-2.5317,18,0.0148714,10,-0.000601203,-2.59659,-0.452588,-0.130361,12.8756,0.23747,
2,0,0,1,0,34678.4,0.235815,0.235496,-2.55647,18,0.0148203,10,-0.00060204,-2.59236,-0.4277,-0.137947,13.7778,0.235496,
2,0,0,1,0,34678.4,0.233817,0.233464,-2.58689,18,0.0147688,10,-0.000603946,-2.58722,-0.386979,-0.152463,15.3938,0.233464,
2,0,0,1,0,34678.4,0.231815,0.231498,-2.61802,18,0.0147167,10,-0.000606066,-2.58203,-0.401913,-0.146798,14.9911,0.231498,
2,0,0,1,0,34678.4,0.229822,0.229474,-2.6467,18,0.0146643,10,-0.00060735,-2.57729,-0.524252,-0.112541,11.5996,0.229474,
2,0,0,1,0,34678.5,0.227824,0.227526,-2.6641,18,0.0146111,10,-0.000606151,-2.57445,-0.478066,-0.123414,12.8707,0.227526,
2,0,0,1,0,34678.5,0.225827,0.225495,-2.69792,18,0.0145574,10,-0.000608367,-2.56897,-0.470343,-0.12544,13.1716,0.225495,
2,0,0,1,0,34678.5,0.223829,0.2235,-2.71712,18,0.0145032,10,-0.000607277,-2.56589,-0.507956,-0.116152,12.3404,0.2235,
2,0,0,1,0,34678.5,0.221831,0.221528,-2.74687,18,0.0144487,10,-0.000608509,-2.56116,-0.471928,-0.125019,13.3852,0.221528,
2,0,0,1,0,34678.5,0.219834,0.219566,-2.76978,18,0.0143935,10,-0.000608149,-2.55755,-0.499397,-0.118143,12.7829,0.219566,
2,0,0,1,0,34678.6,0.217836,0.217518,-2.79814,18,0.0143377,10,-0.000608644,-2.55313,-0.541828,-0.108891,11.8723,0.217518,
2,0,0,1,0,34678.6,0.215839,0.215525,-2.81775,18,0.0142815,10,-0.000607297,-2.5501,-0.485195,-0.121601,13.4061,0.215525,
2,0,0,1,0,34678.6,0.213841,0.213511,-2.85185,18,0.0142249,10,-0.000608902,-2.54487,-0.489537,-0.120522,13.3787,0.213511,
2,0,0,1,0,34678.6,0.211843,0.211536,-2.87112,18,0.0141676,10,-0.000607346,-2.54195,-0.622496,-0.0947798,10.6271,0.211536,
2,0,0,1,0,34678.6,0.209846,0.209519,-2.89427,18,0.0141099,10,-0.000606406,-2.53846,-0.592854,-0.0995186,11.2389,0.209519,
2,0,0,1,0,34678.7,0.207848,0.207506,-2.91641,18,0.0140517,10,-0.000605174,-2.53515,-0.419727,-0.140567,16.0551,0.207506,
2,0,0,1,0,34678.7,0.205851,0.205475,-2.9592,18,0.0139931,10,-0.000608042,-2.52883,-0.453325,-0.130149,14.9651,0.205475,
2,0,0,1,0,34678.7,0.203853,0.203501,-2.97635,18,0.0139337,10,-0.00060569,-2.52632,-0.712656,-0.0827889,9.6221,0.203501,
2,0,0,1,0,34678.7,0.201856,0.201547,-2.997,18,0.0138739,10,-0.000604036,-2.52331,-0.592311,-0.0996098,11.6598,0.201547,
2,0,0,1,0,34678.7,0.199858,0.199546,-3.02247,18,0.0138136,10,-0.000603121,-2.51964,-0.451424,-0.130698,15.445,0.1995458,
2,0,0,1,0,34678.8,0.19786,0.197518,-3.05922,18,0.013753,10,-0.000604252,-2.51439,-0.559929,-0.105371,12.5316,0.197518,
2,0,0,1,0,34678.8,0.195863,0.195561,-3.0724,18,0.0136916,10,-0.000600842,-2.51252,-0.613532,-0.0961645,11.5679,0.195561,
2,0,0,1,0,34678.8,0.193865,0.193515,-3.10553,18,0.0136297,10,-0.000600967,-2.50786,-0.512998,-0.11501,13.9145,0.193515,
2,0,0,1,0,34678.8,0.191868,0.191576,-3.12785,18,0.0135672,10,-0.000599222,-2.50475,-0.464881,-0.126914,15.5348,0.191576,
2,0,0,1,0,34678.8,0.18987,0.189528,-3.16747,18,0.0135045,10,-0.000600324,-2.49929,-0.439857,-0.134134,16.5475,0.189528,
2,0,0,1,0,34678.9,0.187872,0.187552,-3.19445,18,0.0134408,10,-0.000599124,-2.4956,-0.515083,-0.114545,14.287,0.187552,
2,0,0,1,0,34678.9,0.185875,0.185527,-3.22463,18,0.0133766,10,-0.000598256,-2.49152,-0.536884,-0.109893,13.8183,0.185527,
2,0,0,1,0,34678.9,0.183877,0.183558,-3.24964,18,0.0133118,10,-0.000596496,-2.48816,-0.422166,-0.139755,17.7812,0.183558,
2,0,0,1,0,34678.9,0.18188,0.181525,-3.2958,18,0.0132467,10,-0.000598268,-2.48204,-0.420719,-0.140236,17.9814,0.181525,
2,0,0,1,0,34678.9,0.179882,0.179554,-3.32162,18,0.0131805,10,-0.000596412,-2.47865,-0.537634,-0.10974,14.2367,0.179554,
2,0,0,1,0,34679,0.177885,0.177532,-3.35263,18,0.0131136,10,-0.000595201,-2.47461,-0.455266,-0.129595,16.9719,0.177532,
2,0,0,1,0,34679,0.175887,0.175529,-3.38995,18,0.0130461,10,-0.000595033,-2.46981,-0.36747,-0.160557,21.2701,0.1755286,
2,0,0,1,0,34679,0.173896,0.173579,-3.43672,18,0.0129782,10,-0.000596543,-2.46386,-0.379034,-0.155659,20.8426,0.173579,
2,0,0,1,0,34679,0.171892,0.171578,-3.47229,18,0.012909,10,-0.000595768,-2.45938,-0.41405,-0.142495,19.3282,0.171578,
2,0,0,1,0,34679,0.169894,0.169541,-3.51476,18,0.0128391,10,-0.000595898,-2.4541,-0.362601,-0.162713,22.3335,0.1695414,
2,0,0,1,0,34679.1,0.167897,0.167558,-3.56207,18,0.0127683,10,-0.000596853,-2.4483,-0.320501,-0.184087,25.6125,0.167558,
2,0,0,1,0,34679.1,0.165899,0.165596,-3.61583,18,0.0126964,10,-0.000598765,-2.44179,-0.312955,-0.188526,26.5962,0.165596,
2,0,0,1,0,34679.1,0.163901,0.163572,-3.66808,18,0.0126238,10,-0.000599995,-2.43556,-0.301634,-0.195601,28.0292,0.163572,
2,0,0,1,0,34679.1,0.161904,0.161583,-3.72829,18,0.0125497,10,-0.000602429,-2.42849,-0.275949,-0.213808,31.1233,0.161583,
2,0,0,1,0,34679.1,0.159906,0.159576,-3.79244,18,0.0124744,10,-0.000605184,-2.42108,-0.262029,-0.225166,33.3465,0.159576,
2,0,0,1,0,34679.2,0.157909,0.157574,-3.86199,18,0.0123977,10,-0.000608548,-2.41319,-0.231968,-0.254346,38.4041,0.157574,
2,0,0,1,0,34679.2,0.155911,0.155567,-3.94642,18,0.0123199,10,-0.000613932,-2.4038,-0.205192,-0.287536,44.3365,0.155567,
2,0,0,1,0,34679.2,0.153913,0.153529,-4.04132,18,0.0122399,10,-0.00062046,-2.39348,-0.200562,-0.294174,46.3578,0.153529,
2,0,0,1,0,34679.2,0.151916,0.15159,-4.13079,18,0.0121581,10,-0.000626185,-2.38397,-0.183426,-0.321656,52.0042,0.15159,
2,0,0,1,0,34679.2,0.149918,0.149598,-4.24574,18,0.0120742,10,-0.000635155,-2.37205,-0.155995,-0.378217,62.8024,0.149598,
2,0,0,1,0,34679.3,0.147921,0.147604,-4.38111,18,0.0119883,10,-0.000646669,-2.35842,-0.148038,-0.398546,68.1385,0.147604,
2,0,0,1,0,34679.3,0.145923,0.145593,-4.51864,18,0.0118992,10,-0.000657883,-2.34499,-0.140256,-0.42066,74.3444,0.145593,
2,0,0,1,0,34679.3,0.143926,0.143595,-4.67914,18,0.0118072,10,-0.000671902,-2.32983,-0.124366,-0.474406,86.8207,0.143595,
2,0,0,1,0,34679.3,0.141928,0.141613,-4.86423,18,0.0117116,10,-0.000688836,-2.31299,-0.112975,-0.52224,99.3836,0.141613,
2,0,0,1,0,34679.3,0.13993,0.139575,-5.0787,18,0.0116126,10,-0.000708858,-2.29425,-0.108021,-0.546192,108.247,0.139575,
2,0,0,1,0,34679.4,0.137933,0.137603,-5.29824,18,0.0115089,10,-0.000729054,-2.27587,-0.10613,-0.555921,115.118,0.137603,
2,0,0,1,0,34679.4,0.135935,0.135568,-5.53998,18,0.0114004,10,-0.000751043,-2.25649,-0.103169,-0.571877,123.699,0.135568,
2,0,0,1,0,34679.4,0.133938,0.133595,-5.79401,18,0.011287,10,-0.000774052,-2.23702,-0.0994518,-0.593252,134.287,0.1335952,
2,0,0,1,0,34679.4,0.13194,0.131635,-6.06812,18,0.0111691,10,-0.000798776,-2.21695,-0.100522,-0.586934,138.999,0.131635,
2,0,0,1,0,34679.4,0.129942,0.129589,-6.3509,18,0.0110448,10,-0.000823006,-2.19716,-0.103812,-0.568333,140.763,0.129589,
2,0,0,1,0,34679.5,0.127945,0.127622,-6.63293,18,0.010915,10,-0.00084651,-2.17829,-0.108032,-0.546136,141.196,0.127622,
2,0,0,1,0,34679.5,0.125947,0.125657,-6.90603,18,0.0107795,10,-0.000867792,-2.16077,-0.114477,-0.515387,138.932,0.125657,
2,0,0,1,0,34679.5,0.12395,0.123619,-7.18905,18,0.0106392,10,-0.000888707,-2.14333,-0.120973,-0.487711,136.587,0.123619,
2,0,0,1,0,34679.5,0.121952,0.121653,-7.453,18,0.0104927,10,-0.000906677,-2.12767,-0.132526,-0.445195,129.308,0.121653,
2,0,0,1,0,34679.5,0.119955,0.119656,-7.70159,18,0.010341,10,-0.00092154,-2.11342,-0.143659,-0.410695,123.36,0.119656,
2,0,0,1,0,34679.6,0.117957,0.117663,-7.94511,18,0.0101845,10,-0.000934849,-2.0999,-0.153978,-0.383171,118.687,0.117663,
2,0,0,1,0,34679.6,0.115955,0.115651,-8.17686,18,0.0100232,10,-0.000945666,-2.08741,-0.171259,-0.344508,109.759,0.1156514,
2,0,0,1,0,34679.6,0.113962,0.113648,-8.38589,18,0.00985815,10,-0.000953035,-2.07645,-0.189874,-0.310732,101.601,0.113648,
2,0,0,1,0,34679.6,0.111964,0.111657,-8.58265,18,0.00968829,10,-0.000958317,-2.06638,-0.207202,-0.284746,95.3128,0.111657,
2,0,0,1,0,34679.6,0.109967,0.10961,-8.77074,18,0.00951466,10,-0.000961359,-2.05696,-0.231554,-0.254801,87.0704,0.10961,
2,0,0,1,0,34679.7,0.107969,0.107649,-8.93169,18,0.00933753,10,-0.000961485,-2.04907,-0.25545,-0.230965,80.4809,0.107649,
2,0,0,1,0,34679.7,0.105971,0.105664,-9.0883,18,0.0091581,10,-0.000960306,-2.04152,-0.292123,-0.20197,71.5203,0.105664,
2,0,0,1,0,34679.7,0.103974,0.103659,-9.21701,18,0.00897492,10,-0.00095543,-2.03541,-0.351775,-0.167721,60.2817,0.103659,
2,0,0,1,0,34679.7,0.101976,0.101626,-9.33174,18,0.00878931,10,-0.000948344,-2.03004,-0.448065,-0.131677,47.8618,0.101626,
2,0,0,1,0,34679.7,0.0999786,0.0996124,-9.41071,18,0.00860185,10,-0.000937423,-2.02638,-0.541839,-0.108888,39.9906,0.0996124,
2,0,0,1,0,34679.8,0.0979811,0.097676,-9.48969,18,0.00841365,10,-0.000926915,-2.02275,-0.705124,-0.0836733,30.9305,0.097676,
2,0,0,1,0,34679.8,0.0959835,0.0956486,-9.53331,18,0.00822337,10,-0.000911848,-2.02076,-1.55555,-0.0379287,14.0886,0.0956486,
2,0,0,1,0,34679.8,0.0939859,0.0936826,-9.54595,18,0.00803249,10,-0.000894289,-2.02018,-5.84656,-0.0100914,3.7575,0.0936826,
2,0,0,1,0,34679.8,0.0919883,0.0916689,-9.54826,18,0.00784142,10,-0.000875279,-2.02008,10.7622,0.00548215,-2.04149,0.0916689,
2,0,0,1,0,34679.8,0.0899907,0.089648,-9.53771,18,0.00765132,10,-0.000855036,-2.02056,1.61247,0.0365898,-13.5959,0.089648,
2,0,0,1,0,34679.9,0.0879931,0.0876659,-9.49384,18,0.00746086,10,-0.000832286,-2.02256,0.919689,0.0641521,-23.7606,0.0876659,
2,0,0,1,0,34679.9,0.0859955,0.0856674,-9.44313,18,0.00727145,10,-0.000808968,-2.02488,0.717309,0.0822518,-30.2811,0.0856674,
2,0,0,1,0,34679.9,0.083998,0.0836732,-9.37293,18,0.00708319,10,-0.000784263,-2.02812,0.602569,0.0979142,-35.8123,0.0836732,
2,0,0,1,0,34679.9,0.0820004,0.0816945,-9.30085,18,0.00689722,10,-0.000759829,-2.03148,0.55265,0.106758,-38.7293,0.0816945,
2,0,0,1,0,34679.9,0.0800028,0.0796875,-9.21857,18,0.00671191,10,-0.000734604,-2.03534,0.542869,0.108682,-39.1161,0.0796875,
2,0,0,1,0,34680,0.0780052,0.0776854,-9.14403,18,0.00652813,10,-0.000710357,-2.03886,0.544288,0.108398,-38.6684,0.0776854,
2,0,0,1,0,34680,0.0760076,0.0756605,-9.06285,18,0.00634596,10,-0.0006857,-2.04274,0.571522,0.103233,-36.5454,0.0756605,
2,0,0,1,0,34680,0.07401,0.0736931,-8.99813,18,0.00616625,10,-0.0006631,-2.04585,0.579766,0.101765,-35.7093,0.0736931,
2,0,0,1,0,34680,0.0720124,0.071659,-8.91996,18,0.00598706,10,-0.000639196,-2.04964,0.583345,0.101141,-35.2366,0.071659,
2,0,0,1,0,34680,0.0700148,0.0696648,-8.85619,18,0.00580922,10,-0.000616965,-2.05275,0.614774,0.0959703,-33.162,0.0696648,
2,0,0,1,0,34680.1,0.0680173,0.0676915,-8.78839,18,0.00563274,10,-0.000594899,-2.05609,0.706974,0.0834543,-28.6575,0.06769146,
2,0,0,1,0,34680.1,0.0660106,0.0656721,-8.74177,18,0.00545745,10,-0.00057409,-2.0584,0.812638,0.072603,-24.7611,0.0656721,
2,0,0,1,0,34680.1,0.0640221,0.0636927,-8.68938,18,0.00528392,10,-0.00055345,-2.06101,0.721564,0.0817669,-27.7194,0.0636927,
2,0,0,1,0,34680.1,0.0620245,0.0616906,-8.6314,18,0.00511064,10,-0.000532476,-2.06392,0.74655,0.0790302,-26.6358,0.0616906,
2,0,0,1,0,34680.1,0.0600269,0.0596873,-8.58269,18,0.00493842,10,-0.000512277,-2.06638,0.866891,0.0680593,-22.8054,0.0596873,
2,0,0,1,0,34680.2,0.0580361,0.0577097,-8.54061,18,0.00476798,10,-0.000492876,-2.06851,0.814243,0.07246,-24.1351,0.0577097,
2,0,0,1,0,34680.2,0.0560317,0.0557159,-8.48684,18,0.00459755,10,-0.000472852,-2.07125,0.795054,0.0742088,-24.5926,0.0557159,
2,0,0,1,0,34680.2,0.0540342,0.0537248,-8.44262,18,0.00442819,10,-0.000453577,-2.07352,0.829623,0.0711166,-23.4231,0.0537248,
2,0,0,1,0,34680.2,0.0520366,0.0516703,-8.39208,18,0.00425975,10,-0.000433621,-2.07613,0.746272,0.0790596,-25.8894,0.0516703,
2,0,0,1,0,34680.2,0.050039,0.0497312,-8.33922,18,0.00409232,10,-0.000414719,-2.07887,0.760832,0.0775466,-25.2448,0.0497312,
2,0,0,1,0,34680.3,0.0480414,0.0476735,-8.29118,18,0.00392672,10,-0.000395269,-2.08138,0.783416,0.0753112,-24.3664,0.0476735,
2,0,0,1,0,34680.3,0.0460438,0.0457203,-8.24149,18,0.00376127,10,-0.000376804,-2.08399,0.718545,0.0821103,-26.4,0.0457203,
2,0,0,1,0,34680.3,0.0440462,0.0436817,-8.1858,18,0.00359688,10,-0.00035757,-2.08694,0.668787,0.0882194,-28.1803,0.0436817,
2,0,0,1,0,34680.3,0.0420486,0.0417178,-8.1287,18,0.00343371,10,-0.000339112,-2.08998,0.743388,0.0793663,-25.1997,0.0417178,
2,0,0,1,0,34680.3,0.040051,0.0397138,-8.08581,18,0.00327227,10,-0.000321118,-2.09228,0.720305,0.0819097,-25.8174,0.0397138,
2,0,0,1,0,34680.4,0.0380535,0.0376676,-8.02413,18,0.00311113,10,-0.00030225,-2.0956,0.572334,0.103087,-32.2702,0.03766755,
2,0,0,1,0,34680.4,0.0360559,0.0357163,-7.95681,18,0.0029513,10,-0.000284188,-2.09926,0.569398,0.103618,-32.1917,0.0357163,
2,0,0,1,0,34680.4,0.0340583,0.0337295,-7.89736,18,0.00279273,10,-0.000266374,-2.10252,0.580706,0.1016,-31.2997,0.03372949,
2,0,0,1,0,34680.4,0.0320607,0.0316941,-7.83091,18,0.00263612,10,-0.000248193,-2.10619,0.520465,0.11336,-34.6285,0.0316941,
2,0,0,1,0,34680.4,0.0300631,0.0296924,-7.75756,18,0.00248017,10,-0.000230341,-2.11027,0.499861,0.118033,-35.7468,0.0296924,
2,0,0,1,0,34680.5,0.0280655,0.027748,-7.68985,18,0.00232564,10,-0.000213378,-2.11408,0.489551,0.120519,-36.152,0.02774797,
2,0,0,1,0,34680.5,0.0260679,0.0257592,-7.61537,18,0.0021725,10,-0.000196165,-2.11831,0.469275,0.125726,-37.3622,0.0257592,
2,0,0,1,0,34680.5,0.0240704,0.0237303,-7.53975,18,0.00202168,10,-0.000178921,-2.12264,0.456397,0.129273,-38.0328,0.0237303,
2,0,0,1,0,34680.5,0.0220728,0.0217309,-7.46216,18,0.00187162,10,-0.00016216,-2.12714,0.432521,0.136409,-39.7141,0.0217309,
2,0,0,1,0,34680.5,0.0200752,0.0197263,-7.38073,18,0.00172312,10,-0.000145595,-2.1319,0.405072,0.145653,-41.9437,0.0197263,
2,0,0,1,0,34680.6,0.0180776,0.0177682,-7.29595,18,0.00157622,10,-0.000129636,-2.13692,0.454953,0.129684,-36.9795,0.0177682,
2,0,0,1,0,34680.6,0.01608,0.0157279,-7.23287,18,0.00143166,10,-0.000113758,-2.14069,0.49987,0.118031,-33.2956,0.0157279,
2,0,0,1,0,34680.6,0.0140824,0.0137092,-7.16081,18,0.00128768,10,-9.81693e-05,-2.14504,0.432024,0.136566,-38.1402,0.0137092,
2,0,0,1,0,34680.6,0.0120848,0.0117159,-7.07985,18,0.00114528,10,-8.29466e-05,-2.14998,0.410984,0.143558,-39.6796,0.0117159,
2,0,0,1,0,34680.6,0.0100872,0.00976813,-7.00443,18,0.00100445,10,-6.84202e-05,-2.15463,0.494192,0.119387,-32.6832,0.00976813,
2,0,0,1,0,34680.7,0.00809193,0.00773733,-6.94982,18,0.000865625,10,-5.37731e-05,-2.15803,0.521149,0.113211,-30.677,0.007737333,
2,0,0,1,0,34680.7,0.00609208,0.00578826,-6.88233,18,0.000727244,10,-3.98367e-05,-2.16226,0.477014,0.123686,-33.2276,0.00578826,
2,0,0,1,0,34680.7,0.00409449,0.00376327,-6.81777,18,0.000590193,10,-2.56571e-05,-2.16636,0.952279,0.0619566,-16.559,0.00376327,
2,0,0,1,0,34680.7,0.0020969,0.00168188,-6.81434,18,0.000454182,10,-1.14609e-05,-2.16658,0.850243,0.0693919,-18.3634,0.00168188,
2,0,0,1,0,34680.7,9.14991e-05,-0.00025765,-6.74393,18,0.000318649,10,1.73758e-06,-2.17109,0.510986,0.115463,-30.4311,-0.00025765,
2,0,0,1,0,34680.8,-0.00189827,-0.00232202,-6.69249,18,0.000184832,10,1.55401e-05,-2.17441,0.651182,0.0906045,-23.679,-0.00232202,
2,0,0,1,0,34680.8,-0.00389586,-0.00425275,-6.64933,18,5.13305e-05,10,2.82779e-05,-2.17722,0.922335,0.0639681,-16.6247,-0.00425275,
2,0,0,1,0,34680.8,-0.00589345,-0.00631003,-6.62619,18,-8.14602e-05,10,4.18115e-05,-2.17874,0.947692,0.0622565,-16.077,-0.00631003,
2,0,0,1,0,34680.8,-0.00789103,-0.00827727,-6.58463,18,-0.000213553,10,5.45028e-05,-2.18147,1.11451,0.0529383,-13.6343,-0.00827727,
2,0,0,1,0,34680.8,-0.00988862,-0.0102455,-6.57254,18,-0.000344556,10,6.73391e-05,-2.18227,1.85158,0.0318647,-8.1681,-0.0102455,
2,0,0,1,0,34680.9,-0.0118862,-0.0122931,-6.55183,18,-0.000475856,10,8.05422e-05,-2.18364,1.42335,0.0414514,-10.5983,-0.0122931,
2,0,0,1,0,34680.9,-0.0138838,-0.0142309,-6.5303,18,-0.000606829,10,9.29319e-05,-2.18507,2.6303,0.0224309,-5.72562,-0.0142309,
2,0,0,1,0,34680.9,-0.0158814,-0.0162455,-6.5292,18,-0.000737491,10,0.00010607,-2.18514,-9.11531,-0.00647263,1.65043,-0.0162455,
2,0,0,1,0,34680.9,-0.017879,-0.0182313,-6.5369,18,-0.000867579,10,0.000119176,-2.18463,-13.4447,-0.00438834,1.11859,-0.0182313,
2,0,0,1,0,34680.9,-0.0198766,-0.020238,-6.53367,18,-0.000998308,10,0.000132228,-2.18484,42.9138,0.00137485,-0.350706,-0.020238,
2,0,0,1,0,34681,-0.0218741,-0.0222923,-6.53548,18,-0.001129,10,0.000145691,-2.18472,-4.58099,-0.0128793,3.28737,-0.0222923,
2,0,0,1,0,34681,-0.0238717,-0.024221,-6.54676,18,-0.0012599,10,0.000158569,-2.18397,-1.64551,-0.0358552,9.17058,-0.024221,
2,0,0,1,0,34681,-0.0258693,-0.0262516,-6.57178,18,-0.00139051,10,0.00017252,-2.18232,-1.7694,-0.0333446,8.54195,-0.0262516,
2,0,0,1,0,34681,-0.0278669,-0.0282583,-6.58125,18,-0.00152206,10,0.000185975,-2.18169,-1.72928,-0.0341183,8.77392,-0.0282583,
2,0,0,1,0,34681,-0.0298645,-0.0302616,-6.60697,18,-0.00165397,10,0.000199938,-2.18,-1.28137,-0.0460443,11.8684,-0.0302616,
2,0,0,1,0,34681.1,-0.0318621,-0.0322185,-6.62825,18,-0.00178638,10,0.000213552,-2.1786,-1.13148,-0.052144,13.4999,-0.0322185,
2,0,0,1,0,34681.1,-0.0338597,-0.0342427,-6.66071,18,-0.00191866,10,0.000228081,-2.17648,-1.05855,-0.0557369,14.4814,-0.0342427,
2,0,0,1,0,34681.1,-0.0358573,-0.0362502,-6.68663,18,-0.00205223,10,0.000242391,-2.17479,-0.926273,-0.0636961,16.6404,-0.0362502,
2,0,0,1,0,34681.1,-0.0378548,-0.0382523,-6.72743,18,-0.0021865,10,0.00025734,-2.17215,-0.909473,-0.0648728,17.0152,-0.0382523,
2,0,0,1,0,34681.1,-0.0398524,-0.0402535,-6.75475,18,-0.00232139,10,0.000271902,-2.17039,-0.795626,-0.0741554,19.5816,-0.0402535,
2,0,0,1,0,34681.2,-0.04185,-0.0422138,-6.80501,18,-0.00245634,10,0.000287265,-2.16717,-0.708256,-0.0833033,22.104,-0.0422138,
2,0,0,1,0,34681.2,-0.0438476,-0.0442661,-6.84344,18,-0.00259288,10,0.000302932,-2.16473,-0.846874,-0.069668,18.6036,-0.0442661,
2,0,0,1,0,34681.2,-0.0458452,-0.0462247,-6.87962,18,-0.00273023,10,0.000318009,-2.16244,-0.734555,-0.0803207,21.5852,-0.0462247,
2,0,0,1,0,34681.2,-0.0478428,-0.0482146,-6.92867,18,-0.00286843,10,0.000334063,-2.15935,-0.569459,-0.103607,28.0443,-0.0482146,
2,0,0,1,0,34681.2,-0.0498495,-0.0502356,-6.99211,18,-0.00300764,10,0.000351253,-2.15539,-0.59848,-0.0985831,26.8634,-0.0502356,
2,0,0,1,0,34681.3,-0.051838,-0.052213,-7.03608,18,-0.0031473,10,0.000367375,-2.15267,-0.678435,-0.0869649,23.8917,-0.052213,
2,0,0,1,0,34681.3,-0.0538355,-0.0542097,-7.08705,18,-0.00328857,10,0.000384187,-2.14953,-0.609877,-0.0967409,26.7672,-0.0542097,
2,0,0,1,0,34681.3,-0.0558331,-0.0562313,-7.14364,18,-0.00343097,10,0.000401696,-2.14608,-0.546365,-0.107986,30.12,-0.0562313,
2,0,0,1,0,34681.3,-0.0578216,-0.0581998,-7.20724,18,-0.00357381,10,0.00041946,-2.14223,-0.535592,-0.110159,30.9764,-0.0581998,
2,0,0,1,0,34681.3,-0.0598283,-0.06022,-7.2672,18,-0.00371863,10,0.000437631,-2.13863,-0.526007,-0.112166,31.8281,-0.06022,
2,0,0,1,0,34681.4,-0.0618259,-0.0622099,-7.33487,18,-0.00386467,10,0.000456302,-2.13461,-0.494799,-0.11924,34.1342,-0.0622099,
2,0,0,1,0,34681.4,-0.0638235,-0.0642076,-7.40331,18,-0.00401209,10,0.000475349,-2.13057,-0.509585,-0.115781,33.4462,-0.0642076,
2,0,0,1,0,34681.4,-0.0658211,-0.0662343,-7.46947,18,-0.00416083,10,0.000494735,-2.12671,-0.491613,-0.120013,35.002,-0.0662343,
2,0,0,1,0,34681.4,-0.0678187,-0.0682082,-7.54334,18,-0.00431034,10,0.000514517,-2.12244,-0.450723,-0.130901,38.5483,-0.0682082,
2,0,0,1,0,34681.4,-0.0698162,-0.0702024,-7.62243,18,-0.00446211,10,0.000535113,-2.11791,-0.460614,-0.12809,38.0866,-0.0702024,
2,0,0,1,0,34681.5,-0.0718138,-0.0721899,-7.69499,18,-0.00461539,10,0.000555501,-2.11379,-0.427227,-0.1381,41.526,-0.0721899,
2,0,0,1,0,34681.5,-0.0738114,-0.074185,-7.78782,18,-0.00477026,10,0.000577739,-2.10858,-0.391032,-0.150883,45.8461,-0.074185,
2,0,0,1,0,34681.5,-0.075809,-0.0761636,-7.87717,18,-0.0049262,10,0.000599954,-2.10363,-0.426444,-0.138353,42.5131,-0.0761636,
2,0,0,1,0,34681.5,-0.0778066,-0.078232,-7.95987,18,-0.00508469,10,0.000622716,-2.09909,-0.416504,-0.141655,44.0322,-0.078232,
2,0,0,1,0,34681.5,-0.0798042,-0.0801581,-8.05305,18,-0.00524488,10,0.000645517,-2.09404,-0.377329,-0.156362,49.1643,-0.0801581,
2,0,0,1,0,34681.6,-0.0818018,-0.0821844,-8.15418,18,-0.00540701,10,0.000670146,-2.08862,-0.374199,-0.15767,50.1729,-0.0821844,
2,0,0,1,0,34681.6,-0.0837994,-0.0841876,-8.25522,18,-0.00557037,10,0.000694987,-2.08327,-0.380974,-0.154866,49.8796,-0.08418756,
2,0,0,1,0,34681.6,-0.0857969,-0.0861556,-8.35227,18,-0.00573645,10,0.000719595,-2.0782,-0.376674,-0.156634,51.0814,-0.0861556,
2,0,0,1,0,34681.6,-0.0877945,-0.0881598,-8.45813,18,-0.00590462,10,0.000745667,-2.07273,-0.373493,-0.157968,52.1329,-0.0881598,
2,0,0,1,0,34681.6,-0.0897921,-0.0901623,-8.56115,18,-0.00607487,10,0.000771893,-2.06747,-0.376695,-0.156625,52.3397,-0.0901623,
2,0,0,1,0,34681.7,-0.0917897,-0.0921679,-8.66791,18,-0.00624633,10,0.000798903,-2.06209,-0.374238,-0.157654,53.3245,-0.0921679,
2,0,0,1,0,34681.7,-0.0937873,-0.0941413,-8.77332,18,-0.00642079,10,0.000825932,-2.05684,-0.389603,-0.151436,51.8381,-0.0941413,
2,0,0,1,0,34681.7,-0.0957849,-0.0961658,-8.87516,18,-0.00659734,10,0.000853487,-2.05182,-0.401248,-0.147041,50.9269,-0.0961658,
2,0,0,1,0,34681.7,-0.0977825,-0.098131,-8.97651,18,-0.00677592,10,0.000880873,-2.04689,-0.385944,-0.152872,53.5806,-0.098131,
2,0,0,1,0,34681.7,-0.0997501,-0.100125,-9.08731,18,-0.00695296,10,0.00090987,-2.04156,0.00978033,6.03252,-1884.22,-0.100125,
2,0,0,1,1,34681.7,-0.0987313,-0.0991252,-7.1031,18,-0.00707631,10,0.000704096,-2.14855,-0.0123653,-4.77142,1296.41,-0.0991252,
2,0,0,1,1,34681.8,-0.0967337,-0.0971245,-5.19706,18,-0.00719769,10,0.000504762,-2.28424,-0.0146073,-4.03907,830.837,-0.0971245,
2,0,0,1,1,34681.8,-0.0947362,-0.0951308,-3.78435,18,-0.0072866,10,0.000360008,-2.42201,-0.0137615,-4.28731,632.304,-0.0951308,
2,0,0,1,1,34681.8,-0.0927386,-0.0930897,-2.64584,18,-0.00735022,10,0.000246301,-2.57744,-0.0116185,-5.07811,516.921,-0.0930897,
2,0,0,1,1,34681.8,-0.090741,-0.0911092,-1.70552,18,-0.00739298,10,0.000155389,-2.76814,-0.00862112,-6.84366,435.011,-0.0911092,
2,0,0,1,1,34681.8,-0.0887434,-0.0891067,-0.913176,18,-0.00741872,10,8.13701e-05,-3.03945,-0.00456021,-12.938,368.795,-0.0891067,
2,0,0,1,1,34681.9,-0.0867458,-0.0870934,-0.224513,18,-0.00742968,10,1.95536e-05,-3.64876,-0.010172,-5.80022,318.476,-0.0870934,
2,1,0,1,1,34681.9,-0.0847482,-0.0850855,0.367481,18,-0.00742787,10,-3.12673e-05,-3.43477,0.00664144,8.88362,280.461,-0.0850855,
2,1,0,1,1,34681.9,-0.0827529,-0.0831339,0.885964,18,-0.00741511,10,-7.36537e-05,-3.05258,0.00706158,8.35508,245.432,-0.0831339,
2,1,0,1,1,34681.9,-0.080753,-0.0811111,1.34292,18,-0.0073925,10,-0.000108925,-2.87195,0.0135311,4.36031,215.719,-0.0811111,
2,1,0,1,1,34681.9,-0.0787555,-0.0791477,1.74586,18,-0.00736131,10,-0.000138181,-2.75799,0.0202507,2.91348,192.621,-0.0791477,
2,1,0,1,1,34682,-0.0767579,-0.0771722,2.10164,18,-0.0073225,10,-0.000162188,-2.67744,0.0278821,2.11605,171.021,-0.0771722,
2,1,0,1,1,34682,-0.0747603,-0.0751242,2.43397,18,-0.00727686,10,-0.00018285,-2.61368,0.0354153,1.66595,156.146,-0.0751242,
2,1,0,1,1,34682,-0.0727627,-0.0731551,2.72889,18,-0.00722516,10,-0.000199632,-2.56401,0.0453893,1.29987,136.884,-0.0731551,
2,1,0,1,1,34682,-0.0707651,-0.0711273,2.98109,18,-0.00716776,10,-0.000212037,-2.52563,0.0568957,1.03699,120.006,-0.0711273,
2,1,0,1,1,34682,-0.0687675,-0.0691048,3.21495,18,-0.00710555,10,-0.000222168,-2.49283,0.065772,0.897038,112.05,-0.0691048,
2,1,0,1,1,34682.1,-0.0667699,-0.0671144,3.43073,18,-0.00703883,10,-0.000230252,-2.46461,0.0761012,0.775283,103.358,-0.0671144,
2,1,0,1,1,34682.1,-0.0647723,-0.0651346,3.6253,18,-0.00696837,10,-0.000236133,-2.44066,0.0916773,0.643562,90.6405,-0.0651346,
2,1,0,1,1,34682.1,-0.0627748,-0.0631174,3.79302,18,-0.00689397,10,-0.000239406,-2.42101,0.106197,0.555571,82.1042,-0.0631174,
2,1,0,1,1,34682.1,-0.0607772,-0.0611454,3.95284,18,-0.00681629,10,-0.000241698,-2.40309,0.121001,0.487598,74.9759,-0.0611454,
2,1,0,1,1,34682.1,-0.0587796,-0.0591468,4.09072,18,-0.00673563,10,-0.000241953,-2.3882,0.143823,0.410228,65.3735,-0.0591468,
2,1,0,1,1,34682.2,-0.056782,-0.0571101,4.21663,18,-0.00665273,10,-0.000240813,-2.37503,0.159032,0.370994,60.9788,-0.0571101,
2,1,0,1,1,34682.2,-0.0547844,-0.0551429,4.33487,18,-0.00656699,10,-0.000239037,-2.36302,0.182284,0.323671,54.6226,-0.0551429,
2,1,0,1,1,34682.2,-0.0527868,-0.0531387,4.43356,18,-0.00647909,10,-0.000235594,-2.35325,0.219624,0.268641,46.4045,-0.0531387,
2,1,0,1,1,34682.2,-0.0507892,-0.0511827,4.51865,18,-0.00638933,10,-0.000231276,-2.34499,0.227855,0.258936,45.7246,-0.0511827,
2,1,0,1,1,34682.2,-0.0487916,-0.0491238,4.61714,18,-0.00629824,10,-0.000226812,-2.33563,0.252229,0.233914,42.0237,-0.0491238,
2,1,0,1,1,34682.3,-0.046794,-0.0471261,4.68912,18,-0.00620499,10,-0.00022098,-2.32891,0.329524,0.179046,32.7148,-0.0471261,
2,1,0,1,1,34682.3,-0.0447965,-0.0451506,4.74713,18,-0.00611045,10,-0.000214336,-2.32357,0.361128,0.163377,30.2767,-0.0451506,
2,1,0,1,1,34682.3,-0.0427989,-0.043189,4.80832,18,-0.0060147,10,-0.000207666,-2.31801,0.364025,0.162077,30.406,-0.043189,
2,1,0,1,1,34682.3,-0.0408013,-0.041195,4.8674,18,-0.00591824,10,-0.000200513,-2.3127,0.4616,0.127816,24.2266,-0.041195,
2,1,0,1,1,34682.3,-0.0388037,-0.0391801,4.90544,18,-0.00582028,10,-0.000192196,-2.30932,0.601486,0.0980904,18.7779,-0.0391801,
2,1,0,1,1,34682.4,-0.0368061,-0.0371585,4.9432,18,-0.00572157,10,-0.000183682,-2.30599,0.578665,0.101959,19.6771,-0.0371585,
2,1,0,1,1,34682.4,-0.0348085,-0.035141,4.98492,18,-0.0056221,10,-0.000175175,-2.30234,0.618143,0.0954472,18.5501,-0.035141,
2,1,0,1,1,34682.4,-0.0328109,-0.0331933,5.01675,18,-0.00552243,10,-0.000166522,-2.29958,0.876959,0.067278,13.158,-0.0331933,
2,1,0,1,1,34682.4,-0.0308134,-0.0311184,5.03785,18,-0.00542174,10,-0.00015677,-2.29775,1.0053,0.058689,11.5438,-0.0311184,
2,1,0,1,1,34682.4,-0.0288158,-0.0291624,5.06328,18,-0.00532057,10,-0.000147657,-2.29557,1.09008,0.0541247,10.6854,-0.0291624,
2,1,0,1,1,34682.5,-0.0268182,-0.0272237,5.07947,18,-0.00521901,10,-0.000138282,-2.29418,1.49288,0.039521,7.83355,-0.0272237,
2,1,0,1,1,34682.5,-0.0248138,-0.0251775,5.0945,18,-0.0051172,10,-0.000128267,-2.2929,1.64653,0.035833,7.12335,-0.0251775,
2,1,0,1,1,34682.5,-0.022823,-0.0232114,5.10805,18,-0.00501552,10,-0.000118565,-2.29175,2.68588,0.0219667,4.37497,-0.02321144,
2,1,0,1,1,34682.5,-0.0208254,-0.0211786,5.11199,18,-0.00491315,10,-0.000108265,-2.29141,5.96763,0.00988668,1.97245,-0.0211786,
2,1,0,1,1,34682.5,-0.0188278,-0.0191878,5.11598,18,-0.00481072,10,-9.81642e-05,-2.29107,5.75961,0.0102438,2.04531,-0.0191878,
2,1,0,1,1,34682.6,-0.0168393,-0.0172016,5.12013,18,-0.00470868,10,-8.80742e-05,-2.29072,3.49969,0.0168587,3.37046,-0.0172016,
2,1,0,1,1,34682.6,-0.0148327,-0.0151722,5.12952,18,-0.00460592,10,-7.78262e-05,-2.28992,6.20229,0.00951262,1.90225,-0.0151722,
2,1,0,1,1,34682.6,-0.0128351,-0.0132084,5.12773,18,-0.00450318,10,-6.77291e-05,-2.29008,-30.4312,-0.0019388,-0.388068,-0.0132084,
2,1,0,1,1,34682.6,-0.0108375,-0.011186,5.12797,18,-0.00440046,10,-5.73615e-05,-2.29005,12.9885,0.00454249,0.90936,-0.011186,
2,1,0,1,1,34682.6,-0.00883989,-0.00921785,5.13135,18,-0.00429769,10,-4.73001e-05,-2.28977,37.5022,0.00157324,0.314889,-0.00921785,
2,1,0,1,1,34682.7,-0.0068423,-0.00718722,5.12923,18,-0.00419534,10,-3.68649e-05,-2.28995,27.2094,0.00216837,0.434313,-0.007187217,
2,1,0,1,1,34682.7,-0.00484471,-0.00519425,5.1331,18,-0.00409253,10,-2.66626e-05,-2.28962,16.5597,0.00356287,0.713404,-0.00519425,
2,1,0,1,1,34682.7,-0.00284713,-0.00324319,5.13204,18,-0.00398974,10,-1.66442e-05,-2.28971,-9.85683,-0.0059857,-1.19855,-0.00324319,
2,1,0,1,1,34682.7,-0.000849538,-0.00122575,5.12834,18,-0.00388695,10,-6.28606e-06,-2.29002, , , ,-0.00122575,
2,1,0,1,1,34682.7,-2.55332e-05,-0.000268062,5.15232,18,-0.00384535,10,-1.38114e-06,-2.288, , , ,-0.000268062,