File: Figure_codes/Fig_3-5/rawdata_trumpetplot_data/after 10th/20221101_1-115_003_TrumpetPlot_ParaChange_from10_every3_11_CV_C01_10.csv
mode,ox/red,error,control changes,counter inc.,time/s,control/V,Ewe/V,<I>/mA,cycle number,(Q-Qo)/C,I Range,P/W,log(|I|),Tafel slope mV/dec,alpha_eff,dI/d(E-IR),E-IR/V,
2,1,0,1,0,20895.8,2.44065e-05,-0.000401673,9.72221,11,0.0000000E+000,10,-3.90515e-06,-2.01223, , , ,-0.000401673,
2,1,0,1,0,20895.8,0.00214129,0.00178595,10.9281,11,5.32333e-05,10,1.9517e-05,-1.96146, , , ,0.00178595,
2,1,0,1,0,20895.8,0.00454949,0.00420155,11.9149,11,0.000122023,10,5.0061e-05,-1.92391,0.0739478,0.797861,363.416,0.00420155,
2,1,0,1,0,20895.8,0.0069466,0.00656414,12.6581,11,0.000195851,10,8.30895e-05,-1.89763,0.0968446,0.609223,298.37,0.00656414,
2,1,0,1,0,20895.8,0.0093437,0.00900731,13.3208,11,0.000273892,10,0.000119985,-1.87547,0.115482,0.510901,264.006,0.00900731,
2,1,0,1,0,20895.9,0.0117408,0.0113985,13.9119,11,0.000355708,10,0.000158576,-1.85661,0.136098,0.433512,234.253,0.01139853,
2,1,0,1,0,20895.9,0.0141462,0.0137484,14.4455,11,0.000440873,10,0.000198602,-1.84027,0.156771,0.376346,211.372,0.0137484,
2,1,0,1,0,20895.9,0.0165433,0.0162552,14.9258,11,0.000529058,10,0.000242622,-1.82606,0.179564,0.328573,190.767,0.0162552,
2,1,0,1,0,20895.9,0.0189404,0.0185955,15.3585,11,0.000619986,10,0.0002856,-1.81365,0.201728,0.292473,174.931,0.0185955,
2,1,0,1,0,20895.9,0.0213486,0.0209941,15.7718,11,0.000713432,10,0.000331115,-1.80212,0.225127,0.262074,160.92,0.0209941,
2,1,0,1,0,20895.9,0.0237457,0.0233843,16.1414,11,0.000809209,10,0.000377456,-1.79206,0.244704,0.241108,151.668,0.0233843,
2,1,0,1,0,20895.9,0.0261429,0.0258211,16.4886,11,0.000907136,10,0.000425754,-1.78282,0.26162,0.225518,145.035,0.02582112,
2,1,0,1,0,20895.9,0.02854,0.0281869,16.8287,11,0.00100715,10,0.000474348,-1.77395,0.284073,0.207693,136.199,0.0281869,
2,1,0,1,0,20895.9,0.0309482,0.0306173,17.1521,11,0.00110914,10,0.000525151,-1.76568,0.302578,0.194991,130.375,0.03061734,
2,1,0,1,0,20895.9,0.0333453,0.0329926,17.4482,11,0.00121294,10,0.000575662,-1.75825,0.32265,0.182861,124.472,0.03299265,
2,1,0,1,0,20895.9,0.0357424,0.035404,17.748,11,0.00131858,10,0.00062835,-1.75085,0.335155,0.176038,121.818,0.035404,
2,1,0,1,0,20895.9,0.0381478,0.037792,18.0256,11,0.00142595,10,0.000681225,-1.74411,0.351423,0.167889,118.129,0.037792,
2,1,0,1,0,20895.9,0.0405449,0.0402077,18.3105,11,0.001535,10,0.000736223,-1.7373,0.366613,0.160933,114.987,0.0402077,
2,1,0,1,0,20895.9,0.042942,0.0426137,18.5946,11,0.00164578,10,0.000792384,-1.73061,0.368196,0.160241,116.226,0.0426137,
2,1,0,1,0,20895.9,0.0453391,0.0449986,18.8589,11,0.00175815,10,0.000848626,-1.72448,0.389359,0.151531,111.572,0.0449986,
2,1,0,1,0,20895.9,0.0477473,0.0474142,19.1378,11,0.00187219,10,0.000907402,-1.71811,0.389689,0.151403,113.017,0.0474142,
2,1,0,1,0,20895.9,0.0501444,0.0498033,19.4088,11,0.00198785,10,0.00096662,-1.712,0.401984,0.146772,111.135,0.0498033,
2,1,0,1,0,20896,0.0525415,0.0521807,19.675,11,0.00210512,10,0.00102666,-1.70608,0.397687,0.148358,113.956,0.0521807,
2,1,0,1,0,20896,0.0549469,0.0546006,19.9597,11,0.00222403,10,0.00108981,-1.69985,0.398968,0.147882,115.139,0.0546006,
2,1,0,1,0,20896,0.057344,0.0570193,20.2169,11,0.00234459,10,0.00115275,-1.69429,0.406162,0.145262,114.671,0.0570193,
2,1,0,1,0,20896,0.0597411,0.0593586,20.4999,11,0.0024668,10,0.00121684,-1.68825,0.405939,0.145342,116.269,0.0593586,
2,1,0,1,0,20896,0.0621438,0.0618622,20.7771,11,0.00259065,10,0.00128532,-1.68242,0.423427,0.139339,112.966,0.0618622,
2,1,0,1,0,20896,0.0645465,0.064194,21.0481,11,0.00271617,10,0.00135116,-1.67679,0.412062,0.143182,117.65,0.064194,
2,1,0,1,0,20896,0.0669436,0.0665556,21.3434,11,0.00284336,10,0.00142052,-1.67074,0.421616,0.139938,116.464,0.0665556,
2,1,0,1,0,20896,0.0693407,0.0690104,21.6183,11,0.00297227,10,0.00149189,-1.66518,0.419274,0.140719,118.744,0.0690104,
2,1,0,1,0,20896,0.0717489,0.0713486,21.9036,11,0.00310283,10,0.00156279,-1.65948,0.413729,0.142605,121.946,0.0713486,
2,1,0,1,0,20896,0.074146,0.0737833,22.2061,11,0.00323518,10,0.00163844,-1.65353,0.421754,0.139892,121.154,0.0737833,
2,1,0,1,0,20896,0.0765431,0.0761957,22.4851,11,0.0033693,10,0.00171327,-1.6481,0.430828,0.136946,120.181,0.0761957,
2,1,0,1,0,20896,0.0789485,0.0785668,22.7727,11,0.00350507,10,0.00178918,-1.64258,0.442572,0.133312,118.483,0.0785668,
2,1,0,1,0,20896,0.0813456,0.0809951,23.0616,11,0.0036426,10,0.00186788,-1.63711,0.436983,0.135017,121.465,0.0809951,
2,1,0,1,0,20896,0.0837427,0.083398,23.3445,11,0.00378186,10,0.00194689,-1.63181,0.45094,0.130838,119.143,0.083398,
2,1,0,1,0,20896,0.0861398,0.0857839,23.6155,11,0.00392279,10,0.00202583,-1.6268,0.47471,0.124286,114.55,0.0857839,
2,1,0,1,0,20896,0.088548,0.0881136,23.8902,11,0.00406536,10,0.00210506,-1.62178,0.461747,0.127776,119.233,0.0881136,
2,1,0,1,0,20896.1,0.0909451,0.0906045,24.1988,11,0.00420963,10,0.00219252,-1.61621,0.459128,0.128504,121.324,0.0906045,
2,1,0,1,0,20896.1,0.0933422,0.0929586,24.4875,11,0.00435574,10,0.00227632,-1.61106,0.46913,0.125765,120.178,0.0929586,
2,1,0,1,0,20896.1,0.0957477,0.0954071,24.7857,11,0.00450356,10,0.00236474,-1.6058,0.480471,0.122796,118.755,0.0954071,
2,1,0,1,0,20896.1,0.0981447,0.0977771,25.0711,11,0.00465316,10,0.00245138,-1.60083,0.487922,0.120921,118.231,0.0977771,
2,1,0,1,0,20896.1,0.100542,0.100181,25.3504,11,0.00480446,10,0.00253963,-1.59601,0.504478,0.116953,115.688,0.100181,
2,1,0,1,0,20896.1,0.102939,0.102602,25.6124,11,0.00495736,10,0.00262788,-1.59155,0.506067,0.116585,116.606,0.102602,
2,1,0,1,0,20896.1,0.105347,0.10501,25.9043,11,0.00511196,10,0.00272022,-1.58663,0.503182,0.117254,118.507,0.10501,
2,1,0,1,0,20896.1,0.107744,0.107374,26.1836,11,0.00526828,10,0.00281143,-1.58197,0.518691,0.113748,116.204,0.107374,
2,1,0,1,0,20896.1,0.110141,0.109775,26.4518,11,0.00542622,10,0.00290373,-1.57755,0.513584,0.114879,118.684,0.109775,
2,1,0,1,0,20896.1,0.11255,0.112244,26.7505,11,0.00558585,10,0.00300259,-1.57267,0.499242,0.118179,123.403,0.112244,
2,1,0,1,0,20896.1,0.114947,0.114606,27.0453,11,0.00574728,10,0.00309955,-1.56791,0.495739,0.119014,125.648,0.114606,
2,1,0,1,0,20896.1,0.117344,0.117005,27.3544,11,0.00591051,10,0.00320061,-1.56297,0.483876,0.121932,130.204,0.117005,
2,1,0,1,0,20896.1,0.119744,0.119385,27.6671,11,0.00607558,10,0.00330304,-1.55804,0.472877,0.124768,134.807,0.119385,
2,1,0,1,0,20896.1,0.122146,0.121794,27.9998,11,0.00624262,10,0.00341021,-1.55285,0.451321,0.130727,142.87,0.121794,
2,1,0,1,0,20896.1,0.124543,0.124208,28.344,11,0.00641169,10,0.00352054,-1.54754,0.456092,0.12936,143.093,0.124208,
2,1,0,1,0,20896.1,0.126941,0.126584,28.6846,11,0.00658283,10,0.00363101,-1.54235,0.434242,0.135869,152.218,0.126584,
2,1,0,1,0,20896.1,0.129349,0.128992,29.0624,11,0.00675608,10,0.00374882,-1.53667,0.423474,0.139324,158.084,0.1289923,
2,1,0,1,0,20896.2,0.131746,0.131399,29.4459,11,0.00693166,10,0.00386917,-1.53098,0.425789,0.138566,159.184,0.131399,
2,1,0,1,0,20896.2,0.134143,0.133792,29.8201,11,0.00710952,10,0.00398968,-1.52549,0.425316,0.13872,161.545,0.1337917,
2,1,0,1,0,20896.2,0.13654,0.136159,30.2097,11,0.00728964,10,0.00411331,-1.51985,0.41858,0.140953,166.263,0.136159,
2,1,0,1,0,20896.2,0.138945,0.138585,30.6316,11,0.00747224,10,0.00424507,-1.51383,0.424394,0.139022,166.083,0.138585,
2,1,0,1,0,20896.2,0.141343,0.14103,31.0169,11,0.00765722,10,0.00437431,-1.5084,0.439772,0.13416,162.387,0.14103,
2,1,0,1,0,20896.2,0.14374,0.143404,31.4106,11,0.00784453,10,0.00450442,-1.50292,0.440008,0.134089,164.353,0.143404,
2,1,0,1,0,20896.2,0.146148,0.145791,31.8183,11,0.00803425,10,0.00463884,-1.49732,0.44921,0.131342,162.971,0.145791,
2,1,0,1,0,20896.2,0.148545,0.148227,32.1948,11,0.0082263,10,0.00477213,-1.49221,0.477834,0.123474,155.045,0.148227,
2,1,0,1,0,20896.2,0.150942,0.15061,32.5534,11,0.00842059,10,0.00490286,-1.4874,0.49013,0.120376,152.909,0.15061,
2,1,0,1,0,20896.2,0.153345,0.152968,32.9095,11,0.00861701,10,0.00503411,-1.48268,0.51063,0.115544,148.382,0.152968,
2,1,0,1,0,20896.2,0.155747,0.155379,33.2663,11,0.0088156,10,0.0051689,-1.478,0.54941,0.107388,139.27,0.155379,
2,1,0,1,0,20896.2,0.158144,0.157762,33.5874,11,0.00901621,10,0.00529883,-1.47382,0.607135,0.0971777,127.305,0.157762,
2,1,0,1,0,20896.2,0.160542,0.160227,33.8774,11,0.00921863,10,0.00542805,-1.47009,0.641494,0.0919728,121.576,0.160227,
2,1,0,1,0,20896.2,0.162947,0.162619,34.1759,11,0.00942286,10,0.00555764,-1.46628,0.712787,0.0827737,110.254,0.162619,
2,1,0,1,0,20896.2,0.165344,0.16499,34.4155,11,0.0096287,10,0.00567822,-1.46325,0.864054,0.0682828,91.6376,0.1649899,
2,1,0,1,0,20896.2,0.167741,0.167386,34.6202,11,0.00983584,10,0.00579495,-1.46067,0.997045,0.0591748,79.9102,0.167386,
2,1,0,1,0,20896.2,0.170149,0.169836,34.8177,11,0.0100442,10,0.0059133,-1.4582,1.32618,0.0444888,60.3313,0.169836,
2,1,0,1,0,20896.3,0.172547,0.172218,34.9223,11,0.0102534,10,0.00601424,-1.4569,2.36391,0.0249587,33.9499,0.172218,
2,1,0,1,0,20896.3,0.174944,0.174588,34.9631,11,0.0104631,10,0.00610413,-1.45639,19.3426,0.00305025,4.15518,0.174588,
2,1,0,1,0,20896.3,0.177341,0.176999,34.9404,11,0.0106728,10,0.00618441,-1.45667,-3.30139,-0.0178713,-24.3203,0.176999,
2,1,0,1,0,20896.3,0.179746,0.179435,34.8484,11,0.0108822,10,0.00625302,-1.45782,-1.31709,-0.0447959,-60.7557,0.179435,
2,1,0,1,0,20896.3,0.182143,0.181832,34.6472,11,0.0110907,10,0.00629998,-1.46033,-0.778856,-0.0757521,-102.167,0.181832,
2,1,0,1,0,20896.3,0.18454,0.184211,34.3497,11,0.0112977,10,0.0063276,-1.46408,-0.562815,-0.10483,-140.233,0.184211,
2,1,0,1,0,20896.3,0.186949,0.186619,33.9846,11,0.0115027,10,0.00634218,-1.46872,-0.431697,-0.13667,-180.709,0.186619,
2,1,0,1,0,20896.3,0.189346,0.188995,33.4955,11,0.0117052,10,0.00633049,-1.47501,-0.341608,-0.172713,-225.123,0.188995,
2,1,0,1,0,20896.3,0.191743,0.191384,32.9038,11,0.0119043,10,0.00629728,-1.48275,-0.290695,-0.202962,-260.149,0.191384,
2,1,0,1,0,20896.3,0.19414,0.193769,32.2513,11,0.0120998,10,0.00624931,-1.49145,-0.253843,-0.232427,-291.785,0.193769,
2,1,0,1,0,20896.3,0.196548,0.196213,31.5191,11,0.012291,10,0.00618445,-1.50143,-0.227681,-0.259135,-317.911,0.196213,
2,1,0,1,0,20896.3,0.198945,0.198628,30.7031,11,0.0124776,10,0.00609849,-1.51282,-0.206473,-0.285752,-341.875,0.198628,
2,1,0,1,0,20896.3,0.201342,0.200993,29.8493,11,0.0126592,10,0.0059995,-1.52507,-0.191636,-0.307875,-358.199,0.200993,
2,1,0,1,0,20896.3,0.203748,0.203441,28.9807,11,0.0128356,10,0.00589588,-1.53789,-0.18183,-0.324479,-366.508,0.203441,
2,1,0,1,0,20896.3,0.206145,0.205812,28.077,11,0.0130067,10,0.0057786,-1.55165,-0.173273,-0.340503,-373.123,0.205812,
2,1,0,1,0,20896.3,0.208542,0.208221,27.2001,11,0.0131725,10,0.00566362,-1.56543,-0.174443,-0.33822,-359.131,0.208221,
2,1,0,1,0,20896.4,0.210939,0.210648,26.3345,11,0.013333,10,0.0055473,-1.57948,-0.1723,-0.342425,-352.092,0.210648,
2,1,0,1,0,20896.4,0.213347,0.213022,25.5119,11,0.0134884,10,0.00543459,-1.59326,-0.173055,-0.340933,-339.474,0.213022,
2,1,0,1,0,20896.4,0.215744,0.215404,24.6975,11,0.0136389,10,0.00531993,-1.60735,-0.175839,-0.335534,-323.833,0.215404,
2,1,0,1,0,20896.4,0.218141,0.217796,23.9434,11,0.0137847,10,0.00521477,-1.62081,-0.18318,-0.322088,-301.42,0.217796,
2,1,0,1,0,20896.4,0.220547,0.220232,23.2528,11,0.0139263,10,0.00512101,-1.63352,-0.187809,-0.314149,-285.184,0.220232,
2,1,0,1,0,20896.4,0.222944,0.222622,22.5785,11,0.0140637,10,0.00502647,-1.6463,-0.193053,-0.305615,-269.721,0.222622,
2,1,0,1,0,20896.4,0.225341,0.225007,21.9559,11,0.0141972,10,0.00494023,-1.65845,-0.206459,-0.285771,-245.336,0.2250068,
2,1,0,1,0,20896.4,0.227744,0.227419,21.3999,11,0.0143271,10,0.00486676,-1.66959,-0.217182,-0.271662,-227.075,0.227419,
2,1,0,1,0,20896.4,0.230146,0.229887,20.8645,11,0.0144539,10,0.00479648,-1.68059,-0.226159,-0.260878,-212.736,0.229887,
2,1,0,1,0,20896.4,0.232543,0.232244,20.3801,11,0.0145776,10,0.00473316,-1.69079,-0.241667,-0.244137,-194.471,0.232244,
2,1,0,1,0,20896.4,0.234941,0.234657,19.9412,11,0.0146984,10,0.00467933,-1.70025,-0.260345,-0.226623,-176.563,0.234657,
2,1,0,1,0,20896.4,0.237349,0.236981,19.5262,11,0.0148168,10,0.00462733,-1.70938,-0.271214,-0.21754,-165.939,0.236981,
2,1,0,1,0,20896.4,0.239746,0.239432,19.1434,11,0.0149328,10,0.00458352,-1.71798,-0.286923,-0.20563,-153.862,0.239432,
2,1,0,1,0,20896.4,0.242143,0.24178,18.7922,11,0.0150465,10,0.00454359,-1.72602,-0.31136,-0.189491,-139.201,0.24178,
2,1,0,1,0,20896.4,0.244548,0.244243,18.481,11,0.0151583,10,0.00451385,-1.73327,-0.326035,-0.180962,-130.579,0.244243,
2,1,0,1,0,20896.4,0.246946,0.246602,18.1746,11,0.0152682,10,0.0044819,-1.74053,-0.344636,-0.171195,-121.5,0.246602,
2,1,0,1,0,20896.4,0.249343,0.249037,17.8874,11,0.0153764,10,0.00445461,-1.74745,-0.367246,-0.160655,-112.334,0.249037,
2,1,0,1,0,20896.5,0.25174,0.251393,17.6327,11,0.0154829,10,0.00443275,-1.75368,-0.393116,-0.150083,-103.351,0.2513929,
2,1,0,1,0,20896.5,0.254148,0.25379,17.4019,11,0.015588,10,0.00441644,-1.7594,-0.406342,-0.145198,-98.6262,0.2537905,
2,1,0,1,0,20896.5,0.256545,0.256192,17.1605,11,0.0156917,10,0.00439638,-1.76547,-0.434705,-0.135724,-91.0506,0.2561923,
2,1,0,1,0,20896.5,0.258942,0.258603,16.972,11,0.015794,10,0.00438901,-1.77027,-0.467672,-0.126157,-83.5751,0.258603,
2,1,0,1,0,20896.5,0.261348,0.261031,16.7774,11,0.0158953,10,0.00437943,-1.77527,-0.478726,-0.123244,-80.7041,0.261031,
2,1,0,1,0,20896.5,0.263745,0.26341,16.5809,11,0.0159953,10,0.00436759,-1.78039,-0.510401,-0.115595,-74.9033,0.26341,
2,1,0,1,0,20896.5,0.266142,0.26584,16.4199,11,0.0160943,10,0.00436508,-1.78463,-0.550714,-0.107134,-68.6857,0.26584,
2,1,0,1,0,20896.5,0.268539,0.268223,16.2557,11,0.0161923,10,0.00436014,-1.789,-0.57688,-0.102274,-64.9078,0.2682226,
2,1,0,1,0,20896.5,0.270947,0.270653,16.107,11,0.0162894,10,0.0043594,-1.79299,-0.591405,-0.0997624,-62.7159,0.2706531,
2,1,0,1,0,20896.5,0.273344,0.273023,15.9625,11,0.0163855,10,0.00435812,-1.7969,-0.621545,-0.0949248,-59.1447,0.273023,
2,1,0,1,0,20896.5,0.275741,0.275422,15.8197,11,0.0164809,10,0.0043571,-1.8008,-0.672548,-0.0877261,-54.2049,0.275422,
2,1,0,1,0,20896.5,0.278149,0.277832,15.7057,11,0.0165754,10,0.00436354,-1.80394,-0.695852,-0.0847882,-51.9457,0.277832,
2,1,0,1,0,20896.5,0.280547,0.280259,15.5683,11,0.0166692,10,0.00436316,-1.80776,-0.716501,-0.0823446,-50.064,0.280259,
2,1,0,1,0,20896.5,0.282944,0.282594,15.4588,11,0.0167623,10,0.00436858,-1.81082,-0.747016,-0.0789809,-47.6771,0.282594,
2,1,0,1,0,20896.5,0.285344,0.285033,15.3487,11,0.0168547,10,0.0043749,-1.81393,-0.742834,-0.0794256,-47.5702,0.285033,
2,1,0,1,0,20896.5,0.287746,0.287476,15.2369,11,0.0169465,10,0.00438026,-1.8171,-0.765674,-0.0770563,-45.8404,0.287476,
2,1,0,1,0,20896.5,0.290143,0.289832,15.1379,11,0.0170376,10,0.00438745,-1.81993,-0.814575,-0.0724304,-42.7867,0.289832,
2,1,0,1,0,20896.6,0.29254,0.29223,15.0411,11,0.0171281,10,0.00439545,-1.82272,-0.880555,-0.0670032,-39.3214,0.29223,
2,1,0,1,0,20896.6,0.294949,0.294635,14.9417,11,0.017218,10,0.00440235,-1.8256,-0.896163,-0.0658362,-38.402,0.294635,
2,1,0,1,0,20896.6,0.297346,0.297053,14.8543,11,0.0173074,10,0.00441251,-1.82815,-0.921541,-0.0640232,-37.1468,0.297053,
2,1,0,1,0,20896.6,0.299621,0.299322,14.7592,11,0.0173918,10,0.00441775,-1.83094,-0.0785372,-0.751236,-417.378,0.299322,
2,1,0,1,0,20896.6,0.299962,0.299613,14.633,11,0.0174095,10,0.00438424,-1.83467,0.0100103,5.89394,2776.65,0.299613,
2,1,0,1,0,20896.6,0.297903,0.297637,10.814,11,0.0174728,10,0.00321866,-1.96601,0.0160391,3.67852,1488.5,0.297637,
2,1,0,1,0,20896.6,0.295506,0.295207,7.78256,11,0.0175279,10,0.00229746,-2.10888,0.0160373,3.67891,1132.68,0.295207,
2,1,0,1,0,20896.6,0.293101,0.292804,5.45977,11,0.0175672,10,0.00159864,-2.26283,0.0140439,4.2011,883.337,0.292804,
2,1,0,1,0,20896.6,0.290704,0.290406,3.59577,11,0.017594,10,0.00104424,-2.44421,0.0109587,5.38385,711.511,0.290406,
2,1,0,1,0,20896.6,0.288307,0.287989,2.0569,11,0.0176106,10,0.000592362,-2.68679,0.00622052,9.48474,591.002,0.2879886,
2,1,0,1,0,20896.6,0.28591,0.285605,0.781828,11,0.0176189,10,0.000223294,-3.10689,0.0107042,5.51186,492.708,0.2856048,
2,0,0,1,0,20896.6,0.283501,0.283218,-0.309214,11,0.0176201,10,-8.75749e-05,-3.50974,-0.0589381,-1.00105,422.106,0.283218,
2,0,0,1,0,20896.6,0.281104,0.280764,-1.24157,11,0.0176153,10,-0.000348587,-2.90603,-0.00342035,-17.2497,361.593,0.280764,
2,0,0,1,0,20896.6,0.278707,0.278449,-2.03229,11,0.0176054,10,-0.000565891,-2.69201,-0.0129626,-4.55154,312.798,0.278449,
2,0,0,1,0,20896.6,0.276302,0.276,-2.74165,11,0.0175909,10,-0.000756694,-2.56199,-0.0216839,-2.72092,271.578,0.276,
2,0,0,1,0,20896.6,0.273905,0.273565,-3.34192,11,0.0175726,10,-0.000914232,-2.476,-0.0307133,-1.92099,241.559,0.273565,
2,0,0,1,0,20896.6,0.271508,0.271182,-3.88771,11,0.0175508,10,-0.00105428,-2.41031,-0.0409709,-1.44005,213.28,0.271182,
2,0,0,1,0,20896.7,0.269105,0.26877,-4.36614,11,0.017526,10,-0.00117349,-2.3599,-0.051856,-1.13777,190.658,0.2687698,
2,0,0,1,0,20896.7,0.266702,0.266373,-4.80154,11,0.0174984,10,-0.001279,-2.31862,-0.0637004,-0.92621,171.416,0.266373,
2,0,0,1,0,20896.7,0.264305,0.263986,-5.19168,11,0.0174684,10,-0.00137053,-2.28469,-0.0768234,-0.767995,153.878,0.263986,
2,0,0,1,0,20896.7,0.261908,0.261621,-5.53496,11,0.0174361,10,-0.00144806,-2.25689,-0.0907091,-0.650431,139.712,0.261621,
2,0,0,1,0,20896.7,0.2595,0.259165,-5.86283,11,0.0174019,10,-0.00151944,-2.23189,-0.102446,-0.575914,131.133,0.259165,
2,0,0,1,0,20896.7,0.257103,0.256771,-6.17205,11,0.0173658,10,-0.00158481,-2.20957,-0.120266,-0.490579,117.34,0.2567713,
2,0,0,1,0,20896.7,0.254706,0.254342,-6.43459,11,0.0173279,10,-0.00163659,-2.19148,-0.135594,-0.435121,108.902,0.254342,
2,0,0,1,0,20896.7,0.2523,0.252003,-6.69271,11,0.0172886,10,-0.00168658,-2.1744,-0.149877,-0.393656,102.615,0.252003,
2,0,0,1,0,20896.7,0.249903,0.249598,-6.9338,11,0.0172477,10,-0.00173066,-2.15903,-0.16258,-0.362898,97.8241,0.249598,
2,0,0,1,0,20896.7,0.247506,0.24716,-7.14907,11,0.0172054,10,-0.00176696,-2.14575,-0.183804,-0.320994,89.4234,0.24716,
2,0,0,1,0,20896.7,0.245109,0.244819,-7.35457,11,0.0171618,10,-0.00180054,-2.13344,-0.198718,-0.296903,85.1802,0.244819,
2,0,0,1,0,20896.7,0.242701,0.242405,-7.56853,11,0.017117,10,-0.00183465,-2.12099,-0.214813,-0.274657,80.8973,0.242405,
2,0,0,1,0,20896.7,0.240304,0.240033,-7.74587,11,0.017071,10,-0.00185926,-2.11093,-0.240767,-0.24505,74.0129,0.240033,
2,0,0,1,0,20896.7,0.237906,0.237603,-7.92114,11,0.017024,10,-0.00188209,-2.10121,-0.253366,-0.232865,71.9326,0.237603,
2,0,0,1,0,20896.7,0.235501,0.23514,-8.09845,11,0.0169759,10,-0.00190427,-2.0916,-0.263647,-0.223784,70.6665,0.23514,
2,0,0,1,0,20896.7,0.233104,0.232774,-8.26156,11,0.0169268,10,-0.00192308,-2.08294,-0.281958,-0.209251,67.3729,0.232774,
2,0,0,1,0,20896.7,0.230707,0.230378,-8.41745,11,0.0168768,10,-0.00193919,-2.07482,-0.298489,-0.197662,64.8793,0.230378,
2,0,0,1,0,20896.8,0.22831,0.22798,-8.55894,11,0.0168258,10,-0.00195127,-2.06758,-0.320765,-0.183935,61.5299,0.22798,
2,0,0,1,0,20896.8,0.225902,0.225601,-8.72038,11,0.0167739,10,-0.00196732,-2.05946,-0.325504,-0.181258,61.5698,0.225601,
2,0,0,1,0,20896.8,0.223504,0.223162,-8.87049,11,0.0167212,10,-0.00197955,-2.05205,-0.358972,-0.164358,56.7779,0.223162,
2,0,0,1,0,20896.8,0.221107,0.220811,-8.98646,11,0.0166676,10,-0.00198431,-2.04641,-0.353898,-0.166715,58.5692,0.220811,
2,0,0,1,0,20896.8,0.218699,0.218433,-9.14674,11,0.0166132,10,-0.00199795,-2.03873,-0.364135,-0.162028,57.7055,0.218433,
2,0,0,1,0,20896.8,0.216302,0.21599,-9.26702,11,0.016558,10,-0.00200158,-2.03306,-0.396874,-0.148662,53.7352,0.21599,
2,0,0,1,0,20896.8,0.213905,0.213537,-9.39214,11,0.016502,10,-0.00200557,-2.02724,-0.403785,-0.146117,53.6142,0.213537,
2,0,0,1,0,20896.8,0.211505,0.211179,-9.52083,11,0.0164452,10,-0.0020106,-2.02133,-0.414039,-0.142499,52.9424,0.211179,
2,0,0,1,0,20896.8,0.209102,0.208812,-9.65584,11,0.0163877,10,-0.00201626,-2.01521,-0.414489,-0.142344,53.5753,0.208812,
2,0,0,1,0,20896.8,0.206705,0.206404,-9.78478,11,0.0163293,10,-0.00201962,-2.00945,-0.4479,-0.131726,50.2251,0.206404,
2,0,0,1,0,20896.8,0.204308,0.203978,-9.90107,11,0.0162703,10,-0.0020196,-2.00432,-0.441182,-0.133732,51.679,0.2039779,
2,0,0,1,0,20896.8,0.2019,0.201591,-10.0292,11,0.0162105,10,-0.00202179,-1.99874,-0.451162,-0.130773,51.1627,0.201591,
2,0,0,1,0,20896.8,0.199503,0.199165,-10.1521,11,0.01615,10,-0.00202195,-1.99344,-0.467337,-0.126247,49.9668,0.199165,
2,0,0,1,0,20896.8,0.197106,0.19678,-10.2611,11,0.0160887,10,-0.00201918,-1.98881,-0.458776,-0.128603,51.5871,0.19678,
2,0,0,1,0,20896.8,0.194709,0.194397,-10.3873,11,0.0160268,10,-0.00201926,-1.9835,-0.447031,-0.131982,53.5544,0.194397,
2,0,0,1,0,20896.8,0.192303,0.191937,-10.5285,11,0.015964,10,-0.0020208,-1.97763,-0.463677,-0.127244,52.1756,0.191937,
2,0,0,1,0,20896.8,0.189906,0.189589,-10.6355,11,0.0159005,10,-0.00201638,-1.97324,-0.478447,-0.123316,51.2411,0.189589,
2,0,0,1,0,20896.9,0.187509,0.187166,-10.7659,11,0.0158363,10,-0.00201502,-1.96795,-0.454601,-0.129784,54.572,0.187166,
2,0,0,1,0,20896.9,0.185101,0.184764,-10.9099,11,0.0157712,10,-0.00201576,-1.96218,-0.441471,-0.133644,56.8163,0.184764,
2,0,0,1,0,20896.9,0.182704,0.182378,-11.031,11,0.0157054,10,-0.00201181,-1.95739,-0.47381,-0.124522,53.6348,0.182378,
2,0,0,1,0,20896.9,0.180307,0.179962,-11.1613,11,0.0156388,10,-0.0020086,-1.95229,-0.446487,-0.132143,57.6488,0.179962,
2,0,0,1,0,20896.9,0.177904,0.17753,-11.3102,11,0.0155714,10,-0.0020079,-1.94653,-0.428822,-0.137586,60.7352,0.17753,
2,0,0,1,0,20896.9,0.175501,0.17516,-11.4631,11,0.015503,10,-0.00200787,-1.9407,-0.423914,-0.139179,62.229,0.17516,
2,0,0,1,0,20896.9,0.173104,0.172767,-11.6053,11,0.0154338,10,-0.00200501,-1.93534,-0.420581,-0.140282,63.5925,0.172767,
2,0,0,1,0,20896.9,0.170707,0.1704,-11.7586,11,0.0153638,10,-0.00200367,-1.92964,-0.386338,-0.152716,70.2031,0.1704,
2,0,0,1,0,20896.9,0.168302,0.167948,-11.9409,11,0.0152926,10,-0.00200546,-1.92296,-0.379784,-0.155351,72.3425,0.167948,
2,0,0,1,0,20896.9,0.165905,0.165584,-12.1134,11,0.0152204,10,-0.00200578,-1.91673,-0.3694,-0.159719,75.5635,0.165584,
2,0,0,1,0,20896.9,0.163507,0.163183,-12.2877,11,0.0151472,10,-0.00200515,-1.91053,-0.344898,-0.171065,82.2479,0.163183,
2,0,0,1,0,20896.9,0.161099,0.160793,-12.5161,11,0.0150728,10,-0.00201251,-1.90253,-0.328574,-0.179564,87.6538,0.160793,
2,0,0,1,0,20896.9,0.158702,0.158398,-12.7175,11,0.014997,10,-0.00201444,-1.8956,-0.31419,-0.187784,93.3086,0.158398,
2,0,0,1,0,20896.9,0.156305,0.155928,-12.9513,11,0.01492,10,-0.00201947,-1.88769,-0.292215,-0.201906,102.313,0.155928,
2,0,0,1,0,20896.9,0.153908,0.153556,-13.2154,11,0.0148415,10,-0.0020293,-1.87892,-0.269799,-0.218681,112.875,0.153556,
2,0,0,1,0,20896.9,0.151503,0.151209,-13.5022,11,0.0147614,10,-0.00204165,-1.8696,-0.255161,-0.231227,121.94,0.151209,
2,0,0,1,0,20897,0.149105,0.148768,-13.8,11,0.0146795,10,-0.00205299,-1.86012,-0.240989,-0.244825,132.079,0.148768,
2,0,0,1,0,20897,0.146708,0.146354,-14.1346,11,0.0145956,10,-0.00206866,-1.84972,-0.21847,-0.27006,149.296,0.146354,
2,0,0,1,0,20897,0.1443,0.143997,-14.5166,11,0.0145097,10,-0.00209034,-1.83814,-0.205547,-0.287039,162.809,0.143997,
2,0,0,1,0,20897,0.141903,0.141566,-14.9172,11,0.0144213,10,-0.00211176,-1.82631,-0.192583,-0.306362,178.667,0.141566,
2,0,0,1,0,20897,0.139506,0.139215,-15.358,11,0.0143305,10,-0.00213806,-1.81366,-0.180604,-0.326682,196.389,0.139215,
2,0,0,1,0,20897,0.137109,0.136774,-15.8544,11,0.0142368,10,-0.00216847,-1.79985,-0.17194,-0.343143,212.723,0.136774,
2,0,0,1,0,20897,0.134701,0.13441,-16.3929,11,0.01414,10,-0.00220337,-1.78534,-0.162477,-0.363129,232.529,0.13441,
2,0,0,1,0,20897,0.132303,0.131978,-16.9538,11,0.0140399,10,-0.00223753,-1.77073,-0.157837,-0.373804,248.051,0.131978,
2,0,0,1,0,20897,0.129906,0.129561,-17.5912,11,0.0139363,10,-0.00227912,-1.75471,-0.150933,-0.390901,268.607,0.129561,
2,0,0,1,0,20897,0.127501,0.12719,-18.268,11,0.0138286,10,-0.0023235,-1.73831,-0.149584,-0.394426,281.074,0.12719,
2,0,0,1,0,20897,0.125104,0.124828,-18.9413,11,0.013717,10,-0.00236441,-1.72259,-0.149715,-0.394083,291.589,0.124828,
2,0,0,1,0,20897,0.122707,0.122398,-19.6586,11,0.0136011,10,-0.00240617,-1.70645,-0.147718,-0.399409,306.536,0.122398,
2,0,0,1,0,20897,0.12031,0.120015,-20.3964,11,0.0134809,10,-0.00244788,-1.69045,-0.15308,-0.385419,306.687,0.120015,
2,0,0,1,0,20897,0.117901,0.117578,-21.1416,11,0.0133561,10,-0.00248579,-1.67486,-0.157041,-0.375697,309.878,0.117578,
2,0,0,1,0,20897,0.115504,0.11519,-21.8865,11,0.013227,10,-0.00252111,-1.65982,-0.163364,-0.361157,308.378,0.11519,
2,0,0,1,0,20897,0.113107,0.112768,-22.6435,11,0.0130933,10,-0.00255347,-1.64506,-0.167515,-0.352208,310.912,0.112768,
2,0,0,1,0,20897,0.110702,0.110406,-23.3911,11,0.0129551,10,-0.0025825,-1.63095,-0.181686,-0.324736,295.583,0.110406,
2,0,0,1,0,20897.1,0.108305,0.10805,-24.0563,11,0.0128127,10,-0.00259929,-1.61877,-0.188476,-0.313037,293.981,0.10805,
2,0,0,1,0,20897.1,0.105908,0.10566,-24.7664,11,0.0126662,10,-0.00261683,-1.60614,-0.196041,-0.300957,291.017,0.10566,
2,0,0,1,0,20897.1,0.103505,0.103188,-25.4935,11,0.0125153,10,-0.00263063,-1.59357,-0.204553,-0.288434,286.301,0.103188,
2,0,0,1,0,20897.1,0.101102,0.100832,-26.1499,11,0.0123603,10,-0.00263675,-1.58253,-0.218338,-0.270223,275.431,0.100832,
2,0,0,1,0,20897.1,0.0987052,0.0984197,-26.7915,11,0.0122014,10,-0.00263681,-1.572,-0.236,-0.25,261.211,0.0984197,
2,0,0,1,0,20897.1,0.0963081,0.0959787,-27.406,11,0.0120387,10,-0.00263039,-1.56215,-0.250955,-0.235101,251.119,0.0959787,
2,0,0,1,0,20897.1,0.0938999,0.0936278,-27.9964,11,0.0118724,10,-0.00262124,-1.5529,-0.271532,-0.217286,237.095,0.0936278,
2,0,0,1,0,20897.1,0.0915028,0.0912461,-28.5448,11,0.0117027,10,-0.0026046,-1.54447,-0.296339,-0.199096,221.539,0.0912461,
2,0,0,1,0,20897.1,0.0891057,0.0888294,-29.0643,11,0.0115298,10,-0.00258177,-1.53664,-0.31965,-0.184577,209.074,0.0888294,
2,0,0,1,0,20897.1,0.0867002,0.0864085,-29.5489,11,0.011354,10,-0.00255328,-1.52946,-0.352798,-0.167235,192.608,0.0864085,
2,0,0,1,0,20897.1,0.0843031,0.0840544,-29.9909,11,0.0111753,10,-0.00252087,-1.52301,-0.383169,-0.153979,179.996,0.0840544,
2,0,0,1,0,20897.1,0.081906,0.0816314,-30.403,11,0.010994,10,-0.00248183,-1.51708,-0.418532,-0.140969,167.086,0.0816314,
2,0,0,1,0,20897.1,0.0795089,0.0792529,-30.784,11,0.0108104,10,-0.00243972,-1.51167,-0.475322,-0.124126,148.975,0.0792529,
2,0,0,1,0,20897.1,0.0771007,0.0768097,-31.1367,11,0.0106246,10,-0.0023916,-1.50673,-0.542053,-0.108846,132.042,0.0768097,
2,0,0,1,0,20897.1,0.0747036,0.0743761,-31.4262,11,0.0104369,10,-0.00233736,-1.50271,-0.640969,-0.0920482,112.738,0.0743761,
2,0,0,1,0,20897.1,0.0723065,0.0719965,-31.6764,11,0.0102476,10,-0.00228059,-1.49926,-0.783768,-0.0752774,92.8919,0.0719965,
2,0,0,1,0,20897.1,0.0699011,0.0695788,-31.8721,11,0.0100569,10,-0.00221762,-1.49659,-0.983163,-0.0600104,74.5491,0.0695788,
2,0,0,1,0,20897.2,0.067504,0.0671876,-32.0221,11,0.00986523,10,-0.00215149,-1.49455,-1.30288,-0.0452845,56.526,0.0671876,
2,0,0,1,0,20897.2,0.0651069,0.0648176,-32.1487,11,0.00967269,10,-0.0020838,-1.49284,-1.84603,-0.0319604,40.0365,0.06481757,
2,0,0,1,0,20897.2,0.0627098,0.0624073,-32.1983,11,0.0094796,10,-0.00200941,-1.49217,-3.56342,-0.0165571,20.7918,0.0624073,
2,0,0,1,0,20897.2,0.0603016,0.0600012,-32.2446,11,0.00928622,10,-0.00193471,-1.49154,-10.669,-0.00553004,6.95403,0.0600012,
2,0,0,1,0,20897.2,0.0579045,0.0575464,-32.2506,11,0.00909273,10,-0.0018559,-1.49146,11.7654,0.00501469,-6.30529,0.0575464,
2,0,0,1,0,20897.2,0.0555074,0.0551891,-32.2154,11,0.00889933,10,-0.00177794,-1.49194,4.82982,0.0122158,-15.3524,0.0551891,
2,0,0,1,0,20897.2,0.0530992,0.0527629,-32.1738,11,0.00870619,10,-0.00169758,-1.4925,3.22378,0.0183015,-22.9636,0.0527629,
2,0,0,1,0,20897.2,0.0507021,0.0503833,-32.1052,11,0.00851336,10,-0.00161756,-1.49343,2.40885,0.024493,-30.6679,0.0503833,
2,0,0,1,0,20897.2,0.048305,0.047991,-32.0127,11,0.00832102,10,-0.00153632,-1.49468,1.93017,0.0305672,-38.183,0.047991,
2,0,0,1,0,20897.2,0.0459051,0.0455648,-31.9157,11,0.00812925,10,-0.00145423,-1.496,1.6642,0.0354525,-44.1441,0.04556483,
2,0,0,1,0,20897.2,0.0435024,0.0432012,-31.7962,11,0.00793807,10,-0.00137363,-1.49762,1.71442,0.034414,-42.7189,0.0432012,
2,0,0,1,0,20897.2,0.0411053,0.0407622,-31.7023,11,0.00774758,10,-0.00129226,-1.49891,1.52206,0.0387634,-47.949,0.0407622,
2,0,0,1,0,20897.2,0.0387082,0.0383509,-31.5851,11,0.0075577,10,-0.00121131,-1.50052,1.54935,0.0380804,-46.9343,0.03835088,
2,0,0,1,0,20897.2,0.0363,0.0359575,-31.468,11,0.00736858,10,-0.00113151,-1.50213,1.42611,0.0413713,-50.8093,0.0359575,
2,0,0,1,0,20897.2,0.0339029,0.0335928,-31.3523,11,0.00718014,10,-0.00105321,-1.50373,1.40784,0.0419083,-51.2525,0.0335928,
2,0,0,1,0,20897.2,0.0315058,0.0311719,-31.2273,11,0.00699243,10,-0.000973416,-1.50547,1.38112,0.0427189,-52.0508,0.0311719,
2,0,0,1,0,20897.3,0.0291087,0.0287913,-31.0844,11,0.00680553,10,-0.000894962,-1.50746,1.35759,0.0434594,-52.7459,0.0287913,
2,0,0,1,0,20897.3,0.0267033,0.0263598,-30.9691,11,0.00661935,10,-0.000816338,-1.50907,1.34636,0.0438218,-52.9465,0.0263598,
2,0,0,1,0,20897.3,0.0243062,0.023959,-30.8286,11,0.00643393,10,-0.000738625,-1.51105,1.18805,0.0496611,-59.7436,0.023959,
2,0,0,1,0,20897.3,0.0219091,0.0216028,-30.6877,11,0.00624938,10,-0.00066294,-1.51304,1.19715,0.0492836,-59.0393,0.0216028,
2,0,0,1,0,20897.3,0.0195009,0.0191363,-30.5558,11,0.00606568,10,-0.000584725,-1.51491,1.16956,0.0504465,-60.1285,0.0191363,
2,0,0,1,0,20897.3,0.0171038,0.0167843,-30.3966,11,0.00588283,10,-0.000510187,-1.51717,1.07764,0.0547494,-64.9419,0.0167843,
2,0,0,1,0,20897.3,0.0147067,0.0143634,-30.2397,11,0.00570093,10,-0.000434345,-1.51942,1.01988,0.05785,-68.2544,0.0143634,
2,0,0,1,0,20897.3,0.012304,0.0119712,-30.0789,11,0.00551999,10,-0.000360079,-1.52174,0.976638,0.0604113,-70.885,0.0119712,
2,0,0,1,0,20897.3,0.00990136,0.00954388,-29.9075,11,0.00534008,10,-0.000285434,-1.52422,0.907741,0.0649965,-75.8151,0.009543879,
2,0,0,1,0,20897.3,0.00750426,0.00721417,-29.717,11,0.00516125,10,-0.000214383,-1.527,0.826461,0.0713888,-82.7289,0.00721417,
2,0,0,1,0,20897.3,0.00510715,0.0047975,-29.4957,11,0.00498362,10,-0.000141505,-1.53024,0.862466,0.0684085,-78.8301,0.0047975,
2,0,0,1,0,20897.3,0.00270173,0.00238614,-29.2897,11,0.00480726,10,-6.98891e-05,-1.53329,0.792289,0.0744678,-85.151,0.00238614,
2,0,0,1,0,20897.3,0.000304623,-7.08259e-05,-29.1011,11,0.00463197,10,2.06111e-06,-1.53609,0.700292,0.0842505,-95.5464,-7.08259e-05,
2,0,0,1,0,20897.3,-0.00209248,-0.00247689,-28.8378,11,0.00445816,10,7.1428e-05,-1.54004,0.62036,0.0951061,-107.063,-0.00247689,
2,0,0,1,0,20897.3,-0.00450068,-0.00487023,-28.5921,11,0.00428591,10,0.00013925,-1.54375,0.603461,0.0977694,-109.006,-0.004870228,
2,0,0,1,0,20897.3,-0.00689779,-0.00726463,-28.3187,11,0.00411521,10,0.000205725,-1.54793,0.569721,0.10356,-114.363,-0.00726463,
2,0,0,1,0,20897.3,-0.00929489,-0.00961237,-28.022,11,0.00394621,10,0.000269358,-1.5525,0.543356,0.108584,-118.772,-0.00961237,
2,0,0,1,0,20897.4,-0.011692,-0.0121308,-27.7458,11,0.00377893,10,0.000336579,-1.5568,0.537708,0.109725,-118.816,-0.0121308,
2,0,0,1,0,20897.4,-0.0140974,-0.0144563,-27.4647,11,0.00361331,10,0.000397038,-1.56123,0.528659,0.111603,-119.597,-0.0144563,
2,0,0,1,0,20897.4,-0.0164945,-0.0168645,-27.1769,11,0.00344942,10,0.000458325,-1.5658,0.515967,0.114348,-121.288,-0.0168645,
2,0,0,1,0,20897.4,-0.0188916,-0.019296,-26.8855,11,0.00328726,10,0.000518783,-1.57048,0.53001,0.111319,-116.864,-0.019296,
2,0,0,1,0,20897.4,-0.0212998,-0.0216904,-26.6246,11,0.00312679,10,0.000577498,-1.57472,0.563812,0.104645,-108.747,-0.0216904,
2,0,0,1,0,20897.4,-0.0236969,-0.0240487,-26.3573,11,0.00296789,10,0.000633861,-1.5791,0.561926,0.104996,-107.984,-0.0240487,
2,0,0,1,0,20897.4,-0.026094,-0.0264516,-26.0994,11,0.00281054,10,0.000690371,-1.58337,0.600739,0.0982123,-100.127,-0.0264516,
2,0,0,1,0,20897.4,-0.0284912,-0.0288672,-25.8492,11,0.00265473,10,0.000746194,-1.58755,0.640962,0.0920491,-92.9702,-0.0288672,
2,0,0,1,0,20897.4,-0.0308994,-0.0312818,-25.6562,11,0.00250018,10,0.000802571,-1.59081,0.667561,0.0883814,-88.478,-0.0312818,
2,0,0,1,0,20897.4,-0.0332965,-0.0336306,-25.4362,11,0.00234693,10,0.000855434,-1.59455,0.705837,0.0835887,-83.0688,-0.0336306,
2,0,0,1,0,20897.4,-0.0356936,-0.0360335,-25.2503,11,0.00219491,10,0.000909857,-1.59773,0.797798,0.0739536,-72.9715,-0.03603347,
2,0,0,1,0,20897.4,-0.038099,-0.0384872,-25.1042,11,0.00204385,10,0.000966191,-1.60025,0.883574,0.0667743,-65.4087,-0.0384872,
2,0,0,1,0,20897.4,-0.0404961,-0.0408615,-24.9518,11,0.00189373,10,0.00101957,-1.6029,0.944828,0.0624452,-60.8444,-0.0408615,
2,0,0,1,0,20897.4,-0.0428932,-0.0432782,-24.8068,11,0.00174449,10,0.00107359,-1.60543,1.18036,0.0499849,-48.439,-0.0432782,
2,0,0,1,0,20897.4,-0.0452903,-0.0456535,-24.7024,11,0.00159598,10,0.00112775,-1.60726,1.39546,0.04228,-40.7894,-0.0456535,
2,0,0,1,0,20897.4,-0.0476985,-0.0480479,-24.6103,11,0.00144805,10,0.00118247,-1.60888,1.60255,0.0368163,-35.374,-0.0480479,
2,0,0,1,0,20897.4,-0.0500956,-0.0504921,-24.5269,11,0.00130064,10,0.00123842,-1.61036,1.76134,0.0334973,-32.0802,-0.0504921,
2,0,0,1,0,20897.5,-0.0524927,-0.0528727,-24.45,11,0.00115369,10,0.00129274,-1.61172,2.57668,0.0228977,-21.8775,-0.0528727,
2,0,0,1,0,20897.5,-0.0548981,-0.0552915,-24.4254,11,0.00100707,10,0.00135051,-1.61216,3.0676,0.0192333,-18.3359,-0.0552915,
2,0,0,1,0,20897.5,-0.0572953,-0.0577156,-24.3788,11,0.000860644,10,0.00140704,-1.61299,3.80095,0.0155224,-14.7743,-0.0577156,
2,0,0,1,0,20897.5,-0.0596924,-0.060074,-24.3449,11,0.00071448,10,0.0014625,-1.61359,11.0589,0.00533508,-5.07663,-0.060074,
2,0,0,1,0,20897.5,-0.062095,-0.0624546,-24.3578,11,0.000568393,10,0.00152125,-1.61336,-49.5305,-0.00119119,1.13227,-0.06245457,
2,0,0,1,0,20897.5,-0.0644977,-0.0648776,-24.3649,11,0.00042221,10,0.00158073,-1.61324,-17.5835,-0.00335541,3.19004,-0.0648776,
2,0,0,1,0,20897.5,-0.0668948,-0.0672508,-24.3657,11,0.000276042,10,0.00163861,-1.61322,-7.22203,-0.00816945,7.77554,-0.0672508,
2,0,0,1,0,20897.5,-0.0692919,-0.0696728,-24.3958,11,0.000129777,10,0.00169972,-1.61268,-3.84107,-0.0153603,14.6304,-0.0696728,
2,0,0,1,0,20897.5,-0.0717001,-0.0721,-24.4386,11,-1.67557e-05,10,0.00176202,-1.61192,-3.03927,-0.0194125,18.5151,-0.0721,
2,0,0,1,0,20897.5,-0.0740972,-0.0744912,-24.4809,11,-0.000163505,10,0.00182361,-1.61117,-2.76906,-0.0213069,20.3745,-0.0744912,
2,0,0,1,0,20897.5,-0.0764943,-0.0768432,-24.5355,11,-0.00031054,10,0.00188538,-1.61021,-2.0533,-0.0287343,27.5322,-0.0768432,
2,0,0,1,0,20897.5,-0.0788997,-0.0792694,-24.6123,11,-0.000457986,10,0.001951,-1.60885,-1.86904,-0.031567,30.3197,-0.0792694,
2,0,0,1,0,20897.5,-0.0812968,-0.0816638,-24.6808,11,-0.000605906,10,0.00201553,-1.60764,-1.76051,-0.0335131,32.2838,-0.08166384,
2,0,0,1,0,20897.5,-0.0836939,-0.0840593,-24.7667,11,-0.000754249,10,0.00208187,-1.60613,-1.60452,-0.0367711,35.562,-0.0840593,
2,0,0,1,0,20897.5,-0.086091,-0.0864463,-24.8589,11,-0.000903109,10,0.00214896,-1.60452,-1.34989,-0.0437073,42.4209,-0.0864463,
2,0,0,1,0,20897.5,-0.0884992,-0.0889181,-24.9778,11,-0.00105263,10,0.00222098,-1.60245,-1.31986,-0.0447017,43.5485,-0.0889181,
2,0,0,1,0,20897.6,-0.0908963,-0.0912393,-25.0666,11,-0.00120277,10,0.00228706,-1.6009,-1.25087,-0.0471673,46.1893,-0.0912393,
2,0,0,1,0,20897.6,-0.0932934,-0.0937016,-25.195,11,-0.00135354,10,0.00236081,-1.59869,-1.07543,-0.0548617,53.9752,-0.0937016,
2,0,0,1,0,20897.6,-0.0956989,-0.0960811,-25.3407,11,-0.00150514,10,0.00243477,-1.59618,-1.06278,-0.0555147,54.8634,-0.09608113,
2,0,0,1,0,20897.6,-0.098096,-0.0984798,-25.4545,11,-0.00165753,10,0.00250676,-1.59424,-1.25084,-0.0471683,46.7711,-0.09847977,
2,0,0,0,0,20897.6,-0.0999548,-0.100419,-25.5445,11,-0.00177742,10,0.00256516,-1.5927,0.0259851,2.27053,-2119.82,-0.100419,
2,0,0,1,1,20897.6,-0.0994555,-0.0999156,-24.1657,11,-0.00181938,10,0.00241453,-1.6168,-0.0236414,-2.49562,2129.62,-0.0999156,
2,0,0,1,1,20897.6,-0.0970583,-0.0975,-19.7471,11,-0.00194993,10,0.00192534,-1.7045,-0.0279318,-2.11229,1646.06,-0.0975,
2,0,0,1,1,20897.6,-0.0946501,-0.0950483,-16.3481,11,-0.00205763,10,0.00155386,-1.78653,-0.0291301,-2.0254,1302.54,-0.0950483,
2,0,0,1,1,20897.6,-0.0922531,-0.0926571,-13.4814,11,-0.00214666,10,0.00124914,-1.87027,-0.0274092,-2.15256,1134.18,-0.0926571,
2,0,0,1,1,20897.6,-0.0898559,-0.090285,-10.9886,11,-0.00221969,10,0.000992103,-1.95906,-0.0252443,-2.33716,994.665,-0.090285,
2,0,0,1,1,20897.6,-0.0874588,-0.0878651,-8.75459,11,-0.00227858,10,0.000769223,-2.05776,-0.0219738,-2.68502,902.671,-0.0878651,
2,0,0,1,1,20897.6,-0.0850534,-0.0854919,-6.70109,11,-0.0023246,10,0.000572889,-2.17385,-0.0185804,-3.17538,811.352,-0.0854919,
2,0,0,1,1,20897.6,-0.0826563,-0.0830466,-4.87825,11,-0.00235906,10,0.000405123,-2.31174,-0.0143627,-4.10788,739.325,-0.0830466,
2,0,0,1,1,20897.6,-0.0802592,-0.080648,-3.18765,11,-0.00238301,10,0.000257077,-2.49653,-0.0094509,-6.24279,672.431,-0.080648,
2,0,0,1,1,20897.6,-0.077851,-0.0782207,-1.61743,11,-0.00239721,10,0.000126516,-2.79118,-0.00551678,-10.6946,625.623,-0.0782207,
2,0,0,1,1,20897.6,-0.0754539,-0.0758889,-0.18964,11,-0.00240247,10,1.43916e-05,-3.72207,-0.0467635,-1.26167,576.542,-0.0758889,
2,1,0,1,1,20897.6,-0.0730568,-0.0734467,1.13143,11,-0.00239948,10,-8.31001e-05,-2.94637,0.01012,5.83002,539.755,-0.0734467,
2,1,0,1,1,20897.6,-0.0706597,-0.071064,2.36088,11,-0.00238884,10,-0.000167774,-2.62693,0.00851776,6.9267,501.18,-0.07106401,
2,1,0,1,1,20897.7,-0.0682542,-0.0686484,3.5191,11,-0.00237102,10,-0.00024158,-2.45357,0.0160075,3.68577,462.149,-0.0686484,
2,1,0,1,1,20897.7,-0.0658571,-0.0663081,4.57675,11,-0.00234658,10,-0.000303475,-2.33944,0.0235305,2.50738,428.078,-0.0663081,
2,1,0,1,1,20897.7,-0.06346,-0.0639073,5.56634,11,-0.00231602,10,-0.00035573,-2.25443,0.0305367,1.9321,409.476,-0.0639073,
2,1,0,1,1,20897.7,-0.0610518,-0.0614758,6.53039,11,-0.00227961,10,-0.000401461,-2.18506,0.0388955,1.51689,377.569,-0.0614758,
2,1,0,1,1,20897.7,-0.0586547,-0.0590963,7.40419,11,-0.00223768,10,-0.00043756,-2.13052,0.0472215,1.24943,355.328,-0.0590963,
2,1,0,1,1,20897.7,-0.0562576,-0.0566775,8.211,11,-0.00219075,10,-0.000465379,-2.0856,0.0566321,1.04181,330.906,-0.0566775,
2,1,0,1,1,20897.7,-0.053855,-0.0542619,8.99929,11,-0.00213903,10,-0.000488318,-2.04579,0.065278,0.903827,314.198,-0.05426186,
2,1,0,1,1,20897.7,-0.0514523,-0.0518802,9.71224,11,-0.00208278,10,-0.000503873,-2.01268,0.076411,0.77214,290.512,-0.0518802,
2,1,0,1,1,20897.7,-0.0490552,-0.0494847,10.3832,11,-0.00202241,10,-0.000513809,-1.98367,0.0878172,0.67185,271.001,-0.04948473,
2,1,0,1,1,20897.7,-0.0466581,-0.0470447,11.0199,11,-0.00195812,10,-0.000518426,-1.95782,0.0999557,0.590262,252.448,-0.0470447,
2,1,0,1,1,20897.7,-0.0442527,-0.0446503,11.6172,11,-0.0018901,10,-0.000518712,-1.9349,0.112312,0.525321,236.869,-0.0446503,
2,1,0,1,1,20897.7,-0.0418556,-0.0422687,12.1533,11,-0.00181871,10,-0.000513705,-1.9153,0.127095,0.464221,219.435,-0.0422687,
2,1,0,1,1,20897.7,-0.0394585,-0.0398647,12.6656,11,-0.00174417,10,-0.000504909,-1.89738,0.140026,0.421349,207.799,-0.0398647,
2,1,0,1,1,20897.7,-0.0370558,-0.0374247,13.1578,11,-0.00166666,10,-0.000492427,-1.88082,0.154599,0.381633,195.261,-0.0374247,
2,1,0,1,1,20897.7,-0.0346532,-0.0350749,13.5985,11,-0.00158631,10,-0.000476964,-1.86651,0.176238,0.334774,177.13,-0.03507486,
2,1,0,1,1,20897.7,-0.0322561,-0.0326699,14.002,11,-0.00150344,10,-0.000457444,-1.85381,0.193086,0.305564,166.777,-0.0326699,
2,1,0,1,1,20897.8,-0.0298589,-0.0302553,14.4003,11,-0.00141818,10,-0.000435685,-1.84163,0.211397,0.279095,156.54,-0.0302553,
2,1,0,1,1,20897.8,-0.0274535,-0.0278036,14.7716,11,-0.00133059,10,-0.000410705,-1.83057,0.234656,0.251432,144.5,-0.0278036,
2,1,0,1,1,20897.8,-0.0250564,-0.0254485,15.0885,11,-0.00124098,10,-0.000383979,-1.82135,0.262079,0.225123,132.542,-0.0254485,
2,1,0,1,1,20897.8,-0.0226593,-0.0230233,15.4054,11,-0.00114948,10,-0.000354684,-1.81233,0.285275,0.206818,124.12,-0.0230233,
2,1,0,1,1,20897.8,-0.0202511,-0.0206501,15.7107,11,-0.00105609,10,-0.000324427,-1.80381,0.309713,0.190499,116.473,-0.0206501,
2,1,0,1,1,20897.8,-0.017854,-0.0182801,15.9591,11,-0.00096109,10,-0.000291734,-1.79699,0.344493,0.171266,106.573,-0.0182801,
2,1,0,1,1,20897.8,-0.0154569,-0.0157924,16.2023,11,-0.000864574,10,-0.000255873,-1.79042,0.372708,0.158301,100.016,-0.01579242,
2,1,0,1,1,20897.8,-0.0130598,-0.0134298,16.433,11,-0.000766614,10,-0.000220693,-1.78428,0.408869,0.1443,92.4549,-0.0134298,
2,1,0,1,1,20897.8,-0.0106516,-0.0110195,16.6508,11,-0.00066731,10,-0.000183483,-1.77857,0.447233,0.131922,85.6186,-0.0110195,
2,1,0,1,1,20897.8,-0.00825448,-0.0086071,16.8378,11,-0.000566811,10,-0.000144924,-1.77372,0.508374,0.116056,76.2396,-0.0086071,
2,1,0,1,1,20897.8,-0.00585738,-0.00628587,17.0204,11,-0.000465211,10,-0.000106988,-1.76903,0.542328,0.10879,72.223,-0.00628587,
2,1,0,1,1,20897.8,-0.00345195,-0.00381512,17.1967,11,-0.000362541,10,-6.56074e-05,-1.76456,0.600135,0.0983112,65.8527,-0.00381512,
2,1,0,1,1,20897.8,-0.00105485,-0.00147268,17.3371,11,-0.000258912,10,-2.5532e-05,-1.76102, , , ,-0.00147268,
2,1,0,0,1,20897.8,-7.54729e-05,-0.000382585,17.3819,11,-0.00021551,10,-6.65008e-06,-1.7599, , , ,-0.000382585,