File: Figure_codes/Fig_3-5/rawdata_trumpetplot_data/after 10th/20221101_1-115_003_TrumpetPlot_ParaChange_from10_every3_13_CV_C01_0.csv
mode,ox/red,error,control changes,counter inc.,time/s,control/V,Ewe/V,<I>/mA,cycle number,(Q-Qo)/C,I Range,P/W,log(|I|),Tafel slope mV/dec,alpha_eff,dI/d(E-IR),E-IR/V,
2,1,0,0,0,1197.86,2.44065e-05,-0.000229887,28.723,1,0.0000000E+000,10,-6.60305e-06,-1.54177, , , ,-0.000229887,
2,1,0,1,0,1197.86,0.00266289,0.00229918,30.0501,1,9.15666e-05,10,6.90907e-05,-1.52215, , , ,0.00229918,
2,1,0,1,0,1197.86,0.00586735,0.00554191,31.2375,1,0.000214359,10,0.000173116,-1.50532, , , ,0.00554191,
2,1,0,1,0,1197.87,0.00906349,0.00867859,32.1993,1,0.000341377,10,0.000279445,-1.49215,0.251648,0.234454,291.752,0.00867859,
2,1,0,1,0,1197.87,0.0122624,0.0118747,33.0391,1,0.000471965,10,0.000392327,-1.48097,0.30106,0.195974,250.962,0.0118747,
2,1,0,1,0,1197.88,0.0154641,0.0151312,33.7939,1,0.00060575,10,0.00051134,-1.47116,0.351402,0.167899,220.112,0.0151312,
2,1,0,1,0,1197.88,0.0186602,0.0183039,34.4403,1,0.000742325,10,0.000630392,-1.46293,0.406934,0.144986,193.909,0.0183039,
2,1,0,1,0,1197.88,0.0218675,0.0215106,35.0238,1,0.000881333,10,0.000753382,-1.45564,0.467219,0.126279,171.904,0.0215106,
2,1,0,1,0,1197.89,0.0250636,0.0247194,35.5298,1,0.00102252,10,0.000878273,-1.44941,0.523615,0.112678,155.789,0.0247194,
2,1,0,1,0,1197.89,0.0282597,0.0279154,35.9915,1,0.00116562,10,0.00100472,-1.4438,0.583046,0.101193,141.868,0.0279154,
2,1,0,1,0,1197.9,0.031467,0.0310903,36.4323,1,0.00131056,10,0.00113269,-1.43851,0.638684,0.0923774,131.097,0.0310903,
2,1,0,1,0,1197.9,0.0346631,0.0342948,36.8375,1,0.00145714,10,0.00126334,-1.43371,0.694821,0.084914,121.839,0.0342948,
2,1,0,1,0,1197.9,0.0378703,0.0375322,37.2095,1,0.00160527,10,0.00139656,-1.42935,0.752679,0.0783867,113.672,0.0375322,
2,1,0,1,0,1197.91,0.0410665,0.0407166,37.5512,1,0.00175482,10,0.00152896,-1.42538,0.783537,0.0752996,110.321,0.0407166,
2,1,0,1,0,1197.91,0.0442626,0.0439329,37.8921,1,0.00190576,10,0.00166471,-1.42145,0.795002,0.0742137,109.793,0.0439329,
2,1,0,1,0,1197.92,0.0474671,0.0471257,38.253,1,0.00205807,10,0.0018027,-1.41733,0.787722,0.0748995,111.845,0.0471257,
2,1,0,1,0,1197.92,0.0506632,0.0503303,38.6146,1,0.00221185,10,0.00194349,-1.41325,0.777494,0.0758848,114.371,0.0503303,
2,1,0,1,0,1197.92,0.0538621,0.0535168,38.9829,1,0.00236706,10,0.00208624,-1.40913,0.764717,0.0771527,117.423,0.0535168,
2,1,0,1,0,1197.93,0.0570638,0.0567182,39.3544,1,0.00252381,10,0.00223211,-1.40501,0.737334,0.080018,123.035,0.0567182,
2,1,0,1,0,1197.93,0.06026,0.059892,39.7521,1,0.00268205,10,0.00238083,-1.40064,0.69494,0.0848995,131.941,0.05989198,
2,1,0,1,0,1197.94,0.0634672,0.063157,40.1928,1,0.00284201,10,0.00253845,-1.39585,0.663612,0.0889074,139.646,0.06315697,
2,1,0,1,0,1197.94,0.0666633,0.0663117,40.671,1,0.00300379,10,0.00269696,-1.39071,0.622046,0.0948483,150.694,0.06631168,
2,1,0,1,0,1197.94,0.0698595,0.0695873,41.1515,1,0.0031675,10,0.00286362,-1.38561,0.597704,0.098711,158.703,0.0695873,
2,1,0,1,0,1197.95,0.0730667,0.0727102,41.6837,1,0.00333324,10,0.00303083,-1.38003,0.571753,0.103192,168.088,0.0727102,
2,1,0,1,0,1197.95,0.0762628,0.0759041,42.2158,1,0.00350108,10,0.00320435,-1.37453,0.538215,0.109622,180.924,0.0759041,
2,1,0,1,0,1197.96,0.0794701,0.079114,42.8229,1,0.00367118,10,0.00338789,-1.36832,0.523437,0.112716,188.608,0.07911396,
2,1,0,1,0,1197.96,0.0826662,0.0822846,43.4488,1,0.00384377,10,0.00357516,-1.36202,0.49868,0.118312,200.81,0.0822846,
2,1,0,1,0,1197.96,0.0858624,0.0854679,44.0899,1,0.0040189,10,0.00376827,-1.35566,0.482324,0.122325,210.797,0.08546792,
2,1,0,1,0,1197.97,0.0890668,0.0887234,44.79,1,0.00419674,10,0.00397392,-1.34882,0.469674,0.125619,219.852,0.0887234,
2,1,0,1,0,1197.97,0.092263,0.0918897,45.516,1,0.00437741,10,0.00418246,-1.34184,0.458708,0.128622,228.622,0.0918897,
2,1,0,1,0,1197.98,0.0954674,0.0951176,46.2701,1,0.00456105,10,0.0044011,-1.3347,0.453432,0.130119,234.983,0.0951176,
2,1,0,1,0,1197.98,0.0986636,0.0983328,47.0311,1,0.00474773,10,0.0046247,-1.32761,0.45284,0.130289,239.104,0.0983328,
2,1,0,1,0,1197.98,0.10186,0.101487,47.7893,1,0.00493746,10,0.00485002,-1.32067,0.456101,0.129357,241.237,0.101487,
2,1,0,1,0,1197.99,0.105067,0.104638,48.5642,1,0.00513025,10,0.00508166,-1.31368,0.441859,0.133527,253.384,0.104638,
2,1,0,1,0,1197.99,0.108263,0.107811,49.3322,1,0.00532609,10,0.00531853,-1.30687,0.434377,0.135827,262.127,0.107811,
2,1,0,1,0,1198,0.111465,0.111043,50.2516,1,0.00552535,10,0.00558008,-1.29885,0.427928,0.137874,270.573,0.111043,
2,1,0,1,0,1198,0.114666,0.1143,51.148,1,0.00572824,10,0.00584623,-1.29117,0.422571,0.139622,278.494,0.1143,
2,1,0,1,0,1198,0.117863,0.117507,52.0462,1,0.00593471,10,0.0061158,-1.28361,0.432641,0.136372,276.83,0.117507,
2,1,0,1,0,1198.01,0.12107,0.120724,52.9285,1,0.00614473,10,0.00638976,-1.27631,0.436654,0.135118,279.045,0.120724,
2,1,0,1,0,1198.01,0.124266,0.123927,53.8183,1,0.00635828,10,0.00666952,-1.26907,0.436533,0.135156,284.024,0.123927,
2,1,0,1,0,1198.02,0.127462,0.127125,54.7266,1,0.00657546,10,0.00695711,-1.2618,0.435637,0.135434,289.434,0.127125,
2,1,0,1,0,1198.02,0.130667,0.130327,55.6875,1,0.00679637,10,0.0072576,-1.25424,0.432558,0.136398,296.493,0.130327,
2,1,0,1,0,1198.02,0.133863,0.13352,56.6321,1,0.00702112,10,0.00756153,-1.24694,0.428625,0.137649,304.334,0.13352,
2,1,0,1,0,1198.03,0.137067,0.136756,57.6219,1,0.0072497,10,0.00788012,-1.23941,0.425511,0.138657,312.018,0.136756,
2,1,0,1,0,1198.03,0.140263,0.139923,58.6215,1,0.00748229,10,0.00820249,-1.23194,0.417256,0.1414,323.847,0.139923,
2,1,0,1,0,1198.04,0.143459,0.143119,59.6787,1,0.007719,10,0.00854116,-1.22418,0.410124,0.143859,335.375,0.143119,
2,1,0,1,0,1198.04,0.146667,0.146349,60.7867,1,0.00796006,10,0.00889607,-1.21619,0.40585,0.145374,344.954,0.146349,
2,1,0,1,0,1198.04,0.149863,0.14951,61.8995,1,0.00820554,10,0.0092546,-1.20831,0.402564,0.14656,354.138,0.1495101,
2,1,0,1,0,1198.05,0.153064,0.152715,63.034,1,0.00845552,10,0.00962622,-1.20043,0.401197,0.14706,361.926,0.152715,
2,1,0,1,0,1198.05,0.156266,0.155901,64.2054,1,0.00871013,10,0.0100097,-1.19243,0.403095,0.146367,366.896,0.155901,
2,1,0,1,0,1198.06,0.159462,0.159073,65.3917,1,0.00896945,10,0.010402,-1.18448,0.405207,0.145604,371.536,0.159073,
2,1,0,1,0,1198.06,0.16267,0.16237,66.6176,1,0.00923356,10,0.0108167,-1.17641,0.411718,0.143302,372.238,0.16237,
2,1,0,1,0,1198.06,0.165866,0.165513,67.7889,1,0.00950249,10,0.0112199,-1.16884,0.423372,0.139357,368.358,0.1655127,
2,1,0,1,0,1198.07,0.169062,0.168698,68.9689,1,0.0097761,10,0.0116349,-1.16135,0.435525,0.135469,364.35,0.168698,
2,1,0,1,0,1198.07,0.172266,0.171914,70.122,1,0.0100544,10,0.012055,-1.15415,0.447938,0.131715,360.149,0.171914,
2,1,0,1,0,1198.08,0.175462,0.175126,71.2655,1,0.0103373,10,0.0124805,-1.14712,0.469638,0.125629,348.992,0.175126,
2,1,0,1,0,1198.08,0.178667,0.178277,72.3859,1,0.0106247,10,0.0129047,-1.14035,0.494394,0.119338,336.482,0.178277,
2,1,0,1,0,1198.08,0.181863,0.181508,73.4394,1,0.0109165,10,0.0133298,-1.13407,0.525815,0.112207,320.957,0.181508,
2,1,0,1,0,1198.09,0.185059,0.184671,74.4144,1,0.0112124,10,0.0137422,-1.12834,0.579179,0.101868,295.25,0.184671,
2,1,0,1,0,1198.09,0.188266,0.18788,75.3588,1,0.0115121,10,0.0141584,-1.12287,0.636782,0.0926534,271.799,0.18788,
2,1,0,1,0,1198.1,0.191463,0.191118,76.1774,1,0.0118153,10,0.0145589,-1.11817,0.731079,0.0807026,239.185,0.191118,
2,1,0,1,0,1198.1,0.194664,0.194313,76.9199,1,0.0121216,10,0.0149466,-1.11396,0.90508,0.0651876,194.879,0.194313,
2,1,0,1,0,1198.1,0.197866,0.197532,77.4905,1,0.0124305,10,0.0153068,-1.11075,1.23069,0.0479405,144.253,0.197532,
2,1,0,1,0,1198.11,0.201062,0.2007,77.8572,1,0.0127413,10,0.015626,-1.1087,2.19321,0.0269013,81.3026,0.2007,
2,1,0,1,0,1198.11,0.204269,0.203968,78.031,1,0.0130532,10,0.0159159,-1.10773,25.7008,0.00229565,6.94653,0.203968,
2,1,0,1,0,1198.12,0.207465,0.20715,77.9635,1,0.0133652,10,0.0161501,-1.10811,-2.35195,-0.0250856,-75.7448,0.20715,
2,1,0,1,0,1198.12,0.210662,0.210381,77.5797,1,0.0136763,10,0.0163213,-1.11025,-1.00894,-0.0584771,-175.516,0.210381,
2,1,0,1,0,1198.12,0.213866,0.213572,76.8822,1,0.0139853,10,0.0164199,-1.11417,-0.632406,-0.0932944,-277.321,0.213572,
2,1,0,1,0,1198.13,0.217062,0.216714,75.7939,1,0.0142907,10,0.0164256,-1.12037,-0.446371,-0.132177,-387.271,0.216714,
2,1,0,1,0,1198.13,0.220267,0.22001,74.397,1,0.0145909,10,0.0163681,-1.12844,-0.342922,-0.172051,-494.68,0.22001,
2,1,0,1,0,1198.14,0.223463,0.223175,72.6247,1,0.0148849,10,0.016208,-1.13892,-0.281187,-0.209825,-589.047,0.223175,
2,1,0,1,0,1198.14,0.226659,0.226367,70.5529,1,0.0151712,10,0.0159709,-1.15149,-0.23466,-0.251427,-686.058,0.226367,
2,1,0,1,0,1198.14,0.229866,0.229596,68.2059,1,0.0154486,10,0.0156598,-1.16618,-0.204766,-0.288134,-760.574,0.229596,
2,1,0,1,0,1198.15,0.233062,0.232802,65.6211,1,0.015716,10,0.0152767,-1.18296,-0.18442,-0.319922,-813.724,0.232802,
2,1,0,1,0,1198.15,0.236264,0.235984,62.8827,1,0.0159728,10,0.0148393,-1.20147,-0.168284,-0.350598,-856.107,0.235984,
2,1,0,1,0,1198.16,0.239466,0.239245,60.0741,1,0.0162185,10,0.0143724,-1.22131,-0.15833,-0.372639,-870.925,0.239245,
2,1,0,1,0,1198.16,0.242662,0.242393,57.2503,1,0.0164528,10,0.0138771,-1.24222,-0.152012,-0.388127,-865.824,0.242393,
2,1,0,1,0,1198.16,0.245869,0.245576,54.4962,1,0.016676,10,0.0133829,-1.26363,-0.148051,-0.398512,-847.485,0.245576,
2,1,0,1,0,1198.17,0.249065,0.24879,51.7954,1,0.0168883,10,0.0128862,-1.28571,-0.148211,-0.398082,-806.457,0.24879,
2,1,0,1,0,1198.17,0.252261,0.251998,49.2656,1,0.0170901,10,0.0124149,-1.30746,-0.149962,-0.393432,-759.614,0.251998,
2,1,0,1,0,1198.18,0.255466,0.255214,46.9113,1,0.0172822,10,0.0119724,-1.32872,-0.154946,-0.380778,-700.944,0.255214,
2,1,0,1,0,1198.18,0.258662,0.258384,44.7666,1,0.0174653,10,0.011567,-1.34905,-0.161488,-0.365351,-642.113,0.258384,
2,1,0,1,0,1198.18,0.261866,0.261588,42.8247,1,0.0176402,10,0.0112024,-1.36831,-0.16973,-0.347611,-584.374,0.261588,
2,1,0,1,0,1198.19,0.265063,0.264791,41.0513,1,0.0178078,10,0.01087,-1.38667,-0.181608,-0.324876,-523.947,0.264791,
2,1,0,1,0,1198.19,0.268259,0.267972,39.4554,1,0.0179686,10,0.010573,-1.40389,-0.194381,-0.303528,-470.899,0.267972,
2,1,0,1,0,1198.2,0.271466,0.271178,38.0633,1,0.0181234,10,0.0103219,-1.41949,-0.213075,-0.276898,-414.346,0.271178,
2,1,0,1,0,1198.2,0.274662,0.274316,36.8311,1,0.0182731,10,0.0101033,-1.43379,-0.233213,-0.252988,-365.943,0.274316,
2,1,0,1,0,1198.2,0.277869,0.277572,35.7555,1,0.0184181,10,0.00992473,-1.44666,-0.254206,-0.232095,-325.572,0.277572,
2,1,0,1,0,1198.21,0.281065,0.280774,34.7709,1,0.018559,10,0.00976274,-1.45878,-0.28034,-0.210459,-287.129,0.280774,
2,1,0,1,0,1198.21,0.284262,0.283956,33.9032,1,0.0186963,10,0.00962702,-1.46976,-0.306232,-0.192665,-256.334,0.283956,
2,1,0,1,0,1198.22,0.287469,0.287138,33.1494,1,0.0188303,10,0.00951846,-1.47952,-0.338739,-0.174175,-226.371,0.2871381,
2,1,0,1,0,1198.22,0.290665,0.290353,32.4793,1,0.0189614,10,0.00943046,-1.48839,-0.377197,-0.156417,-199.09,0.290353,
2,1,0,1,0,1198.22,0.293861,0.293565,31.8752,1,0.0190901,10,0.00935745,-1.49655,-0.413759,-0.142595,-178.337,0.293565,
2,1,0,1,0,1198.23,0.297066,0.296742,31.3576,1,0.0192165,10,0.00930512,-1.50366,-0.431967,-0.136584,-168.841,0.296742,
2,1,0,1,0,1198.23,0.299637,0.299374,30.9673,1,0.0193162,10,0.0092708,-1.5091,-0.0906091,-0.651149,-757.474,0.299374,
2,1,0,0,0,1198.23,0.300012,0.299804,30.8836,1,0.0193317,10,0.00925903,-1.51027,0.00544033,10.8449,10570,0.299804,
2,1,0,1,0,1198.23,0.298983,0.298904,27.831,1,0.0193686,10,0.00831879,-1.55547,0.0186424,3.16483,2568.41,0.298904,
2,1,0,1,0,1198.24,0.295787,0.295622,19.5217,1,0.0194618,10,0.00577104,-1.70948,0.0181858,3.24428,2150.01,0.295622,
2,1,0,1,0,1198.24,0.292579,0.292433,13.1388,1,0.0195261,10,0.0038422,-1.88145,0.015116,3.90314,1854.57,0.292433,
2,1,0,1,0,1198.24,0.289383,0.289183,8.04814,1,0.0195677,10,0.00232738,-2.0943,0.00790442,7.46418,1479.89,0.2891826,
2,1,0,1,0,1198.25,0.286187,0.285999,3.89754,1,0.0195909,10,0.00111469,-2.40921,0.017323,3.40587,1200.51,0.285999,
2,1,0,1,0,1198.25,0.282983,0.282741,0.457947,1,0.0195991,10,0.00012948,-3.33919,0.0553757,1.06545,996.725,0.282741,
2,0,0,1,0,1198.26,0.279786,0.279521,-2.36165,1,0.0195949,10,-0.000660132,-2.62678,-0.0549404,-1.07389,821.965,0.279521,
2,0,0,1,0,1198.26,0.276582,0.276369,-4.72384,1,0.0195804,10,-0.00130552,-2.3257,-0.0101347,-5.82159,691.02,0.276369,
2,0,0,1,0,1198.26,0.273386,0.273124,-6.68565,1,0.0195573,10,-0.00182601,-2.17486,-0.0206757,-2.85359,582.729,0.2731238,
2,0,0,1,0,1198.27,0.27019,0.269944,-8.38502,1,0.0195269,10,-0.00226348,-2.0765,-0.0349311,-1.68904,490.658,0.269944,
2,0,0,1,0,1198.27,0.266982,0.266728,-9.81637,1,0.0194903,10,-0.00261831,-2.00805,-0.049542,-1.19091,424.473,0.266728,
2,0,0,1,0,1198.28,0.263786,0.263479,-11.048,1,0.0194484,10,-0.00291093,-1.95671,-0.066707,-0.884465,364.167,0.263479,
2,0,0,1,0,1198.28,0.260585,0.260333,-12.1149,1,0.0194019,10,-0.00315392,-1.91668,-0.0853747,-0.691071,316.258,0.260333,
2,0,0,1,0,1198.28,0.257383,0.257109,-13.0591,1,0.0193514,10,-0.00335762,-1.88409,-0.104774,-0.563117,280.203,0.257109,
2,0,0,1,0,1198.29,0.254187,0.253915,-13.8689,1,0.0192974,10,-0.00352151,-1.85796,-0.128123,-0.460495,244.949,0.253915,
2,0,0,1,0,1198.29,0.25098,0.250738,-14.6183,1,0.0192403,10,-0.00366537,-1.8351,-0.151625,-0.389118,218.895,0.250738,
2,0,0,1,0,1198.3,0.247783,0.247469,-15.2659,1,0.0191805,10,-0.00377784,-1.81628,-0.175726,-0.33575,197.87,0.247469,
2,0,0,1,0,1198.3,0.244587,0.244314,-15.8599,1,0.0191182,10,-0.00387478,-1.7997,-0.203452,-0.289995,178.058,0.244314,
2,0,0,1,0,1198.3,0.241383,0.241105,-16.4035,1,0.0190535,10,-0.00395497,-1.78506,-0.227892,-0.258894,164.642,0.241105,
2,0,0,1,0,1198.31,0.238187,0.237909,-16.9026,1,0.0189869,10,-0.00402128,-1.77205,-0.25542,-0.230992,151.58,0.237909,
2,0,0,1,0,1198.31,0.234982,0.234694,-17.3693,1,0.0189183,10,-0.00407647,-1.76022,-0.282864,-0.208581,140.738,0.234694,
2,0,0,1,0,1198.32,0.231786,0.231471,-17.8066,1,0.0188478,10,-0.0041217,-1.74942,-0.307323,-0.19198,132.914,0.231471,
2,0,0,1,0,1198.32,0.22859,0.228297,-18.2061,1,0.0187758,10,-0.00415639,-1.73978,-0.33455,-0.176356,124.958,0.228297,
2,0,0,1,0,1198.32,0.225383,0.225106,-18.6042,1,0.0187021,10,-0.00418793,-1.73039,-0.35286,-0.167205,121.18,0.225106,
2,0,0,1,0,1198.33,0.222187,0.221923,-18.9651,1,0.0186269,10,-0.00420879,-1.72205,-0.375154,-0.157269,116.257,0.221923,
2,0,0,1,0,1198.33,0.218979,0.21869,-19.3554,1,0.0185502,10,-0.00423282,-1.7132,-0.396454,-0.148819,112.178,0.21869,
2,0,0,1,0,1198.34,0.215783,0.215478,-19.6964,1,0.0184721,10,-0.00424414,-1.70561,-0.40947,-0.144089,110.581,0.215478,
2,0,0,1,0,1198.34,0.212587,0.212282,-20.0428,1,0.0183926,10,-0.00425473,-1.69804,-0.424087,-0.139123,108.819,0.212282,
2,0,0,1,0,1198.34,0.20938,0.209117,-20.3812,1,0.0183117,10,-0.00426206,-1.69077,-0.43679,-0.135076,107.417,0.209117,
2,0,0,1,0,1198.35,0.206184,0.205921,-20.7449,1,0.0182294,10,-0.00427181,-1.68309,-0.439489,-0.134247,108.62,0.205921,
2,0,0,1,0,1198.35,0.202988,0.202668,-21.0724,1,0.0181457,10,-0.0042707,-1.67629,-0.445767,-0.132356,108.841,0.202668,
2,0,0,1,0,1198.36,0.199783,0.199448,-21.4369,1,0.0180607,10,-0.00427554,-1.66884,-0.447951,-0.131711,110.232,0.199448,
2,0,0,1,0,1198.36,0.196587,0.196303,-21.7759,1,0.0179742,10,-0.00427467,-1.66202,-0.439603,-0.134212,114.151,0.196303,
2,0,0,1,0,1198.36,0.193382,0.193081,-22.1602,1,0.0178863,10,-0.00427872,-1.65443,-0.437087,-0.134985,116.808,0.193081,
2,0,0,1,0,1198.37,0.190186,0.189894,-22.5306,1,0.0177969,10,-0.00427842,-1.64723,-0.42462,-0.138948,122.282,0.189894,
2,0,0,1,0,1198.37,0.18699,0.186702,-22.9257,1,0.0177059,10,-0.00428027,-1.63968,-0.417568,-0.141294,126.611,0.186702,
2,0,0,1,0,1198.38,0.183783,0.183494,-23.3422,1,0.0176133,10,-0.00428315,-1.63186,-0.40029,-0.147393,134.495,0.183494,
2,0,0,1,0,1198.38,0.180587,0.180286,-23.7802,1,0.017519,10,-0.00428724,-1.62378,-0.380142,-0.155205,144.375,0.180286,
2,0,0,1,0,1198.38,0.17738,0.177089,-24.2527,1,0.0174229,10,-0.0042949,-1.61524,-0.36686,-0.160824,152.545,0.177089,
2,0,0,1,0,1198.39,0.174183,0.173937,-24.7687,1,0.0173248,10,-0.00430818,-1.6061,-0.343393,-0.171815,166.489,0.173937,
2,0,0,1,0,1198.39,0.170987,0.17071,-25.2924,1,0.0172247,10,-0.00431765,-1.59701,-0.328613,-0.179543,177.805,0.17071,
2,0,0,1,0,1198.4,0.16778,0.167503,-25.9085,1,0.0171222,10,-0.00433975,-1.58656,-0.311453,-0.189435,192.115,0.167503,
2,0,0,1,0,1198.4,0.164584,0.16427,-26.5321,1,0.0170173,10,-0.00435842,-1.57623,-0.288217,-0.204707,212.742,0.16427,
2,0,0,1,0,1198.4,0.161382,0.16106,-27.2425,1,0.0169097,10,-0.00438767,-1.56475,-0.273456,-0.215757,230.352,0.16106,
2,0,0,1,0,1198.41,0.158183,0.157925,-28.0121,1,0.0167991,10,-0.00442383,-1.55265,-0.254022,-0.232263,254.937,0.157925,
2,0,0,1,0,1198.41,0.154987,0.154699,-28.858,1,0.0166854,10,-0.00446429,-1.53973,-0.239936,-0.245899,278.056,0.154699,
2,0,0,1,0,1198.42,0.151783,0.15153,-29.7799,1,0.016568,10,-0.00451255,-1.52608,-0.228293,-0.258439,301.627,0.15153,
2,0,0,1,0,1198.42,0.148587,0.148346,-30.7778,1,0.0164468,10,-0.00456575,-1.51176,-0.215141,-0.274238,330.987,0.148346,
2,0,0,1,0,1198.42,0.145385,0.145096,-31.8819,1,0.0163214,10,-0.00462593,-1.49646,-0.206147,-0.286203,357.659,0.145096,
2,0,0,1,0,1198.43,0.142183,0.141913,-33.0898,1,0.0161914,10,-0.00469588,-1.48031,-0.196632,-0.300054,388.895,0.141913,
2,0,0,1,0,1198.43,0.138987,0.138693,-34.3713,1,0.0160563,10,-0.00476705,-1.4638,-0.188598,-0.312834,421.157,0.1386929,
2,0,0,1,0,1198.44,0.13578,0.135516,-35.7672,1,0.0159159,10,-0.00484703,-1.44651,-0.182918,-0.322548,451.909,0.135516,
2,0,0,1,0,1198.44,0.132584,0.132353,-37.2487,1,0.0157698,10,-0.00492997,-1.42889,-0.177304,-0.332761,485.515,0.132353,
2,0,0,1,0,1198.44,0.129388,0.129134,-38.8647,1,0.0156174,10,-0.00501877,-1.41044,-0.174536,-0.33804,513.894,0.1291344,
2,0,0,1,0,1198.45,0.12618,0.125922,-40.5715,1,0.0154583,10,-0.00510886,-1.39178,-0.174154,-0.33878,536.669,0.125922,
2,0,0,1,0,1198.45,0.122984,0.122759,-42.3228,1,0.0152924,10,-0.00519551,-1.37343,-0.175753,-0.335698,554.426,0.122759,
2,0,0,1,0,1198.46,0.119782,0.119537,-44.1267,1,0.0151193,10,-0.00527476,-1.3553,-0.178587,-0.33037,568.683,0.119537,
2,0,0,1,0,1198.46,0.116584,0.116316,-45.9714,1,0.014939,10,-0.00534722,-1.33751,-0.183821,-0.320965,575.092,0.116316,
2,0,0,1,0,1198.46,0.113387,0.113138,-47.8417,1,0.0147512,10,-0.00541272,-1.32019,-0.190007,-0.310514,578.034,0.113138,
2,0,0,1,0,1198.47,0.110183,0.109938,-49.6963,1,0.0145559,10,-0.0054635,-1.30368,-0.195795,-0.301335,583.154,0.109938,
2,0,0,1,0,1198.47,0.106987,0.106852,-51.4588,1,0.0143534,10,-0.00549848,-1.28854,-0.205733,-0.286779,575.524,0.106852,
2,0,0,1,0,1198.48,0.103785,0.103599,-53.3877,1,0.0141436,10,-0.0055309,-1.27256,-0.215259,-0.274088,569.618,0.103599,
2,0,0,1,0,1198.48,0.100583,0.100392,-55.1774,1,0.0139262,10,-0.00553937,-1.25824,-0.224834,-0.262416,563.25,0.100392,
2,0,0,1,0,1198.48,0.0973873,0.0971653,-56.9718,1,0.0137017,10,-0.00553568,-1.24434,-0.242166,-0.243635,539.937,0.0971653,
2,0,0,1,0,1198.49,0.0941801,0.0940031,-58.696,1,0.0134702,10,-0.00551761,-1.23139,-0.256179,-0.230308,525.452,0.0940031,
2,0,0,1,0,1198.49,0.0909839,0.0907498,-60.3253,1,0.013232,10,-0.00547451,-1.2195,-0.276331,-0.213512,500.976,0.0907498,
2,0,0,1,0,1198.5,0.0877878,0.0876534,-61.8709,1,0.0129874,10,-0.0054232,-1.20851,-0.29748,-0.198333,477.642,0.0876534,
2,0,0,1,0,1198.5,0.0845806,0.084363,-63.3854,1,0.0127367,10,-0.00534738,-1.19801,-0.316848,-0.186209,459.468,0.084363,
2,0,0,1,0,1198.5,0.0813844,0.0811775,-64.822,1,0.0124801,10,-0.00526209,-1.18828,-0.34453,-0.171248,431.915,0.0811775,
2,0,0,1,0,1198.51,0.0781828,0.0779274,-66.2168,1,0.0122179,10,-0.0051601,-1.17903,-0.373717,-0.157873,406.369,0.0779274,
2,0,0,1,0,1198.51,0.0749839,0.074708,-67.4623,1,0.0119503,10,-0.00503997,-1.17094,-0.41451,-0.142337,373.211,0.074708,
2,0,0,1,0,1198.52,0.0717877,0.071548,-68.593,1,0.0116781,10,-0.00490769,-1.16372,-0.469574,-0.125646,335.117,0.071548,
2,0,0,1,0,1198.52,0.0685832,0.0683614,-69.6051,1,0.0114015,10,-0.00475831,-1.15736,-0.536499,-0.109972,297.631,0.0683614,
2,0,0,1,0,1198.52,0.0653871,0.0651124,-70.5113,1,0.0111212,10,-0.00459116,-1.15174,-0.625272,-0.094359,258.644,0.06511236,
2,0,0,1,0,1198.53,0.0621854,0.0619227,-71.2676,1,0.0108375,10,-0.00441308,-1.14711,-0.757303,-0.077908,215.824,0.0619227,
2,0,0,1,0,1198.53,0.0589837,0.0587478,-71.9037,1,0.010551,10,-0.00422419,-1.14325,-0.941926,-0.0626376,175.102,0.0587478,
2,0,0,1,0,1198.54,0.0557876,0.0555093,-72.3789,1,0.0102624,10,-0.00401771,-1.14039,-1.25171,-0.0471356,132.662,0.0555093,
2,0,0,1,0,1198.54,0.0525804,0.0522708,-72.7599,1,0.00997202,10,-0.00380322,-1.13811,-1.85498,-0.0318063,89.9714,0.0522708,
2,0,0,1,0,1198.54,0.0493842,0.0490748,-72.972,1,0.0096805,10,-0.00358108,-1.13684,-3.32672,-0.0177352,50.32,0.0490748,
2,0,0,1,0,1198.55,0.0461881,0.0458692,-73.0624,1,0.0093884,10,-0.00335131,-1.13631,-17.3513,-0.00340032,9.66372,0.0458692,
2,0,0,1,0,1198.55,0.0429808,0.042689,-73.0241,1,0.00909617,10,-0.00311732,-1.13653,6.31057,0.0093494,-26.5637,0.042689,
2,0,0,1,0,1198.56,0.0397847,0.0394548,-72.8837,1,0.00880436,10,-0.00287561,-1.13737,2.90858,0.0202848,-57.5472,0.0394548,
2,0,0,1,0,1198.56,0.036583,0.0362555,-72.6315,1,0.00851334,10,-0.00263329,-1.13888,1.96389,0.0300424,-84.9784,0.0362555,
2,0,0,1,0,1198.56,0.0333841,0.0330361,-72.3239,1,0.00822345,10,-0.0023893,-1.14072,1.55539,0.0379327,-106.882,0.0330361,
2,0,0,1,0,1198.57,0.030188,0.0298857,-71.936,1,0.00793494,10,-0.00214986,-1.14305,1.32421,0.0445547,-124.898,0.0298857,
2,0,0,1,0,1198.57,0.0269835,0.0266694,-71.5172,1,0.00764805,10,-0.00190732,-1.14559,1.17228,0.0503293,-140.296,0.0266694,
2,0,0,1,0,1198.58,0.0237874,0.0234458,-71.0316,1,0.00736298,10,-0.00166539,-1.14855,1.08946,0.054155,-149.998,0.0234458,
2,0,0,1,0,1198.58,0.0205857,0.0202975,-70.5367,1,0.0070799,10,-0.00143172,-1.15158,1.01963,0.057864,-159.191,0.02029746,
2,0,0,1,0,1198.58,0.017384,0.0170791,-70.0151,1,0.00679883,10,-0.0011958,-1.15481,0.963309,0.0612472,-167.227,0.0170791,
2,0,0,1,0,1198.59,0.0141879,0.0138672,-69.4792,1,0.00651987,10,-0.000963479,-1.15815,0.911363,0.0647382,-175.353,0.0138672,
2,0,0,1,0,1198.59,0.0109806,0.0107071,-68.9013,1,0.00624315,10,-0.000737737,-1.16177,0.848209,0.0695583,-186.8,0.0107071,
2,0,0,1,0,1198.6,0.00778448,0.00745594,-68.2849,1,0.00596882,10,-0.000509128,-1.16568,0.827222,0.0713231,-189.978,0.007455938,
2,0,0,1,0,1198.6,0.00458834,0.0042726,-67.6228,1,0.00569705,10,-0.000288925,-1.16991,0.766159,0.0770075,-203.125,0.0042726,
2,0,0,1,0,1198.6,0.0013811,0.00101503,-67.0376,1,0.00542782,10,-6.80452e-05,-1.17368,0.712877,0.0827632,-216.044,0.00101503,
2,0,0,1,0,1198.61,-0.00181504,-0.00214604,-66.2905,1,0.00516122,10,0.000142262,-1.17855,0.656795,0.0898302,-231.795,-0.00214604,
2,0,0,1,0,1198.61,-0.0050195,-0.00539619,-65.5083,1,0.00489771,10,0.000353495,-1.1837,0.580876,0.101571,-259.122,-0.00539619,
2,0,0,1,0,1198.62,-0.00821564,-0.0086177,-64.6349,1,0.00463749,10,0.000557005,-1.18953,0.539977,0.109264,-275.098,-0.0086177,
2,0,0,1,0,1198.62,-0.0114118,-0.0117565,-63.7282,1,0.00438085,10,0.000749221,-1.19567,0.500434,0.117898,-292.717,-0.01175651,
2,0,0,1,0,1198.62,-0.0146162,-0.0149536,-62.7672,1,0.00412795,10,0.000938598,-1.20227,0.468601,0.125907,-307.862,-0.0149536,
2,0,0,1,0,1198.63,-0.0178124,-0.0181868,-61.7643,1,0.00387897,10,0.0011233,-1.20926,0.44714,0.13195,-317.548,-0.0181868,
2,0,0,1,0,1198.63,-0.0210196,-0.0213596,-60.7122,1,0.00363411,10,0.00129679,-1.21672,0.424596,0.138956,-328.849,-0.0213596,
2,0,0,1,0,1198.64,-0.0242158,-0.0246108,-59.6464,1,0.00339348,10,0.00146794,-1.22442,0.415859,0.141875,-330.149,-0.0246108,
2,0,0,1,0,1198.64,-0.0274119,-0.0277453,-58.5607,1,0.00315717,10,0.00162478,-1.23239,0.415335,0.142054,-324.903,-0.0277453,
2,0,0,1,0,1198.64,-0.0306191,-0.0309849,-57.539,1,0.00292508,10,0.00178284,-1.24004,0.420226,0.140401,-315.657,-0.0309849,
2,0,0,1,0,1198.65,-0.0338153,-0.0341778,-56.5475,1,0.00269701,10,0.00193267,-1.24759,0.437681,0.134801,-297.907,-0.0341778,
2,0,0,1,0,1198.65,-0.037017,-0.037377,-55.6166,1,0.0024728,10,0.00207878,-1.2548,0.454897,0.1297,-282.019,-0.037377,
2,0,0,1,0,1198.66,-0.0402187,-0.0405826,-54.7363,1,0.00225218,10,0.00222134,-1.26172,0.484699,0.121725,-260.644,-0.0405826,
2,0,0,1,0,1198.66,-0.0434148,-0.0437787,-53.9309,1,0.00203497,10,0.00236102,-1.26816,0.530405,0.111236,-234.853,-0.04377868,
2,0,0,1,0,1198.66,-0.0466193,-0.0469514,-53.2182,1,0.00182077,10,0.00249867,-1.27394,0.58487,0.100877,-210.153,-0.0469514,
2,0,0,1,0,1198.67,-0.0498154,-0.0501835,-52.6089,1,0.00160921,10,0.0026401,-1.27894,0.660672,0.089303,-183.822,-0.0501835,
2,0,0,1,0,1198.67,-0.0530115,-0.0533828,-52.0463,1,0.00139997,10,0.00277838,-1.28361,0.746163,0.0790712,-161.016,-0.05338278,
2,0,0,1,0,1198.68,-0.056216,-0.0566043,-51.5733,1,0.00119277,10,0.00291927,-1.28758,0.863154,0.068354,-137.975,-0.0566043,
2,0,0,1,0,1198.68,-0.0594121,-0.0597855,-51.1517,1,0.00098738,10,0.00305813,-1.29114,1.03372,0.0570752,-114.291,-0.0597855,
2,0,0,1,0,1198.68,-0.0626194,-0.062971,-50.8446,1,0.000783456,10,0.00320173,-1.29376,1.24414,0.0474222,-94.3328,-0.062971,
2,0,0,1,0,1198.69,-0.0658155,-0.0662073,-50.5806,1,0.000580636,10,0.00334881,-1.29602,1.6066,0.0367235,-72.6419,-0.0662073,
2,0,0,1,0,1198.69,-0.0690117,-0.0693366,-50.3722,1,0.000378759,10,0.00349264,-1.29781,2.05024,0.0287771,-56.6939,-0.0693366,
2,0,0,1,0,1198.7,-0.0722189,-0.0725942,-50.2212,1,0.00017758,10,0.00364577,-1.29911,2.82559,0.0208806,-41.0051,-0.0725942,
2,0,0,1,0,1198.7,-0.075415,-0.0757796,-50.1184,1,-2.30572e-05,10,0.00379796,-1.3,4.99578,0.01181,-23.1483,-0.0757796,
2,0,0,1,0,1198.7,-0.0786167,-0.0789471,-50.0582,1,-0.000223384,10,0.00395195,-1.30052,11.5071,0.00512728,-10.0365,-0.0789471,
2,0,0,1,0,1198.71,-0.0818184,-0.0821728,-50.0751,1,-0.000423646,10,0.00411481,-1.30038,-22.5397,-0.0026176,5.12328,-0.0821728,
2,0,0,1,0,1198.71,-0.0850146,-0.0853742,-50.0929,1,-0.00062397,10,0.00427665,-1.30022,-7.02846,-0.00839444,16.434,-0.0853742,
2,0,0,1,0,1198.72,-0.088219,-0.0885798,-50.184,1,-0.000824495,10,0.00444529,-1.29943,-4.58268,-0.0128746,25.2415,-0.0885798,
2,0,0,1,0,1198.72,-0.0914152,-0.0917791,-50.2691,1,-0.00102538,10,0.00461365,-1.2987,-3.02407,-0.0195101,38.3284,-0.0917791,
2,0,0,1,0,1198.72,-0.0946141,-0.0949762,-50.3982,1,-0.0012267,10,0.00478663,-1.29758,-2.48865,-0.0237077,46.7081,-0.0949762,
2,0,0,1,0,1198.73,-0.0978158,-0.098185,-50.584,1,-0.0014287,10,0.00496659,-1.29599,-2.01514,-0.0292783,57.8613,-0.09818498,
2,0,0,1,0,1198.73,-0.101012,-0.10138,-50.7819,1,-0.00163145,10,0.00514827,-1.29429,-1.75721,-0.0335759,66.598,-0.10138,
2,0,0,1,0,1198.74,-0.104219,-0.104569,-51.0091,1,-0.00183506,10,0.00533395,-1.29235,-1.61695,-0.0364884,72.6902,-0.104569,
2,0,0,1,0,1198.74,-0.107415,-0.107801,-51.2523,1,-0.00203959,10,0.00552504,-1.29029,-1.41591,-0.0416692,83.45,-0.107801,
2,0,0,1,0,1198.74,-0.110611,-0.11092,-51.5097,1,-0.00224514,10,0.00571348,-1.28811,-1.3077,-0.0451173,90.8336,-0.11092,
2,0,0,1,0,1198.75,-0.113819,-0.11421,-51.8525,1,-0.00245192,10,0.00592207,-1.28523,-1.20271,-0.0490557,99.3284,-0.11421,
2,0,0,1,0,1198.75,-0.117015,-0.11734,-52.1692,1,-0.00265999,10,0.00612154,-1.28259,-1.12748,-0.0523289,106.587,-0.11734,
2,0,0,1,0,1198.76,-0.120216,-0.120538,-52.5175,1,-0.0028694,10,0.00633038,-1.2797,-1.08516,-0.0543699,111.523,-0.120538,
2,0,0,1,0,1198.76,-0.123418,-0.123773,-52.8796,1,-0.00308022,10,0.00654504,-1.27671,-1.02097,-0.0577881,119.373,-0.123773,
2,0,0,1,0,1198.76,-0.126614,-0.126929,-53.2711,1,-0.00329255,10,0.00676166,-1.27351,-0.973572,-0.0606016,126.108,-0.126929,
2,0,0,1,0,1198.77,-0.129819,-0.13015,-53.6983,1,-0.00350653,10,0.00698883,-1.27004,-0.935108,-0.0630943,132.279,-0.13015,
2,0,0,1,0,1198.77,-0.133015,-0.133336,-54.1315,1,-0.00372223,10,0.00721769,-1.26655,-0.909803,-0.0648492,137.036,-0.1333364,
2,0,0,1,0,1198.78,-0.136214,-0.136548,-54.5696,1,-0.00393968,10,0.00745138,-1.26305,-0.895972,-0.0658503,140.287,-0.136548,
2,0,0,1,0,1198.78,-0.139416,-0.139771,-55.0308,1,-0.00415892,10,0.00769171,-1.25939,-0.873247,-0.0675639,145.181,-0.139771,
2,0,0,1,0,1198.78,-0.142612,-0.142903,-55.4875,1,-0.00438001,10,0.00792935,-1.2558,-0.858158,-0.0687519,148.966,-0.1429034,
2,0,0,1,0,1198.79,-0.145819,-0.146193,-55.998,1,-0.00460302,10,0.0081865,-1.25183,-0.845439,-0.0697862,152.508,-0.146193,
2,0,0,1,0,1198.79,-0.149015,-0.149362,-56.4784,1,-0.00482803,10,0.00843574,-1.24812,-0.842005,-0.0700708,154.443,-0.149362,
2,0,0,1,0,1198.8,-0.152211,-0.152506,-56.9731,1,-0.00505501,10,0.00868876,-1.24433,-0.843763,-0.0699249,155.506,-0.152506,
2,0,0,1,0,1198.8,-0.155418,-0.155785,-57.477,1,-0.00528399,10,0.00895407,-1.24051,-0.837958,-0.0704092,157.953,-0.155785,
2,0,0,1,0,1198.8,-0.158615,-0.158945,-57.9811,1,-0.00551495,10,0.00921581,-1.23671,-0.828547,-0.071209,161.182,-0.158945,
2,0,0,1,0,1198.81,-0.161816,-0.162149,-58.498,1,-0.00574797,10,0.00948538,-1.23286,-0.831921,-0.0709202,161.92,-0.162149,
2,0,0,1,0,1198.81,-0.165018,-0.16531,-59.0368,1,-0.00598309,10,0.00975935,-1.22888,-0.831233,-0.0709789,163.487,-0.1653098,
2,0,0,1,0,1198.82,-0.168214,-0.168513,-59.5379,1,-0.00622032,10,0.0100329,-1.22521,-0.842091,-0.0700637,162.778,-0.168513,
2,0,0,1,0,1198.82,-0.171419,-0.171716,-60.0689,1,-0.00645958,10,0.0103148,-1.22135,-0.852806,-0.0691834,162.192,-0.171716,
2,0,0,1,0,1198.82,-0.174615,-0.174909,-60.5751,1,-0.00670091,10,0.0105951,-1.21771,-0.843757,-0.0699253,165.345,-0.174909,
2,0,0,1,0,1198.83,-0.177814,-0.178136,-61.1171,1,-0.00694434,10,0.0108872,-1.21384,-0.854378,-0.0690561,164.718,-0.178136,
2,0,0,1,0,1198.83,-0.181015,-0.181301,-61.6523,1,-0.00718996,10,0.0111776,-1.21005,-0.853728,-0.0691087,166.237,-0.181301,
2,0,0,1,0,1198.84,-0.184211,-0.184537,-62.1808,1,-0.0074377,10,0.0114747,-1.20634,-0.856236,-0.0689063,167.216,-0.184537,
2,0,0,1,0,1198.84,-0.187419,-0.18774,-62.708,1,-0.00768754,10,0.0117728,-1.20268,-0.86138,-0.0684948,167.663,-0.18774,
2,0,0,1,0,1198.84,-0.190615,-0.190928,-63.2561,1,-0.00793954,10,0.0120774,-1.1989,-0.854053,-0.0690824,170.578,-0.190928,
2,0,0,1,0,1198.85,-0.193811,-0.194128,-63.803,1,-0.00819372,10,0.012386,-1.19516,-0.854182,-0.0690719,171.851,-0.194128,
2,0,0,1,0,1198.85,-0.197018,-0.197372,-64.3702,1,-0.00845016,10,0.0127049,-1.19132,-0.902883,-0.0653462,163.315,-0.197372,
2,0,0,1,0,1198.86,-0.199647,-0.199945,-64.8056,1,-0.00866332,10,0.0129576,-1.18839,0.338387,0.174357,-426.409,-0.199945,
2,0,0,0,0,1198.86,-0.200134,-0.200551,-64.8277,1,-0.00870223,10,0.0130013,-1.18824,-0.0139702,-4.22328,9673.3,-0.200551,
2,0,0,1,1,1198.86,-0.198935,-0.199435,-61.5404,1,-0.00879602,10,0.0122733,-1.21084,-0.0480492,-1.22791,2642.02,-0.199435,
2,0,0,1,1,1198.86,-0.195739,-0.196233,-53.3535,1,-0.00902449,10,0.0104697,-1.27284,-0.0524789,-1.12426,2266.53,-0.196233,
2,0,0,1,1,1198.87,-0.192535,-0.193007,-46.4733,1,-0.00922317,10,0.00896965,-1.3328,-0.0521443,-1.13148,2074.49,-0.193007,
2,0,0,1,1,1198.87,-0.189339,-0.189776,-40.404,1,-0.00939615,10,0.00766769,-1.39358,-0.0510793,-1.15507,1825.35,-0.189776,
2,0,0,1,1,1198.87,-0.186137,-0.186602,-34.9183,1,-0.00954609,10,0.00651582,-1.45695,-0.0485466,-1.21533,1650.46,-0.1866017,
2,0,0,1,1,1198.88,-0.182935,-0.183377,-29.8861,1,-0.00967507,10,0.00548042,-1.52453,-0.0450817,-1.30873,1513.1,-0.183377,
2,0,0,1,1,1198.88,-0.179739,-0.180155,-25.2631,1,-0.0097848,10,0.00455129,-1.59751,-0.0411491,-1.43381,1392.23,-0.1801555,
2,0,0,1,1,1198.89,-0.176532,-0.176923,-20.9575,1,-0.00987674,10,0.00370787,-1.67866,-0.036241,-1.62799,1299.12,-0.176923,
2,0,0,1,1,1198.89,-0.173336,-0.173717,-16.9795,1,-0.00995213,10,0.00294962,-1.77008,-0.0308593,-1.9119,1214.4,-0.173717,
2,0,0,1,1,1198.89,-0.17014,-0.170565,-13.2419,1,-0.0100121,10,0.00225861,-1.87805,-0.0247842,-2.38055,1140.74,-0.170565,
2,0,0,1,1,1198.9,-0.166932,-0.16736,-9.72372,1,-0.0100576,10,0.00162736,-2.01217,-0.0178783,-3.30009,1074.14,-0.16736,
2,0,0,1,1,1198.9,-0.163736,-0.164169,-6.40788,1,-0.0100895,10,0.00105197,-2.19329,-0.00816134,-7.22921,1008.29,-0.164169,
2,0,0,1,1,1198.91,-0.160532,-0.160971,-3.28842,1,-0.0101086,10,0.000529339,-2.48301,-0.0209451,-2.81689,954.928,-0.1609706,
2,0,0,1,1,1198.91,-0.157336,-0.157789,-0.360202,1,-0.0101155,10,5.68361e-05,-3.44345,-0.12612,-0.467808,898.042,-0.157789,
2,1,0,1,1,1198.91,-0.154139,-0.154657,2.40636,1,-0.0101111,10,-0.00037216,-2.61864,0.035193,1.67647,850.934,-0.154657,
2,1,0,1,1,1198.92,-0.150935,-0.151383,5.07388,1,-0.0100959,10,-0.000768101,-2.29466,0.00886071,6.65861,808.625,-0.151383,
2,1,0,1,1,1198.92,-0.147739,-0.148186,7.59012,1,-0.0100702,10,-0.00112475,-2.11975,0.0181285,3.25454,767.168,-0.148186,
2,1,0,1,1,1198.93,-0.144532,-0.145009,9.97404,1,-0.0100349,10,-0.00144633,-2.00113,0.028111,2.09883,732.945,-0.145009,
2,1,0,1,1,1198.93,-0.141335,-0.141862,12.2222,1,-0.00999021,10,-0.00173386,-1.91285,0.0377997,1.56086,699.563,-0.141862,
2,1,0,1,1,1198.93,-0.138139,-0.138631,14.4207,1,-0.00993668,10,-0.00199916,-1.84101,0.047924,1.23111,663.203,-0.138631,
2,1,0,1,1,1198.94,-0.134932,-0.135414,16.5254,1,-0.00987454,10,-0.00223776,-1.78185,0.057971,1.01775,633.98,-0.135414,
2,1,0,1,1,1198.94,-0.131736,-0.132145,18.5061,1,-0.00980426,10,-0.00244547,-1.73269,0.0686693,0.85919,604.839,-0.132145,
2,1,0,1,1,1198.95,-0.12854,-0.128971,20.395,1,-0.00972622,10,-0.00263036,-1.69048,0.0800449,0.737086,575.183,-0.128971,
2,1,0,1,1,1198.95,-0.125333,-0.125745,22.2147,1,-0.00964079,10,-0.00279339,-1.65336,0.0915533,0.644434,549.342,-0.125745,
2,1,0,1,1,1198.95,-0.122136,-0.122558,23.9195,1,-0.00954833,10,-0.00293154,-1.62125,0.103919,0.567751,522.573,-0.122558,
2,1,0,1,1,1198.96,-0.118932,-0.119308,25.5575,1,-0.00944921,10,-0.00304923,-1.59248,0.117371,0.502679,495.405,-0.119308,
2,1,0,1,1,1198.96,-0.115736,-0.116159,27.0902,1,-0.00934374,10,-0.00314676,-1.56719,0.130941,0.450586,471.665,-0.116159,
2,1,0,1,1,1198.97,-0.11254,-0.112946,28.5555,1,-0.0092323,10,-0.00322522,-1.54431,0.145701,0.404938,447.532,-0.112946,
2,1,0,1,1,1198.97,-0.109335,-0.109772,29.9504,1,-0.0091151,10,-0.00328772,-1.5236,0.161182,0.366047,424.789,-0.109772,
2,1,0,1,1,1198.97,-0.106139,-0.10654,31.2718,1,-0.00899249,10,-0.00333169,-1.50485,0.17698,0.33337,404.328,-0.10654,
2,1,0,1,1,1198.98,-0.102932,-0.103312,32.5473,1,-0.00886471,10,-0.00336253,-1.48748,0.19404,0.30406,383.896,-0.103312,
2,1,0,1,1,1198.98,-0.0997357,-0.100115,33.7434,1,-0.00873199,10,-0.00337821,-1.47181,0.211827,0.278529,364.853,-0.100115,
2,1,0,1,1,1198.99,-0.0965395,-0.096939,34.877,1,-0.00859459,10,-0.00338094,-1.45746,0.231158,0.255236,345.818,-0.096939,
2,1,0,1,1,1198.99,-0.0933323,-0.0936708,35.9671,1,-0.00845278,10,-0.00336907,-1.44409,0.249858,0.236134,330.044,-0.0936708,
2,1,0,1,1,1198.99,-0.0901362,-0.0904917,36.9808,1,-0.00830676,10,-0.00334646,-1.43202,0.270847,0.217835,313.27,-0.0904917,
2,1,0,1,1,1199,-0.0869345,-0.0873169,37.9673,1,-0.00815675,10,-0.00331518,-1.42059,0.29253,0.201689,297.776,-0.0873169,
2,1,0,1,1,1199,-0.0837328,-0.0841155,38.8942,1,-0.00800291,10,-0.0032716,-1.41012,0.316088,0.186657,282.334,-0.0841155,
2,1,0,1,1,1199.01,-0.0805366,-0.0809417,39.7575,1,-0.00784551,10,-0.00321804,-1.40058,0.344503,0.171261,264.977,-0.0809417,
2,1,0,1,1,1199.01,-0.0773322,-0.0777075,40.5903,1,-0.00768473,10,-0.00315417,-1.39158,0.37109,0.158991,251.15,-0.0777075,
2,1,0,1,1,1199.01,-0.074136,-0.0744722,41.3708,1,-0.00752073,10,-0.00308098,-1.38331,0.400388,0.147357,237.299,-0.0744722,
2,1,0,1,1,1199.02,-0.0709371,-0.0713514,42.0999,1,-0.00735371,10,-0.00300389,-1.37572,0.432222,0.136504,223.765,-0.0713514,
2,1,0,1,1,1199.02,-0.0677354,-0.0680949,42.8061,1,-0.0071838,10,-0.00291487,-1.36849,0.462271,0.127631,212.757,-0.0680949,
2,1,0,1,1,1199.03,-0.0645393,-0.0649338,43.4486,1,-0.00701121,10,-0.00282128,-1.36202,0.502676,0.117372,198.629,-0.0649338,
2,1,0,1,1,1199.03,-0.0613321,-0.0617165,44.0847,1,-0.00683609,10,-0.00272075,-1.35571,0.541881,0.10888,186.938,-0.0617165,
2,1,0,1,1,1199.03,-0.0581359,-0.058512,44.6502,1,-0.00665853,10,-0.00261257,-1.35018,0.580159,0.101696,176.911,-0.058512,
2,1,0,1,1,1199.04,-0.0549398,-0.0552767,45.2023,1,-0.00647875,10,-0.00249863,-1.34484,0.632524,0.0932771,164.29,-0.05527667,
2,1,0,1,1,1199.04,-0.0517325,-0.0520965,45.7196,1,-0.00629682,10,-0.00238183,-1.3399,0.675177,0.0873844,155.639,-0.0520965,
2,1,0,1,1,1199.05,-0.0485364,-0.0488835,46.193,1,-0.00611294,10,-0.00225808,-1.33542,0.73568,0.0801979,144.343,-0.0488835,
2,1,0,1,1,1199.05,-0.0453347,-0.045733,46.6391,1,-0.00592723,10,-0.00213295,-1.33125,0.810338,0.0728091,132.303,-0.045733,
2,1,0,1,1,1199.05,-0.042133,-0.0425062,47.0456,1,-0.00573981,10,-0.00199973,-1.32748,0.866748,0.0680705,124.823,-0.0425062,
2,1,0,1,1,1199.06,-0.0389369,-0.0393038,47.4121,1,-0.00555083,10,-0.00186348,-1.32411,0.966979,0.0610148,112.777,-0.0393038,
2,1,0,1,1,1199.06,-0.0357324,-0.0360992,47.7888,1,-0.0053604,10,-0.00172514,-1.32067,1.05978,0.0556718,103.649,-0.03609921,
2,1,0,1,1,1199.07,-0.0325363,-0.0328629,48.0905,1,-0.00516859,10,-0.00158039,-1.31794,1.1646,0.0506614,94.9332,-0.0328629,
2,1,0,1,1,1199.07,-0.0293374,-0.029723,48.3706,1,-0.00497564,10,-0.00143772,-1.31542,1.34036,0.0440181,83.0064,-0.029723,
2,1,0,1,1,1199.07,-0.0261357,-0.0265481,48.6231,1,-0.00478158,10,-0.00129085,-1.31316,1.47838,0.0399087,75.6481,-0.0265481,
2,1,0,1,1,1199.08,-0.0229395,-0.02328,48.8529,1,-0.0045866,10,-0.00113729,-1.31111,1.70936,0.0345158,65.722,-0.02328,
2,1,0,1,1,1199.08,-0.0197323,-0.0201475,49.0524,1,-0.00439077,10,-0.000988284,-1.30934,2.02819,0.0290899,55.6058,-0.0201475,
2,1,0,1,1,1199.09,-0.0165361,-0.0169292,49.2114,1,-0.00419421,10,-0.000833109,-1.30793,2.40671,0.0245148,47.0268,-0.0169292,
2,1,0,1,1,1199.09,-0.01334,-0.0136992,49.3376,1,-0.00399707,10,-0.000675884,-1.30682,2.99807,0.0196793,37.8596,-0.0136992,
2,1,0,1,1,1199.09,-0.0101328,-0.0104734,49.4551,1,-0.00379945,10,-0.000517964,-1.30579,3.84191,0.0153569,29.6075,-0.0104734,
2,1,0,1,1,1199.1,-0.00693663,-0.00731341,49.5383,1,-0.00360143,10,-0.000362294,-1.30506,5.2155,0.0113124,21.8425,-0.00731341,
2,1,0,1,1,1199.1,-0.00373494,-0.00412476,49.5905,1,-0.00340317,10,-0.000204549,-1.3046, , , ,-0.00412476,
2,1,0,1,1,1199.11,-0.000774628,-0.00113653,49.612,1,-0.00321961,10,-5.63857e-05,-1.30441, , , ,-0.001136535,
2,1,0,1,1,1199.11,-0.000125413,-0.000401673,49.6319,1,-0.00317992,10,-1.99358e-05,-1.30424, , , ,-0.000401673,