File: Figure_codes/Fig_3-5/rawdata_trumpetplot_data/after 10th/20221101_1-115_003_TrumpetPlot_ParaChange_from10_every3_03_CV_C01_19.csv
mode,ox/red,error,control changes,counter inc.,time/s,control/V,Ewe/V,<I>/mA,cycle number,(Q-Qo)/C,I Range,P/W,log(|I|),Tafel slope mV/dec,alpha_eff,dI/d(E-IR),E-IR/V,
2,0,0,1,0,38372.5,2.44065e-05,-0.000325324,-0.0904896,20,0.0000000E+000,10,2.94384e-08,-4.0434, , , ,-0.000325324,
2,1,0,0,0,38372.7,0.00129787,0.000913231,0.133009,20,2.28267e-05,10,1.21468e-07,-3.87612, , , ,0.000913231,
2,1,0,0,0,38373,0.00279606,0.00242643,0.173104,20,7.49669e-05,10,4.20026e-07,-3.76169,0.0159216,3.70566,20.5218,0.00242643,
2,1,0,1,0,38373.3,0.00429469,0.00398873,0.184214,20,0.000132883,10,7.34779e-07,-3.73468,0.0637628,0.925305,6.6146,0.00398873,
2,1,0,1,0,38373.6,0.00579255,0.00549422,0.192403,20,0.000193988,10,1.0571e-06,-3.71579,0.0677205,0.871228,6.5297,0.00549422,
2,1,0,1,0,38373.9,0.00729041,0.00695094,0.203356,20,0.000258019,10,1.41351e-06,-3.69174,0.0872612,0.676131,5.33353,0.00695094,
2,1,0,1,0,38374.2,0.00878882,0.0084559,0.210819,20,0.000324535,10,1.78266e-06,-3.67609,0.106891,0.551962,4.52732,0.0084559,
2,1,0,1,0,38374.5,0.010287,0.00994153,0.217024,20,0.000393283,10,2.15756e-06,-3.66349,0.129887,0.454243,3.82196,0.00994153,
2,1,0,1,0,38374.8,0.0117852,0.0114706,0.222215,20,0.000463855,10,2.54895e-06,-3.65323,0.139133,0.424053,3.69659,0.0114706,
2,1,0,1,0,38375.1,0.0132836,0.0129913,0.228734,20,0.000535962,10,2.97155e-06,-3.64067,0.132228,0.446198,4.00584,0.01299133,
2,1,0,1,0,38375.4,0.0147815,0.0144599,0.234797,20,0.000610114,10,3.39513e-06,-3.62931,0.150635,0.391674,3.58439,0.0144599,
2,1,0,1,0,38375.7,0.0162793,0.0159483,0.239977,20,0.00068608,10,3.82723e-06,-3.61983,0.163291,0.361318,3.37548,0.0159483,
2,1,0,0,0,38376,0.017778,0.0174959,0.245254,20,0.000763478,10,4.29094e-06,-3.61038,0.159307,0.370354,3.54147,0.0174959,
2,1,0,0,0,38376.3,0.0192761,0.0189698,0.25058,20,0.000842126,10,4.75345e-06,-3.60105,0.149741,0.394013,3.84799,0.0189698,
2,1,0,1,0,38376.6,0.0207747,0.0204473,0.256088,20,0.000922641,10,5.2363e-06,-3.59161,0.148974,0.396042,3.94041,0.0204473,
2,1,0,1,0,38376.9,0.0222725,0.0219262,0.261454,20,0.00100482,10,5.73269e-06,-3.5826,0.163632,0.360565,3.6645,0.0219262,
2,1,0,1,0,38377.2,0.0237704,0.0234435,0.266246,20,0.00108851,10,6.24173e-06,-3.57472,0.18244,0.323394,3.36527,0.0234435,
2,1,0,1,0,38377.5,0.0252689,0.0249558,0.270862,20,0.00117345,10,6.75958e-06,-3.56725,0.161848,0.36454,3.86868,0.0249558,
2,1,0,1,0,38377.8,0.0267671,0.0264171,0.277182,20,0.00126022,10,7.32235e-06,-3.55723,0.154845,0.381027,4.10906,0.0264171,
2,1,0,1,0,38378.1,0.0282657,0.0279795,0.283073,20,0.00134887,10,7.92024e-06,-3.5481,0.178253,0.330991,3.6592,0.0279795,
2,1,0,1,0,38378.4,0.0297635,0.0294117,0.289527,20,0.001439,10,8.51549e-06,-3.53831,0.214458,0.275113,3.09358,0.0294117,
2,1,0,1,0,38378.7,0.0312613,0.0309214,0.290712,20,0.00153058,10,8.98923e-06,-3.53654,0.18221,0.323803,3.69876,0.0309214,
2,1,0,0,0,38379,0.0327599,0.032419,0.29926,20,0.00162365,10,9.70168e-06,-3.52395,0.201137,0.293332,3.41664,0.032419,
2,1,0,0,0,38379.3,0.034258,0.0339152,0.303991,20,0.00171851,10,1.03099e-05,-3.51714,0.199707,0.295433,3.50268,0.0339152,
2,1,0,1,0,38379.6,0.0357567,0.0354214,0.309094,20,0.00181504,10,1.09486e-05,-3.50991,0.232941,0.253283,3.05338,0.03542142,
2,1,0,1,0,38379.9,0.0372545,0.0369364,0.314868,20,0.00191297,10,1.16301e-05,-3.50187,0.218261,0.270318,3.32714,0.0369364,
2,1,0,1,0,38380.2,0.0387524,0.0384153,0.319089,20,0.00201225,10,1.22579e-05,-3.49609,0.205748,0.286759,3.59547,0.0384153,
2,1,0,1,0,38380.5,0.0402508,0.0399309,0.324315,20,0.00211334,10,1.29502e-05,-3.48903,0.218278,0.270298,3.42992,0.0399309,
2,1,0,1,0,38380.8,0.041749,0.0414345,0.330736,20,0.00221617,10,1.37039e-05,-3.48052,0.252472,0.233689,3.0093,0.0414345,
2,1,0,1,0,38381.1,0.0432472,0.0429223,0.334832,20,0.00232028,10,1.43717e-05,-3.47517,0.228266,0.25847,3.38007,0.0429223,
2,1,0,1,0,38381.4,0.0447456,0.0444209,0.339794,20,0.00242574,10,1.5094e-05,-3.46878,0.235814,0.250197,3.31981,0.0444209,
2,1,0,1,0,38381.7,0.0462435,0.0459571,0.34519,20,0.00253287,10,1.58639e-05,-3.46194,0.228855,0.257805,3.46739,0.0459571,
2,1,0,1,0,38382,0.0477413,0.0473884,0.350334,20,0.00264157,10,1.66018e-05,-3.45552,0.247813,0.238083,3.24962,0.0473884,
2,1,0,0,0,38382.3,0.0492399,0.0489072,0.353933,20,0.00275172,10,1.73099e-05,-3.45108,0.320641,0.184007,2.54415,0.0489072,
2,1,0,0,0,38382.6,0.0507381,0.0503685,0.357645,20,0.00286302,10,1.8014e-05,-3.44655,0.265471,0.222247,3.11642,0.0503685,
2,1,0,1,0,38382.9,0.0522367,0.0518597,0.363688,20,0.00297577,10,1.88607e-05,-3.43927,0.231932,0.254385,3.60159,0.0518597,
2,1,0,1,0,38383.2,0.0537345,0.0533959,0.369525,20,0.00309021,10,1.97311e-05,-3.43236,0.252145,0.233992,3.35991,0.0533959,
2,1,0,1,0,38383.5,0.0552323,0.0548842,0.373233,20,0.00320599,10,2.04846e-05,-3.42802,0.307839,0.191659,2.78155,0.0548842,
2,1,0,1,0,38383.8,0.0567309,0.0564117,0.374329,20,0.00332297,10,2.11165e-05,-3.42675,0.343095,0.171964,2.5288,0.0564117,
2,1,0,1,0,38384.1,0.0582291,0.0578931,0.380598,20,0.00344103,10,2.2034e-05,-3.41953,0.304251,0.193919,2.88355,0.0578931,
2,1,0,1,0,38384.4,0.0597277,0.0594163,0.386396,20,0.00356062,10,2.29582e-05,-3.41297,0.312432,0.188841,2.83759,0.0594163,
2,1,0,1,0,38384.7,0.0612255,0.0608919,0.388934,20,0.00368145,10,2.36829e-05,-3.41012,0.533289,0.110634,1.67866,0.0608919,
2,1,0,1,0,38385,0.0627233,0.0624121,0.393902,20,0.00380351,10,2.45842e-05,-3.40461,0.342332,0.172347,2.64923,0.06241215,
2,1,0,0,0,38385.3,0.0642218,0.063912,0.396955,20,0.00392633,10,2.53702e-05,-3.40126,0.345504,0.170765,2.65741,0.063912,
2,1,0,0,0,38385.6,0.06572,0.065405,0.401565,20,0.00405063,10,2.62644e-05,-3.39624,0.340934,0.173054,2.71011,0.065405,
2,1,0,1,0,38385.9,0.0672187,0.0669069,0.405763,20,0.0041764,10,2.71483e-05,-3.39173,0.365158,0.161574,2.54906,0.0669069,
2,1,0,1,0,38386.2,0.0687165,0.0684061,0.408869,20,0.00430303,10,2.79691e-05,-3.38842,0.585522,0.100765,1.60506,0.0684061,
2,1,0,1,0,38386.5,0.0702144,0.0698681,0.411028,20,0.00443017,10,2.87177e-05,-3.38613,0.475159,0.124169,1.99781,0.0698681,
2,1,0,1,0,38386.8,0.0717128,0.0713698,0.414886,20,0.00455859,10,2.96104e-05,-3.38207,0.356913,0.165306,2.67061,0.0713698,
2,1,0,1,0,38387.1,0.073211,0.0728406,0.417101,20,0.00468804,10,3.03819e-05,-3.37976,0.443759,0.132955,2.17428,0.0728406,
2,1,0,1,0,38387.4,0.0747092,0.0743262,0.420079,20,0.0048184,10,3.12229e-05,-3.37667,0.528931,0.111546,1.83156,0.0743262,
2,1,0,1,0,38387.7,0.0762076,0.0758386,0.422274,20,0.00494942,10,3.20246e-05,-3.37441,0.463255,0.12736,2.10889,0.0758386,
2,1,0,1,0,38388,0.0777054,0.0773739,0.425915,20,0.00508141,10,3.29547e-05,-3.37068,0.467658,0.12616,2.09808,0.0773739,
2,1,0,1,0,38388.3,0.0792033,0.0788896,0.43163,20,0.0052145,10,3.40512e-05,-3.36489,0.475598,0.124054,2.07921,0.0788896,
2,1,0,0,0,38388.6,0.0807019,0.0803769,0.433422,20,0.00534858,10,3.48372e-05,-3.36309,0.639772,0.0922203,1.55537,0.0803769,
2,1,0,0,0,38388.9,0.0822001,0.0818742,0.433851,20,0.00548334,10,3.55212e-05,-3.36266,0.547539,0.107755,1.83361,0.0818742,
2,1,0,1,0,38389.2,0.0836986,0.0833822,0.438226,20,0.00561895,10,3.65402e-05,-3.3583,0.391297,0.150781,2.58705,0.0833822,
2,1,0,1,0,38389.5,0.0851965,0.0848414,0.443069,20,0.00575565,10,3.75906e-05,-3.35353,0.377135,0.156443,2.71153,0.0848414,
2,1,0,1,0,38389.8,0.0866944,0.086355,0.446658,20,0.00589373,10,3.85711e-05,-3.35002,0.417146,0.141437,2.46223,0.086355,
2,1,0,1,0,38390.1,0.0881929,0.0878761,0.451321,20,0.00603301,10,3.96603e-05,-3.34551,0.36846,0.160126,2.82207,0.0878761,
2,1,0,1,0,38390.4,0.0896911,0.0893596,0.455071,20,0.00617331,10,4.0665e-05,-3.34192,0.285846,0.206405,3.67758,0.0893596,
2,1,0,1,0,38390.7,0.0911897,0.0908268,0.462326,20,0.00631532,10,4.19915e-05,-3.33505,0.261515,0.225608,4.06615,0.0908268,
2,1,0,1,0,38391,0.0926875,0.0924115,0.46825,20,0.00645937,10,4.32717e-05,-3.32952,0.24779,0.238105,4.33971,0.0924115,
2,1,0,1,0,38391.3,0.0941853,0.093866,0.474652,20,0.00660513,10,4.45536e-05,-3.32362,0.272221,0.216736,4.00526,0.093866,
2,1,0,0,0,38391.6,0.0956838,0.0953445,0.480211,20,0.00675261,10,4.57855e-05,-3.31857,0.21543,0.273871,5.14771,0.0953445,
2,1,0,0,0,38391.9,0.097182,0.0968556,0.488149,20,0.00690228,10,4.728e-05,-3.31145,0.195395,0.301952,5.74661,0.0968556,
2,1,0,1,0,38392.2,0.0986807,0.0983873,0.495735,20,0.00705454,10,4.8774e-05,-3.30475,0.196499,0.300256,5.80991,0.0983873,
2,1,0,1,0,38392.5,0.100179,0.0998704,0.504953,20,0.00720915,10,5.04299e-05,-3.29675,0.23317,0.253035,4.97498,0.0998704,
2,1,0,1,0,38392.8,0.101676,0.101354,0.509723,20,0.00736602,10,5.16624e-05,-3.29267,0.206475,0.285749,5.71903,0.101354,
2,1,0,1,0,38393.1,0.103175,0.102865,0.521607,20,0.00752536,10,5.36551e-05,-3.28266,0.219804,0.268421,5.45945,0.102865,
2,1,0,1,0,38393.4,0.104673,0.104339,0.532533,20,0.00768761,10,5.55639e-05,-3.27365,0.200175,0.294742,6.08676,0.104339,
2,1,0,1,0,38393.7,0.106171,0.105837,0.538292,20,0.00785244,10,5.69713e-05,-3.26898,0.276223,0.213596,4.47312,0.105837,
2,1,0,1,0,38394,0.10767,0.10734,0.544083,20,0.00801957,10,5.84019e-05,-3.26433,0.23717,0.248766,5.30041,0.10734,
2,1,0,1,0,38394.3,0.109167,0.10884,0.552385,20,0.00818836,10,6.01218e-05,-3.25776,0.276299,0.213537,4.61287,0.10884,
2,1,0,1,0,38394.6,0.110665,0.110332,0.558842,20,0.00835984,10,6.16581e-05,-3.25271,0.27582,0.213908,4.67003,0.110332,
2,1,0,0,0,38394.9,0.112164,0.111806,0.566658,20,0.0085335,10,6.33559e-05,-3.24668,0.324536,0.181798,4.01335,0.111806,
2,1,0,0,0,38395.2,0.113662,0.113345,0.574359,20,0.00870898,10,6.51007e-05,-3.24082,0.352925,0.167174,3.73235,0.113345,
2,1,0,1,0,38395.5,0.115161,0.114802,0.578065,20,0.00888591,10,6.63631e-05,-3.23802,0.329078,0.179289,4.04036,0.114802,
2,1,0,1,0,38395.8,0.116658,0.116301,0.583626,20,0.0090647,10,6.78766e-05,-3.23387,0.322597,0.18289,4.1556,0.116301,
2,1,0,1,0,38396.1,0.118156,0.11781,0.589967,20,0.00924528,10,6.95039e-05,-3.22917,0.424745,0.138907,3.18759,0.11781,
2,1,0,1,0,38396.4,0.119655,0.119312,0.592932,20,0.0094273,10,7.07439e-05,-3.22699,0.513028,0.115003,2.66053,0.119312,
2,1,0,1,0,38396.7,0.121153,0.120849,0.596126,20,0.0096101,10,7.20415e-05,-3.22466,0.478951,0.123186,2.87564,0.120849,
2,1,0,1,0,38397,0.122652,0.122342,0.601435,20,0.00979442,10,7.35806e-05,-3.22081,0.400743,0.147227,3.44589,0.122342,
2,1,0,1,0,38397.3,0.124149,0.123817,0.605822,20,0.00998019,10,7.50108e-05,-3.21765,0.524315,0.112528,2.66011,0.123817,
2,1,0,1,0,38397.6,0.125647,0.125331,0.609977,20,0.010167,10,7.64492e-05,-3.21469,0.826244,0.0714075,1.69728,0.125331,
2,1,0,0,0,38397.9,0.127146,0.126793,0.609344,20,0.0103549,10,7.72606e-05,-3.21514,0.767847,0.0768382,1.8353,0.126793,
2,1,0,0,0,38398.2,0.128644,0.128349,0.616136,20,0.0105434,10,7.90802e-05,-3.21032,1.22009,0.0483571,1.15915,0.128349,
2,1,0,1,0,38398.5,0.130143,0.129789,0.618378,20,0.010733,10,8.02588e-05,-3.20875,2.06417,0.028583,0.686889,0.129789,
2,1,0,1,0,38398.8,0.131641,0.131315,0.617235,20,0.0109228,10,8.10521e-05,-3.20955,-1.11587,-0.0528736,-1.26782,0.131315,
2,1,0,1,0,38399.1,0.133138,0.132823,0.613259,20,0.0111122,10,8.14552e-05,-3.21236,-0.574032,-0.102782,-2.45855,0.132823,
2,1,0,1,0,38399.4,0.134637,0.134323,0.610797,20,0.0113004,10,8.20441e-05,-3.2141,-0.37787,-0.156138,-3.71265,0.134323,
2,1,0,1,0,38399.7,0.136135,0.135771,0.604238,20,0.0114871,10,8.20383e-05,-3.21879,-0.252701,-0.233477,-5.47655,0.135771,
2,1,0,1,0,38400,0.137633,0.137276,0.593783,20,0.0116714,10,8.15123e-05,-3.22637,-0.16957,-0.347939,-8.00973,0.137276,
2,1,0,1,0,38400.3,0.139132,0.138783,0.580755,20,0.011852,10,8.05991e-05,-3.23601,-0.13787,-0.427939,-9.63901,0.1387832,
2,1,0,1,0,38400.6,0.140629,0.140307,0.563538,20,0.0120277,10,7.90682e-05,-3.24908,-0.11553,-0.510692,-11.1999,0.140307,
2,1,0,1,0,38400.9,0.142127,0.141816,0.546018,20,0.0121986,10,7.74343e-05,-3.26279,-0.0995925,-0.592414,-12.5442,0.141816,
2,1,0,0,0,38401.2,0.143626,0.143324,0.526435,20,0.012364,10,7.54506e-05,-3.27866,-0.0833922,-0.7075,-14.4597,0.143324,
2,1,0,0,0,38401.5,0.145124,0.144817,0.502675,20,0.0125227,10,7.27957e-05,-3.29871,-0.0745685,-0.791219,-15.5493,0.144817,
2,1,0,1,0,38401.8,0.146623,0.146289,0.479031,20,0.0126745,10,7.00769e-05,-3.31964,-0.0724194,-0.814699,-15.2664,0.1462889,
2,1,0,1,0,38402.1,0.14812,0.147792,0.458609,20,0.0128197,10,6.77789e-05,-3.33856,-0.0771208,-0.765034,-13.6756,0.147792,
2,1,0,1,0,38402.4,0.149618,0.149266,0.437283,20,0.0129585,10,6.52714e-05,-3.35924,-0.0771328,-0.764914,-13.1015,0.149266,
2,1,0,1,0,38402.7,0.151117,0.150783,0.419037,20,0.0130913,10,6.31834e-05,-3.37775,-0.0802865,-0.734868,-12.0156,0.1507826,
2,1,0,1,0,38403,0.152615,0.152257,0.400012,20,0.0132187,10,6.09044e-05,-3.39793,-0.0861304,-0.685008,-10.7679,0.152257,
2,1,0,1,0,38403.3,0.154114,0.153759,0.38716,20,0.0133411,10,5.95291e-05,-3.41211,-0.100981,-0.58427,-8.86968,0.153759,
2,1,0,1,0,38403.6,0.155612,0.155288,0.37494,20,0.0134598,10,5.82238e-05,-3.42604,-0.119875,-0.49218,-7.22687,0.155288,
2,1,0,1,0,38403.9,0.157109,0.156801,0.364722,20,0.0135753,10,5.71889e-05,-3.43804,-0.121775,-0.484499,-6.90119,0.156801,
2,1,0,0,0,38404.2,0.158608,0.158276,0.355039,20,0.0136877,10,5.61943e-05,-3.44972,-0.140414,-0.420186,-5.85713,0.1582765,
2,1,0,0,0,38404.5,0.160106,0.159802,0.348237,20,0.0137972,10,5.56491e-05,-3.45813,-0.173275,-0.340499,-4.64922,0.159802,
2,1,0,1,0,38404.8,0.161605,0.161312,0.342589,20,0.013905,10,5.52637e-05,-3.46523,-0.199711,-0.295427,-3.94201,0.161312,
2,1,0,1,0,38405.1,0.163102,0.162829,0.337038,20,0.0140109,10,5.48795e-05,-3.47232,-0.23028,-0.25621,-3.37089,0.162829,
2,1,0,1,0,38405.4,0.1646,0.164292,0.331348,20,0.0141153,10,5.44378e-05,-3.47972,-0.235128,-0.250927,-3.24815,0.164292,
2,1,0,1,0,38405.7,0.166099,0.165797,0.326992,20,0.014218,10,5.42142e-05,-3.48546,-0.267772,-0.220337,-2.81664,0.165797,
2,1,0,1,0,38406,0.167597,0.167272,0.322722,20,0.0143198,10,5.39823e-05,-3.49117,-0.339602,-0.173733,-2.18671,0.167272,
2,1,0,1,0,38406.3,0.169095,0.168777,0.319998,20,0.0144206,10,5.40082e-05,-3.49485,-0.357946,-0.164829,-2.06188,0.168777,
2,1,0,1,0,38406.6,0.170594,0.170279,0.316647,20,0.0145204,10,5.39184e-05,-3.49942,-0.301549,-0.195657,-2.42479,0.170279,
2,1,0,1,0,38406.9,0.172091,0.171793,0.314029,20,0.0146192,10,5.39481e-05,-3.50303,-0.456504,-0.129243,-1.5861,0.171793,
2,1,0,1,0,38407.2,0.173589,0.173283,0.311461,20,0.0147174,10,5.39708e-05,-3.5066,-0.503025,-0.11729,-1.42712,0.173283,
2,1,0,0,0,38407.5,0.175088,0.174754,0.309963,20,0.0148151,10,5.41673e-05,-3.50869,-0.598851,-0.098522,-1.19342,0.174754,
2,1,0,0,0,38407.8,0.176586,0.176253,0.308944,20,0.0149121,10,5.44522e-05,-3.51012,-0.56146,-0.105083,-1.25994,0.1762525,
2,1,0,1,0,38408.1,0.178085,0.177731,0.306447,20,0.0150087,10,5.44651e-05,-3.51364,-0.692881,-0.0851517,-1.02011,0.177731,
2,1,0,1,0,38408.4,0.179582,0.179256,0.304642,20,0.0151045,10,5.4609e-05,-3.51621,-0.868574,-0.0679274,-0.810039,0.179256,
2,1,0,1,0,38408.7,0.18108,0.180758,0.302603,20,0.0152001,10,5.46979e-05,-3.51913,-0.825773,-0.0714482,-0.848796,0.180758,
2,1,0,1,0,38409,0.182579,0.182222,0.302983,20,0.0152953,10,5.521e-05,-3.51858,-0.562375,-0.104912,-1.2382,0.182222,
2,1,0,1,0,38409.3,0.184077,0.183733,0.301761,20,0.0153901,10,5.54433e-05,-3.52034,-0.925181,-0.0637713,-0.751712,0.183733,
2,1,0,1,0,38409.6,0.185576,0.185263,0.300005,20,0.0154844,10,5.55798e-05,-3.52287,-0.700676,-0.0842044,-0.984605,0.185263,
2,1,0,1,0,38409.9,0.187074,0.186771,0.2999,20,0.0155784,10,5.60126e-05,-3.52302,-1.18437,-0.0498155,-0.580418,0.186771,
2,1,0,1,0,38410.2,0.188571,0.188255,0.298116,20,0.0156723,10,5.61218e-05,-3.52561,-1.06678,-0.0553064,-0.643185,0.188255,
2,1,0,0,0,38410.5,0.19007,0.189758,0.296858,20,0.0157658,10,5.63312e-05,-3.52745,-0.852065,-0.0692436,-0.803595,0.189758,
2,1,0,0,0,38410.8,0.191568,0.191223,0.295716,20,0.0158589,10,5.65477e-05,-3.52913,-1.0016,-0.0589058,-0.679783,0.191223,
2,1,0,1,0,38411.1,0.193067,0.192741,0.295589,20,0.0159519,10,5.69721e-05,-3.52931,-2.84608,-0.0207303,-0.238944,0.192741,
2,1,0,1,0,38411.4,0.194564,0.194253,0.29396,20,0.0160447,10,5.71026e-05,-3.53171,-1.74331,-0.0338437,-0.388933,0.194253,
2,1,0,1,0,38411.7,0.196062,0.19572,0.294104,20,0.0161373,10,5.75622e-05,-3.5315,-0.918743,-0.0642182,-0.738265,0.19572,
2,1,0,1,0,38412,0.197561,0.197236,0.292232,20,0.0162295,10,5.76387e-05,-3.53427,-1.90323,-0.0309999,-0.355366,0.197236,
2,1,0,1,0,38412.3,0.199059,0.198769,0.292238,20,0.0163214,10,5.80879e-05,-3.53426,5.95438,0.00990868,0.113142,0.198769,
2,1,0,1,0,38412.6,0.200557,0.200246,0.29235,20,0.0164132,10,5.85421e-05,-3.5341,-2.91566,-0.0202355,-0.230206,0.200246,
2,1,0,1,0,38412.9,0.202056,0.201758,0.292029,20,0.016505,10,5.89191e-05,-3.53457,-0.98835,-0.0596955,-0.676334,0.201758,
2,1,0,1,0,38413.2,0.203553,0.20324,0.289584,20,0.0165964,10,5.88549e-05,-3.53823,-1.4973,-0.0394042,-0.447872,0.20324,
2,1,0,1,0,38413.5,0.205051,0.204725,0.289958,20,0.0166876,10,5.93617e-05,-3.53766,2.70543,0.021808,0.249202,0.204725,
2,1,0,0,0,38413.8,0.20655,0.206214,0.289507,20,0.0167787,10,5.97005e-05,-3.53834,-2.45155,-0.0240664,-0.272829,0.206214,
2,1,0,0,0,38414.1,0.208048,0.207747,0.289887,20,0.0168701,10,6.0223e-05,-3.53777,-0.753357,-0.0783161,-0.882262,0.207747,
2,1,0,1,0,38414.4,0.209547,0.209242,0.289011,20,0.0169611,10,6.04732e-05,-3.53909,-1.06754,-0.0552672,-0.622373,0.209242,
2,1,0,1,0,38414.7,0.211044,0.210783,0.288504,20,0.0170516,10,6.08118e-05,-3.53985,360.136,0.000163827,0.00184139,0.210783,
2,1,0,1,0,38415,0.212542,0.212203,0.286911,20,0.0171421,10,6.08833e-05,-3.54225,-1.48681,-0.0396822,-0.443908,0.212203,
2,1,0,1,0,38415.3,0.214041,0.213743,0.286094,20,0.0172325,10,6.11507e-05,-3.54349,-1.89211,-0.0311821,-0.3491,0.213743,
2,1,0,1,0,38415.6,0.215539,0.215217,0.28518,20,0.0173226,10,6.13756e-05,-3.54488,-1.20488,-0.0489674,-0.547217,0.2152171,
2,1,0,1,0,38415.9,0.217038,0.216717,0.286256,20,0.0174124,10,6.20364e-05,-3.54325,-3.15743,-0.0186861,-0.208703,0.216717,
2,1,0,1,0,38416.2,0.218535,0.218197,0.285086,20,0.0175023,10,6.22049e-05,-3.54502,1.85953,0.0317284,0.353028,0.218197,
2,1,0,1,0,38416.5,0.220033,0.219721,0.285175,20,0.0175921,10,6.26588e-05,-3.54489,-1.95733,-0.0301432,-0.33632,0.219721,
2,1,0,0,0,38416.8,0.221532,0.221247,0.284769,20,0.0176818,10,6.30042e-05,-3.54551,-1.71516,-0.034399,-0.382962,0.221247,
2,1,0,0,0,38417.1,0.22303,0.222759,0.284464,20,0.0177712,10,6.33669e-05,-3.54597,-0.920846,-0.0640715,-0.713035,0.222759,
2,1,0,1,0,38417.4,0.224529,0.224219,0.283422,20,0.0178605,10,6.35487e-05,-3.54757,-2.91385,-0.0202481,-0.223959,0.224219,
2,1,0,1,0,38417.7,0.226026,0.225732,0.284026,20,0.0179497,10,6.41139e-05,-3.54664,-2.02264,-0.0291697,-0.322183,0.225732,
2,1,0,1,0,38418,0.227524,0.227234,0.28268,20,0.0180387,10,6.42346e-05,-3.54871,-1.66941,-0.0353418,-0.3901,0.227234,
2,1,0,1,0,38418.3,0.229023,0.228702,0.281997,20,0.0181276,10,6.44933e-05,-3.54976,-2.73448,-0.0215763,-0.23794,0.228702,
2,1,0,1,0,38418.6,0.230521,0.230235,0.281331,20,0.0182163,10,6.47722e-05,-3.55078,-6.651,-0.00887084,-0.0979795,0.230235,
2,1,0,1,0,38418.9,0.232019,0.231691,0.281339,20,0.0183051,10,6.51835e-05,-3.55077,-1.65249,-0.0357036,-0.392727,0.231691,
2,1,0,1,0,38419.2,0.233518,0.233163,0.281437,20,0.0183937,10,6.56205e-05,-3.55062,-1.21782,-0.0484473,-0.530555,0.233163,
2,1,0,1,0,38419.5,0.235015,0.234665,0.280574,20,0.0184821,10,6.58407e-05,-3.55195,-5.40883,-0.0109081,-0.119192,0.2346648,
2,1,0,1,0,38419.8,0.236513,0.236159,0.280396,20,0.0185702,10,6.6218e-05,-3.55223,-8.44422,-0.00698703,-0.0763077,0.236159,
2,1,0,0,0,38420.1,0.238012,0.237706,0.280408,20,0.0186584,10,6.66548e-05,-3.55221,-22.2141,-0.00265597,-0.029008,0.237706,
2,1,0,0,0,38420.4,0.23951,0.239181,0.27994,20,0.0187465,10,6.69564e-05,-3.55293,17.7556,0.00332289,0.0361458,0.239181,
2,1,0,1,0,38420.7,0.241009,0.240698,0.279316,20,0.0188344,10,6.72308e-05,-3.5539,-1.84587,-0.0319633,-0.348463,0.240698,
2,1,0,1,0,38421,0.242506,0.242169,0.278779,20,0.0189221,10,6.75114e-05,-3.55474,-2.31011,-0.0255399,-0.278126,0.2421685,
2,1,0,1,0,38421.3,0.244004,0.243713,0.277846,20,0.0190098,10,6.77146e-05,-3.5562,-1.44172,-0.0409234,-0.443476,0.243713,
2,1,0,1,0,38421.6,0.245503,0.245149,0.279151,20,0.0190975,10,6.84336e-05,-3.55416,-1.71762,-0.0343498,-0.372641,0.245149,
2,1,0,1,0,38421.9,0.247001,0.246641,0.277979,20,0.0191849,10,6.85611e-05,-3.55599,-1.22582,-0.0481311,-0.52138,0.2466412,
2,1,0,1,0,38422.2,0.2485,0.248196,0.275983,20,0.0192722,10,6.8498e-05,-3.55912,-4.75849,-0.0123989,-0.134006,0.248196,
2,1,0,1,0,38422.5,0.249997,0.249679,0.276259,20,0.0193593,10,6.8976e-05,-3.55868,-6.62876,-0.00890061,-0.0962087,0.249679,
2,1,0,1,0,38422.8,0.251495,0.251152,0.276307,20,0.0194464,10,6.93951e-05,-3.55861,5.1647,0.0114237,0.12317,0.251152,
2,1,0,0,0,38423.1,0.252994,0.252718,0.2769,20,0.0195335,10,6.99777e-05,-3.55768,-1.14665,-0.051454,-0.5548,0.252718,
2,1,0,0,0,38423.4,0.254492,0.254181,0.27576,20,0.0196204,10,7.00929e-05,-3.55947,-1.15896,-0.0509076,-0.549715,0.2541807,
2,1,0,1,0,38423.7,0.255991,0.255676,0.276638,20,0.0197071,10,7.07296e-05,-3.55809,-2.77451,-0.021265,-0.229359,0.255676,
2,1,0,1,0,38424,0.257488,0.257133,0.275468,20,0.0197939,10,7.08319e-05,-3.55993,-2.48982,-0.0236964,-0.254607,0.257133,
2,1,0,1,0,38424.3,0.258986,0.258678,0.275694,20,0.0198807,10,7.1316e-05,-3.55957,-1.34633,-0.0438228,-0.470734,0.2586776,
2,1,0,1,0,38424.6,0.260485,0.260204,0.275455,20,0.0199673,10,7.16746e-05,-3.55995,-2.06422,-0.0285822,-0.306033,0.260204,
2,1,0,1,0,38424.9,0.261983,0.26168,0.274677,20,0.0200536,10,7.18773e-05,-3.56118,-1.05763,-0.0557853,-0.596759,0.26168,
2,1,0,1,0,38425.2,0.263481,0.263182,0.274229,20,0.0201399,10,7.21724e-05,-3.56189,-41.2011,-0.001432,-0.0152822,0.263182,
2,1,0,1,0,38425.5,0.26498,0.264644,0.273431,20,0.0202261,10,7.23619e-05,-3.56315,-34.9872,-0.00168633,-0.0180203,0.264644,
2,1,0,1,0,38425.8,0.266477,0.266166,0.27242,20,0.0203122,10,7.2509e-05,-3.56476,5.84497,0.0100941,0.107796,0.266166,
2,1,0,0,0,38426.1,0.267976,0.267668,0.271711,20,0.0203982,10,7.27284e-05,-3.56589,-3.27417,-0.0180198,-0.192313,0.267668,
2,1,0,0,0,38426.4,0.269474,0.269152,0.273125,20,0.0204841,10,7.3512e-05,-3.56364,3.17303,0.0185942,0.198265,0.269152,
2,1,0,0,0,38426.7,0.270972,0.270649,0.273998,20,0.02057,10,7.41572e-05,-3.56225,-3.65651,-0.0161356,-0.17155,0.270649,
2,1,0,1,0,38427,0.27247,0.272167,0.273179,20,0.0206558,10,7.43504e-05,-3.56355,-1.46807,-0.0401888,-0.42573,0.272167,
2,1,0,1,0,38427.3,0.273968,0.273641,0.271004,20,0.0207414,10,7.41579e-05,-3.56702,-2.25632,-0.0261488,-0.276886,0.273641,
2,1,0,1,0,38427.6,0.275466,0.275133,0.270359,20,0.0208268,10,7.43846e-05,-3.56806,31.1956,0.00189129,0.020017,0.275133,
2,1,0,1,0,38427.9,0.276965,0.276588,0.270793,20,0.0209121,10,7.4898e-05,-3.56736,-1.67901,-0.0351398,-0.37163,0.276588,
2,1,0,1,0,38428.2,0.278463,0.278156,0.27041,20,0.0209975,10,7.52163e-05,-3.56798,-0.923544,-0.0638843,-0.67347,0.278156,
2,1,0,1,0,38428.5,0.279962,0.279632,0.269843,20,0.0210827,10,7.54568e-05,-3.56889,-2.62597,-0.0224679,-0.237142,0.279632,
2,1,0,1,0,38428.8,0.281459,0.281152,0.270623,20,0.0211675,10,7.60861e-05,-3.56764,-7.23189,-0.00815832,-0.086022,0.281152,
2,1,0,1,0,38429.1,0.282957,0.282656,0.269919,20,0.0212524,10,7.62945e-05,-3.56877,44.6472,0.00132147,0.013871,0.282656,
2,1,0,0,0,38429.4,0.284456,0.284107,0.269306,20,0.0213375,10,7.65118e-05,-3.56975,-11.0843,-0.00532283,-0.0559952,0.284107,
2,1,0,0,0,38429.7,0.285954,0.285663,0.269484,20,0.0214223,10,7.69816e-05,-3.56947,-2.5495,-0.0231418,-0.243639,0.285663,
2,1,0,0,0,38430,0.287452,0.28715,0.268874,20,0.0215069,10,7.72071e-05,-3.57045,-1.0928,-0.05399,-0.567085,0.28715,
2,1,0,1,0,38430.3,0.28895,0.288648,0.268534,20,0.0215915,10,7.75119e-05,-3.571,11.5918,0.00508982,0.0532602,0.288648,
2,1,0,1,0,38430.6,0.290448,0.290138,0.268394,20,0.021676,10,7.78713e-05,-3.57123,-2.55041,-0.0231335,-0.242275,0.290138,
2,1,0,1,0,38430.9,0.291947,0.291625,0.267667,20,0.0217605,10,7.80583e-05,-3.57241,-1.2686,-0.0465078,-0.486262,0.2916247,
2,1,0,1,0,38431.2,0.293445,0.293145,0.266411,20,0.0218447,10,7.80972e-05,-3.57445,-1.93048,-0.0305623,-0.3191,0.293145,
2,1,0,1,0,38431.5,0.294943,0.294606,0.267484,20,0.0219287,10,7.88022e-05,-3.5727,3.11438,0.0189444,0.197376,0.294606,
2,1,0,1,0,38431.8,0.296442,0.296122,0.267517,20,0.0220128,10,7.92178e-05,-3.57265,-29.834,-0.00197761,-0.0206047,0.296122,
2,1,0,1,0,38432.1,0.297939,0.297657,0.26715,20,0.0220969,10,7.95192e-05,-3.57324,-1.20003,-0.0491656,-0.509929,0.297657,
2,1,0,1,0,38432.4,0.299437,0.299129,0.265569,20,0.0221807,10,7.94394e-05,-3.57582,-0.00252174,-23.3966,-121.354,0.299129,
2,1,0,1,0,38432.5,0.299737,0.299418,0.11858,20,0.0222196,10,3.55051e-05,-3.92599,0.000963581,61.2299,212.773,0.299418,
2,1,0,1,0,38432.8,0.29824,0.297934,0.0235475,20,0.0222309,10,7.0156e-06,-4.62805,0.00144484,40.835,70.3605,0.297934,
2,1,0,0,0,38433.1,0.296741,0.296458,0.00449853,20,0.0222308,10,1.33363e-06,-5.34693,0.00764039,7.72212,10.8822,0.296458,
2,1,0,0,0,38433.4,0.295243,0.294926,-0.00717383,20,0.0222261,10,-2.11575e-06,-5.14425,-0.0163202,-3.61514,7.29104,0.294926,
2,0,0,1,0,38433.7,0.293744,0.293397,-0.01604,20,0.0222186,10,-4.7061e-06,-4.79479,-0.00518313,-11.3831,5.33151,0.293397,
2,0,0,1,0,38434,0.292246,0.291929,-0.0243247,20,0.0222086,10,-7.10108e-06,-4.61395,-0.0104172,-5.66368,4.93048,0.291929,
2,0,0,1,0,38434.3,0.290749,0.290435,-0.0316508,20,0.0221962,10,-9.19251e-06,-4.49962,-0.0151349,-3.89827,4.4029,0.290435,
2,0,0,1,0,38434.6,0.28925,0.288939,-0.036979,20,0.0221819,10,-1.06847e-05,-4.43204,-0.0222526,-2.65137,3.76965,0.288939,
2,0,0,1,0,38434.9,0.287752,0.287432,-0.0427239,20,0.022166,10,-1.22802e-05,-4.36933,-0.0303042,-1.94692,3.22405,0.2874319,
2,0,0,1,0,38435.2,0.286253,0.285914,-0.0462059,20,0.0221486,10,-1.32109e-05,-4.3353,-0.035371,-1.66803,3.03758,0.285914,
2,0,0,1,0,38435.5,0.284755,0.284457,-0.0513615,20,0.0221297,10,-1.46102e-05,-4.28936,-0.0371721,-1.58721,3.14999,0.284457,
2,0,0,1,0,38435.8,0.283257,0.282967,-0.0564304,20,0.0221094,10,-1.59679e-05,-4.24849,-0.0487144,-1.21114,2.63384,0.282967,
2,0,0,0,0,38436.1,0.281759,0.281405,-0.0598187,20,0.0220878,10,-1.68333e-05,-4.22316,-0.0585739,-1.00727,2.35975,0.2814045,
2,0,0,0,0,38436.4,0.280261,0.279949,-0.0625513,20,0.0220651,10,-1.75112e-05,-4.20376,-0.0539152,-1.09431,2.70334,0.279949,
2,0,0,0,0,38436.7,0.278763,0.278468,-0.0680869,20,0.0220414,10,-1.896e-05,-4.16694,-0.0656282,-0.899004,2.35615,0.278468,
2,0,0,1,0,38437,0.277264,0.276966,-0.0709329,20,0.0220164,10,-1.9646e-05,-4.14915,-0.0658572,-0.895877,2.46119,0.276966,
2,0,0,1,0,38437.3,0.275766,0.27546,-0.0745236,20,0.0219904,10,-2.05283e-05,-4.12771,-0.0965436,-0.611123,1.76297,0.27546,
2,0,0,1,0,38437.6,0.274269,0.273961,-0.0780143,20,0.0219634,10,-2.13729e-05,-4.10783,-0.0853274,-0.691454,2.09057,0.273961,
2,0,0,1,0,38437.9,0.27277,0.272488,-0.0812716,20,0.0219357,10,-2.21455e-05,-4.09006,-0.0892037,-0.661407,2.09159,0.272488,
2,0,0,1,0,38438.2,0.271272,0.270925,-0.0839924,20,0.0219069,10,-2.27556e-05,-4.07576,-0.101404,-0.581834,1.89986,0.270925,
2,0,0,1,0,38438.5,0.269773,0.269485,-0.0874243,20,0.021877,10,-2.35596e-05,-4.05837,-0.0901123,-0.654739,2.21495,0.269485,
2,0,0,1,0,38438.8,0.268275,0.26791,-0.0905135,20,0.0218463,10,-2.42495e-05,-4.04329,-0.114254,-0.516392,1.79951,0.26791,
2,0,0,1,0,38439.1,0.266778,0.266422,-0.0933077,20,0.021815,10,-2.48593e-05,-4.03008,-0.116268,-0.50745,1.82473,0.266422,
2,0,0,0,0,38439.4,0.265279,0.264935,-0.0944236,20,0.0217827,10,-2.50161e-05,-4.02492,-0.098371,-0.59977,2.21528,0.264935,
2,0,0,0,0,38439.7,0.263781,0.263475,-0.0976288,20,0.0217497,10,-2.57228e-05,-4.01042,-0.156393,-0.377256,1.44594,0.263475,
2,0,0,1,0,38440,0.262282,0.261945,-0.100464,20,0.0217158,10,-2.63161e-05,-3.99799,-0.133267,-0.442721,1.72849,0.261945,
2,0,0,1,0,38440.3,0.260784,0.260513,-0.102189,20,0.0216812,10,-2.66215e-05,-3.9906,-0.141795,-0.416095,1.67084,0.260513,
2,0,0,1,0,38440.6,0.259286,0.25895,-0.105269,20,0.0216459,10,-2.72595e-05,-3.9777,-0.128522,-0.459064,1.87981,0.25895,
2,0,0,1,0,38440.9,0.257788,0.257501,-0.108185,20,0.0216099,10,-2.78578e-05,-3.96583,-0.173453,-0.340151,1.42288,0.257501,
2,0,0,1,0,38441.2,0.25629,0.255953,-0.109217,20,0.0215731,10,-2.79544e-05,-3.96171,-0.170215,-0.34662,1.47566,0.255953,
2,0,0,1,0,38441.5,0.254791,0.254523,-0.11185,20,0.0215357,10,-2.84685e-05,-3.95136,-0.183776,-0.321043,1.40434,0.254523,
2,0,0,1,0,38441.8,0.253293,0.252969,-0.113785,20,0.0214978,10,-2.8784e-05,-3.94392,-0.177757,-0.331913,1.48039,0.252969,
2,0,0,1,0,38442.1,0.251795,0.251466,-0.116408,20,0.0214591,10,-2.92726e-05,-3.93402,-0.180927,-0.326098,1.47813,0.251466,
2,0,0,0,0,38442.4,0.250297,0.249955,-0.118747,20,0.0214197,10,-2.96815e-05,-3.92538,-0.233288,-0.252906,1.17015,0.249955,
2,0,0,0,0,38442.7,0.248799,0.248464,-0.121087,20,0.0213798,10,-3.00857e-05,-3.9169,-0.185999,-0.317205,1.49192,0.248464,
2,0,0,0,0,38443,0.247301,0.247002,-0.122104,20,0.0213394,10,-3.01599e-05,-3.91327,-0.192484,-0.306519,1.4753,0.247002,
2,0,0,1,0,38443.3,0.245802,0.245471,-0.125214,20,0.0212982,10,-3.07366e-05,-3.90235,-0.164444,-0.358784,1.74048,0.245471,
2,0,0,1,0,38443.6,0.244304,0.243981,-0.127146,20,0.0212562,10,-3.10213e-05,-3.8957,-0.251493,-0.234599,1.15782,0.243981,
2,0,0,1,0,38443.9,0.242806,0.242524,-0.128313,20,0.0212138,10,-3.11189e-05,-3.89173,-0.264438,-0.223114,1.12182,0.242524,
2,0,0,1,0,38444.2,0.241308,0.240961,-0.129851,20,0.021171,10,-3.12891e-05,-3.88655,-0.230629,-0.255822,1.30336,0.240961,
2,0,0,1,0,38444.5,0.23981,0.239487,-0.132067,20,0.0211275,10,-3.16283e-05,-3.8792,-0.189697,-0.311023,1.60187,0.239487,
2,0,0,1,0,38444.8,0.238311,0.237957,-0.133678,20,0.0210834,10,-3.18096e-05,-3.87394,-0.207084,-0.284909,1.49611,0.237957,
2,0,0,1,0,38445.1,0.236813,0.23649,-0.135701,20,0.0210388,10,-3.2092e-05,-3.86742,-0.22164,-0.266197,1.41964,0.2364901,
2,0,0,1,0,38445.4,0.235316,0.234959,-0.136952,20,0.0209937,10,-3.21782e-05,-3.86343,-0.218218,-0.270372,1.45137,0.2349591,
2,0,0,0,0,38445.7,0.233817,0.233485,-0.13996,20,0.0209479,10,-3.26786e-05,-3.854,-0.291148,-0.202646,1.10033,0.233485,
2,0,0,0,0,38446,0.232319,0.231945,-0.143126,20,0.0209016,10,-3.31973e-05,-3.84428,-0.283501,-0.208112,1.15181,0.231945,
2,0,0,1,0,38446.3,0.23082,0.230529,-0.142711,20,0.0208546,10,-3.2899e-05,-3.84554,-0.237832,-0.248074,1.38318,0.230529,
2,0,0,1,0,38446.6,0.229322,0.228965,-0.14501,20,0.0208072,10,-3.32022e-05,-3.8386,-0.370039,-0.159443,0.902304,0.228965,
2,0,0,1,0,38446.9,0.227825,0.227528,-0.146698,20,0.0207594,10,-3.33778e-05,-3.83358,-0.292086,-0.201995,1.16283,0.2275278,
2,0,0,1,0,38447.2,0.226326,0.225987,-0.148448,20,0.0207109,10,-3.35473e-05,-3.82843,-0.270707,-0.217948,1.26668,0.225987,
2,0,0,1,0,38447.5,0.224828,0.224477,-0.150805,20,0.020662,10,-3.38522e-05,-3.82158,-0.311114,-0.189641,1.10962,0.224477,
2,0,0,1,0,38447.8,0.223329,0.222995,-0.152324,20,0.0206125,10,-3.39675e-05,-3.81723,-0.325064,-0.181503,1.07846,0.222995,
2,0,0,1,0,38448.1,0.221831,0.221512,-0.153241,20,0.0205627,10,-3.39447e-05,-3.81462,-0.281819,-0.209354,1.24869,0.2215116,
2,0,0,1,0,38448.4,0.220333,0.22006,-0.155326,20,0.0205122,10,-3.41812e-05,-3.80875,-0.341878,-0.172576,1.0458,0.22006,
2,0,0,0,0,38448.7,0.218835,0.218501,-0.156451,20,0.020461,10,-3.41848e-05,-3.80562,-0.297482,-0.198332,1.21666,0.218501,
2,0,0,0,0,38449,0.217337,0.217013,-0.158619,20,0.0204095,10,-3.44224e-05,-3.79965,-0.460857,-0.128022,0.793819,0.217013,
2,0,0,0,0,38449.3,0.215839,0.215517,-0.159477,20,0.0203576,10,-3.43701e-05,-3.7973,-0.310249,-0.19017,1.18724,0.215517,
2,0,0,1,0,38449.6,0.21434,0.213987,-0.161816,20,0.0203051,10,-3.46265e-05,-3.79098,-0.260375,-0.226597,1.42501,0.213987,
2,0,0,1,0,38449.9,0.212842,0.212479,-0.16317,20,0.020252,10,-3.46703e-05,-3.78736,-0.336139,-0.175522,1.124,0.212479,
2,0,0,1,0,38450.2,0.211344,0.211017,-0.164589,20,0.0201984,10,-3.4731e-05,-3.7836,-0.387125,-0.152406,0.983967,0.211017,
2,0,0,1,0,38450.5,0.209846,0.209508,-0.165485,20,0.0201444,10,-3.46705e-05,-3.78124,-0.296011,-0.199317,1.30091,0.209508,
2,0,0,1,0,38450.8,0.208348,0.208039,-0.16866,20,0.0200897,10,-3.50878e-05,-3.77299,-0.297551,-0.198285,1.30497,0.208039,
2,0,0,1,0,38451.1,0.206849,0.2065,-0.173698,20,0.0200343,10,-3.58686e-05,-3.76021,-0.336765,-0.175196,1.16919,0.2065002,
2,0,0,1,0,38451.4,0.205351,0.205005,-0.172311,20,0.0199783,10,-3.53246e-05,-3.76369,-0.437233,-0.134939,0.909103,0.205005,
2,0,0,1,0,38451.7,0.203854,0.203532,-0.174611,20,0.019922,10,-3.55388e-05,-3.75793,-0.673554,-0.0875951,0.598198,0.203532,
2,0,0,0,0,38452,0.202355,0.202004,-0.175818,20,0.0198653,10,-3.5516e-05,-3.75494,-0.314735,-0.187459,1.29347,0.202004,
2,0,0,0,0,38452.3,0.200857,0.200542,-0.177828,20,0.0198079,10,-3.56619e-05,-3.75,-0.241441,-0.244367,1.69803,0.200542,
2,0,0,1,0,38452.6,0.199358,0.199065,-0.18033,20,0.0197498,10,-3.58974e-05,-3.74393,-0.363647,-0.162245,1.13578,0.199065,
2,0,0,1,0,38452.9,0.19786,0.197519,-0.181519,20,0.0196913,10,-3.58535e-05,-3.74108,-0.305326,-0.193236,1.37179,0.197519,
2,0,0,1,0,38453.2,0.196363,0.196052,-0.184005,20,0.0196323,10,-3.60746e-05,-3.73517,-0.33945,-0.173811,1.2463,0.196052,
2,0,0,1,0,38453.5,0.194864,0.194521,-0.185506,20,0.0195726,10,-3.60848e-05,-3.73164,-0.292003,-0.202053,1.46031,0.194521,
2,0,0,1,0,38453.8,0.193366,0.193025,-0.188067,20,0.0195121,10,-3.63017e-05,-3.72569,-0.293974,-0.200698,1.46546,0.193025,
2,0,0,1,0,38454.1,0.191867,0.191569,-0.190209,20,0.0194511,10,-3.6438e-05,-3.72077,-0.344614,-0.171206,1.26911,0.191569,
2,0,0,1,0,38454.4,0.190369,0.190022,-0.191483,20,0.0193897,10,-3.6386e-05,-3.71787,-0.3147,-0.18748,1.40251,0.190022,
2,0,0,1,0,38454.7,0.188871,0.188532,-0.193925,20,0.0193274,10,-3.65612e-05,-3.71237,-0.245129,-0.240689,1.82218,0.188532,
2,0,0,0,0,38455,0.187373,0.187074,-0.195762,20,0.0192644,10,-3.66219e-05,-3.70827,-0.340703,-0.173171,1.32893,0.187074,
2,0,0,0,0,38455.3,0.185875,0.185508,-0.198802,20,0.0192008,10,-3.68793e-05,-3.70158,-0.356191,-0.165642,1.28096,0.185508,
2,0,0,0,0,38455.6,0.184377,0.18403,-0.19966,20,0.0191366,10,-3.67433e-05,-3.69971,-0.336972,-0.175089,1.36278,0.18403,
2,0,0,1,0,38455.9,0.182878,0.182594,-0.202776,20,0.0190718,10,-3.70256e-05,-3.69298,-0.242837,-0.242962,1.92483,0.182594,
2,0,0,1,0,38456.2,0.181381,0.18107,-0.206376,20,0.0190061,10,-3.73686e-05,-3.68534,-0.230272,-0.256219,2.05903,0.18107,
2,0,0,1,0,38456.5,0.179882,0.179534,-0.208401,20,0.0189394,10,-3.74152e-05,-3.6811,-0.347131,-0.169965,1.38105,0.179534,
2,0,0,1,0,38456.8,0.178384,0.178073,-0.21086,20,0.0188721,10,-3.75485e-05,-3.67601,-0.294222,-0.200529,1.65622,0.178073,
2,0,0,1,0,38457.1,0.176886,0.176542,-0.214333,20,0.0188042,10,-3.78388e-05,-3.66891,-0.303519,-0.194386,1.62553,0.176542,
2,0,0,1,0,38457.4,0.175387,0.175052,-0.216549,20,0.0187352,10,-3.79072e-05,-3.66444,-0.222471,-0.265204,2.24732,0.175052,
2,0,0,1,0,38457.7,0.173889,0.173553,-0.220318,20,0.0186653,10,-3.82368e-05,-3.65695,-0.210415,-0.280398,2.39858,0.173553,
2,0,0,1,0,38458,0.172392,0.172039,-0.223869,20,0.0185944,10,-3.85141e-05,-3.65001,-0.221361,-0.266532,2.32374,0.172039,
2,0,0,0,0,38458.3,0.170893,0.17059,-0.226581,20,0.0185228,10,-3.86525e-05,-3.64478,-0.260559,-0.226436,2.00254,0.17059,
2,0,0,0,0,38458.6,0.169395,0.169065,-0.23064,20,0.01845,10,-3.89932e-05,-3.63706,-0.184544,-0.319707,2.87269,0.169065,
2,0,0,1,0,38458.9,0.167896,0.167563,-0.233873,20,0.0183759,10,-3.91885e-05,-3.63102,-0.198904,-0.296625,2.70653,0.167563,
2,0,0,1,0,38459.2,0.166398,0.166043,-0.23728,20,0.0183007,10,-3.93986e-05,-3.62474,-0.239726,-0.246115,2.29382,0.166043,
2,0,0,1,0,38459.5,0.164901,0.164584,-0.240719,20,0.0182246,10,-3.96185e-05,-3.61849,-0.198655,-0.296997,2.81012,0.164584,
2,0,0,1,0,38459.8,0.163402,0.163054,-0.246057,20,0.0181472,10,-4.01205e-05,-3.60896,-0.170876,-0.34528,3.31185,0.163054,
2,0,0,1,0,38460.1,0.161904,0.161569,-0.251501,20,0.0180683,10,-4.06348e-05,-3.59946,-0.170468,-0.346107,3.38869,0.161569,
2,0,0,1,0,38460.4,0.160405,0.160084,-0.256512,20,0.0179878,10,-4.10636e-05,-3.59089,-0.165702,-0.35606,3.54962,0.160084,
2,0,0,1,0,38460.7,0.158907,0.158569,-0.260353,20,0.0179057,10,-4.12839e-05,-3.58444,-0.166217,-0.354957,3.62661,0.158569,
2,0,0,1,0,38461,0.157409,0.157076,-0.26666,20,0.0178222,10,-4.1886e-05,-3.57404,-0.137562,-0.428896,4.49484,0.157076,
2,0,0,0,0,38461.3,0.155911,0.155575,-0.274038,20,0.0177366,10,-4.26333e-05,-3.56219,-0.141395,-0.417272,4.45956,0.155575,
2,0,0,0,0,38461.6,0.154413,0.154092,-0.280504,20,0.0176487,10,-4.32235e-05,-3.55206,-0.144036,-0.409619,4.48312,0.154092,
2,0,0,0,0,38461.9,0.152915,0.152576,-0.288389,20,0.0175588,10,-4.40012e-05,-3.54002,-0.126216,-0.467453,5.29364,0.152576,
2,0,0,1,0,38462.2,0.151416,0.151067,-0.29661,20,0.0174667,10,-4.48079e-05,-3.52781,-0.114442,-0.515545,5.99232,0.151067,
2,0,0,1,0,38462.5,0.149919,0.149632,-0.307282,20,0.0173715,10,-4.59793e-05,-3.51246,-0.102988,-0.572884,6.88956,0.149632,
2,0,0,1,0,38462.8,0.14842,0.148098,-0.318067,20,0.0172731,10,-4.71049e-05,-3.49748,-0.0976798,-0.604014,7.52508,0.148098,
2,0,0,1,0,38463.1,0.146922,0.146565,-0.329719,20,0.0171714,10,-4.83253e-05,-3.48186,-0.0911917,-0.646989,8.37211,0.146565,
2,0,0,1,0,38463.4,0.145424,0.145096,-0.343371,20,0.0170661,10,-4.98217e-05,-3.46424,-0.0830329,-0.710561,9.55757,0.145096,
2,0,0,1,0,38463.7,0.143925,0.143586,-0.357526,20,0.0169563,10,-5.13359e-05,-3.44669,-0.0770791,-0.765448,10.7059,0.143586,
2,0,0,1,0,38464,0.142427,0.14209,-0.374863,20,0.0168417,10,-5.32641e-05,-3.42613,-0.0784676,-0.751903,10.9991,0.14209,
2,0,0,1,0,38464.3,0.14093,0.1406,-0.391779,20,0.0167223,10,-5.50841e-05,-3.40696,-0.0807594,-0.730565,11.1945,0.1406,
2,0,0,0,0,38464.6,0.139431,0.13912,-0.406182,20,0.016598,10,-5.65082e-05,-3.39128,-0.0801623,-0.736007,11.7676,0.13912,
2,0,0,0,0,38464.9,0.137933,0.137607,-0.428755,20,0.0164682,10,-5.89998e-05,-3.36779,-0.0766366,-0.769867,12.8729,0.137607,
2,0,0,1,0,38465.2,0.136434,0.136107,-0.448648,20,0.0163322,10,-6.10643e-05,-3.34809,-0.0786309,-0.750341,13.0806,0.136107,
2,0,0,1,0,38465.5,0.134936,0.134585,-0.466903,20,0.0161905,10,-6.28382e-05,-3.33077,-0.0848754,-0.695137,12.6467,0.134585,
2,0,0,1,0,38465.8,0.133439,0.133095,-0.485744,20,0.0160427,10,-6.46503e-05,-3.31359,-0.0867563,-0.680066,12.8962,0.133095,
2,0,0,1,0,38466.1,0.13194,0.131615,-0.505701,20,0.0158894,10,-6.65576e-05,-3.29611,-0.0915487,-0.644466,12.7287,0.1316147,
2,0,0,1,0,38466.4,0.130442,0.1301,-0.524581,20,0.0157304,10,-6.82483e-05,-3.28019,-0.102822,-0.573808,11.7157,0.1301,
2,0,0,1,0,38466.7,0.128943,0.128627,-0.541485,20,0.0155657,10,-6.96497e-05,-3.26641,-0.117681,-0.501353,10.5501,0.128627,
2,0,0,1,0,38467,0.127445,0.127165,-0.557893,20,0.0153961,10,-7.09447e-05,-3.25345,-0.12793,-0.46119,9.99451,0.127165,
2,0,0,1,0,38467.3,0.125947,0.125601,-0.571917,20,0.0152224,10,-7.18335e-05,-3.24267,-0.142083,-0.415251,9.23399,0.125601,
2,0,0,0,0,38467.6,0.124449,0.124114,-0.58518,20,0.0150442,10,-7.26292e-05,-3.23271,-0.163217,-0.361483,8.19427,0.124114,
2,0,0,0,0,38467.9,0.122951,0.122574,-0.595343,20,0.0148625,10,-7.29734e-05,-3.22523,-0.216792,-0.27215,6.30217,0.122574,
2,0,0,0,0,38468.2,0.121453,0.121122,-0.603843,20,0.014678,10,-7.31387e-05,-3.21908,-0.290369,-0.203189,4.77326,0.121122,
2,0,0,1,0,38468.5,0.119954,0.11962,-0.60865,20,0.0144914,10,-7.2807e-05,-3.21563,-0.349321,-0.168899,4.01437,0.11962,
2,0,0,1,0,38468.8,0.118456,0.118161,-0.613545,20,0.0143032,10,-7.24973e-05,-3.21215,-0.39125,-0.150799,3.60811,0.118161,
2,0,0,1,0,38469.1,0.116958,0.116584,-0.619477,20,0.0141133,10,-7.22214e-05,-3.20797,-0.611034,-0.0965576,2.32567,0.116584,
2,0,0,1,0,38469.4,0.11546,0.115113,-0.622044,20,0.0139226,10,-7.16052e-05,-3.20618,-3.16492,-0.0186419,0.450129,0.115113,
2,0,0,1,0,38469.7,0.113962,0.113616,-0.619221,20,0.0137318,10,-7.03536e-05,-3.20815,16.0937,0.00366604,-0.0886688,0.113616,
2,0,0,1,0,38470,0.112463,0.112077,-0.620169,20,0.0135411,10,-6.95064e-05,-3.20749,5.46639,0.0107932,-0.260986,0.112077,
2,0,0,1,0,38470.3,0.110965,0.110664,-0.619979,20,0.0133504,10,-6.86096e-05,-3.20762,1.97047,0.0299421,-0.723163,0.110664,
2,0,0,1,0,38470.6,0.109468,0.109133,-0.618477,20,0.0131599,10,-6.74966e-05,-3.20868,0.767321,0.0768909,-1.85057,0.109133,
2,0,0,0,0,38470.9,0.107969,0.107653,-0.616657,20,0.01297,10,-6.63848e-05,-3.20996,0.894291,0.065974,-1.58801,0.107653,
2,0,0,0,0,38471.2,0.106471,0.106149,-0.613548,20,0.0127811,10,-6.51275e-05,-3.21215,1.37191,0.0430058,-1.03204,0.106149,
2,0,0,1,0,38471.5,0.104972,0.104676,-0.611157,20,0.0125926,10,-6.39733e-05,-3.21385,0.75564,0.0780795,-1.86327,0.104676,
2,0,0,1,0,38471.8,0.103474,0.103163,-0.608901,20,0.0124046,10,-6.2816e-05,-3.21545,0.65627,0.089902,-2.13165,0.103163,
2,0,0,1,0,38472.1,0.101977,0.101613,-0.606004,20,0.0122177,10,-6.1578e-05,-3.21752,0.640888,0.0920598,-2.17708,0.101613,
2,0,0,1,0,38472.4,0.100478,0.10015,-0.601931,20,0.012032,10,-6.02836e-05,-3.22045,0.58473,0.100901,-2.36935,0.1001503,
2,0,0,1,0,38472.7,0.0989798,0.098653,-0.600196,20,0.0118469,10,-5.92111e-05,-3.22171,0.933616,0.0631952,-1.47719,0.098653,
2,0,0,1,0,38473,0.0974812,0.0971573,-0.596899,20,0.0116627,10,-5.79931e-05,-3.2241,0.634045,0.0930534,-2.16622,0.0971573,
2,0,0,1,0,38473.3,0.0959834,0.095634,-0.591924,20,0.0114794,10,-5.66081e-05,-3.22773,0.589445,0.100094,-2.31788,0.095634,
2,0,0,1,0,38473.6,0.0944855,0.0941688,-0.58819,20,0.0112977,10,-5.53891e-05,-3.23048,0.471684,0.125084,-2.87904,0.0941688,
2,0,0,0,0,38473.9,0.0929871,0.0926681,-0.585134,20,0.0111167,10,-5.42232e-05,-3.23274,0.787362,0.0749337,-1.71067,0.0926681,
2,0,0,0,0,38474.2,0.0914889,0.0911984,-0.583769,20,0.0109367,10,-5.32388e-05,-3.23376,0.673651,0.0875824,-1.98855,0.0911984,
2,0,0,0,0,38474.5,0.0899907,0.0896745,-0.57823,20,0.0107578,10,-5.18525e-05,-3.2379,0.386352,0.15271,-3.44098,0.0896745,
2,0,0,1,0,38474.8,0.0884923,0.0881634,-0.572461,20,0.0105801,10,-5.04701e-05,-3.24225,0.540659,0.109126,-2.4423,0.0881634,
2,0,0,1,0,38475.1,0.0869946,0.0866527,-0.570472,20,0.010404,10,-4.9433e-05,-3.24377,0.423971,0.139161,-3.10051,0.0866527,
2,0,0,1,0,38475.4,0.0854961,0.0851212,-0.567153,20,0.0102287,10,-4.82767e-05,-3.2463,0.51188,0.115261,-2.5499,0.08512117,
2,0,0,1,0,38475.7,0.083998,0.0836451,-0.561507,20,0.0100547,10,-4.69673e-05,-3.25065,0.37029,0.159335,-3.49321,0.0836451,
2,0,0,1,0,38476,0.0824998,0.0821807,-0.5592,20,0.00988189,10,-4.59554e-05,-3.25243,0.443995,0.132884,-2.89855,0.0821807,
2,0,0,1,0,38476.3,0.0810014,0.0807023,-0.554675,20,0.00971068,10,-4.47636e-05,-3.25596,0.510301,0.115618,-2.50413,0.0807023,
2,0,0,1,0,38476.6,0.0795035,0.0791363,-0.550703,20,0.00954034,10,-4.35806e-05,-3.25908,0.531627,0.11098,-2.38058,0.07913629,
2,0,0,1,0,38476.9,0.0780056,0.0776883,-0.54771,20,0.0093711,10,-4.25507e-05,-3.26145,0.517243,0.114066,-2.43591,0.0776883,
2,0,0,0,0,38477.2,0.076507,0.0761332,-0.543334,20,0.00920313,10,-4.13657e-05,-3.26493,0.521946,0.113039,-2.39538,0.0761332,
2,0,0,0,0,38477.5,0.0750088,0.0747249,-0.539444,20,0.00903671,10,-4.03099e-05,-3.26805,0.512455,0.115132,-2.42101,0.0747249,
2,0,0,1,0,38477.8,0.0735103,0.0732146,-0.536323,20,0.00887103,10,-3.92667e-05,-3.27057,0.759747,0.0776575,-1.61982,0.0732146,
2,0,0,1,0,38478.1,0.0720124,0.0716444,-0.531124,20,0.00870642,10,-3.80521e-05,-3.2748,0.495861,0.118985,-2.47179,0.0716444,
2,0,0,1,0,38478.4,0.0705146,0.0701401,-0.52839,20,0.00854297,10,-3.70613e-05,-3.27705,0.562987,0.104798,-2.16466,0.0701401,
2,0,0,1,0,38478.7,0.069016,0.0687039,-0.522732,20,0.00838068,10,-3.59138e-05,-3.28172,0.569885,0.10353,-2.12407,0.0687039,
2,0,0,1,0,38479,0.0675179,0.0671823,-0.522087,20,0.00821939,10,-3.5075e-05,-3.28226,0.683451,0.0863265,-1.75806,0.0671823,
2,0,0,1,0,38479.3,0.0660192,0.065657,-0.520759,20,0.00805868,10,-3.41914e-05,-3.28336,0.523494,0.112704,-2.28102,0.06565696,
2,0,0,1,0,38479.6,0.0645214,0.0641621,-0.516184,20,0.00789894,10,-3.31195e-05,-3.2872,0.42354,0.139302,-2.79811,0.0641621,
2,0,0,1,0,38479.9,0.0630235,0.0626662,-0.509583,20,0.00774058,10,-3.19336e-05,-3.29278,0.506636,0.116454,-2.33087,0.0626662,
2,0,0,0,0,38480.2,0.0615251,0.061174,-0.509052,20,0.00758347,10,-3.11407e-05,-3.29324,0.501319,0.11769,-2.34118,0.061174,
2,0,0,0,0,38480.5,0.0600269,0.0597361,-0.504804,20,0.00742697,10,-3.0155e-05,-3.29688,0.633707,0.0931029,-1.8358,0.0597361,
2,0,0,0,0,38480.8,0.0585287,0.0582123,-0.502368,20,0.00727141,10,-2.9244e-05,-3.29898,0.360343,0.163733,-3.20289,0.0582123,
2,0,0,1,0,38481.1,0.0570303,0.056717,-0.497858,20,0.00711697,10,-2.8237e-05,-3.30289,0.545563,0.108145,-2.10562,0.056717,
2,0,0,1,0,38481.4,0.0555325,0.0551795,-0.495848,20,0.00696394,10,-2.73607e-05,-3.30465,0.598597,0.0985639,-1.90828,0.0551795,
2,0,0,1,0,38481.7,0.0540342,0.0536684,-0.492292,20,0.00681141,10,-2.64206e-05,-3.30778,0.660456,0.0893322,-1.71413,0.0536684,
2,0,0,1,0,38482,0.052536,0.0522093,-0.489644,20,0.00665965,10,-2.5564e-05,-3.31012,0.521016,0.11324,-2.16122,0.0522093,
2,0,0,1,0,38482.3,0.0510378,0.0507332,-0.484554,20,0.0065091,10,-2.4583e-05,-3.31466,0.393882,0.149791,-2.83858,0.0507332,
2,0,0,1,0,38482.6,0.0495394,0.0492179,-0.481854,20,0.00635985,10,-2.37158e-05,-3.31708,0.486481,0.121279,-2.28271,0.0492179,
2,0,0,1,0,38482.9,0.0480415,0.0477442,-0.478228,20,0.00621142,10,-2.28326e-05,-3.32036,0.673264,0.0876328,-1.63572,0.0477442,
2,0,0,1,0,38483.2,0.0465436,0.0462089,-0.474645,20,0.006064,10,-2.19328e-05,-3.32363,0.434894,0.135665,-2.5186,0.0462089,
2,0,0,0,0,38483.5,0.045045,0.0446889,-0.471174,20,0.0059176,10,-2.10563e-05,-3.32682,0.420519,0.140303,-2.58015,0.0446889,
2,0,0,0,0,38483.8,0.0435468,0.0431853,-0.466265,20,0.00577237,10,-2.01358e-05,-3.33137,0.430365,0.137093,-2.50144,0.0431853,
2,0,0,1,0,38484.1,0.0420483,0.0417459,-0.464057,20,0.00562829,10,-1.93725e-05,-3.33343,0.471882,0.125031,-2.26787,0.0417459,
2,0,0,1,0,38484.4,0.0405504,0.0402057,-0.462217,20,0.00548505,10,-1.85838e-05,-3.33515,0.499098,0.118213,-2.12332,0.04020568,
2,0,0,1,0,38484.7,0.0390526,0.0387689,-0.458425,20,0.00534263,10,-1.77727e-05,-3.33873,0.433888,0.13598,-2.42232,0.0387689,
2,0,0,1,0,38485,0.0375541,0.0372375,-0.453453,20,0.00520143,10,-1.68854e-05,-3.34347,0.437731,0.134786,-2.39103,0.0372375,
2,0,0,1,0,38485.3,0.0360559,0.0357274,-0.450245,20,0.00506156,10,-1.60861e-05,-3.34655,0.437937,0.134723,-2.37034,0.0357274,
2,0,0,1,0,38485.6,0.0345572,0.0342149,-0.446709,20,0.00492238,10,-1.52841e-05,-3.34998,0.4409,0.133817,-2.33503,0.0342149,
2,0,0,1,0,38485.9,0.0330594,0.0327423,-0.444342,20,0.00478415,10,-1.45488e-05,-3.35228,0.399483,0.147691,-2.55345,0.0327423,
2,0,0,1,0,38486.2,0.0315615,0.0312274,-0.441731,20,0.00464699,10,-1.37941e-05,-3.35484,0.456665,0.129198,-2.22473,0.0312274,
2,0,0,0,0,38486.5,0.0300631,0.0297234,-0.437815,20,0.00451099,10,-1.30133e-05,-3.35871,0.526324,0.112098,-1.91528,0.0297234,
2,0,0,0,0,38486.8,0.0285649,0.0282367,-0.434178,20,0.00437569,10,-1.22598e-05,-3.36233,0.559039,0.105538,-1.7861,0.0282367,
2,0,0,0,0,38487.1,0.0270667,0.0267723,-0.431966,20,0.00424112,10,-1.15647e-05,-3.36455,0.491619,0.120012,-2.01992,0.0267723,
2,0,0,1,0,38487.4,0.0255683,0.0252694,-0.428103,20,0.00410751,10,-1.08179e-05,-3.36845,0.497986,0.118477,-1.98441,0.0252694,
2,0,0,1,0,38487.7,0.0240706,0.023762,-0.424966,20,0.00397508,10,-1.00981e-05,-3.37165,0.625372,0.0943439,-1.56999,0.023762,
2,0,0,1,0,38488,0.0225722,0.0222528,-0.42334,20,0.00384319,10,-9.42053e-06,-3.37331,0.906473,0.0650874,-1.07594,0.0222528,
2,0,0,1,0,38488.3,0.021074,0.0207503,-0.421527,20,0.003712,10,-8.74678e-06,-3.37518,0.585199,0.10082,-1.66078,0.0207503,
2,0,0,1,0,38488.6,0.0195758,0.0193145,-0.419984,20,0.00358143,10,-8.11176e-06,-3.37677,0.695992,0.0847711,-1.38497,0.0193145,
2,0,0,1,0,38488.9,0.0180774,0.017731,-0.416361,20,0.00345153,10,-7.38249e-06,-3.38053,0.822554,0.0717278,-1.16879,0.017731,
2,0,0,1,0,38489.2,0.0165795,0.0162201,-0.416575,20,0.00332229,10,-6.75688e-06,-3.38031,1.08498,0.054379,-0.884184,0.0162201,
2,0,0,1,0,38489.5,0.0150817,0.0147595,-0.415152,20,0.00319328,10,-6.12744e-06,-3.38179,1.82045,0.0324095,-0.525591,0.0147595,
2,0,0,0,0,38489.8,0.013583,0.0132415,-0.414008,20,0.00306447,10,-5.48209e-06,-3.38299,0.814901,0.0724014,-1.16749,0.0132415,
2,0,0,0,0,38490.1,0.0120848,0.0116976,-0.411696,20,0.00293625,10,-4.81584e-06,-3.38542,1.55751,0.0378809,-0.611389,0.0116976,
2,0,0,1,0,38490.4,0.0105863,0.0102837,-0.411194,20,0.00280851,10,-4.2286e-06,-3.38595,2.93847,0.0200785,-0.323113,0.0102837,
2,0,0,1,0,38490.7,0.00908846,0.00876334,-0.411953,20,0.00268066,10,-3.61008e-06,-3.38515,-91.6444,-0.000643793,0.0103411,0.00876334,
2,0,0,1,0,38491,0.0075906,0.00725047,-0.412138,20,0.00255293,10,-2.9882e-06,-3.38496,6.28007,0.0093948,-0.150866,0.007250471,
2,0,0,1,0,38491.3,0.00609207,0.00571475,-0.411693,20,0.00242516,10,-2.35272e-06,-3.38543,-2.50926,-0.0235129,0.377644,0.00571475,
2,0,0,1,0,38491.6,0.00459389,0.00425563,-0.41141,20,0.00229757,10,-1.75081e-06,-3.38572,-6.64437,-0.0088797,0.142435,0.00425563,
2,0,0,1,0,38491.9,0.00309525,0.00274625,-0.412277,20,0.00216963,10,-1.13221e-06,-3.38481,-0.929598,-0.0634683,1.02252,0.00274625,
2,0,0,1,0,38492.2,0.00159739,0.0011982,-0.416287,20,0.00203984,10,-4.98794e-07,-3.38061, , , ,0.0011982,
2,0,0,0,0,38492.5,0.000199195,-0.000178351,-0.414837,20,0.00191953,10,7.39866e-08,-3.38212, , , ,-0.000178351,