File: Figure_codes/Fig_3-5/rawdata_trumpetplot_data/after 10th/20221101_1-115_003_TrumpetPlot_ParaChange_from10_every3_13_CV_C01_3.csv
mode,ox/red,error,control changes,counter inc.,time/s,control/V,Ewe/V,<I>/mA,cycle number,(Q-Qo)/C,I Range,P/W,log(|I|),Tafel slope mV/dec,alpha_eff,dI/d(E-IR),E-IR/V,
2,1,0,1,0,7108.25,2.44065e-05,-0.000287149,26.2635,4,0.0000000E+000,10,-7.54153e-06,-1.58065, , , ,-0.0002871489,
2,1,0,1,0,7108.25,0.00266289,0.00228328,27.5952,4,8.39697e-05,10,6.30075e-05,-1.55917, , , ,0.00228328,
2,1,0,1,0,7108.25,0.00586735,0.00551858,28.7855,4,0.000196944,10,0.000158855,-1.54083, , , ,0.00551858,
2,1,0,1,0,7108.26,0.00906349,0.00868919,29.7426,4,0.000314135,10,0.000258439,-1.52662,0.228389,0.258331,296.941,0.00868919,
2,1,0,1,0,7108.26,0.0122624,0.0118842,30.6073,4,0.00043495,10,0.000363744,-1.51417,0.271503,0.217309,257.914,0.0118842,
2,1,0,1,0,7108.27,0.0154641,0.0150707,31.3923,4,0.000559042,10,0.000473105,-1.50318,0.306122,0.192734,234.852,0.0150707,
2,1,0,1,0,7108.27,0.0186602,0.018358,32.097,4,0.000686133,10,0.000589235,-1.49354,0.34622,0.170412,212.512,0.018358,
2,1,0,1,0,7108.27,0.0218675,0.021501,32.7515,4,0.000815928,10,0.000704191,-1.48477,0.385629,0.152997,194.821,0.021501,
2,1,0,1,0,7108.28,0.0250636,0.0247363,33.3386,4,0.0009482,10,0.000824673,-1.47705,0.419373,0.140686,182.588,0.0247363,
2,1,0,1,0,7108.28,0.0282597,0.0279197,33.8956,4,0.00108274,10,0.000946352,-1.46986,0.454222,0.129892,171.547,0.0279197,
2,1,0,1,0,7108.29,0.031467,0.0311942,34.4407,4,0.00121949,10,0.00107435,-1.46293,0.477191,0.12364,165.928,0.0311942,
2,1,0,1,0,7108.29,0.0346631,0.0343362,34.9533,4,0.00135832,10,0.00120016,-1.45651,0.509095,0.115892,157.856,0.0343362,
2,1,0,1,0,7108.29,0.0378704,0.0375057,35.4574,4,0.00149918,10,0.00132985,-1.45029,0.528045,0.111733,154.417,0.0375057,
2,1,0,1,0,7108.3,0.0410665,0.0407898,35.9272,4,0.00164198,10,0.00146546,-1.44458,0.54447,0.108362,151.896,0.0407898,
2,1,0,1,0,7108.3,0.0442626,0.0438926,36.4016,4,0.00178669,10,0.00159776,-1.43888,0.558871,0.10557,150.011,0.0438926,
2,1,0,1,0,7108.31,0.0474671,0.0471448,36.8989,4,0.00193332,10,0.00173959,-1.43299,0.55255,0.106778,153.749,0.0471448,
2,1,0,1,0,7108.31,0.0506632,0.0503176,37.3793,4,0.00208192,10,0.00188083,-1.42737,0.557521,0.105826,154.387,0.0503176,
2,1,0,1,0,7108.31,0.0538621,0.0534935,37.8804,4,0.00223247,10,0.00202635,-1.42159,0.559087,0.105529,156.041,0.0534935,
2,1,0,1,0,7108.32,0.0570638,0.0567012,38.379,4,0.00238506,10,0.00217614,-1.41591,0.552252,0.106835,160.09,0.0567012,
2,1,0,1,0,7108.32,0.06026,0.0599344,38.8946,4,0.00253965,10,0.00233113,-1.41011,0.545564,0.108145,164.284,0.0599344,
2,1,0,1,0,7108.33,0.0634672,0.0631326,39.4308,4,0.00269636,10,0.00248937,-1.40416,0.537113,0.109846,169.125,0.0631326,
2,1,0,1,0,7108.33,0.0666633,0.0663223,39.9879,4,0.00285524,10,0.00265209,-1.39807,0.529392,0.111449,173.978,0.0663223,
2,1,0,1,0,7108.33,0.0698595,0.069494,40.5426,4,0.00301637,10,0.00281747,-1.39209,0.524075,0.112579,178.201,0.069494,
2,1,0,1,0,7108.34,0.0730667,0.0727558,41.1253,4,0.00317978,10,0.0029921,-1.38589,0.515968,0.114348,183.628,0.0727558,
2,1,0,1,0,7108.34,0.0762629,0.0759137,41.7084,4,0.00334552,10,0.00316624,-1.37978,0.509742,0.115745,188.538,0.07591366,
2,1,0,1,0,7108.35,0.0794701,0.0790758,42.3298,4,0.00351364,10,0.00334727,-1.37335,0.501488,0.11765,194.449,0.0790758,
2,1,0,1,0,7108.35,0.0826662,0.0823005,42.9571,4,0.00368428,10,0.00353539,-1.36696,0.499814,0.118044,197.923,0.0823005,
2,1,0,1,0,7108.35,0.0858624,0.0854732,43.5981,4,0.00385743,10,0.00372647,-1.36053,0.494935,0.119208,202.905,0.0854732,
2,1,0,1,0,7108.36,0.0890668,0.0887117,44.2415,4,0.00403317,10,0.00392474,-1.35417,0.489833,0.120449,208.124,0.0887117,
2,1,0,1,0,7108.36,0.092263,0.091859,44.9236,4,0.00421156,10,0.00412664,-1.34753,0.489989,0.120411,211.19,0.091859,
2,1,0,1,0,7108.37,0.0954674,0.0950879,45.6185,4,0.00439269,10,0.00433777,-1.34086,0.489982,0.120413,214.285,0.0950879,
2,1,0,1,0,7108.37,0.0986636,0.0983211,46.3115,4,0.00457664,10,0.0045534,-1.33431,0.496171,0.118911,214.809,0.09832111,
2,1,0,1,0,7108.37,0.10186,0.101512,46.9843,4,0.00476333,10,0.00476947,-1.32805,0.508981,0.115918,212.453,0.101512,
2,1,0,1,0,7108.38,0.105067,0.104689,47.6796,4,0.00495274,10,0.00499152,-1.32167,0.505761,0.116656,217.089,0.104689,
2,1,0,1,0,7108.38,0.108263,0.107859,48.3318,4,0.00514484,10,0.00521305,-1.31577,0.495401,0.119095,224.979,0.107859,
2,1,0,1,0,7108.39,0.111465,0.111083,49.082,4,0.00533971,10,0.00545218,-1.30908,0.49162,0.120011,230.144,0.1110831,
2,1,0,1,0,7108.39,0.114666,0.11426,49.8524,4,0.00553769,10,0.00569614,-1.30231,0.484851,0.121687,236.679,0.11426,
2,1,0,1,0,7108.39,0.117863,0.117488,50.6252,4,0.00573871,10,0.00594785,-1.29563,0.49009,0.120386,237.684,0.117488,
2,1,0,1,0,7108.4,0.12107,0.120709,51.3732,4,0.00594278,10,0.00620123,-1.28926,0.500328,0.117923,236.333,0.120709,
2,1,0,1,0,7108.4,0.124266,0.123897,52.1277,4,0.00614985,10,0.00645846,-1.28293,0.501617,0.11762,239.389,0.123897,
2,1,0,1,0,7108.41,0.127462,0.127084,52.883,4,0.00635994,10,0.00672057,-1.27668,0.496005,0.11895,245.721,0.127084,
2,1,0,1,0,7108.41,0.130667,0.130359,53.7064,4,0.00657319,10,0.00700113,-1.26997,0.488463,0.120787,253.295,0.130359,
2,1,0,1,0,7108.41,0.133863,0.133519,54.5208,4,0.00678972,10,0.00727957,-1.26344,0.479982,0.122921,261.661,0.133519,
2,1,0,1,0,7108.42,0.137067,0.136704,55.3715,4,0.00700957,10,0.00756948,-1.25671,0.475033,0.124202,268.557,0.136704,
2,1,0,1,0,7108.42,0.140263,0.139911,56.2396,4,0.00723288,10,0.00786855,-1.24996,0.464059,0.127139,279.27,0.139911,
2,1,0,1,0,7108.43,0.143459,0.143137,57.138,4,0.00745972,10,0.00817857,-1.24307,0.46201,0.127703,284.983,0.143137,
2,1,0,1,0,7108.43,0.146667,0.146278,58.084,4,0.00769027,10,0.0084964,-1.23594,0.456262,0.129312,293.166,0.146278,
2,1,0,1,0,7108.43,0.149863,0.149543,59.0305,4,0.00792457,10,0.0088276,-1.22892,0.45538,0.129562,298.455,0.149543,
2,1,0,1,0,7108.44,0.153064,0.152682,59.9834,4,0.00816271,10,0.00915838,-1.22197,0.464999,0.126882,296.984,0.152682,
2,1,0,1,0,7108.44,0.156266,0.15592,60.9532,4,0.00840468,10,0.00950384,-1.215,0.465002,0.126881,301.758,0.15592,
2,1,0,1,0,7108.45,0.159462,0.159149,61.9065,4,0.00865051,10,0.00985237,-1.20826,0.4788,0.123225,297.588,0.159149,
2,1,0,1,0,7108.45,0.16267,0.162329,62.8889,4,0.00890018,10,0.0102087,-1.20143,0.487608,0.120999,296.677,0.162329,
2,1,0,1,0,7108.45,0.165866,0.165565,63.8172,4,0.00915367,10,0.0105659,-1.19506,0.50283,0.117336,291.917,0.165565,
2,1,0,1,0,7108.46,0.169062,0.168673,64.7366,4,0.00941087,10,0.0109193,-1.18885,0.530424,0.111232,280.709,0.168673,
2,1,0,1,0,7108.46,0.172266,0.171888,65.6251,4,0.0096717,10,0.0112802,-1.18293,0.552624,0.106763,273.077,0.171888,
2,1,0,1,0,7108.47,0.175462,0.175097,66.4728,4,0.00993599,10,0.0116392,-1.17736,0.592399,0.099595,258.014,0.175097,
2,1,0,1,0,7108.47,0.178667,0.178286,67.2912,4,0.0102036,10,0.0119971,-1.17204,0.641252,0.0920076,241.171,0.178286,
2,1,0,1,0,7108.47,0.181863,0.181525,68.0526,4,0.0104744,10,0.0123532,-1.16716,0.700221,0.0842591,223.257,0.181525,
2,1,0,1,0,7108.48,0.185059,0.18475,68.727,4,0.010748,10,0.0126973,-1.16287,0.803712,0.0734094,196.363,0.18475,
2,1,0,1,0,7108.48,0.188266,0.187907,69.3329,4,0.0110243,10,0.0130282,-1.15906,0.958806,0.0615349,165.968,0.187907,
2,1,0,1,0,7108.49,0.191463,0.191084,69.8043,4,0.0113026,10,0.0133385,-1.15612,1.24769,0.0472875,128.341,0.1910844,
2,1,0,1,0,7108.49,0.194664,0.194327,70.1774,4,0.0115826,10,0.0136374,-1.1538,2.00793,0.0293835,80.0933,0.194327,
2,1,0,1,0,7108.49,0.197866,0.197518,70.3657,4,0.0118638,10,0.0138985,-1.15264,6.10965,0.00965685,26.3714,0.197518,
2,1,0,1,0,7108.5,0.201062,0.2007,70.3575,4,0.0121453,10,0.0141208,-1.15269,-4.23247,-0.0139399,-38.0456,0.2007,
2,1,0,1,0,7108.5,0.204269,0.203934,70.1432,4,0.0124263,10,0.0143046,-1.15401,-1.46384,-0.040305,-109.575,0.203934,
2,1,0,1,0,7108.51,0.207465,0.207156,69.6893,4,0.012706,10,0.0144366,-1.15683,-0.867658,-0.0679991,-183.57,0.207156,
2,1,0,1,0,7108.51,0.210662,0.210341,68.9606,4,0.0129833,10,0.0145053,-1.1614,-0.595224,-0.0991223,-264.72,0.210341,
2,1,0,1,0,7108.51,0.213866,0.213537,68.001,4,0.0132572,10,0.0145208,-1.16748,-0.451764,-0.130599,-343.849,0.213537,
2,1,0,1,0,7108.52,0.217062,0.216765,66.7466,4,0.0135266,10,0.0144683,-1.17557,-0.363639,-0.162249,-419.405,0.216765,
2,1,0,1,0,7108.52,0.220267,0.219968,65.284,4,0.0137906,10,0.0143604,-1.18519,-0.305797,-0.192939,-488.041,0.219968,
2,1,0,1,0,7108.53,0.223463,0.223165,63.5823,4,0.0140482,10,0.0141893,-1.19666,-0.266665,-0.221252,-545.524,0.223165,
2,1,0,1,0,7108.53,0.226659,0.226387,61.7296,4,0.0142987,10,0.0139748,-1.20951,-0.237943,-0.247958,-594.099,0.226387,
2,1,0,1,0,7108.53,0.229866,0.229612,59.7383,4,0.0145415,10,0.0137166,-1.22375,-0.217558,-0.271192,-629.441,0.229612,
2,1,0,1,0,7108.54,0.233062,0.232802,57.6592,4,0.0147761,10,0.0134232,-1.23913,-0.204324,-0.288757,-647.848,0.232802,
2,1,0,1,0,7108.54,0.236264,0.235936,55.5434,4,0.0150023,10,0.0131047,-1.25537,-0.195094,-0.302418,-654.479,0.235936,
2,1,0,1,0,7108.55,0.239466,0.239175,53.4453,4,0.01522,10,0.0127828,-1.27209,-0.19121,-0.308561,-643.491,0.2391749,
2,1,0,1,0,7108.55,0.242662,0.242387,51.3775,4,0.0154295,10,0.0124532,-1.28923,-0.189481,-0.311377,-624.989,0.242387,
2,1,0,1,0,7108.55,0.245869,0.245598,49.4252,4,0.0156309,10,0.0121387,-1.30605,-0.189576,-0.311221,-601.276,0.245598,
2,1,0,1,0,7108.56,0.249065,0.248764,47.5262,4,0.0158246,10,0.0118228,-1.32307,-0.193173,-0.305426,-568.099,0.248764,
2,1,0,1,0,7108.56,0.252261,0.251954,45.7616,4,0.0160109,10,0.0115298,-1.3395,-0.19847,-0.297275,-533.008,0.251954,
2,1,0,1,0,7108.57,0.255466,0.255151,44.1263,4,0.0161905,10,0.0112589,-1.3553,-0.208046,-0.283591,-490.397,0.255151,
2,1,0,1,0,7108.57,0.258662,0.258352,42.6269,4,0.0163638,10,0.0110128,-1.37032,-0.217977,-0.27067,-452.046,0.258352,
2,1,0,1,0,7108.57,0.261866,0.261582,41.2402,4,0.0165314,10,0.0107877,-1.38468,-0.229627,-0.256939,-415.197,0.261582,
2,1,0,1,0,7108.58,0.265063,0.264795,39.9567,4,0.0166936,10,0.0105803,-1.39841,-0.243706,-0.242095,-379.335,0.264795,
2,1,0,1,0,7108.58,0.268259,0.267981,38.7994,4,0.016851,10,0.0103975,-1.41118,-0.258468,-0.228268,-347.238,0.267981,
2,1,0,1,0,7108.59,0.271466,0.271159,37.7689,4,0.017004,10,0.0102414,-1.42287,-0.278548,-0.211813,-313.482,0.2711589,
2,1,0,1,0,7108.59,0.274662,0.27437,36.7999,4,0.0171531,10,0.0100968,-1.43415,-0.298205,-0.197851,-285.259,0.27437,
2,1,0,1,0,7108.59,0.277869,0.277549,35.9587,4,0.0172985,10,0.00998029,-1.4442,-0.319714,-0.18454,-259.822,0.277549,
2,1,0,1,0,7108.6,0.281065,0.280782,35.1477,4,0.0174406,10,0.00986884,-1.4541,-0.344413,-0.171306,-235.81,0.280782,
2,1,0,1,0,7108.6,0.284262,0.28399,34.4352,4,0.0175797,10,0.00977923,-1.463,-0.37015,-0.159395,-215.006,0.28399,
2,1,0,1,0,7108.61,0.287469,0.28715,33.7863,4,0.017716,10,0.00970172,-1.47126,-0.397663,-0.148367,-196.195,0.28715,
2,1,0,1,0,7108.61,0.290665,0.29036,33.2043,4,0.0178499,10,0.00964118,-1.47881,-0.431761,-0.13665,-177.511,0.29036,
2,1,0,1,0,7108.61,0.293861,0.293513,32.6499,4,0.0179816,10,0.00958318,-1.48612,-0.462207,-0.127649,-163.314,0.2935133,
2,1,0,1,0,7108.62,0.297066,0.296798,32.1615,4,0.0181112,10,0.00954548,-1.49266,-0.464891,-0.126912,-160.748,0.296798,
2,1,0,1,0,7108.62,0.299637,0.299317,31.7992,4,0.0182135,10,0.00951804,-1.49758,-0.100545,-0.586804,-703.546,0.299317,
2,1,0,1,0,7108.62,0.300012,0.299613,31.7168,4,0.0182294,10,0.00950277,-1.49871,0.00648254,9.10138,9375.79,0.299613,
2,1,0,1,0,7108.62,0.298983,0.298886,28.8697,4,0.0182676,10,0.00862875,-1.53956,0.0224767,2.62494,2330.96,0.298886,
2,1,0,1,0,7108.63,0.295787,0.295647,21.3644,4,0.0183667,10,0.00631632,-1.67031,0.0226532,2.60449,1983.55,0.295647,
2,1,0,1,0,7108.63,0.292579,0.292372,15.6115,4,0.0184397,10,0.00456437,-1.80656,0.0211243,2.793,1687.58,0.292372,
2,1,0,1,0,7108.64,0.289383,0.289135,10.9333,4,0.0184921,10,0.0031612,-1.96125,0.017162,3.43782,1362.15,0.289135,
2,1,0,1,0,7108.64,0.286187,0.28596,7.0554,4,0.0185275,10,0.00201756,-2.15148,0.0108854,5.4201,1136.24,0.28596,
2,1,0,1,0,7108.64,0.282983,0.282737,3.77994,4,0.0185487,10,0.00106873,-2.42251,0.0140282,4.20583,958.546,0.282737,
2,1,0,1,0,7108.65,0.279786,0.279544,1.03493,4,0.0185579,10,0.000289309,-2.98509,0.0396955,1.48631,811.525,0.279544,
2,0,0,1,0,7108.65,0.276582,0.276334,-1.33725,4,0.018557,10,-0.000369528,-2.87379,-0.0967956,-0.609532,694.436,0.276334,
2,0,0,1,0,7108.66,0.273386,0.273134,-3.35291,4,0.0185473,10,-0.000915795,-2.47458,-0.0158754,-3.71645,599.441,0.273134,
2,0,0,1,0,7108.66,0.27019,0.269909,-5.12885,4,0.0185301,10,-0.00138432,-2.28998,-0.0165042,-3.57485,519.483,0.269909,
2,0,0,1,0,7108.66,0.266982,0.266708,-6.659,4,0.0185063,10,-0.00177601,-2.17659,-0.0292597,-2.01642,455.312,0.266708,
2,0,0,1,0,7108.67,0.263786,0.263515,-7.99608,4,0.0184767,10,-0.00210709,-2.09712,-0.0425447,-1.38678,400.174,0.263515,
2,0,0,1,0,7108.67,0.260585,0.260334,-9.18098,4,0.0184422,10,-0.00239012,-2.03711,-0.0566117,-1.04219,355.032,0.260334,
2,0,0,1,0,7108.68,0.257383,0.257125,-10.2443,4,0.0184032,10,-0.00263408,-1.98952,-0.0721509,-0.81773,315.422,0.257125,
2,0,0,1,0,7108.68,0.254187,0.25395,-11.1888,4,0.0183602,10,-0.00284139,-1.95122,-0.0890073,-0.662867,281.687,0.25395,
2,0,0,1,0,7108.68,0.25098,0.250672,-12.0473,4,0.0183136,10,-0.00301991,-1.91911,-0.107396,-0.549367,252.919,0.250672,
2,0,0,1,0,7108.69,0.247783,0.2475,-12.7962,4,0.0182638,10,-0.00316706,-1.89292,-0.126726,-0.46557,229.013,0.2475,
2,0,0,1,0,7108.69,0.244587,0.244261,-13.4981,4,0.0182112,10,-0.00329706,-1.86973,-0.146377,-0.40307,209.924,0.244261,
2,0,0,1,0,7108.7,0.241383,0.241089,-14.134,4,0.0181558,10,-0.00340756,-1.84973,-0.166641,-0.354055,193.474,0.241089,
2,0,0,1,0,7108.7,0.238187,0.237879,-14.7328,4,0.018098,10,-0.00350461,-1.83172,-0.188786,-0.312523,178.202,0.2378791,
2,0,0,1,0,7108.7,0.234982,0.234657,-15.2811,4,0.0180379,10,-0.00358581,-1.81585,-0.211498,-0.278962,165.121,0.234657,
2,0,0,1,0,7108.71,0.231786,0.231441,-15.7825,4,0.0179757,10,-0.00365273,-1.80182,-0.235213,-0.250836,153.648,0.231441,
2,0,0,1,0,7108.71,0.22859,0.228282,-16.2487,4,0.0179116,10,-0.00370928,-1.78918,-0.256802,-0.229749,145.15,0.228282,
2,0,0,1,0,7108.72,0.225383,0.225081,-16.6992,4,0.0178457,10,-0.00375866,-1.77731,-0.275464,-0.214184,139.207,0.225081,
2,0,0,1,0,7108.72,0.222187,0.221915,-17.1306,4,0.0177779,10,-0.00380152,-1.76623,-0.299096,-0.197261,131.442,0.221915,
2,0,0,1,0,7108.72,0.218979,0.2187,-17.5563,4,0.0177086,10,-0.00383955,-1.75557,-0.321097,-0.183745,125.422,0.2187,
2,0,0,1,0,7108.73,0.215783,0.215518,-17.9264,4,0.0176375,10,-0.00386347,-1.74651,-0.343924,-0.171549,119.773,0.215518,
2,0,0,1,0,7108.73,0.212587,0.212271,-18.3058,4,0.017565,10,-0.00388579,-1.73741,-0.360229,-0.163785,116.94,0.212271,
2,0,0,1,0,7108.74,0.20938,0.209052,-18.6712,4,0.017491,10,-0.00390324,-1.72883,-0.379145,-0.155613,113.234,0.209052,
2,0,0,1,0,7108.74,0.206184,0.205896,-19.0535,4,0.0174156,10,-0.00392304,-1.72003,-0.388984,-0.151677,112.56,0.205896,
2,0,0,1,0,7108.74,0.202988,0.202655,-19.383,4,0.0173386,10,-0.00392806,-1.71258,-0.404547,-0.145842,110.224,0.202655,
2,0,0,1,0,7108.75,0.199783,0.199507,-19.7425,4,0.0172603,10,-0.00393877,-1.7046,-0.421203,-0.140075,107.896,0.199507,
2,0,0,1,0,7108.75,0.196587,0.196298,-20.0769,4,0.0171806,10,-0.00394107,-1.6973,-0.422655,-0.139594,109.358,0.196298,
2,0,0,1,0,7108.76,0.193382,0.193076,-20.4368,4,0.0170996,10,-0.00394585,-1.68959,-0.434285,-0.135856,108.313,0.193076,
2,0,0,1,0,7108.76,0.190186,0.189881,-20.7799,4,0.0170171,10,-0.00394571,-1.68236,-0.433344,-0.136151,110.389,0.189881,
2,0,0,1,0,7108.76,0.18699,0.186692,-21.1305,4,0.0169332,10,-0.00394491,-1.67509,-0.438147,-0.134658,111.099,0.186692,
2,0,0,1,0,7108.77,0.183783,0.183504,-21.4893,4,0.0168479,10,-0.00394337,-1.66778,-0.432304,-0.136478,114.55,0.183504,
2,0,0,1,0,7108.77,0.180587,0.180265,-21.86,4,0.0167612,10,-0.0039406,-1.66035,-0.42155,-0.13996,119.558,0.180265,
2,0,0,1,0,7108.78,0.17738,0.177051,-22.2496,4,0.0166729,10,-0.00393931,-1.65268,-0.413487,-0.142689,124.043,0.177051,
2,0,0,1,0,7108.78,0.174183,0.173867,-22.6639,4,0.0165831,10,-0.0039405,-1.64466,-0.397972,-0.148251,131.284,0.173867,
2,0,0,1,0,7108.78,0.170987,0.170681,-23.0799,4,0.0164916,10,-0.0039393,-1.63677,-0.387301,-0.152336,137.449,0.170681,
2,0,0,1,0,7108.79,0.16778,0.16745,-23.5424,4,0.0163983,10,-0.00394218,-1.62815,-0.370142,-0.159398,146.747,0.16745,
2,0,0,1,0,7108.79,0.164584,0.164233,-24.0114,4,0.0163031,10,-0.00394347,-1.61958,-0.351179,-0.168006,157.87,0.164233,
2,0,0,1,0,7108.8,0.161382,0.16108,-24.5403,4,0.016206,10,-0.00395296,-1.61012,-0.331645,-0.177901,170.908,0.1610802,
2,0,0,1,0,7108.8,0.158183,0.157863,-25.1035,4,0.0161067,10,-0.00396291,-1.60027,-0.311962,-0.189126,185.845,0.157863,
2,0,0,1,0,7108.8,0.154987,0.154697,-25.7221,4,0.016005,10,-0.00397912,-1.58969,-0.295023,-0.199985,201.403,0.154697,
2,0,0,1,0,7108.81,0.151783,0.151469,-26.3836,4,0.0159007,10,-0.00399629,-1.57867,-0.277268,-0.21279,219.896,0.151469,
2,0,0,1,0,7108.81,0.148587,0.148309,-27.1125,4,0.0157937,10,-0.00402102,-1.56683,-0.260106,-0.226831,241.117,0.148309,
2,0,0,1,0,7108.82,0.145385,0.145127,-27.904,4,0.0156835,10,-0.00404963,-1.55433,-0.243928,-0.241875,264.667,0.145127,
2,0,0,1,0,7108.82,0.142183,0.141887,-28.8108,4,0.01557,10,-0.00408787,-1.54045,-0.228939,-0.25771,290.999,0.141887,
2,0,0,1,0,7108.82,0.138987,0.138712,-29.7599,4,0.0154528,10,-0.00412805,-1.52637,-0.218258,-0.270323,315.235,0.138712,
2,0,0,1,0,7108.83,0.13578,0.135521,-30.8337,4,0.0153315,10,-0.00417861,-1.51097,-0.207361,-0.284529,343.615,0.135521,
2,0,0,1,0,7108.83,0.132584,0.132298,-31.9484,4,0.0152059,10,-0.00422669,-1.49555,-0.198136,-0.297776,372.876,0.132298,
2,0,0,1,0,7108.84,0.129388,0.129168,-33.181,4,0.0150755,10,-0.00428594,-1.47911,-0.191068,-0.30879,401.766,0.129168,
2,0,0,1,0,7108.84,0.12618,0.12592,-34.5296,4,0.01494,10,-0.00434797,-1.46181,-0.18419,-0.320321,433.008,0.12592,
2,0,0,1,0,7108.84,0.122984,0.122723,-35.9755,4,0.0147989,10,-0.00441503,-1.44399,-0.182551,-0.323198,454.468,0.122723,
2,0,0,1,0,7108.85,0.119783,0.119538,-37.4735,4,0.0146518,10,-0.0044795,-1.42628,-0.180807,-0.326315,477.593,0.119538,
2,0,0,1,0,7108.85,0.116584,0.116279,-39.0388,4,0.0144987,10,-0.00453939,-1.4085,-0.18229,-0.32366,493.228,0.1162791,
2,0,0,1,0,7108.86,0.113387,0.113124,-40.6408,4,0.0143391,10,-0.00459747,-1.39104,-0.185875,-0.317418,503.187,0.113124,
2,0,0,1,0,7108.86,0.110183,0.109921,-42.2899,4,0.0141731,10,-0.00464855,-1.37376,-0.188998,-0.312172,514.455,0.109921,
2,0,0,1,0,7108.86,0.106987,0.106693,-43.9368,4,0.0140005,10,-0.00468775,-1.35717,-0.198856,-0.296697,507.135,0.106693,
2,0,0,1,0,7108.87,0.103785,0.103556,-45.5841,4,0.0138213,10,-0.00472052,-1.34119,-0.207631,-0.284158,503.663,0.103556,
2,0,0,1,0,7108.87,0.100583,0.100362,-47.1129,4,0.0136357,10,-0.00472836,-1.32686,-0.214819,-0.27465,504.448,0.1003624,
2,0,0,1,0,7108.88,0.0973873,0.0972056,-48.6942,4,0.0134439,10,-0.00473334,-1.31252,-0.228282,-0.258452,490.687,0.0972056,
2,0,0,1,0,7108.88,0.0941801,0.0940137,-50.3328,4,0.0132457,10,-0.00473198,-1.29815,-0.23799,-0.247909,485.189,0.0940137,
2,0,0,1,0,7108.88,0.0909839,0.0907965,-51.8452,4,0.0130412,10,-0.00470736,-1.28529,-0.253459,-0.232779,469.242,0.0907965,
2,0,0,1,0,7108.89,0.0877878,0.0875877,-53.311,4,0.0128307,10,-0.00466939,-1.27318,-0.275547,-0.214119,444.022,0.0875877,
2,0,0,1,0,7108.89,0.0845806,0.0843471,-54.7279,4,0.0126144,10,-0.00461614,-1.26179,-0.294817,-0.200124,425.937,0.0843471,
2,0,0,1,0,7108.9,0.0813844,0.0811595,-56.0404,4,0.0123927,10,-0.00454821,-1.2515,-0.316083,-0.18666,407.025,0.08115948,
2,0,0,1,0,7108.9,0.0781828,0.0779475,-57.318,4,0.0121659,10,-0.0044678,-1.24171,-0.34117,-0.172934,385.723,0.0779475,
2,0,0,1,0,7108.9,0.0749839,0.0747971,-58.5171,4,0.0119341,10,-0.00437691,-1.23272,-0.36821,-0.160235,364.856,0.0747971,
2,0,0,1,0,7108.91,0.0717877,0.0715957,-59.6464,4,0.0116976,10,-0.00427043,-1.22442,-0.402739,-0.146497,340.026,0.0715957,
2,0,0,1,0,7108.91,0.0685832,0.0683583,-60.711,4,0.0114568,10,-0.0041501,-1.21673,-0.444503,-0.132733,313.456,0.0683583,
2,0,0,1,0,7108.92,0.0653871,0.0651145,-61.6816,4,0.0112119,10,-0.00401636,-1.20984,-0.498898,-0.118261,283.652,0.0651145,
2,0,0,1,0,7108.92,0.0621854,0.0619311,-62.55,4,0.0109633,10,-0.00387379,-1.20377,-0.571261,-0.10328,251.16,0.0619311,
2,0,0,1,0,7108.92,0.0589837,0.0586905,-63.307,4,0.0107114,10,-0.00371552,-1.19855,-0.664169,-0.0888329,218.674,0.05869054,
2,0,0,1,0,7108.93,0.0557876,0.0555008,-63.9403,4,0.0104568,10,-0.00354874,-1.19423,-0.802477,-0.0735223,182.82,0.0555008,
2,0,0,1,0,7108.93,0.0525804,0.0522708,-64.4902,4,0.0101999,10,-0.00337095,-1.19051,-0.984108,-0.0599528,150.363,0.0522708,
2,0,0,1,0,7108.94,0.0493842,0.0491087,-64.8942,4,0.00994101,10,-0.00318687,-1.18779,-1.26427,-0.0466672,117.824,0.0491087,
2,0,0,1,0,7108.94,0.0461881,0.0458999,-65.2302,4,0.00968069,10,-0.00299406,-1.18555,-1.74255,-0.0338584,85.9405,0.0458999,
2,0,0,1,0,7108.94,0.0429808,0.0426689,-65.4522,4,0.00941925,10,-0.00279277,-1.18408,-2.64831,-0.0222784,56.7387,0.0426689,
2,0,0,1,0,7108.95,0.0397847,0.0394834,-65.5891,4,0.00915714,10,-0.00258968,-1.18317,-5.28394,-0.0111659,28.5049,0.0394834,
2,0,0,1,0,7108.95,0.036583,0.0362672,-65.6228,4,0.00889472,10,-0.00237996,-1.18295,-36.3009,-0.00162531,4.15336,0.03626718,
2,0,0,1,0,7108.96,0.0333841,0.0330838,-65.5956,4,0.00863228,10,-0.00217015,-1.18313,9.50567,0.00620682,-15.8632,0.0330838,
2,0,0,1,0,7108.96,0.030188,0.0298729,-65.5053,4,0.00837007,10,-0.00195684,-1.18372,4.43334,0.0133083,-33.9705,0.0298729,
2,0,0,1,0,7108.96,0.0269835,0.0266641,-65.3858,4,0.00810828,10,-0.00174346,-1.18452,3.09759,0.0190471,-48.5293,0.0266641,
2,0,0,1,0,7108.97,0.0237874,0.0235094,-65.1894,4,0.00784712,10,-0.00153257,-1.18582,2.49479,0.0236493,-60.1035,0.0235094,
2,0,0,1,0,7108.97,0.0205857,0.0202975,-64.975,4,0.00758681,10,-0.00131883,-1.18725,2.13088,0.0276881,-70.1689,0.0202975,
2,0,0,1,0,7108.98,0.017384,0.0170961,-64.7374,4,0.00732737,10,-0.00110676,-1.18884,1.97667,0.0298482,-75.3711,0.0170961,
2,0,0,1,0,7108.98,0.0141879,0.013882,-64.4889,4,0.00706893,10,-0.000895235,-1.19052,1.79927,0.032791,-82.4723,0.013882,
2,0,0,1,0,7108.98,0.0109806,0.0106297,-64.2187,4,0.0068115,10,-0.000682628,-1.19234,1.63287,0.0361328,-90.4689,0.0106297,
2,0,0,1,0,7108.99,0.00778448,0.00748033,-63.918,4,0.00655525,10,-0.000478128,-1.19438,1.61911,0.0364397,-90.878,0.00748033,
2,0,0,1,0,7108.99,0.00458834,0.0042726,-63.5773,4,0.00630028,10,-0.00027164,-1.1967,1.45624,0.0405152,-100.518,0.0042726,
2,0,0,1,0,7109,0.0013811,0.00102563,-63.3205,4,0.00604654,10,-6.49437e-05,-1.19846,1.36922,0.0430903,-106.337,0.00102563,
2,0,0,1,0,7109,-0.00181504,-0.00220755,-62.9283,4,0.00579408,10,0.000138917,-1.20115,1.25243,0.0471086,-115.518,-0.002207546,
2,0,0,1,0,7109,-0.0050195,-0.0053665,-62.5519,4,0.00554316,10,0.000335685,-1.20376,1.08684,0.054286,-132.348,-0.0053665,
2,0,0,1,0,7109.01,-0.00821564,-0.00856469,-62.0943,4,0.00529389,10,0.000531819,-1.20695,1.00214,0.0588742,-142.49,-0.00856469,
2,0,0,1,0,7109.01,-0.0114118,-0.0117809,-61.6256,4,0.0050465,10,0.000726005,-1.21024,0.913611,0.0645789,-155.127,-0.0117809,
2,0,0,1,0,7109.02,-0.0146162,-0.0149685,-61.11,4,0.00480103,10,0.000914724,-1.21389,0.848045,0.0695718,-165.69,-0.0149685,
2,0,0,1,0,7109.02,-0.0178124,-0.0182038,-60.5605,4,0.00455771,10,0.00110243,-1.21781,0.776523,0.0759798,-179.311,-0.0182038,
2,0,0,1,0,7109.02,-0.0210196,-0.0214126,-59.9656,4,0.0043167,10,0.00128402,-1.2221,0.714673,0.0825553,-192.883,-0.0214126,
2,0,0,1,0,7109.03,-0.0242158,-0.024579,-59.3307,4,0.00407814,10,0.00145829,-1.22672,0.667976,0.0883266,-204.227,-0.024579,
2,0,0,1,0,7109.03,-0.0274119,-0.0277729,-58.6403,4,0.00384225,10,0.00162861,-1.2318,0.629527,0.0937212,-214.288,-0.0277729,
2,0,0,1,0,7109.04,-0.0306191,-0.0309827,-57.9507,4,0.00360912,10,0.00179547,-1.23694,0.604101,0.0976658,-220.726,-0.03098275,
2,0,0,1,0,7109.04,-0.0338153,-0.0341852,-57.2286,4,0.00337882,10,0.00195637,-1.24239,0.587565,0.100414,-224.146,-0.0341852,
2,0,0,1,0,7109.04,-0.037017,-0.0373569,-56.5103,4,0.00315143,10,0.00211105,-1.24787,0.579514,0.101809,-224.5,-0.0373569,
2,0,0,1,0,7109.05,-0.0402187,-0.0405466,-55.7771,4,0.00292692,10,0.00226157,-1.25354,0.582736,0.101247,-220.498,-0.0405466,
2,0,0,1,0,7109.05,-0.0434148,-0.0437797,-55.0777,4,0.0027053,10,0.00241129,-1.25902,0.597166,0.0988,-212.58,-0.0437797,
2,0,0,1,0,7109.06,-0.0466193,-0.0470034,-54.4022,4,0.00248644,10,0.00255709,-1.26438,0.619215,0.0952819,-202.531,-0.0470034,
2,0,0,1,0,7109.06,-0.0498154,-0.0502207,-53.7757,4,0.00227016,10,0.00270065,-1.26941,0.64897,0.0909133,-191.061,-0.0502207,
2,0,0,1,0,7109.06,-0.0530115,-0.0534008,-53.1737,4,0.00205633,10,0.00283952,-1.2743,0.692755,0.0851672,-177.036,-0.0534008,
2,0,0,1,0,7109.07,-0.056216,-0.0565407,-52.6396,4,0.00184476,10,0.00297628,-1.27869,0.758063,0.0778299,-160.21,-0.0565407,
2,0,0,1,0,7109.07,-0.0594121,-0.0597813,-52.14,4,0.00163526,10,0.003117,-1.28283,0.838246,0.070385,-143.528,-0.0597813,
2,0,0,1,0,7109.08,-0.0626194,-0.0630102,-51.7267,4,0.00142761,10,0.00325931,-1.28628,0.948349,0.0622134,-125.828,-0.0630102,
2,0,0,1,0,7109.08,-0.0658155,-0.0661861,-51.3387,4,0.00122151,10,0.00339791,-1.28956,1.08151,0.0545535,-109.513,-0.0661861,
2,0,0,1,0,7109.08,-0.0690117,-0.0694373,-51.0169,4,0.00101684,10,0.00354247,-1.29229,1.2423,0.0474925,-94.7487,-0.06943734,
2,0,0,1,0,7109.09,-0.0722189,-0.0725507,-50.7416,4,0.000813327,10,0.00368134,-1.29464,1.5055,0.0391896,-77.7565,-0.0725507,
2,0,0,1,0,7109.09,-0.075415,-0.0757818,-50.5167,4,0.000610852,10,0.00382824,-1.29657,1.87458,0.0314738,-62.1792,-0.0757818,
2,0,0,1,0,7109.1,-0.0786167,-0.0789789,-50.3439,4,0.00040916,10,0.00397611,-1.29805,2.45351,0.0240472,-47.3349,-0.0789789,
2,0,0,1,0,7109.1,-0.0818184,-0.0821304,-50.2276,4,0.000208039,10,0.00412521,-1.29906,3.54529,0.0166418,-32.6739,-0.0821304,
2,0,0,1,0,7109.1,-0.0850146,-0.0853731,-50.1346,4,7.32922e-06,10,0.00428015,-1.29986,5.61339,0.0105106,-20.5968,-0.0853731,
2,0,0,1,0,7109.11,-0.088219,-0.0885395,-50.0998,4,-0.000193112,10,0.00443581,-1.30016,12.3626,0.00477247,-9.34394,-0.0885395,
2,0,0,1,0,7109.11,-0.0914152,-0.0917547,-50.0808,4,-0.000393448,10,0.00459515,-1.30033,-37.6558,-0.00156682,3.06684,-0.0917547,
2,0,0,1,0,7109.12,-0.0946141,-0.0949762,-50.1076,4,-0.000593798,10,0.00475903,-1.3001,-8.48082,-0.00695687,13.6261,-0.0949762,
2,0,0,1,0,7109.12,-0.0978158,-0.0981744,-50.1739,4,-0.000794371,10,0.00492579,-1.29952,-4.58509,-0.0128678,25.2315,-0.0981744,
2,0,0,1,0,7109.12,-0.101012,-0.101376,-50.2747,4,-0.000995273,10,0.00509664,-1.29865,-3.36349,-0.0175413,34.4532,-0.101376,
2,0,0,1,0,7109.13,-0.104219,-0.104616,-50.4053,4,-0.00119664,10,0.00527322,-1.29752,-2.75313,-0.0214301,42.1877,-0.104616,
2,0,0,1,0,7109.13,-0.107415,-0.107751,-50.5477,4,-0.00139855,10,0.00544656,-1.2963,-2.18665,-0.0269819,53.2983,-0.107751,
2,0,0,1,0,7109.14,-0.110611,-0.110932,-50.7121,4,-0.0016011,10,0.0056256,-1.29489,-1.91397,-0.0308259,61.1067,-0.110932,
2,0,0,1,0,7109.14,-0.113819,-0.114166,-50.9564,4,-0.00180449,10,0.00581751,-1.2928,-1.66491,-0.0354373,70.5308,-0.114166,
2,0,0,1,0,7109.14,-0.117015,-0.117359,-51.184,4,-0.00200879,10,0.00600692,-1.29087,-1.50343,-0.0392435,78.4376,-0.117359,
2,0,0,1,0,7109.15,-0.120216,-0.120562,-51.4513,4,-0.00221411,10,0.00620305,-1.2886,-1.41276,-0.0417623,83.9215,-0.120562,
2,0,0,1,0,7109.15,-0.123418,-0.123783,-51.7201,4,-0.00242049,10,0.00640208,-1.28634,-1.29085,-0.0457061,92.3533,-0.123783,
2,0,0,1,0,7109.16,-0.126614,-0.126933,-52.0278,4,-0.00262803,10,0.00660402,-1.28376,-1.21627,-0.0485089,98.5938,-0.126933,
2,0,0,1,0,7109.16,-0.129819,-0.130192,-52.3692,4,-0.00283686,10,0.00681806,-1.28092,-1.14651,-0.0514606,105.216,-0.130192,
2,0,0,1,0,7109.16,-0.133015,-0.133352,-52.7123,4,-0.00304705,10,0.00702931,-1.27809,-1.09882,-0.0536942,110.502,-0.133352,
2,0,0,1,0,7109.17,-0.136214,-0.136559,-53.0643,4,-0.00325865,10,0.00724641,-1.2752,-1.07527,-0.0548701,113.693,-0.136559,
2,0,0,1,0,7109.17,-0.139416,-0.139751,-53.4442,4,-0.00347171,10,0.00746887,-1.2721,-1.02882,-0.0573471,119.68,-0.139751,
2,0,0,1,0,7109.18,-0.142612,-0.142981,-53.8231,4,-0.00368629,10,0.00769568,-1.26903,-1.00754,-0.0585585,123.063,-0.142981,
2,0,0,1,0,7109.18,-0.145819,-0.146154,-54.2444,4,-0.00390245,10,0.00792801,-1.26565,-0.992278,-0.0594592,125.88,-0.146154,
2,0,0,1,0,7109.18,-0.149015,-0.149364,-54.6402,4,-0.00412028,10,0.00816131,-1.26249,-0.97574,-0.0604669,128.946,-0.149364,
2,0,0,1,0,7109.19,-0.152211,-0.152567,-55.0575,4,-0.00433973,10,0.00839996,-1.25918,-0.98344,-0.0599935,128.928,-0.152567,
2,0,0,1,0,7109.19,-0.155418,-0.155748,-55.4694,4,-0.00456084,10,0.00863926,-1.25595,-0.963122,-0.0612591,132.643,-0.155748,
2,0,0,1,0,7109.2,-0.158615,-0.158956,-55.895,4,-0.00478362,10,0.00888483,-1.25263,-0.957414,-0.0616243,134.463,-0.158956,
2,0,0,1,0,7109.2,-0.161816,-0.162116,-56.3316,4,-0.00500812,10,0.00913225,-1.24925,-0.961673,-0.0613514,134.865,-0.162116,
2,0,0,1,0,7109.2,-0.165018,-0.165305,-56.7703,4,-0.00523438,10,0.00938438,-1.24588,-0.961907,-0.0613365,135.864,-0.165305,
2,0,0,1,0,7109.21,-0.168214,-0.168523,-57.1923,4,-0.00546237,10,0.00963821,-1.24266,-0.989652,-0.0596169,133.041,-0.168523,
2,0,0,1,0,7109.21,-0.171419,-0.171715,-57.6284,4,-0.00569205,10,0.00989565,-1.23936,-0.987307,-0.0597585,134.397,-0.171715,
2,0,0,1,0,7109.22,-0.174615,-0.174952,-58.0394,4,-0.00592345,10,0.0101541,-1.23628,-0.99155,-0.0595028,134.81,-0.174952,
2,0,0,1,0,7109.22,-0.177814,-0.17812,-58.4926,4,-0.00615654,10,0.0104187,-1.2329,-0.997509,-0.0591473,135.011,-0.17812,
2,0,0,1,0,7109.22,-0.181015,-0.181347,-58.9212,4,-0.00639144,10,0.0106852,-1.22973,-0.992504,-0.0594456,136.663,-0.181347,
2,0,0,1,0,7109.23,-0.184211,-0.184519,-59.3572,4,-0.00662806,10,0.0109525,-1.22653,-1.00537,-0.0586851,135.945,-0.184519,
2,0,0,1,0,7109.23,-0.187419,-0.187716,-59.7837,4,-0.00686639,10,0.0112224,-1.22342,-1.00933,-0.0584544,136.393,-0.187716,
2,0,0,1,0,7109.24,-0.190615,-0.190902,-60.2302,4,-0.00710647,10,0.0114981,-1.22019,-1.01223,-0.0582874,137.009,-0.190902,
2,0,0,1,0,7109.24,-0.193811,-0.194117,-60.6628,4,-0.0073483,10,0.0117757,-1.21708,-1.0286,-0.0573593,135.682,-0.194117,
2,0,0,1,0,7109.24,-0.197018,-0.197321,-61.1112,4,-0.00759191,10,0.0120585,-1.21388,-1.1262,-0.0523884,124.372,-0.197321,
2,0,0,1,0,7109.25,-0.199647,-0.199974,-61.4469,4,-0.00779416,10,0.0122878,-1.2115,0.314605,0.187537,-435.407,-0.199974,
2,0,0,1,0,7109.25,-0.200134,-0.200589,-61.4351,4,-0.00783105,10,0.0123232,-1.21158,-0.0140706,-4.19313,9133.13,-0.200589,
2,0,0,1,1,7109.25,-0.198935,-0.199469,-58.3326,4,-0.00791994,10,0.0116355,-1.23409,-0.0505951,-1.16612,2394,-0.199469,
2,0,0,1,1,7109.25,-0.195739,-0.196195,-50.8259,4,-0.008137,10,0.00997181,-1.29391,-0.0556219,-1.06073,2050,-0.196195,
2,0,0,1,1,7109.26,-0.192535,-0.192959,-44.6528,4,-0.00832707,10,0.00861614,-1.35015,-0.0563294,-1.04741,1852.74,-0.192959,
2,0,0,1,1,7109.26,-0.189339,-0.18977,-39.2556,4,-0.00849419,10,0.00744955,-1.4061,-0.0560467,-1.05269,1622.74,-0.18977,
2,0,0,1,1,7109.26,-0.186137,-0.186557,-34.4109,4,-0.00864091,10,0.00641961,-1.4633,-0.0542302,-1.08795,1462.55,-0.186557,
2,0,0,1,1,7109.27,-0.182935,-0.183358,-29.9944,4,-0.00876916,10,0.00549971,-1.52296,-0.0515467,-1.14459,1335.14,-0.183358,
2,0,0,1,1,7109.27,-0.179739,-0.180156,-25.9272,4,-0.00888049,10,0.00467093,-1.58624,-0.0482985,-1.22157,1226.63,-0.180156,
2,0,0,1,1,7109.28,-0.176532,-0.176955,-22.1458,4,-0.0089762,10,0.00391882,-1.65471,-0.04414,-1.33665,1140.97,-0.176955,
2,0,0,1,1,7109.28,-0.173336,-0.173706,-18.6475,4,-0.00905738,10,0.00323918,-1.72938,-0.0393717,-1.49854,1067.22,-0.1737061,
2,0,0,1,1,7109.28,-0.17014,-0.170539,-15.368,4,-0.00912503,10,0.00262083,-1.81338,-0.034256,-1.72233,997.033,-0.170539,
2,0,0,1,1,7109.29,-0.166932,-0.167349,-12.2598,4,-0.00917991,10,0.00205166,-1.91152,-0.028197,-2.09242,945.147,-0.167349,
2,0,0,1,1,7109.29,-0.163736,-0.164112,-9.3403,4,-0.00922279,10,0.00153285,-2.02964,-0.0216284,-2.72789,895.186,-0.164112,
2,0,0,1,1,7109.3,-0.160532,-0.160923,-6.56551,4,-0.00925428,10,0.00105654,-2.18273,-0.0139582,-4.22692,843.082,-0.160923,
2,0,0,1,1,7109.3,-0.157336,-0.157789,-3.95502,4,-0.00927505,10,0.00062406,-2.40285,-0.0125393,-4.70521,801.096,-0.157789,
2,0,0,1,1,7109.3,-0.154139,-0.154575,-1.49054,4,-0.00928565,10,0.0002304,-2.82666,-0.0398404,-1.48091,761.995,-0.1545753,
2,1,0,1,1,7109.31,-0.150935,-0.151336,0.894335,4,-0.00928656,10,-0.000135345,-3.0485,0.099545,0.592697,723.238,-0.151336,
2,1,0,1,1,7109.31,-0.147739,-0.148181,3.14373,4,-0.00927821,10,-0.000465842,-2.50255,0.0184081,3.20512,693.191,-0.148181,
2,1,0,1,1,7109.32,-0.144532,-0.144964,5.32098,4,-0.00926104,10,-0.000771349,-2.27401,0.0124849,4.72569,663.371,-0.144964,
2,1,0,1,1,7109.32,-0.141335,-0.141812,7.3567,4,-0.00923544,10,-0.00104327,-2.13332,0.0230979,2.55434,632.453,-0.141812,
2,1,0,1,1,7109.32,-0.138139,-0.138623,9.3279,4,-0.00920187,10,-0.00129306,-2.03022,0.0327353,1.80234,605.975,-0.138623,
2,1,0,1,1,7109.33,-0.134932,-0.135428,11.2097,4,-0.00916058,10,-0.00151811,-1.9504,0.0420409,1.4034,583.156,-0.135428,
2,1,0,1,1,7109.33,-0.131736,-0.13221,13.0493,4,-0.00911185,10,-0.00172525,-1.88441,0.0517931,1.13915,558.812,-0.13221,
2,1,0,1,1,7109.34,-0.12854,-0.129052,14.7977,4,-0.00905595,10,-0.00190968,-1.82981,0.0618252,0.954304,535.376,-0.129052,
2,1,0,1,1,7109.34,-0.125333,-0.125811,16.4873,4,-0.00899319,10,-0.00207428,-1.78285,0.0722152,0.817003,514.217,-0.125811,
2,1,0,1,1,7109.34,-0.122136,-0.122583,18.0865,4,-0.00892386,10,-0.00221709,-1.74265,0.0830066,0.710787,493.233,-0.122583,
2,1,0,1,1,7109.35,-0.118932,-0.119364,19.6548,4,-0.00884823,10,-0.00234609,-1.70653,0.0946837,0.623128,470.942,-0.119364,
2,1,0,1,1,7109.35,-0.115736,-0.116194,21.1399,4,-0.00876646,10,-0.00245633,-1.6749,0.105835,0.557471,453.957,-0.116194,
2,1,0,1,1,7109.36,-0.11254,-0.112915,22.5604,4,-0.00867891,10,-0.00254741,-1.64665,0.118618,0.497396,433.244,-0.112915,
2,1,0,1,1,7109.36,-0.109335,-0.109742,23.9155,4,-0.00858579,10,-0.00262454,-1.62132,0.131239,0.449562,415.97,-0.109742,
2,1,0,1,1,7109.36,-0.106139,-0.106536,25.2128,4,-0.0084874,10,-0.00268606,-1.59838,0.143939,0.409896,400.444,-0.106536,
2,1,0,1,1,7109.37,-0.102932,-0.103362,26.4777,4,-0.00838389,10,-0.00273678,-1.57712,0.158282,0.372752,382.495,-0.103362,
2,1,0,1,1,7109.37,-0.0997357,-0.100133,27.6789,4,-0.00827544,10,-0.00277157,-1.55785,0.171922,0.343178,368.457,-0.100133,
2,1,0,1,1,7109.38,-0.0965395,-0.0969114,28.8233,4,-0.00816227,10,-0.0027933,-1.54026,0.187448,0.314754,352.3,-0.09691143,
2,1,0,1,1,7109.38,-0.0933323,-0.0936942,29.9443,4,-0.00804461,10,-0.00280561,-1.52369,0.202427,0.291463,339.035,-0.0936942,
2,1,0,1,1,7109.38,-0.0901362,-0.0905225,31.001,4,-0.00792259,10,-0.00280629,-1.50862,0.216459,0.272569,328.453,-0.0905225,
2,1,0,1,1,7109.39,-0.0869345,-0.0872745,32.0384,4,-0.00779641,10,-0.00279614,-1.49433,0.233198,0.253004,315.08,-0.0872745,
2,1,0,1,1,7109.39,-0.0837328,-0.0841166,33.0258,4,-0.00766617,10,-0.00277802,-1.48115,0.251655,0.234448,300.95,-0.0841166,
2,1,0,1,1,7109.4,-0.0805366,-0.0809481,33.9604,4,-0.0075321,10,-0.00274903,-1.46903,0.269535,0.218896,289.153,-0.08094807,
2,1,0,1,1,7109.4,-0.0773322,-0.0777075,34.8577,4,-0.00739438,10,-0.0027087,-1.4577,0.290492,0.203104,275.499,-0.0777075,
2,1,0,1,1,7109.4,-0.074136,-0.0745305,35.7234,4,-0.00725313,10,-0.00266248,-1.44705,0.311801,0.189223,263.074,-0.0745305,
2,1,0,1,1,7109.41,-0.0709371,-0.0713355,36.547,4,-0.0071085,10,-0.00260709,-1.43715,0.331175,0.178153,253.459,-0.0713355,
2,1,0,1,1,7109.41,-0.0677354,-0.0680991,37.3406,4,-0.00696061,10,-0.00254286,-1.42782,0.353812,0.166755,242.462,-0.0680991,
2,1,0,1,1,7109.42,-0.0645393,-0.064919,38.099,4,-0.00680962,10,-0.00247335,-1.41909,0.378154,0.156021,231.439,-0.06491895,
2,1,0,1,1,7109.42,-0.0613321,-0.061707,38.8326,4,-0.0066557,10,-0.00239624,-1.4108,0.403911,0.146072,220.817,-0.061707,
2,1,0,1,1,7109.42,-0.0581359,-0.0585321,39.5102,4,-0.00649893,10,-0.00231261,-1.40329,0.429021,0.137522,211.67,-0.0585321,
2,1,0,1,1,7109.43,-0.0549398,-0.0553148,40.1636,4,-0.00633949,10,-0.00222164,-1.39617,0.458577,0.128659,201.365,-0.05531485,
2,1,0,1,1,7109.43,-0.0517325,-0.0521145,40.8093,4,-0.00617744,10,-0.00212676,-1.38924,0.489685,0.120486,191.487,-0.0521145,
2,1,0,1,1,7109.44,-0.0485364,-0.0489492,41.4015,4,-0.00601295,10,-0.00202657,-1.38298,0.523523,0.112698,181.717,-0.0489492,
2,1,0,1,1,7109.44,-0.0453347,-0.0457351,41.9606,4,-0.00584616,10,-0.00191907,-1.37716,0.563505,0.104702,171.184,-0.0457351,
2,1,0,1,1,7109.44,-0.042133,-0.0425147,42.4896,4,-0.00567719,10,-0.00180643,-1.37172,0.602078,0.0979939,162.285,-0.0425147,
2,1,0,1,1,7109.45,-0.0389369,-0.0393398,42.9961,4,-0.00550617,10,-0.00169146,-1.36657,0.645785,0.0913616,153.08,-0.0393398,
2,1,0,1,1,7109.45,-0.0357324,-0.0361194,43.4836,4,-0.00533317,10,-0.0015706,-1.36167,0.694554,0.0849466,143.887,-0.03611936,
2,1,0,1,1,7109.46,-0.0325363,-0.0329339,43.9202,4,-0.00515829,10,-0.00144646,-1.35734,0.753846,0.0782654,133.934,-0.0329339,
2,1,0,1,1,7109.46,-0.0293374,-0.0297389,44.3279,4,-0.00498174,10,-0.00131826,-1.35332,0.82063,0.071896,124.227,-0.0297389,
2,1,0,1,1,7109.46,-0.0261357,-0.0265237,44.7127,4,-0.00480358,10,-0.00118595,-1.34957,0.879902,0.067053,116.881,-0.0265237,
2,1,0,1,1,7109.47,-0.0229395,-0.0233224,45.0734,4,-0.00462397,10,-0.00105122,-1.34608,0.963044,0.0612641,107.627,-0.02332237,
2,1,0,1,1,7109.47,-0.0197323,-0.0201242,45.4174,4,-0.00444295,10,-0.000913989,-1.34278,1.06587,0.055354,97.9404,-0.0201242,
2,1,0,1,1,7109.48,-0.0165361,-0.0169154,45.708,4,-0.00426066,10,-0.000773169,-1.34001,1.16712,0.0505519,90.0579,-0.01691539,
2,1,0,1,1,7109.48,-0.01334,-0.0137225,45.9664,4,-0.00407728,10,-0.000630774,-1.33756,1.31543,0.0448523,80.399,-0.0137225,
2,1,0,1,1,7109.48,-0.0101328,-0.0105095,46.2273,4,-0.00389284,10,-0.000485824,-1.3351,1.4654,0.040262,72.5503,-0.0105095,
2,1,0,1,1,7109.49,-0.00693663,-0.00731022,46.4477,4,-0.00370747,10,-0.000339543,-1.33304,1.62211,0.0363724,65.8349,-0.00731022,
2,1,0,1,1,7109.49,-0.00373494,-0.00407598,46.6395,4,-0.00352128,10,-0.000190102,-1.33125, , , ,-0.00407598,
2,1,0,1,1,7109.5,-0.000774628,-0.00115562,46.7938,4,-0.00334841,10,-5.40759e-05,-1.32981, , , ,-0.00115562,
2,1,0,0,1,7109.5,-0.000125413,-0.000535284,46.8302,4,-0.00331096,10,-2.50675e-05,-1.32947, , , ,-0.000535284,