File: Figure_codes/Fig_3-5/rawdata_trumpetplot_data/after 10th/20221101_1-115_003_TrumpetPlot_ParaChange_from10_every3_02_CV_C01_35.csv
mode,ox/red,error,control changes,counter inc.,time/s,control/V,Ewe/V,<I>/mA,cycle number,(Q-Qo)/C,I Range,P/W,log(|I|),Tafel slope mV/dec,alpha_eff,dI/d(E-IR),E-IR/V,
2,0,0,1,0,69294.6,2.44065e-05,-0.000268062,-0.409142,36,0.0000000E+000,10,1.09675e-07,-3.38813, , , ,-0.000268062,
2,0,0,1,0,69295.4,0.000798516,0.000406438,-0.207276,36,-0.000187204,10,-8.42448e-08,-3.68345, , , ,0.000406438,
2,0,0,1,0,69296.4,0.00179733,0.00141489,-0.170011,36,-0.000364393,10,-2.40547e-07,-3.76952, , , ,0.00141489,
2,0,0,1,0,69297.4,0.00279612,0.00249334,-0.14872,36,-0.000512491,10,-3.70809e-07,-3.82763,-0.0176797,-3.33717,20.9421,0.00249334,
2,0,0,1,0,69298.4,0.00379492,0.00349751,-0.133261,36,-0.000644479,10,-4.66082e-07,-3.8753,-0.0222969,-2.64611,14.3373,0.00349751,
2,0,0,1,0,69299.4,0.00479371,0.00448574,-0.121847,36,-0.000763299,10,-5.46574e-07,-3.91419,-0.0251158,-2.34912,11.4303,0.004485738,
2,0,0,1,0,69300.4,0.00579242,0.0054804,-0.111723,36,-0.000871307,10,-6.12286e-07,-3.95186,-0.0274759,-2.14734,9.49838,0.005480404,
2,0,0,1,0,69301.4,0.00679121,0.00646019,-0.103377,36,-0.000969751,10,-6.67838e-07,-3.98557,-0.0293956,-2.0071,8.20192,0.00646019,
2,0,0,1,0,69302.4,0.00779,0.00747183,-0.0955115,36,-0.00106026,10,-7.13646e-07,-4.01994,-0.0311204,-1.89586,7.15857,0.00747183,
2,0,0,1,0,69303.4,0.00878882,0.00845908,-0.089258,36,-0.00114395,10,-7.5504e-07,-4.04935,-0.033229,-1.77556,6.25951,0.00845908,
2,0,0,1,0,69304.4,0.00978761,0.00946754,-0.0831805,36,-0.00122118,10,-7.87515e-07,-4.07998,-0.0351436,-1.67883,5.50887,0.00946754,
2,0,0,1,0,69305.4,0.0107864,0.0104452,-0.078433,36,-0.00129321,10,-8.19252e-07,-4.1055,-0.0358274,-1.64678,5.05668,0.0104452,
2,0,0,1,0,69306.4,0.0117852,0.0114494,-0.0735994,36,-0.00136059,10,-8.42672e-07,-4.13313,-0.0374615,-1.57495,4.53754,0.01144944,
2,0,0,1,0,69307.4,0.012784,0.0124706,-0.068973,36,-0.00142363,10,-8.60135e-07,-4.16132,-0.0379921,-1.55296,4.21921,0.0124706,
2,0,0,1,0,69308.4,0.0137828,0.0134314,-0.0651945,36,-0.00148223,10,-8.75651e-07,-4.18579,-0.0388257,-1.51961,3.88309,0.0134314,
2,0,0,1,0,69309.4,0.0147815,0.014462,-0.0614856,36,-0.00153704,10,-8.89203e-07,-4.21123,-0.0398425,-1.48083,3.5604,0.01446197,
2,0,0,1,0,69310.3,0.0157803,0.0154736,-0.0579732,36,-0.00158807,10,-8.97054e-07,-4.23677,-0.0404858,-1.4573,3.31502,0.0154736,
2,0,0,1,0,69311.3,0.0167791,0.0164555,-0.0547851,36,-0.00163617,10,-9.01517e-07,-4.26134,-0.0417571,-1.41293,3.04542,0.0164555,
2,0,0,1,0,69312.3,0.0177779,0.017446,-0.051886,36,-0.001681,10,-9.05202e-07,-4.28495,-0.0427624,-1.37972,2.80897,0.017446,
2,0,0,1,0,69313.3,0.0187767,0.0184268,-0.0494109,36,-0.00172358,10,-9.10487e-07,-4.30618,-0.0422388,-1.39682,2.68477,0.0184268,
2,0,0,1,0,69314.3,0.0197755,0.019465,-0.0467615,36,-0.00176318,10,-9.10212e-07,-4.33011,-0.0394857,-1.49421,2.7001,0.019465,
2,0,0,1,0,69315.3,0.0207743,0.0204353,-0.0441003,36,-0.00180025,10,-9.01203e-07,-4.35556,-0.0407496,-1.44787,2.49731,0.0204353,
2,0,0,1,0,69316.3,0.0217731,0.0214278,-0.0411346,36,-0.0018346,10,-8.81425e-07,-4.38579,-0.039137,-1.50753,2.45289,0.0214278,
2,0,0,1,0,69317.3,0.0227719,0.0224511,-0.0393611,36,-0.00186645,10,-8.83699e-07,-4.40493,-0.0394877,-1.49413,2.29272,0.02245109,
2,0,0,1,0,69318.3,0.0237707,0.0234437,-0.0370022,36,-0.00189623,10,-8.67468e-07,-4.43177,-0.0406198,-1.45249,2.08378,0.0234437,
2,0,0,1,0,69319.3,0.0247695,0.02445,-0.0348957,36,-0.00192408,10,-8.532e-07,-4.45723,-0.0393318,-1.50006,2.05341,0.02445,
2,0,0,1,0,69320.3,0.0257683,0.0254722,-0.0327069,36,-0.00194977,10,-8.33119e-07,-4.48536,-0.0388721,-1.5178,1.95411,0.0254722,
2,0,0,1,0,69321.3,0.0267671,0.026468,-0.0311128,36,-0.00197339,10,-8.23493e-07,-4.50706,-0.0359045,-1.64325,1.97365,0.026468,
2,0,0,1,0,69322.3,0.0277659,0.0273969,-0.0292772,36,-0.00199502,10,-8.02105e-07,-4.53347,-0.0365377,-1.61477,1.8225,0.0273969,
2,0,0,1,0,69323.3,0.0287647,0.0284541,-0.026993,36,-0.00201466,10,-7.68061e-07,-4.56875,-0.0343504,-1.71759,1.82726,0.0284541,
2,0,0,1,0,69324.3,0.0297635,0.0294615,-0.0254366,36,-0.00203259,10,-7.49399e-07,-4.59454,-0.0321021,-1.83789,1.82334,0.0294615,
2,0,0,1,0,69325.3,0.0307623,0.0305039,-0.0237381,36,-0.00204874,10,-7.24106e-07,-4.62455,-0.0306626,-1.92417,1.75343,0.03050389,
2,0,0,1,0,69326.3,0.0317611,0.0314328,-0.0219183,36,-0.00206358,10,-6.88956e-07,-4.65919,-0.0265305,-2.22386,1.86455,0.0314328,
2,0,0,1,0,69327.3,0.0327599,0.0324137,-0.0200501,36,-0.00207608,10,-6.49898e-07,-4.69788,-0.0253657,-2.32597,1.81099,0.0324137,
2,0,0,1,0,69328.3,0.0337587,0.0334698,-0.0179627,36,-0.0020868,10,-6.0121e-07,-4.74563,-0.022447,-2.62841,1.84244,0.0334698,
2,0,0,1,0,69329.3,0.0347575,0.0344519,-0.0165884,36,-0.00209559,10,-5.71501e-07,-4.7802,-0.0196587,-3.00122,1.87204,0.0344519,
2,0,0,1,0,69330.3,0.0357563,0.0354528,-0.0145117,36,-0.00210257,10,-5.14481e-07,-4.83828,-0.021004,-2.80899,1.5998,0.0354528,
2,0,0,1,0,69331.3,0.036755,0.0364432,-0.0125068,36,-0.00210775,10,-4.55788e-07,-4.90285,-0.0173104,-3.40835,1.71315,0.0364432,
2,0,0,1,0,69332.3,0.0377538,0.0374007,-0.0116741,36,-0.00211145,10,-4.36619e-07,-4.93278,-0.0160014,-3.68717,1.58925,0.0374007,
2,0,0,1,0,69333.3,0.0387526,0.0384325,-0.00976898,36,-0.00211352,10,-3.75446e-07,-5.01015,-0.014011,-4.21098,1.50559,0.0384325,
2,0,0,1,0,69334.3,0.0397514,0.0394378,-0.00817866,36,-0.00211384,10,-3.22548e-07,-5.08732,-0.0118652,-4.97252,1.57183,0.0394378,
2,0,0,1,0,69335.3,0.0407502,0.0404505,-0.00647344,36,-0.00211257,10,-2.61854e-07,-5.18886,-0.00993452,-5.93888,1.47249,0.0404505,
2,1,0,1,0,69336.3,0.041749,0.0414292,-0.00534196,36,-0.00210983,10,-2.21313e-07,-5.2723,-0.00836896,-7.04986,1.36803,0.04142924,
2,0,0,1,0,69337.3,0.0427478,0.0424557,-0.0038448,36,-0.00210588,10,-1.63234e-07,-5.41513,-0.0047183,-12.5045,1.39335,0.0424557,
2,0,0,1,0,69338.3,0.0437466,0.0434143,-0.00273859,36,-0.00210046,10,-1.18894e-07,-5.56247,-0.00400324,-14.738,1.46703,0.0434143,
2,0,0,1,0,69339.3,0.0447454,0.0444302,-0.000928246,36,-0.00209381,10,-4.12422e-08,-6.03234,-0.00952699,-6.19293,1.35084,0.0444302,
2,0,0,1,0,69340.3,0.0457441,0.0454343,0.00053363,36,-0.00208535,10,2.42451e-08,-6.27276,0.0470514,1.25395,1.49864,0.0454343,
2,0,0,1,0,69341.3,0.0467429,0.0463993,0.00148231,36,-0.00207544,10,6.8778e-08,-5.82906,0.00587748,10.0383,1.34569,0.0463993,
2,1,0,1,0,69342.3,0.0477417,0.0474703,0.00333987,36,-0.00206416,10,1.58545e-07,-5.47627,0.00379487,15.5473,1.36412,0.04747032,
2,0,0,1,0,69343.3,0.0487405,0.0484448,0.00447421,36,-0.00205135,10,2.16752e-07,-5.34928,0.00582879,10.1222,1.4344,0.0484448,
2,1,0,1,0,69344.3,0.0497393,0.0494108,0.00595806,36,-0.00203723,10,2.94393e-07,-5.2249,0.0089164,6.61702,1.50233,0.0494108,
2,1,0,1,0,69345.3,0.0507381,0.050415,0.00724251,36,-0.00202197,10,3.65131e-07,-5.14011,0.010739,5.494,1.51756,0.050415,
2,0,0,1,0,69346.3,0.0517369,0.0514331,0.0092933,36,-0.00200468,10,4.77983e-07,-5.03183,0.0134776,4.37764,1.46056,0.0514331,
2,1,0,1,0,69347.3,0.0527357,0.0524394,0.0105362,36,-0.00198606,10,5.52511e-07,-4.97732,0.0162353,3.63406,1.38162,0.0524394,
2,0,0,1,0,69348.3,0.0537345,0.0534108,0.0118002,36,-0.00196589,10,6.30257e-07,-4.92811,0.0206173,2.86167,1.30829,0.0534108,
2,1,0,1,0,69349.3,0.0547333,0.0544075,0.0127586,36,-0.00194457,10,6.94164e-07,-4.8942,0.0273131,2.16014,1.0544,0.0544075,
2,1,0,1,0,69350.3,0.0557321,0.0554308,0.0145235,36,-0.0019219,10,8.05048e-07,-4.83793,0.0313306,1.88314,1.00775,0.05543083,
2,1,0,1,0,69351.3,0.0567309,0.0563979,0.0147101,36,-0.00189845,10,8.29617e-07,-4.83239,0.0309714,1.90498,1.10476,0.0563979,
2,1,0,1,0,69352.3,0.0577297,0.0574001,0.0158204,36,-0.00187412,10,9.08092e-07,-4.80078,0.0366279,1.61079,1.03672,0.0574001,
2,1,0,1,0,69353.3,0.0587285,0.0584096,0.0171799,36,-0.00184858,10,1.00347e-06,-4.76498,0.0292257,2.01877,1.36578,0.0584096,
2,1,0,1,0,69354.3,0.0597273,0.0593915,0.0186296,36,-0.00182179,10,1.10644e-06,-4.7298,0.0335158,1.76037,1.2509,0.0593915,
2,1,0,1,0,69355.3,0.0607261,0.0604583,0.0202556,36,-0.00179361,10,1.22462e-06,-4.69345,0.0391877,1.50557,1.13894,0.0604583,
2,1,0,1,0,69356.3,0.0617249,0.0613999,0.0208238,36,-0.00176432,10,1.27858e-06,-4.68144,0.0417756,1.41231,1.14919,0.0613999,
2,1,0,1,0,69357.3,0.0627237,0.0624381,0.0217681,36,-0.00173398,10,1.35916e-06,-4.66218,0.0557042,1.05917,0.909496,0.0624381,
2,1,0,1,0,69358.3,0.0637225,0.063403,0.0232396,36,-0.0017029,10,1.47346e-06,-4.63377,0.0493278,1.19608,1.06876,0.063403,
2,1,0,1,0,69359.3,0.0647213,0.0644072,0.0238472,36,-0.00167067,10,1.53593e-06,-4.62256,0.052251,1.12916,1.0482,0.0644072,
2,1,0,1,0,69360.3,0.0657201,0.065402,0.0251011,36,-0.00163726,10,1.64166e-06,-4.60031,0.0588564,1.00244,0.984408,0.065402,
2,1,0,1,0,69361.3,0.0667189,0.066404,0.0259252,36,-0.00160251,10,1.72153e-06,-4.58628,0.0619377,0.952571,0.956345,0.066404,
2,1,0,1,0,69362.3,0.0677177,0.0674146,0.0271886,36,-0.00156688,10,1.83291e-06,-4.56561,0.0883623,0.667706,0.689631,0.0674146,
2,1,0,1,0,69363.3,0.0687164,0.0684346,0.0276987,36,-0.0015304,10,1.89555e-06,-4.55754,0.0666636,0.88504,0.960612,0.0684346,
2,1,0,1,0,69364.3,0.0697152,0.0694271,0.0278769,36,-0.00149346,10,1.93542e-06,-4.55475,0.0748387,0.788363,0.890214,0.06942714,
2,1,0,1,0,69365.3,0.070714,0.070424,0.0297868,36,-0.00145518,10,2.09771e-06,-4.52598,0.0639748,0.922238,1.07141,0.070424,
2,1,0,1,0,69366.3,0.0717128,0.0714175,0.030752,36,-0.0014157,10,2.19623e-06,-4.51213,0.0581334,1.01491,1.19474,0.0714175,
2,1,0,1,0,69367.3,0.0727116,0.072391,0.0319376,36,-0.00137537,10,2.312e-06,-4.4957,0.0787986,0.748744,0.923005,0.072391,
2,1,0,1,0,69368.3,0.0737104,0.0733571,0.0325722,36,-0.0013341,10,2.3894e-06,-4.48715,0.09101,0.64828,0.818745,0.0733571,
2,1,0,1,0,69369.3,0.0747092,0.0744015,0.0334581,36,-0.00129203,10,2.48934e-06,-4.4755,0.0838232,0.703862,0.927036,0.07440155,
2,1,0,1,0,69370.3,0.075708,0.0754153,0.0340252,36,-0.00124907,10,2.56602e-06,-4.4682,0.0831157,0.709854,0.953753,0.0754153,
2,1,0,1,0,69371.3,0.0767068,0.0763687,0.0356251,36,-0.0012053,10,2.72064e-06,-4.44824,0.080973,0.728638,1.00726,0.0763687,
2,1,0,1,0,69372.3,0.0777055,0.0773197,0.0363516,36,-0.0011605,10,2.81069e-06,-4.43948,0.0772953,0.763307,1.07643,0.0773197,
2,1,0,1,0,69373.3,0.0787043,0.0783748,0.0374602,36,-0.00111464,10,2.93594e-06,-4.42643,0.0917019,0.643389,0.941281,0.0783748,
2,1,0,1,0,69374.3,0.0797031,0.079414,0.0383296,36,-0.00106762,10,3.04391e-06,-4.41647,0.0802559,0.735149,1.10581,0.079414,
2,1,0,1,0,69375.3,0.0807019,0.0803928,0.0394129,36,-0.00101998,10,3.16851e-06,-4.40436,0.0860058,0.686,1.05849,0.0803928,
2,1,0,1,0,69376.3,0.0817007,0.0813609,0.0408204,36,-0.00097103,10,3.32118e-06,-4.38912,0.0826929,0.713483,1.12816,0.0813609,
2,1,0,1,0,69377.3,0.0826995,0.0823694,0.0416885,36,-0.000920995,10,3.43385e-06,-4.37998,0.0786874,0.749802,1.22316,0.0823694,
2,1,0,1,0,69378.3,0.0836983,0.0833619,0.0427834,36,-0.000869553,10,3.56651e-06,-4.36872,0.095502,0.617788,1.03321,0.0833619,
2,1,0,1,0,69379.3,0.0846971,0.0843725,0.0442807,36,-0.000817046,10,3.73607e-06,-4.35379,0.101123,0.58345,0.993973,0.0843725,
2,1,0,1,0,69380.3,0.0856959,0.0853608,0.0449532,36,-0.000763289,10,3.83724e-06,-4.34724,0.0951884,0.619823,1.08686,0.0853608,
2,1,0,1,0,69381.3,0.0866947,0.086382,0.0456769,36,-0.000708634,10,3.94566e-06,-4.3403,0.124776,0.472846,0.848106,0.086382,
2,1,0,1,0,69382.3,0.0876935,0.0873777,0.047148,36,-0.000652802,10,4.11969e-06,-4.32654,0.0973139,0.606286,1.1151,0.0873777,
2,1,0,1,0,69383.3,0.0886923,0.0883787,0.0476784,36,-0.000596221,10,4.21376e-06,-4.32168,0.0942283,0.626139,1.17178,0.0883787,
2,1,0,1,0,69384.3,0.0896911,0.0893225,0.0493709,36,-0.000538557,10,4.40993e-06,-4.30653,0.0996118,0.592299,1.14159,0.0893225,
2,1,0,1,0,69385.3,0.0906899,0.0903299,0.050303,36,-0.000479583,10,4.54386e-06,-4.29841,0.0872588,0.676149,1.32673,0.0903299,
2,1,0,1,0,69386.3,0.0916887,0.0913596,0.0516937,36,-0.000419314,10,4.72271e-06,-4.28656,0.0975771,0.60465,1.22168,0.0913596,
2,1,0,1,0,69387.3,0.0926875,0.092367,0.0529698,36,-0.000357798,10,4.89266e-06,-4.27597,0.0928189,0.635646,1.31333,0.092367,
2,1,0,1,0,69388.3,0.0936863,0.093315,0.0542484,36,-0.000295057,10,5.06219e-06,-4.26561,0.0963926,0.61208,1.29605,0.093315,
2,1,0,1,0,69389.3,0.0946851,0.0944168,0.0556704,36,-0.000230918,10,5.25622e-06,-4.25438,0.0918686,0.642221,1.39695,0.0944168,
2,1,0,1,0,69390.3,0.0956839,0.0953785,0.0569024,36,-0.000165846,10,5.42727e-06,-4.24487,0.0900103,0.655481,1.46157,0.0953785,
2,1,0,1,0,69391.3,0.0966827,0.0963944,0.0585959,36,-9.89707e-05,10,5.64832e-06,-4.23213,0.0954831,0.61791,1.40839,0.0963944,
2,1,0,1,0,69392.2,0.0976815,0.0973328,0.0601208,36,-3.06123e-05,10,5.85173e-06,-4.22098,0.0967368,0.609902,1.4205,0.09733285,
2,1,0,1,0,69393.2,0.0986803,0.0983594,0.0612231,36,3.88761e-05,10,6.02187e-06,-4.21308,0.114819,0.513851,1.22327,0.0983594,
2,1,0,1,0,69394.2,0.099679,0.0993497,0.0625435,36,0.000109731,10,6.21367e-06,-4.20382,0.135587,0.435146,1.05658,0.09934967,
2,1,0,1,0,69395.2,0.100678,0.100376,0.0634667,36,0.000181727,10,6.37054e-06,-4.19745,0.14101,0.418411,1.03279,0.100376,
2,1,0,1,0,69396.2,0.101677,0.101344,0.0643592,36,0.000254545,10,6.52244e-06,-4.19139,0.132675,0.444695,1.12393,0.101344,
2,1,0,1,0,69397.2,0.102675,0.102323,0.0653169,36,0.000328744,10,6.68342e-06,-4.18497,0.110869,0.532162,1.37355,0.102323,
2,1,0,1,0,69398.2,0.103674,0.103342,0.0670307,36,0.000404159,10,6.9271e-06,-4.17373,0.131271,0.449451,1.1697,0.103342,
2,1,0,1,0,69399.2,0.104673,0.104317,0.0688791,36,0.000480953,10,7.18523e-06,-4.16191,0.130843,0.450921,1.19109,0.104317,
2,1,0,1,0,69400.2,0.105672,0.105369,0.0690664,36,0.000559041,10,7.27743e-06,-4.16073,0.163763,0.360277,0.969716,0.105369,
2,1,0,1,0,69401.2,0.106671,0.106344,0.0701063,36,0.000638056,10,7.45539e-06,-4.15424,0.157516,0.374566,1.03745,0.106344,
2,1,0,1,0,69402.2,0.107669,0.107375,0.0709413,36,0.000718225,10,7.61731e-06,-4.1491,0.152167,0.387732,1.07736,0.107375,
2,1,0,1,0,69403.2,0.108668,0.108389,0.0731035,36,0.000799154,10,7.92359e-06,-4.13606,0.150406,0.392272,1.10678,0.108389,
2,1,0,1,0,69404.2,0.109667,0.109365,0.0733722,36,0.000881634,10,8.02436e-06,-4.13447,0.125363,0.470632,1.35187,0.109365,
2,1,0,1,0,69405.2,0.110666,0.110341,0.0745297,36,0.000965149,10,8.22366e-06,-4.12767,0.151821,0.388617,1.14279,0.110341,
2,1,0,1,0,69406.2,0.111664,0.11136,0.0763285,36,0.00105013,10,8.49993e-06,-4.11731,0.127139,0.464058,1.37749,0.11136,
2,1,0,1,0,69407.2,0.112663,0.11236,0.0776418,36,0.0011362,10,8.72382e-06,-4.1099,0.143866,0.410104,1.23157,0.11236,
2,1,0,1,0,69408.2,0.113662,0.113314,0.0788119,36,0.00122359,10,8.9305e-06,-4.10341,0.167313,0.352632,1.07937,0.113314,
2,1,0,1,0,69409.2,0.114661,0.114311,0.0794192,36,0.00131159,10,9.07849e-06,-4.10007,0.163753,0.360299,1.12273,0.114311,
2,1,0,1,0,69410.2,0.11566,0.11529,0.0805703,36,0.00140107,10,9.28892e-06,-4.09383,0.161507,0.36531,1.15647,0.11529,
2,1,0,1,0,69411.2,0.116658,0.116321,0.0820897,36,0.00149175,10,9.5488e-06,-4.08571,0.186699,0.316017,1.00436,0.116321,
2,1,0,1,0,69412.2,0.117657,0.117338,0.0834659,36,0.00158379,10,9.79376e-06,-4.07849,0.175774,0.335658,1.08378,0.117338,
2,1,0,1,0,69413.2,0.118656,0.118361,0.0834866,36,0.00167648,10,9.88153e-06,-4.07838,0.247291,0.238586,0.77882,0.118361,
2,1,0,1,0,69414.2,0.119655,0.119316,0.084934,36,0.00177005,10,1.0134e-05,-4.07092,0.309038,0.190915,0.631265,0.119316,
2,1,0,1,0,69415.2,0.120654,0.120335,0.0852156,36,0.00186458,10,1.02544e-05,-4.06948,0.201055,0.293452,0.978057,0.120335,
2,1,0,1,0,69416.2,0.121652,0.121346,0.0859955,36,0.00195975,10,1.04352e-05,-4.06552,0.225821,0.261269,0.884098,0.121346,
2,1,0,1,0,69417.2,0.122651,0.122305,0.0873448,36,0.00205602,10,1.06827e-05,-4.05876,0.228254,0.258484,0.877096,0.122305,
2,1,0,1,0,69418.2,0.12365,0.123352,0.0885022,36,0.00215319,10,1.09169e-05,-4.05305,0.234785,0.251293,0.860086,0.123352,
2,1,0,1,0,69419.2,0.124649,0.124307,0.0886997,36,0.00225103,10,1.1026e-05,-4.05208,0.318022,0.185522,0.641628,0.124307,
2,1,0,1,0,69420.2,0.125648,0.125334,0.0894257,36,0.00234954,10,1.12081e-05,-4.04854,0.660722,0.0892963,0.31057,0.125334,
2,1,0,1,0,69421.2,0.126646,0.126295,0.0899044,36,0.00244854,10,1.13544e-05,-4.04622,0.373162,0.158108,0.554135,0.126295,
2,1,0,1,0,69422.2,0.127645,0.127323,0.0897355,36,0.0025474,10,1.14254e-05,-4.04704,0.942041,0.06263,0.219645,0.127323,
2,1,0,1,0,69423.2,0.128644,0.128311,0.090918,36,0.00264691,10,1.16657e-05,-4.04135,-1.60458,-0.0367697,-0.128641,0.128311,
2,1,0,1,0,69424.2,0.129643,0.12931,0.0902991,36,0.0027466,10,1.16766e-05,-4.04432,-2.10141,-0.0280763,-0.098112,0.12931,
2,1,0,1,0,69425.2,0.130642,0.130324,0.089386,36,0.00284605,10,1.16492e-05,-4.04873,-0.367554,-0.160521,-0.562527,0.130324,
2,1,0,1,0,69426.2,0.13164,0.131302,0.0893452,36,0.00294508,10,1.17312e-05,-4.04893,-0.272296,-0.216676,-0.750828,0.131302,
2,1,0,1,0,69427.2,0.132639,0.132289,0.0886799,36,0.00304337,10,1.17314e-05,-4.05217,-0.265358,-0.222341,-0.762371,0.132289,
2,1,0,1,0,69428.2,0.133638,0.133307,0.0872984,36,0.00314062,10,1.16375e-05,-4.05899,-0.234037,-0.252097,-0.861892,0.133307,
2,1,0,1,0,69429.2,0.134637,0.134309,0.086348,36,0.0032371,10,1.15973e-05,-4.06375,-0.183741,-0.321104,-1.08364,0.134309,
2,1,0,1,0,69430.2,0.135636,0.135317,0.0858849,36,0.00333257,10,1.16217e-05,-4.06608,-0.153012,-0.38559,-1.27498,0.135317,
2,1,0,1,0,69431.2,0.136634,0.13633,0.0843007,36,0.00342663,10,1.14927e-05,-4.07417,-0.126805,-0.465281,-1.51301,0.13633,
2,1,0,1,0,69432.2,0.137633,0.137303,0.082204,36,0.00351901,10,1.12868e-05,-4.08511,-0.0947379,-0.622771,-1.98981,0.137303,
2,1,0,1,0,69433.2,0.138632,0.138261,0.0803683,36,0.00360928,10,1.11118e-05,-4.09492,-0.097914,-0.60257,-1.8926,0.138261,
2,1,0,1,0,69434.2,0.139631,0.139289,0.0779808,36,0.00369768,10,1.08619e-05,-4.10801,-0.0888197,-0.664267,-2.02448,0.139289,
2,1,0,1,0,69435.2,0.14063,0.140306,0.0767767,36,0.00378365,10,1.07722e-05,-4.11477,-0.0859333,-0.686579,-2.04121,0.1403058,
2,1,0,1,0,69436.2,0.141628,0.141296,0.0741194,36,0.00386783,10,1.04728e-05,-4.13007,-0.0802206,-0.735472,-2.11424,0.141296,
2,1,0,1,0,69437.2,0.142627,0.142294,0.072137,36,0.00395039,10,1.02647e-05,-4.14184,-0.0708758,-0.832442,-2.33958,0.142294,
2,1,0,1,0,69438.2,0.143626,0.1433,0.0694996,36,0.00403047,10,9.95932e-06,-4.15802,-0.0756,-0.780424,-2.12594,0.1433,
2,1,0,1,0,69439.2,0.144625,0.144291,0.0674536,36,0.00410775,10,9.73293e-06,-4.17099,-0.0707831,-0.833532,-2.201,0.144291,
2,1,0,1,0,69440.2,0.145623,0.145279,0.065652,36,0.00418318,10,9.53786e-06,-4.18275,-0.0769888,-0.766345,-1.95893,0.145279,
2,1,0,1,0,69441.2,0.146622,0.146276,0.0633729,36,0.00425613,10,9.26992e-06,-4.1981,-0.0815262,-0.723694,-1.80225,0.146276,
2,1,0,1,0,69442.2,0.147621,0.147305,0.0616538,36,0.00432756,10,9.08194e-06,-4.21004,-0.0800384,-0.737146,-1.78417,0.147305,
2,1,0,1,0,69443.2,0.14862,0.148259,0.0603021,36,0.00439721,10,8.94032e-06,-4.21967,-0.101827,-0.579412,-1.36929,0.148259,
2,1,0,1,0,69444.2,0.149619,0.149276,0.0585211,36,0.00446525,10,8.73579e-06,-4.23269,-0.104386,-0.565211,-1.30209,0.149276,
2,1,0,1,0,69445.2,0.150617,0.150331,0.0578204,36,0.00453202,10,8.69219e-06,-4.23792,-0.093875,-0.628496,-1.40836,0.150331,
2,1,0,1,0,69446.2,0.151616,0.151279,0.05648,36,0.00459763,10,8.54424e-06,-4.2481,-0.120744,-0.488637,-1.07471,0.151279,
2,1,0,1,0,69447.2,0.152615,0.152288,0.054627,36,0.0046619,10,8.31906e-06,-4.26259,-0.112694,-0.523544,-1.13518,0.152288,
2,1,0,1,0,69448.2,0.153614,0.153254,0.0542452,36,0.00472506,10,8.31332e-06,-4.26564,-0.18076,-0.326399,-0.701511,0.153254,
2,1,0,1,0,69449.2,0.154613,0.154264,0.0533556,36,0.00478754,10,8.23085e-06,-4.27282,-0.222692,-0.26494,-0.553264,0.154264,
2,1,0,1,0,69450.2,0.155611,0.155263,0.0536852,36,0.00484939,10,8.33532e-06,-4.27015,-0.244589,-0.241221,-0.501092,0.155263,
2,1,0,1,0,69451.2,0.15661,0.156304,0.0524052,36,0.00491072,10,8.19116e-06,-4.28063,-0.406803,-0.145033,-0.298576,0.1563042,
2,1,0,1,0,69452.2,0.157609,0.157289,0.0522234,36,0.00497131,10,8.21418e-06,-4.28213,-0.249489,-0.236483,-0.486362,0.1572893,
2,1,0,1,0,69453.2,0.158608,0.158304,0.0521493,36,0.00503183,10,8.25545e-06,-4.28275,-0.550262,-0.107222,-0.217479,0.1583041,
2,1,0,1,0,69454.2,0.159607,0.159297,0.0517233,36,0.00509177,10,8.23936e-06,-4.28631,-0.504328,-0.116987,-0.236279,0.159297,
2,1,0,1,0,69455.2,0.160605,0.160274,0.0515418,36,0.00515165,10,8.26083e-06,-4.28784,-0.354176,-0.166584,-0.334707,0.160274,
2,1,0,1,0,69456.2,0.161604,0.161273,0.0512821,36,0.00521135,10,8.27043e-06,-4.29003,-0.481573,-0.122515,-0.244981,0.161273,
2,1,0,1,0,69457.2,0.162603,0.162266,0.0508234,36,0.00527103,10,8.24689e-06,-4.29394,-2.18368,-0.0270186,-0.054234,0.1622657,
2,1,0,1,0,69458.2,0.163602,0.163258,0.0507528,36,0.00533042,10,8.28582e-06,-4.29454,-1.73515,-0.0340029,-0.0678734,0.163258,
2,1,0,1,0,69459.2,0.164601,0.164267,0.0513253,36,0.00538947,10,8.43103e-06,-4.28967,-2.23442,-0.0264051,-0.0522659,0.164267,
2,1,0,1,0,69460.2,0.165599,0.165249,0.0510123,36,0.00544837,10,8.42971e-06,-4.29233,2.55696,0.0230743,0.0457864,0.165249,
2,1,0,1,0,69461.2,0.166598,0.166273,0.0506139,36,0.00550752,10,8.41573e-06,-4.29573,86.8787,0.000679107,0.00136037,0.166273,
2,1,0,1,0,69462.2,0.167597,0.167264,0.0509363,36,0.00556672,10,8.51983e-06,-4.29297,-3.25041,-0.0181515,-0.0360859,0.167264,
2,1,0,1,0,69463.2,0.168596,0.168297,0.0513308,36,0.00562615,10,8.63883e-06,-4.28962,1.45344,0.0405933,0.0804367,0.168297,
2,1,0,1,0,69464.2,0.169595,0.169239,0.0508683,36,0.00568545,10,8.60889e-06,-4.29355,-0.707148,-0.0834338,-0.164776,0.169239,
2,1,0,1,0,69465.2,0.170593,0.170243,0.0509333,36,0.00574465,10,8.67105e-06,-4.293,-2.31563,-0.025479,-0.0509414,0.170243,
2,1,0,1,0,69466.2,0.171592,0.171282,0.0502742,36,0.00580356,10,8.61108e-06,-4.29865,5.91175,0.00998013,0.0198285,0.1712824,
2,1,0,1,0,69467.2,0.172591,0.172252,0.0511293,36,0.00586249,10,8.8071e-06,-4.29133,13.108,0.00450108,0.00895023,0.172252,
2,1,0,1,0,69468.2,0.17359,0.173291,0.0509486,36,0.00592173,10,8.82892e-06,-4.29287,0.354348,0.166503,0.330949,0.173291,
2,1,0,1,0,69469.2,0.174588,0.174247,0.0509691,36,0.00598097,10,8.88122e-06,-4.29269,1.21637,0.0485051,0.0971577,0.174247,
2,1,0,1,0,69470.2,0.175587,0.175264,0.051592,36,0.00604024,10,9.04222e-06,-4.28742,0.584438,0.100952,0.202306,0.175264,
2,1,0,1,0,69471.2,0.176586,0.176278,0.0515205,36,0.00609966,10,9.08193e-06,-4.28802,2.70537,0.0218085,0.0434552,0.176278,
2,1,0,1,0,69472.2,0.177585,0.177259,0.0517514,36,0.0061593,10,9.17339e-06,-4.28608,3.41723,0.0172655,0.0348104,0.1772588,
2,1,0,1,0,69473.2,0.178584,0.178282,0.0511445,36,0.00621858,10,9.11814e-06,-4.2912,1.4238,0.0414384,0.0835912,0.178282,
2,1,0,1,0,69474.2,0.179582,0.179261,0.0517311,36,0.00627822,10,9.27336e-06,-4.28625,11.6475,0.00506547,0.0102348,0.179261,
2,1,0,1,0,69475.1,0.180581,0.180302,0.0518569,36,0.00633802,10,9.34991e-06,-4.28519,0.526745,0.112009,0.225532,0.180302,
2,1,0,1,0,69476.1,0.18158,0.181265,0.0517924,36,0.00639806,10,9.38815e-06,-4.28573,0.699661,0.0843265,0.171378,0.181265,
2,1,0,1,0,69477.1,0.182579,0.182273,0.0520446,36,0.00645821,10,9.48636e-06,-4.28362,2.26336,0.0260674,0.0528617,0.182273,
2,1,0,1,0,69478.1,0.183578,0.18328,0.0524199,36,0.00651843,10,9.6075e-06,-4.2805,1.25759,0.0469152,0.0951767,0.18328,
2,1,0,1,0,69479.1,0.184576,0.184251,0.0520657,36,0.00657859,10,9.59316e-06,-4.28345,0.939948,0.0627694,0.128115,0.1842512,
2,1,0,1,0,69480.1,0.185575,0.185256,0.0521723,36,0.00663871,10,9.66524e-06,-4.28256,0.98639,0.059814,0.122939,0.185256,
2,1,0,1,0,69481.1,0.186574,0.186239,0.0525527,36,0.00669903,10,9.78739e-06,-4.2794,0.473149,0.124697,0.255837,0.186239,
2,1,0,1,0,69482.1,0.187573,0.187273,0.0529108,36,0.00675963,10,9.90878e-06,-4.27646,0.525208,0.112336,0.230744,0.187273,
2,1,0,1,0,69483.1,0.188572,0.188214,0.0530795,36,0.00682046,10,9.9903e-06,-4.27507,0.66779,0.0883511,0.182466,0.188214,
2,1,0,1,0,69484.1,0.18957,0.189249,0.0530935,36,0.0068814,10,1.00479e-05,-4.27496,1.23658,0.0477122,0.0988887,0.189249,
2,1,0,1,0,69485.1,0.190569,0.190257,0.0532859,36,0.00694246,10,1.0138e-05,-4.27339,0.989911,0.0596013,0.124043,0.190257,
2,1,0,1,0,69486.1,0.191568,0.191251,0.0533042,36,0.00700343,10,1.01945e-05,-4.27324,0.801577,0.0736049,0.153395,0.191251,
2,1,0,1,0,69487.1,0.192567,0.192219,0.0535763,36,0.0070647,10,1.02984e-05,-4.27103,1.87775,0.0314207,0.0655009,0.192219,
2,1,0,1,0,69488.1,0.193566,0.193251,0.0537074,36,0.0071262,10,1.0379e-05,-4.26997,1.32263,0.0446081,0.0931221,0.193251,
2,1,0,1,0,69489.1,0.194564,0.194223,0.0535456,36,0.00718783,10,1.03998e-05,-4.27128,1.0824,0.0545087,0.114459,0.194223,
2,1,0,1,0,69490.1,0.195563,0.195255,0.053677,36,0.00724941,10,1.04807e-05,-4.27021,7.36486,0.00801102,0.0168018,0.195255,
2,1,0,1,0,69491.1,0.196562,0.196217,0.0540339,36,0.00731103,10,1.06023e-05,-4.26733,3.76809,0.0156578,0.0327602,0.196217,
2,1,0,1,0,69492.1,0.197561,0.197232,0.0537742,36,0.0073727,10,1.0606e-05,-4.26943,0.555737,0.106165,0.224249,0.197232,
2,1,0,1,0,69493.1,0.19856,0.198208,0.0536762,36,0.00743427,10,1.06391e-05,-4.27022,0.682081,0.0864999,0.183651,0.198208,
2,1,0,1,0,69494.1,0.199558,0.199246,0.0545721,36,0.00749615,10,1.08733e-05,-4.26303,0.721669,0.0817549,0.172677,0.1992463,
2,1,0,1,0,69495.1,0.200557,0.200235,0.0547718,36,0.00755829,10,1.09672e-05,-4.26144,0.459824,0.12831,0.271512,0.200235,
2,1,0,1,0,69496.1,0.201556,0.201243,0.0544669,36,0.0076206,10,1.09611e-05,-4.26387,1.77821,0.0331795,0.0708467,0.2012431,
2,1,0,1,0,69497.1,0.202555,0.202234,0.0547691,36,0.00768299,10,1.10762e-05,-4.26146,1.07951,0.0546544,0.117325,0.202234,
2,1,0,1,0,69498.1,0.203554,0.203212,0.054853,36,0.00774575,10,1.11468e-05,-4.2608,0.590288,0.0999512,0.214121,0.203212,
2,1,0,1,0,69499.1,0.204552,0.204214,0.0552387,36,0.00780846,10,1.12805e-05,-4.25776,1.73786,0.0339498,0.0727602,0.204214,
2,1,0,1,0,69500.1,0.205551,0.205223,0.0553191,36,0.00787138,10,1.13527e-05,-4.25713,0.95808,0.0615815,0.132469,0.205223,
2,1,0,1,0,69501.1,0.20655,0.206255,0.0550617,36,0.00793432,10,1.13567e-05,-4.25915,10.5274,0.00560445,0.0120873,0.206255,
2,1,0,1,0,69502.1,0.207549,0.207229,0.0553851,36,0.00799778,10,1.14774e-05,-4.25661,-2.82797,-0.0208631,-0.0449675,0.207229,
2,1,0,1,0,69503.1,0.208547,0.208196,0.0552868,36,0.00806078,10,1.15105e-05,-4.25738,23.6844,0.00249109,0.00535411,0.208196,
2,1,0,1,0,69504.1,0.209546,0.209286,0.0551364,36,0.00812381,10,1.15393e-05,-4.25856,1.70369,0.0346306,0.0750574,0.209286,
2,1,0,1,0,69505.1,0.210545,0.210217,0.0550829,36,0.00818644,10,1.15794e-05,-4.25898,1.13072,0.0521793,0.113043,0.210217,
2,1,0,1,0,69506.1,0.211544,0.211234,0.0556858,36,0.00824953,10,1.17627e-05,-4.25426,0.710585,0.0830301,0.179802,0.2112342,
2,1,0,1,0,69507.1,0.212543,0.212174,0.0557364,36,0.00831266,10,1.18258e-05,-4.25386,0.872867,0.0675934,0.146082,0.2121737,
2,1,0,1,0,69508.1,0.213541,0.213201,0.0558403,36,0.00837601,10,1.19052e-05,-4.25305,1.27804,0.0461645,0.100683,0.213201,
2,1,0,1,0,69509.1,0.21454,0.21425,0.055672,36,0.00843955,10,1.19277e-05,-4.25436,1.95017,0.0302538,0.0659661,0.21425,
2,1,0,1,0,69510.1,0.215539,0.215164,0.0560814,36,0.00850336,10,1.20667e-05,-4.25118,0.917172,0.0643282,0.140898,0.215164,
2,1,0,1,0,69511.1,0.216538,0.216222,0.0560035,36,0.00856713,10,1.21092e-05,-4.25178,0.501664,0.117609,0.257879,0.216222,
2,1,0,1,0,69512.1,0.217537,0.21722,0.0564066,36,0.00863107,10,1.22526e-05,-4.24867,0.577544,0.102157,0.225413,0.21722,
2,1,0,1,0,69513.1,0.218535,0.218234,0.0566994,36,0.00869541,10,1.23737e-05,-4.24642,0.559221,0.105504,0.232508,0.218234,
2,1,0,1,0,69514.1,0.219534,0.219236,0.0569993,36,0.00875993,10,1.24963e-05,-4.24413,0.837457,0.0704514,0.155948,0.219236,
2,1,0,1,0,69515.1,0.220533,0.220232,0.0569357,36,0.0088244,10,1.25391e-05,-4.24462,0.482183,0.12236,0.273329,0.220232,
2,1,0,1,0,69516.1,0.221532,0.221231,0.057032,36,0.00888903,10,1.26172e-05,-4.24388,0.866983,0.0680521,0.152187,0.221231,
2,1,0,1,0,69517.1,0.222531,0.222185,0.0577794,36,0.00895401,10,1.28377e-05,-4.23823,0.804322,0.0733537,0.163927,0.222185,
2,1,0,1,0,69518.1,0.223529,0.223224,0.0576063,36,0.00901901,10,1.28591e-05,-4.23953,1.62423,0.036325,0.0810801,0.2232243,
2,1,0,1,0,69519.1,0.224528,0.224218,0.0575892,36,0.00908412,10,1.29125e-05,-4.23966,-1.36739,-0.0431478,-0.0969692,0.224218,
2,1,0,1,0,69520.1,0.225527,0.225213,0.0573548,36,0.00914925,10,1.2917e-05,-4.24143,2.74243,0.0215138,0.0484473,0.2252126,
2,1,0,1,0,69521.1,0.226526,0.226182,0.0573918,36,0.00921438,10,1.2981e-05,-4.24115,0.696874,0.0846639,0.191535,0.226182,
2,1,0,1,0,69522.1,0.227524,0.227172,0.0577975,36,0.00927974,10,1.313e-05,-4.23809,0.690231,0.0854786,0.192606,0.227172,
2,1,0,1,0,69523.1,0.228523,0.228181,0.0583481,36,0.00934529,10,1.33139e-05,-4.23397,0.63282,0.0932334,0.210353,0.228181,
2,1,0,1,0,69524.1,0.229522,0.229182,0.0581193,36,0.00941079,10,1.33199e-05,-4.23568,1.68842,0.0349439,0.0790378,0.2291816,
2,1,0,1,0,69525.1,0.230521,0.230181,0.0582329,36,0.00947642,10,1.34041e-05,-4.23483,-1.37618,-0.0428724,-0.0972968,0.230181,
2,1,0,1,0,69526.1,0.23152,0.231189,0.058115,36,0.00954216,10,1.34356e-05,-4.23571,1.82098,0.0324001,0.0736767,0.231189,
2,1,0,1,0,69527.1,0.232518,0.232229,0.0579542,36,0.00960789,10,1.34587e-05,-4.23691,0.649375,0.0908565,0.207964,0.232229,
2,1,0,1,0,69528.1,0.233517,0.233184,0.0584141,36,0.00967386,10,1.36212e-05,-4.23348,0.397197,0.148541,0.340881,0.233184,
2,1,0,1,0,69529.1,0.234516,0.234201,0.059069,36,0.00974023,10,1.3834e-05,-4.22864,0.34258,0.172222,0.394791,0.234201,
2,1,0,1,0,69530.1,0.235515,0.235236,0.0594947,36,0.00980691,10,1.39953e-05,-4.22552,0.512578,0.115104,0.264776,0.2352365,
2,1,0,1,0,69531.1,0.236514,0.236214,0.0595275,36,0.00987362,10,1.40612e-05,-4.22528,0.728301,0.0810104,0.187943,0.236214,
2,1,0,1,0,69532.1,0.237512,0.237181,0.0594726,36,0.00994053,10,1.41058e-05,-4.22568,1.90645,0.0309475,0.0720306,0.237181,
2,1,0,1,0,69533.1,0.238511,0.238218,0.0598241,36,0.0100074,10,1.42512e-05,-4.22312,1.96983,0.0299518,0.0697449,0.238218,
2,1,0,1,0,69534.1,0.23951,0.239233,0.0597826,36,0.0100745,10,1.4302e-05,-4.22343,1.12017,0.0526708,0.122756,0.239233,
2,1,0,1,0,69535.1,0.240509,0.240183,0.0598043,36,0.0101414,10,1.4364e-05,-4.22327,-4.17389,-0.0141355,-0.0329669,0.240183,
2,1,0,1,0,69536.1,0.241508,0.24119,0.0599647,36,0.0102085,10,1.44629e-05,-4.2221,2.30943,0.0255474,0.0597217,0.24119,
2,1,0,1,0,69537.1,0.242506,0.242163,0.059694,36,0.0102754,10,1.44557e-05,-4.22407,2.17339,0.0271466,0.0634938,0.242163,
2,1,0,1,0,69538.1,0.243505,0.243142,0.060016,36,0.0103426,10,1.45924e-05,-4.22173,1.3575,0.0434622,0.102059,0.243142,
2,1,0,1,0,69539.1,0.244504,0.24418,0.0600581,36,0.0104098,10,1.4665e-05,-4.22143,0.743482,0.0793564,0.186037,0.24418,
2,1,0,1,0,69540.1,0.245503,0.245204,0.0603744,36,0.0104775,10,1.48041e-05,-4.21915,0.905046,0.0651901,0.153483,0.245204,
2,1,0,1,0,69541.1,0.246502,0.246208,0.0604466,36,0.0105452,10,1.48825e-05,-4.21863,0.775626,0.0760676,0.179351,0.2462085,
2,1,0,1,0,69542.1,0.2475,0.24721,0.0606404,36,0.0106131,10,1.49909e-05,-4.21724,0.614877,0.0959541,0.227778,0.24721,
2,1,0,1,0,69543.1,0.248499,0.248163,0.0607724,36,0.0106812,10,1.50815e-05,-4.21629,0.762757,0.077351,0.183578,0.248163,
2,1,0,1,0,69544.1,0.249498,0.249173,0.0612785,36,0.0107495,10,1.5269e-05,-4.21269,1.13889,0.0518048,0.123098,0.249173,
2,1,0,1,0,69545.1,0.250497,0.250199,0.0611792,36,0.0108178,10,1.5307e-05,-4.2134,2.10797,0.027989,0.0665284,0.250199,
2,1,0,1,0,69546.1,0.251496,0.251207,0.0611325,36,0.0108862,10,1.53569e-05,-4.21373,-10.0056,-0.00589671,-0.0140956,0.251207,
2,1,0,1,0,69547.1,0.252494,0.252166,0.0610387,36,0.0109545,10,1.53919e-05,-4.21439, , , ,0.252166,
2,1,0,1,0,69548.1,0.253493,0.253148,0.0612225,36,0.011023,10,1.54983e-05,-4.21309, , , ,0.253148,
2,1,0,1,0,69548.4,0.253818,0.253527,0.0609931,36,0.0110452,10,1.54634e-05,-4.21472, , , ,0.253527,