File: Figure_codes/Fig_3-5/rawdata_trumpetplot_data/after 10th/20221101_1-115_003_TrumpetPlot_ParaChange_from10_every3_14_CV_C01_32.csv
mode,ox/red,error,control changes,counter inc.,time/s,control/V,Ewe/V,<I>/mA,cycle number,(Q-Qo)/C,I Range,P/W,log(|I|),Tafel slope mV/dec,alpha_eff,dI/d(E-IR),E-IR/V,
2,1,0,1,0,64243.3,2.44065e-05,-0.000248974,29.4748,33,0.0000000E+000,10,-7.33847e-06,-1.53055, , , ,-0.000248974,
2,1,0,1,0,64243.3,0.00332042,0.00291528,30.7726,33,9.40026e-05,10,8.97106e-05,-1.51184, , , ,0.002915279,
2,1,0,1,0,64243.3,0.0073156,0.00694376,31.7841,33,0.000219256,10,0.000220701,-1.49779, , , ,0.00694376,
2,1,0,1,0,64243.3,0.0113108,0.0109521,32.6827,33,0.000348291,10,0.000357945,-1.48568,0.341922,0.172554,218.821,0.0109521,
2,1,0,1,0,64243.3,0.0153059,0.0149562,33.5125,33,0.000480766,10,0.00050122,-1.47479,0.37647,0.156719,204.24,0.0149562,
2,1,0,1,0,64243.3,0.0193011,0.0189348,34.278,33,0.000616449,10,0.000649048,-1.46498,0.412309,0.143096,190.93,0.01893484,
2,1,0,1,0,64243.3,0.0233462,0.0229601,35.0552,33,0.00075526,10,0.000804873,-1.45525,0.444422,0.132757,181.035,0.0229601,
2,1,0,1,0,64243.3,0.0273414,0.0269653,35.7402,33,0.000896911,10,0.000963744,-1.44684,0.471647,0.125094,174.061,0.0269653,
2,1,0,1,0,64243.3,0.0313366,0.0309652,36.4107,33,0.0010413,10,0.00112746,-1.43877,0.509673,0.11576,164.238,0.0309652,
2,1,0,1,0,64243.3,0.0353317,0.034948,37.0653,33,0.00118832,10,0.00129536,-1.43103,0.534498,0.110384,159.383,0.03494804,
2,1,0,1,0,64243.3,0.0393269,0.0389659,37.684,33,0.00133788,10,0.00146839,-1.42384,0.562852,0.104823,153.922,0.0389659,
2,1,0,1,0,64243.3,0.0433221,0.0429265,38.2841,33,0.0014899,10,0.0016434,-1.41698,0.59632,0.0989401,147.632,0.0429265,
2,1,0,1,0,64243.3,0.0473173,0.0469179,38.8662,33,0.00164425,10,0.00182352,-1.41043,0.619683,0.09521,144.269,0.0469179,
2,1,0,1,0,64243.3,0.0513124,0.050939,39.426,33,0.0018009,10,0.00200832,-1.40422,0.647701,0.0910914,140.054,0.050939,
2,1,0,1,0,64243.3,0.0553076,0.05496,39.9915,33,0.0019598,10,0.00219793,-1.39803,0.663634,0.0889044,138.685,0.05496,
2,1,0,1,0,64243.3,0.0593028,0.0589609,40.5298,33,0.0021209,10,0.00238967,-1.39223,0.688028,0.0857524,135.554,0.0589609,
2,1,0,1,0,64243.3,0.0633479,0.0629958,41.0959,33,0.00228416,10,0.00258887,-1.3862,0.717187,0.0822658,131.745,0.0629958,
2,1,0,1,0,64243.3,0.0673431,0.0669935,41.6023,33,0.00244959,10,0.00278708,-1.38088,0.739417,0.0797926,129.411,0.0669935,
2,1,0,1,0,64243.4,0.0713383,0.0709329,42.0958,33,0.00261704,10,0.00298598,-1.37576,0.770601,0.0765637,125.762,0.0709329,
2,1,0,1,0,64243.4,0.0753334,0.074972,42.6018,33,0.0027865,10,0.00319394,-1.37057,0.794285,0.0742806,123.433,0.074972,
2,1,0,1,0,64243.4,0.0793286,0.0789051,43.0967,33,0.00295792,10,0.00340055,-1.36556,0.81183,0.0726753,122.148,0.0789051,
2,1,0,1,0,64243.4,0.0833238,0.0829367,43.5702,33,0.00313131,10,0.00361357,-1.36081,0.831074,0.0709925,120.68,0.0829367,
2,1,0,1,0,64243.4,0.0873189,0.086944,44.0515,33,0.00330661,10,0.00383002,-1.35604,0.842473,0.0700319,120.393,0.086944,
2,1,0,1,0,64243.4,0.0913141,0.0909237,44.5269,33,0.00348381,10,0.00404855,-1.35138,0.846746,0.0696785,121.088,0.0909237,
2,1,0,1,0,64243.4,0.0953093,0.0948525,45.0167,33,0.00366295,10,0.00426994,-1.34663,0.85571,0.0689486,121.128,0.0948525,
2,1,0,1,0,64243.4,0.0993045,0.0988831,45.5011,33,0.00384402,10,0.00449929,-1.34198,0.847696,0.0696004,123.612,0.0988831,
2,1,0,1,0,64243.4,0.103319,0.102963,45.9918,33,0.00402702,10,0.00473543,-1.33732,0.870472,0.0677793,121.655,0.102963,
2,1,0,1,0,64243.4,0.107345,0.10691,46.503,33,0.00421211,10,0.00497166,-1.33252,0.873411,0.0675513,122.526,0.10691,
2,1,0,1,0,64243.4,0.11134,0.110981,46.9788,33,0.00439912,10,0.00521377,-1.3281,0.876107,0.0673434,123.445,0.110981,
2,1,0,1,0,64243.4,0.115335,0.11491,47.4648,33,0.00458806,10,0.00545419,-1.32363,0.90906,0.0649022,120.211,0.1149101,
2,1,0,1,0,64243.4,0.11933,0.11891,47.9604,33,0.00477895,10,0.00570297,-1.31912,0.922204,0.0639771,119.651,0.11891,
2,1,0,1,0,64243.4,0.123325,0.122927,48.4283,33,0.00497178,10,0.00595314,-1.3149,0.907708,0.0649989,122.873,0.122927,
2,1,0,1,0,64243.4,0.127321,0.126841,48.8764,33,0.00516645,10,0.00619952,-1.3109,0.897021,0.0657733,125.669,0.126841,
2,1,0,1,0,64243.4,0.131316,0.130858,49.4243,33,0.00536305,10,0.00646755,-1.30606,0.867145,0.0680393,131.358,0.130858,
2,1,0,1,0,64243.4,0.135311,0.134882,49.9676,33,0.00556189,10,0.00673972,-1.30131,0.845311,0.0697968,136.1,0.134882,
2,1,0,1,0,64243.4,0.139306,0.138886,50.5247,33,0.00576293,10,0.00701717,-1.2965,0.837183,0.0704744,138.996,0.1388859,
2,1,0,1,0,64243.4,0.143301,0.142943,51.068,33,0.00596618,10,0.00729981,-1.29185,0.838003,0.0704055,140.371,0.142943,
2,1,0,1,0,64243.4,0.147346,0.146985,51.666,33,0.00617173,10,0.00759415,-1.28679,0.837815,0.0704213,141.971,0.146985,
2,1,0,1,0,64243.4,0.151342,0.150943,52.2221,33,0.00637955,10,0.00788255,-1.28215,0.82737,0.0713103,145.333,0.150943,
2,1,0,1,0,64243.4,0.155337,0.154962,52.807,33,0.00658966,10,0.00818306,-1.27731,0.840175,0.0702235,144.735,0.154962,
2,1,0,1,0,64243.4,0.159332,0.158937,53.3924,33,0.00680212,10,0.00848604,-1.27252,0.845289,0.0697986,145.4,0.158937,
2,1,0,1,0,64243.4,0.163327,0.16293,53.9737,33,0.00701691,10,0.00879392,-1.26782,0.855885,0.0689345,145.162,0.16293,
2,1,0,1,0,64243.4,0.167322,0.166943,54.5486,33,0.00723402,10,0.00910651,-1.26322,0.874446,0.0674713,143.591,0.166943,
2,1,0,1,0,64243.5,0.171317,0.17093,55.1251,33,0.00745343,10,0.00942254,-1.25865,0.901549,0.0654429,140.703,0.17093,
2,1,0,1,0,64243.5,0.175313,0.17491,55.686,33,0.0076751,10,0.00974004,-1.25425,0.933863,0.0631784,137.184,0.17491,
2,1,0,1,0,64243.5,0.179308,0.178911,56.2224,33,0.00789898,10,0.0100588,-1.25009,0.966299,0.0610577,133.899,0.178911,
2,1,0,1,0,64243.5,0.183303,0.182929,56.7415,33,0.00812497,10,0.0103797,-1.2461,1.02811,0.0573868,126.98,0.182929,
2,1,0,1,0,64243.5,0.187348,0.186969,57.2726,33,0.008353,10,0.0107082,-1.24205,1.09452,0.0539051,120.298,0.186969,
2,1,0,1,0,64243.5,0.191343,0.190927,57.7199,33,0.00858305,10,0.0110203,-1.23867,1.19228,0.049485,111.299,0.190927,
2,1,0,1,0,64243.5,0.195338,0.19497,58.1542,33,0.00881485,10,0.0113383,-1.23542,1.3433,0.0439217,99.5285,0.19497,
2,1,0,1,0,64243.5,0.199334,0.198988,58.5289,33,0.00904826,10,0.0116465,-1.23263,1.51339,0.0389854,88.8973,0.198988,
2,1,0,1,0,64243.5,0.203329,0.202939,58.8621,33,0.00928309,10,0.0119454,-1.23016,1.79072,0.0329476,75.5497,0.202939,
2,1,0,1,0,64243.5,0.207324,0.20693,59.1425,33,0.00951913,10,0.0122384,-1.2281,2.15922,0.0273247,62.9494,0.20693,
2,1,0,1,0,64243.5,0.211319,0.210932,59.3601,33,0.00975617,10,0.012521,-1.22651,2.80829,0.0210092,48.5813,0.210932,
2,1,0,1,0,64243.5,0.215314,0.214957,59.5341,33,0.009994,10,0.0127973,-1.22523,4.02764,0.0146488,33.9668,0.214957,
2,1,0,1,0,64243.5,0.219309,0.218982,59.6415,33,0.0102324,10,0.0130604,-1.22445,6.62788,0.00890179,20.6797,0.218982,
2,1,0,1,0,64243.5,0.223305,0.22295,59.6866,33,0.010471,10,0.0133071,-1.22412,19.3233,0.00305331,7.10095,0.22295,
2,1,0,1,0,64243.5,0.227314,0.226936,59.6911,33,0.0107098,10,0.013546,-1.22409,-18.7826,-0.00314121,-7.30437,0.2269357,
2,1,0,1,0,64243.5,0.231345,0.230996,59.648,33,0.0109485,10,0.0137785,-1.2244,-6.45342,-0.00914244,-21.2355,0.230996,
2,1,0,1,0,64243.5,0.23534,0.234984,59.5246,33,0.0111869,10,0.0139873,-1.2253,-3.7592,-0.0156948,-36.3823,0.234984,
2,1,0,1,0,64243.5,0.239335,0.23897,59.3464,33,0.0114246,10,0.014182,-1.22661,-2.62729,-0.0224566,-51.9116,0.23897,
2,1,0,1,0,64243.5,0.24333,0.243032,59.1055,33,0.0116615,10,0.0143645,-1.22837,-2.04777,-0.0288118,-66.3331,0.243032,
2,1,0,1,0,64243.5,0.247326,0.246986,58.818,33,0.0118974,10,0.0145272,-1.23049,-1.68763,-0.0349602,-80.0928,0.246986,
2,1,0,1,0,64243.5,0.251321,0.250985,58.4632,33,0.0121319,10,0.0146734,-1.23312,-1.43231,-0.0411923,-93.8112,0.250985,
2,1,0,1,0,64243.5,0.255316,0.254993,58.0631,33,0.0123649,10,0.0148057,-1.2361,-1.24091,-0.0475458,-107.534,0.254993,
2,1,0,1,0,64243.5,0.259311,0.258973,57.61,33,0.0125962,10,0.0149194,-1.2395,-1.09893,-0.0536886,-120.468,0.2589727,
2,1,0,1,0,64243.5,0.263306,0.263006,57.0952,33,0.0128256,10,0.0150164,-1.2434,-1.00751,-0.05856,-130.299,0.263006,
2,1,0,1,0,64243.5,0.267302,0.266981,56.5362,33,0.0130528,10,0.0150941,-1.24767,-0.90774,-0.0649966,-143.206,0.266981,
2,1,0,1,0,64243.6,0.271347,0.271007,55.9765,33,0.0132778,10,0.01517,-1.25199,-0.839409,-0.0702875,-153.232,0.271007,
2,1,0,1,0,64243.6,0.275342,0.274985,55.317,33,0.0135004,10,0.0152113,-1.25714,-0.781087,-0.0755357,-162.788,0.274985,
2,1,0,1,0,64243.6,0.279337,0.279001,54.6444,33,0.0137202,10,0.0152458,-1.26245,-0.72059,-0.0818774,-174.377,0.279001,
2,1,0,1,0,64243.6,0.283332,0.283008,53.9272,33,0.0139373,10,0.0152618,-1.26819,-0.687033,-0.0858765,-180.519,0.283008,
2,1,0,1,0,64243.6,0.287327,0.28699,53.1895,33,0.0141515,10,0.0152648,-1.27417,-0.659113,-0.0895143,-185.657,0.28699,
2,1,0,1,0,64243.6,0.291322,0.290958,52.4336,33,0.0143626,10,0.015256,-1.28039,-0.637315,-0.0925759,-189.421,0.290958,
2,1,0,1,0,64243.6,0.295318,0.295014,51.6714,33,0.0145708,10,0.0152438,-1.28675,-0.625097,-0.0943853,-191.421,0.295014,
2,1,0,1,0,64243.6,0.299013,0.298684,50.9578,33,0.0147606,10,0.0152203,-1.29279,-0.208355,-0.283171,-555.923,0.298684,
2,1,0,0,0,64243.6,0.300012,0.29967,50.7622,33,0.0148115,10,0.0152119,-1.29446,0.00582688,10.1255,18541.5,0.29967,
2,1,0,1,0,64243.6,0.298714,0.298514,48.2328,33,0.0148748,10,0.0143982,-1.31666,0.0640473,0.921195,1586.51,0.298514,
2,1,0,1,0,64243.6,0.294718,0.294518,42.4704,33,0.0150551,10,0.0125083,-1.37191,0.0757761,0.778609,1270.71,0.294518,
2,1,0,1,0,64243.6,0.290723,0.290478,37.9399,33,0.0152153,10,0.0110207,-1.4209,0.0800602,0.736946,1111.53,0.290478,
2,1,0,1,0,64243.6,0.286728,0.286472,33.9915,33,0.0153586,10,0.00973762,-1.46863,0.082828,0.71232,952.299,0.2864722,
2,1,0,1,0,64243.6,0.282733,0.282494,30.4253,33,0.015487,10,0.00859495,-1.51677,0.0817365,0.721831,860.113,0.282494,
2,1,0,1,0,64243.6,0.278738,0.278457,27.1756,33,0.0156018,10,0.00756723,-1.56582,0.0794074,0.743004,788.557,0.2784566,
2,1,0,1,0,64243.6,0.274742,0.274455,24.1576,33,0.0157041,10,0.00663016,-1.61695,0.0764123,0.772127,726.623,0.274455,
2,1,0,1,0,64243.6,0.270747,0.270466,21.37,33,0.0157949,10,0.00577988,-1.67019,0.0722571,0.816529,678.396,0.270466,
2,1,0,1,0,64243.6,0.266702,0.266414,18.7412,33,0.0158747,10,0.00499291,-1.7272,0.0679686,0.868048,631.7,0.266414,
2,1,0,1,0,64243.6,0.262707,0.262455,16.3203,33,0.0159446,10,0.00428334,-1.78727,0.0631568,0.934183,589.934,0.262455,
2,1,0,1,0,64243.6,0.258712,0.258447,14.0454,33,0.0160051,10,0.00362999,-1.85247,0.0575909,1.02447,553.761,0.258447,
2,1,0,1,0,64243.6,0.254717,0.254429,11.9089,33,0.0160567,10,0.00302997,-1.92413,0.0518127,1.13872,518.955,0.254429,
2,1,0,1,0,64243.6,0.250722,0.250439,9.89486,33,0.0161001,10,0.00247805,-2.00459,0.0451729,1.30609,489.509,0.250439,
2,1,0,1,0,64243.6,0.246726,0.246445,8.01178,33,0.0161357,10,0.00197446,-2.09627,0.0380514,1.55054,461.814,0.246445,
2,1,0,1,0,64243.6,0.242731,0.242448,6.21407,33,0.0161639,10,0.00150659,-2.20662,0.0302107,1.95295,435.918,0.242448,
2,1,0,1,0,64243.6,0.238736,0.238443,4.52654,33,0.0161852,10,0.00107932,-2.34423,0.0211155,2.79415,413.515,0.238443,
2,1,0,1,0,64243.6,0.234741,0.234451,2.9255,33,0.0161999,10,0.000685886,-2.5338,0.00830419,7.10485,394.009,0.234451,
2,1,0,1,0,64243.6,0.230746,0.23046,1.40192,33,0.0162084,10,0.000323088,-2.85328,0.0317727,1.85694,371.184,0.23046,
2,1,0,1,0,64243.7,0.226701,0.226488,-0.0743768,33,0.016211,10,-1.68455e-05,-4.12856,0.512684,0.115081,352.322,0.226488,
2,0,0,1,0,64243.7,0.222705,0.222428,-1.4181,33,0.0162078,10,-0.000315425,-2.84829,-0.0355337,-1.6604,334.629,0.2224279,
2,0,0,1,0,64243.7,0.21871,0.218421,-2.72228,33,0.0161994,10,-0.000594603,-2.56507,-0.00875157,-6.74164,314.751,0.218421,
2,0,0,1,0,64243.7,0.214715,0.214441,-3.95869,33,0.0161859,10,-0.000848906,-2.40245,-0.0247998,-2.37906,303.1,0.214441,
2,0,0,1,0,64243.7,0.21072,0.210388,-5.14193,33,0.0161676,10,-0.0010818,-2.28887,-0.0371718,-1.58722,288.485,0.210388,
2,0,0,1,0,64243.7,0.206725,0.206416,-6.27138,33,0.0161446,10,-0.00129451,-2.20264,-0.0492178,-1.19875,275.804,0.206416,
2,0,0,1,0,64243.7,0.20273,0.202399,-7.34429,33,0.0161173,10,-0.00148648,-2.13405,-0.061111,-0.965456,265.621,0.202399,
2,0,0,1,0,64243.7,0.198734,0.198413,-8.37929,33,0.0160857,10,-0.00166256,-2.07679,-0.0735978,-0.801654,254.511,0.198413,
2,0,0,1,0,64243.7,0.194739,0.194435,-9.37931,33,0.0160501,10,-0.00182367,-2.02783,-0.0857651,-0.687926,246.161,0.194435,
2,0,0,1,0,64243.7,0.190744,0.190447,-10.3356,33,0.0160105,10,-0.00196838,-1.98566,-0.0989024,-0.596548,236.587,0.190447,
2,0,0,1,0,64243.7,0.186735,0.186439,-11.2731,33,0.0159672,10,-0.00210174,-1.94796,-0.11223,-0.525704,227.98,0.186439,
2,0,0,1,0,64243.7,0.182704,0.182342,-12.1813,33,0.0159202,10,-0.00222118,-1.9143,-0.124696,-0.473152,222.116,0.182342,
2,0,0,1,0,64243.7,0.178709,0.178352,-13.046,33,0.0158697,10,-0.00232678,-1.88452,-0.138508,-0.425969,214.737,0.1783521,
2,0,0,1,0,64243.7,0.174713,0.174413,-13.8971,33,0.0158157,10,-0.00242383,-1.85708,-0.151314,-0.389919,209.8,0.1744127,
2,0,0,1,0,64243.7,0.170718,0.170416,-14.7137,33,0.0157584,10,-0.00250746,-1.83228,-0.163527,-0.360797,205.933,0.170416,
2,0,0,1,0,64243.7,0.166723,0.166392,-15.5278,33,0.0156978,10,-0.0025837,-1.80889,-0.176321,-0.334617,201.809,0.166392,
2,0,0,1,0,64243.7,0.162728,0.162421,-16.3268,33,0.015634,10,-0.00265181,-1.7871,-0.186682,-0.316045,200.653,0.162421,
2,0,0,1,0,64243.7,0.158733,0.158432,-17.122,33,0.0155671,10,-0.00271269,-1.76644,-0.195697,-0.301487,200.985,0.158432,
2,0,0,1,0,64243.7,0.154737,0.154398,-17.9279,33,0.0154969,10,-0.00276802,-1.74647,-0.20419,-0.288947,201.744,0.154398,
2,0,0,1,0,64243.7,0.150742,0.150429,-18.736,33,0.0154235,10,-0.00281844,-1.72732,-0.208821,-0.282538,206.524,0.150429,
2,0,0,1,0,64243.7,0.146747,0.14644,-19.5507,33,0.0153468,10,-0.00286301,-1.70884,-0.21401,-0.275687,210.495,0.14644,
2,0,0,1,0,64243.7,0.142702,0.142392,-20.4349,33,0.0152668,10,-0.00290975,-1.68963,-0.216903,-0.272011,216.844,0.142392,
2,0,0,1,0,64243.7,0.138707,0.138392,-21.297,33,0.0151832,10,-0.00294733,-1.67168,-0.2183,-0.27027,224.724,0.138392,
2,0,0,1,0,64243.7,0.134712,0.13438,-22.2162,33,0.0150961,10,-0.00298541,-1.65333,-0.219498,-0.268795,233.371,0.13438,
2,0,0,1,0,64243.7,0.130717,0.130371,-23.1619,33,0.0150053,10,-0.00301964,-1.63523,-0.217618,-0.271117,245.513,0.130371,
2,0,0,1,0,64243.8,0.126721,0.12642,-24.1622,33,0.0149106,10,-0.00305458,-1.61686,-0.216136,-0.272976,257.991,0.12642,
2,0,0,1,0,64243.8,0.122726,0.12241,-25.2207,33,0.0148117,10,-0.00308727,-1.59824,-0.213705,-0.276081,272.344,0.12241,
2,0,0,1,0,64243.8,0.118731,0.118419,-26.334,33,0.0147085,10,-0.00311845,-1.57948,-0.212775,-0.277288,285.433,0.118419,
2,0,0,1,0,64243.8,0.114736,0.114383,-27.5161,33,0.0146007,10,-0.00314737,-1.56041,-0.213964,-0.275748,296.122,0.114383,
2,0,0,1,0,64243.8,0.110741,0.110448,-28.7211,33,0.0144881,10,-0.00317219,-1.5418,-0.214872,-0.274582,307.828,0.110448,
2,0,0,1,0,64243.8,0.106745,0.106447,-29.9478,33,0.0143707,10,-0.00318785,-1.52364,-0.220816,-0.267191,312.197,0.106447,
2,0,0,1,0,64243.8,0.102703,0.102423,-31.2581,33,0.0142482,10,-0.00320154,-1.50504,-0.228531,-0.25817,314.029,0.102423,
2,0,0,1,0,64243.8,0.0987052,0.0984155,-32.5011,33,0.0141206,10,-0.00319861,-1.4881,-0.237267,-0.248666,314.393,0.0984155,
2,0,0,1,0,64243.8,0.09471,0.0944379,-33.7487,33,0.0139879,10,-0.00318716,-1.47174,-0.25149,-0.234602,308.23,0.0944379,
2,0,0,1,0,64243.8,0.0907148,0.0904582,-34.9745,33,0.0138504,10,-0.00316373,-1.45625,-0.262399,-0.224849,306.153,0.0904582,
2,0,0,1,0,64243.8,0.0867197,0.0864138,-36.1925,33,0.0137079,10,-0.00312754,-1.44138,-0.277743,-0.212426,299.207,0.0864138,
2,0,0,1,0,64243.8,0.0827245,0.0824458,-37.3903,33,0.0135606,10,-0.00308267,-1.42724,-0.29329,-0.201166,292.548,0.0824458,
2,0,0,1,0,64243.8,0.0787293,0.0784268,-38.5394,33,0.0134086,10,-0.00302252,-1.4141,-0.311532,-0.189386,283.922,0.0784268,
2,0,0,1,0,64243.8,0.0747341,0.0744789,-39.6492,33,0.0132521,10,-0.00295303,-1.40177,-0.335644,-0.175781,271.127,0.0744789,
2,0,0,1,0,64243.8,0.070739,0.0704536,-40.724,33,0.0130913,10,-0.00286915,-1.39015,-0.359035,-0.16433,260.275,0.0704536,
2,0,0,1,0,64243.8,0.0667438,0.0664294,-41.7328,33,0.0129262,10,-0.00277228,-1.37952,-0.389736,-0.151385,245.714,0.0664294,
2,0,0,1,0,64243.8,0.0627403,0.0624433,-42.6995,33,0.0127572,10,-0.0026663,-1.36958,-0.420569,-0.140286,232.992,0.0624433,
2,0,0,1,0,64243.8,0.0587035,0.0584318,-43.5922,33,0.0125845,10,-0.00254717,-1.36059,-0.448885,-0.131437,223.101,0.0584318,
2,0,0,1,0,64243.8,0.0547083,0.0544934,-44.4426,33,0.0124083,10,-0.00242183,-1.3522,-0.489324,-0.120575,208.688,0.0544934,
2,0,0,1,0,64243.8,0.0507132,0.05043,-45.3023,33,0.0122287,10,-0.00228459,-1.34388,-0.523883,-0.112621,198.471,0.05043,
2,0,0,1,0,64243.8,0.046718,0.0464397,-46.0392,33,0.012046,10,-0.00213805,-1.33687,-0.565637,-0.104307,186.959,0.0464397,
2,0,0,1,0,64243.8,0.0427228,0.0424886,-46.7565,33,0.0118603,10,-0.00198662,-1.33016,-0.620596,-0.0950699,173.162,0.0424886,
2,0,0,1,0,64243.8,0.0387276,0.0384389,-47.4441,33,0.0116718,10,-0.0018237,-1.32382,-0.665249,-0.0886886,163.837,0.0384389,
2,0,0,1,0,64243.8,0.0347325,0.0344645,-48.0669,33,0.0114807,10,-0.0016566,-1.31815,-0.721606,-0.0817621,153.071,0.03446449,
2,0,0,1,0,64243.8,0.0307373,0.0304763,-48.6546,33,0.0112872,10,-0.00148281,-1.31288,-0.78024,-0.0756177,143.351,0.0304763,
2,0,0,1,0,64243.9,0.0267421,0.026486,-49.206,33,0.0110914,10,-0.00130327,-1.30798,-0.82193,-0.0717822,137.719,0.026486,
2,0,0,1,0,64243.9,0.022747,0.0225349,-49.724,33,0.0108935,10,-0.00112053,-1.30343,-0.880619,-0.0669983,129.922,0.0225349,
2,0,0,1,0,64243.9,0.0187018,0.0184704,-50.2696,33,0.0106935,10,-0.000928498,-1.29869,-0.950684,-0.0620605,121.527,0.01847038,
2,0,0,1,0,64243.9,0.0147067,0.0144514,-50.7366,33,0.0104914,10,-0.000733217,-1.29468,-1.03655,-0.0569198,112.459,0.01445144,
2,0,0,1,0,64243.9,0.0107115,0.0104261,-51.1577,33,0.0102876,10,-0.000533378,-1.29109,-1.1711,-0.05038,100.419,0.0104261,
2,0,0,1,0,64243.9,0.00671632,0.0064072,-51.5377,33,0.0100821,10,-0.000330212,-1.28788,-1.29284,-0.0456361,91.6707,0.0064072,
2,0,0,1,0,64243.9,0.00272115,0.00237765,-51.8856,33,0.00987524,10,-0.000123366,-1.28495,-1.44119,-0.0409383,82.7908,0.00237765,
2,0,0,1,0,64243.9,-0.00127403,-0.00163599,-52.2114,33,0.00966696,10,8.54171e-05,-1.28223,-1.63693,-0.036043,73.3188,-0.00163599,
2,0,0,1,0,64243.9,-0.0052692,-0.00561463,-52.4858,33,0.00945752,10,0.000294688,-1.27996,-1.87682,-0.0314361,64.2837,-0.00561463,
2,0,0,1,0,64243.9,-0.00926438,-0.00962403,-52.7131,33,0.0092471,10,0.000507312,-1.27808,-2.27235,-0.0259643,53.3372,-0.00962403,
2,0,0,1,0,64243.9,-0.0132596,-0.0135931,-52.9122,33,0.00903581,10,0.000719243,-1.27644,-2.61522,-0.0225603,46.5391,-0.0135931,
2,0,0,1,0,64243.9,-0.0172547,-0.0176343,-53.0647,33,0.00882385,10,0.000935761,-1.27519,-3.16893,-0.0186183,38.5267,-0.0176343,
2,0,0,1,0,64243.9,-0.0212915,-0.0216448,-53.2318,33,0.00861128,10,0.00115219,-1.27383,-4.10162,-0.0143846,29.8385,-0.0216448,
2,0,0,1,0,64243.9,-0.025295,-0.0257083,-53.3328,33,0.00839812,10,0.00137109,-1.27301,-5.63736,-0.0104659,21.7455,-0.0257083,
2,0,0,1,0,64243.9,-0.0292902,-0.029671,-53.392,33,0.00818468,10,0.00158419,-1.27252,-10.4743,-0.00563284,11.7227,-0.029671,
2,0,0,1,0,64243.9,-0.0332854,-0.0336709,-53.4134,33,0.00797105,10,0.00179848,-1.27235,-29.0102,-0.00203377,4.23578,-0.03367088,
2,0,0,1,0,64243.9,-0.0372805,-0.0376538,-53.4195,33,0.00775739,10,0.00201144,-1.2723,128.984,0.000457423,-0.953005,-0.0376538,
2,0,0,1,0,64243.9,-0.0412757,-0.0416091,-53.4001,33,0.00754375,10,0.00222193,-1.27246,22.6338,0.00260672,-5.42944,-0.04160909,
2,0,0,1,0,64243.9,-0.0452709,-0.0456439,-53.3767,33,0.00733018,10,0.00243632,-1.27265,11.7711,0.00501226,-10.4332,-0.0456439,
2,0,0,1,0,64243.9,-0.0492661,-0.0496608,-53.3266,33,0.00711679,10,0.00264824,-1.27306,8.87114,0.00665078,-13.8317,-0.0496608,
2,0,0,1,0,64243.9,-0.0532612,-0.0536458,-53.2526,33,0.00690362,10,0.00285678,-1.27366,6.98994,0.00844071,-17.5368,-0.0536458,
2,0,0,1,0,64243.9,-0.0572564,-0.0576191,-53.1787,33,0.00669076,10,0.00306411,-1.27426,7.21042,0.0081826,-16.986,-0.0576191,
2,0,0,1,0,64243.9,-0.0612544,-0.0616465,-53.0961,33,0.00647823,10,0.00327319,-1.27494,6.46864,0.00912093,-18.9018,-0.0616465,
2,0,0,1,0,64243.9,-0.0652967,-0.0656475,-53.055,33,0.00626585,10,0.00348293,-1.27527,5.74196,0.0102752,-21.2568,-0.0656475,
2,0,0,1,0,64243.9,-0.0692919,-0.0697078,-52.949,33,0.00605386,10,0.00369096,-1.27614,5.38133,0.0109638,-22.6413,-0.0697078,
2,0,0,1,0,64244,-0.0732871,-0.0736588,-52.8377,33,0.0058423,10,0.00389196,-1.27706,4.67356,0.0126242,-26.0362,-0.0736588,
2,0,0,1,0,64244,-0.0772822,-0.0776555,-52.7336,33,0.00563115,10,0.00409506,-1.27791,4.74535,0.0124332,-25.5937,-0.0776555,
2,0,0,1,0,64244,-0.0812774,-0.0816999,-52.6371,33,0.00542042,10,0.00430044,-1.27871,5.05377,0.0116745,-23.9863,-0.0816999,
2,0,0,1,0,64244,-0.0852726,-0.0856001,-52.5423,33,0.00521007,10,0.00449762,-1.27949,5.19856,0.0113493,-23.2747,-0.0856001,
2,0,0,1,0,64244,-0.0892677,-0.0896498,-52.4541,33,0.00500009,10,0.0047025,-1.28022,5.28572,0.0111622,-22.8507,-0.0896498,
2,0,0,1,0,64244,-0.0932629,-0.093639,-52.3616,33,0.00479046,10,0.00490309,-1.28099,5.74206,0.0102751,-21.0021,-0.093639,
2,0,0,1,0,64244,-0.0972581,-0.0976134,-52.2734,33,0.0045812,10,0.00510259,-1.28172,7.24774,0.00814047,-16.6223,-0.0976134,
2,0,0,1,0,64244,-0.101253,-0.101612,-52.206,33,0.00437227,10,0.00530477,-1.28228,7.89436,0.00747369,-15.2369,-0.101612,
2,0,0,1,0,64244,-0.105298,-0.105625,-52.1886,33,0.00416349,10,0.00551241,-1.28242,9.00315,0.00655326,-13.3417,-0.105625,
2,0,0,1,0,64244,-0.109294,-0.109666,-52.1174,33,0.0039549,10,0.00571551,-1.28302,9.48717,0.00621893,-12.646,-0.109666,
2,0,0,1,0,64244,-0.113289,-0.113666,-52.0593,33,0.00374657,10,0.00591736,-1.2835,9.05251,0.00651753,-13.2476,-0.113666,
2,0,0,1,0,64244,-0.117284,-0.117656,-52.0031,33,0.00353845,10,0.00611848,-1.28397,11.9629,0.00493189,-10.016,-0.117656,
2,0,0,1,0,64244,-0.121279,-0.121634,-51.9765,33,0.0033305,10,0.0063221,-1.28419,16.4448,0.00358776,-7.28116,-0.121634,
2,0,0,1,0,64244,-0.125274,-0.12564,-51.9574,33,0.00312265,10,0.00652793,-1.28435,30.774,0.0019172,-3.88867,-0.12564,
2,0,0,1,0,64244,-0.129269,-0.129612,-51.9432,33,0.00291485,10,0.00673247,-1.28447,49.84,0.00118379,-2.4004,-0.129612,
2,0,0,1,0,64244,-0.133265,-0.133613,-51.941,33,0.00270708,10,0.00694001,-1.28449,-326.399,-0.00018076,0.366555,-0.133613,
2,0,0,1,0,64244,-0.13726,-0.137665,-51.938,33,0.00249932,10,0.00715005,-1.28451,-20.246,-0.00291415,5.91289,-0.137665,
2,0,0,1,0,64244,-0.141255,-0.141636,-51.9633,33,0.00229151,10,0.00735989,-1.2843,-15.3946,-0.0038325,7.7782,-0.141636,
2,0,0,1,0,64244,-0.145286,-0.145621,-52.0378,33,0.00208354,10,0.00757781,-1.28368,-11.0593,-0.00533486,10.8316,-0.145621,
2,0,0,1,0,64244,-0.149295,-0.149682,-52.066,33,0.00187532,10,0.00779332,-1.28345,-9.89587,-0.00596208,12.1135,-0.149682,
2,0,0,1,0,64244,-0.15329,-0.153627,-52.1109,33,0.00166696,10,0.00800566,-1.28307,-10.8247,-0.00545049,11.0882,-0.153627,
2,0,0,1,0,64244,-0.157286,-0.157662,-52.1574,33,0.00145843,10,0.00822325,-1.28268,-8.60506,-0.00685643,13.9618,-0.157662,
2,0,0,1,0,64244,-0.161281,-0.161669,-52.2158,33,0.00124967,10,0.00844169,-1.2822,-7.95871,-0.00741326,15.1114,-0.161669,
2,0,0,1,0,64244,-0.165276,-0.165613,-52.2885,33,0.00104067,10,0.00865965,-1.28159,-7.20416,-0.00818971,16.7131,-0.165613,
2,0,0,1,0,64244,-0.169271,-0.169602,-52.3523,33,0.000831383,10,0.00887908,-1.28106,-6.6915,-0.00881715,18.0171,-0.169602,
2,0,0,1,0,64244.1,-0.173266,-0.173641,-52.4245,33,0.000621809,10,0.00910306,-1.28047,-6.68231,-0.00882928,18.0674,-0.173641,
2,0,0,1,0,64244.1,-0.177261,-0.177618,-52.5031,33,0.000411949,10,0.0093255,-1.27981,-6.18337,-0.00954172,19.5533,-0.177618,
2,0,0,1,0,64244.1,-0.181257,-0.181656,-52.5783,33,0.000201778,10,0.00955116,-1.27919,-5.4323,-0.010861,22.2966,-0.181656,
2,0,0,1,0,64244.1,-0.185252,-0.185601,-52.6652,33,-8.72378e-06,10,0.00977469,-1.27848,-5.6679,-0.0104095,21.3989,-0.1856007,
2,0,0,1,0,64244.1,-0.189297,-0.189621,-52.7808,33,-0.000219692,10,0.0100083,-1.27752,-5.6308,-0.0104781,21.5712,-0.189621,
2,0,0,1,0,64244.1,-0.193292,-0.193615,-52.8454,33,-0.000430967,10,0.0102317,-1.27699,-5.91329,-0.00997752,20.566,-0.193615,
2,0,0,1,0,64244.1,-0.197287,-0.197668,-52.9237,33,-0.000642507,10,0.0104613,-1.27635,8.76976,0.00672766,-13.838,-0.197668,
2,0,0,0,0,64244.1,-0.199984,-0.200246,-52.9664,33,-0.000785459,10,0.0106063,-1.276,0.0641506,0.919711,-1781.82,-0.200246,
2,0,0,0,1,64244.1,-0.199984,-0.200685,-52.6277,33,-0.000817076,10,0.0105616,-1.27879,-0.0425409,-1.3869,2542.93,-0.200685,
2,0,0,1,1,64244.1,-0.196688,-0.197137,-46.5706,33,-0.000968199,10,0.00918078,-1.33189,-0.0734666,-0.803086,1401.73,-0.197137,
2,0,0,1,1,64244.1,-0.192693,-0.193176,-41.5011,33,-0.00114348,10,0.00801703,-1.38194,-0.0812982,-0.725723,1204.47,-0.193176,
2,0,0,1,1,64244.1,-0.188698,-0.18913,-37.3844,33,-0.00130066,10,0.00707051,-1.42731,-0.0885663,-0.666168,989.752,-0.18913,
2,0,0,1,1,64244.1,-0.184653,-0.185061,-33.809,33,-0.00144258,10,0.00625673,-1.47097,-0.0927617,-0.636038,849.078,-0.185061,
2,0,0,1,1,64244.1,-0.180657,-0.181074,-30.6721,33,-0.00157114,10,0.00555392,-1.51326,-0.0935928,-0.630391,759.791,-0.1810738,
2,0,0,1,1,64244.1,-0.176662,-0.177063,-27.8201,33,-0.00168778,10,0.00492592,-1.55564,-0.092688,-0.636544,693.147,-0.177063,
2,0,0,1,1,64244.1,-0.172667,-0.173071,-25.1831,33,-0.00179346,10,0.00435846,-1.59889,-0.0905768,-0.651381,640.581,-0.173071,
2,0,0,1,1,64244.1,-0.168672,-0.169072,-22.7264,33,-0.00188899,10,0.00384241,-1.64347,-0.0868399,-0.679411,601.556,-0.169072,
2,0,0,1,1,64244.1,-0.164677,-0.165067,-20.4185,33,-0.00197501,10,0.00337041,-1.68998,-0.0828161,-0.712422,565.592,-0.165067,
2,0,0,1,1,64244.1,-0.160681,-0.161118,-18.2281,33,-0.00205205,10,0.00293687,-1.73926,-0.0779884,-0.756523,535.154,-0.161118,
2,0,0,1,1,64244.1,-0.156686,-0.157128,-16.1657,33,-0.00212061,10,0.00254009,-1.7914,-0.0724301,-0.814579,508.984,-0.157128,
2,0,0,1,1,64244.1,-0.152691,-0.153125,-14.1921,33,-0.00218111,10,0.00217316,-1.84795,-0.0659953,-0.894003,487.46,-0.153125,
2,0,0,1,1,64244.1,-0.148696,-0.149093,-12.288,33,-0.00223386,10,0.00183205,-1.91052,-0.0594475,-0.992473,466.407,-0.149093,
2,0,0,1,1,64244.1,-0.14467,-0.145131,-10.4352,33,-0.00227915,10,0.00151447,-1.9815,-0.0522262,-1.1297,448.556,-0.1451313,
2,0,0,1,1,64244.1,-0.140656,-0.141092,-8.68667,33,-0.00231718,10,0.00122562,-2.06115,-0.0445599,-1.32406,431.773,-0.141092,
2,0,0,1,1,64244.1,-0.136661,-0.137084,-6.99691,33,-0.00234836,10,0.000959164,-2.15509,-0.0363794,-1.6218,415.012,-0.137084,
2,0,0,1,1,64244.1,-0.132665,-0.133066,-5.36793,33,-0.00237292,10,0.000714289,-2.27019,-0.0271103,-2.17629,403.843,-0.133066,
2,0,0,1,1,64244.2,-0.12867,-0.129105,-3.78424,33,-0.00239106,10,0.000488566,-2.42202,-0.016387,-3.60042,392.193,-0.129105,
2,0,0,1,1,64244.2,-0.124675,-0.125124,-2.23784,33,-0.00240294,10,0.000280006,-2.65017,-0.0181139,-3.25716,380.714,-0.125124,
2,0,0,1,1,64244.2,-0.12068,-0.121143,-0.744931,33,-0.00240874,10,9.0243e-05,-3.12788,-0.0638837,-0.923553,370.521,-0.1211428,
2,1,0,1,1,64244.2,-0.116685,-0.117111,0.706317,33,-0.00240865,10,-8.27176e-05,-3.151,0.0814896,0.724019,360.396,-0.117111,
2,1,0,1,1,64244.2,-0.112689,-0.113146,2.12894,33,-0.00240284,10,-0.000240882,-2.67184,0.0195629,3.01592,352.242,-0.113146,
2,1,0,1,1,64244.2,-0.108694,-0.109168,3.51263,33,-0.00239139,10,-0.000383466,-2.45437,0.0168839,3.49445,346.413,-0.109168,
2,1,0,1,1,64244.2,-0.104699,-0.105173,4.88028,33,-0.00237446,10,-0.000513274,-2.31156,0.0291545,2.0237,337.519,-0.105173,
2,1,0,1,1,64244.2,-0.100654,-0.101135,6.24064,33,-0.00235202,10,-0.000631148,-2.20477,0.0401218,1.47052,330.442,-0.101135,
2,1,0,1,1,64244.2,-0.0966588,-0.0971606,7.5244,33,-0.00232436,10,-0.000731076,-2.12353,0.0510994,1.15461,322.519,-0.0971606,
2,1,0,1,1,64244.2,-0.0926637,-0.0931618,8.80162,33,-0.00229157,10,-0.000819975,-2.05544,0.0621159,0.949838,315.644,-0.0931618,
2,1,0,1,1,64244.2,-0.0886685,-0.0891376,10.052,33,-0.00225375,10,-0.000896013,-1.99775,0.0727889,0.810564,309.855,-0.0891376,
2,1,0,1,1,64244.2,-0.0846733,-0.0851558,11.2844,33,-0.00221095,10,-0.000960932,-1.94752,0.0841186,0.701391,302.352,-0.0851558,
2,1,0,1,1,64244.2,-0.0806781,-0.0811602,12.4822,33,-0.00216331,10,-0.00101306,-1.90371,0.0949502,0.621379,297.664,-0.08116015,
2,1,0,1,1,64244.2,-0.076683,-0.0771529,13.642,33,-0.00211092,10,-0.00105252,-1.86512,0.106845,0.552202,290.377,-0.0771529,
2,1,0,1,1,64244.2,-0.0726878,-0.0731774,14.8028,33,-0.00205392,10,-0.00108323,-1.82966,0.11831,0.498689,284.986,-0.0731774,
2,1,0,1,1,64244.2,-0.0686926,-0.0691563,15.9303,33,-0.00199235,10,-0.00110168,-1.79778,0.129187,0.456703,281.629,-0.0691563,
2,1,0,1,1,64244.2,-0.0646974,-0.0651682,17.0397,33,-0.00192628,10,-0.00111045,-1.76854,0.142505,0.414022,273.16,-0.0651682,
2,1,0,1,1,64244.2,-0.0606523,-0.0610527,18.1762,33,-0.00185576,10,-0.00110971,-1.7405,0.155049,0.380526,267.217,-0.0610527,
2,1,0,1,1,64244.2,-0.0566571,-0.0570847,19.1987,33,-0.00178092,10,-0.00109595,-1.71673,0.168242,0.350685,260.89,-0.0570847,
2,1,0,1,1,64244.2,-0.052662,-0.0530742,20.2277,33,-0.00170195,10,-0.00107357,-1.69405,0.182664,0.322997,253.805,-0.0530742,
2,1,0,1,1,64244.2,-0.0486668,-0.0490722,21.239,33,-0.00161892,10,-0.00104224,-1.67287,0.194443,0.303431,250.287,-0.0490722,
2,1,0,1,1,64244.2,-0.0446716,-0.0450872,22.2284,33,-0.00153187,10,-0.00100222,-1.65309,0.208117,0.283494,244.778,-0.0450872,
2,1,0,1,1,64244.2,-0.0406764,-0.0411033,23.1986,33,-0.00144091,10,-0.00095354,-1.63454,0.222335,0.265365,239.185,-0.0411033,
2,1,0,1,1,64244.2,-0.0366813,-0.0371098,24.1354,33,-0.00134615,10,-0.000895661,-1.61734,0.236888,0.249063,233.74,-0.0371098,
2,1,0,1,1,64244.2,-0.0326861,-0.0331089,25.0572,33,-0.00124767,10,-0.000829615,-1.60107,0.252795,0.233391,227.488,-0.0331089,
2,1,0,1,1,64244.3,-0.0286909,-0.0291133,25.9621,33,-0.00114555,10,-0.000755842,-1.58566,0.265273,0.222412,224.733,-0.0291133,
2,1,0,1,1,64244.3,-0.0246957,-0.0250943,26.8405,33,-0.00103985,10,-0.000673543,-1.57121,0.282615,0.208764,218.123,-0.02509431,
2,1,0,1,1,64244.3,-0.0206756,-0.0211188,27.7291,33,-0.000930634,10,-0.000585607,-1.55706,0.299454,0.197025,212.453,-0.0211188,
2,1,0,1,1,64244.3,-0.0166554,-0.0170342,28.5634,33,-0.000817932,10,-0.000486554,-1.54419,0.316038,0.186686,207.451,-0.0170342,
2,1,0,1,1,64244.3,-0.0126603,-0.0130852,29.3673,33,-0.00070198,10,-0.000384277,-1.53214,0.33741,0.174861,199.975,-0.0130852,
2,1,0,1,1,64244.3,-0.0086651,-0.00903869,30.1712,33,-0.000582829,10,-0.000272708,-1.52041,0.352467,0.167392,196.456,-0.00903869,
2,1,0,1,1,64244.3,-0.00466992,-0.00508125,30.9362,33,-0.000460535,10,-0.000157195,-1.50953, , , ,-0.00508125,
2,1,0,1,1,64244.3,-0.000974387,-0.00140694,31.6335,33,-0.000344752,10,-4.45064e-05,-1.49985, , , ,-0.00140694,
2,1,0,0,1,64244.3,-0.000175352,-0.000554371,31.7728,33,-0.000319406,10,-1.76139e-05,-1.49794, , , ,-0.000554371,