File: Figure_codes/Fig_3-5/rawdata_trumpetplot_data/after 10th/20221101_1-115_003_TrumpetPlot_ParaChange_from10_every3_10_CV_C01_10.csv
mode,ox/red,error,control changes,counter inc.,time/s,control/V,Ewe/V,<I>/mA,cycle number,(Q-Qo)/C,I Range,P/W,log(|I|),Tafel slope mV/dec,alpha_eff,dI/d(E-IR),E-IR/V,
2,1,0,0,0,20891.8,-2.44065e-05,-0.000287149,5.13388,11,0.0000000E+000,10,-1.47419e-06,-2.28955, , , ,-0.0002871489,
2,1,0,1,0,20891.8,0.00179726,0.00142355,5.99317,11,4.95294e-05,10,8.53159e-06,-2.22234, , , ,0.00142355,
2,1,0,1,0,20891.8,0.00379485,0.00345635,6.67368,11,0.00011327,10,2.30666e-05,-2.17563,0.0523735,1.12652,288.427,0.00345635,
2,1,0,1,0,20891.9,0.00579244,0.00547722,7.16235,11,0.000182578,10,3.92298e-05,-2.14494,0.0729553,0.808714,224.492,0.00547722,
2,1,0,1,0,20891.9,0.00779002,0.00745276,7.57085,11,0.000256395,10,5.64237e-05,-2.12086,0.089689,0.657828,193.596,0.007452759,
2,1,0,1,0,20891.9,0.00977853,0.00945519,7.93247,11,0.00033323,10,7.50031e-05,-2.10059,0.110072,0.536013,165.109,0.00945519,
2,1,0,1,0,20891.9,0.0117761,0.0114073,8.22378,11,0.000414095,10,9.38111e-05,-2.08493,0.136481,0.432296,138.371,0.0114073,
2,1,0,1,0,20891.9,0.0137737,0.0133889,8.47679,11,0.000497605,10,0.000113495,-2.07177,0.160512,0.367573,121.42,0.0133889,
2,1,0,1,0,20891.9,0.0157713,0.0154044,8.7091,11,0.000583648,10,0.000134158,-2.06003,0.179516,0.328661,111.606,0.01540436,
2,1,0,1,0,20891.9,0.017778,0.017445,8.92947,11,0.000671889,10,0.000155774,-2.04917,0.210551,0.280218,97.3886,0.017445,
2,1,0,1,0,20891.9,0.0197755,0.0194639,9.10445,11,0.000762118,10,0.000177208,-2.04075,0.23481,0.251267,89.2998,0.0194639,
2,1,0,1,0,20891.9,0.0217731,0.021436,9.28586,11,0.000854077,10,0.000199051,-2.03218,0.255445,0.23097,83.5532,0.021436,
2,1,0,1,0,20891.9,0.0237707,0.0234323,9.43602,11,0.000947744,10,0.000221108,-2.02521,0.278061,0.212183,78.1768,0.0234323,
2,1,0,1,0,20892,0.0257774,0.0254183,9.59719,11,0.00104291,10,0.000243944,-2.01786,0.293837,0.200792,75.1127,0.0254183,
2,1,0,1,0,20892,0.027775,0.0274268,9.73606,11,0.00113964,10,0.000267029,-2.01162,0.314124,0.187824,71.4066,0.0274268,
2,1,0,1,0,20892,0.0297726,0.0294795,9.88719,11,0.00123776,10,0.00029147,-2.00493,0.327409,0.180203,69.441,0.0294795,
2,1,0,1,0,20892,0.0317701,0.0314169,10.0131,11,0.00133734,10,0.000314582,-1.99943,0.334752,0.17625,68.9448,0.0314169,
2,1,0,1,0,20892,0.0337586,0.0334449,10.1606,11,0.0014372,10,0.00033982,-1.99308,0.335912,0.175641,69.5879,0.0334449,
2,1,0,1,0,20892,0.0357562,0.0354205,10.2917,11,0.00153955,10,0.000364538,-1.98751,0.358446,0.164599,66.1036,0.0354205,
2,1,0,1,0,20892,0.0377538,0.0373904,10.4214,11,0.00164313,10,0.00038966,-1.98207,0.353262,0.167015,67.9586,0.0373904,
2,1,0,1,0,20892,0.0397514,0.0393946,10.5618,11,0.0017481,10,0.000416078,-1.97626,0.333482,0.176921,72.9668,0.0393946,
2,1,0,1,0,20892,0.0417399,0.0414204,10.7154,11,0.00185335,10,0.000443838,-1.96999,0.362392,0.162807,67.9714,0.0414204,
2,1,0,1,0,20892,0.0437375,0.0434089,10.8347,11,0.00196115,10,0.000470322,-1.96518,0.387929,0.15209,64.3541,0.0434089,
2,1,0,1,0,20892.1,0.0457351,0.0453715,10.9697,11,0.00207014,10,0.000497712,-1.9598,0.367771,0.160426,68.69,0.0453715,
2,1,0,1,0,20892.1,0.0477327,0.0474017,11.1089,11,0.00218061,10,0.000526582,-1.95433,0.355905,0.165774,71.9079,0.0474017,
2,1,0,1,0,20892.1,0.0497393,0.0494197,11.2608,11,0.00229242,10,0.000556506,-1.94843,0.371512,0.15881,69.7132,0.0494197,
2,1,0,1,0,20892.1,0.0517369,0.0514056,11.3881,11,0.00240571,10,0.000585411,-1.94355,0.375992,0.156918,69.8079,0.0514056,
2,1,0,1,0,20892.1,0.0537345,0.0533951,11.5383,11,0.00252032,10,0.00061609,-1.93786,0.359207,0.16425,73.9469,0.0533951,
2,1,0,1,0,20892.1,0.0557321,0.0554201,11.6849,11,0.00263647,10,0.000647579,-1.93237,0.379271,0.155562,70.8998,0.0554201,
2,1,0,1,0,20892.1,0.0577297,0.0573592,11.8194,11,0.00275396,10,0.00067795,-1.92741,0.376478,0.156716,72.3457,0.0573592,
2,1,0,1,0,20892.1,0.0597364,0.059411,11.9736,11,0.00287303,10,0.000711367,-1.92177,0.362891,0.162583,75.9612,0.059411,
2,1,0,1,0,20892.1,0.0617339,0.061384,12.1251,11,0.00299351,10,0.000744287,-1.91631,0.382552,0.154227,72.9373,0.061384,
2,1,0,1,0,20892.1,0.0637315,0.0633803,12.2632,11,0.00311553,10,0.000777243,-1.9114,0.391302,0.150779,72.1945,0.0633803,
2,1,0,1,0,20892.2,0.0657291,0.0653793,12.4136,11,0.00323887,10,0.000811589,-1.9061,0.377573,0.156261,75.7068,0.0653793,
2,1,0,1,0,20892.2,0.0677176,0.0673877,12.5665,11,0.00336262,10,0.000846831,-1.90078,0.392797,0.150205,73.6257,0.0673877,
2,1,0,1,0,20892.2,0.0697152,0.0693664,12.7071,11,0.00348898,10,0.000881447,-1.89595,0.423777,0.139224,69.0209,0.0693664,
2,1,0,1,0,20892.2,0.0717128,0.0713523,12.8402,11,0.00361677,10,0.000916177,-1.89143,0.427963,0.137863,69.1103,0.0713523,
2,1,0,1,0,20892.2,0.0737104,0.07337,12.9838,11,0.00374587,10,0.000952621,-1.8866,0.407082,0.144934,73.4559,0.07337001,
2,1,0,1,0,20892.2,0.0756989,0.0753524,13.134,11,0.00387522,10,0.00098968,-1.8816,0.403072,0.146376,75.0117,0.0753524,
2,1,0,1,0,20892.2,0.0776965,0.077308,13.2792,11,0.00400724,10,0.00102659,-1.87683,0.42712,0.138135,71.5763,0.077308,
2,1,0,1,0,20892.2,0.0796941,0.0793651,13.4212,11,0.00414079,10,0.00106518,-1.87221,0.443324,0.133086,69.7018,0.07936509,
2,1,0,1,0,20892.2,0.0816916,0.0813597,13.5616,11,0.0042757,10,0.00110337,-1.86769,0.449707,0.131197,69.4305,0.0813597,
2,1,0,1,0,20892.2,0.0836983,0.0833804,13.7,11,0.00441204,10,0.00114231,-1.86328,0.468085,0.126045,67.3733,0.0833804,
2,1,0,1,0,20892.3,0.0856959,0.0853655,13.8315,11,0.00454971,10,0.00118073,-1.85913,0.494253,0.119372,64.4231,0.0853655,
2,1,0,1,0,20892.3,0.0876935,0.0873818,13.9578,11,0.00468871,10,0.00121966,-1.85518,0.514897,0.114586,62.4117,0.0873818,
2,1,0,1,0,20892.3,0.0896911,0.0893781,14.0819,11,0.00482887,10,0.00125862,-1.85134,0.494374,0.119343,65.6149,0.0893781,
2,1,0,1,0,20892.3,0.0916977,0.0913563,14.2186,11,0.0049704,10,0.00129896,-1.84714,0.50296,0.117306,65.0643,0.09135627,
2,1,0,1,0,20892.3,0.0936953,0.0933943,14.3432,11,0.00511318,10,0.00133958,-1.84335,0.558112,0.105713,59.1482,0.0933943,
2,1,0,1,0,20892.3,0.0956929,0.0953594,14.4554,11,0.00525724,10,0.00137845,-1.83997,0.557893,0.105755,59.6855,0.0953594,
2,1,0,1,0,20892.3,0.0976905,0.0973575,14.5798,11,0.0054024,10,0.00141945,-1.83625,0.512445,0.115134,65.5375,0.0973575,
2,1,0,1,0,20892.3,0.099679,0.0993431,14.7164,11,0.00554743,10,0.00146198,-1.8322,0.526184,0.112128,64.3597,0.0993431,
2,1,0,1,0,20892.3,0.101677,0.101335,14.8358,11,0.00569518,10,0.00150339,-1.82869,0.54389,0.108478,62.8346,0.101335,
2,1,0,1,0,20892.3,0.103674,0.103353,14.9684,11,0.00584423,10,0.00154703,-1.82482,0.499197,0.11819,69.0663,0.103353,
2,1,0,1,0,20892.4,0.105672,0.105335,15.112,11,0.00599463,10,0.00159182,-1.82068,0.467847,0.12611,74.3962,0.105335,
2,1,0,1,0,20892.4,0.107656,0.107336,15.2647,11,0.00614503,10,0.00163845,-1.81631,0.451648,0.130633,77.831,0.107336,
2,1,0,1,0,20892.4,0.109658,0.109316,15.4219,11,0.00629842,10,0.00168585,-1.81186,0.424507,0.138985,83.6904,0.109316,
2,1,0,1,0,20892.4,0.111655,0.111283,15.595,11,0.00645355,10,0.00173545,-1.80701,0.410848,0.143606,87.4074,0.111283,
2,1,0,1,0,20892.4,0.113653,0.113315,15.7715,11,0.00661036,10,0.00178715,-1.80213,0.401609,0.146909,90.4467,0.113315,
2,1,0,1,0,20892.4,0.115651,0.115287,15.9572,11,0.00676904,10,0.00183965,-1.79704,0.362844,0.162604,101.376,0.115287,
2,1,0,1,0,20892.4,0.117657,0.117346,16.1801,11,0.00692976,10,0.00189867,-1.79102,0.347518,0.169776,107.142,0.117346,
2,1,0,1,0,20892.4,0.119655,0.119284,16.3854,11,0.00709267,10,0.00195451,-1.78554,0.356456,0.165518,105.873,0.119284,
2,1,0,1,0,20892.4,0.121652,0.121326,16.6014,11,0.00725761,10,0.00201418,-1.77985,0.353178,0.167055,108.254,0.121326,
2,1,0,1,0,20892.4,0.12365,0.123347,16.8253,11,0.00742481,10,0.00207536,-1.77404,0.331443,0.17801,116.938,0.123347,
2,1,0,1,0,20892.5,0.125657,0.125295,17.0656,11,0.00759432,10,0.00213824,-1.76788,0.339781,0.173641,115.57,0.125295,
2,1,0,1,0,20892.5,0.127654,0.127324,17.2849,11,0.00776616,10,0.00220077,-1.76233,0.360262,0.16377,110.494,0.127324,
2,1,0,1,0,20892.5,0.129652,0.129337,17.5122,11,0.00794017,10,0.00226499,-1.75666,0.356696,0.165407,113.04,0.129337,
2,1,0,1,0,20892.5,0.131649,0.131344,17.7393,11,0.00811654,10,0.00232996,-1.75106,0.365093,0.161603,111.848,0.1313442,
2,1,0,1,0,20892.5,0.133638,0.133325,17.9582,11,0.00829332,10,0.00239428,-1.74574,0.375969,0.156928,109.962,0.133325,
2,1,0,1,0,20892.5,0.135636,0.135276,18.1717,11,0.00847405,10,0.00245819,-1.74061,0.397893,0.148281,105.133,0.135276,
2,1,0,1,0,20892.5,0.137633,0.137318,18.378,11,0.00865679,10,0.00252364,-1.7357,0.426223,0.138425,99.2389,0.137318,
2,1,0,1,0,20892.5,0.139631,0.139282,18.5692,11,0.00884158,10,0.00258635,-1.73121,0.450824,0.130871,94.8258,0.139282,
2,1,0,1,0,20892.5,0.141619,0.141296,18.7552,11,0.00902631,10,0.00265003,-1.72688,0.475235,0.124149,90.8474,0.141296,
2,1,0,1,0,20892.5,0.143617,0.143279,18.9324,11,0.00921477,10,0.00271261,-1.7228,0.512709,0.115075,84.993,0.143279,
2,1,0,1,0,20892.6,0.145614,0.145306,19.096,11,0.00940489,10,0.00277476,-1.71906,0.581053,0.10154,75.6204,0.145306,
2,1,0,1,0,20892.6,0.147612,0.147265,19.2338,11,0.00959656,10,0.00283246,-1.71594,0.615516,0.0958546,71.9693,0.147265,
2,1,0,1,0,20892.6,0.149619,0.149274,19.3816,11,0.00978963,10,0.00289318,-1.71261,0.691697,0.0852975,64.4564,0.149274,
2,1,0,1,0,20892.6,0.151616,0.151275,19.4922,11,0.00998408,10,0.00294868,-1.71014,0.877172,0.0672616,51.1441,0.151275,
2,1,0,1,0,20892.6,0.153614,0.153261,19.5855,11,0.0101795,10,0.00300169,-1.70806,1.1501,0.0512998,39.1816,0.153261,
2,1,0,1,0,20892.6,0.155611,0.155279,19.6491,11,0.0103757,10,0.00305109,-1.70666,1.64865,0.0357868,27.4316,0.155279,
2,1,0,1,0,20892.6,0.157618,0.157312,19.6967,11,0.0105724,10,0.00309853,-1.70561,7.63251,0.00773009,5.93136,0.1573125,
2,1,0,1,0,20892.6,0.159616,0.159298,19.673,11,0.0107693,10,0.00313385,-1.70613,-2.10809,-0.0279874,-21.4673,0.159298,
2,1,0,1,0,20892.6,0.161613,0.161283,19.6114,11,0.0109658,10,0.00316299,-1.70749,-0.932195,-0.0632915,-48.3537,0.161283,
2,1,0,1,0,20892.6,0.163611,0.163307,19.4791,11,0.0111613,10,0.00318107,-1.71043,-0.555385,-0.106233,-80.6409,0.163307,
2,1,0,1,0,20892.7,0.165618,0.16526,19.2907,11,0.0113551,10,0.00318798,-1.71465,-0.395963,-0.149004,-111.974,0.16526,
2,1,0,1,0,20892.7,0.167597,0.167284,19.0338,11,0.0115449,10,0.00318404,-1.72047,-0.295572,-0.199613,-147.961,0.167284,
2,1,0,1,0,20892.7,0.169595,0.169263,18.6984,11,0.0117335,10,0.00316495,-1.7282,-0.228272,-0.258464,-188.193,0.169263,
2,1,0,1,0,20892.7,0.171592,0.171262,18.285,11,0.0119184,10,0.00313153,-1.73791,-0.186879,-0.315712,-224.819,0.171262,
2,1,0,1,0,20892.7,0.173572,0.173251,17.8018,11,0.012097,10,0.00308418,-1.74954,-0.160664,-0.367226,-254.729,0.173251,
2,1,0,1,0,20892.7,0.175578,0.175238,17.2723,11,0.0122724,10,0.00302676,-1.76265,-0.144393,-0.408606,-274.964,0.175238,
2,1,0,1,0,20892.7,0.177576,0.177274,16.6956,11,0.0124422,10,0.0029597,-1.7774,-0.129918,-0.454133,-295.456,0.177274,
2,1,0,1,0,20892.7,0.179573,0.179265,16.0826,11,0.012606,10,0.00288305,-1.79364,-0.11993,-0.491955,-308.697,0.179265,
2,1,0,1,0,20892.7,0.181571,0.181223,15.4767,11,0.0127637,10,0.00280473,-1.81032,-0.118843,-0.496452,-299.778,0.181223,
2,1,0,1,0,20892.7,0.183578,0.183283,14.8779,11,0.0129154,10,0.00272687,-1.82746,-0.115108,-0.512563,-297.52,0.183283,
2,1,0,1,0,20892.8,0.185575,0.185226,14.2857,11,0.0130611,10,0.00264608,-1.8451,-0.113494,-0.51985,-290.069,0.185226,
2,1,0,1,0,20892.8,0.187573,0.187233,13.7323,11,0.0132011,10,0.00257114,-1.86226,-0.119177,-0.495062,-265.586,0.187233,
2,1,0,1,0,20892.8,0.18957,0.189237,13.2204,11,0.0133358,10,0.00250179,-1.87875,-0.123251,-0.478699,-247.165,0.189237,
2,1,0,1,0,20892.8,0.191577,0.191247,12.7401,11,0.0134655,10,0.00243651,-1.89483,-0.128208,-0.46019,-229.121,0.191247,
2,1,0,1,0,20892.8,0.193575,0.193231,12.3054,11,0.0135906,10,0.00237778,-1.9099,-0.136582,-0.431976,-207.699,0.193231,
2,1,0,1,0,20892.8,0.195572,0.195248,11.9092,11,0.0137117,10,0.00232524,-1.92412,-0.144873,-0.407254,-189.479,0.195248,
2,1,0,1,0,20892.8,0.19757,0.19724,11.5458,11,0.0138289,10,0.00227728,-1.93758,-0.157849,-0.373774,-168.771,0.19724,
2,1,0,1,0,20892.8,0.199558,0.199231,11.2369,11,0.0139416,10,0.00223874,-1.94935,-0.17077,-0.345494,-151.586,0.199231,
2,1,0,1,0,20892.8,0.201556,0.201208,10.9442,11,0.0140524,10,0.00220206,-1.96082,-0.177344,-0.332686,-142.207,0.201208,
2,1,0,1,0,20892.8,0.203554,0.203194,10.6734,11,0.0141604,10,0.00216876,-1.9717,-0.195861,-0.301235,-125.685,0.203194,
2,1,0,1,0,20892.9,0.205551,0.205208,10.4415,11,0.0142659,10,0.00214268,-1.98124,-0.222466,-0.265209,-108.206,0.205208,
2,1,0,1,0,20892.9,0.20754,0.207213,10.2385,11,0.0143682,10,0.00212155,-1.98976,-0.236487,-0.249485,-99.7067,0.207213,
2,1,0,1,0,20892.9,0.209537,0.209216,10.0418,11,0.0144695,10,0.00210092,-1.99819,-0.241225,-0.244585,-95.8854,0.209216,
2,1,0,1,0,20892.9,0.211535,0.211219,9.8544,11,0.0145689,10,0.00208143,-2.00637,-0.258585,-0.228165,-87.8596,0.211219,
2,1,0,1,0,20892.9,0.213532,0.213178,9.69379,11,0.0146666,10,0.0020665,-2.01351,-0.286175,-0.206168,-78.0357,0.213178,
2,1,0,1,0,20892.9,0.215539,0.21519,9.54445,11,0.0147627,10,0.00205388,-2.02025,-0.311898,-0.189164,-70.5086,0.21519,
2,1,0,1,0,20892.9,0.217537,0.217214,9.40921,11,0.0148575,10,0.00204381,-2.02645,-0.333073,-0.177138,-65.0749,0.217214,
2,1,0,1,0,20892.9,0.219534,0.219206,9.28316,11,0.0149509,10,0.00203492,-2.0323,-0.355918,-0.165769,-60.0926,0.219206,
2,1,0,1,0,20892.9,0.221532,0.221207,9.16922,11,0.0150431,10,0.0020283,-2.03767,-0.372676,-0.158314,-56.6484,0.221207,
2,1,0,1,0,20892.9,0.223534,0.223233,9.05501,11,0.0151342,10,0.00202138,-2.04311,-0.40986,-0.143951,-50.9384,0.223233,
2,1,0,1,0,20893,0.225536,0.225204,8.96562,11,0.0152243,10,0.0020191,-2.04742,-0.434547,-0.135774,-47.483,0.225204,
2,1,0,1,0,20893,0.227534,0.227176,8.86777,11,0.0153135,10,0.00201455,-2.05219,-0.431111,-0.136856,-47.3755,0.227176,
2,1,0,1,0,20893,0.229531,0.229223,8.77523,11,0.0154017,10,0.00201149,-2.05674,-0.464515,-0.127014,-43.5253,0.229223,
2,1,0,1,0,20893,0.231529,0.231167,8.69406,11,0.015489,10,0.00200978,-2.06078,-0.545283,-0.108201,-36.7465,0.231167,
2,1,0,1,0,20893,0.233517,0.233194,8.6293,11,0.0155748,10,0.0020123,-2.06402,-0.581778,-0.101413,-34.1371,0.2331945,
2,1,0,1,0,20893,0.235515,0.235191,8.55669,11,0.0156608,10,0.00201246,-2.06769,-0.543707,-0.108514,-36.242,0.235191,
2,1,0,1,0,20893,0.237513,0.23713,8.48668,11,0.0157459,10,0.00201244,-2.07126,-0.594213,-0.0992909,-32.9015,0.23713,
2,1,0,1,0,20893,0.23951,0.239193,8.42502,11,0.0158305,10,0.00201521,-2.07443,-0.722501,-0.0816607,-26.8721,0.239193,
2,1,0,1,0,20893,0.241499,0.241199,8.37734,11,0.0159137,10,0.0020206,-2.07689,-0.686807,-0.0859048,-28.058,0.241199,
2,1,0,1,0,20893,0.243496,0.243176,8.31328,11,0.0159971,10,0.00202159,-2.08023,-0.706062,-0.083562,-27.1435,0.243176,
2,1,0,1,0,20893.1,0.245494,0.245176,8.26938,11,0.01608,10,0.00202745,-2.08253,-0.749709,-0.0786972,-25.3763,0.245176,
2,1,0,1,0,20893.1,0.247491,0.247178,8.21172,11,0.0161624,10,0.00202976,-2.08557,-0.741171,-0.0796037,-25.5318,0.247178,
2,1,0,1,0,20893.1,0.249498,0.249165,8.16753,11,0.0162443,10,0.00203506,-2.08791,-0.846696,-0.0696826,-22.21,0.249165,
2,1,0,1,0,20893.1,0.251496,0.251203,8.12233,11,0.0163258,10,0.00204035,-2.09032,-0.841955,-0.070075,-22.2146,0.251203,
2,1,0,1,0,20893.1,0.253493,0.253176,8.07843,11,0.0164067,10,0.00204526,-2.09267,-0.831908,-0.0709213,-22.3587,0.253176,
2,1,0,1,0,20893.1,0.255491,0.255156,8.03395,11,0.0164873,10,0.00204991,-2.09507,-1.01733,-0.0579949,-18.2019,0.2551558,
2,1,0,1,0,20893.1,0.257497,0.257172,8.00569,11,0.0165675,10,0.00205884,-2.0966,-1.20066,-0.0491396,-15.348,0.257172,
2,1,0,1,0,20893.1,0.259495,0.259175,7.97227,11,0.0166474,10,0.00206621,-2.09842,-0.930376,-0.0634152,-19.7154,0.259175,
2,1,0,1,0,20893.1,0.261493,0.261176,7.92675,11,0.0167269,10,0.00207028,-2.1009,-0.888064,-0.0664367,-20.5642,0.261176,
2,1,0,1,0,20893.1,0.26349,0.26316,7.89032,11,0.016806,10,0.00207641,-2.10291,-1.42728,-0.0413375,-12.747,0.26316,
2,1,0,1,0,20893.2,0.265479,0.265164,7.87592,11,0.016884,10,0.00208841,-2.1037,-1.26137,-0.0467746,-14.3507,0.265164,
2,1,0,1,0,20893.2,0.267476,0.267187,7.83252,11,0.0169625,10,0.00209275,-2.1061,-0.958087,-0.0615811,-18.8385,0.267187,
2,1,0,1,0,20893.2,0.269474,0.269126,7.80129,11,0.0170407,10,0.00209953,-2.10783,-1.11539,-0.0528961,-16.1028,0.269126,
2,1,0,1,0,20893.2,0.271471,0.271174,7.76832,11,0.0171186,10,0.00210657,-2.10967,-1.59752,-0.0369323,-11.212,0.271174,
2,1,0,1,0,20893.2,0.27346,0.273136,7.75632,11,0.0171954,10,0.00211853,-2.11034,-1.34163,-0.0439762,-13.2873,0.273136,
2,1,0,1,0,20893.2,0.275458,0.275125,7.71582,11,0.0172727,10,0.00212282,-2.11262,-1.02606,-0.0575016,-17.3279,0.275125,
2,1,0,1,0,20893.2,0.277455,0.277146,7.68684,11,0.0173497,10,0.00213038,-2.11425,-1.16192,-0.0507781,-15.2307,0.277146,
2,1,0,1,0,20893.2,0.279453,0.279087,7.65548,11,0.0174265,10,0.00213655,-2.11603,-1.39731,-0.0422239,-12.6254,0.279087,
2,1,0,1,0,20893.2,0.281455,0.281133,7.6365,11,0.0175029,10,0.00214687,-2.11711,-1.50056,-0.0393186,-11.7109,0.281133,
2,1,0,1,0,20893.2,0.283457,0.28312,7.60826,11,0.0175791,10,0.00215405,-2.11871,-1.48434,-0.0397483,-11.8096,0.28312,
2,1,0,1,0,20893.3,0.285455,0.285113,7.58949,11,0.0176551,10,0.00216387,-2.11979,-1.19874,-0.0492184,-14.5584,0.285113,
2,1,0,1,0,20893.3,0.287452,0.287107,7.5502,11,0.0177308,10,0.00216772,-2.12204,-1.21872,-0.0484115,-14.2846,0.287107,
2,1,0,1,0,20893.3,0.28945,0.289158,7.53172,11,0.0178062,10,0.00217786,-2.12311,-1.80931,-0.0326092,-9.58394,0.289158,
2,1,0,1,0,20893.3,0.291456,0.291155,7.51141,11,0.0178815,10,0.00218699,-2.12428,-1.35471,-0.0435519,-12.7586,0.291155,
2,1,0,1,0,20893.3,0.293454,0.293118,7.4812,11,0.0179564,10,0.00219287,-2.12603,-1.08853,-0.0542018,-15.8229,0.293118,
2,1,0,1,0,20893.3,0.295452,0.295104,7.44893,11,0.0180311,10,0.00219821,-2.12791,-1.66626,-0.0354086,-10.309,0.295104,
2,1,0,1,0,20893.3,0.297449,0.29721,7.43901,11,0.0181055,10,0.00221095,-2.12848,-1.9866,-0.029699,-8.61375,0.2972095,
2,1,0,1,0,20893.3,0.299438,0.29911,7.41442,11,0.0181791,10,0.00221773,-2.12992,-0.0586363,-1.0062,-279.609,0.29911,
2,1,0,1,0,20893.3,0.299746,0.299456,6.81095,11,0.0182102,10,0.00203958,-2.16679,0.00617474,9.55506,2058.03,0.299456,
2,1,0,1,0,20893.3,0.29774,0.29744,3.97782,11,0.0182624,10,0.00118316,-2.40036,0.00826302,7.14025,1143.78,0.29744,
2,1,0,1,0,20893.3,0.295742,0.295453,2.23227,11,0.0182927,10,0.00065953,-2.65125,0.00687386,8.58324,731.073,0.295453,
2,1,0,1,0,20893.4,0.293745,0.293409,1.03095,11,0.0183085,10,0.000302491,-2.98676,0.00325517,18.125,524.31,0.293409,
2,1,0,1,0,20893.4,0.291747,0.291445,0.13111,11,0.018314,10,3.82113e-05,-3.88237,0.0145121,4.06556,399.364,0.291445,
2,0,0,1,0,20893.4,0.289745,0.28945,-0.550095,11,0.0183117,10,-0.000159225,-3.25956,-0.00438053,-13.4687,302.254,0.2894505,
2,0,0,1,0,20893.4,0.287743,0.287428,-1.08305,11,0.0183034,10,-0.000311298,-2.96535,-0.00925894,-6.37222,235.486,0.287428,
2,0,0,1,0,20893.4,0.285745,0.285417,-1.49992,11,0.0182903,10,-0.000428103,-2.82393,-0.0172407,-3.42213,191.426,0.285417,
2,0,0,1,0,20893.4,0.283748,0.283411,-1.85201,11,0.0182735,10,-0.00052488,-2.73236,-0.0261218,-2.25865,158.565,0.283411,
2,0,0,1,0,20893.4,0.28175,0.281411,-2.13509,11,0.0182535,10,-0.000600837,-2.67058,-0.0364535,-1.6185,133.035,0.281411,
2,0,0,1,0,20893.4,0.279761,0.279423,-2.38255,11,0.018231,10,-0.00066574,-2.62296,-0.0474768,-1.24271,114.12,0.279423,
2,0,0,1,0,20893.4,0.277764,0.277466,-2.58534,11,0.0182061,10,-0.000717343,-2.58748,-0.0593048,-0.99486,99.9971,0.277466,
2,0,0,1,0,20893.4,0.275766,0.275463,-2.7786,11,0.0181792,10,-0.0007654,-2.55617,-0.0745214,-0.791719,85.0656,0.275463,
2,0,0,1,0,20893.5,0.273769,0.273438,-2.92793,11,0.0181506,10,-0.00080061,-2.53344,-0.0874553,-0.674631,77.1796,0.273438,
2,0,0,1,0,20893.5,0.27178,0.271432,-3.08967,11,0.0181208,10,-0.000838635,-2.51009,-0.0961779,-0.613447,73.5707,0.271432,
2,0,0,1,0,20893.5,0.269783,0.269431,-3.2228,11,0.0180892,10,-0.000868321,-2.49177,-0.115198,-0.512162,64.2894,0.269431,
2,0,0,1,0,20893.5,0.267785,0.267437,-3.34652,11,0.0180563,10,-0.000894984,-2.47541,-0.132714,-0.444566,57.8794,0.267437,
2,0,0,1,0,20893.5,0.265787,0.265474,-3.45179,11,0.0180223,10,-0.000916361,-2.46196,-0.142687,-0.413494,55.7787,0.265474,
2,0,0,1,0,20893.5,0.263781,0.263451,-3.56885,11,0.0179872,10,-0.000940216,-2.44747,-0.15747,-0.374673,51.991,0.263451,
2,0,0,1,0,20893.5,0.261783,0.261442,-3.66145,11,0.017951,10,-0.000957255,-2.43635,-0.184521,-0.319746,45.6738,0.261442,
2,0,0,1,0,20893.5,0.259786,0.259419,-3.75299,11,0.0179139,10,-0.000973598,-2.42562,-0.188126,-0.313619,45.9247,0.259419,
2,0,0,1,0,20893.5,0.257788,0.257459,-3.84434,11,0.0178759,10,-0.00098976,-2.41518,-0.190257,-0.310107,46.5217,0.257459,
2,0,0,1,0,20893.5,0.255781,0.255477,-3.9364,11,0.017837,10,-0.00100566,-2.4049,-0.224253,-0.263096,40.3045,0.2554768,
2,0,0,1,0,20893.6,0.253784,0.253412,-4.00746,11,0.0177972,10,-0.00101554,-2.39713,-0.245051,-0.240766,37.6896,0.253412,
2,0,0,1,0,20893.6,0.251786,0.251488,-4.08672,11,0.0177567,10,-0.00102776,-2.38862,-0.252002,-0.234125,37.2889,0.251488,
2,0,0,1,0,20893.6,0.249789,0.249443,-4.15544,11,0.0177155,10,-0.00103655,-2.38138,-0.260508,-0.226481,36.7694,0.249443,
2,0,0,1,0,20893.6,0.2478,0.24748,-4.23412,11,0.017674,10,-0.00104786,-2.37324,-0.266112,-0.221711,36.5751,0.24748,
2,0,0,1,0,20893.6,0.245802,0.245507,-4.2994,11,0.0176313,10,-0.00105554,-2.36659,-0.287339,-0.205332,34.4836,0.2455074,
2,0,0,1,0,20893.6,0.243805,0.243452,-4.37303,11,0.0175879,10,-0.00106462,-2.35922,-0.331201,-0.178139,30.3114,0.243452,
2,0,0,1,0,20893.6,0.241807,0.241493,-4.42107,11,0.0175439,10,-0.00106766,-2.35447,-0.309545,-0.190602,33.0144,0.241493,
2,0,0,1,0,20893.6,0.239819,0.239481,-4.50412,11,0.0174997,10,-0.00107865,-2.34639,-0.322148,-0.183146,32.0568,0.239481,
2,0,0,1,0,20893.6,0.237821,0.237488,-4.54948,11,0.0174544,10,-0.00108045,-2.34204,-0.372301,-0.158474,28.2034,0.2374879,
2,0,0,1,0,20893.6,0.235824,0.235491,-4.61665,11,0.0174086,10,-0.00108718,-2.33567,-0.356278,-0.165601,29.7877,0.235491,
2,0,0,1,0,20893.7,0.233826,0.233472,-4.66911,11,0.0173622,10,-0.00109011,-2.33077,-0.351868,-0.167677,30.6119,0.233472,
2,0,0,1,0,20893.7,0.231824,0.231469,-4.73975,11,0.0173152,10,-0.00109711,-2.32424,-0.357777,-0.164907,30.4358,0.231469,
2,0,0,1,0,20893.7,0.229822,0.22951,-4.78968,11,0.0172675,10,-0.00109928,-2.31969,-0.426554,-0.138318,25.8623,0.22951,
2,0,0,1,0,20893.7,0.227824,0.227493,-4.84259,11,0.0172193,10,-0.00110166,-2.31492,-0.454042,-0.129944,24.5376,0.227493,
2,0,0,1,0,20893.7,0.225827,0.225517,-4.88767,11,0.0171706,10,-0.00110225,-2.3109,-0.440977,-0.133794,25.5512,0.225517,
2,0,0,1,0,20893.7,0.223829,0.223501,-4.94458,11,0.0171215,10,-0.00110512,-2.30587,-0.407835,-0.144666,27.9094,0.223501,
2,0,0,1,0,20893.7,0.221822,0.221514,-4.9994,11,0.0170717,10,-0.00110743,-2.30108,-0.413014,-0.142852,27.8759,0.221514,
2,0,0,1,0,20893.7,0.219825,0.219504,-5.05601,11,0.0170214,10,-0.00110981,-2.29619,-0.43281,-0.136318,26.8812,0.219504,
2,0,0,1,0,20893.7,0.217827,0.217528,-5.10654,11,0.0169705,10,-0.00111081,-2.29187,-0.467424,-0.126224,25.1551,0.217528,
2,0,0,1,0,20893.7,0.21583,0.215478,-5.15729,11,0.0169192,10,-0.00111128,-2.28758,-0.444658,-0.132686,26.721,0.215478,
2,0,0,1,0,20893.8,0.213841,0.213501,-5.21414,11,0.0168678,10,-0.00111322,-2.28282,-0.426754,-0.138253,28.1261,0.213501,
2,0,0,1,0,20893.8,0.211844,0.211516,-5.26872,11,0.0168154,10,-0.00111442,-2.2783,-0.51706,-0.114107,23.4241,0.211516,
2,0,0,1,0,20893.8,0.209846,0.209571,-5.3062,11,0.0167624,10,-0.00111202,-2.27522,-0.499227,-0.118183,24.5265,0.209571,
2,0,0,1,0,20893.8,0.207848,0.207515,-5.36685,11,0.0167091,10,-0.0011137,-2.27028,-0.403344,-0.146277,30.6455,0.2075149,
2,0,0,1,0,20893.8,0.20586,0.205511,-5.43063,11,0.0166556,10,-0.00111605,-2.26515,-0.42166,-0.139923,29.6287,0.205511,
2,0,0,1,0,20893.8,0.203862,0.203526,-5.48505,11,0.016601,10,-0.00111635,-2.26082,-0.523812,-0.112636,24.0801,0.203526,
2,0,0,1,0,20893.8,0.201865,0.201569,-5.52554,11,0.016546,10,-0.00111378,-2.25763,-0.515532,-0.114445,24.718,0.201569,
2,0,0,1,0,20893.8,0.199867,0.199539,-5.58359,11,0.0164904,10,-0.00111414,-2.25309,-0.444425,-0.132756,28.9269,0.199539,
2,0,0,1,0,20893.8,0.19786,0.197567,-5.64131,11,0.0164343,10,-0.00111454,-2.24862,-0.518631,-0.113761,25.0096,0.197567,
2,0,0,1,0,20893.8,0.195863,0.195565,-5.68297,11,0.0163777,10,-0.00111139,-2.24542,-0.538387,-0.109587,24.3373,0.195565,
2,0,0,1,0,20893.9,0.193865,0.193512,-5.73999,11,0.0163205,10,-0.00111076,-2.24109,-0.445316,-0.13249,29.6932,0.193512,
2,0,0,1,0,20893.9,0.191868,0.191534,-5.80266,11,0.0162627,10,-0.00111141,-2.23637,-0.45254,-0.130375,29.5041,0.191534,
2,0,0,1,0,20893.9,0.189861,0.189526,-5.85761,11,0.0162044,10,-0.00111017,-2.23228,-0.448313,-0.131605,30.1077,0.189526,
2,0,0,1,0,20893.9,0.187863,0.187582,-5.92167,11,0.0161455,10,-0.0011108,-2.22756,-0.450834,-0.130869,30.2207,0.187582,
2,0,0,1,0,20893.9,0.185866,0.185578,-5.97691,11,0.016086,10,-0.00110918,-2.22352,-0.475363,-0.124116,28.9668,0.185578,
2,0,0,1,0,20893.9,0.183868,0.183532,-6.03896,11,0.0160259,10,-0.00110835,-2.21904,-0.415179,-0.142107,33.5196,0.183532,
2,0,0,1,0,20893.9,0.18188,0.181565,-6.11143,11,0.0159658,10,-0.00110962,-2.21386,-0.392667,-0.150255,35.8299,0.181565,
2,0,0,1,0,20893.9,0.179882,0.179542,-6.18195,11,0.0159044,10,-0.00110992,-2.20887,-0.450059,-0.131094,31.5916,0.179542,
2,0,0,1,0,20893.9,0.177885,0.177537,-6.23867,11,0.0158422,10,-0.0011076,-2.20491,-0.417133,-0.141442,34.5002,0.177537,
2,0,0,1,0,20893.9,0.175887,0.175582,-6.31857,11,0.0157795,10,-0.00110943,-2.19938,-0.384913,-0.153281,37.7632,0.175582,
2,0,0,1,0,20894,0.173908,0.173601,-6.38732,11,0.0157166,10,-0.00110884,-2.19468,-0.366712,-0.160889,40.1818,0.173601,
2,0,0,1,0,20894,0.171901,0.171542,-6.48089,11,0.0156522,10,-0.00111175,-2.18837,-0.351938,-0.167643,42.3437,0.171542,
2,0,0,1,0,20894,0.169903,0.169584,-6.55742,11,0.015587,10,-0.00111203,-2.18327,-0.334073,-0.176608,45.2821,0.1695839,
2,0,0,1,0,20894,0.167906,0.167597,-6.65953,11,0.015521,10,-0.00111612,-2.17656,-0.327332,-0.180245,46.7791,0.167597,
2,0,0,1,0,20894,0.165908,0.165605,-6.74354,11,0.0154539,10,-0.00111676,-2.17111,-0.322405,-0.183,48.2516,0.165605,
2,0,0,1,0,20894,0.163901,0.163574,-6.85365,11,0.0153859,10,-0.00112108,-2.16408,-0.290749,-0.202924,54.274,0.163574,
2,0,0,1,0,20894,0.161904,0.161542,-6.96406,11,0.0153168,10,-0.00112499,-2.15714,-0.272446,-0.216556,58.915,0.161542,
2,0,0,1,0,20894,0.159906,0.15957,-7.08954,11,0.0152465,10,-0.00113128,-2.14938,-0.25833,-0.22839,63.1823,0.15957,
2,0,0,1,0,20894,0.157909,0.15758,-7.21441,11,0.0151749,10,-0.00113684,-2.1418,-0.231213,-0.255176,72.009,0.15758,
2,0,0,1,0,20894,0.155902,0.155622,-7.37381,11,0.015102,10,-0.00114753,-2.13231,-0.2191,-0.269283,77.4432,0.155622,
2,0,0,1,0,20894.1,0.153904,0.153558,-7.52583,11,0.0150274,10,-0.00115565,-2.12345,-0.215618,-0.273632,80.4685,0.153558,
2,0,0,1,0,20894.1,0.151907,0.151582,-7.69893,11,0.0149513,10,-0.00116702,-2.11357,-0.193723,-0.304558,91.6064,0.151582,
2,0,0,1,0,20894.1,0.149909,0.149569,-7.89128,11,0.0148733,10,-0.00118029,-2.10285,-0.171166,-0.344695,106.362,0.149569,
2,0,0,1,0,20894.1,0.147921,0.147644,-8.11784,11,0.0147941,10,-0.00119855,-2.09056,-0.166084,-0.355242,112.462,0.147644,
2,0,0,1,0,20894.1,0.145923,0.145612,-8.33635,11,0.0147118,10,-0.00121387,-2.07902,-0.159863,-0.369065,120.42,0.145612,
2,0,0,1,0,20894.1,0.143926,0.143573,-8.60799,11,0.0146271,10,-0.00123588,-2.0651,-0.144087,-0.409475,137.586,0.143573,
2,0,0,1,0,20894.1,0.141928,0.141597,-8.88872,11,0.0145395,10,-0.00125861,-2.05116,-0.130551,-0.451931,157.239,0.141597,
2,0,0,1,0,20894.1,0.139939,0.139621,-9.2294,11,0.0144498,10,-0.00128862,-2.03483,-0.125846,-0.468827,168.661,0.139621,
2,0,0,1,0,20894.1,0.137942,0.137644,-9.55543,11,0.0143559,10,-0.00131525,-2.01975,-0.125825,-0.468905,175.313,0.137644,
2,0,0,1,0,20894.1,0.135944,0.135571,-9.93942,11,0.0142584,10,-0.0013475,-2.00264,-0.120195,-0.490868,190.398,0.135571,
2,0,0,1,0,20894.2,0.133947,0.133564,-10.3323,11,0.014157,10,-0.00138002,-1.9858,-0.112934,-0.522429,210.98,0.1335635,
2,0,0,1,0,20894.2,0.13194,0.131647,-10.7673,11,0.0140515,10,-0.00141749,-1.96789,-0.111428,-0.529489,222.349,0.131647,
2,0,0,1,0,20894.2,0.129942,0.129664,-11.1995,11,0.0139416,10,-0.00145216,-1.9508,-0.116902,-0.504694,220.74,0.129664,
2,0,0,1,0,20894.2,0.127945,0.12761,-11.6585,11,0.0138273,10,-0.00148774,-1.93336,-0.119248,-0.494768,224.897,0.12761,
2,0,0,1,0,20894.2,0.125947,0.12563,-12.1066,11,0.0137084,10,-0.00152095,-1.91698,-0.118333,-0.498593,235.863,0.12563,
2,0,0,1,0,20894.2,0.123941,0.123634,-12.5963,11,0.0135848,10,-0.00155733,-1.89976,-0.12216,-0.482972,236.998,0.1236338,
2,0,0,1,0,20894.2,0.121943,0.121639,-13.0524,11,0.0134565,10,-0.00158769,-1.88431,-0.13593,-0.434045,220.742,0.121639,
2,0,0,1,0,20894.2,0.119945,0.119648,-13.4761,11,0.0133237,10,-0.00161239,-1.87043,-0.139199,-0.423854,223.102,0.119648,
2,0,0,1,0,20894.2,0.117948,0.117699,-13.9316,11,0.0131866,10,-0.00163973,-1.856,-0.140755,-0.419169,227.83,0.117699,
2,0,0,1,0,20894.2,0.115946,0.115647,-14.3878,11,0.013045,10,-0.0016639,-1.84201,-0.154007,-0.383099,214.746,0.115647,
2,0,0,1,0,20894.3,0.113962,0.113638,-14.8036,11,0.0129003,10,-0.00168225,-1.82963,-0.166128,-0.355149,205.066,0.113638,
2,0,0,1,0,20894.3,0.111964,0.111636,-15.2102,11,0.0127502,10,-0.00169801,-1.81787,-0.177072,-0.333197,197.576,0.1116361,
2,0,0,1,0,20894.3,0.109967,0.109653,-15.591,11,0.0125961,10,-0.00170959,-1.80713,-0.189685,-0.311042,189.167,0.109653,
2,0,0,1,0,20894.3,0.107969,0.107658,-15.9627,11,0.0124383,10,-0.00171852,-1.79689,-0.207262,-0.284664,177.071,0.107658,
2,0,0,1,0,20894.3,0.10598,0.105697,-16.2914,11,0.0122786,10,-0.00172195,-1.78804,-0.227378,-0.259479,164.947,0.105697,
2,0,0,1,0,20894.3,0.103983,0.103683,-16.6184,11,0.012114,10,-0.00172304,-1.77941,-0.246872,-0.23899,154.814,0.1036832,
2,0,0,1,0,20894.3,0.101985,0.101706,-16.9093,11,0.0119463,10,-0.00171978,-1.77187,-0.278592,-0.211779,139.645,0.101706,
2,0,0,1,0,20894.3,0.0999877,0.099687,-17.1764,11,0.0117758,10,-0.00171226,-1.76507,-0.299554,-0.19696,132.004,0.099687,
2,0,0,1,0,20894.3,0.0979811,0.0976889,-17.4396,11,0.0116027,10,-0.00170365,-1.75846,-0.327757,-0.180011,122.379,0.0976889,
2,0,0,1,0,20894.3,0.0959835,0.0956908,-17.6655,11,0.0114271,10,-0.00169042,-1.75288,-0.389668,-0.151411,104.284,0.0956908,
2,0,0,1,0,20894.4,0.0939859,0.0936745,-17.8582,11,0.0112494,10,-0.00167286,-1.74816,-0.442548,-0.133319,92.8803,0.0936745,
2,0,0,1,0,20894.4,0.0919883,0.0916764,-18.0383,11,0.0110699,10,-0.00165369,-1.7438,-0.484938,-0.121665,85.6046,0.0916764,
2,0,0,1,0,20894.4,0.0899816,0.0896757,-18.2005,11,0.0108886,10,-0.00163214,-1.73992,-0.62813,-0.0939296,66.6158,0.0896757,
2,0,0,1,0,20894.4,0.087984,0.087642,-18.3071,11,0.010706,10,-0.00160447,-1.73738,-0.88573,-0.0666117,47.5642,0.087642,
2,0,0,1,0,20894.4,0.0859865,0.0856361,-18.3927,11,0.0105224,10,-0.00157508,-1.73536,-1.17863,-0.0500579,35.9027,0.0856361,
2,0,0,1,0,20894.4,0.0839889,0.083704,-18.4485,11,0.0103382,10,-0.00154421,-1.73404,-2.26654,-0.0260309,18.7229,0.083704,
2,0,0,1,0,20894.4,0.0820004,0.0816674,-18.467,11,0.0101554,10,-0.00150815,-1.7336,-12.146,-0.00485758,3.49872,0.0816674,
2,0,0,1,0,20894.4,0.0800028,0.0796792,-18.4625,11,0.00997075,10,-0.00147108,-1.73371,3.97606,0.0148388,-10.682,0.0796792,
2,0,0,1,0,20894.4,0.0780052,0.0776583,-18.4241,11,0.00978629,10,-0.00143079,-1.73461,1.73921,0.0339234,-24.3784,0.0776583,
2,0,0,1,0,20894.4,0.0760076,0.0756804,-18.3651,11,0.00960236,10,-0.00138987,-1.73601,1.16953,0.0504474,-36.1324,0.0756804,
2,0,0,1,0,20894.5,0.0740191,0.0736962,-18.281,11,0.00942099,10,-0.00134724,-1.738,0.924388,0.063826,-45.5196,0.0736962,
2,0,0,1,0,20894.5,0.0720215,0.071692,-18.1835,11,0.0092387,10,-0.00130361,-1.74032,0.764284,0.0771965,-54.7419,0.071692,
2,0,0,1,0,20894.5,0.0700239,0.0696557,-18.0598,11,0.00905748,10,-0.00125797,-1.74329,0.68541,0.0860799,-60.6743,0.0696557,
2,0,0,1,0,20894.5,0.0680263,0.0676602,-17.9389,11,0.00887753,10,-0.00121375,-1.7462,0.689936,0.0855151,-59.8766,0.0676602,
2,0,0,1,0,20894.5,0.0660197,0.0657021,-17.8231,11,0.00869877,10,-0.00117101,-1.74902,0.657369,0.0897517,-62.4051,0.0657021,
2,0,0,1,0,20894.5,0.0640221,0.0637361,-17.694,11,0.00852121,10,-0.00112774,-1.75217,0.614792,0.0959675,-66.2547,0.0637361,
2,0,0,1,0,20894.5,0.0620245,0.0616972,-17.5577,11,0.00834493,10,-0.00108326,-1.75553,0.649931,0.0907788,-62.2406,0.0616972,
2,0,0,1,0,20894.5,0.0600269,0.0597017,-17.4429,11,0.00816997,10,-0.00104137,-1.75838,0.689105,0.0856183,-58.2809,0.0597017,
2,0,0,1,0,20894.5,0.0580248,0.057734,-17.3267,11,0.00799611,10,-0.00100034,-1.76128,0.706686,0.0834883,-56.464,0.057734,
2,0,0,1,0,20894.5,0.0560227,0.055689,-17.2163,11,0.00782341,10,-0.00095876,-1.76406,0.712347,0.0828248,-55.6419,0.055689,
2,0,0,1,0,20894.6,0.0540251,0.0536848,-17.1014,11,0.00765181,10,-0.000918088,-1.76697,0.755035,0.0781421,-52.1847,0.0536848,
2,0,0,1,0,20894.6,0.0520275,0.0516902,-17.0076,11,0.00748127,10,-0.000879129,-1.76936,0.748407,0.0788341,-52.2945,0.0516902,
2,0,0,1,0,20894.6,0.0500299,0.0497077,-16.8935,11,0.00731173,10,-0.000839736,-1.77228,0.80235,0.073534,-48.5305,0.0497077,
2,0,0,1,0,20894.6,0.0480414,0.0477055,-16.8143,11,0.00714486,10,-0.000802133,-1.77432,0.849067,0.0694881,-45.5672,0.04770552,
2,0,0,1,0,20894.6,0.0460438,0.04573,-16.7122,11,0.00697722,10,-0.000764249,-1.77697,0.805328,0.0732621,-47.8004,0.04573,
2,0,0,1,0,20894.6,0.0440462,0.0436932,-16.6225,11,0.00681059,10,-0.000726289,-1.7793,0.785131,0.0751467,-48.7265,0.0436932,
2,0,0,1,0,20894.6,0.0420486,0.0417344,-16.5175,11,0.00664493,10,-0.000689348,-1.78206,0.864309,0.0682626,-44.0477,0.0417344,
2,0,0,1,0,20894.6,0.0400601,0.0396808,-16.4457,11,0.00648177,10,-0.00065258,-1.78395,0.86569,0.0681538,-43.6997,0.0396808,
2,0,0,1,0,20894.6,0.0380625,0.0377148,-16.3419,11,0.00631781,10,-0.00061633,-1.7867,0.727442,0.0811062,-51.7351,0.0377148,
2,0,0,1,0,20894.6,0.036065,0.0357697,-16.2434,11,0.00615496,10,-0.00058102,-1.78932,0.754507,0.0781967,-49.5666,0.03576966,
2,0,0,1,0,20894.7,0.0340674,0.03369,-16.1424,11,0.00599302,10,-0.000543836,-1.79203,0.803335,0.0734439,-46.2873,0.03369,
2,0,0,1,0,20894.7,0.0320607,0.0316945,-16.0548,11,0.00583203,10,-0.000508848,-1.7944,0.719911,0.0819546,-51.3069,0.03169452,
2,0,0,1,0,20894.7,0.0300631,0.0297572,-15.9406,11,0.00567202,10,-0.000474346,-1.7975,0.684121,0.0862421,-53.6784,0.0297572,
2,0,0,1,0,20894.7,0.0280655,0.0277391,-15.8424,11,0.00551313,10,-0.000439455,-1.80018,0.705574,0.0836198,-51.6802,0.0277391,
2,0,0,1,0,20894.7,0.0260679,0.0257271,-15.7323,11,0.00535525,10,-0.000404747,-1.80321,0.668376,0.0882736,-54.2056,0.02572713,
2,0,0,1,0,20894.7,0.0240613,0.0237611,-15.6268,11,0.00519848,10,-0.000371311,-1.80613,0.6141,0.0960756,-58.5482,0.0237611,
2,0,0,1,0,20894.7,0.0220637,0.021724,-15.4979,11,0.00504284,10,-0.000336677,-1.80973,0.584397,0.100959,-61.0824,0.021724,
2,0,0,1,0,20894.7,0.0200661,0.0197094,-15.3793,11,0.00488847,10,-0.000303118,-1.81306,0.527498,0.111849,-67.0653,0.0197094,
2,0,0,1,0,20894.7,0.0180685,0.01774,-15.2307,11,0.00473537,10,-0.000270193,-1.81728,0.527079,0.111938,-66.6088,0.01774,
2,0,0,1,0,20894.7,0.01608,0.0157549,-15.1159,11,0.00458519,10,-0.00023815,-1.82057,0.531243,0.11106,-65.4472,0.0157549,
2,0,0,1,0,20894.8,0.0140824,0.0137476,-14.9694,11,0.00443476,10,-0.000205794,-1.82479,0.474197,0.124421,-72.6859,0.0137476,
2,0,0,1,0,20894.8,0.0120848,0.0117259,-14.8231,11,0.00428584,10,-0.000173814,-1.82906,0.440546,0.133925,-77.4246,0.0117259,
2,0,0,1,0,20894.8,0.0100872,0.00973051,-14.6584,11,0.0041385,10,-0.000142634,-1.83391,0.435431,0.135498,-77.5698,0.00973051,
2,0,0,1,0,20894.8,0.00810328,0.00776336,-14.5157,11,0.00399418,10,-0.000112691,-1.83816,0.428098,0.137819,-78.0086,0.00776336,
2,0,0,1,0,20894.8,0.00610116,0.0057696,-14.3494,11,0.00384984,10,-8.27906e-05,-1.84316,0.401721,0.146868,-82.2611,0.0057696,
2,0,0,1,0,20894.8,0.00410357,0.00379146,-14.189,11,0.00370719,10,-5.37969e-05,-1.84805,0.482464,0.122289,-67.8304,0.00379146,
2,0,0,1,0,20894.8,0.00210598,0.00174739,-14.0766,11,0.00356603,10,-2.45973e-05,-1.8515,0.484249,0.121838,-66.8229,0.00174739,
2,0,0,1,0,20894.8,0.00010174,-0.000255915,-13.9185,11,0.0034261,10,3.56196e-06,-1.85641,0.394598,0.149519,-81.1868,-0.000255915,
2,0,0,1,0,20894.8,-0.00189827,-0.00226442,-13.7509,11,0.00328772,10,3.11379e-05,-1.86167,0.410527,0.143718,-77.1941,-0.00226442,
2,0,0,1,0,20894.8,-0.00389586,-0.00427206,-13.6085,11,0.00315094,10,5.81363e-05,-1.86619,0.433065,0.136238,-72.3462,-0.00427206,
2,0,0,1,0,20894.9,-0.00589345,-0.00623719,-13.4635,11,0.00301555,10,8.39744e-05,-1.87084,0.441683,0.13358,-70.2105,-0.00623719,
2,0,0,1,0,20894.9,-0.00789103,-0.00826478,-13.3281,11,0.00288159,10,0.000110154,-1.87523,0.506261,0.116541,-60.677,-0.00826478,
2,0,0,1,0,20894.9,-0.0098977,-0.0102681,-13.2189,11,0.0027488,10,0.000135733,-1.8788,0.564147,0.104583,-53.9598,-0.0102681,
2,0,0,1,0,20894.9,-0.0118953,-0.0122454,-13.1134,11,0.00261718,10,0.000160578,-1.88229,0.553627,0.10657,-54.522,-0.0122454,
2,0,0,1,0,20894.9,-0.0138929,-0.0142842,-12.9999,11,0.00248657,10,0.000185694,-1.88606,0.605346,0.097465,-49.5024,-0.0142842,
2,0,0,1,0,20894.9,-0.0158905,-0.016245,-12.9154,11,0.00235702,10,0.00020981,-1.88889,0.746273,0.0790595,-39.8663,-0.016245,
2,0,0,1,0,20894.9,-0.017879,-0.0182483,-12.8419,11,0.00222952,10,0.000234343,-1.89137,0.816986,0.0722167,-36.1943,-0.0182483,
2,0,0,1,0,20894.9,-0.0198766,-0.0202811,-12.7693,11,0.00210148,10,0.000258975,-1.89383,0.889568,0.0663244,-33.0682,-0.0202811,
2,0,0,1,0,20894.9,-0.0218741,-0.0222646,-12.7091,11,0.00197414,10,0.000282963,-1.89589,1.06223,0.0555436,-27.5612,-0.0222646,
2,0,0,1,0,20894.9,-0.0238717,-0.0242489,-12.6599,11,0.00184734,10,0.000306989,-1.89757,1.33661,0.0441416,-21.8195,-0.0242489,
2,0,0,1,0,20895,-0.0258602,-0.0262294,-12.6226,11,0.00172219,10,0.000331083,-1.89885,1.56343,0.0377375,-18.5908,-0.0262294,
2,0,0,1,0,20895,-0.0278578,-0.0282206,-12.5861,11,0.0015962,10,0.000355187,-1.90011,1.71821,0.0343381,-16.8703,-0.0282206,
2,0,0,1,0,20895,-0.0298554,-0.030236,-12.555,11,0.0014705,10,0.000379613,-1.90118,2.60202,0.0226747,-11.1181,-0.030236,
2,0,0,1,0,20895,-0.031853,-0.0322081,-12.5418,11,0.00134503,10,0.000403946,-1.90164,5.03523,0.0117174,-5.73607,-0.0322081,
2,0,0,1,0,20895,-0.0338597,-0.0342504,-12.532,11,0.00121965,10,0.000429225,-1.90198,16.7436,0.00352372,-1.72427,-0.0342504,
2,0,0,1,0,20895,-0.0358573,-0.0361991,-12.5349,11,0.00109434,10,0.000453751,-1.90188,165.818,0.000355811,-0.174016,-0.0361991,
2,0,0,1,0,20895,-0.0378548,-0.0382397,-12.5313,11,0.000968945,10,0.000479192,-1.902,-36.6215,-0.00161107,0.788233,-0.0382397,
2,0,0,1,0,20895,-0.0398524,-0.0402334,-12.5381,11,0.000843564,10,0.000504449,-1.90177,-3.81226,-0.0154764,7.57787,-0.0402334,
2,0,0,1,0,20895,-0.0418591,-0.042196,-12.5613,11,0.000718049,10,0.000530034,-1.90097,-2.35169,-0.0250883,12.3002,-0.042196,
2,0,0,1,0,20895,-0.0438567,-0.0442244,-12.5871,11,0.000592271,10,0.000556659,-1.90007,-2.96854,-0.0198751,9.75854,-0.0442244,
2,0,0,1,0,20895.1,-0.0458543,-0.0462251,-12.6006,11,0.000466268,10,0.000582463,-1.89961,-2.26757,-0.026019,12.8073,-0.0462251,
2,0,0,1,0,20895.1,-0.0478519,-0.0482042,-12.6381,11,0.000340075,10,0.000609209,-1.89832,-1.31243,-0.0449548,22.1847,-0.04820415,
2,0,0,1,0,20895.1,-0.0498585,-0.0502213,-12.6892,11,0.000213449,10,0.00063727,-1.89656,-1.30376,-0.0452538,22.3996,-0.0502213,
2,0,0,1,0,20895.1,-0.051838,-0.052215,-12.728,11,8.76698e-05,10,0.00066459,-1.89524,-1.57848,-0.0373778,18.5644,-0.05221501,
2,0,0,1,0,20895.1,-0.0538355,-0.0542224,-12.7635,11,-3.97484e-05,10,0.000692067,-1.89403,-1.30645,-0.0451605,22.5116,-0.0542224,
2,0,0,1,0,20895.1,-0.0558331,-0.0562011,-12.8177,11,-0.000167629,10,0.000720368,-1.89219,-1.15547,-0.0510613,25.5361,-0.0562011,
2,0,0,1,0,20895.1,-0.0578126,-0.0582163,-12.8655,11,-0.000294765,10,0.000748982,-1.89057,-1.06421,-0.0554401,27.8537,-0.0582163,
2,0,0,1,0,20895.1,-0.0598192,-0.0602118,-12.9294,11,-0.000423758,10,0.000778503,-1.88842,-0.938411,-0.0628722,31.723,-0.0602118,
2,0,0,1,0,20895.1,-0.0618168,-0.0622021,-12.9919,11,-0.000553349,10,0.000808125,-1.88633,-0.913085,-0.0646161,32.7701,-0.0622021,
2,0,0,1,0,20895.1,-0.0638144,-0.0642175,-13.0607,11,-0.00068358,10,0.000838724,-1.88403,-0.974292,-0.0605568,30.8502,-0.0642175,
2,0,0,1,0,20895.2,-0.065812,-0.0662078,-13.1155,11,-0.000814453,10,0.00086835,-1.88221,-0.846171,-0.0697258,35.7333,-0.0662078,
2,0,0,1,0,20895.2,-0.0678187,-0.0681921,-13.2027,11,-0.000946063,10,0.000900319,-1.87934,-0.779485,-0.075691,38.9699,-0.06819205,
2,0,0,1,0,20895.2,-0.0698163,-0.0701572,-13.2694,11,-0.00107844,10,0.000930945,-1.87715,-0.825276,-0.0714912,37.0418,-0.0701572,
2,0,0,1,0,20895.2,-0.0718138,-0.0721718,-13.3501,11,-0.00121158,10,0.000963501,-1.87452,-0.756281,-0.0780134,40.6465,-0.0721718,
2,0,0,1,0,20895.2,-0.0738114,-0.0741438,-13.4315,11,-0.00134553,10,0.00099586,-1.87188,-0.658882,-0.0895456,46.9814,-0.0741438,
2,0,0,1,0,20895.2,-0.0758181,-0.0761636,-13.5376,11,-0.00148043,10,0.00103108,-1.86846,-0.694391,-0.0849665,44.8374,-0.0761636,
2,0,0,1,0,20895.2,-0.0778157,-0.0781747,-13.6122,11,-0.00161623,10,0.00106413,-1.86607,-0.688005,-0.0857552,45.6125,-0.0781747,
2,0,0,1,0,20895.2,-0.0798133,-0.080172,-13.7205,11,-0.00175291,10,0.0011,-1.86263,-0.617638,-0.0955252,51.1303,-0.08017195,
2,0,0,1,0,20895.2,-0.0818109,-0.0822073,-13.8184,11,-0.00189062,10,0.00113597,-1.85954,-0.582475,-0.101292,54.6715,-0.0822073,
2,0,0,1,0,20895.2,-0.0837994,-0.0841895,-13.9401,11,-0.00202802,10,0.00117361,-1.85573,-0.594625,-0.0992223,53.9235,-0.0841895,
2,0,0,1,0,20895.3,-0.085797,-0.0861841,-14.0328,11,-0.00216787,10,0.00120941,-1.85285,-0.586568,-0.100585,55.1514,-0.0861841,
2,0,0,1,0,20895.3,-0.0877945,-0.0881636,-14.1593,11,-0.00230881,10,0.00124834,-1.84896,-0.551434,-0.106994,59.087,-0.0881636,
2,0,0,1,0,20895.3,-0.0897921,-0.0901765,-14.2687,11,-0.00245095,10,0.0012867,-1.84561,-0.560997,-0.10517,58.5997,-0.09017653,
2,0,0,1,0,20895.3,-0.0917806,-0.0921952,-14.3956,11,-0.00259283,10,0.0013272,-1.84177,-0.529796,-0.111364,62.5499,-0.0921952,
2,0,0,1,0,20895.3,-0.0937782,-0.0941274,-14.5159,11,-0.00273742,10,0.00136634,-1.83816,-0.524263,-0.112539,63.7788,-0.0941274,
2,0,0,1,0,20895.3,-0.0957758,-0.096155,-14.6481,11,-0.00288325,10,0.00140849,-1.83422,-0.532818,-0.110732,63.2793,-0.096155,
2,0,0,1,0,20895.3,-0.0977734,-0.0981522,-14.7705,11,-0.00303037,10,0.00144976,-1.8306,-0.503412,-0.1172,67.6077,-0.0981522,
2,0,0,1,0,20895.3,-0.0997412,-0.100098,-14.9147,11,-0.00317581,10,0.00149293,-1.82639,0.103633,0.569317,-321.338,-0.100098,
2,0,0,1,1,20895.3,-0.0996711,-0.100056,-14.1589,11,-0.0032196,10,0.00141668,-1.84897,-0.0145221,-4.06277,2026.04,-0.100056,
2,0,0,1,1,20895.3,-0.0976826,-0.0980946,-10.8558,11,-0.00334167,10,0.00106489,-1.96434,-0.0178586,-3.30373,1429.08,-0.09809459,
2,0,0,1,1,20895.3,-0.095685,-0.0960888,-8.48985,11,-0.00343769,10,0.000815779,-2.0711,-0.018173,-3.24657,1078.96,-0.0960888,
2,0,0,1,1,20895.4,-0.0936874,-0.0940934,-6.53867,11,-0.0035123,10,0.000615246,-2.18451,-0.0168016,-3.51157,894.417,-0.0940934,
2,0,0,1,1,20895.4,-0.0916898,-0.0920662,-4.89192,11,-0.00356905,10,0.00045038,-2.31052,-0.0145008,-4.06875,768.094,-0.0920662,
2,0,0,1,1,20895.4,-0.0897013,-0.0900852,-3.46001,11,-0.00361005,10,0.000311696,-2.46092,-0.0114802,-5.13928,676.3,-0.0900852,
2,0,0,1,1,20895.4,-0.0877037,-0.0880932,-2.20499,11,-0.00363811,10,0.000194245,-2.65659,-0.00787767,-7.48952,594.93,-0.0880932,
2,0,0,1,1,20895.4,-0.0857062,-0.0860656,-1.06862,11,-0.00365423,10,9.19714e-05,-2.97118,-0.00279351,-21.1204,534.131,-0.0860656,
2,0,0,1,1,20895.4,-0.0837086,-0.0841213,-0.0834788,11,-0.00365974,10,7.02234e-06,-4.07842,-0.0386116,-1.52804,481.813,-0.0841213,
2,1,0,1,1,20895.4,-0.0817019,-0.0820972,0.843422,11,-0.00365575,10,-6.92426e-05,-3.07396,0.00307865,19.1642,434.414,-0.0820972,
2,1,0,1,1,20895.4,-0.0797043,-0.080132,1.64951,11,-0.00364312,10,-0.000132178,-2.78265,0.00887561,6.64743,385.586,-0.080132,
2,1,0,1,1,20895.4,-0.0777067,-0.0780758,2.394,11,-0.00362273,10,-0.000186913,-2.62088,0.0150145,3.92953,349.53,-0.0780758,
2,1,0,1,1,20895.4,-0.0757091,-0.0761202,3.05175,11,-0.00359541,10,-0.0002323,-2.51545,0.021151,2.78946,326.113,-0.0761202,
2,1,0,1,1,20895.5,-0.0737025,-0.0741004,3.69042,11,-0.00356158,10,-0.000273461,-2.43292,0.0280111,2.10631,297.32,-0.0741004,
2,1,0,1,1,20895.5,-0.0717049,-0.0720971,4.2479,11,-0.00352179,10,-0.000306261,-2.37183,0.0355547,1.65941,272.399,-0.0720971,
2,1,0,1,1,20895.5,-0.0697073,-0.070145,4.76787,11,-0.00347666,10,-0.000334442,-2.32168,0.0440911,1.33814,246.732,-0.070145,
2,1,0,1,1,20895.5,-0.0677097,-0.068094,5.2356,11,-0.00342657,10,-0.000356513,-2.28103,0.052585,1.12199,228.294,-0.068094,
2,1,0,1,1,20895.5,-0.0657212,-0.0661217,5.68636,11,-0.00337244,10,-0.000375992,-2.24517,0.0628779,0.938326,206.513,-0.0661217,
2,1,0,1,1,20895.5,-0.0637236,-0.0640857,6.06336,11,-0.00331361,10,-0.000388575,-2.21729,0.0739541,0.797792,188.602,-0.0640857,
2,1,0,1,1,20895.5,-0.061726,-0.0621022,6.44445,11,-0.00325102,10,-0.000400215,-2.19081,0.0816874,0.722266,180.82,-0.0621022,
2,1,0,1,1,20895.5,-0.0597284,-0.0601243,6.77966,11,-0.00318484,10,-0.000407623,-2.16879,0.095129,0.620211,163.778,-0.0601243,
2,1,0,1,1,20895.5,-0.0577399,-0.058107,7.09878,11,-0.00311615,10,-0.000412489,-2.14882,0.110899,0.532017,146.791,-0.058107,
2,1,0,1,1,20895.5,-0.0557423,-0.056115,7.3682,11,-0.00304379,10,-0.000413466,-2.13264,0.126218,0.467443,134.335,-0.056115,
2,1,0,1,1,20895.6,-0.0537447,-0.0541143,7.63514,11,-0.00296874,10,-0.00041317,-2.11718,0.145456,0.405621,120.44,-0.0541143,
2,1,0,1,1,20895.6,-0.0517472,-0.0520849,7.85358,11,-0.00289123,10,-0.000409053,-2.10493,0.160913,0.366657,112.452,-0.0520849,
2,1,0,1,1,20895.6,-0.049745,-0.0501016,8.08638,11,-0.00281148,10,-0.000405141,-2.09225,0.173169,0.340708,107.277,-0.0501016,
2,1,0,1,1,20895.6,-0.0477429,-0.0480532,8.28609,11,-0.00272956,10,-0.000398173,-2.08165,0.200185,0.294728,95.1779,-0.0480532,
2,1,0,1,1,20895.6,-0.0457453,-0.0461141,8.4659,11,-0.00264575,10,-0.000390397,-2.07233,0.228562,0.258136,85.1496,-0.0461141,
2,1,0,1,1,20895.6,-0.0437477,-0.0441255,8.62053,11,-0.00256031,10,-0.000380386,-2.06447,0.249205,0.236753,79.6746,-0.0441255,
2,1,0,1,1,20895.6,-0.0417501,-0.0421448,8.78216,11,-0.00247326,10,-0.000370122,-2.0564,0.276122,0.213674,73.1162,-0.0421448,
2,1,0,1,1,20895.6,-0.0397435,-0.0400695,8.91709,11,-0.00238468,10,-0.000357303,-2.04978,0.318413,0.185294,64.4421,-0.0400695,
2,1,0,1,1,20895.6,-0.0377459,-0.0381148,9.04186,11,-0.00229486,10,-0.000344628,-2.04374,0.34877,0.169166,59.6407,-0.0381148,
2,1,0,1,1,20895.6,-0.0357483,-0.0361418,9.15134,11,-0.00220388,10,-0.000330746,-2.03852,0.39292,0.150158,53.6186,-0.0361418,
2,1,0,1,1,20895.7,-0.0337507,-0.0340787,9.25827,11,-0.00211177,10,-0.000315509,-2.03347,0.44384,0.132931,47.9736,-0.0340787,
2,1,0,1,1,20895.7,-0.0317622,-0.0321296,9.34382,11,-0.00201965,10,-0.000300213,-2.02948,0.506288,0.116534,42.4881,-0.0321296,
2,1,0,1,1,20895.7,-0.0297646,-0.0301159,9.42664,11,-0.00192578,10,-0.000283891,-2.02564,0.549728,0.107326,39.4685,-0.0301159,
2,1,0,1,1,20895.7,-0.027767,-0.0281133,9.50234,11,-0.00183112,10,-0.000267142,-2.02217,0.64926,0.0908726,33.6672,-0.0281133,
2,1,0,1,1,20895.7,-0.0257694,-0.026156,9.55996,11,-0.00173581,10,-0.000250051,-2.01954,0.750118,0.0786543,29.3449,-0.026156,
2,1,0,1,1,20895.7,-0.0237809,-0.024194,9.61735,11,-0.00164085,10,-0.000232682,-2.01694,0.76337,0.0772888,29.0114,-0.024194,
2,1,0,1,1,20895.7,-0.0217833,-0.0221413,9.67643,11,-0.00154435,10,-0.000214248,-2.01428,0.996522,0.0592059,22.3265,-0.0221413,
2,1,0,1,1,20895.7,-0.0197858,-0.0201371,9.70793,11,-0.00144741,10,-0.00019549,-2.01287,1.20947,0.0487815,18.4913,-0.0201371,
2,1,0,1,1,20895.7,-0.0177882,-0.0181919,9.74946,11,-0.00135011,10,-0.000177361,-2.01102,1.12277,0.0525485,19.9909,-0.0181919,
2,1,0,1,1,20895.7,-0.0157815,-0.0161392,9.78785,11,-0.00125241,10,-0.000157968,-2.00931,1.24907,0.047235,18.0397,-0.0161392,
2,1,0,1,1,20895.8,-0.0137839,-0.0141454,9.82246,11,-0.00115436,10,-0.000138943,-2.00778,2.35257,0.025079,9.59847,-0.0141454,
2,1,0,1,1,20895.8,-0.0117863,-0.0121829,9.82582,11,-0.00105612,10,-0.000119707,-2.00763,2.42004,0.0243798,9.36351,-0.01218289,
2,1,0,1,1,20895.8,-0.00978874,-0.0101562,9.85981,11,-0.000957641,10,-0.000100138,-2.00613,1.54759,0.0381238,14.6634,-0.0101562,
2,1,0,1,1,20895.8,-0.00778207,-0.00813811,9.88514,11,-0.000858935,10,-8.04464e-05,-2.00502,2.63215,0.0224151,8.64051,-0.00813811,
2,1,0,1,1,20895.8,-0.00578449,-0.00612267,9.89466,11,-0.000760048,10,-6.05817e-05,-2.0046,4.74392,0.012437,4.80265,-0.006122665,
2,1,0,1,1,20895.8,-0.0037869,-0.00415927,9.90424,11,-0.000661038,10,-4.11945e-05,-2.00418,3.1781,0.0185645,7.17913,-0.00415927,
2,1,0,1,1,20895.8,-0.00178931,-0.00216205,9.92309,11,-0.0005619,10,-2.14542e-05,-2.00335,76.4579,0.000771666,0.298291,-0.00216205,
2,1,0,1,1,20895.8,-2.55332e-05,-0.000325324,9.90539,11,-0.000475558,10,-3.22246e-06,-2.00413, , , ,-0.000325324,